LTriangleOpac,LCircleOpac,LHexagonOpac,LStarOpac,RTriangleOpac,RCircleOpac,RHexagonOpac,RStarOpac,LShape_ID,RShape_ID,training_blocks.thisRepN,training_blocks.thisTrialN,training_blocks.thisN,training_blocks.thisIndex,training.thisRepN,training.thisTrialN,training.thisN,training.thisIndex,task1_prac_redo.thisRepN,task1_prac_redo.thisTrialN,task1_prac_redo.thisN,task1_prac_redo.thisIndex,task1_prac_trials.thisRepN,task1_prac_trials.thisTrialN,task1_prac_trials.thisN,task1_prac_trials.thisIndex,task2_prac_redo.thisRepN,task2_prac_redo.thisTrialN,task2_prac_redo.thisN,task2_prac_redo.thisIndex,task2_praac_trials.thisRepN,task2_praac_trials.thisTrialN,task2_praac_trials.thisN,task2_praac_trials.thisIndex,vts_prac_redo.thisRepN,vts_prac_redo.thisTrialN,vts_prac_redo.thisN,vts_prac_redo.thisIndex,vts_practice_trials.thisRepN,vts_practice_trials.thisTrialN,vts_practice_trials.thisN,vts_practice_trials.thisIndex,trials_norew.thisRepN,trials_norew.thisTrialN,trials_norew.thisN,trials_norew.thisIndex,block.thisRepN,block.thisTrialN,block.thisN,block.thisIndex,trials_rew.thisRepN,trials_rew.thisTrialN,trials_rew.thisN,trials_rew.thisIndex,key_resp.started,key_resp.keys,key_resp.rt,left_circle.started,right_circle.started,left_triangle.started,right_triangle.started,left_star.started,right_star.started,left_hexagon.started,right_hexagon.started,training_fix.started,training_resp.started,training_resp.keys,training_resp.rt,points_trial,points_cumul,trainBlock,training_feedback_txt.started,fix.started,training_feedback_txt.stopped,fix.stopped,curr_topStim,curr_bottStim,curr_shape,ISI.started,tgt_fix_prac1.started,top_target_prac1.started,bott_target_prac1.started,target_resp_prac1.started,acc,E1,target_resp_prac1.keys,target_resp_prac1.rt,pracBlock,prac_fback_text.started,prac_fback_text.stopped,tgt_fix_prac2.started,top_target_prac2.started,bott_target_prac2.started,target_resp_prac2.started,target_resp_prac2.keys,target_resp_prac2.rt,star.started,hegagon.started,triangle.started,circle.started,top_target.started,tgt_fix.started,bot_target.started,target_resp.started,star.stopped,hegagon.stopped,triangle.stopped,circle.stopped,alt,task,condition,target_resp.keys,target_resp.rt,rewCond,vts_fback.started,top_target.stopped,tgt_fix.stopped,bot_target.stopped,target_resp.stopped,vts_fback.stopped,blockNum,norew_fback.started,norew_fback.stopped,key_resp_2.keys,key_resp_2.rt,rewExpectancy,feedbk_text.started,feedbk_text.stopped,text_3.started,debrief.started,text_3.stopped,button.started,debrief.index,debrief.itemText,debrief.type,debrief.granularity,debrief.font,debrief.markerColor,debrief.response,debrief.rt,button.numClicks,button.timesOn,button.timesOff,participant,date,expName,psychopyVersion,frameRate,
,,,,,,,,,,,,,,,,,,,,,,,,,,,,,,,,,,,,,,,,,,,,,,,,,,,,,,12.369359205942601,space,36.02204759884626,,,,,,,,,,,,,,,,,,,,,,,,,,,,,,,,,,,,,,,,,,,,,,,,,,,,,,,,,,,,,,,,,,,,,,,,,,,,,,,,,,,,,,,,11285,2022-11-30_10h22.22.609,vts_reward_expectancy_bt_OFFLINE,2022.2.4,59.87891501713894,
1,0,0,0,0,0,1,0,triangle,hexagon,0,0,0,0,0,0,0,1,,,,,,,,,,,,,,,,,,,,,,,,,,,,,,,,,,,,,,,,73.63796075992286,73.63796075992286,73.63796075992286,73.63796075992286,73.63796075992286,73.63796075992286,73.63796075992286,73.63796075992286,73.63796075992286,73.63796075992286,a,1.6989382226020098,10,10,0,75.36329577490687,76.87810603529215,,,,,,,,,,,,,,,,,,,,,,,,,,,,,,,,,,,,,,,,,,,,,,,,,,,,,,,,,,,,,,,,,,,,,,,11285,2022-11-30_10h22.22.609,vts_reward_expectancy_bt_OFFLINE,2022.2.4,59.87891501713894,
0,1,0,0,1,0,0,0,circle,triangle,0,0,0,0,0,1,1,3,,,,,,,,,,,,,,,,,,,,,,,,,,,,,,,,,,,,,,,,77.37852450693026,77.37852450693026,77.37852450693026,77.37852450693026,77.37852450693026,77.37852450693026,77.37852450693026,77.37852450693026,77.37852450693026,77.37852450693026,l,1.2994324769824743,10,20,0,78.69719531014562,80.19807192124426,80.19807192124426,,,,,,,,,,,,,,,,,,,,,,,,,,,,,,,,,,,,,,,,,,,,,,,,,,,,,,,,,,,,,,,,,,,,,,11285,2022-11-30_10h22.22.609,vts_reward_expectancy_bt_OFFLINE,2022.2.4,59.87891501713894,
0,1,0,0,0,0,0,1,circle,star,0,0,0,0,0,2,2,5,,,,,,,,,,,,,,,,,,,,,,,,,,,,,,,,,,,,,,,,80.69803213700652,80.69803213700652,80.69803213700652,80.69803213700652,80.69803213700652,80.69803213700652,80.69803213700652,80.69803213700652,80.69803213700652,80.69803213700652,l,1.4558525690808892,1,21,0,82.18292887229472,83.68445277400315,,,,,,,,,,,,,,,,,,,,,,,,,,,,,,,,,,,,,,,,,,,,,,,,,,,,,,,,,,,,,,,,,,,,,,,11285,2022-11-30_10h22.22.609,vts_reward_expectancy_bt_OFFLINE,2022.2.4,59.87891501713894,
0,0,0,1,1,0,0,0,star,triangle,0,0,0,0,0,3,3,9,,,,,,,,,,,,,,,,,,,,,,,,,,,,,,,,,,,,,,,,84.18461633007973,84.18461633007973,84.18461633007973,84.18461633007973,84.18461633007973,84.18461633007973,84.18461633007973,84.18461633007973,84.18461633007973,84.18461633007973,l,1.0183676164597273,10,31,0,85.23507145419717,86.73558124527335,86.73558124527335,87.23562447587028,,,,,,,,,,,,,,,,,,,,,,,,,,,,,,,,,,,,,,,,,,,,,,,,,,,,,,,,,,,,,,,,,,,,,11285,2022-11-30_10h22.22.609,vts_reward_expectancy_bt_OFFLINE,2022.2.4,59.87891501713894,
0,0,1,0,1,0,0,0,hexagon,triangle,0,0,0,0,0,4,4,6,,,,,,,,,,,,,,,,,,,,,,,,,,,,,,,,,,,,,,,,87.23562447587028,87.23562447587028,87.23562447587028,87.23562447587028,87.23562447587028,87.23562447587028,87.23562447587028,87.23562447587028,87.23562447587028,87.23562447587028,l,1.230357120744884,10,41,0,88.48787635983899,89.98861690796912,89.98861690796912,90.488639049232,,,,,,,,,,,,,,,,,,,,,,,,,,,,,,,,,,,,,,,,,,,,,,,,,,,,,,,,,,,,,,,,,,,,,11285,2022-11-30_10h22.22.609,vts_reward_expectancy_bt_OFFLINE,2022.2.4,59.87891501713894,
1,0,0,0,0,0,0,1,triangle,star,0,0,0,0,0,5,5,2,,,,,,,,,,,,,,,,,,,,,,,,,,,,,,,,,,,,,,,,90.488639049232,90.488639049232,90.488639049232,90.488639049232,90.488639049232,90.488639049232,90.488639049232,90.488639049232,90.488639049232,90.488639049232,a,1.3183231060393155,10,51,0,91.83932860428467,93.34161670785397,,,,,,,,,,,,,,,,,,,,,,,,,,,,,,,,,,,,,,,,,,,,,,,,,,,,,,,,,,,,,,,,,,,,,,,11285,2022-11-30_10h22.22.609,vts_reward_expectancy_bt_OFFLINE,2022.2.4,59.87891501713894,
0,0,1,0,0,0,0,1,hexagon,star,0,0,0,0,0,6,6,8,,,,,,,,,,,,,,,,,,,,,,,,,,,,,,,,,,,,,,,,93.84172871522605,93.84172871522605,93.84172871522605,93.84172871522605,93.84172871522605,93.84172871522605,93.84172871522605,93.84172871522605,93.84172871522605,93.84172871522605,a,1.2287182337604463,1,52,0,95.09299583313987,96.5926852109842,,97.09274445427582,,,,,,,,,,,,,,,,,,,,,,,,,,,,,,,,,,,,,,,,,,,,,,,,,,,,,,,,,,,,,,,,,,,,,11285,2022-11-30_10h22.22.609,vts_reward_expectancy_bt_OFFLINE,2022.2.4,59.87891501713894,
1,0,0,0,0,1,0,0,triangle,circle,0,0,0,0,0,7,7,0,,,,,,,,,,,,,,,,,,,,,,,,,,,,,,,,,,,,,,,,97.09274445427582,97.09274445427582,97.09274445427582,97.09274445427582,97.09274445427582,97.09274445427582,97.09274445427582,97.09274445427582,97.09274445427582,97.09274445427582,a,0.812526139896363,10,62,0,97.92931361496449,99.42891467921436,99.42891467921436,99.92900800984353,,,,,,,,,,,,,,,,,,,,,,,,,,,,,,,,,,,,,,,,,,,,,,,,,,,,,,,,,,,,,,,,,,,,,11285,2022-11-30_10h22.22.609,vts_reward_expectancy_bt_OFFLINE,2022.2.4,59.87891501713894,
0,1,0,0,0,0,1,0,circle,hexagon,0,0,0,0,0,8,8,4,,,,,,,,,,,,,,,,,,,,,,,,,,,,,,,,,,,,,,,,99.92900800984353,99.92900800984353,99.92900800984353,99.92900800984353,99.92900800984353,99.92900800984353,99.92900800984353,99.92900800984353,99.92900800984353,99.92900800984353,a,0.6871698019094765,10,72,0,100.64597058203071,102.14652887824923,102.14652887824923,,,,,,,,,,,,,,,,,,,,,,,,,,,,,,,,,,,,,,,,,,,,,,,,,,,,,,,,,,,,,,,,,,,,,,11285,2022-11-30_10h22.22.609,vts_reward_expectancy_bt_OFFLINE,2022.2.4,59.87891501713894,
0,0,1,0,0,1,0,0,hexagon,circle,0,0,0,0,0,9,9,7,,,,,,,,,,,,,,,,,,,,,,,,,,,,,,,,,,,,,,,,102.64661756111309,102.64661756111309,102.64661756111309,102.64661756111309,102.64661756111309,102.64661756111309,102.64661756111309,102.64661756111309,102.64661756111309,102.64661756111309,l,0.8384021045640111,1,73,0,103.51658545387909,105.01619691494852,105.01619691494852,105.51621090900153,,,,,,,,,,,,,,,,,,,,,,,,,,,,,,,,,,,,,,,,,,,,,,,,,,,,,,,,,,,,,,,,,,,,,11285,2022-11-30_10h22.22.609,vts_reward_expectancy_bt_OFFLINE,2022.2.4,59.87891501713894,
0,0,0,1,0,1,0,0,star ,circle,0,0,0,0,0,10,10,10,,,,,,,,,,,,,,,,,,,,,,,,,,,,,,,,,,,,,,,,105.51621090900153,105.51621090900153,105.51621090900153,105.51621090900153,105.51621090900153,105.51621090900153,105.51621090900153,105.51621090900153,105.51621090900153,105.51621090900153,l,2.931164724752307,10,83,0,108.47008675988764,109.96986948885024,109.96986948885024,110.46993583114818,,,,,,,,,,,,,,,,,,,,,,,,,,,,,,,,,,,,,,,,,,,,,,,,,,,,,,,,,,,,,,,,,,,,,11285,2022-11-30_10h22.22.609,vts_reward_expectancy_bt_OFFLINE,2022.2.4,59.87891501713894,
0,0,0,1,0,0,1,0,star,hexagon,0,0,0,0,0,11,11,11,,,,,,,,,,,,,,,,,,,,,,,,,,,,,,,,,,,,,,,,110.46993583114818,110.46993583114818,110.46993583114818,110.46993583114818,110.46993583114818,110.46993583114818,110.46993583114818,110.46993583114818,110.46993583114818,110.46993583114818,a,3.0067502977326512,1,84,0,113.5069741262123,115.00668729515746,,115.50695195421576,,,,,,,,,,,,,,,,,,,,,,,,,,,,,,,,,,,,,,,,,,,,,,,,,,,,,,,,,,,,,,,,,,,,,11285,2022-11-30_10h22.22.609,vts_reward_expectancy_bt_OFFLINE,2022.2.4,59.87891501713894,
1,0,0,0,0,1,0,0,triangle,circle,0,0,0,0,1,0,12,0,,,,,,,,,,,,,,,,,,,,,,,,,,,,,,,,,,,,,,,,115.50695195421576,115.50695195421576,115.50695195421576,115.50695195421576,115.50695195421576,115.50695195421576,115.50695195421576,115.50695195421576,115.50695195421576,115.50695195421576,a,0.8157448749989271,10,94,0,116.34154976019636,117.84286645008251,,,,,,,,,,,,,,,,,,,,,,,,,,,,,,,,,,,,,,,,,,,,,,,,,,,,,,,,,,,,,,,,,,,,,,,11285,2022-11-30_10h22.22.609,vts_reward_expectancy_bt_OFFLINE,2022.2.4,59.87891501713894,
0,0,0,1,0,0,1,0,star,hexagon,0,0,0,0,1,1,13,11,,,,,,,,,,,,,,,,,,,,,,,,,,,,,,,,,,,,,,,,118.34286284819245,118.34286284819245,118.34286284819245,118.34286284819245,118.34286284819245,118.34286284819245,118.34286284819245,118.34286284819245,118.34286284819245,118.34286284819245,l,1.3889228557236493,1,95,0,119.76119903707877,121.26055952021852,121.26055952021852,121.76102667301893,,,,,,,,,,,,,,,,,,,,,,,,,,,,,,,,,,,,,,,,,,,,,,,,,,,,,,,,,,,,,,,,,,,,,11285,2022-11-30_10h22.22.609,vts_reward_expectancy_bt_OFFLINE,2022.2.4,59.87891501713894,
0,1,0,0,0,0,0,1,circle,star,0,0,0,0,1,2,14,5,,,,,,,,,,,,,,,,,,,,,,,,,,,,,,,,,,,,,,,,121.76102667301893,121.76102667301893,121.76102667301893,121.76102667301893,121.76102667301893,121.76102667301893,121.76102667301893,121.76102667301893,121.76102667301893,121.76102667301893,a,1.6838259086944163,1,96,0,123.46330373594537,124.96396759198979,124.96396759198979,125.46410565124825,,,,,,,,,,,,,,,,,,,,,,,,,,,,,,,,,,,,,,,,,,,,,,,,,,,,,,,,,,,,,,,,,,,,,11285,2022-11-30_10h22.22.609,vts_reward_expectancy_bt_OFFLINE,2022.2.4,59.87891501713894,
0,1,0,0,1,0,0,0,circle,triangle,0,0,0,0,1,3,15,3,,,,,,,,,,,,,,,,,,,,,,,,,,,,,,,,,,,,,,,,125.46410565124825,125.46410565124825,125.46410565124825,125.46410565124825,125.46410565124825,125.46410565124825,125.46410565124825,125.46410565124825,125.46410565124825,125.46410565124825,l,0.7820600150153041,10,106,0,126.265221263282,127.76998686697334,,,,,,,,,,,,,,,,,,,,,,,,,,,,,,,,,,,,,,,,,,,,,,,,,,,,,,,,,,,,,,,,,,,,,,,11285,2022-11-30_10h22.22.609,vts_reward_expectancy_bt_OFFLINE,2022.2.4,59.87891501713894,
0,0,1,0,0,0,0,1,hexagon,star,0,0,0,0,1,4,16,8,,,,,,,,,,,,,,,,,,,,,,,,,,,,,,,,,,,,,,,,128.26700327917933,128.26700327917933,128.26700327917933,128.26700327917933,128.26700327917933,128.26700327917933,128.26700327917933,128.26700327917933,128.26700327917933,128.26700327917933,l,1.499460385646671,1,107,0,129.78508100099862,131.28491970989853,131.28491970989853,131.7848016899079,,,,,,,,,,,,,,,,,,,,,,,,,,,,,,,,,,,,,,,,,,,,,,,,,,,,,,,,,,,,,,,,,,,,,11285,2022-11-30_10h22.22.609,vts_reward_expectancy_bt_OFFLINE,2022.2.4,59.87891501713894,
0,0,0,1,1,0,0,0,star,triangle,0,0,0,0,1,5,17,9,,,,,,,,,,,,,,,,,,,,,,,,,,,,,,,,,,,,,,,,131.7848016899079,131.7848016899079,131.7848016899079,131.7848016899079,131.7848016899079,131.7848016899079,131.7848016899079,131.7848016899079,131.7848016899079,131.7848016899079,l,0.9067801116034389,10,117,0,132.7196119860746,134.22107014805079,,,,,,,,,,,,,,,,,,,,,,,,,,,,,,,,,,,,,,,,,,,,,,,,,,,,,,,,,,,,,,,,,,,,,,,11285,2022-11-30_10h22.22.609,vts_reward_expectancy_bt_OFFLINE,2022.2.4,59.87891501713894,
0,0,0,1,0,1,0,0,star ,circle,0,0,0,0,1,6,18,10,,,,,,,,,,,,,,,,,,,,,,,,,,,,,,,,,,,,,,,,134.72131802001968,134.72131802001968,134.72131802001968,134.72131802001968,134.72131802001968,134.72131802001968,134.72131802001968,134.72131802001968,134.72131802001968,134.72131802001968,l,1.2785341627895832,10,127,0,136.02164180390537,137.52194757992402,137.52194757992402,,,,,,,,,,,,,,,,,,,,,,,,,,,,,,,,,,,,,,,,,,,,,,,,,,,,,,,,,,,,,,,,,,,,,,11285,2022-11-30_10h22.22.609,vts_reward_expectancy_bt_OFFLINE,2022.2.4,59.87891501713894,
0,0,1,0,1,0,0,0,hexagon,triangle,0,0,0,0,1,7,19,6,,,,,,,,,,,,,,,,,,,,,,,,,,,,,,,,,,,,,,,,138.02434265706688,138.02434265706688,138.02434265706688,138.02434265706688,138.02434265706688,138.02434265706688,138.02434265706688,138.02434265706688,138.02434265706688,138.02434265706688,l,0.979900632519275,10,137,0,139.02456168504432,140.5249771452509,140.5249771452509,141.0250955359079,,,,,,,,,,,,,,,,,,,,,,,,,,,,,,,,,,,,,,,,,,,,,,,,,,,,,,,,,,,,,,,,,,,,,11285,2022-11-30_10h22.22.609,vts_reward_expectancy_bt_OFFLINE,2022.2.4,59.87891501713894,
1,0,0,0,0,0,0,1,triangle,star,0,0,0,0,1,8,20,2,,,,,,,,,,,,,,,,,,,,,,,,,,,,,,,,,,,,,,,,141.0250955359079,141.0250955359079,141.0250955359079,141.0250955359079,141.0250955359079,141.0250955359079,141.0250955359079,141.0250955359079,141.0250955359079,141.0250955359079,a,0.6452942499890924,1,138,0,141.69343775324523,143.19445822713897,,,,,,,,,,,,,,,,,,,,,,,,,,,,,,,,,,,,,,,,,,,,,,,,,,,,,,,,,,,,,,,,,,,,,,,11285,2022-11-30_10h22.22.609,vts_reward_expectancy_bt_OFFLINE,2022.2.4,59.87891501713894,
0,1,0,0,0,0,1,0,circle,hexagon,0,0,0,0,1,9,21,4,,,,,,,,,,,,,,,,,,,,,,,,,,,,,,,,,,,,,,,,143.6947227260098,143.6947227260098,143.6947227260098,143.6947227260098,143.6947227260098,143.6947227260098,143.6947227260098,143.6947227260098,143.6947227260098,143.6947227260098,a,1.6761822206899524,1,139,0,145.39550998806953,146.89600060414523,146.89600060414523,147.3959386749193,,,,,,,,,,,,,,,,,,,,,,,,,,,,,,,,,,,,,,,,,,,,,,,,,,,,,,,,,,,,,,,,,,,,,11285,2022-11-30_10h22.22.609,vts_reward_expectancy_bt_OFFLINE,2022.2.4,59.87891501713894,
0,0,1,0,0,1,0,0,hexagon,circle,0,0,0,0,1,10,22,7,,,,,,,,,,,,,,,,,,,,,,,,,,,,,,,,,,,,,,,,147.3959386749193,147.3959386749193,147.3959386749193,147.3959386749193,147.3959386749193,147.3959386749193,147.3959386749193,147.3959386749193,147.3959386749193,147.3959386749193,a,0.5639992947690189,1,140,0,147.98144654324278,149.481998805888,149.481998805888,149.98194291302934,,,,,,,,,,,,,,,,,,,,,,,,,,,,,,,,,,,,,,,,,,,,,,,,,,,,,,,,,,,,,,,,,,,,,11285,2022-11-30_10h22.22.609,vts_reward_expectancy_bt_OFFLINE,2022.2.4,59.87891501713894,
1,0,0,0,0,0,1,0,triangle,hexagon,0,0,0,0,1,11,23,1,,,,,,,,,,,,,,,,,,,,,,,,,,,,,,,,,,,,,,,,149.98194291302934,149.98194291302934,149.98194291302934,149.98194291302934,149.98194291302934,149.98194291302934,149.98194291302934,149.98194291302934,149.98194291302934,149.98194291302934,a,0.7897007628343999,10,150,0,150.79961446113884,152.29973201220855,,,,,,,,,,,,,,,,,,,,,,,,,,,,,,,,,,,,,,,,,,,,,,,,,,,,,,,,,,,,,,,,,,,,,,,11285,2022-11-30_10h22.22.609,vts_reward_expectancy_bt_OFFLINE,2022.2.4,59.87891501713894,
0,0,0,1,0,0,1,0,star,hexagon,0,0,0,0,2,0,24,11,,,,,,,,,,,,,,,,,,,,,,,,,,,,,,,,,,,,,,,,152.80348723987117,152.80348723987117,152.80348723987117,152.80348723987117,152.80348723987117,152.80348723987117,152.80348723987117,152.80348723987117,152.80348723987117,152.80348723987117,l,2.0297460895963013,1,151,0,154.85367239126936,156.35287941107526,156.35287941107526,156.85308183915913,,,,,,,,,,,,,,,,,,,,,,,,,,,,,,,,,,,,,,,,,,,,,,,,,,,,,,,,,,,,,,,,,,,,,11285,2022-11-30_10h22.22.609,vts_reward_expectancy_bt_OFFLINE,2022.2.4,59.87891501713894,
0,1,0,0,0,0,0,1,circle,star,0,0,0,0,2,1,25,5,,,,,,,,,,,,,,,,,,,,,,,,,,,,,,,,,,,,,,,,156.85308183915913,156.85308183915913,156.85308183915913,156.85308183915913,156.85308183915913,156.85308183915913,156.85308183915913,156.85308183915913,156.85308183915913,156.85308183915913,a,1.1075953738763928,10,161,0,157.98975476203486,159.48938324628398,159.48938324628398,159.98928590398282,,,,,,,,,,,,,,,,,,,,,,,,,,,,,,,,,,,,,,,,,,,,,,,,,,,,,,,,,,,,,,,,,,,,,11285,2022-11-30_10h22.22.609,vts_reward_expectancy_bt_OFFLINE,2022.2.4,59.87891501713894,
1,0,0,0,0,0,1,0,triangle,hexagon,0,0,0,0,2,2,26,1,,,,,,,,,,,,,,,,,,,,,,,,,,,,,,,,,,,,,,,,159.98928590398282,159.98928590398282,159.98928590398282,159.98928590398282,159.98928590398282,159.98928590398282,159.98928590398282,159.98928590398282,159.98928590398282,159.98928590398282,a,0.8635842208750546,1,162,0,160.87426710221916,162.37371007399634,162.37371007399634,,,,,,,,,,,,,,,,,,,,,,,,,,,,,,,,,,,,,,,,,,,,,,,,,,,,,,,,,,,,,,,,,,,,,,11285,2022-11-30_10h22.22.609,vts_reward_expectancy_bt_OFFLINE,2022.2.4,59.87891501713894,
0,0,0,1,0,1,0,0,star ,circle,0,0,0,0,2,3,27,10,,,,,,,,,,,,,,,,,,,,,,,,,,,,,,,,,,,,,,,,162.8757277089171,162.8757277089171,162.8757277089171,162.8757277089171,162.8757277089171,162.8757277089171,162.8757277089171,162.8757277089171,162.8757277089171,162.8757277089171,a,1.0813835933804512,1,163,0,163.97596389986575,165.47652982221916,165.47652982221916,165.97679866012186,,,,,,,,,,,,,,,,,,,,,,,,,,,,,,,,,,,,,,,,,,,,,,,,,,,,,,,,,,,,,,,,,,,,,11285,2022-11-30_10h22.22.609,vts_reward_expectancy_bt_OFFLINE,2022.2.4,59.87891501713894,
1,0,0,0,0,0,0,1,triangle,star,0,0,0,0,2,4,28,2,,,,,,,,,,,,,,,,,,,,,,,,,,,,,,,,,,,,,,,,165.97679866012186,165.97679866012186,165.97679866012186,165.97679866012186,165.97679866012186,165.97679866012186,165.97679866012186,165.97679866012186,165.97679866012186,165.97679866012186,a,0.5911414786241949,1,164,0,166.59345009597018,168.09579973528162,,,,,,,,,,,,,,,,,,,,,,,,,,,,,,,,,,,,,,,,,,,,,,,,,,,,,,,,,,,,,,,,,,,,,,,11285,2022-11-30_10h22.22.609,vts_reward_expectancy_bt_OFFLINE,2022.2.4,59.87891501713894,
0,0,1,0,0,1,0,0,hexagon,circle,0,0,0,0,2,5,29,7,,,,,,,,,,,,,,,,,,,,,,,,,,,,,,,,,,,,,,,,168.5961945829913,168.5961945829913,168.5961945829913,168.5961945829913,168.5961945829913,168.5961945829913,168.5961945829913,168.5961945829913,168.5961945829913,168.5961945829913,l,0.8404197436757386,10,174,0,169.46579322591424,170.98030790686607,,,,,,,,,,,,,,,,,,,,,,,,,,,,,,,,,,,,,,,,,,,,,,,,,,,,,,,,,,,,,,,,,,,,,,,11285,2022-11-30_10h22.22.609,vts_reward_expectancy_bt_OFFLINE,2022.2.4,59.87891501713894,
0,0,1,0,0,0,0,1,hexagon,star,0,0,0,0,2,6,30,8,,,,,,,,,,,,,,,,,,,,,,,,,,,,,,,,,,,,,,,,171.4806581339799,171.4806581339799,171.4806581339799,171.4806581339799,171.4806581339799,171.4806581339799,171.4806581339799,171.4806581339799,171.4806581339799,171.4806581339799,a,2.0394184198230505,1,175,0,173.55061082495376,175.05036969389766,175.05036969389766,,,,,,,,,,,,,,,,,,,,,,,,,,,,,,,,,,,,,,,,,,,,,,,,,,,,,,,,,,,,,,,,,,,,,,11285,2022-11-30_10h22.22.609,vts_reward_expectancy_bt_OFFLINE,2022.2.4,59.87891501713894,
0,1,0,0,0,0,1,0,circle,hexagon,0,0,0,0,2,7,31,4,,,,,,,,,,,,,,,,,,,,,,,,,,,,,,,,,,,,,,,,175.55059948423877,175.55059948423877,175.55059948423877,175.55059948423877,175.55059948423877,175.55059948423877,175.55059948423877,175.55059948423877,175.55059948423877,175.55059948423877,a,1.2093772869557142,10,185,0,176.78598728915676,178.2868003770709,,,,,,,,,,,,,,,,,,,,,,,,,,,,,,,,,,,,,,,,,,,,,,,,,,,,,,,,,,,,,,,,,,,,,,,11285,2022-11-30_10h22.22.609,vts_reward_expectancy_bt_OFFLINE,2022.2.4,59.87891501713894,
0,0,0,1,1,0,0,0,star,triangle,0,0,0,0,2,8,32,9,,,,,,,,,,,,,,,,,,,,,,,,,,,,,,,,,,,,,,,,178.78703074809164,178.78703074809164,178.78703074809164,178.78703074809164,178.78703074809164,178.78703074809164,178.78703074809164,178.78703074809164,178.78703074809164,178.78703074809164,l,0.5383166298270226,10,195,0,179.35374493012205,180.85391073627397,180.85391073627397,181.3546068132855,,,,,,,,,,,,,,,,,,,,,,,,,,,,,,,,,,,,,,,,,,,,,,,,,,,,,,,,,,,,,,,,,,,,,11285,2022-11-30_10h22.22.609,vts_reward_expectancy_bt_OFFLINE,2022.2.4,59.87891501713894,
1,0,0,0,0,1,0,0,triangle,circle,0,0,0,0,2,9,33,0,,,,,,,,,,,,,,,,,,,,,,,,,,,,,,,,,,,,,,,,181.3546068132855,181.3546068132855,181.3546068132855,181.3546068132855,181.3546068132855,181.3546068132855,181.3546068132855,181.3546068132855,181.3546068132855,181.3546068132855,a,0.8733751317486167,10,205,0,182.25493813911453,183.75694816512987,,,,,,,,,,,,,,,,,,,,,,,,,,,,,,,,,,,,,,,,,,,,,,,,,,,,,,,,,,,,,,,,,,,,,,,11285,2022-11-30_10h22.22.609,vts_reward_expectancy_bt_OFFLINE,2022.2.4,59.87891501713894,
0,1,0,0,1,0,0,0,circle,triangle,0,0,0,0,2,10,34,3,,,,,,,,,,,,,,,,,,,,,,,,,,,,,,,,,,,,,,,,184.2574852220714,184.2574852220714,184.2574852220714,184.2574852220714,184.2574852220714,184.2574852220714,184.2574852220714,184.2574852220714,184.2574852220714,184.2574852220714,l,0.8504643314518034,10,215,0,185.12432639021426,186.62504443898797,186.62504443898797,187.12497606221586,,,,,,,,,,,,,,,,,,,,,,,,,,,,,,,,,,,,,,,,,,,,,,,,,,,,,,,,,,,,,,,,,,,,,11285,2022-11-30_10h22.22.609,vts_reward_expectancy_bt_OFFLINE,2022.2.4,59.87891501713894,
0,0,1,0,1,0,0,0,hexagon,triangle,0,0,0,0,2,11,35,6,,,,,,,,,,,,,,,,,,,,,,,,,,,,,,,,,,,,,,,,187.12497606221586,187.12497606221586,187.12497606221586,187.12497606221586,187.12497606221586,187.12497606221586,187.12497606221586,187.12497606221586,187.12497606221586,187.12497606221586,l,0.5822093565948308,1,216,0,187.7265230929479,189.22772446507588,,,,,,,,,,,,,,,,,,,,,,,,,,,,,,,,,,,,,,,,,,,,,,,,,,,,,,,,,,,,,,,,,,,,,,,11285,2022-11-30_10h22.22.609,vts_reward_expectancy_bt_OFFLINE,2022.2.4,59.87891501713894,
0,0,1,0,1,0,0,0,hexagon,triangle,0,0,0,0,3,0,36,6,,,,,,,,,,,,,,,,,,,,,,,,,,,,,,,,,,,,,,,,189.72795504517853,189.72795504517853,189.72795504517853,189.72795504517853,189.72795504517853,189.72795504517853,189.72795504517853,189.72795504517853,189.72795504517853,189.72795504517853,l,0.7806384838186204,10,226,0,190.52923832507804,192.02882818924263,192.02882818924263,,,,,,,,,,,,,,,,,,,,,,,,,,,,,,,,,,,,,,,,,,,,,,,,,,,,,,,,,,,,,,,,,,,,,,11285,2022-11-30_10h22.22.609,vts_reward_expectancy_bt_OFFLINE,2022.2.4,59.87891501713894,
0,0,1,0,0,1,0,0,hexagon,circle,0,0,0,0,3,1,37,7,,,,,,,,,,,,,,,,,,,,,,,,,,,,,,,,,,,,,,,,192.52879266720265,192.52879266720265,192.52879266720265,192.52879266720265,192.52879266720265,192.52879266720265,192.52879266720265,192.52879266720265,192.52879266720265,192.52879266720265,l,0.9281244417652488,10,236,0,193.48108916496858,194.98148288112134,194.98148288112134,195.48162394715473,,,,,,,,,,,,,,,,,,,,,,,,,,,,,,,,,,,,,,,,,,,,,,,,,,,,,,,,,,,,,,,,,,,,,11285,2022-11-30_10h22.22.609,vts_reward_expectancy_bt_OFFLINE,2022.2.4,59.87891501713894,
0,0,0,1,1,0,0,0,star,triangle,0,0,0,0,3,2,38,9,,,,,,,,,,,,,,,,,,,,,,,,,,,,,,,,,,,,,,,,195.48162394715473,195.48162394715473,195.48162394715473,195.48162394715473,195.48162394715473,195.48162394715473,195.48162394715473,195.48162394715473,195.48162394715473,195.48162394715473,l,0.741869599558413,10,246,0,196.24860161403194,197.74938260624185,197.74938260624185,,,,,,,,,,,,,,,,,,,,,,,,,,,,,,,,,,,,,,,,,,,,,,,,,,,,,,,,,,,,,,,,,,,,,,11285,2022-11-30_10h22.22.609,vts_reward_expectancy_bt_OFFLINE,2022.2.4,59.87891501713894,
1,0,0,0,0,1,0,0,triangle,circle,0,0,0,0,3,3,39,0,,,,,,,,,,,,,,,,,,,,,,,,,,,,,,,,,,,,,,,,198.25129636609927,198.25129636609927,198.25129636609927,198.25129636609927,198.25129636609927,198.25129636609927,198.25129636609927,198.25129636609927,198.25129636609927,198.25129636609927,a,1.3927964656613767,10,256,0,199.66846944205463,201.168941705022,201.168941705022,201.66906331526116,,,,,,,,,,,,,,,,,,,,,,,,,,,,,,,,,,,,,,,,,,,,,,,,,,,,,,,,,,,,,,,,,,,,,11285,2022-11-30_10h22.22.609,vts_reward_expectancy_bt_OFFLINE,2022.2.4,59.87891501713894,
0,0,1,0,0,0,0,1,hexagon,star,0,0,0,0,3,4,40,8,,,,,,,,,,,,,,,,,,,,,,,,,,,,,,,,,,,,,,,,201.66906331526116,201.66906331526116,201.66906331526116,201.66906331526116,201.66906331526116,201.66906331526116,201.66906331526116,201.66906331526116,201.66906331526116,201.66906331526116,l,1.3848693608306348,1,257,0,203.07271796511486,204.5719306259416,204.5719306259416,205.07204475905746,,,,,,,,,,,,,,,,,,,,,,,,,,,,,,,,,,,,,,,,,,,,,,,,,,,,,,,,,,,,,,,,,,,,,11285,2022-11-30_10h22.22.609,vts_reward_expectancy_bt_OFFLINE,2022.2.4,59.87891501713894,
1,0,0,0,0,0,0,1,triangle,star,0,0,0,0,3,5,41,2,,,,,,,,,,,,,,,,,,,,,,,,,,,,,,,,,,,,,,,,205.07204475905746,205.07204475905746,205.07204475905746,205.07204475905746,205.07204475905746,205.07204475905746,205.07204475905746,205.07204475905746,205.07204475905746,205.07204475905746,l,0.5796456900425255,1,258,0,205.67239769222215,207.17307492392138,207.17307492392138,,,,,,,,,,,,,,,,,,,,,,,,,,,,,,,,,,,,,,,,,,,,,,,,,,,,,,,,,,,,,,,,,,,,,,11285,2022-11-30_10h22.22.609,vts_reward_expectancy_bt_OFFLINE,2022.2.4,59.87891501713894,
0,1,0,0,0,0,1,0,circle,hexagon,0,0,0,0,3,6,42,4,,,,,,,,,,,,,,,,,,,,,,,,,,,,,,,,,,,,,,,,207.6729969312437,207.6729969312437,207.6729969312437,207.6729969312437,207.6729969312437,207.6729969312437,207.6729969312437,207.6729969312437,207.6729969312437,207.6729969312437,a,0.8368768757209182,1,259,0,208.54206399898976,210.04271106189117,210.04271106189117,210.54261213820428,,,,,,,,,,,,,,,,,,,,,,,,,,,,,,,,,,,,,,,,,,,,,,,,,,,,,,,,,,,,,,,,,,,,,11285,2022-11-30_10h22.22.609,vts_reward_expectancy_bt_OFFLINE,2022.2.4,59.87891501713894,
0,0,0,1,0,1,0,0,star ,circle,0,0,0,0,3,7,43,10,,,,,,,,,,,,,,,,,,,,,,,,,,,,,,,,,,,,,,,,210.54261213820428,210.54261213820428,210.54261213820428,210.54261213820428,210.54261213820428,210.54261213820428,210.54261213820428,210.54261213820428,210.54261213820428,210.54261213820428,l,1.2186373299919069,10,269,0,211.79320602910593,213.29569638799876,,,,,,,,,,,,,,,,,,,,,,,,,,,,,,,,,,,,,,,,,,,,,,,,,,,,,,,,,,,,,,,,,,,,,,,11285,2022-11-30_10h22.22.609,vts_reward_expectancy_bt_OFFLINE,2022.2.4,59.87891501713894,
0,0,0,1,0,0,1,0,star,hexagon,0,0,0,0,3,8,44,11,,,,,,,,,,,,,,,,,,,,,,,,,,,,,,,,,,,,,,,,213.79569740127772,213.79569740127772,213.79569740127772,213.79569740127772,213.79569740127772,213.79569740127772,213.79569740127772,213.79569740127772,213.79569740127772,213.79569740127772,a,1.4864120334386826,1,270,0,215.31463670311496,216.83019377104938,,,,,,,,,,,,,,,,,,,,,,,,,,,,,,,,,,,,,,,,,,,,,,,,,,,,,,,,,,,,,,,,,,,,,,,11285,2022-11-30_10h22.22.609,vts_reward_expectancy_bt_OFFLINE,2022.2.4,59.87891501713894,
1,0,0,0,0,0,1,0,triangle,hexagon,0,0,0,0,3,9,45,1,,,,,,,,,,,,,,,,,,,,,,,,,,,,,,,,,,,,,,,,217.33037789305672,217.33037789305672,217.33037789305672,217.33037789305672,217.33037789305672,217.33037789305672,217.33037789305672,217.33037789305672,217.33037789305672,217.33037789305672,a,0.48390277475118637,1,271,0,217.83784757414833,219.34961410984397,,,,,,,,,,,,,,,,,,,,,,,,,,,,,,,,,,,,,,,,,,,,,,,,,,,,,,,,,,,,,,,,,,,,,,,11285,2022-11-30_10h22.22.609,vts_reward_expectancy_bt_OFFLINE,2022.2.4,59.87891501713894,
0,1,0,0,0,0,0,1,circle,star,0,0,0,0,3,10,46,5,,,,,,,,,,,,,,,,,,,,,,,,,,,,,,,,,,,,,,,,219.8495718012564,219.8495718012564,219.8495718012564,219.8495718012564,219.8495718012564,219.8495718012564,219.8495718012564,219.8495718012564,219.8495718012564,219.8495718012564,a,1.1264687166549265,10,281,0,221.00137280113995,222.50075059011579,222.50075059011579,,,,,,,,,,,,,,,,,,,,,,,,,,,,,,,,,,,,,,,,,,,,,,,,,,,,,,,,,,,,,,,,,,,,,,11285,2022-11-30_10h22.22.609,vts_reward_expectancy_bt_OFFLINE,2022.2.4,59.87891501713894,
0,1,0,0,1,0,0,0,circle,triangle,0,0,0,0,3,11,47,3,,,,,,,,,,,,,,,,,,,,,,,,,,,,,,,,,,,,,,,,223.0026469179429,223.0026469179429,223.0026469179429,223.0026469179429,223.0026469179429,223.0026469179429,223.0026469179429,223.0026469179429,223.0026469179429,223.0026469179429,l,0.7850477057509124,10,291,0,223.81950537627563,225.32011319324374,225.32011319324374,225.82705296808854,,,,,,,,,,,,,,,,,,,,,,,,,,,,,,,,,,,,,,,,,,,,,,,,,,,,,,,,,,,,,,,,,,,,,11285,2022-11-30_10h22.22.609,vts_reward_expectancy_bt_OFFLINE,2022.2.4,59.87891501713894,
0,0,1,0,0,1,0,0,hexagon,circle,1,0,1,0,0,0,0,7,,,,,,,,,,,,,,,,,,,,,,,,,,,,,,,,,,,,,,,,231.30211658589542,231.30211658589542,231.30211658589542,231.30211658589542,231.30211658589542,231.30211658589542,231.30211658589542,231.30211658589542,231.30211658589542,231.30211658589542,a,1.6106295129284263,1,292,1,232.9434356689453,234.44373095501214,234.44373095501214,234.9438871969469,,,,,,,,,,,,,,,,,,,,,,,,,,,,,,,,,,,,,,,,,,,,,,,,,,,,,,,,,,,,,,,,,,,,,11285,2022-11-30_10h22.22.609,vts_reward_expectancy_bt_OFFLINE,2022.2.4,59.87891501713894,
0,0,0,1,1,0,0,0,star,triangle,1,0,1,0,0,1,1,9,,,,,,,,,,,,,,,,,,,,,,,,,,,,,,,,,,,,,,,,234.9438871969469,234.9438871969469,234.9438871969469,234.9438871969469,234.9438871969469,234.9438871969469,234.9438871969469,234.9438871969469,234.9438871969469,234.9438871969469,l,0.4543822309933603,10,302,1,235.42944746883586,236.94471610803157,,,,,,,,,,,,,,,,,,,,,,,,,,,,,,,,,,,,,,,,,,,,,,,,,,,,,,,,,,,,,,,,,,,,,,,11285,2022-11-30_10h22.22.609,vts_reward_expectancy_bt_OFFLINE,2022.2.4,59.87891501713894,
0,0,1,0,0,0,0,1,hexagon,star,1,0,1,0,0,2,2,8,,,,,,,,,,,,,,,,,,,,,,,,,,,,,,,,,,,,,,,,237.44465416995808,237.44465416995808,237.44465416995808,237.44465416995808,237.44465416995808,237.44465416995808,237.44465416995808,237.44465416995808,237.44465416995808,237.44465416995808,a,1.9028009586036205,1,303,1,239.36581588024274,240.8810934140347,,,,,,,,,,,,,,,,,,,,,,,,,,,,,,,,,,,,,,,,,,,,,,,,,,,,,,,,,,,,,,,,,,,,,,,11285,2022-11-30_10h22.22.609,vts_reward_expectancy_bt_OFFLINE,2022.2.4,59.87891501713894,
0,0,0,1,0,1,0,0,star ,circle,1,0,1,0,0,3,3,10,,,,,,,,,,,,,,,,,,,,,,,,,,,,,,,,,,,,,,,,241.38150948518887,241.38150948518887,241.38150948518887,241.38150948518887,241.38150948518887,241.38150948518887,241.38150948518887,241.38150948518887,241.38150948518887,241.38150948518887,l,1.0491824224591255,10,313,1,242.44999589724466,243.95083919493482,,,,,,,,,,,,,,,,,,,,,,,,,,,,,,,,,,,,,,,,,,,,,,,,,,,,,,,,,,,,,,,,,,,,,,,11285,2022-11-30_10h22.22.609,vts_reward_expectancy_bt_OFFLINE,2022.2.4,59.87891501713894,
0,0,0,1,0,0,1,0,star,hexagon,1,0,1,0,0,4,4,11,,,,,,,,,,,,,,,,,,,,,,,,,,,,,,,,,,,,,,,,244.45122449705377,244.45122449705377,244.45122449705377,244.45122449705377,244.45122449705377,244.45122449705377,244.45122449705377,244.45122449705377,244.45122449705377,244.45122449705377,l,1.5001650736667216,1,314,1,245.96999303484336,247.48569067707285,,,,,,,,,,,,,,,,,,,,,,,,,,,,,,,,,,,,,,,,,,,,,,,,,,,,,,,,,,,,,,,,,,,,,,,11285,2022-11-30_10h22.22.609,vts_reward_expectancy_bt_OFFLINE,2022.2.4,59.87891501713894,
0,1,0,0,0,0,0,1,circle,star,1,0,1,0,0,5,5,5,,,,,,,,,,,,,,,,,,,,,,,,,,,,,,,,,,,,,,,,247.9707658002153,247.9707658002153,247.9707658002153,247.9707658002153,247.9707658002153,247.9707658002153,247.9707658002153,247.9707658002153,247.9707658002153,247.9707658002153,a,1.0751452748663723,10,324,1,249.0725347781554,250.57161258719862,250.57161258719862,251.07208195887506,,,,,,,,,,,,,,,,,,,,,,,,,,,,,,,,,,,,,,,,,,,,,,,,,,,,,,,,,,,,,,,,,,,,,11285,2022-11-30_10h22.22.609,vts_reward_expectancy_bt_OFFLINE,2022.2.4,59.87891501713894,
0,1,0,0,1,0,0,0,circle,triangle,1,0,1,0,0,6,6,3,,,,,,,,,,,,,,,,,,,,,,,,,,,,,,,,,,,,,,,,251.07208195887506,251.07208195887506,251.07208195887506,251.07208195887506,251.07208195887506,251.07208195887506,251.07208195887506,251.07208195887506,251.07208195887506,251.07208195887506,l,0.8422229257412255,10,334,1,251.93895840784535,253.4412262942642,,,,,,,,,,,,,,,,,,,,,,,,,,,,,,,,,,,,,,,,,,,,,,,,,,,,,,,,,,,,,,,,,,,,,,,11285,2022-11-30_10h22.22.609,vts_reward_expectancy_bt_OFFLINE,2022.2.4,59.87891501713894,
0,1,0,0,0,0,1,0,circle,hexagon,1,0,1,0,0,7,7,4,,,,,,,,,,,,,,,,,,,,,,,,,,,,,,,,,,,,,,,,253.94128113193437,253.94128113193437,253.94128113193437,253.94128113193437,253.94128113193437,253.94128113193437,253.94128113193437,253.94128113193437,253.94128113193437,253.94128113193437,a,0.8755478006787598,10,344,1,254.8419603612274,256.342136005871,256.342136005871,256.8426917269826,,,,,,,,,,,,,,,,,,,,,,,,,,,,,,,,,,,,,,,,,,,,,,,,,,,,,,,,,,,,,,,,,,,,,11285,2022-11-30_10h22.22.609,vts_reward_expectancy_bt_OFFLINE,2022.2.4,59.87891501713894,
1,0,0,0,0,1,0,0,triangle,circle,1,0,1,0,0,8,8,0,,,,,,,,,,,,,,,,,,,,,,,,,,,,,,,,,,,,,,,,256.8426917269826,256.8426917269826,256.8426917269826,256.8426917269826,256.8426917269826,256.8426917269826,256.8426917269826,256.8426917269826,256.8426917269826,256.8426917269826,a,0.4948968687094748,10,354,1,257.359482832253,258.86182304192334,,,,,,,,,,,,,,,,,,,,,,,,,,,,,,,,,,,,,,,,,,,,,,,,,,,,,,,,,,,,,,,,,,,,,,,11285,2022-11-30_10h22.22.609,vts_reward_expectancy_bt_OFFLINE,2022.2.4,59.87891501713894,
0,0,1,0,1,0,0,0,hexagon,triangle,1,0,1,0,0,9,9,6,,,,,,,,,,,,,,,,,,,,,,,,,,,,,,,,,,,,,,,,259.3619762849994,259.3619762849994,259.3619762849994,259.3619762849994,259.3619762849994,259.3619762849994,259.3619762849994,259.3619762849994,259.3619762849994,259.3619762849994,l,0.6425444148480892,10,364,1,260.0293056680821,261.52943245414644,261.52943245414644,,,,,,,,,,,,,,,,,,,,,,,,,,,,,,,,,,,,,,,,,,,,,,,,,,,,,,,,,,,,,,,,,,,,,,11285,2022-11-30_10h22.22.609,vts_reward_expectancy_bt_OFFLINE,2022.2.4,59.87891501713894,
1,0,0,0,0,0,1,0,triangle,hexagon,1,0,1,0,0,10,10,1,,,,,,,,,,,,,,,,,,,,,,,,,,,,,,,,,,,,,,,,262.02938532922417,262.02938532922417,262.02938532922417,262.02938532922417,262.02938532922417,262.02938532922417,262.02938532922417,262.02938532922417,262.02938532922417,262.02938532922417,a,0.46051422599703074,10,374,1,262.51322036096826,264.0155509118922,,,,,,,,,,,,,,,,,,,,,,,,,,,,,,,,,,,,,,,,,,,,,,,,,,,,,,,,,,,,,,,,,,,,,,,11285,2022-11-30_10h22.22.609,vts_reward_expectancy_bt_OFFLINE,2022.2.4,59.87891501713894,
1,0,0,0,0,0,0,1,triangle,star,1,0,1,0,0,11,11,2,,,,,,,,,,,,,,,,,,,,,,,,,,,,,,,,,,,,,,,,264.5157224582508,264.5157224582508,264.5157224582508,264.5157224582508,264.5157224582508,264.5157224582508,264.5157224582508,264.5157224582508,264.5157224582508,264.5157224582508,a,0.5730931046418846,1,375,1,265.1175507050939,266.6328790592961,,,,,,,,,,,,,,,,,,,,,,,,,,,,,,,,,,,,,,,,,,,,,,,,,,,,,,,,,,,,,,,,,,,,,,,11285,2022-11-30_10h22.22.609,vts_reward_expectancy_bt_OFFLINE,2022.2.4,59.87891501713894,
0,0,0,1,0,0,1,0,star,hexagon,1,0,1,0,1,0,12,11,,,,,,,,,,,,,,,,,,,,,,,,,,,,,,,,,,,,,,,,267.1332248202525,267.1332248202525,267.1332248202525,267.1332248202525,267.1332248202525,267.1332248202525,267.1332248202525,267.1332248202525,267.1332248202525,267.1332248202525,a,1.3653494268655777,10,385,1,268.52049559215084,270.0195621321909,270.0195621321909,,,,,,,,,,,,,,,,,,,,,,,,,,,,,,,,,,,,,,,,,,,,,,,,,,,,,,,,,,,,,,,,,,,,,,11285,2022-11-30_10h22.22.609,vts_reward_expectancy_bt_OFFLINE,2022.2.4,59.87891501713894,
0,0,0,1,1,0,0,0,star,triangle,1,0,1,0,1,1,13,9,,,,,,,,,,,,,,,,,,,,,,,,,,,,,,,,,,,,,,,,270.5197311779484,270.5197311779484,270.5197311779484,270.5197311779484,270.5197311779484,270.5197311779484,270.5197311779484,270.5197311779484,270.5197311779484,270.5197311779484,l,0.9147033086046576,10,395,1,271.453371074982,272.95571804605424,,,,,,,,,,,,,,,,,,,,,,,,,,,,,,,,,,,,,,,,,,,,,,,,,,,,,,,,,,,,,,,,,,,,,,,11285,2022-11-30_10h22.22.609,vts_reward_expectancy_bt_OFFLINE,2022.2.4,59.87891501713894,
0,0,1,0,1,0,0,0,hexagon,triangle,1,0,1,0,1,2,14,6,,,,,,,,,,,,,,,,,,,,,,,,,,,,,,,,,,,,,,,,273.45591781428084,273.45591781428084,273.45591781428084,273.45591781428084,273.45591781428084,273.45591781428084,273.45591781428084,273.45591781428084,273.45591781428084,273.45591781428084,l,1.1055831918492913,10,405,1,274.5897372588515,276.09016098920256,276.09016098920256,276.59031928889453,,,,,,,,,,,,,,,,,,,,,,,,,,,,,,,,,,,,,,,,,,,,,,,,,,,,,,,,,,,,,,,,,,,,,11285,2022-11-30_10h22.22.609,vts_reward_expectancy_bt_OFFLINE,2022.2.4,59.87891501713894,
0,0,1,0,0,1,0,0,hexagon,circle,1,0,1,0,1,3,15,7,,,,,,,,,,,,,,,,,,,,,,,,,,,,,,,,,,,,,,,,276.59031928889453,276.59031928889453,276.59031928889453,276.59031928889453,276.59031928889453,276.59031928889453,276.59031928889453,276.59031928889453,276.59031928889453,276.59031928889453,l,1.6954220808111131,10,415,1,278.3093597749248,279.8102801628411,279.8102801628411,280.31004315428436,,,,,,,,,,,,,,,,,,,,,,,,,,,,,,,,,,,,,,,,,,,,,,,,,,,,,,,,,,,,,,,,,,,,,11285,2022-11-30_10h22.22.609,vts_reward_expectancy_bt_OFFLINE,2022.2.4,59.87891501713894,
1,0,0,0,0,1,0,0,triangle,circle,1,0,1,0,1,4,16,0,,,,,,,,,,,,,,,,,,,,,,,,,,,,,,,,,,,,,,,,280.31004315428436,280.31004315428436,280.31004315428436,280.31004315428436,280.31004315428436,280.31004315428436,280.31004315428436,280.31004315428436,280.31004315428436,280.31004315428436,a,1.0364823709242046,10,425,1,281.377173515968,282.88272955687717,,,,,,,,,,,,,,,,,,,,,,,,,,,,,,,,,,,,,,,,,,,,,,,,,,,,,,,,,,,,,,,,,,,,,,,11285,2022-11-30_10h22.22.609,vts_reward_expectancy_bt_OFFLINE,2022.2.4,59.87891501713894,
0,0,0,1,0,1,0,0,star ,circle,1,0,1,0,1,5,17,10,,,,,,,,,,,,,,,,,,,,,,,,,,,,,,,,,,,,,,,,283.37975908908993,283.37975908908993,283.37975908908993,283.37975908908993,283.37975908908993,283.37975908908993,283.37975908908993,283.37975908908993,283.37975908908993,283.37975908908993,l,1.487648173701018,10,435,1,284.8969021961093,286.39752950007096,286.39752950007096,,,,,,,,,,,,,,,,,,,,,,,,,,,,,,,,,,,,,,,,,,,,,,,,,,,,,,,,,,,,,,,,,,,,,,11285,2022-11-30_10h22.22.609,vts_reward_expectancy_bt_OFFLINE,2022.2.4,59.87891501713894,
0,0,1,0,0,0,0,1,hexagon,star,1,0,1,0,1,6,18,8,,,,,,,,,,,,,,,,,,,,,,,,,,,,,,,,,,,,,,,,286.89770149905235,286.89770149905235,286.89770149905235,286.89770149905235,286.89770149905235,286.89770149905235,286.89770149905235,286.89770149905235,286.89770149905235,286.89770149905235,l,1.1316598486155272,1,436,1,288.05158727196977,289.56700864993036,,,,,,,,,,,,,,,,,,,,,,,,,,,,,,,,,,,,,,,,,,,,,,,,,,,,,,,,,,,,,,,,,,,,,,,11285,2022-11-30_10h22.22.609,vts_reward_expectancy_bt_OFFLINE,2022.2.4,59.87891501713894,
0,1,0,0,0,0,0,1,circle,star,1,0,1,0,1,7,19,5,,,,,,,,,,,,,,,,,,,,,,,,,,,,,,,,,,,,,,,,290.067501808051,290.067501808051,290.067501808051,290.067501808051,290.067501808051,290.067501808051,290.067501808051,290.067501808051,290.067501808051,290.067501808051,a,0.9537512329407036,1,437,1,291.0509795662947,292.55173605214804,292.55173605214804,,,,,,,,,,,,,,,,,,,,,,,,,,,,,,,,,,,,,,,,,,,,,,,,,,,,,,,,,,,,,,,,,,,,,,11285,2022-11-30_10h22.22.609,vts_reward_expectancy_bt_OFFLINE,2022.2.4,59.87891501713894,
0,1,0,0,0,0,1,0,circle,hexagon,1,0,1,0,1,8,20,4,,,,,,,,,,,,,,,,,,,,,,,,,,,,,,,,,,,,,,,,293.053724009078,293.053724009078,293.053724009078,293.053724009078,293.053724009078,293.053724009078,293.053724009078,293.053724009078,293.053724009078,293.053724009078,a,1.556917302776128,10,447,1,294.6396442060359,296.1546748508699,,,,,,,,,,,,,,,,,,,,,,,,,,,,,,,,,,,,,,,,,,,,,,,,,,,,,,,,,,,,,,,,,,,,,,,11285,2022-11-30_10h22.22.609,vts_reward_expectancy_bt_OFFLINE,2022.2.4,59.87891501713894,
1,0,0,0,0,0,1,0,triangle,hexagon,1,0,1,0,1,9,21,1,,,,,,,,,,,,,,,,,,,,,,,,,,,,,,,,,,,,,,,,296.655020696111,296.655020696111,296.655020696111,296.655020696111,296.655020696111,296.655020696111,296.655020696111,296.655020696111,296.655020696111,296.655020696111,a,0.891520079690963,10,457,1,297.5719567988999,299.07438823208213,,,,,,,,,,,,,,,,,,,,,,,,,,,,,,,,,,,,,,,,,,,,,,,,,,,,,,,,,,,,,,,,,,,,,,,11285,2022-11-30_10h22.22.609,vts_reward_expectancy_bt_OFFLINE,2022.2.4,59.87891501713894,
1,0,0,0,0,0,0,1,triangle,star,1,0,1,0,1,10,22,2,,,,,,,,,,,,,,,,,,,,,,,,,,,,,,,,,,,,,,,,299.5745629989542,299.5745629989542,299.5745629989542,299.5745629989542,299.5745629989542,299.5745629989542,299.5745629989542,299.5745629989542,299.5745629989542,299.5745629989542,a,0.6720614228397608,1,458,1,300.2762088649906,301.7753814002499,301.7753814002499,302.27520908787847,,,,,,,,,,,,,,,,,,,,,,,,,,,,,,,,,,,,,,,,,,,,,,,,,,,,,,,,,,,,,,,,,,,,,11285,2022-11-30_10h22.22.609,vts_reward_expectancy_bt_OFFLINE,2022.2.4,59.87891501713894,
0,1,0,0,1,0,0,0,circle,triangle,1,0,1,0,1,11,23,3,,,,,,,,,,,,,,,,,,,,,,,,,,,,,,,,,,,,,,,,302.27520908787847,302.27520908787847,302.27520908787847,302.27520908787847,302.27520908787847,302.27520908787847,302.27520908787847,302.27520908787847,302.27520908787847,302.27520908787847,l,0.7846536636352539,1,459,1,303.07769360300153,304.5781971332617,304.5781971332617,305.07823899714276,,,,,,,,,,,,,,,,,,,,,,,,,,,,,,,,,,,,,,,,,,,,,,,,,,,,,,,,,,,,,,,,,,,,,11285,2022-11-30_10h22.22.609,vts_reward_expectancy_bt_OFFLINE,2022.2.4,59.87891501713894,
0,1,0,0,0,0,0,1,circle,star,1,0,1,0,2,0,24,5,,,,,,,,,,,,,,,,,,,,,,,,,,,,,,,,,,,,,,,,305.07823899714276,305.07823899714276,305.07823899714276,305.07823899714276,305.07823899714276,305.07823899714276,305.07823899714276,305.07823899714276,305.07823899714276,305.07823899714276,a,0.9635296789929271,10,469,1,306.06374177895486,307.57944316323847,,,,,,,,,,,,,,,,,,,,,,,,,,,,,,,,,,,,,,,,,,,,,,,,,,,,,,,,,,,,,,,,,,,,,,,11285,2022-11-30_10h22.22.609,vts_reward_expectancy_bt_OFFLINE,2022.2.4,59.87891501713894,
1,0,0,0,0,0,0,1,triangle,star,1,0,1,0,2,1,25,2,,,,,,,,,,,,,,,,,,,,,,,,,,,,,,,,,,,,,,,,308.06432037008926,308.06432037008926,308.06432037008926,308.06432037008926,308.06432037008926,308.06432037008926,308.06432037008926,308.06432037008926,308.06432037008926,308.06432037008926,a,0.8685354385524988,10,479,1,308.96480141207576,310.465334714856,310.465334714856,310.96555787092075,,,,,,,,,,,,,,,,,,,,,,,,,,,,,,,,,,,,,,,,,,,,,,,,,,,,,,,,,,,,,,,,,,,,,11285,2022-11-30_10h22.22.609,vts_reward_expectancy_bt_OFFLINE,2022.2.4,59.87891501713894,
0,0,1,0,1,0,0,0,hexagon,triangle,1,0,1,0,2,2,26,6,,,,,,,,,,,,,,,,,,,,,,,,,,,,,,,,,,,,,,,,310.96555787092075,310.96555787092075,310.96555787092075,310.96555787092075,310.96555787092075,310.96555787092075,310.96555787092075,310.96555787092075,310.96555787092075,310.96555787092075,l,1.094103860668838,10,489,1,312.08250038605183,313.5849021449685,,,,,,,,,,,,,,,,,,,,,,,,,,,,,,,,,,,,,,,,,,,,,,,,,,,,,,,,,,,,,,,,,,,,,,,11285,2022-11-30_10h22.22.609,vts_reward_expectancy_bt_OFFLINE,2022.2.4,59.87891501713894,
1,0,0,0,0,1,0,0,triangle,circle,1,0,1,0,2,3,27,0,,,,,,,,,,,,,,,,,,,,,,,,,,,,,,,,,,,,,,,,314.08531146124005,314.08531146124005,314.08531146124005,314.08531146124005,314.08531146124005,314.08531146124005,314.08531146124005,314.08531146124005,314.08531146124005,314.08531146124005,a,1.1029989714734256,10,499,1,315.21912209829316,316.7194486409426,316.7194486409426,317.2199135608971,,,,,,,,,,,,,,,,,,,,,,,,,,,,,,,,,,,,,,,,,,,,,,,,,,,,,,,,,,,,,,,,,,,,,11285,2022-11-30_10h22.22.609,vts_reward_expectancy_bt_OFFLINE,2022.2.4,59.87891501713894,
0,0,1,0,0,1,0,0,hexagon,circle,1,0,1,0,2,4,28,7,,,,,,,,,,,,,,,,,,,,,,,,,,,,,,,,,,,,,,,,317.2199135608971,317.2199135608971,317.2199135608971,317.2199135608971,317.2199135608971,317.2199135608971,317.2199135608971,317.2199135608971,317.2199135608971,317.2199135608971,l,1.6127257128246129,10,509,1,318.85557135008276,320.35617962293327,320.35617962293327,320.8561240131967,,,,,,,,,,,,,,,,,,,,,,,,,,,,,,,,,,,,,,,,,,,,,,,,,,,,,,,,,,,,,,,,,,,,,11285,2022-11-30_10h22.22.609,vts_reward_expectancy_bt_OFFLINE,2022.2.4,59.87891501713894,
0,0,0,1,0,0,1,0,star,hexagon,1,0,1,0,2,5,29,11,,,,,,,,,,,,,,,,,,,,,,,,,,,,,,,,,,,,,,,,320.8561240131967,320.8561240131967,320.8561240131967,320.8561240131967,320.8561240131967,320.8561240131967,320.8561240131967,320.8561240131967,320.8561240131967,320.8561240131967,a,1.8018404827453196,10,519,1,322.6900770869106,324.1925965012051,,,,,,,,,,,,,,,,,,,,,,,,,,,,,,,,,,,,,,,,,,,,,,,,,,,,,,,,,,,,,,,,,,,,,,,11285,2022-11-30_10h22.22.609,vts_reward_expectancy_bt_OFFLINE,2022.2.4,59.87891501713894,
0,0,1,0,0,0,0,1,hexagon,star,1,0,1,0,2,6,30,8,,,,,,,,,,,,,,,,,,,,,,,,,,,,,,,,,,,,,,,,324.69284901814535,324.69284901814535,324.69284901814535,324.69284901814535,324.69284901814535,324.69284901814535,324.69284901814535,324.69284901814535,324.69284901814535,324.69284901814535,a,2.150951855815947,10,529,1,326.86050758417696,328.3625371991657,,,,,,,,,,,,,,,,,,,,,,,,,,,,,,,,,,,,,,,,,,,,,,,,,,,,,,,,,,,,,,,,,,,,,,,11285,2022-11-30_10h22.22.609,vts_reward_expectancy_bt_OFFLINE,2022.2.4,59.87891501713894,
1,0,0,0,0,0,1,0,triangle,hexagon,1,0,1,0,2,7,31,1,,,,,,,,,,,,,,,,,,,,,,,,,,,,,,,,,,,,,,,,328.86266118101776,328.86266118101776,328.86266118101776,328.86266118101776,328.86266118101776,328.86266118101776,328.86266118101776,328.86266118101776,328.86266118101776,328.86266118101776,a,0.9404098778031766,1,530,1,329.8319643121213,331.3465827200562,,,,,,,,,,,,,,,,,,,,,,,,,,,,,,,,,,,,,,,,,,,,,,,,,,,,,,,,,,,,,,,,,,,,,,,11285,2022-11-30_10h22.22.609,vts_reward_expectancy_bt_OFFLINE,2022.2.4,59.87891501713894,
0,1,0,0,0,0,1,0,circle,hexagon,1,0,1,0,2,8,32,4,,,,,,,,,,,,,,,,,,,,,,,,,,,,,,,,,,,,,,,,331.8469850732945,331.8469850732945,331.8469850732945,331.8469850732945,331.8469850732945,331.8469850732945,331.8469850732945,331.8469850732945,331.8469850732945,331.8469850732945,a,1.4765528906136751,1,531,1,333.3495464809239,334.8502587922849,334.8502587922849,335.350326245185,,,,,,,,,,,,,,,,,,,,,,,,,,,,,,,,,,,,,,,,,,,,,,,,,,,,,,,,,,,,,,,,,,,,,11285,2022-11-30_10h22.22.609,vts_reward_expectancy_bt_OFFLINE,2022.2.4,59.87891501713894,
0,1,0,0,1,0,0,0,circle,triangle,1,0,1,0,2,9,33,3,,,,,,,,,,,,,,,,,,,,,,,,,,,,,,,,,,,,,,,,335.350326245185,335.350326245185,335.350326245185,335.350326245185,335.350326245185,335.350326245185,335.350326245185,335.350326245185,335.350326245185,335.350326245185,l,0.8194534387439489,1,532,1,336.2004908071831,337.7014736458659,337.7014736458659,,,,,,,,,,,,,,,,,,,,,,,,,,,,,,,,,,,,,,,,,,,,,,,,,,,,,,,,,,,,,,,,,,,,,,11285,2022-11-30_10h22.22.609,vts_reward_expectancy_bt_OFFLINE,2022.2.4,59.87891501713894,
0,0,0,1,0,1,0,0,star ,circle,1,0,1,0,2,10,34,10,,,,,,,,,,,,,,,,,,,,,,,,,,,,,,,,,,,,,,,,338.203080649022,338.203080649022,338.203080649022,338.203080649022,338.203080649022,338.203080649022,338.203080649022,338.203080649022,338.203080649022,338.203080649022,l,1.7365026697516441,10,542,1,339.97237612400204,341.48749242397025,,,,,,,,,,,,,,,,,,,,,,,,,,,,,,,,,,,,,,,,,,,,,,,,,,,,,,,,,,,,,,,,,,,,,,,11285,2022-11-30_10h22.22.609,vts_reward_expectancy_bt_OFFLINE,2022.2.4,59.87891501713894,
0,0,0,1,1,0,0,0,star,triangle,1,0,1,0,2,11,35,9,,,,,,,,,,,,,,,,,,,,,,,,,,,,,,,,,,,,,,,,341.98765340819955,341.98765340819955,341.98765340819955,341.98765340819955,341.98765340819955,341.98765340819955,341.98765340819955,341.98765340819955,341.98765340819955,341.98765340819955,l,0.865816542878747,10,552,1,342.87136204494163,344.37376326089725,,,,,,,,,,,,,,,,,,,,,,,,,,,,,,,,,,,,,,,,,,,,,,,,,,,,,,,,,,,,,,,,,,,,,,,11285,2022-11-30_10h22.22.609,vts_reward_expectancy_bt_OFFLINE,2022.2.4,59.87891501713894,
1,0,0,0,0,0,0,1,triangle,star,1,0,1,0,3,0,36,2,,,,,,,,,,,,,,,,,,,,,,,,,,,,,,,,,,,,,,,,344.87386004114524,344.87386004114524,344.87386004114524,344.87386004114524,344.87386004114524,344.87386004114524,344.87386004114524,344.87386004114524,344.87386004114524,344.87386004114524,a,0.9940601587295532,1,553,1,345.8928077640012,347.40835266700014,,,,,,,,,,,,,,,,,,,,,,,,,,,,,,,,,,,,,,,,,,,,,,,,,,,,,,,,,,,,,,,,,,,,,,,11285,2022-11-30_10h22.22.609,vts_reward_expectancy_bt_OFFLINE,2022.2.4,59.87891501713894,
0,0,0,1,0,1,0,0,star ,circle,1,0,1,0,3,1,37,10,,,,,,,,,,,,,,,,,,,,,,,,,,,,,,,,,,,,,,,,347.9056533030234,347.9056533030234,347.9056533030234,347.9056533030234,347.9056533030234,347.9056533030234,347.9056533030234,347.9056533030234,347.9056533030234,347.9056533030234,l,1.1010933900251985,10,563,1,349.02898641489446,350.5443106489256,,,,,,,,,,,,,,,,,,,,,,,,,,,,,,,,,,,,,,,,,,,,,,,,,,,,,,,,,,,,,,,,,,,,,,,11285,2022-11-30_10h22.22.609,vts_reward_expectancy_bt_OFFLINE,2022.2.4,59.87891501713894,
0,0,0,1,0,0,1,0,star,hexagon,1,0,1,0,3,2,38,11,,,,,,,,,,,,,,,,,,,,,,,,,,,,,,,,,,,,,,,,351.0446049729362,351.0446049729362,351.0446049729362,351.0446049729362,351.0446049729362,351.0446049729362,351.0446049729362,351.0446049729362,351.0446049729362,351.0446049729362,a,0.7532295836135745,1,564,1,351.82892840215936,353.33058587787673,353.33058587787673,,,,,,,,,,,,,,,,,,,,,,,,,,,,,,,,,,,,,,,,,,,,,,,,,,,,,,,,,,,,,,,,,,,,,,11285,2022-11-30_10h22.22.609,vts_reward_expectancy_bt_OFFLINE,2022.2.4,59.87891501713894,
0,1,0,0,0,0,0,1,circle,star,1,0,1,0,3,3,39,5,,,,,,,,,,,,,,,,,,,,,,,,,,,,,,,,,,,,,,,,353.83093300508335,353.83093300508335,353.83093300508335,353.83093300508335,353.83093300508335,353.83093300508335,353.83093300508335,353.83093300508335,353.83093300508335,353.83093300508335,a,1.7136519867926836,10,574,1,355.56674682488665,357.0820752289146,,,,,,,,,,,,,,,,,,,,,,,,,,,,,,,,,,,,,,,,,,,,,,,,,,,,,,,,,,,,,,,,,,,,,,,11285,2022-11-30_10h22.22.609,vts_reward_expectancy_bt_OFFLINE,2022.2.4,59.87891501713894,
1,0,0,0,0,0,1,0,triangle,hexagon,1,0,1,0,3,4,40,1,,,,,,,,,,,,,,,,,,,,,,,,,,,,,,,,,,,,,,,,357.58209866890684,357.58209866890684,357.58209866890684,357.58209866890684,357.58209866890684,357.58209866890684,357.58209866890684,357.58209866890684,357.58209866890684,357.58209866890684,a,0.6391482828184962,10,584,1,358.25090197008103,359.75148981111124,359.75148981111124,360.25157349091023,,,,,,,,,,,,,,,,,,,,,,,,,,,,,,,,,,,,,,,,,,,,,,,,,,,,,,,,,,,,,,,,,,,,,11285,2022-11-30_10h22.22.609,vts_reward_expectancy_bt_OFFLINE,2022.2.4,59.87891501713894,
0,0,1,0,1,0,0,0,hexagon,triangle,1,0,1,0,3,5,41,6,,,,,,,,,,,,,,,,,,,,,,,,,,,,,,,,,,,,,,,,360.25157349091023,360.25157349091023,360.25157349091023,360.25157349091023,360.25157349091023,360.25157349091023,360.25157349091023,360.25157349091023,360.25157349091023,360.25157349091023,l,0.692979774903506,10,594,1,360.9686281112954,362.4690715270117,362.4690715270117,,,,,,,,,,,,,,,,,,,,,,,,,,,,,,,,,,,,,,,,,,,,,,,,,,,,,,,,,,,,,,,,,,,,,,11285,2022-11-30_10h22.22.609,vts_reward_expectancy_bt_OFFLINE,2022.2.4,59.87891501713894,
0,0,1,0,0,1,0,0,hexagon,circle,1,0,1,0,3,6,42,7,,,,,,,,,,,,,,,,,,,,,,,,,,,,,,,,,,,,,,,,362.9710907912813,362.9710907912813,362.9710907912813,362.9710907912813,362.9710907912813,362.9710907912813,362.9710907912813,362.9710907912813,362.9710907912813,362.9710907912813,a,3.22753121284768,10,604,1,366.2225718460977,367.7231878549792,367.7231878549792,,,,,,,,,,,,,,,,,,,,,,,,,,,,,,,,,,,,,,,,,,,,,,,,,,,,,,,,,,,,,,,,,,,,,,11285,2022-11-30_10h22.22.609,vts_reward_expectancy_bt_OFFLINE,2022.2.4,59.87891501713894,
0,0,0,1,1,0,0,0,star,triangle,1,0,1,0,3,7,43,9,,,,,,,,,,,,,,,,,,,,,,,,,,,,,,,,,,,,,,,,368.2249675942585,368.2249675942585,368.2249675942585,368.2249675942585,368.2249675942585,368.2249675942585,368.2249675942585,368.2249675942585,368.2249675942585,368.2249675942585,l,0.9204929573461413,10,614,1,369.1751037761569,370.6756196678616,370.6756196678616,371.1758542289026,,,,,,,,,,,,,,,,,,,,,,,,,,,,,,,,,,,,,,,,,,,,,,,,,,,,,,,,,,,,,,,,,,,,,11285,2022-11-30_10h22.22.609,vts_reward_expectancy_bt_OFFLINE,2022.2.4,59.87891501713894,
0,1,0,0,0,0,1,0,circle,hexagon,1,0,1,0,3,8,44,4,,,,,,,,,,,,,,,,,,,,,,,,,,,,,,,,,,,,,,,,371.1758542289026,371.1758542289026,371.1758542289026,371.1758542289026,371.1758542289026,371.1758542289026,371.1758542289026,371.1758542289026,371.1758542289026,371.1758542289026,a,1.5020226039923728,10,624,1,372.70972674898803,374.21237436821684,,,,,,,,,,,,,,,,,,,,,,,,,,,,,,,,,,,,,,,,,,,,,,,,,,,,,,,,,,,,,,,,,,,,,,,11285,2022-11-30_10h22.22.609,vts_reward_expectancy_bt_OFFLINE,2022.2.4,59.87891501713894,
0,1,0,0,1,0,0,0,circle,triangle,1,0,1,0,3,9,45,3,,,,,,,,,,,,,,,,,,,,,,,,,,,,,,,,,,,,,,,,374.7126155900769,374.7126155900769,374.7126155900769,374.7126155900769,374.7126155900769,374.7126155900769,374.7126155900769,374.7126155900769,374.7126155900769,374.7126155900769,l,0.9479123237542808,10,634,1,375.6796136922203,377.1801038729027,377.1801038729027,377.67975522205234,,,,,,,,,,,,,,,,,,,,,,,,,,,,,,,,,,,,,,,,,,,,,,,,,,,,,,,,,,,,,,,,,,,,,11285,2022-11-30_10h22.22.609,vts_reward_expectancy_bt_OFFLINE,2022.2.4,59.87891501713894,
0,0,1,0,0,0,0,1,hexagon,star,1,0,1,0,3,10,46,8,,,,,,,,,,,,,,,,,,,,,,,,,,,,,,,,,,,,,,,,377.67975522205234,377.67975522205234,377.67975522205234,377.67975522205234,377.67975522205234,377.67975522205234,377.67975522205234,377.67975522205234,377.67975522205234,377.67975522205234,l,3.1097816466353834,1,635,1,380.81830275291577,382.33365836320445,,,,,,,,,,,,,,,,,,,,,,,,,,,,,,,,,,,,,,,,,,,,,,,,,,,,,,,,,,,,,,,,,,,,,,,11285,2022-11-30_10h22.22.609,vts_reward_expectancy_bt_OFFLINE,2022.2.4,59.87891501713894,
1,0,0,0,0,1,0,0,triangle,circle,1,0,1,0,3,11,47,0,,,,,,,,,,,,,,,,,,,,,,,,,,,,,,,,,,,,,,,,382.8170048282482,382.8170048282482,382.8170048282482,382.8170048282482,382.8170048282482,382.8170048282482,382.8170048282482,382.8170048282482,382.8170048282482,382.8170048282482,a,0.6957915774546564,10,645,1,383.5379692991264,385.0530782211572,,,,,,,,,,,,,,,,,,,,,,,,,,,,,,,,,,,,,,,,,,,,,,,,,,,,,,,,,,,,,,,,,,,,,,,11285,2022-11-30_10h22.22.609,vts_reward_expectancy_bt_OFFLINE,2022.2.4,59.87891501713894,
0,1,0,0,0,0,1,0,circle,hexagon,2,0,2,0,0,0,0,4,,,,,,,,,,,,,,,,,,,,,,,,,,,,,,,,,,,,,,,,389.86527278786525,389.86527278786525,389.86527278786525,389.86527278786525,389.86527278786525,389.86527278786525,389.86527278786525,389.86527278786525,389.86527278786525,389.86527278786525,a,1.635442134924233,10,655,2,391.52399510890245,393.0265082740225,,,,,,,,,,,,,,,,,,,,,,,,,,,,,,,,,,,,,,,,,,,,,,,,,,,,,,,,,,,,,,,,,,,,,,,11285,2022-11-30_10h22.22.609,vts_reward_expectancy_bt_OFFLINE,2022.2.4,59.87891501713894,
0,0,1,0,0,0,0,1,hexagon,star,2,0,2,0,0,1,1,8,,,,,,,,,,,,,,,,,,,,,,,,,,,,,,,,,,,,,,,,393.5264519951306,393.5264519951306,393.5264519951306,393.5264519951306,393.5264519951306,393.5264519951306,393.5264519951306,393.5264519951306,393.5264519951306,393.5264519951306,a,0.6747461897321045,10,665,2,394.2270148359239,395.72745308093727,395.72745308093727,,,,,,,,,,,,,,,,,,,,,,,,,,,,,,,,,,,,,,,,,,,,,,,,,,,,,,,,,,,,,,,,,,,,,,11285,2022-11-30_10h22.22.609,vts_reward_expectancy_bt_OFFLINE,2022.2.4,59.87891501713894,
1,0,0,0,0,0,1,0,triangle,hexagon,2,0,2,0,0,2,2,1,,,,,,,,,,,,,,,,,,,,,,,,,,,,,,,,,,,,,,,,396.2275301530026,396.2275301530026,396.2275301530026,396.2275301530026,396.2275301530026,396.2275301530026,396.2275301530026,396.2275301530026,396.2275301530026,396.2275301530026,a,1.4043234498240054,10,675,2,397.6615523719229,399.1636972501874,,,,,,,,,,,,,,,,,,,,,,,,,,,,,,,,,,,,,,,,,,,,,,,,,,,,,,,,,,,,,,,,,,,,,,,11285,2022-11-30_10h22.22.609,vts_reward_expectancy_bt_OFFLINE,2022.2.4,59.87891501713894,
1,0,0,0,0,1,0,0,triangle,circle,2,0,2,0,0,3,3,0,,,,,,,,,,,,,,,,,,,,,,,,,,,,,,,,,,,,,,,,399.6639925651252,399.6639925651252,399.6639925651252,399.6639925651252,399.6639925651252,399.6639925651252,399.6639925651252,399.6639925651252,399.6639925651252,399.6639925651252,a,1.5798599226400256,10,685,2,401.2643413171172,402.765095544979,402.765095544979,,,,,,,,,,,,,,,,,,,,,,,,,,,,,,,,,,,,,,,,,,,,,,,,,,,,,,,,,,,,,,,,,,,,,,11285,2022-11-30_10h22.22.609,vts_reward_expectancy_bt_OFFLINE,2022.2.4,59.87891501713894,
0,0,1,0,0,1,0,0,hexagon,circle,2,0,2,0,0,4,4,7,,,,,,,,,,,,,,,,,,,,,,,,,,,,,,,,,,,,,,,,403.26692595891654,403.26692595891654,403.26692595891654,403.26692595891654,403.26692595891654,403.26692595891654,403.26692595891654,403.26692595891654,403.26692595891654,403.26692595891654,a,1.9706466067582369,1,686,2,405.27007244201377,406.78497751709074,,,,,,,,,,,,,,,,,,,,,,,,,,,,,,,,,,,,,,,,,,,,,,,,,,,,,,,,,,,,,,,,,,,,,,,11285,2022-11-30_10h22.22.609,vts_reward_expectancy_bt_OFFLINE,2022.2.4,59.87891501713894,
0,1,0,0,0,0,0,1,circle,star,2,0,2,0,0,5,5,5,,,,,,,,,,,,,,,,,,,,,,,,,,,,,,,,,,,,,,,,407.28523399913684,407.28523399913684,407.28523399913684,407.28523399913684,407.28523399913684,407.28523399913684,407.28523399913684,407.28523399913684,407.28523399913684,407.28523399913684,a,1.057702056132257,10,696,2,408.372831128072,409.8879807102494,,,,,,,,,,,,,,,,,,,,,,,,,,,,,,,,,,,,,,,,,,,,,,,,,,,,,,,,,,,,,,,,,,,,,,,11285,2022-11-30_10h22.22.609,vts_reward_expectancy_bt_OFFLINE,2022.2.4,59.87891501713894,
0,0,0,1,1,0,0,0,star,triangle,2,0,2,0,0,6,6,9,,,,,,,,,,,,,,,,,,,,,,,,,,,,,,,,,,,,,,,,410.3881274200976,410.3881274200976,410.3881274200976,410.3881274200976,410.3881274200976,410.3881274200976,410.3881274200976,410.3881274200976,410.3881274200976,410.3881274200976,l,0.8016906208358705,10,706,2,411.2216057810001,412.7222907091491,412.7222907091491,,,,,,,,,,,,,,,,,,,,,,,,,,,,,,,,,,,,,,,,,,,,,,,,,,,,,,,,,,,,,,,,,,,,,,11285,2022-11-30_10h22.22.609,vts_reward_expectancy_bt_OFFLINE,2022.2.4,59.87891501713894,
0,0,0,1,0,1,0,0,star ,circle,2,0,2,0,0,7,7,10,,,,,,,,,,,,,,,,,,,,,,,,,,,,,,,,,,,,,,,,413.22422739584,413.22422739584,413.22422739584,413.22422739584,413.22422739584,413.22422739584,413.22422739584,413.22422739584,413.22422739584,413.22422739584,l,1.7567975586280227,10,716,2,415.0085365790874,416.50861339922994,416.50861339922994,417.0088688759133,,,,,,,,,,,,,,,,,,,,,,,,,,,,,,,,,,,,,,,,,,,,,,,,,,,,,,,,,,,,,,,,,,,,,11285,2022-11-30_10h22.22.609,vts_reward_expectancy_bt_OFFLINE,2022.2.4,59.87891501713894,
0,1,0,0,1,0,0,0,circle,triangle,2,0,2,0,0,8,8,3,,,,,,,,,,,,,,,,,,,,,,,,,,,,,,,,,,,,,,,,417.0088688759133,417.0088688759133,417.0088688759133,417.0088688759133,417.0088688759133,417.0088688759133,417.0088688759133,417.0088688759133,417.0088688759133,417.0088688759133,l,0.9096037289127707,1,717,2,417.9452808368951,419.44491851795465,,,,,,,,,,,,,,,,,,,,,,,,,,,,,,,,,,,,,,,,,,,,,,,,,,,,,,,,,,,,,,,,,,,,,,,11285,2022-11-30_10h22.22.609,vts_reward_expectancy_bt_OFFLINE,2022.2.4,59.87891501713894,
0,0,0,1,0,0,1,0,star,hexagon,2,0,2,0,0,9,9,11,,,,,,,,,,,,,,,,,,,,,,,,,,,,,,,,,,,,,,,,419.9453362710774,419.9453362710774,419.9453362710774,419.9453362710774,419.9453362710774,419.9453362710774,419.9453362710774,419.9453362710774,419.9453362710774,419.9453362710774,a,1.932722388766706,10,727,2,421.8982651778497,423.3983853640966,,,,,,,,,,,,,,,,,,,,,,,,,,,,,,,,,,,,,,,,,,,,,,,,,,,,,,,,,,,,,,,,,,,,,,,11285,2022-11-30_10h22.22.609,vts_reward_expectancy_bt_OFFLINE,2022.2.4,59.87891501713894,
1,0,0,0,0,0,0,1,triangle,star,2,0,2,0,0,10,10,2,,,,,,,,,,,,,,,,,,,,,,,,,,,,,,,,,,,,,,,,423.89843982318416,423.89843982318416,423.89843982318416,423.89843982318416,423.89843982318416,423.89843982318416,423.89843982318416,423.89843982318416,423.89843982318416,423.89843982318416,a,1.1852514347992837,10,737,2,425.1156098549254,426.61637296993285,426.61637296993285,427.1161877932027,,,,,,,,,,,,,,,,,,,,,,,,,,,,,,,,,,,,,,,,,,,,,,,,,,,,,,,,,,,,,,,,,,,,,11285,2022-11-30_10h22.22.609,vts_reward_expectancy_bt_OFFLINE,2022.2.4,59.87891501713894,
0,0,1,0,1,0,0,0,hexagon,triangle,2,0,2,0,0,11,11,6,,,,,,,,,,,,,,,,,,,,,,,,,,,,,,,,,,,,,,,,427.1161877932027,427.1161877932027,427.1161877932027,427.1161877932027,427.1161877932027,427.1161877932027,427.1161877932027,427.1161877932027,427.1161877932027,427.1161877932027,l,0.7463479656726122,10,747,2,427.88303501717746,429.3856629161164,,,,,,,,,,,,,,,,,,,,,,,,,,,,,,,,,,,,,,,,,,,,,,,,,,,,,,,,,,,,,,,,,,,,,,,11285,2022-11-30_10h22.22.609,vts_reward_expectancy_bt_OFFLINE,2022.2.4,59.87891501713894,
1,0,0,0,0,0,1,0,triangle,hexagon,2,0,2,0,1,0,12,1,,,,,,,,,,,,,,,,,,,,,,,,,,,,,,,,,,,,,,,,429.88580335397273,429.88580335397273,429.88580335397273,429.88580335397273,429.88580335397273,429.88580335397273,429.88580335397273,429.88580335397273,429.88580335397273,429.88580335397273,a,0.7554227188229561,1,748,2,430.67186834895983,432.1865851362236,,,,,,,,,,,,,,,,,,,,,,,,,,,,,,,,,,,,,,,,,,,,,,,,,,,,,,,,,,,,,,,,,,,,,,,11285,2022-11-30_10h22.22.609,vts_reward_expectancy_bt_OFFLINE,2022.2.4,59.87891501713894,
0,1,0,0,0,0,0,1,circle,star,2,0,2,0,1,1,13,5,,,,,,,,,,,,,,,,,,,,,,,,,,,,,,,,,,,,,,,,432.6867450629361,432.6867450629361,432.6867450629361,432.6867450629361,432.6867450629361,432.6867450629361,432.6867450629361,432.6867450629361,432.6867450629361,432.6867450629361,a,1.86958097666502,10,758,2,434.5754655478522,436.0900565618649,,,,,,,,,,,,,,,,,,,,,,,,,,,,,,,,,,,,,,,,,,,,,,,,,,,,,,,,,,,,,,,,,,,,,,,11285,2022-11-30_10h22.22.609,vts_reward_expectancy_bt_OFFLINE,2022.2.4,59.87891501713894,
0,0,1,0,1,0,0,0,hexagon,triangle,2,0,2,0,1,2,14,6,,,,,,,,,,,,,,,,,,,,,,,,,,,,,,,,,,,,,,,,436.5900954310782,436.5900954310782,436.5900954310782,436.5900954310782,436.5900954310782,436.5900954310782,436.5900954310782,436.5900954310782,436.5900954310782,436.5900954310782,l,0.9363145846873522,10,768,2,437.5571948941797,439.05950594926253,,,,,,,,,,,,,,,,,,,,,,,,,,,,,,,,,,,,,,,,,,,,,,,,,,,,,,,,,,,,,,,,,,,,,,,11285,2022-11-30_10h22.22.609,vts_reward_expectancy_bt_OFFLINE,2022.2.4,59.87891501713894,
0,0,1,0,0,1,0,0,hexagon,circle,2,0,2,0,1,3,15,7,,,,,,,,,,,,,,,,,,,,,,,,,,,,,,,,,,,,,,,,439.5597268352285,439.5597268352285,439.5597268352285,439.5597268352285,439.5597268352285,439.5597268352285,439.5597268352285,439.5597268352285,439.5597268352285,439.5597268352285,l,0.8477733829058707,10,778,2,440.42689405893907,441.9271612842567,441.9271612842567,,,,,,,,,,,,,,,,,,,,,,,,,,,,,,,,,,,,,,,,,,,,,,,,,,,,,,,,,,,,,,,,,,,,,,11285,2022-11-30_10h22.22.609,vts_reward_expectancy_bt_OFFLINE,2022.2.4,59.87891501713894,
0,1,0,0,1,0,0,0,circle,triangle,2,0,2,0,1,4,16,3,,,,,,,,,,,,,,,,,,,,,,,,,,,,,,,,,,,,,,,,442.42721888422966,442.42721888422966,442.42721888422966,442.42721888422966,442.42721888422966,442.42721888422966,442.42721888422966,442.42721888422966,442.42721888422966,442.42721888422966,l,0.46567012881860137,1,779,2,442.9131830679253,444.41323302220553,,,,,,,,,,,,,,,,,,,,,,,,,,,,,,,,,,,,,,,,,,,,,,,,,,,,,,,,,,,,,,,,,,,,,,,11285,2022-11-30_10h22.22.609,vts_reward_expectancy_bt_OFFLINE,2022.2.4,59.87891501713894,
1,0,0,0,0,0,0,1,triangle,star,2,0,2,0,1,5,17,2,,,,,,,,,,,,,,,,,,,,,,,,,,,,,,,,,,,,,,,,444.91356110200286,444.91356110200286,444.91356110200286,444.91356110200286,444.91356110200286,444.91356110200286,444.91356110200286,444.91356110200286,444.91356110200286,444.91356110200286,a,0.9385252669453621,1,780,2,445.8807864552364,447.38094497006387,447.38094497006387,447.88117235992104,,,,,,,,,,,,,,,,,,,,,,,,,,,,,,,,,,,,,,,,,,,,,,,,,,,,,,,,,,,,,,,,,,,,,11285,2022-11-30_10h22.22.609,vts_reward_expectancy_bt_OFFLINE,2022.2.4,59.87891501713894,
0,1,0,0,0,0,1,0,circle,hexagon,2,0,2,0,1,6,18,4,,,,,,,,,,,,,,,,,,,,,,,,,,,,,,,,,,,,,,,,447.88117235992104,447.88117235992104,447.88117235992104,447.88117235992104,447.88117235992104,447.88117235992104,447.88117235992104,447.88117235992104,447.88117235992104,447.88117235992104,l,1.1439863755367696,1,781,2,449.05021937796846,450.5503557822667,,451.05064420728013,,,,,,,,,,,,,,,,,,,,,,,,,,,,,,,,,,,,,,,,,,,,,,,,,,,,,,,,,,,,,,,,,,,,,11285,2022-11-30_10h22.22.609,vts_reward_expectancy_bt_OFFLINE,2022.2.4,59.87891501713894,
1,0,0,0,0,1,0,0,triangle,circle,2,0,2,0,1,7,19,0,,,,,,,,,,,,,,,,,,,,,,,,,,,,,,,,,,,,,,,,451.05064420728013,451.05064420728013,451.05064420728013,451.05064420728013,451.05064420728013,451.05064420728013,451.05064420728013,451.05064420728013,451.05064420728013,451.05064420728013,a,0.887799397110939,10,791,2,451.97028657095507,453.46997189801186,,,,,,,,,,,,,,,,,,,,,,,,,,,,,,,,,,,,,,,,,,,,,,,,,,,,,,,,,,,,,,,,,,,,,,,11285,2022-11-30_10h22.22.609,vts_reward_expectancy_bt_OFFLINE,2022.2.4,59.87891501713894,
0,0,0,1,0,0,1,0,star,hexagon,2,0,2,0,1,8,20,11,,,,,,,,,,,,,,,,,,,,,,,,,,,,,,,,,,,,,,,,453.97040942311287,453.97040942311287,453.97040942311287,453.97040942311287,453.97040942311287,453.97040942311287,453.97040942311287,453.97040942311287,453.97040942311287,453.97040942311287,a,1.399675183929503,1,792,2,455.38994656223804,456.90492255985737,,,,,,,,,,,,,,,,,,,,,,,,,,,,,,,,,,,,,,,,,,,,,,,,,,,,,,,,,,,,,,,,,,,,,,,11285,2022-11-30_10h22.22.609,vts_reward_expectancy_bt_OFFLINE,2022.2.4,59.87891501713894,
0,0,0,1,0,1,0,0,star ,circle,2,0,2,0,1,9,21,10,,,,,,,,,,,,,,,,,,,,,,,,,,,,,,,,,,,,,,,,457.4048059079796,457.4048059079796,457.4048059079796,457.4048059079796,457.4048059079796,457.4048059079796,457.4048059079796,457.4048059079796,457.4048059079796,457.4048059079796,l,2.623612726572901,10,802,2,460.06004358595237,461.5749145229347,,,,,,,,,,,,,,,,,,,,,,,,,,,,,,,,,,,,,,,,,,,,,,,,,,,,,,,,,,,,,,,,,,,,,,,11285,2022-11-30_10h22.22.609,vts_reward_expectancy_bt_OFFLINE,2022.2.4,59.87891501713894,
0,0,0,1,1,0,0,0,star,triangle,2,0,2,0,1,10,22,9,,,,,,,,,,,,,,,,,,,,,,,,,,,,,,,,,,,,,,,,462.074962249957,462.074962249957,462.074962249957,462.074962249957,462.074962249957,462.074962249957,462.074962249957,462.074962249957,462.074962249957,462.074962249957,l,0.7428053328767419,1,803,2,462.8445875379257,464.3444100781344,,,,,,,,,,,,,,,,,,,,,,,,,,,,,,,,,,,,,,,,,,,,,,,,,,,,,,,,,,,,,,,,,,,,,,,11285,2022-11-30_10h22.22.609,vts_reward_expectancy_bt_OFFLINE,2022.2.4,59.87891501713894,
0,0,1,0,0,0,0,1,hexagon,star,2,0,2,0,1,11,23,8,,,,,,,,,,,,,,,,,,,,,,,,,,,,,,,,,,,,,,,,464.84466546215117,464.84466546215117,464.84466546215117,464.84466546215117,464.84466546215117,464.84466546215117,464.84466546215117,464.84466546215117,464.84466546215117,464.84466546215117,a,1.9558892929926515,1,804,2,466.82892652601004,468.3311669752002,,,,,,,,,,,,,,,,,,,,,,,,,,,,,,,,,,,,,,,,,,,,,,,,,,,,,,,,,,,,,,,,,,,,,,,11285,2022-11-30_10h22.22.609,vts_reward_expectancy_bt_OFFLINE,2022.2.4,59.87891501713894,
1,0,0,0,0,0,0,1,triangle,star,2,0,2,0,2,0,24,2,,,,,,,,,,,,,,,,,,,,,,,,,,,,,,,,,,,,,,,,468.83114466583356,468.83114466583356,468.83114466583356,468.83114466583356,468.83114466583356,468.83114466583356,468.83114466583356,468.83114466583356,468.83114466583356,468.83114466583356,a,0.8387468559667468,10,814,2,469.7006565160118,471.2151791132055,,,,,,,,,,,,,,,,,,,,,,,,,,,,,,,,,,,,,,,,,,,,,,,,,,,,,,,,,,,,,,,,,,,,,,,11285,2022-11-30_10h22.22.609,vts_reward_expectancy_bt_OFFLINE,2022.2.4,59.87891501713894,
0,0,0,1,1,0,0,0,star,triangle,2,0,2,0,2,1,25,9,,,,,,,,,,,,,,,,,,,,,,,,,,,,,,,,,,,,,,,,471.7215153821744,471.7215153821744,471.7215153821744,471.7215153821744,471.7215153821744,471.7215153821744,471.7215153821744,471.7215153821744,471.7215153821744,471.7215153821744,l,1.0202792277559638,1,815,2,472.76862038997933,474.26842206623405,,,,,,,,,,,,,,,,,,,,,,,,,,,,,,,,,,,,,,,,,,,,,,,,,,,,,,,,,,,,,,,,,,,,,,,11285,2022-11-30_10h22.22.609,vts_reward_expectancy_bt_OFFLINE,2022.2.4,59.87891501713894,
0,0,1,0,0,1,0,0,hexagon,circle,2,0,2,0,2,2,26,7,,,,,,,,,,,,,,,,,,,,,,,,,,,,,,,,,,,,,,,,474.76863041799515,474.76863041799515,474.76863041799515,474.76863041799515,474.76863041799515,474.76863041799515,474.76863041799515,474.76863041799515,474.76863041799515,474.76863041799515,l,2.4844758859835565,1,816,2,477.2861138940789,478.7883915612474,,,,,,,,,,,,,,,,,,,,,,,,,,,,,,,,,,,,,,,,,,,,,,,,,,,,,,,,,,,,,,,,,,,,,,,11285,2022-11-30_10h22.22.609,vts_reward_expectancy_bt_OFFLINE,2022.2.4,59.87891501713894,
0,0,1,0,1,0,0,0,hexagon,triangle,2,0,2,0,2,3,27,6,,,,,,,,,,,,,,,,,,,,,,,,,,,,,,,,,,,,,,,,479.28861587215215,479.28861587215215,479.28861587215215,479.28861587215215,479.28861587215215,479.28861587215215,479.28861587215215,479.28861587215215,479.28861587215215,479.28861587215215,l,0.7762612379156053,10,826,2,480.0915083279833,481.60606833407655,,,,,,,,,,,,,,,,,,,,,,,,,,,,,,,,,,,,,,,,,,,,,,,,,,,,,,,,,,,,,,,,,,,,,,,11285,2022-11-30_10h22.22.609,vts_reward_expectancy_bt_OFFLINE,2022.2.4,59.87891501713894,
0,0,0,1,0,1,0,0,star ,circle,2,0,2,0,2,4,28,10,,,,,,,,,,,,,,,,,,,,,,,,,,,,,,,,,,,,,,,,482.1064414642751,482.1064414642751,482.1064414642751,482.1064414642751,482.1064414642751,482.1064414642751,482.1064414642751,482.1064414642751,482.1064414642751,482.1064414642751,a,0.8388694147579372,10,836,2,482.9735508491285,484.4757147622295,,,,,,,,,,,,,,,,,,,,,,,,,,,,,,,,,,,,,,,,,,,,,,,,,,,,,,,,,,,,,,,,,,,,,,,11285,2022-11-30_10h22.22.609,vts_reward_expectancy_bt_OFFLINE,2022.2.4,59.87891501713894,
0,0,1,0,0,0,0,1,hexagon,star,2,0,2,0,2,5,29,8,,,,,,,,,,,,,,,,,,,,,,,,,,,,,,,,,,,,,,,,484.9757577991113,484.9757577991113,484.9757577991113,484.9757577991113,484.9757577991113,484.9757577991113,484.9757577991113,484.9757577991113,484.9757577991113,484.9757577991113,a,1.142785673495382,1,837,2,486.14548447029665,487.6599602261558,,,,,,,,,,,,,,,,,,,,,,,,,,,,,,,,,,,,,,,,,,,,,,,,,,,,,,,,,,,,,,,,,,,,,,,11285,2022-11-30_10h22.22.609,vts_reward_expectancy_bt_OFFLINE,2022.2.4,59.87891501713894,
0,1,0,0,1,0,0,0,circle,triangle,2,0,2,0,2,6,30,3,,,,,,,,,,,,,,,,,,,,,,,,,,,,,,,,,,,,,,,,488.1456134971231,488.1456134971231,488.1456134971231,488.1456134971231,488.1456134971231,488.1456134971231,488.1456134971231,488.1456134971231,488.1456134971231,488.1456134971231,l,1.6736732795834541,10,847,2,489.84840380912647,491.3634254722856,,,,,,,,,,,,,,,,,,,,,,,,,,,,,,,,,,,,,,,,,,,,,,,,,,,,,,,,,,,,,,,,,,,,,,,11285,2022-11-30_10h22.22.609,vts_reward_expectancy_bt_OFFLINE,2022.2.4,59.87891501713894,
0,1,0,0,0,0,0,1,circle,star,2,0,2,0,2,7,31,5,,,,,,,,,,,,,,,,,,,,,,,,,,,,,,,,,,,,,,,,491.8637053761631,491.8637053761631,491.8637053761631,491.8637053761631,491.8637053761631,491.8637053761631,491.8637053761631,491.8637053761631,491.8637053761631,491.8637053761631,a,0.9592192936688662,1,848,2,492.84991938527673,494.3497095471248,,,,,,,,,,,,,,,,,,,,,,,,,,,,,,,,,,,,,,,,,,,,,,,,,,,,,,,,,,,,,,,,,,,,,,,11285,2022-11-30_10h22.22.609,vts_reward_expectancy_bt_OFFLINE,2022.2.4,59.87891501713894,
1,0,0,0,0,1,0,0,triangle,circle,2,0,2,0,2,8,32,0,,,,,,,,,,,,,,,,,,,,,,,,,,,,,,,,,,,,,,,,494.84968512225896,494.84968512225896,494.84968512225896,494.84968512225896,494.84968512225896,494.84968512225896,494.84968512225896,494.84968512225896,494.84968512225896,494.84968512225896,a,0.628671616781503,10,858,2,495.50228292727843,497.0171339530498,,,,,,,,,,,,,,,,,,,,,,,,,,,,,,,,,,,,,,,,,,,,,,,,,,,,,,,,,,,,,,,,,,,,,,,11285,2022-11-30_10h22.22.609,vts_reward_expectancy_bt_OFFLINE,2022.2.4,59.87891501713894,
0,0,0,1,0,0,1,0,star,hexagon,2,0,2,0,2,9,33,11,,,,,,,,,,,,,,,,,,,,,,,,,,,,,,,,,,,,,,,,497.5174601711333,497.5174601711333,497.5174601711333,497.5174601711333,497.5174601711333,497.5174601711333,497.5174601711333,497.5174601711333,497.5174601711333,497.5174601711333,a,0.8416844578459859,1,859,2,498.38854684727266,499.90310538513586,,,,,,,,,,,,,,,,,,,,,,,,,,,,,,,,,,,,,,,,,,,,,,,,,,,,,,,,,,,,,,,,,,,,,,,11285,2022-11-30_10h22.22.609,vts_reward_expectancy_bt_OFFLINE,2022.2.4,59.87891501713894,
0,1,0,0,0,0,1,0,circle,hexagon,2,0,2,0,2,10,34,4,,,,,,,,,,,,,,,,,,,,,,,,,,,,,,,,,,,,,,,,500.4035117160529,500.4035117160529,500.4035117160529,500.4035117160529,500.4035117160529,500.4035117160529,500.4035117160529,500.4035117160529,500.4035117160529,500.4035117160529,a,1.4875318510457873,10,869,2,501.92330829426646,503.4229817260057,,,,,,,,,,,,,,,,,,,,,,,,,,,,,,,,,,,,,,,,,,,,,,,,,,,,,,,,,,,,,,,,,,,,,,,11285,2022-11-30_10h22.22.609,vts_reward_expectancy_bt_OFFLINE,2022.2.4,59.87891501713894,
1,0,0,0,0,0,1,0,triangle,hexagon,2,0,2,0,2,11,35,1,,,,,,,,,,,,,,,,,,,,,,,,,,,,,,,,,,,,,,,,503.92329771304503,503.92329771304503,503.92329771304503,503.92329771304503,503.92329771304503,503.92329771304503,503.92329771304503,503.92329771304503,503.92329771304503,503.92329771304503,a,0.5452186199836433,10,879,2,504.49046358605847,505.9907305398956,505.9907305398956,506.49104009987786,,,,,,,,,,,,,,,,,,,,,,,,,,,,,,,,,,,,,,,,,,,,,,,,,,,,,,,,,,,,,,,,,,,,,11285,2022-11-30_10h22.22.609,vts_reward_expectancy_bt_OFFLINE,2022.2.4,59.87891501713894,
0,1,0,0,1,0,0,0,circle,triangle,2,0,2,0,3,0,36,3,,,,,,,,,,,,,,,,,,,,,,,,,,,,,,,,,,,,,,,,506.49104009987786,506.49104009987786,506.49104009987786,506.49104009987786,506.49104009987786,506.49104009987786,506.49104009987786,506.49104009987786,506.49104009987786,506.49104009987786,l,1.0933936955407262,10,889,2,507.60869997926056,509.11024375492707,,,,,,,,,,,,,,,,,,,,,,,,,,,,,,,,,,,,,,,,,,,,,,,,,,,,,,,,,,,,,,,,,,,,,,,11285,2022-11-30_10h22.22.609,vts_reward_expectancy_bt_OFFLINE,2022.2.4,59.87891501713894,
0,1,0,0,0,0,1,0,circle,hexagon,2,0,2,0,3,1,37,4,,,,,,,,,,,,,,,,,,,,,,,,,,,,,,,,,,,,,,,,509.6106322472915,509.6106322472915,509.6106322472915,509.6106322472915,509.6106322472915,509.6106322472915,509.6106322472915,509.6106322472915,509.6106322472915,509.6106322472915,a,0.7645986257120967,10,899,2,510.39472262514755,511.8945055892691,511.8945055892691,512.3946160110645,,,,,,,,,,,,,,,,,,,,,,,,,,,,,,,,,,,,,,,,,,,,,,,,,,,,,,,,,,,,,,,,,,,,,11285,2022-11-30_10h22.22.609,vts_reward_expectancy_bt_OFFLINE,2022.2.4,59.87891501713894,
0,0,1,0,0,1,0,0,hexagon,circle,2,0,2,0,3,2,38,7,,,,,,,,,,,,,,,,,,,,,,,,,,,,,,,,,,,,,,,,512.3946160110645,512.3946160110645,512.3946160110645,512.3946160110645,512.3946160110645,512.3946160110645,512.3946160110645,512.3946160110645,512.3946160110645,512.3946160110645,a,0.9947970919311047,1,900,2,513.428609373048,514.9309344240464,,,,,,,,,,,,,,,,,,,,,,,,,,,,,,,,,,,,,,,,,,,,,,,,,,,,,,,,,,,,,,,,,,,,,,,11285,2022-11-30_10h22.22.609,vts_reward_expectancy_bt_OFFLINE,2022.2.4,59.87891501713894,
0,0,0,1,0,1,0,0,star ,circle,2,0,2,0,3,3,39,10,,,,,,,,,,,,,,,,,,,,,,,,,,,,,,,,,,,,,,,,515.4313791249879,515.4313791249879,515.4313791249879,515.4313791249879,515.4313791249879,515.4313791249879,515.4313791249879,515.4313791249879,515.4313791249879,515.4313791249879,l,1.4003838449716568,10,910,2,516.8511599232443,518.35072983196,,,,,,,,,,,,,,,,,,,,,,,,,,,,,,,,,,,,,,,,,,,,,,,,,,,,,,,,,,,,,,,,,,,,,,,11285,2022-11-30_10h22.22.609,vts_reward_expectancy_bt_OFFLINE,2022.2.4,59.87891501713894,
0,0,0,1,0,0,1,0,star,hexagon,2,0,2,0,3,4,40,11,,,,,,,,,,,,,,,,,,,,,,,,,,,,,,,,,,,,,,,,518.8508278620429,518.8508278620429,518.8508278620429,518.8508278620429,518.8508278620429,518.8508278620429,518.8508278620429,518.8508278620429,518.8508278620429,518.8508278620429,a,1.1995014217682183,10,920,2,520.0687316399999,521.5684108911082,521.5684108911082,522.0686600552872,,,,,,,,,,,,,,,,,,,,,,,,,,,,,,,,,,,,,,,,,,,,,,,,,,,,,,,,,,,,,,,,,,,,,11285,2022-11-30_10h22.22.609,vts_reward_expectancy_bt_OFFLINE,2022.2.4,59.87891501713894,
0,0,1,0,1,0,0,0,hexagon,triangle,2,0,2,0,3,5,41,6,,,,,,,,,,,,,,,,,,,,,,,,,,,,,,,,,,,,,,,,522.0686600552872,522.0686600552872,522.0686600552872,522.0686600552872,522.0686600552872,522.0686600552872,522.0686600552872,522.0686600552872,522.0686600552872,522.0686600552872,l,2.3464117501862347,10,930,2,524.4386951602064,525.938400072977,525.938400072977,526.4389586662874,,,,,,,,,,,,,,,,,,,,,,,,,,,,,,,,,,,,,,,,,,,,,,,,,,,,,,,,,,,,,,,,,,,,,11285,2022-11-30_10h22.22.609,vts_reward_expectancy_bt_OFFLINE,2022.2.4,59.87891501713894,
1,0,0,0,0,0,1,0,triangle,hexagon,2,0,2,0,3,6,42,1,,,,,,,,,,,,,,,,,,,,,,,,,,,,,,,,,,,,,,,,526.4389586662874,526.4389586662874,526.4389586662874,526.4389586662874,526.4389586662874,526.4389586662874,526.4389586662874,526.4389586662874,526.4389586662874,526.4389586662874,a,0.5641577485948801,1,931,2,527.0245694988407,528.5247180168517,,,,,,,,,,,,,,,,,,,,,,,,,,,,,,,,,,,,,,,,,,,,,,,,,,,,,,,,,,,,,,,,,,,,,,,11285,2022-11-30_10h22.22.609,vts_reward_expectancy_bt_OFFLINE,2022.2.4,59.87891501713894,
0,0,0,1,1,0,0,0,star,triangle,2,0,2,0,3,7,43,9,,,,,,,,,,,,,,,,,,,,,,,,,,,,,,,,,,,,,,,,529.0245866379701,529.0245866379701,529.0245866379701,529.0245866379701,529.0245866379701,529.0245866379701,529.0245866379701,529.0245866379701,529.0245866379701,529.0245866379701,l,0.9255678826011717,10,941,2,529.9781730012037,531.4925478268415,,,,,,,,,,,,,,,,,,,,,,,,,,,,,,,,,,,,,,,,,,,,,,,,,,,,,,,,,,,,,,,,,,,,,,,11285,2022-11-30_10h22.22.609,vts_reward_expectancy_bt_OFFLINE,2022.2.4,59.87891501713894,
0,0,1,0,0,0,0,1,hexagon,star,2,0,2,0,3,8,44,8,,,,,,,,,,,,,,,,,,,,,,,,,,,,,,,,,,,,,,,,531.9926755870692,531.9926755870692,531.9926755870692,531.9926755870692,531.9926755870692,531.9926755870692,531.9926755870692,531.9926755870692,531.9926755870692,531.9926755870692,l,2.108931301627308,1,942,2,534.1309355199337,535.6458100602031,,,,,,,,,,,,,,,,,,,,,,,,,,,,,,,,,,,,,,,,,,,,,,,,,,,,,,,,,,,,,,,,,,,,,,,11285,2022-11-30_10h22.22.609,vts_reward_expectancy_bt_OFFLINE,2022.2.4,59.87891501713894,
1,0,0,0,0,0,0,1,triangle,star,2,0,2,0,3,9,45,2,,,,,,,,,,,,,,,,,,,,,,,,,,,,,,,,,,,,,,,,536.1459242240526,536.1459242240526,536.1459242240526,536.1459242240526,536.1459242240526,536.1459242240526,536.1459242240526,536.1459242240526,536.1459242240526,536.1459242240526,a,0.5546041438356042,10,952,2,536.7444178201258,538.2318748869002,,,,,,,,,,,,,,,,,,,,,,,,,,,,,,,,,,,,,,,,,,,,,,,,,,,,,,,,,,,,,,,,,,,,,,,11285,2022-11-30_10h22.22.609,vts_reward_expectancy_bt_OFFLINE,2022.2.4,59.87891501713894,
0,1,0,0,0,0,0,1,circle,star,2,0,2,0,3,10,46,5,,,,,,,,,,,,,,,,,,,,,,,,,,,,,,,,,,,,,,,,538.7320724241436,538.7320724241436,538.7320724241436,538.7320724241436,538.7320724241436,538.7320724241436,538.7320724241436,538.7320724241436,538.7320724241436,538.7320724241436,l,1.0966013227589428,1,953,2,539.8517020051368,541.3663579402491,,,,,,,,,,,,,,,,,,,,,,,,,,,,,,,,,,,,,,,,,,,,,,,,,,,,,,,,,,,,,,,,,,,,,,,11285,2022-11-30_10h22.22.609,vts_reward_expectancy_bt_OFFLINE,2022.2.4,59.87891501713894,
1,0,0,0,0,1,0,0,triangle,circle,2,0,2,0,3,11,47,0,,,,,,,,,,,,,,,,,,,,,,,,,,,,,,,,,,,,,,,,541.8665727949701,541.8665727949701,541.8665727949701,541.8665727949701,541.8665727949701,541.8665727949701,541.8665727949701,541.8665727949701,541.8665727949701,541.8665727949701,a,0.8089485457167029,10,963,2,542.7149954480119,544.2025686651468,,,,,,,,,,,,,,,,,,,,,,,,,,,,,,,,,,,,,,,,,,,,,,,,,,,,,,,,,,,,,,,,,,,,,,,11285,2022-11-30_10h22.22.609,vts_reward_expectancy_bt_OFFLINE,2022.2.4,59.87891501713894,
,,,,,,,,,,,,,,,,,,0,0,0,0,0,0,0,0,,,,,,,,,,,,,,,,,,,,,,,,,,,,,,,,,,,,,,,,,,,,,,,,579.0947360899299,,,S,167,hexagon,0.0024368977174162865,574.6538775772788,576.1417306610383,576.1417306610383,576.1417306610383,1,0,f,1.4322418295778334,0,577.5975984488614,,,,,,,,,,,,,,,,,,,,,,,,,,,,,,,,,,,,,,,,,,,,,,,,,,,,,,,11285,2022-11-30_10h22.22.609,vts_reward_expectancy_bt_OFFLINE,2022.2.4,59.87891501713894,
,,,,,,,,,,,,,,,,,,0,0,0,0,1,0,1,0,,,,,,,,,,,,,,,,,,,,,,,,,,,,,,,,,,,,,,,,,,,,,,,,583.7480666008778,,,H,160,star,0.001682973001152277,580.0906019541435,581.5788122140802,581.5788122140802,581.5788122140802,1,0,d,0.641581391915679,0,582.2465316480957,,,,,,,,,,,,,,,,,,,,,,,,,,,,,,,,,,,,,,,,,,,,,,,,,,,,,,,11285,2022-11-30_10h22.22.609,vts_reward_expectancy_bt_OFFLINE,2022.2.4,59.87891501713894,
,,,,,,,,,,,,,,,,,,0,0,0,0,2,0,2,0,,,,,,,,,,,,,,,,,,,,,,,,,,,,,,,,,,,,,,,,,,,,,,,,588.4516907692887,,,W,132,triangle,0.001972437836229801,584.744062777143,586.2323186141439,586.2323186141439,586.2323186141439,1,0,f,0.6913919537328184,0,586.9499758770689,,,,,,,,,,,,,,,,,,,,,,,,,,,,,,,,,,,,,,,,,,,,,,,,,,,,,,,11285,2022-11-30_10h22.22.609,vts_reward_expectancy_bt_OFFLINE,2022.2.4,59.87891501713894,
,,,,,,,,,,,,,,,,,,0,0,0,0,3,0,3,0,,,,,,,,,,,,,,,,,,,,,,,,,,,,,,,,,,,,,,,,,,,,,,,,592.9701071791351,,,F,146,circle,0.002117082942277193,589.4477086681873,590.9359281728975,590.9359281728975,590.9359281728975,1,0,d,0.510220130905509,0,591.469985970296,,,,,,,,,,,,,,,,,,,,,,,,,,,,,,,,,,,,,,,,,,,,,,,,,,,,,,,11285,2022-11-30_10h22.22.609,vts_reward_expectancy_bt_OFFLINE,2022.2.4,59.87891501713894,
,,,,,,,,,,,,,,,,,,0,0,0,0,4,0,4,0,,,,,,,,,,,,,,,,,,,,,,,,,,,,,,,,,,,,,,,,,,,,,,,,597.5899748890661,,598.0879438119009,D,181,hexagon,0.002314366865903139,593.9679111721925,595.4561065230519,595.4561065230519,595.4561065230519,1,0,d,0.6030331803485751,0,596.0906055890955,597.5899748890661,,,,,,,,,,,,,,,,,,,,,,,,,,,,,,,,,,,,,,,,,,,,,,,,,,,,,,11285,2022-11-30_10h22.22.609,vts_reward_expectancy_bt_OFFLINE,2022.2.4,59.87891501713894,
,,,,,,,,,,,,,,,,,,0,0,0,0,5,0,5,0,,,,,,,,,,,,,,,,,,,,,,,,,,,,,,,,,,,,,,,,,,,,,,,,602.160306903068,,602.6604744191281,Y,174,circle,0.0005169762298464775,598.5982749531977,600.0759931830689,600.0759931830689,600.0759931830689,1,0,f,0.5619629616849124,0,600.6606793161482,602.160306903068,,,,,,,,,,,,,,,,,,,,,,,,,,,,,,,,,,,,,,,,,,,,,,,,,,,,,,11285,2022-11-30_10h22.22.609,vts_reward_expectancy_bt_OFFLINE,2022.2.4,59.87891501713894,
,,,,,,,,,,,,,,,,,,0,0,0,0,6,0,6,0,,,,,,,,,,,,,,,,,,,,,,,,,,,,,,,,,,,,,,,,,,,,,,,,606.7472169082612,,607.2472489131615,U,125,star,0.0004425938241183758,603.1571103092283,604.6466165380552,604.6466165380552,604.6466165380552,1,0,f,0.5822549317963421,0,605.2474390822463,606.7472169082612,,,,,,,,,,,,,,,,,,,,,,,,,,,,,,,,,,,,,,,,,,,,,,,,,,,,,,11285,2022-11-30_10h22.22.609,vts_reward_expectancy_bt_OFFLINE,2022.2.4,59.87891501713894,
,,,,,,,,,,,,,,,,,,0,0,0,0,7,0,7,0,,,,,,,,,,,,,,,,,,,,,,,,,,,,,,,,,,,,,,,,,,,,,,,,611.4006129959598,,611.9007238461636,B,139,triangle,0.00037361402064561844,607.7436137818731,609.2331170290709,609.2331170290709,609.2331170290709,1,0,d,0.6426500296220183,0,609.9009950030595,611.4006129959598,,,,,,,,,,,,,,,,,,,,,,,,,,,,,,,,,,,,,,,,,,,,,,,,,,,,,,11285,2022-11-30_10h22.22.609,vts_reward_expectancy_bt_OFFLINE,2022.2.4,59.87891501713894,
,,,,,,,,,,,,,,,,,,0,0,0,0,8,0,8,0,,,,,,,,,,,,,,,,,,,,,,,,,,,,,,,,,,,,,,,,,,,,,,,,616.2040579379536,,616.7044657482766,S,167,hexagon,0.0005632196553051472,612.3964981189929,613.8867422528565,613.8867422528565,613.8867422528565,1,0,f,0.7916203164495528,0,614.7046970101073,616.2040579379536,,,,,,,,,,,,,,,,,,,,,,,,,,,,,,,,,,,,,,,,,,,,,,,,,,,,,,11285,2022-11-30_10h22.22.609,vts_reward_expectancy_bt_OFFLINE,2022.2.4,59.87891501713894,
,,,,,,,,,,,,,,,,,,0,0,0,0,9,0,9,0,,,,,,,,,,,,,,,,,,,,,,,,,,,,,,,,,,,,,,,,,,,,,,,,620.7745489929803,,621.2845676220022,H,160,star,0.0004126499406993389,617.200213606935,618.6900908942334,618.6900908942334,618.6900908942334,1,0,d,0.5672631417401135,0,619.2749940762296,620.7745489929803,,,,,,,,,,,,,,,,,,,,,,,,,,,,,,,,,,,,,,,,,,,,,,,,,,,,,,11285,2022-11-30_10h22.22.609,vts_reward_expectancy_bt_OFFLINE,2022.2.4,59.87891501713894,
,,,,,,,,,,,,,,,,,,,,,,,,,,0,0,0,0,0,0,0,0,,,,,,,,,,,,,,,,,,,,,,,,,,,,,,,,,,,,,,,,643.3916120319627,,,Y,174,triangle,0.0025866860523819923,,,,,1,0,,,1,641.8906116252765,,638.9670918178745,640.4556151931174,640.4556151931174,640.4556151931174,k,1.4156709155067801,,,,,,,,,,,,,,,,,,,,,,,,,,,,,,,,,,,,,,,,,,,,,,,,11285,2022-11-30_10h22.22.609,vts_reward_expectancy_bt_OFFLINE,2022.2.4,59.87891501713894,
,,,,,,,,,,,,,,,,,,,,,,,,,,0,0,0,0,1,0,1,0,,,,,,,,,,,,,,,,,,,,,,,,,,,,,,,,,,,,,,,,648.1242682188749,,,S,181,hexagon,0.0016642468981444836,,,,,1,0,,,1,646.6271490450017,648.1242682188749,644.3872229252011,645.87596247904,645.87596247904,645.87596247904,k,0.7324003716930747,,,,,,,,,,,,,,,,,,,,,,,,,,,,,,,,,,,,,,,,,,,,,,,,11285,2022-11-30_10h22.22.609,vts_reward_expectancy_bt_OFFLINE,2022.2.4,59.87891501713894,
,,,,,,,,,,,,,,,,,,,,,,,,,,0,0,0,0,2,0,2,0,,,,,,,,,,,,,,,,,,,,,,,,,,,,,,,,,,,,,,,,652.6801160462201,,,F,125,star,0.001848624087870121,,,,,1,0,,,1,651.1806964259595,652.6801160462201,649.123996107839,650.6129522440024,650.6129522440024,650.6129522440024,j,0.539816184900701,,,,,,,,,,,,,,,,,,,,,,,,,,,,,,,,,,,,,,,,,,,,,,,,11285,2022-11-30_10h22.22.609,vts_reward_expectancy_bt_OFFLINE,2022.2.4,59.87891501713894,
,,,,,,,,,,,,,,,,,,,,,,,,,,0,0,0,0,3,0,3,0,,,,,,,,,,,,,,,,,,,,,,,,,,,,,,,,,,,,,,,,657.4004570869729,,,W,167,circle,0.0019721337594091892,,,,,1,0,,,1,655.9005791540258,657.4004570869729,653.6772222789004,655.1663347999565,655.1663347999565,655.1663347999565,k,0.7116087656468153,,,,,,,,,,,,,,,,,,,,,,,,,,,,,,,,,,,,,,,,,,,,,,,,11285,2022-11-30_10h22.22.609,vts_reward_expectancy_bt_OFFLINE,2022.2.4,59.87891501713894,
,,,,,,,,,,,,,,,,,,,,,,,,,,0,0,0,0,4,0,4,0,,,,,,,,,,,,,,,,,,,,,,,,,,,,,,,,,,,,,,,,662.6542726019397,,,B,139,circle,0.0003488571383059025,,,,,1,0,,,1,661.1534635932185,662.6542726019397,658.3966239891015,659.8864824380726,659.8864824380726,659.8864824380726,j,1.2348990524187684,,,,,,,,,,,,,,,,,,,,,,,,,,,,,,,,,,,,,,,,,,,,,,,,11285,2022-11-30_10h22.22.609,vts_reward_expectancy_bt_OFFLINE,2022.2.4,59.87891501713894,
,,,,,,,,,,,,,,,,,,,,,,,,,,0,0,0,0,5,0,5,0,,,,,,,,,,,,,,,,,,,,,,,,,,,,,,,,,,,,,,,,667.5909914658405,,668.0912703862414,D,160,star,0.007743468042463064,,,,,1,0,,,1,666.0912933549844,667.5909914658405,663.6536540812813,665.1401917552575,665.1401917552575,665.1401917552575,k,0.9310540547594428,,,,,,,,,,,,,,,,,,,,,,,,,,,,,,,,,,,,,,,,,,,,,,,,11285,2022-11-30_10h22.22.609,vts_reward_expectancy_bt_OFFLINE,2022.2.4,59.87891501713894,
,,,,,,,,,,,,,,,,,,,,,,,,,,0,0,0,0,6,0,6,0,,,,,,,,,,,,,,,,,,,,,,,,,,,,,,,,,,,,,,,,673.4968388220295,,,U,146,hexagon,0.000641858670860529,,,,,1,0,,,1,671.9957299102098,,668.5872908621095,670.0770720108412,670.0770720108412,670.0770720108412,j,1.9007112635299563,,,,,,,,,,,,,,,,,,,,,,,,,,,,,,,,,,,,,,,,,,,,,,,,11285,2022-11-30_10h22.22.609,vts_reward_expectancy_bt_OFFLINE,2022.2.4,59.87891501713894,
,,,,,,,,,,,,,,,,,,,,,,,,,,0,0,0,0,7,0,7,0,,,,,,,,,,,,,,,,,,,,,,,,,,,,,,,,,,,,,,,,678.7670826702379,,,H,132,triangle,0.001837151125073433,,,,,1,0,,,1,677.2658055732027,,674.4921096120961,675.9810734679922,675.9810734679922,675.9810734679922,j,1.261881647631526,,,,,,,,,,,,,,,,,,,,,,,,,,,,,,,,,,,,,,,,,,,,,,,,11285,2022-11-30_10h22.22.609,vts_reward_expectancy_bt_OFFLINE,2022.2.4,59.87891501713894,
,,,,,,,,,,,,,,,,,,,,,,,,,,0,0,0,0,8,0,8,0,,,,,,,,,,,,,,,,,,,,,,,,,,,,,,,,,,,,,,,,683.3206236572005,,,Y,174,triangle,0.0020623840391635895,,,,,1,0,,,1,681.8194350721315,,679.7624815888703,681.2513436782174,681.2513436782174,681.2513436782174,k,0.5480185924097896,,,,,,,,,,,,,,,,,,,,,,,,,,,,,,,,,,,,,,,,,,,,,,,,11285,2022-11-30_10h22.22.609,vts_reward_expectancy_bt_OFFLINE,2022.2.4,59.87891501713894,
,,,,,,,,,,,,,,,,,,,,,,,,,,0,0,0,0,9,0,9,0,,,,,,,,,,,,,,,,,,,,,,,,,,,,,,,,,,,,,,,,687.9056613119319,,,S,181,hexagon,0.0020157787948846817,,,,,1,0,,,1,686.4065344631672,687.9056613119319,684.3160775890574,685.8051100731827,685.8051100731827,685.8051100731827,k,0.5743041527457535,,,,,,,,,,,,,,,,,,,,,,,,,,,,,,,,,,,,,,,,,,,,,,,,11285,2022-11-30_10h22.22.609,vts_reward_expectancy_bt_OFFLINE,2022.2.4,59.87891501713894,
,,,,,,,,,,,,,,,,,,,,,,,,,,,,,,,,,,0,0,0,0,0,0,0,0,,,,,,,,,,,,,,,,,,,,,,,,,,,,0,963,,,723.9998508519493,,,H,160,hexagon,0.0024372991174459457,,,,,1,0,,,2,,,,,,,,,719.8600497571751,719.8600497571751,719.8600497571751,719.8600497571751,721.3470869548619,721.3470869548619,721.3470869548619,721.3470869548619,721.3638035911135,721.3638035911135,721.3638035911135,721.3638035911135,-1,letter,NA,d,1.1233491175808012,vtsPrac,722.5018493919633,,,,,,,,,,,,,,,,,,,,,,,,,,,,,11285,2022-11-30_10h22.22.609,vts_reward_expectancy_bt_OFFLINE,2022.2.4,59.87891501713894,
,,,,,,,,,,,,,,,,,,,,,,,,,,,,,,,,,,0,0,0,0,1,0,1,0,,,,,,,,,,,,,,,,,,,,,,,,,,,,0,963,,,728.8534020888619,,,W,132,triangle,0.001417588908225298,,,,,1,0,,,2,,,,,,,,,724.9964297949336,724.9964297949336,724.9964297949336,724.9964297949336,726.484209000133,726.484209000133,726.484209000133,726.484209000133,726.5008493009955,726.5008493009955,726.5008493009955,726.5008493009955,repeat,letter,lettRpt,f,0.846402074676007,vtsPrac,727.3525601918809,,,,,,,,,,,,,,,,,,,,,,,,,,,,,11285,2022-11-30_10h22.22.609,vts_reward_expectancy_bt_OFFLINE,2022.2.4,59.87891501713894,
,,,,,,,,,,,,,,,,,,,,,,,,,,,,,,,,,,0,0,0,0,2,0,2,0,,,,,,,,,,,,,,,,,,,,,,,,,,,,0,963,,,733.7904973682016,,,Y,174,hexagon,0.001989173237234354,,,,,1,0,,,2,,,,,,,,,729.849819954019,729.849819954019,729.849819954019,729.849819954019,731.3376533640549,731.3376533640549,731.3376533640549,731.3376533640549,731.3546383948997,731.3546383948997,731.3546383948997,731.3546383948997,switch,number,numSwt,k,0.9327601934783161,vtsPrac,732.2893303418532,,,,,,,,,,,,,,,,,,,,,,,,,,,,,11285,2022-11-30_10h22.22.609,vts_reward_expectancy_bt_OFFLINE,2022.2.4,59.87891501713894,
,,,,,,,,,,,,,,,,,,,,,,,,,,,,,,,,,,0,0,0,0,3,0,3,0,,,,,,,,,,,,,,,,,,,,,,,,,,,,0,963,,,740.795129402075,,,S,139,star,0.0019258158281445503,,,,,-1,0,,,2,,,,,,,,,734.7865061881021,734.7865061881021,734.7865061881021,734.7865061881021,736.2749111922458,736.2749111922458,736.2749111922458,736.2749111922458,736.2915482930839,736.2915482930839,736.2915482930839,736.2915482930839,switch,no_choice,NA,None,,vtsPrac,739.2809622962959,739.2809622962959,739.2809622962959,739.2809622962959,739.2809622962959,,,,,,,,,,,,,,,,,,,,,,,,,11285,2022-11-30_10h22.22.609,vts_reward_expectancy_bt_OFFLINE,2022.2.4,59.87891501713894,
,,,,,,,,,,,,,,,,,,,,,,,,,,,,,,,,,,0,0,0,0,4,0,4,0,,,,,,,,,,,,,,,,,,,,,,,,,,,,0,963,,,745.698721615132,,,H,160,triangle,0.006349108647555113,,,,,1,0,,,2,,,,,,,,,741.7912430069409,741.7912430069409,741.7912430069409,741.7912430069409,743.2811131989583,743.2811131989583,743.2811131989583,743.2811131989583,743.2975104660727,743.2975104660727,743.2975104660727,743.2975104660727,switch,number,numSwt,k,0.8691174276173115,vtsPrac,744.1847353042103,,,,,,,,,,,,,,,,,,,,,,,,,,,,,11285,2022-11-30_10h22.22.609,vts_reward_expectancy_bt_OFFLINE,2022.2.4,59.87891501713894,
,,,,,,,,,,,,,,,,,,,,,,,,,,,,,,,,,,0,0,0,0,5,0,5,0,,,,,,,,,,,,,,,,,,,,,,,,,,,,0,963,,,750.2519862372428,,,W,132,hexagon,0.016727331094443798,,,,,1,0,,,2,,,,,,,,,746.6946670180187,746.6946670180187,746.6946670180187,746.6946670180187,748.1659525651485,748.1659525651485,748.1659525651485,748.1659525651485,748.1969457920641,748.1969457920641,748.1969457920641,748.1969457920641,repeat,number,numRpt,j,0.5520173944532871,vtsPrac,748.7362080919556,,,,,,,,,,,,,,,,,,,,,,,,,,,,,11285,2022-11-30_10h22.22.609,vts_reward_expectancy_bt_OFFLINE,2022.2.4,59.87891501713894,
,,,,,,,,,,,,,,,,,,,,,,,,,,,,,,,,,,0,0,0,0,6,0,6,0,,,,,,,,,,,,,,,,,,,,,,,,,,,,0,963,,,754.8055473659188,,755.3056181562133,Y,174,star,0.01678588893264532,,,,,1,0,,,2,,,,,,,,,751.2480292948894,751.2480292948894,751.2480292948894,751.2480292948894,752.7195620560087,752.7195620560087,752.7195620560087,752.7195620560087,752.7528866059147,752.7528866059147,752.7528866059147,752.7528866059147,switch,letter,lettSwt,f,0.5661971415393054,vtsPrac,753.3061352740042,,,,,754.8055473659188,,,,,,,,,,,,,,,,,,,,,,,,11285,2022-11-30_10h22.22.609,vts_reward_expectancy_bt_OFFLINE,2022.2.4,59.87891501713894,
,,,,,,,,,,,,,,,,,,,,,,,,,,,,,,,,,,0,0,0,0,7,0,7,0,,,,,,,,,,,,,,,,,,,,,,,,,,,,0,963,,,759.6425686902367,,,S,139,triangle,0.0005271532572805882,,,,,1,0,,,2,,,,,,,,,755.8015953940339,755.8015953940339,755.8015953940339,755.8015953940339,757.289703196846,757.289703196846,757.289703196846,757.289703196846,757.3063697339967,757.3063697339967,757.3063697339967,757.3063697339967,switch,number,numSwt,j,0.8236330938525498,vtsPrac,758.1410391642712,,,,,,,,,,,,,,,,,,,,,,,,,,,,,11285,2022-11-30_10h22.22.609,vts_reward_expectancy_bt_OFFLINE,2022.2.4,59.87891501713894,
,,,,,,,,,,,,,,,,,,,,,,,,,,,,,,,,,,0,0,0,0,8,0,8,0,,,,,,,,,,,,,,,,,,,,,,,,,,,,0,963,,,764.1623885752633,,,D,139,circle,0.0022267987951636314,,,,,1,0,,,2,,,,,,,,,760.6384401801042,760.6384401801042,760.6384401801042,760.6384401801042,762.1266855332069,762.1266855332069,762.1266855332069,762.1266855332069,762.14329271717,762.14329271717,762.14329271717,762.14329271717,switch,letter,lettSwt,d,0.5093156187795103,vtsPrac,762.6616179719567,,,,,,,,,,,,,,,,,,,,,,,,,,,,,11285,2022-11-30_10h22.22.609,vts_reward_expectancy_bt_OFFLINE,2022.2.4,59.87891501713894,
,,,,,,,,,,,,,,,,,,,,,,,,,,,,,,,,,,0,0,0,0,9,0,9,0,,,,,,,,,,,,,,,,,,,,,,,,,,,,0,963,,,768.9827086739242,,,U,125,triangle,0.0017826957628130913,,,,,1,0,,,2,,,,,,,,,765.1587651469745,765.1587651469745,765.1587651469745,765.1587651469745,766.646711435169,766.646711435169,766.646711435169,766.646711435169,766.6634050081484,766.6634050081484,766.6634050081484,766.6634050081484,switch,number,numSwt,j,0.8040467635728419,vtsPrac,767.4816134572029,,,,,,,,,,,,,,,,,,,,,,,,,,,,,11285,2022-11-30_10h22.22.609,vts_reward_expectancy_bt_OFFLINE,2022.2.4,59.87891501713894,
,,,,,,,,,,,,,,,,,,,,,,,,,,,,,,,,,,0,0,0,0,10,0,10,0,,,,,,,,,,,,,,,,,,,,,,,,,,,,0,963,,,773.586296106223,,,H,160,triangle,0.0019100820645689964,,,,,1,0,,,2,,,,,,,,,769.9785647098906,769.9785647098906,769.9785647098906,769.9785647098906,771.466911225114,771.466911225114,771.466911225114,771.466911225114,771.4836018038914,771.4836018038914,771.4836018038914,771.4836018038914,switch,letter,lettSwt,d,0.5960903614759445,vtsPrac,772.0848212870769,,,,,,,,,,,,,,,,,,,,,,,,,,,,,11285,2022-11-30_10h22.22.609,vts_reward_expectancy_bt_OFFLINE,2022.2.4,59.87891501713894,
,,,,,,,,,,,,,,,,,,,,,,,,,,,,,,,,,,0,0,0,0,11,0,11,0,,,,,,,,,,,,,,,,,,,,,,,,,,,,0,963,,,778.256479433272,,,F,146,star,0.002117563970386982,,,,,1,0,,,2,,,,,,,,,774.5819341740571,774.5819341740571,774.5819341740571,774.5819341740571,776.0704837981611,776.0704837981611,776.0704837981611,776.0704837981611,776.0870222761296,776.0870222761296,776.0870222761296,776.0870222761296,repeat,letter,lettRpt,d,0.6615567137487233,vtsPrac,776.7554712952115,,,,,,,,,,,,,,,,,,,,,,,,,,,,,11285,2022-11-30_10h22.22.609,vts_reward_expectancy_bt_OFFLINE,2022.2.4,59.87891501713894,
,,,,,,,,,,,,,,,,,,,,,,,,,,,,,,,,,,0,0,0,0,12,0,12,0,,,,,,,,,,,,,,,,,,,,,,,,,,,,0,963,,,782.7581989718601,,,B,125,triangle,0.0019129239954054356,,,,,1,0,,,2,,,,,,,,,779.2522522122599,779.2522522122599,779.2522522122599,779.2522522122599,780.7407221519388,780.7407221519388,780.7407221519388,780.7407221519388,780.7574972170405,780.7574972170405,780.7574972170405,780.7574972170405,repeat,letter,lettRpt,d,0.4810327896848321,vtsPrac,781.2426181449555,,,,,,,,,,,,,,,,,,,,,,,,,,,,,11285,2022-11-30_10h22.22.609,vts_reward_expectancy_bt_OFFLINE,2022.2.4,59.87891501713894,
,,,,,,,,,,,,,,,,,,,,,,,,,,,,,,,,,,0,0,0,0,13,0,13,0,,,,,,,,,,,,,,,,,,,,,,,,,,,,0,963,,,787.5949653680436,,,S,146,circle,0.009027219843119383,,,,,0,0,,,2,,,,,,,,,783.7407564772293,783.7407564772293,783.7407564772293,783.7407564772293,785.2275883271359,785.2275883271359,785.2275883271359,785.2275883271359,785.2442207252607,785.2442207252607,785.2442207252607,785.2442207252607,switch,number,NA,k,0.8206806615926325,vtsPrac,786.0812867069617,,,,,,,,,,,,,,,,,,,,,,,,,,,,,11285,2022-11-30_10h22.22.609,vts_reward_expectancy_bt_OFFLINE,2022.2.4,59.87891501713894,
,,,,,,,,,,,,,,,,,,,,,,,,,,,,,,,,,,0,0,0,0,14,0,14,0,,,,,,,,,,,,,,,,,,,,,,,,,,,,0,963,,,792.8821851159446,,,W,174,circle,0.017006600741297007,,,,,1,1,,,2,,,,,,,,,788.5916967140511,788.5916967140511,788.5916967140511,788.5916967140511,790.0645140069537,790.0645140069537,790.0645140069537,790.0645140069537,790.0977318398654,790.0977318398654,790.0977318398654,790.0977318398654,repeat,number,numRpt,k,1.282579103950411,vtsPrac,791.368071029894,,,,,,,,,,,,,,,,,,,,,,,,,,,,,11285,2022-11-30_10h22.22.609,vts_reward_expectancy_bt_OFFLINE,2022.2.4,59.87891501713894,
,,,,,,,,,,,,,,,,,,,,,,,,,,,,,,,,,,0,0,0,0,15,0,15,0,,,,,,,,,,,,,,,,,,,,,,,,,,,,0,963,,,797.3690112219192,,797.8690041061491,D,132,star,0.0019378499127924442,,,,,1,0,,,2,,,,,,,,,793.8624023771845,793.8624023771845,793.8624023771845,793.8624023771845,795.3513861261308,795.3513861261308,795.3513861261308,795.3513861261308,795.3680462269112,795.3680462269112,795.3680462269112,795.3680462269112,repeat,number,numRpt,j,0.496434289496392,vtsPrac,795.8695490481332,,,,,797.3690112219192,,,,,,,,,,,,,,,,,,,,,,,,11285,2022-11-30_10h22.22.609,vts_reward_expectancy_bt_OFFLINE,2022.2.4,59.87891501713894,
,,,,,,,,,,,,,,,,,,,,,,,,,,,,,,,,,,0,0,0,0,16,0,16,0,,,,,,,,,,,,,,,,,,,,,,,,,,,,0,963,,,802.022493830882,,,D,181,circle,0.0005296580493450165,,,,,1,0,,,2,,,,,,,,,798.3651323271915,798.3651323271915,798.3651323271915,798.3651323271915,799.8549244129099,799.8549244129099,799.8549244129099,799.8549244129099,799.8716136962175,799.8716136962175,799.8716136962175,799.8716136962175,switch,letter,lettSwt,d,0.6272508609108627,vtsPrac,800.5067871659994,,,,,,,,,,,,,,,,,,,,,,,,,,,,,11285,2022-11-30_10h22.22.609,vts_reward_expectancy_bt_OFFLINE,2022.2.4,59.87891501713894,
,,,,,,,,,,,,,,,,,,,,,,,,,,,,,,,,,,0,0,0,0,17,0,17,0,,,,,,,,,,,,,,,,,,,,,,,,,,,,0,963,,,806.7425460871309,,,H,125,hexagon,0.01676340214908123,,,,,1,0,,,2,,,,,,,,,803.0185255971737,803.0185255971737,803.0185255971737,803.0185255971737,804.4917844659649,804.4917844659649,804.4917844659649,804.4917844659649,804.5250000241213,804.5250000241213,804.5250000241213,804.5250000241213,switch,number,numSwt,j,0.7053923555649817,vtsPrac,805.2268798369914,,,,,,,,,,,,,,,,,,,,,,,,,,,,,11285,2022-11-30_10h22.22.609,vts_reward_expectancy_bt_OFFLINE,2022.2.4,59.87891501713894,
,,,,,,,,,,,,,,,,,,,,,,,,,,,,,,,,,,0,0,0,0,18,0,18,0,,,,,,,,,,,,,,,,,,,,,,,,,,,,0,963,,,811.5127500700764,,,S,139,circle,0.01685090409591794,,,,,1,0,,,2,,,,,,,,,807.738728848286,807.738728848286,807.738728848286,807.738728848286,809.2118709809147,809.2118709809147,809.2118709809147,809.2118709809147,809.2452682009898,809.2452682009898,809.2452682009898,809.2452682009898,switch,letter,lettSwt,f,0.766132618766278,vtsPrac,809.9974618530832,,,,,,,,,,,,,,,,,,,,,,,,,,,,,11285,2022-11-30_10h22.22.609,vts_reward_expectancy_bt_OFFLINE,2022.2.4,59.87891501713894,
,,,,,,,,,,,,,,,,,,,,,,,,,,,,,,,,,,0,0,0,0,19,0,19,0,,,,,,,,,,,,,,,,,,,,,,,,,,,,0,963,,,815.9997003050521,,,F,132,triangle,0.016649865079671144,,,,,1,0,,,2,,,,,,,,,812.5090261809528,812.5090261809528,812.5090261809528,812.5090261809528,813.982286405284,813.982286405284,813.982286405284,813.982286405284,814.015447136946,814.015447136946,814.015447136946,814.015447136946,switch,number,numSwt,j,0.4730830700136721,vtsPrac,814.4838353451341,,,,,,,,,,,,,,,,,,,,,,,,,,,,,11285,2022-11-30_10h22.22.609,vts_reward_expectancy_bt_OFFLINE,2022.2.4,59.87891501713894,
,,,,,,,,,,,,,,,,,,,,,,,,,,,,,,,,,,0,0,0,0,20,0,20,0,,,,,,,,,,,,,,,,,,,,,,,,,,,,0,963,,,820.569817636162,,,S,146,triangle,0.016951939091086388,,,,,1,0,,,2,,,,,,,,,816.9956611720845,816.9956611720845,816.9956611720845,816.9956611720845,818.468907234259,818.468907234259,818.468907234259,818.468907234259,818.5022386820056,818.5022386820056,818.5022386820056,818.5022386820056,switch,letter,lettSwt,f,0.5541866044513881,vtsPrac,819.0541703701019,,,,,,,,,,,,,,,,,,,,,,,,,,,,,11285,2022-11-30_10h22.22.609,vts_reward_expectancy_bt_OFFLINE,2022.2.4,59.87891501713894,
,,,,,,,,,,,,,,,,,,,,,,,,,,,,,,,,,,0,0,0,0,21,0,21,0,,,,,,,,,,,,,,,,,,,,,,,,,,,,0,963,,,824.9897248661146,,,B,174,star,0.016666644252836704,,,,,1,0,,,2,,,,,,,,,821.565600965172,821.565600965172,821.565600965172,821.565600965172,823.0372383669019,823.0372383669019,823.0372383669019,823.0372383669019,823.070603671018,823.070603671018,823.070603671018,823.070603671018,switch,number,numSwt,k,0.41852061776444316,vtsPrac,823.4742460921407,,,,,,,,,,,,,,,,,,,,,,,,,,,,,11285,2022-11-30_10h22.22.609,vts_reward_expectancy_bt_OFFLINE,2022.2.4,59.87891501713894,
,,,,,,,,,,,,,,,,,,,,,,,,,,,,,,,,,,0,0,0,0,22,0,22,0,,,,,,,,,,,,,,,,,,,,,,,,,,,,0,963,,,829.8602932910435,,830.3603062289767,D,139,hexagon,0.0166783700697124,,,,,1,0,,,2,,,,,,,,,825.9853125712834,825.9853125712834,825.9853125712834,825.9853125712834,827.457387116272,827.457387116272,827.457387116272,827.457387116272,827.4906805972569,827.4906805972569,827.4906805972569,827.4906805972569,repeat,number,numRpt,j,0.8814546694047749,vtsPrac,828.3606040161103,,,,,829.8602932910435,,,,,,,,,,,,,,,,,,,,,,,,11285,2022-11-30_10h22.22.609,vts_reward_expectancy_bt_OFFLINE,2022.2.4,59.87891501713894,
,,,,,,,,,,,,,,,,,,,,,,,,,,,,,,,,,,0,0,0,0,23,0,23,0,,,,,,,,,,,,,,,,,,,,,,,,,,,,0,963,,,834.4633081881329,,,W,160,triangle,0.0005149352364242077,,,,,1,0,,,2,,,,,,,,,830.8559207092039,830.8559207092039,830.8559207092039,830.8559207092039,832.3442040211521,832.3442040211521,832.3442040211521,832.3442040211521,832.360816415865,832.360816415865,832.360816415865,832.360816415865,repeat,number,numRpt,k,0.5960742277093232,vtsPrac,832.9625252261758,,,,,,,,,,,,,,,,,,,,,,,,,,,,,11285,2022-11-30_10h22.22.609,vts_reward_expectancy_bt_OFFLINE,2022.2.4,59.87891501713894,
,,,,,,,,,,,,,,,,,,,,,,,,,,,,,,,,,,0,0,0,0,24,0,24,0,,,,,,,,,,,,,,,,,,,,,,,,,,,,0,963,,,839.0503841759637,,,B,132,hexagon,0.001816777978092432,,,,,1,0,,,2,,,,,,,,,835.4592505320907,835.4592505320907,835.4592505320907,835.4592505320907,836.9475768809207,836.9475768809207,836.9475768809207,836.9475768809207,836.9643478728831,836.9643478728831,836.9643478728831,836.9643478728831,switch,letter,lettSwt,d,0.5836790315806866,vtsPrac,837.5498811411671,,,,,,,,,,,,,,,,,,,,,,,,,,,,,11285,2022-11-30_10h22.22.609,vts_reward_expectancy_bt_OFFLINE,2022.2.4,59.87891501713894,
,,,,,,,,,,,,,,,,,,,,,,,,,,,,,,,,,,0,0,0,0,25,0,25,0,,,,,,,,,,,,,,,,,,,,,,,,,,,,0,963,,,843.5370362298563,,,W,125,triangle,0.0018571517430245876,,,,,1,0,,,2,,,,,,,,,840.045977095142,840.045977095142,840.045977095142,840.045977095142,841.5345889292657,841.5345889292657,841.5345889292657,841.5345889292657,841.5512292119674,841.5512292119674,841.5512292119674,841.5512292119674,repeat,letter,lettRpt,f,0.47457076562568545,vtsPrac,842.0363823128864,,,,,,,,,,,,,,,,,,,,,,,,,,,,,11285,2022-11-30_10h22.22.609,vts_reward_expectancy_bt_OFFLINE,2022.2.4,59.87891501713894,
