LTriangleOpac,LCircleOpac,LHexagonOpac,LStarOpac,RTriangleOpac,RCircleOpac,RHexagonOpac,RStarOpac,LShape_ID,RShape_ID,training_blocks.thisRepN,training_blocks.thisTrialN,training_blocks.thisN,training_blocks.thisIndex,training.thisRepN,training.thisTrialN,training.thisN,training.thisIndex,task1_prac_redo.thisRepN,task1_prac_redo.thisTrialN,task1_prac_redo.thisN,task1_prac_redo.thisIndex,task1_prac_trials.thisRepN,task1_prac_trials.thisTrialN,task1_prac_trials.thisN,task1_prac_trials.thisIndex,task2_prac_redo.thisRepN,task2_prac_redo.thisTrialN,task2_prac_redo.thisN,task2_prac_redo.thisIndex,task2_praac_trials.thisRepN,task2_praac_trials.thisTrialN,task2_praac_trials.thisN,task2_praac_trials.thisIndex,vts_prac_redo.thisRepN,vts_prac_redo.thisTrialN,vts_prac_redo.thisN,vts_prac_redo.thisIndex,vts_practice_trials.thisRepN,vts_practice_trials.thisTrialN,vts_practice_trials.thisN,vts_practice_trials.thisIndex,trials_norew.thisRepN,trials_norew.thisTrialN,trials_norew.thisN,trials_norew.thisIndex,block.thisRepN,block.thisTrialN,block.thisN,block.thisIndex,trials_rew.thisRepN,trials_rew.thisTrialN,trials_rew.thisN,trials_rew.thisIndex,key_resp.started,key_resp.keys,key_resp.rt,left_circle.started,right_circle.started,left_triangle.started,right_triangle.started,left_star.started,right_star.started,left_hexagon.started,right_hexagon.started,training_fix.started,training_resp.started,training_resp.keys,training_resp.rt,points_trial,points_cumul,trainBlock,training_feedback_txt.started,fix.started,training_feedback_txt.stopped,fix.stopped,curr_topStim,curr_bottStim,curr_shape,ISI.started,tgt_fix_prac1.started,top_target_prac1.started,bott_target_prac1.started,target_resp_prac1.started,acc,E1,target_resp_prac1.keys,target_resp_prac1.rt,pracBlock,prac_fback_text.started,prac_fback_text.stopped,tgt_fix_prac2.started,top_target_prac2.started,bott_target_prac2.started,target_resp_prac2.started,target_resp_prac2.keys,target_resp_prac2.rt,star.started,hegagon.started,triangle.started,circle.started,top_target.started,tgt_fix.started,bot_target.started,target_resp.started,star.stopped,hegagon.stopped,triangle.stopped,circle.stopped,top_target.stopped,tgt_fix.stopped,bot_target.stopped,target_resp.stopped,alt,task,condition,target_resp.keys,rewCond,vts_fback.started,target_resp.rt,vts_fback.stopped,blockNum,norew_fback.started,norew_fback.stopped,key_resp_2.keys,key_resp_2.rt,rewExpectancy,feedbk_text.started,feedbk_text.stopped,text_3.started,debrief.started,text_3.stopped,button.started,debrief.index,debrief.itemText,debrief.type,debrief.granularity,debrief.font,debrief.markerColor,debrief.response,debrief.rt,button.numClicks,button.timesOn,button.timesOff,participant,date,expName,psychopyVersion,frameRate,
,,,,,,,,,,,,,,,,,,,,,,,,,,,,,,,,,,,,,,,,,,,,,,,,,,,,,,90.1645547390217,space,16.466668850858696,,,,,,,,,,,,,,,,,,,,,,,,,,,,,,,,,,,,,,,,,,,,,,,,,,,,,,,,,,,,,,,,,,,,,,,,,,,,,,,,,,,,,,,,11628,2022-11-09_14h26.00.408,vts_reward_expectancy_bt_OFFLINE,2022.2.4,60.0832688402612,
0,0,1,0,0,0,0,1,hexagon,star,0,0,0,0,0,0,0,8,,,,,,,,,,,,,,,,,,,,,,,,,,,,,,,,,,,,,,,,132.08260559209157,132.08260559209157,132.08260559209157,132.08260559209157,132.08260559209157,132.08260559209157,132.08260559209157,132.08260559209157,132.08260559209157,132.08260559209157,a,0.38985649193637073,10,10,0,132.49350652110297,134.00868536101189,,,,,,,,,,,,,,,,,,,,,,,,,,,,,,,,,,,,,,,,,,,,,,,,,,,,,,,,,,,,,,,,,,,,,,,11628,2022-11-09_14h26.00.408,vts_reward_expectancy_bt_OFFLINE,2022.2.4,60.0832688402612,
1,0,0,0,0,0,0,1,triangle,star,0,0,0,0,0,1,1,2,,,,,,,,,,,,,,,,,,,,,,,,,,,,,,,,,,,,,,,,134.5085620880127,134.5085620880127,134.5085620880127,134.5085620880127,134.5085620880127,134.5085620880127,134.5085620880127,134.5085620880127,134.5085620880127,134.5085620880127,l,1.2386874809162691,10,20,0,135.77587502403185,137.27797994401772,,,,,,,,,,,,,,,,,,,,,,,,,,,,,,,,,,,,,,,,,,,,,,,,,,,,,,,,,,,,,,,,,,,,,,,11628,2022-11-09_14h26.00.408,vts_reward_expectancy_bt_OFFLINE,2022.2.4,60.0832688402612,
0,0,1,0,0,1,0,0,hexagon,circle,0,0,0,0,0,2,2,7,,,,,,,,,,,,,,,,,,,,,,,,,,,,,,,,,,,,,,,,137.77860460605007,137.77860460605007,137.77860460605007,137.77860460605007,137.77860460605007,137.77860460605007,137.77860460605007,137.77860460605007,137.77860460605007,137.77860460605007,l,1.5455927229486406,1,21,0,139.34655333100818,140.84630695404485,140.84630695404485,141.34646228409838,,,,,,,,,,,,,,,,,,,,,,,,,,,,,,,,,,,,,,,,,,,,,,,,,,,,,,,,,,,,,,,,,,,,,11628,2022-11-09_14h26.00.408,vts_reward_expectancy_bt_OFFLINE,2022.2.4,60.0832688402612,
1,0,0,0,0,0,1,0,triangle,hexagon,0,0,0,0,0,3,3,1,,,,,,,,,,,,,,,,,,,,,,,,,,,,,,,,,,,,,,,,141.34646228409838,141.34646228409838,141.34646228409838,141.34646228409838,141.34646228409838,141.34646228409838,141.34646228409838,141.34646228409838,141.34646228409838,141.34646228409838,l,1.2405881019076332,10,31,0,142.6160878140945,144.11602722201496,144.11602722201496,144.61622954905033,,,,,,,,,,,,,,,,,,,,,,,,,,,,,,,,,,,,,,,,,,,,,,,,,,,,,,,,,,,,,,,,,,,,,11628,2022-11-09_14h26.00.408,vts_reward_expectancy_bt_OFFLINE,2022.2.4,60.0832688402612,
0,1,0,0,0,0,0,1,circle,star,0,0,0,0,0,4,4,5,,,,,,,,,,,,,,,,,,,,,,,,,,,,,,,,,,,,,,,,144.61622954905033,144.61622954905033,144.61622954905033,144.61622954905033,144.61622954905033,144.61622954905033,144.61622954905033,144.61622954905033,144.61622954905033,144.61622954905033,a,1.402477499912493,10,41,0,146.05005004210398,147.55211128701922,,,,,,,,,,,,,,,,,,,,,,,,,,,,,,,,,,,,,,,,,,,,,,,,,,,,,,,,,,,,,,,,,,,,,,,11628,2022-11-09_14h26.00.408,vts_reward_expectancy_bt_OFFLINE,2022.2.4,60.0832688402612,
0,1,0,0,1,0,0,0,circle,triangle,0,0,0,0,0,5,5,3,,,,,,,,,,,,,,,,,,,,,,,,,,,,,,,,,,,,,,,,148.05239206110127,148.05239206110127,148.05239206110127,148.05239206110127,148.05239206110127,148.05239206110127,148.05239206110127,148.05239206110127,148.05239206110127,148.05239206110127,a,1.476346813957207,1,42,0,149.55433184909634,151.05365478806198,151.05365478806198,151.55360213806853,,,,,,,,,,,,,,,,,,,,,,,,,,,,,,,,,,,,,,,,,,,,,,,,,,,,,,,,,,,,,,,,,,,,,11628,2022-11-09_14h26.00.408,vts_reward_expectancy_bt_OFFLINE,2022.2.4,60.0832688402612,
0,0,0,1,0,1,0,0,star ,circle,0,0,0,0,0,6,6,10,,,,,,,,,,,,,,,,,,,,,,,,,,,,,,,,,,,,,,,,151.55360213806853,151.55360213806853,151.55360213806853,151.55360213806853,151.55360213806853,151.55360213806853,151.55360213806853,151.55360213806853,151.55360213806853,151.55360213806853,a,1.0575690109981224,1,43,0,152.63938631408382,154.13994005101267,154.13994005101267,,,,,,,,,,,,,,,,,,,,,,,,,,,,,,,,,,,,,,,,,,,,,,,,,,,,,,,,,,,,,,,,,,,,,,11628,2022-11-09_14h26.00.408,vts_reward_expectancy_bt_OFFLINE,2022.2.4,60.0832688402612,
0,0,0,1,0,0,1,0,star,hexagon,0,0,0,0,0,7,7,11,,,,,,,,,,,,,,,,,,,,,,,,,,,,,,,,,,,,,,,,154.6399458090309,154.6399458090309,154.6399458090309,154.6399458090309,154.6399458090309,154.6399458090309,154.6399458090309,154.6399458090309,154.6399458090309,154.6399458090309,l,0.7511321669444442,10,53,0,155.42346883309074,156.9259151930455,,,,,,,,,,,,,,,,,,,,,,,,,,,,,,,,,,,,,,,,,,,,,,,,,,,,,,,,,,,,,,,,,,,,,,,11628,2022-11-09_14h26.00.408,vts_reward_expectancy_bt_OFFLINE,2022.2.4,60.0832688402612,
0,1,0,0,0,0,1,0,circle,hexagon,0,0,0,0,0,8,8,4,,,,,,,,,,,,,,,,,,,,,,,,,,,,,,,,,,,,,,,,157.42622301110532,157.42622301110532,157.42622301110532,157.42622301110532,157.42622301110532,157.42622301110532,157.42622301110532,157.42622301110532,157.42622301110532,157.42622301110532,a,0.9564986189361662,10,63,0,158.4098770150449,159.910431272001,159.910431272001,160.41053036402445,,,,,,,,,,,,,,,,,,,,,,,,,,,,,,,,,,,,,,,,,,,,,,,,,,,,,,,,,,,,,,,,,,,,,11628,2022-11-09_14h26.00.408,vts_reward_expectancy_bt_OFFLINE,2022.2.4,60.0832688402612,
1,0,0,0,0,1,0,0,triangle,circle,0,0,0,0,0,9,9,0,,,,,,,,,,,,,,,,,,,,,,,,,,,,,,,,,,,,,,,,160.41053036402445,160.41053036402445,160.41053036402445,160.41053036402445,160.41053036402445,160.41053036402445,160.41053036402445,160.41053036402445,160.41053036402445,160.41053036402445,a,0.3929965440183878,10,73,0,160.82746053300798,162.32972172705922,,,,,,,,,,,,,,,,,,,,,,,,,,,,,,,,,,,,,,,,,,,,,,,,,,,,,,,,,,,,,,,,,,,,,,,11628,2022-11-09_14h26.00.408,vts_reward_expectancy_bt_OFFLINE,2022.2.4,60.0832688402612,
0,0,1,0,1,0,0,0,hexagon,triangle,0,0,0,0,0,10,10,6,,,,,,,,,,,,,,,,,,,,,,,,,,,,,,,,,,,,,,,,162.83002348605078,162.83002348605078,162.83002348605078,162.83002348605078,162.83002348605078,162.83002348605078,162.83002348605078,162.83002348605078,162.83002348605078,162.83002348605078,a,0.3229390939231962,10,83,0,163.18026741908398,164.68062114703935,164.68062114703935,165.18071477802005,,,,,,,,,,,,,,,,,,,,,,,,,,,,,,,,,,,,,,,,,,,,,,,,,,,,,,,,,,,,,,,,,,,,,11628,2022-11-09_14h26.00.408,vts_reward_expectancy_bt_OFFLINE,2022.2.4,60.0832688402612,
0,0,0,1,1,0,0,0,star,triangle,0,0,0,0,0,11,11,9,,,,,,,,,,,,,,,,,,,,,,,,,,,,,,,,,,,,,,,,165.18071477802005,165.18071477802005,165.18071477802005,165.18071477802005,165.18071477802005,165.18071477802005,165.18071477802005,165.18071477802005,165.18071477802005,165.18071477802005,l,0.3009744859300554,10,93,0,165.51441409008112,167.01659801707137,,,,,,,,,,,,,,,,,,,,,,,,,,,,,,,,,,,,,,,,,,,,,,,,,,,,,,,,,,,,,,,,,,,,,,,11628,2022-11-09_14h26.00.408,vts_reward_expectancy_bt_OFFLINE,2022.2.4,60.0832688402612,
0,0,0,1,1,0,0,0,star,triangle,0,0,0,0,1,0,12,9,,,,,,,,,,,,,,,,,,,,,,,,,,,,,,,,,,,,,,,,167.51672830607276,167.51672830607276,167.51672830607276,167.51672830607276,167.51672830607276,167.51672830607276,167.51672830607276,167.51672830607276,167.51672830607276,167.51672830607276,l,0.31688161089550704,10,103,0,167.85010495607276,169.35094737401232,169.35094737401232,169.8511425650213,,,,,,,,,,,,,,,,,,,,,,,,,,,,,,,,,,,,,,,,,,,,,,,,,,,,,,,,,,,,,,,,,,,,,11628,2022-11-09_14h26.00.408,vts_reward_expectancy_bt_OFFLINE,2022.2.4,60.0832688402612,
0,0,0,1,0,1,0,0,star ,circle,0,0,0,0,1,1,13,10,,,,,,,,,,,,,,,,,,,,,,,,,,,,,,,,,,,,,,,,169.8511425650213,169.8511425650213,169.8511425650213,169.8511425650213,169.8511425650213,169.8511425650213,169.8511425650213,169.8511425650213,169.8511425650213,169.8511425650213,l,0.3571948668686673,10,113,0,170.2342928770231,171.73497762007173,171.73497762007173,,,,,,,,,,,,,,,,,,,,,,,,,,,,,,,,,,,,,,,,,,,,,,,,,,,,,,,,,,,,,,,,,,,,,,11628,2022-11-09_14h26.00.408,vts_reward_expectancy_bt_OFFLINE,2022.2.4,60.0832688402612,
0,0,1,0,0,0,0,1,hexagon,star,0,0,0,0,1,2,14,8,,,,,,,,,,,,,,,,,,,,,,,,,,,,,,,,,,,,,,,,172.23718580999412,172.23718580999412,172.23718580999412,172.23718580999412,172.23718580999412,172.23718580999412,172.23718580999412,172.23718580999412,172.23718580999412,172.23718580999412,l,0.6476554778637365,10,123,0,172.9039014420705,174.40470161207486,174.40470161207486,174.90477804408874,,,,,,,,,,,,,,,,,,,,,,,,,,,,,,,,,,,,,,,,,,,,,,,,,,,,,,,,,,,,,,,,,,,,,11628,2022-11-09_14h26.00.408,vts_reward_expectancy_bt_OFFLINE,2022.2.4,60.0832688402612,
1,0,0,0,0,0,1,0,triangle,hexagon,0,0,0,0,1,3,15,1,,,,,,,,,,,,,,,,,,,,,,,,,,,,,,,,,,,,,,,,174.90477804408874,174.90477804408874,174.90477804408874,174.90477804408874,174.90477804408874,174.90477804408874,174.90477804408874,174.90477804408874,174.90477804408874,174.90477804408874,a,0.3423250849591568,10,133,0,175.27136099501513,176.7720167270163,176.7720167270163,,,,,,,,,,,,,,,,,,,,,,,,,,,,,,,,,,,,,,,,,,,,,,,,,,,,,,,,,,,,,,,,,,,,,,11628,2022-11-09_14h26.00.408,vts_reward_expectancy_bt_OFFLINE,2022.2.4,60.0832688402612,
1,0,0,0,0,0,0,1,triangle,star,0,0,0,0,1,4,16,2,,,,,,,,,,,,,,,,,,,,,,,,,,,,,,,,,,,,,,,,177.27399817307014,177.27399817307014,177.27399817307014,177.27399817307014,177.27399817307014,177.27399817307014,177.27399817307014,177.27399817307014,177.27399817307014,177.27399817307014,a,0.32539544987957925,1,134,0,177.624992917059,179.12477668607607,179.12477668607607,179.62504521303345,,,,,,,,,,,,,,,,,,,,,,,,,,,,,,,,,,,,,,,,,,,,,,,,,,,,,,,,,,,,,,,,,,,,,11628,2022-11-09_14h26.00.408,vts_reward_expectancy_bt_OFFLINE,2022.2.4,60.0832688402612,
1,0,0,0,0,1,0,0,triangle,circle,0,0,0,0,1,5,17,0,,,,,,,,,,,,,,,,,,,,,,,,,,,,,,,,,,,,,,,,179.62504521303345,179.62504521303345,179.62504521303345,179.62504521303345,179.62504521303345,179.62504521303345,179.62504521303345,179.62504521303345,179.62504521303345,179.62504521303345,a,0.33608742291107774,10,144,0,179.99254984606523,181.4922525830334,181.4922525830334,,,,,,,,,,,,,,,,,,,,,,,,,,,,,,,,,,,,,,,,,,,,,,,,,,,,,,,,,,,,,,,,,,,,,,11628,2022-11-09_14h26.00.408,vts_reward_expectancy_bt_OFFLINE,2022.2.4,60.0832688402612,
0,0,0,1,0,0,1,0,star,hexagon,0,0,0,0,1,6,18,11,,,,,,,,,,,,,,,,,,,,,,,,,,,,,,,,,,,,,,,,181.99428709805943,181.99428709805943,181.99428709805943,181.99428709805943,181.99428709805943,181.99428709805943,181.99428709805943,181.99428709805943,181.99428709805943,181.99428709805943,a,0.38606651686131954,10,154,0,182.41091990610585,183.9116826390382,183.9116826390382,184.41197033110075,,,,,,,,,,,,,,,,,,,,,,,,,,,,,,,,,,,,,,,,,,,,,,,,,,,,,,,,,,,,,,,,,,,,,11628,2022-11-09_14h26.00.408,vts_reward_expectancy_bt_OFFLINE,2022.2.4,60.0832688402612,
0,0,1,0,1,0,0,0,hexagon,triangle,0,0,0,0,1,7,19,6,,,,,,,,,,,,,,,,,,,,,,,,,,,,,,,,,,,,,,,,184.41197033110075,184.41197033110075,184.41197033110075,184.41197033110075,184.41197033110075,184.41197033110075,184.41197033110075,184.41197033110075,184.41197033110075,184.41197033110075,a,0.4771746329497546,10,164,0,184.91193831106648,186.41259340802208,186.41259340802208,,,,,,,,,,,,,,,,,,,,,,,,,,,,,,,,,,,,,,,,,,,,,,,,,,,,,,,,,,,,,,,,,,,,,,11628,2022-11-09_14h26.00.408,vts_reward_expectancy_bt_OFFLINE,2022.2.4,60.0832688402612,
0,1,0,0,1,0,0,0,circle,triangle,0,0,0,0,1,8,20,3,,,,,,,,,,,,,,,,,,,,,,,,,,,,,,,,,,,,,,,,186.9145879970165,186.9145879970165,186.9145879970165,186.9145879970165,186.9145879970165,186.9145879970165,186.9145879970165,186.9145879970165,186.9145879970165,186.9145879970165,a,0.42722556088119745,10,174,0,187.36471030209213,188.8652727410663,188.8652727410663,189.3655586860841,,,,,,,,,,,,,,,,,,,,,,,,,,,,,,,,,,,,,,,,,,,,,,,,,,,,,,,,,,,,,,,,,,,,,11628,2022-11-09_14h26.00.408,vts_reward_expectancy_bt_OFFLINE,2022.2.4,60.0832688402612,
0,1,0,0,0,0,0,1,circle,star,0,0,0,0,1,9,21,5,,,,,,,,,,,,,,,,,,,,,,,,,,,,,,,,,,,,,,,,189.3655586860841,189.3655586860841,189.3655586860841,189.3655586860841,189.3655586860841,189.3655586860841,189.3655586860841,189.3655586860841,189.3655586860841,189.3655586860841,l,0.2717560320161283,1,175,0,189.66643982101232,191.1662288850639,191.1662288850639,191.66632495308295,,,,,,,,,,,,,,,,,,,,,,,,,,,,,,,,,,,,,,,,,,,,,,,,,,,,,,,,,,,,,,,,,,,,,11628,2022-11-09_14h26.00.408,vts_reward_expectancy_bt_OFFLINE,2022.2.4,60.0832688402612,
0,1,0,0,0,0,1,0,circle,hexagon,0,0,0,0,1,10,22,4,,,,,,,,,,,,,,,,,,,,,,,,,,,,,,,,,,,,,,,,191.66632495308295,191.66632495308295,191.66632495308295,191.66632495308295,191.66632495308295,191.66632495308295,191.66632495308295,191.66632495308295,191.66632495308295,191.66632495308295,l,0.7493843679549173,10,185,0,192.4359655600274,193.93561668507755,193.93561668507755,194.4360469270032,,,,,,,,,,,,,,,,,,,,,,,,,,,,,,,,,,,,,,,,,,,,,,,,,,,,,,,,,,,,,,,,,,,,,11628,2022-11-09_14h26.00.408,vts_reward_expectancy_bt_OFFLINE,2022.2.4,60.0832688402612,
0,0,1,0,0,1,0,0,hexagon,circle,0,0,0,0,1,11,23,7,,,,,,,,,,,,,,,,,,,,,,,,,,,,,,,,,,,,,,,,194.4360469270032,194.4360469270032,194.4360469270032,194.4360469270032,194.4360469270032,194.4360469270032,194.4360469270032,194.4360469270032,194.4360469270032,194.4360469270032,a,0.5560161279281601,10,195,0,195.01928463205695,196.5197226780001,196.5197226780001,,,,,,,,,,,,,,,,,,,,,,,,,,,,,,,,,,,,,,,,,,,,,,,,,,,,,,,,,,,,,,,,,,,,,,11628,2022-11-09_14h26.00.408,vts_reward_expectancy_bt_OFFLINE,2022.2.4,60.0832688402612,
0,1,0,0,0,0,0,1,circle,star,0,0,0,0,2,0,24,5,,,,,,,,,,,,,,,,,,,,,,,,,,,,,,,,,,,,,,,,197.02194994909223,197.02194994909223,197.02194994909223,197.02194994909223,197.02194994909223,197.02194994909223,197.02194994909223,197.02194994909223,197.02194994909223,197.02194994909223,a,0.3671568969730288,1,196,0,197.4220913760364,198.922605372034,198.922605372034,199.4225925001083,,,,,,,,,,,,,,,,,,,,,,,,,,,,,,,,,,,,,,,,,,,,,,,,,,,,,,,,,,,,,,,,,,,,,11628,2022-11-09_14h26.00.408,vts_reward_expectancy_bt_OFFLINE,2022.2.4,60.0832688402612,
0,0,1,0,0,0,0,1,hexagon,star,0,0,0,0,2,1,25,8,,,,,,,,,,,,,,,,,,,,,,,,,,,,,,,,,,,,,,,,199.4225925001083,199.4225925001083,199.4225925001083,199.4225925001083,199.4225925001083,199.4225925001083,199.4225925001083,199.4225925001083,199.4225925001083,199.4225925001083,l,0.28399936691857874,1,197,0,199.73951306100935,201.23999102809466,201.23999102809466,201.74024763400666,,,,,,,,,,,,,,,,,,,,,,,,,,,,,,,,,,,,,,,,,,,,,,,,,,,,,,,,,,,,,,,,,,,,,11628,2022-11-09_14h26.00.408,vts_reward_expectancy_bt_OFFLINE,2022.2.4,60.0832688402612,
1,0,0,0,0,0,0,1,triangle,star,0,0,0,0,2,2,26,2,,,,,,,,,,,,,,,,,,,,,,,,,,,,,,,,,,,,,,,,201.74024763400666,201.74024763400666,201.74024763400666,201.74024763400666,201.74024763400666,201.74024763400666,201.74024763400666,201.74024763400666,201.74024763400666,201.74024763400666,l,0.6554860528558493,10,207,0,202.42668797902297,203.9261720480863,203.9261720480863,204.42624045407865,,,,,,,,,,,,,,,,,,,,,,,,,,,,,,,,,,,,,,,,,,,,,,,,,,,,,,,,,,,,,,,,,,,,,11628,2022-11-09_14h26.00.408,vts_reward_expectancy_bt_OFFLINE,2022.2.4,60.0832688402612,
1,0,0,0,0,0,1,0,triangle,hexagon,0,0,0,0,2,3,27,1,,,,,,,,,,,,,,,,,,,,,,,,,,,,,,,,,,,,,,,,204.42624045407865,204.42624045407865,204.42624045407865,204.42624045407865,204.42624045407865,204.42624045407865,204.42624045407865,204.42624045407865,204.42624045407865,204.42624045407865,l,0.4895163899054751,1,208,0,204.94410827907268,206.4436057000421,206.4436057000421,,,,,,,,,,,,,,,,,,,,,,,,,,,,,,,,,,,,,,,,,,,,,,,,,,,,,,,,,,,,,,,,,,,,,,11628,2022-11-09_14h26.00.408,vts_reward_expectancy_bt_OFFLINE,2022.2.4,60.0832688402612,
0,0,0,1,0,0,1,0,star,hexagon,0,0,0,0,2,4,28,11,,,,,,,,,,,,,,,,,,,,,,,,,,,,,,,,,,,,,,,,206.94571730401367,206.94571730401367,206.94571730401367,206.94571730401367,206.94571730401367,206.94571730401367,206.94571730401367,206.94571730401367,206.94571730401367,206.94571730401367,a,0.3993912459118292,10,218,0,207.3637901650509,208.86312972509768,208.86312972509768,,,,,,,,,,,,,,,,,,,,,,,,,,,,,,,,,,,,,,,,,,,,,,,,,,,,,,,,,,,,,,,,,,,,,,11628,2022-11-09_14h26.00.408,vts_reward_expectancy_bt_OFFLINE,2022.2.4,60.0832688402612,
0,0,0,1,1,0,0,0,star,triangle,0,0,0,0,2,5,29,9,,,,,,,,,,,,,,,,,,,,,,,,,,,,,,,,,,,,,,,,209.36341984802857,209.36341984802857,209.36341984802857,209.36341984802857,209.36341984802857,209.36341984802857,209.36341984802857,209.36341984802857,209.36341984802857,209.36341984802857,l,0.5923040530178696,1,219,0,209.98107315902598,211.48073991609272,211.48073991609272,,,,,,,,,,,,,,,,,,,,,,,,,,,,,,,,,,,,,,,,,,,,,,,,,,,,,,,,,,,,,,,,,,,,,,11628,2022-11-09_14h26.00.408,vts_reward_expectancy_bt_OFFLINE,2022.2.4,60.0832688402612,
0,0,1,0,1,0,0,0,hexagon,triangle,0,0,0,0,2,6,30,6,,,,,,,,,,,,,,,,,,,,,,,,,,,,,,,,,,,,,,,,211.9827229580842,211.9827229580842,211.9827229580842,211.9827229580842,211.9827229580842,211.9827229580842,211.9827229580842,211.9827229580842,211.9827229580842,211.9827229580842,l,0.7518347710138187,1,220,0,212.7663981950609,214.26708823209628,214.26708823209628,214.76724605006166,,,,,,,,,,,,,,,,,,,,,,,,,,,,,,,,,,,,,,,,,,,,,,,,,,,,,,,,,,,,,,,,,,,,,11628,2022-11-09_14h26.00.408,vts_reward_expectancy_bt_OFFLINE,2022.2.4,60.0832688402612,
0,0,0,1,0,1,0,0,star ,circle,0,0,0,0,2,7,31,10,,,,,,,,,,,,,,,,,,,,,,,,,,,,,,,,,,,,,,,,214.76724605006166,214.76724605006166,214.76724605006166,214.76724605006166,214.76724605006166,214.76724605006166,214.76724605006166,214.76724605006166,214.76724605006166,214.76724605006166,a,0.5996163048548624,1,221,0,215.38402834709268,216.88646790804341,,,,,,,,,,,,,,,,,,,,,,,,,,,,,,,,,,,,,,,,,,,,,,,,,,,,,,,,,,,,,,,,,,,,,,,11628,2022-11-09_14h26.00.408,vts_reward_expectancy_bt_OFFLINE,2022.2.4,60.0832688402612,
0,1,0,0,1,0,0,0,circle,triangle,0,0,0,0,2,8,32,3,,,,,,,,,,,,,,,,,,,,,,,,,,,,,,,,,,,,,,,,217.3864463150967,217.3864463150967,217.3864463150967,217.3864463150967,217.3864463150967,217.3864463150967,217.3864463150967,217.3864463150967,217.3864463150967,217.3864463150967,a,0.7482498108875006,10,231,0,218.1545911449939,219.65407436306123,219.65407436306123,220.15432804310694,,,,,,,,,,,,,,,,,,,,,,,,,,,,,,,,,,,,,,,,,,,,,,,,,,,,,,,,,,,,,,,,,,,,,11628,2022-11-09_14h26.00.408,vts_reward_expectancy_bt_OFFLINE,2022.2.4,60.0832688402612,
0,1,0,0,0,0,1,0,circle,hexagon,0,0,0,0,2,9,33,4,,,,,,,,,,,,,,,,,,,,,,,,,,,,,,,,,,,,,,,,220.15432804310694,220.15432804310694,220.15432804310694,220.15432804310694,220.15432804310694,220.15432804310694,220.15432804310694,220.15432804310694,220.15432804310694,220.15432804310694,a,0.5342199439182878,1,232,0,220.7208964950405,222.22350861306768,,,,,,,,,,,,,,,,,,,,,,,,,,,,,,,,,,,,,,,,,,,,,,,,,,,,,,,,,,,,,,,,,,,,,,,11628,2022-11-09_14h26.00.408,vts_reward_expectancy_bt_OFFLINE,2022.2.4,60.0832688402612,
1,0,0,0,0,1,0,0,triangle,circle,0,0,0,0,2,10,34,0,,,,,,,,,,,,,,,,,,,,,,,,,,,,,,,,,,,,,,,,222.72352535510436,222.72352535510436,222.72352535510436,222.72352535510436,222.72352535510436,222.72352535510436,222.72352535510436,222.72352535510436,222.72352535510436,222.72352535510436,a,0.33850847999565303,10,242,0,223.09171294304542,224.59109919704497,224.59109919704497,225.09110739605967,,,,,,,,,,,,,,,,,,,,,,,,,,,,,,,,,,,,,,,,,,,,,,,,,,,,,,,,,,,,,,,,,,,,,11628,2022-11-09_14h26.00.408,vts_reward_expectancy_bt_OFFLINE,2022.2.4,60.0832688402612,
0,0,1,0,0,1,0,0,hexagon,circle,0,0,0,0,2,11,35,7,,,,,,,,,,,,,,,,,,,,,,,,,,,,,,,,,,,,,,,,225.09110739605967,225.09110739605967,225.09110739605967,225.09110739605967,225.09110739605967,225.09110739605967,225.09110739605967,225.09110739605967,225.09110739605967,225.09110739605967,l,0.3452125518815592,10,252,0,225.45790274301544,226.96018691104837,,,,,,,,,,,,,,,,,,,,,,,,,,,,,,,,,,,,,,,,,,,,,,,,,,,,,,,,,,,,,,,,,,,,,,,11628,2022-11-09_14h26.00.408,vts_reward_expectancy_bt_OFFLINE,2022.2.4,60.0832688402612,
0,1,0,0,0,0,0,1,circle,star,0,0,0,0,3,0,36,5,,,,,,,,,,,,,,,,,,,,,,,,,,,,,,,,,,,,,,,,227.46049424109515,227.46049424109515,227.46049424109515,227.46049424109515,227.46049424109515,227.46049424109515,227.46049424109515,227.46049424109515,227.46049424109515,227.46049424109515,a,0.2714480768190697,10,262,0,227.76065045199357,229.26126902806573,229.26126902806573,229.7610442501027,,,,,,,,,,,,,,,,,,,,,,,,,,,,,,,,,,,,,,,,,,,,,,,,,,,,,,,,,,,,,,,,,,,,,11628,2022-11-09_14h26.00.408,vts_reward_expectancy_bt_OFFLINE,2022.2.4,60.0832688402612,
0,1,0,0,0,0,1,0,circle,hexagon,0,0,0,0,3,1,37,4,,,,,,,,,,,,,,,,,,,,,,,,,,,,,,,,,,,,,,,,229.7610442501027,229.7610442501027,229.7610442501027,229.7610442501027,229.7610442501027,229.7610442501027,229.7610442501027,229.7610442501027,229.7610442501027,229.7610442501027,a,0.2767182958777994,10,272,0,230.0614694720134,231.56184836500324,231.56184836500324,,,,,,,,,,,,,,,,,,,,,,,,,,,,,,,,,,,,,,,,,,,,,,,,,,,,,,,,,,,,,,,,,,,,,,11628,2022-11-09_14h26.00.408,vts_reward_expectancy_bt_OFFLINE,2022.2.4,60.0832688402612,
0,0,0,1,0,1,0,0,star ,circle,0,0,0,0,3,2,38,10,,,,,,,,,,,,,,,,,,,,,,,,,,,,,,,,,,,,,,,,232.06412813009229,232.06412813009229,232.06412813009229,232.06412813009229,232.06412813009229,232.06412813009229,232.06412813009229,232.06412813009229,232.06412813009229,232.06412813009229,a,0.2132842990104109,10,282,0,232.2973824030487,233.79798586608376,233.79798586608376,234.2981708100997,,,,,,,,,,,,,,,,,,,,,,,,,,,,,,,,,,,,,,,,,,,,,,,,,,,,,,,,,,,,,,,,,,,,,11628,2022-11-09_14h26.00.408,vts_reward_expectancy_bt_OFFLINE,2022.2.4,60.0832688402612,
1,0,0,0,0,1,0,0,triangle,circle,0,0,0,0,3,3,39,0,,,,,,,,,,,,,,,,,,,,,,,,,,,,,,,,,,,,,,,,234.2981708100997,234.2981708100997,234.2981708100997,234.2981708100997,234.2981708100997,234.2981708100997,234.2981708100997,234.2981708100997,234.2981708100997,234.2981708100997,a,0.2845320438500494,10,292,0,234.61512798909098,236.11530247109476,236.11530247109476,236.61555439105723,,,,,,,,,,,,,,,,,,,,,,,,,,,,,,,,,,,,,,,,,,,,,,,,,,,,,,,,,,,,,,,,,,,,,11628,2022-11-09_14h26.00.408,vts_reward_expectancy_bt_OFFLINE,2022.2.4,60.0832688402612,
1,0,0,0,0,0,1,0,triangle,hexagon,0,0,0,0,3,4,40,1,,,,,,,,,,,,,,,,,,,,,,,,,,,,,,,,,,,,,,,,236.61555439105723,236.61555439105723,236.61555439105723,236.61555439105723,236.61555439105723,236.61555439105723,236.61555439105723,236.61555439105723,236.61555439105723,236.61555439105723,a,0.3417939058272168,1,293,0,236.98566850507632,238.48505099699832,238.48505099699832,238.9849366080016,,,,,,,,,,,,,,,,,,,,,,,,,,,,,,,,,,,,,,,,,,,,,,,,,,,,,,,,,,,,,,,,,,,,,11628,2022-11-09_14h26.00.408,vts_reward_expectancy_bt_OFFLINE,2022.2.4,60.0832688402612,
1,0,0,0,0,0,0,1,triangle,star,0,0,0,0,3,5,41,2,,,,,,,,,,,,,,,,,,,,,,,,,,,,,,,,,,,,,,,,238.9849366080016,238.9849366080016,238.9849366080016,238.9849366080016,238.9849366080016,238.9849366080016,238.9849366080016,238.9849366080016,238.9849366080016,238.9849366080016,l,0.4017965429229662,1,294,0,239.41856280807406,240.9191020670114,240.9191020670114,241.41898185701575,,,,,,,,,,,,,,,,,,,,,,,,,,,,,,,,,,,,,,,,,,,,,,,,,,,,,,,,,,,,,,,,,,,,,11628,2022-11-09_14h26.00.408,vts_reward_expectancy_bt_OFFLINE,2022.2.4,60.0832688402612,
0,0,0,1,1,0,0,0,star,triangle,0,0,0,0,3,6,42,9,,,,,,,,,,,,,,,,,,,,,,,,,,,,,,,,,,,,,,,,241.41898185701575,241.41898185701575,241.41898185701575,241.41898185701575,241.41898185701575,241.41898185701575,241.41898185701575,241.41898185701575,241.41898185701575,241.41898185701575,a,0.3875280258944258,10,304,0,241.83738044905476,243.33848872303497,,,,,,,,,,,,,,,,,,,,,,,,,,,,,,,,,,,,,,,,,,,,,,,,,,,,,,,,,,,,,,,,,,,,,,,11628,2022-11-09_14h26.00.408,vts_reward_expectancy_bt_OFFLINE,2022.2.4,60.0832688402612,
0,1,0,0,1,0,0,0,circle,triangle,0,0,0,0,3,7,43,3,,,,,,,,,,,,,,,,,,,,,,,,,,,,,,,,,,,,,,,,243.83872542809695,243.83872542809695,243.83872542809695,243.83872542809695,243.83872542809695,243.83872542809695,243.83872542809695,243.83872542809695,243.83872542809695,243.83872542809695,a,0.5219161579152569,1,305,0,244.39014771801885,245.88959713210352,245.88959713210352,246.38939479901455,,,,,,,,,,,,,,,,,,,,,,,,,,,,,,,,,,,,,,,,,,,,,,,,,,,,,,,,,,,,,,,,,,,,,11628,2022-11-09_14h26.00.408,vts_reward_expectancy_bt_OFFLINE,2022.2.4,60.0832688402612,
0,0,1,0,1,0,0,0,hexagon,triangle,0,0,0,0,3,8,44,6,,,,,,,,,,,,,,,,,,,,,,,,,,,,,,,,,,,,,,,,246.38939479901455,246.38939479901455,246.38939479901455,246.38939479901455,246.38939479901455,246.38939479901455,246.38939479901455,246.38939479901455,246.38939479901455,246.38939479901455,a,0.43491217982955277,10,315,0,246.85395421402063,248.35865842702333,,,,,,,,,,,,,,,,,,,,,,,,,,,,,,,,,,,,,,,,,,,,,,,,,,,,,,,,,,,,,,,,,,,,,,,11628,2022-11-09_14h26.00.408,vts_reward_expectancy_bt_OFFLINE,2022.2.4,60.0832688402612,
0,0,1,0,0,1,0,0,hexagon,circle,0,0,0,0,3,9,45,7,,,,,,,,,,,,,,,,,,,,,,,,,,,,,,,,,,,,,,,,248.8587219240144,248.8587219240144,248.8587219240144,248.8587219240144,248.8587219240144,248.8587219240144,248.8587219240144,248.8587219240144,248.8587219240144,248.8587219240144,a,0.5530605849344283,1,316,0,249.44256411702372,250.94303809304256,250.94303809304256,251.44311741006095,,,,,,,,,,,,,,,,,,,,,,,,,,,,,,,,,,,,,,,,,,,,,,,,,,,,,,,,,,,,,,,,,,,,,11628,2022-11-09_14h26.00.408,vts_reward_expectancy_bt_OFFLINE,2022.2.4,60.0832688402612,
0,0,1,0,0,0,0,1,hexagon,star,0,0,0,0,3,10,46,8,,,,,,,,,,,,,,,,,,,,,,,,,,,,,,,,,,,,,,,,251.44311741006095,251.44311741006095,251.44311741006095,251.44311741006095,251.44311741006095,251.44311741006095,251.44311741006095,251.44311741006095,251.44311741006095,251.44311741006095,a,0.4781067529693246,1,317,0,251.94534780806862,253.4457937380066,253.4457937380066,253.94596820906736,,,,,,,,,,,,,,,,,,,,,,,,,,,,,,,,,,,,,,,,,,,,,,,,,,,,,,,,,,,,,,,,,,,,,11628,2022-11-09_14h26.00.408,vts_reward_expectancy_bt_OFFLINE,2022.2.4,60.0832688402612,
0,0,0,1,0,0,1,0,star,hexagon,0,0,0,0,3,11,47,11,,,,,,,,,,,,,,,,,,,,,,,,,,,,,,,,,,,,,,,,253.94596820906736,253.94596820906736,253.94596820906736,253.94596820906736,253.94596820906736,253.94596820906736,253.94596820906736,253.94596820906736,253.94596820906736,253.94596820906736,l,0.40500609390437603,10,327,0,254.38059729500674,255.88002018409315,255.88002018409315,256.38680853310507,,,,,,,,,,,,,,,,,,,,,,,,,,,,,,,,,,,,,,,,,,,,,,,,,,,,,,,,,,,,,,,,,,,,,11628,2022-11-09_14h26.00.408,vts_reward_expectancy_bt_OFFLINE,2022.2.4,60.0832688402612,
1,0,0,0,0,0,0,1,triangle,star,1,0,1,0,0,0,0,2,,,,,,,,,,,,,,,,,,,,,,,,,,,,,,,,,,,,,,,,263.9304747590795,263.9304747590795,263.9304747590795,263.9304747590795,263.9304747590795,263.9304747590795,263.9304747590795,263.9304747590795,263.9304747590795,263.9304747590795,a,0.6576629959745333,1,328,1,264.62010726099834,266.1206153050298,266.1206153050298,266.62068460707087,,,,,,,,,,,,,,,,,,,,,,,,,,,,,,,,,,,,,,,,,,,,,,,,,,,,,,,,,,,,,,,,,,,,,11628,2022-11-09_14h26.00.408,vts_reward_expectancy_bt_OFFLINE,2022.2.4,60.0832688402612,
0,0,1,0,0,1,0,0,hexagon,circle,1,0,1,0,0,1,1,7,,,,,,,,,,,,,,,,,,,,,,,,,,,,,,,,,,,,,,,,266.62068460707087,266.62068460707087,266.62068460707087,266.62068460707087,266.62068460707087,266.62068460707087,266.62068460707087,266.62068460707087,266.62068460707087,266.62068460707087,a,0.25181315082591027,10,338,1,266.89671911508776,268.40680284507107,,,,,,,,,,,,,,,,,,,,,,,,,,,,,,,,,,,,,,,,,,,,,,,,,,,,,,,,,,,,,,,,,,,,,,,11628,2022-11-09_14h26.00.408,vts_reward_expectancy_bt_OFFLINE,2022.2.4,60.0832688402612,
0,1,0,0,0,0,1,0,circle,hexagon,1,0,1,0,0,2,2,4,,,,,,,,,,,,,,,,,,,,,,,,,,,,,,,,,,,,,,,,268.90683529910166,268.90683529910166,268.90683529910166,268.90683529910166,268.90683529910166,268.90683529910166,268.90683529910166,268.90683529910166,268.90683529910166,268.90683529910166,a,0.39609403000213206,10,348,1,269.3236135720508,270.82416519499384,270.82416519499384,,,,,,,,,,,,,,,,,,,,,,,,,,,,,,,,,,,,,,,,,,,,,,,,,,,,,,,,,,,,,,,,,,,,,,11628,2022-11-09_14h26.00.408,vts_reward_expectancy_bt_OFFLINE,2022.2.4,60.0832688402612,
0,0,1,0,1,0,0,0,hexagon,triangle,1,0,1,0,0,3,3,6,,,,,,,,,,,,,,,,,,,,,,,,,,,,,,,,,,,,,,,,271.32428876007907,271.32428876007907,271.32428876007907,271.32428876007907,271.32428876007907,271.32428876007907,271.32428876007907,271.32428876007907,271.32428876007907,271.32428876007907,l,0.4761009239591658,1,349,1,271.825934387045,273.32723958208226,,,,,,,,,,,,,,,,,,,,,,,,,,,,,,,,,,,,,,,,,,,,,,,,,,,,,,,,,,,,,,,,,,,,,,,11628,2022-11-09_14h26.00.408,vts_reward_expectancy_bt_OFFLINE,2022.2.4,60.0832688402612,
0,1,0,0,1,0,0,0,circle,triangle,1,0,1,0,0,4,4,3,,,,,,,,,,,,,,,,,,,,,,,,,,,,,,,,,,,,,,,,273.8272435250692,273.8272435250692,273.8272435250692,273.8272435250692,273.8272435250692,273.8272435250692,273.8272435250692,273.8272435250692,273.8272435250692,273.8272435250692,l,0.3240946389269084,10,359,1,274.17892453004606,275.6946090790443,,,,,,,,,,,,,,,,,,,,,,,,,,,,,,,,,,,,,,,,,,,,,,,,,,,,,,,,,,,,,,,,,,,,,,,11628,2022-11-09_14h26.00.408,vts_reward_expectancy_bt_OFFLINE,2022.2.4,60.0832688402612,
0,0,0,1,0,1,0,0,star ,circle,1,0,1,0,0,5,5,10,,,,,,,,,,,,,,,,,,,,,,,,,,,,,,,,,,,,,,,,276.1949446320068,276.1949446320068,276.1949446320068,276.1949446320068,276.1949446320068,276.1949446320068,276.1949446320068,276.1949446320068,276.1949446320068,276.1949446320068,l,0.3188137710094452,1,360,1,276.54472424299456,278.0471838270314,,,,,,,,,,,,,,,,,,,,,,,,,,,,,,,,,,,,,,,,,,,,,,,,,,,,,,,,,,,,,,,,,,,,,,,11628,2022-11-09_14h26.00.408,vts_reward_expectancy_bt_OFFLINE,2022.2.4,60.0832688402612,
0,0,0,1,1,0,0,0,star,triangle,1,0,1,0,0,6,6,9,,,,,,,,,,,,,,,,,,,,,,,,,,,,,,,,,,,,,,,,278.5475031140959,278.5475031140959,278.5475031140959,278.5475031140959,278.5475031140959,278.5475031140959,278.5475031140959,278.5475031140959,278.5475031140959,278.5475031140959,a,0.3740396649809554,10,370,1,278.94838755810633,280.4479421720607,280.4479421720607,280.9481119320262,,,,,,,,,,,,,,,,,,,,,,,,,,,,,,,,,,,,,,,,,,,,,,,,,,,,,,,,,,,,,,,,,,,,,11628,2022-11-09_14h26.00.408,vts_reward_expectancy_bt_OFFLINE,2022.2.4,60.0832688402612,
1,0,0,0,0,1,0,0,triangle,circle,1,0,1,0,0,7,7,0,,,,,,,,,,,,,,,,,,,,,,,,,,,,,,,,,,,,,,,,280.9481119320262,280.9481119320262,280.9481119320262,280.9481119320262,280.9481119320262,280.9481119320262,280.9481119320262,280.9481119320262,280.9481119320262,280.9481119320262,l,0.40330365381669253,1,371,1,281.3827293420909,282.88403119600844,,,,,,,,,,,,,,,,,,,,,,,,,,,,,,,,,,,,,,,,,,,,,,,,,,,,,,,,,,,,,,,,,,,,,,,11628,2022-11-09_14h26.00.408,vts_reward_expectancy_bt_OFFLINE,2022.2.4,60.0832688402612,
0,0,0,1,0,0,1,0,star,hexagon,1,0,1,0,0,8,8,11,,,,,,,,,,,,,,,,,,,,,,,,,,,,,,,,,,,,,,,,283.3842803949956,283.3842803949956,283.3842803949956,283.3842803949956,283.3842803949956,283.3842803949956,283.3842803949956,283.3842803949956,283.3842803949956,283.3842803949956,a,0.6573084759293124,10,381,1,284.06909421109594,285.5682190010557,285.5682190010557,286.0684489751002,,,,,,,,,,,,,,,,,,,,,,,,,,,,,,,,,,,,,,,,,,,,,,,,,,,,,,,,,,,,,,,,,,,,,11628,2022-11-09_14h26.00.408,vts_reward_expectancy_bt_OFFLINE,2022.2.4,60.0832688402612,
1,0,0,0,0,0,1,0,triangle,hexagon,1,0,1,0,0,9,9,1,,,,,,,,,,,,,,,,,,,,,,,,,,,,,,,,,,,,,,,,286.0684489751002,286.0684489751002,286.0684489751002,286.0684489751002,286.0684489751002,286.0684489751002,286.0684489751002,286.0684489751002,286.0684489751002,286.0684489751002,l,0.8640368189662695,1,382,1,286.95530921104364,288.4548062530812,288.4548062530812,288.954586382024,,,,,,,,,,,,,,,,,,,,,,,,,,,,,,,,,,,,,,,,,,,,,,,,,,,,,,,,,,,,,,,,,,,,,11628,2022-11-09_14h26.00.408,vts_reward_expectancy_bt_OFFLINE,2022.2.4,60.0832688402612,
0,0,1,0,0,0,0,1,hexagon,star,1,0,1,0,0,10,10,8,,,,,,,,,,,,,,,,,,,,,,,,,,,,,,,,,,,,,,,,288.954586382024,288.954586382024,288.954586382024,288.954586382024,288.954586382024,288.954586382024,288.954586382024,288.954586382024,288.954586382024,288.954586382024,a,0.4194391699275002,1,383,1,289.4048286220059,290.9053933650721,290.9053933650721,291.40561050805263,,,,,,,,,,,,,,,,,,,,,,,,,,,,,,,,,,,,,,,,,,,,,,,,,,,,,,,,,,,,,,,,,,,,,11628,2022-11-09_14h26.00.408,vts_reward_expectancy_bt_OFFLINE,2022.2.4,60.0832688402612,
0,1,0,0,0,0,0,1,circle,star,1,0,1,0,0,11,11,5,,,,,,,,,,,,,,,,,,,,,,,,,,,,,,,,,,,,,,,,291.40561050805263,291.40561050805263,291.40561050805263,291.40561050805263,291.40561050805263,291.40561050805263,291.40561050805263,291.40561050805263,291.40561050805263,291.40561050805263,a,0.34243349195457995,1,384,1,291.77233714202885,293.27491090702824,,,,,,,,,,,,,,,,,,,,,,,,,,,,,,,,,,,,,,,,,,,,,,,,,,,,,,,,,,,,,,,,,,,,,,,11628,2022-11-09_14h26.00.408,vts_reward_expectancy_bt_OFFLINE,2022.2.4,60.0832688402612,
0,1,0,0,0,0,1,0,circle,hexagon,1,0,1,0,1,0,12,4,,,,,,,,,,,,,,,,,,,,,,,,,,,,,,,,,,,,,,,,293.77510627009906,293.77510627009906,293.77510627009906,293.77510627009906,293.77510627009906,293.77510627009906,293.77510627009906,293.77510627009906,293.77510627009906,293.77510627009906,l,0.3012501618359238,1,385,1,294.1081805510912,295.60896803904325,295.60896803904325,296.10895434208214,,,,,,,,,,,,,,,,,,,,,,,,,,,,,,,,,,,,,,,,,,,,,,,,,,,,,,,,,,,,,,,,,,,,,11628,2022-11-09_14h26.00.408,vts_reward_expectancy_bt_OFFLINE,2022.2.4,60.0832688402612,
0,0,0,1,0,0,1,0,star,hexagon,1,0,1,0,1,1,13,11,,,,,,,,,,,,,,,,,,,,,,,,,,,,,,,,,,,,,,,,296.10895434208214,296.10895434208214,296.10895434208214,296.10895434208214,296.10895434208214,296.10895434208214,296.10895434208214,296.10895434208214,296.10895434208214,296.10895434208214,a,0.3077341428725049,10,395,1,296.4438703720225,297.94510542601347,,,,,,,,,,,,,,,,,,,,,,,,,,,,,,,,,,,,,,,,,,,,,,,,,,,,,,,,,,,,,,,,,,,,,,,11628,2022-11-09_14h26.00.408,vts_reward_expectancy_bt_OFFLINE,2022.2.4,60.0832688402612,
0,0,1,0,0,0,0,1,hexagon,star,1,0,1,0,1,2,14,8,,,,,,,,,,,,,,,,,,,,,,,,,,,,,,,,,,,,,,,,298.4453493360197,298.4453493360197,298.4453493360197,298.4453493360197,298.4453493360197,298.4453493360197,298.4453493360197,298.4453493360197,298.4453493360197,298.4453493360197,a,0.5813011788995937,1,396,1,299.0468172610272,300.5457484960789,300.5457484960789,301.0461858540075,,,,,,,,,,,,,,,,,,,,,,,,,,,,,,,,,,,,,,,,,,,,,,,,,,,,,,,,,,,,,,,,,,,,,11628,2022-11-09_14h26.00.408,vts_reward_expectancy_bt_OFFLINE,2022.2.4,60.0832688402612,
0,0,0,1,0,1,0,0,star ,circle,1,0,1,0,1,3,15,10,,,,,,,,,,,,,,,,,,,,,,,,,,,,,,,,,,,,,,,,301.0461858540075,301.0461858540075,301.0461858540075,301.0461858540075,301.0461858540075,301.0461858540075,301.0461858540075,301.0461858540075,301.0461858540075,301.0461858540075,l,1.1187722538597882,1,397,1,302.18165572802536,303.68226208607666,303.68226208607666,304.18244557105936,,,,,,,,,,,,,,,,,,,,,,,,,,,,,,,,,,,,,,,,,,,,,,,,,,,,,,,,,,,,,,,,,,,,,11628,2022-11-09_14h26.00.408,vts_reward_expectancy_bt_OFFLINE,2022.2.4,60.0832688402612,
0,1,0,0,1,0,0,0,circle,triangle,1,0,1,0,1,4,16,3,,,,,,,,,,,,,,,,,,,,,,,,,,,,,,,,,,,,,,,,304.18244557105936,304.18244557105936,304.18244557105936,304.18244557105936,304.18244557105936,304.18244557105936,304.18244557105936,304.18244557105936,304.18244557105936,304.18244557105936,a,0.7952958688838407,1,398,1,304.99946386599913,306.50011894409545,306.50011894409545,,,,,,,,,,,,,,,,,,,,,,,,,,,,,,,,,,,,,,,,,,,,,,,,,,,,,,,,,,,,,,,,,,,,,,11628,2022-11-09_14h26.00.408,vts_reward_expectancy_bt_OFFLINE,2022.2.4,60.0832688402612,
0,0,1,0,1,0,0,0,hexagon,triangle,1,0,1,0,1,5,17,6,,,,,,,,,,,,,,,,,,,,,,,,,,,,,,,,,,,,,,,,307.0018937920686,307.0018937920686,307.0018937920686,307.0018937920686,307.0018937920686,307.0018937920686,307.0018937920686,307.0018937920686,307.0018937920686,307.0018937920686,a,0.2713109909091145,10,408,1,307.303233968094,308.802573279012,308.802573279012,,,,,,,,,,,,,,,,,,,,,,,,,,,,,,,,,,,,,,,,,,,,,,,,,,,,,,,,,,,,,,,,,,,,,,11628,2022-11-09_14h26.00.408,vts_reward_expectancy_bt_OFFLINE,2022.2.4,60.0832688402612,
0,1,0,0,0,0,0,1,circle,star,1,0,1,0,1,6,18,5,,,,,,,,,,,,,,,,,,,,,,,,,,,,,,,,,,,,,,,,309.3029315060703,309.3029315060703,309.3029315060703,309.3029315060703,309.3029315060703,309.3029315060703,309.3029315060703,309.3029315060703,309.3029315060703,309.3029315060703,a,0.34464633697643876,1,409,1,309.67092616006266,311.17023048200645,,,,,,,,,,,,,,,,,,,,,,,,,,,,,,,,,,,,,,,,,,,,,,,,,,,,,,,,,,,,,,,,,,,,,,,11628,2022-11-09_14h26.00.408,vts_reward_expectancy_bt_OFFLINE,2022.2.4,60.0832688402612,
1,0,0,0,0,1,0,0,triangle,circle,1,0,1,0,1,7,19,0,,,,,,,,,,,,,,,,,,,,,,,,,,,,,,,,,,,,,,,,311.67008772003464,311.67008772003464,311.67008772003464,311.67008772003464,311.67008772003464,311.67008772003464,311.67008772003464,311.67008772003464,311.67008772003464,311.67008772003464,a,0.40723829891067,10,419,1,312.10735150205437,313.62301774602383,,,,,,,,,,,,,,,,,,,,,,,,,,,,,,,,,,,,,,,,,,,,,,,,,,,,,,,,,,,,,,,,,,,,,,,11628,2022-11-09_14h26.00.408,vts_reward_expectancy_bt_OFFLINE,2022.2.4,60.0832688402612,
0,0,1,0,0,1,0,0,hexagon,circle,1,0,1,0,1,8,20,7,,,,,,,,,,,,,,,,,,,,,,,,,,,,,,,,,,,,,,,,314.1230922420509,314.1230922420509,314.1230922420509,314.1230922420509,314.1230922420509,314.1230922420509,314.1230922420509,314.1230922420509,314.1230922420509,314.1230922420509,a,0.4067986469017342,1,420,1,314.5579594380688,316.07382556109224,,,,,,,,,,,,,,,,,,,,,,,,,,,,,,,,,,,,,,,,,,,,,,,,,,,,,,,,,,,,,,,,,,,,,,,11628,2022-11-09_14h26.00.408,vts_reward_expectancy_bt_OFFLINE,2022.2.4,60.0832688402612,
1,0,0,0,0,0,1,0,triangle,hexagon,1,0,1,0,1,9,21,1,,,,,,,,,,,,,,,,,,,,,,,,,,,,,,,,,,,,,,,,316.57399398006964,316.57399398006964,316.57399398006964,316.57399398006964,316.57399398006964,316.57399398006964,316.57399398006964,316.57399398006964,316.57399398006964,316.57399398006964,a,0.37434748199302703,10,430,1,316.9779113010736,318.4930834880797,,,,,,,,,,,,,,,,,,,,,,,,,,,,,,,,,,,,,,,,,,,,,,,,,,,,,,,,,,,,,,,,,,,,,,,11628,2022-11-09_14h26.00.408,vts_reward_expectancy_bt_OFFLINE,2022.2.4,60.0832688402612,
0,0,0,1,1,0,0,0,star,triangle,1,0,1,0,1,10,22,9,,,,,,,,,,,,,,,,,,,,,,,,,,,,,,,,,,,,,,,,318.99343789205886,318.99343789205886,318.99343789205886,318.99343789205886,318.99343789205886,318.99343789205886,318.99343789205886,318.99343789205886,318.99343789205886,318.99343789205886,a,0.45252847799565643,1,431,1,319.4767828130862,320.9771877040621,320.9771877040621,321.47743942809757,,,,,,,,,,,,,,,,,,,,,,,,,,,,,,,,,,,,,,,,,,,,,,,,,,,,,,,,,,,,,,,,,,,,,11628,2022-11-09_14h26.00.408,vts_reward_expectancy_bt_OFFLINE,2022.2.4,60.0832688402612,
1,0,0,0,0,0,0,1,triangle,star,1,0,1,0,1,11,23,2,,,,,,,,,,,,,,,,,,,,,,,,,,,,,,,,,,,,,,,,321.47743942809757,321.47743942809757,321.47743942809757,321.47743942809757,321.47743942809757,321.47743942809757,321.47743942809757,321.47743942809757,321.47743942809757,321.47743942809757,a,0.320664640981704,1,432,1,321.82759797701146,323.3299119611038,,,,,,,,,,,,,,,,,,,,,,,,,,,,,,,,,,,,,,,,,,,,,,,,,,,,,,,,,,,,,,,,,,,,,,,11628,2022-11-09_14h26.00.408,vts_reward_expectancy_bt_OFFLINE,2022.2.4,60.0832688402612,
1,0,0,0,0,0,0,1,triangle,star,1,0,1,0,2,0,24,2,,,,,,,,,,,,,,,,,,,,,,,,,,,,,,,,,,,,,,,,323.8298966080183,323.8298966080183,323.8298966080183,323.8298966080183,323.8298966080183,323.8298966080183,323.8298966080183,323.8298966080183,323.8298966080183,323.8298966080183,l,0.43135871493723243,1,433,1,324.28055387106724,325.7809705660911,325.7809705660911,326.28086721908767,,,,,,,,,,,,,,,,,,,,,,,,,,,,,,,,,,,,,,,,,,,,,,,,,,,,,,,,,,,,,,,,,,,,,11628,2022-11-09_14h26.00.408,vts_reward_expectancy_bt_OFFLINE,2022.2.4,60.0832688402612,
0,0,1,0,0,1,0,0,hexagon,circle,1,0,1,0,2,1,25,7,,,,,,,,,,,,,,,,,,,,,,,,,,,,,,,,,,,,,,,,326.28086721908767,326.28086721908767,326.28086721908767,326.28086721908767,326.28086721908767,326.28086721908767,326.28086721908767,326.28086721908767,326.28086721908767,326.28086721908767,a,0.2864835188956931,10,443,1,326.5997298650909,328.1001009710599,,,,,,,,,,,,,,,,,,,,,,,,,,,,,,,,,,,,,,,,,,,,,,,,,,,,,,,,,,,,,,,,,,,,,,,11628,2022-11-09_14h26.00.408,vts_reward_expectancy_bt_OFFLINE,2022.2.4,60.0832688402612,
0,1,0,0,0,0,1,0,circle,hexagon,1,0,1,0,2,2,26,4,,,,,,,,,,,,,,,,,,,,,,,,,,,,,,,,,,,,,,,,328.6001913130749,328.6001913130749,328.6001913130749,328.6001913130749,328.6001913130749,328.6001913130749,328.6001913130749,328.6001913130749,328.6001913130749,328.6001913130749,a,0.35281157691497356,10,453,1,328.98398972908035,330.4845232490916,330.4845232490916,,,,,,,,,,,,,,,,,,,,,,,,,,,,,,,,,,,,,,,,,,,,,,,,,,,,,,,,,,,,,,,,,,,,,,11628,2022-11-09_14h26.00.408,vts_reward_expectancy_bt_OFFLINE,2022.2.4,60.0832688402612,
1,0,0,0,0,0,1,0,triangle,hexagon,1,0,1,0,2,3,27,1,,,,,,,,,,,,,,,,,,,,,,,,,,,,,,,,,,,,,,,,330.9844842880266,330.9844842880266,330.9844842880266,330.9844842880266,330.9844842880266,330.9844842880266,330.9844842880266,330.9844842880266,330.9844842880266,330.9844842880266,a,0.5108112848829478,1,454,1,331.519673547009,333.0204515440855,,,,,,,,,,,,,,,,,,,,,,,,,,,,,,,,,,,,,,,,,,,,,,,,,,,,,,,,,,,,,,,,,,,,,,,11628,2022-11-09_14h26.00.408,vts_reward_expectancy_bt_OFFLINE,2022.2.4,60.0832688402612,
0,0,1,0,1,0,0,0,hexagon,triangle,1,0,1,0,2,4,28,6,,,,,,,,,,,,,,,,,,,,,,,,,,,,,,,,,,,,,,,,333.5206809480442,333.5206809480442,333.5206809480442,333.5206809480442,333.5206809480442,333.5206809480442,333.5206809480442,333.5206809480442,333.5206809480442,333.5206809480442,a,0.22502712591085583,1,455,1,333.7706913710572,335.27119414310437,335.27119414310437,335.77133708505426,,,,,,,,,,,,,,,,,,,,,,,,,,,,,,,,,,,,,,,,,,,,,,,,,,,,,,,,,,,,,,,,,,,,,11628,2022-11-09_14h26.00.408,vts_reward_expectancy_bt_OFFLINE,2022.2.4,60.0832688402612,
1,0,0,0,0,1,0,0,triangle,circle,1,0,1,0,2,5,29,0,,,,,,,,,,,,,,,,,,,,,,,,,,,,,,,,,,,,,,,,335.77133708505426,335.77133708505426,335.77133708505426,335.77133708505426,335.77133708505426,335.77133708505426,335.77133708505426,335.77133708505426,335.77133708505426,335.77133708505426,a,0.15758798993192613,1,456,1,335.95475392602384,337.457312341081,,,,,,,,,,,,,,,,,,,,,,,,,,,,,,,,,,,,,,,,,,,,,,,,,,,,,,,,,,,,,,,,,,,,,,,11628,2022-11-09_14h26.00.408,vts_reward_expectancy_bt_OFFLINE,2022.2.4,60.0832688402612,
0,0,0,1,1,0,0,0,star,triangle,1,0,1,0,2,6,30,9,,,,,,,,,,,,,,,,,,,,,,,,,,,,,,,,,,,,,,,,337.95752346504014,337.95752346504014,337.95752346504014,337.95752346504014,337.95752346504014,337.95752346504014,337.95752346504014,337.95752346504014,337.95752346504014,337.95752346504014,a,0.052272985922172666,1,457,1,338.040789820021,339.54148020606954,339.54148020606954,340.041300795041,,,,,,,,,,,,,,,,,,,,,,,,,,,,,,,,,,,,,,,,,,,,,,,,,,,,,,,,,,,,,,,,,,,,,11628,2022-11-09_14h26.00.408,vts_reward_expectancy_bt_OFFLINE,2022.2.4,60.0832688402612,
0,0,0,1,0,1,0,0,star ,circle,1,0,1,0,2,7,31,10,,,,,,,,,,,,,,,,,,,,,,,,,,,,,,,,,,,,,,,,340.041300795041,340.041300795041,340.041300795041,340.041300795041,340.041300795041,340.041300795041,340.041300795041,340.041300795041,340.041300795041,340.041300795041,a,0.3645424018613994,1,458,1,340.42483236209955,341.92339182901196,341.92339182901196,,,,,,,,,,,,,,,,,,,,,,,,,,,,,,,,,,,,,,,,,,,,,,,,,,,,,,,,,,,,,,,,,,,,,,11628,2022-11-09_14h26.00.408,vts_reward_expectancy_bt_OFFLINE,2022.2.4,60.0832688402612,
0,0,0,1,0,0,1,0,star,hexagon,1,0,1,0,2,8,32,11,,,,,,,,,,,,,,,,,,,,,,,,,,,,,,,,,,,,,,,,342.42723283800296,342.42723283800296,342.42723283800296,342.42723283800296,342.42723283800296,342.42723283800296,342.42723283800296,342.42723283800296,342.42723283800296,342.42723283800296,a,1.6125124169047922,10,468,1,344.06327702105045,345.5787183960201,,,,,,,,,,,,,,,,,,,,,,,,,,,,,,,,,,,,,,,,,,,,,,,,,,,,,,,,,,,,,,,,,,,,,,,11628,2022-11-09_14h26.00.408,vts_reward_expectancy_bt_OFFLINE,2022.2.4,60.0832688402612,
0,1,0,0,1,0,0,0,circle,triangle,1,0,1,0,2,9,33,3,,,,,,,,,,,,,,,,,,,,,,,,,,,,,,,,,,,,,,,,346.07870305201504,346.07870305201504,346.07870305201504,346.07870305201504,346.07870305201504,346.07870305201504,346.07870305201504,346.07870305201504,346.07870305201504,346.07870305201504,a,0.4809845018899068,1,469,1,346.580823670025,348.0814061240526,,,,,,,,,,,,,,,,,,,,,,,,,,,,,,,,,,,,,,,,,,,,,,,,,,,,,,,,,,,,,,,,,,,,,,,11628,2022-11-09_14h26.00.408,vts_reward_expectancy_bt_OFFLINE,2022.2.4,60.0832688402612,
0,1,0,0,0,0,0,1,circle,star,1,0,1,0,2,10,34,5,,,,,,,,,,,,,,,,,,,,,,,,,,,,,,,,,,,,,,,,348.581666551996,348.581666551996,348.581666551996,348.581666551996,348.581666551996,348.581666551996,348.581666551996,348.581666551996,348.581666551996,348.581666551996,l,0.6900866379728541,1,470,1,349.29861273802817,350.7990840190323,350.7990840190323,351.2990696290508,,,,,,,,,,,,,,,,,,,,,,,,,,,,,,,,,,,,,,,,,,,,,,,,,,,,,,,,,,,,,,,,,,,,,11628,2022-11-09_14h26.00.408,vts_reward_expectancy_bt_OFFLINE,2022.2.4,60.0832688402612,
0,0,1,0,0,0,0,1,hexagon,star,1,0,1,0,2,11,35,8,,,,,,,,,,,,,,,,,,,,,,,,,,,,,,,,,,,,,,,,351.2990696290508,351.2990696290508,351.2990696290508,351.2990696290508,351.2990696290508,351.2990696290508,351.2990696290508,351.2990696290508,351.2990696290508,351.2990696290508,a,0.9984579929150641,1,471,1,352.31821847404353,353.8189236980397,353.8189236980397,,,,,,,,,,,,,,,,,,,,,,,,,,,,,,,,,,,,,,,,,,,,,,,,,,,,,,,,,,,,,,,,,,,,,,11628,2022-11-09_14h26.00.408,vts_reward_expectancy_bt_OFFLINE,2022.2.4,60.0832688402612,
1,0,0,0,0,1,0,0,triangle,circle,1,0,1,0,3,0,36,0,,,,,,,,,,,,,,,,,,,,,,,,,,,,,,,,,,,,,,,,354.31880409200676,354.31880409200676,354.31880409200676,354.31880409200676,354.31880409200676,354.31880409200676,354.31880409200676,354.31880409200676,354.31880409200676,354.31880409200676,l,0.4990580539451912,1,472,1,354.83572128706146,356.3363834830234,356.3363834830234,356.8363705910742,,,,,,,,,,,,,,,,,,,,,,,,,,,,,,,,,,,,,,,,,,,,,,,,,,,,,,,,,,,,,,,,,,,,,11628,2022-11-09_14h26.00.408,vts_reward_expectancy_bt_OFFLINE,2022.2.4,60.0832688402612,
0,0,1,0,0,1,0,0,hexagon,circle,1,0,1,0,3,1,37,7,,,,,,,,,,,,,,,,,,,,,,,,,,,,,,,,,,,,,,,,356.8363705910742,356.8363705910742,356.8363705910742,356.8363705910742,356.8363705910742,356.8363705910742,356.8363705910742,356.8363705910742,356.8363705910742,356.8363705910742,a,0.6481852259021252,10,482,1,357.50710191810504,359.02247635507956,,,,,,,,,,,,,,,,,,,,,,,,,,,,,,,,,,,,,,,,,,,,,,,,,,,,,,,,,,,,,,,,,,,,,,,11628,2022-11-09_14h26.00.408,vts_reward_expectancy_bt_OFFLINE,2022.2.4,60.0832688402612,
0,0,0,1,0,1,0,0,star ,circle,1,0,1,0,3,2,38,10,,,,,,,,,,,,,,,,,,,,,,,,,,,,,,,,,,,,,,,,359.52262619510293,359.52262619510293,359.52262619510293,359.52262619510293,359.52262619510293,359.52262619510293,359.52262619510293,359.52262619510293,359.52262619510293,359.52262619510293,a,0.5602258408907801,10,492,1,360.10598649806343,361.60652094101533,361.60652094101533,,,,,,,,,,,,,,,,,,,,,,,,,,,,,,,,,,,,,,,,,,,,,,,,,,,,,,,,,,,,,,,,,,,,,,11628,2022-11-09_14h26.00.408,vts_reward_expectancy_bt_OFFLINE,2022.2.4,60.0832688402612,
1,0,0,0,0,0,0,1,triangle,star,1,0,1,0,3,3,39,2,,,,,,,,,,,,,,,,,,,,,,,,,,,,,,,,,,,,,,,,362.10856709908694,362.10856709908694,362.10856709908694,362.10856709908694,362.10856709908694,362.10856709908694,362.10856709908694,362.10856709908694,362.10856709908694,362.10856709908694,a,1.5190688289003447,10,502,1,363.6593741440447,365.15970395400655,365.15970395400655,365.6599659710191,,,,,,,,,,,,,,,,,,,,,,,,,,,,,,,,,,,,,,,,,,,,,,,,,,,,,,,,,,,,,,,,,,,,,11628,2022-11-09_14h26.00.408,vts_reward_expectancy_bt_OFFLINE,2022.2.4,60.0832688402612,
0,0,0,1,0,0,1,0,star,hexagon,1,0,1,0,3,4,40,11,,,,,,,,,,,,,,,,,,,,,,,,,,,,,,,,,,,,,,,,365.6599659710191,365.6599659710191,365.6599659710191,365.6599659710191,365.6599659710191,365.6599659710191,365.6599659710191,365.6599659710191,365.6599659710191,365.6599659710191,a,0.48708714987151325,10,512,1,366.17673404701054,367.67877506208606,,,,,,,,,,,,,,,,,,,,,,,,,,,,,,,,,,,,,,,,,,,,,,,,,,,,,,,,,,,,,,,,,,,,,,,11628,2022-11-09_14h26.00.408,vts_reward_expectancy_bt_OFFLINE,2022.2.4,60.0832688402612,
0,1,0,0,1,0,0,0,circle,triangle,1,0,1,0,3,5,41,3,,,,,,,,,,,,,,,,,,,,,,,,,,,,,,,,,,,,,,,,368.1793497290928,368.1793497290928,368.1793497290928,368.1793497290928,368.1793497290928,368.1793497290928,368.1793497290928,368.1793497290928,368.1793497290928,368.1793497290928,a,0.3753959609894082,1,513,1,368.58122163207736,370.09676821902394,,,,,,,,,,,,,,,,,,,,,,,,,,,,,,,,,,,,,,,,,,,,,,,,,,,,,,,,,,,,,,,,,,,,,,,11628,2022-11-09_14h26.00.408,vts_reward_expectancy_bt_OFFLINE,2022.2.4,60.0832688402612,
0,0,1,0,0,0,0,1,hexagon,star,1,0,1,0,3,6,42,8,,,,,,,,,,,,,,,,,,,,,,,,,,,,,,,,,,,,,,,,370.59679817105643,370.59679817105643,370.59679817105643,370.59679817105643,370.59679817105643,370.59679817105643,370.59679817105643,370.59679817105643,370.59679817105643,370.59679817105643,l,0.38801083085127175,10,523,1,371.01566333009396,372.5160616750363,,,,,,,,,,,,,,,,,,,,,,,,,,,,,,,,,,,,,,,,,,,,,,,,,,,,,,,,,,,,,,,,,,,,,,,11628,2022-11-09_14h26.00.408,vts_reward_expectancy_bt_OFFLINE,2022.2.4,60.0832688402612,
1,0,0,0,0,0,1,0,triangle,hexagon,1,0,1,0,3,7,43,1,,,,,,,,,,,,,,,,,,,,,,,,,,,,,,,,,,,,,,,,373.016081049107,373.016081049107,373.016081049107,373.016081049107,373.016081049107,373.016081049107,373.016081049107,373.016081049107,373.016081049107,373.016081049107,l,0.387408998911269,10,533,1,373.4332471280359,374.9335067990469,374.9335067990469,375.43372211803216,,,,,,,,,,,,,,,,,,,,,,,,,,,,,,,,,,,,,,,,,,,,,,,,,,,,,,,,,,,,,,,,,,,,,11628,2022-11-09_14h26.00.408,vts_reward_expectancy_bt_OFFLINE,2022.2.4,60.0832688402612,
0,1,0,0,0,0,0,1,circle,star,1,0,1,0,3,8,44,5,,,,,,,,,,,,,,,,,,,,,,,,,,,,,,,,,,,,,,,,375.43372211803216,375.43372211803216,375.43372211803216,375.43372211803216,375.43372211803216,375.43372211803216,375.43372211803216,375.43372211803216,375.43372211803216,375.43372211803216,l,0.44505187892355025,1,534,1,375.90264817804564,377.40277503000107,,,,,,,,,,,,,,,,,,,,,,,,,,,,,,,,,,,,,,,,,,,,,,,,,,,,,,,,,,,,,,,,,,,,,,,11628,2022-11-09_14h26.00.408,vts_reward_expectancy_bt_OFFLINE,2022.2.4,60.0832688402612,
0,1,0,0,0,0,1,0,circle,hexagon,1,0,1,0,3,9,45,4,,,,,,,,,,,,,,,,,,,,,,,,,,,,,,,,,,,,,,,,377.90297695202753,377.90297695202753,377.90297695202753,377.90297695202753,377.90297695202753,377.90297695202753,377.90297695202753,377.90297695202753,377.90297695202753,377.90297695202753,a,0.5519368319073692,1,535,1,378.4867458710214,379.98725700902287,379.98725700902287,380.4874745000852,,,,,,,,,,,,,,,,,,,,,,,,,,,,,,,,,,,,,,,,,,,,,,,,,,,,,,,,,,,,,,,,,,,,,11628,2022-11-09_14h26.00.408,vts_reward_expectancy_bt_OFFLINE,2022.2.4,60.0832688402612,
0,0,1,0,1,0,0,0,hexagon,triangle,1,0,1,0,3,10,46,6,,,,,,,,,,,,,,,,,,,,,,,,,,,,,,,,,,,,,,,,380.4874745000852,380.4874745000852,380.4874745000852,380.4874745000852,380.4874745000852,380.4874745000852,380.4874745000852,380.4874745000852,380.4874745000852,380.4874745000852,a,0.45406713092233986,1,536,1,380.9711395680206,382.47311986004934,,,,,,,,,,,,,,,,,,,,,,,,,,,,,,,,,,,,,,,,,,,,,,,,,,,,,,,,,,,,,,,,,,,,,,,11628,2022-11-09_14h26.00.408,vts_reward_expectancy_bt_OFFLINE,2022.2.4,60.0832688402612,
0,0,0,1,1,0,0,0,star,triangle,1,0,1,0,3,11,47,9,,,,,,,,,,,,,,,,,,,,,,,,,,,,,,,,,,,,,,,,382.973345319042,382.973345319042,382.973345319042,382.973345319042,382.973345319042,382.973345319042,382.973345319042,382.973345319042,382.973345319042,382.973345319042,l,0.9046432139584795,1,537,1,383.9073124930728,385.40779056900647,385.40779056900647,385.9133195800241,,,,,,,,,,,,,,,,,,,,,,,,,,,,,,,,,,,,,,,,,,,,,,,,,,,,,,,,,,,,,,,,,,,,,11628,2022-11-09_14h26.00.408,vts_reward_expectancy_bt_OFFLINE,2022.2.4,60.0832688402612,
0,0,0,1,1,0,0,0,star,triangle,2,0,2,0,0,0,0,9,,,,,,,,,,,,,,,,,,,,,,,,,,,,,,,,,,,,,,,,391.3737282040529,391.3737282040529,391.3737282040529,391.3737282040529,391.3737282040529,391.3737282040529,391.3737282040529,391.3737282040529,391.3737282040529,391.3737282040529,a,0.5828999679069966,1,538,2,391.9743573809974,393.48089891299605,,,,,,,,,,,,,,,,,,,,,,,,,,,,,,,,,,,,,,,,,,,,,,,,,,,,,,,,,,,,,,,,,,,,,,,11628,2022-11-09_14h26.00.408,vts_reward_expectancy_bt_OFFLINE,2022.2.4,60.0832688402612,
1,0,0,0,0,1,0,0,triangle,circle,2,0,2,0,0,1,1,0,,,,,,,,,,,,,,,,,,,,,,,,,,,,,,,,,,,,,,,,393.98109931102954,393.98109931102954,393.98109931102954,393.98109931102954,393.98109931102954,393.98109931102954,393.98109931102954,393.98109931102954,393.98109931102954,393.98109931102954,a,0.23598315590061247,10,548,2,394.24992264504544,395.7650712260511,,,,,,,,,,,,,,,,,,,,,,,,,,,,,,,,,,,,,,,,,,,,,,,,,,,,,,,,,,,,,,,,,,,,,,,11628,2022-11-09_14h26.00.408,vts_reward_expectancy_bt_OFFLINE,2022.2.4,60.0832688402612,
1,0,0,0,0,0,0,1,triangle,star,2,0,2,0,0,2,2,2,,,,,,,,,,,,,,,,,,,,,,,,,,,,,,,,,,,,,,,,396.26536231604405,396.26536231604405,396.26536231604405,396.26536231604405,396.26536231604405,396.26536231604405,396.26536231604405,396.26536231604405,396.26536231604405,396.26536231604405,a,0.3603731408948079,1,549,2,396.65096348000225,398.15117327705957,,,,,,,,,,,,,,,,,,,,,,,,,,,,,,,,,,,,,,,,,,,,,,,,,,,,,,,,,,,,,,,,,,,,,,,11628,2022-11-09_14h26.00.408,vts_reward_expectancy_bt_OFFLINE,2022.2.4,60.0832688402612,
1,0,0,0,0,0,1,0,triangle,hexagon,2,0,2,0,0,3,3,1,,,,,,,,,,,,,,,,,,,,,,,,,,,,,,,,,,,,,,,,398.65151228709146,398.65151228709146,398.65151228709146,398.65151228709146,398.65151228709146,398.65151228709146,398.65151228709146,398.65151228709146,398.65151228709146,398.65151228709146,l,0.4037508498877287,10,559,2,399.08660770510323,400.60225804010406,,,,,,,,,,,,,,,,,,,,,,,,,,,,,,,,,,,,,,,,,,,,,,,,,,,,,,,,,,,,,,,,,,,,,,,11628,2022-11-09_14h26.00.408,vts_reward_expectancy_bt_OFFLINE,2022.2.4,60.0832688402612,
0,0,0,1,0,1,0,0,star ,circle,2,0,2,0,0,4,4,10,,,,,,,,,,,,,,,,,,,,,,,,,,,,,,,,,,,,,,,,401.08539740007836,401.08539740007836,401.08539740007836,401.08539740007836,401.08539740007836,401.08539740007836,401.08539740007836,401.08539740007836,401.08539740007836,401.08539740007836,a,0.3327756149228662,10,569,2,401.4358004060341,402.9380496130325,,,,,,,,,,,,,,,,,,,,,,,,,,,,,,,,,,,,,,,,,,,,,,,,,,,,,,,,,,,,,,,,,,,,,,,11628,2022-11-09_14h26.00.408,vts_reward_expectancy_bt_OFFLINE,2022.2.4,60.0832688402612,
0,0,1,0,0,1,0,0,hexagon,circle,2,0,2,0,0,5,5,7,,,,,,,,,,,,,,,,,,,,,,,,,,,,,,,,,,,,,,,,403.4382957810303,403.4382957810303,403.4382957810303,403.4382957810303,403.4382957810303,403.4382957810303,403.4382957810303,403.4382957810303,403.4382957810303,403.4382957810303,l,0.03821642883121967,10,579,2,403.504970574053,405.0052791280905,405.0052791280905,405.50567614100873,,,,,,,,,,,,,,,,,,,,,,,,,,,,,,,,,,,,,,,,,,,,,,,,,,,,,,,,,,,,,,,,,,,,,11628,2022-11-09_14h26.00.408,vts_reward_expectancy_bt_OFFLINE,2022.2.4,60.0832688402612,
0,1,0,0,0,0,1,0,circle,hexagon,2,0,2,0,0,6,6,4,,,,,,,,,,,,,,,,,,,,,,,,,,,,,,,,,,,,,,,,405.50567614100873,405.50567614100873,405.50567614100873,405.50567614100873,405.50567614100873,405.50567614100873,405.50567614100873,405.50567614100873,405.50567614100873,405.50567614100873,a,0.13095771393273026,1,580,2,405.65785512607545,407.1580576340202,,,,,,,,,,,,,,,,,,,,,,,,,,,,,,,,,,,,,,,,,,,,,,,,,,,,,,,,,,,,,,,,,,,,,,,11628,2022-11-09_14h26.00.408,vts_reward_expectancy_bt_OFFLINE,2022.2.4,60.0832688402612,
0,0,1,0,1,0,0,0,hexagon,triangle,2,0,2,0,0,7,7,6,,,,,,,,,,,,,,,,,,,,,,,,,,,,,,,,,,,,,,,,407.6581793160876,407.6581793160876,407.6581793160876,407.6581793160876,407.6581793160876,407.6581793160876,407.6581793160876,407.6581793160876,407.6581793160876,407.6581793160876,l,0.2401290349662304,1,581,2,407.9253992320737,409.42569655610714,409.42569655610714,409.92587769706734,,,,,,,,,,,,,,,,,,,,,,,,,,,,,,,,,,,,,,,,,,,,,,,,,,,,,,,,,,,,,,,,,,,,,11628,2022-11-09_14h26.00.408,vts_reward_expectancy_bt_OFFLINE,2022.2.4,60.0832688402612,
0,0,0,1,0,0,1,0,star,hexagon,2,0,2,0,0,8,8,11,,,,,,,,,,,,,,,,,,,,,,,,,,,,,,,,,,,,,,,,409.92587769706734,409.92587769706734,409.92587769706734,409.92587769706734,409.92587769706734,409.92587769706734,409.92587769706734,409.92587769706734,409.92587769706734,409.92587769706734,l,0.6385233448818326,10,591,2,410.59489453502465,412.0951036460465,,,,,,,,,,,,,,,,,,,,,,,,,,,,,,,,,,,,,,,,,,,,,,,,,,,,,,,,,,,,,,,,,,,,,,,11628,2022-11-09_14h26.00.408,vts_reward_expectancy_bt_OFFLINE,2022.2.4,60.0832688402612,
0,1,0,0,1,0,0,0,circle,triangle,2,0,2,0,0,9,9,3,,,,,,,,,,,,,,,,,,,,,,,,,,,,,,,,,,,,,,,,412.5952153360704,412.5952153360704,412.5952153360704,412.5952153360704,412.5952153360704,412.5952153360704,412.5952153360704,412.5952153360704,412.5952153360704,412.5952153360704,l,0.39928166987374425,10,601,2,413.01242742710747,414.51262049004436,414.51262049004436,415.0128095720429,,,,,,,,,,,,,,,,,,,,,,,,,,,,,,,,,,,,,,,,,,,,,,,,,,,,,,,,,,,,,,,,,,,,,11628,2022-11-09_14h26.00.408,vts_reward_expectancy_bt_OFFLINE,2022.2.4,60.0832688402612,
0,0,1,0,0,0,0,1,hexagon,star,2,0,2,0,0,10,10,8,,,,,,,,,,,,,,,,,,,,,,,,,,,,,,,,,,,,,,,,415.0128095720429,415.0128095720429,415.0128095720429,415.0128095720429,415.0128095720429,415.0128095720429,415.0128095720429,415.0128095720429,415.0128095720429,415.0128095720429,a,0.31039686198346317,1,602,2,415.34843586804345,416.8634441870963,,,,,,,,,,,,,,,,,,,,,,,,,,,,,,,,,,,,,,,,,,,,,,,,,,,,,,,,,,,,,,,,,,,,,,,11628,2022-11-09_14h26.00.408,vts_reward_expectancy_bt_OFFLINE,2022.2.4,60.0832688402612,
0,1,0,0,0,0,0,1,circle,star,2,0,2,0,0,11,11,5,,,,,,,,,,,,,,,,,,,,,,,,,,,,,,,,,,,,,,,,417.34872732602526,417.34872732602526,417.34872732602526,417.34872732602526,417.34872732602526,417.34872732602526,417.34872732602526,417.34872732602526,417.34872732602526,417.34872732602526,l,0.4277466079220176,1,603,2,417.79909057100303,419.2995752580464,419.2995752580464,419.7995586920297,,,,,,,,,,,,,,,,,,,,,,,,,,,,,,,,,,,,,,,,,,,,,,,,,,,,,,,,,,,,,,,,,,,,,11628,2022-11-09_14h26.00.408,vts_reward_expectancy_bt_OFFLINE,2022.2.4,60.0832688402612,
1,0,0,0,0,1,0,0,triangle,circle,2,0,2,0,1,0,12,0,,,,,,,,,,,,,,,,,,,,,,,,,,,,,,,,,,,,,,,,419.7995586920297,419.7995586920297,419.7995586920297,419.7995586920297,419.7995586920297,419.7995586920297,419.7995586920297,419.7995586920297,419.7995586920297,419.7995586920297,a,0.361497055971995,10,613,2,420.18544583709445,421.7003443411086,,,,,,,,,,,,,,,,,,,,,,,,,,,,,,,,,,,,,,,,,,,,,,,,,,,,,,,,,,,,,,,,,,,,,,,11628,2022-11-09_14h26.00.408,vts_reward_expectancy_bt_OFFLINE,2022.2.4,60.0832688402612,
0,1,0,0,1,0,0,0,circle,triangle,2,0,2,0,1,1,13,3,,,,,,,,,,,,,,,,,,,,,,,,,,,,,,,,,,,,,,,,422.1857091530692,422.1857091530692,422.1857091530692,422.1857091530692,422.1857091530692,422.1857091530692,422.1857091530692,422.1857091530692,422.1857091530692,422.1857091530692,l,0.9681776888901368,10,623,2,423.18615999701433,424.68649890006054,424.68649890006054,425.18652068800293,,,,,,,,,,,,,,,,,,,,,,,,,,,,,,,,,,,,,,,,,,,,,,,,,,,,,,,,,,,,,,,,,,,,,11628,2022-11-09_14h26.00.408,vts_reward_expectancy_bt_OFFLINE,2022.2.4,60.0832688402612,
0,0,1,0,0,1,0,0,hexagon,circle,2,0,2,0,1,2,14,7,,,,,,,,,,,,,,,,,,,,,,,,,,,,,,,,,,,,,,,,425.18652068800293,425.18652068800293,425.18652068800293,425.18652068800293,425.18652068800293,425.18652068800293,425.18652068800293,425.18652068800293,425.18652068800293,425.18652068800293,a,0.4310522439191118,1,624,2,425.6391305970028,427.13921706809197,,,,,,,,,,,,,,,,,,,,,,,,,,,,,,,,,,,,,,,,,,,,,,,,,,,,,,,,,,,,,,,,,,,,,,,11628,2022-11-09_14h26.00.408,vts_reward_expectancy_bt_OFFLINE,2022.2.4,60.0832688402612,
0,1,0,0,0,0,1,0,circle,hexagon,2,0,2,0,1,3,15,4,,,,,,,,,,,,,,,,,,,,,,,,,,,,,,,,,,,,,,,,427.6393633580301,427.6393633580301,427.6393633580301,427.6393633580301,427.6393633580301,427.6393633580301,427.6393633580301,427.6393633580301,427.6393633580301,427.6393633580301,l,0.5554162429179996,10,634,2,428.22541247704066,429.74012094701175,,,,,,,,,,,,,,,,,,,,,,,,,,,,,,,,,,,,,,,,,,,,,,,,,,,,,,,,,,,,,,,,,,,,,,,11628,2022-11-09_14h26.00.408,vts_reward_expectancy_bt_OFFLINE,2022.2.4,60.0832688402612,
0,0,0,1,0,1,0,0,star ,circle,2,0,2,0,1,4,16,10,,,,,,,,,,,,,,,,,,,,,,,,,,,,,,,,,,,,,,,,430.24028020503465,430.24028020503465,430.24028020503465,430.24028020503465,430.24028020503465,430.24028020503465,430.24028020503465,430.24028020503465,430.24028020503465,430.24028020503465,l,2.5101105408975855,10,644,2,432.7765916910721,434.2766235350864,434.2766235350864,434.77730973099824,,,,,,,,,,,,,,,,,,,,,,,,,,,,,,,,,,,,,,,,,,,,,,,,,,,,,,,,,,,,,,,,,,,,,11628,2022-11-09_14h26.00.408,vts_reward_expectancy_bt_OFFLINE,2022.2.4,60.0832688402612,
0,0,0,1,0,0,1,0,star,hexagon,2,0,2,0,1,5,17,11,,,,,,,,,,,,,,,,,,,,,,,,,,,,,,,,,,,,,,,,434.77730973099824,434.77730973099824,434.77730973099824,434.77730973099824,434.77730973099824,434.77730973099824,434.77730973099824,434.77730973099824,434.77730973099824,434.77730973099824,a,2.2938133269781247,1,645,2,437.09939578408375,438.61380072601605,,,,,,,,,,,,,,,,,,,,,,,,,,,,,,,,,,,,,,,,,,,,,,,,,,,,,,,,,,,,,,,,,,,,,,,11628,2022-11-09_14h26.00.408,vts_reward_expectancy_bt_OFFLINE,2022.2.4,60.0832688402612,
0,0,1,0,0,0,0,1,hexagon,star,2,0,2,0,1,6,18,8,,,,,,,,,,,,,,,,,,,,,,,,,,,,,,,,,,,,,,,,439.11389862699434,439.11389862699434,439.11389862699434,439.11389862699434,439.11389862699434,439.11389862699434,439.11389862699434,439.11389862699434,439.11389862699434,439.11389862699434,a,2.231772306957282,10,655,2,441.36717880202923,442.86723391502164,,,,,,,,,,,,,,,,,,,,,,,,,,,,,,,,,,,,,,,,,,,,,,,,,,,,,,,,,,,,,,,,,,,,,,,11628,2022-11-09_14h26.00.408,vts_reward_expectancy_bt_OFFLINE,2022.2.4,60.0832688402612,
0,0,0,1,1,0,0,0,star,triangle,2,0,2,0,1,7,19,9,,,,,,,,,,,,,,,,,,,,,,,,,,,,,,,,,,,,,,,,443.3674473540159,443.3674473540159,443.3674473540159,443.3674473540159,443.3674473540159,443.3674473540159,443.3674473540159,443.3674473540159,443.3674473540159,443.3674473540159,l,1.5898323049768806,10,665,2,444.98441588308197,446.48530646401923,446.48530646401923,446.98535310907755,,,,,,,,,,,,,,,,,,,,,,,,,,,,,,,,,,,,,,,,,,,,,,,,,,,,,,,,,,,,,,,,,,,,,11628,2022-11-09_14h26.00.408,vts_reward_expectancy_bt_OFFLINE,2022.2.4,60.0832688402612,
0,1,0,0,0,0,0,1,circle,star,2,0,2,0,1,8,20,5,,,,,,,,,,,,,,,,,,,,,,,,,,,,,,,,,,,,,,,,446.98535310907755,446.98535310907755,446.98535310907755,446.98535310907755,446.98535310907755,446.98535310907755,446.98535310907755,446.98535310907755,446.98535310907755,446.98535310907755,a,1.1227184268645942,10,675,2,448.1377286351053,449.6382315910887,449.6382315910887,450.1381832740735,,,,,,,,,,,,,,,,,,,,,,,,,,,,,,,,,,,,,,,,,,,,,,,,,,,,,,,,,,,,,,,,,,,,,11628,2022-11-09_14h26.00.408,vts_reward_expectancy_bt_OFFLINE,2022.2.4,60.0832688402612,
1,0,0,0,0,0,1,0,triangle,hexagon,2,0,2,0,1,9,21,1,,,,,,,,,,,,,,,,,,,,,,,,,,,,,,,,,,,,,,,,450.1381832740735,450.1381832740735,450.1381832740735,450.1381832740735,450.1381832740735,450.1381832740735,450.1381832740735,450.1381832740735,450.1381832740735,450.1381832740735,a,1.8506486819824204,10,685,2,452.0042212459957,453.508131730021,,,,,,,,,,,,,,,,,,,,,,,,,,,,,,,,,,,,,,,,,,,,,,,,,,,,,,,,,,,,,,,,,,,,,,,11628,2022-11-09_14h26.00.408,vts_reward_expectancy_bt_OFFLINE,2022.2.4,60.0832688402612,
0,0,1,0,1,0,0,0,hexagon,triangle,2,0,2,0,1,10,22,6,,,,,,,,,,,,,,,,,,,,,,,,,,,,,,,,,,,,,,,,454.00809818401467,454.00809818401467,454.00809818401467,454.00809818401467,454.00809818401467,454.00809818401467,454.00809818401467,454.00809818401467,454.00809818401467,454.00809818401467,l,1.1759715769439936,10,695,2,455.20903549401555,456.70901519607287,456.70901519607287,,,,,,,,,,,,,,,,,,,,,,,,,,,,,,,,,,,,,,,,,,,,,,,,,,,,,,,,,,,,,,,,,,,,,,11628,2022-11-09_14h26.00.408,vts_reward_expectancy_bt_OFFLINE,2022.2.4,60.0832688402612,
1,0,0,0,0,0,0,1,triangle,star,2,0,2,0,1,11,23,2,,,,,,,,,,,,,,,,,,,,,,,,,,,,,,,,,,,,,,,,457.2110904850997,457.2110904850997,457.2110904850997,457.2110904850997,457.2110904850997,457.2110904850997,457.2110904850997,457.2110904850997,457.2110904850997,457.2110904850997,a,1.9109040308976546,10,705,2,459.1457250750391,460.6458932660753,460.6458932660753,461.1459839750314,,,,,,,,,,,,,,,,,,,,,,,,,,,,,,,,,,,,,,,,,,,,,,,,,,,,,,,,,,,,,,,,,,,,,11628,2022-11-09_14h26.00.408,vts_reward_expectancy_bt_OFFLINE,2022.2.4,60.0832688402612,
0,0,1,0,1,0,0,0,hexagon,triangle,2,0,2,0,2,0,24,6,,,,,,,,,,,,,,,,,,,,,,,,,,,,,,,,,,,,,,,,461.1459839750314,461.1459839750314,461.1459839750314,461.1459839750314,461.1459839750314,461.1459839750314,461.1459839750314,461.1459839750314,461.1459839750314,461.1459839750314,l,1.0021363009000197,1,706,2,462.1675982220331,463.68180644500535,,,,,,,,,,,,,,,,,,,,,,,,,,,,,,,,,,,,,,,,,,,,,,,,,,,,,,,,,,,,,,,,,,,,,,,11628,2022-11-09_14h26.00.408,vts_reward_expectancy_bt_OFFLINE,2022.2.4,60.0832688402612,
0,0,0,1,0,1,0,0,star ,circle,2,0,2,0,2,1,25,10,,,,,,,,,,,,,,,,,,,,,,,,,,,,,,,,,,,,,,,,464.18219365610275,464.18219365610275,464.18219365610275,464.18219365610275,464.18219365610275,464.18219365610275,464.18219365610275,464.18219365610275,464.18219365610275,464.18219365610275,l,1.9711589448852465,10,716,2,466.1853358390508,467.6852956970688,,,,,,,,,,,,,,,,,,,,,,,,,,,,,,,,,,,,,,,,,,,,,,,,,,,,,,,,,,,,,,,,,,,,,,,11628,2022-11-09_14h26.00.408,vts_reward_expectancy_bt_OFFLINE,2022.2.4,60.0832688402612,
0,1,0,0,1,0,0,0,circle,triangle,2,0,2,0,2,2,26,3,,,,,,,,,,,,,,,,,,,,,,,,,,,,,,,,,,,,,,,,468.1854200050002,468.1854200050002,468.1854200050002,468.1854200050002,468.1854200050002,468.1854200050002,468.1854200050002,468.1854200050002,468.1854200050002,468.1854200050002,l,2.524371479987167,10,726,2,470.7366007550154,472.2386999190785,,,,,,,,,,,,,,,,,,,,,,,,,,,,,,,,,,,,,,,,,,,,,,,,,,,,,,,,,,,,,,,,,,,,,,,11628,2022-11-09_14h26.00.408,vts_reward_expectancy_bt_OFFLINE,2022.2.4,60.0832688402612,
1,0,0,0,0,0,0,1,triangle,star,2,0,2,0,2,3,27,2,,,,,,,,,,,,,,,,,,,,,,,,,,,,,,,,,,,,,,,,472.7388789569959,472.7388789569959,472.7388789569959,472.7388789569959,472.7388789569959,472.7388789569959,472.7388789569959,472.7388789569959,472.7388789569959,472.7388789569959,a,1.3799385018646717,10,736,2,474.13968863210175,475.6399565290194,475.6399565290194,,,,,,,,,,,,,,,,,,,,,,,,,,,,,,,,,,,,,,,,,,,,,,,,,,,,,,,,,,,,,,,,,,,,,,11628,2022-11-09_14h26.00.408,vts_reward_expectancy_bt_OFFLINE,2022.2.4,60.0832688402612,
0,0,0,1,0,0,1,0,star,hexagon,2,0,2,0,2,4,28,11,,,,,,,,,,,,,,,,,,,,,,,,,,,,,,,,,,,,,,,,476.1400920870947,476.1400920870947,476.1400920870947,476.1400920870947,476.1400920870947,476.1400920870947,476.1400920870947,476.1400920870947,476.1400920870947,476.1400920870947,l,1.2975300959078595,1,737,2,477.4616270730039,478.9763363370439,,,,,,,,,,,,,,,,,,,,,,,,,,,,,,,,,,,,,,,,,,,,,,,,,,,,,,,,,,,,,,,,,,,,,,,11628,2022-11-09_14h26.00.408,vts_reward_expectancy_bt_OFFLINE,2022.2.4,60.0832688402612,
1,0,0,0,0,0,1,0,triangle,hexagon,2,0,2,0,2,5,29,1,,,,,,,,,,,,,,,,,,,,,,,,,,,,,,,,,,,,,,,,479.47659333609045,479.47659333609045,479.47659333609045,479.47659333609045,479.47659333609045,479.47659333609045,479.47659333609045,479.47659333609045,479.47659333609045,479.47659333609045,a,1.1123675350099802,1,738,2,480.6107343090698,482.1127816340886,,,,,,,,,,,,,,,,,,,,,,,,,,,,,,,,,,,,,,,,,,,,,,,,,,,,,,,,,,,,,,,,,,,,,,,11628,2022-11-09_14h26.00.408,vts_reward_expectancy_bt_OFFLINE,2022.2.4,60.0832688402612,
1,0,0,0,0,1,0,0,triangle,circle,2,0,2,0,2,6,30,0,,,,,,,,,,,,,,,,,,,,,,,,,,,,,,,,,,,,,,,,482.6127910350915,482.6127910350915,482.6127910350915,482.6127910350915,482.6127910350915,482.6127910350915,482.6127910350915,482.6127910350915,482.6127910350915,482.6127910350915,a,1.1481912669260055,10,748,2,483.78227231209166,485.2970555780921,,,,,,,,,,,,,,,,,,,,,,,,,,,,,,,,,,,,,,,,,,,,,,,,,,,,,,,,,,,,,,,,,,,,,,,11628,2022-11-09_14h26.00.408,vts_reward_expectancy_bt_OFFLINE,2022.2.4,60.0832688402612,
0,0,1,0,0,1,0,0,hexagon,circle,2,0,2,0,2,7,31,7,,,,,,,,,,,,,,,,,,,,,,,,,,,,,,,,,,,,,,,,485.7973391551059,485.7973391551059,485.7973391551059,485.7973391551059,485.7973391551059,485.7973391551059,485.7973391551059,485.7973391551059,485.7973391551059,485.7973391551059,l,2.4071223868522793,10,758,2,488.23355075810105,489.73390513600316,489.73390513600316,490.2340531980153,,,,,,,,,,,,,,,,,,,,,,,,,,,,,,,,,,,,,,,,,,,,,,,,,,,,,,,,,,,,,,,,,,,,,11628,2022-11-09_14h26.00.408,vts_reward_expectancy_bt_OFFLINE,2022.2.4,60.0832688402612,
0,0,1,0,0,0,0,1,hexagon,star,2,0,2,0,2,8,32,8,,,,,,,,,,,,,,,,,,,,,,,,,,,,,,,,,,,,,,,,490.2340531980153,490.2340531980153,490.2340531980153,490.2340531980153,490.2340531980153,490.2340531980153,490.2340531980153,490.2340531980153,490.2340531980153,490.2340531980153,a,1.5264180649537593,10,768,2,491.7853984620888,493.2870986870257,,,,,,,,,,,,,,,,,,,,,,,,,,,,,,,,,,,,,,,,,,,,,,,,,,,,,,,,,,,,,,,,,,,,,,,11628,2022-11-09_14h26.00.408,vts_reward_expectancy_bt_OFFLINE,2022.2.4,60.0832688402612,
0,1,0,0,0,0,1,0,circle,hexagon,2,0,2,0,2,9,33,4,,,,,,,,,,,,,,,,,,,,,,,,,,,,,,,,,,,,,,,,493.78707539709285,493.78707539709285,493.78707539709285,493.78707539709285,493.78707539709285,493.78707539709285,493.78707539709285,493.78707539709285,493.78707539709285,493.78707539709285,a,2.2933134319027886,10,778,2,496.10552987409756,497.6071606000187,,,,,,,,,,,,,,,,,,,,,,,,,,,,,,,,,,,,,,,,,,,,,,,,,,,,,,,,,,,,,,,,,,,,,,,11628,2022-11-09_14h26.00.408,vts_reward_expectancy_bt_OFFLINE,2022.2.4,60.0832688402612,
0,0,0,1,1,0,0,0,star,triangle,2,0,2,0,2,10,34,9,,,,,,,,,,,,,,,,,,,,,,,,,,,,,,,,,,,,,,,,498.1074386930559,498.1074386930559,498.1074386930559,498.1074386930559,498.1074386930559,498.1074386930559,498.1074386930559,498.1074386930559,498.1074386930559,498.1074386930559,l,0.8862413069000468,10,788,2,499.0249368220102,500.5247828930151,500.5247828930151,501.02487818710506,,,,,,,,,,,,,,,,,,,,,,,,,,,,,,,,,,,,,,,,,,,,,,,,,,,,,,,,,,,,,,,,,,,,,11628,2022-11-09_14h26.00.408,vts_reward_expectancy_bt_OFFLINE,2022.2.4,60.0832688402612,
0,1,0,0,0,0,0,1,circle,star,2,0,2,0,2,11,35,5,,,,,,,,,,,,,,,,,,,,,,,,,,,,,,,,,,,,,,,,501.02487818710506,501.02487818710506,501.02487818710506,501.02487818710506,501.02487818710506,501.02487818710506,501.02487818710506,501.02487818710506,501.02487818710506,501.02487818710506,a,1.1528384130215272,10,798,2,502.2105049689999,503.71118083701003,503.71118083701003,504.21118238102645,,,,,,,,,,,,,,,,,,,,,,,,,,,,,,,,,,,,,,,,,,,,,,,,,,,,,,,,,,,,,,,,,,,,,11628,2022-11-09_14h26.00.408,vts_reward_expectancy_bt_OFFLINE,2022.2.4,60.0832688402612,
1,0,0,0,0,0,0,1,triangle,star,2,0,2,0,3,0,36,2,,,,,,,,,,,,,,,,,,,,,,,,,,,,,,,,,,,,,,,,504.21118238102645,504.21118238102645,504.21118238102645,504.21118238102645,504.21118238102645,504.21118238102645,504.21118238102645,504.21118238102645,504.21118238102645,504.21118238102645,a,1.2747628439683467,1,799,2,505.51417235599365,507.0288780780975,,,,,,,,,,,,,,,,,,,,,,,,,,,,,,,,,,,,,,,,,,,,,,,,,,,,,,,,,,,,,,,,,,,,,,,11628,2022-11-09_14h26.00.408,vts_reward_expectancy_bt_OFFLINE,2022.2.4,60.0832688402612,
0,1,0,0,1,0,0,0,circle,triangle,2,0,2,0,3,1,37,3,,,,,,,,,,,,,,,,,,,,,,,,,,,,,,,,,,,,,,,,507.5142726460472,507.5142726460472,507.5142726460472,507.5142726460472,507.5142726460472,507.5142726460472,507.5142726460472,507.5142726460472,507.5142726460472,507.5142726460472,l,1.0659765219315886,1,800,2,508.59860727004707,510.0985238360008,510.0985238360008,510.5987615970662,,,,,,,,,,,,,,,,,,,,,,,,,,,,,,,,,,,,,,,,,,,,,,,,,,,,,,,,,,,,,,,,,,,,,11628,2022-11-09_14h26.00.408,vts_reward_expectancy_bt_OFFLINE,2022.2.4,60.0832688402612,
0,0,1,0,0,0,0,1,hexagon,star,2,0,2,0,3,2,38,8,,,,,,,,,,,,,,,,,,,,,,,,,,,,,,,,,,,,,,,,510.5987615970662,510.5987615970662,510.5987615970662,510.5987615970662,510.5987615970662,510.5987615970662,510.5987615970662,510.5987615970662,510.5987615970662,510.5987615970662,a,1.760594307910651,10,810,2,512.3995655770414,513.9019131991081,,,,,,,,,,,,,,,,,,,,,,,,,,,,,,,,,,,,,,,,,,,,,,,,,,,,,,,,,,,,,,,,,,,,,,,11628,2022-11-09_14h26.00.408,vts_reward_expectancy_bt_OFFLINE,2022.2.4,60.0832688402612,
0,0,0,1,0,1,0,0,star ,circle,2,0,2,0,3,3,39,10,,,,,,,,,,,,,,,,,,,,,,,,,,,,,,,,,,,,,,,,514.4019607140217,514.4019607140217,514.4019607140217,514.4019607140217,514.4019607140217,514.4019607140217,514.4019607140217,514.4019607140217,514.4019607140217,514.4019607140217,l,1.4122462739469483,1,811,2,515.8383642430417,517.3382300999947,,,,,,,,,,,,,,,,,,,,,,,,,,,,,,,,,,,,,,,,,,,,,,,,,,,,,,,,,,,,,,,,,,,,,,,11628,2022-11-09_14h26.00.408,vts_reward_expectancy_bt_OFFLINE,2022.2.4,60.0832688402612,
0,0,1,0,1,0,0,0,hexagon,triangle,2,0,2,0,3,4,40,6,,,,,,,,,,,,,,,,,,,,,,,,,,,,,,,,,,,,,,,,517.8382994750282,517.8382994750282,517.8382994750282,517.8382994750282,517.8382994750282,517.8382994750282,517.8382994750282,517.8382994750282,517.8382994750282,517.8382994750282,a,1.4741054530022666,10,821,2,519.3413196241017,520.856139455107,,,,,,,,,,,,,,,,,,,,,,,,,,,,,,,,,,,,,,,,,,,,,,,,,,,,,,,,,,,,,,,,,,,,,,,11628,2022-11-09_14h26.00.408,vts_reward_expectancy_bt_OFFLINE,2022.2.4,60.0832688402612,
0,1,0,0,0,0,1,0,circle,hexagon,2,0,2,0,3,5,41,4,,,,,,,,,,,,,,,,,,,,,,,,,,,,,,,,,,,,,,,,521.3562803000677,521.3562803000677,521.3562803000677,521.3562803000677,521.3562803000677,521.3562803000677,521.3562803000677,521.3562803000677,521.3562803000677,521.3562803000677,a,2.0514968319330364,1,822,2,523.4280699610244,524.942588667036,,,,,,,,,,,,,,,,,,,,,,,,,,,,,,,,,,,,,,,,,,,,,,,,,,,,,,,,,,,,,,,,,,,,,,,11628,2022-11-09_14h26.00.408,vts_reward_expectancy_bt_OFFLINE,2022.2.4,60.0832688402612,
0,1,0,0,0,0,0,1,circle,star,2,0,2,0,3,6,42,5,,,,,,,,,,,,,,,,,,,,,,,,,,,,,,,,,,,,,,,,525.4429442770779,525.4429442770779,525.4429442770779,525.4429442770779,525.4429442770779,525.4429442770779,525.4429442770779,525.4429442770779,525.4429442770779,525.4429442770779,a,0.6318654998904094,10,832,2,526.1080721330363,527.5955196220893,,,,,,,,,,,,,,,,,,,,,,,,,,,,,,,,,,,,,,,,,,,,,,,,,,,,,,,,,,,,,,,,,,,,,,,11628,2022-11-09_14h26.00.408,vts_reward_expectancy_bt_OFFLINE,2022.2.4,60.0832688402612,
0,0,0,1,1,0,0,0,star,triangle,2,0,2,0,3,7,43,9,,,,,,,,,,,,,,,,,,,,,,,,,,,,,,,,,,,,,,,,528.0956630459987,528.0956630459987,528.0956630459987,528.0956630459987,528.0956630459987,528.0956630459987,528.0956630459987,528.0956630459987,528.0956630459987,528.0956630459987,a,2.1639069558586925,10,842,2,530.280710007064,531.7804922560463,531.7804922560463,,,,,,,,,,,,,,,,,,,,,,,,,,,,,,,,,,,,,,,,,,,,,,,,,,,,,,,,,,,,,,,,,,,,,,11628,2022-11-09_14h26.00.408,vts_reward_expectancy_bt_OFFLINE,2022.2.4,60.0832688402612,
0,0,0,1,0,0,1,0,star,hexagon,2,0,2,0,3,8,44,11,,,,,,,,,,,,,,,,,,,,,,,,,,,,,,,,,,,,,,,,532.2825249769958,532.2825249769958,532.2825249769958,532.2825249769958,532.2825249769958,532.2825249769958,532.2825249769958,532.2825249769958,532.2825249769958,532.2825249769958,l,3.36534405592829,1,843,2,535.6820919230813,537.1691559100291,,,,,,,,,,,,,,,,,,,,,,,,,,,,,,,,,,,,,,,,,,,,,,,,,,,,,,,,,,,,,,,,,,,,,,,11628,2022-11-09_14h26.00.408,vts_reward_expectancy_bt_OFFLINE,2022.2.4,60.0832688402612,
1,0,0,0,0,1,0,0,triangle,circle,2,0,2,0,3,9,45,0,,,,,,,,,,,,,,,,,,,,,,,,,,,,,,,,,,,,,,,,537.669596457039,537.669596457039,537.669596457039,537.669596457039,537.669596457039,537.669596457039,537.669596457039,537.669596457039,537.669596457039,537.669596457039,l,1.6464397759409621,1,844,2,539.3377041470958,540.8372326510726,540.8372326510726,541.3374911160208,,,,,,,,,,,,,,,,,,,,,,,,,,,,,,,,,,,,,,,,,,,,,,,,,,,,,,,,,,,,,,,,,,,,,11628,2022-11-09_14h26.00.408,vts_reward_expectancy_bt_OFFLINE,2022.2.4,60.0832688402612,
0,0,1,0,0,1,0,0,hexagon,circle,2,0,2,0,3,10,46,7,,,,,,,,,,,,,,,,,,,,,,,,,,,,,,,,,,,,,,,,541.3374911160208,541.3374911160208,541.3374911160208,541.3374911160208,541.3374911160208,541.3374911160208,541.3374911160208,541.3374911160208,541.3374911160208,541.3374911160208,a,0.723481519962661,1,845,2,542.0840079600457,543.5901113200234,,,,,,,,,,,,,,,,,,,,,,,,,,,,,,,,,,,,,,,,,,,,,,,,,,,,,,,,,,,,,,,,,,,,,,,11628,2022-11-09_14h26.00.408,vts_reward_expectancy_bt_OFFLINE,2022.2.4,60.0832688402612,
1,0,0,0,0,0,1,0,triangle,hexagon,2,0,2,0,3,11,47,1,,,,,,,,,,,,,,,,,,,,,,,,,,,,,,,,,,,,,,,,544.090293231071,544.090293231071,544.090293231071,544.090293231071,544.090293231071,544.090293231071,544.090293231071,544.090293231071,544.090293231071,544.090293231071,a,1.15555129700806,10,855,2,545.2768691350939,546.7911676100921,,,,,,,,,,,,,,,,,,,,,,,,,,,,,,,,,,,,,,,,,,,,,,,,,,,,,,,,,,,,,,,,,,,,,,,11628,2022-11-09_14h26.00.408,vts_reward_expectancy_bt_OFFLINE,2022.2.4,60.0832688402612,
,,,,,,,,,,,,,,,,,,0,0,0,0,0,0,0,0,,,,,,,,,,,,,,,,,,,,,,,,,,,,,,,,,,,,,,,,,,,,,,,,579.7996031820076,,,W,174,hexagon,0.0020362320356070995,574.092119598994,575.5793566140346,575.5793566140346,575.5793566140346,1,0,f,2.6859009609324858,0,578.2854690070963,,,,,,,,,,,,,,,,,,,,,,,,,,,,,,,,,,,,,,,,,,,,,,,,,,,,,,,11628,2022-11-09_14h26.00.408,vts_reward_expectancy_bt_OFFLINE,2022.2.4,60.0832688402612,
,,,,,,,,,,,,,,,,,,0,0,0,0,1,0,1,0,,,,,,,,,,,,,,,,,,,,,,,,,,,,,,,,,,,,,,,,,,,,,,,,584.6197238290915,,585.1199585010763,H,125,triangle,0.016679299995303154,580.7962593300035,582.2689019580139,582.2689019580139,582.2689019580139,1,0,d,0.8228499050019309,0,583.1198383070296,584.6197238290915,,,,,,,,,,,,,,,,,,,,,,,,,,,,,,,,,,,,,,,,,,,,,,,,,,,,,,11628,2022-11-09_14h26.00.408,vts_reward_expectancy_bt_OFFLINE,2022.2.4,60.0832688402612,
,,,,,,,,,,,,,,,,,,0,0,0,0,2,0,2,0,,,,,,,,,,,,,,,,,,,,,,,,,,,,,,,,,,,,,,,,,,,,,,,,589.5397841540398,,,B,146,star,0.0003497709985822439,585.6165083500091,587.101559184026,587.101559184026,587.101559184026,1,0,d,0.9182808469049633,0,588.0399059189949,589.5397841540398,,,,,,,,,,,,,,,,,,,,,,,,,,,,,,,,,,,,,,,,,,,,,,,,,,,,,,11628,2022-11-09_14h26.00.408,vts_reward_expectancy_bt_OFFLINE,2022.2.4,60.0832688402612,
,,,,,,,,,,,,,,,,,,0,0,0,0,3,0,3,0,,,,,,,,,,,,,,,,,,,,,,,,,,,,,,,,,,,,,,,,,,,,,,,,594.4101364610251,,594.9103036980378,U,181,circle,0.0003294750349596143,590.5365518610924,592.0240904890234,592.0240904890234,592.0240904890234,1,0,f,0.8561519258655608,0,592.9102918870049,594.4101364610251,,,,,,,,,,,,,,,,,,,,,,,,,,,,,,,,,,,,,,,,,,,,,,,,,,,,,,11628,2022-11-09_14h26.00.408,vts_reward_expectancy_bt_OFFLINE,2022.2.4,60.0832688402612,
,,,,,,,,,,,,,,,,,,0,0,0,0,4,0,4,0,,,,,,,,,,,,,,,,,,,,,,,,,,,,,,,,,,,,,,,,,,,,,,,,599.3472619340755,,,F,132,star,0.0005000319797545671,595.4062230340205,596.8944366140058,596.8944366140058,596.8944366140058,1,0,d,0.9253781859297305,0,597.8473572110524,599.3472619340755,,,,,,,,,,,,,,,,,,,,,,,,,,,,,,,,,,,,,,,,,,,,,,,,,,,,,,11628,2022-11-09_14h26.00.408,vts_reward_expectancy_bt_OFFLINE,2022.2.4,60.0832688402612,
,,,,,,,,,,,,,,,,,,0,0,0,0,5,0,5,0,,,,,,,,,,,,,,,,,,,,,,,,,,,,,,,,,,,,,,,,,,,,,,,,604.2506647780538,,604.7510055850726,D,167,triangle,0.0003271809546276927,600.3433701460017,601.8313419530168,601.8313419530168,601.8313419530168,1,0,d,0.8930224529467523,0,602.7509691400919,604.2506647780538,,,,,,,,,,,,,,,,,,,,,,,,,,,,,,,,,,,,,,,,,,,,,,,,,,,,,,11628,2022-11-09_14h26.00.408,vts_reward_expectancy_bt_OFFLINE,2022.2.4,60.0832688402612,
,,,,,,,,,,,,,,,,,,0,0,0,0,6,0,6,0,,,,,,,,,,,,,,,,,,,,,,,,,,,,,,,,,,,,,,,,,,,,,,,,609.1043532700278,,609.6045879489975,S,139,circle,0.0005906190490350127,605.2474889589939,606.734970617108,606.734970617108,606.734970617108,1,0,f,0.849976239958778,0,607.6043310820824,609.1043532700278,,,,,,,,,,,,,,,,,,,,,,,,,,,,,,,,,,,,,,,,,,,,,,,,,,,,,,11628,2022-11-09_14h26.00.408,vts_reward_expectancy_bt_OFFLINE,2022.2.4,60.0832688402612,
,,,,,,,,,,,,,,,,,,0,0,0,0,7,0,7,0,,,,,,,,,,,,,,,,,,,,,,,,,,,,,,,,,,,,,,,,,,,,,,,,613.8747080280446,,614.374829776003,Y,160,hexagon,0.0006013440433889627,610.1006327370415,611.5884883881081,611.5884883881081,611.5884883881081,1,0,f,0.7666664390126243,0,612.375104734092,613.8747080280446,,,,,,,,,,,,,,,,,,,,,,,,,,,,,,,,,,,,,,,,,,,,,,,,,,,,,,11628,2022-11-09_14h26.00.408,vts_reward_expectancy_bt_OFFLINE,2022.2.4,60.0832688402612,
,,,,,,,,,,,,,,,,,,0,0,0,0,8,0,8,0,,,,,,,,,,,,,,,,,,,,,,,,,,,,,,,,,,,,,,,,,,,,,,,,619.3285200491082,,619.8284815110965,W,174,circle,0.000539925997145474,614.8704609640408,616.3587296090554,616.3587296090554,616.3587296090554,1,0,f,1.4416498399805278,0,617.828499085037,,,,,,,,,,,,,,,,,,,,,,,,,,,,,,,,,,,,,,,,,,,,,,,,,,,,,,,11628,2022-11-09_14h26.00.408,vts_reward_expectancy_bt_OFFLINE,2022.2.4,60.0832688402612,
,,,,,,,,,,,,,,,,,,0,0,0,0,9,0,9,0,,,,,,,,,,,,,,,,,,,,,,,,,,,,,,,,,,,,,,,,,,,,,,,,624.1150903420057,,624.6260965639958,H,125,triangle,0.0004684240557253361,620.324334589066,621.8125247930875,621.8125247930875,621.8125247930875,1,0,d,0.7801463189534843,0,622.6153589210007,624.1150903420057,,,,,,,,,,,,,,,,,,,,,,,,,,,,,,,,,,,,,,,,,,,,,,,,,,,,,,11628,2022-11-09_14h26.00.408,vts_reward_expectancy_bt_OFFLINE,2022.2.4,60.0832688402612,
,,,,,,,,,,,,,,,,,,,,,,,,,,0,0,0,0,0,0,0,0,,,,,,,,,,,,,,,,,,,,,,,,,,,,,,,,,,,,,,,,640.8435561381048,,641.3437115760753,F,181,star,0.0010136700002476573,,,,,1,0,,,1,639.3437492310768,640.8435561381048,636.5531850240659,638.042364453082,638.042364453082,638.042364453082,k,1.2692202929174528,,,,,,,,,,,,,,,,,,,,,,,,,,,,,,,,,,,,,,,,,,,,,,,,11628,2022-11-09_14h26.00.408,vts_reward_expectancy_bt_OFFLINE,2022.2.4,60.0832688402612,
,,,,,,,,,,,,,,,,,,,,,,,,,,0,0,0,0,1,0,1,0,,,,,,,,,,,,,,,,,,,,,,,,,,,,,,,,,,,,,,,,645.9471113519976,,646.4472094430821,U,160,triangle,0.0005546089960262179,,,,,1,0,,,1,644.447606952046,645.9471113519976,641.840016419068,643.3295777250314,643.3295777250314,643.3295777250314,k,1.0892818028805777,,,,,,,,,,,,,,,,,,,,,,,,,,,,,,,,,,,,,,,,,,,,,,,,11628,2022-11-09_14h26.00.408,vts_reward_expectancy_bt_OFFLINE,2022.2.4,60.0832688402612,
,,,,,,,,,,,,,,,,,,,,,,,,,,0,0,0,0,2,0,2,0,,,,,,,,,,,,,,,,,,,,,,,,,,,,,,,,,,,,,,,,651.0509265740402,,651.550751300063,W,139,circle,0.0002545110182836652,,,,,1,0,,,1,649.5513596110977,651.0509265740402,646.9433095280547,648.4329753740458,648.4329753740458,648.4329753740458,j,1.0942853118758649,,,,,,,,,,,,,,,,,,,,,,,,,,,,,,,,,,,,,,,,,,,,,,,,11628,2022-11-09_14h26.00.408,vts_reward_expectancy_bt_OFFLINE,2022.2.4,60.0832688402612,
,,,,,,,,,,,,,,,,,,,,,,,,,,0,0,0,0,3,0,3,0,,,,,,,,,,,,,,,,,,,,,,,,,,,,,,,,,,,,,,,,656.0209914731095,,656.5212225960568,S,146,hexagon,0.000389456981793046,,,,,1,0,,,1,654.5219085610006,656.0209914731095,652.0471874350915,653.5366089430172,653.5366089430172,653.5366089430172,j,0.9634438878856599,,,,,,,,,,,,,,,,,,,,,,,,,,,,,,,,,,,,,,,,,,,,,,,,11628,2022-11-09_14h26.00.408,vts_reward_expectancy_bt_OFFLINE,2022.2.4,60.0832688402612,
,,,,,,,,,,,,,,,,,,,,,,,,,,0,0,0,0,4,0,4,0,,,,,,,,,,,,,,,,,,,,,,,,,,,,,,,,,,,,,,,,660.8247539550066,,661.3248237720691,H,125,hexagon,0.0004477159818634391,,,,,1,0,,,1,659.3240982990246,660.8247539550066,657.0179853680311,658.5071726751048,658.5071726751048,658.5071726751048,j,0.784824478905648,,,,,,,,,,,,,,,,,,,,,,,,,,,,,,,,,,,,,,,,,,,,,,,,11628,2022-11-09_14h26.00.408,vts_reward_expectancy_bt_OFFLINE,2022.2.4,60.0832688402612,
,,,,,,,,,,,,,,,,,,,,,,,,,,0,0,0,0,5,0,5,0,,,,,,,,,,,,,,,,,,,,,,,,,,,,,,,,,,,,,,,,666.9453541240655,,,Y,167,circle,-0.00062310800421983,,,,,1,0,,,1,665.4459015680477,666.9453541240655,661.8329202140449,663.3105561580742,663.3105561580742,663.3105561580742,k,2.1138993699569255,,,,,,,,,,,,,,,,,,,,,,,,,,,,,,,,,,,,,,,,,,,,,,,,11628,2022-11-09_14h26.00.408,vts_reward_expectancy_bt_OFFLINE,2022.2.4,60.0832688402612,
,,,,,,,,,,,,,,,,,,,,,,,,,,0,0,0,0,6,0,6,0,,,,,,,,,,,,,,,,,,,,,,,,,,,,,,,,,,,,,,,,671.6989507121034,,,B,174,triangle,0.0020151499193161726,,,,,1,0,,,1,670.1996113320347,671.6989507121034,667.942672581994,669.4316086450126,669.4316086450126,669.4316086450126,k,0.7397110050078481,,,,,,,,,,,,,,,,,,,,,,,,,,,,,,,,,,,,,,,,,,,,,,,,11628,2022-11-09_14h26.00.408,vts_reward_expectancy_bt_OFFLINE,2022.2.4,60.0832688402612,
,,,,,,,,,,,,,,,,,,,,,,,,,,0,0,0,0,7,0,7,0,,,,,,,,,,,,,,,,,,,,,,,,,,,,,,,,,,,,,,,,676.5859067300335,,677.0859915980836,D,132,star,0.0050872210413217545,,,,,1,0,,,1,675.086396439001,676.5859067300335,672.6977014170261,674.1851025670767,674.1851025670767,674.1851025670767,j,0.88025346188806,,,,,,,,,,,,,,,,,,,,,,,,,,,,,,,,,,,,,,,,,,,,,,,,11628,2022-11-09_14h26.00.408,vts_reward_expectancy_bt_OFFLINE,2022.2.4,60.0832688402612,
,,,,,,,,,,,,,,,,,,,,,,,,,,0,0,0,0,8,0,8,0,,,,,,,,,,,,,,,,,,,,,,,,,,,,,,,,,,,,,,,,681.4393235350726,,681.939576852019,F,181,triangle,0.0002493319334462285,,,,,1,0,,,1,679.9399849640904,681.4393235350726,677.5816304030595,679.0720657600323,679.0720657600323,679.0720657600323,k,0.8424150149803609,,,,,,,,,,,,,,,,,,,,,,,,,,,,,,,,,,,,,,,,,,,,,,,,11628,2022-11-09_14h26.00.408,vts_reward_expectancy_bt_OFFLINE,2022.2.4,60.0832688402612,
,,,,,,,,,,,,,,,,,,,,,,,,,,0,0,0,0,9,0,9,0,,,,,,,,,,,,,,,,,,,,,,,,,,,,,,,,,,,,,,,,686.7931527961046,,,U,160,star,0.0004755530972033739,,,,,1,0,,,1,685.2936109740986,686.7931527961046,682.4358629870694,683.9255164019996,683.9255164019996,683.9255164019996,k,1.3442379898624495,,,,,,,,,,,,,,,,,,,,,,,,,,,,,,,,,,,,,,,,,,,,,,,,11628,2022-11-09_14h26.00.408,vts_reward_expectancy_bt_OFFLINE,2022.2.4,60.0832688402612,
,,,,,,,,,,,,,,,,,,,,,,,,,,,,,,,,,,0,0,0,0,0,0,0,0,,,,,,,,,,,,,,,,,,,,,,,,,,,,0,855,,,734.1952254460193,,,H,174,star,0.0024786549620330334,,,,,-1,0,,,2,,,,,,,,,728.1878550410038,728.1878550410038,728.1878550410038,728.1878550410038,729.6751422530506,729.6751422530506,729.6751422530506,729.6751422530506,729.6918934150599,729.6918934150599,729.6918934150599,729.6918934150599,732.681421342073,732.681421342073,732.681421342073,732.681421342073,-1,no_choice,NA,None,vtsPrac,732.681421342073,,,,,,,,,,,,,,,,,,,,,,,,,,11628,2022-11-09_14h26.00.408,vts_reward_expectancy_bt_OFFLINE,2022.2.4,60.0832688402612,
,,,,,,,,,,,,,,,,,,,,,,,,,,,,,,,,,,0,0,0,0,1,0,1,0,,,,,,,,,,,,,,,,,,,,,,,,,,,,0,855,,,739.1323182689957,,,U,160,triangle,0.006775110028684139,,,,,1,0,,,2,,,,,,,,,735.1921519580064,735.1921519580064,735.1921519580064,735.1921519580064,736.6796424480854,736.6796424480854,736.6796424480854,736.6796424480854,736.6960050790804,736.6960050790804,736.6960050790804,736.6960050790804,,,,,switch,letter,lettSwt,f,vtsPrac,737.6184272250393,0.9161679348908365,,,,,,,,,,,,,,,,,,,,,,,,,11628,2022-11-09_14h26.00.408,vts_reward_expectancy_bt_OFFLINE,2022.2.4,60.0832688402612,
,,,,,,,,,,,,,,,,,,,,,,,,,,,,,,,,,,0,0,0,0,2,0,2,0,,,,,,,,,,,,,,,,,,,,,,,,,,,,0,855,,,743.9190788490232,,744.4191587350797,Y,167,star,0.016773635987192392,,,,,1,0,,,2,,,,,,,,,740.128714638995,740.128714638995,740.128714638995,740.128714638995,741.5999609620776,741.5999609620776,741.5999609620776,741.5999609620776,741.6330037839944,741.6330037839944,741.6330037839944,741.6330037839944,,,,,repeat,letter,lettRpt,f,vtsPrac,742.4198275380768,0.7888991539366543,743.9190788490232,,,,,,,,,,,,,,,,,,,,,,,,11628,2022-11-09_14h26.00.408,vts_reward_expectancy_bt_OFFLINE,2022.2.4,60.0832688402612,
,,,,,,,,,,,,,,,,,,,,,,,,,,,,,,,,,,0,0,0,0,3,0,3,0,,,,,,,,,,,,,,,,,,,,,,,,,,,,0,855,,,748.8729414230911,,,D,125,circle,0.0005825699772685766,,,,,1,0,,,2,,,,,,,,,744.9160641049966,744.9160641049966,744.9160641049966,744.9160641049966,746.4032851440134,746.4032851440134,746.4032851440134,746.4032851440134,746.4199742950732,746.4199742950732,746.4199742950732,746.4199742950732,,,,,switch,number,numSwt,j,vtsPrac,747.3572900600266,0.9355658089043573,,,,,,,,,,,,,,,,,,,,,,,,,11628,2022-11-09_14h26.00.408,vts_reward_expectancy_bt_OFFLINE,2022.2.4,60.0832688402612,
,,,,,,,,,,,,,,,,,,,,,,,,,,,,,,,,,,0,0,0,0,4,0,4,0,,,,,,,,,,,,,,,,,,,,,,,,,,,,0,855,,,753.6095408140682,,,H,174,circle,0.01640039193443954,,,,,1,0,,,2,,,,,,,,,749.8689089560648,749.8689089560648,749.8689089560648,749.8689089560648,751.3403733650921,751.3403733650921,751.3403733650921,751.3403733650921,751.3736526950961,751.3736526950961,751.3736526950961,751.3736526950961,,,,,switch,letter,lettSwt,d,vtsPrac,752.1084977100836,0.746840514941141,,,,,,,,,,,,,,,,,,,,,,,,,11628,2022-11-09_14h26.00.408,vts_reward_expectancy_bt_OFFLINE,2022.2.4,60.0832688402612,
,,,,,,,,,,,,,,,,,,,,,,,,,,,,,,,,,,0,0,0,0,5,0,5,0,,,,,,,,,,,,,,,,,,,,,,,,,,,,0,855,,,758.8131375249941,,759.3134779590182,U,160,hexagon,0.0016586179845035076,,,,,1,0,,,2,,,,,,,,,754.6056132920785,754.6056132920785,754.6056132920785,754.6056132920785,756.093772193999,756.093772193999,756.093772193999,756.093772193999,756.1106937261065,756.1106937261065,756.1106937261065,756.1106937261065,,,,,switch,number,numSwt,k,vtsPrac,757.3140963950427,1.2017913439776748,758.8131375249941,,,,,,,,,,,,,,,,,,,,,,,,11628,2022-11-09_14h26.00.408,vts_reward_expectancy_bt_OFFLINE,2022.2.4,60.0832688402612,
,,,,,,,,,,,,,,,,,,,,,,,,,,,,,,,,,,0,0,0,0,6,0,6,0,,,,,,,,,,,,,,,,,,,,,,,,,,,,0,855,,,763.6335174560081,,,Y,167,hexagon,0.0006194809684529901,,,,,1,0,,,2,,,,,,,,,759.809493904002,759.809493904002,759.809493904002,759.809493904002,761.2975459380541,761.2975459380541,761.2975459380541,761.2975459380541,761.3142071560724,761.3142071560724,761.3142071560724,761.3142071560724,,,,,repeat,number,numRpt,k,vtsPrac,762.1324185840786,0.8145218059653416,,,,,,,,,,,,,,,,,,,,,,,,,11628,2022-11-09_14h26.00.408,vts_reward_expectancy_bt_OFFLINE,2022.2.4,60.0832688402612,
,,,,,,,,,,,,,,,,,,,,,,,,,,,,,,,,,,0,0,0,0,7,0,7,0,,,,,,,,,,,,,,,,,,,,,,,,,,,,0,855,,,768.5038434490561,,,D,125,star,0.0019399699522182345,,,,,1,0,,,2,,,,,,,,,764.6292180900928,764.6292180900928,764.6292180900928,764.6292180900928,766.1178478390211,766.1178478390211,766.1178478390211,766.1178478390211,766.1343483420787,766.1343483420787,766.1343483420787,766.1343483420787,,,,,repeat,number,numRpt,j,vtsPrac,767.0027208140818,0.865516887861304,,,,,,,,,,,,,,,,,,,,,,,,,11628,2022-11-09_14h26.00.408,vts_reward_expectancy_bt_OFFLINE,2022.2.4,60.0832688402612,
,,,,,,,,,,,,,,,,,,,,,,,,,,,,,,,,,,0,0,0,0,8,0,8,0,,,,,,,,,,,,,,,,,,,,,,,,,,,,0,855,,,773.9075607140549,,,F,146,star,0.00206089299172163,,,,,1,0,,,2,,,,,,,,,769.5000981100602,769.5000981100602,769.5000981100602,769.5000981100602,770.9880425320007,770.9880425320007,770.9880425320007,770.9880425320007,771.0045567339985,771.0045567339985,771.0045567339985,771.0045567339985,,,,,switch,letter,lettSwt,d,vtsPrac,772.3921196840238,1.383560313959606,,,,,,,,,,,,,,,,,,,,,,,,,11628,2022-11-09_14h26.00.408,vts_reward_expectancy_bt_OFFLINE,2022.2.4,60.0832688402612,
,,,,,,,,,,,,,,,,,,,,,,,,,,,,,,,,,,0,0,0,0,9,0,9,0,,,,,,,,,,,,,,,,,,,,,,,,,,,,0,855,,,778.4777135960758,,,Y,160,circle,0.016625526011921465,,,,,1,0,,,2,,,,,,,,,774.9036028460832,774.9036028460832,774.9036028460832,774.9036028460832,776.375279488042,776.375279488042,776.375279488042,776.375279488042,776.4084811190842,776.4084811190842,776.4084811190842,776.4084811190842,,,,,repeat,letter,lettRpt,f,vtsPrac,776.9767098780721,0.5754870089003816,,,,,,,,,,,,,,,,,,,,,,,,,11628,2022-11-09_14h26.00.408,vts_reward_expectancy_bt_OFFLINE,2022.2.4,60.0832688402612,
,,,,,,,,,,,,,,,,,,,,,,,,,,,,,,,,,,0,0,0,0,10,0,10,0,,,,,,,,,,,,,,,,,,,,,,,,,,,,0,855,,,783.8482674020343,,784.3482748940587,U,125,circle,0.002322101965546608,,,,,1,0,,,2,,,,,,,,,779.473649101099,779.473649101099,779.473649101099,779.473649101099,780.9620025150944,780.9620025150944,780.9620025150944,780.9620025150944,780.9787756140577,780.9787756140577,780.9787756140577,780.9787756140577,,,,,switch,number,numSwt,j,vtsPrac,782.3491073970217,1.3549299339065328,783.8482674020343,,,,,,,,,,,,,,,,,,,,,,,,11628,2022-11-09_14h26.00.408,vts_reward_expectancy_bt_OFFLINE,2022.2.4,60.0832688402612,
,,,,,,,,,,,,,,,,,,,,,,,,,,,,,,,,,,0,0,0,0,11,0,11,0,,,,,,,,,,,,,,,,,,,,,,,,,,,,0,855,,,788.7351122041,,,W,139,star,0.0005548510234802961,,,,,1,0,,,2,,,,,,,,,784.8452470060438,784.8452470060438,784.8452470060438,784.8452470060438,786.3323233460542,786.3323233460542,786.3323233460542,786.3323233460542,786.3490291810594,786.3490291810594,786.3490291810594,786.3490291810594,,,,,switch,letter,lettSwt,f,vtsPrac,787.2324240850285,0.8684676579432562,788.7351122041,,,,,,,,,,,,,,,,,,,,,,,,11628,2022-11-09_14h26.00.408,vts_reward_expectancy_bt_OFFLINE,2022.2.4,60.0832688402612,
,,,,,,,,,,,,,,,,,,,,,,,,,,,,,,,,,,0,0,0,0,12,0,12,0,,,,,,,,,,,,,,,,,,,,,,,,,,,,0,855,,,793.8053662570892,,,B,146,circle,0.0007002470083534718,,,,,1,0,,,2,,,,,,,,,789.7313681259984,789.7313681259984,789.7313681259984,789.7313681259984,791.2193087030901,791.2193087030901,791.2193087030901,791.2193087030901,791.2361039840616,791.2361039840616,791.2361039840616,791.2361039840616,,,,,repeat,letter,lettRpt,d,vtsPrac,792.2912795180455,1.0548693968448788,,,,,,,,,,,,,,,,,,,,,,,,,11628,2022-11-09_14h26.00.408,vts_reward_expectancy_bt_OFFLINE,2022.2.4,60.0832688402612,
,,,,,,,,,,,,,,,,,,,,,,,,,,,,,,,,,,0,0,0,0,13,0,13,0,,,,,,,,,,,,,,,,,,,,,,,,,,,,0,855,,,799.7594586270861,,800.2595173621085,D,174,star,0.013559230021201074,,,,,1,0,,,2,,,,,,,,,794.8015545990784,794.8015545990784,794.8015545990784,794.8015545990784,796.2897106060991,796.2897106060991,796.2897106060991,796.2897106060991,796.3062963630073,796.3062963630073,796.3062963630073,796.3062963630073,,,,,repeat,letter,lettRpt,d,vtsPrac,798.2603032900952,1.9478829398285598,799.7594586270861,,,,,,,,,,,,,,,,,,,,,,,,11628,2022-11-09_14h26.00.408,vts_reward_expectancy_bt_OFFLINE,2022.2.4,60.0832688402612,
,,,,,,,,,,,,,,,,,,,,,,,,,,,,,,,,,,0,0,0,0,14,0,14,0,,,,,,,,,,,,,,,,,,,,,,,,,,,,0,855,,,804.6964622960659,,805.1965990870958,U,160,hexagon,0.0003406200557947159,,,,,1,0,,,2,,,,,,,,,800.7557240671013,800.7557240671013,800.7557240671013,800.7557240671013,802.2435214550933,802.2435214550933,802.2435214550933,802.2435214550933,802.258122945088,802.258122945088,802.258122945088,802.258122945088,,,,,switch,number,numSwt,k,vtsPrac,803.1970688879956,0.93288185284473,804.6964622960659,,,,,,,,,,,,,,,,,,,,,,,,11628,2022-11-09_14h26.00.408,vts_reward_expectancy_bt_OFFLINE,2022.2.4,60.0832688402612,
,,,,,,,,,,,,,,,,,,,,,,,,,,,,,,,,,,0,0,0,0,15,0,15,0,,,,,,,,,,,,,,,,,,,,,,,,,,,,0,855,,,809.583326573018,,810.0831930669956,H,167,triangle,0.0004168370505794883,,,,,1,0,,,2,,,,,,,,,805.6927774020005,805.6927774020005,805.6927774020005,805.6927774020005,807.180202996009,807.180202996009,807.180202996009,807.180202996009,807.1969759680796,807.1969759680796,807.1969759680796,807.1969759680796,,,,,repeat,number,numRpt,k,vtsPrac,808.0841543111019,0.8790212809108198,809.583326573018,,,,,,,,,,,,,,,,,,,,,,,,11628,2022-11-09_14h26.00.408,vts_reward_expectancy_bt_OFFLINE,2022.2.4,60.0832688402612,
,,,,,,,,,,,,,,,,,,,,,,,,,,,,,,,,,,0,0,0,0,16,0,16,0,,,,,,,,,,,,,,,,,,,,,,,,,,,,0,855,,,814.8872037020046,,815.3871815761086,U,160,hexagon,0.0004980899393558502,,,,,1,0,,,2,,,,,,,,,810.57953335403,810.57953335403,810.57953335403,810.57953335403,812.0675247560721,812.0675247560721,812.0675247560721,812.0675247560721,812.0843194610206,812.0843194610206,812.0843194610206,812.0843194610206,,,,,repeat,number,numRpt,k,vtsPrac,813.3879195640329,1.3012455590069294,814.8872037020046,,,,,,,,,,,,,,,,,,,,,,,,11628,2022-11-09_14h26.00.408,vts_reward_expectancy_bt_OFFLINE,2022.2.4,60.0832688402612,
,,,,,,,,,,,,,,,,,,,,,,,,,,,,,,,,,,0,0,0,0,17,0,17,0,,,,,,,,,,,,,,,,,,,,,,,,,,,,0,855,,,819.7406104940455,,,B,146,star,0.0006057239370420575,,,,,1,0,,,2,,,,,,,,,815.8835120620206,815.8835120620206,815.8835120620206,815.8835120620206,817.3730667610653,817.3730667610653,817.3730667610653,817.3730667610653,817.3896913500503,817.3896913500503,817.3896913500503,817.3896913500503,,,,,switch,letter,lettSwt,d,vtsPrac,818.2255006380146,0.8339618889149278,,,,,,,,,,,,,,,,,,,,,,,,,11628,2022-11-09_14h26.00.408,vts_reward_expectancy_bt_OFFLINE,2022.2.4,60.0832688402612,
,,,,,,,,,,,,,,,,,,,,,,,,,,,,,,,,,,0,0,0,0,18,0,18,0,,,,,,,,,,,,,,,,,,,,,,,,,,,,0,855,,,824.4107224880718,,824.9107548510656,D,139,triangle,0.01636032003443688,,,,,1,0,,,2,,,,,,,,,820.736943099997,820.736943099997,820.736943099997,820.736943099997,822.2080788910389,822.2080788910389,822.2080788910389,822.2080788910389,822.2414484010078,822.2414484010078,822.2414484010078,822.2414484010078,,,,,repeat,letter,lettRpt,d,vtsPrac,822.9115849980153,0.6787009158870205,824.4107224880718,,,,,,,,,,,,,,,,,,,,,,,,11628,2022-11-09_14h26.00.408,vts_reward_expectancy_bt_OFFLINE,2022.2.4,60.0832688402612,
,,,,,,,,,,,,,,,,,,,,,,,,,,,,,,,,,,0,0,0,0,19,0,19,0,,,,,,,,,,,,,,,,,,,,,,,,,,,,0,855,,,829.2144613950513,,,W,174,hexagon,0.0006107650697231293,,,,,1,0,,,2,,,,,,,,,825.4071306340629,825.4071306340629,825.4071306340629,825.4071306340629,826.895106120035,826.895106120035,826.895106120035,826.895106120035,826.9117693500593,826.9117693500593,826.9117693500593,826.9117693500593,,,,,switch,number,numSwt,k,vtsPrac,827.698829597095,0.784368940978311,,,,,,,,,,,,,,,,,,,,,,,,,11628,2022-11-09_14h26.00.408,vts_reward_expectancy_bt_OFFLINE,2022.2.4,60.0832688402612,
,,,,,,,,,,,,,,,,,,,,,,,,,,,,,,,,,,0,0,0,0,20,0,20,0,,,,,,,,,,,,,,,,,,,,,,,,,,,,0,855,,,833.86775184609,,,D,174,star,0.01694992498960346,,,,,1,0,,,2,,,,,,,,,830.2106155360816,830.2106155360816,830.2106155360816,830.2106155360816,831.6819728260161,831.6819728260161,831.6819728260161,831.6819728260161,831.715165073052,831.715165073052,831.715165073052,831.715165073052,,,,,switch,letter,lettSwt,d,vtsPrac,832.3525635900442,0.6445180679438636,,,,,,,,,,,,,,,,,,,,,,,,,11628,2022-11-09_14h26.00.408,vts_reward_expectancy_bt_OFFLINE,2022.2.4,60.0832688402612,
,,,,,,,,,,,,,,,,,,,,,,,,,,,,,,,,,,0,0,0,0,21,0,21,0,,,,,,,,,,,,,,,,,,,,,,,,,,,,0,855,,,838.6549623730825,,,Y,160,hexagon,0.016411416931077838,,,,,1,0,,,2,,,,,,,,,834.8636966240592,834.8636966240592,834.8636966240592,834.8636966240592,836.3352693699999,836.3352693699999,836.3352693699999,836.3352693699999,836.368556528003,836.368556528003,836.368556528003,836.368556528003,,,,,repeat,letter,lettRpt,f,vtsPrac,837.1537952451035,0.7954950848361477,,,,,,,,,,,,,,,,,,,,,,,,,11628,2022-11-09_14h26.00.408,vts_reward_expectancy_bt_OFFLINE,2022.2.4,60.0832688402612,
,,,,,,,,,,,,,,,,,,,,,,,,,,,,,,,,,,0,0,0,0,22,0,22,0,,,,,,,,,,,,,,,,,,,,,,,,,,,,0,855,,,843.35829310806,,,U,139,triangle,0.0016705020098015666,,,,,1,0,,,2,,,,,,,,,839.6505791180534,839.6505791180534,839.6505791180534,839.6505791180534,841.138995254063,841.138995254063,841.138995254063,841.138995254063,841.1557241471019,841.1557241471019,841.1557241471019,841.1557241471019,,,,,switch,number,numSwt,j,vtsPrac,841.857116089086,0.6936140408506617,,,,,,,,,,,,,,,,,,,,,,,,,11628,2022-11-09_14h26.00.408,vts_reward_expectancy_bt_OFFLINE,2022.2.4,60.0832688402612,
,,,,,,,,,,,,,,,,,,,,,,,,,,,,,,,,,,0,0,0,0,23,0,23,0,,,,,,,,,,,,,,,,,,,,,,,,,,,,0,855,,,849.312366813072,,,S,125,circle,0.0019134690519422293,,,,,1,0,,,2,,,,,,,,,844.3543907681014,844.3543907681014,844.3543907681014,844.3543907681014,845.8424353461014,845.8424353461014,845.8424353461014,845.8424353461014,845.8589313930133,845.8589313930133,845.8589313930133,845.8589313930133,,,,,switch,letter,lettSwt,f,vtsPrac,847.7966178910574,1.9309561289846897,,,,,,,,,,,,,,,,,,,,,,,,,11628,2022-11-09_14h26.00.408,vts_reward_expectancy_bt_OFFLINE,2022.2.4,60.0832688402612,
,,,,,,,,,,,,,,,,,,,,,,,,,,,,,,,,,,0,0,0,0,24,0,24,0,,,,,,,,,,,,,,,,,,,,,,,,,,,,0,855,,,854.3993897390319,,854.8994600410806,D,132,hexagon,0.016849206993356347,,,,,1,0,,,2,,,,,,,,,850.3086280160351,850.3086280160351,850.3086280160351,850.3086280160351,851.7797252140008,851.7797252140008,851.7797252140008,851.7797252140008,851.8132555920165,851.8132555920165,851.8132555920165,851.8132555920165,,,,,switch,number,numSwt,j,vtsPrac,852.9004619360203,1.0905001419596374,854.3993897390319,,,,,,,,,,,,,,,,,,,,,,,,11628,2022-11-09_14h26.00.408,vts_reward_expectancy_bt_OFFLINE,2022.2.4,60.0832688402612,
