LTriangleOpac,LCircleOpac,LHexagonOpac,LStarOpac,RTriangleOpac,RCircleOpac,RHexagonOpac,RStarOpac,LShape_ID,RShape_ID,training_blocks.thisRepN,training_blocks.thisTrialN,training_blocks.thisN,training_blocks.thisIndex,training.thisRepN,training.thisTrialN,training.thisN,training.thisIndex,task1_prac_redo.thisRepN,task1_prac_redo.thisTrialN,task1_prac_redo.thisN,task1_prac_redo.thisIndex,task1_prac_trials.thisRepN,task1_prac_trials.thisTrialN,task1_prac_trials.thisN,task1_prac_trials.thisIndex,task2_prac_redo.thisRepN,task2_prac_redo.thisTrialN,task2_prac_redo.thisN,task2_prac_redo.thisIndex,task2_praac_trials.thisRepN,task2_praac_trials.thisTrialN,task2_praac_trials.thisN,task2_praac_trials.thisIndex,vts_prac_redo.thisRepN,vts_prac_redo.thisTrialN,vts_prac_redo.thisN,vts_prac_redo.thisIndex,vts_practice_trials.thisRepN,vts_practice_trials.thisTrialN,vts_practice_trials.thisN,vts_practice_trials.thisIndex,trials_norew.thisRepN,trials_norew.thisTrialN,trials_norew.thisN,trials_norew.thisIndex,block.thisRepN,block.thisTrialN,block.thisN,block.thisIndex,trials_rew.thisRepN,trials_rew.thisTrialN,trials_rew.thisN,trials_rew.thisIndex,key_resp.started,key_resp.keys,key_resp.rt,left_circle.started,right_circle.started,left_triangle.started,right_triangle.started,left_star.started,right_star.started,left_hexagon.started,right_hexagon.started,training_fix.started,training_resp.started,training_resp.keys,training_resp.rt,points_trial,points_cumul,trainBlock,training_feedback_txt.started,fix.started,training_feedback_txt.stopped,fix.stopped,curr_topStim,curr_bottStim,curr_shape,ISI.started,tgt_fix_prac1.started,top_target_prac1.started,bott_target_prac1.started,target_resp_prac1.started,acc,E1,target_resp_prac1.keys,target_resp_prac1.rt,pracBlock,prac_fback_text.started,prac_fback_text.stopped,tgt_fix_prac2.started,top_target_prac2.started,bott_target_prac2.started,target_resp_prac2.started,target_resp_prac2.keys,target_resp_prac2.rt,star.started,hegagon.started,triangle.started,circle.started,top_target.started,tgt_fix.started,bot_target.started,target_resp.started,star.stopped,hegagon.stopped,triangle.stopped,circle.stopped,alt,task,condition,target_resp.keys,target_resp.rt,rewCond,vts_fback.started,vts_fback.stopped,blockNum,norew_fback.started,norew_fback.stopped,key_resp_2.keys,key_resp_2.rt,rewExpectancy,feedbk_text.started,top_target.stopped,tgt_fix.stopped,bot_target.stopped,target_resp.stopped,feedbk_text.stopped,text_3.started,debrief.started,text_3.stopped,button.started,debrief.index,debrief.itemText,debrief.type,debrief.granularity,debrief.font,debrief.markerColor,debrief.response,debrief.rt,button.numClicks,button.timesOn,button.timesOff,participant,date,expName,psychopyVersion,frameRate,
,,,,,,,,,,,,,,,,,,,,,,,,,,,,,,,,,,,,,,,,,,,,,,,,,,,,,,13.2506637359038,space,23.014083308167756,,,,,,,,,,,,,,,,,,,,,,,,,,,,,,,,,,,,,,,,,,,,,,,,,,,,,,,,,,,,,,,,,,,,,,,,,,,,,,,,,,,,,,,,11801,2022-11-22_13h32.37.848,vts_reward_expectancy_bt_OFFLINE,2022.2.4,59.95980258642396,
0,1,0,0,1,0,0,0,circle,triangle,0,0,0,0,0,0,0,3,,,,,,,,,,,,,,,,,,,,,,,,,,,,,,,,,,,,,,,,57.31909880996682,57.31909880996682,57.31909880996682,57.31909880996682,57.31909880996682,57.31909880996682,57.31909880996682,57.31909880996682,57.31909880996682,57.31909880996682,a,1.5707720830105245,1,1,0,58.91476447088644,60.43002030882053,,,,,,,,,,,,,,,,,,,,,,,,,,,,,,,,,,,,,,,,,,,,,,,,,,,,,,,,,,,,,,,,,,,,,,,11801,2022-11-22_13h32.37.848,vts_reward_expectancy_bt_OFFLINE,2022.2.4,59.95980258642396,
0,0,1,0,0,1,0,0,hexagon,circle,0,0,0,0,0,1,1,7,,,,,,,,,,,,,,,,,,,,,,,,,,,,,,,,,,,,,,,,60.930097685894,60.930097685894,60.930097685894,60.930097685894,60.930097685894,60.930097685894,60.930097685894,60.930097685894,60.930097685894,60.930097685894,a,1.0535251360852271,1,2,0,62.01574457390234,63.51643941691145,63.51643941691145,64.0167386608664,,,,,,,,,,,,,,,,,,,,,,,,,,,,,,,,,,,,,,,,,,,,,,,,,,,,,,,,,,,,,,,,,,,,,11801,2022-11-22_13h32.37.848,vts_reward_expectancy_bt_OFFLINE,2022.2.4,59.95980258642396,
0,1,0,0,0,0,0,1,circle,star,0,0,0,0,0,2,2,5,,,,,,,,,,,,,,,,,,,,,,,,,,,,,,,,,,,,,,,,64.0167386608664,64.0167386608664,64.0167386608664,64.0167386608664,64.0167386608664,64.0167386608664,64.0167386608664,64.0167386608664,64.0167386608664,64.0167386608664,a,0.7569435660261661,10,12,0,64.8025661248248,66.31752327992581,,,,,,,,,,,,,,,,,,,,,,,,,,,,,,,,,,,,,,,,,,,,,,,,,,,,,,,,,,,,,,,,,,,,,,,11801,2022-11-22_13h32.37.848,vts_reward_expectancy_bt_OFFLINE,2022.2.4,59.95980258642396,
0,1,0,0,0,0,1,0,circle,hexagon,0,0,0,0,0,3,3,4,,,,,,,,,,,,,,,,,,,,,,,,,,,,,,,,,,,,,,,,66.81730792298913,66.81730792298913,66.81730792298913,66.81730792298913,66.81730792298913,66.81730792298913,66.81730792298913,66.81730792298913,66.81730792298913,66.81730792298913,a,0.6563223949633539,10,22,0,67.50311981001869,69.00367358187214,69.00367358187214,,,,,,,,,,,,,,,,,,,,,,,,,,,,,,,,,,,,,,,,,,,,,,,,,,,,,,,,,,,,,,,,,,,,,,11801,2022-11-22_13h32.37.848,vts_reward_expectancy_bt_OFFLINE,2022.2.4,59.95980258642396,
1,0,0,0,0,0,0,1,triangle,star,0,0,0,0,0,4,4,2,,,,,,,,,,,,,,,,,,,,,,,,,,,,,,,,,,,,,,,,69.50381230702624,69.50381230702624,69.50381230702624,69.50381230702624,69.50381230702624,69.50381230702624,69.50381230702624,69.50381230702624,69.50381230702624,69.50381230702624,l,0.7157813389785588,1,23,0,70.23828938882798,71.73773365700617,71.73773365700617,,,,,,,,,,,,,,,,,,,,,,,,,,,,,,,,,,,,,,,,,,,,,,,,,,,,,,,,,,,,,,,,,,,,,,11801,2022-11-22_13h32.37.848,vts_reward_expectancy_bt_OFFLINE,2022.2.4,59.95980258642396,
0,0,0,1,1,0,0,0,star,triangle,0,0,0,0,0,5,5,9,,,,,,,,,,,,,,,,,,,,,,,,,,,,,,,,,,,,,,,,72.23996640392579,72.23996640392579,72.23996640392579,72.23996640392579,72.23996640392579,72.23996640392579,72.23996640392579,72.23996640392579,72.23996640392579,72.23996640392579,l,0.6911448931787163,1,24,0,72.95656182290986,74.45729822991416,74.45729822991416,,,,,,,,,,,,,,,,,,,,,,,,,,,,,,,,,,,,,,,,,,,,,,,,,,,,,,,,,,,,,,,,,,,,,,11801,2022-11-22_13h32.37.848,vts_reward_expectancy_bt_OFFLINE,2022.2.4,59.95980258642396,
0,0,1,0,0,0,0,1,hexagon,star,0,0,0,0,0,6,6,8,,,,,,,,,,,,,,,,,,,,,,,,,,,,,,,,,,,,,,,,74.95750195300207,74.95750195300207,74.95750195300207,74.95750195300207,74.95750195300207,74.95750195300207,74.95750195300207,74.95750195300207,74.95750195300207,74.95750195300207,l,2.2599344961345196,1,25,0,77.24352559400722,78.74407257186249,78.74407257186249,79.24459634791128,,,,,,,,,,,,,,,,,,,,,,,,,,,,,,,,,,,,,,,,,,,,,,,,,,,,,,,,,,,,,,,,,,,,,11801,2022-11-22_13h32.37.848,vts_reward_expectancy_bt_OFFLINE,2022.2.4,59.95980258642396,
0,0,0,1,0,0,1,0,star,hexagon,0,0,0,0,0,7,7,11,,,,,,,,,,,,,,,,,,,,,,,,,,,,,,,,,,,,,,,,79.24459634791128,79.24459634791128,79.24459634791128,79.24459634791128,79.24459634791128,79.24459634791128,79.24459634791128,79.24459634791128,79.24459634791128,79.24459634791128,l,1.1234011589549482,10,35,0,80.39607418188825,81.89697639993392,,,,,,,,,,,,,,,,,,,,,,,,,,,,,,,,,,,,,,,,,,,,,,,,,,,,,,,,,,,,,,,,,,,,,,,11801,2022-11-22_13h32.37.848,vts_reward_expectancy_bt_OFFLINE,2022.2.4,59.95980258642396,
1,0,0,0,0,0,1,0,triangle,hexagon,0,0,0,0,0,8,8,1,,,,,,,,,,,,,,,,,,,,,,,,,,,,,,,,,,,,,,,,82.3969053470064,82.3969053470064,82.3969053470064,82.3969053470064,82.3969053470064,82.3969053470064,82.3969053470064,82.3969053470064,82.3969053470064,82.3969053470064,a,0.6927774450741708,1,36,0,83.11527574481443,84.61486805789173,84.61486805789173,85.11497686291113,,,,,,,,,,,,,,,,,,,,,,,,,,,,,,,,,,,,,,,,,,,,,,,,,,,,,,,,,,,,,,,,,,,,,11801,2022-11-22_13h32.37.848,vts_reward_expectancy_bt_OFFLINE,2022.2.4,59.95980258642396,
0,0,1,0,1,0,0,0,hexagon,triangle,0,0,0,0,0,9,9,6,,,,,,,,,,,,,,,,,,,,,,,,,,,,,,,,,,,,,,,,85.11497686291113,85.11497686291113,85.11497686291113,85.11497686291113,85.11497686291113,85.11497686291113,85.11497686291113,85.11497686291113,85.11497686291113,85.11497686291113,a,0.8435619040392339,10,46,0,85.9830023329705,87.48413426685147,,,,,,,,,,,,,,,,,,,,,,,,,,,,,,,,,,,,,,,,,,,,,,,,,,,,,,,,,,,,,,,,,,,,,,,11801,2022-11-22_13h32.37.848,vts_reward_expectancy_bt_OFFLINE,2022.2.4,59.95980258642396,
1,0,0,0,0,1,0,0,triangle,circle,0,0,0,0,0,10,10,0,,,,,,,,,,,,,,,,,,,,,,,,,,,,,,,,,,,,,,,,87.98450639285147,87.98450639285147,87.98450639285147,87.98450639285147,87.98450639285147,87.98450639285147,87.98450639285147,87.98450639285147,87.98450639285147,87.98450639285147,l,0.8206880730576813,10,56,0,88.83472378598526,90.33514449093491,90.33514449093491,,,,,,,,,,,,,,,,,,,,,,,,,,,,,,,,,,,,,,,,,,,,,,,,,,,,,,,,,,,,,,,,,,,,,,11801,2022-11-22_13h32.37.848,vts_reward_expectancy_bt_OFFLINE,2022.2.4,59.95980258642396,
0,0,0,1,0,1,0,0,star ,circle,0,0,0,0,0,11,11,10,,,,,,,,,,,,,,,,,,,,,,,,,,,,,,,,,,,,,,,,90.83538423990831,90.83538423990831,90.83538423990831,90.83538423990831,90.83538423990831,90.83538423990831,90.83538423990831,90.83538423990831,90.83538423990831,90.83538423990831,l,0.8608329410199076,10,66,0,91.71922566788271,93.22152775898576,,,,,,,,,,,,,,,,,,,,,,,,,,,,,,,,,,,,,,,,,,,,,,,,,,,,,,,,,,,,,,,,,,,,,,,11801,2022-11-22_13h32.37.848,vts_reward_expectancy_bt_OFFLINE,2022.2.4,59.95980258642396,
0,0,1,0,0,0,0,1,hexagon,star,0,0,0,0,1,0,12,8,,,,,,,,,,,,,,,,,,,,,,,,,,,,,,,,,,,,,,,,93.72175007802434,93.72175007802434,93.72175007802434,93.72175007802434,93.72175007802434,93.72175007802434,93.72175007802434,93.72175007802434,93.72175007802434,93.72175007802434,a,0.7757541202008724,10,76,0,94.52197260200046,96.02261150884442,96.02261150884442,96.52254560985602,,,,,,,,,,,,,,,,,,,,,,,,,,,,,,,,,,,,,,,,,,,,,,,,,,,,,,,,,,,,,,,,,,,,,11801,2022-11-22_13h32.37.848,vts_reward_expectancy_bt_OFFLINE,2022.2.4,59.95980258642396,
0,1,0,0,0,0,0,1,circle,star,0,0,0,0,1,1,13,5,,,,,,,,,,,,,,,,,,,,,,,,,,,,,,,,,,,,,,,,96.52254560985602,96.52254560985602,96.52254560985602,96.52254560985602,96.52254560985602,96.52254560985602,96.52254560985602,96.52254560985602,96.52254560985602,96.52254560985602,a,0.5524033100809902,10,86,0,97.09161094599403,98.59195506991819,98.59195506991819,99.09225265402347,,,,,,,,,,,,,,,,,,,,,,,,,,,,,,,,,,,,,,,,,,,,,,,,,,,,,,,,,,,,,,,,,,,,,11801,2022-11-22_13h32.37.848,vts_reward_expectancy_bt_OFFLINE,2022.2.4,59.95980258642396,
0,0,1,0,0,1,0,0,hexagon,circle,0,0,0,0,1,2,14,7,,,,,,,,,,,,,,,,,,,,,,,,,,,,,,,,,,,,,,,,99.09225265402347,99.09225265402347,99.09225265402347,99.09225265402347,99.09225265402347,99.09225265402347,99.09225265402347,99.09225265402347,99.09225265402347,99.09225265402347,l,0.6938882018439472,10,96,0,99.8089933260344,101.30967875290662,101.30967875290662,101.80977180204354,,,,,,,,,,,,,,,,,,,,,,,,,,,,,,,,,,,,,,,,,,,,,,,,,,,,,,,,,,,,,,,,,,,,,11801,2022-11-22_13h32.37.848,vts_reward_expectancy_bt_OFFLINE,2022.2.4,59.95980258642396,
1,0,0,0,0,0,0,1,triangle,star,0,0,0,0,1,3,15,2,,,,,,,,,,,,,,,,,,,,,,,,,,,,,,,,,,,,,,,,101.80977180204354,101.80977180204354,101.80977180204354,101.80977180204354,101.80977180204354,101.80977180204354,101.80977180204354,101.80977180204354,101.80977180204354,101.80977180204354,a,0.7213806840591133,1,97,0,102.56296588201076,104.06247487198561,104.06247487198561,104.56261319783516,,,,,,,,,,,,,,,,,,,,,,,,,,,,,,,,,,,,,,,,,,,,,,,,,,,,,,,,,,,,,,,,,,,,,11801,2022-11-22_13h32.37.848,vts_reward_expectancy_bt_OFFLINE,2022.2.4,59.95980258642396,
0,0,0,1,1,0,0,0,star,triangle,0,0,0,0,1,4,16,9,,,,,,,,,,,,,,,,,,,,,,,,,,,,,,,,,,,,,,,,104.56261319783516,104.56261319783516,104.56261319783516,104.56261319783516,104.56261319783516,104.56261319783516,104.56261319783516,104.56261319783516,104.56261319783516,104.56261319783516,a,0.938459716970101,1,98,0,105.52959159994498,107.0319919118192,,,,,,,,,,,,,,,,,,,,,,,,,,,,,,,,,,,,,,,,,,,,,,,,,,,,,,,,,,,,,,,,,,,,,,,11801,2022-11-22_13h32.37.848,vts_reward_expectancy_bt_OFFLINE,2022.2.4,59.95980258642396,
0,1,0,0,0,0,1,0,circle,hexagon,0,0,0,0,1,5,17,4,,,,,,,,,,,,,,,,,,,,,,,,,,,,,,,,,,,,,,,,107.53200762998313,107.53200762998313,107.53200762998313,107.53200762998313,107.53200762998313,107.53200762998313,107.53200762998313,107.53200762998313,107.53200762998313,107.53200762998313,a,0.5571624161675572,10,108,0,108.1171145469416,109.61628069984727,109.61628069984727,110.11640093498863,,,,,,,,,,,,,,,,,,,,,,,,,,,,,,,,,,,,,,,,,,,,,,,,,,,,,,,,,,,,,,,,,,,,,11801,2022-11-22_13h32.37.848,vts_reward_expectancy_bt_OFFLINE,2022.2.4,59.95980258642396,
1,0,0,0,0,1,0,0,triangle,circle,0,0,0,0,1,6,18,0,,,,,,,,,,,,,,,,,,,,,,,,,,,,,,,,,,,,,,,,110.11640093498863,110.11640093498863,110.11640093498863,110.11640093498863,110.11640093498863,110.11640093498863,110.11640093498863,110.11640093498863,110.11640093498863,110.11640093498863,l,0.6269769289065152,10,118,0,110.76683177286759,112.26895962795243,,,,,,,,,,,,,,,,,,,,,,,,,,,,,,,,,,,,,,,,,,,,,,,,,,,,,,,,,,,,,,,,,,,,,,,11801,2022-11-22_13h32.37.848,vts_reward_expectancy_bt_OFFLINE,2022.2.4,59.95980258642396,
0,1,0,0,1,0,0,0,circle,triangle,0,0,0,0,1,7,19,3,,,,,,,,,,,,,,,,,,,,,,,,,,,,,,,,,,,,,,,,112.76921251183376,112.76921251183376,112.76921251183376,112.76921251183376,112.76921251183376,112.76921251183376,112.76921251183376,112.76921251183376,112.76921251183376,112.76921251183376,a,0.6303642319981009,10,128,0,113.41956068994477,114.91994748194702,114.91994748194702,115.42018729192205,,,,,,,,,,,,,,,,,,,,,,,,,,,,,,,,,,,,,,,,,,,,,,,,,,,,,,,,,,,,,,,,,,,,,11801,2022-11-22_13h32.37.848,vts_reward_expectancy_bt_OFFLINE,2022.2.4,59.95980258642396,
0,0,1,0,1,0,0,0,hexagon,triangle,0,0,0,0,1,8,20,6,,,,,,,,,,,,,,,,,,,,,,,,,,,,,,,,,,,,,,,,115.42018729192205,115.42018729192205,115.42018729192205,115.42018729192205,115.42018729192205,115.42018729192205,115.42018729192205,115.42018729192205,115.42018729192205,115.42018729192205,l,0.7235095489304513,1,129,0,116.17191011784598,117.67272699694149,,,,,,,,,,,,,,,,,,,,,,,,,,,,,,,,,,,,,,,,,,,,,,,,,,,,,,,,,,,,,,,,,,,,,,,11801,2022-11-22_13h32.37.848,vts_reward_expectancy_bt_OFFLINE,2022.2.4,59.95980258642396,
0,0,0,1,0,0,1,0,star,hexagon,0,0,0,0,1,9,21,11,,,,,,,,,,,,,,,,,,,,,,,,,,,,,,,,,,,,,,,,118.17306796903722,118.17306796903722,118.17306796903722,118.17306796903722,118.17306796903722,118.17306796903722,118.17306796903722,118.17306796903722,118.17306796903722,118.17306796903722,l,1.2002987961750478,10,139,0,119.39161949092522,120.89076807093807,120.89076807093807,121.39082963601686,,,,,,,,,,,,,,,,,,,,,,,,,,,,,,,,,,,,,,,,,,,,,,,,,,,,,,,,,,,,,,,,,,,,,11801,2022-11-22_13h32.37.848,vts_reward_expectancy_bt_OFFLINE,2022.2.4,59.95980258642396,
0,0,0,1,0,1,0,0,star ,circle,0,0,0,0,1,10,22,10,,,,,,,,,,,,,,,,,,,,,,,,,,,,,,,,,,,,,,,,121.39082963601686,121.39082963601686,121.39082963601686,121.39082963601686,121.39082963601686,121.39082963601686,121.39082963601686,121.39082963601686,121.39082963601686,121.39082963601686,l,0.8292096951045096,10,149,0,122.24305008002557,123.74355702195317,123.74355702195317,124.24367650598288,,,,,,,,,,,,,,,,,,,,,,,,,,,,,,,,,,,,,,,,,,,,,,,,,,,,,,,,,,,,,,,,,,,,,11801,2022-11-22_13h32.37.848,vts_reward_expectancy_bt_OFFLINE,2022.2.4,59.95980258642396,
1,0,0,0,0,0,1,0,triangle,hexagon,0,0,0,0,1,11,23,1,,,,,,,,,,,,,,,,,,,,,,,,,,,,,,,,,,,,,,,,124.24367650598288,124.24367650598288,124.24367650598288,124.24367650598288,124.24367650598288,124.24367650598288,124.24367650598288,124.24367650598288,124.24367650598288,124.24367650598288,l,1.1479782578535378,10,159,0,125.41076800390147,126.91350555093959,,,,,,,,,,,,,,,,,,,,,,,,,,,,,,,,,,,,,,,,,,,,,,,,,,,,,,,,,,,,,,,,,,,,,,,11801,2022-11-22_13h32.37.848,vts_reward_expectancy_bt_OFFLINE,2022.2.4,59.95980258642396,
1,0,0,0,0,1,0,0,triangle,circle,0,0,0,0,2,0,24,0,,,,,,,,,,,,,,,,,,,,,,,,,,,,,,,,,,,,,,,,127.41328069195151,127.41328069195151,127.41328069195151,127.41328069195151,127.41328069195151,127.41328069195151,127.41328069195151,127.41328069195151,127.41328069195151,127.41328069195151,l,1.8381606880575418,10,169,0,129.2805922019761,130.7812794840429,130.7812794840429,,,,,,,,,,,,,,,,,,,,,,,,,,,,,,,,,,,,,,,,,,,,,,,,,,,,,,,,,,,,,,,,,,,,,,11801,2022-11-22_13h32.37.848,vts_reward_expectancy_bt_OFFLINE,2022.2.4,59.95980258642396,
0,0,0,1,1,0,0,0,star,triangle,0,0,0,0,2,1,25,9,,,,,,,,,,,,,,,,,,,,,,,,,,,,,,,,,,,,,,,,131.2813264268916,131.2813264268916,131.2813264268916,131.2813264268916,131.2813264268916,131.2813264268916,131.2813264268916,131.2813264268916,131.2813264268916,131.2813264268916,l,0.7148015899583697,1,170,0,132.01855778484605,133.53401038283482,,,,,,,,,,,,,,,,,,,,,,,,,,,,,,,,,,,,,,,,,,,,,,,,,,,,,,,,,,,,,,,,,,,,,,,11801,2022-11-22_13h32.37.848,vts_reward_expectancy_bt_OFFLINE,2022.2.4,59.95980258642396,
0,0,0,1,0,0,1,0,star,hexagon,0,0,0,0,2,2,26,11,,,,,,,,,,,,,,,,,,,,,,,,,,,,,,,,,,,,,,,,134.03414843883365,134.03414843883365,134.03414843883365,134.03414843883365,134.03414843883365,134.03414843883365,134.03414843883365,134.03414843883365,134.03414843883365,134.03414843883365,a,0.8311118041165173,1,171,0,134.88445258582942,136.38525281986222,136.38525281986222,,,,,,,,,,,,,,,,,,,,,,,,,,,,,,,,,,,,,,,,,,,,,,,,,,,,,,,,,,,,,,,,,,,,,,11801,2022-11-22_13h32.37.848,vts_reward_expectancy_bt_OFFLINE,2022.2.4,59.95980258642396,
0,0,0,1,0,1,0,0,star ,circle,0,0,0,0,2,3,27,10,,,,,,,,,,,,,,,,,,,,,,,,,,,,,,,,,,,,,,,,136.8825734539423,136.8825734539423,136.8825734539423,136.8825734539423,136.8825734539423,136.8825734539423,136.8825734539423,136.8825734539423,136.8825734539423,136.8825734539423,l,0.5816880359780043,1,172,0,137.4873234059196,138.9880243728403,138.9880243728403,,,,,,,,,,,,,,,,,,,,,,,,,,,,,,,,,,,,,,,,,,,,,,,,,,,,,,,,,,,,,,,,,,,,,,11801,2022-11-22_13h32.37.848,vts_reward_expectancy_bt_OFFLINE,2022.2.4,59.95980258642396,
0,1,0,0,0,0,0,1,circle,star,0,0,0,0,2,4,28,5,,,,,,,,,,,,,,,,,,,,,,,,,,,,,,,,,,,,,,,,139.48797729983926,139.48797729983926,139.48797729983926,139.48797729983926,139.48797729983926,139.48797729983926,139.48797729983926,139.48797729983926,139.48797729983926,139.48797729983926,a,0.6080742091871798,1,173,0,140.12155164103024,141.62242894689552,141.62242894689552,,,,,,,,,,,,,,,,,,,,,,,,,,,,,,,,,,,,,,,,,,,,,,,,,,,,,,,,,,,,,,,,,,,,,,11801,2022-11-22_13h32.37.848,vts_reward_expectancy_bt_OFFLINE,2022.2.4,59.95980258642396,
0,0,1,0,1,0,0,0,hexagon,triangle,0,0,0,0,2,5,29,6,,,,,,,,,,,,,,,,,,,,,,,,,,,,,,,,,,,,,,,,142.12420059600845,142.12420059600845,142.12420059600845,142.12420059600845,142.12420059600845,142.12420059600845,142.12420059600845,142.12420059600845,142.12420059600845,142.12420059600845,a,0.9870936591178179,1,174,0,143.14120332384482,144.64181896392256,144.64181896392256,145.1417533669155,,,,,,,,,,,,,,,,,,,,,,,,,,,,,,,,,,,,,,,,,,,,,,,,,,,,,,,,,,,,,,,,,,,,,11801,2022-11-22_13h32.37.848,vts_reward_expectancy_bt_OFFLINE,2022.2.4,59.95980258642396,
1,0,0,0,0,0,1,0,triangle,hexagon,0,0,0,0,2,6,30,1,,,,,,,,,,,,,,,,,,,,,,,,,,,,,,,,,,,,,,,,145.1417533669155,145.1417533669155,145.1417533669155,145.1417533669155,145.1417533669155,145.1417533669155,145.1417533669155,145.1417533669155,145.1417533669155,145.1417533669155,l,0.6695526079274714,1,175,0,145.8422716849018,147.3444540030323,,,,,,,,,,,,,,,,,,,,,,,,,,,,,,,,,,,,,,,,,,,,,,,,,,,,,,,,,,,,,,,,,,,,,,,11801,2022-11-22_13h32.37.848,vts_reward_expectancy_bt_OFFLINE,2022.2.4,59.95980258642396,
0,1,0,0,0,0,1,0,circle,hexagon,0,0,0,0,2,7,31,4,,,,,,,,,,,,,,,,,,,,,,,,,,,,,,,,,,,,,,,,147.84472841094248,147.84472841094248,147.84472841094248,147.84472841094248,147.84472841094248,147.84472841094248,147.84472841094248,147.84472841094248,147.84472841094248,147.84472841094248,a,0.7682880868669599,10,185,0,148.64515271503478,150.1453158899676,150.1453158899676,150.6457059448585,,,,,,,,,,,,,,,,,,,,,,,,,,,,,,,,,,,,,,,,,,,,,,,,,,,,,,,,,,,,,,,,,,,,,11801,2022-11-22_13h32.37.848,vts_reward_expectancy_bt_OFFLINE,2022.2.4,59.95980258642396,
0,0,1,0,0,0,0,1,hexagon,star,0,0,0,0,2,8,32,8,,,,,,,,,,,,,,,,,,,,,,,,,,,,,,,,,,,,,,,,150.6457059448585,150.6457059448585,150.6457059448585,150.6457059448585,150.6457059448585,150.6457059448585,150.6457059448585,150.6457059448585,150.6457059448585,150.6457059448585,a,1.2417101170867682,10,195,0,151.90743532404304,153.41550449491479,,,,,,,,,,,,,,,,,,,,,,,,,,,,,,,,,,,,,,,,,,,,,,,,,,,,,,,,,,,,,,,,,,,,,,,11801,2022-11-22_13h32.37.848,vts_reward_expectancy_bt_OFFLINE,2022.2.4,59.95980258642396,
0,0,1,0,0,1,0,0,hexagon,circle,0,0,0,0,2,9,33,7,,,,,,,,,,,,,,,,,,,,,,,,,,,,,,,,,,,,,,,,153.9156263959594,153.9156263959594,153.9156263959594,153.9156263959594,153.9156263959594,153.9156263959594,153.9156263959594,153.9156263959594,153.9156263959594,153.9156263959594,l,0.6268541440367699,10,205,0,154.56582058384083,156.06625524000265,,,,,,,,,,,,,,,,,,,,,,,,,,,,,,,,,,,,,,,,,,,,,,,,,,,,,,,,,,,,,,,,,,,,,,,11801,2022-11-22_13h32.37.848,vts_reward_expectancy_bt_OFFLINE,2022.2.4,59.95980258642396,
0,1,0,0,1,0,0,0,circle,triangle,0,0,0,0,2,10,34,3,,,,,,,,,,,,,,,,,,,,,,,,,,,,,,,,,,,,,,,,156.5661913510412,156.5661913510412,156.5661913510412,156.5661913510412,156.5661913510412,156.5661913510412,156.5661913510412,156.5661913510412,156.5661913510412,156.5661913510412,a,0.6319917340297252,10,215,0,157.2183717538137,158.71910843881778,158.71910843881778,159.219103080919,,,,,,,,,,,,,,,,,,,,,,,,,,,,,,,,,,,,,,,,,,,,,,,,,,,,,,,,,,,,,,,,,,,,,11801,2022-11-22_13h32.37.848,vts_reward_expectancy_bt_OFFLINE,2022.2.4,59.95980258642396,
1,0,0,0,0,0,0,1,triangle,star,0,0,0,0,2,11,35,2,,,,,,,,,,,,,,,,,,,,,,,,,,,,,,,,,,,,,,,,159.219103080919,159.219103080919,159.219103080919,159.219103080919,159.219103080919,159.219103080919,159.219103080919,159.219103080919,159.219103080919,159.219103080919,a,1.3418149179778993,10,225,0,160.5863919169642,162.08877538098022,,,,,,,,,,,,,,,,,,,,,,,,,,,,,,,,,,,,,,,,,,,,,,,,,,,,,,,,,,,,,,,,,,,,,,,11801,2022-11-22_13h32.37.848,vts_reward_expectancy_bt_OFFLINE,2022.2.4,59.95980258642396,
0,0,0,1,0,0,1,0,star,hexagon,0,0,0,0,3,0,36,11,,,,,,,,,,,,,,,,,,,,,,,,,,,,,,,,,,,,,,,,162.58866568794474,162.58866568794474,162.58866568794474,162.58866568794474,162.58866568794474,162.58866568794474,162.58866568794474,162.58866568794474,162.58866568794474,162.58866568794474,l,0.8530779220163822,10,235,0,163.47239155485295,164.97308549284935,164.97308549284935,165.4734193990007,,,,,,,,,,,,,,,,,,,,,,,,,,,,,,,,,,,,,,,,,,,,,,,,,,,,,,,,,,,,,,,,,,,,,11801,2022-11-22_13h32.37.848,vts_reward_expectancy_bt_OFFLINE,2022.2.4,59.95980258642396,
0,1,0,0,0,0,0,1,circle,star,0,0,0,0,3,1,37,5,,,,,,,,,,,,,,,,,,,,,,,,,,,,,,,,,,,,,,,,165.4734193990007,165.4734193990007,165.4734193990007,165.4734193990007,165.4734193990007,165.4734193990007,165.4734193990007,165.4734193990007,165.4734193990007,165.4734193990007,a,0.6116250660270452,10,245,0,166.10674594901502,167.609105163021,,,,,,,,,,,,,,,,,,,,,,,,,,,,,,,,,,,,,,,,,,,,,,,,,,,,,,,,,,,,,,,,,,,,,,,11801,2022-11-22_13h32.37.848,vts_reward_expectancy_bt_OFFLINE,2022.2.4,59.95980258642396,
0,0,1,0,0,0,0,1,hexagon,star,0,0,0,0,3,2,38,8,,,,,,,,,,,,,,,,,,,,,,,,,,,,,,,,,,,,,,,,168.10943847103044,168.10943847103044,168.10943847103044,168.10943847103044,168.10943847103044,168.10943847103044,168.10943847103044,168.10943847103044,168.10943847103044,168.10943847103044,a,1.2493651481345296,1,246,0,169.37808549194597,170.87689609802328,170.87689609802328,171.3770102118142,,,,,,,,,,,,,,,,,,,,,,,,,,,,,,,,,,,,,,,,,,,,,,,,,,,,,,,,,,,,,,,,,,,,,11801,2022-11-22_13h32.37.848,vts_reward_expectancy_bt_OFFLINE,2022.2.4,59.95980258642396,
0,0,1,0,0,1,0,0,hexagon,circle,0,0,0,0,3,3,39,7,,,,,,,,,,,,,,,,,,,,,,,,,,,,,,,,,,,,,,,,171.3770102118142,171.3770102118142,171.3770102118142,171.3770102118142,171.3770102118142,171.3770102118142,171.3770102118142,171.3770102118142,171.3770102118142,171.3770102118142,l,0.9524262961931527,10,256,0,172.36288886889815,173.8630046749022,173.8630046749022,174.36320649995469,,,,,,,,,,,,,,,,,,,,,,,,,,,,,,,,,,,,,,,,,,,,,,,,,,,,,,,,,,,,,,,,,,,,,11801,2022-11-22_13h32.37.848,vts_reward_expectancy_bt_OFFLINE,2022.2.4,59.95980258642396,
0,0,1,0,1,0,0,0,hexagon,triangle,0,0,0,0,3,4,40,6,,,,,,,,,,,,,,,,,,,,,,,,,,,,,,,,,,,,,,,,174.36320649995469,174.36320649995469,174.36320649995469,174.36320649995469,174.36320649995469,174.36320649995469,174.36320649995469,174.36320649995469,174.36320649995469,174.36320649995469,l,1.903385516954586,1,257,0,176.29788880096748,177.79985472699627,,,,,,,,,,,,,,,,,,,,,,,,,,,,,,,,,,,,,,,,,,,,,,,,,,,,,,,,,,,,,,,,,,,,,,,11801,2022-11-22_13h32.37.848,vts_reward_expectancy_bt_OFFLINE,2022.2.4,59.95980258642396,
0,0,0,1,0,1,0,0,star ,circle,0,0,0,0,3,5,41,10,,,,,,,,,,,,,,,,,,,,,,,,,,,,,,,,,,,,,,,,178.30014610802755,178.30014610802755,178.30014610802755,178.30014610802755,178.30014610802755,178.30014610802755,178.30014610802755,178.30014610802755,178.30014610802755,178.30014610802755,l,0.6335880439728498,10,267,0,178.95236151781864,180.46762872394174,,,,,,,,,,,,,,,,,,,,,,,,,,,,,,,,,,,,,,,,,,,,,,,,,,,,,,,,,,,,,,,,,,,,,,,11801,2022-11-22_13h32.37.848,vts_reward_expectancy_bt_OFFLINE,2022.2.4,59.95980258642396,
0,0,0,1,1,0,0,0,star,triangle,0,0,0,0,3,6,42,9,,,,,,,,,,,,,,,,,,,,,,,,,,,,,,,,,,,,,,,,180.9676278650295,180.9676278650295,180.9676278650295,180.9676278650295,180.9676278650295,180.9676278650295,180.9676278650295,180.9676278650295,180.9676278650295,180.9676278650295,l,1.3304974150378257,1,268,0,182.32127961399965,183.82063662493601,183.82063662493601,184.3207428669557,,,,,,,,,,,,,,,,,,,,,,,,,,,,,,,,,,,,,,,,,,,,,,,,,,,,,,,,,,,,,,,,,,,,,11801,2022-11-22_13h32.37.848,vts_reward_expectancy_bt_OFFLINE,2022.2.4,59.95980258642396,
1,0,0,0,0,0,0,1,triangle,star,0,0,0,0,3,7,43,2,,,,,,,,,,,,,,,,,,,,,,,,,,,,,,,,,,,,,,,,184.3207428669557,184.3207428669557,184.3207428669557,184.3207428669557,184.3207428669557,184.3207428669557,184.3207428669557,184.3207428669557,184.3207428669557,184.3207428669557,l,0.621175121050328,1,269,0,184.9709634569008,186.47141993395053,186.47141993395053,,,,,,,,,,,,,,,,,,,,,,,,,,,,,,,,,,,,,,,,,,,,,,,,,,,,,,,,,,,,,,,,,,,,,,11801,2022-11-22_13h32.37.848,vts_reward_expectancy_bt_OFFLINE,2022.2.4,59.95980258642396,
1,0,0,0,0,0,1,0,triangle,hexagon,0,0,0,0,3,8,44,1,,,,,,,,,,,,,,,,,,,,,,,,,,,,,,,,,,,,,,,,186.9736569339875,186.9736569339875,186.9736569339875,186.9736569339875,186.9736569339875,186.9736569339875,186.9736569339875,186.9736569339875,186.9736569339875,186.9736569339875,l,0.7346776239573956,10,279,0,187.7410469679162,189.24096073792316,189.24096073792316,189.74100382695906,,,,,,,,,,,,,,,,,,,,,,,,,,,,,,,,,,,,,,,,,,,,,,,,,,,,,,,,,,,,,,,,,,,,,11801,2022-11-22_13h32.37.848,vts_reward_expectancy_bt_OFFLINE,2022.2.4,59.95980258642396,
0,1,0,0,1,0,0,0,circle,triangle,0,0,0,0,3,9,45,3,,,,,,,,,,,,,,,,,,,,,,,,,,,,,,,,,,,,,,,,189.74100382695906,189.74100382695906,189.74100382695906,189.74100382695906,189.74100382695906,189.74100382695906,189.74100382695906,189.74100382695906,189.74100382695906,189.74100382695906,a,0.7131826160475612,10,289,0,190.47485022386536,191.9769943538122,,,,,,,,,,,,,,,,,,,,,,,,,,,,,,,,,,,,,,,,,,,,,,,,,,,,,,,,,,,,,,,,,,,,,,,11801,2022-11-22_13h32.37.848,vts_reward_expectancy_bt_OFFLINE,2022.2.4,59.95980258642396,
1,0,0,0,0,1,0,0,triangle,circle,0,0,0,0,3,10,46,0,,,,,,,,,,,,,,,,,,,,,,,,,,,,,,,,,,,,,,,,192.477222395828,192.477222395828,192.477222395828,192.477222395828,192.477222395828,192.477222395828,192.477222395828,192.477222395828,192.477222395828,192.477222395828,l,1.2279786290600896,10,299,0,193.72768099000677,195.22820686688647,195.22820686688647,,,,,,,,,,,,,,,,,,,,,,,,,,,,,,,,,,,,,,,,,,,,,,,,,,,,,,,,,,,,,,,,,,,,,,11801,2022-11-22_13h32.37.848,vts_reward_expectancy_bt_OFFLINE,2022.2.4,59.95980258642396,
0,1,0,0,0,0,1,0,circle,hexagon,0,0,0,0,3,11,47,4,,,,,,,,,,,,,,,,,,,,,,,,,,,,,,,,,,,,,,,,195.72835536696948,195.72835536696948,195.72835536696948,195.72835536696948,195.72835536696948,195.72835536696948,195.72835536696948,195.72835536696948,195.72835536696948,195.72835536696948,a,0.6438939440995455,10,309,0,196.39557654992677,197.89762460789643,,,,,,,,,,,,,,,,,,,,,,,,,,,,,,,,,,,,,,,,,,,,,,,,,,,,,,,,,,,,,,,,,,,,,,,11801,2022-11-22_13h32.37.848,vts_reward_expectancy_bt_OFFLINE,2022.2.4,59.95980258642396,
0,0,0,1,0,0,1,0,star,hexagon,1,0,1,0,0,0,0,11,,,,,,,,,,,,,,,,,,,,,,,,,,,,,,,,,,,,,,,,202.41212039184757,202.41212039184757,202.41212039184757,202.41212039184757,202.41212039184757,202.41212039184757,202.41212039184757,202.41212039184757,202.41212039184757,202.41212039184757,l,0.8228747951798141,10,319,1,203.2516682439018,204.7521425539162,204.7521425539162,205.2522882099729,,,,,,,,,,,,,,,,,,,,,,,,,,,,,,,,,,,,,,,,,,,,,,,,,,,,,,,,,,,,,,,,,,,,,11801,2022-11-22_13h32.37.848,vts_reward_expectancy_bt_OFFLINE,2022.2.4,59.95980258642396,
0,0,0,1,1,0,0,0,star,triangle,1,0,1,0,0,1,1,9,,,,,,,,,,,,,,,,,,,,,,,,,,,,,,,,,,,,,,,,205.2522882099729,205.2522882099729,205.2522882099729,205.2522882099729,205.2522882099729,205.2522882099729,205.2522882099729,205.2522882099729,205.2522882099729,205.2522882099729,l,0.7504185400903225,1,320,1,206.02141644898802,207.5215653348714,,,,,,,,,,,,,,,,,,,,,,,,,,,,,,,,,,,,,,,,,,,,,,,,,,,,,,,,,,,,,,,,,,,,,,,11801,2022-11-22_13h32.37.848,vts_reward_expectancy_bt_OFFLINE,2022.2.4,59.95980258642396,
0,1,0,0,0,0,0,1,circle,star,1,0,1,0,0,2,2,5,,,,,,,,,,,,,,,,,,,,,,,,,,,,,,,,,,,,,,,,208.02180020301603,208.02180020301603,208.02180020301603,208.02180020301603,208.02180020301603,208.02180020301603,208.02180020301603,208.02180020301603,208.02180020301603,208.02180020301603,a,0.6016022539697587,10,330,1,208.6557136119809,210.15588430385105,210.15588430385105,210.65591813297942,,,,,,,,,,,,,,,,,,,,,,,,,,,,,,,,,,,,,,,,,,,,,,,,,,,,,,,,,,,,,,,,,,,,,11801,2022-11-22_13h32.37.848,vts_reward_expectancy_bt_OFFLINE,2022.2.4,59.95980258642396,
0,1,0,0,0,0,1,0,circle,hexagon,1,0,1,0,0,3,3,4,,,,,,,,,,,,,,,,,,,,,,,,,,,,,,,,,,,,,,,,210.65591813297942,210.65591813297942,210.65591813297942,210.65591813297942,210.65591813297942,210.65591813297942,210.65591813297942,210.65591813297942,210.65591813297942,210.65591813297942,a,0.9940519852098078,10,340,1,211.6730677408632,213.1756310048513,,,,,,,,,,,,,,,,,,,,,,,,,,,,,,,,,,,,,,,,,,,,,,,,,,,,,,,,,,,,,,,,,,,,,,,11801,2022-11-22_13h32.37.848,vts_reward_expectancy_bt_OFFLINE,2022.2.4,59.95980258642396,
0,0,1,0,0,0,0,1,hexagon,star,1,0,1,0,0,4,4,8,,,,,,,,,,,,,,,,,,,,,,,,,,,,,,,,,,,,,,,,213.67552831303328,213.67552831303328,213.67552831303328,213.67552831303328,213.67552831303328,213.67552831303328,213.67552831303328,213.67552831303328,213.67552831303328,213.67552831303328,l,1.9240093850530684,1,341,1,215.62797710183077,217.12868925882503,,,,,,,,,,,,,,,,,,,,,,,,,,,,,,,,,,,,,,,,,,,,,,,,,,,,,,,,,,,,,,,,,,,,,,,11801,2022-11-22_13h32.37.848,vts_reward_expectancy_bt_OFFLINE,2022.2.4,59.95980258642396,
1,0,0,0,0,1,0,0,triangle,circle,1,0,1,0,0,5,5,0,,,,,,,,,,,,,,,,,,,,,,,,,,,,,,,,,,,,,,,,217.62884034891613,217.62884034891613,217.62884034891613,217.62884034891613,217.62884034891613,217.62884034891613,217.62884034891613,217.62884034891613,217.62884034891613,217.62884034891613,l,0.5926318031270057,10,351,1,218.24774053297006,219.76292480481789,,,,,,,,,,,,,,,,,,,,,,,,,,,,,,,,,,,,,,,,,,,,,,,,,,,,,,,,,,,,,,,,,,,,,,,11801,2022-11-22_13h32.37.848,vts_reward_expectancy_bt_OFFLINE,2022.2.4,59.95980258642396,
1,0,0,0,0,0,1,0,triangle,hexagon,1,0,1,0,0,6,6,1,,,,,,,,,,,,,,,,,,,,,,,,,,,,,,,,,,,,,,,,220.26302049588412,220.26302049588412,220.26302049588412,220.26302049588412,220.26302049588412,220.26302049588412,220.26302049588412,220.26302049588412,220.26302049588412,220.26302049588412,a,1.0284512599464506,1,352,1,221.3150590369478,222.81597484485246,,,,,,,,,,,,,,,,,,,,,,,,,,,,,,,,,,,,,,,,,,,,,,,,,,,,,,,,,,,,,,,,,,,,,,,11801,2022-11-22_13h32.37.848,vts_reward_expectancy_bt_OFFLINE,2022.2.4,59.95980258642396,
0,0,1,0,1,0,0,0,hexagon,triangle,1,0,1,0,0,7,7,6,,,,,,,,,,,,,,,,,,,,,,,,,,,,,,,,,,,,,,,,223.31604963098653,223.31604963098653,223.31604963098653,223.31604963098653,223.31604963098653,223.31604963098653,223.31604963098653,223.31604963098653,223.31604963098653,223.31604963098653,a,0.7541540469974279,10,362,1,224.10157269681804,225.61710974294692,,,,,,,,,,,,,,,,,,,,,,,,,,,,,,,,,,,,,,,,,,,,,,,,,,,,,,,,,,,,,,,,,,,,,,,11801,2022-11-22_13h32.37.848,vts_reward_expectancy_bt_OFFLINE,2022.2.4,59.95980258642396,
0,1,0,0,1,0,0,0,circle,triangle,1,0,1,0,0,8,8,3,,,,,,,,,,,,,,,,,,,,,,,,,,,,,,,,,,,,,,,,226.10047388100065,226.10047388100065,226.10047388100065,226.10047388100065,226.10047388100065,226.10047388100065,226.10047388100065,226.10047388100065,226.10047388100065,226.10047388100065,a,1.143272889079526,10,372,1,227.2695221779868,228.7698662879411,228.7698662879411,229.27011029189453,,,,,,,,,,,,,,,,,,,,,,,,,,,,,,,,,,,,,,,,,,,,,,,,,,,,,,,,,,,,,,,,,,,,,11801,2022-11-22_13h32.37.848,vts_reward_expectancy_bt_OFFLINE,2022.2.4,59.95980258642396,
0,0,1,0,0,1,0,0,hexagon,circle,1,0,1,0,0,9,9,7,,,,,,,,,,,,,,,,,,,,,,,,,,,,,,,,,,,,,,,,229.27011029189453,229.27011029189453,229.27011029189453,229.27011029189453,229.27011029189453,229.27011029189453,229.27011029189453,229.27011029189453,229.27011029189453,229.27011029189453,l,1.4389858541544527,10,382,1,230.73741209786385,232.23993132193573,,,,,,,,,,,,,,,,,,,,,,,,,,,,,,,,,,,,,,,,,,,,,,,,,,,,,,,,,,,,,,,,,,,,,,,11801,2022-11-22_13h32.37.848,vts_reward_expectancy_bt_OFFLINE,2022.2.4,59.95980258642396,
0,0,0,1,0,1,0,0,star ,circle,1,0,1,0,0,10,10,10,,,,,,,,,,,,,,,,,,,,,,,,,,,,,,,,,,,,,,,,232.7399910739623,232.7399910739623,232.7399910739623,232.7399910739623,232.7399910739623,232.7399910739623,232.7399910739623,232.7399910739623,232.7399910739623,232.7399910739623,l,0.6681249642278999,1,383,1,233.44096812792122,234.94073015102185,234.94073015102185,235.44072743784636,,,,,,,,,,,,,,,,,,,,,,,,,,,,,,,,,,,,,,,,,,,,,,,,,,,,,,,,,,,,,,,,,,,,,11801,2022-11-22_13h32.37.848,vts_reward_expectancy_bt_OFFLINE,2022.2.4,59.95980258642396,
1,0,0,0,0,0,0,1,triangle,star,1,0,1,0,0,11,11,2,,,,,,,,,,,,,,,,,,,,,,,,,,,,,,,,,,,,,,,,235.44072743784636,235.44072743784636,235.44072743784636,235.44072743784636,235.44072743784636,235.44072743784636,235.44072743784636,235.44072743784636,235.44072743784636,235.44072743784636,a,0.6682150550186634,1,384,1,236.14113843394443,237.6435665448662,,,,,,,,,,,,,,,,,,,,,,,,,,,,,,,,,,,,,,,,,,,,,,,,,,,,,,,,,,,,,,,,,,,,,,,11801,2022-11-22_13h32.37.848,vts_reward_expectancy_bt_OFFLINE,2022.2.4,59.95980258642396,
0,0,0,1,0,0,1,0,star,hexagon,1,0,1,0,1,0,12,11,,,,,,,,,,,,,,,,,,,,,,,,,,,,,,,,,,,,,,,,238.1437425268814,238.1437425268814,238.1437425268814,238.1437425268814,238.1437425268814,238.1437425268814,238.1437425268814,238.1437425268814,238.1437425268814,238.1437425268814,a,0.8449614471755922,1,385,1,239.01066607888788,240.51113114901818,240.51113114901818,241.01130632590503,,,,,,,,,,,,,,,,,,,,,,,,,,,,,,,,,,,,,,,,,,,,,,,,,,,,,,,,,,,,,,,,,,,,,11801,2022-11-22_13h32.37.848,vts_reward_expectancy_bt_OFFLINE,2022.2.4,59.95980258642396,
1,0,0,0,0,1,0,0,triangle,circle,1,0,1,0,1,1,13,0,,,,,,,,,,,,,,,,,,,,,,,,,,,,,,,,,,,,,,,,241.01130632590503,241.01130632590503,241.01130632590503,241.01130632590503,241.01130632590503,241.01130632590503,241.01130632590503,241.01130632590503,241.01130632590503,241.01130632590503,l,0.7235737920273095,10,395,1,241.76372512592934,243.26400581002235,,,,,,,,,,,,,,,,,,,,,,,,,,,,,,,,,,,,,,,,,,,,,,,,,,,,,,,,,,,,,,,,,,,,,,,11801,2022-11-22_13h32.37.848,vts_reward_expectancy_bt_OFFLINE,2022.2.4,59.95980258642396,
0,0,1,0,0,1,0,0,hexagon,circle,1,0,1,0,1,2,14,7,,,,,,,,,,,,,,,,,,,,,,,,,,,,,,,,,,,,,,,,243.76427809381858,243.76427809381858,243.76427809381858,243.76427809381858,243.76427809381858,243.76427809381858,243.76427809381858,243.76427809381858,243.76427809381858,243.76427809381858,l,0.592539181932807,1,396,1,244.38314089388587,245.8982467208989,,,,,,,,,,,,,,,,,,,,,,,,,,,,,,,,,,,,,,,,,,,,,,,,,,,,,,,,,,,,,,,,,,,,,,,11801,2022-11-22_13h32.37.848,vts_reward_expectancy_bt_OFFLINE,2022.2.4,59.95980258642396,
1,0,0,0,0,0,1,0,triangle,hexagon,1,0,1,0,1,3,15,1,,,,,,,,,,,,,,,,,,,,,,,,,,,,,,,,,,,,,,,,246.3985031468328,246.3985031468328,246.3985031468328,246.3985031468328,246.3985031468328,246.3985031468328,246.3985031468328,246.3985031468328,246.3985031468328,246.3985031468328,l,0.8149504789616913,10,406,1,247.23578581493348,248.75118795898743,,,,,,,,,,,,,,,,,,,,,,,,,,,,,,,,,,,,,,,,,,,,,,,,,,,,,,,,,,,,,,,,,,,,,,,11801,2022-11-22_13h32.37.848,vts_reward_expectancy_bt_OFFLINE,2022.2.4,59.95980258642396,
0,1,0,0,1,0,0,0,circle,triangle,1,0,1,0,1,4,16,3,,,,,,,,,,,,,,,,,,,,,,,,,,,,,,,,,,,,,,,,249.25150981801562,249.25150981801562,249.25150981801562,249.25150981801562,249.25150981801562,249.25150981801562,249.25150981801562,249.25150981801562,249.25150981801562,249.25150981801562,a,0.7513618289958686,1,407,1,250.03596290387213,251.53544584685005,251.53544584685005,,,,,,,,,,,,,,,,,,,,,,,,,,,,,,,,,,,,,,,,,,,,,,,,,,,,,,,,,,,,,,,,,,,,,,11801,2022-11-22_13h32.37.848,vts_reward_expectancy_bt_OFFLINE,2022.2.4,59.95980258642396,
0,1,0,0,0,0,1,0,circle,hexagon,1,0,1,0,1,5,17,4,,,,,,,,,,,,,,,,,,,,,,,,,,,,,,,,,,,,,,,,252.0374667600263,252.0374667600263,252.0374667600263,252.0374667600263,252.0374667600263,252.0374667600263,252.0374667600263,252.0374667600263,252.0374667600263,252.0374667600263,a,1.9712811540812254,10,417,1,254.04000225290656,255.55536004295573,,,,,,,,,,,,,,,,,,,,,,,,,,,,,,,,,,,,,,,,,,,,,,,,,,,,,,,,,,,,,,,,,,,,,,,11801,2022-11-22_13h32.37.848,vts_reward_expectancy_bt_OFFLINE,2022.2.4,59.95980258642396,
0,0,0,1,0,1,0,0,star ,circle,1,0,1,0,1,6,18,10,,,,,,,,,,,,,,,,,,,,,,,,,,,,,,,,,,,,,,,,256.0555523908697,256.0555523908697,256.0555523908697,256.0555523908697,256.0555523908697,256.0555523908697,256.0555523908697,256.0555523908697,256.0555523908697,256.0555523908697,l,0.6977675321977586,10,427,1,256.77265924890526,258.274755098857,,,,,,,,,,,,,,,,,,,,,,,,,,,,,,,,,,,,,,,,,,,,,,,,,,,,,,,,,,,,,,,,,,,,,,,11801,2022-11-22_13h32.37.848,vts_reward_expectancy_bt_OFFLINE,2022.2.4,59.95980258642396,
0,0,0,1,1,0,0,0,star,triangle,1,0,1,0,1,7,19,9,,,,,,,,,,,,,,,,,,,,,,,,,,,,,,,,,,,,,,,,258.7750648900401,258.7750648900401,258.7750648900401,258.7750648900401,258.7750648900401,258.7750648900401,258.7750648900401,258.7750648900401,258.7750648900401,258.7750648900401,a,1.0502508911304176,1,428,1,259.84392147883773,261.35926542803645,,,,,,,,,,,,,,,,,,,,,,,,,,,,,,,,,,,,,,,,,,,,,,,,,,,,,,,,,,,,,,,,,,,,,,,11801,2022-11-22_13h32.37.848,vts_reward_expectancy_bt_OFFLINE,2022.2.4,59.95980258642396,
0,0,1,0,1,0,0,0,hexagon,triangle,1,0,1,0,1,8,20,6,,,,,,,,,,,,,,,,,,,,,,,,,,,,,,,,,,,,,,,,261.8594079320319,261.8594079320319,261.8594079320319,261.8594079320319,261.8594079320319,261.8594079320319,261.8594079320319,261.8594079320319,261.8594079320319,261.8594079320319,a,0.7892111309338361,10,438,1,262.6801517459098,264.1957792819012,,,,,,,,,,,,,,,,,,,,,,,,,,,,,,,,,,,,,,,,,,,,,,,,,,,,,,,,,,,,,,,,,,,,,,,11801,2022-11-22_13h32.37.848,vts_reward_expectancy_bt_OFFLINE,2022.2.4,59.95980258642396,
0,1,0,0,0,0,0,1,circle,star,1,0,1,0,1,9,21,5,,,,,,,,,,,,,,,,,,,,,,,,,,,,,,,,,,,,,,,,264.69548031687737,264.69548031687737,264.69548031687737,264.69548031687737,264.69548031687737,264.69548031687737,264.69548031687737,264.69548031687737,264.69548031687737,264.69548031687737,a,0.8455107139889151,10,448,1,265.56256029289216,267.0650683469139,,,,,,,,,,,,,,,,,,,,,,,,,,,,,,,,,,,,,,,,,,,,,,,,,,,,,,,,,,,,,,,,,,,,,,,11801,2022-11-22_13h32.37.848,vts_reward_expectancy_bt_OFFLINE,2022.2.4,59.95980258642396,
0,0,1,0,0,0,0,1,hexagon,star,1,0,1,0,1,10,22,8,,,,,,,,,,,,,,,,,,,,,,,,,,,,,,,,,,,,,,,,267.5651134438813,267.5651134438813,267.5651134438813,267.5651134438813,267.5651134438813,267.5651134438813,267.5651134438813,267.5651134438813,267.5651134438813,267.5651134438813,a,0.967482530977577,10,458,1,268.54957682895474,270.04941468383186,270.04941468383186,270.5496278819628,,,,,,,,,,,,,,,,,,,,,,,,,,,,,,,,,,,,,,,,,,,,,,,,,,,,,,,,,,,,,,,,,,,,,11801,2022-11-22_13h32.37.848,vts_reward_expectancy_bt_OFFLINE,2022.2.4,59.95980258642396,
1,0,0,0,0,0,0,1,triangle,star,1,0,1,0,1,11,23,2,,,,,,,,,,,,,,,,,,,,,,,,,,,,,,,,,,,,,,,,270.5496278819628,270.5496278819628,270.5496278819628,270.5496278819628,270.5496278819628,270.5496278819628,270.5496278819628,270.5496278819628,270.5496278819628,270.5496278819628,l,1.156829551095143,1,459,1,271.73558101500385,273.23590028402396,,,,,,,,,,,,,,,,,,,,,,,,,,,,,,,,,,,,,,,,,,,,,,,,,,,,,,,,,,,,,,,,,,,,,,,11801,2022-11-22_13h32.37.848,vts_reward_expectancy_bt_OFFLINE,2022.2.4,59.95980258642396,
0,0,0,1,0,0,1,0,star,hexagon,1,0,1,0,2,0,24,11,,,,,,,,,,,,,,,,,,,,,,,,,,,,,,,,,,,,,,,,273.73593211197294,273.73593211197294,273.73593211197294,273.73593211197294,273.73593211197294,273.73593211197294,273.73593211197294,273.73593211197294,273.73593211197294,273.73593211197294,l,0.7041920800693333,10,469,1,274.4717362858355,275.98698862385936,,,,,,,,,,,,,,,,,,,,,,,,,,,,,,,,,,,,,,,,,,,,,,,,,,,,,,,,,,,,,,,,,,,,,,,11801,2022-11-22_13h32.37.848,vts_reward_expectancy_bt_OFFLINE,2022.2.4,59.95980258642396,
0,0,1,0,0,1,0,0,hexagon,circle,1,0,1,0,2,1,25,7,,,,,,,,,,,,,,,,,,,,,,,,,,,,,,,,,,,,,,,,276.4868804968428,276.4868804968428,276.4868804968428,276.4868804968428,276.4868804968428,276.4868804968428,276.4868804968428,276.4868804968428,276.4868804968428,276.4868804968428,a,1.1368881831876934,1,470,1,277.65587080991827,279.15626634587534,279.15626634587534,279.6567716849968,,,,,,,,,,,,,,,,,,,,,,,,,,,,,,,,,,,,,,,,,,,,,,,,,,,,,,,,,,,,,,,,,,,,,11801,2022-11-22_13h32.37.848,vts_reward_expectancy_bt_OFFLINE,2022.2.4,59.95980258642396,
0,1,0,0,0,0,1,0,circle,hexagon,1,0,1,0,2,2,26,4,,,,,,,,,,,,,,,,,,,,,,,,,,,,,,,,,,,,,,,,279.6567716849968,279.6567716849968,279.6567716849968,279.6567716849968,279.6567716849968,279.6567716849968,279.6567716849968,279.6567716849968,279.6567716849968,279.6567716849968,a,2.005915426183492,10,480,1,281.6928998150397,283.1929689729586,,,,,,,,,,,,,,,,,,,,,,,,,,,,,,,,,,,,,,,,,,,,,,,,,,,,,,,,,,,,,,,,,,,,,,,11801,2022-11-22_13h32.37.848,vts_reward_expectancy_bt_OFFLINE,2022.2.4,59.95980258642396,
0,0,1,0,1,0,0,0,hexagon,triangle,1,0,1,0,2,3,27,6,,,,,,,,,,,,,,,,,,,,,,,,,,,,,,,,,,,,,,,,283.69334549596533,283.69334549596533,283.69334549596533,283.69334549596533,283.69334549596533,283.69334549596533,283.69334549596533,283.69334549596533,283.69334549596533,283.69334549596533,a,0.8154563731513917,10,490,1,284.52694135694765,286.02744163782336,286.02744163782336,,,,,,,,,,,,,,,,,,,,,,,,,,,,,,,,,,,,,,,,,,,,,,,,,,,,,,,,,,,,,,,,,,,,,,11801,2022-11-22_13h32.37.848,vts_reward_expectancy_bt_OFFLINE,2022.2.4,59.95980258642396,
0,0,1,0,0,0,0,1,hexagon,star,1,0,1,0,2,4,28,8,,,,,,,,,,,,,,,,,,,,,,,,,,,,,,,,,,,,,,,,286.5276060618926,286.5276060618926,286.5276060618926,286.5276060618926,286.5276060618926,286.5276060618926,286.5276060618926,286.5276060618926,286.5276060618926,286.5276060618926,a,0.7147513399831951,1,491,1,287.26497226790525,288.7800819298718,,,,,,,,,,,,,,,,,,,,,,,,,,,,,,,,,,,,,,,,,,,,,,,,,,,,,,,,,,,,,,,,,,,,,,,11801,2022-11-22_13h32.37.848,vts_reward_expectancy_bt_OFFLINE,2022.2.4,59.95980258642396,
0,0,0,1,0,1,0,0,star ,circle,1,0,1,0,2,5,29,10,,,,,,,,,,,,,,,,,,,,,,,,,,,,,,,,,,,,,,,,289.2637332158629,289.2637332158629,289.2637332158629,289.2637332158629,289.2637332158629,289.2637332158629,289.2637332158629,289.2637332158629,289.2637332158629,289.2637332158629,l,0.713325449032709,10,501,1,289.9996339818463,291.5146264808718,,,,,,,,,,,,,,,,,,,,,,,,,,,,,,,,,,,,,,,,,,,,,,,,,,,,,,,,,,,,,,,,,,,,,,,11801,2022-11-22_13h32.37.848,vts_reward_expectancy_bt_OFFLINE,2022.2.4,59.95980258642396,
0,1,0,0,0,0,0,1,circle,star,1,0,1,0,2,6,30,5,,,,,,,,,,,,,,,,,,,,,,,,,,,,,,,,,,,,,,,,292.00824067695066,292.00824067695066,292.00824067695066,292.00824067695066,292.00824067695066,292.00824067695066,292.00824067695066,292.00824067695066,292.00824067695066,292.00824067695066,a,0.5226569049991667,10,511,1,292.55045863590203,294.05056720995344,294.05056720995344,294.5508366918657,,,,,,,,,,,,,,,,,,,,,,,,,,,,,,,,,,,,,,,,,,,,,,,,,,,,,,,,,,,,,,,,,,,,,11801,2022-11-22_13h32.37.848,vts_reward_expectancy_bt_OFFLINE,2022.2.4,59.95980258642396,
0,1,0,0,1,0,0,0,circle,triangle,1,0,1,0,2,7,31,3,,,,,,,,,,,,,,,,,,,,,,,,,,,,,,,,,,,,,,,,294.5508366918657,294.5508366918657,294.5508366918657,294.5508366918657,294.5508366918657,294.5508366918657,294.5508366918657,294.5508366918657,294.5508366918657,294.5508366918657,a,0.6682036970742047,10,521,1,295.2512688229326,296.7515666508116,296.7515666508116,,,,,,,,,,,,,,,,,,,,,,,,,,,,,,,,,,,,,,,,,,,,,,,,,,,,,,,,,,,,,,,,,,,,,,11801,2022-11-22_13h32.37.848,vts_reward_expectancy_bt_OFFLINE,2022.2.4,59.95980258642396,
1,0,0,0,0,0,1,0,triangle,hexagon,1,0,1,0,2,8,32,1,,,,,,,,,,,,,,,,,,,,,,,,,,,,,,,,,,,,,,,,297.25370719190687,297.25370719190687,297.25370719190687,297.25370719190687,297.25370719190687,297.25370719190687,297.25370719190687,297.25370719190687,297.25370719190687,297.25370719190687,l,0.6541523199994117,10,531,1,297.93721311492845,299.43800632399507,299.43800632399507,299.93773245997727,,,,,,,,,,,,,,,,,,,,,,,,,,,,,,,,,,,,,,,,,,,,,,,,,,,,,,,,,,,,,,,,,,,,,11801,2022-11-22_13h32.37.848,vts_reward_expectancy_bt_OFFLINE,2022.2.4,59.95980258642396,
1,0,0,0,0,1,0,0,triangle,circle,1,0,1,0,2,9,33,0,,,,,,,,,,,,,,,,,,,,,,,,,,,,,,,,,,,,,,,,299.93773245997727,299.93773245997727,299.93773245997727,299.93773245997727,299.93773245997727,299.93773245997727,299.93773245997727,299.93773245997727,299.93773245997727,299.93773245997727,l,0.772368434118107,10,541,1,300.73873951099813,302.2405590189155,,,,,,,,,,,,,,,,,,,,,,,,,,,,,,,,,,,,,,,,,,,,,,,,,,,,,,,,,,,,,,,,,,,,,,,11801,2022-11-22_13h32.37.848,vts_reward_expectancy_bt_OFFLINE,2022.2.4,59.95980258642396,
0,0,0,1,1,0,0,0,star,triangle,1,0,1,0,2,10,34,9,,,,,,,,,,,,,,,,,,,,,,,,,,,,,,,,,,,,,,,,302.7406733329408,302.7406733329408,302.7406733329408,302.7406733329408,302.7406733329408,302.7406733329408,302.7406733329408,302.7406733329408,302.7406733329408,302.7406733329408,l,1.231329585891217,1,542,1,303.99335716688074,305.50840061903,,,,,,,,,,,,,,,,,,,,,,,,,,,,,,,,,,,,,,,,,,,,,,,,,,,,,,,,,,,,,,,,,,,,,,,11801,2022-11-22_13h32.37.848,vts_reward_expectancy_bt_OFFLINE,2022.2.4,59.95980258642396,
1,0,0,0,0,0,0,1,triangle,star,1,0,1,0,2,11,35,2,,,,,,,,,,,,,,,,,,,,,,,,,,,,,,,,,,,,,,,,306.00844664499164,306.00844664499164,306.00844664499164,306.00844664499164,306.00844664499164,306.00844664499164,306.00844664499164,306.00844664499164,306.00844664499164,306.00844664499164,a,0.5631644539535046,1,543,1,306.59194523096085,308.0945474950131,,,,,,,,,,,,,,,,,,,,,,,,,,,,,,,,,,,,,,,,,,,,,,,,,,,,,,,,,,,,,,,,,,,,,,,11801,2022-11-22_13h32.37.848,vts_reward_expectancy_bt_OFFLINE,2022.2.4,59.95980258642396,
0,0,0,1,1,0,0,0,star,triangle,1,0,1,0,3,0,36,9,,,,,,,,,,,,,,,,,,,,,,,,,,,,,,,,,,,,,,,,308.59499855991453,308.59499855991453,308.59499855991453,308.59499855991453,308.59499855991453,308.59499855991453,308.59499855991453,308.59499855991453,308.59499855991453,308.59499855991453,a,0.7884751558303833,10,553,1,309.4139516269788,310.92903497000225,,,,,,,,,,,,,,,,,,,,,,,,,,,,,,,,,,,,,,,,,,,,,,,,,,,,,,,,,,,,,,,,,,,,,,,11801,2022-11-22_13h32.37.848,vts_reward_expectancy_bt_OFFLINE,2022.2.4,59.95980258642396,
1,0,0,0,0,1,0,0,triangle,circle,1,0,1,0,3,1,37,0,,,,,,,,,,,,,,,,,,,,,,,,,,,,,,,,,,,,,,,,311.42889889795333,311.42889889795333,311.42889889795333,311.42889889795333,311.42889889795333,311.42889889795333,311.42889889795333,311.42889889795333,311.42889889795333,311.42889889795333,l,1.0945062120445073,10,563,1,312.54819654487073,314.0485729868524,314.0485729868524,314.54859936702996,,,,,,,,,,,,,,,,,,,,,,,,,,,,,,,,,,,,,,,,,,,,,,,,,,,,,,,,,,,,,,,,,,,,,11801,2022-11-22_13h32.37.848,vts_reward_expectancy_bt_OFFLINE,2022.2.4,59.95980258642396,
1,0,0,0,0,0,1,0,triangle,hexagon,1,0,1,0,3,2,38,1,,,,,,,,,,,,,,,,,,,,,,,,,,,,,,,,,,,,,,,,314.54859936702996,314.54859936702996,314.54859936702996,314.54859936702996,314.54859936702996,314.54859936702996,314.54859936702996,314.54859936702996,314.54859936702996,314.54859936702996,l,1.630179411964491,10,573,1,316.1995529048145,317.70146050094627,,,,,,,,,,,,,,,,,,,,,,,,,,,,,,,,,,,,,,,,,,,,,,,,,,,,,,,,,,,,,,,,,,,,,,,11801,2022-11-22_13h32.37.848,vts_reward_expectancy_bt_OFFLINE,2022.2.4,59.95980258642396,
0,1,0,0,1,0,0,0,circle,triangle,1,0,1,0,3,3,39,3,,,,,,,,,,,,,,,,,,,,,,,,,,,,,,,,,,,,,,,,318.2019350370392,318.2019350370392,318.2019350370392,318.2019350370392,318.2019350370392,318.2019350370392,318.2019350370392,318.2019350370392,318.2019350370392,318.2019350370392,a,0.9927445980720222,10,583,1,319.219078078866,320.7194257909432,320.7194257909432,321.2195841600187,,,,,,,,,,,,,,,,,,,,,,,,,,,,,,,,,,,,,,,,,,,,,,,,,,,,,,,,,,,,,,,,,,,,,11801,2022-11-22_13h32.37.848,vts_reward_expectancy_bt_OFFLINE,2022.2.4,59.95980258642396,
1,0,0,0,0,0,0,1,triangle,star,1,0,1,0,3,4,40,2,,,,,,,,,,,,,,,,,,,,,,,,,,,,,,,,,,,,,,,,321.2195841600187,321.2195841600187,321.2195841600187,321.2195841600187,321.2195841600187,321.2195841600187,321.2195841600187,321.2195841600187,321.2195841600187,321.2195841600187,l,0.7540650670416653,1,584,1,322.0048975488171,323.50567528791726,,,,,,,,,,,,,,,,,,,,,,,,,,,,,,,,,,,,,,,,,,,,,,,,,,,,,,,,,,,,,,,,,,,,,,,11801,2022-11-22_13h32.37.848,vts_reward_expectancy_bt_OFFLINE,2022.2.4,59.95980258642396,
0,1,0,0,0,0,1,0,circle,hexagon,1,0,1,0,3,5,41,4,,,,,,,,,,,,,,,,,,,,,,,,,,,,,,,,,,,,,,,,324.0059860430192,324.0059860430192,324.0059860430192,324.0059860430192,324.0059860430192,324.0059860430192,324.0059860430192,324.0059860430192,324.0059860430192,324.0059860430192,a,1.1962688989005983,10,594,1,325.22518635191955,326.74003077694215,,,,,,,,,,,,,,,,,,,,,,,,,,,,,,,,,,,,,,,,,,,,,,,,,,,,,,,,,,,,,,,,,,,,,,,11801,2022-11-22_13h32.37.848,vts_reward_expectancy_bt_OFFLINE,2022.2.4,59.95980258642396,
0,0,1,0,0,1,0,0,hexagon,circle,1,0,1,0,3,6,42,7,,,,,,,,,,,,,,,,,,,,,,,,,,,,,,,,,,,,,,,,327.22546639386564,327.22546639386564,327.22546639386564,327.22546639386564,327.22546639386564,327.22546639386564,327.22546639386564,327.22546639386564,327.22546639386564,327.22546639386564,a,0.8679383411072195,10,604,1,328.1258115649689,329.6262183408253,329.6262183408253,330.1264509188477,,,,,,,,,,,,,,,,,,,,,,,,,,,,,,,,,,,,,,,,,,,,,,,,,,,,,,,,,,,,,,,,,,,,,11801,2022-11-22_13h32.37.848,vts_reward_expectancy_bt_OFFLINE,2022.2.4,59.95980258642396,
0,0,0,1,0,0,1,0,star,hexagon,1,0,1,0,3,7,43,11,,,,,,,,,,,,,,,,,,,,,,,,,,,,,,,,,,,,,,,,330.1264509188477,330.1264509188477,330.1264509188477,330.1264509188477,330.1264509188477,330.1264509188477,330.1264509188477,330.1264509188477,330.1264509188477,330.1264509188477,l,0.6554746229667217,10,614,1,330.8101571628358,332.3121891550254,,,,,,,,,,,,,,,,,,,,,,,,,,,,,,,,,,,,,,,,,,,,,,,,,,,,,,,,,,,,,,,,,,,,,,,11801,2022-11-22_13h32.37.848,vts_reward_expectancy_bt_OFFLINE,2022.2.4,59.95980258642396,
0,0,0,1,0,1,0,0,star ,circle,1,0,1,0,3,8,44,10,,,,,,,,,,,,,,,,,,,,,,,,,,,,,,,,,,,,,,,,332.812616384821,332.812616384821,332.812616384821,332.812616384821,332.812616384821,332.812616384821,332.812616384821,332.812616384821,332.812616384821,332.812616384821,l,0.6593394980300218,10,624,1,333.4968195639085,334.99683359102346,334.99683359102346,335.49676002399065,,,,,,,,,,,,,,,,,,,,,,,,,,,,,,,,,,,,,,,,,,,,,,,,,,,,,,,,,,,,,,,,,,,,,11801,2022-11-22_13h32.37.848,vts_reward_expectancy_bt_OFFLINE,2022.2.4,59.95980258642396,
0,0,1,0,1,0,0,0,hexagon,triangle,1,0,1,0,3,9,45,6,,,,,,,,,,,,,,,,,,,,,,,,,,,,,,,,,,,,,,,,335.49676002399065,335.49676002399065,335.49676002399065,335.49676002399065,335.49676002399065,335.49676002399065,335.49676002399065,335.49676002399065,335.49676002399065,335.49676002399065,l,1.665311569115147,1,625,1,337.1847653698642,338.7000619128812,,,,,,,,,,,,,,,,,,,,,,,,,,,,,,,,,,,,,,,,,,,,,,,,,,,,,,,,,,,,,,,,,,,,,,,11801,2022-11-22_13h32.37.848,vts_reward_expectancy_bt_OFFLINE,2022.2.4,59.95980258642396,
0,0,1,0,0,0,0,1,hexagon,star,1,0,1,0,3,10,46,8,,,,,,,,,,,,,,,,,,,,,,,,,,,,,,,,,,,,,,,,339.2001080319751,339.2001080319751,339.2001080319751,339.2001080319751,339.2001080319751,339.2001080319751,339.2001080319751,339.2001080319751,339.2001080319751,339.2001080319751,a,1.7082948121242225,10,635,1,340.93648760486394,342.4361929388251,,,,,,,,,,,,,,,,,,,,,,,,,,,,,,,,,,,,,,,,,,,,,,,,,,,,,,,,,,,,,,,,,,,,,,,11801,2022-11-22_13h32.37.848,vts_reward_expectancy_bt_OFFLINE,2022.2.4,59.95980258642396,
0,1,0,0,0,0,0,1,circle,star,1,0,1,0,3,11,47,5,,,,,,,,,,,,,,,,,,,,,,,,,,,,,,,,,,,,,,,,342.93652166589163,342.93652166589163,342.93652166589163,342.93652166589163,342.93652166589163,342.93652166589163,342.93652166589163,342.93652166589163,342.93652166589163,342.93652166589163,a,0.7505056760273874,10,645,1,343.7042434220202,345.20406252588145,345.20406252588145,345.71136732702143,,,,,,,,,,,,,,,,,,,,,,,,,,,,,,,,,,,,,,,,,,,,,,,,,,,,,,,,,,,,,,,,,,,,,11801,2022-11-22_13h32.37.848,vts_reward_expectancy_bt_OFFLINE,2022.2.4,59.95980258642396,
0,1,0,0,0,0,0,1,circle,star,2,0,2,0,0,0,0,5,,,,,,,,,,,,,,,,,,,,,,,,,,,,,,,,,,,,,,,,358.9421064599883,358.9421064599883,358.9421064599883,358.9421064599883,358.9421064599883,358.9421064599883,358.9421064599883,358.9421064599883,358.9421064599883,358.9421064599883,a,1.1704580811783671,10,655,2,360.13201745483093,361.6322311789263,361.6322311789263,,,,,,,,,,,,,,,,,,,,,,,,,,,,,,,,,,,,,,,,,,,,,,,,,,,,,,,,,,,,,,,,,,,,,,11801,2022-11-22_13h32.37.848,vts_reward_expectancy_bt_OFFLINE,2022.2.4,59.95980258642396,
0,1,0,0,1,0,0,0,circle,triangle,2,0,2,0,0,1,1,3,,,,,,,,,,,,,,,,,,,,,,,,,,,,,,,,,,,,,,,,362.1342857859563,362.1342857859563,362.1342857859563,362.1342857859563,362.1342857859563,362.1342857859563,362.1342857859563,362.1342857859563,362.1342857859563,362.1342857859563,a,0.7793941230047494,10,665,2,362.9346241450403,364.43501573684625,364.43501573684625,364.9351818289142,,,,,,,,,,,,,,,,,,,,,,,,,,,,,,,,,,,,,,,,,,,,,,,,,,,,,,,,,,,,,,,,,,,,,11801,2022-11-22_13h32.37.848,vts_reward_expectancy_bt_OFFLINE,2022.2.4,59.95980258642396,
1,0,0,0,0,1,0,0,triangle,circle,2,0,2,0,0,2,2,0,,,,,,,,,,,,,,,,,,,,,,,,,,,,,,,,,,,,,,,,364.9351818289142,364.9351818289142,364.9351818289142,364.9351818289142,364.9351818289142,364.9351818289142,364.9351818289142,364.9351818289142,364.9351818289142,364.9351818289142,l,0.6117926449514925,10,675,2,365.5694252469111,367.07431248691864,,,,,,,,,,,,,,,,,,,,,,,,,,,,,,,,,,,,,,,,,,,,,,,,,,,,,,,,,,,,,,,,,,,,,,,11801,2022-11-22_13h32.37.848,vts_reward_expectancy_bt_OFFLINE,2022.2.4,59.95980258642396,
0,0,0,1,0,1,0,0,star ,circle,2,0,2,0,0,3,3,10,,,,,,,,,,,,,,,,,,,,,,,,,,,,,,,,,,,,,,,,367.5713710729033,367.5713710729033,367.5713710729033,367.5713710729033,367.5713710729033,367.5713710729033,367.5713710729033,367.5713710729033,367.5713710729033,367.5713710729033,l,0.5745699980761856,10,685,2,368.172133582877,369.6721780828666,369.6721780828666,370.1723446198739,,,,,,,,,,,,,,,,,,,,,,,,,,,,,,,,,,,,,,,,,,,,,,,,,,,,,,,,,,,,,,,,,,,,,11801,2022-11-22_13h32.37.848,vts_reward_expectancy_bt_OFFLINE,2022.2.4,59.95980258642396,
0,0,1,0,0,0,0,1,hexagon,star,2,0,2,0,0,4,4,8,,,,,,,,,,,,,,,,,,,,,,,,,,,,,,,,,,,,,,,,370.1723446198739,370.1723446198739,370.1723446198739,370.1723446198739,370.1723446198739,370.1723446198739,370.1723446198739,370.1723446198739,370.1723446198739,370.1723446198739,a,1.0105696620885283,10,695,2,371.2066227099858,372.7083373279311,,,,,,,,,,,,,,,,,,,,,,,,,,,,,,,,,,,,,,,,,,,,,,,,,,,,,,,,,,,,,,,,,,,,,,,11801,2022-11-22_13h32.37.848,vts_reward_expectancy_bt_OFFLINE,2022.2.4,59.95980258642396,
0,0,0,1,0,0,1,0,star,hexagon,2,0,2,0,0,5,5,11,,,,,,,,,,,,,,,,,,,,,,,,,,,,,,,,,,,,,,,,373.20858622994274,373.20858622994274,373.20858622994274,373.20858622994274,373.20858622994274,373.20858622994274,373.20858622994274,373.20858622994274,373.20858622994274,373.20858622994274,l,0.6976821559946984,10,705,2,373.9256373660173,375.426031881012,375.426031881012,,,,,,,,,,,,,,,,,,,,,,,,,,,,,,,,,,,,,,,,,,,,,,,,,,,,,,,,,,,,,,,,,,,,,,11801,2022-11-22_13h32.37.848,vts_reward_expectancy_bt_OFFLINE,2022.2.4,59.95980258642396,
0,0,1,0,0,1,0,0,hexagon,circle,2,0,2,0,0,6,6,7,,,,,,,,,,,,,,,,,,,,,,,,,,,,,,,,,,,,,,,,375.9259525858797,375.9259525858797,375.9259525858797,375.9259525858797,375.9259525858797,375.9259525858797,375.9259525858797,375.9259525858797,375.9259525858797,375.9259525858797,l,1.0287352940067649,10,715,2,376.97692180098966,378.4790396329481,,,,,,,,,,,,,,,,,,,,,,,,,,,,,,,,,,,,,,,,,,,,,,,,,,,,,,,,,,,,,,,,,,,,,,,11801,2022-11-22_13h32.37.848,vts_reward_expectancy_bt_OFFLINE,2022.2.4,59.95980258642396,
1,0,0,0,0,0,1,0,triangle,hexagon,2,0,2,0,0,7,7,1,,,,,,,,,,,,,,,,,,,,,,,,,,,,,,,,,,,,,,,,378.9790053500328,378.9790053500328,378.9790053500328,378.9790053500328,378.9790053500328,378.9790053500328,378.9790053500328,378.9790053500328,378.9790053500328,378.9790053500328,l,1.5418016081675887,10,725,2,380.54675374086946,382.04691540799104,382.04691540799104,,,,,,,,,,,,,,,,,,,,,,,,,,,,,,,,,,,,,,,,,,,,,,,,,,,,,,,,,,,,,,,,,,,,,,11801,2022-11-22_13h32.37.848,vts_reward_expectancy_bt_OFFLINE,2022.2.4,59.95980258642396,
1,0,0,0,0,0,0,1,triangle,star,2,0,2,0,0,8,8,2,,,,,,,,,,,,,,,,,,,,,,,,,,,,,,,,,,,,,,,,382.5488730550278,382.5488730550278,382.5488730550278,382.5488730550278,382.5488730550278,382.5488730550278,382.5488730550278,382.5488730550278,382.5488730550278,382.5488730550278,l,1.5159268931020051,1,726,2,384.0850951159373,385.59990741685033,,,,,,,,,,,,,,,,,,,,,,,,,,,,,,,,,,,,,,,,,,,,,,,,,,,,,,,,,,,,,,,,,,,,,,,11801,2022-11-22_13h32.37.848,vts_reward_expectancy_bt_OFFLINE,2022.2.4,59.95980258642396,
0,0,0,1,1,0,0,0,star,triangle,2,0,2,0,0,9,9,9,,,,,,,,,,,,,,,,,,,,,,,,,,,,,,,,,,,,,,,,386.0832221468445,386.0832221468445,386.0832221468445,386.0832221468445,386.0832221468445,386.0832221468445,386.0832221468445,386.0832221468445,386.0832221468445,386.0832221468445,a,0.17608287511393428,1,727,2,386.2839766750112,387.7859313399531,,,,,,,,,,,,,,,,,,,,,,,,,,,,,,,,,,,,,,,,,,,,,,,,,,,,,,,,,,,,,,,,,,,,,,,11801,2022-11-22_13h32.37.848,vts_reward_expectancy_bt_OFFLINE,2022.2.4,59.95980258642396,
0,0,1,0,1,0,0,0,hexagon,triangle,2,0,2,0,0,10,10,6,,,,,,,,,,,,,,,,,,,,,,,,,,,,,,,,,,,,,,,,388.28609752003103,388.28609752003103,388.28609752003103,388.28609752003103,388.28609752003103,388.28609752003103,388.28609752003103,388.28609752003103,388.28609752003103,388.28609752003103,a,1.3362050061114132,1,728,2,389.65334884193726,391.15395732503384,391.15395732503384,391.65391313191503,,,,,,,,,,,,,,,,,,,,,,,,,,,,,,,,,,,,,,,,,,,,,,,,,,,,,,,,,,,,,,,,,,,,,11801,2022-11-22_13h32.37.848,vts_reward_expectancy_bt_OFFLINE,2022.2.4,59.95980258642396,
0,1,0,0,0,0,1,0,circle,hexagon,2,0,2,0,0,11,11,4,,,,,,,,,,,,,,,,,,,,,,,,,,,,,,,,,,,,,,,,391.65391313191503,391.65391313191503,391.65391313191503,391.65391313191503,391.65391313191503,391.65391313191503,391.65391313191503,391.65391313191503,391.65391313191503,391.65391313191503,a,0.7924746070057154,10,738,2,392.47538907499984,393.9901208819356,,,,,,,,,,,,,,,,,,,,,,,,,,,,,,,,,,,,,,,,,,,,,,,,,,,,,,,,,,,,,,,,,,,,,,,11801,2022-11-22_13h32.37.848,vts_reward_expectancy_bt_OFFLINE,2022.2.4,59.95980258642396,
0,0,0,1,0,1,0,0,star ,circle,2,0,2,0,1,0,12,10,,,,,,,,,,,,,,,,,,,,,,,,,,,,,,,,,,,,,,,,394.4900858118199,394.4900858118199,394.4900858118199,394.4900858118199,394.4900858118199,394.4900858118199,394.4900858118199,394.4900858118199,394.4900858118199,394.4900858118199,l,0.848008553031832,10,748,2,395.3576189780142,396.85783470002934,396.85783470002934,,,,,,,,,,,,,,,,,,,,,,,,,,,,,,,,,,,,,,,,,,,,,,,,,,,,,,,,,,,,,,,,,,,,,,11801,2022-11-22_13h32.37.848,vts_reward_expectancy_bt_OFFLINE,2022.2.4,59.95980258642396,
0,1,0,0,1,0,0,0,circle,triangle,2,0,2,0,1,1,13,3,,,,,,,,,,,,,,,,,,,,,,,,,,,,,,,,,,,,,,,,397.359742147848,397.359742147848,397.359742147848,397.359742147848,397.359742147848,397.359742147848,397.359742147848,397.359742147848,397.359742147848,397.359742147848,a,2.2421309859491885,10,758,2,399.62770951585844,401.1276598488912,401.1276598488912,401.62772526894696,,,,,,,,,,,,,,,,,,,,,,,,,,,,,,,,,,,,,,,,,,,,,,,,,,,,,,,,,,,,,,,,,,,,,11801,2022-11-22_13h32.37.848,vts_reward_expectancy_bt_OFFLINE,2022.2.4,59.95980258642396,
1,0,0,0,0,1,0,0,triangle,circle,2,0,2,0,1,2,14,0,,,,,,,,,,,,,,,,,,,,,,,,,,,,,,,,,,,,,,,,401.62772526894696,401.62772526894696,401.62772526894696,401.62772526894696,401.62772526894696,401.62772526894696,401.62772526894696,401.62772526894696,401.62772526894696,401.62772526894696,l,2.2837201470974833,10,768,2,403.93114321283065,405.43110968195833,405.43110968195833,405.9313132399693,,,,,,,,,,,,,,,,,,,,,,,,,,,,,,,,,,,,,,,,,,,,,,,,,,,,,,,,,,,,,,,,,,,,,11801,2022-11-22_13h32.37.848,vts_reward_expectancy_bt_OFFLINE,2022.2.4,59.95980258642396,
0,0,0,1,0,0,1,0,star,hexagon,2,0,2,0,1,3,15,11,,,,,,,,,,,,,,,,,,,,,,,,,,,,,,,,,,,,,,,,405.9313132399693,405.9313132399693,405.9313132399693,405.9313132399693,405.9313132399693,405.9313132399693,405.9313132399693,405.9313132399693,405.9313132399693,405.9313132399693,l,1.3447589909192175,1,769,2,407.31500449893065,408.8176255519502,,,,,,,,,,,,,,,,,,,,,,,,,,,,,,,,,,,,,,,,,,,,,,,,,,,,,,,,,,,,,,,,,,,,,,,11801,2022-11-22_13h32.37.848,vts_reward_expectancy_bt_OFFLINE,2022.2.4,59.95980258642396,
0,0,1,0,1,0,0,0,hexagon,triangle,2,0,2,0,1,4,16,6,,,,,,,,,,,,,,,,,,,,,,,,,,,,,,,,,,,,,,,,409.3177378498949,409.3177378498949,409.3177378498949,409.3177378498949,409.3177378498949,409.3177378498949,409.3177378498949,409.3177378498949,409.3177378498949,409.3177378498949,a,0.7593069521244615,10,779,2,410.1040852868464,411.61858636303805,,,,,,,,,,,,,,,,,,,,,,,,,,,,,,,,,,,,,,,,,,,,,,,,,,,,,,,,,,,,,,,,,,,,,,,11801,2022-11-22_13h32.37.848,vts_reward_expectancy_bt_OFFLINE,2022.2.4,59.95980258642396,
1,0,0,0,0,0,0,1,triangle,star,2,0,2,0,1,5,17,2,,,,,,,,,,,,,,,,,,,,,,,,,,,,,,,,,,,,,,,,412.1074683109764,412.1074683109764,412.1074683109764,412.1074683109764,412.1074683109764,412.1074683109764,412.1074683109764,412.1074683109764,412.1074683109764,412.1074683109764,a,1.4226968281436712,1,780,2,413.55690400581807,415.0715335898567,,,,,,,,,,,,,,,,,,,,,,,,,,,,,,,,,,,,,,,,,,,,,,,,,,,,,,,,,,,,,,,,,,,,,,,11801,2022-11-22_13h32.37.848,vts_reward_expectancy_bt_OFFLINE,2022.2.4,59.95980258642396,
0,0,0,1,1,0,0,0,star,triangle,2,0,2,0,1,6,18,9,,,,,,,,,,,,,,,,,,,,,,,,,,,,,,,,,,,,,,,,415.5717090398539,415.5717090398539,415.5717090398539,415.5717090398539,415.5717090398539,415.5717090398539,415.5717090398539,415.5717090398539,415.5717090398539,415.5717090398539,a,1.9076286570634693,1,781,2,417.50811892794445,419.00831077690236,419.00831077690236,,,,,,,,,,,,,,,,,,,,,,,,,,,,,,,,,,,,,,,,,,,,,,,,,,,,,,,,,,,,,,,,,,,,,,11801,2022-11-22_13h32.37.848,vts_reward_expectancy_bt_OFFLINE,2022.2.4,59.95980258642396,
0,1,0,0,0,0,0,1,circle,star,2,0,2,0,1,7,19,5,,,,,,,,,,,,,,,,,,,,,,,,,,,,,,,,,,,,,,,,419.50842679897323,419.50842679897323,419.50842679897323,419.50842679897323,419.50842679897323,419.50842679897323,419.50842679897323,419.50842679897323,419.50842679897323,419.50842679897323,a,1.3003878169693053,10,791,2,420.82829989586025,422.3275308609009,,,,,,,,,,,,,,,,,,,,,,,,,,,,,,,,,,,,,,,,,,,,,,,,,,,,,,,,,,,,,,,,,,,,,,,11801,2022-11-22_13h32.37.848,vts_reward_expectancy_bt_OFFLINE,2022.2.4,59.95980258642396,
0,0,1,0,0,1,0,0,hexagon,circle,2,0,2,0,1,8,20,7,,,,,,,,,,,,,,,,,,,,,,,,,,,,,,,,,,,,,,,,422.82801557984203,422.82801557984203,422.82801557984203,422.82801557984203,422.82801557984203,422.82801557984203,422.82801557984203,422.82801557984203,422.82801557984203,422.82801557984203,l,1.4467104310169816,10,801,2,424.29566585598513,425.79598970594816,425.79598970594816,,,,,,,,,,,,,,,,,,,,,,,,,,,,,,,,,,,,,,,,,,,,,,,,,,,,,,,,,,,,,,,,,,,,,,11801,2022-11-22_13h32.37.848,vts_reward_expectancy_bt_OFFLINE,2022.2.4,59.95980258642396,
1,0,0,0,0,0,1,0,triangle,hexagon,2,0,2,0,1,9,21,1,,,,,,,,,,,,,,,,,,,,,,,,,,,,,,,,,,,,,,,,426.2959046920296,426.2959046920296,426.2959046920296,426.2959046920296,426.2959046920296,426.2959046920296,426.2959046920296,426.2959046920296,426.2959046920296,426.2959046920296,l,2.478994521079585,10,811,2,428.79952779086307,430.29937437782064,430.29937437782064,430.79935554089025,,,,,,,,,,,,,,,,,,,,,,,,,,,,,,,,,,,,,,,,,,,,,,,,,,,,,,,,,,,,,,,,,,,,,11801,2022-11-22_13h32.37.848,vts_reward_expectancy_bt_OFFLINE,2022.2.4,59.95980258642396,
0,1,0,0,0,0,1,0,circle,hexagon,2,0,2,0,1,10,22,4,,,,,,,,,,,,,,,,,,,,,,,,,,,,,,,,,,,,,,,,430.79935554089025,430.79935554089025,430.79935554089025,430.79935554089025,430.79935554089025,430.79935554089025,430.79935554089025,430.79935554089025,430.79935554089025,430.79935554089025,a,0.7658018772490323,10,821,2,431.58372972602956,433.0854454378132,,,,,,,,,,,,,,,,,,,,,,,,,,,,,,,,,,,,,,,,,,,,,,,,,,,,,,,,,,,,,,,,,,,,,,,11801,2022-11-22_13h32.37.848,vts_reward_expectancy_bt_OFFLINE,2022.2.4,59.95980258642396,
0,0,1,0,0,0,0,1,hexagon,star,2,0,2,0,1,11,23,8,,,,,,,,,,,,,,,,,,,,,,,,,,,,,,,,,,,,,,,,433.58571905782446,433.58571905782446,433.58571905782446,433.58571905782446,433.58571905782446,433.58571905782446,433.58571905782446,433.58571905782446,433.58571905782446,433.58571905782446,l,1.43288994114846,10,831,2,435.037116662832,436.5369233810343,436.5369233810343,437.03673206688836,,,,,,,,,,,,,,,,,,,,,,,,,,,,,,,,,,,,,,,,,,,,,,,,,,,,,,,,,,,,,,,,,,,,,11801,2022-11-22_13h32.37.848,vts_reward_expectancy_bt_OFFLINE,2022.2.4,59.95980258642396,
0,0,1,0,0,1,0,0,hexagon,circle,2,0,2,0,2,0,24,7,,,,,,,,,,,,,,,,,,,,,,,,,,,,,,,,,,,,,,,,437.03673206688836,437.03673206688836,437.03673206688836,437.03673206688836,437.03673206688836,437.03673206688836,437.03673206688836,437.03673206688836,437.03673206688836,437.03673206688836,l,1.0867444120813161,10,841,2,438.1560100549832,439.65622733789496,439.65622733789496,440.1563978570048,,,,,,,,,,,,,,,,,,,,,,,,,,,,,,,,,,,,,,,,,,,,,,,,,,,,,,,,,,,,,,,,,,,,,11801,2022-11-22_13h32.37.848,vts_reward_expectancy_bt_OFFLINE,2022.2.4,59.95980258642396,
1,0,0,0,0,0,1,0,triangle,hexagon,2,0,2,0,2,1,25,1,,,,,,,,,,,,,,,,,,,,,,,,,,,,,,,,,,,,,,,,440.1563978570048,440.1563978570048,440.1563978570048,440.1563978570048,440.1563978570048,440.1563978570048,440.1563978570048,440.1563978570048,440.1563978570048,440.1563978570048,l,1.5674561709165573,10,851,2,441.7413691650145,443.2428069890011,,,,,,,,,,,,,,,,,,,,,,,,,,,,,,,,,,,,,,,,,,,,,,,,,,,,,,,,,,,,,,,,,,,,,,,11801,2022-11-22_13h32.37.848,vts_reward_expectancy_bt_OFFLINE,2022.2.4,59.95980258642396,
0,0,0,1,0,1,0,0,star ,circle,2,0,2,0,2,2,26,10,,,,,,,,,,,,,,,,,,,,,,,,,,,,,,,,,,,,,,,,443.74300784803927,443.74300784803927,443.74300784803927,443.74300784803927,443.74300784803927,443.74300784803927,443.74300784803927,443.74300784803927,443.74300784803927,443.74300784803927,l,1.88549586199224,10,861,2,445.66034948499873,447.1627211899031,,,,,,,,,,,,,,,,,,,,,,,,,,,,,,,,,,,,,,,,,,,,,,,,,,,,,,,,,,,,,,,,,,,,,,,11801,2022-11-22_13h32.37.848,vts_reward_expectancy_bt_OFFLINE,2022.2.4,59.95980258642396,
0,1,0,0,0,0,0,1,circle,star,2,0,2,0,2,3,27,5,,,,,,,,,,,,,,,,,,,,,,,,,,,,,,,,,,,,,,,,447.6627408808563,447.6627408808563,447.6627408808563,447.6627408808563,447.6627408808563,447.6627408808563,447.6627408808563,447.6627408808563,447.6627408808563,447.6627408808563,a,0.9019846678711474,10,871,2,448.5967070059851,450.0970090320334,450.0970090320334,450.59722169302404,,,,,,,,,,,,,,,,,,,,,,,,,,,,,,,,,,,,,,,,,,,,,,,,,,,,,,,,,,,,,,,,,,,,,11801,2022-11-22_13h32.37.848,vts_reward_expectancy_bt_OFFLINE,2022.2.4,59.95980258642396,
1,0,0,0,0,1,0,0,triangle,circle,2,0,2,0,2,4,28,0,,,,,,,,,,,,,,,,,,,,,,,,,,,,,,,,,,,,,,,,450.59722169302404,450.59722169302404,450.59722169302404,450.59722169302404,450.59722169302404,450.59722169302404,450.59722169302404,450.59722169302404,450.59722169302404,450.59722169302404,l,0.7796352200675756,10,881,2,451.3984955169726,452.8998957828153,,,,,,,,,,,,,,,,,,,,,,,,,,,,,,,,,,,,,,,,,,,,,,,,,,,,,,,,,,,,,,,,,,,,,,,11801,2022-11-22_13h32.37.848,vts_reward_expectancy_bt_OFFLINE,2022.2.4,59.95980258642396,
0,0,0,1,1,0,0,0,star,triangle,2,0,2,0,2,5,29,9,,,,,,,,,,,,,,,,,,,,,,,,,,,,,,,,,,,,,,,,453.4001844499726,453.4001844499726,453.4001844499726,453.4001844499726,453.4001844499726,453.4001844499726,453.4001844499726,453.4001844499726,453.4001844499726,453.4001844499726,a,3.2987193390727043,1,882,2,456.7325248050038,458.22053788485937,,,,,,,,,,,,,,,,,,,,,,,,,,,,,,,,,,,,,,,,,,,,,,,,,,,,,,,,,,,,,,,,,,,,,,,11801,2022-11-22_13h32.37.848,vts_reward_expectancy_bt_OFFLINE,2022.2.4,59.95980258642396,
0,0,1,0,1,0,0,0,hexagon,triangle,2,0,2,0,2,6,30,6,,,,,,,,,,,,,,,,,,,,,,,,,,,,,,,,,,,,,,,,458.7204678389244,458.7204678389244,458.7204678389244,458.7204678389244,458.7204678389244,458.7204678389244,458.7204678389244,458.7204678389244,458.7204678389244,458.7204678389244,a,1.230336348991841,10,892,2,459.97388627100736,461.48803329397924,,,,,,,,,,,,,,,,,,,,,,,,,,,,,,,,,,,,,,,,,,,,,,,,,,,,,,,,,,,,,,,,,,,,,,,11801,2022-11-22_13h32.37.848,vts_reward_expectancy_bt_OFFLINE,2022.2.4,59.95980258642396,
0,0,0,1,0,0,1,0,star,hexagon,2,0,2,0,2,7,31,11,,,,,,,,,,,,,,,,,,,,,,,,,,,,,,,,,,,,,,,,461.9879656729754,461.9879656729754,461.9879656729754,461.9879656729754,461.9879656729754,461.9879656729754,461.9879656729754,461.9879656729754,461.9879656729754,461.9879656729754,l,1.5851715290918946,10,902,2,463.59174132696353,465.0913875680417,465.0913875680417,465.5915694029536,,,,,,,,,,,,,,,,,,,,,,,,,,,,,,,,,,,,,,,,,,,,,,,,,,,,,,,,,,,,,,,,,,,,,11801,2022-11-22_13h32.37.848,vts_reward_expectancy_bt_OFFLINE,2022.2.4,59.95980258642396,
0,1,0,0,0,0,1,0,circle,hexagon,2,0,2,0,2,8,32,4,,,,,,,,,,,,,,,,,,,,,,,,,,,,,,,,,,,,,,,,465.5915694029536,465.5915694029536,465.5915694029536,465.5915694029536,465.5915694029536,465.5915694029536,465.5915694029536,465.5915694029536,465.5915694029536,465.5915694029536,a,0.8837996991351247,10,912,2,466.49311568192206,467.9941209850367,,,,,,,,,,,,,,,,,,,,,,,,,,,,,,,,,,,,,,,,,,,,,,,,,,,,,,,,,,,,,,,,,,,,,,,11801,2022-11-22_13h32.37.848,vts_reward_expectancy_bt_OFFLINE,2022.2.4,59.95980258642396,
0,0,1,0,0,0,0,1,hexagon,star,2,0,2,0,2,9,33,8,,,,,,,,,,,,,,,,,,,,,,,,,,,,,,,,,,,,,,,,468.4945108478423,468.4945108478423,468.4945108478423,468.4945108478423,468.4945108478423,468.4945108478423,468.4945108478423,468.4945108478423,468.4945108478423,468.4945108478423,a,1.6481602019630373,10,922,2,470.1625051719602,471.66221767896786,471.66221767896786,,,,,,,,,,,,,,,,,,,,,,,,,,,,,,,,,,,,,,,,,,,,,,,,,,,,,,,,,,,,,,,,,,,,,,11801,2022-11-22_13h32.37.848,vts_reward_expectancy_bt_OFFLINE,2022.2.4,59.95980258642396,
1,0,0,0,0,0,0,1,triangle,star,2,0,2,0,2,10,34,2,,,,,,,,,,,,,,,,,,,,,,,,,,,,,,,,,,,,,,,,472.1664175768383,472.1664175768383,472.1664175768383,472.1664175768383,472.1664175768383,472.1664175768383,472.1664175768383,472.1664175768383,472.1664175768383,472.1664175768383,l,1.137779826996848,1,923,2,473.3459680080414,474.84843772184104,,,,,,,,,,,,,,,,,,,,,,,,,,,,,,,,,,,,,,,,,,,,,,,,,,,,,,,,,,,,,,,,,,,,,,,11801,2022-11-22_13h32.37.848,vts_reward_expectancy_bt_OFFLINE,2022.2.4,59.95980258642396,
0,1,0,0,1,0,0,0,circle,triangle,2,0,2,0,2,11,35,3,,,,,,,,,,,,,,,,,,,,,,,,,,,,,,,,,,,,,,,,475.3486419490073,475.3486419490073,475.3486419490073,475.3486419490073,475.3486419490073,475.3486419490073,475.3486419490073,475.3486419490073,475.3486419490073,475.3486419490073,a,1.3646571908611804,10,933,2,476.7472962848842,478.23497097892687,,,,,,,,,,,,,,,,,,,,,,,,,,,,,,,,,,,,,,,,,,,,,,,,,,,,,,,,,,,,,,,,,,,,,,,11801,2022-11-22_13h32.37.848,vts_reward_expectancy_bt_OFFLINE,2022.2.4,59.95980258642396,
0,1,0,0,0,0,0,1,circle,star,2,0,2,0,3,0,36,5,,,,,,,,,,,,,,,,,,,,,,,,,,,,,,,,,,,,,,,,478.73536760988645,478.73536760988645,478.73536760988645,478.73536760988645,478.73536760988645,478.73536760988645,478.73536760988645,478.73536760988645,478.73536760988645,478.73536760988645,a,0.6892706570215523,10,943,2,479.4534854639787,480.9526103469543,480.9526103469543,481.4525548918173,,,,,,,,,,,,,,,,,,,,,,,,,,,,,,,,,,,,,,,,,,,,,,,,,,,,,,,,,,,,,,,,,,,,,11801,2022-11-22_13h32.37.848,vts_reward_expectancy_bt_OFFLINE,2022.2.4,59.95980258642396,
1,0,0,0,0,0,0,1,triangle,star,2,0,2,0,3,1,37,2,,,,,,,,,,,,,,,,,,,,,,,,,,,,,,,,,,,,,,,,481.4525548918173,481.4525548918173,481.4525548918173,481.4525548918173,481.4525548918173,481.4525548918173,481.4525548918173,481.4525548918173,481.4525548918173,481.4525548918173,a,0.8971706540323794,1,944,2,482.37447669683024,483.88883780292235,,,,,,,,,,,,,,,,,,,,,,,,,,,,,,,,,,,,,,,,,,,,,,,,,,,,,,,,,,,,,,,,,,,,,,,11801,2022-11-22_13h32.37.848,vts_reward_expectancy_bt_OFFLINE,2022.2.4,59.95980258642396,
0,0,0,1,0,1,0,0,star ,circle,2,0,2,0,3,2,38,10,,,,,,,,,,,,,,,,,,,,,,,,,,,,,,,,,,,,,,,,484.38889179890975,484.38889179890975,484.38889179890975,484.38889179890975,484.38889179890975,484.38889179890975,484.38889179890975,484.38889179890975,484.38889179890975,484.38889179890975,l,1.40310435811989,10,954,2,485.82565794698894,487.32524670590647,,,,,,,,,,,,,,,,,,,,,,,,,,,,,,,,,,,,,,,,,,,,,,,,,,,,,,,,,,,,,,,,,,,,,,,11801,2022-11-22_13h32.37.848,vts_reward_expectancy_bt_OFFLINE,2022.2.4,59.95980258642396,
1,0,0,0,0,1,0,0,triangle,circle,2,0,2,0,3,3,39,0,,,,,,,,,,,,,,,,,,,,,,,,,,,,,,,,,,,,,,,,487.8253837728407,487.8253837728407,487.8253837728407,487.8253837728407,487.8253837728407,487.8253837728407,487.8253837728407,487.8253837728407,487.8253837728407,487.8253837728407,l,0.555402462137863,10,964,2,488.4095422090031,489.90931837190874,489.90931837190874,,,,,,,,,,,,,,,,,,,,,,,,,,,,,,,,,,,,,,,,,,,,,,,,,,,,,,,,,,,,,,,,,,,,,,11801,2022-11-22_13h32.37.848,vts_reward_expectancy_bt_OFFLINE,2022.2.4,59.95980258642396,
0,0,0,1,1,0,0,0,star,triangle,2,0,2,0,3,4,40,9,,,,,,,,,,,,,,,,,,,,,,,,,,,,,,,,,,,,,,,,490.40952345589176,490.40952345589176,490.40952345589176,490.40952345589176,490.40952345589176,490.40952345589176,490.40952345589176,490.40952345589176,490.40952345589176,490.40952345589176,l,1.9424192400183529,1,965,2,492.38188770390116,493.89599803695455,,,,,,,,,,,,,,,,,,,,,,,,,,,,,,,,,,,,,,,,,,,,,,,,,,,,,,,,,,,,,,,,,,,,,,,11801,2022-11-22_13h32.37.848,vts_reward_expectancy_bt_OFFLINE,2022.2.4,59.95980258642396,
0,0,1,0,0,0,0,1,hexagon,star,2,0,2,0,3,5,41,8,,,,,,,,,,,,,,,,,,,,,,,,,,,,,,,,,,,,,,,,494.39619501889683,494.39619501889683,494.39619501889683,494.39619501889683,494.39619501889683,494.39619501889683,494.39619501889683,494.39619501889683,494.39619501889683,494.39619501889683,a,1.5441769510507584,10,975,2,495.9665661540348,497.4657447519712,,,,,,,,,,,,,,,,,,,,,,,,,,,,,,,,,,,,,,,,,,,,,,,,,,,,,,,,,,,,,,,,,,,,,,,11801,2022-11-22_13h32.37.848,vts_reward_expectancy_bt_OFFLINE,2022.2.4,59.95980258642396,
0,0,1,0,0,1,0,0,hexagon,circle,2,0,2,0,3,6,42,7,,,,,,,,,,,,,,,,,,,,,,,,,,,,,,,,,,,,,,,,497.965928115882,497.965928115882,497.965928115882,497.965928115882,497.965928115882,497.965928115882,497.965928115882,497.965928115882,497.965928115882,497.965928115882,l,0.764324574964121,10,985,2,498.7518116678111,500.2668163308408,,,,,,,,,,,,,,,,,,,,,,,,,,,,,,,,,,,,,,,,,,,,,,,,,,,,,,,,,,,,,,,,,,,,,,,11801,2022-11-22_13h32.37.848,vts_reward_expectancy_bt_OFFLINE,2022.2.4,59.95980258642396,
1,0,0,0,0,0,1,0,triangle,hexagon,2,0,2,0,3,7,43,1,,,,,,,,,,,,,,,,,,,,,,,,,,,,,,,,,,,,,,,,500.7668101040181,500.7668101040181,500.7668101040181,500.7668101040181,500.7668101040181,500.7668101040181,500.7668101040181,500.7668101040181,500.7668101040181,500.7668101040181,l,0.8100531250238419,1,986,2,501.6040129289031,503.1030146609992,,,,,,,,,,,,,,,,,,,,,,,,,,,,,,,,,,,,,,,,,,,,,,,,,,,,,,,,,,,,,,,,,,,,,,,11801,2022-11-22_13h32.37.848,vts_reward_expectancy_bt_OFFLINE,2022.2.4,59.95980258642396,
0,0,1,0,1,0,0,0,hexagon,triangle,2,0,2,0,3,8,44,6,,,,,,,,,,,,,,,,,,,,,,,,,,,,,,,,,,,,,,,,503.60311388084665,503.60311388084665,503.60311388084665,503.60311388084665,503.60311388084665,503.60311388084665,503.60311388084665,503.60311388084665,503.60311388084665,503.60311388084665,a,0.7760749461594969,10,996,2,504.40609452989884,505.9206756558269,,,,,,,,,,,,,,,,,,,,,,,,,,,,,,,,,,,,,,,,,,,,,,,,,,,,,,,,,,,,,,,,,,,,,,,11801,2022-11-22_13h32.37.848,vts_reward_expectancy_bt_OFFLINE,2022.2.4,59.95980258642396,
0,0,0,1,0,0,1,0,star,hexagon,2,0,2,0,3,9,45,11,,,,,,,,,,,,,,,,,,,,,,,,,,,,,,,,,,,,,,,,506.4207425790373,506.4207425790373,506.4207425790373,506.4207425790373,506.4207425790373,506.4207425790373,506.4207425790373,506.4207425790373,506.4207425790373,506.4207425790373,l,0.9049448999576271,10,1006,2,507.3571223639883,508.85716073797084,508.85716073797084,,,,,,,,,,,,,,,,,,,,,,,,,,,,,,,,,,,,,,,,,,,,,,,,,,,,,,,,,,,,,,,,,,,,,,11801,2022-11-22_13h32.37.848,vts_reward_expectancy_bt_OFFLINE,2022.2.4,59.95980258642396,
0,1,0,0,0,0,1,0,circle,hexagon,2,0,2,0,3,10,46,4,,,,,,,,,,,,,,,,,,,,,,,,,,,,,,,,,,,,,,,,509.35690873186104,509.35690873186104,509.35690873186104,509.35690873186104,509.35690873186104,509.35690873186104,509.35690873186104,509.35690873186104,509.35690873186104,509.35690873186104,a,0.6248666429892182,1,1007,2,510.0100211109966,511.5246292769443,,,,,,,,,,,,,,,,,,,,,,,,,,,,,,,,,,,,,,,,,,,,,,,,,,,,,,,,,,,,,,,,,,,,,,,11801,2022-11-22_13h32.37.848,vts_reward_expectancy_bt_OFFLINE,2022.2.4,59.95980258642396,
0,1,0,0,1,0,0,0,circle,triangle,2,0,2,0,3,11,47,3,,,,,,,,,,,,,,,,,,,,,,,,,,,,,,,,,,,,,,,,512.0248431179207,512.0248431179207,512.0248431179207,512.0248431179207,512.0248431179207,512.0248431179207,512.0248431179207,512.0248431179207,512.0248431179207,512.0248431179207,a,0.7465648499783128,1,1008,2,512.7943997390103,514.2942833208945,,,,,,,,,,,,,,,,,,,,,,,,,,,,,,,,,,,,,,,,,,,,,,,,,,,,,,,,,,,,,,,,,,,,,,,11801,2022-11-22_13h32.37.848,vts_reward_expectancy_bt_OFFLINE,2022.2.4,59.95980258642396,
,,,,,,,,,,,,,,,,,,0,0,0,0,0,0,0,0,,,,,,,,,,,,,,,,,,,,,,,,,,,,,,,,,,,,,,,,,,,,,,,,540.612653468037,,,H,160,star,-0.0006299240048974752,534.9665252668783,536.4428363998886,536.4428363998886,536.4428363998886,1,0,d,2.6217186560388654,0,539.098765991861,,,,,,,,,,,,,,,,,,,,,,,,,,,,,,,,,,,,,,,,,,,,,,,,,,,,,,,11801,2022-11-22_13h32.37.848,vts_reward_expectancy_bt_OFFLINE,2022.2.4,59.95980258642396,
,,,,,,,,,,,,,,,,,,0,0,0,0,1,0,1,0,,,,,,,,,,,,,,,,,,,,,,,,,,,,,,,,,,,,,,,,,,,,,,,,545.3161123800091,,545.8162935199216,B,132,circle,0.0003456459380686283,541.5924429369625,543.0822984839324,543.0822984839324,543.0822984839324,1,0,d,0.7068677670322359,0,543.8169383439235,545.3161123800091,,,,,,,,,,,,,,,,,,,,,,,,,,,,,,,,,,,,,,,,,,,,,,,,,,,,,,11801,2022-11-22_13h32.37.848,vts_reward_expectancy_bt_OFFLINE,2022.2.4,59.95980258642396,
,,,,,,,,,,,,,,,,,,0,0,0,0,2,0,2,0,,,,,,,,,,,,,,,,,,,,,,,,,,,,,,,,,,,,,,,,,,,,,,,,550.186341149034,,550.6866304939613,Y,181,hexagon,0.0002603300381451845,546.3127655438147,547.8021998519544,547.8021998519544,547.8021998519544,1,0,f,0.8584538269788027,0,548.6869267940056,550.186341149034,,,,,,,,,,,,,,,,,,,,,,,,,,,,,,,,,,,,,,,,,,,,,,,,,,,,,,11801,2022-11-22_13h32.37.848,vts_reward_expectancy_bt_OFFLINE,2022.2.4,59.95980258642396,
,,,,,,,,,,,,,,,,,,0,0,0,0,3,0,3,0,,,,,,,,,,,,,,,,,,,,,,,,,,,,,,,,,,,,,,,,,,,,,,,,555.2566278658342,,555.7571106879041,U,146,triangle,0.00037515885196626186,551.18252698984,552.6726123238914,552.6726123238914,552.6726123238914,1,0,f,1.0516156870871782,0,553.756516530877,555.2566278658342,,,,,,,,,,,,,,,,,,,,,,,,,,,,,,,,,,,,,,,,,,,,,,,,,,,,,,11801,2022-11-22_13h32.37.848,vts_reward_expectancy_bt_OFFLINE,2022.2.4,59.95980258642396,
,,,,,,,,,,,,,,,,,,0,0,0,0,4,0,4,0,,,,,,,,,,,,,,,,,,,,,,,,,,,,,,,,,,,,,,,,,,,,,,,,560.093887598021,,560.5936281690374,W,125,star,-0.0006635168101638556,556.2649142788723,557.7427480518818,557.7427480518818,557.7427480518818,1,0,f,0.8189397500827909,0,558.5933728169184,560.093887598021,,,,,,,,,,,,,,,,,,,,,,,,,,,,,,,,,,,,,,,,,,,,,,,,,,,,,,11801,2022-11-22_13h32.37.848,vts_reward_expectancy_bt_OFFLINE,2022.2.4,59.95980258642396,
,,,,,,,,,,,,,,,,,,0,0,0,0,5,0,5,0,,,,,,,,,,,,,,,,,,,,,,,,,,,,,,,,,,,,,,,,,,,,,,,,564.9973037978634,,,D,167,triangle,-0.0009769760072231293,561.1018790879752,562.5797535688616,562.5797535688616,562.5797535688616,1,0,d,0.8977557569742203,0,563.4974406429101,564.9973037978634,,,,,,,,,,,,,,,,,,,,,,,,,,,,,,,,,,,,,,,,,,,,,,,,,,,,,,11801,2022-11-22_13h32.37.848,vts_reward_expectancy_bt_OFFLINE,2022.2.4,59.95980258642396,
,,,,,,,,,,,,,,,,,,0,0,0,0,6,0,6,0,,,,,,,,,,,,,,,,,,,,,,,,,,,,,,,,,,,,,,,,,,,,,,,,569.9842667048797,,570.4845727779903,F,174,circle,0.00048715202137827873,565.9934529268648,567.4834738359787,567.4834738359787,567.4834738359787,1,0,d,0.9786112860310823,0,568.4847162088845,569.9842667048797,,,,,,,,,,,,,,,,,,,,,,,,,,,,,,,,,,,,,,,,,,,,,,,,,,,,,,11801,2022-11-22_13h32.37.848,vts_reward_expectancy_bt_OFFLINE,2022.2.4,59.95980258642396,
,,,,,,,,,,,,,,,,,,0,0,0,0,7,0,7,0,,,,,,,,,,,,,,,,,,,,,,,,,,,,,,,,,,,,,,,,,,,,,,,,574.8876688920427,,575.3879888260271,S,139,hexagon,0.0002930250484496355,570.9804218558129,572.4703152268194,572.4703152268194,572.4703152268194,1,0,f,0.896674559218809,0,573.3884353868198,574.8876688920427,,,,,,,,,,,,,,,,,,,,,,,,,,,,,,,,,,,,,,,,,,,,,,,,,,,,,,11801,2022-11-22_13h32.37.848,vts_reward_expectancy_bt_OFFLINE,2022.2.4,59.95980258642396,
,,,,,,,,,,,,,,,,,,0,0,0,0,8,0,8,0,,,,,,,,,,,,,,,,,,,,,,,,,,,,,,,,,,,,,,,,,,,,,,,,579.9247400818858,,580.425103676971,H,160,circle,0.0004706068430095911,575.8836536880117,577.3739819789771,577.3739819789771,577.3739819789771,1,0,d,1.033711606869474,0,578.4256183500402,579.9247400818858,,,,,,,,,,,,,,,,,,,,,,,,,,,,,,,,,,,,,,,,,,,,,,,,,,,,,,11801,2022-11-22_13h32.37.848,vts_reward_expectancy_bt_OFFLINE,2022.2.4,59.95980258642396,
,,,,,,,,,,,,,,,,,,0,0,0,0,9,0,9,0,,,,,,,,,,,,,,,,,,,,,,,,,,,,,,,,,,,,,,,,,,,,,,,,584.8117080128286,,585.3226755049545,B,132,star,0.00017431797459721565,580.9206578249577,582.4110572629143,582.4110572629143,582.4110572629143,1,0,d,0.8786677459720522,0,583.3123782780021,584.8117080128286,,,,,,,,,,,,,,,,,,,,,,,,,,,,,,,,,,,,,,,,,,,,,,,,,,,,,,11801,2022-11-22_13h32.37.848,vts_reward_expectancy_bt_OFFLINE,2022.2.4,59.95980258642396,
,,,,,,,,,,,,,,,,,,,,,,,,,,0,0,0,0,0,0,0,0,,,,,,,,,,,,,,,,,,,,,,,,,,,,,,,,,,,,,,,,601.7234798129648,,,U,125,triangle,0.0015774988569319248,,,,,1,0,,,1,600.2094213778619,,598.1174605048727,599.6061338088475,599.6061338088475,599.6061338088475,j,0.5832142510917038,,,,,,,,,,,,,,,,,,,,,,,,,,,,,,,,,,,,,,,,,,,,,,,,11801,2022-11-22_13h32.37.848,vts_reward_expectancy_bt_OFFLINE,2022.2.4,59.95980258642396,
,,,,,,,,,,,,,,,,,,,,,,,,,,0,0,0,0,1,0,1,0,,,,,,,,,,,,,,,,,,,,,,,,,,,,,,,,,,,,,,,,606.5602686759084,,607.060418847017,D,174,star,0.013279312988743186,,,,,1,0,,,1,605.0610957909375,606.5602686759084,602.7199481988791,604.1926232478581,604.1926232478581,604.1926232478581,k,0.8454633951187134,,,,,,,,,,,,,,,,,,,,,,,,,,,,,,,,,,,,,,,,,,,,,,,,11801,2022-11-22_13h32.37.848,vts_reward_expectancy_bt_OFFLINE,2022.2.4,59.95980258642396,
,,,,,,,,,,,,,,,,,,,,,,,,,,0,0,0,0,2,0,2,0,,,,,,,,,,,,,,,,,,,,,,,,,,,,,,,,,,,,,,,,611.3640721079428,,,F,132,circle,0.0004634109791368246,,,,,1,0,,,1,609.848389878869,,607.5565181009006,609.0463716348168,609.0463716348168,609.0463716348168,j,0.7836333429440856,,,,,,,,,,,,,,,,,,,,,,,,,,,,,,,,,,,,,,,,,,,,,,,,11801,2022-11-22_13h32.37.848,vts_reward_expectancy_bt_OFFLINE,2022.2.4,59.95980258642396,
,,,,,,,,,,,,,,,,,,,,,,,,,,0,0,0,0,3,0,3,0,,,,,,,,,,,,,,,,,,,,,,,,,,,,,,,,,,,,,,,,616.400728064822,,616.9009272689,B,146,hexagon,0.016609033104032278,,,,,1,0,,,1,614.9013825808652,616.400728064822,612.3603132260032,613.8333947898354,613.8333947898354,613.8333947898354,j,1.0373993930406868,,,,,,,,,,,,,,,,,,,,,,,,,,,,,,,,,,,,,,,,,,,,,,,,11801,2022-11-22_13h32.37.848,vts_reward_expectancy_bt_OFFLINE,2022.2.4,59.95980258642396,
,,,,,,,,,,,,,,,,,,,,,,,,,,0,0,0,0,4,0,4,0,,,,,,,,,,,,,,,,,,,,,,,,,,,,,,,,,,,,,,,,621.1211968259886,,621.6211600699462,H,139,star,0.0005891479086130857,,,,,1,0,,,1,619.6220908609685,621.1211968259886,617.3972121139523,618.8868322439957,618.8868322439957,618.8868322439957,j,0.7083594570867717,,,,,,,,,,,,,,,,,,,,,,,,,,,,,,,,,,,,,,,,,,,,,,,,11801,2022-11-22_13h32.37.848,vts_reward_expectancy_bt_OFFLINE,2022.2.4,59.95980258642396,
,,,,,,,,,,,,,,,,,,,,,,,,,,0,0,0,0,5,0,5,0,,,,,,,,,,,,,,,,,,,,,,,,,,,,,,,,,,,,,,,,626.3082039810251,,626.808115772903,W,160,circle,0.00047472212463617325,,,,,1,0,,,1,624.8086257008836,626.3082039810251,622.1170399340335,623.6071277798619,623.6071277798619,623.6071277798619,k,1.1760093471966684,,,,,,,,,,,,,,,,,,,,,,,,,,,,,,,,,,,,,,,,,,,,,,,,11801,2022-11-22_13h32.37.848,vts_reward_expectancy_bt_OFFLINE,2022.2.4,59.95980258642396,
,,,,,,,,,,,,,,,,,,,,,,,,,,0,0,0,0,6,0,6,0,,,,,,,,,,,,,,,,,,,,,,,,,,,,,,,,,,,,,,,,630.9981396950316,,,Y,181,triangle,0.0005762730725109577,,,,,1,0,,,1,629.4794299029745,,627.3045825778972,628.7939973359462,628.7939973359462,628.7939973359462,k,0.656751467846334,,,,,,,,,,,,,,,,,,,,,,,,,,,,,,,,,,,,,,,,,,,,,,,,11801,2022-11-22_13h32.37.848,vts_reward_expectancy_bt_OFFLINE,2022.2.4,59.95980258642396,
,,,,,,,,,,,,,,,,,,,,,,,,,,0,0,0,0,7,0,7,0,,,,,,,,,,,,,,,,,,,,,,,,,,,,,,,,,,,,,,,,635.7651028099936,,,S,167,hexagon,0.01671825395897031,,,,,1,0,,,1,634.2494023498148,,631.9910334530286,633.4645087749232,633.4645087749232,633.4645087749232,k,0.7565550350118428,,,,,,,,,,,,,,,,,,,,,,,,,,,,,,,,,,,,,,,,,,,,,,,,11801,2022-11-22_13h32.37.848,vts_reward_expectancy_bt_OFFLINE,2022.2.4,59.95980258642396,
,,,,,,,,,,,,,,,,,,,,,,,,,,0,0,0,0,8,0,8,0,,,,,,,,,,,,,,,,,,,,,,,,,,,,,,,,,,,,,,,,641.0691999739502,,641.5690932008438,U,125,star,0.017140578012913465,,,,,1,0,,,1,639.5700027670246,641.0691999739502,636.7612065810245,638.2346083049197,638.2346083049197,638.2346083049197,j,1.3095555729232728,,,,,,,,,,,,,,,,,,,,,,,,,,,,,,,,,,,,,,,,,,,,,,,,11801,2022-11-22_13h32.37.848,vts_reward_expectancy_bt_OFFLINE,2022.2.4,59.95980258642396,
,,,,,,,,,,,,,,,,,,,,,,,,,,0,0,0,0,9,0,9,0,,,,,,,,,,,,,,,,,,,,,,,,,,,,,,,,,,,,,,,,645.9058374569286,,,D,174,circle,0.00023071211762726307,,,,,1,0,,,1,644.390191657003,,642.0649220920168,643.55516458489,643.55516458489,643.55516458489,k,0.8143735451158136,,,,,,,,,,,,,,,,,,,,,,,,,,,,,,,,,,,,,,,,,,,,,,,,11801,2022-11-22_13h32.37.848,vts_reward_expectancy_bt_OFFLINE,2022.2.4,59.95980258642396,
,,,,,,,,,,,,,,,,,,,,,,,,,,,,,,,,,,0,0,0,0,0,0,0,0,,,,,,,,,,,,,,,,,,,,,,,,,,,,0,1008,,,687.2520607449114,,,B,160,triangle,0.000706828897818923,,,,,1,0,,,2,,,,,,,,,682.3626498868689,682.3626498868689,682.3626498868689,682.3626498868689,683.8509414340369,683.8509414340369,683.8509414340369,683.8509414340369,683.8675172319636,683.8675172319636,683.8675172319636,683.8675172319636,-1,number,NA,k,1.8531748759560287,vtsPrac,685.7386058010161,,,,,,,,,,,,,,,,,,,,,,,,,,,,,11801,2022-11-22_13h32.37.848,vts_reward_expectancy_bt_OFFLINE,2022.2.4,59.95980258642396,
,,,,,,,,,,,,,,,,,,,,,,,,,,,,,,,,,,0,0,0,0,1,0,1,0,,,,,,,,,,,,,,,,,,,,,,,,,,,,0,1008,,,692.0889741249848,,,U,174,hexagon,0.0019893618300557137,,,,,1,0,,,2,,,,,,,,,688.2329099138733,688.2329099138733,688.2329099138733,688.2329099138733,689.7215007748455,689.7215007748455,689.7215007748455,689.7215007748455,689.7381361839361,689.7381361839361,689.7381361839361,689.7381361839361,repeat,number,numRpt,k,0.8194767930544913,vtsPrac,690.5736028589308,,,,,,,,,,,,,,,,,,,,,,,,,,,,,11801,2022-11-22_13h32.37.848,vts_reward_expectancy_bt_OFFLINE,2022.2.4,59.95980258642396,
,,,,,,,,,,,,,,,,,,,,,,,,,,,,,,,,,,0,0,0,0,2,0,2,0,,,,,,,,,,,,,,,,,,,,,,,,,,,,0,1008,,,697.4111102018505,,,S,146,circle,0.001919367117807269,,,,,1,0,,,2,,,,,,,,,693.0699382028542,693.0699382028542,693.0699382028542,693.0699382028542,694.5583041028585,694.5583041028585,694.5583041028585,694.5583041028585,694.5751247038133,694.5751247038133,694.5751247038133,694.5751247038133,repeat,number,numRpt,j,1.327662605093792,vtsPrac,695.910575059941,,,,,,,,,,,,,,,,,,,,,,,,,,,,,11801,2022-11-22_13h32.37.848,vts_reward_expectancy_bt_OFFLINE,2022.2.4,59.95980258642396,
,,,,,,,,,,,,,,,,,,,,,,,,,,,,,,,,,,0,0,0,0,3,0,3,0,,,,,,,,,,,,,,,,,,,,,,,,,,,,0,1008,,,702.7648954440374,,,Y,139,hexagon,0.0017226040363311768,,,,,1,0,,,2,,,,,,,,,698.4074711848516,698.4074711848516,698.4074711848516,698.4074711848516,699.895336586982,699.895336586982,699.895336586982,699.895336586982,699.9120888230391,699.9120888230391,699.9120888230391,699.9120888230391,switch,letter,lettSwt,f,1.344998087035492,vtsPrac,701.2638401389122,,,,,,,,,,,,,,,,,,,,,,,,,,,,,11801,2022-11-22_13h32.37.848,vts_reward_expectancy_bt_OFFLINE,2022.2.4,59.95980258642396,
,,,,,,,,,,,,,,,,,,,,,,,,,,,,,,,,,,0,0,0,0,4,0,4,0,,,,,,,,,,,,,,,,,,,,,,,,,,,,0,1008,,,707.5351857729256,,,B,160,circle,0.0021370460744947195,,,,,1,0,,,2,,,,,,,,,703.7603018060327,703.7603018060327,703.7603018060327,703.7603018060327,705.249407592928,705.249407592928,705.249407592928,705.249407592928,705.2658674060367,705.2658674060367,705.2658674060367,705.2658674060367,switch,number,numSwt,k,0.7616968641523272,vtsPrac,706.0341959709767,,,,,,,,,,,,,,,,,,,,,,,,,,,,,11801,2022-11-22_13h32.37.848,vts_reward_expectancy_bt_OFFLINE,2022.2.4,59.95980258642396,
,,,,,,,,,,,,,,,,,,,,,,,,,,,,,,,,,,0,0,0,0,5,0,5,0,,,,,,,,,,,,,,,,,,,,,,,,,,,,0,1008,,,712.4888333419804,,,U,174,star,0.0018642270006239414,,,,,1,0,,,2,,,,,,,,,708.5304100059438,708.5304100059438,708.5304100059438,708.5304100059438,710.0195756650064,710.0195756650064,710.0195756650064,710.0195756650064,710.0360028778668,710.0360028778668,710.0360028778668,710.0360028778668,switch,letter,lettSwt,f,0.9413349111564457,vtsPrac,710.9881731609348,,,,,,,,,,,,,,,,,,,,,,,,,,,,,11801,2022-11-22_13h32.37.848,vts_reward_expectancy_bt_OFFLINE,2022.2.4,59.95980258642396,
,,,,,,,,,,,,,,,,,,,,,,,,,,,,,,,,,,0,0,0,0,6,0,6,0,,,,,,,,,,,,,,,,,,,,,,,,,,,,0,1008,,,717.6259377829265,,718.1257789698429,S,146,triangle,0.0019644759595394135,,,,,1,0,,,2,,,,,,,,,713.4842879578937,713.4842879578937,713.4842879578937,713.4842879578937,714.9730117558502,714.9730117558502,714.9730117558502,714.9730117558502,714.9897533478215,714.9897533478215,714.9897533478215,714.9897533478215,repeat,letter,lettRpt,f,1.1186021231114864,vtsPrac,716.1235169258434,717.6259377829265,,,,,,,,,,,,,,,,,,,,,,,,,,,,11801,2022-11-22_13h32.37.848,vts_reward_expectancy_bt_OFFLINE,2022.2.4,59.95980258642396,
,,,,,,,,,,,,,,,,,,,,,,,,,,,,,,,,,,0,0,0,0,7,0,7,0,,,,,,,,,,,,,,,,,,,,,,,,,,,,0,1008,,,722.5794151639566,,,Y,139,star,0.00033591920509934425,,,,,1,0,,,2,,,,,,,,,718.6212500708643,718.6212500708643,718.6212500708643,718.6212500708643,720.1100039379671,720.1100039379671,720.1100039379671,720.1100039379671,720.1268425439484,720.1268425439484,720.1268425439484,720.1268425439484,repeat,letter,lettRpt,f,0.9428868570830673,vtsPrac,721.0790160489269,,,,,,,,,,,,,,,,,,,,,,,,,,,,,11801,2022-11-22_13h32.37.848,vts_reward_expectancy_bt_OFFLINE,2022.2.4,59.95980258642396,
,,,,,,,,,,,,,,,,,,,,,,,,,,,,,,,,,,0,0,0,0,8,0,8,0,,,,,,,,,,,,,,,,,,,,,,,,,,,,0,1008,,,727.5830847658217,,,Y,174,triangle,0.0018442301079630852,,,,,1,0,,,2,,,,,,,,,723.5742862450425,723.5742862450425,723.5742862450425,723.5742862450425,725.0637427689508,725.0637427689508,725.0637427689508,725.0637427689508,725.0803821689915,725.0803821689915,725.0803821689915,725.0803821689915,switch,number,numSwt,k,0.9849428359884769,vtsPrac,726.080756020965,,,,,,,,,,,,,,,,,,,,,,,,,,,,,11801,2022-11-22_13h32.37.848,vts_reward_expectancy_bt_OFFLINE,2022.2.4,59.95980258642396,
,,,,,,,,,,,,,,,,,,,,,,,,,,,,,,,,,,0,0,0,0,9,0,9,0,,,,,,,,,,,,,,,,,,,,,,,,,,,,0,1008,,,732.3272257619537,,,H,139,circle,0.0004925108514726162,,,,,1,0,,,2,,,,,,,,,728.5786019989755,728.5786019989755,728.5786019989755,728.5786019989755,730.0674846980255,730.0674846980255,730.0674846980255,730.0674846980255,730.0838492899202,730.0838492899202,730.0838492899202,730.0838492899202,switch,letter,lettSwt,d,0.7282336112111807,vtsPrac,730.8193752060179,,,,,,,,,,,,,,,,,,,,,,,,,,,,,11801,2022-11-22_13h32.37.848,vts_reward_expectancy_bt_OFFLINE,2022.2.4,59.95980258642396,
,,,,,,,,,,,,,,,,,,,,,,,,,,,,,,,,,,0,0,0,0,10,0,10,0,,,,,,,,,,,,,,,,,,,,,,,,,,,,0,1008,,,737.5737353968434,,738.0738920958247,S,132,circle,0.001933468971401453,,,,,1,0,,,2,,,,,,,,,733.3158569349907,733.3158569349907,733.3158569349907,733.3158569349907,734.8041882680263,734.8041882680263,734.8041882680263,734.8041882680263,734.8211446239147,734.8211446239147,734.8211446239147,734.8211446239147,repeat,letter,lettRpt,f,1.2348281529266387,vtsPrac,736.0714467808139,737.5737353968434,,,,,,,,,,,,,,,,,,,,,,,,,,,,11801,2022-11-22_13h32.37.848,vts_reward_expectancy_bt_OFFLINE,2022.2.4,59.95980258642396,
,,,,,,,,,,,,,,,,,,,,,,,,,,,,,,,,,,0,0,0,0,11,0,11,0,,,,,,,,,,,,,,,,,,,,,,,,,,,,0,1008,,,742.3771335948259,,,B,160,triangle,0.0004590870812535286,,,,,1,0,,,2,,,,,,,,,738.5690722579602,738.5690722579602,738.5690722579602,738.5690722579602,740.0579899300355,740.0579899300355,740.0579899300355,740.0579899300355,740.0746283768676,740.0746283768676,740.0746283768676,740.0746283768676,switch,number,numSwt,k,0.7963980778586119,vtsPrac,740.8765364259016,,,,,,,,,,,,,,,,,,,,,,,,,,,,,11801,2022-11-22_13h32.37.848,vts_reward_expectancy_bt_OFFLINE,2022.2.4,59.95980258642396,
,,,,,,,,,,,,,,,,,,,,,,,,,,,,,,,,,,0,0,0,0,12,0,12,0,,,,,,,,,,,,,,,,,,,,,,,,,,,,0,1008,,,747.0789576158859,,,Y,174,triangle,0.002034717006608844,,,,,1,0,,,2,,,,,,,,,743.3729879339226,743.3729879339226,743.3729879339226,743.3729879339226,744.8614704578649,744.8614704578649,744.8614704578649,744.8614704578649,744.8784664520063,744.8784664520063,744.8784664520063,744.8784664520063,repeat,number,numRpt,k,0.6836503408849239,vtsPrac,745.5639885498676,,,,,,,,,,,,,,,,,,,,,,,,,,,,,11801,2022-11-22_13h32.37.848,vts_reward_expectancy_bt_OFFLINE,2022.2.4,59.95980258642396,
,,,,,,,,,,,,,,,,,,,,,,,,,,,,,,,,,,0,0,0,0,13,0,13,0,,,,,,,,,,,,,,,,,,,,,,,,,,,,0,1008,,,752.8348216249142,,,S,139,star,0.001488194102421403,,,,,1,0,,,2,,,,,,,,,748.0596163098235,748.0596163098235,748.0596163098235,748.0596163098235,749.5484116249718,749.5484116249718,749.5484116249718,749.5484116249718,749.5650683199055,749.5650683199055,749.5650683199055,749.5650683199055,switch,letter,lettSwt,f,1.7577440310269594,vtsPrac,751.334105418995,,,,,,,,,,,,,,,,,,,,,,,,,,,,,11801,2022-11-22_13h32.37.848,vts_reward_expectancy_bt_OFFLINE,2022.2.4,59.95980258642396,
,,,,,,,,,,,,,,,,,,,,,,,,,,,,,,,,,,0,0,0,0,14,0,14,0,,,,,,,,,,,,,,,,,,,,,,,,,,,,0,1008,,,758.988747832831,,759.488977386849,B,167,triangle,0.0017744807992130518,,,,,1,0,,,2,,,,,,,,,753.8300214789342,753.8300214789342,753.8300214789342,753.8300214789342,755.3188810800202,755.3188810800202,755.3188810800202,755.3188810800202,755.3355670229066,755.3355670229066,755.3355670229066,755.3355670229066,switch,number,numSwt,k,2.141354963183403,vtsPrac,757.4897096778732,758.988747832831,,,,,,,,,,,,,,,,,,,,,,,,,,,,11801,2022-11-22_13h32.37.848,vts_reward_expectancy_bt_OFFLINE,2022.2.4,59.95980258642396,
,,,,,,,,,,,,,,,,,,,,,,,,,,,,,,,,,,0,0,0,0,15,0,15,0,,,,,,,,,,,,,,,,,,,,,,,,,,,,0,1008,,,764.5092608230188,,,F,181,circle,0.00029587000608444214,,,,,1,0,,,2,,,,,,,,,759.9852562109008,759.9852562109008,759.9852562109008,759.9852562109008,761.4730295869522,761.4730295869522,761.4730295869522,761.4730295869522,761.4897511110175,761.4897511110175,761.4897511110175,761.4897511110175,switch,letter,lettSwt,d,1.5000286139547825,vtsPrac,762.9938276000321,,,,,,,,,,,,,,,,,,,,,,,,,,,,,11801,2022-11-22_13h32.37.848,vts_reward_expectancy_bt_OFFLINE,2022.2.4,59.95980258642396,
,,,,,,,,,,,,,,,,,,,,,,,,,,,,,,,,,,0,0,0,0,16,0,16,0,,,,,,,,,,,,,,,,,,,,,,,,,,,,0,1008,,,769.3961215228774,,,W,160,circle,0.01663506915792823,,,,,1,0,,,2,,,,,,,,,765.5052387709729,765.5052387709729,765.5052387709729,765.5052387709729,766.9769946229644,766.9769946229644,766.9769946229644,766.9769946229644,767.0102875388693,767.0102875388693,767.0102875388693,767.0102875388693,repeat,letter,lettRpt,f,0.8778584010433406,vtsPrac,767.8806721768342,,,,,,,,,,,,,,,,,,,,,,,,,,,,,11801,2022-11-22_13h32.37.848,vts_reward_expectancy_bt_OFFLINE,2022.2.4,59.95980258642396,
,,,,,,,,,,,,,,,,,,,,,,,,,,,,,,,,,,0,0,0,0,17,0,17,0,,,,,,,,,,,,,,,,,,,,,,,,,,,,0,1008,,,774.6000256869011,,,B,181,triangle,0.01687170402146876,,,,,1,0,,,2,,,,,,,,,770.3922621179372,770.3922621179372,770.3922621179372,770.3922621179372,771.8637055088766,771.8637055088766,771.8637055088766,771.8637055088766,771.8970490349457,771.8970490349457,771.8970490349457,771.8970490349457,repeat,letter,lettRpt,d,1.2007337550166994,vtsPrac,773.0844886898994,,,,,,,,,,,,,,,,,,,,,,,,,,,,,11801,2022-11-22_13h32.37.848,vts_reward_expectancy_bt_OFFLINE,2022.2.4,59.95980258642396,
,,,,,,,,,,,,,,,,,,,,,,,,,,,,,,,,,,0,0,0,0,18,0,18,0,,,,,,,,,,,,,,,,,,,,,,,,,,,,0,1008,,,779.4534121449105,,,Y,125,triangle,0.017214932944625616,,,,,1,0,,,2,,,,,,,,,775.5960504550021,775.5960504550021,775.5960504550021,775.5960504550021,777.0676029250026,777.0676029250026,777.0676029250026,777.0676029250026,777.1007876968943,777.1007876968943,777.1007876968943,777.1007876968943,repeat,letter,lettRpt,f,0.8454491840675473,vtsPrac,777.9379906118847,,,,,,,,,,,,,,,,,,,,,,,,,,,,,11801,2022-11-22_13h32.37.848,vts_reward_expectancy_bt_OFFLINE,2022.2.4,59.95980258642396,
,,,,,,,,,,,,,,,,,,,,,,,,,,,,,,,,,,0,0,0,0,19,0,19,0,,,,,,,,,,,,,,,,,,,,,,,,,,,,0,1008,,,784.440521123819,,784.9407219218556,F,139,star,0.000488567166030407,,,,,1,0,,,2,,,,,,,,,780.4326192478184,780.4326192478184,780.4326192478184,780.4326192478184,781.9211488999426,781.9211488999426,781.9211488999426,781.9211488999426,781.9378738040105,781.9378738040105,781.9378738040105,781.9378738040105,switch,number,numSwt,j,0.9881359820719808,vtsPrac,782.9414916888345,784.440521123819,,,,,,,,,,,,,,,,,,,,,,,,,,,,11801,2022-11-22_13h32.37.848,vts_reward_expectancy_bt_OFFLINE,2022.2.4,59.95980258642396,
,,,,,,,,,,,,,,,,,,,,,,,,,,,,,,,,,,0,0,0,0,20,0,20,0,,,,,,,,,,,,,,,,,,,,,,,,,,,,0,1008,,,789.5274271660019,,,D,160,circle,0.0005246589425951242,,,,,1,0,,,2,,,,,,,,,785.436817009002,785.436817009002,785.436817009002,785.436817009002,786.924720391864,786.924720391864,786.924720391864,786.924720391864,786.941353542963,786.941353542963,786.941353542963,786.941353542963,switch,letter,lettSwt,d,1.0576171621214598,vtsPrac,788.0119483419694,,,,,,,,,,,,,,,,,,,,,,,,,,,,,11801,2022-11-22_13h32.37.848,vts_reward_expectancy_bt_OFFLINE,2022.2.4,59.95980258642396,
,,,,,,,,,,,,,,,,,,,,,,,,,,,,,,,,,,0,0,0,0,21,0,21,0,,,,,,,,,,,,,,,,,,,,,,,,,,,,0,1008,,,794.231108045904,,,S,139,hexagon,0.017003041924908757,,,,,1,0,,,2,,,,,,,,,790.5234861508943,790.5234861508943,790.5234861508943,790.5234861508943,791.9951565389056,791.9951565389056,791.9951565389056,791.9951565389056,792.0284442319535,792.0284442319535,792.0284442319535,792.0284442319535,repeat,letter,lettRpt,f,0.6901475528720766,vtsPrac,792.7158580180258,,,,,,,,,,,,,,,,,,,,,,,,,,,,,11801,2022-11-22_13h32.37.848,vts_reward_expectancy_bt_OFFLINE,2022.2.4,59.95980258642396,
,,,,,,,,,,,,,,,,,,,,,,,,,,,,,,,,,,0,0,0,0,22,0,22,0,,,,,,,,,,,,,,,,,,,,,,,,,,,,0,1008,,,799.8349811448716,,,H,146,triangle,0.016634163912385702,,,,,1,0,,,2,,,,,,,,,795.2269558778498,795.2269558778498,795.2269558778498,795.2269558778498,796.698734896956,796.698734896956,796.698734896956,796.698734896956,796.7319490090013,796.7319490090013,796.7319490090013,796.7319490090013,switch,number,numSwt,j,1.5891287468839437,vtsPrac,798.3194644970354,,,,,,,,,,,,,,,,,,,,,,,,,,,,,11801,2022-11-22_13h32.37.848,vts_reward_expectancy_bt_OFFLINE,2022.2.4,59.95980258642396,
,,,,,,,,,,,,,,,,,,,,,,,,,,,,,,,,,,0,0,0,0,23,0,23,0,,,,,,,,,,,,,,,,,,,,,,,,,,,,0,1008,,,805.0218228008598,,,U,167,hexagon,0.01656185183674097,,,,,1,0,,,2,,,,,,,,,800.8302438289393,800.8302438289393,800.8302438289393,800.8302438289393,802.3021329278126,802.3021329278126,802.3021329278126,802.3021329278126,802.3355372319929,802.3355372319929,802.3355372319929,802.3355372319929,repeat,number,numRpt,k,1.1838307650759816,vtsPrac,803.5062567179557,,,,,,,,,,,,,,,,,,,,,,,,,,,,,11801,2022-11-22_13h32.37.848,vts_reward_expectancy_bt_OFFLINE,2022.2.4,59.95980258642396,
,,,,,,,,,,,,,,,,,,,,,,,,,,,,,,,,,,0,0,0,0,24,0,24,0,,,,,,,,,,,,,,,,,,,,,,,,,,,,0,1008,,,810.5420070500113,,,D,181,hexagon,0.016795429168269038,,,,,1,0,,,2,,,,,,,,,806.0178443838377,806.0178443838377,806.0178443838377,806.0178443838377,807.4914519130252,807.4914519130252,807.4914519130252,807.4914519130252,807.5246253239457,807.5246253239457,807.5246253239457,807.5246253239457,switch,letter,lettSwt,d,1.5080191399902105,vtsPrac,809.0270973548759,,,,,,,,,,,,,,,,,,,,,,,,,,,,,11801,2022-11-22_13h32.37.848,vts_reward_expectancy_bt_OFFLINE,2022.2.4,59.95980258642396,
,,,,,,,,,,,,,,,,,,,,,,,,,,,,,,,,,,0,0,0,0,25,0,25,0,,,,,,,,,,,,,,,,,,,,,,,,,,,,0,1008,,,817.2630753070116,,,U,132,circle,0.016717642080038786,,,,,1,0,,,2,,,,,,,,,811.5381942738313,811.5381942738313,811.5381942738313,811.5381942738313,813.0116685619578,813.0116685619578,813.0116685619578,813.0116685619578,813.0451365478802,813.0451365478802,813.0451365478802,813.0451365478802,switch,number,numSwt,j,2.703496381174773,vtsPrac,815.7483169909101,,,,,,,,,,,,,,,,,,,,,,,,,,,,,11801,2022-11-22_13h32.37.848,vts_reward_expectancy_bt_OFFLINE,2022.2.4,59.95980258642396,
