LTriangleOpac,LCircleOpac,LHexagonOpac,LStarOpac,RTriangleOpac,RCircleOpac,RHexagonOpac,RStarOpac,LShape_ID,RShape_ID,training_blocks.thisRepN,training_blocks.thisTrialN,training_blocks.thisN,training_blocks.thisIndex,training.thisRepN,training.thisTrialN,training.thisN,training.thisIndex,task1_prac_redo.thisRepN,task1_prac_redo.thisTrialN,task1_prac_redo.thisN,task1_prac_redo.thisIndex,task1_prac_trials.thisRepN,task1_prac_trials.thisTrialN,task1_prac_trials.thisN,task1_prac_trials.thisIndex,task2_prac_redo.thisRepN,task2_prac_redo.thisTrialN,task2_prac_redo.thisN,task2_prac_redo.thisIndex,task2_praac_trials.thisRepN,task2_praac_trials.thisTrialN,task2_praac_trials.thisN,task2_praac_trials.thisIndex,vts_prac_redo.thisRepN,vts_prac_redo.thisTrialN,vts_prac_redo.thisN,vts_prac_redo.thisIndex,vts_practice_trials.thisRepN,vts_practice_trials.thisTrialN,vts_practice_trials.thisN,vts_practice_trials.thisIndex,trials_norew.thisRepN,trials_norew.thisTrialN,trials_norew.thisN,trials_norew.thisIndex,block.thisRepN,block.thisTrialN,block.thisN,block.thisIndex,trials_rew.thisRepN,trials_rew.thisTrialN,trials_rew.thisN,trials_rew.thisIndex,key_resp.started,key_resp.keys,key_resp.rt,left_circle.started,right_circle.started,left_triangle.started,right_triangle.started,left_star.started,right_star.started,left_hexagon.started,right_hexagon.started,training_fix.started,training_resp.started,training_resp.keys,training_resp.rt,points_trial,points_cumul,trainBlock,training_feedback_txt.started,fix.started,training_feedback_txt.stopped,fix.stopped,curr_topStim,curr_bottStim,curr_shape,ISI.started,tgt_fix_prac1.started,top_target_prac1.started,bott_target_prac1.started,target_resp_prac1.started,acc,E1,target_resp_prac1.keys,target_resp_prac1.rt,pracBlock,prac_fback_text.started,tgt_fix_prac2.started,top_target_prac2.started,bott_target_prac2.started,target_resp_prac2.started,target_resp_prac2.keys,target_resp_prac2.rt,prac_fback_text.stopped,star.started,hegagon.started,triangle.started,circle.started,top_target.started,tgt_fix.started,bot_target.started,target_resp.started,star.stopped,hegagon.stopped,triangle.stopped,circle.stopped,top_target.stopped,tgt_fix.stopped,bot_target.stopped,target_resp.stopped,alt,task,condition,target_resp.keys,rewCond,vts_fback.started,target_resp.rt,vts_fback.stopped,blockNum,norew_fback.started,norew_fback.stopped,key_resp_2.keys,key_resp_2.rt,rewExpectancy,feedbk_text.started,feedbk_text.stopped,text_3.started,text_3.stopped,button.started,debrief.index,debrief.itemText,debrief.type,debrief.granularity,debrief.font,debrief.markerColor,debrief.response,debrief.rt,button.numClicks,button.timesOn,button.timesOff,participant,date,expName,psychopyVersion,frameRate,
,,,,,,,,,,,,,,,,,,,,,,,,,,,,,,,,,,,,,,,,,,,,,,,,,,,,,,17.344731708988547,space,15.842890936997719,,,,,,,,,,,,,,,,,,,,,,,,,,,,,,,,,,,,,,,,,,,,,,,,,,,,,,,,,,,,,,,,,,,,,,,,,,,,,,,,,,,,,,,11919,2022-10-31_10h45.34.358,vts_reward_expectancy_bt_OFFLINE,2022.2.4,59.866688873590654,
0,0,1,0,0,1,0,0,hexagon,circle,0,0,0,0,0,0,0,7,,,,,,,,,,,,,,,,,,,,,,,,,,,,,,,,,,,,,,,,60.073200049984735,60.073200049984735,60.073200049984735,60.073200049984735,60.073200049984735,60.073200049984735,60.073200049984735,60.073200049984735,60.073200049984735,60.073200049984735,a,1.386130228987895,1,1,0,61.4913246880169,62.99296847800724,,,,,,,,,,,,,,,,,,,,,,,,,,,,,,,,,,,,,,,,,,,,,,,,,,,,,,,,,,,,,,,,,,,,,,11919,2022-10-31_10h45.34.358,vts_reward_expectancy_bt_OFFLINE,2022.2.4,59.866688873590654,
0,0,0,1,0,0,1,0,star,hexagon,0,0,0,0,0,1,1,11,,,,,,,,,,,,,,,,,,,,,,,,,,,,,,,,,,,,,,,,63.493551989027765,63.493551989027765,63.493551989027765,63.493551989027765,63.493551989027765,63.493551989027765,63.493551989027765,63.493551989027765,63.493551989027765,63.493551989027765,a,3.1492002019658685,10,11,0,66.66453133203322,68.16556946700439,,,,,,,,,,,,,,,,,,,,,,,,,,,,,,,,,,,,,,,,,,,,,,,,,,,,,,,,,,,,,,,,,,,,,,11919,2022-10-31_10h45.34.358,vts_reward_expectancy_bt_OFFLINE,2022.2.4,59.866688873590654,
1,0,0,0,0,1,0,0,triangle,circle,0,0,0,0,0,2,2,0,,,,,,,,,,,,,,,,,,,,,,,,,,,,,,,,,,,,,,,,68.6657047420158,68.6657047420158,68.6657047420158,68.6657047420158,68.6657047420158,68.6657047420158,68.6657047420158,68.6657047420158,68.6657047420158,68.6657047420158,l,1.353922476992011,10,21,0,70.05089432001114,71.55252215400105,,,,,,,,,,,,,,,,,,,,,,,,,,,,,,,,,,,,,,,,,,,,,,,,,,,,,,,,,,,,,,,,,,,,,,11919,2022-10-31_10h45.34.358,vts_reward_expectancy_bt_OFFLINE,2022.2.4,59.866688873590654,
1,0,0,0,0,0,0,1,triangle,star,0,0,0,0,0,3,3,2,,,,,,,,,,,,,,,,,,,,,,,,,,,,,,,,,,,,,,,,72.0530830140342,72.0530830140342,72.0530830140342,72.0530830140342,72.0530830140342,72.0530830140342,72.0530830140342,72.0530830140342,72.0530830140342,72.0530830140342,a,1.0075757770100608,1,22,0,73.0876487980131,74.58911297703162,74.58911297703162,,,,,,,,,,,,,,,,,,,,,,,,,,,,,,,,,,,,,,,,,,,,,,,,,,,,,,,,,,,,,,,,,,,,,11919,2022-10-31_10h45.34.358,vts_reward_expectancy_bt_OFFLINE,2022.2.4,59.866688873590654,
0,0,1,0,0,0,0,1,hexagon,star,0,0,0,0,0,4,4,8,,,,,,,,,,,,,,,,,,,,,,,,,,,,,,,,,,,,,,,,75.08966980001424,75.08966980001424,75.08966980001424,75.08966980001424,75.08966980001424,75.08966980001424,75.08966980001424,75.08966980001424,75.08966980001424,75.08966980001424,l,1.4094074360327795,10,32,0,76.524927749997,78.0263922890299,,,,,,,,,,,,,,,,,,,,,,,,,,,,,,,,,,,,,,,,,,,,,,,,,,,,,,,,,,,,,,,,,,,,,,11919,2022-10-31_10h45.34.358,vts_reward_expectancy_bt_OFFLINE,2022.2.4,59.866688873590654,
0,1,0,0,0,0,0,1,circle,star,0,0,0,0,0,5,5,5,,,,,,,,,,,,,,,,,,,,,,,,,,,,,,,,,,,,,,,,78.52705720800441,78.52705720800441,78.52705720800441,78.52705720800441,78.52705720800441,78.52705720800441,78.52705720800441,78.52705720800441,78.52705720800441,78.52705720800441,l,0.9085296079865657,10,42,0,79.4612371440162,80.96328348800307,,,,,,,,,,,,,,,,,,,,,,,,,,,,,,,,,,,,,,,,,,,,,,,,,,,,,,,,,,,,,,,,,,,,,,11919,2022-10-31_10h45.34.358,vts_reward_expectancy_bt_OFFLINE,2022.2.4,59.866688873590654,
0,0,0,1,1,0,0,0,star,triangle,0,0,0,0,0,6,6,9,,,,,,,,,,,,,,,,,,,,,,,,,,,,,,,,,,,,,,,,81.46350968698971,81.46350968698971,81.46350968698971,81.46350968698971,81.46350968698971,81.46350968698971,81.46350968698971,81.46350968698971,81.46350968698971,81.46350968698971,a,0.8273216799716465,10,52,0,82.31442832702305,83.81605000200216,,,,,,,,,,,,,,,,,,,,,,,,,,,,,,,,,,,,,,,,,,,,,,,,,,,,,,,,,,,,,,,,,,,,,,11919,2022-10-31_10h45.34.358,vts_reward_expectancy_bt_OFFLINE,2022.2.4,59.866688873590654,
0,0,1,0,1,0,0,0,hexagon,triangle,0,0,0,0,0,7,7,6,,,,,,,,,,,,,,,,,,,,,,,,,,,,,,,,,,,,,,,,84.31676397501724,84.31676397501724,84.31676397501724,84.31676397501724,84.31676397501724,84.31676397501724,84.31676397501724,84.31676397501724,84.31676397501724,84.31676397501724,l,1.4148894359823316,1,53,0,85.75160598702496,87.25320279900916,,,,,,,,,,,,,,,,,,,,,,,,,,,,,,,,,,,,,,,,,,,,,,,,,,,,,,,,,,,,,,,,,,,,,,11919,2022-10-31_10h45.34.358,vts_reward_expectancy_bt_OFFLINE,2022.2.4,59.866688873590654,
0,1,0,0,0,0,1,0,circle,hexagon,0,0,0,0,0,8,8,4,,,,,,,,,,,,,,,,,,,,,,,,,,,,,,,,,,,,,,,,87.75371445302153,87.75371445302153,87.75371445302153,87.75371445302153,87.75371445302153,87.75371445302153,87.75371445302153,87.75371445302153,87.75371445302153,87.75371445302153,a,2.250387382984627,1,54,0,90.0229245829978,91.52471623301972,,,,,,,,,,,,,,,,,,,,,,,,,,,,,,,,,,,,,,,,,,,,,,,,,,,,,,,,,,,,,,,,,,,,,,11919,2022-10-31_10h45.34.358,vts_reward_expectancy_bt_OFFLINE,2022.2.4,59.866688873590654,
0,0,0,1,0,1,0,0,star ,circle,0,0,0,0,0,9,9,10,,,,,,,,,,,,,,,,,,,,,,,,,,,,,,,,,,,,,,,,92.02528384298785,92.02528384298785,92.02528384298785,92.02528384298785,92.02528384298785,92.02528384298785,92.02528384298785,92.02528384298785,92.02528384298785,92.02528384298785,a,0.753429508942645,1,55,0,92.80949773703469,94.31080767902313,,,,,,,,,,,,,,,,,,,,,,,,,,,,,,,,,,,,,,,,,,,,,,,,,,,,,,,,,,,,,,,,,,,,,,11919,2022-10-31_10h45.34.358,vts_reward_expectancy_bt_OFFLINE,2022.2.4,59.866688873590654,
0,1,0,0,1,0,0,0,circle,triangle,0,0,0,0,0,10,10,3,,,,,,,,,,,,,,,,,,,,,,,,,,,,,,,,,,,,,,,,94.81153427902609,94.81153427902609,94.81153427902609,94.81153427902609,94.81153427902609,94.81153427902609,94.81153427902609,94.81153427902609,94.81153427902609,94.81153427902609,a,0.8561112930183299,1,56,0,95.69571106898366,97.1973897240241,,,,,,,,,,,,,,,,,,,,,,,,,,,,,,,,,,,,,,,,,,,,,,,,,,,,,,,,,,,,,,,,,,,,,,11919,2022-10-31_10h45.34.358,vts_reward_expectancy_bt_OFFLINE,2022.2.4,59.866688873590654,
1,0,0,0,0,0,1,0,triangle,hexagon,0,0,0,0,0,11,11,1,,,,,,,,,,,,,,,,,,,,,,,,,,,,,,,,,,,,,,,,97.69814465899253,97.69814465899253,97.69814465899253,97.69814465899253,97.69814465899253,97.69814465899253,97.69814465899253,97.69814465899253,97.69814465899253,97.69814465899253,l,1.001622251002118,10,66,0,98.7323589969892,100.23404296202352,,,,,,,,,,,,,,,,,,,,,,,,,,,,,,,,,,,,,,,,,,,,,,,,,,,,,,,,,,,,,,,,,,,,,,11919,2022-10-31_10h45.34.358,vts_reward_expectancy_bt_OFFLINE,2022.2.4,59.866688873590654,
0,1,0,0,1,0,0,0,circle,triangle,0,0,0,0,1,0,12,3,,,,,,,,,,,,,,,,,,,,,,,,,,,,,,,,,,,,,,,,100.73464858700754,100.73464858700754,100.73464858700754,100.73464858700754,100.73464858700754,100.73464858700754,100.73464858700754,100.73464858700754,100.73464858700754,100.73464858700754,l,1.0447242090012878,1,67,0,101.80250453698682,103.30410592799308,,,,,,,,,,,,,,,,,,,,,,,,,,,,,,,,,,,,,,,,,,,,,,,,,,,,,,,,,,,,,,,,,,,,,,11919,2022-10-31_10h45.34.358,vts_reward_expectancy_bt_OFFLINE,2022.2.4,59.866688873590654,
1,0,0,0,0,0,1,0,triangle,hexagon,0,0,0,0,1,1,13,1,,,,,,,,,,,,,,,,,,,,,,,,,,,,,,,,,,,,,,,,103.80470932502067,103.80470932502067,103.80470932502067,103.80470932502067,103.80470932502067,103.80470932502067,103.80470932502067,103.80470932502067,103.80470932502067,103.80470932502067,l,0.7921043919632211,1,68,0,104.62216695200186,106.12418603000697,,,,,,,,,,,,,,,,,,,,,,,,,,,,,,,,,,,,,,,,,,,,,,,,,,,,,,,,,,,,,,,,,,,,,,11919,2022-10-31_10h45.34.358,vts_reward_expectancy_bt_OFFLINE,2022.2.4,59.866688873590654,
1,0,0,0,0,1,0,0,triangle,circle,0,0,0,0,1,2,14,0,,,,,,,,,,,,,,,,,,,,,,,,,,,,,,,,,,,,,,,,106.62448479200248,106.62448479200248,106.62448479200248,106.62448479200248,106.62448479200248,106.62448479200248,106.62448479200248,106.62448479200248,106.62448479200248,106.62448479200248,a,2.5308043289696798,10,78,0,109.17735043901484,110.67912016698392,,,,,,,,,,,,,,,,,,,,,,,,,,,,,,,,,,,,,,,,,,,,,,,,,,,,,,,,,,,,,,,,,,,,,,11919,2022-10-31_10h45.34.358,vts_reward_expectancy_bt_OFFLINE,2022.2.4,59.866688873590654,
0,0,0,1,0,1,0,0,star ,circle,0,0,0,0,1,3,15,10,,,,,,,,,,,,,,,,,,,,,,,,,,,,,,,,,,,,,,,,111.17976887698751,111.17976887698751,111.17976887698751,111.17976887698751,111.17976887698751,111.17976887698751,111.17976887698751,111.17976887698751,111.17976887698751,111.17976887698751,a,1.375970373977907,10,88,0,112.58108827500837,114.08280595199903,,,,,,,,,,,,,,,,,,,,,,,,,,,,,,,,,,,,,,,,,,,,,,,,,,,,,,,,,,,,,,,,,,,,,,11919,2022-10-31_10h45.34.358,vts_reward_expectancy_bt_OFFLINE,2022.2.4,59.866688873590654,
0,1,0,0,0,0,1,0,circle,hexagon,0,0,0,0,1,4,16,4,,,,,,,,,,,,,,,,,,,,,,,,,,,,,,,,,,,,,,,,114.58332238200819,114.58332238200819,114.58332238200819,114.58332238200819,114.58332238200819,114.58332238200819,114.58332238200819,114.58332238200819,114.58332238200819,114.58332238200819,l,1.6688486549537629,1,89,0,116.26859242701903,117.77005053998437,117.77005053998437,118.27073090901831,,,,,,,,,,,,,,,,,,,,,,,,,,,,,,,,,,,,,,,,,,,,,,,,,,,,,,,,,,,,,,,,,,,,11919,2022-10-31_10h45.34.358,vts_reward_expectancy_bt_OFFLINE,2022.2.4,59.866688873590654,
0,0,1,0,0,0,0,1,hexagon,star,0,0,0,0,1,5,17,8,,,,,,,,,,,,,,,,,,,,,,,,,,,,,,,,,,,,,,,,118.27073090901831,118.27073090901831,118.27073090901831,118.27073090901831,118.27073090901831,118.27073090901831,118.27073090901831,118.27073090901831,118.27073090901831,118.27073090901831,l,0.7420245729736052,1,90,0,119.03825357399182,120.53994515701197,,,,,,,,,,,,,,,,,,,,,,,,,,,,,,,,,,,,,,,,,,,,,,,,,,,,,,,,,,,,,,,,,,,,,,11919,2022-10-31_10h45.34.358,vts_reward_expectancy_bt_OFFLINE,2022.2.4,59.866688873590654,
1,0,0,0,0,0,0,1,triangle,star,0,0,0,0,1,6,18,2,,,,,,,,,,,,,,,,,,,,,,,,,,,,,,,,,,,,,,,,121.04028233198915,121.04028233198915,121.04028233198915,121.04028233198915,121.04028233198915,121.04028233198915,121.04028233198915,121.04028233198915,121.04028233198915,121.04028233198915,l,0.6680798709858209,10,100,0,121.74130126199452,123.24309773300774,,,,,,,,,,,,,,,,,,,,,,,,,,,,,,,,,,,,,,,,,,,,,,,,,,,,,,,,,,,,,,,,,,,,,,11919,2022-10-31_10h45.34.358,vts_reward_expectancy_bt_OFFLINE,2022.2.4,59.866688873590654,
0,0,1,0,0,1,0,0,hexagon,circle,0,0,0,0,1,7,19,7,,,,,,,,,,,,,,,,,,,,,,,,,,,,,,,,,,,,,,,,123.74352876399644,123.74352876399644,123.74352876399644,123.74352876399644,123.74352876399644,123.74352876399644,123.74352876399644,123.74352876399644,123.74352876399644,123.74352876399644,a,1.8531610939535312,1,101,0,125.62888611899689,127.13068455999019,,,,,,,,,,,,,,,,,,,,,,,,,,,,,,,,,,,,,,,,,,,,,,,,,,,,,,,,,,,,,,,,,,,,,,11919,2022-10-31_10h45.34.358,vts_reward_expectancy_bt_OFFLINE,2022.2.4,59.866688873590654,
0,0,0,1,0,0,1,0,star,hexagon,0,0,0,0,1,8,20,11,,,,,,,,,,,,,,,,,,,,,,,,,,,,,,,,,,,,,,,,127.63118309900165,127.63118309900165,127.63118309900165,127.63118309900165,127.63118309900165,127.63118309900165,127.63118309900165,127.63118309900165,127.63118309900165,127.63118309900165,a,0.5347012630081736,10,111,0,128.19835909001995,129.6999908850412,,,,,,,,,,,,,,,,,,,,,,,,,,,,,,,,,,,,,,,,,,,,,,,,,,,,,,,,,,,,,,,,,,,,,,11919,2022-10-31_10h45.34.358,vts_reward_expectancy_bt_OFFLINE,2022.2.4,59.866688873590654,
0,1,0,0,0,0,0,1,circle,star,0,0,0,0,1,9,21,5,,,,,,,,,,,,,,,,,,,,,,,,,,,,,,,,,,,,,,,,130.2004995699972,130.2004995699972,130.2004995699972,130.2004995699972,130.2004995699972,130.2004995699972,130.2004995699972,130.2004995699972,130.2004995699972,130.2004995699972,l,0.6021927769761533,10,121,0,130.83462406799663,132.3362476520124,,,,,,,,,,,,,,,,,,,,,,,,,,,,,,,,,,,,,,,,,,,,,,,,,,,,,,,,,,,,,,,,,,,,,,11919,2022-10-31_10h45.34.358,vts_reward_expectancy_bt_OFFLINE,2022.2.4,59.866688873590654,
0,0,1,0,1,0,0,0,hexagon,triangle,0,0,0,0,1,10,22,6,,,,,,,,,,,,,,,,,,,,,,,,,,,,,,,,,,,,,,,,132.83683313400252,132.83683313400252,132.83683313400252,132.83683313400252,132.83683313400252,132.83683313400252,132.83683313400252,132.83683313400252,132.83683313400252,132.83683313400252,a,0.9587435509311035,10,131,0,133.82121377403382,135.32284168701153,,,,,,,,,,,,,,,,,,,,,,,,,,,,,,,,,,,,,,,,,,,,,,,,,,,,,,,,,,,,,,,,,,,,,,11919,2022-10-31_10h45.34.358,vts_reward_expectancy_bt_OFFLINE,2022.2.4,59.866688873590654,
0,0,0,1,1,0,0,0,star,triangle,0,0,0,0,1,11,23,9,,,,,,,,,,,,,,,,,,,,,,,,,,,,,,,,,,,,,,,,135.82348779198946,135.82348779198946,135.82348779198946,135.82348779198946,135.82348779198946,135.82348779198946,135.82348779198946,135.82348779198946,135.82348779198946,135.82348779198946,a,1.203236701025162,10,141,0,137.05825300404103,138.56005919503514,,,,,,,,,,,,,,,,,,,,,,,,,,,,,,,,,,,,,,,,,,,,,,,,,,,,,,,,,,,,,,,,,,,,,,11919,2022-10-31_10h45.34.358,vts_reward_expectancy_bt_OFFLINE,2022.2.4,59.866688873590654,
0,0,1,0,0,0,0,1,hexagon,star,0,0,0,0,2,0,24,8,,,,,,,,,,,,,,,,,,,,,,,,,,,,,,,,,,,,,,,,139.06033148500137,139.06033148500137,139.06033148500137,139.06033148500137,139.06033148500137,139.06033148500137,139.06033148500137,139.06033148500137,139.06033148500137,139.06033148500137,l,1.2705493939574808,10,151,0,140.36183613201138,141.86348415800603,,,,,,,,,,,,,,,,,,,,,,,,,,,,,,,,,,,,,,,,,,,,,,,,,,,,,,,,,,,,,,,,,,,,,,11919,2022-10-31_10h45.34.358,vts_reward_expectancy_bt_OFFLINE,2022.2.4,59.866688873590654,
1,0,0,0,0,0,1,0,triangle,hexagon,0,0,0,0,2,1,25,1,,,,,,,,,,,,,,,,,,,,,,,,,,,,,,,,,,,,,,,,142.3638689389918,142.3638689389918,142.3638689389918,142.3638689389918,142.3638689389918,142.3638689389918,142.3638689389918,142.3638689389918,142.3638689389918,142.3638689389918,l,0.8711639670073055,1,152,0,143.2650674789911,144.76669202902121,,,,,,,,,,,,,,,,,,,,,,,,,,,,,,,,,,,,,,,,,,,,,,,,,,,,,,,,,,,,,,,,,,,,,,11919,2022-10-31_10h45.34.358,vts_reward_expectancy_bt_OFFLINE,2022.2.4,59.866688873590654,
0,0,0,1,0,0,1,0,star,hexagon,0,0,0,0,2,2,26,11,,,,,,,,,,,,,,,,,,,,,,,,,,,,,,,,,,,,,,,,145.2672601590166,145.2672601590166,145.2672601590166,145.2672601590166,145.2672601590166,145.2672601590166,145.2672601590166,145.2672601590166,145.2672601590166,145.2672601590166,a,0.7360748840146698,10,162,0,146.03474054503022,147.5363793800352,,,,,,,,,,,,,,,,,,,,,,,,,,,,,,,,,,,,,,,,,,,,,,,,,,,,,,,,,,,,,,,,,,,,,,11919,2022-10-31_10h45.34.358,vts_reward_expectancy_bt_OFFLINE,2022.2.4,59.866688873590654,
0,1,0,0,1,0,0,0,circle,triangle,0,0,0,0,2,3,27,3,,,,,,,,,,,,,,,,,,,,,,,,,,,,,,,,,,,,,,,,148.03684928803705,148.03684928803705,148.03684928803705,148.03684928803705,148.03684928803705,148.03684928803705,148.03684928803705,148.03684928803705,148.03684928803705,148.03684928803705,a,1.5833742099930532,10,172,0,149.63879237900255,151.14054505899549,,,,,,,,,,,,,,,,,,,,,,,,,,,,,,,,,,,,,,,,,,,,,,,,,,,,,,,,,,,,,,,,,,,,,,11919,2022-10-31_10h45.34.358,vts_reward_expectancy_bt_OFFLINE,2022.2.4,59.866688873590654,
0,1,0,0,0,0,0,1,circle,star,0,0,0,0,2,4,28,5,,,,,,,,,,,,,,,,,,,,,,,,,,,,,,,,,,,,,,,,151.6410524850362,151.6410524850362,151.6410524850362,151.6410524850362,151.6410524850362,151.6410524850362,151.6410524850362,151.6410524850362,151.6410524850362,151.6410524850362,l,1.0353231790359132,10,182,0,152.70865674800007,154.21029561199248,,,,,,,,,,,,,,,,,,,,,,,,,,,,,,,,,,,,,,,,,,,,,,,,,,,,,,,,,,,,,,,,,,,,,,11919,2022-10-31_10h45.34.358,vts_reward_expectancy_bt_OFFLINE,2022.2.4,59.866688873590654,
0,0,0,1,0,1,0,0,star ,circle,0,0,0,0,2,5,29,10,,,,,,,,,,,,,,,,,,,,,,,,,,,,,,,,,,,,,,,,154.71088414202677,154.71088414202677,154.71088414202677,154.71088414202677,154.71088414202677,154.71088414202677,154.71088414202677,154.71088414202677,154.71088414202677,154.71088414202677,a,1.6040733809932135,10,192,0,156.34604877902893,157.84760496299714,,,,,,,,,,,,,,,,,,,,,,,,,,,,,,,,,,,,,,,,,,,,,,,,,,,,,,,,,,,,,,,,,,,,,,11919,2022-10-31_10h45.34.358,vts_reward_expectancy_bt_OFFLINE,2022.2.4,59.866688873590654,
0,0,1,0,0,1,0,0,hexagon,circle,0,0,0,0,2,6,30,7,,,,,,,,,,,,,,,,,,,,,,,,,,,,,,,,,,,,,,,,158.34826265403535,158.34826265403535,158.34826265403535,158.34826265403535,158.34826265403535,158.34826265403535,158.34826265403535,158.34826265403535,158.34826265403535,158.34826265403535,a,1.2783614989602938,1,193,0,159.6496688820189,161.1511653800262,,,,,,,,,,,,,,,,,,,,,,,,,,,,,,,,,,,,,,,,,,,,,,,,,,,,,,,,,,,,,,,,,,,,,,11919,2022-10-31_10h45.34.358,vts_reward_expectancy_bt_OFFLINE,2022.2.4,59.866688873590654,
0,1,0,0,0,0,1,0,circle,hexagon,0,0,0,0,2,7,31,4,,,,,,,,,,,,,,,,,,,,,,,,,,,,,,,,,,,,,,,,161.65192581299925,161.65192581299925,161.65192581299925,161.65192581299925,161.65192581299925,161.65192581299925,161.65192581299925,161.65192581299925,161.65192581299925,161.65192581299925,l,1.3026994909741916,1,194,0,162.9870747620007,164.48859912902117,,,,,,,,,,,,,,,,,,,,,,,,,,,,,,,,,,,,,,,,,,,,,,,,,,,,,,,,,,,,,,,,,,,,,,11919,2022-10-31_10h45.34.358,vts_reward_expectancy_bt_OFFLINE,2022.2.4,59.866688873590654,
0,0,1,0,1,0,0,0,hexagon,triangle,0,0,0,0,2,8,32,6,,,,,,,,,,,,,,,,,,,,,,,,,,,,,,,,,,,,,,,,164.98915999900782,164.98915999900782,164.98915999900782,164.98915999900782,164.98915999900782,164.98915999900782,164.98915999900782,164.98915999900782,164.98915999900782,164.98915999900782,l,1.4621823959751055,1,195,0,166.47379766701488,167.9754460970289,,,,,,,,,,,,,,,,,,,,,,,,,,,,,,,,,,,,,,,,,,,,,,,,,,,,,,,,,,,,,,,,,,,,,,11919,2022-10-31_10h45.34.358,vts_reward_expectancy_bt_OFFLINE,2022.2.4,59.866688873590654,
1,0,0,0,0,1,0,0,triangle,circle,0,0,0,0,2,9,33,0,,,,,,,,,,,,,,,,,,,,,,,,,,,,,,,,,,,,,,,,168.47613363503478,168.47613363503478,168.47613363503478,168.47613363503478,168.47613363503478,168.47613363503478,168.47613363503478,168.47613363503478,168.47613363503478,168.47613363503478,l,0.9354768069460988,10,205,0,169.44376598199597,170.9453620929853,,,,,,,,,,,,,,,,,,,,,,,,,,,,,,,,,,,,,,,,,,,,,,,,,,,,,,,,,,,,,,,,,,,,,,11919,2022-10-31_10h45.34.358,vts_reward_expectancy_bt_OFFLINE,2022.2.4,59.866688873590654,
0,0,0,1,1,0,0,0,star,triangle,0,0,0,0,2,10,34,9,,,,,,,,,,,,,,,,,,,,,,,,,,,,,,,,,,,,,,,,171.4460561380256,171.4460561380256,171.4460561380256,171.4460561380256,171.4460561380256,171.4460561380256,171.4460561380256,171.4460561380256,171.4460561380256,171.4460561380256,a,0.7585201500332914,10,215,0,172.23046180198435,173.7320424580248,,,,,,,,,,,,,,,,,,,,,,,,,,,,,,,,,,,,,,,,,,,,,,,,,,,,,,,,,,,,,,,,,,,,,,11919,2022-10-31_10h45.34.358,vts_reward_expectancy_bt_OFFLINE,2022.2.4,59.866688873590654,
1,0,0,0,0,0,0,1,triangle,star,0,0,0,0,2,11,35,2,,,,,,,,,,,,,,,,,,,,,,,,,,,,,,,,,,,,,,,,174.23244684701785,174.23244684701785,174.23244684701785,174.23244684701785,174.23244684701785,174.23244684701785,174.23244684701785,174.23244684701785,174.23244684701785,174.23244684701785,l,0.8349809180363081,1,216,0,175.10014010802843,176.60162731900346,,,,,,,,,,,,,,,,,,,,,,,,,,,,,,,,,,,,,,,,,,,,,,,,,,,,,,,,,,,,,,,,,,,,,,11919,2022-10-31_10h45.34.358,vts_reward_expectancy_bt_OFFLINE,2022.2.4,59.866688873590654,
0,0,0,1,0,0,1,0,star,hexagon,0,0,0,0,3,0,36,11,,,,,,,,,,,,,,,,,,,,,,,,,,,,,,,,,,,,,,,,177.10229880001862,177.10229880001862,177.10229880001862,177.10229880001862,177.10229880001862,177.10229880001862,177.10229880001862,177.10229880001862,177.10229880001862,177.10229880001862,a,0.7822053179843351,10,226,0,177.90301862399792,179.40490633499576,,,,,,,,,,,,,,,,,,,,,,,,,,,,,,,,,,,,,,,,,,,,,,,,,,,,,,,,,,,,,,,,,,,,,,11919,2022-10-31_10h45.34.358,vts_reward_expectancy_bt_OFFLINE,2022.2.4,59.866688873590654,
1,0,0,0,0,1,0,0,triangle,circle,0,0,0,0,3,1,37,0,,,,,,,,,,,,,,,,,,,,,,,,,,,,,,,,,,,,,,,,179.90517908899346,179.90517908899346,179.90517908899346,179.90517908899346,179.90517908899346,179.90517908899346,179.90517908899346,179.90517908899346,179.90517908899346,179.90517908899346,l,0.9461613440071233,10,236,0,180.87298483302584,182.37487130903173,,,,,,,,,,,,,,,,,,,,,,,,,,,,,,,,,,,,,,,,,,,,,,,,,,,,,,,,,,,,,,,,,,,,,,11919,2022-10-31_10h45.34.358,vts_reward_expectancy_bt_OFFLINE,2022.2.4,59.866688873590654,
0,0,1,0,0,0,0,1,hexagon,star,0,0,0,0,3,2,38,8,,,,,,,,,,,,,,,,,,,,,,,,,,,,,,,,,,,,,,,,182.87523669801885,182.87523669801885,182.87523669801885,182.87523669801885,182.87523669801885,182.87523669801885,182.87523669801885,182.87523669801885,182.87523669801885,182.87523669801885,l,0.8488352079875767,10,246,0,183.74299368698848,185.24451912299264,,,,,,,,,,,,,,,,,,,,,,,,,,,,,,,,,,,,,,,,,,,,,,,,,,,,,,,,,,,,,,,,,,,,,,11919,2022-10-31_10h45.34.358,vts_reward_expectancy_bt_OFFLINE,2022.2.4,59.866688873590654,
0,0,1,0,0,1,0,0,hexagon,circle,0,0,0,0,3,3,39,7,,,,,,,,,,,,,,,,,,,,,,,,,,,,,,,,,,,,,,,,185.74507320398698,185.74507320398698,185.74507320398698,185.74507320398698,185.74507320398698,185.74507320398698,185.74507320398698,185.74507320398698,185.74507320398698,185.74507320398698,l,1.2101319510256872,10,256,0,186.97985032299766,188.4814913450391,,,,,,,,,,,,,,,,,,,,,,,,,,,,,,,,,,,,,,,,,,,,,,,,,,,,,,,,,,,,,,,,,,,,,,11919,2022-10-31_10h45.34.358,vts_reward_expectancy_bt_OFFLINE,2022.2.4,59.866688873590654,
0,0,1,0,1,0,0,0,hexagon,triangle,0,0,0,0,3,4,40,6,,,,,,,,,,,,,,,,,,,,,,,,,,,,,,,,,,,,,,,,188.98233767802594,188.98233767802594,188.98233767802594,188.98233767802594,188.98233767802594,188.98233767802594,188.98233767802594,188.98233767802594,188.98233767802594,188.98233767802594,l,0.7968765029800124,1,257,0,189.799622763996,191.3013017780031,191.3013017780031,,,,,,,,,,,,,,,,,,,,,,,,,,,,,,,,,,,,,,,,,,,,,,,,,,,,,,,,,,,,,,,,,,,,,11919,2022-10-31_10h45.34.358,vts_reward_expectancy_bt_OFFLINE,2022.2.4,59.866688873590654,
0,0,0,1,1,0,0,0,star,triangle,0,0,0,0,3,5,41,9,,,,,,,,,,,,,,,,,,,,,,,,,,,,,,,,,,,,,,,,191.80186174903065,191.80186174903065,191.80186174903065,191.80186174903065,191.80186174903065,191.80186174903065,191.80186174903065,191.80186174903065,191.80186174903065,191.80186174903065,a,0.8515873369760811,10,267,0,192.68622188002337,194.18780667200917,,,,,,,,,,,,,,,,,,,,,,,,,,,,,,,,,,,,,,,,,,,,,,,,,,,,,,,,,,,,,,,,,,,,,,11919,2022-10-31_10h45.34.358,vts_reward_expectancy_bt_OFFLINE,2022.2.4,59.866688873590654,
0,1,0,0,0,0,1,0,circle,hexagon,0,0,0,0,3,6,42,4,,,,,,,,,,,,,,,,,,,,,,,,,,,,,,,,,,,,,,,,194.68832593999105,194.68832593999105,194.68832593999105,194.68832593999105,194.68832593999105,194.68832593999105,194.68832593999105,194.68832593999105,194.68832593999105,194.68832593999105,l,2.227109681989532,1,268,0,196.94094566302374,198.44247039902257,,,,,,,,,,,,,,,,,,,,,,,,,,,,,,,,,,,,,,,,,,,,,,,,,,,,,,,,,,,,,,,,,,,,,,11919,2022-10-31_10h45.34.358,vts_reward_expectancy_bt_OFFLINE,2022.2.4,59.866688873590654,
1,0,0,0,0,0,1,0,triangle,hexagon,0,0,0,0,3,7,43,1,,,,,,,,,,,,,,,,,,,,,,,,,,,,,,,,,,,,,,,,198.94318714301335,198.94318714301335,198.94318714301335,198.94318714301335,198.94318714301335,198.94318714301335,198.94318714301335,198.94318714301335,198.94318714301335,198.94318714301335,l,0.6364192609908059,1,269,0,199.61068980302662,201.11222732503666,,,,,,,,,,,,,,,,,,,,,,,,,,,,,,,,,,,,,,,,,,,,,,,,,,,,,,,,,,,,,,,,,,,,,,11919,2022-10-31_10h45.34.358,vts_reward_expectancy_bt_OFFLINE,2022.2.4,59.866688873590654,
0,1,0,0,0,0,0,1,circle,star,0,0,0,0,3,8,44,5,,,,,,,,,,,,,,,,,,,,,,,,,,,,,,,,,,,,,,,,201.61262018501293,201.61262018501293,201.61262018501293,201.61262018501293,201.61262018501293,201.61262018501293,201.61262018501293,201.61262018501293,201.61262018501293,201.61262018501293,l,0.5749806529493071,1,270,0,202.21347382798558,203.7150134399999,,,,,,,,,,,,,,,,,,,,,,,,,,,,,,,,,,,,,,,,,,,,,,,,,,,,,,,,,,,,,,,,,,,,,,11919,2022-10-31_10h45.34.358,vts_reward_expectancy_bt_OFFLINE,2022.2.4,59.866688873590654,
1,0,0,0,0,0,0,1,triangle,star,0,0,0,0,3,9,45,2,,,,,,,,,,,,,,,,,,,,,,,,,,,,,,,,,,,,,,,,204.21572200703667,204.21572200703667,204.21572200703667,204.21572200703667,204.21572200703667,204.21572200703667,204.21572200703667,204.21572200703667,204.21572200703667,204.21572200703667,l,0.8519757839967497,10,280,0,205.10001037898473,206.60169930802658,206.60169930802658,,,,,,,,,,,,,,,,,,,,,,,,,,,,,,,,,,,,,,,,,,,,,,,,,,,,,,,,,,,,,,,,,,,,,11919,2022-10-31_10h45.34.358,vts_reward_expectancy_bt_OFFLINE,2022.2.4,59.866688873590654,
0,0,0,1,0,1,0,0,star ,circle,0,0,0,0,3,10,46,10,,,,,,,,,,,,,,,,,,,,,,,,,,,,,,,,,,,,,,,,207.10199877800187,207.10199877800187,207.10199877800187,207.10199877800187,207.10199877800187,207.10199877800187,207.10199877800187,207.10199877800187,207.10199877800187,207.10199877800187,a,0.676662003970705,10,290,0,207.80288513901178,209.3044835870387,,,,,,,,,,,,,,,,,,,,,,,,,,,,,,,,,,,,,,,,,,,,,,,,,,,,,,,,,,,,,,,,,,,,,,11919,2022-10-31_10h45.34.358,vts_reward_expectancy_bt_OFFLINE,2022.2.4,59.866688873590654,
0,1,0,0,1,0,0,0,circle,triangle,0,0,0,0,3,11,47,3,,,,,,,,,,,,,,,,,,,,,,,,,,,,,,,,,,,,,,,,209.80502929200884,209.80502929200884,209.80502929200884,209.80502929200884,209.80502929200884,209.80502929200884,209.80502929200884,209.80502929200884,209.80502929200884,209.80502929200884,l,1.1186291740159504,1,291,0,210.9565331779886,212.45803067198722,,,,,,,,,,,,,,,,,,,,,,,,,,,,,,,,,,,,,,,,,,,,,,,,,,,,,,,,,,,,,,,,,,,,,,11919,2022-10-31_10h45.34.358,vts_reward_expectancy_bt_OFFLINE,2022.2.4,59.866688873590654,
0,0,0,1,1,0,0,0,star,triangle,1,0,1,0,0,0,0,9,,,,,,,,,,,,,,,,,,,,,,,,,,,,,,,,,,,,,,,,218.88172235002276,218.88172235002276,218.88172235002276,218.88172235002276,218.88172235002276,218.88172235002276,218.88172235002276,218.88172235002276,218.88172235002276,218.88172235002276,a,0.8017336699413136,10,301,1,219.71602735301713,221.2176529369899,,,,,,,,,,,,,,,,,,,,,,,,,,,,,,,,,,,,,,,,,,,,,,,,,,,,,,,,,,,,,,,,,,,,,,11919,2022-10-31_10h45.34.358,vts_reward_expectancy_bt_OFFLINE,2022.2.4,59.866688873590654,
0,0,0,1,0,0,1,0,star,hexagon,1,0,1,0,0,1,1,11,,,,,,,,,,,,,,,,,,,,,,,,,,,,,,,,,,,,,,,,221.71821962902322,221.71821962902322,221.71821962902322,221.71821962902322,221.71821962902322,221.71821962902322,221.71821962902322,221.71821962902322,221.71821962902322,221.71821962902322,a,0.5964970630011521,10,311,1,222.33549629501067,223.83711316500558,,,,,,,,,,,,,,,,,,,,,,,,,,,,,,,,,,,,,,,,,,,,,,,,,,,,,,,,,,,,,,,,,,,,,,11919,2022-10-31_10h45.34.358,vts_reward_expectancy_bt_OFFLINE,2022.2.4,59.866688873590654,
0,0,1,0,0,0,0,1,hexagon,star,1,0,1,0,0,2,2,8,,,,,,,,,,,,,,,,,,,,,,,,,,,,,,,,,,,,,,,,224.33756767003797,224.33756767003797,224.33756767003797,224.33756767003797,224.33756767003797,224.33756767003797,224.33756767003797,224.33756767003797,224.33756767003797,224.33756767003797,l,0.4516890419763513,10,321,1,224.82177466200665,226.3232091490063,,,,,,,,,,,,,,,,,,,,,,,,,,,,,,,,,,,,,,,,,,,,,,,,,,,,,,,,,,,,,,,,,,,,,,11919,2022-10-31_10h45.34.358,vts_reward_expectancy_bt_OFFLINE,2022.2.4,59.866688873590654,
0,1,0,0,1,0,0,0,circle,triangle,1,0,1,0,0,3,3,3,,,,,,,,,,,,,,,,,,,,,,,,,,,,,,,,,,,,,,,,226.8238544749911,226.8238544749911,226.8238544749911,226.8238544749911,226.8238544749911,226.8238544749911,226.8238544749911,226.8238544749911,226.8238544749911,226.8238544749911,a,0.7793293339782394,10,331,1,227.62477211200166,229.12640170799568,,,,,,,,,,,,,,,,,,,,,,,,,,,,,,,,,,,,,,,,,,,,,,,,,,,,,,,,,,,,,,,,,,,,,,11919,2022-10-31_10h45.34.358,vts_reward_expectancy_bt_OFFLINE,2022.2.4,59.866688873590654,
1,0,0,0,0,0,0,1,triangle,star,1,0,1,0,0,4,4,2,,,,,,,,,,,,,,,,,,,,,,,,,,,,,,,,,,,,,,,,229.62683644902427,229.62683644902427,229.62683644902427,229.62683644902427,229.62683644902427,229.62683644902427,229.62683644902427,229.62683644902427,229.62683644902427,229.62683644902427,l,0.6586579179856926,1,332,1,230.31088663398987,231.81218017503852,231.81218017503852,,,,,,,,,,,,,,,,,,,,,,,,,,,,,,,,,,,,,,,,,,,,,,,,,,,,,,,,,,,,,,,,,,,,,11919,2022-10-31_10h45.34.358,vts_reward_expectancy_bt_OFFLINE,2022.2.4,59.866688873590654,
0,0,1,0,0,1,0,0,hexagon,circle,1,0,1,0,0,5,5,7,,,,,,,,,,,,,,,,,,,,,,,,,,,,,,,,,,,,,,,,232.3127548120101,232.3127548120101,232.3127548120101,232.3127548120101,232.3127548120101,232.3127548120101,232.3127548120101,232.3127548120101,232.3127548120101,232.3127548120101,l,0.6519091879599728,1,333,1,232.99695030401926,234.4988211080199,234.4988211080199,,,,,,,,,,,,,,,,,,,,,,,,,,,,,,,,,,,,,,,,,,,,,,,,,,,,,,,,,,,,,,,,,,,,,11919,2022-10-31_10h45.34.358,vts_reward_expectancy_bt_OFFLINE,2022.2.4,59.866688873590654,
0,0,1,0,1,0,0,0,hexagon,triangle,1,0,1,0,0,6,6,6,,,,,,,,,,,,,,,,,,,,,,,,,,,,,,,,,,,,,,,,234.99958389200037,234.99958389200037,234.99958389200037,234.99958389200037,234.99958389200037,234.99958389200037,234.99958389200037,234.99958389200037,234.99958389200037,234.99958389200037,l,1.1017352089984342,1,334,1,236.1341052800417,237.63579884398496,,,,,,,,,,,,,,,,,,,,,,,,,,,,,,,,,,,,,,,,,,,,,,,,,,,,,,,,,,,,,,,,,,,,,,11919,2022-10-31_10h45.34.358,vts_reward_expectancy_bt_OFFLINE,2022.2.4,59.866688873590654,
1,0,0,0,0,0,1,0,triangle,hexagon,1,0,1,0,0,7,7,1,,,,,,,,,,,,,,,,,,,,,,,,,,,,,,,,,,,,,,,,238.13627927703783,238.13627927703783,238.13627927703783,238.13627927703783,238.13627927703783,238.13627927703783,238.13627927703783,238.13627927703783,238.13627927703783,238.13627927703783,l,0.49146560294320807,1,335,1,238.65352357900701,240.15505199501058,,,,,,,,,,,,,,,,,,,,,,,,,,,,,,,,,,,,,,,,,,,,,,,,,,,,,,,,,,,,,,,,,,,,,,11919,2022-10-31_10h45.34.358,vts_reward_expectancy_bt_OFFLINE,2022.2.4,59.866688873590654,
0,1,0,0,0,0,1,0,circle,hexagon,1,0,1,0,0,8,8,4,,,,,,,,,,,,,,,,,,,,,,,,,,,,,,,,,,,,,,,,240.65562276198762,240.65562276198762,240.65562276198762,240.65562276198762,240.65562276198762,240.65562276198762,240.65562276198762,240.65562276198762,240.65562276198762,240.65562276198762,a,0.5794663219712675,10,345,1,241.25633006799035,242.75798785401275,,,,,,,,,,,,,,,,,,,,,,,,,,,,,,,,,,,,,,,,,,,,,,,,,,,,,,,,,,,,,,,,,,,,,,11919,2022-10-31_10h45.34.358,vts_reward_expectancy_bt_OFFLINE,2022.2.4,59.866688873590654,
0,0,0,1,0,1,0,0,star ,circle,1,0,1,0,0,9,9,10,,,,,,,,,,,,,,,,,,,,,,,,,,,,,,,,,,,,,,,,243.258686073008,243.258686073008,243.258686073008,243.258686073008,243.258686073008,243.258686073008,243.258686073008,243.258686073008,243.258686073008,243.258686073008,a,0.7359595469315536,10,355,1,244.02616816200316,245.52758049801923,,,,,,,,,,,,,,,,,,,,,,,,,,,,,,,,,,,,,,,,,,,,,,,,,,,,,,,,,,,,,,,,,,,,,,11919,2022-10-31_10h45.34.358,vts_reward_expectancy_bt_OFFLINE,2022.2.4,59.866688873590654,
1,0,0,0,0,1,0,0,triangle,circle,1,0,1,0,0,10,10,0,,,,,,,,,,,,,,,,,,,,,,,,,,,,,,,,,,,,,,,,246.02820616500685,246.02820616500685,246.02820616500685,246.02820616500685,246.02820616500685,246.02820616500685,246.02820616500685,246.02820616500685,246.02820616500685,246.02820616500685,l,0.5753573590191081,1,356,1,246.6289923969889,248.13064786803443,,,,,,,,,,,,,,,,,,,,,,,,,,,,,,,,,,,,,,,,,,,,,,,,,,,,,,,,,,,,,,,,,,,,,,11919,2022-10-31_10h45.34.358,vts_reward_expectancy_bt_OFFLINE,2022.2.4,59.866688873590654,
0,1,0,0,0,0,0,1,circle,star,1,0,1,0,0,11,11,5,,,,,,,,,,,,,,,,,,,,,,,,,,,,,,,,,,,,,,,,248.63116194901522,248.63116194901522,248.63116194901522,248.63116194901522,248.63116194901522,248.63116194901522,248.63116194901522,248.63116194901522,248.63116194901522,248.63116194901522,a,0.36530378501629457,10,366,1,249.0149645790225,250.51664455700666,,,,,,,,,,,,,,,,,,,,,,,,,,,,,,,,,,,,,,,,,,,,,,,,,,,,,,,,,,,,,,,,,,,,,,11919,2022-10-31_10h45.34.358,vts_reward_expectancy_bt_OFFLINE,2022.2.4,59.866688873590654,
0,1,0,0,1,0,0,0,circle,triangle,1,0,1,0,1,0,12,3,,,,,,,,,,,,,,,,,,,,,,,,,,,,,,,,,,,,,,,,251.0169630839955,251.0169630839955,251.0169630839955,251.0169630839955,251.0169630839955,251.0169630839955,251.0169630839955,251.0169630839955,251.0169630839955,251.0169630839955,a,0.4584198239608668,10,376,1,251.50098441902082,253.00290901202243,,,,,,,,,,,,,,,,,,,,,,,,,,,,,,,,,,,,,,,,,,,,,,,,,,,,,,,,,,,,,,,,,,,,,,11919,2022-10-31_10h45.34.358,vts_reward_expectancy_bt_OFFLINE,2022.2.4,59.866688873590654,
0,0,0,1,1,0,0,0,star,triangle,1,0,1,0,1,1,13,9,,,,,,,,,,,,,,,,,,,,,,,,,,,,,,,,,,,,,,,,253.50337524700444,253.50337524700444,253.50337524700444,253.50337524700444,253.50337524700444,253.50337524700444,253.50337524700444,253.50337524700444,253.50337524700444,253.50337524700444,a,0.6440742469858378,1,377,1,254.17064640903845,255.67247288802173,,,,,,,,,,,,,,,,,,,,,,,,,,,,,,,,,,,,,,,,,,,,,,,,,,,,,,,,,,,,,,,,,,,,,,11919,2022-10-31_10h45.34.358,vts_reward_expectancy_bt_OFFLINE,2022.2.4,59.866688873590654,
0,1,0,0,0,0,1,0,circle,hexagon,1,0,1,0,1,2,14,4,,,,,,,,,,,,,,,,,,,,,,,,,,,,,,,,,,,,,,,,256.17308109701844,256.17308109701844,256.17308109701844,256.17308109701844,256.17308109701844,256.17308109701844,256.17308109701844,256.17308109701844,256.17308109701844,256.17308109701844,a,1.183615801972337,10,387,1,257.37411729001906,258.87597877299413,258.87597877299413,,,,,,,,,,,,,,,,,,,,,,,,,,,,,,,,,,,,,,,,,,,,,,,,,,,,,,,,,,,,,,,,,,,,,11919,2022-10-31_10h45.34.358,vts_reward_expectancy_bt_OFFLINE,2022.2.4,59.866688873590654,
0,0,1,0,0,1,0,0,hexagon,circle,1,0,1,0,1,3,15,7,,,,,,,,,,,,,,,,,,,,,,,,,,,,,,,,,,,,,,,,259.3763027450186,259.3763027450186,259.3763027450186,259.3763027450186,259.3763027450186,259.3763027450186,259.3763027450186,259.3763027450186,259.3763027450186,259.3763027450186,a,1.1789231699658558,1,388,1,260.57762699201703,262.07943329802947,,,,,,,,,,,,,,,,,,,,,,,,,,,,,,,,,,,,,,,,,,,,,,,,,,,,,,,,,,,,,,,,,,,,,,11919,2022-10-31_10h45.34.358,vts_reward_expectancy_bt_OFFLINE,2022.2.4,59.866688873590654,
0,0,0,1,0,0,1,0,star,hexagon,1,0,1,0,1,4,16,11,,,,,,,,,,,,,,,,,,,,,,,,,,,,,,,,,,,,,,,,262.5798444430111,262.5798444430111,262.5798444430111,262.5798444430111,262.5798444430111,262.5798444430111,262.5798444430111,262.5798444430111,262.5798444430111,262.5798444430111,a,0.8166311089880764,1,389,1,263.4142853600206,264.91564176703105,264.91564176703105,,,,,,,,,,,,,,,,,,,,,,,,,,,,,,,,,,,,,,,,,,,,,,,,,,,,,,,,,,,,,,,,,,,,,11919,2022-10-31_10h45.34.358,vts_reward_expectancy_bt_OFFLINE,2022.2.4,59.866688873590654,
0,0,0,1,0,1,0,0,star ,circle,1,0,1,0,1,5,17,10,,,,,,,,,,,,,,,,,,,,,,,,,,,,,,,,,,,,,,,,265.4163284130045,265.4163284130045,265.4163284130045,265.4163284130045,265.4163284130045,265.4163284130045,265.4163284130045,265.4163284130045,265.4163284130045,265.4163284130045,a,0.924088112951722,1,390,1,266.3673995020217,267.869057798991,,,,,,,,,,,,,,,,,,,,,,,,,,,,,,,,,,,,,,,,,,,,,,,,,,,,,,,,,,,,,,,,,,,,,,11919,2022-10-31_10h45.34.358,vts_reward_expectancy_bt_OFFLINE,2022.2.4,59.866688873590654,
0,0,1,0,0,0,0,1,hexagon,star,1,0,1,0,1,6,18,8,,,,,,,,,,,,,,,,,,,,,,,,,,,,,,,,,,,,,,,,268.3696253389935,268.3696253389935,268.3696253389935,268.3696253389935,268.3696253389935,268.3696253389935,268.3696253389935,268.3696253389935,268.3696253389935,268.3696253389935,l,1.0754349409835413,10,400,1,269.4708703070064,270.97273406002205,,,,,,,,,,,,,,,,,,,,,,,,,,,,,,,,,,,,,,,,,,,,,,,,,,,,,,,,,,,,,,,,,,,,,,11919,2022-10-31_10h45.34.358,vts_reward_expectancy_bt_OFFLINE,2022.2.4,59.866688873590654,
1,0,0,0,0,0,0,1,triangle,star,1,0,1,0,1,7,19,2,,,,,,,,,,,,,,,,,,,,,,,,,,,,,,,,,,,,,,,,271.47310877701966,271.47310877701966,271.47310877701966,271.47310877701966,271.47310877701966,271.47310877701966,271.47310877701966,271.47310877701966,271.47310877701966,271.47310877701966,l,0.9856763069983572,10,410,1,272.4908372029895,273.9927019519964,,,,,,,,,,,,,,,,,,,,,,,,,,,,,,,,,,,,,,,,,,,,,,,,,,,,,,,,,,,,,,,,,,,,,,11919,2022-10-31_10h45.34.358,vts_reward_expectancy_bt_OFFLINE,2022.2.4,59.866688873590654,
1,0,0,0,0,1,0,0,triangle,circle,1,0,1,0,1,8,20,0,,,,,,,,,,,,,,,,,,,,,,,,,,,,,,,,,,,,,,,,274.49305758299306,274.49305758299306,274.49305758299306,274.49305758299306,274.49305758299306,274.49305758299306,274.49305758299306,274.49305758299306,274.49305758299306,274.49305758299306,l,0.7510414989665151,10,420,1,275.2606706630322,276.76231572200777,276.76231572200777,,,,,,,,,,,,,,,,,,,,,,,,,,,,,,,,,,,,,,,,,,,,,,,,,,,,,,,,,,,,,,,,,,,,,11919,2022-10-31_10h45.34.358,vts_reward_expectancy_bt_OFFLINE,2022.2.4,59.866688873590654,
0,1,0,0,0,0,0,1,circle,star,1,0,1,0,1,9,21,5,,,,,,,,,,,,,,,,,,,,,,,,,,,,,,,,,,,,,,,,277.2628498330014,277.2628498330014,277.2628498330014,277.2628498330014,277.2628498330014,277.2628498330014,277.2628498330014,277.2628498330014,277.2628498330014,277.2628498330014,a,0.7877915969584137,1,421,1,278.0805943800369,279.58217010000953,279.58217010000953,,,,,,,,,,,,,,,,,,,,,,,,,,,,,,,,,,,,,,,,,,,,,,,,,,,,,,,,,,,,,,,,,,,,,11919,2022-10-31_10h45.34.358,vts_reward_expectancy_bt_OFFLINE,2022.2.4,59.866688873590654,
0,0,1,0,1,0,0,0,hexagon,triangle,1,0,1,0,1,10,22,6,,,,,,,,,,,,,,,,,,,,,,,,,,,,,,,,,,,,,,,,280.08271702803904,280.08271702803904,280.08271702803904,280.08271702803904,280.08271702803904,280.08271702803904,280.08271702803904,280.08271702803904,280.08271702803904,280.08271702803904,a,0.8342825860017911,1,422,1,280.9335414050147,282.43522424501134,282.43522424501134,282.93586230900837,,,,,,,,,,,,,,,,,,,,,,,,,,,,,,,,,,,,,,,,,,,,,,,,,,,,,,,,,,,,,,,,,,,,11919,2022-10-31_10h45.34.358,vts_reward_expectancy_bt_OFFLINE,2022.2.4,59.866688873590654,
1,0,0,0,0,0,1,0,triangle,hexagon,1,0,1,0,1,11,23,1,,,,,,,,,,,,,,,,,,,,,,,,,,,,,,,,,,,,,,,,282.93586230900837,282.93586230900837,282.93586230900837,282.93586230900837,282.93586230900837,282.93586230900837,282.93586230900837,282.93586230900837,282.93586230900837,282.93586230900837,a,1.2853014459833503,1,423,1,284.25403979298426,285.7553192350315,,,,,,,,,,,,,,,,,,,,,,,,,,,,,,,,,,,,,,,,,,,,,,,,,,,,,,,,,,,,,,,,,,,,,,11919,2022-10-31_10h45.34.358,vts_reward_expectancy_bt_OFFLINE,2022.2.4,59.866688873590654,
0,0,1,0,0,1,0,0,hexagon,circle,1,0,1,0,2,0,24,7,,,,,,,,,,,,,,,,,,,,,,,,,,,,,,,,,,,,,,,,286.25596373702865,286.25596373702865,286.25596373702865,286.25596373702865,286.25596373702865,286.25596373702865,286.25596373702865,286.25596373702865,286.25596373702865,286.25596373702865,l,1.1714093849877827,10,433,1,287.4574280400411,288.95894665899687,,,,,,,,,,,,,,,,,,,,,,,,,,,,,,,,,,,,,,,,,,,,,,,,,,,,,,,,,,,,,,,,,,,,,,11919,2022-10-31_10h45.34.358,vts_reward_expectancy_bt_OFFLINE,2022.2.4,59.866688873590654,
1,0,0,0,0,0,1,0,triangle,hexagon,1,0,1,0,2,1,25,1,,,,,,,,,,,,,,,,,,,,,,,,,,,,,,,,,,,,,,,,289.45960000902414,289.45960000902414,289.45960000902414,289.45960000902414,289.45960000902414,289.45960000902414,289.45960000902414,289.45960000902414,289.45960000902414,289.45960000902414,l,0.6643504810053855,10,443,1,290.1436480890261,291.64543590700487,,,,,,,,,,,,,,,,,,,,,,,,,,,,,,,,,,,,,,,,,,,,,,,,,,,,,,,,,,,,,,,,,,,,,,11919,2022-10-31_10h45.34.358,vts_reward_expectancy_bt_OFFLINE,2022.2.4,59.866688873590654,
1,0,0,0,0,1,0,0,triangle,circle,1,0,1,0,2,2,26,0,,,,,,,,,,,,,,,,,,,,,,,,,,,,,,,,,,,,,,,,292.14578133198665,292.14578133198665,292.14578133198665,292.14578133198665,292.14578133198665,292.14578133198665,292.14578133198665,292.14578133198665,292.14578133198665,292.14578133198665,l,1.4428430229891092,1,444,1,293.6140850239899,295.11588205501903,,,,,,,,,,,,,,,,,,,,,,,,,,,,,,,,,,,,,,,,,,,,,,,,,,,,,,,,,,,,,,,,,,,,,,11919,2022-10-31_10h45.34.358,vts_reward_expectancy_bt_OFFLINE,2022.2.4,59.866688873590654,
0,1,0,0,1,0,0,0,circle,triangle,1,0,1,0,2,3,27,3,,,,,,,,,,,,,,,,,,,,,,,,,,,,,,,,,,,,,,,,295.61646844499046,295.61646844499046,295.61646844499046,295.61646844499046,295.61646844499046,295.61646844499046,295.61646844499046,295.61646844499046,295.61646844499046,295.61646844499046,a,3.4208744899951853,1,445,1,299.0702380040311,300.5719579390134,,,,,,,,,,,,,,,,,,,,,,,,,,,,,,,,,,,,,,,,,,,,,,,,,,,,,,,,,,,,,,,,,,,,,,11919,2022-10-31_10h45.34.358,vts_reward_expectancy_bt_OFFLINE,2022.2.4,59.866688873590654,
0,0,0,1,1,0,0,0,star,triangle,1,0,1,0,2,4,28,9,,,,,,,,,,,,,,,,,,,,,,,,,,,,,,,,,,,,,,,,301.0723924530321,301.0723924530321,301.0723924530321,301.0723924530321,301.0723924530321,301.0723924530321,301.0723924530321,301.0723924530321,301.0723924530321,301.0723924530321,a,0.6186773939407431,10,455,1,301.72325545799686,303.2247591150226,,,,,,,,,,,,,,,,,,,,,,,,,,,,,,,,,,,,,,,,,,,,,,,,,,,,,,,,,,,,,,,,,,,,,,11919,2022-10-31_10h45.34.358,vts_reward_expectancy_bt_OFFLINE,2022.2.4,59.866688873590654,
1,0,0,0,0,0,0,1,triangle,star,1,0,1,0,2,5,29,2,,,,,,,,,,,,,,,,,,,,,,,,,,,,,,,,,,,,,,,,303.72528746403987,303.72528746403987,303.72528746403987,303.72528746403987,303.72528746403987,303.72528746403987,303.72528746403987,303.72528746403987,303.72528746403987,303.72528746403987,l,0.6613740449538454,10,465,1,304.4094062070362,305.9109962590155,,,,,,,,,,,,,,,,,,,,,,,,,,,,,,,,,,,,,,,,,,,,,,,,,,,,,,,,,,,,,,,,,,,,,,11919,2022-10-31_10h45.34.358,vts_reward_expectancy_bt_OFFLINE,2022.2.4,59.866688873590654,
0,1,0,0,0,0,1,0,circle,hexagon,1,0,1,0,2,6,30,4,,,,,,,,,,,,,,,,,,,,,,,,,,,,,,,,,,,,,,,,306.41175512899645,306.41175512899645,306.41175512899645,306.41175512899645,306.41175512899645,306.41175512899645,306.41175512899645,306.41175512899645,306.41175512899645,306.41175512899645,l,0.5748921139747836,1,466,1,307.0121452070307,308.51387989200884,,,,,,,,,,,,,,,,,,,,,,,,,,,,,,,,,,,,,,,,,,,,,,,,,,,,,,,,,,,,,,,,,,,,,,11919,2022-10-31_10h45.34.358,vts_reward_expectancy_bt_OFFLINE,2022.2.4,59.866688873590654,
0,0,0,1,0,0,1,0,star,hexagon,1,0,1,0,2,7,31,11,,,,,,,,,,,,,,,,,,,,,,,,,,,,,,,,,,,,,,,,309.0143994180253,309.0143994180253,309.0143994180253,309.0143994180253,309.0143994180253,309.0143994180253,309.0143994180253,309.0143994180253,309.0143994180253,309.0143994180253,a,0.7019921949831769,10,476,1,309.7487246799865,311.2502019100357,,,,,,,,,,,,,,,,,,,,,,,,,,,,,,,,,,,,,,,,,,,,,,,,,,,,,,,,,,,,,,,,,,,,,,11919,2022-10-31_10h45.34.358,vts_reward_expectancy_bt_OFFLINE,2022.2.4,59.866688873590654,
0,0,1,0,1,0,0,0,hexagon,triangle,1,0,1,0,2,8,32,6,,,,,,,,,,,,,,,,,,,,,,,,,,,,,,,,,,,,,,,,311.7509208850097,311.7509208850097,311.7509208850097,311.7509208850097,311.7509208850097,311.7509208850097,311.7509208850097,311.7509208850097,311.7509208850097,311.7509208850097,a,0.5246548589784652,1,477,1,312.30141077702865,313.8032245840295,,,,,,,,,,,,,,,,,,,,,,,,,,,,,,,,,,,,,,,,,,,,,,,,,,,,,,,,,,,,,,,,,,,,,,11919,2022-10-31_10h45.34.358,vts_reward_expectancy_bt_OFFLINE,2022.2.4,59.866688873590654,
0,0,1,0,0,0,0,1,hexagon,star,1,0,1,0,2,9,33,8,,,,,,,,,,,,,,,,,,,,,,,,,,,,,,,,,,,,,,,,314.30357062403345,314.30357062403345,314.30357062403345,314.30357062403345,314.30357062403345,314.30357062403345,314.30357062403345,314.30357062403345,314.30357062403345,314.30357062403345,l,0.5637643509544432,10,487,1,314.8877224480384,316.3894134919974,,,,,,,,,,,,,,,,,,,,,,,,,,,,,,,,,,,,,,,,,,,,,,,,,,,,,,,,,,,,,,,,,,,,,,11919,2022-10-31_10h45.34.358,vts_reward_expectancy_bt_OFFLINE,2022.2.4,59.866688873590654,
0,1,0,0,0,0,0,1,circle,star,1,0,1,0,2,10,34,5,,,,,,,,,,,,,,,,,,,,,,,,,,,,,,,,,,,,,,,,316.88976768701104,316.88976768701104,316.88976768701104,316.88976768701104,316.88976768701104,316.88976768701104,316.88976768701104,316.88976768701104,316.88976768701104,316.88976768701104,l,0.545972820953466,10,497,1,317.4573385550175,318.9587689570035,,,,,,,,,,,,,,,,,,,,,,,,,,,,,,,,,,,,,,,,,,,,,,,,,,,,,,,,,,,,,,,,,,,,,,11919,2022-10-31_10h45.34.358,vts_reward_expectancy_bt_OFFLINE,2022.2.4,59.866688873590654,
0,0,0,1,0,1,0,0,star ,circle,1,0,1,0,2,11,35,10,,,,,,,,,,,,,,,,,,,,,,,,,,,,,,,,,,,,,,,,319.45936904201517,319.45936904201517,319.45936904201517,319.45936904201517,319.45936904201517,319.45936904201517,319.45936904201517,319.45936904201517,319.45936904201517,319.45936904201517,a,0.7919521939475089,10,507,1,320.27696612500586,321.7786486620316,,,,,,,,,,,,,,,,,,,,,,,,,,,,,,,,,,,,,,,,,,,,,,,,,,,,,,,,,,,,,,,,,,,,,,11919,2022-10-31_10h45.34.358,vts_reward_expectancy_bt_OFFLINE,2022.2.4,59.866688873590654,
0,1,0,0,0,0,0,1,circle,star,1,0,1,0,3,0,36,5,,,,,,,,,,,,,,,,,,,,,,,,,,,,,,,,,,,,,,,,322.27910753298784,322.27910753298784,322.27910753298784,322.27910753298784,322.27910753298784,322.27910753298784,322.27910753298784,322.27910753298784,322.27910753298784,322.27910753298784,l,0.41245716001139954,10,517,1,322.71317040000577,324.21461095800623,,,,,,,,,,,,,,,,,,,,,,,,,,,,,,,,,,,,,,,,,,,,,,,,,,,,,,,,,,,,,,,,,,,,,,11919,2022-10-31_10h45.34.358,vts_reward_expectancy_bt_OFFLINE,2022.2.4,59.866688873590654,
0,0,0,1,1,0,0,0,star,triangle,1,0,1,0,3,1,37,9,,,,,,,,,,,,,,,,,,,,,,,,,,,,,,,,,,,,,,,,324.71533247298794,324.71533247298794,324.71533247298794,324.71533247298794,324.71533247298794,324.71533247298794,324.71533247298794,324.71533247298794,324.71533247298794,324.71533247298794,a,0.5914370169630274,10,527,1,325.3324204389937,326.834067599033,,,,,,,,,,,,,,,,,,,,,,,,,,,,,,,,,,,,,,,,,,,,,,,,,,,,,,,,,,,,,,,,,,,,,,11919,2022-10-31_10h45.34.358,vts_reward_expectancy_bt_OFFLINE,2022.2.4,59.866688873590654,
1,0,0,0,0,0,0,1,triangle,star,1,0,1,0,3,2,38,2,,,,,,,,,,,,,,,,,,,,,,,,,,,,,,,,,,,,,,,,327.33477606700035,327.33477606700035,327.33477606700035,327.33477606700035,327.33477606700035,327.33477606700035,327.33477606700035,327.33477606700035,327.33477606700035,327.33477606700035,l,0.5580466529354453,1,528,1,327.91861356503796,329.4203967570211,,,,,,,,,,,,,,,,,,,,,,,,,,,,,,,,,,,,,,,,,,,,,,,,,,,,,,,,,,,,,,,,,,,,,,11919,2022-10-31_10h45.34.358,vts_reward_expectancy_bt_OFFLINE,2022.2.4,59.866688873590654,
0,0,1,0,0,1,0,0,hexagon,circle,1,0,1,0,3,3,39,7,,,,,,,,,,,,,,,,,,,,,,,,,,,,,,,,,,,,,,,,329.9207662389963,329.9207662389963,329.9207662389963,329.9207662389963,329.9207662389963,329.9207662389963,329.9207662389963,329.9207662389963,329.9207662389963,329.9207662389963,l,1.5066965809674002,10,538,1,331.4559192440356,332.9576944989967,,,,,,,,,,,,,,,,,,,,,,,,,,,,,,,,,,,,,,,,,,,,,,,,,,,,,,,,,,,,,,,,,,,,,,11919,2022-10-31_10h45.34.358,vts_reward_expectancy_bt_OFFLINE,2022.2.4,59.866688873590654,
1,0,0,0,0,0,1,0,triangle,hexagon,1,0,1,0,3,4,40,1,,,,,,,,,,,,,,,,,,,,,,,,,,,,,,,,,,,,,,,,333.4583769470337,333.4583769470337,333.4583769470337,333.4583769470337,333.4583769470337,333.4583769470337,333.4583769470337,333.4583769470337,333.4583769470337,333.4583769470337,a,1.865775896993,10,548,1,335.343482383003,336.8452168130316,,,,,,,,,,,,,,,,,,,,,,,,,,,,,,,,,,,,,,,,,,,,,,,,,,,,,,,,,,,,,,,,,,,,,,11919,2022-10-31_10h45.34.358,vts_reward_expectancy_bt_OFFLINE,2022.2.4,59.866688873590654,
1,0,0,0,0,1,0,0,triangle,circle,1,0,1,0,3,5,41,0,,,,,,,,,,,,,,,,,,,,,,,,,,,,,,,,,,,,,,,,337.345719748002,337.345719748002,337.345719748002,337.345719748002,337.345719748002,337.345719748002,337.345719748002,337.345719748002,337.345719748002,337.345719748002,l,1.243067756993696,10,558,1,338.61381378001533,340.1154170089867,,,,,,,,,,,,,,,,,,,,,,,,,,,,,,,,,,,,,,,,,,,,,,,,,,,,,,,,,,,,,,,,,,,,,,11919,2022-10-31_10h45.34.358,vts_reward_expectancy_bt_OFFLINE,2022.2.4,59.866688873590654,
0,1,0,0,0,0,1,0,circle,hexagon,1,0,1,0,3,6,42,4,,,,,,,,,,,,,,,,,,,,,,,,,,,,,,,,,,,,,,,,340.6162472330034,340.6162472330034,340.6162472330034,340.6162472330034,340.6162472330034,340.6162472330034,340.6162472330034,340.6162472330034,340.6162472330034,340.6162472330034,a,1.6999635519459844,1,559,1,342.3347488550353,343.8361707350123,,,,,,,,,,,,,,,,,,,,,,,,,,,,,,,,,,,,,,,,,,,,,,,,,,,,,,,,,,,,,,,,,,,,,,11919,2022-10-31_10h45.34.358,vts_reward_expectancy_bt_OFFLINE,2022.2.4,59.866688873590654,
0,0,1,0,0,0,0,1,hexagon,star,1,0,1,0,3,7,43,8,,,,,,,,,,,,,,,,,,,,,,,,,,,,,,,,,,,,,,,,344.3366630669916,344.3366630669916,344.3366630669916,344.3366630669916,344.3366630669916,344.3366630669916,344.3366630669916,344.3366630669916,344.3366630669916,344.3366630669916,a,1.4522688699653372,1,560,1,345.82168726902455,347.32333926903084,,,,,,,,,,,,,,,,,,,,,,,,,,,,,,,,,,,,,,,,,,,,,,,,,,,,,,,,,,,,,,,,,,,,,,11919,2022-10-31_10h45.34.358,vts_reward_expectancy_bt_OFFLINE,2022.2.4,59.866688873590654,
0,1,0,0,1,0,0,0,circle,triangle,1,0,1,0,3,8,44,3,,,,,,,,,,,,,,,,,,,,,,,,,,,,,,,,,,,,,,,,347.82380040199496,347.82380040199496,347.82380040199496,347.82380040199496,347.82380040199496,347.82380040199496,347.82380040199496,347.82380040199496,347.82380040199496,347.82380040199496,a,0.8587948569911532,1,561,1,348.70824841299327,350.2099106920068,,,,,,,,,,,,,,,,,,,,,,,,,,,,,,,,,,,,,,,,,,,,,,,,,,,,,,,,,,,,,,,,,,,,,,11919,2022-10-31_10h45.34.358,vts_reward_expectancy_bt_OFFLINE,2022.2.4,59.866688873590654,
0,0,0,1,0,0,1,0,star,hexagon,1,0,1,0,3,9,45,11,,,,,,,,,,,,,,,,,,,,,,,,,,,,,,,,,,,,,,,,350.710387900006,350.710387900006,350.710387900006,350.710387900006,350.710387900006,350.710387900006,350.710387900006,350.710387900006,350.710387900006,350.710387900006,a,0.7425943989655934,10,571,1,351.4779699750361,352.9795919890166,,,,,,,,,,,,,,,,,,,,,,,,,,,,,,,,,,,,,,,,,,,,,,,,,,,,,,,,,,,,,,,,,,,,,,11919,2022-10-31_10h45.34.358,vts_reward_expectancy_bt_OFFLINE,2022.2.4,59.866688873590654,
0,0,1,0,1,0,0,0,hexagon,triangle,1,0,1,0,3,10,46,6,,,,,,,,,,,,,,,,,,,,,,,,,,,,,,,,,,,,,,,,353.4801495950087,353.4801495950087,353.4801495950087,353.4801495950087,353.4801495950087,353.4801495950087,353.4801495950087,353.4801495950087,353.4801495950087,353.4801495950087,a,1.2690918549778871,10,581,1,354.7816470020334,356.28343403799227,,,,,,,,,,,,,,,,,,,,,,,,,,,,,,,,,,,,,,,,,,,,,,,,,,,,,,,,,,,,,,,,,,,,,,11919,2022-10-31_10h45.34.358,vts_reward_expectancy_bt_OFFLINE,2022.2.4,59.866688873590654,
0,0,0,1,0,1,0,0,star ,circle,1,0,1,0,3,11,47,10,,,,,,,,,,,,,,,,,,,,,,,,,,,,,,,,,,,,,,,,356.7840448479983,356.7840448479983,356.7840448479983,356.7840448479983,356.7840448479983,356.7840448479983,356.7840448479983,356.7840448479983,356.7840448479983,356.7840448479983,a,1.563543791999109,10,591,1,358.3688916719984,359.8706438970403,,,,,,,,,,,,,,,,,,,,,,,,,,,,,,,,,,,,,,,,,,,,,,,,,,,,,,,,,,,,,,,,,,,,,,11919,2022-10-31_10h45.34.358,vts_reward_expectancy_bt_OFFLINE,2022.2.4,59.866688873590654,
1,0,0,0,0,0,1,0,triangle,hexagon,2,0,2,0,0,0,0,1,,,,,,,,,,,,,,,,,,,,,,,,,,,,,,,,,,,,,,,,366.0777557170368,366.0777557170368,366.0777557170368,366.0777557170368,366.0777557170368,366.0777557170368,366.0777557170368,366.0777557170368,366.0777557170368,366.0777557170368,a,1.7512898649438284,1,592,2,367.84636384702753,369.3477396729868,369.3477396729868,,,,,,,,,,,,,,,,,,,,,,,,,,,,,,,,,,,,,,,,,,,,,,,,,,,,,,,,,,,,,,,,,,,,,11919,2022-10-31_10h45.34.358,vts_reward_expectancy_bt_OFFLINE,2022.2.4,59.866688873590654,
0,0,1,0,1,0,0,0,hexagon,triangle,2,0,2,0,0,1,1,6,,,,,,,,,,,,,,,,,,,,,,,,,,,,,,,,,,,,,,,,369.8482125700102,369.8482125700102,369.8482125700102,369.8482125700102,369.8482125700102,369.8482125700102,369.8482125700102,369.8482125700102,369.8482125700102,369.8482125700102,a,0.5322737299720757,1,593,2,370.3989912639954,371.9006515869987,,,,,,,,,,,,,,,,,,,,,,,,,,,,,,,,,,,,,,,,,,,,,,,,,,,,,,,,,,,,,,,,,,,,,,11919,2022-10-31_10h45.34.358,vts_reward_expectancy_bt_OFFLINE,2022.2.4,59.866688873590654,
0,1,0,0,0,0,0,1,circle,star,2,0,2,0,0,2,2,5,,,,,,,,,,,,,,,,,,,,,,,,,,,,,,,,,,,,,,,,372.40120929898694,372.40120929898694,372.40120929898694,372.40120929898694,372.40120929898694,372.40120929898694,372.40120929898694,372.40120929898694,372.40120929898694,372.40120929898694,l,0.5376792090246454,10,603,2,372.9685200449894,374.4702432270278,,,,,,,,,,,,,,,,,,,,,,,,,,,,,,,,,,,,,,,,,,,,,,,,,,,,,,,,,,,,,,,,,,,,,,11919,2022-10-31_10h45.34.358,vts_reward_expectancy_bt_OFFLINE,2022.2.4,59.866688873590654,
0,1,0,0,1,0,0,0,circle,triangle,2,0,2,0,0,3,3,3,,,,,,,,,,,,,,,,,,,,,,,,,,,,,,,,,,,,,,,,374.97065586800454,374.97065586800454,374.97065586800454,374.97065586800454,374.97065586800454,374.97065586800454,374.97065586800454,374.97065586800454,374.97065586800454,374.97065586800454,a,2.5873463249299675,10,613,2,377.5902473400347,379.0917922949884,,,,,,,,,,,,,,,,,,,,,,,,,,,,,,,,,,,,,,,,,,,,,,,,,,,,,,,,,,,,,,,,,,,,,,11919,2022-10-31_10h45.34.358,vts_reward_expectancy_bt_OFFLINE,2022.2.4,59.866688873590654,
0,0,1,0,0,1,0,0,hexagon,circle,2,0,2,0,0,4,4,7,,,,,,,,,,,,,,,,,,,,,,,,,,,,,,,,,,,,,,,,379.59230704803485,379.59230704803485,379.59230704803485,379.59230704803485,379.59230704803485,379.59230704803485,379.59230704803485,379.59230704803485,379.59230704803485,379.59230704803485,l,0.9866993069881573,10,623,2,380.6103279890376,382.11180450802203,,,,,,,,,,,,,,,,,,,,,,,,,,,,,,,,,,,,,,,,,,,,,,,,,,,,,,,,,,,,,,,,,,,,,,11919,2022-10-31_10h45.34.358,vts_reward_expectancy_bt_OFFLINE,2022.2.4,59.866688873590654,
0,0,1,0,0,0,0,1,hexagon,star,2,0,2,0,0,5,5,8,,,,,,,,,,,,,,,,,,,,,,,,,,,,,,,,,,,,,,,,382.6125316580292,382.6125316580292,382.6125316580292,382.6125316580292,382.6125316580292,382.6125316580292,382.6125316580292,382.6125316580292,382.6125316580292,382.6125316580292,l,0.7683423449634574,10,633,2,383.41330796299735,384.91482018801617,,,,,,,,,,,,,,,,,,,,,,,,,,,,,,,,,,,,,,,,,,,,,,,,,,,,,,,,,,,,,,,,,,,,,,11919,2022-10-31_10h45.34.358,vts_reward_expectancy_bt_OFFLINE,2022.2.4,59.866688873590654,
0,1,0,0,0,0,1,0,circle,hexagon,2,0,2,0,0,6,6,4,,,,,,,,,,,,,,,,,,,,,,,,,,,,,,,,,,,,,,,,385.4155452530249,385.4155452530249,385.4155452530249,385.4155452530249,385.4155452530249,385.4155452530249,385.4155452530249,385.4155452530249,385.4155452530249,385.4155452530249,a,0.9011675309739076,1,634,2,386.33373604301596,387.8346006370266,387.8346006370266,388.3353006680263,,,,,,,,,,,,,,,,,,,,,,,,,,,,,,,,,,,,,,,,,,,,,,,,,,,,,,,,,,,,,,,,,,,,11919,2022-10-31_10h45.34.358,vts_reward_expectancy_bt_OFFLINE,2022.2.4,59.866688873590654,
0,0,0,1,1,0,0,0,star,triangle,2,0,2,0,0,7,7,9,,,,,,,,,,,,,,,,,,,,,,,,,,,,,,,,,,,,,,,,388.3353006680263,388.3353006680263,388.3353006680263,388.3353006680263,388.3353006680263,388.3353006680263,388.3353006680263,388.3353006680263,388.3353006680263,388.3353006680263,a,1.252450863015838,10,644,2,389.62002007703995,391.1218201590236,,,,,,,,,,,,,,,,,,,,,,,,,,,,,,,,,,,,,,,,,,,,,,,,,,,,,,,,,,,,,,,,,,,,,,11919,2022-10-31_10h45.34.358,vts_reward_expectancy_bt_OFFLINE,2022.2.4,59.866688873590654,
1,0,0,0,0,1,0,0,triangle,circle,2,0,2,0,0,8,8,0,,,,,,,,,,,,,,,,,,,,,,,,,,,,,,,,,,,,,,,,391.62219687900506,391.62219687900506,391.62219687900506,391.62219687900506,391.62219687900506,391.62219687900506,391.62219687900506,391.62219687900506,391.62219687900506,391.62219687900506,l,0.6450017059687525,10,654,2,392.2897688940284,393.7912579420372,,,,,,,,,,,,,,,,,,,,,,,,,,,,,,,,,,,,,,,,,,,,,,,,,,,,,,,,,,,,,,,,,,,,,,11919,2022-10-31_10h45.34.358,vts_reward_expectancy_bt_OFFLINE,2022.2.4,59.866688873590654,
1,0,0,0,0,0,0,1,triangle,star,2,0,2,0,0,9,9,2,,,,,,,,,,,,,,,,,,,,,,,,,,,,,,,,,,,,,,,,394.2918128790334,394.2918128790334,394.2918128790334,394.2918128790334,394.2918128790334,394.2918128790334,394.2918128790334,394.2918128790334,394.2918128790334,394.2918128790334,l,1.0633663419866934,10,664,2,395.3764631979866,396.87815099803265,396.87815099803265,,,,,,,,,,,,,,,,,,,,,,,,,,,,,,,,,,,,,,,,,,,,,,,,,,,,,,,,,,,,,,,,,,,,,11919,2022-10-31_10h45.34.358,vts_reward_expectancy_bt_OFFLINE,2022.2.4,59.866688873590654,
0,0,0,1,0,0,1,0,star,hexagon,2,0,2,0,0,10,10,11,,,,,,,,,,,,,,,,,,,,,,,,,,,,,,,,,,,,,,,,397.3787471090327,397.3787471090327,397.3787471090327,397.3787471090327,397.3787471090327,397.3787471090327,397.3787471090327,397.3787471090327,397.3787471090327,397.3787471090327,a,0.7524795570061542,10,674,2,398.16290468903026,399.66454904899,,,,,,,,,,,,,,,,,,,,,,,,,,,,,,,,,,,,,,,,,,,,,,,,,,,,,,,,,,,,,,,,,,,,,,11919,2022-10-31_10h45.34.358,vts_reward_expectancy_bt_OFFLINE,2022.2.4,59.866688873590654,
0,0,0,1,0,1,0,0,star ,circle,2,0,2,0,0,11,11,10,,,,,,,,,,,,,,,,,,,,,,,,,,,,,,,,,,,,,,,,400.1652784990147,400.1652784990147,400.1652784990147,400.1652784990147,400.1652784990147,400.1652784990147,400.1652784990147,400.1652784990147,400.1652784990147,400.1652784990147,a,1.1826950639951974,10,684,2,401.3665488520055,402.86805171502056,,,,,,,,,,,,,,,,,,,,,,,,,,,,,,,,,,,,,,,,,,,,,,,,,,,,,,,,,,,,,,,,,,,,,,11919,2022-10-31_10h45.34.358,vts_reward_expectancy_bt_OFFLINE,2022.2.4,59.866688873590654,
0,0,1,0,0,1,0,0,hexagon,circle,2,0,2,0,1,0,12,7,,,,,,,,,,,,,,,,,,,,,,,,,,,,,,,,,,,,,,,,403.368533817993,403.368533817993,403.368533817993,403.368533817993,403.368533817993,403.368533817993,403.368533817993,403.368533817993,403.368533817993,403.368533817993,l,0.9784035049378872,10,694,2,404.36972662998596,405.8714155170019,,,,,,,,,,,,,,,,,,,,,,,,,,,,,,,,,,,,,,,,,,,,,,,,,,,,,,,,,,,,,,,,,,,,,,11919,2022-10-31_10h45.34.358,vts_reward_expectancy_bt_OFFLINE,2022.2.4,59.866688873590654,
1,0,0,0,0,1,0,0,triangle,circle,2,0,2,0,1,1,13,0,,,,,,,,,,,,,,,,,,,,,,,,,,,,,,,,,,,,,,,,406.37194450502284,406.37194450502284,406.37194450502284,406.37194450502284,406.37194450502284,406.37194450502284,406.37194450502284,406.37194450502284,406.37194450502284,406.37194450502284,l,0.9920771329780109,10,704,2,407.3896346089896,408.89158426300855,408.89158426300855,,,,,,,,,,,,,,,,,,,,,,,,,,,,,,,,,,,,,,,,,,,,,,,,,,,,,,,,,,,,,,,,,,,,,11919,2022-10-31_10h45.34.358,vts_reward_expectancy_bt_OFFLINE,2022.2.4,59.866688873590654,
0,0,0,1,1,0,0,0,star,triangle,2,0,2,0,1,2,14,9,,,,,,,,,,,,,,,,,,,,,,,,,,,,,,,,,,,,,,,,409.39191560499603,409.39191560499603,409.39191560499603,409.39191560499603,409.39191560499603,409.39191560499603,409.39191560499603,409.39191560499603,409.39191560499603,409.39191560499603,a,0.6273176349932328,10,714,2,410.0428139900323,411.54450628499035,,,,,,,,,,,,,,,,,,,,,,,,,,,,,,,,,,,,,,,,,,,,,,,,,,,,,,,,,,,,,,,,,,,,,,11919,2022-10-31_10h45.34.358,vts_reward_expectancy_bt_OFFLINE,2022.2.4,59.866688873590654,
0,1,0,0,0,0,0,1,circle,star,2,0,2,0,1,3,15,5,,,,,,,,,,,,,,,,,,,,,,,,,,,,,,,,,,,,,,,,412.04487085400615,412.04487085400615,412.04487085400615,412.04487085400615,412.04487085400615,412.04487085400615,412.04487085400615,412.04487085400615,412.04487085400615,412.04487085400615,l,1.5672616939991713,10,724,2,413.62994807004,415.13161758199567,415.13161758199567,,,,,,,,,,,,,,,,,,,,,,,,,,,,,,,,,,,,,,,,,,,,,,,,,,,,,,,,,,,,,,,,,,,,,11919,2022-10-31_10h45.34.358,vts_reward_expectancy_bt_OFFLINE,2022.2.4,59.866688873590654,
1,0,0,0,0,0,1,0,triangle,hexagon,2,0,2,0,1,4,16,1,,,,,,,,,,,,,,,,,,,,,,,,,,,,,,,,,,,,,,,,415.63233257399406,415.63233257399406,415.63233257399406,415.63233257399406,415.63233257399406,415.63233257399406,415.63233257399406,415.63233257399406,415.63233257399406,415.63233257399406,l,1.5551872689975426,1,725,2,417.2171702630003,418.71881689701695,,,,,,,,,,,,,,,,,,,,,,,,,,,,,,,,,,,,,,,,,,,,,,,,,,,,,,,,,,,,,,,,,,,,,,11919,2022-10-31_10h45.34.358,vts_reward_expectancy_bt_OFFLINE,2022.2.4,59.866688873590654,
1,0,0,0,0,0,0,1,triangle,star,2,0,2,0,1,5,17,2,,,,,,,,,,,,,,,,,,,,,,,,,,,,,,,,,,,,,,,,419.21948947000783,419.21948947000783,419.21948947000783,419.21948947000783,419.21948947000783,419.21948947000783,419.21948947000783,419.21948947000783,419.21948947000783,419.21948947000783,l,0.6083065500133671,1,726,2,419.8535300780204,421.3550594240078,,,,,,,,,,,,,,,,,,,,,,,,,,,,,,,,,,,,,,,,,,,,,,,,,,,,,,,,,,,,,,,,,,,,,,11919,2022-10-31_10h45.34.358,vts_reward_expectancy_bt_OFFLINE,2022.2.4,59.866688873590654,
0,0,0,1,0,1,0,0,star ,circle,2,0,2,0,1,6,18,10,,,,,,,,,,,,,,,,,,,,,,,,,,,,,,,,,,,,,,,,421.85547525202855,421.85547525202855,421.85547525202855,421.85547525202855,421.85547525202855,421.85547525202855,421.85547525202855,421.85547525202855,421.85547525202855,421.85547525202855,a,3.10712453792803,1,727,2,424.9923743979889,426.49427697702777,,,,,,,,,,,,,,,,,,,,,,,,,,,,,,,,,,,,,,,,,,,,,,,,,,,,,,,,,,,,,,,,,,,,,,11919,2022-10-31_10h45.34.358,vts_reward_expectancy_bt_OFFLINE,2022.2.4,59.866688873590654,
0,1,0,0,0,0,1,0,circle,hexagon,2,0,2,0,1,7,19,4,,,,,,,,,,,,,,,,,,,,,,,,,,,,,,,,,,,,,,,,426.9947991130175,426.9947991130175,426.9947991130175,426.9947991130175,426.9947991130175,426.9947991130175,426.9947991130175,426.9947991130175,426.9947991130175,426.9947991130175,a,1.0085461109993048,10,737,2,428.0290211670217,429.5307931280113,,,,,,,,,,,,,,,,,,,,,,,,,,,,,,,,,,,,,,,,,,,,,,,,,,,,,,,,,,,,,,,,,,,,,,11919,2022-10-31_10h45.34.358,vts_reward_expectancy_bt_OFFLINE,2022.2.4,59.866688873590654,
0,0,0,1,0,0,1,0,star,hexagon,2,0,2,0,1,8,20,11,,,,,,,,,,,,,,,,,,,,,,,,,,,,,,,,,,,,,,,,430.0312711750157,430.0312711750157,430.0312711750157,430.0312711750157,430.0312711750157,430.0312711750157,430.0312711750157,430.0312711750157,430.0312711750157,430.0312711750157,a,0.6033654609927908,10,747,2,430.6654778299853,432.1670967020327,,,,,,,,,,,,,,,,,,,,,,,,,,,,,,,,,,,,,,,,,,,,,,,,,,,,,,,,,,,,,,,,,,,,,,11919,2022-10-31_10h45.34.358,vts_reward_expectancy_bt_OFFLINE,2022.2.4,59.866688873590654,
0,1,0,0,1,0,0,0,circle,triangle,2,0,2,0,1,9,21,3,,,,,,,,,,,,,,,,,,,,,,,,,,,,,,,,,,,,,,,,432.66761185904033,432.66761185904033,432.66761185904033,432.66761185904033,432.66761185904033,432.66761185904033,432.66761185904033,432.66761185904033,432.66761185904033,432.66761185904033,a,0.585228179988917,10,757,2,433.2850300340215,434.7866309470264,,,,,,,,,,,,,,,,,,,,,,,,,,,,,,,,,,,,,,,,,,,,,,,,,,,,,,,,,,,,,,,,,,,,,,11919,2022-10-31_10h45.34.358,vts_reward_expectancy_bt_OFFLINE,2022.2.4,59.866688873590654,
0,0,1,0,1,0,0,0,hexagon,triangle,2,0,2,0,1,10,22,6,,,,,,,,,,,,,,,,,,,,,,,,,,,,,,,,,,,,,,,,435.2872247500345,435.2872247500345,435.2872247500345,435.2872247500345,435.2872247500345,435.2872247500345,435.2872247500345,435.2872247500345,435.2872247500345,435.2872247500345,a,1.5954362619668245,1,758,2,436.90606558701256,438.4072591569857,438.4072591569857,,,,,,,,,,,,,,,,,,,,,,,,,,,,,,,,,,,,,,,,,,,,,,,,,,,,,,,,,,,,,,,,,,,,,11919,2022-10-31_10h45.34.358,vts_reward_expectancy_bt_OFFLINE,2022.2.4,59.866688873590654,
0,0,1,0,0,0,0,1,hexagon,star,2,0,2,0,1,11,23,8,,,,,,,,,,,,,,,,,,,,,,,,,,,,,,,,,,,,,,,,438.9077728780103,438.9077728780103,438.9077728780103,438.9077728780103,438.9077728780103,438.9077728780103,438.9077728780103,438.9077728780103,438.9077728780103,438.9077728780103,l,0.7188318520202301,10,768,2,439.6585418290342,441.16035611502593,,,,,,,,,,,,,,,,,,,,,,,,,,,,,,,,,,,,,,,,,,,,,,,,,,,,,,,,,,,,,,,,,,,,,,11919,2022-10-31_10h45.34.358,vts_reward_expectancy_bt_OFFLINE,2022.2.4,59.866688873590654,
0,0,0,1,1,0,0,0,star,triangle,2,0,2,0,2,0,24,9,,,,,,,,,,,,,,,,,,,,,,,,,,,,,,,,,,,,,,,,441.66109025501646,441.66109025501646,441.66109025501646,441.66109025501646,441.66109025501646,441.66109025501646,441.66109025501646,441.66109025501646,441.66109025501646,441.66109025501646,a,0.6150592709891498,1,769,2,442.29516346903984,443.79647953499807,,,,,,,,,,,,,,,,,,,,,,,,,,,,,,,,,,,,,,,,,,,,,,,,,,,,,,,,,,,,,,,,,,,,,,11919,2022-10-31_10h45.34.358,vts_reward_expectancy_bt_OFFLINE,2022.2.4,59.866688873590654,
1,0,0,0,0,0,1,0,triangle,hexagon,2,0,2,0,2,1,25,1,,,,,,,,,,,,,,,,,,,,,,,,,,,,,,,,,,,,,,,,444.29696109500946,444.29696109500946,444.29696109500946,444.29696109500946,444.29696109500946,444.29696109500946,444.29696109500946,444.29696109500946,444.29696109500946,444.29696109500946,l,1.6354449659702368,1,770,2,445.9488338190131,447.45060524798464,447.45060524798464,,,,,,,,,,,,,,,,,,,,,,,,,,,,,,,,,,,,,,,,,,,,,,,,,,,,,,,,,,,,,,,,,,,,,11919,2022-10-31_10h45.34.358,vts_reward_expectancy_bt_OFFLINE,2022.2.4,59.866688873590654,
0,1,0,0,1,0,0,0,circle,triangle,2,0,2,0,2,2,26,3,,,,,,,,,,,,,,,,,,,,,,,,,,,,,,,,,,,,,,,,447.95145202003187,447.95145202003187,447.95145202003187,447.95145202003187,447.95145202003187,447.95145202003187,447.95145202003187,447.95145202003187,447.95145202003187,447.95145202003187,a,0.6592744599911384,10,780,2,448.6353767029941,450.1369741000235,,,,,,,,,,,,,,,,,,,,,,,,,,,,,,,,,,,,,,,,,,,,,,,,,,,,,,,,,,,,,,,,,,,,,,11919,2022-10-31_10h45.34.358,vts_reward_expectancy_bt_OFFLINE,2022.2.4,59.866688873590654,
1,0,0,0,0,1,0,0,triangle,circle,2,0,2,0,2,3,27,0,,,,,,,,,,,,,,,,,,,,,,,,,,,,,,,,,,,,,,,,450.63744684902485,450.63744684902485,450.63744684902485,450.63744684902485,450.63744684902485,450.63744684902485,450.63744684902485,450.63744684902485,450.63744684902485,450.63744684902485,l,0.6376752939540893,10,790,2,451.3048519869917,452.80639192298986,452.80639192298986,,,,,,,,,,,,,,,,,,,,,,,,,,,,,,,,,,,,,,,,,,,,,,,,,,,,,,,,,,,,,,,,,,,,,11919,2022-10-31_10h45.34.358,vts_reward_expectancy_bt_OFFLINE,2022.2.4,59.866688873590654,
0,0,0,1,0,0,1,0,star,hexagon,2,0,2,0,2,4,28,11,,,,,,,,,,,,,,,,,,,,,,,,,,,,,,,,,,,,,,,,453.30710633902345,453.30710633902345,453.30710633902345,453.30710633902345,453.30710633902345,453.30710633902345,453.30710633902345,453.30710633902345,453.30710633902345,453.30710633902345,a,0.6499084049719386,10,800,2,453.9743718900136,455.47625585703645,,,,,,,,,,,,,,,,,,,,,,,,,,,,,,,,,,,,,,,,,,,,,,,,,,,,,,,,,,,,,,,,,,,,,,11919,2022-10-31_10h45.34.358,vts_reward_expectancy_bt_OFFLINE,2022.2.4,59.866688873590654,
1,0,0,0,0,0,0,1,triangle,star,2,0,2,0,2,5,29,2,,,,,,,,,,,,,,,,,,,,,,,,,,,,,,,,,,,,,,,,455.97677987703355,455.97677987703355,455.97677987703355,455.97677987703355,455.97677987703355,455.97677987703355,455.97677987703355,455.97677987703355,455.97677987703355,455.97677987703355,l,0.5005029759486206,10,810,2,456.4939197290223,457.9955303950119,457.9955303950119,,,,,,,,,,,,,,,,,,,,,,,,,,,,,,,,,,,,,,,,,,,,,,,,,,,,,,,,,,,,,,,,,,,,,11919,2022-10-31_10h45.34.358,vts_reward_expectancy_bt_OFFLINE,2022.2.4,59.866688873590654,
0,0,1,0,0,0,0,1,hexagon,star,2,0,2,0,2,6,30,8,,,,,,,,,,,,,,,,,,,,,,,,,,,,,,,,,,,,,,,,458.4960455450346,458.4960455450346,458.4960455450346,458.4960455450346,458.4960455450346,458.4960455450346,458.4960455450346,458.4960455450346,458.4960455450346,458.4960455450346,l,0.5710837789811194,10,820,2,459.0967770930147,460.5985188190243,460.5985188190243,,,,,,,,,,,,,,,,,,,,,,,,,,,,,,,,,,,,,,,,,,,,,,,,,,,,,,,,,,,,,,,,,,,,,11919,2022-10-31_10h45.34.358,vts_reward_expectancy_bt_OFFLINE,2022.2.4,59.866688873590654,
0,0,0,1,0,1,0,0,star ,circle,2,0,2,0,2,7,31,10,,,,,,,,,,,,,,,,,,,,,,,,,,,,,,,,,,,,,,,,461.09900464798557,461.09900464798557,461.09900464798557,461.09900464798557,461.09900464798557,461.09900464798557,461.09900464798557,461.09900464798557,461.09900464798557,461.09900464798557,a,0.5850315159768797,10,830,2,461.7164740689914,463.2179385180352,,,,,,,,,,,,,,,,,,,,,,,,,,,,,,,,,,,,,,,,,,,,,,,,,,,,,,,,,,,,,,,,,,,,,,11919,2022-10-31_10h45.34.358,vts_reward_expectancy_bt_OFFLINE,2022.2.4,59.866688873590654,
0,0,1,0,1,0,0,0,hexagon,triangle,2,0,2,0,2,8,32,6,,,,,,,,,,,,,,,,,,,,,,,,,,,,,,,,,,,,,,,,463.71851708501345,463.71851708501345,463.71851708501345,463.71851708501345,463.71851708501345,463.71851708501345,463.71851708501345,463.71851708501345,463.71851708501345,463.71851708501345,a,0.8612651559524238,1,831,2,464.6031093390193,466.1046802920173,,,,,,,,,,,,,,,,,,,,,,,,,,,,,,,,,,,,,,,,,,,,,,,,,,,,,,,,,,,,,,,,,,,,,,11919,2022-10-31_10h45.34.358,vts_reward_expectancy_bt_OFFLINE,2022.2.4,59.866688873590654,
0,1,0,0,0,0,1,0,circle,hexagon,2,0,2,0,2,9,33,4,,,,,,,,,,,,,,,,,,,,,,,,,,,,,,,,,,,,,,,,466.6049617290264,466.6049617290264,466.6049617290264,466.6049617290264,466.6049617290264,466.6049617290264,466.6049617290264,466.6049617290264,466.6049617290264,466.6049617290264,a,0.4857327899662778,10,841,2,467.12227438000264,468.62408687500283,,,,,,,,,,,,,,,,,,,,,,,,,,,,,,,,,,,,,,,,,,,,,,,,,,,,,,,,,,,,,,,,,,,,,,11919,2022-10-31_10h45.34.358,vts_reward_expectancy_bt_OFFLINE,2022.2.4,59.866688873590654,
0,1,0,0,0,0,0,1,circle,star,2,0,2,0,2,10,34,5,,,,,,,,,,,,,,,,,,,,,,,,,,,,,,,,,,,,,,,,469.12449958501384,469.12449958501384,469.12449958501384,469.12449958501384,469.12449958501384,469.12449958501384,469.12449958501384,469.12449958501384,469.12449958501384,469.12449958501384,a,1.5925364239956252,10,851,2,470.7428842380177,472.24452604498947,,,,,,,,,,,,,,,,,,,,,,,,,,,,,,,,,,,,,,,,,,,,,,,,,,,,,,,,,,,,,,,,,,,,,,11919,2022-10-31_10h45.34.358,vts_reward_expectancy_bt_OFFLINE,2022.2.4,59.866688873590654,
0,0,1,0,0,1,0,0,hexagon,circle,2,0,2,0,2,11,35,7,,,,,,,,,,,,,,,,,,,,,,,,,,,,,,,,,,,,,,,,472.7452308840002,472.7452308840002,472.7452308840002,472.7452308840002,472.7452308840002,472.7452308840002,472.7452308840002,472.7452308840002,472.7452308840002,472.7452308840002,l,0.5625472309766337,10,861,2,473.32933491899166,474.83080956799677,,,,,,,,,,,,,,,,,,,,,,,,,,,,,,,,,,,,,,,,,,,,,,,,,,,,,,,,,,,,,,,,,,,,,,11919,2022-10-31_10h45.34.358,vts_reward_expectancy_bt_OFFLINE,2022.2.4,59.866688873590654,
1,0,0,0,0,0,0,1,triangle,star,2,0,2,0,3,0,36,2,,,,,,,,,,,,,,,,,,,,,,,,,,,,,,,,,,,,,,,,475.33153221703833,475.33153221703833,475.33153221703833,475.33153221703833,475.33153221703833,475.33153221703833,475.33153221703833,475.33153221703833,475.33153221703833,475.33153221703833,l,0.6080946620204486,10,871,2,475.96554551500594,477.46696546301246,,,,,,,,,,,,,,,,,,,,,,,,,,,,,,,,,,,,,,,,,,,,,,,,,,,,,,,,,,,,,,,,,,,,,,11919,2022-10-31_10h45.34.358,vts_reward_expectancy_bt_OFFLINE,2022.2.4,59.866688873590654,
0,1,0,0,0,0,1,0,circle,hexagon,2,0,2,0,3,1,37,4,,,,,,,,,,,,,,,,,,,,,,,,,,,,,,,,,,,,,,,,477.967652908992,477.967652908992,477.967652908992,477.967652908992,477.967652908992,477.967652908992,477.967652908992,477.967652908992,477.967652908992,477.967652908992,a,0.8110619729850441,10,881,2,478.80180760199437,480.3034716700204,,,,,,,,,,,,,,,,,,,,,,,,,,,,,,,,,,,,,,,,,,,,,,,,,,,,,,,,,,,,,,,,,,,,,,11919,2022-10-31_10h45.34.358,vts_reward_expectancy_bt_OFFLINE,2022.2.4,59.866688873590654,
1,0,0,0,0,0,1,0,triangle,hexagon,2,0,2,0,3,2,38,1,,,,,,,,,,,,,,,,,,,,,,,,,,,,,,,,,,,,,,,,480.8040658420068,480.8040658420068,480.8040658420068,480.8040658420068,480.8040658420068,480.8040658420068,480.8040658420068,480.8040658420068,480.8040658420068,480.8040658420068,l,1.2626196399796754,1,882,2,482.08951026701834,483.5906005150173,,,,,,,,,,,,,,,,,,,,,,,,,,,,,,,,,,,,,,,,,,,,,,,,,,,,,,,,,,,,,,,,,,,,,,11919,2022-10-31_10h45.34.358,vts_reward_expectancy_bt_OFFLINE,2022.2.4,59.866688873590654,
0,1,0,0,0,0,0,1,circle,star,2,0,2,0,3,3,39,5,,,,,,,,,,,,,,,,,,,,,,,,,,,,,,,,,,,,,,,,484.09093571302947,484.09093571302947,484.09093571302947,484.09093571302947,484.09093571302947,484.09093571302947,484.09093571302947,484.09093571302947,484.09093571302947,484.09093571302947,l,1.2018476799712516,10,892,2,485.3256637569866,486.8272640919895,,,,,,,,,,,,,,,,,,,,,,,,,,,,,,,,,,,,,,,,,,,,,,,,,,,,,,,,,,,,,,,,,,,,,,11919,2022-10-31_10h45.34.358,vts_reward_expectancy_bt_OFFLINE,2022.2.4,59.866688873590654,
1,0,0,0,0,1,0,0,triangle,circle,2,0,2,0,3,4,40,0,,,,,,,,,,,,,,,,,,,,,,,,,,,,,,,,,,,,,,,,487.32807625003625,487.32807625003625,487.32807625003625,487.32807625003625,487.32807625003625,487.32807625003625,487.32807625003625,487.32807625003625,487.32807625003625,487.32807625003625,l,0.6841760230017826,10,902,2,488.02855818299577,489.53052015800495,489.53052015800495,490.03094600798795,,,,,,,,,,,,,,,,,,,,,,,,,,,,,,,,,,,,,,,,,,,,,,,,,,,,,,,,,,,,,,,,,,,,11919,2022-10-31_10h45.34.358,vts_reward_expectancy_bt_OFFLINE,2022.2.4,59.866688873590654,
0,1,0,0,1,0,0,0,circle,triangle,2,0,2,0,3,5,41,3,,,,,,,,,,,,,,,,,,,,,,,,,,,,,,,,,,,,,,,,490.03094600798795,490.03094600798795,490.03094600798795,490.03094600798795,490.03094600798795,490.03094600798795,490.03094600798795,490.03094600798795,490.03094600798795,490.03094600798795,a,0.5727856729645282,10,912,2,490.63161357399076,492.13324408698827,,,,,,,,,,,,,,,,,,,,,,,,,,,,,,,,,,,,,,,,,,,,,,,,,,,,,,,,,,,,,,,,,,,,,,11919,2022-10-31_10h45.34.358,vts_reward_expectancy_bt_OFFLINE,2022.2.4,59.866688873590654,
0,0,0,1,1,0,0,0,star,triangle,2,0,2,0,3,6,42,9,,,,,,,,,,,,,,,,,,,,,,,,,,,,,,,,,,,,,,,,492.63382222299697,492.63382222299697,492.63382222299697,492.63382222299697,492.63382222299697,492.63382222299697,492.63382222299697,492.63382222299697,492.63382222299697,492.63382222299697,a,0.6828269700054079,10,922,2,493.3347725379863,494.8361546990345,,,,,,,,,,,,,,,,,,,,,,,,,,,,,,,,,,,,,,,,,,,,,,,,,,,,,,,,,,,,,,,,,,,,,,11919,2022-10-31_10h45.34.358,vts_reward_expectancy_bt_OFFLINE,2022.2.4,59.866688873590654,
0,0,1,0,0,0,0,1,hexagon,star,2,0,2,0,3,7,43,8,,,,,,,,,,,,,,,,,,,,,,,,,,,,,,,,,,,,,,,,495.33671052899444,495.33671052899444,495.33671052899444,495.33671052899444,495.33671052899444,495.33671052899444,495.33671052899444,495.33671052899444,495.33671052899444,495.33671052899444,l,0.668013340968173,10,932,2,496.0374999680207,497.5390374890412,497.5390374890412,,,,,,,,,,,,,,,,,,,,,,,,,,,,,,,,,,,,,,,,,,,,,,,,,,,,,,,,,,,,,,,,,,,,,11919,2022-10-31_10h45.34.358,vts_reward_expectancy_bt_OFFLINE,2022.2.4,59.866688873590654,
0,0,1,0,0,1,0,0,hexagon,circle,2,0,2,0,3,8,44,7,,,,,,,,,,,,,,,,,,,,,,,,,,,,,,,,,,,,,,,,498.03960084501887,498.03960084501887,498.03960084501887,498.03960084501887,498.03960084501887,498.03960084501887,498.03960084501887,498.03960084501887,498.03960084501887,498.03960084501887,l,0.6034567429451272,10,942,2,498.67364060902037,500.1754678839934,,,,,,,,,,,,,,,,,,,,,,,,,,,,,,,,,,,,,,,,,,,,,,,,,,,,,,,,,,,,,,,,,,,,,,11919,2022-10-31_10h45.34.358,vts_reward_expectancy_bt_OFFLINE,2022.2.4,59.866688873590654,
0,0,0,1,0,1,0,0,star ,circle,2,0,2,0,3,9,45,10,,,,,,,,,,,,,,,,,,,,,,,,,,,,,,,,,,,,,,,,500.67590409499826,500.67590409499826,500.67590409499826,500.67590409499826,500.67590409499826,500.67590409499826,500.67590409499826,500.67590409499826,500.67590409499826,500.67590409499826,l,1.8476991429924965,10,952,2,502.54476677504135,504.04637111199554,,,,,,,,,,,,,,,,,,,,,,,,,,,,,,,,,,,,,,,,,,,,,,,,,,,,,,,,,,,,,,,,,,,,,,11919,2022-10-31_10h45.34.358,vts_reward_expectancy_bt_OFFLINE,2022.2.4,59.866688873590654,
0,0,0,1,0,0,1,0,star,hexagon,2,0,2,0,3,10,46,11,,,,,,,,,,,,,,,,,,,,,,,,,,,,,,,,,,,,,,,,504.54699671902927,504.54699671902927,504.54699671902927,504.54699671902927,504.54699671902927,504.54699671902927,504.54699671902927,504.54699671902927,504.54699671902927,504.54699671902927,a,0.6806819920311682,10,962,2,505.2477973800269,506.7492762770271,,,,,,,,,,,,,,,,,,,,,,,,,,,,,,,,,,,,,,,,,,,,,,,,,,,,,,,,,,,,,,,,,,,,,,11919,2022-10-31_10h45.34.358,vts_reward_expectancy_bt_OFFLINE,2022.2.4,59.866688873590654,
0,0,1,0,1,0,0,0,hexagon,triangle,2,0,2,0,3,11,47,6,,,,,,,,,,,,,,,,,,,,,,,,,,,,,,,,,,,,,,,,507.25004924304085,507.25004924304085,507.25004924304085,507.25004924304085,507.25004924304085,507.25004924304085,507.25004924304085,507.25004924304085,507.25004924304085,507.25004924304085,l,1.7051673299865797,1,963,2,508.9853294889908,510.48679483903106,,,,,,,,,,,,,,,,,,,,,,,,,,,,,,,,,,,,,,,,,,,,,,,,,,,,,,,,,,,,,,,,,,,,,,11919,2022-10-31_10h45.34.358,vts_reward_expectancy_bt_OFFLINE,2022.2.4,59.866688873590654,
,,,,,,,,,,,,,,,,,,0,0,0,0,0,0,0,0,,,,,,,,,,,,,,,,,,,,,,,,,,,,,,,,,,,,,,,,,,,,,,,,551.7992191800149,,,139,Y,hexagon,0.0018249719869345427,547.5454468789976,549.0459990740055,549.0459990740055,549.0459990740055,1,0,d,1.2207831559935585,0,550.2979285669862,,,,,,,,,,,,,,,,,,,,,,,,,,,,,,,,,,,,,,,,,,,,,,,,,,,,,,11919,2022-10-31_10h45.34.358,vts_reward_expectancy_bt_OFFLINE,2022.2.4,59.866688873590654,
,,,,,,,,,,,,,,,,,,0,0,0,0,1,0,1,0,,,,,,,,,,,,,,,,,,,,,,,,,,,,,,,,,,,,,,,,,,,,,,,,556.387428112037,,,132,W,star,0.0013479409972205758,552.7833738900372,554.2850644090213,554.2850644090213,554.2850644090213,1,0,d,0.5679839570075274,0,554.885917646985,,,,,,,,,,,,,,,,,,,,,,,,,,,,,,,,,,,,,,,,,,,,,,,,,,,,,,11919,2022-10-31_10h45.34.358,vts_reward_expectancy_bt_OFFLINE,2022.2.4,59.866688873590654,
,,,,,,,,,,,,,,,,,,0,0,0,0,2,0,2,0,,,,,,,,,,,,,,,,,,,,,,,,,,,,,,,,,,,,,,,,,,,,,,,,561.0761047920096,,,160,B,circle,0.0010686020250432193,557.3729687550222,558.873494799016,558.873494799016,558.873494799016,1,0,f,0.6828275289735757,0,559.5742867990048,,,,,,,,,,,,,,,,,,,,,,,,,,,,,,,,,,,,,,,,,,,,,,,,,,,,,,11919,2022-10-31_10h45.34.358,vts_reward_expectancy_bt_OFFLINE,2022.2.4,59.866688873590654,
,,,,,,,,,,,,,,,,,,0,0,0,0,3,0,3,0,,,,,,,,,,,,,,,,,,,,,,,,,,,,,,,,,,,,,,,,,,,,,,,,565.6811200280208,,,181,D,triangle,0.000809971010312438,562.0619613190065,563.5619671079912,563.5619671079912,563.5619671079912,1,0,f,0.5933764849323779,0,564.1793745040195,,,,,,,,,,,,,,,,,,,,,,,,,,,,,,,,,,,,,,,,,,,,,,,,,,,,,,11919,2022-10-31_10h45.34.358,vts_reward_expectancy_bt_OFFLINE,2022.2.4,59.866688873590654,
,,,,,,,,,,,,,,,,,,0,0,0,0,4,0,4,0,,,,,,,,,,,,,,,,,,,,,,,,,,,,,,,,,,,,,,,,,,,,,,,,570.4528750870377,,,167,H,circle,0.0010492739966139197,566.6654029730125,568.1670464240015,568.1670464240015,568.1670464240015,1,0,f,0.765022441977635,0,568.9510892539984,,,,,,,,,,,,,,,,,,,,,,,,,,,,,,,,,,,,,,,,,,,,,,,,,,,,,,11919,2022-10-31_10h45.34.358,vts_reward_expectancy_bt_OFFLINE,2022.2.4,59.866688873590654,
,,,,,,,,,,,,,,,,,,0,0,0,0,5,0,5,0,,,,,,,,,,,,,,,,,,,,,,,,,,,,,,,,,,,,,,,,,,,,,,,,575.0245967429946,,,174,U,hexagon,0.0013239840045571327,571.4389244299964,572.938998683996,572.938998683996,572.938998683996,1,0,f,0.552020555944182,0,573.5230081600021,,,,,,,,,,,,,,,,,,,,,,,,,,,,,,,,,,,,,,,,,,,,,,,,,,,,,,11919,2022-10-31_10h45.34.358,vts_reward_expectancy_bt_OFFLINE,2022.2.4,59.866688873590654,
,,,,,,,,,,,,,,,,,,0,0,0,0,6,0,6,0,,,,,,,,,,,,,,,,,,,,,,,,,,,,,,,,,,,,,,,,,,,,,,,,579.7463934700354,,,125,S,star,0.0013100910000503063,576.0090169740142,577.5109342089854,577.5109342089854,577.5109342089854,1,0,d,0.7084979529608972,0,578.2448994530132,,,,,,,,,,,,,,,,,,,,,,,,,,,,,,,,,,,,,,,,,,,,,,,,,,,,,,11919,2022-10-31_10h45.34.358,vts_reward_expectancy_bt_OFFLINE,2022.2.4,59.866688873590654,
,,,,,,,,,,,,,,,,,,0,0,0,0,7,0,7,0,,,,,,,,,,,,,,,,,,,,,,,,,,,,,,,,,,,,,,,,,,,,,,,,584.6518383449875,,,146,F,triangle,0.0013839930179528892,580.7308148650336,582.2324754380388,582.2324754380388,582.2324754380388,0,0,f,0.8910477219615132,0,583.1669157340075,,,,,,,,,,,,,,,,,,,,,,,,,,,,,,,,,,,,,,,,,,,,,,,,,,,,,,11919,2022-10-31_10h45.34.358,vts_reward_expectancy_bt_OFFLINE,2022.2.4,59.866688873590654,
,,,,,,,,,,,,,,,,,,0,0,0,0,8,0,8,0,,,,,,,,,,,,,,,,,,,,,,,,,,,,,,,,,,,,,,,,,,,,,,,,589.3072192770196,,,139,Y,circle,0.0012303210096433759,585.636392527027,587.1381043629954,587.1381043629954,587.1381043629954,1,1,d,0.6410987920244224,0,587.806287784013,,,,,,,,,,,,,,,,,,,,,,,,,,,,,,,,,,,,,,,,,,,,,,,,,,,,,,11919,2022-10-31_10h45.34.358,vts_reward_expectancy_bt_OFFLINE,2022.2.4,59.866688873590654,
,,,,,,,,,,,,,,,,,,0,0,0,0,9,0,9,0,,,,,,,,,,,,,,,,,,,,,,,,,,,,,,,,,,,,,,,,,,,,,,,,594.2458508030395,,,132,W,star,0.0012484489707276225,590.2914056470036,591.7929848679923,591.7929848679923,591.7929848679923,1,0,d,0.9298075409606099,0,592.7441380830132,,,,,,,,,,,,,,,,,,,,,,,,,,,,,,,,,,,,,,,,,,,,,,,,,,,,,,11919,2022-10-31_10h45.34.358,vts_reward_expectancy_bt_OFFLINE,2022.2.4,59.866688873590654,
,,,,,,,,,,,,,,,,,,,,,,,,,,0,0,0,0,0,0,0,0,,,,,,,,,,,,,,,,,,,,,,,,,,,,,,,,,,,,,,,,612.2489599770051,,,167,B,hexagon,0.0017579760169610381,,,,,1,0,,,1,610.7472008930054,608.4789640119998,609.9797997790156,609.9797997790156,609.9797997790156,j,0.7352191850077361,,,,,,,,,,,,,,,,,,,,,,,,,,,,,,,,,,,,,,,,,,,,,,,,11919,2022-10-31_10h45.34.358,vts_reward_expectancy_bt_OFFLINE,2022.2.4,59.866688873590654,
,,,,,,,,,,,,,,,,,,,,,,,,,,0,0,0,0,1,0,1,0,,,,,,,,,,,,,,,,,,,,,,,,,,,,,,,,,,,,,,,,616.8042968930095,,,174,W,circle,0.0011751600541174412,,,,,1,0,,,1,615.3024332739878,613.2333711240208,614.7350706530269,614.7350706530269,614.7350706530269,k,0.5496493239770643,,,,,,,,,,,,,,,,,,,,,,,,,,,,,,,,,,,,,,,,,,,,,,,,11919,2022-10-31_10h45.34.358,vts_reward_expectancy_bt_OFFLINE,2022.2.4,59.866688873590654,
,,,,,,,,,,,,,,,,,,,,,,,,,,0,0,0,0,2,0,2,0,,,,,,,,,,,,,,,,,,,,,,,,,,,,,,,,,,,,,,,,621.4925165179884,,,132,U,star,0.001374680025037378,,,,,1,0,,,1,619.9908971469849,617.7885721320054,619.2902599980007,619.2902599980007,619.2902599980007,k,0.6747150529990904,,,,,,,,,,,,,,,,,,,,,,,,,,,,,,,,,,,,,,,,,,,,,,,,11919,2022-10-31_10h45.34.358,vts_reward_expectancy_bt_OFFLINE,2022.2.4,59.866688873590654,
,,,,,,,,,,,,,,,,,,,,,,,,,,0,0,0,0,3,0,3,0,,,,,,,,,,,,,,,,,,,,,,,,,,,,,,,,,,,,,,,,626.1143626300036,,,181,Y,triangle,0.0011557029793038964,,,,,1,0,,,1,624.6126537630334,622.4774741180008,623.9786137590418,623.9786137590418,623.9786137590418,k,0.6013546269387007,,,,,,,,,,,,,,,,,,,,,,,,,,,,,,,,,,,,,,,,,,,,,,,,11919,2022-10-31_10h45.34.358,vts_reward_expectancy_bt_OFFLINE,2022.2.4,59.866688873590654,
,,,,,,,,,,,,,,,,,,,,,,,,,,0,0,0,0,4,0,4,0,,,,,,,,,,,,,,,,,,,,,,,,,,,,,,,,,,,,,,,,631.2034215080203,,,160,H,hexagon,0.0016997740021906793,,,,,1,0,,,1,629.7015454820357,627.0989648750401,628.6004339930369,628.6004339930369,628.6004339930369,j,1.0751073849969544,,,,,,,,,,,,,,,,,,,,,,,,,,,,,,,,,,,,,,,,,,,,,,,,11919,2022-10-31_10h45.34.358,vts_reward_expectancy_bt_OFFLINE,2022.2.4,59.866688873590654,
,,,,,,,,,,,,,,,,,,,,,,,,,,0,0,0,0,5,0,5,0,,,,,,,,,,,,,,,,,,,,,,,,,,,,,,,,,,,,,,,,635.8419847030309,,,125,D,circle,0.0015272910241037607,,,,,1,0,,,1,634.3401587600238,632.1878885030164,633.6893089819932,633.6893089819932,633.6893089819932,j,0.6181255059782416,,,,,,,,,,,,,,,,,,,,,,,,,,,,,,,,,,,,,,,,,,,,,,,,11919,2022-10-31_10h45.34.358,vts_reward_expectancy_bt_OFFLINE,2022.2.4,59.866688873590654,
,,,,,,,,,,,,,,,,,,,,,,,,,,0,0,0,0,6,0,6,0,,,,,,,,,,,,,,,,,,,,,,,,,,,,,,,,,,,,,,,,641.1307816129993,,641.631489070016,139,F,star,0.0014340000343509018,,,,,1,0,,,1,639.6291629140032,636.826017243031,638.3277258989983,638.3277258989983,638.3277258989983,j,1.285052981984336,641.1307816129993,,,,,,,,,,,,,,,,,,,,,,,,,,,,,,,,,,,,,,,,,,,,,,,11919,2022-10-31_10h45.34.358,vts_reward_expectancy_bt_OFFLINE,2022.2.4,59.866688873590654,
,,,,,,,,,,,,,,,,,,,,,,,,,,0,0,0,0,7,0,7,0,,,,,,,,,,,,,,,,,,,,,,,,,,,,,,,,,,,,,,,,646.0698678920162,,,146,S,triangle,0.0008943050052039325,,,,,1,0,,,1,644.568125899008,642.1155274140183,643.6170715520275,643.6170715520275,643.6170715520275,k,0.923653537989594,,,,,,,,,,,,,,,,,,,,,,,,,,,,,,,,,,,,,,,,,,,,,,,,11919,2022-10-31_10h45.34.358,vts_reward_expectancy_bt_OFFLINE,2022.2.4,59.866688873590654,
,,,,,,,,,,,,,,,,,,,,,,,,,,0,0,0,0,8,0,8,0,,,,,,,,,,,,,,,,,,,,,,,,,,,,,,,,,,,,,,,,650.6914412920014,,,167,B,hexagon,0.0012248679995536804,,,,,1,0,,,1,649.1898705789936,647.0540698030381,648.5556139330147,648.5556139330147,648.5556139330147,j,0.6014649969874881,,,,,,,,,,,,,,,,,,,,,,,,,,,,,,,,,,,,,,,,,,,,,,,,11919,2022-10-31_10h45.34.358,vts_reward_expectancy_bt_OFFLINE,2022.2.4,59.866688873590654,
,,,,,,,,,,,,,,,,,,,,,,,,,,0,0,0,0,9,0,9,0,,,,,,,,,,,,,,,,,,,,,,,,,,,,,,,,,,,,,,,,655.2967293169932,,,174,W,circle,0.0009678080095909536,,,,,1,0,,,1,653.7948786590132,651.6758625929942,653.1776106519974,653.1776106519974,653.1776106519974,k,0.5852848399663344,,,,,,,,,,,,,,,,,,,,,,,,,,,,,,,,,,,,,,,,,,,,,,,,11919,2022-10-31_10h45.34.358,vts_reward_expectancy_bt_OFFLINE,2022.2.4,59.866688873590654,
,,,,,,,,,,,,,,,,,,,,,,,,,,,,,,,,,,0,0,0,0,0,0,0,0,,,,,,,,,,,,,,,,,,,,,,,,,,,,0,963,,,696.892575039994,,,125,H,circle,0.0019766060286201537,,,,,-1,0,,,2,,,,,,,,,690.8857530090027,690.8857530090027,690.8857530090027,690.8857530090027,692.3706396730267,692.3706396730267,692.3706396730267,692.3706396730267,692.3874315670109,692.3874315670109,692.3874315670109,692.3874315670109,695.3906291149906,695.3906291149906,695.3906291149906,695.3906291149906,-1,no_choice,NA,None,vtsPrac,695.3906291149906,,,,,,,,,,,,,,,,,,,,,,,,,11919,2022-10-31_10h45.34.358,vts_reward_expectancy_bt_OFFLINE,2022.2.4,59.866688873590654,
,,,,,,,,,,,,,,,,,,,,,,,,,,,,,,,,,,0,0,0,0,1,0,1,0,,,,,,,,,,,,,,,,,,,,,,,,,,,,0,963,,,703.7499191900133,,,167,S,star,0.009212949022185057,,,,,0,0,,,2,,,,,,,,,697.8771046850015,697.8771046850015,697.8771046850015,697.8771046850015,699.3784560890053,699.3784560890053,699.3784560890053,699.3784560890053,699.3784560890053,699.3784560890053,699.3784560890053,699.3784560890053,,,,,switch,number,NA,d,vtsPrac,702.2650965329958,2.8416738089872524,,,,,,,,,,,,,,,,,,,,,,,,11919,2022-10-31_10h45.34.358,vts_reward_expectancy_bt_OFFLINE,2022.2.4,59.866688873590654,
,,,,,,,,,,,,,,,,,,,,,,,,,,,,,,,,,,0,0,0,0,2,0,2,0,,,,,,,,,,,,,,,,,,,,,,,,,,,,0,963,,,709.0727241850109,,,132,W,star,0.0012751779868267477,,,,,1,1,,,2,,,,,,,,,704.7352012399933,704.7352012399933,704.7352012399933,704.7352012399933,706.2362478720024,706.2362478720024,706.2362478720024,706.2362478720024,706.2362478720024,706.2362478720024,706.2362478720024,706.2362478720024,,,,,repeat,number,numRpt,d,vtsPrac,707.5710488019977,1.3025519049842842,,,,,,,,,,,,,,,,,,,,,,,,11919,2022-10-31_10h45.34.358,vts_reward_expectancy_bt_OFFLINE,2022.2.4,59.866688873590654,
,,,,,,,,,,,,,,,,,,,,,,,,,,,,,,,,,,0,0,0,0,3,0,3,0,,,,,,,,,,,,,,,,,,,,,,,,,,,,0,963,,,713.7776873020339,,,139,B,triangle,0.0013482620124705136,,,,,1,0,,,2,,,,,,,,,710.0569811679889,710.0569811679889,710.0569811679889,710.0569811679889,711.5586069819983,711.5586069819983,711.5586069819983,711.5586069819983,711.5586069819983,711.5586069819983,711.5586069819983,711.5586069819983,,,,,switch,letter,lettSwt,j,vtsPrac,712.2762054940104,0.6852556469966657,,,,,,,,,,,,,,,,,,,,,,,,11919,2022-10-31_10h45.34.358,vts_reward_expectancy_bt_OFFLINE,2022.2.4,59.866688873590654,
,,,,,,,,,,,,,,,,,,,,,,,,,,,,,,,,,,0,0,0,0,4,0,4,0,,,,,,,,,,,,,,,,,,,,,,,,,,,,0,963,,,718.5161425650003,,,125,H,triangle,0.0012445109896361828,,,,,1,0,,,2,,,,,,,,,714.7621404340025,714.7621404340025,714.7621404340025,714.7621404340025,716.263881129038,716.263881129038,716.263881129038,716.263881129038,716.263881129038,716.263881129038,716.263881129038,716.263881129038,,,,,repeat,letter,lettRpt,j,vtsPrac,717.014683964022,0.7239075279794633,,,,,,,,,,,,,,,,,,,,,,,,11919,2022-10-31_10h45.34.358,vts_reward_expectancy_bt_OFFLINE,2022.2.4,59.866688873590654,
,,,,,,,,,,,,,,,,,,,,,,,,,,,,,,,,,,0,0,0,0,5,0,5,0,,,,,,,,,,,,,,,,,,,,,,,,,,,,0,963,,,723.5383845320321,,,167,S,star,0.0012444379972293973,,,,,1,0,,,2,,,,,,,,,719.5007773819962,719.5007773819962,719.5007773819962,719.5007773819962,721.0023437869968,721.0023437869968,721.0023437869968,721.0023437869968,721.0023437869968,721.0023437869968,721.0023437869968,721.0023437869968,,,,,switch,number,numSwt,f,vtsPrac,722.0368499290198,1.0179591219639406,723.5383845320321,,,,,,,,,,,,,,,,,,,,,,,11919,2022-10-31_10h45.34.358,vts_reward_expectancy_bt_OFFLINE,2022.2.4,59.866688873590654,
,,,,,,,,,,,,,,,,,,,,,,,,,,,,,,,,,,0,0,0,0,6,0,6,0,,,,,,,,,,,,,,,,,,,,,,,,,,,,0,963,,,728.0601872350089,,,132,W,star,0.0005773900193162262,,,,,1,0,,,2,,,,,,,,,724.5230054199928,724.5230054199928,724.5230054199928,724.5230054199928,726.0244988740305,726.0244988740305,726.0244988740305,726.0244988740305,726.0244988740305,726.0244988740305,726.0244988740305,726.0244988740305,,,,,switch,letter,lettSwt,k,vtsPrac,726.5584471740294,0.5070007699541748,,,,,,,,,,,,,,,,,,,,,,,,11919,2022-10-31_10h45.34.358,vts_reward_expectancy_bt_OFFLINE,2022.2.4,59.866688873590654,
,,,,,,,,,,,,,,,,,,,,,,,,,,,,,,,,,,0,0,0,0,7,0,7,0,,,,,,,,,,,,,,,,,,,,,,,,,,,,0,963,,,733.0322338030091,,,139,B,triangle,0.0015076579875312746,,,,,1,0,,,2,,,,,,,,,729.044477027026,729.044477027026,729.044477027026,729.044477027026,730.5462245200179,730.5462245200179,730.5462245200179,730.5462245200179,730.5462245200179,730.5462245200179,730.5462245200179,730.5462245200179,,,,,switch,number,numSwt,d,vtsPrac,731.5306105840136,0.9527164620230906,,,,,,,,,,,,,,,,,,,,,,,,11919,2022-10-31_10h45.34.358,vts_reward_expectancy_bt_OFFLINE,2022.2.4,59.866688873590654,
,,,,,,,,,,,,,,,,,,,,,,,,,,,,,,,,,,0,0,0,0,8,0,8,0,,,,,,,,,,,,,,,,,,,,,,,,,,,,0,963,,,738.1713013800327,,,181,B,triangle,0.0010249269544146955,,,,,1,0,,,2,,,,,,,,,734.0168635949958,734.0168635949958,734.0168635949958,734.0168635949958,735.5185432939907,735.5185432939907,735.5185432939907,735.5185432939907,735.5185432939907,735.5185432939907,735.5185432939907,735.5185432939907,,,,,repeat,number,numRpt,f,vtsPrac,736.669865917007,1.1183405990013853,,,,,,,,,,,,,,,,,,,,,,,,11919,2022-10-31_10h45.34.358,vts_reward_expectancy_bt_OFFLINE,2022.2.4,59.866688873590654,
,,,,,,,,,,,,,,,,,,,,,,,,,,,,,,,,,,0,0,0,0,9,0,9,0,,,,,,,,,,,,,,,,,,,,,,,,,,,,0,963,,,742.8764569890336,,,132,H,star,0.0012818800169043243,,,,,1,0,,,2,,,,,,,,,739.1557316450053,739.1557316450053,739.1557316450053,739.1557316450053,740.6574288820266,740.6574288820266,740.6574288820266,740.6574288820266,740.6574288820266,740.6574288820266,740.6574288820266,740.6574288820266,,,,,switch,letter,lettSwt,j,vtsPrac,741.3747525400249,0.6907043450046331,,,,,,,,,,,,,,,,,,,,,,,,11919,2022-10-31_10h45.34.358,vts_reward_expectancy_bt_OFFLINE,2022.2.4,59.866688873590654,
,,,,,,,,,,,,,,,,,,,,,,,,,,,,,,,,,,0,0,0,0,10,0,10,0,,,,,,,,,,,,,,,,,,,,,,,,,,,,0,963,,,747.6483668329893,,,174,W,triangle,0.0015850230120122433,,,,,0,0,,,2,,,,,,,,,743.8613947920385,743.8613947920385,743.8613947920385,743.8613947920385,745.3625657340162,745.3625657340162,745.3625657340162,745.3625657340162,745.3625657340162,745.3625657340162,745.3625657340162,745.3625657340162,,,,,switch,number,NA,d,vtsPrac,746.1468326839968,0.7520372059661895,,,,,,,,,,,,,,,,,,,,,,,,11919,2022-10-31_10h45.34.358,vts_reward_expectancy_bt_OFFLINE,2022.2.4,59.866688873590654,
,,,,,,,,,,,,,,,,,,,,,,,,,,,,,,,,,,0,0,0,0,11,0,11,0,,,,,,,,,,,,,,,,,,,,,,,,,,,,0,963,,,752.4202668390353,,,139,S,star,0.0011659489828161895,,,,,1,1,,,2,,,,,,,,,748.6330566920224,748.6330566920224,748.6330566920224,748.6330566920224,750.1344166690251,750.1344166690251,750.1344166690251,750.1344166690251,750.1344166690251,750.1344166690251,750.1344166690251,750.1344166690251,,,,,switch,letter,lettSwt,k,vtsPrac,750.920005929016,0.765246060967911,,,,,,,,,,,,,,,,,,,,,,,,11919,2022-10-31_10h45.34.358,vts_reward_expectancy_bt_OFFLINE,2022.2.4,59.866688873590654,
,,,,,,,,,,,,,,,,,,,,,,,,,,,,,,,,,,0,0,0,0,12,0,12,0,,,,,,,,,,,,,,,,,,,,,,,,,,,,0,963,,,757.2424546530237,,,139,D,star,0.0013941249926574528,,,,,1,0,,,2,,,,,,,,,753.4046620239969,753.4046620239969,753.4046620239969,753.4046620239969,754.9064038280048,754.9064038280048,754.9064038280048,754.9064038280048,754.9064038280048,754.9064038280048,754.9064038280048,754.9064038280048,,,,,switch,number,numSwt,d,vtsPrac,755.7407073370414,0.8082927519571967,,,,,,,,,,,,,,,,,,,,,,,,11919,2022-10-31_10h45.34.358,vts_reward_expectancy_bt_OFFLINE,2022.2.4,59.866688873590654,
,,,,,,,,,,,,,,,,,,,,,,,,,,,,,,,,,,0,0,0,0,13,0,13,0,,,,,,,,,,,,,,,,,,,,,,,,,,,,0,963,,,761.8807632399839,,,125,U,hexagon,0.0013794030528515577,,,,,1,0,,,2,,,,,,,,,758.2269231399987,758.2269231399987,758.2269231399987,758.2269231399987,759.7285952449893,759.7285952449893,759.7285952449893,759.7285952449893,759.7285952449893,759.7285952449893,759.7285952449893,759.7285952449893,,,,,repeat,number,numRpt,d,vtsPrac,760.3790943070198,0.6269291539792903,,,,,,,,,,,,,,,,,,,,,,,,11919,2022-10-31_10h45.34.358,vts_reward_expectancy_bt_OFFLINE,2022.2.4,59.866688873590654,
,,,,,,,,,,,,,,,,,,,,,,,,,,,,,,,,,,0,0,0,0,14,0,14,0,,,,,,,,,,,,,,,,,,,,,,,,,,,,0,963,,,766.7026811130345,,,167,B,circle,0.0013165310374461114,,,,,1,0,,,2,,,,,,,,,762.8653356680297,762.8653356680297,762.8653356680297,762.8653356680297,764.366884307994,764.366884307994,764.366884307994,764.366884307994,764.366884307994,764.366884307994,764.366884307994,764.366884307994,,,,,switch,letter,lettSwt,j,vtsPrac,765.2011649890337,0.8046779680298641,,,,,,,,,,,,,,,,,,,,,,,,11919,2022-10-31_10h45.34.358,vts_reward_expectancy_bt_OFFLINE,2022.2.4,59.866688873590654,
,,,,,,,,,,,,,,,,,,,,,,,,,,,,,,,,,,0,0,0,0,15,0,15,0,,,,,,,,,,,,,,,,,,,,,,,,,,,,0,963,,,771.291227032023,,,174,W,hexagon,0.0012530980166047812,,,,,1,0,,,2,,,,,,,,,767.68747712404,767.68747712404,767.68747712404,767.68747712404,769.1891972990124,769.1891972990124,769.1891972990124,769.1891972990124,769.1891972990124,769.1891972990124,769.1891972990124,769.1891972990124,,,,,repeat,letter,lettRpt,k,vtsPrac,769.7895655980101,0.5741383070126176,,,,,,,,,,,,,,,,,,,,,,,,11919,2022-10-31_10h45.34.358,vts_reward_expectancy_bt_OFFLINE,2022.2.4,59.866688873590654,
,,,,,,,,,,,,,,,,,,,,,,,,,,,,,,,,,,,,,,,,,,0,0,0,0,,,,,,,,,,,,,,,,,,,,,,,,0,963,,,806.1129166919854,,,167,H,triangle,0.0023093490162864327,,,,,1,0,,,,,,,,,,,,802.2253218590049,802.2253218590049,802.2253218590049,802.2253218590049,803.7269440580276,803.7269440580276,803.7269440580276,803.7269440580276,803.7269440580276,803.7269440580276,803.7269440580276,803.7269440580276,,,,,switch,number,numSwt,f,noRew,,0.8447063099592924,,0,804.6114589800127,,,,,,,,,,,,,,,,,,,,,11919,2022-10-31_10h45.34.358,vts_reward_expectancy_bt_OFFLINE,2022.2.4,59.866688873590654,
,,,,,,,,,,,,,,,,,,,,,,,,,,,,,,,,,,,,,,,,,,1,0,1,0,,,,,,,,,,,,,,,,,,,,,,,,0,963,,,811.0018516730051,,,160,F,star,0.0011627540225163102,,,,,1,0,,,,,,,,,,,,807.0815981919877,807.0815981919877,807.0815981919877,807.0815981919877,808.582304274023,808.582304274023,808.582304274023,808.582304274023,808.582304274023,808.582304274023,808.582304274023,808.582304274023,,,,,repeat,number,numRpt,f,noRew,,0.8933895719819702,,0,809.5000052190153,811.0018516730051,,,,,,,,,,,,,,,,,,,,11919,2022-10-31_10h45.34.358,vts_reward_expectancy_bt_OFFLINE,2022.2.4,59.866688873590654,
,,,,,,,,,,,,,,,,,,,,,,,,,,,,,,,,,,,,,,,,,,2,0,2,0,,,,,,,,,,,,,,,,,,,,,,,,0,963,,,815.5067456450197,,,146,B,circle,0.0009510900126770139,,,,,1,0,,,,,,,,,,,,811.9859683149843,811.9859683149843,811.9859683149843,811.9859683149843,813.487623789988,813.487623789988,813.487623789988,813.487623789988,813.487623789988,813.487623789988,813.487623789988,813.487623789988,,,,,switch,letter,lettSwt,j,noRew,,0.4917305770213716,,0,814.0048165629851,,,,,,,,,,,,,,,,,,,,,11919,2022-10-31_10h45.34.358,vts_reward_expectancy_bt_OFFLINE,2022.2.4,59.866688873590654,
,,,,,,,,,,,,,,,,,,,,,,,,,,,,,,,,,,,,,,,,,,3,0,3,0,,,,,,,,,,,,,,,,,,,,,,,,0,963,,,820.0617727839854,,,174,S,star,0.0013308330089785159,,,,,1,0,,,,,,,,,,,,816.4910038739908,816.4910038739908,816.4910038739908,816.4910038739908,817.9929444940062,817.9929444940062,817.9929444940062,817.9929444940062,817.9929444940062,817.9929444940062,817.9929444940062,817.9929444940062,,,,,repeat,letter,lettRpt,k,noRew,,0.5404060820001177,,0,818.5600124470075,,,,,,,,,,,,,,,,,,,,,11919,2022-10-31_10h45.34.358,vts_reward_expectancy_bt_OFFLINE,2022.2.4,59.866688873590654,
,,,,,,,,,,,,,,,,,,,,,,,,,,,,,,,,,,,,,,,,,,4,0,4,0,,,,,,,,,,,,,,,,,,,,,,,,0,963,,,824.8502145790262,,,167,H,star,0.0012164200306870043,,,,,1,0,,,,,,,,,,,,821.046111972013,821.046111972013,821.046111972013,821.046111972013,822.5476795230061,822.5476795230061,822.5476795230061,822.5476795230061,822.5476795230061,822.5476795230061,822.5476795230061,822.5476795230061,,,,,repeat,letter,lettRpt,j,noRew,,0.775784934987314,,0,823.3486641889904,,,,,,,,,,,,,,,,,,,,,11919,2022-10-31_10h45.34.358,vts_reward_expectancy_bt_OFFLINE,2022.2.4,59.866688873590654,
,,,,,,,,,,,,,,,,,,,,,,,,,,,,,,,,,,,,,,,,,,5,0,5,0,,,,,,,,,,,,,,,,,,,,,,,,0,963,,,829.6054491520044,,,160,F,hexagon,0.001317982969339937,,,,,1,0,,,,,,,,,,,,825.8346052549896,825.8346052549896,825.8346052549896,825.8346052549896,827.3362065629917,827.3362065629917,827.3362065629917,827.3362065629917,827.3362065629917,827.3362065629917,827.3362065629917,827.3362065629917,,,,,repeat,letter,lettRpt,j,noRew,,0.7405088460072875,,0,828.1040192290093,829.6054491520044,,,,,,,,,,,,,,,,,,,,11919,2022-10-31_10h45.34.358,vts_reward_expectancy_bt_OFFLINE,2022.2.4,59.866688873590654,
,,,,,,,,,,,,,,,,,,,,,,,,,,,,,,,,,,,,,,,,,,6,0,6,0,,,,,,,,,,,,,,,,,,,,,,,,0,963,,,834.5611226480105,,,146,B,hexagon,0.0013090349966660142,,,,,1,0,,,,,,,,,,,,830.5900432150229,830.5900432150229,830.5900432150229,830.5900432150229,832.0914544719853,832.0914544719853,832.0914544719853,832.0914544719853,832.0914544719853,832.0914544719853,832.0914544719853,832.0914544719853,,,,,switch,number,numSwt,d,noRew,,0.9433579709730111,,0,833.0593292390113,,,,,,,,,,,,,,,,,,,,,11919,2022-10-31_10h45.34.358,vts_reward_expectancy_bt_OFFLINE,2022.2.4,59.866688873590654,
,,,,,,,,,,,,,,,,,,,,,,,,,,,,,,,,,,,,,,,,,,7,0,7,0,,,,,,,,,,,,,,,,,,,,,,,,0,963,,,839.3330051620142,,,174,S,triangle,0.001287316030357033,,,,,1,0,,,,,,,,,,,,835.545406942023,835.545406942023,835.545406942023,835.545406942023,837.0470668729977,837.0470668729977,837.0470668729977,837.0470668729977,837.0470668729977,837.0470668729977,837.0470668729977,837.0470668729977,,,,,repeat,number,numRpt,f,noRew,,0.7572498070076108,,0,837.8311215440044,839.3330051620142,,,,,,,,,,,,,,,,,,,,11919,2022-10-31_10h45.34.358,vts_reward_expectancy_bt_OFFLINE,2022.2.4,59.866688873590654,
,,,,,,,,,,,,,,,,,,,,,,,,,,,,,,,,,,,,,,,,,,8,0,8,0,,,,,,,,,,,,,,,,,,,,,,,,0,963,,,844.2383175240248,,,174,Y,triangle,0.001315401983447373,,,,,1,0,,,,,,,,,,,,840.3176683780039,840.3176683780039,840.3176683780039,840.3176683780039,841.8190093490412,841.8190093490412,841.8190093490412,841.8190093490412,841.8190093490412,841.8190093490412,841.8190093490412,841.8190093490412,,,,,repeat,number,numRpt,f,noRew,,0.896713733964134,,0,842.7367499590036,,,,,,,,,,,,,,,,,,,,,11919,2022-10-31_10h45.34.358,vts_reward_expectancy_bt_OFFLINE,2022.2.4,59.866688873590654,
,,,,,,,,,,,,,,,,,,,,,,,,,,,,,,,,,,,,,,,,,,9,0,9,0,,,,,,,,,,,,,,,,,,,,,,,,0,963,,,848.9603628630284,,,167,B,circle,0.0012962949695065618,,,,,1,0,,,,,,,,,,,,845.2226690319949,845.2226690319949,845.2226690319949,845.2226690319949,846.7242546500056,846.7242546500056,846.7242546500056,846.7242546500056,846.7242546500056,846.7242546500056,846.7242546500056,846.7242546500056,,,,,repeat,number,numRpt,f,noRew,,0.7103360510081984,,0,847.4585283370106,848.9603628630284,,,,,,,,,,,,,,,,,,,,11919,2022-10-31_10h45.34.358,vts_reward_expectancy_bt_OFFLINE,2022.2.4,59.866688873590654,
,,,,,,,,,,,,,,,,,,,,,,,,,,,,,,,,,,,,,,,,,,10,0,10,0,,,,,,,,,,,,,,,,,,,,,,,,0,963,,,854.1827718790155,,,139,S,hexagon,0.0012095869751647115,,,,,1,0,,,,,,,,,,,,849.9445891850046,849.9445891850046,849.9445891850046,849.9445891850046,851.4462981279939,851.4462981279939,851.4462981279939,851.4462981279939,851.4462981279939,851.4462981279939,851.4462981279939,851.4462981279939,,,,,switch,letter,lettSwt,k,noRew,,1.2053069539833814,,0,852.6809938130318,,,,,,,,,,,,,,,,,,,,,11919,2022-10-31_10h45.34.358,vts_reward_expectancy_bt_OFFLINE,2022.2.4,59.866688873590654,
,,,,,,,,,,,,,,,,,,,,,,,,,,,,,,,,,,,,,,,,,,11,0,11,0,,,,,,,,,,,,,,,,,,,,,,,,0,963,,,858.6377664280008,,,181,W,star,0.001180747989565134,,,,,1,0,,,,,,,,,,,,855.1671715900302,855.1671715900302,855.1671715900302,855.1671715900302,856.6686902270303,856.6686902270303,856.6686902270303,856.6686902270303,856.6686902270303,856.6686902270303,856.6686902270303,856.6686902270303,,,,,repeat,letter,lettRpt,k,noRew,,0.4465169559698552,,0,857.1359198819846,,,,,,,,,,,,,,,,,,,,,11919,2022-10-31_10h45.34.358,vts_reward_expectancy_bt_OFFLINE,2022.2.4,59.866688873590654,
,,,,,,,,,,,,,,,,,,,,,,,,,,,,,,,,,,,,,,,,,,12,0,12,0,,,,,,,,,,,,,,,,,,,,,,,,0,963,,,863.5097084800364,,,174,U,star,0.0011227900395169854,,,,,1,0,,,,,,,,,,,,859.6220152390306,859.6220152390306,859.6220152390306,859.6220152390306,861.1237234399887,861.1237234399887,861.1237234399887,861.1237234399887,861.1237234399887,861.1237234399887,861.1237234399887,861.1237234399887,,,,,switch,number,numSwt,f,noRew,,0.863179252948612,,0,862.0079989180085,863.5097084800364,,,,,,,,,,,,,,,,,,,,11919,2022-10-31_10h45.34.358,vts_reward_expectancy_bt_OFFLINE,2022.2.4,59.866688873590654,
