LTriangleOpac,LCircleOpac,LHexagonOpac,LStarOpac,RTriangleOpac,RCircleOpac,RHexagonOpac,RStarOpac,LShape_ID,RShape_ID,training_blocks.thisRepN,training_blocks.thisTrialN,training_blocks.thisN,training_blocks.thisIndex,training.thisRepN,training.thisTrialN,training.thisN,training.thisIndex,task1_prac_redo.thisRepN,task1_prac_redo.thisTrialN,task1_prac_redo.thisN,task1_prac_redo.thisIndex,task1_prac_trials.thisRepN,task1_prac_trials.thisTrialN,task1_prac_trials.thisN,task1_prac_trials.thisIndex,task2_prac_redo.thisRepN,task2_prac_redo.thisTrialN,task2_prac_redo.thisN,task2_prac_redo.thisIndex,task2_praac_trials.thisRepN,task2_praac_trials.thisTrialN,task2_praac_trials.thisN,task2_praac_trials.thisIndex,vts_prac_redo.thisRepN,vts_prac_redo.thisTrialN,vts_prac_redo.thisN,vts_prac_redo.thisIndex,vts_practice_trials.thisRepN,vts_practice_trials.thisTrialN,vts_practice_trials.thisN,vts_practice_trials.thisIndex,trials_norew.thisRepN,trials_norew.thisTrialN,trials_norew.thisN,trials_norew.thisIndex,block.thisRepN,block.thisTrialN,block.thisN,block.thisIndex,trials_rew.thisRepN,trials_rew.thisTrialN,trials_rew.thisN,trials_rew.thisIndex,key_resp.started,key_resp.keys,key_resp.rt,left_circle.started,right_circle.started,left_triangle.started,right_triangle.started,left_star.started,right_star.started,left_hexagon.started,right_hexagon.started,training_fix.started,training_resp.started,training_resp.keys,training_resp.rt,points_trial,points_cumul,trainBlock,training_feedback_txt.started,fix.started,training_feedback_txt.stopped,fix.stopped,curr_topStim,curr_bottStim,curr_shape,ISI.started,tgt_fix_prac1.started,top_target_prac1.started,bott_target_prac1.started,target_resp_prac1.started,acc,E1,target_resp_prac1.keys,target_resp_prac1.rt,pracBlock,prac_fback_text.started,tgt_fix_prac2.started,top_target_prac2.started,bott_target_prac2.started,target_resp_prac2.started,target_resp_prac2.keys,target_resp_prac2.rt,star.started,hegagon.started,triangle.started,circle.started,star.stopped,hegagon.stopped,triangle.stopped,circle.stopped,top_target.started,tgt_fix.started,bot_target.started,target_resp.started,alt,task,condition,target_resp.keys,target_resp.rt,rewCond,vts_fback.started,vts_fback.stopped,blockNum,norew_fback.started,norew_fback.stopped,top_target.stopped,tgt_fix.stopped,bot_target.stopped,target_resp.stopped,key_resp_2.keys,key_resp_2.rt,rewExpectancy,feedbk_text.started,feedbk_text.stopped,text_3.started,debrief.started,text_3.stopped,button.started,debrief.index,debrief.itemText,debrief.type,debrief.granularity,debrief.font,debrief.markerColor,debrief.response,debrief.rt,button.numClicks,button.timesOn,button.timesOff,participant,date,expName,psychopyVersion,frameRate,
,,,,,,,,,,,,,,,,,,,,,,,,,,,,,,,,,,,,,,,,,,,,,,,,,,,,,,21.666290366993053,space,8.92912615701789,,,,,,,,,,,,,,,,,,,,,,,,,,,,,,,,,,,,,,,,,,,,,,,,,,,,,,,,,,,,,,,,,,,,,,,,,,,,,,,,,,,,,,,12321,2022-11-10_14h08.33.697,vts_reward_expectancy_bt_OFFLINE,2022.2.4,59.9410599535448,
0,1,0,0,0,0,1,0,circle,hexagon,0,0,0,0,0,0,0,4,,,,,,,,,,,,,,,,,,,,,,,,,,,,,,,,,,,,,,,,62.21616031997837,62.21616031997837,62.21616031997837,62.21616031997837,62.21616031997837,62.21616031997837,62.21616031997837,62.21616031997837,62.21616031997837,62.21616031997837,a,1.7147859450196847,1,1,0,63.95332794598653,65.45493816200178,,,,,,,,,,,,,,,,,,,,,,,,,,,,,,,,,,,,,,,,,,,,,,,,,,,,,,,,,,,,,,,,,,,,,,12321,2022-11-10_14h08.33.697,vts_reward_expectancy_bt_OFFLINE,2022.2.4,59.9410599535448,
0,0,0,1,0,0,1,0,star,hexagon,0,0,0,0,0,1,1,11,,,,,,,,,,,,,,,,,,,,,,,,,,,,,,,,,,,,,,,,65.95563848799793,65.95563848799793,65.95563848799793,65.95563848799793,65.95563848799793,65.95563848799793,65.95563848799793,65.95563848799793,65.95563848799793,65.95563848799793,l,1.1920403369877022,10,11,0,67.17352229799144,68.67519039899344,,,,,,,,,,,,,,,,,,,,,,,,,,,,,,,,,,,,,,,,,,,,,,,,,,,,,,,,,,,,,,,,,,,,,,12321,2022-11-10_14h08.33.697,vts_reward_expectancy_bt_OFFLINE,2022.2.4,59.9410599535448,
0,1,0,0,1,0,0,0,circle,triangle,0,0,0,0,0,2,2,3,,,,,,,,,,,,,,,,,,,,,,,,,,,,,,,,,,,,,,,,69.17596416699234,69.17596416699234,69.17596416699234,69.17596416699234,69.17596416699234,69.17596416699234,69.17596416699234,69.17596416699234,69.17596416699234,69.17596416699234,a,0.9191387120226864,10,21,0,70.12709056600579,71.62845323700458,,,,,,,,,,,,,,,,,,,,,,,,,,,,,,,,,,,,,,,,,,,,,,,,,,,,,,,,,,,,,,,,,,,,,,12321,2022-11-10_14h08.33.697,vts_reward_expectancy_bt_OFFLINE,2022.2.4,59.9410599535448,
0,0,1,0,1,0,0,0,hexagon,triangle,0,0,0,0,0,3,3,6,,,,,,,,,,,,,,,,,,,,,,,,,,,,,,,,,,,,,,,,72.12928885198198,72.12928885198198,72.12928885198198,72.12928885198198,72.12928885198198,72.12928885198198,72.12928885198198,72.12928885198198,72.12928885198198,72.12928885198198,a,1.1524124110292178,10,31,0,73.31356659097946,74.8153745259915,,,,,,,,,,,,,,,,,,,,,,,,,,,,,,,,,,,,,,,,,,,,,,,,,,,,,,,,,,,,,,,,,,,,,,12321,2022-11-10_14h08.33.697,vts_reward_expectancy_bt_OFFLINE,2022.2.4,59.9410599535448,
0,0,0,1,0,1,0,0,star ,circle,0,0,0,0,0,4,4,10,,,,,,,,,,,,,,,,,,,,,,,,,,,,,,,,,,,,,,,,75.31587899199803,75.31587899199803,75.31587899199803,75.31587899199803,75.31587899199803,75.31587899199803,75.31587899199803,75.31587899199803,75.31587899199803,75.31587899199803,a,1.1819287250109483,10,41,0,76.51718241398339,78.01910349799437,,,,,,,,,,,,,,,,,,,,,,,,,,,,,,,,,,,,,,,,,,,,,,,,,,,,,,,,,,,,,,,,,,,,,,12321,2022-11-10_14h08.33.697,vts_reward_expectancy_bt_OFFLINE,2022.2.4,59.9410599535448,
0,0,1,0,0,0,0,1,hexagon,star,0,0,0,0,0,5,5,8,,,,,,,,,,,,,,,,,,,,,,,,,,,,,,,,,,,,,,,,78.51937750499928,78.51937750499928,78.51937750499928,78.51937750499928,78.51937750499928,78.51937750499928,78.51937750499928,78.51937750499928,78.51937750499928,78.51937750499928,l,0.9248030110029504,1,42,0,79.47052168298978,80.97204564200365,,,,,,,,,,,,,,,,,,,,,,,,,,,,,,,,,,,,,,,,,,,,,,,,,,,,,,,,,,,,,,,,,,,,,,12321,2022-11-10_14h08.33.697,vts_reward_expectancy_bt_OFFLINE,2022.2.4,59.9410599535448,
0,1,0,0,0,0,0,1,circle,star,0,0,0,0,0,6,6,5,,,,,,,,,,,,,,,,,,,,,,,,,,,,,,,,,,,,,,,,81.47268827000516,81.47268827000516,81.47268827000516,81.47268827000516,81.47268827000516,81.47268827000516,81.47268827000516,81.47268827000516,81.47268827000516,81.47268827000516,a,0.8185087140009273,1,43,0,82.3234503499989,83.82516724898596,,,,,,,,,,,,,,,,,,,,,,,,,,,,,,,,,,,,,,,,,,,,,,,,,,,,,,,,,,,,,,,,,,,,,,12321,2022-11-10_14h08.33.697,vts_reward_expectancy_bt_OFFLINE,2022.2.4,59.9410599535448,
1,0,0,0,0,1,0,0,triangle,circle,0,0,0,0,0,7,7,0,,,,,,,,,,,,,,,,,,,,,,,,,,,,,,,,,,,,,,,,84.32565228699241,84.32565228699241,84.32565228699241,84.32565228699241,84.32565228699241,84.32565228699241,84.32565228699241,84.32565228699241,84.32565228699241,84.32565228699241,l,0.968832826038124,1,44,0,85.32679186400492,86.82859206598368,,,,,,,,,,,,,,,,,,,,,,,,,,,,,,,,,,,,,,,,,,,,,,,,,,,,,,,,,,,,,,,,,,,,,,12321,2022-11-10_14h08.33.697,vts_reward_expectancy_bt_OFFLINE,2022.2.4,59.9410599535448,
1,0,0,0,0,0,1,0,triangle,hexagon,0,0,0,0,0,8,8,1,,,,,,,,,,,,,,,,,,,,,,,,,,,,,,,,,,,,,,,,87.32912432399462,87.32912432399462,87.32912432399462,87.32912432399462,87.32912432399462,87.32912432399462,87.32912432399462,87.32912432399462,87.32912432399462,87.32912432399462,a,0.7567025480093434,10,54,0,88.11329031098285,89.61486336099915,,,,,,,,,,,,,,,,,,,,,,,,,,,,,,,,,,,,,,,,,,,,,,,,,,,,,,,,,,,,,,,,,,,,,,12321,2022-11-10_14h08.33.697,vts_reward_expectancy_bt_OFFLINE,2022.2.4,59.9410599535448,
1,0,0,0,0,0,0,1,triangle,star,0,0,0,0,0,9,9,2,,,,,,,,,,,,,,,,,,,,,,,,,,,,,,,,,,,,,,,,90.11551301999134,90.11551301999134,90.11551301999134,90.11551301999134,90.11551301999134,90.11551301999134,90.11551301999134,90.11551301999134,90.11551301999134,90.11551301999134,a,0.5455610399949364,10,64,0,90.68280272799893,92.18445385398809,,,,,,,,,,,,,,,,,,,,,,,,,,,,,,,,,,,,,,,,,,,,,,,,,,,,,,,,,,,,,,,,,,,,,,12321,2022-11-10_14h08.33.697,vts_reward_expectancy_bt_OFFLINE,2022.2.4,59.9410599535448,
0,0,1,0,0,1,0,0,hexagon,circle,0,0,0,0,0,10,10,7,,,,,,,,,,,,,,,,,,,,,,,,,,,,,,,,,,,,,,,,92.68503550300375,92.68503550300375,92.68503550300375,92.68503550300375,92.68503550300375,92.68503550300375,92.68503550300375,92.68503550300375,92.68503550300375,92.68503550300375,a,1.0148825520009268,10,74,0,93.71939743999974,95.2211614830012,,,,,,,,,,,,,,,,,,,,,,,,,,,,,,,,,,,,,,,,,,,,,,,,,,,,,,,,,,,,,,,,,,,,,,12321,2022-11-10_14h08.33.697,vts_reward_expectancy_bt_OFFLINE,2022.2.4,59.9410599535448,
0,0,0,1,1,0,0,0,star,triangle,0,0,0,0,0,11,11,9,,,,,,,,,,,,,,,,,,,,,,,,,,,,,,,,,,,,,,,,95.72173329099314,95.72173329099314,95.72173329099314,95.72173329099314,95.72173329099314,95.72173329099314,95.72173329099314,95.72173329099314,95.72173329099314,95.72173329099314,l,1.0255468650138937,10,84,0,96.77292326500174,98.27468760899501,,,,,,,,,,,,,,,,,,,,,,,,,,,,,,,,,,,,,,,,,,,,,,,,,,,,,,,,,,,,,,,,,,,,,,12321,2022-11-10_14h08.33.697,vts_reward_expectancy_bt_OFFLINE,2022.2.4,59.9410599535448,
0,0,1,0,0,1,0,0,hexagon,circle,0,0,0,0,1,0,12,7,,,,,,,,,,,,,,,,,,,,,,,,,,,,,,,,,,,,,,,,98.77532239499851,98.77532239499851,98.77532239499851,98.77532239499851,98.77532239499851,98.77532239499851,98.77532239499851,98.77532239499851,98.77532239499851,98.77532239499851,a,0.977432471991051,10,94,0,99.77637052998762,101.27787869199528,,,,,,,,,,,,,,,,,,,,,,,,,,,,,,,,,,,,,,,,,,,,,,,,,,,,,,,,,,,,,,,,,,,,,,12321,2022-11-10_14h08.33.697,vts_reward_expectancy_bt_OFFLINE,2022.2.4,59.9410599535448,
0,0,0,1,1,0,0,0,star,triangle,0,0,0,0,1,1,13,9,,,,,,,,,,,,,,,,,,,,,,,,,,,,,,,,,,,,,,,,101.77840456899139,101.77840456899139,101.77840456899139,101.77840456899139,101.77840456899139,101.77840456899139,101.77840456899139,101.77840456899139,101.77840456899139,101.77840456899139,l,1.022313346998999,1,95,0,102.82955719798338,104.33127888498711,,,,,,,,,,,,,,,,,,,,,,,,,,,,,,,,,,,,,,,,,,,,,,,,,,,,,,,,,,,,,,,,,,,,,,12321,2022-11-10_14h08.33.697,vts_reward_expectancy_bt_OFFLINE,2022.2.4,59.9410599535448,
1,0,0,0,0,1,0,0,triangle,circle,0,0,0,0,1,2,14,0,,,,,,,,,,,,,,,,,,,,,,,,,,,,,,,,,,,,,,,,104.83191043199622,104.83191043199622,104.83191043199622,104.83191043199622,104.83191043199622,104.83191043199622,104.83191043199622,104.83191043199622,104.83191043199622,104.83191043199622,a,1.1523736320086755,10,105,0,106.01629017200321,107.51814850899973,,,,,,,,,,,,,,,,,,,,,,,,,,,,,,,,,,,,,,,,,,,,,,,,,,,,,,,,,,,,,,,,,,,,,,12321,2022-11-10_14h08.33.697,vts_reward_expectancy_bt_OFFLINE,2022.2.4,59.9410599535448,
0,0,1,0,0,0,0,1,hexagon,star,0,0,0,0,1,3,15,8,,,,,,,,,,,,,,,,,,,,,,,,,,,,,,,,,,,,,,,,108.0186466180021,108.0186466180021,108.0186466180021,108.0186466180021,108.0186466180021,108.0186466180021,108.0186466180021,108.0186466180021,108.0186466180021,108.0186466180021,a,0.6774917430302594,10,115,0,108.71935870798188,110.22095596199506,,,,,,,,,,,,,,,,,,,,,,,,,,,,,,,,,,,,,,,,,,,,,,,,,,,,,,,,,,,,,,,,,,,,,,12321,2022-11-10_14h08.33.697,vts_reward_expectancy_bt_OFFLINE,2022.2.4,59.9410599535448,
0,0,1,0,1,0,0,0,hexagon,triangle,0,0,0,0,1,4,16,6,,,,,,,,,,,,,,,,,,,,,,,,,,,,,,,,,,,,,,,,110.72162418797961,110.72162418797961,110.72162418797961,110.72162418797961,110.72162418797961,110.72162418797961,110.72162418797961,110.72162418797961,110.72162418797961,110.72162418797961,a,1.619664277008269,1,116,0,112.37352788398857,113.87507975500193,,,,,,,,,,,,,,,,,,,,,,,,,,,,,,,,,,,,,,,,,,,,,,,,,,,,,,,,,,,,,,,,,,,,,,12321,2022-11-10_14h08.33.697,vts_reward_expectancy_bt_OFFLINE,2022.2.4,59.9410599535448,
1,0,0,0,0,0,0,1,triangle,star,0,0,0,0,1,5,17,2,,,,,,,,,,,,,,,,,,,,,,,,,,,,,,,,,,,,,,,,114.37579227497918,114.37579227497918,114.37579227497918,114.37579227497918,114.37579227497918,114.37579227497918,114.37579227497918,114.37579227497918,114.37579227497918,114.37579227497918,a,0.7907160500180908,10,126,0,115.1932232939871,116.69475108900224,,,,,,,,,,,,,,,,,,,,,,,,,,,,,,,,,,,,,,,,,,,,,,,,,,,,,,,,,,,,,,,,,,,,,,12321,2022-11-10_14h08.33.697,vts_reward_expectancy_bt_OFFLINE,2022.2.4,59.9410599535448,
0,1,0,0,0,0,1,0,circle,hexagon,0,0,0,0,1,6,18,4,,,,,,,,,,,,,,,,,,,,,,,,,,,,,,,,,,,,,,,,117.19529367698124,117.19529367698124,117.19529367698124,117.19529367698124,117.19529367698124,117.19529367698124,117.19529367698124,117.19529367698124,117.19529367698124,117.19529367698124,l,2.626014601031784,10,136,0,119.8482638259884,121.34999014198547,,,,,,,,,,,,,,,,,,,,,,,,,,,,,,,,,,,,,,,,,,,,,,,,,,,,,,,,,,,,,,,,,,,,,,12321,2022-11-10_14h08.33.697,vts_reward_expectancy_bt_OFFLINE,2022.2.4,59.9410599535448,
1,0,0,0,0,0,1,0,triangle,hexagon,0,0,0,0,1,7,19,1,,,,,,,,,,,,,,,,,,,,,,,,,,,,,,,,,,,,,,,,121.8506057089835,121.8506057089835,121.8506057089835,121.8506057089835,121.8506057089835,121.8506057089835,121.8506057089835,121.8506057089835,121.8506057089835,121.8506057089835,l,1.4256375860131811,10,146,0,123.30227108197869,124.8037404170027,,,,,,,,,,,,,,,,,,,,,,,,,,,,,,,,,,,,,,,,,,,,,,,,,,,,,,,,,,,,,,,,,,,,,,12321,2022-11-10_14h08.33.697,vts_reward_expectancy_bt_OFFLINE,2022.2.4,59.9410599535448,
0,0,0,1,0,0,1,0,star,hexagon,0,0,0,0,1,8,20,11,,,,,,,,,,,,,,,,,,,,,,,,,,,,,,,,,,,,,,,,125.30438942898763,125.30438942898763,125.30438942898763,125.30438942898763,125.30438942898763,125.30438942898763,125.30438942898763,125.30438942898763,125.30438942898763,125.30438942898763,l,1.5167564490111545,10,156,0,126.8393098609813,128.34108648900292,,,,,,,,,,,,,,,,,,,,,,,,,,,,,,,,,,,,,,,,,,,,,,,,,,,,,,,,,,,,,,,,,,,,,,12321,2022-11-10_14h08.33.697,vts_reward_expectancy_bt_OFFLINE,2022.2.4,59.9410599535448,
0,1,0,0,1,0,0,0,circle,triangle,0,0,0,0,1,9,21,3,,,,,,,,,,,,,,,,,,,,,,,,,,,,,,,,,,,,,,,,128.8416840499849,128.8416840499849,128.8416840499849,128.8416840499849,128.8416840499849,128.8416840499849,128.8416840499849,128.8416840499849,128.8416840499849,128.8416840499849,l,1.3413920410093851,10,166,0,130.2097583549912,131.71147263099556,,,,,,,,,,,,,,,,,,,,,,,,,,,,,,,,,,,,,,,,,,,,,,,,,,,,,,,,,,,,,,,,,,,,,,12321,2022-11-10_14h08.33.697,vts_reward_expectancy_bt_OFFLINE,2022.2.4,59.9410599535448,
0,0,0,1,0,1,0,0,star ,circle,0,0,0,0,1,10,22,10,,,,,,,,,,,,,,,,,,,,,,,,,,,,,,,,,,,,,,,,132.2120243810059,132.2120243810059,132.2120243810059,132.2120243810059,132.2120243810059,132.2120243810059,132.2120243810059,132.2120243810059,132.2120243810059,132.2120243810059,l,0.8291499520128127,1,167,0,133.0628198129998,134.5644626809808,134.5644626809808,,,,,,,,,,,,,,,,,,,,,,,,,,,,,,,,,,,,,,,,,,,,,,,,,,,,,,,,,,,,,,,,,,,,,12321,2022-11-10_14h08.33.697,vts_reward_expectancy_bt_OFFLINE,2022.2.4,59.9410599535448,
0,1,0,0,0,0,0,1,circle,star,0,0,0,0,1,11,23,5,,,,,,,,,,,,,,,,,,,,,,,,,,,,,,,,,,,,,,,,135.06539116398199,135.06539116398199,135.06539116398199,135.06539116398199,135.06539116398199,135.06539116398199,135.06539116398199,135.06539116398199,135.06539116398199,135.06539116398199,a,0.8451887140108738,1,168,0,135.9327063630044,137.43446610099636,,,,,,,,,,,,,,,,,,,,,,,,,,,,,,,,,,,,,,,,,,,,,,,,,,,,,,,,,,,,,,,,,,,,,,12321,2022-11-10_14h08.33.697,vts_reward_expectancy_bt_OFFLINE,2022.2.4,59.9410599535448,
1,0,0,0,0,0,0,1,triangle,star,0,0,0,0,2,0,24,2,,,,,,,,,,,,,,,,,,,,,,,,,,,,,,,,,,,,,,,,137.93507148500066,137.93507148500066,137.93507148500066,137.93507148500066,137.93507148500066,137.93507148500066,137.93507148500066,137.93507148500066,137.93507148500066,137.93507148500066,a,0.7868566710094456,10,178,0,138.75258473400027,140.25406648000353,,,,,,,,,,,,,,,,,,,,,,,,,,,,,,,,,,,,,,,,,,,,,,,,,,,,,,,,,,,,,,,,,,,,,,12321,2022-11-10_14h08.33.697,vts_reward_expectancy_bt_OFFLINE,2022.2.4,59.9410599535448,
0,1,0,0,0,0,0,1,circle,star,0,0,0,0,2,1,25,5,,,,,,,,,,,,,,,,,,,,,,,,,,,,,,,,,,,,,,,,140.75498165297904,140.75498165297904,140.75498165297904,140.75498165297904,140.75498165297904,140.75498165297904,140.75498165297904,140.75498165297904,140.75498165297904,140.75498165297904,a,0.56863631302258,1,179,0,141.35545053999522,142.8571514780051,,,,,,,,,,,,,,,,,,,,,,,,,,,,,,,,,,,,,,,,,,,,,,,,,,,,,,,,,,,,,,,,,,,,,,12321,2022-11-10_14h08.33.697,vts_reward_expectancy_bt_OFFLINE,2022.2.4,59.9410599535448,
0,1,0,0,1,0,0,0,circle,triangle,0,0,0,0,2,2,26,3,,,,,,,,,,,,,,,,,,,,,,,,,,,,,,,,,,,,,,,,143.35768656700384,143.35768656700384,143.35768656700384,143.35768656700384,143.35768656700384,143.35768656700384,143.35768656700384,143.35768656700384,143.35768656700384,143.35768656700384,l,1.057046664034715,10,189,0,144.44214348698733,145.94370664597955,,,,,,,,,,,,,,,,,,,,,,,,,,,,,,,,,,,,,,,,,,,,,,,,,,,,,,,,,,,,,,,,,,,,,,12321,2022-11-10_14h08.33.697,vts_reward_expectancy_bt_OFFLINE,2022.2.4,59.9410599535448,
0,0,1,0,0,0,0,1,hexagon,star,0,0,0,0,2,3,27,8,,,,,,,,,,,,,,,,,,,,,,,,,,,,,,,,,,,,,,,,146.4443125980033,146.4443125980033,146.4443125980033,146.4443125980033,146.4443125980033,146.4443125980033,146.4443125980033,146.4443125980033,146.4443125980033,146.4443125980033,a,0.7515717149944976,10,199,0,147.22867985398625,148.73007394900196,,,,,,,,,,,,,,,,,,,,,,,,,,,,,,,,,,,,,,,,,,,,,,,,,,,,,,,,,,,,,,,,,,,,,,12321,2022-11-10_14h08.33.697,vts_reward_expectancy_bt_OFFLINE,2022.2.4,59.9410599535448,
0,0,0,1,0,0,1,0,star,hexagon,0,0,0,0,2,4,28,11,,,,,,,,,,,,,,,,,,,,,,,,,,,,,,,,,,,,,,,,149.2306626449863,149.2306626449863,149.2306626449863,149.2306626449863,149.2306626449863,149.2306626449863,149.2306626449863,149.2306626449863,149.2306626449863,149.2306626449863,l,1.0362153399910312,1,200,0,150.29855644499185,151.80036842200207,,,,,,,,,,,,,,,,,,,,,,,,,,,,,,,,,,,,,,,,,,,,,,,,,,,,,,,,,,,,,,,,,,,,,,12321,2022-11-10_14h08.33.697,vts_reward_expectancy_bt_OFFLINE,2022.2.4,59.9410599535448,
1,0,0,0,0,0,1,0,triangle,hexagon,0,0,0,0,2,5,29,1,,,,,,,,,,,,,,,,,,,,,,,,,,,,,,,,,,,,,,,,152.30094010700122,152.30094010700122,152.30094010700122,152.30094010700122,152.30094010700122,152.30094010700122,152.30094010700122,152.30094010700122,152.30094010700122,152.30094010700122,l,1.373978732037358,10,210,0,153.70267092299764,155.2040695869946,,,,,,,,,,,,,,,,,,,,,,,,,,,,,,,,,,,,,,,,,,,,,,,,,,,,,,,,,,,,,,,,,,,,,,12321,2022-11-10_14h08.33.697,vts_reward_expectancy_bt_OFFLINE,2022.2.4,59.9410599535448,
0,0,0,1,0,1,0,0,star ,circle,0,0,0,0,2,6,30,10,,,,,,,,,,,,,,,,,,,,,,,,,,,,,,,,,,,,,,,,155.70442502800142,155.70442502800142,155.70442502800142,155.70442502800142,155.70442502800142,155.70442502800142,155.70442502800142,155.70442502800142,155.70442502800142,155.70442502800142,l,0.759934859990608,1,211,0,156.48882552498253,157.99030091997702,,,,,,,,,,,,,,,,,,,,,,,,,,,,,,,,,,,,,,,,,,,,,,,,,,,,,,,,,,,,,,,,,,,,,,12321,2022-11-10_14h08.33.697,vts_reward_expectancy_bt_OFFLINE,2022.2.4,59.9410599535448,
1,0,0,0,0,1,0,0,triangle,circle,0,0,0,0,2,7,31,0,,,,,,,,,,,,,,,,,,,,,,,,,,,,,,,,,,,,,,,,158.49086121399887,158.49086121399887,158.49086121399887,158.49086121399887,158.49086121399887,158.49086121399887,158.49086121399887,158.49086121399887,158.49086121399887,158.49086121399887,a,0.9551744679920375,10,221,0,159.47527649698895,160.97696569000254,,,,,,,,,,,,,,,,,,,,,,,,,,,,,,,,,,,,,,,,,,,,,,,,,,,,,,,,,,,,,,,,,,,,,,12321,2022-11-10_14h08.33.697,vts_reward_expectancy_bt_OFFLINE,2022.2.4,59.9410599535448,
0,0,1,0,0,1,0,0,hexagon,circle,0,0,0,0,2,8,32,7,,,,,,,,,,,,,,,,,,,,,,,,,,,,,,,,,,,,,,,,161.47777500198572,161.47777500198572,161.47777500198572,161.47777500198572,161.47777500198572,161.47777500198572,161.47777500198572,161.47777500198572,161.47777500198572,161.47777500198572,a,0.802547016995959,10,231,0,162.31172297897865,163.81351519399323,,,,,,,,,,,,,,,,,,,,,,,,,,,,,,,,,,,,,,,,,,,,,,,,,,,,,,,,,,,,,,,,,,,,,,12321,2022-11-10_14h08.33.697,vts_reward_expectancy_bt_OFFLINE,2022.2.4,59.9410599535448,
0,1,0,0,0,0,1,0,circle,hexagon,0,0,0,0,2,9,33,4,,,,,,,,,,,,,,,,,,,,,,,,,,,,,,,,,,,,,,,,164.31416727998294,164.31416727998294,164.31416727998294,164.31416727998294,164.31416727998294,164.31416727998294,164.31416727998294,164.31416727998294,164.31416727998294,164.31416727998294,l,0.8478414880228229,10,241,0,165.1816832899931,166.68328887800453,,,,,,,,,,,,,,,,,,,,,,,,,,,,,,,,,,,,,,,,,,,,,,,,,,,,,,,,,,,,,,,,,,,,,,12321,2022-11-10_14h08.33.697,vts_reward_expectancy_bt_OFFLINE,2022.2.4,59.9410599535448,
0,0,1,0,1,0,0,0,hexagon,triangle,0,0,0,0,2,10,34,6,,,,,,,,,,,,,,,,,,,,,,,,,,,,,,,,,,,,,,,,167.1840367440018,167.1840367440018,167.1840367440018,167.1840367440018,167.1840367440018,167.1840367440018,167.1840367440018,167.1840367440018,167.1840367440018,167.1840367440018,a,1.0157034829899203,1,242,0,168.2182758319832,169.72004478698364,,,,,,,,,,,,,,,,,,,,,,,,,,,,,,,,,,,,,,,,,,,,,,,,,,,,,,,,,,,,,,,,,,,,,,12321,2022-11-10_14h08.33.697,vts_reward_expectancy_bt_OFFLINE,2022.2.4,59.9410599535448,
0,0,0,1,1,0,0,0,star,triangle,0,0,0,0,2,11,35,9,,,,,,,,,,,,,,,,,,,,,,,,,,,,,,,,,,,,,,,,170.2205755529867,170.2205755529867,170.2205755529867,170.2205755529867,170.2205755529867,170.2205755529867,170.2205755529867,170.2205755529867,170.2205755529867,170.2205755529867,a,0.6684295310114976,1,243,0,170.92126478499267,172.42297349398723,,,,,,,,,,,,,,,,,,,,,,,,,,,,,,,,,,,,,,,,,,,,,,,,,,,,,,,,,,,,,,,,,,,,,,12321,2022-11-10_14h08.33.697,vts_reward_expectancy_bt_OFFLINE,2022.2.4,59.9410599535448,
1,0,0,0,0,1,0,0,triangle,circle,0,0,0,0,3,0,36,0,,,,,,,,,,,,,,,,,,,,,,,,,,,,,,,,,,,,,,,,172.92341135500465,172.92341135500465,172.92341135500465,172.92341135500465,172.92341135500465,172.92341135500465,172.92341135500465,172.92341135500465,172.92341135500465,172.92341135500465,a,1.3058521850325633,1,244,0,174.25846848799847,175.7598993970023,,,,,,,,,,,,,,,,,,,,,,,,,,,,,,,,,,,,,,,,,,,,,,,,,,,,,,,,,,,,,,,,,,,,,,12321,2022-11-10_14h08.33.697,vts_reward_expectancy_bt_OFFLINE,2022.2.4,59.9410599535448,
0,1,0,0,0,0,1,0,circle,hexagon,0,0,0,0,3,1,37,4,,,,,,,,,,,,,,,,,,,,,,,,,,,,,,,,,,,,,,,,176.2606049790047,176.2606049790047,176.2606049790047,176.2606049790047,176.2606049790047,176.2606049790047,176.2606049790047,176.2606049790047,176.2606049790047,176.2606049790047,l,0.7478766580170486,1,245,0,177.02805582797737,178.5296506669838,,,,,,,,,,,,,,,,,,,,,,,,,,,,,,,,,,,,,,,,,,,,,,,,,,,,,,,,,,,,,,,,,,,,,,12321,2022-11-10_14h08.33.697,vts_reward_expectancy_bt_OFFLINE,2022.2.4,59.9410599535448,
0,0,0,1,0,1,0,0,star ,circle,0,0,0,0,3,2,38,10,,,,,,,,,,,,,,,,,,,,,,,,,,,,,,,,,,,,,,,,179.03016566098086,179.03016566098086,179.03016566098086,179.03016566098086,179.03016566098086,179.03016566098086,179.03016566098086,179.03016566098086,179.03016566098086,179.03016566098086,a,1.2407202120230068,1,246,0,180.29821351898136,181.8000474619912,,,,,,,,,,,,,,,,,,,,,,,,,,,,,,,,,,,,,,,,,,,,,,,,,,,,,,,,,,,,,,,,,,,,,,12321,2022-11-10_14h08.33.697,vts_reward_expectancy_bt_OFFLINE,2022.2.4,59.9410599535448,
1,0,0,0,0,0,0,1,triangle,star,0,0,0,0,3,3,39,2,,,,,,,,,,,,,,,,,,,,,,,,,,,,,,,,,,,,,,,,182.30052943399642,182.30052943399642,182.30052943399642,182.30052943399642,182.30052943399642,182.30052943399642,182.30052943399642,182.30052943399642,182.30052943399642,182.30052943399642,a,0.7824681640195195,10,256,0,183.1016398939828,184.6030245120055,184.6030245120055,,,,,,,,,,,,,,,,,,,,,,,,,,,,,,,,,,,,,,,,,,,,,,,,,,,,,,,,,,,,,,,,,,,,,12321,2022-11-10_14h08.33.697,vts_reward_expectancy_bt_OFFLINE,2022.2.4,59.9410599535448,
0,1,0,0,0,0,0,1,circle,star,0,0,0,0,3,4,40,5,,,,,,,,,,,,,,,,,,,,,,,,,,,,,,,,,,,,,,,,185.10353642699192,185.10353642699192,185.10353642699192,185.10353642699192,185.10353642699192,185.10353642699192,185.10353642699192,185.10353642699192,185.10353642699192,185.10353642699192,l,1.6245033479935955,1,257,0,186.7555313819903,188.25719109197962,,,,,,,,,,,,,,,,,,,,,,,,,,,,,,,,,,,,,,,,,,,,,,,,,,,,,,,,,,,,,,,,,,,,,,12321,2022-11-10_14h08.33.697,vts_reward_expectancy_bt_OFFLINE,2022.2.4,59.9410599535448,
0,1,0,0,1,0,0,0,circle,triangle,0,0,0,0,3,5,41,3,,,,,,,,,,,,,,,,,,,,,,,,,,,,,,,,,,,,,,,,188.75770532598835,188.75770532598835,188.75770532598835,188.75770532598835,188.75770532598835,188.75770532598835,188.75770532598835,188.75770532598835,188.75770532598835,188.75770532598835,l,0.7267042800085619,1,258,0,189.5085295479803,191.00916464600596,,,,,,,,,,,,,,,,,,,,,,,,,,,,,,,,,,,,,,,,,,,,,,,,,,,,,,,,,,,,,,,,,,,,,,12321,2022-11-10_14h08.33.697,vts_reward_expectancy_bt_OFFLINE,2022.2.4,59.9410599535448,
0,0,0,1,0,0,1,0,star,hexagon,0,0,0,0,3,6,42,11,,,,,,,,,,,,,,,,,,,,,,,,,,,,,,,,,,,,,,,,191.51082806198974,191.51082806198974,191.51082806198974,191.51082806198974,191.51082806198974,191.51082806198974,191.51082806198974,191.51082806198974,191.51082806198974,191.51082806198974,l,1.0782401970063802,1,259,0,192.61189441700117,194.11351679099607,,,,,,,,,,,,,,,,,,,,,,,,,,,,,,,,,,,,,,,,,,,,,,,,,,,,,,,,,,,,,,,,,,,,,,12321,2022-11-10_14h08.33.697,vts_reward_expectancy_bt_OFFLINE,2022.2.4,59.9410599535448,
0,0,1,0,0,0,0,1,hexagon,star,0,0,0,0,3,7,43,8,,,,,,,,,,,,,,,,,,,,,,,,,,,,,,,,,,,,,,,,194.61436743100057,194.61436743100057,194.61436743100057,194.61436743100057,194.61436743100057,194.61436743100057,194.61436743100057,194.61436743100057,194.61436743100057,194.61436743100057,a,0.9104745440126862,10,269,0,195.54837204198702,197.05000329198083,,,,,,,,,,,,,,,,,,,,,,,,,,,,,,,,,,,,,,,,,,,,,,,,,,,,,,,,,,,,,,,,,,,,,,12321,2022-11-10_14h08.33.697,vts_reward_expectancy_bt_OFFLINE,2022.2.4,59.9410599535448,
0,0,1,0,1,0,0,0,hexagon,triangle,0,0,0,0,3,8,44,6,,,,,,,,,,,,,,,,,,,,,,,,,,,,,,,,,,,,,,,,197.55045951498323,197.55045951498323,197.55045951498323,197.55045951498323,197.55045951498323,197.55045951498323,197.55045951498323,197.55045951498323,197.55045951498323,197.55045951498323,l,1.8024149110133294,1,270,0,199.36924947300577,200.8708994059998,,,,,,,,,,,,,,,,,,,,,,,,,,,,,,,,,,,,,,,,,,,,,,,,,,,,,,,,,,,,,,,,,,,,,,12321,2022-11-10_14h08.33.697,vts_reward_expectancy_bt_OFFLINE,2022.2.4,59.9410599535448,
1,0,0,0,0,0,1,0,triangle,hexagon,0,0,0,0,3,9,45,1,,,,,,,,,,,,,,,,,,,,,,,,,,,,,,,,,,,,,,,,201.37149775598664,201.37149775598664,201.37149775598664,201.37149775598664,201.37149775598664,201.37149775598664,201.37149775598664,201.37149775598664,201.37149775598664,201.37149775598664,l,1.3873857900034636,1,271,0,202.78977306600427,204.29146110799047,,,,,,,,,,,,,,,,,,,,,,,,,,,,,,,,,,,,,,,,,,,,,,,,,,,,,,,,,,,,,,,,,,,,,,12321,2022-11-10_14h08.33.697,vts_reward_expectancy_bt_OFFLINE,2022.2.4,59.9410599535448,
0,0,1,0,0,1,0,0,hexagon,circle,0,0,0,0,3,10,46,7,,,,,,,,,,,,,,,,,,,,,,,,,,,,,,,,,,,,,,,,204.79203809300088,204.79203809300088,204.79203809300088,204.79203809300088,204.79203809300088,204.79203809300088,204.79203809300088,204.79203809300088,204.79203809300088,204.79203809300088,a,1.0400369060225785,10,281,0,205.8599152789975,207.36150296599953,,,,,,,,,,,,,,,,,,,,,,,,,,,,,,,,,,,,,,,,,,,,,,,,,,,,,,,,,,,,,,,,,,,,,,12321,2022-11-10_14h08.33.697,vts_reward_expectancy_bt_OFFLINE,2022.2.4,59.9410599535448,
0,0,0,1,1,0,0,0,star,triangle,0,0,0,0,3,11,47,9,,,,,,,,,,,,,,,,,,,,,,,,,,,,,,,,,,,,,,,,207.86220303399023,207.86220303399023,207.86220303399023,207.86220303399023,207.86220303399023,207.86220303399023,207.86220303399023,207.86220303399023,207.86220303399023,207.86220303399023,l,1.4106113330053631,1,282,0,209.29699550298392,210.79866767599015,,,,,,,,,,,,,,,,,,,,,,,,,,,,,,,,,,,,,,,,,,,,,,,,,,,,,,,,,,,,,,,,,,,,,,12321,2022-11-10_14h08.33.697,vts_reward_expectancy_bt_OFFLINE,2022.2.4,59.9410599535448,
1,0,0,0,0,1,0,0,triangle,circle,1,0,1,0,0,0,0,0,,,,,,,,,,,,,,,,,,,,,,,,,,,,,,,,,,,,,,,,217.59408973000245,217.59408973000245,217.59408973000245,217.59408973000245,217.59408973000245,217.59408973000245,217.59408973000245,217.59408973000245,217.59408973000245,217.59408973000245,a,0.8253369450103492,1,283,1,218.4405075130053,219.9422205919982,,,,,,,,,,,,,,,,,,,,,,,,,,,,,,,,,,,,,,,,,,,,,,,,,,,,,,,,,,,,,,,,,,,,,,12321,2022-11-10_14h08.33.697,vts_reward_expectancy_bt_OFFLINE,2022.2.4,59.9410599535448,
0,0,0,1,0,1,0,0,star ,circle,1,0,1,0,0,1,1,10,,,,,,,,,,,,,,,,,,,,,,,,,,,,,,,,,,,,,,,,220.44268809698406,220.44268809698406,220.44268809698406,220.44268809698406,220.44268809698406,220.44268809698406,220.44268809698406,220.44268809698406,220.44268809698406,220.44268809698406,l,0.5091467400197871,1,284,1,220.97647630199208,222.4779965619964,,,,,,,,,,,,,,,,,,,,,,,,,,,,,,,,,,,,,,,,,,,,,,,,,,,,,,,,,,,,,,,,,,,,,,12321,2022-11-10_14h08.33.697,vts_reward_expectancy_bt_OFFLINE,2022.2.4,59.9410599535448,
0,0,0,1,1,0,0,0,star,triangle,1,0,1,0,0,2,2,9,,,,,,,,,,,,,,,,,,,,,,,,,,,,,,,,,,,,,,,,222.97874812898226,222.97874812898226,222.97874812898226,222.97874812898226,222.97874812898226,222.97874812898226,222.97874812898226,222.97874812898226,222.97874812898226,222.97874812898226,l,0.773426355997799,10,294,1,223.77962488497724,225.28134190198034,,,,,,,,,,,,,,,,,,,,,,,,,,,,,,,,,,,,,,,,,,,,,,,,,,,,,,,,,,,,,,,,,,,,,,12321,2022-11-10_14h08.33.697,vts_reward_expectancy_bt_OFFLINE,2022.2.4,59.9410599535448,
0,0,0,1,0,0,1,0,star,hexagon,1,0,1,0,0,3,3,11,,,,,,,,,,,,,,,,,,,,,,,,,,,,,,,,,,,,,,,,225.78185382299125,225.78185382299125,225.78185382299125,225.78185382299125,225.78185382299125,225.78185382299125,225.78185382299125,225.78185382299125,225.78185382299125,225.78185382299125,l,0.8399117420194671,10,304,1,226.64939022497856,228.1510421379935,,,,,,,,,,,,,,,,,,,,,,,,,,,,,,,,,,,,,,,,,,,,,,,,,,,,,,,,,,,,,,,,,,,,,,12321,2022-11-10_14h08.33.697,vts_reward_expectancy_bt_OFFLINE,2022.2.4,59.9410599535448,
0,1,0,0,1,0,0,0,circle,triangle,1,0,1,0,0,4,4,3,,,,,,,,,,,,,,,,,,,,,,,,,,,,,,,,,,,,,,,,228.65169940900523,228.65169940900523,228.65169940900523,228.65169940900523,228.65169940900523,228.65169940900523,228.65169940900523,228.65169940900523,228.65169940900523,228.65169940900523,l,1.0977672949957196,1,305,1,229.76934734298266,231.2711208089895,,,,,,,,,,,,,,,,,,,,,,,,,,,,,,,,,,,,,,,,,,,,,,,,,,,,,,,,,,,,,,,,,,,,,,12321,2022-11-10_14h08.33.697,vts_reward_expectancy_bt_OFFLINE,2022.2.4,59.9410599535448,
0,1,0,0,0,0,1,0,circle,hexagon,1,0,1,0,0,5,5,4,,,,,,,,,,,,,,,,,,,,,,,,,,,,,,,,,,,,,,,,231.7716010849981,231.7716010849981,231.7716010849981,231.7716010849981,231.7716010849981,231.7716010849981,231.7716010849981,231.7716010849981,231.7716010849981,231.7716010849981,l,1.0037230000307318,10,315,1,232.80618518099072,234.30783866299316,,,,,,,,,,,,,,,,,,,,,,,,,,,,,,,,,,,,,,,,,,,,,,,,,,,,,,,,,,,,,,,,,,,,,,12321,2022-11-10_14h08.33.697,vts_reward_expectancy_bt_OFFLINE,2022.2.4,59.9410599535448,
0,1,0,0,0,0,0,1,circle,star,1,0,1,0,0,6,6,5,,,,,,,,,,,,,,,,,,,,,,,,,,,,,,,,,,,,,,,,234.80824531198596,234.80824531198596,234.80824531198596,234.80824531198596,234.80824531198596,234.80824531198596,234.80824531198596,234.80824531198596,234.80824531198596,234.80824531198596,l,1.9953270810365211,1,316,1,236.8273173159978,238.32899144798284,,,,,,,,,,,,,,,,,,,,,,,,,,,,,,,,,,,,,,,,,,,,,,,,,,,,,,,,,,,,,,,,,,,,,,12321,2022-11-10_14h08.33.697,vts_reward_expectancy_bt_OFFLINE,2022.2.4,59.9410599535448,
0,0,1,0,0,1,0,0,hexagon,circle,1,0,1,0,0,7,7,7,,,,,,,,,,,,,,,,,,,,,,,,,,,,,,,,,,,,,,,,238.8297392060049,238.8297392060049,238.8297392060049,238.8297392060049,238.8297392060049,238.8297392060049,238.8297392060049,238.8297392060049,238.8297392060049,238.8297392060049,a,0.7976957500213757,1,317,1,239.64729645298212,241.14871134600253,,,,,,,,,,,,,,,,,,,,,,,,,,,,,,,,,,,,,,,,,,,,,,,,,,,,,,,,,,,,,,,,,,,,,,12321,2022-11-10_14h08.33.697,vts_reward_expectancy_bt_OFFLINE,2022.2.4,59.9410599535448,
0,0,1,0,1,0,0,0,hexagon,triangle,1,0,1,0,0,8,8,6,,,,,,,,,,,,,,,,,,,,,,,,,,,,,,,,,,,,,,,,241.64932489398052,241.64932489398052,241.64932489398052,241.64932489398052,241.64932489398052,241.64932489398052,241.64932489398052,241.64932489398052,241.64932489398052,241.64932489398052,l,1.5097598170104902,10,327,1,243.1843053959892,244.68603613498271,,,,,,,,,,,,,,,,,,,,,,,,,,,,,,,,,,,,,,,,,,,,,,,,,,,,,,,,,,,,,,,,,,,,,,12321,2022-11-10_14h08.33.697,vts_reward_expectancy_bt_OFFLINE,2022.2.4,59.9410599535448,
1,0,0,0,0,0,0,1,triangle,star,1,0,1,0,0,9,9,2,,,,,,,,,,,,,,,,,,,,,,,,,,,,,,,,,,,,,,,,245.18658958899323,245.18658958899323,245.18658958899323,245.18658958899323,245.18658958899323,245.18658958899323,245.18658958899323,245.18658958899323,245.18658958899323,245.18658958899323,a,1.7206495780264959,10,337,1,246.9384962199838,248.44003549899207,,,,,,,,,,,,,,,,,,,,,,,,,,,,,,,,,,,,,,,,,,,,,,,,,,,,,,,,,,,,,,,,,,,,,,12321,2022-11-10_14h08.33.697,vts_reward_expectancy_bt_OFFLINE,2022.2.4,59.9410599535448,
0,0,1,0,0,0,0,1,hexagon,star,1,0,1,0,0,10,10,8,,,,,,,,,,,,,,,,,,,,,,,,,,,,,,,,,,,,,,,,248.94093568899552,248.94093568899552,248.94093568899552,248.94093568899552,248.94093568899552,248.94093568899552,248.94093568899552,248.94093568899552,248.94093568899552,248.94093568899552,a,0.9353152490220964,10,347,1,249.90848173198174,251.41001358997892,,,,,,,,,,,,,,,,,,,,,,,,,,,,,,,,,,,,,,,,,,,,,,,,,,,,,,,,,,,,,,,,,,,,,,12321,2022-11-10_14h08.33.697,vts_reward_expectancy_bt_OFFLINE,2022.2.4,59.9410599535448,
1,0,0,0,0,0,1,0,triangle,hexagon,1,0,1,0,0,11,11,1,,,,,,,,,,,,,,,,,,,,,,,,,,,,,,,,,,,,,,,,251.9106609709852,251.9106609709852,251.9106609709852,251.9106609709852,251.9106609709852,251.9106609709852,251.9106609709852,251.9106609709852,251.9106609709852,251.9106609709852,l,1.3742170440091286,10,357,1,253.3121834739868,254.81390848799492,,,,,,,,,,,,,,,,,,,,,,,,,,,,,,,,,,,,,,,,,,,,,,,,,,,,,,,,,,,,,,,,,,,,,,12321,2022-11-10_14h08.33.697,vts_reward_expectancy_bt_OFFLINE,2022.2.4,59.9410599535448,
1,0,0,0,0,1,0,0,triangle,circle,1,0,1,0,1,0,12,0,,,,,,,,,,,,,,,,,,,,,,,,,,,,,,,,,,,,,,,,255.3145096139924,255.3145096139924,255.3145096139924,255.3145096139924,255.3145096139924,255.3145096139924,255.3145096139924,255.3145096139924,255.3145096139924,255.3145096139924,a,1.6824693630333059,10,367,1,257.01651153399143,258.5179657349945,,,,,,,,,,,,,,,,,,,,,,,,,,,,,,,,,,,,,,,,,,,,,,,,,,,,,,,,,,,,,,,,,,,,,,12321,2022-11-10_14h08.33.697,vts_reward_expectancy_bt_OFFLINE,2022.2.4,59.9410599535448,
1,0,0,0,0,0,1,0,triangle,hexagon,1,0,1,0,1,1,13,1,,,,,,,,,,,,,,,,,,,,,,,,,,,,,,,,,,,,,,,,259.018482836982,259.018482836982,259.018482836982,259.018482836982,259.018482836982,259.018482836982,259.018482836982,259.018482836982,259.018482836982,259.018482836982,l,0.9945735440123826,10,377,1,260.0364876209933,261.5379866969888,,,,,,,,,,,,,,,,,,,,,,,,,,,,,,,,,,,,,,,,,,,,,,,,,,,,,,,,,,,,,,,,,,,,,,12321,2022-11-10_14h08.33.697,vts_reward_expectancy_bt_OFFLINE,2022.2.4,59.9410599535448,
0,0,1,0,0,1,0,0,hexagon,circle,1,0,1,0,1,2,14,7,,,,,,,,,,,,,,,,,,,,,,,,,,,,,,,,,,,,,,,,262.0386288150039,262.0386288150039,262.0386288150039,262.0386288150039,262.0386288150039,262.0386288150039,262.0386288150039,262.0386288150039,262.0386288150039,262.0386288150039,a,0.8763295270327944,10,387,1,262.9394382099854,264.4409815709805,,,,,,,,,,,,,,,,,,,,,,,,,,,,,,,,,,,,,,,,,,,,,,,,,,,,,,,,,,,,,,,,,,,,,,12321,2022-11-10_14h08.33.697,vts_reward_expectancy_bt_OFFLINE,2022.2.4,59.9410599535448,
0,0,0,1,0,0,1,0,star,hexagon,1,0,1,0,1,3,15,11,,,,,,,,,,,,,,,,,,,,,,,,,,,,,,,,,,,,,,,,264.9415800139832,264.9415800139832,264.9415800139832,264.9415800139832,264.9415800139832,264.9415800139832,264.9415800139832,264.9415800139832,264.9415800139832,264.9415800139832,a,1.258371239004191,1,388,1,266.22644946799846,267.72842732898425,,,,,,,,,,,,,,,,,,,,,,,,,,,,,,,,,,,,,,,,,,,,,,,,,,,,,,,,,,,,,,,,,,,,,,12321,2022-11-10_14h08.33.697,vts_reward_expectancy_bt_OFFLINE,2022.2.4,59.9410599535448,
0,1,0,0,1,0,0,0,circle,triangle,1,0,1,0,1,4,16,3,,,,,,,,,,,,,,,,,,,,,,,,,,,,,,,,,,,,,,,,268.2285598869785,268.2285598869785,268.2285598869785,268.2285598869785,268.2285598869785,268.2285598869785,268.2285598869785,268.2285598869785,268.2285598869785,268.2285598869785,l,0.9523656020173803,10,398,1,269.2130631589971,270.7148996279866,,,,,,,,,,,,,,,,,,,,,,,,,,,,,,,,,,,,,,,,,,,,,,,,,,,,,,,,,,,,,,,,,,,,,,12321,2022-11-10_14h08.33.697,vts_reward_expectancy_bt_OFFLINE,2022.2.4,59.9410599535448,
0,0,0,1,0,1,0,0,star ,circle,1,0,1,0,1,5,17,10,,,,,,,,,,,,,,,,,,,,,,,,,,,,,,,,,,,,,,,,271.2153594660049,271.2153594660049,271.2153594660049,271.2153594660049,271.2153594660049,271.2153594660049,271.2153594660049,271.2153594660049,271.2153594660049,271.2153594660049,l,1.0828058760089334,1,399,1,272.3158128889918,273.81839693398797,,,,,,,,,,,,,,,,,,,,,,,,,,,,,,,,,,,,,,,,,,,,,,,,,,,,,,,,,,,,,,,,,,,,,,12321,2022-11-10_14h08.33.697,vts_reward_expectancy_bt_OFFLINE,2022.2.4,59.9410599535448,
0,0,1,0,0,0,0,1,hexagon,star,1,0,1,0,1,6,18,8,,,,,,,,,,,,,,,,,,,,,,,,,,,,,,,,,,,,,,,,274.31904403999215,274.31904403999215,274.31904403999215,274.31904403999215,274.31904403999215,274.31904403999215,274.31904403999215,274.31904403999215,274.31904403999215,274.31904403999215,a,0.8583283699990716,10,409,1,275.2029905569798,276.70462197298184,,,,,,,,,,,,,,,,,,,,,,,,,,,,,,,,,,,,,,,,,,,,,,,,,,,,,,,,,,,,,,,,,,,,,,12321,2022-11-10_14h08.33.697,vts_reward_expectancy_bt_OFFLINE,2022.2.4,59.9410599535448,
0,0,1,0,1,0,0,0,hexagon,triangle,1,0,1,0,1,7,19,6,,,,,,,,,,,,,,,,,,,,,,,,,,,,,,,,,,,,,,,,277.20526287300163,277.20526287300163,277.20526287300163,277.20526287300163,277.20526287300163,277.20526287300163,277.20526287300163,277.20526287300163,277.20526287300163,277.20526287300163,a,0.9651488090166822,10,419,1,278.1898406999826,279.6912675179774,,,,,,,,,,,,,,,,,,,,,,,,,,,,,,,,,,,,,,,,,,,,,,,,,,,,,,,,,,,,,,,,,,,,,,12321,2022-11-10_14h08.33.697,vts_reward_expectancy_bt_OFFLINE,2022.2.4,59.9410599535448,
1,0,0,0,0,0,0,1,triangle,star,1,0,1,0,1,8,20,2,,,,,,,,,,,,,,,,,,,,,,,,,,,,,,,,,,,,,,,,280.1920154739928,280.1920154739928,280.1920154739928,280.1920154739928,280.1920154739928,280.1920154739928,280.1920154739928,280.1920154739928,280.1920154739928,280.1920154739928,l,1.173629869997967,1,420,1,281.3932658249978,282.8948066679877,,,,,,,,,,,,,,,,,,,,,,,,,,,,,,,,,,,,,,,,,,,,,,,,,,,,,,,,,,,,,,,,,,,,,,12321,2022-11-10_14h08.33.697,vts_reward_expectancy_bt_OFFLINE,2022.2.4,59.9410599535448,
0,1,0,0,0,0,0,1,circle,star,1,0,1,0,1,9,21,5,,,,,,,,,,,,,,,,,,,,,,,,,,,,,,,,,,,,,,,,283.39527852999163,283.39527852999163,283.39527852999163,283.39527852999163,283.39527852999163,283.39527852999163,283.39527852999163,283.39527852999163,283.39527852999163,283.39527852999163,a,1.6379182660020888,1,421,1,285.06401434898726,286.56556223597727,,,,,,,,,,,,,,,,,,,,,,,,,,,,,,,,,,,,,,,,,,,,,,,,,,,,,,,,,,,,,,,,,,,,,,12321,2022-11-10_14h08.33.697,vts_reward_expectancy_bt_OFFLINE,2022.2.4,59.9410599535448,
0,0,0,1,1,0,0,0,star,triangle,1,0,1,0,1,10,22,9,,,,,,,,,,,,,,,,,,,,,,,,,,,,,,,,,,,,,,,,287.06639798000106,287.06639798000106,287.06639798000106,287.06639798000106,287.06639798000106,287.06639798000106,287.06639798000106,287.06639798000106,287.06639798000106,287.06639798000106,l,1.0373761020309757,10,431,1,288.13393581699347,289.6356942759885,,,,,,,,,,,,,,,,,,,,,,,,,,,,,,,,,,,,,,,,,,,,,,,,,,,,,,,,,,,,,,,,,,,,,,12321,2022-11-10_14h08.33.697,vts_reward_expectancy_bt_OFFLINE,2022.2.4,59.9410599535448,
0,1,0,0,0,0,1,0,circle,hexagon,1,0,1,0,1,11,23,4,,,,,,,,,,,,,,,,,,,,,,,,,,,,,,,,,,,,,,,,290.13616593400366,290.13616593400366,290.13616593400366,290.13616593400366,290.13616593400366,290.13616593400366,290.13616593400366,290.13616593400366,290.13616593400366,290.13616593400366,l,1.0188532659958582,10,441,1,291.18733737498405,292.68887347198324,,,,,,,,,,,,,,,,,,,,,,,,,,,,,,,,,,,,,,,,,,,,,,,,,,,,,,,,,,,,,,,,,,,,,,12321,2022-11-10_14h08.33.697,vts_reward_expectancy_bt_OFFLINE,2022.2.4,59.9410599535448,
0,1,0,0,0,0,0,1,circle,star,1,0,1,0,2,0,24,5,,,,,,,,,,,,,,,,,,,,,,,,,,,,,,,,,,,,,,,,293.18967717597843,293.18967717597843,293.18967717597843,293.18967717597843,293.18967717597843,293.18967717597843,293.18967717597843,293.18967717597843,293.18967717597843,293.18967717597843,a,1.5410889990162104,1,442,1,294.75789700000314,296.25961898698006,,,,,,,,,,,,,,,,,,,,,,,,,,,,,,,,,,,,,,,,,,,,,,,,,,,,,,,,,,,,,,,,,,,,,,12321,2022-11-10_14h08.33.697,vts_reward_expectancy_bt_OFFLINE,2022.2.4,59.9410599535448,
0,0,0,1,0,1,0,0,star ,circle,1,0,1,0,2,1,25,10,,,,,,,,,,,,,,,,,,,,,,,,,,,,,,,,,,,,,,,,296.76008937499137,296.76008937499137,296.76008937499137,296.76008937499137,296.76008937499137,296.76008937499137,296.76008937499137,296.76008937499137,296.76008937499137,296.76008937499137,a,1.7627932360046543,1,443,1,298.54525450398796,300.04703863398754,,,,,,,,,,,,,,,,,,,,,,,,,,,,,,,,,,,,,,,,,,,,,,,,,,,,,,,,,,,,,,,,,,,,,,12321,2022-11-10_14h08.33.697,vts_reward_expectancy_bt_OFFLINE,2022.2.4,59.9410599535448,
0,1,0,0,0,0,1,0,circle,hexagon,1,0,1,0,2,2,26,4,,,,,,,,,,,,,,,,,,,,,,,,,,,,,,,,,,,,,,,,300.5475718789967,300.5475718789967,300.5475718789967,300.5475718789967,300.5475718789967,300.5475718789967,300.5475718789967,300.5475718789967,300.5475718789967,300.5475718789967,l,0.8215857330069412,10,453,1,301.39850301199476,302.900080108986,,,,,,,,,,,,,,,,,,,,,,,,,,,,,,,,,,,,,,,,,,,,,,,,,,,,,,,,,,,,,,,,,,,,,,12321,2022-11-10_14h08.33.697,vts_reward_expectancy_bt_OFFLINE,2022.2.4,59.9410599535448,
0,1,0,0,1,0,0,0,circle,triangle,1,0,1,0,2,3,27,3,,,,,,,,,,,,,,,,,,,,,,,,,,,,,,,,,,,,,,,,303.4006535859953,303.4006535859953,303.4006535859953,303.4006535859953,303.4006535859953,303.4006535859953,303.4006535859953,303.4006535859953,303.4006535859953,303.4006535859953,l,1.376732022035867,10,463,1,304.802268067986,306.3039039669966,,,,,,,,,,,,,,,,,,,,,,,,,,,,,,,,,,,,,,,,,,,,,,,,,,,,,,,,,,,,,,,,,,,,,,12321,2022-11-10_14h08.33.697,vts_reward_expectancy_bt_OFFLINE,2022.2.4,59.9410599535448,
1,0,0,0,0,0,1,0,triangle,hexagon,1,0,1,0,2,4,28,1,,,,,,,,,,,,,,,,,,,,,,,,,,,,,,,,,,,,,,,,306.80455731297843,306.80455731297843,306.80455731297843,306.80455731297843,306.80455731297843,306.80455731297843,306.80455731297843,306.80455731297843,306.80455731297843,306.80455731297843,a,1.4267738700145856,10,473,1,308.25611214499804,309.75783700100146,,,,,,,,,,,,,,,,,,,,,,,,,,,,,,,,,,,,,,,,,,,,,,,,,,,,,,,,,,,,,,,,,,,,,,12321,2022-11-10_14h08.33.697,vts_reward_expectancy_bt_OFFLINE,2022.2.4,59.9410599535448,
0,0,0,1,0,0,1,0,star,hexagon,1,0,1,0,2,5,29,11,,,,,,,,,,,,,,,,,,,,,,,,,,,,,,,,,,,,,,,,310.25866715199663,310.25866715199663,310.25866715199663,310.25866715199663,310.25866715199663,310.25866715199663,310.25866715199663,310.25866715199663,310.25866715199663,310.25866715199663,l,1.8088463440071791,10,483,1,312.09376476798207,313.59526749298675,,,,,,,,,,,,,,,,,,,,,,,,,,,,,,,,,,,,,,,,,,,,,,,,,,,,,,,,,,,,,,,,,,,,,,12321,2022-11-10_14h08.33.697,vts_reward_expectancy_bt_OFFLINE,2022.2.4,59.9410599535448,
1,0,0,0,0,0,0,1,triangle,star,1,0,1,0,2,6,30,2,,,,,,,,,,,,,,,,,,,,,,,,,,,,,,,,,,,,,,,,314.0959192219889,314.0959192219889,314.0959192219889,314.0959192219889,314.0959192219889,314.0959192219889,314.0959192219889,314.0959192219889,314.0959192219889,314.0959192219889,a,1.4261963529861532,10,493,1,315.5474877450033,317.0492287509842,,,,,,,,,,,,,,,,,,,,,,,,,,,,,,,,,,,,,,,,,,,,,,,,,,,,,,,,,,,,,,,,,,,,,,12321,2022-11-10_14h08.33.697,vts_reward_expectancy_bt_OFFLINE,2022.2.4,59.9410599535448,
0,0,1,0,0,1,0,0,hexagon,circle,1,0,1,0,2,7,31,7,,,,,,,,,,,,,,,,,,,,,,,,,,,,,,,,,,,,,,,,317.5496907309862,317.5496907309862,317.5496907309862,317.5496907309862,317.5496907309862,317.5496907309862,317.5496907309862,317.5496907309862,317.5496907309862,317.5496907309862,a,0.9985916849982459,10,503,1,318.5676023029955,320.06918245900306,,,,,,,,,,,,,,,,,,,,,,,,,,,,,,,,,,,,,,,,,,,,,,,,,,,,,,,,,,,,,,,,,,,,,,12321,2022-11-10_14h08.33.697,vts_reward_expectancy_bt_OFFLINE,2022.2.4,59.9410599535448,
0,0,1,0,0,0,0,1,hexagon,star,1,0,1,0,2,8,32,8,,,,,,,,,,,,,,,,,,,,,,,,,,,,,,,,,,,,,,,,320.56976375199156,320.56976375199156,320.56976375199156,320.56976375199156,320.56976375199156,320.56976375199156,320.56976375199156,320.56976375199156,320.56976375199156,320.56976375199156,l,1.7362962389888708,1,504,1,322.3382491529919,323.8400262419891,,,,,,,,,,,,,,,,,,,,,,,,,,,,,,,,,,,,,,,,,,,,,,,,,,,,,,,,,,,,,,,,,,,,,,12321,2022-11-10_14h08.33.697,vts_reward_expectancy_bt_OFFLINE,2022.2.4,59.9410599535448,
1,0,0,0,0,1,0,0,triangle,circle,1,0,1,0,2,9,33,0,,,,,,,,,,,,,,,,,,,,,,,,,,,,,,,,,,,,,,,,324.34076928399736,324.34076928399736,324.34076928399736,324.34076928399736,324.34076928399736,324.34076928399736,324.34076928399736,324.34076928399736,324.34076928399736,324.34076928399736,a,1.0581398710201029,10,514,1,325.42517747200327,326.92668635200243,,,,,,,,,,,,,,,,,,,,,,,,,,,,,,,,,,,,,,,,,,,,,,,,,,,,,,,,,,,,,,,,,,,,,,12321,2022-11-10_14h08.33.697,vts_reward_expectancy_bt_OFFLINE,2022.2.4,59.9410599535448,
0,0,1,0,1,0,0,0,hexagon,triangle,1,0,1,0,2,10,34,6,,,,,,,,,,,,,,,,,,,,,,,,,,,,,,,,,,,,,,,,327.42767794500105,327.42767794500105,327.42767794500105,327.42767794500105,327.42767794500105,327.42767794500105,327.42767794500105,327.42767794500105,327.42767794500105,327.42767794500105,l,1.2243018530134577,10,524,1,328.6786811380007,330.1803699879965,,,,,,,,,,,,,,,,,,,,,,,,,,,,,,,,,,,,,,,,,,,,,,,,,,,,,,,,,,,,,,,,,,,,,,12321,2022-11-10_14h08.33.697,vts_reward_expectancy_bt_OFFLINE,2022.2.4,59.9410599535448,
0,0,0,1,1,0,0,0,star,triangle,1,0,1,0,2,11,35,9,,,,,,,,,,,,,,,,,,,,,,,,,,,,,,,,,,,,,,,,330.68092463799985,330.68092463799985,330.68092463799985,330.68092463799985,330.68092463799985,330.68092463799985,330.68092463799985,330.68092463799985,330.68092463799985,330.68092463799985,l,2.740257470024517,10,534,1,333.45056791597744,334.9524014859926,,335.45160376199055,,,,,,,,,,,,,,,,,,,,,,,,,,,,,,,,,,,,,,,,,,,,,,,,,,,,,,,,,,,,,,,,,,,,12321,2022-11-10_14h08.33.697,vts_reward_expectancy_bt_OFFLINE,2022.2.4,59.9410599535448,
0,1,0,0,0,0,1,0,circle,hexagon,1,0,1,0,3,0,36,4,,,,,,,,,,,,,,,,,,,,,,,,,,,,,,,,,,,,,,,,335.45160376199055,335.45160376199055,335.45160376199055,335.45160376199055,335.45160376199055,335.45160376199055,335.45160376199055,335.45160376199055,335.45160376199055,335.45160376199055,l,0.9387262840173207,10,544,1,336.4205534189823,337.92211214400595,,,,,,,,,,,,,,,,,,,,,,,,,,,,,,,,,,,,,,,,,,,,,,,,,,,,,,,,,,,,,,,,,,,,,,12321,2022-11-10_14h08.33.697,vts_reward_expectancy_bt_OFFLINE,2022.2.4,59.9410599535448,
1,0,0,0,0,0,0,1,triangle,star,1,0,1,0,3,1,37,2,,,,,,,,,,,,,,,,,,,,,,,,,,,,,,,,,,,,,,,,338.42264249298023,338.42264249298023,338.42264249298023,338.42264249298023,338.42264249298023,338.42264249298023,338.42264249298023,338.42264249298023,338.42264249298023,338.42264249298023,a,1.275876189029077,10,554,1,339.72418606097926,341.2258080729807,,,,,,,,,,,,,,,,,,,,,,,,,,,,,,,,,,,,,,,,,,,,,,,,,,,,,,,,,,,,,,,,,,,,,,12321,2022-11-10_14h08.33.697,vts_reward_expectancy_bt_OFFLINE,2022.2.4,59.9410599535448,
0,0,1,0,1,0,0,0,hexagon,triangle,1,0,1,0,3,2,38,6,,,,,,,,,,,,,,,,,,,,,,,,,,,,,,,,,,,,,,,,341.7262810669781,341.7262810669781,341.7262810669781,341.7262810669781,341.7262810669781,341.7262810669781,341.7262810669781,341.7262810669781,341.7262810669781,341.7262810669781,l,1.51656629901845,10,564,1,343.2614692520001,344.7633420669881,,,,,,,,,,,,,,,,,,,,,,,,,,,,,,,,,,,,,,,,,,,,,,,,,,,,,,,,,,,,,,,,,,,,,,12321,2022-11-10_14h08.33.697,vts_reward_expectancy_bt_OFFLINE,2022.2.4,59.9410599535448,
0,1,0,0,0,0,0,1,circle,star,1,0,1,0,3,3,39,5,,,,,,,,,,,,,,,,,,,,,,,,,,,,,,,,,,,,,,,,345.2635633299942,345.2635633299942,345.2635633299942,345.2635633299942,345.2635633299942,345.2635633299942,345.2635633299942,345.2635633299942,345.2635633299942,345.2635633299942,l,1.3989645669935271,1,565,1,346.68193115497706,348.1835839219857,,,,,,,,,,,,,,,,,,,,,,,,,,,,,,,,,,,,,,,,,,,,,,,,,,,,,,,,,,,,,,,,,,,,,,12321,2022-11-10_14h08.33.697,vts_reward_expectancy_bt_OFFLINE,2022.2.4,59.9410599535448,
1,0,0,0,0,0,1,0,triangle,hexagon,1,0,1,0,3,4,40,1,,,,,,,,,,,,,,,,,,,,,,,,,,,,,,,,,,,,,,,,348.6841219769849,348.6841219769849,348.6841219769849,348.6841219769849,348.6841219769849,348.6841219769849,348.6841219769849,348.6841219769849,348.6841219769849,348.6841219769849,a,1.330565825017402,1,566,1,350.0353892199928,351.5371084159997,,,,,,,,,,,,,,,,,,,,,,,,,,,,,,,,,,,,,,,,,,,,,,,,,,,,,,,,,,,,,,,,,,,,,,12321,2022-11-10_14h08.33.697,vts_reward_expectancy_bt_OFFLINE,2022.2.4,59.9410599535448,
0,1,0,0,1,0,0,0,circle,triangle,1,0,1,0,3,5,41,3,,,,,,,,,,,,,,,,,,,,,,,,,,,,,,,,,,,,,,,,352.0378611049964,352.0378611049964,352.0378611049964,352.0378611049964,352.0378611049964,352.0378611049964,352.0378611049964,352.0378611049964,352.0378611049964,352.0378611049964,l,1.0933711340185255,10,576,1,353.1557493399887,354.6573417389882,,,,,,,,,,,,,,,,,,,,,,,,,,,,,,,,,,,,,,,,,,,,,,,,,,,,,,,,,,,,,,,,,,,,,,12321,2022-11-10_14h08.33.697,vts_reward_expectancy_bt_OFFLINE,2022.2.4,59.9410599535448,
0,0,1,0,0,0,0,1,hexagon,star,1,0,1,0,3,6,42,8,,,,,,,,,,,,,,,,,,,,,,,,,,,,,,,,,,,,,,,,355.158091647987,355.158091647987,355.158091647987,355.158091647987,355.158091647987,355.158091647987,355.158091647987,355.158091647987,355.158091647987,355.158091647987,a,1.1360764430137351,10,586,1,356.32585451198975,357.8274583379971,,,,,,,,,,,,,,,,,,,,,,,,,,,,,,,,,,,,,,,,,,,,,,,,,,,,,,,,,,,,,,,,,,,,,,12321,2022-11-10_14h08.33.697,vts_reward_expectancy_bt_OFFLINE,2022.2.4,59.9410599535448,
0,0,0,1,0,1,0,0,star ,circle,1,0,1,0,3,7,43,10,,,,,,,,,,,,,,,,,,,,,,,,,,,,,,,,,,,,,,,,358.32807150899316,358.32807150899316,358.32807150899316,358.32807150899316,358.32807150899316,358.32807150899316,358.32807150899316,358.32807150899316,358.32807150899316,358.32807150899316,a,1.6889448660076596,10,596,1,360.0465599609888,361.5482446909882,,,,,,,,,,,,,,,,,,,,,,,,,,,,,,,,,,,,,,,,,,,,,,,,,,,,,,,,,,,,,,,,,,,,,,12321,2022-11-10_14h08.33.697,vts_reward_expectancy_bt_OFFLINE,2022.2.4,59.9410599535448,
1,0,0,0,0,1,0,0,triangle,circle,1,0,1,0,3,8,44,0,,,,,,,,,,,,,,,,,,,,,,,,,,,,,,,,,,,,,,,,362.04867533699144,362.04867533699144,362.04867533699144,362.04867533699144,362.04867533699144,362.04867533699144,362.04867533699144,362.04867533699144,362.04867533699144,362.04867533699144,a,0.9371861180115957,10,606,1,363.016596240981,364.5182536460052,,,,,,,,,,,,,,,,,,,,,,,,,,,,,,,,,,,,,,,,,,,,,,,,,,,,,,,,,,,,,,,,,,,,,,12321,2022-11-10_14h08.33.697,vts_reward_expectancy_bt_OFFLINE,2022.2.4,59.9410599535448,
0,0,1,0,0,1,0,0,hexagon,circle,1,0,1,0,3,9,45,7,,,,,,,,,,,,,,,,,,,,,,,,,,,,,,,,,,,,,,,,365.01876061898656,365.01876061898656,365.01876061898656,365.01876061898656,365.01876061898656,365.01876061898656,365.01876061898656,365.01876061898656,365.01876061898656,365.01876061898656,a,0.8702952850144356,10,616,1,365.91969302200596,367.42138108299696,,,,,,,,,,,,,,,,,,,,,,,,,,,,,,,,,,,,,,,,,,,,,,,,,,,,,,,,,,,,,,,,,,,,,,12321,2022-11-10_14h08.33.697,vts_reward_expectancy_bt_OFFLINE,2022.2.4,59.9410599535448,
0,0,0,1,1,0,0,0,star,triangle,1,0,1,0,3,10,46,9,,,,,,,,,,,,,,,,,,,,,,,,,,,,,,,,,,,,,,,,367.92210687400075,367.92210687400075,367.92210687400075,367.92210687400075,367.92210687400075,367.92210687400075,367.92210687400075,367.92210687400075,367.92210687400075,367.92210687400075,a,2.758926421025535,1,617,1,370.70828928999254,372.20990959898336,,,,,,,,,,,,,,,,,,,,,,,,,,,,,,,,,,,,,,,,,,,,,,,,,,,,,,,,,,,,,,,,,,,,,,12321,2022-11-10_14h08.33.697,vts_reward_expectancy_bt_OFFLINE,2022.2.4,59.9410599535448,
0,0,0,1,0,0,1,0,star,hexagon,1,0,1,0,3,11,47,11,,,,,,,,,,,,,,,,,,,,,,,,,,,,,,,,,,,,,,,,372.7105896619905,372.7105896619905,372.7105896619905,372.7105896619905,372.7105896619905,372.7105896619905,372.7105896619905,372.7105896619905,372.7105896619905,372.7105896619905,l,1.9198762259911746,10,627,1,374.6626772900054,376.16476004198194,,,,,,,,,,,,,,,,,,,,,,,,,,,,,,,,,,,,,,,,,,,,,,,,,,,,,,,,,,,,,,,,,,,,,,12321,2022-11-10_14h08.33.697,vts_reward_expectancy_bt_OFFLINE,2022.2.4,59.9410599535448,
0,1,0,0,1,0,0,0,circle,triangle,2,0,2,0,0,0,0,3,,,,,,,,,,,,,,,,,,,,,,,,,,,,,,,,,,,,,,,,379.3067012949905,379.3067012949905,379.3067012949905,379.3067012949905,379.3067012949905,379.3067012949905,379.3067012949905,379.3067012949905,379.3067012949905,379.3067012949905,l,1.7924041580117773,10,637,2,381.119991827989,382.62134564999724,,,,,,,,,,,,,,,,,,,,,,,,,,,,,,,,,,,,,,,,,,,,,,,,,,,,,,,,,,,,,,,,,,,,,,12321,2022-11-10_14h08.33.697,vts_reward_expectancy_bt_OFFLINE,2022.2.4,59.9410599535448,
0,0,1,0,0,0,0,1,hexagon,star,2,0,2,0,0,1,1,8,,,,,,,,,,,,,,,,,,,,,,,,,,,,,,,,,,,,,,,,383.12203040299937,383.12203040299937,383.12203040299937,383.12203040299937,383.12203040299937,383.12203040299937,383.12203040299937,383.12203040299937,383.12203040299937,383.12203040299937,a,1.9494848100002855,10,647,2,385.0907195689797,386.5925685109978,,,,,,,,,,,,,,,,,,,,,,,,,,,,,,,,,,,,,,,,,,,,,,,,,,,,,,,,,,,,,,,,,,,,,,12321,2022-11-10_14h08.33.697,vts_reward_expectancy_bt_OFFLINE,2022.2.4,59.9410599535448,
0,0,0,1,1,0,0,0,star,triangle,2,0,2,0,0,2,2,9,,,,,,,,,,,,,,,,,,,,,,,,,,,,,,,,,,,,,,,,387.09312324700295,387.09312324700295,387.09312324700295,387.09312324700295,387.09312324700295,387.09312324700295,387.09312324700295,387.09312324700295,387.09312324700295,387.09312324700295,l,1.46598921000259,10,657,2,388.57804619998205,390.0796903249866,,,,,,,,,,,,,,,,,,,,,,,,,,,,,,,,,,,,,,,,,,,,,,,,,,,,,,,,,,,,,,,,,,,,,,12321,2022-11-10_14h08.33.697,vts_reward_expectancy_bt_OFFLINE,2022.2.4,59.9410599535448,
1,0,0,0,0,0,0,1,triangle,star,2,0,2,0,0,3,3,2,,,,,,,,,,,,,,,,,,,,,,,,,,,,,,,,,,,,,,,,390.5802771319868,390.5802771319868,390.5802771319868,390.5802771319868,390.5802771319868,390.5802771319868,390.5802771319868,390.5802771319868,390.5802771319868,390.5802771319868,a,1.2302550870226696,1,658,2,391.83156335700187,393.3332522230048,,,,,,,,,,,,,,,,,,,,,,,,,,,,,,,,,,,,,,,,,,,,,,,,,,,,,,,,,,,,,,,,,,,,,,12321,2022-11-10_14h08.33.697,vts_reward_expectancy_bt_OFFLINE,2022.2.4,59.9410599535448,
0,1,0,0,0,0,1,0,circle,hexagon,2,0,2,0,0,4,4,4,,,,,,,,,,,,,,,,,,,,,,,,,,,,,,,,,,,,,,,,393.83405006700195,393.83405006700195,393.83405006700195,393.83405006700195,393.83405006700195,393.83405006700195,393.83405006700195,393.83405006700195,393.83405006700195,393.83405006700195,l,0.8019412120047491,10,668,2,394.6681208910013,396.16988093199325,,,,,,,,,,,,,,,,,,,,,,,,,,,,,,,,,,,,,,,,,,,,,,,,,,,,,,,,,,,,,,,,,,,,,,12321,2022-11-10_14h08.33.697,vts_reward_expectancy_bt_OFFLINE,2022.2.4,59.9410599535448,
0,0,1,0,0,1,0,0,hexagon,circle,2,0,2,0,0,5,5,7,,,,,,,,,,,,,,,,,,,,,,,,,,,,,,,,,,,,,,,,396.6705398639897,396.6705398639897,396.6705398639897,396.6705398639897,396.6705398639897,396.6705398639897,396.6705398639897,396.6705398639897,396.6705398639897,396.6705398639897,a,0.7865394980181009,10,678,2,397.48790575098246,398.98946602799697,,,,,,,,,,,,,,,,,,,,,,,,,,,,,,,,,,,,,,,,,,,,,,,,,,,,,,,,,,,,,,,,,,,,,,12321,2022-11-10_14h08.33.697,vts_reward_expectancy_bt_OFFLINE,2022.2.4,59.9410599535448,
1,0,0,0,0,1,0,0,triangle,circle,2,0,2,0,0,6,6,0,,,,,,,,,,,,,,,,,,,,,,,,,,,,,,,,,,,,,,,,399.48993541600066,399.48993541600066,399.48993541600066,399.48993541600066,399.48993541600066,399.48993541600066,399.48993541600066,399.48993541600066,399.48993541600066,399.48993541600066,a,1.9610699960321654,10,688,2,401.4755831329967,402.9772199909785,,,,,,,,,,,,,,,,,,,,,,,,,,,,,,,,,,,,,,,,,,,,,,,,,,,,,,,,,,,,,,,,,,,,,,12321,2022-11-10_14h08.33.697,vts_reward_expectancy_bt_OFFLINE,2022.2.4,59.9410599535448,
1,0,0,0,0,0,1,0,triangle,hexagon,2,0,2,0,0,7,7,1,,,,,,,,,,,,,,,,,,,,,,,,,,,,,,,,,,,,,,,,403.47797199100023,403.47797199100023,403.47797199100023,403.47797199100023,403.47797199100023,403.47797199100023,403.47797199100023,403.47797199100023,403.47797199100023,403.47797199100023,l,0.9686094050121028,10,698,2,404.47891342200455,405.9804912849795,,,,,,,,,,,,,,,,,,,,,,,,,,,,,,,,,,,,,,,,,,,,,,,,,,,,,,,,,,,,,,,,,,,,,,12321,2022-11-10_14h08.33.697,vts_reward_expectancy_bt_OFFLINE,2022.2.4,59.9410599535448,
0,0,0,1,0,0,1,0,star,hexagon,2,0,2,0,0,8,8,11,,,,,,,,,,,,,,,,,,,,,,,,,,,,,,,,,,,,,,,,406.4815124970046,406.4815124970046,406.4815124970046,406.4815124970046,406.4815124970046,406.4815124970046,406.4815124970046,406.4815124970046,406.4815124970046,406.4815124970046,l,2.226266251032939,10,708,2,408.73378549699555,410.2353288169834,,,,,,,,,,,,,,,,,,,,,,,,,,,,,,,,,,,,,,,,,,,,,,,,,,,,,,,,,,,,,,,,,,,,,,12321,2022-11-10_14h08.33.697,vts_reward_expectancy_bt_OFFLINE,2022.2.4,59.9410599535448,
0,1,0,0,0,0,0,1,circle,star,2,0,2,0,0,9,9,5,,,,,,,,,,,,,,,,,,,,,,,,,,,,,,,,,,,,,,,,410.7361680189788,410.7361680189788,410.7361680189788,410.7361680189788,410.7361680189788,410.7361680189788,410.7361680189788,410.7361680189788,410.7361680189788,410.7361680189788,l,1.5265614509989973,1,709,2,412.287631780986,413.7894232289982,,,,,,,,,,,,,,,,,,,,,,,,,,,,,,,,,,,,,,,,,,,,,,,,,,,,,,,,,,,,,,,,,,,,,,12321,2022-11-10_14h08.33.697,vts_reward_expectancy_bt_OFFLINE,2022.2.4,59.9410599535448,
0,0,0,1,0,1,0,0,star ,circle,2,0,2,0,0,10,10,10,,,,,,,,,,,,,,,,,,,,,,,,,,,,,,,,,,,,,,,,414.28986377999536,414.28986377999536,414.28986377999536,414.28986377999536,414.28986377999536,414.28986377999536,414.28986377999536,414.28986377999536,414.28986377999536,414.28986377999536,l,1.2693606310058385,1,710,2,415.5911821879854,417.09295065997867,,,,,,,,,,,,,,,,,,,,,,,,,,,,,,,,,,,,,,,,,,,,,,,,,,,,,,,,,,,,,,,,,,,,,,12321,2022-11-10_14h08.33.697,vts_reward_expectancy_bt_OFFLINE,2022.2.4,59.9410599535448,
0,0,1,0,1,0,0,0,hexagon,triangle,2,0,2,0,0,11,11,6,,,,,,,,,,,,,,,,,,,,,,,,,,,,,,,,,,,,,,,,417.59352422499796,417.59352422499796,417.59352422499796,417.59352422499796,417.59352422499796,417.59352422499796,417.59352422499796,417.59352422499796,417.59352422499796,417.59352422499796,a,3.5016219400276896,10,720,2,421.1144959839876,422.61544782097917,422.61544782097917,,,,,,,,,,,,,,,,,,,,,,,,,,,,,,,,,,,,,,,,,,,,,,,,,,,,,,,,,,,,,,,,,,,,,12321,2022-11-10_14h08.33.697,vts_reward_expectancy_bt_OFFLINE,2022.2.4,59.9410599535448,
0,1,0,0,0,0,0,1,circle,star,2,0,2,0,1,0,12,5,,,,,,,,,,,,,,,,,,,,,,,,,,,,,,,,,,,,,,,,423.11611348600127,423.11611348600127,423.11611348600127,423.11611348600127,423.11611348600127,423.11611348600127,423.11611348600127,423.11611348600127,423.11611348600127,423.11611348600127,l,1.6251069990103133,1,721,2,424.76779374998296,426.26964153698646,,,,,,,,,,,,,,,,,,,,,,,,,,,,,,,,,,,,,,,,,,,,,,,,,,,,,,,,,,,,,,,,,,,,,,12321,2022-11-10_14h08.33.697,vts_reward_expectancy_bt_OFFLINE,2022.2.4,59.9410599535448,
0,0,1,0,0,0,0,1,hexagon,star,2,0,2,0,1,1,13,8,,,,,,,,,,,,,,,,,,,,,,,,,,,,,,,,,,,,,,,,426.77016349398764,426.77016349398764,426.77016349398764,426.77016349398764,426.77016349398764,426.77016349398764,426.77016349398764,426.77016349398764,426.77016349398764,426.77016349398764,a,0.6253511410031933,10,731,2,427.42101020299015,428.922847490001,,,,,,,,,,,,,,,,,,,,,,,,,,,,,,,,,,,,,,,,,,,,,,,,,,,,,,,,,,,,,,,,,,,,,,12321,2022-11-10_14h08.33.697,vts_reward_expectancy_bt_OFFLINE,2022.2.4,59.9410599535448,
1,0,0,0,0,0,0,1,triangle,star,2,0,2,0,1,2,14,2,,,,,,,,,,,,,,,,,,,,,,,,,,,,,,,,,,,,,,,,429.42309649000526,429.42309649000526,429.42309649000526,429.42309649000526,429.42309649000526,429.42309649000526,429.42309649000526,429.42309649000526,429.42309649000526,429.42309649000526,a,0.8854462840245105,10,741,2,430.3406734500022,431.84241288900375,,,,,,,,,,,,,,,,,,,,,,,,,,,,,,,,,,,,,,,,,,,,,,,,,,,,,,,,,,,,,,,,,,,,,,12321,2022-11-10_14h08.33.697,vts_reward_expectancy_bt_OFFLINE,2022.2.4,59.9410599535448,
0,1,0,0,0,0,1,0,circle,hexagon,2,0,2,0,1,3,15,4,,,,,,,,,,,,,,,,,,,,,,,,,,,,,,,,,,,,,,,,432.3429202910047,432.3429202910047,432.3429202910047,432.3429202910047,432.3429202910047,432.3429202910047,432.3429202910047,432.3429202910047,432.3429202910047,432.3429202910047,l,0.8450586090330034,10,751,2,433.2108020169835,434.7123253530008,,,,,,,,,,,,,,,,,,,,,,,,,,,,,,,,,,,,,,,,,,,,,,,,,,,,,,,,,,,,,,,,,,,,,,12321,2022-11-10_14h08.33.697,vts_reward_expectancy_bt_OFFLINE,2022.2.4,59.9410599535448,
0,1,0,0,1,0,0,0,circle,triangle,2,0,2,0,1,4,16,3,,,,,,,,,,,,,,,,,,,,,,,,,,,,,,,,,,,,,,,,435.2129171449924,435.2129171449924,435.2129171449924,435.2129171449924,435.2129171449924,435.2129171449924,435.2129171449924,435.2129171449924,435.2129171449924,435.2129171449924,l,1.0028670830070041,10,761,2,436.24724363099085,437.74913111299975,,,,,,,,,,,,,,,,,,,,,,,,,,,,,,,,,,,,,,,,,,,,,,,,,,,,,,,,,,,,,,,,,,,,,,12321,2022-11-10_14h08.33.697,vts_reward_expectancy_bt_OFFLINE,2022.2.4,59.9410599535448,
0,0,1,0,1,0,0,0,hexagon,triangle,2,0,2,0,1,5,17,6,,,,,,,,,,,,,,,,,,,,,,,,,,,,,,,,,,,,,,,,438.249735135003,438.249735135003,438.249735135003,438.249735135003,438.249735135003,438.249735135003,438.249735135003,438.249735135003,438.249735135003,438.249735135003,a,1.620814441004768,10,771,2,439.90147190599237,441.40302516598604,,,,,,,,,,,,,,,,,,,,,,,,,,,,,,,,,,,,,,,,,,,,,,,,,,,,,,,,,,,,,,,,,,,,,,12321,2022-11-10_14h08.33.697,vts_reward_expectancy_bt_OFFLINE,2022.2.4,59.9410599535448,
0,0,1,0,0,1,0,0,hexagon,circle,2,0,2,0,1,6,18,7,,,,,,,,,,,,,,,,,,,,,,,,,,,,,,,,,,,,,,,,441.90352560498286,441.90352560498286,441.90352560498286,441.90352560498286,441.90352560498286,441.90352560498286,441.90352560498286,441.90352560498286,441.90352560498286,441.90352560498286,a,1.073914542037528,10,781,2,443.00482548199943,444.50645966498996,,,,,,,,,,,,,,,,,,,,,,,,,,,,,,,,,,,,,,,,,,,,,,,,,,,,,,,,,,,,,,,,,,,,,,12321,2022-11-10_14h08.33.697,vts_reward_expectancy_bt_OFFLINE,2022.2.4,59.9410599535448,
0,0,0,1,1,0,0,0,star,triangle,2,0,2,0,1,7,19,9,,,,,,,,,,,,,,,,,,,,,,,,,,,,,,,,,,,,,,,,445.00703565299045,445.00703565299045,445.00703565299045,445.00703565299045,445.00703565299045,445.00703565299045,445.00703565299045,445.00703565299045,445.00703565299045,445.00703565299045,l,1.2537649190053344,10,791,2,446.2917443829938,447.79362151399255,,,,,,,,,,,,,,,,,,,,,,,,,,,,,,,,,,,,,,,,,,,,,,,,,,,,,,,,,,,,,,,,,,,,,,12321,2022-11-10_14h08.33.697,vts_reward_expectancy_bt_OFFLINE,2022.2.4,59.9410599535448,
0,0,0,1,0,1,0,0,star ,circle,2,0,2,0,1,8,20,10,,,,,,,,,,,,,,,,,,,,,,,,,,,,,,,,,,,,,,,,448.2942491659778,448.2942491659778,448.2942491659778,448.2942491659778,448.2942491659778,448.2942491659778,448.2942491659778,448.2942491659778,448.2942491659778,448.2942491659778,l,1.4202181800210383,1,792,2,449.74569454198354,451.2472597619926,,,,,,,,,,,,,,,,,,,,,,,,,,,,,,,,,,,,,,,,,,,,,,,,,,,,,,,,,,,,,,,,,,,,,,12321,2022-11-10_14h08.33.697,vts_reward_expectancy_bt_OFFLINE,2022.2.4,59.9410599535448,
0,0,0,1,0,0,1,0,star,hexagon,2,0,2,0,1,9,21,11,,,,,,,,,,,,,,,,,,,,,,,,,,,,,,,,,,,,,,,,451.7478884909942,451.7478884909942,451.7478884909942,451.7478884909942,451.7478884909942,451.7478884909942,451.7478884909942,451.7478884909942,451.7478884909942,451.7478884909942,l,0.9154023630253505,1,793,2,452.6819875299989,454.18378235798446,454.18378235798446,454.68425208699773,,,,,,,,,,,,,,,,,,,,,,,,,,,,,,,,,,,,,,,,,,,,,,,,,,,,,,,,,,,,,,,,,,,,12321,2022-11-10_14h08.33.697,vts_reward_expectancy_bt_OFFLINE,2022.2.4,59.9410599535448,
1,0,0,0,0,1,0,0,triangle,circle,2,0,2,0,1,10,22,0,,,,,,,,,,,,,,,,,,,,,,,,,,,,,,,,,,,,,,,,454.68425208699773,454.68425208699773,454.68425208699773,454.68425208699773,454.68425208699773,454.68425208699773,454.68425208699773,454.68425208699773,454.68425208699773,454.68425208699773,a,0.7813530850107782,10,803,2,455.4851854799781,456.98682772298343,,,,,,,,,,,,,,,,,,,,,,,,,,,,,,,,,,,,,,,,,,,,,,,,,,,,,,,,,,,,,,,,,,,,,,12321,2022-11-10_14h08.33.697,vts_reward_expectancy_bt_OFFLINE,2022.2.4,59.9410599535448,
1,0,0,0,0,0,1,0,triangle,hexagon,2,0,2,0,1,11,23,1,,,,,,,,,,,,,,,,,,,,,,,,,,,,,,,,,,,,,,,,457.487259068992,457.487259068992,457.487259068992,457.487259068992,457.487259068992,457.487259068992,457.487259068992,457.487259068992,457.487259068992,457.487259068992,l,1.9373878450132906,1,804,2,459.4561422429979,460.9578799409792,,,,,,,,,,,,,,,,,,,,,,,,,,,,,,,,,,,,,,,,,,,,,,,,,,,,,,,,,,,,,,,,,,,,,,12321,2022-11-10_14h08.33.697,vts_reward_expectancy_bt_OFFLINE,2022.2.4,59.9410599535448,
0,1,0,0,1,0,0,0,circle,triangle,2,0,2,0,2,0,24,3,,,,,,,,,,,,,,,,,,,,,,,,,,,,,,,,,,,,,,,,461.45841942800325,461.45841942800325,461.45841942800325,461.45841942800325,461.45841942800325,461.45841942800325,461.45841942800325,461.45841942800325,461.45841942800325,461.45841942800325,l,1.3189533000113443,10,814,2,462.80994350099354,464.311445127998,,,,,,,,,,,,,,,,,,,,,,,,,,,,,,,,,,,,,,,,,,,,,,,,,,,,,,,,,,,,,,,,,,,,,,12321,2022-11-10_14h08.33.697,vts_reward_expectancy_bt_OFFLINE,2022.2.4,59.9410599535448,
1,0,0,0,0,0,0,1,triangle,star,2,0,2,0,2,1,25,2,,,,,,,,,,,,,,,,,,,,,,,,,,,,,,,,,,,,,,,,464.81212973198853,464.81212973198853,464.81212973198853,464.81212973198853,464.81212973198853,464.81212973198853,464.81212973198853,464.81212973198853,464.81212973198853,464.81212973198853,a,1.2854838669882156,1,815,2,466.1302758359816,467.6318054419826,,,,,,,,,,,,,,,,,,,,,,,,,,,,,,,,,,,,,,,,,,,,,,,,,,,,,,,,,,,,,,,,,,,,,,12321,2022-11-10_14h08.33.697,vts_reward_expectancy_bt_OFFLINE,2022.2.4,59.9410599535448,
0,0,1,0,1,0,0,0,hexagon,triangle,2,0,2,0,2,2,26,6,,,,,,,,,,,,,,,,,,,,,,,,,,,,,,,,,,,,,,,,468.13234220599406,468.13234220599406,468.13234220599406,468.13234220599406,468.13234220599406,468.13234220599406,468.13234220599406,468.13234220599406,468.13234220599406,468.13234220599406,a,0.8430727240047418,10,825,2,468.99999503599247,470.5017534100043,,,,,,,,,,,,,,,,,,,,,,,,,,,,,,,,,,,,,,,,,,,,,,,,,,,,,,,,,,,,,,,,,,,,,,12321,2022-11-10_14h08.33.697,vts_reward_expectancy_bt_OFFLINE,2022.2.4,59.9410599535448,
0,1,0,0,0,0,0,1,circle,star,2,0,2,0,2,3,27,5,,,,,,,,,,,,,,,,,,,,,,,,,,,,,,,,,,,,,,,,471.002180993004,471.002180993004,471.002180993004,471.002180993004,471.002180993004,471.002180993004,471.002180993004,471.002180993004,471.002180993004,471.002180993004,l,1.1575440019951202,1,826,2,472.1871466769953,473.68867233998026,,,,,,,,,,,,,,,,,,,,,,,,,,,,,,,,,,,,,,,,,,,,,,,,,,,,,,,,,,,,,,,,,,,,,,12321,2022-11-10_14h08.33.697,vts_reward_expectancy_bt_OFFLINE,2022.2.4,59.9410599535448,
0,0,0,1,0,0,1,0,star,hexagon,2,0,2,0,2,4,28,11,,,,,,,,,,,,,,,,,,,,,,,,,,,,,,,,,,,,,,,,474.1893507959903,474.1893507959903,474.1893507959903,474.1893507959903,474.1893507959903,474.1893507959903,474.1893507959903,474.1893507959903,474.1893507959903,474.1893507959903,l,1.1318723620206583,1,827,2,475.34062325800187,476.842195685982,,,,,,,,,,,,,,,,,,,,,,,,,,,,,,,,,,,,,,,,,,,,,,,,,,,,,,,,,,,,,,,,,,,,,,12321,2022-11-10_14h08.33.697,vts_reward_expectancy_bt_OFFLINE,2022.2.4,59.9410599535448,
0,1,0,0,0,0,1,0,circle,hexagon,2,0,2,0,2,5,29,4,,,,,,,,,,,,,,,,,,,,,,,,,,,,,,,,,,,,,,,,477.34263322898187,477.34263322898187,477.34263322898187,477.34263322898187,477.34263322898187,477.34263322898187,477.34263322898187,477.34263322898187,477.34263322898187,477.34263322898187,l,0.937297179014422,10,837,2,478.310457783984,479.81193490698934,,,,,,,,,,,,,,,,,,,,,,,,,,,,,,,,,,,,,,,,,,,,,,,,,,,,,,,,,,,,,,,,,,,,,,12321,2022-11-10_14h08.33.697,vts_reward_expectancy_bt_OFFLINE,2022.2.4,59.9410599535448,
0,0,0,1,1,0,0,0,star,triangle,2,0,2,0,2,6,30,9,,,,,,,,,,,,,,,,,,,,,,,,,,,,,,,,,,,,,,,,480.3126602830016,480.3126602830016,480.3126602830016,480.3126602830016,480.3126602830016,480.3126602830016,480.3126602830016,480.3126602830016,480.3126602830016,480.3126602830016,l,1.0523201920150314,10,847,2,481.3971027279913,482.89864548199694,,,,,,,,,,,,,,,,,,,,,,,,,,,,,,,,,,,,,,,,,,,,,,,,,,,,,,,,,,,,,,,,,,,,,,12321,2022-11-10_14h08.33.697,vts_reward_expectancy_bt_OFFLINE,2022.2.4,59.9410599535448,
1,0,0,0,0,1,0,0,triangle,circle,2,0,2,0,2,7,31,0,,,,,,,,,,,,,,,,,,,,,,,,,,,,,,,,,,,,,,,,483.39918599597877,483.39918599597877,483.39918599597877,483.39918599597877,483.39918599597877,483.39918599597877,483.39918599597877,483.39918599597877,483.39918599597877,483.39918599597877,a,0.6643454580043908,10,857,2,484.0833482919843,485.5850099049858,,,,,,,,,,,,,,,,,,,,,,,,,,,,,,,,,,,,,,,,,,,,,,,,,,,,,,,,,,,,,,,,,,,,,,12321,2022-11-10_14h08.33.697,vts_reward_expectancy_bt_OFFLINE,2022.2.4,59.9410599535448,
1,0,0,0,0,0,1,0,triangle,hexagon,2,0,2,0,2,8,32,1,,,,,,,,,,,,,,,,,,,,,,,,,,,,,,,,,,,,,,,,486.0855685159913,486.0855685159913,486.0855685159913,486.0855685159913,486.0855685159913,486.0855685159913,486.0855685159913,486.0855685159913,486.0855685159913,486.0855685159913,l,0.935505692003062,10,867,2,487.0533463890024,488.55516949199955,,,,,,,,,,,,,,,,,,,,,,,,,,,,,,,,,,,,,,,,,,,,,,,,,,,,,,,,,,,,,,,,,,,,,,12321,2022-11-10_14h08.33.697,vts_reward_expectancy_bt_OFFLINE,2022.2.4,59.9410599535448,
0,0,1,0,0,0,0,1,hexagon,star,2,0,2,0,2,9,33,8,,,,,,,,,,,,,,,,,,,,,,,,,,,,,,,,,,,,,,,,489.0554326089914,489.0554326089914,489.0554326089914,489.0554326089914,489.0554326089914,489.0554326089914,489.0554326089914,489.0554326089914,489.0554326089914,489.0554326089914,a,0.7242421740083955,1,868,2,489.8064541200001,491.30801601399435,,,,,,,,,,,,,,,,,,,,,,,,,,,,,,,,,,,,,,,,,,,,,,,,,,,,,,,,,,,,,,,,,,,,,,12321,2022-11-10_14h08.33.697,vts_reward_expectancy_bt_OFFLINE,2022.2.4,59.9410599535448,
0,0,0,1,0,1,0,0,star ,circle,2,0,2,0,2,10,34,10,,,,,,,,,,,,,,,,,,,,,,,,,,,,,,,,,,,,,,,,491.80871602598927,491.80871602598927,491.80871602598927,491.80871602598927,491.80871602598927,491.80871602598927,491.80871602598927,491.80871602598927,491.80871602598927,491.80871602598927,l,0.6347540220012888,1,869,2,492.4760378479841,493.9775671059906,,,,,,,,,,,,,,,,,,,,,,,,,,,,,,,,,,,,,,,,,,,,,,,,,,,,,,,,,,,,,,,,,,,,,,12321,2022-11-10_14h08.33.697,vts_reward_expectancy_bt_OFFLINE,2022.2.4,59.9410599535448,
0,0,1,0,0,1,0,0,hexagon,circle,2,0,2,0,2,11,35,7,,,,,,,,,,,,,,,,,,,,,,,,,,,,,,,,,,,,,,,,494.4781286350044,494.4781286350044,494.4781286350044,494.4781286350044,494.4781286350044,494.4781286350044,494.4781286350044,494.4781286350044,494.4781286350044,494.4781286350044,a,0.3397565199993551,1,870,2,494.8451871750003,496.34687067600316,,,,,,,,,,,,,,,,,,,,,,,,,,,,,,,,,,,,,,,,,,,,,,,,,,,,,,,,,,,,,,,,,,,,,,12321,2022-11-10_14h08.33.697,vts_reward_expectancy_bt_OFFLINE,2022.2.4,59.9410599535448,
0,1,0,0,0,0,1,0,circle,hexagon,2,0,2,0,3,0,36,4,,,,,,,,,,,,,,,,,,,,,,,,,,,,,,,,,,,,,,,,496.84732237897697,496.84732237897697,496.84732237897697,496.84732237897697,496.84732237897697,496.84732237897697,496.84732237897697,496.84732237897697,496.84732237897697,496.84732237897697,l,0.6599674650060479,10,880,2,497.53173729398986,499.0334048520017,,,,,,,,,,,,,,,,,,,,,,,,,,,,,,,,,,,,,,,,,,,,,,,,,,,,,,,,,,,,,,,,,,,,,,12321,2022-11-10_14h08.33.697,vts_reward_expectancy_bt_OFFLINE,2022.2.4,59.9410599535448,
1,0,0,0,0,0,0,1,triangle,star,2,0,2,0,3,1,37,2,,,,,,,,,,,,,,,,,,,,,,,,,,,,,,,,,,,,,,,,499.5339068780013,499.5339068780013,499.5339068780013,499.5339068780013,499.5339068780013,499.5339068780013,499.5339068780013,499.5339068780013,499.5339068780013,499.5339068780013,a,0.8297210390155669,10,890,2,500.38487511497806,501.88640913099516,,,,,,,,,,,,,,,,,,,,,,,,,,,,,,,,,,,,,,,,,,,,,,,,,,,,,,,,,,,,,,,,,,,,,,12321,2022-11-10_14h08.33.697,vts_reward_expectancy_bt_OFFLINE,2022.2.4,59.9410599535448,
1,0,0,0,0,1,0,0,triangle,circle,2,0,2,0,3,2,38,0,,,,,,,,,,,,,,,,,,,,,,,,,,,,,,,,,,,,,,,,502.3868853779859,502.3868853779859,502.3868853779859,502.3868853779859,502.3868853779859,502.3868853779859,502.3868853779859,502.3868853779859,502.3868853779859,502.3868853779859,a,0.857057834014995,10,900,2,503.27127577300416,504.77284864499234,,,,,,,,,,,,,,,,,,,,,,,,,,,,,,,,,,,,,,,,,,,,,,,,,,,,,,,,,,,,,,,,,,,,,,12321,2022-11-10_14h08.33.697,vts_reward_expectancy_bt_OFFLINE,2022.2.4,59.9410599535448,
0,0,1,0,0,0,0,1,hexagon,star,2,0,2,0,3,3,39,8,,,,,,,,,,,,,,,,,,,,,,,,,,,,,,,,,,,,,,,,505.2736003790051,505.2736003790051,505.2736003790051,505.2736003790051,505.2736003790051,505.2736003790051,505.2736003790051,505.2736003790051,505.2736003790051,505.2736003790051,a,1.0317977069935296,10,910,2,506.32467150100274,507.8262429869792,,,,,,,,,,,,,,,,,,,,,,,,,,,,,,,,,,,,,,,,,,,,,,,,,,,,,,,,,,,,,,,,,,,,,,12321,2022-11-10_14h08.33.697,vts_reward_expectancy_bt_OFFLINE,2022.2.4,59.9410599535448,
0,1,0,0,0,0,0,1,circle,star,2,0,2,0,3,4,40,5,,,,,,,,,,,,,,,,,,,,,,,,,,,,,,,,,,,,,,,,508.3268554369861,508.3268554369861,508.3268554369861,508.3268554369861,508.3268554369861,508.3268554369861,508.3268554369861,508.3268554369861,508.3268554369861,508.3268554369861,l,2.0277070340234786,1,911,2,510.379077805992,511.88079599800403,,,,,,,,,,,,,,,,,,,,,,,,,,,,,,,,,,,,,,,,,,,,,,,,,,,,,,,,,,,,,,,,,,,,,,12321,2022-11-10_14h08.33.697,vts_reward_expectancy_bt_OFFLINE,2022.2.4,59.9410599535448,
1,0,0,0,0,0,1,0,triangle,hexagon,2,0,2,0,3,5,41,1,,,,,,,,,,,,,,,,,,,,,,,,,,,,,,,,,,,,,,,,512.3812611129833,512.3812611129833,512.3812611129833,512.3812611129833,512.3812611129833,512.3812611129833,512.3812611129833,512.3812611129833,512.3812611129833,512.3812611129833,a,1.3258924410038162,10,921,2,513.7328452299989,515.2343551020022,,,,,,,,,,,,,,,,,,,,,,,,,,,,,,,,,,,,,,,,,,,,,,,,,,,,,,,,,,,,,,,,,,,,,,12321,2022-11-10_14h08.33.697,vts_reward_expectancy_bt_OFFLINE,2022.2.4,59.9410599535448,
0,0,0,1,0,0,1,0,star,hexagon,2,0,2,0,3,6,42,11,,,,,,,,,,,,,,,,,,,,,,,,,,,,,,,,,,,,,,,,515.7351215919771,515.7351215919771,515.7351215919771,515.7351215919771,515.7351215919771,515.7351215919771,515.7351215919771,515.7351215919771,515.7351215919771,515.7351215919771,l,0.9417651170224417,10,931,2,516.7026134369953,518.2042295589927,,,,,,,,,,,,,,,,,,,,,,,,,,,,,,,,,,,,,,,,,,,,,,,,,,,,,,,,,,,,,,,,,,,,,,12321,2022-11-10_14h08.33.697,vts_reward_expectancy_bt_OFFLINE,2022.2.4,59.9410599535448,
0,0,0,1,1,0,0,0,star,triangle,2,0,2,0,3,7,43,9,,,,,,,,,,,,,,,,,,,,,,,,,,,,,,,,,,,,,,,,518.7049059050041,518.7049059050041,518.7049059050041,518.7049059050041,518.7049059050041,518.7049059050041,518.7049059050041,518.7049059050041,518.7049059050041,518.7049059050041,l,0.8298833620210644,10,941,2,519.5558214570046,521.0575442650006,,,,,,,,,,,,,,,,,,,,,,,,,,,,,,,,,,,,,,,,,,,,,,,,,,,,,,,,,,,,,,,,,,,,,,12321,2022-11-10_14h08.33.697,vts_reward_expectancy_bt_OFFLINE,2022.2.4,59.9410599535448,
0,1,0,0,1,0,0,0,circle,triangle,2,0,2,0,3,8,44,3,,,,,,,,,,,,,,,,,,,,,,,,,,,,,,,,,,,,,,,,521.5580174259958,521.5580174259958,521.5580174259958,521.5580174259958,521.5580174259958,521.5580174259958,521.5580174259958,521.5580174259958,521.5580174259958,521.5580174259958,l,0.9135010059981141,10,951,2,522.4923648299882,523.9939574929886,,,,,,,,,,,,,,,,,,,,,,,,,,,,,,,,,,,,,,,,,,,,,,,,,,,,,,,,,,,,,,,,,,,,,,12321,2022-11-10_14h08.33.697,vts_reward_expectancy_bt_OFFLINE,2022.2.4,59.9410599535448,
0,0,1,0,0,1,0,0,hexagon,circle,2,0,2,0,3,9,45,7,,,,,,,,,,,,,,,,,,,,,,,,,,,,,,,,,,,,,,,,524.4944702319917,524.4944702319917,524.4944702319917,524.4944702319917,524.4944702319917,524.4944702319917,524.4944702319917,524.4944702319917,524.4944702319917,524.4944702319917,a,0.7448767239984591,10,961,2,525.2620600539958,526.7638104929938,,,,,,,,,,,,,,,,,,,,,,,,,,,,,,,,,,,,,,,,,,,,,,,,,,,,,,,,,,,,,,,,,,,,,,12321,2022-11-10_14h08.33.697,vts_reward_expectancy_bt_OFFLINE,2022.2.4,59.9410599535448,
0,0,0,1,0,1,0,0,star ,circle,2,0,2,0,3,10,46,10,,,,,,,,,,,,,,,,,,,,,,,,,,,,,,,,,,,,,,,,527.2642553809856,527.2642553809856,527.2642553809856,527.2642553809856,527.2642553809856,527.2642553809856,527.2642553809856,527.2642553809856,527.2642553809856,527.2642553809856,l,2.193080919998465,10,971,2,529.4834302499949,530.985138374992,,,,,,,,,,,,,,,,,,,,,,,,,,,,,,,,,,,,,,,,,,,,,,,,,,,,,,,,,,,,,,,,,,,,,,12321,2022-11-10_14h08.33.697,vts_reward_expectancy_bt_OFFLINE,2022.2.4,59.9410599535448,
0,0,1,0,1,0,0,0,hexagon,triangle,2,0,2,0,3,11,47,6,,,,,,,,,,,,,,,,,,,,,,,,,,,,,,,,,,,,,,,,531.4855163989996,531.4855163989996,531.4855163989996,531.4855163989996,531.4855163989996,531.4855163989996,531.4855163989996,531.4855163989996,531.4855163989996,531.4855163989996,l,1.796659529034514,10,981,2,533.3043142639799,534.8059847129916,,,,,,,,,,,,,,,,,,,,,,,,,,,,,,,,,,,,,,,,,,,,,,,,,,,,,,,,,,,,,,,,,,,,,,12321,2022-11-10_14h08.33.697,vts_reward_expectancy_bt_OFFLINE,2022.2.4,59.9410599535448,
,,,,,,,,,,,,,,,,,,0,0,0,0,0,0,0,0,,,,,,,,,,,,,,,,,,,,,,,,,,,,,,,,,,,,,,,,,,,,,,,,564.9894063359825,,,H,132,hexagon,0.001274573995033279,559.7124663409777,561.2185671289917,561.2185671289917,561.2185671289917,1,0,d,2.237733191024745,0,563.487635558995,,,,,,,,,,,,,,,,,,,,,,,,,,,,,,,,,,,,,,,,,,,,,,,,,,,,,,12321,2022-11-10_14h08.33.697,vts_reward_expectancy_bt_OFFLINE,2022.2.4,59.9410599535448,
,,,,,,,,,,,,,,,,,,0,0,0,0,1,0,1,0,,,,,,,,,,,,,,,,,,,,,,,,,,,,,,,,,,,,,,,,,,,,,,,,569.8116179439821,,,D,160,star,0.0014424039982259274,565.9675774780044,567.4756465939863,567.4756465939863,567.4756465939863,1,0,d,0.8059736780123785,0,568.3097314379993,,,,,,,,,,,,,,,,,,,,,,,,,,,,,,,,,,,,,,,,,,,,,,,,,,,,,,12321,2022-11-10_14h08.33.697,vts_reward_expectancy_bt_OFFLINE,2022.2.4,59.9410599535448,
,,,,,,,,,,,,,,,,,,0,0,0,0,2,0,2,0,,,,,,,,,,,,,,,,,,,,,,,,,,,,,,,,,,,,,,,,,,,,,,,,574.4330159369856,,,Y,139,circle,0.001537021977128461,570.7890899519844,572.2975030769885,572.2975030769885,572.2975030769885,1,0,f,0.6085260850086343,0,572.9313924309972,,,,,,,,,,,,,,,,,,,,,,,,,,,,,,,,,,,,,,,,,,,,,,,,,,,,,,12321,2022-11-10_14h08.33.697,vts_reward_expectancy_bt_OFFLINE,2022.2.4,59.9410599535448,
,,,,,,,,,,,,,,,,,,0,0,0,0,3,0,3,0,,,,,,,,,,,,,,,,,,,,,,,,,,,,,,,,,,,,,,,,,,,,,,,,579.1215658629953,,,B,146,triangle,0.001511211012257263,575.412894203997,576.919119861006,576.919119861006,576.919119861006,1,0,d,0.6688960659957957,0,577.6199116329954,,,,,,,,,,,,,,,,,,,,,,,,,,,,,,,,,,,,,,,,,,,,,,,,,,,,,,12321,2022-11-10_14h08.33.697,vts_reward_expectancy_bt_OFFLINE,2022.2.4,59.9410599535448,
,,,,,,,,,,,,,,,,,,0,0,0,0,4,0,4,0,,,,,,,,,,,,,,,,,,,,,,,,,,,,,,,,,,,,,,,,,,,,,,,,583.7433395279804,,,U,174,circle,0.0015699960058555007,580.1004431379843,581.6075886049948,581.6075886049948,581.6075886049948,1,0,f,0.6147412740101572,0,582.2418259919796,,,,,,,,,,,,,,,,,,,,,,,,,,,,,,,,,,,,,,,,,,,,,,,,,,,,,,12321,2022-11-10_14h08.33.697,vts_reward_expectancy_bt_OFFLINE,2022.2.4,59.9410599535448,
,,,,,,,,,,,,,,,,,,0,0,0,0,5,0,5,0,,,,,,,,,,,,,,,,,,,,,,,,,,,,,,,,,,,,,,,,,,,,,,,,588.6821664589806,,,F,167,hexagon,0.0012433250085450709,584.7208982659795,586.2296192770009,586.2296192770009,586.2296192770009,1,0,d,0.9313343079993501,0,587.1805393489776,,,,,,,,,,,,,,,,,,,,,,,,,,,,,,,,,,,,,,,,,,,,,,,,,,,,,,12321,2022-11-10_14h08.33.697,vts_reward_expectancy_bt_OFFLINE,2022.2.4,59.9410599535448,
,,,,,,,,,,,,,,,,,,0,0,0,0,6,0,6,0,,,,,,,,,,,,,,,,,,,,,,,,,,,,,,,,,,,,,,,,,,,,,,,,593.5876585509977,,,S,181,star,0.0013486910029314458,589.6612985009851,591.1683637549868,591.1683637549868,591.1683637549868,1,0,f,0.8853734460135456,0,592.0860466919839,,,,,,,,,,,,,,,,,,,,,,,,,,,,,,,,,,,,,,,,,,,,,,,,,,,,,,12321,2022-11-10_14h08.33.697,vts_reward_expectancy_bt_OFFLINE,2022.2.4,59.9410599535448,
,,,,,,,,,,,,,,,,,,0,0,0,0,7,0,7,0,,,,,,,,,,,,,,,,,,,,,,,,,,,,,,,,,,,,,,,,,,,,,,,,598.7266178849968,,,W,125,triangle,0.0017881759849842638,594.5678568260046,596.073600306001,596.073600306001,596.073600306001,1,0,f,1.1233392690191977,0,597.2251721700013,,,,,,,,,,,,,,,,,,,,,,,,,,,,,,,,,,,,,,,,,,,,,,,,,,,,,,12321,2022-11-10_14h08.33.697,vts_reward_expectancy_bt_OFFLINE,2022.2.4,59.9410599535448,
,,,,,,,,,,,,,,,,,,0,0,0,0,8,0,8,0,,,,,,,,,,,,,,,,,,,,,,,,,,,,,,,,,,,,,,,,,,,,,,,,605.6507099279843,,,H,132,circle,0.0014072770136408508,599.7024305939849,601.2131212259992,601.2131212259992,601.2131212259992,1,0,d,2.9134419620095287,0,604.1491923219874,,,,,,,,,,,,,,,,,,,,,,,,,,,,,,,,,,,,,,,,,,,,,,,,,,,,,,12321,2022-11-10_14h08.33.697,vts_reward_expectancy_bt_OFFLINE,2022.2.4,59.9410599535448,
,,,,,,,,,,,,,,,,,,0,0,0,0,9,0,9,0,,,,,,,,,,,,,,,,,,,,,,,,,,,,,,,,,,,,,,,,,,,,,,,,610.3392791709921,,,D,160,star,0.0017554080113768578,606.6269549459976,608.1369036719843,608.1369036719843,608.1369036719843,1,0,d,0.6694471890223213,0,608.8376717329957,,,,,,,,,,,,,,,,,,,,,,,,,,,,,,,,,,,,,,,,,,,,,,,,,,,,,,12321,2022-11-10_14h08.33.697,vts_reward_expectancy_bt_OFFLINE,2022.2.4,59.9410599535448,
,,,,,,,,,,,,,,,,,,,,,,,,,,0,0,0,0,0,0,0,0,,,,,,,,,,,,,,,,,,,,,,,,,,,,,,,,,,,,,,,,630.5282284049899,,,D,125,star,0.0020654609834309667,,,,,1,0,,,1,629.026446584001,625.5666259209975,627.0744114189874,627.0744114189874,627.0744114189874,j,1.9267051560163964,,,,,,,,,,,,,,,,,,,,,,,,,,,,,,,,,,,,,,,,,,,,,,,,12321,2022-11-10_14h08.33.697,vts_reward_expectancy_bt_OFFLINE,2022.2.4,59.9410599535448,
,,,,,,,,,,,,,,,,,,,,,,,,,,0,0,0,0,1,0,1,0,,,,,,,,,,,,,,,,,,,,,,,,,,,,,,,,,,,,,,,,635.3669870260055,,,S,160,triangle,0.0012549889797810465,,,,,1,0,,,1,633.865332107991,631.5056323389872,633.0144956939912,633.0144956939912,633.0144956939912,k,0.8228173230018001,,,,,,,,,,,,,,,,,,,,,,,,,,,,,,,,,,,,,,,,,,,,,,,,12321,2022-11-10_14h08.33.697,vts_reward_expectancy_bt_OFFLINE,2022.2.4,59.9410599535448,
,,,,,,,,,,,,,,,,,,,,,,,,,,0,0,0,0,2,0,2,0,,,,,,,,,,,,,,,,,,,,,,,,,,,,,,,,,,,,,,,,640.0721178939857,,,W,181,hexagon,0.001850859000114724,,,,,1,0,,,1,638.5704748589778,636.3447898899904,637.8530669449829,637.8530669449829,637.8530669449829,k,0.6885730860230979,,,,,,,,,,,,,,,,,,,,,,,,,,,,,,,,,,,,,,,,,,,,,,,,12321,2022-11-10_14h08.33.697,vts_reward_expectancy_bt_OFFLINE,2022.2.4,59.9410599535448,
,,,,,,,,,,,,,,,,,,,,,,,,,,0,0,0,0,3,0,3,0,,,,,,,,,,,,,,,,,,,,,,,,,,,,,,,,,,,,,,,,644.7608077309851,,,F,132,circle,0.0016335929976776242,,,,,1,0,,,1,643.2593631499913,641.0490820249834,642.5582626829855,642.5582626829855,642.5582626829855,j,0.6733634630218148,,,,,,,,,,,,,,,,,,,,,,,,,,,,,,,,,,,,,,,,,,,,,,,,12321,2022-11-10_14h08.33.697,vts_reward_expectancy_bt_OFFLINE,2022.2.4,59.9410599535448,
,,,,,,,,,,,,,,,,,,,,,,,,,,0,0,0,0,4,0,4,0,,,,,,,,,,,,,,,,,,,,,,,,,,,,,,,,,,,,,,,,649.6826415839896,,,U,146,circle,0.0014983939763624221,,,,,1,0,,,1,648.1811324360024,645.7383745429979,647.2468213889806,647.2468213889806,647.2468213889806,j,0.9130246610147879,,,,,,,,,,,,,,,,,,,,,,,,,,,,,,,,,,,,,,,,,,,,,,,,12321,2022-11-10_14h08.33.697,vts_reward_expectancy_bt_OFFLINE,2022.2.4,59.9410599535448,
,,,,,,,,,,,,,,,,,,,,,,,,,,0,0,0,0,5,0,5,0,,,,,,,,,,,,,,,,,,,,,,,,,,,,,,,,,,,,,,,,654.5213934079802,,,Y,174,star,0.0018398920074105263,,,,,1,0,,,1,653.0197705029859,650.6616600429988,652.1689412150008,652.1689412150008,652.1689412150008,k,0.8189774980128277,,,,,,,,,,,,,,,,,,,,,,,,,,,,,,,,,,,,,,,,,,,,,,,,12321,2022-11-10_14h08.33.697,vts_reward_expectancy_bt_OFFLINE,2022.2.4,59.9410599535448,
,,,,,,,,,,,,,,,,,,,,,,,,,,0,0,0,0,6,0,6,0,,,,,,,,,,,,,,,,,,,,,,,,,,,,,,,,,,,,,,,,660.2112053720048,,,H,167,hexagon,0.0016720479761715978,,,,,1,0,,,1,658.7093914919824,655.4990356009803,657.0075870419969,657.0075870419969,657.0075870419969,k,1.682900615996914,,,,,,,,,,,,,,,,,,,,,,,,,,,,,,,,,,,,,,,,,,,,,,,,12321,2022-11-10_14h08.33.697,vts_reward_expectancy_bt_OFFLINE,2022.2.4,59.9410599535448,
,,,,,,,,,,,,,,,,,,,,,,,,,,0,0,0,0,7,0,7,0,,,,,,,,,,,,,,,,,,,,,,,,,,,,,,,,,,,,,,,,665.0163604209956,,,B,139,triangle,0.0013761899899691343,,,,,1,0,,,1,663.514662053989,661.1889977630053,662.6971160660032,662.6971160660032,662.6971160660032,j,0.7965748340066057,,,,,,,,,,,,,,,,,,,,,,,,,,,,,,,,,,,,,,,,,,,,,,,,12321,2022-11-10_14h08.33.697,vts_reward_expectancy_bt_OFFLINE,2022.2.4,59.9410599535448,
,,,,,,,,,,,,,,,,,,,,,,,,,,0,0,0,0,8,0,8,0,,,,,,,,,,,,,,,,,,,,,,,,,,,,,,,,,,,,,,,,669.9216473809793,,,D,125,triangle,0.0015450690116267651,,,,,1,0,,,1,668.4199266189826,665.9933267779998,667.5022306509782,667.5022306509782,667.5022306509782,j,0.8856151970103383,,,,,,,,,,,,,,,,,,,,,,,,,,,,,,,,,,,,,,,,,,,,,,,,12321,2022-11-10_14h08.33.697,vts_reward_expectancy_bt_OFFLINE,2022.2.4,59.9410599535448,
,,,,,,,,,,,,,,,,,,,,,,,,,,0,0,0,0,9,0,9,0,,,,,,,,,,,,,,,,,,,,,,,,,,,,,,,,,,,,,,,,674.62691777898,,,S,160,hexagon,0.0018502599850762635,,,,,1,0,,,1,673.1255046489823,670.8990604069841,672.4077777249913,672.4077777249913,672.4077777249913,k,0.68516504400759,,,,,,,,,,,,,,,,,,,,,,,,,,,,,,,,,,,,,,,,,,,,,,,,12321,2022-11-10_14h08.33.697,vts_reward_expectancy_bt_OFFLINE,2022.2.4,59.9410599535448,
,,,,,,,,,,,,,,,,,,,,,,,,,,,,,,,,,,0,0,0,0,0,0,0,0,,,,,,,,,,,,,,,,,,,,,,,,,,,,0,981,,,706.3952704039984,,,U,167,triangle,0.0021503219904843718,,,,,1,0,,,2,,,,,,,,701.6190785990038,701.6190785990038,701.6190785990038,701.6190785990038,703.1249823669787,703.1249823669787,703.1249823669787,703.1249823669787,703.1249823669787,703.1249823669787,703.1249823669787,703.1249823669787,-1,letter,NA,f,1.7491569550184067,vtsPrac,704.893743433,,,,,,,,,,,,,,,,,,,,,,,,,,,,,12321,2022-11-10_14h08.33.697,vts_reward_expectancy_bt_OFFLINE,2022.2.4,59.9410599535448,
,,,,,,,,,,,,,,,,,,,,,,,,,,,,,,,,,,0,0,0,0,1,0,1,0,,,,,,,,,,,,,,,,,,,,,,,,,,,,0,981,,,711.4508379990002,,,D,132,circle,0.0012018730049021542,,,,,1,0,,,2,,,,,,,,707.3745534329792,707.3745534329792,707.3745534329792,707.3745534329792,708.8812626069994,708.8812626069994,708.8812626069994,708.8812626069994,708.8812626069994,708.8812626069994,708.8812626069994,708.8812626069994,repeat,letter,lettRpt,d,1.0425708870170638,vtsPrac,709.9491569679813,,,,,,,,,,,,,,,,,,,,,,,,,,,,,12321,2022-11-10_14h08.33.697,vts_reward_expectancy_bt_OFFLINE,2022.2.4,59.9410599535448,
,,,,,,,,,,,,,,,,,,,,,,,,,,,,,,,,,,0,0,0,0,2,0,2,0,,,,,,,,,,,,,,,,,,,,,,,,,,,,0,981,,,716.7569097459782,,,S,160,star,0.001652897975873202,,,,,1,0,,,2,,,,,,,,712.4303017449856,712.4303017449856,712.4303017449856,712.4303017449856,713.9368167939829,713.9368167939829,713.9368167939829,713.9368167939829,713.9368167939829,713.9368167939829,713.9368167939829,713.9368167939829,switch,number,numSwt,k,1.2977565960318316,vtsPrac,715.2549784540024,,,,,,,,,,,,,,,,,,,,,,,,,,,,,12321,2022-11-10_14h08.33.697,vts_reward_expectancy_bt_OFFLINE,2022.2.4,59.9410599535448,
,,,,,,,,,,,,,,,,,,,,,,,,,,,,,,,,,,0,0,0,0,3,0,3,0,,,,,,,,,,,,,,,,,,,,,,,,,,,,0,981,,,723.0470555999782,,,W,146,circle,0.0015377870004158467,,,,,1,0,,,2,,,,,,,,717.7345010940044,717.7345010940044,717.7345010940044,717.7345010940044,719.2428249069781,719.2428249069781,719.2428249069781,719.2428249069781,719.2428249069781,719.2428249069781,719.2428249069781,719.2428249069781,switch,letter,lettSwt,f,2.270276974013541,vtsPrac,721.5453437169781,,,,,,,,,,,,,,,,,,,,,,,,,,,,,12321,2022-11-10_14h08.33.697,vts_reward_expectancy_bt_OFFLINE,2022.2.4,59.9410599535448,
,,,,,,,,,,,,,,,,,,,,,,,,,,,,,,,,,,0,0,0,0,4,0,4,0,,,,,,,,,,,,,,,,,,,,,,,,,,,,0,981,,,727.8689521999913,,,U,167,triangle,0.0017711659893393517,,,,,1,0,,,2,,,,,,,,724.024781146989,724.024781146989,724.024781146989,724.024781146989,725.5330257599999,725.5330257599999,725.5330257599999,725.5330257599999,725.5330257599999,725.5330257599999,725.5330257599999,725.5330257599999,repeat,letter,lettRpt,f,0.8060531910159625,vtsPrac,726.3672813099984,,,,,,,,,,,,,,,,,,,,,,,,,,,,,12321,2022-11-10_14h08.33.697,vts_reward_expectancy_bt_OFFLINE,2022.2.4,59.9410599535448,
,,,,,,,,,,,,,,,,,,,,,,,,,,,,,,,,,,0,0,0,0,5,0,5,0,,,,,,,,,,,,,,,,,,,,,,,,,,,,0,981,,,733.8589564279828,,,D,132,hexagon,0.0020388510019984096,,,,,1,0,,,2,,,,,,,,728.8467312179855,728.8467312179855,728.8467312179855,728.8467312179855,730.3551007809874,730.3551007809874,730.3551007809874,730.3551007809874,730.3551007809874,730.3551007809874,730.3551007809874,730.3551007809874,switch,number,numSwt,j,1.9700428860087413,vtsPrac,732.3574296970037,,,,,,,,,,,,,,,,,,,,,,,,,,,,,12321,2022-11-10_14h08.33.697,vts_reward_expectancy_bt_OFFLINE,2022.2.4,59.9410599535448,
,,,,,,,,,,,,,,,,,,,,,,,,,,,,,,,,,,0,0,0,0,6,0,6,0,,,,,,,,,,,,,,,,,,,,,,,,,,,,0,981,,,738.9311845369812,,,S,160,triangle,0.0016746820183470845,,,,,1,0,,,2,,,,,,,,734.836555115995,734.836555115995,734.836555115995,734.836555115995,736.3450255850039,736.3450255850039,736.3450255850039,736.3450255850039,736.3450255850039,736.3450255850039,736.3450255850039,736.3450255850039,repeat,number,numRpt,k,1.0634142899943981,vtsPrac,737.4294641139859,,,,,,,,,,,,,,,,,,,,,,,,,,,,,12321,2022-11-10_14h08.33.697,vts_reward_expectancy_bt_OFFLINE,2022.2.4,59.9410599535448,
,,,,,,,,,,,,,,,,,,,,,,,,,,,,,,,,,,0,0,0,0,7,0,7,0,,,,,,,,,,,,,,,,,,,,,,,,,,,,0,981,,,743.7696819120029,,,W,146,star,0.0017439560033380985,,,,,1,0,,,2,,,,,,,,739.9086571819789,739.9086571819789,739.9086571819789,739.9086571819789,741.4171362609777,741.4171362609777,741.4171362609777,741.4171362609777,741.4171362609777,741.4171362609777,741.4171362609777,741.4171362609777,switch,letter,lettSwt,f,0.8191660140291788,vtsPrac,742.2681121100031,,,,,,,,,,,,,,,,,,,,,,,,,,,,,12321,2022-11-10_14h08.33.697,vts_reward_expectancy_bt_OFFLINE,2022.2.4,59.9410599535448,
,,,,,,,,,,,,,,,,,,,,,,,,,,,,,,,,,,0,0,0,0,8,0,8,0,,,,,,,,,,,,,,,,,,,,,,,,,,,,0,981,,,748.7253698209825,,,D,160,hexagon,0.0015949149965308607,,,,,1,0,,,2,,,,,,,,744.7473234299978,744.7473234299978,744.7473234299978,744.7473234299978,746.2558897419949,746.2558897419949,746.2558897419949,746.2558897419949,746.2558897419949,746.2558897419949,746.2558897419949,746.2558897419949,switch,number,numSwt,k,0.9401410539867356,vtsPrac,747.2236065299949,,,,,,,,,,,,,,,,,,,,,,,,,,,,,12321,2022-11-10_14h08.33.697,vts_reward_expectancy_bt_OFFLINE,2022.2.4,59.9410599535448,
,,,,,,,,,,,,,,,,,,,,,,,,,,,,,,,,,,0,0,0,0,9,0,9,0,,,,,,,,,,,,,,,,,,,,,,,,,,,,0,981,,,753.7477853199816,,,H,174,triangle,0.0017677109863143414,,,,,1,0,,,2,,,,,,,,749.7030719309987,749.7030719309987,749.7030719309987,749.7030719309987,751.2114783729776,751.2114783729776,751.2114783729776,751.2114783729776,751.2114783729776,751.2114783729776,751.2114783729776,751.2114783729776,repeat,number,numRpt,k,1.0027603740163613,vtsPrac,752.2458832190023,,,,,,,,,,,,,,,,,,,,,,,,,,,,,12321,2022-11-10_14h08.33.697,vts_reward_expectancy_bt_OFFLINE,2022.2.4,59.9410599535448,
,,,,,,,,,,,,,,,,,,,,,,,,,,,,,,,,,,0,0,0,0,10,0,10,0,,,,,,,,,,,,,,,,,,,,,,,,,,,,0,981,,,759.4205387090042,,,Y,167,hexagon,0.0018682370136957616,,,,,1,0,,,2,,,,,,,,754.7260642740002,754.7260642740002,754.7260642740002,754.7260642740002,756.2336118889798,756.2336118889798,756.2336118889798,756.2336118889798,756.2336118889798,756.2336118889798,756.2336118889798,756.2336118889798,repeat,number,numRpt,k,1.6529048430093098,vtsPrac,757.91883405298,,,,,,,,,,,,,,,,,,,,,,,,,,,,,12321,2022-11-10_14h08.33.697,vts_reward_expectancy_bt_OFFLINE,2022.2.4,59.9410599535448,
,,,,,,,,,,,,,,,,,,,,,,,,,,,,,,,,,,0,0,0,0,11,0,11,0,,,,,,,,,,,,,,,,,,,,,,,,,,,,0,981,,,764.1924540739856,,,B,139,circle,0.00140445600845851,,,,,1,0,,,2,,,,,,,,760.4003349629929,760.4003349629929,760.4003349629929,760.4003349629929,761.9064877579804,761.9064877579804,761.9064877579804,761.9064877579804,761.9064877579804,761.9064877579804,761.9064877579804,761.9064877579804,switch,letter,lettSwt,d,0.7587867150141392,vtsPrac,762.6906936909945,,,,,,,,,,,,,,,,,,,,,,,,,,,,,12321,2022-11-10_14h08.33.697,vts_reward_expectancy_bt_OFFLINE,2022.2.4,59.9410599535448,
,,,,,,,,,,,,,,,,,,,,,,,,,,,,,,,,,,0,0,0,0,12,0,12,0,,,,,,,,,,,,,,,,,,,,,,,,,,,,0,981,,,768.9475096940005,,,W,174,circle,0.0014915339997969568,,,,,1,0,,,2,,,,,,,,765.1697580759937,765.1697580759937,765.1697580759937,765.1697580759937,766.6786665009859,766.6786665009859,766.6786665009859,766.6786665009859,766.6786665009859,766.6786665009859,766.6786665009859,766.6786665009859,repeat,letter,lettRpt,f,0.7465367410040926,vtsPrac,767.4459298109869,,,,,,,,,,,,,,,,,,,,,,,,,,,,,12321,2022-11-10_14h08.33.697,vts_reward_expectancy_bt_OFFLINE,2022.2.4,59.9410599535448,
,,,,,,,,,,,,,,,,,,,,,,,,,,,,,,,,,,0,0,0,0,13,0,13,0,,,,,,,,,,,,,,,,,,,,,,,,,,,,0,981,,,774.5703803669894,,,B,132,star,0.001670147990807891,,,,,1,0,,,2,,,,,,,,769.9250744209858,769.9250744209858,769.9250744209858,769.9250744209858,771.4337900419778,771.4337900419778,771.4337900419778,771.4337900419778,771.4337900419778,771.4337900419778,771.4337900419778,771.4337900419778,switch,number,numSwt,j,1.6038643460196909,vtsPrac,773.0687207499868,,,,,,,,,,,,,,,,,,,,,,,,,,,,,12321,2022-11-10_14h08.33.697,vts_reward_expectancy_bt_OFFLINE,2022.2.4,59.9410599535448,
,,,,,,,,,,,,,,,,,,,,,,,,,,,,,,,,,,0,0,0,0,14,0,14,0,,,,,,,,,,,,,,,,,,,,,,,,,,,,0,981,,,781.4114481860015,,,H,160,triangle,0.0013564589899033308,,,,,1,0,,,2,,,,,,,,775.5479754770058,775.5479754770058,775.5479754770058,775.5479754770058,777.0565191640053,777.0565191640053,777.0565191640053,777.0565191640053,777.0565191640053,777.0565191640053,777.0565191640053,777.0565191640053,repeat,number,numRpt,k,2.8340230650210287,vtsPrac,779.9099643630034,,,,,,,,,,,,,,,,,,,,,,,,,,,,,12321,2022-11-10_14h08.33.697,vts_reward_expectancy_bt_OFFLINE,2022.2.4,59.9410599535448,
,,,,,,,,,,,,,,,,,,,,,,,,,,,,,,,,,,0,0,0,0,15,0,15,0,,,,,,,,,,,,,,,,,,,,,,,,,,,,0,981,,,786.3499572229921,,,S,139,star,0.0012432040239218622,,,,,1,0,,,2,,,,,,,,782.3886843019864,782.3886843019864,782.3886843019864,782.3886843019864,783.8973540400038,783.8973540400038,783.8973540400038,783.8973540400038,783.8973540400038,783.8973540400038,783.8973540400038,783.8973540400038,switch,letter,lettSwt,f,0.9193765250383876,vtsPrac,784.8484574609902,,,,,,,,,,,,,,,,,,,,,,,,,,,,,12321,2022-11-10_14h08.33.697,vts_reward_expectancy_bt_OFFLINE,2022.2.4,59.9410599535448,
,,,,,,,,,,,,,,,,,,,,,,,,,,,,,,,,,,0,0,0,0,16,0,16,0,,,,,,,,,,,,,,,,,,,,,,,,,,,,0,981,,,791.4723731889972,,,W,132,star,0.0014557150134351104,,,,,1,0,,,2,,,,,,,,787.3273112860043,787.3273112860043,787.3273112860043,787.3273112860043,788.8361759599939,788.8361759599939,788.8361759599939,788.8361759599939,788.8361759599939,788.8361759599939,788.8361759599939,788.8361759599939,repeat,letter,lettRpt,f,1.1024948300037067,vtsPrac,789.97075369698,,,,,,,,,,,,,,,,,,,,,,,,,,,,,12321,2022-11-10_14h08.33.697,vts_reward_expectancy_bt_OFFLINE,2022.2.4,59.9410599535448,
,,,,,,,,,,,,,,,,,,,,,,,,,,,,,,,,,,0,0,0,0,17,0,17,0,,,,,,,,,,,,,,,,,,,,,,,,,,,,0,981,,,796.8116032159887,,,S,181,triangle,0.0016314980166498572,,,,,1,0,,,2,,,,,,,,792.4498918939789,792.4498918939789,792.4498918939789,792.4498918939789,793.9584955860046,793.9584955860046,793.9584955860046,793.9584955860046,793.9584955860046,793.9584955860046,793.9584955860046,793.9584955860046,switch,number,numSwt,k,1.3350561300176196,vtsPrac,795.3100718449859,796.8116032159887,,,,,,,,,,,,,,,,,,,,,,,,,,,,12321,2022-11-10_14h08.33.697,vts_reward_expectancy_bt_OFFLINE,2022.2.4,59.9410599535448,
,,,,,,,,,,,,,,,,,,,,,,,,,,,,,,,,,,0,0,0,0,18,0,18,0,,,,,,,,,,,,,,,,,,,,,,,,,,,,0,981,,,802.1675658329914,,,Y,139,star,0.0009735219937283546,,,,,1,0,,,2,,,,,,,,797.7889925269992,797.7889925269992,797.7889925269992,797.7889925269992,799.2980031039915,799.2980031039915,799.2980031039915,799.2980031039915,799.2980031039915,799.2980031039915,799.2980031039915,799.2980031039915,repeat,number,numRpt,j,1.33674216302461,vtsPrac,800.6660683469963,,,,,,,,,,,,,,,,,,,,,,,,,,,,,12321,2022-11-10_14h08.33.697,vts_reward_expectancy_bt_OFFLINE,2022.2.4,59.9410599535448,
,,,,,,,,,,,,,,,,,,,,,,,,,,,,,,,,,,0,0,0,0,19,0,19,0,,,,,,,,,,,,,,,,,,,,,,,,,,,,0,981,,,807.389938430977,,,F,160,hexagon,0.0016674009966664016,,,,,1,0,,,2,,,,,,,,803.1456299329875,803.1456299329875,803.1456299329875,803.1456299329875,804.6540510799969,804.6540510799969,804.6540510799969,804.6540510799969,804.6540510799969,804.6540510799969,804.6540510799969,804.6540510799969,repeat,number,numRpt,k,1.2124836160219274,vtsPrac,805.888790603989,,,,,,,,,,,,,,,,,,,,,,,,,,,,,12321,2022-11-10_14h08.33.697,vts_reward_expectancy_bt_OFFLINE,2022.2.4,59.9410599535448,
,,,,,,,,,,,,,,,,,,,,,,,,,,,,,,,,,,0,0,0,0,20,0,20,0,,,,,,,,,,,,,,,,,,,,,,,,,,,,0,981,,,812.9296541599906,,,H,125,triangle,0.0014342369977384806,,,,,1,0,,,2,,,,,,,,808.368511720997,808.368511720997,808.368511720997,808.368511720997,809.8761056829826,809.8761056829826,809.8761056829826,809.8761056829826,809.8761056829826,809.8761056829826,809.8761056829826,809.8761056829826,switch,letter,lettSwt,d,1.5256489700113889,vtsPrac,811.4277759660035,,,,,,,,,,,,,,,,,,,,,,,,,,,,,12321,2022-11-10_14h08.33.697,vts_reward_expectancy_bt_OFFLINE,2022.2.4,59.9410599535448,
,,,,,,,,,,,,,,,,,,,,,,,,,,,,,,,,,,0,0,0,0,21,0,21,0,,,,,,,,,,,,,,,,,,,,,,,,,,,,0,981,,,817.7512248439889,,,Y,174,hexagon,0.0016930669953580946,,,,,1,0,,,2,,,,,,,,813.9060699209804,813.9060699209804,813.9060699209804,813.9060699209804,815.4157359639939,815.4157359639939,815.4157359639939,815.4157359639939,815.4157359639939,815.4157359639939,815.4157359639939,815.4157359639939,repeat,letter,lettRpt,f,0.8121623110200744,vtsPrac,816.2498470679857,,,,,,,,,,,,,,,,,,,,,,,,,,,,,12321,2022-11-10_14h08.33.697,vts_reward_expectancy_bt_OFFLINE,2022.2.4,59.9410599535448,
,,,,,,,,,,,,,,,,,,,,,,,,,,,,,,,,,,0,0,0,0,22,0,22,0,,,,,,,,,,,,,,,,,,,,,,,,,,,,0,981,,,822.6736586949846,,,W,132,triangle,0.0015168639947660267,,,,,1,0,,,2,,,,,,,,818.7282265499816,818.7282265499816,818.7282265499816,818.7282265499816,820.2374916919798,820.2374916919798,820.2374916919798,820.2374916919798,820.2374916919798,820.2374916919798,820.2374916919798,820.2374916919798,switch,number,numSwt,j,0.9069138900085818,vtsPrac,821.1718017999956,,,,,,,,,,,,,,,,,,,,,,,,,,,,,12321,2022-11-10_14h08.33.697,vts_reward_expectancy_bt_OFFLINE,2022.2.4,59.9410599535448,
,,,,,,,,,,,,,,,,,,,,,,,,,,,,,,,,,,0,0,0,0,23,0,23,0,,,,,,,,,,,,,,,,,,,,,,,,,,,,0,981,,,827.4122107129951,,,B,167,hexagon,0.0018139219901058823,,,,,1,0,,,2,,,,,,,,823.6516513029928,823.6516513029928,823.6516513029928,823.6516513029928,825.1597802889883,825.1597802889883,825.1597802889883,825.1597802889883,825.1597802889883,825.1597802889883,825.1597802889883,825.1597802889883,switch,letter,lettSwt,d,0.722494022018509,vtsPrac,825.9104753989959,,,,,,,,,,,,,,,,,,,,,,,,,,,,,12321,2022-11-10_14h08.33.697,vts_reward_expectancy_bt_OFFLINE,2022.2.4,59.9410599535448,
,,,,,,,,,,,,,,,,,,,,,,,,,,,,,,,,,,0,0,0,0,24,0,24,0,,,,,,,,,,,,,,,,,,,,,,,,,,,,0,981,,,832.3675116859959,,,F,167,star,0.0016789910150691867,,,,,1,0,,,2,,,,,,,,828.3895193490025,828.3895193490025,828.3895193490025,828.3895193490025,829.8981714269903,829.8981714269903,829.8981714269903,829.8981714269903,829.8981714269903,829.8981714269903,829.8981714269903,829.8981714269903,repeat,letter,lettRpt,d,0.9352290389942937,vtsPrac,830.8659890879935,,,,,,,,,,,,,,,,,,,,,,,,,,,,,12321,2022-11-10_14h08.33.697,vts_reward_expectancy_bt_OFFLINE,2022.2.4,59.9410599535448,
,,,,,,,,,,,,,,,,,,,,,,,,,,,,,,,,,,0,0,0,0,25,0,25,0,,,,,,,,,,,,,,,,,,,,,,,,,,,,0,981,,,837.1895749149844,,,B,160,triangle,0.001643072027945891,,,,,1,0,,,2,,,,,,,,833.3451060880034,833.3451060880034,833.3451060880034,833.3451060880034,834.8535317979986,834.8535317979986,834.8535317979986,834.8535317979986,834.8535317979986,834.8535317979986,834.8535317979986,834.8535317979986,repeat,letter,lettRpt,d,0.8161427350132726,vtsPrac,835.6877932100033,837.1895749149844,,,,,,,,,,,,,,,,,,,,,,,,,,,,12321,2022-11-10_14h08.33.697,vts_reward_expectancy_bt_OFFLINE,2022.2.4,59.9410599535448,
,,,,,,,,,,,,,,,,,,,,,,,,,,,,,,,,,,0,0,0,0,26,0,26,0,,,,,,,,,,,,,,,,,,,,,,,,,,,,0,981,,,842.8458112959925,,,D,132,triangle,0.0009309320012107491,,,,,1,0,,,2,,,,,,,,838.1664067009988,838.1664067009988,838.1664067009988,838.1664067009988,839.6755971399834,839.6755971399834,839.6755971399834,839.6755971399834,839.6755971399834,839.6755971399834,839.6755971399834,839.6755971399834,switch,number,numSwt,j,1.6410804070183076,vtsPrac,841.3439683849865,,,,,,,,,,,,,,,,,,,,,,,,,,,,,12321,2022-11-10_14h08.33.697,vts_reward_expectancy_bt_OFFLINE,2022.2.4,59.9410599535448,
,,,,,,,,,,,,,,,,,,,,,,,,,,,,,,,,,,0,0,0,0,27,0,27,0,,,,,,,,,,,,,,,,,,,,,,,,,,,,0,981,,,847.517902594991,,,W,125,circle,0.0018014000088442117,,,,,1,0,,,2,,,,,,,,843.8233484119992,843.8233484119992,843.8233484119992,843.8233484119992,845.3319086179836,845.3319086179836,845.3319086179836,845.3319086179836,845.3319086179836,845.3319086179836,845.3319086179836,845.3319086179836,repeat,number,numRpt,j,0.6675336660409812,vtsPrac,846.010078094987,,,,,,,,,,,,,,,,,,,,,,,,,,,,,12321,2022-11-10_14h08.33.697,vts_reward_expectancy_bt_OFFLINE,2022.2.4,59.9410599535448,
,,,,,,,,,,,,,,,,,,,,,,,,,,,,,,,,,,0,0,0,0,28,0,28,0,,,,,,,,,,,,,,,,,,,,,,,,,,,,0,981,,,852.7901249429851,,,F,174,triangle,0.0013709609920624644,,,,,1,0,,,2,,,,,,,,848.495467560977,848.495467560977,848.495467560977,848.495467560977,850.0036272869911,850.0036272869911,850.0036272869911,850.0036272869911,850.0036272869911,850.0036272869911,850.0036272869911,850.0036272869911,switch,letter,lettSwt,d,1.2586620800138917,vtsPrac,851.2886403239972,,,,,,,,,,,,,,,,,,,,,,,,,,,,,12321,2022-11-10_14h08.33.697,vts_reward_expectancy_bt_OFFLINE,2022.2.4,59.9410599535448,
,,,,,,,,,,,,,,,,,,,,,,,,,,,,,,,,,,0,0,0,0,29,0,29,0,,,,,,,,,,,,,,,,,,,,,,,,,,,,0,981,,,858.1964043729822,,,U,181,star,0.0015482790186069906,,,,,1,0,,,2,,,,,,,,853.767811622005,853.767811622005,853.767811622005,853.767811622005,855.2763688209816,855.2763688209816,855.2763688209816,855.2763688209816,855.2763688209816,855.2763688209816,855.2763688209816,855.2763688209816,repeat,letter,lettRpt,f,1.3970159410091583,vtsPrac,856.6945047039771,,,,,,,,,,,,,,,,,,,,,,,,,,,,,12321,2022-11-10_14h08.33.697,vts_reward_expectancy_bt_OFFLINE,2022.2.4,59.9410599535448,
,,,,,,,,,,,,,,,,,,,,,,,,,,,,,,,,,,0,0,0,0,30,0,30,0,,,,,,,,,,,,,,,,,,,,,,,,,,,,0,981,,,863.3517032579985,,,Y,146,star,0.0017167160112876445,,,,,1,0,,,2,,,,,,,,859.173515300994,859.173515300994,859.173515300994,859.173515300994,860.6822295330057,860.6822295330057,860.6822295330057,860.6822295330057,860.6822295330057,860.6822295330057,860.6822295330057,860.6822295330057,repeat,letter,lettRpt,f,1.1437281410035212,vtsPrac,861.8501789449947,,,,,,,,,,,,,,,,,,,,,,,,,,,,,12321,2022-11-10_14h08.33.697,vts_reward_expectancy_bt_OFFLINE,2022.2.4,59.9410599535448,
