LTriangleOpac,LCircleOpac,LHexagonOpac,LStarOpac,RTriangleOpac,RCircleOpac,RHexagonOpac,RStarOpac,LShape_ID,RShape_ID,training_blocks.thisRepN,training_blocks.thisTrialN,training_blocks.thisN,training_blocks.thisIndex,training.thisRepN,training.thisTrialN,training.thisN,training.thisIndex,task1_prac_redo.thisRepN,task1_prac_redo.thisTrialN,task1_prac_redo.thisN,task1_prac_redo.thisIndex,task1_prac_trials.thisRepN,task1_prac_trials.thisTrialN,task1_prac_trials.thisN,task1_prac_trials.thisIndex,task2_prac_redo.thisRepN,task2_prac_redo.thisTrialN,task2_prac_redo.thisN,task2_prac_redo.thisIndex,task2_praac_trials.thisRepN,task2_praac_trials.thisTrialN,task2_praac_trials.thisN,task2_praac_trials.thisIndex,vts_prac_redo.thisRepN,vts_prac_redo.thisTrialN,vts_prac_redo.thisN,vts_prac_redo.thisIndex,vts_practice_trials.thisRepN,vts_practice_trials.thisTrialN,vts_practice_trials.thisN,vts_practice_trials.thisIndex,trials_norew.thisRepN,trials_norew.thisTrialN,trials_norew.thisN,trials_norew.thisIndex,block.thisRepN,block.thisTrialN,block.thisN,block.thisIndex,trials_rew.thisRepN,trials_rew.thisTrialN,trials_rew.thisN,trials_rew.thisIndex,key_resp.started,key_resp.keys,key_resp.rt,left_circle.started,right_circle.started,left_triangle.started,right_triangle.started,left_star.started,right_star.started,left_hexagon.started,right_hexagon.started,training_fix.started,training_resp.started,training_resp.keys,training_resp.rt,points_trial,points_cumul,trainBlock,training_feedback_txt.started,training_feedback_txt.stopped,fix.started,fix.stopped,curr_topStim,curr_bottStim,curr_shape,ISI.started,tgt_fix_prac1.started,top_target_prac1.started,bott_target_prac1.started,target_resp_prac1.started,acc,E1,target_resp_prac1.keys,target_resp_prac1.rt,pracBlock,prac_fback_text.started,prac_fback_text.stopped,tgt_fix_prac2.started,top_target_prac2.started,bott_target_prac2.started,target_resp_prac2.started,target_resp_prac2.keys,target_resp_prac2.rt,star.started,hegagon.started,triangle.started,circle.started,top_target.started,tgt_fix.started,bot_target.started,target_resp.started,star.stopped,hegagon.stopped,triangle.stopped,circle.stopped,alt,task,condition,target_resp.keys,target_resp.rt,rewCond,vts_fback.started,vts_fback.stopped,blockNum,norew_fback.started,norew_fback.stopped,top_target.stopped,tgt_fix.stopped,bot_target.stopped,target_resp.stopped,key_resp_2.keys,key_resp_2.rt,rewExpectancy,feedbk_text.started,feedbk_text.stopped,text_3.started,text_3.stopped,button.started,debrief.index,debrief.itemText,debrief.type,debrief.granularity,debrief.font,debrief.markerColor,debrief.response,debrief.rt,button.numClicks,button.timesOn,button.timesOff,participant,date,expName,psychopyVersion,frameRate,
,,,,,,,,,,,,,,,,,,,,,,,,,,,,,,,,,,,,,,,,,,,,,,,,,,,,,,34.13033281604294,space,26.270486628985964,,,,,,,,,,,,,,,,,,,,,,,,,,,,,,,,,,,,,,,,,,,,,,,,,,,,,,,,,,,,,,,,,,,,,,,,,,,,,,,,,,,,,,,12431,2022-10-31_10h44.42.806,vts_reward_expectancy_bt_OFFLINE,2022.2.4,60.05725992252821,
0,1,0,0,0,0,1,0,circle,hexagon,0,0,0,0,0,0,0,4,,,,,,,,,,,,,,,,,,,,,,,,,,,,,,,,,,,,,,,,86.29445348202717,86.29445348202717,86.29445348202717,86.29445348202717,86.29445348202717,86.29445348202717,86.29445348202717,86.29445348202717,86.29445348202717,86.29445348202717,l,1.513069815991912,1,1,0,87.8368624690338,89.33612756599905,89.33612756599905,89.83607271802612,,,,,,,,,,,,,,,,,,,,,,,,,,,,,,,,,,,,,,,,,,,,,,,,,,,,,,,,,,,,,,,,,,,,12431,2022-10-31_10h44.42.806,vts_reward_expectancy_bt_OFFLINE,2022.2.4,60.05725992252821,
0,0,0,1,0,1,0,0,star ,circle,0,0,0,0,0,1,1,10,,,,,,,,,,,,,,,,,,,,,,,,,,,,,,,,,,,,,,,,89.83607271802612,89.83607271802612,89.83607271802612,89.83607271802612,89.83607271802612,89.83607271802612,89.83607271802612,89.83607271802612,89.83607271802612,89.83607271802612,a,1.6922242699656636,1,2,0,91.55386902601458,,93.05598536803154,,,,,,,,,,,,,,,,,,,,,,,,,,,,,,,,,,,,,,,,,,,,,,,,,,,,,,,,,,,,,,,,,,,,,12431,2022-10-31_10h44.42.806,vts_reward_expectancy_bt_OFFLINE,2022.2.4,60.05725992252821,
1,0,0,0,0,0,0,1,triangle,star,0,0,0,0,0,2,2,2,,,,,,,,,,,,,,,,,,,,,,,,,,,,,,,,,,,,,,,,93.5559986930457,93.5559986930457,93.5559986930457,93.5559986930457,93.5559986930457,93.5559986930457,93.5559986930457,93.5559986930457,93.5559986930457,93.5559986930457,a,1.2920575669850223,1,3,0,94.87329960102215,96.37384766200557,96.37384766200557,96.8737693260191,,,,,,,,,,,,,,,,,,,,,,,,,,,,,,,,,,,,,,,,,,,,,,,,,,,,,,,,,,,,,,,,,,,,12431,2022-10-31_10h44.42.806,vts_reward_expectancy_bt_OFFLINE,2022.2.4,60.05725992252821,
0,0,0,1,0,0,1,0,star,hexagon,0,0,0,0,0,3,3,11,,,,,,,,,,,,,,,,,,,,,,,,,,,,,,,,,,,,,,,,96.8737693260191,96.8737693260191,96.8737693260191,96.8737693260191,96.8737693260191,96.8737693260191,96.8737693260191,96.8737693260191,96.8737693260191,96.8737693260191,l,0.822554683953058,10,13,0,97.72809997404693,,99.2432982600294,,,,,,,,,,,,,,,,,,,,,,,,,,,,,,,,,,,,,,,,,,,,,,,,,,,,,,,,,,,,,,,,,,,,,12431,2022-10-31_10h44.42.806,vts_reward_expectancy_bt_OFFLINE,2022.2.4,60.05725992252821,
0,0,1,0,0,0,0,1,hexagon,star,0,0,0,0,0,4,4,8,,,,,,,,,,,,,,,,,,,,,,,,,,,,,,,,,,,,,,,,99.74361456604674,99.74361456604674,99.74361456604674,99.74361456604674,99.74361456604674,99.74361456604674,99.74361456604674,99.74361456604674,99.74361456604674,99.74361456604674,a,0.9519132219720632,1,14,0,100.72706430702237,,102.22949942102423,,,,,,,,,,,,,,,,,,,,,,,,,,,,,,,,,,,,,,,,,,,,,,,,,,,,,,,,,,,,,,,,,,,,,12431,2022-10-31_10h44.42.806,vts_reward_expectancy_bt_OFFLINE,2022.2.4,60.05725992252821,
0,1,0,0,1,0,0,0,circle,triangle,0,0,0,0,0,5,5,3,,,,,,,,,,,,,,,,,,,,,,,,,,,,,,,,,,,,,,,,102.72947661101352,102.72947661101352,102.72947661101352,102.72947661101352,102.72947661101352,102.72947661101352,102.72947661101352,102.72947661101352,102.72947661101352,102.72947661101352,a,0.8310890709981322,10,24,0,103.58024404704338,105.08054826303851,105.08054826303851,105.58072151103988,,,,,,,,,,,,,,,,,,,,,,,,,,,,,,,,,,,,,,,,,,,,,,,,,,,,,,,,,,,,,,,,,,,,12431,2022-10-31_10h44.42.806,vts_reward_expectancy_bt_OFFLINE,2022.2.4,60.05725992252821,
0,0,1,0,1,0,0,0,hexagon,triangle,0,0,0,0,0,6,6,6,,,,,,,,,,,,,,,,,,,,,,,,,,,,,,,,,,,,,,,,105.58072151103988,105.58072151103988,105.58072151103988,105.58072151103988,105.58072151103988,105.58072151103988,105.58072151103988,105.58072151103988,105.58072151103988,105.58072151103988,l,1.2277013239799999,1,25,0,106.83179044205463,,108.33353879500646,,,,,,,,,,,,,,,,,,,,,,,,,,,,,,,,,,,,,,,,,,,,,,,,,,,,,,,,,,,,,,,,,,,,,12431,2022-10-31_10h44.42.806,vts_reward_expectancy_bt_OFFLINE,2022.2.4,60.05725992252821,
0,0,0,1,1,0,0,0,star,triangle,0,0,0,0,0,7,7,9,,,,,,,,,,,,,,,,,,,,,,,,,,,,,,,,,,,,,,,,108.8339775740169,108.8339775740169,108.8339775740169,108.8339775740169,108.8339775740169,108.8339775740169,108.8339775740169,108.8339775740169,108.8339775740169,108.8339775740169,l,1.1025603839661926,1,26,0,109.96812340902397,,111.46834930201294,,,,,,,,,,,,,,,,,,,,,,,,,,,,,,,,,,,,,,,,,,,,,,,,,,,,,,,,,,,,,,,,,,,,,12431,2022-10-31_10h44.42.806,vts_reward_expectancy_bt_OFFLINE,2022.2.4,60.05725992252821,
0,1,0,0,0,0,0,1,circle,star,0,0,0,0,0,8,8,5,,,,,,,,,,,,,,,,,,,,,,,,,,,,,,,,,,,,,,,,111.9685787630151,111.9685787630151,111.9685787630151,111.9685787630151,111.9685787630151,111.9685787630151,111.9685787630151,111.9685787630151,111.9685787630151,111.9685787630151,a,1.2558538199518807,10,36,0,113.25498341600178,114.75481664203107,114.75481664203107,115.25481812504586,,,,,,,,,,,,,,,,,,,,,,,,,,,,,,,,,,,,,,,,,,,,,,,,,,,,,,,,,,,,,,,,,,,,12431,2022-10-31_10h44.42.806,vts_reward_expectancy_bt_OFFLINE,2022.2.4,60.05725992252821,
0,0,1,0,0,1,0,0,hexagon,circle,0,0,0,0,0,9,9,7,,,,,,,,,,,,,,,,,,,,,,,,,,,,,,,,,,,,,,,,115.25481812504586,115.25481812504586,115.25481812504586,115.25481812504586,115.25481812504586,115.25481812504586,115.25481812504586,115.25481812504586,115.25481812504586,115.25481812504586,l,0.4970699969562702,10,46,0,115.77145556401229,,117.27389836701332,,,,,,,,,,,,,,,,,,,,,,,,,,,,,,,,,,,,,,,,,,,,,,,,,,,,,,,,,,,,,,,,,,,,,12431,2022-10-31_10h44.42.806,vts_reward_expectancy_bt_OFFLINE,2022.2.4,60.05725992252821,
1,0,0,0,0,1,0,0,triangle,circle,0,0,0,0,0,10,10,0,,,,,,,,,,,,,,,,,,,,,,,,,,,,,,,,,,,,,,,,117.77429905103054,117.77429905103054,117.77429905103054,117.77429905103054,117.77429905103054,117.77429905103054,117.77429905103054,117.77429905103054,117.77429905103054,117.77429905103054,l,0.44171702896710485,10,56,0,118.24077326402767,119.7412341630552,119.7412341630552,120.24147709202953,,,,,,,,,,,,,,,,,,,,,,,,,,,,,,,,,,,,,,,,,,,,,,,,,,,,,,,,,,,,,,,,,,,,12431,2022-10-31_10h44.42.806,vts_reward_expectancy_bt_OFFLINE,2022.2.4,60.05725992252821,
1,0,0,0,0,0,1,0,triangle,hexagon,0,0,0,0,0,11,11,1,,,,,,,,,,,,,,,,,,,,,,,,,,,,,,,,,,,,,,,,120.24147709202953,120.24147709202953,120.24147709202953,120.24147709202953,120.24147709202953,120.24147709202953,120.24147709202953,120.24147709202953,120.24147709202953,120.24147709202953,l,1.5267626339918934,1,57,0,121.79329811205389,,123.29447062202962,,,,,,,,,,,,,,,,,,,,,,,,,,,,,,,,,,,,,,,,,,,,,,,,,,,,,,,,,,,,,,,,,,,,,12431,2022-10-31_10h44.42.806,vts_reward_expectancy_bt_OFFLINE,2022.2.4,60.05725992252821,
0,1,0,0,0,0,0,1,circle,star,0,0,0,0,1,0,12,5,,,,,,,,,,,,,,,,,,,,,,,,,,,,,,,,,,,,,,,,123.79456132702762,123.79456132702762,123.79456132702762,123.79456132702762,123.79456132702762,123.79456132702762,123.79456132702762,123.79456132702762,123.79456132702762,123.79456132702762,a,0.6288665329338983,10,67,0,124.44588291802211,125.94558070902713,125.94558070902713,126.4457011190243,,,,,,,,,,,,,,,,,,,,,,,,,,,,,,,,,,,,,,,,,,,,,,,,,,,,,,,,,,,,,,,,,,,,12431,2022-10-31_10h44.42.806,vts_reward_expectancy_bt_OFFLINE,2022.2.4,60.05725992252821,
0,0,1,0,0,1,0,0,hexagon,circle,0,0,0,0,1,1,13,7,,,,,,,,,,,,,,,,,,,,,,,,,,,,,,,,,,,,,,,,126.4457011190243,126.4457011190243,126.4457011190243,126.4457011190243,126.4457011190243,126.4457011190243,126.4457011190243,126.4457011190243,126.4457011190243,126.4457011190243,l,0.4270593809778802,1,68,0,126.89638666604878,,128.3980616540066,,,,,,,,,,,,,,,,,,,,,,,,,,,,,,,,,,,,,,,,,,,,,,,,,,,,,,,,,,,,,,,,,,,,,12431,2022-10-31_10h44.42.806,vts_reward_expectancy_bt_OFFLINE,2022.2.4,60.05725992252821,
0,0,0,1,0,1,0,0,star ,circle,0,0,0,0,1,2,14,10,,,,,,,,,,,,,,,,,,,,,,,,,,,,,,,,,,,,,,,,128.89856948703527,128.89856948703527,128.89856948703527,128.89856948703527,128.89856948703527,128.89856948703527,128.89856948703527,128.89856948703527,128.89856948703527,128.89856948703527,l,0.42906272294931114,10,78,0,129.3489458730328,130.8492565700435,130.8492565700435,131.3492966190097,,,,,,,,,,,,,,,,,,,,,,,,,,,,,,,,,,,,,,,,,,,,,,,,,,,,,,,,,,,,,,,,,,,,12431,2022-10-31_10h44.42.806,vts_reward_expectancy_bt_OFFLINE,2022.2.4,60.05725992252821,
1,0,0,0,0,0,1,0,triangle,hexagon,0,0,0,0,1,3,15,1,,,,,,,,,,,,,,,,,,,,,,,,,,,,,,,,,,,,,,,,131.3492966190097,131.3492966190097,131.3492966190097,131.3492966190097,131.3492966190097,131.3492966190097,131.3492966190097,131.3492966190097,131.3492966190097,131.3492966190097,l,0.8990488469717093,1,79,0,132.26845544204116,133.76880637201248,133.76880637201248,,,,,,,,,,,,,,,,,,,,,,,,,,,,,,,,,,,,,,,,,,,,,,,,,,,,,,,,,,,,,,,,,,,,,12431,2022-10-31_10h44.42.806,vts_reward_expectancy_bt_OFFLINE,2022.2.4,60.05725992252821,
0,0,0,1,0,0,1,0,star,hexagon,0,0,0,0,1,4,16,11,,,,,,,,,,,,,,,,,,,,,,,,,,,,,,,,,,,,,,,,134.2693765660515,134.2693765660515,134.2693765660515,134.2693765660515,134.2693765660515,134.2693765660515,134.2693765660515,134.2693765660515,134.2693765660515,134.2693765660515,a,1.090609909966588,10,89,0,135.38658412802033,,136.88646633905591,,,,,,,,,,,,,,,,,,,,,,,,,,,,,,,,,,,,,,,,,,,,,,,,,,,,,,,,,,,,,,,,,,,,,12431,2022-10-31_10h44.42.806,vts_reward_expectancy_bt_OFFLINE,2022.2.4,60.05725992252821,
0,1,0,0,0,0,1,0,circle,hexagon,0,0,0,0,1,5,17,4,,,,,,,,,,,,,,,,,,,,,,,,,,,,,,,,,,,,,,,,137.38875713403104,137.38875713403104,137.38875713403104,137.38875713403104,137.38875713403104,137.38875713403104,137.38875713403104,137.38875713403104,137.38875713403104,137.38875713403104,a,0.7230508119682781,10,99,0,138.1388741940027,139.63959030405385,139.63959030405385,140.13984902499942,,,,,,,,,,,,,,,,,,,,,,,,,,,,,,,,,,,,,,,,,,,,,,,,,,,,,,,,,,,,,,,,,,,,12431,2022-10-31_10h44.42.806,vts_reward_expectancy_bt_OFFLINE,2022.2.4,60.05725992252821,
0,0,1,0,1,0,0,0,hexagon,triangle,0,0,0,0,1,6,18,6,,,,,,,,,,,,,,,,,,,,,,,,,,,,,,,,,,,,,,,,140.13984902499942,140.13984902499942,140.13984902499942,140.13984902499942,140.13984902499942,140.13984902499942,140.13984902499942,140.13984902499942,140.13984902499942,140.13984902499942,a,0.9242810029536486,1,100,0,141.0907822130248,,142.5919280850212,,,,,,,,,,,,,,,,,,,,,,,,,,,,,,,,,,,,,,,,,,,,,,,,,,,,,,,,,,,,,,,,,,,,,12431,2022-10-31_10h44.42.806,vts_reward_expectancy_bt_OFFLINE,2022.2.4,60.05725992252821,
1,0,0,0,0,0,0,1,triangle,star,0,0,0,0,1,7,19,2,,,,,,,,,,,,,,,,,,,,,,,,,,,,,,,,,,,,,,,,143.0922855079989,143.0922855079989,143.0922855079989,143.0922855079989,143.0922855079989,143.0922855079989,143.0922855079989,143.0922855079989,143.0922855079989,143.0922855079989,l,0.908102388959378,1,101,0,144.02607031201478,145.52703361201566,145.52703361201566,146.02693597599864,,,,,,,,,,,,,,,,,,,,,,,,,,,,,,,,,,,,,,,,,,,,,,,,,,,,,,,,,,,,,,,,,,,,12431,2022-10-31_10h44.42.806,vts_reward_expectancy_bt_OFFLINE,2022.2.4,60.05725992252821,
0,0,0,1,1,0,0,0,star,triangle,0,0,0,0,1,8,20,9,,,,,,,,,,,,,,,,,,,,,,,,,,,,,,,,,,,,,,,,146.02693597599864,146.02693597599864,146.02693597599864,146.02693597599864,146.02693597599864,146.02693597599864,146.02693597599864,146.02693597599864,146.02693597599864,146.02693597599864,a,1.0293091309722513,10,111,0,147.0779626290314,,148.57976771803806,,,,,,,,,,,,,,,,,,,,,,,,,,,,,,,,,,,,,,,,,,,,,,,,,,,,,,,,,,,,,,,,,,,,,12431,2022-10-31_10h44.42.806,vts_reward_expectancy_bt_OFFLINE,2022.2.4,60.05725992252821,
0,0,1,0,0,0,0,1,hexagon,star,0,0,0,0,1,9,21,8,,,,,,,,,,,,,,,,,,,,,,,,,,,,,,,,,,,,,,,,149.07967080402886,149.07967080402886,149.07967080402886,149.07967080402886,149.07967080402886,149.07967080402886,149.07967080402886,149.07967080402886,149.07967080402886,149.07967080402886,a,1.0806942000053823,1,112,0,150.18034855101723,,151.68058805004694,,,,,,,,,,,,,,,,,,,,,,,,,,,,,,,,,,,,,,,,,,,,,,,,,,,,,,,,,,,,,,,,,,,,,12431,2022-10-31_10h44.42.806,vts_reward_expectancy_bt_OFFLINE,2022.2.4,60.05725992252821,
1,0,0,0,0,1,0,0,triangle,circle,0,0,0,0,1,10,22,0,,,,,,,,,,,,,,,,,,,,,,,,,,,,,,,,,,,,,,,,152.1827484340174,152.1827484340174,152.1827484340174,152.1827484340174,152.1827484340174,152.1827484340174,152.1827484340174,152.1827484340174,152.1827484340174,152.1827484340174,l,0.7372869369573891,10,122,0,152.95022388501093,154.45028632500907,154.45028632500907,154.95006404502783,,,,,,,,,,,,,,,,,,,,,,,,,,,,,,,,,,,,,,,,,,,,,,,,,,,,,,,,,,,,,,,,,,,,12431,2022-10-31_10h44.42.806,vts_reward_expectancy_bt_OFFLINE,2022.2.4,60.05725992252821,
0,1,0,0,1,0,0,0,circle,triangle,0,0,0,0,1,11,23,3,,,,,,,,,,,,,,,,,,,,,,,,,,,,,,,,,,,,,,,,154.95006404502783,154.95006404502783,154.95006404502783,154.95006404502783,154.95006404502783,154.95006404502783,154.95006404502783,154.95006404502783,154.95006404502783,154.95006404502783,a,0.7615149169578217,10,132,0,155.73410773504293,,157.23624883801676,,,,,,,,,,,,,,,,,,,,,,,,,,,,,,,,,,,,,,,,,,,,,,,,,,,,,,,,,,,,,,,,,,,,,12431,2022-10-31_10h44.42.806,vts_reward_expectancy_bt_OFFLINE,2022.2.4,60.05725992252821,
1,0,0,0,0,0,0,1,triangle,star,0,0,0,0,2,0,24,2,,,,,,,,,,,,,,,,,,,,,,,,,,,,,,,,,,,,,,,,157.736180701002,157.736180701002,157.736180701002,157.736180701002,157.736180701002,157.736180701002,157.736180701002,157.736180701002,157.736180701002,157.736180701002,a,1.5839202239876613,1,133,0,159.3378253170522,160.83738899801392,160.83738899801392,161.33769338100683,,,,,,,,,,,,,,,,,,,,,,,,,,,,,,,,,,,,,,,,,,,,,,,,,,,,,,,,,,,,,,,,,,,,12431,2022-10-31_10h44.42.806,vts_reward_expectancy_bt_OFFLINE,2022.2.4,60.05725992252821,
0,0,1,0,1,0,0,0,hexagon,triangle,0,0,0,0,2,1,25,6,,,,,,,,,,,,,,,,,,,,,,,,,,,,,,,,,,,,,,,,161.33769338100683,161.33769338100683,161.33769338100683,161.33769338100683,161.33769338100683,161.33769338100683,161.33769338100683,161.33769338100683,161.33769338100683,161.33769338100683,a,1.9659721339703538,10,143,0,163.32442496804288,164.82415160501841,164.82415160501841,165.32411140500335,,,,,,,,,,,,,,,,,,,,,,,,,,,,,,,,,,,,,,,,,,,,,,,,,,,,,,,,,,,,,,,,,,,,12431,2022-10-31_10h44.42.806,vts_reward_expectancy_bt_OFFLINE,2022.2.4,60.05725992252821,
0,1,0,0,0,0,0,1,circle,star,0,0,0,0,2,2,26,5,,,,,,,,,,,,,,,,,,,,,,,,,,,,,,,,,,,,,,,,165.32411140500335,165.32411140500335,165.32411140500335,165.32411140500335,165.32411140500335,165.32411140500335,165.32411140500335,165.32411140500335,165.32411140500335,165.32411140500335,a,0.7236090349615552,10,153,0,166.07464713405352,,167.57695523905568,,,,,,,,,,,,,,,,,,,,,,,,,,,,,,,,,,,,,,,,,,,,,,,,,,,,,,,,,,,,,,,,,,,,,12431,2022-10-31_10h44.42.806,vts_reward_expectancy_bt_OFFLINE,2022.2.4,60.05725992252821,
1,0,0,0,0,0,1,0,triangle,hexagon,0,0,0,0,2,3,27,1,,,,,,,,,,,,,,,,,,,,,,,,,,,,,,,,,,,,,,,,168.07714066305198,168.07714066305198,168.07714066305198,168.07714066305198,168.07714066305198,168.07714066305198,168.07714066305198,168.07714066305198,168.07714066305198,168.07714066305198,l,1.522440291941166,1,154,0,169.6288815390435,171.12842255004216,171.12842255004216,171.62830434704665,,,,,,,,,,,,,,,,,,,,,,,,,,,,,,,,,,,,,,,,,,,,,,,,,,,,,,,,,,,,,,,,,,,,12431,2022-10-31_10h44.42.806,vts_reward_expectancy_bt_OFFLINE,2022.2.4,60.05725992252821,
0,0,0,1,1,0,0,0,star,triangle,0,0,0,0,2,4,28,9,,,,,,,,,,,,,,,,,,,,,,,,,,,,,,,,,,,,,,,,171.62830434704665,171.62830434704665,171.62830434704665,171.62830434704665,171.62830434704665,171.62830434704665,171.62830434704665,171.62830434704665,171.62830434704665,171.62830434704665,a,1.0032940050004981,10,164,0,172.6638981970027,174.1645652350271,174.1645652350271,174.66450888902182,,,,,,,,,,,,,,,,,,,,,,,,,,,,,,,,,,,,,,,,,,,,,,,,,,,,,,,,,,,,,,,,,,,,12431,2022-10-31_10h44.42.806,vts_reward_expectancy_bt_OFFLINE,2022.2.4,60.05725992252821,
0,0,0,1,0,1,0,0,star ,circle,0,0,0,0,2,5,29,10,,,,,,,,,,,,,,,,,,,,,,,,,,,,,,,,,,,,,,,,174.66450888902182,174.66450888902182,174.66450888902182,174.66450888902182,174.66450888902182,174.66450888902182,174.66450888902182,174.66450888902182,174.66450888902182,174.66450888902182,l,1.1909686779836193,10,174,0,175.8819101980189,,177.38384411705192,,,,,,,,,,,,,,,,,,,,,,,,,,,,,,,,,,,,,,,,,,,,,,,,,,,,,,,,,,,,,,,,,,,,,12431,2022-10-31_10h44.42.806,vts_reward_expectancy_bt_OFFLINE,2022.2.4,60.05725992252821,
0,0,0,1,0,0,1,0,star,hexagon,0,0,0,0,2,6,30,11,,,,,,,,,,,,,,,,,,,,,,,,,,,,,,,,,,,,,,,,177.88432055804878,177.88432055804878,177.88432055804878,177.88432055804878,177.88432055804878,177.88432055804878,177.88432055804878,177.88432055804878,177.88432055804878,177.88432055804878,a,1.4032243929686956,10,184,0,179.31839908502297,180.81893164600478,180.81893164600478,181.31916580104735,,,,,,,,,,,,,,,,,,,,,,,,,,,,,,,,,,,,,,,,,,,,,,,,,,,,,,,,,,,,,,,,,,,,12431,2022-10-31_10h44.42.806,vts_reward_expectancy_bt_OFFLINE,2022.2.4,60.05725992252821,
0,1,0,0,1,0,0,0,circle,triangle,0,0,0,0,2,7,31,3,,,,,,,,,,,,,,,,,,,,,,,,,,,,,,,,,,,,,,,,181.31916580104735,181.31916580104735,181.31916580104735,181.31916580104735,181.31916580104735,181.31916580104735,181.31916580104735,181.31916580104735,181.31916580104735,181.31916580104735,a,1.1527813179418445,10,194,0,182.5046584070078,184.0055254950421,184.0055254950421,184.50547600199934,,,,,,,,,,,,,,,,,,,,,,,,,,,,,,,,,,,,,,,,,,,,,,,,,,,,,,,,,,,,,,,,,,,,12431,2022-10-31_10h44.42.806,vts_reward_expectancy_bt_OFFLINE,2022.2.4,60.05725992252821,
0,1,0,0,0,0,1,0,circle,hexagon,0,0,0,0,2,8,32,4,,,,,,,,,,,,,,,,,,,,,,,,,,,,,,,,,,,,,,,,184.50547600199934,184.50547600199934,184.50547600199934,184.50547600199934,184.50547600199934,184.50547600199934,184.50547600199934,184.50547600199934,184.50547600199934,184.50547600199934,a,1.0859035719768144,10,204,0,185.62225757102715,187.12035109603312,187.12035109603312,,,,,,,,,,,,,,,,,,,,,,,,,,,,,,,,,,,,,,,,,,,,,,,,,,,,,,,,,,,,,,,,,,,,,12431,2022-10-31_10h44.42.806,vts_reward_expectancy_bt_OFFLINE,2022.2.4,60.05725992252821,
1,0,0,0,0,1,0,0,triangle,circle,0,0,0,0,2,9,33,0,,,,,,,,,,,,,,,,,,,,,,,,,,,,,,,,,,,,,,,,187.62497261102544,187.62497261102544,187.62497261102544,187.62497261102544,187.62497261102544,187.62497261102544,187.62497261102544,187.62497261102544,187.62497261102544,187.62497261102544,l,1.4470054369885474,10,214,0,189.09194871404907,190.59259518503677,190.59259518503677,,,,,,,,,,,,,,,,,,,,,,,,,,,,,,,,,,,,,,,,,,,,,,,,,,,,,,,,,,,,,,,,,,,,,12431,2022-10-31_10h44.42.806,vts_reward_expectancy_bt_OFFLINE,2022.2.4,60.05725992252821,
0,0,1,0,0,0,0,1,hexagon,star,0,0,0,0,2,10,34,8,,,,,,,,,,,,,,,,,,,,,,,,,,,,,,,,,,,,,,,,191.09257554000942,191.09257554000942,191.09257554000942,191.09257554000942,191.09257554000942,191.09257554000942,191.09257554000942,191.09257554000942,191.09257554000942,191.09257554000942,l,1.2270929369842634,1,215,0,192.34724126005312,,193.86278309405316,,,,,,,,,,,,,,,,,,,,,,,,,,,,,,,,,,,,,,,,,,,,,,,,,,,,,,,,,,,,,,,,,,,,,12431,2022-10-31_10h44.42.806,vts_reward_expectancy_bt_OFFLINE,2022.2.4,60.05725992252821,
0,0,1,0,0,1,0,0,hexagon,circle,0,0,0,0,2,11,35,7,,,,,,,,,,,,,,,,,,,,,,,,,,,,,,,,,,,,,,,,194.36296061903704,194.36296061903704,194.36296061903704,194.36296061903704,194.36296061903704,194.36296061903704,194.36296061903704,194.36296061903704,194.36296061903704,194.36296061903704,l,0.71648549096426,10,225,0,195.0975771920057,196.59678898804123,196.59678898804123,197.0965256980271,,,,,,,,,,,,,,,,,,,,,,,,,,,,,,,,,,,,,,,,,,,,,,,,,,,,,,,,,,,,,,,,,,,,12431,2022-10-31_10h44.42.806,vts_reward_expectancy_bt_OFFLINE,2022.2.4,60.05725992252821,
0,0,1,0,0,1,0,0,hexagon,circle,0,0,0,0,3,0,36,7,,,,,,,,,,,,,,,,,,,,,,,,,,,,,,,,,,,,,,,,197.0965256980271,197.0965256980271,197.0965256980271,197.0965256980271,197.0965256980271,197.0965256980271,197.0965256980271,197.0965256980271,197.0965256980271,197.0965256980271,l,0.9757205839268863,10,235,0,198.0988436040352,199.59969976503635,199.59969976503635,200.09960892703384,,,,,,,,,,,,,,,,,,,,,,,,,,,,,,,,,,,,,,,,,,,,,,,,,,,,,,,,,,,,,,,,,,,,12431,2022-10-31_10h44.42.806,vts_reward_expectancy_bt_OFFLINE,2022.2.4,60.05725992252821,
0,0,0,1,1,0,0,0,star,triangle,0,0,0,0,3,1,37,9,,,,,,,,,,,,,,,,,,,,,,,,,,,,,,,,,,,,,,,,200.09960892703384,200.09960892703384,200.09960892703384,200.09960892703384,200.09960892703384,200.09960892703384,200.09960892703384,200.09960892703384,200.09960892703384,200.09960892703384,a,1.172338797012344,1,236,0,201.30119796301005,,202.80229305604007,,,,,,,,,,,,,,,,,,,,,,,,,,,,,,,,,,,,,,,,,,,,,,,,,,,,,,,,,,,,,,,,,,,,,12431,2022-10-31_10h44.42.806,vts_reward_expectancy_bt_OFFLINE,2022.2.4,60.05725992252821,
1,0,0,0,0,1,0,0,triangle,circle,0,0,0,0,3,2,38,0,,,,,,,,,,,,,,,,,,,,,,,,,,,,,,,,,,,,,,,,203.30295755603584,203.30295755603584,203.30295755603584,203.30295755603584,203.30295755603584,203.30295755603584,203.30295755603584,203.30295755603584,203.30295755603584,203.30295755603584,l,1.1205424039508216,1,237,0,204.45300273102475,205.95371290302137,205.95371290302137,,,,,,,,,,,,,,,,,,,,,,,,,,,,,,,,,,,,,,,,,,,,,,,,,,,,,,,,,,,,,,,,,,,,,12431,2022-10-31_10h44.42.806,vts_reward_expectancy_bt_OFFLINE,2022.2.4,60.05725992252821,
0,0,1,0,1,0,0,0,hexagon,triangle,0,0,0,0,3,3,39,6,,,,,,,,,,,,,,,,,,,,,,,,,,,,,,,,,,,,,,,,206.45386784302536,206.45386784302536,206.45386784302536,206.45386784302536,206.45386784302536,206.45386784302536,206.45386784302536,206.45386784302536,206.45386784302536,206.45386784302536,l,1.2661377389449626,1,238,0,207.7398341980297,,209.2404610530357,,,,,,,,,,,,,,,,,,,,,,,,,,,,,,,,,,,,,,,,,,,,,,,,,,,,,,,,,,,,,,,,,,,,,12431,2022-10-31_10h44.42.806,vts_reward_expectancy_bt_OFFLINE,2022.2.4,60.05725992252821,
0,1,0,0,1,0,0,0,circle,triangle,0,0,0,0,3,4,40,3,,,,,,,,,,,,,,,,,,,,,,,,,,,,,,,,,,,,,,,,209.74044273601612,209.74044273601612,209.74044273601612,209.74044273601612,209.74044273601612,209.74044273601612,209.74044273601612,209.74044273601612,209.74044273601612,209.74044273601612,a,0.7158787350053899,1,239,0,210.47371525602648,211.97419441503007,211.97419441503007,,,,,,,,,,,,,,,,,,,,,,,,,,,,,,,,,,,,,,,,,,,,,,,,,,,,,,,,,,,,,,,,,,,,,12431,2022-10-31_10h44.42.806,vts_reward_expectancy_bt_OFFLINE,2022.2.4,60.05725992252821,
1,0,0,0,0,0,0,1,triangle,star,0,0,0,0,3,5,41,2,,,,,,,,,,,,,,,,,,,,,,,,,,,,,,,,,,,,,,,,212.47648793901317,212.47648793901317,212.47648793901317,212.47648793901317,212.47648793901317,212.47648793901317,212.47648793901317,212.47648793901317,212.47648793901317,212.47648793901317,l,0.7957817479618825,10,249,0,213.2947604120127,214.79369515902363,214.79369515902363,215.29381311300676,,,,,,,,,,,,,,,,,,,,,,,,,,,,,,,,,,,,,,,,,,,,,,,,,,,,,,,,,,,,,,,,,,,,12431,2022-10-31_10h44.42.806,vts_reward_expectancy_bt_OFFLINE,2022.2.4,60.05725992252821,
0,1,0,0,0,0,0,1,circle,star,0,0,0,0,3,6,42,5,,,,,,,,,,,,,,,,,,,,,,,,,,,,,,,,,,,,,,,,215.29381311300676,215.29381311300676,215.29381311300676,215.29381311300676,215.29381311300676,215.29381311300676,215.29381311300676,215.29381311300676,215.29381311300676,215.29381311300676,a,1.1697122370242141,10,259,0,216.4943353140261,,217.9970006380463,,,,,,,,,,,,,,,,,,,,,,,,,,,,,,,,,,,,,,,,,,,,,,,,,,,,,,,,,,,,,,,,,,,,,12431,2022-10-31_10h44.42.806,vts_reward_expectancy_bt_OFFLINE,2022.2.4,60.05725992252821,
0,0,0,1,0,0,1,0,star,hexagon,0,0,0,0,3,7,43,11,,,,,,,,,,,,,,,,,,,,,,,,,,,,,,,,,,,,,,,,218.49743499903707,218.49743499903707,218.49743499903707,218.49743499903707,218.49743499903707,218.49743499903707,218.49743499903707,218.49743499903707,218.49743499903707,218.49743499903707,a,1.710703263990581,10,269,0,220.23096264101332,221.73151057504583,221.73151057504583,,,,,,,,,,,,,,,,,,,,,,,,,,,,,,,,,,,,,,,,,,,,,,,,,,,,,,,,,,,,,,,,,,,,,12431,2022-10-31_10h44.42.806,vts_reward_expectancy_bt_OFFLINE,2022.2.4,60.05725992252821,
0,1,0,0,0,0,1,0,circle,hexagon,0,0,0,0,3,8,44,4,,,,,,,,,,,,,,,,,,,,,,,,,,,,,,,,,,,,,,,,222.23390923801344,222.23390923801344,222.23390923801344,222.23390923801344,222.23390923801344,222.23390923801344,222.23390923801344,222.23390923801344,222.23390923801344,222.23390923801344,a,0.8221209229668602,1,270,0,223.08477713004686,224.58477175200824,224.58477175200824,,,,,,,,,,,,,,,,,,,,,,,,,,,,,,,,,,,,,,,,,,,,,,,,,,,,,,,,,,,,,,,,,,,,,12431,2022-10-31_10h44.42.806,vts_reward_expectancy_bt_OFFLINE,2022.2.4,60.05725992252821,
0,0,1,0,0,0,0,1,hexagon,star,0,0,0,0,3,9,45,8,,,,,,,,,,,,,,,,,,,,,,,,,,,,,,,,,,,,,,,,225.08459081000183,225.08459081000183,225.08459081000183,225.08459081000183,225.08459081000183,225.08459081000183,225.08459081000183,225.08459081000183,225.08459081000183,225.08459081000183,a,1.1709260949864984,1,271,0,226.2849103769986,,227.78719819703838,,,,,,,,,,,,,,,,,,,,,,,,,,,,,,,,,,,,,,,,,,,,,,,,,,,,,,,,,,,,,,,,,,,,,12431,2022-10-31_10h44.42.806,vts_reward_expectancy_bt_OFFLINE,2022.2.4,60.05725992252821,
0,0,0,1,0,1,0,0,star ,circle,0,0,0,0,3,10,46,10,,,,,,,,,,,,,,,,,,,,,,,,,,,,,,,,,,,,,,,,228.28733023203677,228.28733023203677,228.28733023203677,228.28733023203677,228.28733023203677,228.28733023203677,228.28733023203677,228.28733023203677,228.28733023203677,228.28733023203677,l,0.5282792909420095,10,281,0,228.83846400602488,230.33832726400578,230.33832726400578,230.83858149603475,,,,,,,,,,,,,,,,,,,,,,,,,,,,,,,,,,,,,,,,,,,,,,,,,,,,,,,,,,,,,,,,,,,,12431,2022-10-31_10h44.42.806,vts_reward_expectancy_bt_OFFLINE,2022.2.4,60.05725992252821,
1,0,0,0,0,0,1,0,triangle,hexagon,0,0,0,0,3,11,47,1,,,,,,,,,,,,,,,,,,,,,,,,,,,,,,,,,,,,,,,,230.83858149603475,230.83858149603475,230.83858149603475,230.83858149603475,230.83858149603475,230.83858149603475,230.83858149603475,230.83858149603475,230.83858149603475,230.83858149603475,a,1.8008473459631205,1,282,0,232.65907784900628,234.15813184104627,234.15813184104627,234.6653019420337,,,,,,,,,,,,,,,,,,,,,,,,,,,,,,,,,,,,,,,,,,,,,,,,,,,,,,,,,,,,,,,,,,,,12431,2022-10-31_10h44.42.806,vts_reward_expectancy_bt_OFFLINE,2022.2.4,60.05725992252821,
0,1,0,0,0,0,1,0,circle,hexagon,1,0,1,0,0,0,0,4,,,,,,,,,,,,,,,,,,,,,,,,,,,,,,,,,,,,,,,,240.7563406850095,240.7563406850095,240.7563406850095,240.7563406850095,240.7563406850095,240.7563406850095,240.7563406850095,240.7563406850095,240.7563406850095,240.7563406850095,a,0.8757421409827657,10,292,1,241.66418112104293,,243.16531317302724,,,,,,,,,,,,,,,,,,,,,,,,,,,,,,,,,,,,,,,,,,,,,,,,,,,,,,,,,,,,,,,,,,,,,12431,2022-10-31_10h44.42.806,vts_reward_expectancy_bt_OFFLINE,2022.2.4,60.05725992252821,
0,1,0,0,0,0,0,1,circle,star,1,0,1,0,0,1,1,5,,,,,,,,,,,,,,,,,,,,,,,,,,,,,,,,,,,,,,,,243.66515583603177,243.66515583603177,243.66515583603177,243.66515583603177,243.66515583603177,243.66515583603177,243.66515583603177,243.66515583603177,243.66515583603177,243.66515583603177,a,0.8945682889898308,1,293,1,244.58359526202548,246.08283772401046,246.08283772401046,246.58285501704086,,,,,,,,,,,,,,,,,,,,,,,,,,,,,,,,,,,,,,,,,,,,,,,,,,,,,,,,,,,,,,,,,,,,12431,2022-10-31_10h44.42.806,vts_reward_expectancy_bt_OFFLINE,2022.2.4,60.05725992252821,
1,0,0,0,0,0,1,0,triangle,hexagon,1,0,1,0,0,2,2,1,,,,,,,,,,,,,,,,,,,,,,,,,,,,,,,,,,,,,,,,246.58285501704086,246.58285501704086,246.58285501704086,246.58285501704086,246.58285501704086,246.58285501704086,246.58285501704086,246.58285501704086,246.58285501704086,246.58285501704086,l,1.0814301919890568,1,294,1,247.6851086440147,249.1858545160503,249.1858545160503,,,,,,,,,,,,,,,,,,,,,,,,,,,,,,,,,,,,,,,,,,,,,,,,,,,,,,,,,,,,,,,,,,,,,12431,2022-10-31_10h44.42.806,vts_reward_expectancy_bt_OFFLINE,2022.2.4,60.05725992252821,
0,0,1,0,0,0,0,1,hexagon,star,1,0,1,0,0,3,3,8,,,,,,,,,,,,,,,,,,,,,,,,,,,,,,,,,,,,,,,,249.68595101701794,249.68595101701794,249.68595101701794,249.68595101701794,249.68595101701794,249.68595101701794,249.68595101701794,249.68595101701794,249.68595101701794,249.68595101701794,l,1.0737865080009215,10,304,1,250.787738154002,,252.28865481703542,,,,,,,,,,,,,,,,,,,,,,,,,,,,,,,,,,,,,,,,,,,,,,,,,,,,,,,,,,,,,,,,,,,,,12431,2022-10-31_10h44.42.806,vts_reward_expectancy_bt_OFFLINE,2022.2.4,60.05725992252821,
0,0,0,1,0,1,0,0,star ,circle,1,0,1,0,0,4,4,10,,,,,,,,,,,,,,,,,,,,,,,,,,,,,,,,,,,,,,,,252.78878130204976,252.78878130204976,252.78878130204976,252.78878130204976,252.78878130204976,252.78878130204976,252.78878130204976,252.78878130204976,252.78878130204976,252.78878130204976,l,0.45921149000059813,10,314,1,253.27273484499892,254.7733443560428,254.7733443560428,255.2735921780113,,,,,,,,,,,,,,,,,,,,,,,,,,,,,,,,,,,,,,,,,,,,,,,,,,,,,,,,,,,,,,,,,,,,12431,2022-10-31_10h44.42.806,vts_reward_expectancy_bt_OFFLINE,2022.2.4,60.05725992252821,
1,0,0,0,0,1,0,0,triangle,circle,1,0,1,0,0,5,5,0,,,,,,,,,,,,,,,,,,,,,,,,,,,,,,,,,,,,,,,,255.2735921780113,255.2735921780113,255.2735921780113,255.2735921780113,255.2735921780113,255.2735921780113,255.2735921780113,255.2735921780113,255.2735921780113,255.2735921780113,l,0.41397814598167315,10,324,1,255.7065114180441,,257.2094632150256,,,,,,,,,,,,,,,,,,,,,,,,,,,,,,,,,,,,,,,,,,,,,,,,,,,,,,,,,,,,,,,,,,,,,12431,2022-10-31_10h44.42.806,vts_reward_expectancy_bt_OFFLINE,2022.2.4,60.05725992252821,
1,0,0,0,0,0,0,1,triangle,star,1,0,1,0,0,6,6,2,,,,,,,,,,,,,,,,,,,,,,,,,,,,,,,,,,,,,,,,257.70949602901237,257.70949602901237,257.70949602901237,257.70949602901237,257.70949602901237,257.70949602901237,257.70949602901237,257.70949602901237,257.70949602901237,257.70949602901237,l,0.7463371739722788,10,334,1,258.4760932730278,259.97647057502763,259.97647057502763,260.47674547403585,,,,,,,,,,,,,,,,,,,,,,,,,,,,,,,,,,,,,,,,,,,,,,,,,,,,,,,,,,,,,,,,,,,,12431,2022-10-31_10h44.42.806,vts_reward_expectancy_bt_OFFLINE,2022.2.4,60.05725992252821,
0,0,1,0,0,1,0,0,hexagon,circle,1,0,1,0,0,7,7,7,,,,,,,,,,,,,,,,,,,,,,,,,,,,,,,,,,,,,,,,260.47674547403585,260.47674547403585,260.47674547403585,260.47674547403585,260.47674547403585,260.47674547403585,260.47674547403585,260.47674547403585,260.47674547403585,260.47674547403585,l,0.5072670889785513,10,344,1,261.0105412270059,,262.51276295102434,,,,,,,,,,,,,,,,,,,,,,,,,,,,,,,,,,,,,,,,,,,,,,,,,,,,,,,,,,,,,,,,,,,,,12431,2022-10-31_10h44.42.806,vts_reward_expectancy_bt_OFFLINE,2022.2.4,60.05725992252821,
0,1,0,0,1,0,0,0,circle,triangle,1,0,1,0,0,8,8,3,,,,,,,,,,,,,,,,,,,,,,,,,,,,,,,,,,,,,,,,263.01283241203055,263.01283241203055,263.01283241203055,263.01283241203055,263.01283241203055,263.01283241203055,263.01283241203055,263.01283241203055,263.01283241203055,263.01283241203055,a,0.5146649049711414,1,345,1,263.54741858300986,265.0468083040323,265.0468083040323,,,,,,,,,,,,,,,,,,,,,,,,,,,,,,,,,,,,,,,,,,,,,,,,,,,,,,,,,,,,,,,,,,,,,12431,2022-10-31_10h44.42.806,vts_reward_expectancy_bt_OFFLINE,2022.2.4,60.05725992252821,
0,0,0,1,1,0,0,0,star,triangle,1,0,1,0,0,9,9,9,,,,,,,,,,,,,,,,,,,,,,,,,,,,,,,,,,,,,,,,265.5470562840346,265.5470562840346,265.5470562840346,265.5470562840346,265.5470562840346,265.5470562840346,265.5470562840346,265.5470562840346,265.5470562840346,265.5470562840346,a,0.7415065039531328,10,355,1,266.31489232199965,,267.8168403140153,,,,,,,,,,,,,,,,,,,,,,,,,,,,,,,,,,,,,,,,,,,,,,,,,,,,,,,,,,,,,,,,,,,,,12431,2022-10-31_10h44.42.806,vts_reward_expectancy_bt_OFFLINE,2022.2.4,60.05725992252821,
0,0,0,1,0,0,1,0,star,hexagon,1,0,1,0,0,10,10,11,,,,,,,,,,,,,,,,,,,,,,,,,,,,,,,,,,,,,,,,268.31698739604326,268.31698739604326,268.31698739604326,268.31698739604326,268.31698739604326,268.31698739604326,268.31698739604326,268.31698739604326,268.31698739604326,268.31698739604326,a,0.9064854099415243,10,365,1,269.25041003501974,270.750815439038,270.750815439038,271.2511172700324,,,,,,,,,,,,,,,,,,,,,,,,,,,,,,,,,,,,,,,,,,,,,,,,,,,,,,,,,,,,,,,,,,,,12431,2022-10-31_10h44.42.806,vts_reward_expectancy_bt_OFFLINE,2022.2.4,60.05725992252821,
0,0,1,0,1,0,0,0,hexagon,triangle,1,0,1,0,0,11,11,6,,,,,,,,,,,,,,,,,,,,,,,,,,,,,,,,,,,,,,,,271.2511172700324,271.2511172700324,271.2511172700324,271.2511172700324,271.2511172700324,271.2511172700324,271.2511172700324,271.2511172700324,271.2511172700324,271.2511172700324,a,1.0529275799635798,1,366,1,272.3368656760431,273.83754947403213,273.83754947403213,274.3375831650337,,,,,,,,,,,,,,,,,,,,,,,,,,,,,,,,,,,,,,,,,,,,,,,,,,,,,,,,,,,,,,,,,,,,12431,2022-10-31_10h44.42.806,vts_reward_expectancy_bt_OFFLINE,2022.2.4,60.05725992252821,
0,0,1,0,1,0,0,0,hexagon,triangle,1,0,1,0,1,0,12,6,,,,,,,,,,,,,,,,,,,,,,,,,,,,,,,,,,,,,,,,274.3375831650337,274.3375831650337,274.3375831650337,274.3375831650337,274.3375831650337,274.3375831650337,274.3375831650337,274.3375831650337,274.3375831650337,274.3375831650337,a,1.0618740449426696,1,367,1,275.4211351850536,276.92159232404083,276.92159232404083,,,,,,,,,,,,,,,,,,,,,,,,,,,,,,,,,,,,,,,,,,,,,,,,,,,,,,,,,,,,,,,,,,,,,12431,2022-10-31_10h44.42.806,vts_reward_expectancy_bt_OFFLINE,2022.2.4,60.05725992252821,
0,0,0,1,1,0,0,0,star,triangle,1,0,1,0,1,1,13,9,,,,,,,,,,,,,,,,,,,,,,,,,,,,,,,,,,,,,,,,277.4241558870417,277.4241558870417,277.4241558870417,277.4241558870417,277.4241558870417,277.4241558870417,277.4241558870417,277.4241558870417,277.4241558870417,277.4241558870417,a,0.7513190419413149,1,368,1,278.2070751990541,279.7078380550374,279.7078380550374,280.2079528590548,,,,,,,,,,,,,,,,,,,,,,,,,,,,,,,,,,,,,,,,,,,,,,,,,,,,,,,,,,,,,,,,,,,,12431,2022-10-31_10h44.42.806,vts_reward_expectancy_bt_OFFLINE,2022.2.4,60.05725992252821,
1,0,0,0,0,0,1,0,triangle,hexagon,1,0,1,0,1,2,14,1,,,,,,,,,,,,,,,,,,,,,,,,,,,,,,,,,,,,,,,,280.2079528590548,280.2079528590548,280.2079528590548,280.2079528590548,280.2079528590548,280.2079528590548,280.2079528590548,280.2079528590548,280.2079528590548,280.2079528590548,l,1.0639989939518273,1,369,1,281.2916852250346,,282.79444078804227,,,,,,,,,,,,,,,,,,,,,,,,,,,,,,,,,,,,,,,,,,,,,,,,,,,,,,,,,,,,,,,,,,,,,12431,2022-10-31_10h44.42.806,vts_reward_expectancy_bt_OFFLINE,2022.2.4,60.05725992252821,
1,0,0,0,0,0,0,1,triangle,star,1,0,1,0,1,3,15,2,,,,,,,,,,,,,,,,,,,,,,,,,,,,,,,,,,,,,,,,283.29442996904254,283.29442996904254,283.29442996904254,283.29442996904254,283.29442996904254,283.29442996904254,283.29442996904254,283.29442996904254,283.29442996904254,283.29442996904254,l,0.690019010915421,1,370,1,284.0112626810442,285.5115964660072,285.5115964660072,286.0118481020327,,,,,,,,,,,,,,,,,,,,,,,,,,,,,,,,,,,,,,,,,,,,,,,,,,,,,,,,,,,,,,,,,,,,12431,2022-10-31_10h44.42.806,vts_reward_expectancy_bt_OFFLINE,2022.2.4,60.05725992252821,
0,1,0,0,0,0,0,1,circle,star,1,0,1,0,1,4,16,5,,,,,,,,,,,,,,,,,,,,,,,,,,,,,,,,,,,,,,,,286.0118481020327,286.0118481020327,286.0118481020327,286.0118481020327,286.0118481020327,286.0118481020327,286.0118481020327,286.0118481020327,286.0118481020327,286.0118481020327,a,0.6682697729556821,10,380,1,286.71196827600943,,288.2143316990114,,,,,,,,,,,,,,,,,,,,,,,,,,,,,,,,,,,,,,,,,,,,,,,,,,,,,,,,,,,,,,,,,,,,,12431,2022-10-31_10h44.42.806,vts_reward_expectancy_bt_OFFLINE,2022.2.4,60.05725992252821,
0,0,0,1,0,0,1,0,star,hexagon,1,0,1,0,1,5,17,11,,,,,,,,,,,,,,,,,,,,,,,,,,,,,,,,,,,,,,,,288.7148849570076,288.7148849570076,288.7148849570076,288.7148849570076,288.7148849570076,288.7148849570076,288.7148849570076,288.7148849570076,288.7148849570076,288.7148849570076,a,0.9976357269915752,10,390,1,289.732072739047,291.23257869604276,291.23257869604276,291.73282441403717,,,,,,,,,,,,,,,,,,,,,,,,,,,,,,,,,,,,,,,,,,,,,,,,,,,,,,,,,,,,,,,,,,,,12431,2022-10-31_10h44.42.806,vts_reward_expectancy_bt_OFFLINE,2022.2.4,60.05725992252821,
0,0,1,0,0,0,0,1,hexagon,star,1,0,1,0,1,6,18,8,,,,,,,,,,,,,,,,,,,,,,,,,,,,,,,,,,,,,,,,291.73282441403717,291.73282441403717,291.73282441403717,291.73282441403717,291.73282441403717,291.73282441403717,291.73282441403717,291.73282441403717,291.73282441403717,291.73282441403717,l,1.0350628609885462,10,400,1,292.7845466110157,294.285327924008,294.285327924008,294.78522063500714,,,,,,,,,,,,,,,,,,,,,,,,,,,,,,,,,,,,,,,,,,,,,,,,,,,,,,,,,,,,,,,,,,,,12431,2022-10-31_10h44.42.806,vts_reward_expectancy_bt_OFFLINE,2022.2.4,60.05725992252821,
0,0,1,0,0,1,0,0,hexagon,circle,1,0,1,0,1,7,19,7,,,,,,,,,,,,,,,,,,,,,,,,,,,,,,,,,,,,,,,,294.78522063500714,294.78522063500714,294.78522063500714,294.78522063500714,294.78522063500714,294.78522063500714,294.78522063500714,294.78522063500714,294.78522063500714,294.78522063500714,l,0.7112302010064013,10,410,1,295.51885687804315,297.01948118401924,297.01948118401924,,,,,,,,,,,,,,,,,,,,,,,,,,,,,,,,,,,,,,,,,,,,,,,,,,,,,,,,,,,,,,,,,,,,,12431,2022-10-31_10h44.42.806,vts_reward_expectancy_bt_OFFLINE,2022.2.4,60.05725992252821,
0,1,0,0,0,0,1,0,circle,hexagon,1,0,1,0,1,8,20,4,,,,,,,,,,,,,,,,,,,,,,,,,,,,,,,,,,,,,,,,297.5214598540333,297.5214598540333,297.5214598540333,297.5214598540333,297.5214598540333,297.5214598540333,297.5214598540333,297.5214598540333,297.5214598540333,297.5214598540333,a,0.5344744449830614,10,420,1,298.0886041110498,299.5896316130529,299.5896316130529,300.08951781503856,,,,,,,,,,,,,,,,,,,,,,,,,,,,,,,,,,,,,,,,,,,,,,,,,,,,,,,,,,,,,,,,,,,,12431,2022-10-31_10h44.42.806,vts_reward_expectancy_bt_OFFLINE,2022.2.4,60.05725992252821,
0,1,0,0,1,0,0,0,circle,triangle,1,0,1,0,1,9,21,3,,,,,,,,,,,,,,,,,,,,,,,,,,,,,,,,,,,,,,,,300.08951781503856,300.08951781503856,300.08951781503856,300.08951781503856,300.08951781503856,300.08951781503856,300.08951781503856,300.08951781503856,300.08951781503856,300.08951781503856,a,0.5818696179776452,10,430,1,300.6898057720391,302.19027645804454,302.19027645804454,,,,,,,,,,,,,,,,,,,,,,,,,,,,,,,,,,,,,,,,,,,,,,,,,,,,,,,,,,,,,,,,,,,,,12431,2022-10-31_10h44.42.806,vts_reward_expectancy_bt_OFFLINE,2022.2.4,60.05725992252821,
0,0,0,1,0,1,0,0,star ,circle,1,0,1,0,1,10,22,10,,,,,,,,,,,,,,,,,,,,,,,,,,,,,,,,,,,,,,,,302.69194353104103,302.69194353104103,302.69194353104103,302.69194353104103,302.69194353104103,302.69194353104103,302.69194353104103,302.69194353104103,302.69194353104103,302.69194353104103,l,0.532009485992603,10,440,1,303.2420442000148,304.7428991890047,304.7428991890047,,,,,,,,,,,,,,,,,,,,,,,,,,,,,,,,,,,,,,,,,,,,,,,,,,,,,,,,,,,,,,,,,,,,,12431,2022-10-31_10h44.42.806,vts_reward_expectancy_bt_OFFLINE,2022.2.4,60.05725992252821,
1,0,0,0,0,1,0,0,triangle,circle,1,0,1,0,1,11,23,0,,,,,,,,,,,,,,,,,,,,,,,,,,,,,,,,,,,,,,,,305.2428378330078,305.2428378330078,305.2428378330078,305.2428378330078,305.2428378330078,305.2428378330078,305.2428378330078,305.2428378330078,305.2428378330078,305.2428378330078,l,0.4693874789518304,1,441,1,305.7442359040142,,307.2458339140285,,,,,,,,,,,,,,,,,,,,,,,,,,,,,,,,,,,,,,,,,,,,,,,,,,,,,,,,,,,,,,,,,,,,,12431,2022-10-31_10h44.42.806,vts_reward_expectancy_bt_OFFLINE,2022.2.4,60.05725992252821,
0,1,0,0,0,0,0,1,circle,star,1,0,1,0,2,0,24,5,,,,,,,,,,,,,,,,,,,,,,,,,,,,,,,,,,,,,,,,307.7459735349985,307.7459735349985,307.7459735349985,307.7459735349985,307.7459735349985,307.7459735349985,307.7459735349985,307.7459735349985,307.7459735349985,307.7459735349985,a,0.7978311489569023,10,451,1,308.5645362640498,,310.07973205205053,,,,,,,,,,,,,,,,,,,,,,,,,,,,,,,,,,,,,,,,,,,,,,,,,,,,,,,,,,,,,,,,,,,,,12431,2022-10-31_10h44.42.806,vts_reward_expectancy_bt_OFFLINE,2022.2.4,60.05725992252821,
0,1,0,0,1,0,0,0,circle,triangle,1,0,1,0,2,1,25,3,,,,,,,,,,,,,,,,,,,,,,,,,,,,,,,,,,,,,,,,310.56306832202245,310.56306832202245,310.56306832202245,310.56306832202245,310.56306832202245,310.56306832202245,310.56306832202245,310.56306832202245,310.56306832202245,310.56306832202245,a,0.5650402309256606,10,461,1,311.14706919004675,,312.6490229580086,,,,,,,,,,,,,,,,,,,,,,,,,,,,,,,,,,,,,,,,,,,,,,,,,,,,,,,,,,,,,,,,,,,,,12431,2022-10-31_10h44.42.806,vts_reward_expectancy_bt_OFFLINE,2022.2.4,60.05725992252821,
0,1,0,0,0,0,1,0,circle,hexagon,1,0,1,0,2,2,26,4,,,,,,,,,,,,,,,,,,,,,,,,,,,,,,,,,,,,,,,,313.14931298204465,313.14931298204465,313.14931298204465,313.14931298204465,313.14931298204465,313.14931298204465,313.14931298204465,313.14931298204465,313.14931298204465,313.14931298204465,a,0.7383971340022981,1,462,1,313.9181525330059,,315.4333106310223,,,,,,,,,,,,,,,,,,,,,,,,,,,,,,,,,,,,,,,,,,,,,,,,,,,,,,,,,,,,,,,,,,,,,12431,2022-10-31_10h44.42.806,vts_reward_expectancy_bt_OFFLINE,2022.2.4,60.05725992252821,
0,0,0,1,0,1,0,0,star ,circle,1,0,1,0,2,3,27,10,,,,,,,,,,,,,,,,,,,,,,,,,,,,,,,,,,,,,,,,315.9336035110173,315.9336035110173,315.9336035110173,315.9336035110173,315.9336035110173,315.9336035110173,315.9336035110173,315.9336035110173,315.9336035110173,315.9336035110173,l,0.45841728296363726,10,472,1,316.41921994800214,,317.9195069670095,,,,,,,,,,,,,,,,,,,,,,,,,,,,,,,,,,,,,,,,,,,,,,,,,,,,,,,,,,,,,,,,,,,,,12431,2022-10-31_10h44.42.806,vts_reward_expectancy_bt_OFFLINE,2022.2.4,60.05725992252821,
0,0,0,1,0,0,1,0,star,hexagon,1,0,1,0,2,4,28,11,,,,,,,,,,,,,,,,,,,,,,,,,,,,,,,,,,,,,,,,318.419665997033,318.419665997033,318.419665997033,318.419665997033,318.419665997033,318.419665997033,318.419665997033,318.419665997033,318.419665997033,318.419665997033,a,0.9082120740204118,10,482,1,319.3538600910106,320.85417262103874,320.85417262103874,321.35447384702275,,,,,,,,,,,,,,,,,,,,,,,,,,,,,,,,,,,,,,,,,,,,,,,,,,,,,,,,,,,,,,,,,,,,12431,2022-10-31_10h44.42.806,vts_reward_expectancy_bt_OFFLINE,2022.2.4,60.05725992252821,
0,0,1,0,1,0,0,0,hexagon,triangle,1,0,1,0,2,5,29,6,,,,,,,,,,,,,,,,,,,,,,,,,,,,,,,,,,,,,,,,321.35447384702275,321.35447384702275,321.35447384702275,321.35447384702275,321.35447384702275,321.35447384702275,321.35447384702275,321.35447384702275,321.35447384702275,321.35447384702275,a,1.021399738965556,1,483,1,322.40797552402364,323.90700408100383,323.90700408100383,324.40712248400087,,,,,,,,,,,,,,,,,,,,,,,,,,,,,,,,,,,,,,,,,,,,,,,,,,,,,,,,,,,,,,,,,,,,12431,2022-10-31_10h44.42.806,vts_reward_expectancy_bt_OFFLINE,2022.2.4,60.05725992252821,
0,0,1,0,0,0,0,1,hexagon,star,1,0,1,0,2,6,30,8,,,,,,,,,,,,,,,,,,,,,,,,,,,,,,,,,,,,,,,,324.40712248400087,324.40712248400087,324.40712248400087,324.40712248400087,324.40712248400087,324.40712248400087,324.40712248400087,324.40712248400087,324.40712248400087,324.40712248400087,l,0.9762063560192473,10,493,1,325.409000560001,,326.924905987049,,,,,,,,,,,,,,,,,,,,,,,,,,,,,,,,,,,,,,,,,,,,,,,,,,,,,,,,,,,,,,,,,,,,,12431,2022-10-31_10h44.42.806,vts_reward_expectancy_bt_OFFLINE,2022.2.4,60.05725992252821,
1,0,0,0,0,1,0,0,triangle,circle,1,0,1,0,2,7,31,0,,,,,,,,,,,,,,,,,,,,,,,,,,,,,,,,,,,,,,,,327.4102810190525,327.4102810190525,327.4102810190525,327.4102810190525,327.4102810190525,327.4102810190525,327.4102810190525,327.4102810190525,327.4102810190525,327.4102810190525,l,0.5252823299961165,10,503,1,327.960597094032,,329.4607841000543,329.96099158900324,,,,,,,,,,,,,,,,,,,,,,,,,,,,,,,,,,,,,,,,,,,,,,,,,,,,,,,,,,,,,,,,,,,,12431,2022-10-31_10h44.42.806,vts_reward_expectancy_bt_OFFLINE,2022.2.4,60.05725992252821,
0,0,1,0,0,1,0,0,hexagon,circle,1,0,1,0,2,8,32,7,,,,,,,,,,,,,,,,,,,,,,,,,,,,,,,,,,,,,,,,329.96099158900324,329.96099158900324,329.96099158900324,329.96099158900324,329.96099158900324,329.96099158900324,329.96099158900324,329.96099158900324,329.96099158900324,329.96099158900324,l,0.41451503394637257,10,513,1,330.39510235603666,331.89494182303315,331.89494182303315,,,,,,,,,,,,,,,,,,,,,,,,,,,,,,,,,,,,,,,,,,,,,,,,,,,,,,,,,,,,,,,,,,,,,12431,2022-10-31_10h44.42.806,vts_reward_expectancy_bt_OFFLINE,2022.2.4,60.05725992252821,
0,0,0,1,1,0,0,0,star,triangle,1,0,1,0,2,9,33,9,,,,,,,,,,,,,,,,,,,,,,,,,,,,,,,,,,,,,,,,332.3969016650226,332.3969016650226,332.3969016650226,332.3969016650226,332.3969016650226,332.3969016650226,332.3969016650226,332.3969016650226,332.3969016650226,332.3969016650226,a,0.7553796759457327,10,523,1,333.1806628520135,334.6814418900176,334.6814418900176,335.1816963450401,,,,,,,,,,,,,,,,,,,,,,,,,,,,,,,,,,,,,,,,,,,,,,,,,,,,,,,,,,,,,,,,,,,,12431,2022-10-31_10h44.42.806,vts_reward_expectancy_bt_OFFLINE,2022.2.4,60.05725992252821,
1,0,0,0,0,0,1,0,triangle,hexagon,1,0,1,0,2,10,34,1,,,,,,,,,,,,,,,,,,,,,,,,,,,,,,,,,,,,,,,,335.1816963450401,335.1816963450401,335.1816963450401,335.1816963450401,335.1816963450401,335.1816963450401,335.1816963450401,335.1816963450401,335.1816963450401,335.1816963450401,a,1.7937771609867923,1,524,1,337.0002174830297,,338.50098937301664,,,,,,,,,,,,,,,,,,,,,,,,,,,,,,,,,,,,,,,,,,,,,,,,,,,,,,,,,,,,,,,,,,,,,12431,2022-10-31_10h44.42.806,vts_reward_expectancy_bt_OFFLINE,2022.2.4,60.05725992252821,
1,0,0,0,0,0,0,1,triangle,star,1,0,1,0,2,11,35,2,,,,,,,,,,,,,,,,,,,,,,,,,,,,,,,,,,,,,,,,339.00133701902814,339.00133701902814,339.00133701902814,339.00133701902814,339.00133701902814,339.00133701902814,339.00133701902814,339.00133701902814,339.00133701902814,339.00133701902814,l,0.702823648985941,1,525,1,339.7350052000256,341.23530131805455,341.23530131805455,341.735336538055,,,,,,,,,,,,,,,,,,,,,,,,,,,,,,,,,,,,,,,,,,,,,,,,,,,,,,,,,,,,,,,,,,,,12431,2022-10-31_10h44.42.806,vts_reward_expectancy_bt_OFFLINE,2022.2.4,60.05725992252821,
0,0,1,0,0,1,0,0,hexagon,circle,1,0,1,0,3,0,36,7,,,,,,,,,,,,,,,,,,,,,,,,,,,,,,,,,,,,,,,,341.735336538055,341.735336538055,341.735336538055,341.735336538055,341.735336538055,341.735336538055,341.735336538055,341.735336538055,341.735336538055,341.735336538055,l,0.7764240959659219,1,526,1,342.53806066303514,344.0384338510339,344.0384338510339,,,,,,,,,,,,,,,,,,,,,,,,,,,,,,,,,,,,,,,,,,,,,,,,,,,,,,,,,,,,,,,,,,,,,12431,2022-10-31_10h44.42.806,vts_reward_expectancy_bt_OFFLINE,2022.2.4,60.05725992252821,
0,0,0,1,1,0,0,0,star,triangle,1,0,1,0,3,1,37,9,,,,,,,,,,,,,,,,,,,,,,,,,,,,,,,,,,,,,,,,344.53872298501665,344.53872298501665,344.53872298501665,344.53872298501665,344.53872298501665,344.53872298501665,344.53872298501665,344.53872298501665,344.53872298501665,344.53872298501665,a,0.5819731429801323,10,536,1,345.1404716160032,,346.6557399860467,,,,,,,,,,,,,,,,,,,,,,,,,,,,,,,,,,,,,,,,,,,,,,,,,,,,,,,,,,,,,,,,,,,,,12431,2022-10-31_10h44.42.806,vts_reward_expectancy_bt_OFFLINE,2022.2.4,60.05725992252821,
0,1,0,0,0,0,1,0,circle,hexagon,1,0,1,0,3,2,38,4,,,,,,,,,,,,,,,,,,,,,,,,,,,,,,,,,,,,,,,,347.15592850302346,347.15592850302346,347.15592850302346,347.15592850302346,347.15592850302346,347.15592850302346,347.15592850302346,347.15592850302346,347.15592850302346,347.15592850302346,a,0.5642393979942426,10,546,1,347.7411484910408,349.2419694500277,349.2419694500277,349.74206198501633,,,,,,,,,,,,,,,,,,,,,,,,,,,,,,,,,,,,,,,,,,,,,,,,,,,,,,,,,,,,,,,,,,,,12431,2022-10-31_10h44.42.806,vts_reward_expectancy_bt_OFFLINE,2022.2.4,60.05725992252821,
0,0,0,1,0,1,0,0,star ,circle,1,0,1,0,3,3,39,10,,,,,,,,,,,,,,,,,,,,,,,,,,,,,,,,,,,,,,,,349.74206198501633,349.74206198501633,349.74206198501633,349.74206198501633,349.74206198501633,349.74206198501633,349.74206198501633,349.74206198501633,349.74206198501633,349.74206198501633,l,0.4820007149828598,1,547,1,350.24416964000557,351.74237760104006,351.74237760104006,352.24039612105116,,,,,,,,,,,,,,,,,,,,,,,,,,,,,,,,,,,,,,,,,,,,,,,,,,,,,,,,,,,,,,,,,,,,12431,2022-10-31_10h44.42.806,vts_reward_expectancy_bt_OFFLINE,2022.2.4,60.05725992252821,
0,0,1,0,0,0,0,1,hexagon,star,1,0,1,0,3,4,40,8,,,,,,,,,,,,,,,,,,,,,,,,,,,,,,,,,,,,,,,,352.24039612105116,352.24039612105116,352.24039612105116,352.24039612105116,352.24039612105116,352.24039612105116,352.24039612105116,352.24039612105116,352.24039612105116,352.24039612105116,l,0.8635001119691879,10,557,1,353.1302366470336,,354.6459525700193,,,,,,,,,,,,,,,,,,,,,,,,,,,,,,,,,,,,,,,,,,,,,,,,,,,,,,,,,,,,,,,,,,,,,12431,2022-10-31_10h44.42.806,vts_reward_expectancy_bt_OFFLINE,2022.2.4,60.05725992252821,
0,1,0,0,1,0,0,0,circle,triangle,1,0,1,0,3,5,41,3,,,,,,,,,,,,,,,,,,,,,,,,,,,,,,,,,,,,,,,,355.14585839101346,355.14585839101346,355.14585839101346,355.14585839101346,355.14585839101346,355.14585839101346,355.14585839101346,355.14585839101346,355.14585839101346,355.14585839101346,a,0.43843371694674715,10,567,1,355.61278557102196,357.1131349480129,357.1131349480129,,,,,,,,,,,,,,,,,,,,,,,,,,,,,,,,,,,,,,,,,,,,,,,,,,,,,,,,,,,,,,,,,,,,,12431,2022-10-31_10h44.42.806,vts_reward_expectancy_bt_OFFLINE,2022.2.4,60.05725992252821,
0,0,0,1,0,0,1,0,star,hexagon,1,0,1,0,3,6,42,11,,,,,,,,,,,,,,,,,,,,,,,,,,,,,,,,,,,,,,,,357.61525432002963,357.61525432002963,357.61525432002963,357.61525432002963,357.61525432002963,357.61525432002963,357.61525432002963,357.61525432002963,357.61525432002963,357.61525432002963,a,0.7689625130151398,10,577,1,358.41549279005267,359.9157833320205,359.9157833320205,360.4161473160493,,,,,,,,,,,,,,,,,,,,,,,,,,,,,,,,,,,,,,,,,,,,,,,,,,,,,,,,,,,,,,,,,,,,12431,2022-10-31_10h44.42.806,vts_reward_expectancy_bt_OFFLINE,2022.2.4,60.05725992252821,
1,0,0,0,0,1,0,0,triangle,circle,1,0,1,0,3,7,43,0,,,,,,,,,,,,,,,,,,,,,,,,,,,,,,,,,,,,,,,,360.4161473160493,360.4161473160493,360.4161473160493,360.4161473160493,360.4161473160493,360.4161473160493,360.4161473160493,360.4161473160493,360.4161473160493,360.4161473160493,l,0.6399889349704608,10,587,1,361.0833599900361,,362.58540841704234,,,,,,,,,,,,,,,,,,,,,,,,,,,,,,,,,,,,,,,,,,,,,,,,,,,,,,,,,,,,,,,,,,,,,12431,2022-10-31_10h44.42.806,vts_reward_expectancy_bt_OFFLINE,2022.2.4,60.05725992252821,
1,0,0,0,0,0,0,1,triangle,star,1,0,1,0,3,8,44,2,,,,,,,,,,,,,,,,,,,,,,,,,,,,,,,,,,,,,,,,363.0857148159994,363.0857148159994,363.0857148159994,363.0857148159994,363.0857148159994,363.0857148159994,363.0857148159994,363.0857148159994,363.0857148159994,363.0857148159994,a,1.042668228968978,1,588,1,364.1549643360195,,365.6700203400105,,,,,,,,,,,,,,,,,,,,,,,,,,,,,,,,,,,,,,,,,,,,,,,,,,,,,,,,,,,,,,,,,,,,,12431,2022-10-31_10h44.42.806,vts_reward_expectancy_bt_OFFLINE,2022.2.4,60.05725992252821,
1,0,0,0,0,0,1,0,triangle,hexagon,1,0,1,0,3,9,45,1,,,,,,,,,,,,,,,,,,,,,,,,,,,,,,,,,,,,,,,,366.17011013103183,366.17011013103183,366.17011013103183,366.17011013103183,366.17011013103183,366.17011013103183,366.17011013103183,366.17011013103183,366.17011013103183,366.17011013103183,l,1.1978643299662508,1,589,1,367.3895521670347,368.8898260870483,368.8898260870483,369.3902487460291,,,,,,,,,,,,,,,,,,,,,,,,,,,,,,,,,,,,,,,,,,,,,,,,,,,,,,,,,,,,,,,,,,,,12431,2022-10-31_10h44.42.806,vts_reward_expectancy_bt_OFFLINE,2022.2.4,60.05725992252821,
0,1,0,0,0,0,0,1,circle,star,1,0,1,0,3,10,46,5,,,,,,,,,,,,,,,,,,,,,,,,,,,,,,,,,,,,,,,,369.3902487460291,369.3902487460291,369.3902487460291,369.3902487460291,369.3902487460291,369.3902487460291,369.3902487460291,369.3902487460291,369.3902487460291,369.3902487460291,a,0.5859810219844803,10,599,1,370.00905735301785,,371.52409019705374,,,,,,,,,,,,,,,,,,,,,,,,,,,,,,,,,,,,,,,,,,,,,,,,,,,,,,,,,,,,,,,,,,,,,12431,2022-10-31_10h44.42.806,vts_reward_expectancy_bt_OFFLINE,2022.2.4,60.05725992252821,
0,0,1,0,1,0,0,0,hexagon,triangle,1,0,1,0,3,11,47,6,,,,,,,,,,,,,,,,,,,,,,,,,,,,,,,,,,,,,,,,372.00727331405506,372.00727331405506,372.00727331405506,372.00727331405506,372.00727331405506,372.00727331405506,372.00727331405506,372.00727331405506,372.00727331405506,372.00727331405506,a,1.0727323269820772,10,609,1,373.1097485840437,374.6105961150024,374.6105961150024,375.11630952201085,,,,,,,,,,,,,,,,,,,,,,,,,,,,,,,,,,,,,,,,,,,,,,,,,,,,,,,,,,,,,,,,,,,,12431,2022-10-31_10h44.42.806,vts_reward_expectancy_bt_OFFLINE,2022.2.4,60.05725992252821,
0,0,0,1,1,0,0,0,star,triangle,2,0,2,0,0,0,0,9,,,,,,,,,,,,,,,,,,,,,,,,,,,,,,,,,,,,,,,,382.1432793600252,382.1432793600252,382.1432793600252,382.1432793600252,382.1432793600252,382.1432793600252,382.1432793600252,382.1432793600252,382.1432793600252,382.1432793600252,a,1.6087249430129305,10,619,2,383.7837659450015,385.28431286499836,385.28431286499836,385.78451039100764,,,,,,,,,,,,,,,,,,,,,,,,,,,,,,,,,,,,,,,,,,,,,,,,,,,,,,,,,,,,,,,,,,,,12431,2022-10-31_10h44.42.806,vts_reward_expectancy_bt_OFFLINE,2022.2.4,60.05725992252821,
0,1,0,0,0,0,0,1,circle,star,2,0,2,0,0,1,1,5,,,,,,,,,,,,,,,,,,,,,,,,,,,,,,,,,,,,,,,,385.78451039100764,385.78451039100764,385.78451039100764,385.78451039100764,385.78451039100764,385.78451039100764,385.78451039100764,385.78451039100764,385.78451039100764,385.78451039100764,a,0.5840254899812862,10,629,2,386.3854208840057,,387.88708287704503,,,,,,,,,,,,,,,,,,,,,,,,,,,,,,,,,,,,,,,,,,,,,,,,,,,,,,,,,,,,,,,,,,,,,12431,2022-10-31_10h44.42.806,vts_reward_expectancy_bt_OFFLINE,2022.2.4,60.05725992252821,
0,0,0,1,0,1,0,0,star ,circle,2,0,2,0,0,2,2,10,,,,,,,,,,,,,,,,,,,,,,,,,,,,,,,,,,,,,,,,388.3873927530367,388.3873927530367,388.3873927530367,388.3873927530367,388.3873927530367,388.3873927530367,388.3873927530367,388.3873927530367,388.3873927530367,388.3873927530367,l,0.42852518195286393,10,639,2,388.83758768002735,390.33802993403515,390.33802993403515,390.8381199820433,,,,,,,,,,,,,,,,,,,,,,,,,,,,,,,,,,,,,,,,,,,,,,,,,,,,,,,,,,,,,,,,,,,,12431,2022-10-31_10h44.42.806,vts_reward_expectancy_bt_OFFLINE,2022.2.4,60.05725992252821,
0,0,0,1,0,0,1,0,star,hexagon,2,0,2,0,0,3,3,11,,,,,,,,,,,,,,,,,,,,,,,,,,,,,,,,,,,,,,,,390.8381199820433,390.8381199820433,390.8381199820433,390.8381199820433,390.8381199820433,390.8381199820433,390.8381199820433,390.8381199820433,390.8381199820433,390.8381199820433,a,0.4898637749720365,10,649,2,391.35558391403174,,392.8574157350231,,,,,,,,,,,,,,,,,,,,,,,,,,,,,,,,,,,,,,,,,,,,,,,,,,,,,,,,,,,,,,,,,,,,,12431,2022-10-31_10h44.42.806,vts_reward_expectancy_bt_OFFLINE,2022.2.4,60.05725992252821,
0,1,0,0,1,0,0,0,circle,triangle,2,0,2,0,0,4,4,3,,,,,,,,,,,,,,,,,,,,,,,,,,,,,,,,,,,,,,,,393.35755770804826,393.35755770804826,393.35755770804826,393.35755770804826,393.35755770804826,393.35755770804826,393.35755770804826,393.35755770804826,393.35755770804826,393.35755770804826,a,0.5859448669361882,10,659,2,393.9748903500149,395.47524970804807,395.47524970804807,,,,,,,,,,,,,,,,,,,,,,,,,,,,,,,,,,,,,,,,,,,,,,,,,,,,,,,,,,,,,,,,,,,,,12431,2022-10-31_10h44.42.806,vts_reward_expectancy_bt_OFFLINE,2022.2.4,60.05725992252821,
0,1,0,0,0,0,1,0,circle,hexagon,2,0,2,0,0,5,5,4,,,,,,,,,,,,,,,,,,,,,,,,,,,,,,,,,,,,,,,,395.9755934040295,395.9755934040295,395.9755934040295,395.9755934040295,395.9755934040295,395.9755934040295,395.9755934040295,395.9755934040295,395.9755934040295,395.9755934040295,a,0.7678834759281017,10,669,2,396.7756892370526,,398.2778705720557,,,,,,,,,,,,,,,,,,,,,,,,,,,,,,,,,,,,,,,,,,,,,,,,,,,,,,,,,,,,,,,,,,,,,12431,2022-10-31_10h44.42.806,vts_reward_expectancy_bt_OFFLINE,2022.2.4,60.05725992252821,
0,0,1,0,0,1,0,0,hexagon,circle,2,0,2,0,0,6,6,7,,,,,,,,,,,,,,,,,,,,,,,,,,,,,,,,,,,,,,,,398.77815119200386,398.77815119200386,398.77815119200386,398.77815119200386,398.77815119200386,398.77815119200386,398.77815119200386,398.77815119200386,398.77815119200386,398.77815119200386,l,0.5258498699986376,10,679,2,399.3285886380472,400.8287932170206,400.8287932170206,401.32876848999877,,,,,,,,,,,,,,,,,,,,,,,,,,,,,,,,,,,,,,,,,,,,,,,,,,,,,,,,,,,,,,,,,,,,12431,2022-10-31_10h44.42.806,vts_reward_expectancy_bt_OFFLINE,2022.2.4,60.05725992252821,
0,0,1,0,0,0,0,1,hexagon,star,2,0,2,0,0,7,7,8,,,,,,,,,,,,,,,,,,,,,,,,,,,,,,,,,,,,,,,,401.32876848999877,401.32876848999877,401.32876848999877,401.32876848999877,401.32876848999877,401.32876848999877,401.32876848999877,401.32876848999877,401.32876848999877,401.32876848999877,l,1.0552480859332718,10,689,2,402.4147471670294,403.91521770402323,403.91521770402323,404.4154649670236,,,,,,,,,,,,,,,,,,,,,,,,,,,,,,,,,,,,,,,,,,,,,,,,,,,,,,,,,,,,,,,,,,,,12431,2022-10-31_10h44.42.806,vts_reward_expectancy_bt_OFFLINE,2022.2.4,60.05725992252821,
1,0,0,0,0,0,1,0,triangle,hexagon,2,0,2,0,0,8,8,1,,,,,,,,,,,,,,,,,,,,,,,,,,,,,,,,,,,,,,,,404.4154649670236,404.4154649670236,404.4154649670236,404.4154649670236,404.4154649670236,404.4154649670236,404.4154649670236,404.4154649670236,404.4154649670236,404.4154649670236,l,1.0725471569458023,1,690,2,405.5177292530425,,407.0332426150562,,,,,,,,,,,,,,,,,,,,,,,,,,,,,,,,,,,,,,,,,,,,,,,,,,,,,,,,,,,,,,,,,,,,,12431,2022-10-31_10h44.42.806,vts_reward_expectancy_bt_OFFLINE,2022.2.4,60.05725992252821,
0,0,1,0,1,0,0,0,hexagon,triangle,2,0,2,0,0,9,9,6,,,,,,,,,,,,,,,,,,,,,,,,,,,,,,,,,,,,,,,,407.5186107570189,407.5186107570189,407.5186107570189,407.5186107570189,407.5186107570189,407.5186107570189,407.5186107570189,407.5186107570189,407.5186107570189,407.5186107570189,a,0.9453318959567696,1,691,2,408.4855828520376,409.9859530220274,409.9859530220274,410.48570698400727,,,,,,,,,,,,,,,,,,,,,,,,,,,,,,,,,,,,,,,,,,,,,,,,,,,,,,,,,,,,,,,,,,,,12431,2022-10-31_10h44.42.806,vts_reward_expectancy_bt_OFFLINE,2022.2.4,60.05725992252821,
1,0,0,0,0,0,0,1,triangle,star,2,0,2,0,0,10,10,2,,,,,,,,,,,,,,,,,,,,,,,,,,,,,,,,,,,,,,,,410.48570698400727,410.48570698400727,410.48570698400727,410.48570698400727,410.48570698400727,410.48570698400727,410.48570698400727,410.48570698400727,410.48570698400727,410.48570698400727,l,1.0824006609618664,10,701,2,411.5885316800559,,413.0885242980439,,,,,,,,,,,,,,,,,,,,,,,,,,,,,,,,,,,,,,,,,,,,,,,,,,,,,,,,,,,,,,,,,,,,,12431,2022-10-31_10h44.42.806,vts_reward_expectancy_bt_OFFLINE,2022.2.4,60.05725992252821,
1,0,0,0,0,1,0,0,triangle,circle,2,0,2,0,0,11,11,0,,,,,,,,,,,,,,,,,,,,,,,,,,,,,,,,,,,,,,,,413.58898838202003,413.58898838202003,413.58898838202003,413.58898838202003,413.58898838202003,413.58898838202003,413.58898838202003,413.58898838202003,413.58898838202003,413.58898838202003,l,0.546917115978431,10,711,2,414.15593181102304,415.6562920960132,415.6562920960132,416.1563527560211,,,,,,,,,,,,,,,,,,,,,,,,,,,,,,,,,,,,,,,,,,,,,,,,,,,,,,,,,,,,,,,,,,,,12431,2022-10-31_10h44.42.806,vts_reward_expectancy_bt_OFFLINE,2022.2.4,60.05725992252821,
0,0,0,1,1,0,0,0,star,triangle,2,0,2,0,1,0,12,9,,,,,,,,,,,,,,,,,,,,,,,,,,,,,,,,,,,,,,,,416.1563527560211,416.1563527560211,416.1563527560211,416.1563527560211,416.1563527560211,416.1563527560211,416.1563527560211,416.1563527560211,416.1563527560211,416.1563527560211,a,0.6441216649254784,10,721,2,416.8236542380182,,418.3258594220388,,,,,,,,,,,,,,,,,,,,,,,,,,,,,,,,,,,,,,,,,,,,,,,,,,,,,,,,,,,,,,,,,,,,,12431,2022-10-31_10h44.42.806,vts_reward_expectancy_bt_OFFLINE,2022.2.4,60.05725992252821,
0,0,1,0,0,1,0,0,hexagon,circle,2,0,2,0,1,1,13,7,,,,,,,,,,,,,,,,,,,,,,,,,,,,,,,,,,,,,,,,418.8261987279984,418.8261987279984,418.8261987279984,418.8261987279984,418.8261987279984,418.8261987279984,418.8261987279984,418.8261987279984,418.8261987279984,418.8261987279984,l,0.6696077249362133,10,731,2,419.52693099703174,421.02696697600186,421.02696697600186,421.52692324703094,,,,,,,,,,,,,,,,,,,,,,,,,,,,,,,,,,,,,,,,,,,,,,,,,,,,,,,,,,,,,,,,,,,,12431,2022-10-31_10h44.42.806,vts_reward_expectancy_bt_OFFLINE,2022.2.4,60.05725992252821,
0,0,0,1,0,1,0,0,star ,circle,2,0,2,0,1,2,14,10,,,,,,,,,,,,,,,,,,,,,,,,,,,,,,,,,,,,,,,,421.52692324703094,421.52692324703094,421.52692324703094,421.52692324703094,421.52692324703094,421.52692324703094,421.52692324703094,421.52692324703094,421.52692324703094,421.52692324703094,l,0.5376655299332924,10,741,2,422.09436838305555,,423.5961842540419,,,,,,,,,,,,,,,,,,,,,,,,,,,,,,,,,,,,,,,,,,,,,,,,,,,,,,,,,,,,,,,,,,,,,12431,2022-10-31_10h44.42.806,vts_reward_expectancy_bt_OFFLINE,2022.2.4,60.05725992252821,
0,1,0,0,0,0,1,0,circle,hexagon,2,0,2,0,1,3,15,4,,,,,,,,,,,,,,,,,,,,,,,,,,,,,,,,,,,,,,,,424.096363194054,424.096363194054,424.096363194054,424.096363194054,424.096363194054,424.096363194054,424.096363194054,424.096363194054,424.096363194054,424.096363194054,a,0.5760317699750885,10,751,2,424.69674938503886,,426.19713527103886,,,,,,,,,,,,,,,,,,,,,,,,,,,,,,,,,,,,,,,,,,,,,,,,,,,,,,,,,,,,,,,,,,,,,12431,2022-10-31_10h44.42.806,vts_reward_expectancy_bt_OFFLINE,2022.2.4,60.05725992252821,
1,0,0,0,0,0,1,0,triangle,hexagon,2,0,2,0,1,4,16,1,,,,,,,,,,,,,,,,,,,,,,,,,,,,,,,,,,,,,,,,426.6970818590489,426.6970818590489,426.6970818590489,426.6970818590489,426.6970818590489,426.6970818590489,426.6970818590489,426.6970818590489,426.6970818590489,426.6970818590489,a,0.22349900100380182,10,761,2,426.9480152350152,,428.45007439202163,,,,,,,,,,,,,,,,,,,,,,,,,,,,,,,,,,,,,,,,,,,,,,,,,,,,,,,,,,,,,,,,,,,,,12431,2022-10-31_10h44.42.806,vts_reward_expectancy_bt_OFFLINE,2022.2.4,60.05725992252821,
0,0,1,0,1,0,0,0,hexagon,triangle,2,0,2,0,1,5,17,6,,,,,,,,,,,,,,,,,,,,,,,,,,,,,,,,,,,,,,,,428.9503149430384,428.9503149430384,428.9503149430384,428.9503149430384,428.9503149430384,428.9503149430384,428.9503149430384,428.9503149430384,428.9503149430384,428.9503149430384,a,1.1456011079717427,1,762,2,430.1320147580118,,431.6344704100047,,,,,,,,,,,,,,,,,,,,,,,,,,,,,,,,,,,,,,,,,,,,,,,,,,,,,,,,,,,,,,,,,,,,,12431,2022-10-31_10h44.42.806,vts_reward_expectancy_bt_OFFLINE,2022.2.4,60.05725992252821,
0,0,1,0,0,0,0,1,hexagon,star,2,0,2,0,1,6,18,8,,,,,,,,,,,,,,,,,,,,,,,,,,,,,,,,,,,,,,,,432.13445467705606,432.13445467705606,432.13445467705606,432.13445467705606,432.13445467705606,432.13445467705606,432.13445467705606,432.13445467705606,432.13445467705606,432.13445467705606,l,1.177555444999598,10,772,2,433.33890372305177,,434.8537649800419,,,,,,,,,,,,,,,,,,,,,,,,,,,,,,,,,,,,,,,,,,,,,,,,,,,,,,,,,,,,,,,,,,,,,12431,2022-10-31_10h44.42.806,vts_reward_expectancy_bt_OFFLINE,2022.2.4,60.05725992252821,
0,1,0,0,0,0,0,1,circle,star,2,0,2,0,1,7,19,5,,,,,,,,,,,,,,,,,,,,,,,,,,,,,,,,,,,,,,,,435.35378993302584,435.35378993302584,435.35378993302584,435.35378993302584,435.35378993302584,435.35378993302584,435.35378993302584,435.35378993302584,435.35378993302584,435.35378993302584,a,1.150013502978254,10,782,2,436.52116361801745,,438.0233173900051,,,,,,,,,,,,,,,,,,,,,,,,,,,,,,,,,,,,,,,,,,,,,,,,,,,,,,,,,,,,,,,,,,,,,12431,2022-10-31_10h44.42.806,vts_reward_expectancy_bt_OFFLINE,2022.2.4,60.05725992252821,
0,0,0,1,0,0,1,0,star,hexagon,2,0,2,0,1,8,20,11,,,,,,,,,,,,,,,,,,,,,,,,,,,,,,,,,,,,,,,,438.52358355600154,438.52358355600154,438.52358355600154,438.52358355600154,438.52358355600154,438.52358355600154,438.52358355600154,438.52358355600154,438.52358355600154,438.52358355600154,a,1.916931459971238,1,783,2,440.4607164050103,,441.9748845550348,,,,,,,,,,,,,,,,,,,,,,,,,,,,,,,,,,,,,,,,,,,,,,,,,,,,,,,,,,,,,,,,,,,,,12431,2022-10-31_10h44.42.806,vts_reward_expectancy_bt_OFFLINE,2022.2.4,60.05725992252821,
0,1,0,0,1,0,0,0,circle,triangle,2,0,2,0,1,9,21,3,,,,,,,,,,,,,,,,,,,,,,,,,,,,,,,,,,,,,,,,442.4602552620345,442.4602552620345,442.4602552620345,442.4602552620345,442.4602552620345,442.4602552620345,442.4602552620345,442.4602552620345,442.4602552620345,442.4602552620345,a,1.3157252490054816,10,793,2,443.7963933640276,,445.3111296080169,,,,,,,,,,,,,,,,,,,,,,,,,,,,,,,,,,,,,,,,,,,,,,,,,,,,,,,,,,,,,,,,,,,,,12431,2022-10-31_10h44.42.806,vts_reward_expectancy_bt_OFFLINE,2022.2.4,60.05725992252821,
1,0,0,0,0,1,0,0,triangle,circle,2,0,2,0,1,10,22,0,,,,,,,,,,,,,,,,,,,,,,,,,,,,,,,,,,,,,,,,445.7952065040008,445.7952065040008,445.7952065040008,445.7952065040008,445.7952065040008,445.7952065040008,445.7952065040008,445.7952065040008,445.7952065040008,445.7952065040008,l,0.8924813919584267,1,794,2,446.7143413570011,,448.214473162021,,,,,,,,,,,,,,,,,,,,,,,,,,,,,,,,,,,,,,,,,,,,,,,,,,,,,,,,,,,,,,,,,,,,,12431,2022-10-31_10h44.42.806,vts_reward_expectancy_bt_OFFLINE,2022.2.4,60.05725992252821,
1,0,0,0,0,0,0,1,triangle,star,2,0,2,0,1,11,23,2,,,,,,,,,,,,,,,,,,,,,,,,,,,,,,,,,,,,,,,,448.7149634680245,448.7149634680245,448.7149634680245,448.7149634680245,448.7149634680245,448.7149634680245,448.7149634680245,448.7149634680245,448.7149634680245,448.7149634680245,l,1.2527143050101586,10,804,2,449.9989802710479,451.4987869330216,451.4987869330216,451.9987267200486,,,,,,,,,,,,,,,,,,,,,,,,,,,,,,,,,,,,,,,,,,,,,,,,,,,,,,,,,,,,,,,,,,,,12431,2022-10-31_10h44.42.806,vts_reward_expectancy_bt_OFFLINE,2022.2.4,60.05725992252821,
1,0,0,0,0,0,0,1,triangle,star,2,0,2,0,2,0,24,2,,,,,,,,,,,,,,,,,,,,,,,,,,,,,,,,,,,,,,,,451.9987267200486,451.9987267200486,451.9987267200486,451.9987267200486,451.9987267200486,451.9987267200486,451.9987267200486,451.9987267200486,451.9987267200486,451.9987267200486,l,1.312768812989816,10,814,2,453.33454451401485,454.83509364601923,454.83509364601923,,,,,,,,,,,,,,,,,,,,,,,,,,,,,,,,,,,,,,,,,,,,,,,,,,,,,,,,,,,,,,,,,,,,,12431,2022-10-31_10h44.42.806,vts_reward_expectancy_bt_OFFLINE,2022.2.4,60.05725992252821,
0,0,0,1,0,1,0,0,star ,circle,2,0,2,0,2,1,25,10,,,,,,,,,,,,,,,,,,,,,,,,,,,,,,,,,,,,,,,,455.3351912430371,455.3351912430371,455.3351912430371,455.3351912430371,455.3351912430371,455.3351912430371,455.3351912430371,455.3351912430371,455.3351912430371,455.3351912430371,l,1.1048262809636071,10,824,2,456.46970361401327,,457.9715257480275,,,,,,,,,,,,,,,,,,,,,,,,,,,,,,,,,,,,,,,,,,,,,,,,,,,,,,,,,,,,,,,,,,,,,12431,2022-10-31_10h44.42.806,vts_reward_expectancy_bt_OFFLINE,2022.2.4,60.05725992252821,
1,0,0,0,0,1,0,0,triangle,circle,2,0,2,0,2,2,26,0,,,,,,,,,,,,,,,,,,,,,,,,,,,,,,,,,,,,,,,,458.4719586710562,458.4719586710562,458.4719586710562,458.4719586710562,458.4719586710562,458.4719586710562,458.4719586710562,458.4719586710562,458.4719586710562,458.4719586710562,l,1.48753325099824,10,834,2,459.9895150650409,461.4894360000035,461.4894360000035,461.98934118804755,,,,,,,,,,,,,,,,,,,,,,,,,,,,,,,,,,,,,,,,,,,,,,,,,,,,,,,,,,,,,,,,,,,,12431,2022-10-31_10h44.42.806,vts_reward_expectancy_bt_OFFLINE,2022.2.4,60.05725992252821,
0,0,1,0,1,0,0,0,hexagon,triangle,2,0,2,0,2,3,27,6,,,,,,,,,,,,,,,,,,,,,,,,,,,,,,,,,,,,,,,,461.98934118804755,461.98934118804755,461.98934118804755,461.98934118804755,461.98934118804755,461.98934118804755,461.98934118804755,461.98934118804755,461.98934118804755,461.98934118804755,l,2.202679580950644,10,844,2,464.209471898037,465.709765000036,465.709765000036,466.2101174510317,,,,,,,,,,,,,,,,,,,,,,,,,,,,,,,,,,,,,,,,,,,,,,,,,,,,,,,,,,,,,,,,,,,,12431,2022-10-31_10h44.42.806,vts_reward_expectancy_bt_OFFLINE,2022.2.4,60.05725992252821,
0,0,1,0,0,1,0,0,hexagon,circle,2,0,2,0,2,4,28,7,,,,,,,,,,,,,,,,,,,,,,,,,,,,,,,,,,,,,,,,466.2101174510317,466.2101174510317,466.2101174510317,466.2101174510317,466.2101174510317,466.2101174510317,466.2101174510317,466.2101174510317,466.2101174510317,466.2101174510317,l,1.1742684339988045,10,854,2,467.4121086920495,468.9123812870239,468.9123812870239,469.41261313902214,,,,,,,,,,,,,,,,,,,,,,,,,,,,,,,,,,,,,,,,,,,,,,,,,,,,,,,,,,,,,,,,,,,,12431,2022-10-31_10h44.42.806,vts_reward_expectancy_bt_OFFLINE,2022.2.4,60.05725992252821,
0,0,0,1,1,0,0,0,star,triangle,2,0,2,0,2,5,29,9,,,,,,,,,,,,,,,,,,,,,,,,,,,,,,,,,,,,,,,,469.41261313902214,469.41261313902214,469.41261313902214,469.41261313902214,469.41261313902214,469.41261313902214,469.41261313902214,469.41261313902214,469.41261313902214,469.41261313902214,a,1.060013193928171,10,864,2,470.4968299320317,471.996728334052,471.996728334052,,,,,,,,,,,,,,,,,,,,,,,,,,,,,,,,,,,,,,,,,,,,,,,,,,,,,,,,,,,,,,,,,,,,,12431,2022-10-31_10h44.42.806,vts_reward_expectancy_bt_OFFLINE,2022.2.4,60.05725992252821,
0,1,0,0,0,0,1,0,circle,hexagon,2,0,2,0,2,6,30,4,,,,,,,,,,,,,,,,,,,,,,,,,,,,,,,,,,,,,,,,472.49874323705444,472.49874323705444,472.49874323705444,472.49874323705444,472.49874323705444,472.49874323705444,472.49874323705444,472.49874323705444,472.49874323705444,472.49874323705444,a,0.8212314969277941,10,874,2,473.349612104008,474.84998084703693,474.84998084703693,475.349861454044,,,,,,,,,,,,,,,,,,,,,,,,,,,,,,,,,,,,,,,,,,,,,,,,,,,,,,,,,,,,,,,,,,,,12431,2022-10-31_10h44.42.806,vts_reward_expectancy_bt_OFFLINE,2022.2.4,60.05725992252821,
0,1,0,0,1,0,0,0,circle,triangle,2,0,2,0,2,7,31,3,,,,,,,,,,,,,,,,,,,,,,,,,,,,,,,,,,,,,,,,475.349861454044,475.349861454044,475.349861454044,475.349861454044,475.349861454044,475.349861454044,475.349861454044,475.349861454044,475.349861454044,475.349861454044,a,0.9536817859625444,10,884,2,476.33433270902606,,477.8359422260546,,,,,,,,,,,,,,,,,,,,,,,,,,,,,,,,,,,,,,,,,,,,,,,,,,,,,,,,,,,,,,,,,,,,,12431,2022-10-31_10h44.42.806,vts_reward_expectancy_bt_OFFLINE,2022.2.4,60.05725992252821,
0,0,1,0,0,0,0,1,hexagon,star,2,0,2,0,2,8,32,8,,,,,,,,,,,,,,,,,,,,,,,,,,,,,,,,,,,,,,,,478.33648317703046,478.33648317703046,478.33648317703046,478.33648317703046,478.33648317703046,478.33648317703046,478.33648317703046,478.33648317703046,478.33648317703046,478.33648317703046,l,2.095858506974764,10,894,2,480.45466138405027,481.9538492220454,481.9538492220454,,,,,,,,,,,,,,,,,,,,,,,,,,,,,,,,,,,,,,,,,,,,,,,,,,,,,,,,,,,,,,,,,,,,,12431,2022-10-31_10h44.42.806,vts_reward_expectancy_bt_OFFLINE,2022.2.4,60.05725992252821,
0,1,0,0,0,0,0,1,circle,star,2,0,2,0,2,9,33,5,,,,,,,,,,,,,,,,,,,,,,,,,,,,,,,,,,,,,,,,482.456058529031,482.456058529031,482.456058529031,482.456058529031,482.456058529031,482.456058529031,482.456058529031,482.456058529031,482.456058529031,482.456058529031,a,0.9514464269741438,1,895,2,483.4401736880536,484.9404030160513,484.9404030160513,485.4407429730054,,,,,,,,,,,,,,,,,,,,,,,,,,,,,,,,,,,,,,,,,,,,,,,,,,,,,,,,,,,,,,,,,,,,12431,2022-10-31_10h44.42.806,vts_reward_expectancy_bt_OFFLINE,2022.2.4,60.05725992252821,
1,0,0,0,0,0,1,0,triangle,hexagon,2,0,2,0,2,10,34,1,,,,,,,,,,,,,,,,,,,,,,,,,,,,,,,,,,,,,,,,485.4407429730054,485.4407429730054,485.4407429730054,485.4407429730054,485.4407429730054,485.4407429730054,485.4407429730054,485.4407429730054,485.4407429730054,485.4407429730054,a,1.0873117429437116,1,896,2,486.5580844510114,,488.05978559399955,,,,,,,,,,,,,,,,,,,,,,,,,,,,,,,,,,,,,,,,,,,,,,,,,,,,,,,,,,,,,,,,,,,,,12431,2022-10-31_10h44.42.806,vts_reward_expectancy_bt_OFFLINE,2022.2.4,60.05725992252821,
0,0,0,1,0,0,1,0,star,hexagon,2,0,2,0,2,11,35,11,,,,,,,,,,,,,,,,,,,,,,,,,,,,,,,,,,,,,,,,488.560075735033,488.560075735033,488.560075735033,488.560075735033,488.560075735033,488.560075735033,488.560075735033,488.560075735033,488.560075735033,488.560075735033,a,2.0394356879987754,10,906,2,490.63020187901566,,492.1452968060039,,,,,,,,,,,,,,,,,,,,,,,,,,,,,,,,,,,,,,,,,,,,,,,,,,,,,,,,,,,,,,,,,,,,,12431,2022-10-31_10h44.42.806,vts_reward_expectancy_bt_OFFLINE,2022.2.4,60.05725992252821,
0,0,0,1,0,0,1,0,star,hexagon,2,0,2,0,3,0,36,11,,,,,,,,,,,,,,,,,,,,,,,,,,,,,,,,,,,,,,,,492.63051947799977,492.63051947799977,492.63051947799977,492.63051947799977,492.63051947799977,492.63051947799977,492.63051947799977,492.63051947799977,492.63051947799977,492.63051947799977,a,0.8094605960068293,10,916,2,493.46447340602754,494.96442020201357,494.96442020201357,495.46442705002846,,,,,,,,,,,,,,,,,,,,,,,,,,,,,,,,,,,,,,,,,,,,,,,,,,,,,,,,,,,,,,,,,,,,12431,2022-10-31_10h44.42.806,vts_reward_expectancy_bt_OFFLINE,2022.2.4,60.05725992252821,
0,0,0,1,0,1,0,0,star ,circle,2,0,2,0,3,1,37,10,,,,,,,,,,,,,,,,,,,,,,,,,,,,,,,,,,,,,,,,495.46442705002846,495.46442705002846,495.46442705002846,495.46442705002846,495.46442705002846,495.46442705002846,495.46442705002846,495.46442705002846,495.46442705002846,495.46442705002846,l,1.0721318939467892,10,926,2,496.5654182130238,,498.06713201501407,,,,,,,,,,,,,,,,,,,,,,,,,,,,,,,,,,,,,,,,,,,,,,,,,,,,,,,,,,,,,,,,,,,,,12431,2022-10-31_10h44.42.806,vts_reward_expectancy_bt_OFFLINE,2022.2.4,60.05725992252821,
1,0,0,0,0,0,1,0,triangle,hexagon,2,0,2,0,3,2,38,1,,,,,,,,,,,,,,,,,,,,,,,,,,,,,,,,,,,,,,,,498.56739825900877,498.56739825900877,498.56739825900877,498.56739825900877,498.56739825900877,498.56739825900877,498.56739825900877,498.56739825900877,498.56739825900877,498.56739825900877,a,0.9601129799266346,1,927,2,499.5540025520022,,501.0684234290384,,,,,,,,,,,,,,,,,,,,,,,,,,,,,,,,,,,,,,,,,,,,,,,,,,,,,,,,,,,,,,,,,,,,,12431,2022-10-31_10h44.42.806,vts_reward_expectancy_bt_OFFLINE,2022.2.4,60.05725992252821,
0,0,0,1,1,0,0,0,star,triangle,2,0,2,0,3,3,39,9,,,,,,,,,,,,,,,,,,,,,,,,,,,,,,,,,,,,,,,,501.56844660802744,501.56844660802744,501.56844660802744,501.56844660802744,501.56844660802744,501.56844660802744,501.56844660802744,501.56844660802744,501.56844660802744,501.56844660802744,a,1.4315243609598838,10,937,2,503.02335867501097,,504.5384832950076,,,,,,,,,,,,,,,,,,,,,,,,,,,,,,,,,,,,,,,,,,,,,,,,,,,,,,,,,,,,,,,,,,,,,12431,2022-10-31_10h44.42.806,vts_reward_expectancy_bt_OFFLINE,2022.2.4,60.05725992252821,
0,1,0,0,1,0,0,0,circle,triangle,2,0,2,0,3,4,40,3,,,,,,,,,,,,,,,,,,,,,,,,,,,,,,,,,,,,,,,,505.0384239080013,505.0384239080013,505.0384239080013,505.0384239080013,505.0384239080013,505.0384239080013,505.0384239080013,505.0384239080013,505.0384239080013,505.0384239080013,a,0.7777744129416533,10,947,2,505.8392096120515,507.33947421604535,507.33947421604535,,,,,,,,,,,,,,,,,,,,,,,,,,,,,,,,,,,,,,,,,,,,,,,,,,,,,,,,,,,,,,,,,,,,,12431,2022-10-31_10h44.42.806,vts_reward_expectancy_bt_OFFLINE,2022.2.4,60.05725992252821,
1,0,0,0,0,1,0,0,triangle,circle,2,0,2,0,3,5,41,0,,,,,,,,,,,,,,,,,,,,,,,,,,,,,,,,,,,,,,,,507.8409105000319,507.8409105000319,507.8409105000319,507.8409105000319,507.8409105000319,507.8409105000319,507.8409105000319,507.8409105000319,507.8409105000319,507.8409105000319,l,1.0948322319309227,10,957,2,508.9595678860205,510.4593118870398,510.4593118870398,510.9593057160382,,,,,,,,,,,,,,,,,,,,,,,,,,,,,,,,,,,,,,,,,,,,,,,,,,,,,,,,,,,,,,,,,,,,12431,2022-10-31_10h44.42.806,vts_reward_expectancy_bt_OFFLINE,2022.2.4,60.05725992252821,
0,0,1,0,0,0,0,1,hexagon,star,2,0,2,0,3,6,42,8,,,,,,,,,,,,,,,,,,,,,,,,,,,,,,,,,,,,,,,,510.9593057160382,510.9593057160382,510.9593057160382,510.9593057160382,510.9593057160382,510.9593057160382,510.9593057160382,510.9593057160382,510.9593057160382,510.9593057160382,l,0.9126609609811567,1,958,2,511.8954532360076,,513.395329217019,,,,,,,,,,,,,,,,,,,,,,,,,,,,,,,,,,,,,,,,,,,,,,,,,,,,,,,,,,,,,,,,,,,,,12431,2022-10-31_10h44.42.806,vts_reward_expectancy_bt_OFFLINE,2022.2.4,60.05725992252821,
0,1,0,0,0,0,1,0,circle,hexagon,2,0,2,0,3,7,43,4,,,,,,,,,,,,,,,,,,,,,,,,,,,,,,,,,,,,,,,,513.8954027480213,513.8954027480213,513.8954027480213,513.8954027480213,513.8954027480213,513.8954027480213,513.8954027480213,513.8954027480213,513.8954027480213,513.8954027480213,a,0.6088266259757802,10,968,2,514.5314022110542,,516.0462884490262,,,,,,,,,,,,,,,,,,,,,,,,,,,,,,,,,,,,,,,,,,,,,,,,,,,,,,,,,,,,,,,,,,,,,12431,2022-10-31_10h44.42.806,vts_reward_expectancy_bt_OFFLINE,2022.2.4,60.05725992252821,
0,0,1,0,1,0,0,0,hexagon,triangle,2,0,2,0,3,8,44,6,,,,,,,,,,,,,,,,,,,,,,,,,,,,,,,,,,,,,,,,516.5463700670516,516.5463700670516,516.5463700670516,516.5463700670516,516.5463700670516,516.5463700670516,516.5463700670516,516.5463700670516,516.5463700670516,516.5463700670516,a,1.9651592529262416,1,969,2,518.535042634001,,520.0491388890077,,,,,,,,,,,,,,,,,,,,,,,,,,,,,,,,,,,,,,,,,,,,,,,,,,,,,,,,,,,,,,,,,,,,,12431,2022-10-31_10h44.42.806,vts_reward_expectancy_bt_OFFLINE,2022.2.4,60.05725992252821,
0,0,1,0,0,1,0,0,hexagon,circle,2,0,2,0,3,9,45,7,,,,,,,,,,,,,,,,,,,,,,,,,,,,,,,,,,,,,,,,520.5492909290479,520.5492909290479,520.5492909290479,520.5492909290479,520.5492909290479,520.5492909290479,520.5492909290479,520.5492909290479,520.5492909290479,520.5492909290479,l,0.9542778929462656,10,979,2,521.5360197940026,,523.0353171680472,,,,,,,,,,,,,,,,,,,,,,,,,,,,,,,,,,,,,,,,,,,,,,,,,,,,,,,,,,,,,,,,,,,,,12431,2022-10-31_10h44.42.806,vts_reward_expectancy_bt_OFFLINE,2022.2.4,60.05725992252821,
0,1,0,0,0,0,0,1,circle,star,2,0,2,0,3,10,46,5,,,,,,,,,,,,,,,,,,,,,,,,,,,,,,,,,,,,,,,,523.5355736640049,523.5355736640049,523.5355736640049,523.5355736640049,523.5355736640049,523.5355736640049,523.5355736640049,523.5355736640049,523.5355736640049,523.5355736640049,a,0.8400948669877835,10,989,2,524.4040844330448,,525.9196305090445,,,,,,,,,,,,,,,,,,,,,,,,,,,,,,,,,,,,,,,,,,,,,,,,,,,,,,,,,,,,,,,,,,,,,12431,2022-10-31_10h44.42.806,vts_reward_expectancy_bt_OFFLINE,2022.2.4,60.05725992252821,
1,0,0,0,0,0,0,1,triangle,star,2,0,2,0,3,11,47,2,,,,,,,,,,,,,,,,,,,,,,,,,,,,,,,,,,,,,,,,526.4200288230204,526.4200288230204,526.4200288230204,526.4200288230204,526.4200288230204,526.4200288230204,526.4200288230204,526.4200288230204,526.4200288230204,526.4200288230204,l,0.6994360429816879,10,999,2,527.1377880170476,,528.6391663830145,,,,,,,,,,,,,,,,,,,,,,,,,,,,,,,,,,,,,,,,,,,,,,,,,,,,,,,,,,,,,,,,,,,,,12431,2022-10-31_10h44.42.806,vts_reward_expectancy_bt_OFFLINE,2022.2.4,60.05725992252821,
,,,,,,,,,,,,,,,,,,0,0,0,0,0,0,0,0,,,,,,,,,,,,,,,,,,,,,,,,,,,,,,,,,,,,,,,,,,,,,,,,,593.1697827480384,,Y,160,circle,0.0029505639686249197,588.0948258200078,589.5832000310184,589.5832000310184,589.5832000310184,0,0,d,2.057400503952522,0,591.6707988110138,,,,,,,,,,,,,,,,,,,,,,,,,,,,,,,,,,,,,,,,,,,,,,,,,,,,,,12431,2022-10-31_10h44.42.806,vts_reward_expectancy_bt_OFFLINE,2022.2.4,60.05725992252821,
,,,,,,,,,,,,,,,,,,0,0,0,0,1,0,1,0,,,,,,,,,,,,,,,,,,,,,,,,,,,,,,,,,,,,,,,,,,,,,,,,,598.2900436190539,,F,167,star,0.0019546389812603593,594.1654704370303,595.6537905690493,595.6537905690493,595.6537905690493,1,1,d,1.1057557539315894,0,596.7909874410252,,,,,,,,,,,,,,,,,,,,,,,,,,,,,,,,,,,,,,,,,,,,,,,,,,,,,,12431,2022-10-31_10h44.42.806,vts_reward_expectancy_bt_OFFLINE,2022.2.4,60.05725992252821,
,,,,,,,,,,,,,,,,,,0,0,0,0,2,0,2,0,,,,,,,,,,,,,,,,,,,,,,,,,,,,,,,,,,,,,,,,,,,,,,,,,603.0605148440227,,U,132,triangle,0.001671870006248355,599.2856720530544,600.7748031320516,600.7748031320516,600.7748031320516,1,0,f,0.7612144609447569,0,601.5585109230014,,,,,,,,,,,,,,,,,,,,,,,,,,,,,,,,,,,,,,,,,,,,,,,,,,,,,,12431,2022-10-31_10h44.42.806,vts_reward_expectancy_bt_OFFLINE,2022.2.4,60.05725992252821,
,,,,,,,,,,,,,,,,,,0,0,0,0,3,0,3,0,,,,,,,,,,,,,,,,,,,,,,,,,,,,,,,,,,,,,,,,,,,,,,,,,607.7974677970051,,W,139,hexagon,0.002096272015478462,604.0559466940467,605.544467557047,605.544467557047,605.544467557047,1,0,f,0.7278099019895308,0,606.2957030470134,,,,,,,,,,,,,,,,,,,,,,,,,,,,,,,,,,,,,,,,,,,,,,,,,,,,,,12431,2022-10-31_10h44.42.806,vts_reward_expectancy_bt_OFFLINE,2022.2.4,60.05725992252821,
,,,,,,,,,,,,,,,,,,0,0,0,0,4,0,4,0,,,,,,,,,,,,,,,,,,,,,,,,,,,,,,,,,,,,,,,,,,,,,,,,,612.7673647589982,,S,181,hexagon,0.002182027033995837,608.7933067400008,610.281633974053,610.281633974053,610.281633974053,1,0,f,0.9508187379688025,0,611.2654736620025,,,,,,,,,,,,,,,,,,,,,,,,,,,,,,,,,,,,,,,,,,,,,,,,,,,,,,12431,2022-10-31_10h44.42.806,vts_reward_expectancy_bt_OFFLINE,2022.2.4,60.05725992252821,
,,,,,,,,,,,,,,,,,,0,0,0,0,5,0,5,0,,,,,,,,,,,,,,,,,,,,,,,,,,,,,,,,,,,,,,,,,,,,,,,,,617.4707903180388,,B,146,triangle,0.0013544459943659604,613.7629507830134,615.2517305680085,615.2517305680085,615.2517305680085,1,0,d,0.6839179109665565,0,615.9688313780352,,,,,,,,,,,,,,,,,,,,,,,,,,,,,,,,,,,,,,,,,,,,,,,,,,,,,,12431,2022-10-31_10h44.42.806,vts_reward_expectancy_bt_OFFLINE,2022.2.4,60.05725992252821,
,,,,,,,,,,,,,,,,,,0,0,0,0,6,0,6,0,,,,,,,,,,,,,,,,,,,,,,,,,,,,,,,,,,,,,,,,,,,,,,,,,622.8580422060331,,H,174,star,0.0009619820048101246,618.4665417170036,619.9551021910156,619.9551021910156,619.9551021910156,1,0,d,1.381521058967337,0,621.356962779013,,,,,,,,,,,,,,,,,,,,,,,,,,,,,,,,,,,,,,,,,,,,,,,,,,,,,,12431,2022-10-31_10h44.42.806,vts_reward_expectancy_bt_OFFLINE,2022.2.4,60.05725992252821,
,,,,,,,,,,,,,,,,,,0,0,0,0,7,0,7,0,,,,,,,,,,,,,,,,,,,,,,,,,,,,,,,,,,,,,,,,,,,,,,,,,627.4953535490204,,D,125,circle,0.0018675869796425104,623.8536815570551,625.3423297100235,625.3423297100235,625.3423297100235,1,0,d,0.6339302589767613,0,625.9941532870289,,,,,,,,,,,,,,,,,,,,,,,,,,,,,,,,,,,,,,,,,,,,,,,,,,,,,,12431,2022-10-31_10h44.42.806,vts_reward_expectancy_bt_OFFLINE,2022.2.4,60.05725992252821,
,,,,,,,,,,,,,,,,,,0,0,0,0,8,0,8,0,,,,,,,,,,,,,,,,,,,,,,,,,,,,,,,,,,,,,,,,,,,,,,,,,632.3132688530022,,Y,160,hexagon,0.0010761040030047297,628.4899339660187,629.9790726520005,629.9790726520005,629.9790726520005,1,0,f,0.7970283990143798,0,630.8031252900255,,,,,,,,,,,,,,,,,,,,,,,,,,,,,,,,,,,,,,,,,,,,,,,,,,,,,,12431,2022-10-31_10h44.42.806,vts_reward_expectancy_bt_OFFLINE,2022.2.4,60.05725992252821,
,,,,,,,,,,,,,,,,,,0,0,0,0,9,0,9,0,,,,,,,,,,,,,,,,,,,,,,,,,,,,,,,,,,,,,,,,,,,,,,,,,637.0002019720268,,F,167,circle,0.002236804983112961,633.2936110510491,634.7830234580324,634.7830234580324,634.7830234580324,1,0,d,0.6884252859745175,0,635.5008532970096,637.0002019720268,,,,,,,,,,,,,,,,,,,,,,,,,,,,,,,,,,,,,,,,,,,,,,,,,,,,,12431,2022-10-31_10h44.42.806,vts_reward_expectancy_bt_OFFLINE,2022.2.4,60.05725992252821,
,,,,,,,,,,,,,,,,,,,,,,,,,,0,0,0,0,0,0,0,0,,,,,,,,,,,,,,,,,,,,,,,,,,,,,,,,,,,,,,,,,686.2367815850303,,U,174,hexagon,0.0006422720034606755,,,,,2,0,,,1,684.724337339052,,682.0796787380241,683.5685119359987,683.5685119359987,683.5685119359987,f,1.1200772449956276,,,,,,,,,,,,,,,,,,,,,,,,,,,,,,,,,,,,,,,,,,,,,,,12431,2022-10-31_10h44.42.806,vts_reward_expectancy_bt_OFFLINE,2022.2.4,60.05725992252821,
,,,,,,,,,,,,,,,,,,,,,,,,,,0,0,0,0,1,0,1,0,,,,,,,,,,,,,,,,,,,,,,,,,,,,,,,,,,,,,,,,,691.4235525170225,,D,132,triangle,0.016684267029631883,,,,,1,0,,,1,689.9095705190557,,687.2321582740406,688.7055843190174,688.7055843190174,688.7055843190174,j,1.1830437489552423,,,,,,,,,,,,,,,,,,,,,,,,,,,,,,,,,,,,,,,,,,,,,,,12431,2022-10-31_10h44.42.806,vts_reward_expectancy_bt_OFFLINE,2022.2.4,60.05725992252821,
,,,,,,,,,,,,,,,,,,,,,,,,,,0,0,0,0,2,0,2,0,,,,,,,,,,,,,,,,,,,,,,,,,,,,,,,,,,,,,,,,,696.027197633055,,H,181,star,0.016930209007114172,,,,,1,0,,,1,694.5114836310386,,692.4189164790441,693.8929874500027,693.8929874500027,693.8929874500027,k,0.5953448709333315,,,,,,,,,,,,,,,,,,,,,,,,,,,,,,,,,,,,,,,,,,,,,,,12431,2022-10-31_10h44.42.806,vts_reward_expectancy_bt_OFFLINE,2022.2.4,60.05725992252821,
,,,,,,,,,,,,,,,,,,,,,,,,,,0,0,0,0,3,0,3,0,,,,,,,,,,,,,,,,,,,,,,,,,,,,,,,,,,,,,,,,,700.8637233910267,701.3639502910082,W,160,circle,0.01648865401512012,,,,,1,0,,,1,699.364809952036,700.8637233910267,697.0227409870131,698.4965823010425,698.4965823010425,698.4965823010425,k,0.8396665079635568,,,,,,,,,,,,,,,,,,,,,,,,,,,,,,,,,,,,,,,,,,,,,,,12431,2022-10-31_10h44.42.806,vts_reward_expectancy_bt_OFFLINE,2022.2.4,60.05725992252821,
,,,,,,,,,,,,,,,,,,,,,,,,,,0,0,0,0,4,0,4,0,,,,,,,,,,,,,,,,,,,,,,,,,,,,,,,,,,,,,,,,,705.5844227600028,,F,125,circle,0.0001513920142315328,,,,,1,0,,,1,704.0843577890191,,701.8711058670306,703.3496764710289,703.3496764710289,703.3496764710289,j,0.7067276769666933,,,,,,,,,,,,,,,,,,,,,,,,,,,,,,,,,,,,,,,,,,,,,,,12431,2022-10-31_10h44.42.806,vts_reward_expectancy_bt_OFFLINE,2022.2.4,60.05725992252821,
,,,,,,,,,,,,,,,,,,,,,,,,,,0,0,0,0,5,0,5,0,,,,,,,,,,,,,,,,,,,,,,,,,,,,,,,,,,,,,,,,,710.6045396240079,711.1045845820336,S,146,triangle,0.0004014850128442049,,,,,1,0,,,1,709.1052488840069,710.6045396240079,706.5793576660217,708.0699126120307,708.0699126120307,708.0699126120307,j,1.010743899969384,,,,,,,,,,,,,,,,,,,,,,,,,,,,,,,,,,,,,,,,,,,,,,,12431,2022-10-31_10h44.42.806,vts_reward_expectancy_bt_OFFLINE,2022.2.4,60.05725992252821,
,,,,,,,,,,,,,,,,,,,,,,,,,,0,0,0,0,6,0,6,0,,,,,,,,,,,,,,,,,,,,,,,,,,,,,,,,,,,,,,,,,715.2077419260168,715.707990998053,Y,139,star,0.00010254100197926164,,,,,1,0,,,1,713.7085993670044,715.2077419260168,711.5999961290509,713.0904868030339,713.0904868030339,713.0904868030339,j,0.5972638569655828,,,,,,,,,,,,,,,,,,,,,,,,,,,,,,,,,,,,,,,,,,,,,,,12431,2022-10-31_10h44.42.806,vts_reward_expectancy_bt_OFFLINE,2022.2.4,60.05725992252821,
,,,,,,,,,,,,,,,,,,,,,,,,,,0,0,0,0,7,0,7,0,,,,,,,,,,,,,,,,,,,,,,,,,,,,,,,,,,,,,,,,,719.8612778510433,,B,167,hexagon,0.00014313397696241736,,,,,1,0,,,1,718.3617323540384,719.8612778510433,716.2141794500058,717.6940505150123,717.6940505150123,717.6940505150123,k,0.6424598969751969,,,,,,,,,,,,,,,,,,,,,,,,,,,,,,,,,,,,,,,,,,,,,,,12431,2022-10-31_10h44.42.806,vts_reward_expectancy_bt_OFFLINE,2022.2.4,60.05725992252821,
,,,,,,,,,,,,,,,,,,,,,,,,,,0,0,0,0,8,0,8,0,,,,,,,,,,,,,,,,,,,,,,,,,,,,,,,,,,,,,,,,,724.5817154690158,725.0817197160213,U,174,triangle,0.000563392008189112,,,,,1,0,,,1,723.0808971260558,724.5817154690158,720.8689358660486,722.3457303110044,722.3457303110044,722.3457303110044,k,0.7029194479691796,,,,,,,,,,,,,,,,,,,,,,,,,,,,,,,,,,,,,,,,,,,,,,,12431,2022-10-31_10h44.42.806,vts_reward_expectancy_bt_OFFLINE,2022.2.4,60.05725992252821,
,,,,,,,,,,,,,,,,,,,,,,,,,,0,0,0,0,9,0,9,0,,,,,,,,,,,,,,,,,,,,,,,,,,,,,,,,,,,,,,,,,729.3183136560256,,D,132,hexagon,-0.00028174801263958216,,,,,1,0,,,1,727.8027137300232,,725.5933017160278,727.0660012389999,727.0660012389999,727.0660012389999,j,0.7183453409816138,,,,,,,,,,,,,,,,,,,,,,,,,,,,,,,,,,,,,,,,,,,,,,,12431,2022-10-31_10h44.42.806,vts_reward_expectancy_bt_OFFLINE,2022.2.4,60.05725992252821,
,,,,,,,,,,,,,,,,,,,,,,,,,,,,,,,,,,0,0,0,0,0,0,0,0,,,,,,,,,,,,,,,,,,,,,,,,,,,,0,999,,,,771.1814191410085,,S,125,hexagon,0.016808898013550788,,,,,1,0,,,2,,,,,,,,,765.3239119810169,765.3239119810169,765.3239119810169,765.3239119810169,766.7945255900268,766.7945255900268,766.7945255900268,766.7945255900268,766.8285877170274,766.8285877170274,766.8285877170274,766.8285877170274,-1,letter,NA,f,2.8377249849727377,vtsPrac,769.6676750570186,,,,,,,,,,,,,,,,,,,,,,,,,,,,12431,2022-10-31_10h44.42.806,vts_reward_expectancy_bt_OFFLINE,2022.2.4,60.05725992252821,
,,,,,,,,,,,,,,,,,,,,,,,,,,,,,,,,,,0,0,0,0,1,0,1,0,,,,,,,,,,,,,,,,,,,,,,,,,,,,0,999,,,,777.0687388010556,,U,146,triangle,0.015179881011135876,,,,,1,0,,,2,,,,,,,,,772.1780958420131,772.1780958420131,772.1780958420131,772.1780958420131,773.6510433290387,773.6510433290387,773.6510433290387,773.6510433290387,773.6841431090143,773.6841431090143,773.6841431090143,773.6841431090143,switch,number,numSwt,j,1.885071190947201,vtsPrac,775.5681869860273,777.0687388010556,,,,,,,,,,,,,,,,,,,,,,,,,,,12431,2022-10-31_10h44.42.806,vts_reward_expectancy_bt_OFFLINE,2022.2.4,60.05725992252821,
,,,,,,,,,,,,,,,,,,,,,,,,,,,,,,,,,,0,0,0,0,2,0,2,0,,,,,,,,,,,,,,,,,,,,,,,,,,,,0,999,,,,782.1057588960393,,B,167,circle,0.007861709978897125,,,,,1,0,,,2,,,,,,,,,778.0686267030542,778.0686267030542,778.0686267030542,778.0686267030542,779.5547800380155,779.5547800380155,779.5547800380155,779.5547800380155,779.5717751970515,779.5717751970515,779.5717751970515,779.5717751970515,switch,letter,lettSwt,d,1.013603194965981,vtsPrac,780.5905839210027,,,,,,,,,,,,,,,,,,,,,,,,,,,,12431,2022-10-31_10h44.42.806,vts_reward_expectancy_bt_OFFLINE,2022.2.4,60.05725992252821,
,,,,,,,,,,,,,,,,,,,,,,,,,,,,,,,,,,0,0,0,0,3,0,3,0,,,,,,,,,,,,,,,,,,,,,,,,,,,,0,999,,,,786.7094725990319,787.2093031460536,D,160,star,0.004422284022439271,,,,,1,0,,,2,,,,,,,,,783.0881609910284,783.0881609910284,783.0881609910284,783.0881609910284,784.5749672540114,784.5749672540114,784.5749672540114,784.5749672540114,784.5921065389994,784.5921065389994,784.5921065389994,784.5921065389994,repeat,letter,lettRpt,d,0.6014846499892883,vtsPrac,785.2085204290343,786.7094725990319,,,,,,,,,,,,,,,,,,,,,,,,,,,12431,2022-10-31_10h44.42.806,vts_reward_expectancy_bt_OFFLINE,2022.2.4,60.05725992252821,
,,,,,,,,,,,,,,,,,,,,,,,,,,,,,,,,,,0,0,0,0,4,0,4,0,,,,,,,,,,,,,,,,,,,,,,,,,,,,0,999,,,,791.6960798030486,,S,125,star,-0.0006365989684127271,,,,,1,0,,,2,,,,,,,,,787.7171397590428,787.7171397590428,787.7171397590428,787.7171397590428,789.1951134109986,789.1951134109986,789.1951134109986,789.1951134109986,789.2284925570129,789.2284925570129,789.2284925570129,789.2284925570129,repeat,letter,lettRpt,f,0.9728019719477743,vtsPrac,790.1963799570221,791.6960798030486,,,,,,,,,,,,,,,,,,,,,,,,,,,12431,2022-10-31_10h44.42.806,vts_reward_expectancy_bt_OFFLINE,2022.2.4,60.05725992252821,
,,,,,,,,,,,,,,,,,,,,,,,,,,,,,,,,,,0,0,0,0,5,0,5,0,,,,,,,,,,,,,,,,,,,,,,,,,,,,0,999,,,,796.8328446800006,797.3332868780126,U,146,triangle,0.0005402410170063376,,,,,1,0,,,2,,,,,,,,,792.6917897460517,792.6917897460517,792.6917897460517,792.6917897460517,794.1822899770341,794.1822899770341,794.1822899770341,794.1822899770341,794.1987376630423,794.1987376630423,794.1987376630423,794.1987376630423,switch,number,numSwt,j,1.1215884879929945,vtsPrac,795.3339927380439,,,,,,,,,,,,,,,,,,,,,,,,,,,,12431,2022-10-31_10h44.42.806,vts_reward_expectancy_bt_OFFLINE,2022.2.4,60.05725992252821,
,,,,,,,,,,,,,,,,,,,,,,,,,,,,,,,,,,0,0,0,0,6,0,6,0,,,,,,,,,,,,,,,,,,,,,,,,,,,,0,999,,,,801.4704756210558,,B,167,hexagon,0.0006300710374489427,,,,,1,0,,,2,,,,,,,,,797.8298558150418,797.8298558150418,797.8298558150418,797.8298558150418,799.3195839020191,799.3195839020191,799.3195839020191,799.3195839020191,799.3360416100477,799.3360416100477,799.3360416100477,799.3360416100477,switch,letter,lettSwt,d,0.6166860020020977,vtsPrac,799.9544679690152,,,,,,,,,,,,,,,,,,,,,,,,,,,,12431,2022-10-31_10h44.42.806,vts_reward_expectancy_bt_OFFLINE,2022.2.4,60.05725992252821,
,,,,,,,,,,,,,,,,,,,,,,,,,,,,,,,,,,0,0,0,0,7,0,7,0,,,,,,,,,,,,,,,,,,,,,,,,,,,,0,999,,,,806.0901094610454,806.5903195050196,D,160,circle,0.016261008975561708,,,,,1,0,,,2,,,,,,,,,802.4658467840054,802.4658467840054,802.4658467840054,802.4658467840054,803.9393958810251,803.9393958810251,803.9393958810251,803.9393958810251,803.9728068590048,803.9728068590048,803.9728068590048,803.9728068590048,switch,number,numSwt,k,0.6201745989383198,vtsPrac,804.5907847180497,806.0901094610454,,,,,,,,,,,,,,,,,,,,,,,,,,,12431,2022-10-31_10h44.42.806,vts_reward_expectancy_bt_OFFLINE,2022.2.4,60.05725992252821,
,,,,,,,,,,,,,,,,,,,,,,,,,,,,,,,,,,0,0,0,0,8,0,8,0,,,,,,,,,,,,,,,,,,,,,,,,,,,,0,999,,,,810.8771438310505,811.3771276280168,Y,167,star,0.0005426580319181085,,,,,1,0,,,2,,,,,,,,,807.0862333580153,807.0862333580153,807.0862333580153,807.0862333580153,808.5760245650308,808.5760245650308,808.5760245650308,808.5760245650308,808.5928141370532,808.5928141370532,808.5928141370532,808.5928141370532,repeat,number,numRpt,k,0.7839519199333154,vtsPrac,809.378247655055,810.8771438310505,,,,,,,,,,,,,,,,,,,,,,,,,,,12431,2022-10-31_10h44.42.806,vts_reward_expectancy_bt_OFFLINE,2022.2.4,60.05725992252821,
,,,,,,,,,,,,,,,,,,,,,,,,,,,,,,,,,,0,0,0,0,9,0,9,0,,,,,,,,,,,,,,,,,,,,,,,,,,,,0,999,,,,815.7138477600529,816.2140076770447,D,181,hexagon,0.0001729420037008822,,,,,1,0,,,2,,,,,,,,,811.884743984032,811.884743984032,811.884743984032,811.884743984032,813.3631506380043,813.3631506380043,813.3631506380043,813.3631506380043,813.3964664660161,813.3964664660161,813.3964664660161,813.3964664660161,switch,letter,lettSwt,d,0.8210684430086985,vtsPrac,814.2145500530023,815.7138477600529,,,,,,,,,,,,,,,,,,,,,,,,,,,12431,2022-10-31_10h44.42.806,vts_reward_expectancy_bt_OFFLINE,2022.2.4,60.05725992252821,
,,,,,,,,,,,,,,,,,,,,,,,,,,,,,,,,,,0,0,0,0,10,0,10,0,,,,,,,,,,,,,,,,,,,,,,,,,,,,0,999,,,,820.800865436031,,W,139,circle,0.0004104370018467307,,,,,1,0,,,2,,,,,,,,,816.7101698710467,816.7101698710467,816.7101698710467,816.7101698710467,818.1999862120138,818.1999862120138,818.1999862120138,818.1999862120138,818.2165738780168,818.2165738780168,818.2165738780168,818.2165738780168,switch,number,numSwt,j,1.0640695019392297,vtsPrac,819.2857515460346,,,,,,,,,,,,,,,,,,,,,,,,,,,,12431,2022-10-31_10h44.42.806,vts_reward_expectancy_bt_OFFLINE,2022.2.4,60.05725992252821,
,,,,,,,,,,,,,,,,,,,,,,,,,,,,,,,,,,0,0,0,0,11,0,11,0,,,,,,,,,,,,,,,,,,,,,,,,,,,,0,999,,,,825.587693554,,H,132,triangle,0.01677114999620244,,,,,1,0,,,2,,,,,,,,,821.7976147730369,821.7976147730369,821.7976147730369,821.7976147730369,823.2705386440502,823.2705386440502,823.2705386440502,823.2705386440502,823.3035894130007,823.3035894130007,823.3035894130007,823.3035894130007,switch,letter,lettSwt,d,0.7700867009698413,vtsPrac,824.0723483350012,,,,,,,,,,,,,,,,,,,,,,,,,,,,12431,2022-10-31_10h44.42.806,vts_reward_expectancy_bt_OFFLINE,2022.2.4,60.05725992252821,
,,,,,,,,,,,,,,,,,,,,,,,,,,,,,,,,,,0,0,0,0,12,0,12,0,,,,,,,,,,,,,,,,,,,,,,,,,,,,0,999,,,,830.2744754050509,830.7748528470402,H,132,circle,0.017071505018975586,,,,,1,0,,,2,,,,,,,,,826.5835495910142,826.5835495910142,826.5835495910142,826.5835495910142,828.0570594650344,828.0570594650344,828.0570594650344,828.0570594650344,828.0906832550536,828.0906832550536,828.0906832550536,828.0906832550536,repeat,letter,lettRpt,d,0.695202866976615,vtsPrac,828.775493245048,830.2744754050509,,,,,,,,,,,,,,,,,,,,,,,,,,,12431,2022-10-31_10h44.42.806,vts_reward_expectancy_bt_OFFLINE,2022.2.4,60.05725992252821,
,,,,,,,,,,,,,,,,,,,,,,,,,,,,,,,,,,0,0,0,0,13,0,13,0,,,,,,,,,,,,,,,,,,,,,,,,,,,,0,999,,,,834.928446209,835.4283203260275,U,125,triangle,0.0006352610071189702,,,,,1,0,,,2,,,,,,,,,831.2706125310506,831.2706125310506,831.2706125310506,831.2706125310506,832.7607565560029,832.7607565560029,832.7607565560029,832.7607565560029,832.7775311110308,832.7775311110308,832.7775311110308,832.7775311110308,repeat,letter,lettRpt,f,0.6391605630051345,vtsPrac,833.4290236260276,834.928446209,,,,,,,,,,,,,,,,,,,,,,,,,,,12431,2022-10-31_10h44.42.806,vts_reward_expectancy_bt_OFFLINE,2022.2.4,60.05725992252821,
,,,,,,,,,,,,,,,,,,,,,,,,,,,,,,,,,,0,0,0,0,14,0,14,0,,,,,,,,,,,,,,,,,,,,,,,,,,,,0,999,,,,839.8150226370199,,F,174,hexagon,0.00020460999803617597,,,,,1,0,,,2,,,,,,,,,835.9243918780121,835.9243918780121,835.9243918780121,835.9243918780121,837.412267213047,837.412267213047,837.412267213047,837.412267213047,837.4295936810086,837.4295936810086,837.4295936810086,837.4295936810086,switch,number,numSwt,k,0.8752759239869192,vtsPrac,838.315940501052,839.8150226370199,,,,,,,,,,,,,,,,,,,,,,,,,,,12431,2022-10-31_10h44.42.806,vts_reward_expectancy_bt_OFFLINE,2022.2.4,60.05725992252821,
,,,,,,,,,,,,,,,,,,,,,,,,,,,,,,,,,,0,0,0,0,15,0,15,0,,,,,,,,,,,,,,,,,,,,,,,,,,,,0,999,,,,844.5355790239992,,S,181,star,0.0004946999833919108,,,,,1,0,,,2,,,,,,,,,840.8233141340315,840.8233141340315,840.8233141340315,840.8233141340315,842.299582192034,842.299582192034,842.299582192034,842.299582192034,842.3328178049996,842.3328178049996,842.3328178049996,842.3328178049996,repeat,number,numRpt,k,0.7168442729744129,vtsPrac,843.0364487290499,844.5355790239992,,,,,,,,,,,,,,,,,,,,,,,,,,,12431,2022-10-31_10h44.42.806,vts_reward_expectancy_bt_OFFLINE,2022.2.4,60.05725992252821,
,,,,,,,,,,,,,,,,,,,,,,,,,,,,,,,,,,,,,,,,,,0,0,0,0,,,,,,,,,,,,,,,,,,,,,,,,0,999,,,,881.0446722510387,,B,146,star,0.017777998000383377,,,,,1,0,,,,,,,,,,,,876.9705993540119,876.9705993540119,876.9705993540119,876.9705993540119,878.4436564970529,878.4436564970529,878.4436564970529,878.4436564970529,878.4771536990302,878.4771536990302,878.4771536990302,878.4771536990302,repeat,number,numRpt,j,1.052555656991899,noRew,,,0,879.5310293340008,,,,,,,,,,,,,,,,,,,,,,,,,12431,2022-10-31_10h44.42.806,vts_reward_expectancy_bt_OFFLINE,2022.2.4,60.05725992252821,
,,,,,,,,,,,,,,,,,,,,,,,,,,,,,,,,,,,,,,,,,,1,0,1,0,,,,,,,,,,,,,,,,,,,,,,,,0,999,,,,885.765045778011,,W,167,hexagon,0.016749989008530974,,,,,1,0,,,,,,,,,,,,882.0404546200298,882.0404546200298,882.0404546200298,882.0404546200298,883.5144514330314,883.5144514330314,883.5144514330314,883.5144514330314,883.5474373790203,883.5474373790203,883.5474373790203,883.5474373790203,repeat,number,numRpt,k,0.7091150509659201,noRew,,,0,884.2495225230232,,,,,,,,,,,,,,,,,,,,,,,,,12431,2022-10-31_10h44.42.806,vts_reward_expectancy_bt_OFFLINE,2022.2.4,60.05725992252821,
,,,,,,,,,,,,,,,,,,,,,,,,,,,,,,,,,,,,,,,,,,2,0,2,0,,,,,,,,,,,,,,,,,,,,,,,,0,999,,,,890.4516255210037,890.9519357320387,D,181,triangle,0.01644229202065617,,,,,1,0,,,,,,,,,,,,886.7607088600053,886.7607088600053,886.7607088600053,886.7607088600053,888.2345588030294,888.2345588030294,888.2345588030294,888.2345588030294,888.2675386010087,888.2675386010087,888.2675386010087,888.2675386010087,switch,letter,lettSwt,d,0.685408525983803,noRew,,,0,888.9531235150062,890.4516255210037,,,,,,,,,,,,,,,,,,,,,,,,12431,2022-10-31_10h44.42.806,vts_reward_expectancy_bt_OFFLINE,2022.2.4,60.05725992252821,
,,,,,,,,,,,,,,,,,,,,,,,,,,,,,,,,,,,,,,,,,,3,0,3,0,,,,,,,,,,,,,,,,,,,,,,,,0,999,,,,895.8888454330154,,H,174,star,0.000537757994607091,,,,,1,0,,,,,,,,,,,,891.4594631740474,891.4594631740474,891.4594631740474,891.4594631740474,892.9377396630007,892.9377396630007,892.9377396630007,892.9377396630007,892.9713975320337,892.9713975320337,892.9713975320337,892.9713975320337,repeat,letter,lettRpt,d,1.405854644952342,noRew,,,0,894.3737944950117,,,,,,,,,,,,,,,,,,,,,,,,,12431,2022-10-31_10h44.42.806,vts_reward_expectancy_bt_OFFLINE,2022.2.4,60.05725992252821,
,,,,,,,,,,,,,,,,,,,,,,,,,,,,,,,,,,,,,,,,,,4,0,4,0,,,,,,,,,,,,,,,,,,,,,,,,0,999,,,,900.5588302610558,,B,146,circle,0.016887925972696394,,,,,1,0,,,,,,,,,,,,896.8854571960401,896.8854571960401,896.8854571960401,896.8854571960401,898.3581187860109,898.3581187860109,898.3581187860109,898.3581187860109,898.3920375599992,898.3920375599992,898.3920375599992,898.3920375599992,repeat,letter,lettRpt,d,0.665977023949381,noRew,,,0,899.0437991400249,,,,,,,,,,,,,,,,,,,,,,,,,12431,2022-10-31_10h44.42.806,vts_reward_expectancy_bt_OFFLINE,2022.2.4,60.05725992252821,
,,,,,,,,,,,,,,,,,,,,,,,,,,,,,,,,,,,,,,,,,,5,0,5,0,,,,,,,,,,,,,,,,,,,,,,,,0,999,,,,905.4627968380228,905.9626494410331,W,167,triangle,0.01702629600185901,,,,,1,0,,,,,,,,,,,,901.5554292930174,901.5554292930174,901.5554292930174,901.5554292930174,903.0288481840398,903.0288481840398,903.0288481840398,903.0288481840398,903.0616634110338,903.0616634110338,903.0616634110338,903.0616634110338,switch,number,numSwt,k,0.9158885009819642,noRew,,,0,903.9635516020353,905.4627968380228,,,,,,,,,,,,,,,,,,,,,,,,12431,2022-10-31_10h44.42.806,vts_reward_expectancy_bt_OFFLINE,2022.2.4,60.05725992252821,
,,,,,,,,,,,,,,,,,,,,,,,,,,,,,,,,,,,,,,,,,,6,0,6,0,,,,,,,,,,,,,,,,,,,,,,,,0,999,,,,910.116267310048,,D,181,star,0.00039865303551778197,,,,,1,0,,,,,,,,,,,,906.4580959120067,906.4580959120067,906.4580959120067,906.4580959120067,907.9487596830004,907.9487596830004,907.9487596830004,907.9487596830004,907.9654016930144,907.9654016930144,907.9654016930144,907.9654016930144,switch,letter,lettSwt,d,0.6190324929193594,noRew,,,0,908.6008477460127,,,,,,,,,,,,,,,,,,,,,,,,,12431,2022-10-31_10h44.42.806,vts_reward_expectancy_bt_OFFLINE,2022.2.4,60.05725992252821,
,,,,,,,,,,,,,,,,,,,,,,,,,,,,,,,,,,,,,,,,,,7,0,7,0,,,,,,,,,,,,,,,,,,,,,,,,0,999,,,,914.9533350720303,,H,174,circle,0.016737664001993835,,,,,1,0,,,,,,,,,,,,911.1120856810012,911.1120856810012,911.1120856810012,911.1120856810012,912.5839275160106,912.5839275160106,912.5839275160106,912.5839275160106,912.6174452120322,912.6174452120322,912.6174452120322,912.6174452120322,repeat,letter,lettRpt,d,0.848256942932494,noRew,,,0,913.4544807250495,914.9533350720303,,,,,,,,,,,,,,,,,,,,,,,,12431,2022-10-31_10h44.42.806,vts_reward_expectancy_bt_OFFLINE,2022.2.4,60.05725992252821,
,,,,,,,,,,,,,,,,,,,,,,,,,,,,,,,,,,,,,,,,,,8,0,8,0,,,,,,,,,,,,,,,,,,,,,,,,0,999,,,,919.7400499960058,,H,174,triangle,0.0005726029630750418,,,,,1,0,,,,,,,,,,,,915.9597531290492,915.9597531290492,915.9597531290492,915.9597531290492,917.4376079550129,917.4376079550129,917.4376079550129,917.4376079550129,917.4707594230422,917.4707594230422,917.4707594230422,917.4707594230422,switch,number,numSwt,k,0.7622834829380736,noRew,,,0,918.2248593660188,,,,,,,,,,,,,,,,,,,,,,,,,12431,2022-10-31_10h44.42.806,vts_reward_expectancy_bt_OFFLINE,2022.2.4,60.05725992252821,
,,,,,,,,,,,,,,,,,,,,,,,,,,,,,,,,,,,,,,,,,,9,0,9,0,,,,,,,,,,,,,,,,,,,,,,,,0,999,,,,924.3604718190036,,D,160,hexagon,0.01633932802360505,,,,,1,0,,,,,,,,,,,,920.7352941700374,920.7352941700374,920.7352941700374,920.7352941700374,922.2074666240369,922.2074666240369,922.2074666240369,922.2074666240369,922.241275723034,922.241275723034,922.241275723034,922.241275723034,repeat,number,numRpt,k,0.6164135879371315,noRew,,,0,922.844934163033,,,,,,,,,,,,,,,,,,,,,,,,,12431,2022-10-31_10h44.42.806,vts_reward_expectancy_bt_OFFLINE,2022.2.4,60.05725992252821,
