LTriangleOpac,LCircleOpac,LHexagonOpac,LStarOpac,RTriangleOpac,RCircleOpac,RHexagonOpac,RStarOpac,LShape_ID,RShape_ID,training_blocks.thisRepN,training_blocks.thisTrialN,training_blocks.thisN,training_blocks.thisIndex,training.thisRepN,training.thisTrialN,training.thisN,training.thisIndex,task1_prac_redo.thisRepN,task1_prac_redo.thisTrialN,task1_prac_redo.thisN,task1_prac_redo.thisIndex,task1_prac_trials.thisRepN,task1_prac_trials.thisTrialN,task1_prac_trials.thisN,task1_prac_trials.thisIndex,task2_prac_redo.thisRepN,task2_prac_redo.thisTrialN,task2_prac_redo.thisN,task2_prac_redo.thisIndex,task2_praac_trials.thisRepN,task2_praac_trials.thisTrialN,task2_praac_trials.thisN,task2_praac_trials.thisIndex,vts_prac_redo.thisRepN,vts_prac_redo.thisTrialN,vts_prac_redo.thisN,vts_prac_redo.thisIndex,vts_practice_trials.thisRepN,vts_practice_trials.thisTrialN,vts_practice_trials.thisN,vts_practice_trials.thisIndex,trials_norew.thisRepN,trials_norew.thisTrialN,trials_norew.thisN,trials_norew.thisIndex,block.thisRepN,block.thisTrialN,block.thisN,block.thisIndex,trials_rew.thisRepN,trials_rew.thisTrialN,trials_rew.thisN,trials_rew.thisIndex,key_resp.started,key_resp.keys,key_resp.rt,left_circle.started,right_circle.started,left_triangle.started,right_triangle.started,left_star.started,right_star.started,left_hexagon.started,right_hexagon.started,training_fix.started,training_resp.started,training_resp.keys,training_resp.rt,points_trial,points_cumul,trainBlock,training_feedback_txt.started,fix.started,training_feedback_txt.stopped,curr_topStim,curr_bottStim,curr_shape,ISI.started,tgt_fix_prac1.started,top_target_prac1.started,bott_target_prac1.started,target_resp_prac1.started,acc,E1,target_resp_prac1.keys,target_resp_prac1.rt,pracBlock,prac_fback_text.started,prac_fback_text.stopped,tgt_fix_prac2.started,top_target_prac2.started,bott_target_prac2.started,target_resp_prac2.started,target_resp_prac2.keys,target_resp_prac2.rt,fix.stopped,star.started,hegagon.started,triangle.started,circle.started,star.stopped,hegagon.stopped,triangle.stopped,circle.stopped,top_target.started,tgt_fix.started,bot_target.started,target_resp.started,alt,task,condition,target_resp.keys,target_resp.rt,rewCond,vts_fback.started,vts_fback.stopped,blockNum,norew_fback.started,norew_fback.stopped,top_target.stopped,tgt_fix.stopped,bot_target.stopped,target_resp.stopped,key_resp_2.keys,key_resp_2.rt,rewExpectancy,feedbk_text.started,feedbk_text.stopped,text_3.started,debrief.started,text_3.stopped,button.started,debrief.index,debrief.itemText,debrief.type,debrief.granularity,debrief.font,debrief.markerColor,debrief.response,debrief.rt,button.numClicks,button.timesOn,button.timesOff,participant,date,expName,psychopyVersion,frameRate,
,,,,,,,,,,,,,,,,,,,,,,,,,,,,,,,,,,,,,,,,,,,,,,,,,,,,,,1886.4171292129904,space,22.40839364985004,,,,,,,,,,,,,,,,,,,,,,,,,,,,,,,,,,,,,,,,,,,,,,,,,,,,,,,,,,,,,,,,,,,,,,,,,,,,,,,,,,,,,,,,13678,2022-12-02_14h59.49.142,vts_reward_expectancy_bt_OFFLINE,2022.2.4,60.329188053994905,
0,0,0,1,0,0,1,0,star,hexagon,0,0,0,0,0,0,0,11,,,,,,,,,,,,,,,,,,,,,,,,,,,,,,,,,,,,,,,,1929.1472942719702,1929.1472942719702,1929.1472942719702,1929.1472942719702,1929.1472942719702,1929.1472942719702,1929.1472942719702,1929.1472942719702,1929.1472942719702,1929.1472942719702,a,1.7722408038098365,10,10,0,1930.9493889790028,1932.4510101319756,,,,,,,,,,,,,,,,,,,,,,,,,,,,,,,,,,,,,,,,,,,,,,,,,,,,,,,,,,,,,,,,,,,,,,,13678,2022-12-02_14h59.49.142,vts_reward_expectancy_bt_OFFLINE,2022.2.4,60.329188053994905,
0,0,0,1,0,1,0,0,star ,circle,0,0,0,0,0,1,1,10,,,,,,,,,,,,,,,,,,,,,,,,,,,,,,,,,,,,,,,,1932.9517230689526,1932.9517230689526,1932.9517230689526,1932.9517230689526,1932.9517230689526,1932.9517230689526,1932.9517230689526,1932.9517230689526,1932.9517230689526,1932.9517230689526,a,1.3542960588820279,10,20,0,1934.33629195299,1935.8379555051215,,,,,,,,,,,,,,,,,,,,,,,,,,,,,,,,,,,,,,,,,,,,,,,,,,,,,,,,,,,,,,,,,,,,,,,13678,2022-12-02_14h59.49.142,vts_reward_expectancy_bt_OFFLINE,2022.2.4,60.329188053994905,
1,0,0,0,0,0,0,1,triangle,star,0,0,0,0,0,2,2,2,,,,,,,,,,,,,,,,,,,,,,,,,,,,,,,,,,,,,,,,1936.3387566190213,1936.3387566190213,1936.3387566190213,1936.3387566190213,1936.3387566190213,1936.3387566190213,1936.3387566190213,1936.3387566190213,1936.3387566190213,1936.3387566190213,l,1.8600169068668038,1,21,0,1938.2239189171232,1939.725759682944,,,,,,,,,,,,,,,,,,,,,,,,,,,,,,,,,,,,,,,,,,,,,,,,,,,,,,,,,,,,,,,,,,,,,,,13678,2022-12-02_14h59.49.142,vts_reward_expectancy_bt_OFFLINE,2022.2.4,60.329188053994905,
1,0,0,0,0,1,0,0,triangle,circle,0,0,0,0,0,3,3,0,,,,,,,,,,,,,,,,,,,,,,,,,,,,,,,,,,,,,,,,1940.2262363519985,1940.2262363519985,1940.2262363519985,1940.2262363519985,1940.2262363519985,1940.2262363519985,1940.2262363519985,1940.2262363519985,1940.2262363519985,1940.2262363519985,a,2.1699490847531706,10,31,0,1942.428569765063,1943.9303400330245,,,,,,,,,,,,,,,,,,,,,,,,,,,,,,,,,,,,,,,,,,,,,,,,,,,,,,,,,,,,,,,,,,,,,,,13678,2022-12-02_14h59.49.142,vts_reward_expectancy_bt_OFFLINE,2022.2.4,60.329188053994905,
0,1,0,0,0,0,1,0,circle,hexagon,0,0,0,0,0,4,4,4,,,,,,,,,,,,,,,,,,,,,,,,,,,,,,,,,,,,,,,,1944.4308216820937,1944.4308216820937,1944.4308216820937,1944.4308216820937,1944.4308216820937,1944.4308216820937,1944.4308216820937,1944.4308216820937,1944.4308216820937,1944.4308216820937,l,1.6429688760545105,10,41,0,1946.0995553529356,1947.60102490196,,,,,,,,,,,,,,,,,,,,,,,,,,,,,,,,,,,,,,,,,,,,,,,,,,,,,,,,,,,,,,,,,,,,,,,13678,2022-12-02_14h59.49.142,vts_reward_expectancy_bt_OFFLINE,2022.2.4,60.329188053994905,
0,1,0,0,0,0,0,1,circle,star,0,0,0,0,0,5,5,5,,,,,,,,,,,,,,,,,,,,,,,,,,,,,,,,,,,,,,,,1948.1016279601026,1948.1016279601026,1948.1016279601026,1948.1016279601026,1948.1016279601026,1948.1016279601026,1948.1016279601026,1948.1016279601026,1948.1016279601026,1948.1016279601026,l,0.9198277979157865,10,51,0,1949.0526566470508,1950.5543319219723,,,,,,,,,,,,,,,,,,,,,,,,,,,,,,,,,,,,,,,,,,,,,,,,,,,,,,,,,,,,,,,,,,,,,,,13678,2022-12-02_14h59.49.142,vts_reward_expectancy_bt_OFFLINE,2022.2.4,60.329188053994905,
0,0,1,0,0,0,0,1,hexagon,star,0,0,0,0,0,6,6,8,,,,,,,,,,,,,,,,,,,,,,,,,,,,,,,,,,,,,,,,1951.054769420065,1951.054769420065,1951.054769420065,1951.054769420065,1951.054769420065,1951.054769420065,1951.054769420065,1951.054769420065,1951.054769420065,1951.054769420065,l,0.7247111548203975,1,52,0,1951.8057290699799,1953.3072302120272,,,,,,,,,,,,,,,,,,,,,,,,,,,,,,,,,,,,,,,,,,,,,,,,,,,,,,,,,,,,,,,,,,,,,,,13678,2022-12-02_14h59.49.142,vts_reward_expectancy_bt_OFFLINE,2022.2.4,60.329188053994905,
0,0,1,0,0,1,0,0,hexagon,circle,0,0,0,0,0,7,7,7,,,,,,,,,,,,,,,,,,,,,,,,,,,,,,,,,,,,,,,,1953.8078621081077,1953.8078621081077,1953.8078621081077,1953.8078621081077,1953.8078621081077,1953.8078621081077,1953.8078621081077,1953.8078621081077,1953.8078621081077,1953.8078621081077,a,1.1335862199775875,1,53,0,1954.95902117691,1956.4607097390108,,,,,,,,,,,,,,,,,,,,,,,,,,,,,,,,,,,,,,,,,,,,,,,,,,,,,,,,,,,,,,,,,,,,,,,13678,2022-12-02_14h59.49.142,vts_reward_expectancy_bt_OFFLINE,2022.2.4,60.329188053994905,
1,0,0,0,0,0,1,0,triangle,hexagon,0,0,0,0,0,8,8,1,,,,,,,,,,,,,,,,,,,,,,,,,,,,,,,,,,,,,,,,1956.9612720950972,1956.9612720950972,1956.9612720950972,1956.9612720950972,1956.9612720950972,1956.9612720950972,1956.9612720950972,1956.9612720950972,1956.9612720950972,1956.9612720950972,l,1.3758785407990217,1,54,0,1958.3627981990576,1959.8646607219707,,,,,,,,,,,,,,,,,,,,,,,,,,,,,,,,,,,,,,,,,,,,,,,,,,,,,,,,,,,,,,,,,,,,,,,13678,2022-12-02_14h59.49.142,vts_reward_expectancy_bt_OFFLINE,2022.2.4,60.329188053994905,
0,1,0,0,1,0,0,0,circle,triangle,0,0,0,0,0,9,9,3,,,,,,,,,,,,,,,,,,,,,,,,,,,,,,,,,,,,,,,,1960.3651383169927,1960.3651383169927,1960.3651383169927,1960.3651383169927,1960.3651383169927,1960.3651383169927,1960.3651383169927,1960.3651383169927,1960.3651383169927,1960.3651383169927,a,1.619244639761746,10,64,0,1962.0169080779888,1963.518550503999,,,,,,,,,,,,,,,,,,,,,,,,,,,,,,,,,,,,,,,,,,,,,,,,,,,,,,,,,,,,,,,,,,,,,,,13678,2022-12-02_14h59.49.142,vts_reward_expectancy_bt_OFFLINE,2022.2.4,60.329188053994905,
0,0,1,0,1,0,0,0,hexagon,triangle,0,0,0,0,0,10,10,6,,,,,,,,,,,,,,,,,,,,,,,,,,,,,,,,,,,,,,,,1964.0193513070699,1964.0193513070699,1964.0193513070699,1964.0193513070699,1964.0193513070699,1964.0193513070699,1964.0193513070699,1964.0193513070699,1964.0193513070699,1964.0193513070699,a,3.8383943177759647,1,65,0,1967.8899865939748,1969.3916454119608,,,,,,,,,,,,,,,,,,,,,,,,,,,,,,,,,,,,,,,,,,,,,,,,,,,,,,,,,,,,,,,,,,,,,,,13678,2022-12-02_14h59.49.142,vts_reward_expectancy_bt_OFFLINE,2022.2.4,60.329188053994905,
0,0,0,1,1,0,0,0,star,triangle,0,0,0,0,0,11,11,9,,,,,,,,,,,,,,,,,,,,,,,,,,,,,,,,,,,,,,,,1969.8925368350465,1969.8925368350465,1969.8925368350465,1969.8925368350465,1969.8925368350465,1969.8925368350465,1969.8925368350465,1969.8925368350465,1969.8925368350465,1969.8925368350465,a,1.102337798802182,10,75,0,1971.0269144389313,1972.5285067229997,,,,,,,,,,,,,,,,,,,,,,,,,,,,,,,,,,,,,,,,,,,,,,,,,,,,,,,,,,,,,,,,,,,,,,,13678,2022-12-02_14h59.49.142,vts_reward_expectancy_bt_OFFLINE,2022.2.4,60.329188053994905,
1,0,0,0,0,1,0,0,triangle,circle,0,0,0,0,1,0,12,0,,,,,,,,,,,,,,,,,,,,,,,,,,,,,,,,,,,,,,,,1973.0290765680838,1973.0290765680838,1973.0290765680838,1973.0290765680838,1973.0290765680838,1973.0290765680838,1973.0290765680838,1973.0290765680838,1973.0290765680838,1973.0290765680838,l,2.781196800991893,1,76,0,1975.8321344689466,1977.3337799669243,,,,,,,,,,,,,,,,,,,,,,,,,,,,,,,,,,,,,,,,,,,,,,,,,,,,,,,,,,,,,,,,,,,,,,,13678,2022-12-02_14h59.49.142,vts_reward_expectancy_bt_OFFLINE,2022.2.4,60.329188053994905,
1,0,0,0,0,0,1,0,triangle,hexagon,0,0,0,0,1,1,13,1,,,,,,,,,,,,,,,,,,,,,,,,,,,,,,,,,,,,,,,,1977.8343458990566,1977.8343458990566,1977.8343458990566,1977.8343458990566,1977.8343458990566,1977.8343458990566,1977.8343458990566,1977.8343458990566,1977.8343458990566,1977.8343458990566,a,1.7222912849392742,1,77,0,1979.5863271530252,1981.0879606099334,,,,,,,,,,,,,,,,,,,,,,,,,,,,,,,,,,,,,,,,,,,,,,,,,,,,,,,,,,,,,,,,,,,,,,,13678,2022-12-02_14h59.49.142,vts_reward_expectancy_bt_OFFLINE,2022.2.4,60.329188053994905,
0,1,0,0,0,0,1,0,circle,hexagon,0,0,0,0,1,2,14,4,,,,,,,,,,,,,,,,,,,,,,,,,,,,,,,,,,,,,,,,1981.588459298946,1981.588459298946,1981.588459298946,1981.588459298946,1981.588459298946,1981.588459298946,1981.588459298946,1981.588459298946,1981.588459298946,1981.588459298946,a,1.490536551689729,10,87,0,1983.1067341540474,1984.6086849670392,,,,,,,,,,,,,,,,,,,,,,,,,,,,,,,,,,,,,,,,,,,,,,,,,,,,,,,,,,,,,,,,,,,,,,,13678,2022-12-02_14h59.49.142,vts_reward_expectancy_bt_OFFLINE,2022.2.4,60.329188053994905,
0,1,0,0,0,0,0,1,circle,star,0,0,0,0,1,3,15,5,,,,,,,,,,,,,,,,,,,,,,,,,,,,,,,,,,,,,,,,1985.1091256479267,1985.1091256479267,1985.1091256479267,1985.1091256479267,1985.1091256479267,1985.1091256479267,1985.1091256479267,1985.1091256479267,1985.1091256479267,1985.1091256479267,l,0.9517814128194004,10,97,0,1986.093431733083,1987.5952764169779,,,,,,,,,,,,,,,,,,,,,,,,,,,,,,,,,,,,,,,,,,,,,,,,,,,,,,,,,,,,,,,,,,,,,,,13678,2022-12-02_14h59.49.142,vts_reward_expectancy_bt_OFFLINE,2022.2.4,60.329188053994905,
0,0,0,1,0,0,1,0,star,hexagon,0,0,0,0,1,4,16,11,,,,,,,,,,,,,,,,,,,,,,,,,,,,,,,,,,,,,,,,1988.0956472950056,1988.0956472950056,1988.0956472950056,1988.0956472950056,1988.0956472950056,1988.0956472950056,1988.0956472950056,1988.0956472950056,1988.0956472950056,1988.0956472950056,a,1.486210114788264,10,107,0,1989.613982914947,1991.1157528799959,,,,,,,,,,,,,,,,,,,,,,,,,,,,,,,,,,,,,,,,,,,,,,,,,,,,,,,,,,,,,,,,,,,,,,,13678,2022-12-02_14h59.49.142,vts_reward_expectancy_bt_OFFLINE,2022.2.4,60.329188053994905,
1,0,0,0,0,0,0,1,triangle,star,0,0,0,0,1,5,17,2,,,,,,,,,,,,,,,,,,,,,,,,,,,,,,,,,,,,,,,,1991.616359898122,1991.616359898122,1991.616359898122,1991.616359898122,1991.616359898122,1991.616359898122,1991.616359898122,1991.616359898122,1991.616359898122,1991.616359898122,l,1.6336787010077387,1,108,0,1993.268355811946,1994.7697379069868,,,,,,,,,,,,,,,,,,,,,,,,,,,,,,,,,,,,,,,,,,,,,,,,,,,,,,,,,,,,,,,,,,,,,,,13678,2022-12-02_14h59.49.142,vts_reward_expectancy_bt_OFFLINE,2022.2.4,60.329188053994905,
0,0,1,0,0,0,0,1,hexagon,star,0,0,0,0,1,6,18,8,,,,,,,,,,,,,,,,,,,,,,,,,,,,,,,,,,,,,,,,1995.2702072889078,1995.2702072889078,1995.2702072889078,1995.2702072889078,1995.2702072889078,1995.2702072889078,1995.2702072889078,1995.2702072889078,1995.2702072889078,1995.2702072889078,l,1.8497266706544906,1,109,0,1997.1392144220881,1998.6406768329907,,,,,,,,,,,,,,,,,,,,,,,,,,,,,,,,,,,,,,,,,,,,,,,,,,,,,,,,,,,,,,,,,,,,,,,13678,2022-12-02_14h59.49.142,vts_reward_expectancy_bt_OFFLINE,2022.2.4,60.329188053994905,
0,0,0,1,1,0,0,0,star,triangle,0,0,0,0,1,7,19,9,,,,,,,,,,,,,,,,,,,,,,,,,,,,,,,,,,,,,,,,1999.1411847979762,1999.1411847979762,1999.1411847979762,1999.1411847979762,1999.1411847979762,1999.1411847979762,1999.1411847979762,1999.1411847979762,1999.1411847979762,1999.1411847979762,a,0.6563889407552779,1,110,0,1999.825395120075,2001.32702269312,,,,,,,,,,,,,,,,,,,,,,,,,,,,,,,,,,,,,,,,,,,,,,,,,,,,,,,,,,,,,,,,,,,,,,,13678,2022-12-02_14h59.49.142,vts_reward_expectancy_bt_OFFLINE,2022.2.4,60.329188053994905,
0,0,0,1,0,1,0,0,star ,circle,0,0,0,0,1,8,20,10,,,,,,,,,,,,,,,,,,,,,,,,,,,,,,,,,,,,,,,,2001.8274018000811,2001.8274018000811,2001.8274018000811,2001.8274018000811,2001.8274018000811,2001.8274018000811,2001.8274018000811,2001.8274018000811,2001.8274018000811,2001.8274018000811,a,2.133185977814719,1,111,0,2003.979926778935,2005.4816707319114,,,,,,,,,,,,,,,,,,,,,,,,,,,,,,,,,,,,,,,,,,,,,,,,,,,,,,,,,,,,,,,,,,,,,,,13678,2022-12-02_14h59.49.142,vts_reward_expectancy_bt_OFFLINE,2022.2.4,60.329188053994905,
0,0,1,0,0,1,0,0,hexagon,circle,0,0,0,0,1,9,21,7,,,,,,,,,,,,,,,,,,,,,,,,,,,,,,,,,,,,,,,,2005.9821214100812,2005.9821214100812,2005.9821214100812,2005.9821214100812,2005.9821214100812,2005.9821214100812,2005.9821214100812,2005.9821214100812,2005.9821214100812,2005.9821214100812,l,2.052343982970342,1,112,0,2008.0511140080635,2009.5528113269247,2009.5528113269247,,,,,,,,,,,,,,,,,,,,,,,,,,,,,,,,,,,,,,,,,,,,,,,,,,,,,,,,,,,,,,,,,,,,,,13678,2022-12-02_14h59.49.142,vts_reward_expectancy_bt_OFFLINE,2022.2.4,60.329188053994905,
0,1,0,0,1,0,0,0,circle,triangle,0,0,0,0,1,10,22,3,,,,,,,,,,,,,,,,,,,,,,,,,,,,,,,,,,,,,,,,2010.0533907241188,2010.0533907241188,2010.0533907241188,2010.0533907241188,2010.0533907241188,2010.0533907241188,2010.0533907241188,2010.0533907241188,2010.0533907241188,2010.0533907241188,a,1.3332314568106085,1,113,0,2011.4046378799248,2012.9063775599934,,,,,,,,,,,,,,,,,,,,,,,,,,,,,,,,,,,,,,,,,,,,,,,,,,,,,,,,,,,,,,,,,,,,,,,13678,2022-12-02_14h59.49.142,vts_reward_expectancy_bt_OFFLINE,2022.2.4,60.329188053994905,
0,0,1,0,1,0,0,0,hexagon,triangle,0,0,0,0,1,11,23,6,,,,,,,,,,,,,,,,,,,,,,,,,,,,,,,,,,,,,,,,2013.4071702749934,2013.4071702749934,2013.4071702749934,2013.4071702749934,2013.4071702749934,2013.4071702749934,2013.4071702749934,2013.4071702749934,2013.4071702749934,2013.4071702749934,a,1.1518095128703862,1,114,0,2014.591585809132,2016.0932309990749,,,,,,,,,,,,,,,,,,,,,,,,,,,,,,,,,,,,,,,,,,,,,,,,,,,,,,,,,,,,,,,,,,,,,,,13678,2022-12-02_14h59.49.142,vts_reward_expectancy_bt_OFFLINE,2022.2.4,60.329188053994905,
0,0,0,1,0,0,1,0,star,hexagon,0,0,0,0,2,0,24,11,,,,,,,,,,,,,,,,,,,,,,,,,,,,,,,,,,,,,,,,2016.5939730741084,2016.5939730741084,2016.5939730741084,2016.5939730741084,2016.5939730741084,2016.5939730741084,2016.5939730741084,2016.5939730741084,2016.5939730741084,2016.5939730741084,a,1.2038011709228158,10,124,0,2017.8285855590366,2019.330070164986,,,,,,,,,,,,,,,,,,,,,,,,,,,,,,,,,,,,,,,,,,,,,,,,,,,,,,,,,,,,,,,,,,,,,,,13678,2022-12-02_14h59.49.142,vts_reward_expectancy_bt_OFFLINE,2022.2.4,60.329188053994905,
0,1,0,0,1,0,0,0,circle,triangle,0,0,0,0,2,1,25,3,,,,,,,,,,,,,,,,,,,,,,,,,,,,,,,,,,,,,,,,2019.8307813690044,2019.8307813690044,2019.8307813690044,2019.8307813690044,2019.8307813690044,2019.8307813690044,2019.8307813690044,2019.8307813690044,2019.8307813690044,2019.8307813690044,a,1.8043641389813274,1,125,0,2021.6661894319113,2023.1677406551316,,,,,,,,,,,,,,,,,,,,,,,,,,,,,,,,,,,,,,,,,,,,,,,,,,,,,,,,,,,,,,,,,,,,,,,13678,2022-12-02_14h59.49.142,vts_reward_expectancy_bt_OFFLINE,2022.2.4,60.329188053994905,
0,0,0,1,1,0,0,0,star,triangle,0,0,0,0,2,2,26,9,,,,,,,,,,,,,,,,,,,,,,,,,,,,,,,,,,,,,,,,2023.6682399429847,2023.6682399429847,2023.6682399429847,2023.6682399429847,2023.6682399429847,2023.6682399429847,2023.6682399429847,2023.6682399429847,2023.6682399429847,2023.6682399429847,a,0.9259131709113717,10,135,0,2024.6193807481322,2026.1208657799289,,,,,,,,,,,,,,,,,,,,,,,,,,,,,,,,,,,,,,,,,,,,,,,,,,,,,,,,,,,,,,,,,,,,,,,13678,2022-12-02_14h59.49.142,vts_reward_expectancy_bt_OFFLINE,2022.2.4,60.329188053994905,
0,0,1,0,0,0,0,1,hexagon,star,0,0,0,0,2,3,27,8,,,,,,,,,,,,,,,,,,,,,,,,,,,,,,,,,,,,,,,,2026.621629711939,2026.621629711939,2026.621629711939,2026.621629711939,2026.621629711939,2026.621629711939,2026.621629711939,2026.621629711939,2026.621629711939,2026.621629711939,a,0.862987003987655,1,136,0,2027.5057797750924,2029.0076556340791,,,,,,,,,,,,,,,,,,,,,,,,,,,,,,,,,,,,,,,,,,,,,,,,,,,,,,,,,,,,,,,,,,,,,,,13678,2022-12-02_14h59.49.142,vts_reward_expectancy_bt_OFFLINE,2022.2.4,60.329188053994905,
0,0,1,0,0,1,0,0,hexagon,circle,0,0,0,0,2,4,28,7,,,,,,,,,,,,,,,,,,,,,,,,,,,,,,,,,,,,,,,,2029.508179289056,2029.508179289056,2029.508179289056,2029.508179289056,2029.508179289056,2029.508179289056,2029.508179289056,2029.508179289056,2029.508179289056,2029.508179289056,a,1.6217341518495232,10,146,0,2031.1598825000692,2032.6614664879162,,,,,,,,,,,,,,,,,,,,,,,,,,,,,,,,,,,,,,,,,,,,,,,,,,,,,,,,,,,,,,,,,,,,,,,13678,2022-12-02_14h59.49.142,vts_reward_expectancy_bt_OFFLINE,2022.2.4,60.329188053994905,
0,0,0,1,0,1,0,0,star ,circle,0,0,0,0,2,5,29,10,,,,,,,,,,,,,,,,,,,,,,,,,,,,,,,,,,,,,,,,2033.1622933030594,2033.1622933030594,2033.1622933030594,2033.1622933030594,2033.1622933030594,2033.1622933030594,2033.1622933030594,2033.1622933030594,2033.1622933030594,2033.1622933030594,a,1.4784500289242715,10,156,0,2034.6637108931318,2036.1654969421215,,,,,,,,,,,,,,,,,,,,,,,,,,,,,,,,,,,,,,,,,,,,,,,,,,,,,,,,,,,,,,,,,,,,,,,13678,2022-12-02_14h59.49.142,vts_reward_expectancy_bt_OFFLINE,2022.2.4,60.329188053994905,
0,0,1,0,1,0,0,0,hexagon,triangle,0,0,0,0,2,6,30,6,,,,,,,,,,,,,,,,,,,,,,,,,,,,,,,,,,,,,,,,2036.6659955880605,2036.6659955880605,2036.6659955880605,2036.6659955880605,2036.6659955880605,2036.6659955880605,2036.6659955880605,2036.6659955880605,2036.6659955880605,2036.6659955880605,a,1.4190207258798182,1,157,0,2038.1176704419777,2039.6192074369173,,,,,,,,,,,,,,,,,,,,,,,,,,,,,,,,,,,,,,,,,,,,,,,,,,,,,,,,,,,,,,,,,,,,,,,13678,2022-12-02_14h59.49.142,vts_reward_expectancy_bt_OFFLINE,2022.2.4,60.329188053994905,
0,1,0,0,0,0,1,0,circle,hexagon,0,0,0,0,2,7,31,4,,,,,,,,,,,,,,,,,,,,,,,,,,,,,,,,,,,,,,,,2040.1200102770235,2040.1200102770235,2040.1200102770235,2040.1200102770235,2040.1200102770235,2040.1200102770235,2040.1200102770235,2040.1200102770235,2040.1200102770235,2040.1200102770235,l,3.116957855876535,1,158,0,2043.2565452400595,2044.7580541979987,2044.7580541979987,,,,,,,,,,,,,,,,,,,,,,,,,,,,,,,,,,,,,,,,,,,,,,,,,,,,,,,,,,,,,,,,,,,,,,13678,2022-12-02_14h59.49.142,vts_reward_expectancy_bt_OFFLINE,2022.2.4,60.329188053994905,
0,1,0,0,0,0,0,1,circle,star,0,0,0,0,2,8,32,5,,,,,,,,,,,,,,,,,,,,,,,,,,,,,,,,,,,,,,,,2045.2586340880953,2045.2586340880953,2045.2586340880953,2045.2586340880953,2045.2586340880953,2045.2586340880953,2045.2586340880953,2045.2586340880953,2045.2586340880953,2045.2586340880953,l,0.9698810409754515,1,159,0,2046.2597805089317,2047.7616102141328,,,,,,,,,,,,,,,,,,,,,,,,,,,,,,,,,,,,,,,,,,,,,,,,,,,,,,,,,,,,,,,,,,,,,,,13678,2022-12-02_14h59.49.142,vts_reward_expectancy_bt_OFFLINE,2022.2.4,60.329188053994905,
1,0,0,0,0,0,1,0,triangle,hexagon,0,0,0,0,2,9,33,1,,,,,,,,,,,,,,,,,,,,,,,,,,,,,,,,,,,,,,,,2048.2618993180804,2048.2618993180804,2048.2618993180804,2048.2618993180804,2048.2618993180804,2048.2618993180804,2048.2618993180804,2048.2618993180804,2048.2618993180804,2048.2618993180804,l,2.276951276930049,1,160,0,2050.564674681984,2052.0663478849456,,,,,,,,,,,,,,,,,,,,,,,,,,,,,,,,,,,,,,,,,,,,,,,,,,,,,,,,,,,,,,,,,,,,,,,13678,2022-12-02_14h59.49.142,vts_reward_expectancy_bt_OFFLINE,2022.2.4,60.329188053994905,
1,0,0,0,0,0,0,1,triangle,star,0,0,0,0,2,10,34,2,,,,,,,,,,,,,,,,,,,,,,,,,,,,,,,,,,,,,,,,2052.566774778068,2052.566774778068,2052.566774778068,2052.566774778068,2052.566774778068,2052.566774778068,2052.566774778068,2052.566774778068,2052.566774778068,2052.566774778068,l,1.5709443208761513,1,161,0,2054.1685946369544,2055.6702256149147,,,,,,,,,,,,,,,,,,,,,,,,,,,,,,,,,,,,,,,,,,,,,,,,,,,,,,,,,,,,,,,,,,,,,,,13678,2022-12-02_14h59.49.142,vts_reward_expectancy_bt_OFFLINE,2022.2.4,60.329188053994905,
1,0,0,0,0,1,0,0,triangle,circle,0,0,0,0,2,11,35,0,,,,,,,,,,,,,,,,,,,,,,,,,,,,,,,,,,,,,,,,2056.1707086600363,2056.1707086600363,2056.1707086600363,2056.1707086600363,2056.1707086600363,2056.1707086600363,2056.1707086600363,2056.1707086600363,2056.1707086600363,2056.1707086600363,a,0.7355935918167233,1,162,0,2056.938281879062,2058.4399286669213,,,,,,,,,,,,,,,,,,,,,,,,,,,,,,,,,,,,,,,,,,,,,,,,,,,,,,,,,,,,,,,,,,,,,,,13678,2022-12-02_14h59.49.142,vts_reward_expectancy_bt_OFFLINE,2022.2.4,60.329188053994905,
0,0,1,0,1,0,0,0,hexagon,triangle,0,0,0,0,3,0,36,6,,,,,,,,,,,,,,,,,,,,,,,,,,,,,,,,,,,,,,,,2058.940712904092,2058.940712904092,2058.940712904092,2058.940712904092,2058.940712904092,2058.940712904092,2058.940712904092,2058.940712904092,2058.940712904092,2058.940712904092,a,2.0945496808271855,1,163,0,2061.05954092904,2062.561070919037,,,,,,,,,,,,,,,,,,,,,,,,,,,,,,,,,,,,,,,,,,,,,,,,,,,,,,,,,,,,,,,,,,,,,,,13678,2022-12-02_14h59.49.142,vts_reward_expectancy_bt_OFFLINE,2022.2.4,60.329188053994905,
0,1,0,0,0,0,1,0,circle,hexagon,0,0,0,0,3,1,37,4,,,,,,,,,,,,,,,,,,,,,,,,,,,,,,,,,,,,,,,,2063.0617537731305,2063.0617537731305,2063.0617537731305,2063.0617537731305,2063.0617537731305,2063.0617537731305,2063.0617537731305,2063.0617537731305,2063.0617537731305,2063.0617537731305,l,2.304669652832672,10,173,0,2065.3977395519614,2066.8994339080527,,,,,,,,,,,,,,,,,,,,,,,,,,,,,,,,,,,,,,,,,,,,,,,,,,,,,,,,,,,,,,,,,,,,,,,13678,2022-12-02_14h59.49.142,vts_reward_expectancy_bt_OFFLINE,2022.2.4,60.329188053994905,
0,1,0,0,1,0,0,0,circle,triangle,0,0,0,0,3,2,38,3,,,,,,,,,,,,,,,,,,,,,,,,,,,,,,,,,,,,,,,,2067.3997897969093,2067.3997897969093,2067.3997897969093,2067.3997897969093,2067.3997897969093,2067.3997897969093,2067.3997897969093,2067.3997897969093,2067.3997897969093,2067.3997897969093,l,2.9867443768307567,10,183,0,2070.4032917129807,2071.9048501299694,2071.9048501299694,,,,,,,,,,,,,,,,,,,,,,,,,,,,,,,,,,,,,,,,,,,,,,,,,,,,,,,,,,,,,,,,,,,,,,13678,2022-12-02_14h59.49.142,vts_reward_expectancy_bt_OFFLINE,2022.2.4,60.329188053994905,
1,0,0,0,0,0,1,0,triangle,hexagon,0,0,0,0,3,3,39,1,,,,,,,,,,,,,,,,,,,,,,,,,,,,,,,,,,,,,,,,2072.405354842078,2072.405354842078,2072.405354842078,2072.405354842078,2072.405354842078,2072.405354842078,2072.405354842078,2072.405354842078,2072.405354842078,2072.405354842078,a,1.558277579722926,1,184,0,2073.9904892630875,2075.492138619069,,,,,,,,,,,,,,,,,,,,,,,,,,,,,,,,,,,,,,,,,,,,,,,,,,,,,,,,,,,,,,,,,,,,,,,13678,2022-12-02_14h59.49.142,vts_reward_expectancy_bt_OFFLINE,2022.2.4,60.329188053994905,
0,0,0,1,0,0,1,0,star,hexagon,0,0,0,0,3,4,40,11,,,,,,,,,,,,,,,,,,,,,,,,,,,,,,,,,,,,,,,,2075.9928106840234,2075.9928106840234,2075.9928106840234,2075.9928106840234,2075.9928106840234,2075.9928106840234,2075.9928106840234,2075.9928106840234,2075.9928106840234,2075.9928106840234,a,0.7368622368667275,1,185,0,2076.760167438071,2078.261732825078,,,,,,,,,,,,,,,,,,,,,,,,,,,,,,,,,,,,,,,,,,,,,,,,,,,,,,,,,,,,,,,,,,,,,,,13678,2022-12-02_14h59.49.142,vts_reward_expectancy_bt_OFFLINE,2022.2.4,60.329188053994905,
0,0,1,0,0,0,0,1,hexagon,star,0,0,0,0,3,5,41,8,,,,,,,,,,,,,,,,,,,,,,,,,,,,,,,,,,,,,,,,2078.762508607004,2078.762508607004,2078.762508607004,2078.762508607004,2078.762508607004,2078.762508607004,2078.762508607004,2078.762508607004,2078.762508607004,2078.762508607004,l,0.7582910778000951,10,195,0,2079.546538718976,2081.0482771040406,,,,,,,,,,,,,,,,,,,,,,,,,,,,,,,,,,,,,,,,,,,,,,,,,,,,,,,,,,,,,,,,,,,,,,,13678,2022-12-02_14h59.49.142,vts_reward_expectancy_bt_OFFLINE,2022.2.4,60.329188053994905,
0,1,0,0,0,0,0,1,circle,star,0,0,0,0,3,6,42,5,,,,,,,,,,,,,,,,,,,,,,,,,,,,,,,,,,,,,,,,2081.548937466927,2081.548937466927,2081.548937466927,2081.548937466927,2081.548937466927,2081.548937466927,2081.548937466927,2081.548937466927,2081.548937466927,2081.548937466927,l,1.4696540089789778,1,196,0,2083.050499679055,2084.5522057430353,,,,,,,,,,,,,,,,,,,,,,,,,,,,,,,,,,,,,,,,,,,,,,,,,,,,,,,,,,,,,,,,,,,,,,,13678,2022-12-02_14h59.49.142,vts_reward_expectancy_bt_OFFLINE,2022.2.4,60.329188053994905,
0,0,1,0,0,1,0,0,hexagon,circle,0,0,0,0,3,7,43,7,,,,,,,,,,,,,,,,,,,,,,,,,,,,,,,,,,,,,,,,2085.0528515221085,2085.0528515221085,2085.0528515221085,2085.0528515221085,2085.0528515221085,2085.0528515221085,2085.0528515221085,2085.0528515221085,2085.0528515221085,2085.0528515221085,a,2.343803704949096,1,197,0,2087.422059169039,2088.9236454989295,,,,,,,,,,,,,,,,,,,,,,,,,,,,,,,,,,,,,,,,,,,,,,,,,,,,,,,,,,,,,,,,,,,,,,,13678,2022-12-02_14h59.49.142,vts_reward_expectancy_bt_OFFLINE,2022.2.4,60.329188053994905,
0,0,0,1,0,1,0,0,star ,circle,0,0,0,0,3,8,44,10,,,,,,,,,,,,,,,,,,,,,,,,,,,,,,,,,,,,,,,,2089.4240791569464,2089.4240791569464,2089.4240791569464,2089.4240791569464,2089.4240791569464,2089.4240791569464,2089.4240791569464,2089.4240791569464,2089.4240791569464,2089.4240791569464,a,0.8753674058243632,1,198,0,2090.3251229769085,2091.8267048969865,,,,,,,,,,,,,,,,,,,,,,,,,,,,,,,,,,,,,,,,,,,,,,,,,,,,,,,,,,,,,,,,,,,,,,,13678,2022-12-02_14h59.49.142,vts_reward_expectancy_bt_OFFLINE,2022.2.4,60.329188053994905,
0,0,0,1,1,0,0,0,star,triangle,0,0,0,0,3,9,45,9,,,,,,,,,,,,,,,,,,,,,,,,,,,,,,,,,,,,,,,,2092.327295674011,2092.327295674011,2092.327295674011,2092.327295674011,2092.327295674011,2092.327295674011,2092.327295674011,2092.327295674011,2092.327295674011,2092.327295674011,a,0.9757377919740975,10,208,0,2093.3285035290755,2094.830243187025,,,,,,,,,,,,,,,,,,,,,,,,,,,,,,,,,,,,,,,,,,,,,,,,,,,,,,,,,,,,,,,,,,,,,,,13678,2022-12-02_14h59.49.142,vts_reward_expectancy_bt_OFFLINE,2022.2.4,60.329188053994905,
1,0,0,0,0,0,0,1,triangle,star,0,0,0,0,3,10,46,2,,,,,,,,,,,,,,,,,,,,,,,,,,,,,,,,,,,,,,,,2095.330886407057,2095.330886407057,2095.330886407057,2095.330886407057,2095.330886407057,2095.330886407057,2095.330886407057,2095.330886407057,2095.330886407057,2095.330886407057,a,2.2363843338098377,1,209,0,2097.600023339037,2099.101701012114,,,,,,,,,,,,,,,,,,,,,,,,,,,,,,,,,,,,,,,,,,,,,,,,,,,,,,,,,,,,,,,,,,,,,,,13678,2022-12-02_14h59.49.142,vts_reward_expectancy_bt_OFFLINE,2022.2.4,60.329188053994905,
1,0,0,0,0,1,0,0,triangle,circle,0,0,0,0,3,11,47,0,,,,,,,,,,,,,,,,,,,,,,,,,,,,,,,,,,,,,,,,2099.60207614908,2099.60207614908,2099.60207614908,2099.60207614908,2099.60207614908,2099.60207614908,2099.60207614908,2099.60207614908,2099.60207614908,2099.60207614908,l,1.5530421717558056,1,210,0,2101.1871026579756,2102.688849207945,,,,,,,,,,,,,,,,,,,,,,,,,,,,,,,,,,,,,,,,,,,,,,,,,,,,,,,,,,,,,,,,,,,,,,,13678,2022-12-02_14h59.49.142,vts_reward_expectancy_bt_OFFLINE,2022.2.4,60.329188053994905,
0,0,0,1,1,0,0,0,star,triangle,1,0,1,0,0,0,0,9,,,,,,,,,,,,,,,,,,,,,,,,,,,,,,,,,,,,,,,,2108.912438129075,2108.912438129075,2108.912438129075,2108.912438129075,2108.912438129075,2108.912438129075,2108.912438129075,2108.912438129075,2108.912438129075,2108.912438129075,a,0.9857062317896634,1,211,1,2109.93009031401,2111.431752528064,,,,,,,,,,,,,,,,,,,,,,,,,,,,,,,,,,,,,,,,,,,,,,,,,,,,,,,,,,,,,,,,,,,,,,,13678,2022-12-02_14h59.49.142,vts_reward_expectancy_bt_OFFLINE,2022.2.4,60.329188053994905,
1,0,0,0,0,1,0,0,triangle,circle,1,0,1,0,0,1,1,0,,,,,,,,,,,,,,,,,,,,,,,,,,,,,,,,,,,,,,,,2111.93236771808,2111.93236771808,2111.93236771808,2111.93236771808,2111.93236771808,2111.93236771808,2111.93236771808,2111.93236771808,2111.93236771808,2111.93236771808,a,2.521893573924899,10,221,1,2114.485345509136,2115.986806984991,,,,,,,,,,,,,,,,,,,,,,,,,,,,,,,,,,,,,,,,,,,,,,,,,,,,,,,,,,,,,,,,,,,,,,,13678,2022-12-02_14h59.49.142,vts_reward_expectancy_bt_OFFLINE,2022.2.4,60.329188053994905,
0,0,1,0,1,0,0,0,hexagon,triangle,1,0,1,0,0,2,2,6,,,,,,,,,,,,,,,,,,,,,,,,,,,,,,,,,,,,,,,,2116.4875395889394,2116.4875395889394,2116.4875395889394,2116.4875395889394,2116.4875395889394,2116.4875395889394,2116.4875395889394,2116.4875395889394,2116.4875395889394,2116.4875395889394,l,1.712328144814819,10,231,1,2118.2225945829414,2119.7243353880476,2119.7243353880476,,,,,,,,,,,,,,,,,,,,,,,,,,,,,,,,,,,,,,,,,,,,,,,,,,,,,,,,,,,,,,,,,,,,,,13678,2022-12-02_14h59.49.142,vts_reward_expectancy_bt_OFFLINE,2022.2.4,60.329188053994905,
1,0,0,0,0,0,1,0,triangle,hexagon,1,0,1,0,0,3,3,1,,,,,,,,,,,,,,,,,,,,,,,,,,,,,,,,,,,,,,,,2120.2248403839767,2120.2248403839767,2120.2248403839767,2120.2248403839767,2120.2248403839767,2120.2248403839767,2120.2248403839767,2120.2248403839767,2120.2248403839767,2120.2248403839767,a,1.091981790959835,1,232,1,2121.342621715041,2122.8441966930404,,,,,,,,,,,,,,,,,,,,,,,,,,,,,,,,,,,,,,,,,,,,,,,,,,,,,,,,,,,,,,,,,,,,,,,13678,2022-12-02_14h59.49.142,vts_reward_expectancy_bt_OFFLINE,2022.2.4,60.329188053994905,
0,1,0,0,0,0,0,1,circle,star,1,0,1,0,0,4,4,5,,,,,,,,,,,,,,,,,,,,,,,,,,,,,,,,,,,,,,,,2123.344942508964,2123.344942508964,2123.344942508964,2123.344942508964,2123.344942508964,2123.344942508964,2123.344942508964,2123.344942508964,2123.344942508964,2123.344942508964,a,1.4714815909974277,1,233,1,2124.846578079043,2126.348113629967,,,,,,,,,,,,,,,,,,,,,,,,,,,,,,,,,,,,,,,,,,,,,,,,,,,,,,,,,,,,,,,,,,,,,,,13678,2022-12-02_14h59.49.142,vts_reward_expectancy_bt_OFFLINE,2022.2.4,60.329188053994905,
0,1,0,0,0,0,1,0,circle,hexagon,1,0,1,0,0,5,5,4,,,,,,,,,,,,,,,,,,,,,,,,,,,,,,,,,,,,,,,,2126.8487754100934,2126.8487754100934,2126.8487754100934,2126.8487754100934,2126.8487754100934,2126.8487754100934,2126.8487754100934,2126.8487754100934,2126.8487754100934,2126.8487754100934,a,1.6357969157397747,1,234,1,2128.517285937909,2130.0190304329153,,,,,,,,,,,,,,,,,,,,,,,,,,,,,,,,,,,,,,,,,,,,,,,,,,,,,,,,,,,,,,,,,,,,,,,13678,2022-12-02_14h59.49.142,vts_reward_expectancy_bt_OFFLINE,2022.2.4,60.329188053994905,
0,0,1,0,0,0,0,1,hexagon,star,1,0,1,0,0,6,6,8,,,,,,,,,,,,,,,,,,,,,,,,,,,,,,,,,,,,,,,,2130.5195288190152,2130.5195288190152,2130.5195288190152,2130.5195288190152,2130.5195288190152,2130.5195288190152,2130.5195288190152,2130.5195288190152,2130.5195288190152,2130.5195288190152,l,2.375400154851377,10,244,1,2132.9220100441016,2134.4236796419136,,,,,,,,,,,,,,,,,,,,,,,,,,,,,,,,,,,,,,,,,,,,,,,,,,,,,,,,,,,,,,,,,,,,,,,13678,2022-12-02_14h59.49.142,vts_reward_expectancy_bt_OFFLINE,2022.2.4,60.329188053994905,
0,0,0,1,0,0,1,0,star,hexagon,1,0,1,0,0,7,7,11,,,,,,,,,,,,,,,,,,,,,,,,,,,,,,,,,,,,,,,,2134.9241690631025,2134.9241690631025,2134.9241690631025,2134.9241690631025,2134.9241690631025,2134.9241690631025,2134.9241690631025,2134.9241690631025,2134.9241690631025,2134.9241690631025,a,1.4121846978086978,1,245,1,2136.3591238020454,2137.860846868949,,,,,,,,,,,,,,,,,,,,,,,,,,,,,,,,,,,,,,,,,,,,,,,,,,,,,,,,,,,,,,,,,,,,,,,13678,2022-12-02_14h59.49.142,vts_reward_expectancy_bt_OFFLINE,2022.2.4,60.329188053994905,
0,0,1,0,0,1,0,0,hexagon,circle,1,0,1,0,0,8,8,7,,,,,,,,,,,,,,,,,,,,,,,,,,,,,,,,,,,,,,,,2138.3614493019413,2138.3614493019413,2138.3614493019413,2138.3614493019413,2138.3614493019413,2138.3614493019413,2138.3614493019413,2138.3614493019413,2138.3614493019413,2138.3614493019413,a,3.578228239901364,1,246,1,2141.9653614289127,2143.4669985889923,,,,,,,,,,,,,,,,,,,,,,,,,,,,,,,,,,,,,,,,,,,,,,,,,,,,,,,,,,,,,,,,,,,,,,,13678,2022-12-02_14h59.49.142,vts_reward_expectancy_bt_OFFLINE,2022.2.4,60.329188053994905,
0,1,0,0,1,0,0,0,circle,triangle,1,0,1,0,0,9,9,3,,,,,,,,,,,,,,,,,,,,,,,,,,,,,,,,,,,,,,,,2143.9677616921254,2143.9677616921254,2143.9677616921254,2143.9677616921254,2143.9677616921254,2143.9677616921254,2143.9677616921254,2143.9677616921254,2143.9677616921254,2143.9677616921254,l,3.711145869921893,1,247,1,2147.7052699569613,2149.2070547449403,,,,,,,,,,,,,,,,,,,,,,,,,,,,,,,,,,,,,,,,,,,,,,,,,,,,,,,,,,,,,,,,,,,,,,,13678,2022-12-02_14h59.49.142,vts_reward_expectancy_bt_OFFLINE,2022.2.4,60.329188053994905,
0,0,0,1,0,1,0,0,star ,circle,1,0,1,0,0,10,10,10,,,,,,,,,,,,,,,,,,,,,,,,,,,,,,,,,,,,,,,,2149.7072987079155,2149.7072987079155,2149.7072987079155,2149.7072987079155,2149.7072987079155,2149.7072987079155,2149.7072987079155,2149.7072987079155,2149.7072987079155,2149.7072987079155,l,2.303267471725121,1,248,1,2152.0433285199106,2153.545094324043,,,,,,,,,,,,,,,,,,,,,,,,,,,,,,,,,,,,,,,,,,,,,,,,,,,,,,,,,,,,,,,,,,,,,,,13678,2022-12-02_14h59.49.142,vts_reward_expectancy_bt_OFFLINE,2022.2.4,60.329188053994905,
1,0,0,0,0,0,0,1,triangle,star,1,0,1,0,0,11,11,2,,,,,,,,,,,,,,,,,,,,,,,,,,,,,,,,,,,,,,,,2154.045399907045,2154.045399907045,2154.045399907045,2154.045399907045,2154.045399907045,2154.045399907045,2154.045399907045,2154.045399907045,2154.045399907045,2154.045399907045,a,1.2605348087381572,10,258,1,2155.330121210078,2156.8317264679354,,,,,,,,,,,,,,,,,,,,,,,,,,,,,,,,,,,,,,,,,,,,,,,,,,,,,,,,,,,,,,,,,,,,,,,13678,2022-12-02_14h59.49.142,vts_reward_expectancy_bt_OFFLINE,2022.2.4,60.329188053994905,
0,1,0,0,0,0,0,1,circle,star,1,0,1,0,1,0,12,5,,,,,,,,,,,,,,,,,,,,,,,,,,,,,,,,,,,,,,,,2157.332443519961,2157.332443519961,2157.332443519961,2157.332443519961,2157.332443519961,2157.332443519961,2157.332443519961,2157.332443519961,2157.332443519961,2157.332443519961,a,1.7770645359996706,10,268,1,2159.1345086500514,2160.636176066939,,,,,,,,,,,,,,,,,,,,,,,,,,,,,,,,,,,,,,,,,,,,,,,,,,,,,,,,,,,,,,,,,,,,,,,13678,2022-12-02_14h59.49.142,vts_reward_expectancy_bt_OFFLINE,2022.2.4,60.329188053994905,
1,0,0,0,0,0,0,1,triangle,star,1,0,1,0,1,1,13,2,,,,,,,,,,,,,,,,,,,,,,,,,,,,,,,,,,,,,,,,2161.1367225069553,2161.1367225069553,2161.1367225069553,2161.1367225069553,2161.1367225069553,2161.1367225069553,2161.1367225069553,2161.1367225069553,2161.1367225069553,2161.1367225069553,a,1.1888815937563777,1,269,1,2162.3546911119483,2163.8562704620417,,,,,,,,,,,,,,,,,,,,,,,,,,,,,,,,,,,,,,,,,,,,,,,,,,,,,,,,,,,,,,,,,,,,,,,13678,2022-12-02_14h59.49.142,vts_reward_expectancy_bt_OFFLINE,2022.2.4,60.329188053994905,
0,0,1,0,0,1,0,0,hexagon,circle,1,0,1,0,1,2,14,7,,,,,,,,,,,,,,,,,,,,,,,,,,,,,,,,,,,,,,,,2164.357037706999,2164.357037706999,2164.357037706999,2164.357037706999,2164.357037706999,2164.357037706999,2164.357037706999,2164.357037706999,2164.357037706999,2164.357037706999,a,1.8737923838198185,10,279,1,2166.259046352934,2167.7606092449278,2167.7606092449278,,,,,,,,,,,,,,,,,,,,,,,,,,,,,,,,,,,,,,,,,,,,,,,,,,,,,,,,,,,,,,,,,,,,,,13678,2022-12-02_14h59.49.142,vts_reward_expectancy_bt_OFFLINE,2022.2.4,60.329188053994905,
0,1,0,0,0,0,1,0,circle,hexagon,1,0,1,0,1,3,15,4,,,,,,,,,,,,,,,,,,,,,,,,,,,,,,,,,,,,,,,,2168.2613110090606,2168.2613110090606,2168.2613110090606,2168.2613110090606,2168.2613110090606,2168.2613110090606,2168.2613110090606,2168.2613110090606,2168.2613110090606,2168.2613110090606,a,3.1337235008832067,10,289,1,2171.414590114029,2172.916349728126,,,,,,,,,,,,,,,,,,,,,,,,,,,,,,,,,,,,,,,,,,,,,,,,,,,,,,,,,,,,,,,,,,,,,,,13678,2022-12-02_14h59.49.142,vts_reward_expectancy_bt_OFFLINE,2022.2.4,60.329188053994905,
0,0,0,1,0,1,0,0,star ,circle,1,0,1,0,1,4,16,10,,,,,,,,,,,,,,,,,,,,,,,,,,,,,,,,,,,,,,,,2173.4167081869673,2173.4167081869673,2173.4167081869673,2173.4167081869673,2173.4167081869673,2173.4167081869673,2173.4167081869673,2173.4167081869673,2173.4167081869673,2173.4167081869673,a,1.4770407078322023,10,299,1,2174.9183313820977,2176.4200599589385,,,,,,,,,,,,,,,,,,,,,,,,,,,,,,,,,,,,,,,,,,,,,,,,,,,,,,,,,,,,,,,,,,,,,,,13678,2022-12-02_14h59.49.142,vts_reward_expectancy_bt_OFFLINE,2022.2.4,60.329188053994905,
0,0,1,0,0,0,0,1,hexagon,star,1,0,1,0,1,5,17,8,,,,,,,,,,,,,,,,,,,,,,,,,,,,,,,,,,,,,,,,2176.9207830131054,2176.9207830131054,2176.9207830131054,2176.9207830131054,2176.9207830131054,2176.9207830131054,2176.9207830131054,2176.9207830131054,2176.9207830131054,2176.9207830131054,a,3.971707643941045,1,300,1,2180.92506567901,2182.426908042049,,,,,,,,,,,,,,,,,,,,,,,,,,,,,,,,,,,,,,,,,,,,,,,,,,,,,,,,,,,,,,,,,,,,,,,13678,2022-12-02_14h59.49.142,vts_reward_expectancy_bt_OFFLINE,2022.2.4,60.329188053994905,
1,0,0,0,0,0,1,0,triangle,hexagon,1,0,1,0,1,6,18,1,,,,,,,,,,,,,,,,,,,,,,,,,,,,,,,,,,,,,,,,2182.927355559077,2182.927355559077,2182.927355559077,2182.927355559077,2182.927355559077,2182.927355559077,2182.927355559077,2182.927355559077,2182.927355559077,2182.927355559077,a,1.1467866378370672,10,310,1,2184.0952822600957,2185.5971388770267,,,,,,,,,,,,,,,,,,,,,,,,,,,,,,,,,,,,,,,,,,,,,,,,,,,,,,,,,,,,,,,,,,,,,,,13678,2022-12-02_14h59.49.142,vts_reward_expectancy_bt_OFFLINE,2022.2.4,60.329188053994905,
0,1,0,0,1,0,0,0,circle,triangle,1,0,1,0,1,7,19,3,,,,,,,,,,,,,,,,,,,,,,,,,,,,,,,,,,,,,,,,2186.0975387620274,2186.0975387620274,2186.0975387620274,2186.0975387620274,2186.0975387620274,2186.0975387620274,2186.0975387620274,2186.0975387620274,2186.0975387620274,2186.0975387620274,l,1.3755896226502955,1,311,1,2187.4989762839396,2189.0007630900946,,,,,,,,,,,,,,,,,,,,,,,,,,,,,,,,,,,,,,,,,,,,,,,,,,,,,,,,,,,,,,,,,,,,,,,13678,2022-12-02_14h59.49.142,vts_reward_expectancy_bt_OFFLINE,2022.2.4,60.329188053994905,
1,0,0,0,0,1,0,0,triangle,circle,1,0,1,0,1,8,20,0,,,,,,,,,,,,,,,,,,,,,,,,,,,,,,,,,,,,,,,,2189.5013790391386,2189.5013790391386,2189.5013790391386,2189.5013790391386,2189.5013790391386,2189.5013790391386,2189.5013790391386,2189.5013790391386,2189.5013790391386,2189.5013790391386,a,3.5055878409184515,1,312,1,2193.0384617089294,2194.540032028919,,,,,,,,,,,,,,,,,,,,,,,,,,,,,,,,,,,,,,,,,,,,,,,,,,,,,,,,,,,,,,,,,,,,,,,13678,2022-12-02_14h59.49.142,vts_reward_expectancy_bt_OFFLINE,2022.2.4,60.329188053994905,
0,0,0,1,1,0,0,0,star,triangle,1,0,1,0,1,9,21,9,,,,,,,,,,,,,,,,,,,,,,,,,,,,,,,,,,,,,,,,2195.04073182703,2195.04073182703,2195.04073182703,2195.04073182703,2195.04073182703,2195.04073182703,2195.04073182703,2195.04073182703,2195.04073182703,2195.04073182703,a,1.4998872769065201,10,322,1,2196.5590689699166,2198.0607473091222,,,,,,,,,,,,,,,,,,,,,,,,,,,,,,,,,,,,,,,,,,,,,,,,,,,,,,,,,,,,,,,,,,,,,,,13678,2022-12-02_14h59.49.142,vts_reward_expectancy_bt_OFFLINE,2022.2.4,60.329188053994905,
0,0,0,1,0,0,1,0,star,hexagon,1,0,1,0,1,10,22,11,,,,,,,,,,,,,,,,,,,,,,,,,,,,,,,,,,,,,,,,2198.5614108629525,2198.5614108629525,2198.5614108629525,2198.5614108629525,2198.5614108629525,2198.5614108629525,2198.5614108629525,2198.5614108629525,2198.5614108629525,2198.5614108629525,a,2.613324279896915,10,332,1,2201.1976251129527,2202.6992615780327,,,,,,,,,,,,,,,,,,,,,,,,,,,,,,,,,,,,,,,,,,,,,,,,,,,,,,,,,,,,,,,,,,,,,,,13678,2022-12-02_14h59.49.142,vts_reward_expectancy_bt_OFFLINE,2022.2.4,60.329188053994905,
0,0,1,0,1,0,0,0,hexagon,triangle,1,0,1,0,1,11,23,6,,,,,,,,,,,,,,,,,,,,,,,,,,,,,,,,,,,,,,,,2203.1995947549585,2203.1995947549585,2203.1995947549585,2203.1995947549585,2203.1995947549585,2203.1995947549585,2203.1995947549585,2203.1995947549585,2203.1995947549585,2203.1995947549585,l,1.4761404667515308,1,333,1,2204.7014263370074,2206.203114370117,,,,,,,,,,,,,,,,,,,,,,,,,,,,,,,,,,,,,,,,,,,,,,,,,,,,,,,,,,,,,,,,,,,,,,,13678,2022-12-02_14h59.49.142,vts_reward_expectancy_bt_OFFLINE,2022.2.4,60.329188053994905,
0,0,1,0,1,0,0,0,hexagon,triangle,1,0,1,0,2,0,24,6,,,,,,,,,,,,,,,,,,,,,,,,,,,,,,,,,,,,,,,,2206.7034979530144,2206.7034979530144,2206.7034979530144,2206.7034979530144,2206.7034979530144,2206.7034979530144,2206.7034979530144,2206.7034979530144,2206.7034979530144,2206.7034979530144,a,1.436024489812553,1,334,1,2208.171760513913,2209.6736737249885,,,,,,,,,,,,,,,,,,,,,,,,,,,,,,,,,,,,,,,,,,,,,,,,,,,,,,,,,,,,,,,,,,,,,,,13678,2022-12-02_14h59.49.142,vts_reward_expectancy_bt_OFFLINE,2022.2.4,60.329188053994905,
1,0,0,0,0,0,0,1,triangle,star,1,0,1,0,2,1,25,2,,,,,,,,,,,,,,,,,,,,,,,,,,,,,,,,,,,,,,,,2210.1741329419892,2210.1741329419892,2210.1741329419892,2210.1741329419892,2210.1741329419892,2210.1741329419892,2210.1741329419892,2210.1741329419892,2210.1741329419892,2210.1741329419892,a,1.5762218639720231,10,344,1,2211.7756693840493,2213.277474246919,,,,,,,,,,,,,,,,,,,,,,,,,,,,,,,,,,,,,,,,,,,,,,,,,,,,,,,,,,,,,,,,,,,,,,,13678,2022-12-02_14h59.49.142,vts_reward_expectancy_bt_OFFLINE,2022.2.4,60.329188053994905,
0,0,1,0,0,0,0,1,hexagon,star,1,0,1,0,2,2,26,8,,,,,,,,,,,,,,,,,,,,,,,,,,,,,,,,,,,,,,,,2213.778054322116,2213.778054322116,2213.778054322116,2213.778054322116,2213.778054322116,2213.778054322116,2213.778054322116,2213.778054322116,2213.778054322116,2213.778054322116,l,2.3836576158646494,10,354,1,2216.1805663690902,2217.6823619049974,,,,,,,,,,,,,,,,,,,,,,,,,,,,,,,,,,,,,,,,,,,,,,,,,,,,,,,,,,,,,,,,,,,,,,,13678,2022-12-02_14h59.49.142,vts_reward_expectancy_bt_OFFLINE,2022.2.4,60.329188053994905,
0,0,0,1,0,0,1,0,star,hexagon,1,0,1,0,2,3,27,11,,,,,,,,,,,,,,,,,,,,,,,,,,,,,,,,,,,,,,,,2218.1829473429825,2218.1829473429825,2218.1829473429825,2218.1829473429825,2218.1829473429825,2218.1829473429825,2218.1829473429825,2218.1829473429825,2218.1829473429825,2218.1829473429825,a,1.9381250068545341,10,364,1,2220.1518159329426,2221.65332411509,2221.65332411509,,,,,,,,,,,,,,,,,,,,,,,,,,,,,,,,,,,,,,,,,,,,,,,,,,,,,,,,,,,,,,,,,,,,,,13678,2022-12-02_14h59.49.142,vts_reward_expectancy_bt_OFFLINE,2022.2.4,60.329188053994905,
0,1,0,0,0,0,1,0,circle,hexagon,1,0,1,0,2,4,28,4,,,,,,,,,,,,,,,,,,,,,,,,,,,,,,,,,,,,,,,,2222.153947758954,2222.153947758954,2222.153947758954,2222.153947758954,2222.153947758954,2222.153947758954,2222.153947758954,2222.153947758954,2222.153947758954,2222.153947758954,a,2.98771861102432,10,374,1,2225.173980901949,2226.675456568133,,,,,,,,,,,,,,,,,,,,,,,,,,,,,,,,,,,,,,,,,,,,,,,,,,,,,,,,,,,,,,,,,,,,,,,13678,2022-12-02_14h59.49.142,vts_reward_expectancy_bt_OFFLINE,2022.2.4,60.329188053994905,
1,0,0,0,0,1,0,0,triangle,circle,1,0,1,0,2,5,29,0,,,,,,,,,,,,,,,,,,,,,,,,,,,,,,,,,,,,,,,,2227.1762292669155,2227.1762292669155,2227.1762292669155,2227.1762292669155,2227.1762292669155,2227.1762292669155,2227.1762292669155,2227.1762292669155,2227.1762292669155,2227.1762292669155,a,2.1816991879604757,1,375,1,2229.3785059440415,2230.880156158004,,,,,,,,,,,,,,,,,,,,,,,,,,,,,,,,,,,,,,,,,,,,,,,,,,,,,,,,,,,,,,,,,,,,,,,13678,2022-12-02_14h59.49.142,vts_reward_expectancy_bt_OFFLINE,2022.2.4,60.329188053994905,
0,1,0,0,0,0,0,1,circle,star,1,0,1,0,2,6,30,5,,,,,,,,,,,,,,,,,,,,,,,,,,,,,,,,,,,,,,,,2231.3806976389606,2231.3806976389606,2231.3806976389606,2231.3806976389606,2231.3806976389606,2231.3806976389606,2231.3806976389606,2231.3806976389606,2231.3806976389606,2231.3806976389606,a,1.3526581798214465,1,376,1,2232.7657499380875,2234.2673032449093,,,,,,,,,,,,,,,,,,,,,,,,,,,,,,,,,,,,,,,,,,,,,,,,,,,,,,,,,,,,,,,,,,,,,,,13678,2022-12-02_14h59.49.142,vts_reward_expectancy_bt_OFFLINE,2022.2.4,60.329188053994905,
0,0,0,1,1,0,0,0,star,triangle,1,0,1,0,2,7,31,9,,,,,,,,,,,,,,,,,,,,,,,,,,,,,,,,,,,,,,,,2234.7678652179893,2234.7678652179893,2234.7678652179893,2234.7678652179893,2234.7678652179893,2234.7678652179893,2234.7678652179893,2234.7678652179893,2234.7678652179893,2234.7678652179893,a,1.185275575844571,10,386,1,2235.9857881050557,2237.487441336969,,,,,,,,,,,,,,,,,,,,,,,,,,,,,,,,,,,,,,,,,,,,,,,,,,,,,,,,,,,,,,,,,,,,,,,13678,2022-12-02_14h59.49.142,vts_reward_expectancy_bt_OFFLINE,2022.2.4,60.329188053994905,
0,1,0,0,1,0,0,0,circle,triangle,1,0,1,0,2,8,32,3,,,,,,,,,,,,,,,,,,,,,,,,,,,,,,,,,,,,,,,,2237.987918599043,2237.987918599043,2237.987918599043,2237.987918599043,2237.987918599043,2237.987918599043,2237.987918599043,2237.987918599043,2237.987918599043,2237.987918599043,a,2.1269706478342414,1,387,1,2240.140691939043,2241.6423215530813,,,,,,,,,,,,,,,,,,,,,,,,,,,,,,,,,,,,,,,,,,,,,,,,,,,,,,,,,,,,,,,,,,,,,,,13678,2022-12-02_14h59.49.142,vts_reward_expectancy_bt_OFFLINE,2022.2.4,60.329188053994905,
0,0,0,1,0,1,0,0,star ,circle,1,0,1,0,2,9,33,10,,,,,,,,,,,,,,,,,,,,,,,,,,,,,,,,,,,,,,,,2242.1426280869637,2242.1426280869637,2242.1426280869637,2242.1426280869637,2242.1426280869637,2242.1426280869637,2242.1426280869637,2242.1426280869637,2242.1426280869637,2242.1426280869637,a,2.000254418933764,1,388,1,2244.1616789400578,2245.663347603986,,,,,,,,,,,,,,,,,,,,,,,,,,,,,,,,,,,,,,,,,,,,,,,,,,,,,,,,,,,,,,,,,,,,,,,13678,2022-12-02_14h59.49.142,vts_reward_expectancy_bt_OFFLINE,2022.2.4,60.329188053994905,
1,0,0,0,0,0,1,0,triangle,hexagon,1,0,1,0,2,10,34,1,,,,,,,,,,,,,,,,,,,,,,,,,,,,,,,,,,,,,,,,2246.1637277649716,2246.1637277649716,2246.1637277649716,2246.1637277649716,2246.1637277649716,2246.1637277649716,2246.1637277649716,2246.1637277649716,2246.1637277649716,2246.1637277649716,a,1.6236149908509105,1,389,1,2247.8156874380074,2249.3171521699987,,,,,,,,,,,,,,,,,,,,,,,,,,,,,,,,,,,,,,,,,,,,,,,,,,,,,,,,,,,,,,,,,,,,,,,13678,2022-12-02_14h59.49.142,vts_reward_expectancy_bt_OFFLINE,2022.2.4,60.329188053994905,
0,0,1,0,0,1,0,0,hexagon,circle,1,0,1,0,2,11,35,7,,,,,,,,,,,,,,,,,,,,,,,,,,,,,,,,,,,,,,,,2249.817825504113,2249.817825504113,2249.817825504113,2249.817825504113,2249.817825504113,2249.817825504113,2249.817825504113,2249.817825504113,2249.817825504113,2249.817825504113,l,1.3355014768894762,1,390,1,2251.185884514125,2252.687688468024,,,,,,,,,,,,,,,,,,,,,,,,,,,,,,,,,,,,,,,,,,,,,,,,,,,,,,,,,,,,,,,,,,,,,,,13678,2022-12-02_14h59.49.142,vts_reward_expectancy_bt_OFFLINE,2022.2.4,60.329188053994905,
1,0,0,0,0,0,1,0,triangle,hexagon,1,0,1,0,3,0,36,1,,,,,,,,,,,,,,,,,,,,,,,,,,,,,,,,,,,,,,,,2253.1881180589553,2253.1881180589553,2253.1881180589553,2253.1881180589553,2253.1881180589553,2253.1881180589553,2253.1881180589553,2253.1881180589553,2253.1881180589553,2253.1881180589553,a,1.1809912368189543,1,391,1,2254.3895170791075,2255.891170033952,,,,,,,,,,,,,,,,,,,,,,,,,,,,,,,,,,,,,,,,,,,,,,,,,,,,,,,,,,,,,,,,,,,,,,,13678,2022-12-02_14h59.49.142,vts_reward_expectancy_bt_OFFLINE,2022.2.4,60.329188053994905,
0,0,1,0,0,0,0,1,hexagon,star,1,0,1,0,3,1,37,8,,,,,,,,,,,,,,,,,,,,,,,,,,,,,,,,,,,,,,,,2256.3918217490427,2256.3918217490427,2256.3918217490427,2256.3918217490427,2256.3918217490427,2256.3918217490427,2256.3918217490427,2256.3918217490427,2256.3918217490427,2256.3918217490427,a,2.017338550882414,1,392,1,2258.4272729000077,2259.9289984919596,2259.9289984919596,,,,,,,,,,,,,,,,,,,,,,,,,,,,,,,,,,,,,,,,,,,,,,,,,,,,,,,,,,,,,,,,,,,,,,13678,2022-12-02_14h59.49.142,vts_reward_expectancy_bt_OFFLINE,2022.2.4,60.329188053994905,
0,0,1,0,0,1,0,0,hexagon,circle,1,0,1,0,3,2,38,7,,,,,,,,,,,,,,,,,,,,,,,,,,,,,,,,,,,,,,,,2260.429424467031,2260.429424467031,2260.429424467031,2260.429424467031,2260.429424467031,2260.429424467031,2260.429424467031,2260.429424467031,2260.429424467031,2260.429424467031,l,1.793557590804994,10,402,1,2262.2481672971044,2263.7497335290536,,,,,,,,,,,,,,,,,,,,,,,,,,,,,,,,,,,,,,,,,,,,,,,,,,,,,,,,,,,,,,,,,,,,,,,13678,2022-12-02_14h59.49.142,vts_reward_expectancy_bt_OFFLINE,2022.2.4,60.329188053994905,
0,0,0,1,0,0,1,0,star,hexagon,1,0,1,0,3,3,39,11,,,,,,,,,,,,,,,,,,,,,,,,,,,,,,,,,,,,,,,,2264.2503034139518,2264.2503034139518,2264.2503034139518,2264.2503034139518,2264.2503034139518,2264.2503034139518,2264.2503034139518,2264.2503034139518,2264.2503034139518,2264.2503034139518,a,1.3133161289151758,10,412,1,2265.585059996927,2267.086898490088,,,,,,,,,,,,,,,,,,,,,,,,,,,,,,,,,,,,,,,,,,,,,,,,,,,,,,,,,,,,,,,,,,,,,,,13678,2022-12-02_14h59.49.142,vts_reward_expectancy_bt_OFFLINE,2022.2.4,60.329188053994905,
0,1,0,0,0,0,0,1,circle,star,1,0,1,0,3,4,40,5,,,,,,,,,,,,,,,,,,,,,,,,,,,,,,,,,,,,,,,,2267.5875032849144,2267.5875032849144,2267.5875032849144,2267.5875032849144,2267.5875032849144,2267.5875032849144,2267.5875032849144,2267.5875032849144,2267.5875032849144,2267.5875032849144,l,1.7789000389166176,1,413,1,2269.3894558029715,2270.891131507,,,,,,,,,,,,,,,,,,,,,,,,,,,,,,,,,,,,,,,,,,,,,,,,,,,,,,,,,,,,,,,,,,,,,,,13678,2022-12-02_14h59.49.142,vts_reward_expectancy_bt_OFFLINE,2022.2.4,60.329188053994905,
0,1,0,0,0,0,1,0,circle,hexagon,1,0,1,0,3,5,41,4,,,,,,,,,,,,,,,,,,,,,,,,,,,,,,,,,,,,,,,,2271.391608570004,2271.391608570004,2271.391608570004,2271.391608570004,2271.391608570004,2271.391608570004,2271.391608570004,2271.391608570004,2271.391608570004,2271.391608570004,a,1.0461431436706334,1,414,1,2272.4595140230376,2273.9609057989437,,,,,,,,,,,,,,,,,,,,,,,,,,,,,,,,,,,,,,,,,,,,,,,,,,,,,,,,,,,,,,,,,,,,,,,13678,2022-12-02_14h59.49.142,vts_reward_expectancy_bt_OFFLINE,2022.2.4,60.329188053994905,
0,0,1,0,1,0,0,0,hexagon,triangle,1,0,1,0,3,6,42,6,,,,,,,,,,,,,,,,,,,,,,,,,,,,,,,,,,,,,,,,2274.4614456370473,2274.4614456370473,2274.4614456370473,2274.4614456370473,2274.4614456370473,2274.4614456370473,2274.4614456370473,2274.4614456370473,2274.4614456370473,2274.4614456370473,l,3.2078749088104814,1,415,1,2277.6986182830296,2279.2000656479504,,,,,,,,,,,,,,,,,,,,,,,,,,,,,,,,,,,,,,,,,,,,,,,,,,,,,,,,,,,,,,,,,,,,,,,13678,2022-12-02_14h59.49.142,vts_reward_expectancy_bt_OFFLINE,2022.2.4,60.329188053994905,
1,0,0,0,0,0,0,1,triangle,star,1,0,1,0,3,7,43,2,,,,,,,,,,,,,,,,,,,,,,,,,,,,,,,,,,,,,,,,2279.7006794579793,2279.7006794579793,2279.7006794579793,2279.7006794579793,2279.7006794579793,2279.7006794579793,2279.7006794579793,2279.7006794579793,2279.7006794579793,2279.7006794579793,a,1.62597229401581,10,425,1,2281.3527697050013,2282.854178146925,,,,,,,,,,,,,,,,,,,,,,,,,,,,,,,,,,,,,,,,,,,,,,,,,,,,,,,,,,,,,,,,,,,,,,,13678,2022-12-02_14h59.49.142,vts_reward_expectancy_bt_OFFLINE,2022.2.4,60.329188053994905,
0,0,0,1,0,1,0,0,star ,circle,1,0,1,0,3,8,44,10,,,,,,,,,,,,,,,,,,,,,,,,,,,,,,,,,,,,,,,,2283.3550383499824,2283.3550383499824,2283.3550383499824,2283.3550383499824,2283.3550383499824,2283.3550383499824,2283.3550383499824,2283.3550383499824,2283.3550383499824,2283.3550383499824,a,0.7041977569460869,10,435,1,2284.089031470008,2285.590564835118,,,,,,,,,,,,,,,,,,,,,,,,,,,,,,,,,,,,,,,,,,,,,,,,,,,,,,,,,,,,,,,,,,,,,,,13678,2022-12-02_14h59.49.142,vts_reward_expectancy_bt_OFFLINE,2022.2.4,60.329188053994905,
0,1,0,0,1,0,0,0,circle,triangle,1,0,1,0,3,9,45,3,,,,,,,,,,,,,,,,,,,,,,,,,,,,,,,,,,,,,,,,2286.0911449990235,2286.0911449990235,2286.0911449990235,2286.0911449990235,2286.0911449990235,2286.0911449990235,2286.0911449990235,2286.0911449990235,2286.0911449990235,2286.0911449990235,l,1.4454798398073763,10,445,1,2287.559384417953,2289.0611223890446,,,,,,,,,,,,,,,,,,,,,,,,,,,,,,,,,,,,,,,,,,,,,,,,,,,,,,,,,,,,,,,,,,,,,,,13678,2022-12-02_14h59.49.142,vts_reward_expectancy_bt_OFFLINE,2022.2.4,60.329188053994905,
1,0,0,0,0,1,0,0,triangle,circle,1,0,1,0,3,10,46,0,,,,,,,,,,,,,,,,,,,,,,,,,,,,,,,,,,,,,,,,2289.561607908923,2289.561607908923,2289.561607908923,2289.561607908923,2289.561607908923,2289.561607908923,2289.561607908923,2289.561607908923,2289.561607908923,2289.561607908923,a,1.563798428978771,10,455,1,2291.14674633299,2292.6482839400414,,,,,,,,,,,,,,,,,,,,,,,,,,,,,,,,,,,,,,,,,,,,,,,,,,,,,,,,,,,,,,,,,,,,,,,13678,2022-12-02_14h59.49.142,vts_reward_expectancy_bt_OFFLINE,2022.2.4,60.329188053994905,
0,0,0,1,1,0,0,0,star,triangle,1,0,1,0,3,11,47,9,,,,,,,,,,,,,,,,,,,,,,,,,,,,,,,,,,,,,,,,2293.1488096870016,2293.1488096870016,2293.1488096870016,2293.1488096870016,2293.1488096870016,2293.1488096870016,2293.1488096870016,2293.1488096870016,2293.1488096870016,2293.1488096870016,a,2.1281169578433037,10,465,1,2295.3014820991084,2296.8029811589513,,,,,,,,,,,,,,,,,,,,,,,,,,,,,,,,,,,,,,,,,,,,,,,,,,,,,,,,,,,,,,,,,,,,,,,13678,2022-12-02_14h59.49.142,vts_reward_expectancy_bt_OFFLINE,2022.2.4,60.329188053994905,
0,1,0,0,0,0,1,0,circle,hexagon,2,0,2,0,0,0,0,4,,,,,,,,,,,,,,,,,,,,,,,,,,,,,,,,,,,,,,,,2301.0244155670516,2301.0244155670516,2301.0244155670516,2301.0244155670516,2301.0244155670516,2301.0244155670516,2301.0244155670516,2301.0244155670516,2301.0244155670516,2301.0244155670516,l,1.8598558988887817,10,475,2,2302.9096259819344,2304.411263498012,,,,,,,,,,,,,,,,,,,,,,,,,,,,,,,,,,,,,,,,,,,,,,,,,,,,,,,,,,,,,,,,,,,,,,,13678,2022-12-02_14h59.49.142,vts_reward_expectancy_bt_OFFLINE,2022.2.4,60.329188053994905,
1,0,0,0,0,0,0,1,triangle,star,2,0,2,0,0,1,1,2,,,,,,,,,,,,,,,,,,,,,,,,,,,,,,,,,,,,,,,,2304.9119190580677,2304.9119190580677,2304.9119190580677,2304.9119190580677,2304.9119190580677,2304.9119190580677,2304.9119190580677,2304.9119190580677,2304.9119190580677,2304.9119190580677,l,2.2695506329182535,10,485,2,2307.197944122134,2308.6993752799463,2308.6993752799463,,,,,,,,,,,,,,,,,,,,,,,,,,,,,,,,,,,,,,,,,,,,,,,,,,,,,,,,,,,,,,,,,,,,,,13678,2022-12-02_14h59.49.142,vts_reward_expectancy_bt_OFFLINE,2022.2.4,60.329188053994905,
1,0,0,0,0,0,1,0,triangle,hexagon,2,0,2,0,0,2,2,1,,,,,,,,,,,,,,,,,,,,,,,,,,,,,,,,,,,,,,,,2309.1999495020136,2309.1999495020136,2309.1999495020136,2309.1999495020136,2309.1999495020136,2309.1999495020136,2309.1999495020136,2309.1999495020136,2309.1999495020136,2309.1999495020136,l,2.3565455568023026,1,486,2,2311.5856511390302,2313.08769255504,2313.08769255504,,,,,,,,,,,,,,,,,,,,,,,,,,,,,,,,,,,,,,,,,,,,,,,,,,,,,,,,,,,,,,,,,,,,,,13678,2022-12-02_14h59.49.142,vts_reward_expectancy_bt_OFFLINE,2022.2.4,60.329188053994905,
0,0,0,1,0,1,0,0,star ,circle,2,0,2,0,0,3,3,10,,,,,,,,,,,,,,,,,,,,,,,,,,,,,,,,,,,,,,,,2313.588073092047,2313.588073092047,2313.588073092047,2313.588073092047,2313.588073092047,2313.588073092047,2313.588073092047,2313.588073092047,2313.588073092047,2313.588073092047,a,1.5803694839123636,1,487,2,2315.1897985020187,2316.6915036030114,,,,,,,,,,,,,,,,,,,,,,,,,,,,,,,,,,,,,,,,,,,,,,,,,,,,,,,,,,,,,,,,,,,,,,,13678,2022-12-02_14h59.49.142,vts_reward_expectancy_bt_OFFLINE,2022.2.4,60.329188053994905,
1,0,0,0,0,1,0,0,triangle,circle,2,0,2,0,0,4,4,0,,,,,,,,,,,,,,,,,,,,,,,,,,,,,,,,,,,,,,,,2317.192058444023,2317.192058444023,2317.192058444023,2317.192058444023,2317.192058444023,2317.192058444023,2317.192058444023,2317.192058444023,2317.192058444023,2317.192058444023,l,2.77104297792539,10,497,2,2319.9950716439635,2321.4969040919095,,,,,,,,,,,,,,,,,,,,,,,,,,,,,,,,,,,,,,,,,,,,,,,,,,,,,,,,,,,,,,,,,,,,,,,13678,2022-12-02_14h59.49.142,vts_reward_expectancy_bt_OFFLINE,2022.2.4,60.329188053994905,
0,0,1,0,1,0,0,0,hexagon,triangle,2,0,2,0,0,5,5,6,,,,,,,,,,,,,,,,,,,,,,,,,,,,,,,,,,,,,,,,2321.9974911499303,2321.9974911499303,2321.9974911499303,2321.9974911499303,2321.9974911499303,2321.9974911499303,2321.9974911499303,2321.9974911499303,2321.9974911499303,2321.9974911499303,l,3.1722651799209416,10,507,2,2325.201162650017,2326.702791837044,,,,,,,,,,,,,,,,,,,,,,,,,,,,,,,,,,,,,,,,,,,,,,,,,,,,,,,,,,,,,,,,,,,,,,,13678,2022-12-02_14h59.49.142,vts_reward_expectancy_bt_OFFLINE,2022.2.4,60.329188053994905,
0,0,0,1,1,0,0,0,star,triangle,2,0,2,0,0,6,6,9,,,,,,,,,,,,,,,,,,,,,,,,,,,,,,,,,,,,,,,,2327.2031358371023,2327.2031358371023,2327.2031358371023,2327.2031358371023,2327.2031358371023,2327.2031358371023,2327.2031358371023,2327.2031358371023,2327.2031358371023,2327.2031358371023,a,1.510669563896954,10,517,2,2328.738258291967,2330.2398761389777,,,,,,,,,,,,,,,,,,,,,,,,,,,,,,,,,,,,,,,,,,,,,,,,,,,,,,,,,,,,,,,,,,,,,,,13678,2022-12-02_14h59.49.142,vts_reward_expectancy_bt_OFFLINE,2022.2.4,60.329188053994905,
0,1,0,0,1,0,0,0,circle,triangle,2,0,2,0,0,7,7,3,,,,,,,,,,,,,,,,,,,,,,,,,,,,,,,,,,,,,,,,2330.740458233049,2330.740458233049,2330.740458233049,2330.740458233049,2330.740458233049,2330.740458233049,2330.740458233049,2330.740458233049,2330.740458233049,2330.740458233049,l,2.2036716418806463,10,527,2,2332.976078658132,2334.477772414917,,,,,,,,,,,,,,,,,,,,,,,,,,,,,,,,,,,,,,,,,,,,,,,,,,,,,,,,,,,,,,,,,,,,,,,13678,2022-12-02_14h59.49.142,vts_reward_expectancy_bt_OFFLINE,2022.2.4,60.329188053994905,
0,0,0,1,0,0,1,0,star,hexagon,2,0,2,0,0,8,8,11,,,,,,,,,,,,,,,,,,,,,,,,,,,,,,,,,,,,,,,,2334.9782392980997,2334.9782392980997,2334.9782392980997,2334.9782392980997,2334.9782392980997,2334.9782392980997,2334.9782392980997,2334.9782392980997,2334.9782392980997,2334.9782392980997,a,2.139957909937948,10,537,2,2337.1475644039456,2338.6490975790657,,,,,,,,,,,,,,,,,,,,,,,,,,,,,,,,,,,,,,,,,,,,,,,,,,,,,,,,,,,,,,,,,,,,,,,13678,2022-12-02_14h59.49.142,vts_reward_expectancy_bt_OFFLINE,2022.2.4,60.329188053994905,
0,0,1,0,0,1,0,0,hexagon,circle,2,0,2,0,0,9,9,7,,,,,,,,,,,,,,,,,,,,,,,,,,,,,,,,,,,,,,,,2339.149878619937,2339.149878619937,2339.149878619937,2339.149878619937,2339.149878619937,2339.149878619937,2339.149878619937,2339.149878619937,2339.149878619937,2339.149878619937,a,1.613626966951415,1,538,2,2340.784518267028,2342.286559154978,,,,,,,,,,,,,,,,,,,,,,,,,,,,,,,,,,,,,,,,,,,,,,,,,,,,,,,,,,,,,,,,,,,,,,,13678,2022-12-02_14h59.49.142,vts_reward_expectancy_bt_OFFLINE,2022.2.4,60.329188053994905,
0,1,0,0,0,0,0,1,circle,star,2,0,2,0,0,10,10,5,,,,,,,,,,,,,,,,,,,,,,,,,,,,,,,,,,,,,,,,2342.7868601470254,2342.7868601470254,2342.7868601470254,2342.7868601470254,2342.7868601470254,2342.7868601470254,2342.7868601470254,2342.7868601470254,2342.7868601470254,2342.7868601470254,l,1.3859419729560614,10,548,2,2344.205150723923,2345.707035927102,,,,,,,,,,,,,,,,,,,,,,,,,,,,,,,,,,,,,,,,,,,,,,,,,,,,,,,,,,,,,,,,,,,,,,,13678,2022-12-02_14h59.49.142,vts_reward_expectancy_bt_OFFLINE,2022.2.4,60.329188053994905,
0,0,1,0,0,0,0,1,hexagon,star,2,0,2,0,0,11,11,8,,,,,,,,,,,,,,,,,,,,,,,,,,,,,,,,,,,,,,,,2346.2073794549797,2346.2073794549797,2346.2073794549797,2346.2073794549797,2346.2073794549797,2346.2073794549797,2346.2073794549797,2346.2073794549797,2346.2073794549797,2346.2073794549797,l,5.177487754728645,1,549,2,2351.413559579989,2352.91498129908,,,,,,,,,,,,,,,,,,,,,,,,,,,,,,,,,,,,,,,,,,,,,,,,,,,,,,,,,,,,,,,,,,,,,,,13678,2022-12-02_14h59.49.142,vts_reward_expectancy_bt_OFFLINE,2022.2.4,60.329188053994905,
1,0,0,0,0,0,1,0,triangle,hexagon,2,0,2,0,1,0,12,1,,,,,,,,,,,,,,,,,,,,,,,,,,,,,,,,,,,,,,,,2353.4154440630227,2353.4154440630227,2353.4154440630227,2353.4154440630227,2353.4154440630227,2353.4154440630227,2353.4154440630227,2353.4154440630227,2353.4154440630227,2353.4154440630227,a,3.6288941018283367,1,550,2,2357.0693851020187,2358.571068563033,,,,,,,,,,,,,,,,,,,,,,,,,,,,,,,,,,,,,,,,,,,,,,,,,,,,,,,,,,,,,,,,,,,,,,,13678,2022-12-02_14h59.49.142,vts_reward_expectancy_bt_OFFLINE,2022.2.4,60.329188053994905,
0,1,0,0,0,0,1,0,circle,hexagon,2,0,2,0,1,1,13,4,,,,,,,,,,,,,,,,,,,,,,,,,,,,,,,,,,,,,,,,2359.071820304962,2359.071820304962,2359.071820304962,2359.071820304962,2359.071820304962,2359.071820304962,2359.071820304962,2359.071820304962,2359.071820304962,2359.071820304962,l,2.606773793930188,1,551,2,2361.7079437780194,2363.2096718579996,,,,,,,,,,,,,,,,,,,,,,,,,,,,,,,,,,,,,,,,,,,,,,,,,,,,,,,,,,,,,,,,,,,,,,,13678,2022-12-02_14h59.49.142,vts_reward_expectancy_bt_OFFLINE,2022.2.4,60.329188053994905,
0,0,0,1,0,1,0,0,star ,circle,2,0,2,0,1,2,14,10,,,,,,,,,,,,,,,,,,,,,,,,,,,,,,,,,,,,,,,,2363.7099689240567,2363.7099689240567,2363.7099689240567,2363.7099689240567,2363.7099689240567,2363.7099689240567,2363.7099689240567,2363.7099689240567,2363.7099689240567,2363.7099689240567,a,1.0636760080233216,1,552,2,2364.7946933070198,2366.2962199440226,,,,,,,,,,,,,,,,,,,,,,,,,,,,,,,,,,,,,,,,,,,,,,,,,,,,,,,,,,,,,,,,,,,,,,,13678,2022-12-02_14h59.49.142,vts_reward_expectancy_bt_OFFLINE,2022.2.4,60.329188053994905,
0,0,1,0,0,1,0,0,hexagon,circle,2,0,2,0,1,3,15,7,,,,,,,,,,,,,,,,,,,,,,,,,,,,,,,,,,,,,,,,2366.7966700650286,2366.7966700650286,2366.7966700650286,2366.7966700650286,2366.7966700650286,2366.7966700650286,2366.7966700650286,2366.7966700650286,2366.7966700650286,2366.7966700650286,a,3.6241145157255232,1,553,2,2370.4507891640533,2371.952689805068,,,,,,,,,,,,,,,,,,,,,,,,,,,,,,,,,,,,,,,,,,,,,,,,,,,,,,,,,,,,,,,,,,,,,,,13678,2022-12-02_14h59.49.142,vts_reward_expectancy_bt_OFFLINE,2022.2.4,60.329188053994905,
0,0,1,0,1,0,0,0,hexagon,triangle,2,0,2,0,1,4,16,6,,,,,,,,,,,,,,,,,,,,,,,,,,,,,,,,,,,,,,,,2372.4531183850486,2372.4531183850486,2372.4531183850486,2372.4531183850486,2372.4531183850486,2372.4531183850486,2372.4531183850486,2372.4531183850486,2372.4531183850486,2372.4531183850486,l,2.436318878782913,10,563,2,2374.9058879639488,2376.4072964729276,2376.4072964729276,,,,,,,,,,,,,,,,,,,,,,,,,,,,,,,,,,,,,,,,,,,,,,,,,,,,,,,,,,,,,,,,,,,,,,13678,2022-12-02_14h59.49.142,vts_reward_expectancy_bt_OFFLINE,2022.2.4,60.329188053994905,
0,0,0,1,0,0,1,0,star,hexagon,2,0,2,0,1,5,17,11,,,,,,,,,,,,,,,,,,,,,,,,,,,,,,,,,,,,,,,,2376.907952724956,2376.907952724956,2376.907952724956,2376.907952724956,2376.907952724956,2376.907952724956,2376.907952724956,2376.907952724956,2376.907952724956,2376.907952724956,a,1.4689812608994544,1,564,2,2378.409570988966,2379.911263834918,,,,,,,,,,,,,,,,,,,,,,,,,,,,,,,,,,,,,,,,,,,,,,,,,,,,,,,,,,,,,,,,,,,,,,,13678,2022-12-02_14h59.49.142,vts_reward_expectancy_bt_OFFLINE,2022.2.4,60.329188053994905,
1,0,0,0,0,0,0,1,triangle,star,2,0,2,0,1,6,18,2,,,,,,,,,,,,,,,,,,,,,,,,,,,,,,,,,,,,,,,,2380.4117104220204,2380.4117104220204,2380.4117104220204,2380.4117104220204,2380.4117104220204,2380.4117104220204,2380.4117104220204,2380.4117104220204,2380.4117104220204,2380.4117104220204,l,2.4206345297861844,10,574,2,2382.864595357096,2384.366133237956,,,,,,,,,,,,,,,,,,,,,,,,,,,,,,,,,,,,,,,,,,,,,,,,,,,,,,,,,,,,,,,,,,,,,,,13678,2022-12-02_14h59.49.142,vts_reward_expectancy_bt_OFFLINE,2022.2.4,60.329188053994905,
0,1,0,0,0,0,0,1,circle,star,2,0,2,0,1,7,19,5,,,,,,,,,,,,,,,,,,,,,,,,,,,,,,,,,,,,,,,,2384.866645479109,2384.866645479109,2384.866645479109,2384.866645479109,2384.866645479109,2384.866645479109,2384.866645479109,2384.866645479109,2384.866645479109,2384.866645479109,a,2.00362748792395,1,575,2,2386.9024259399157,2388.404038435081,,,,,,,,,,,,,,,,,,,,,,,,,,,,,,,,,,,,,,,,,,,,,,,,,,,,,,,,,,,,,,,,,,,,,,,13678,2022-12-02_14h59.49.142,vts_reward_expectancy_bt_OFFLINE,2022.2.4,60.329188053994905,
0,0,0,1,1,0,0,0,star,triangle,2,0,2,0,1,8,20,9,,,,,,,,,,,,,,,,,,,,,,,,,,,,,,,,,,,,,,,,2388.9044713689946,2388.9044713689946,2388.9044713689946,2388.9044713689946,2388.9044713689946,2388.9044713689946,2388.9044713689946,2388.9044713689946,2388.9044713689946,2388.9044713689946,a,1.3763583649415523,10,585,2,2390.30610124697,2391.8078784490936,,,,,,,,,,,,,,,,,,,,,,,,,,,,,,,,,,,,,,,,,,,,,,,,,,,,,,,,,,,,,,,,,,,,,,,13678,2022-12-02_14h59.49.142,vts_reward_expectancy_bt_OFFLINE,2022.2.4,60.329188053994905,
0,1,0,0,1,0,0,0,circle,triangle,2,0,2,0,1,9,21,3,,,,,,,,,,,,,,,,,,,,,,,,,,,,,,,,,,,,,,,,2392.3082071840763,2392.3082071840763,2392.3082071840763,2392.3082071840763,2392.3082071840763,2392.3082071840763,2392.3082071840763,2392.3082071840763,2392.3082071840763,2392.3082071840763,l,2.313689545961097,1,586,2,2394.6440169939306,2396.1457858479116,,,,,,,,,,,,,,,,,,,,,,,,,,,,,,,,,,,,,,,,,,,,,,,,,,,,,,,,,,,,,,,,,,,,,,,13678,2022-12-02_14h59.49.142,vts_reward_expectancy_bt_OFFLINE,2022.2.4,60.329188053994905,
1,0,0,0,0,1,0,0,triangle,circle,2,0,2,0,1,10,22,0,,,,,,,,,,,,,,,,,,,,,,,,,,,,,,,,,,,,,,,,2396.6464435430244,2396.6464435430244,2396.6464435430244,2396.6464435430244,2396.6464435430244,2396.6464435430244,2396.6464435430244,2396.6464435430244,2396.6464435430244,2396.6464435430244,a,3.4551280287560076,1,587,2,2400.1334573191125,2401.6353281980846,,,,,,,,,,,,,,,,,,,,,,,,,,,,,,,,,,,,,,,,,,,,,,,,,,,,,,,,,,,,,,,,,,,,,,,13678,2022-12-02_14h59.49.142,vts_reward_expectancy_bt_OFFLINE,2022.2.4,60.329188053994905,
0,0,1,0,0,0,0,1,hexagon,star,2,0,2,0,1,11,23,8,,,,,,,,,,,,,,,,,,,,,,,,,,,,,,,,,,,,,,,,2402.1357253179885,2402.1357253179885,2402.1357253179885,2402.1357253179885,2402.1357253179885,2402.1357253179885,2402.1357253179885,2402.1357253179885,2402.1357253179885,2402.1357253179885,l,1.8801885878201574,10,597,2,2404.0376670220867,2405.539502303116,,,,,,,,,,,,,,,,,,,,,,,,,,,,,,,,,,,,,,,,,,,,,,,,,,,,,,,,,,,,,,,,,,,,,,,13678,2022-12-02_14h59.49.142,vts_reward_expectancy_bt_OFFLINE,2022.2.4,60.329188053994905,
0,1,0,0,0,0,1,0,circle,hexagon,2,0,2,0,2,0,24,4,,,,,,,,,,,,,,,,,,,,,,,,,,,,,,,,,,,,,,,,2406.0400964489672,2406.0400964489672,2406.0400964489672,2406.0400964489672,2406.0400964489672,2406.0400964489672,2406.0400964489672,2406.0400964489672,2406.0400964489672,2406.0400964489672,l,1.531335067935288,10,607,2,2407.5917710999493,2409.093464466976,,,,,,,,,,,,,,,,,,,,,,,,,,,,,,,,,,,,,,,,,,,,,,,,,,,,,,,,,,,,,,,,,,,,,,,13678,2022-12-02_14h59.49.142,vts_reward_expectancy_bt_OFFLINE,2022.2.4,60.329188053994905,
1,0,0,0,0,1,0,0,triangle,circle,2,0,2,0,2,1,25,0,,,,,,,,,,,,,,,,,,,,,,,,,,,,,,,,,,,,,,,,2409.593939949991,2409.593939949991,2409.593939949991,2409.593939949991,2409.593939949991,2409.593939949991,2409.593939949991,2409.593939949991,2409.593939949991,2409.593939949991,l,2.004721177974716,1,608,2,2411.6296486370265,2413.1313511379994,2413.1313511379994,,,,,,,,,,,,,,,,,,,,,,,,,,,,,,,,,,,,,,,,,,,,,,,,,,,,,,,,,,,,,,,,,,,,,,13678,2022-12-02_14h59.49.142,vts_reward_expectancy_bt_OFFLINE,2022.2.4,60.329188053994905,
1,0,0,0,0,0,0,1,triangle,star,2,0,2,0,2,2,26,2,,,,,,,,,,,,,,,,,,,,,,,,,,,,,,,,,,,,,,,,2413.63182135392,2413.63182135392,2413.63182135392,2413.63182135392,2413.63182135392,2413.63182135392,2413.63182135392,2413.63182135392,2413.63182135392,2413.63182135392,l,1.2526478578802198,1,609,2,2414.9166648790706,2416.418331088964,,,,,,,,,,,,,,,,,,,,,,,,,,,,,,,,,,,,,,,,,,,,,,,,,,,,,,,,,,,,,,,,,,,,,,,13678,2022-12-02_14h59.49.142,vts_reward_expectancy_bt_OFFLINE,2022.2.4,60.329188053994905,
0,1,0,0,0,0,0,1,circle,star,2,0,2,0,2,3,27,5,,,,,,,,,,,,,,,,,,,,,,,,,,,,,,,,,,,,,,,,2416.9187918279786,2416.9187918279786,2416.9187918279786,2416.9187918279786,2416.9187918279786,2416.9187918279786,2416.9187918279786,2416.9187918279786,2416.9187918279786,2416.9187918279786,l,2.196383692789823,10,619,2,2419.1377616899554,2420.6396813190077,,,,,,,,,,,,,,,,,,,,,,,,,,,,,,,,,,,,,,,,,,,,,,,,,,,,,,,,,,,,,,,,,,,,,,,13678,2022-12-02_14h59.49.142,vts_reward_expectancy_bt_OFFLINE,2022.2.4,60.329188053994905,
0,0,1,0,0,0,0,1,hexagon,star,2,0,2,0,2,4,28,8,,,,,,,,,,,,,,,,,,,,,,,,,,,,,,,,,,,,,,,,2421.140036158962,2421.140036158962,2421.140036158962,2421.140036158962,2421.140036158962,2421.140036158962,2421.140036158962,2421.140036158962,2421.140036158962,2421.140036158962,a,2.3196187147405,1,620,2,2423.4761053849943,2424.977894192096,2424.977894192096,,,,,,,,,,,,,,,,,,,,,,,,,,,,,,,,,,,,,,,,,,,,,,,,,,,,,,,,,,,,,,,,,,,,,,13678,2022-12-02_14h59.49.142,vts_reward_expectancy_bt_OFFLINE,2022.2.4,60.329188053994905,
0,0,1,0,1,0,0,0,hexagon,triangle,2,0,2,0,2,5,29,6,,,,,,,,,,,,,,,,,,,,,,,,,,,,,,,,,,,,,,,,2425.4783553970046,2425.4783553970046,2425.4783553970046,2425.4783553970046,2425.4783553970046,2425.4783553970046,2425.4783553970046,2425.4783553970046,2425.4783553970046,2425.4783553970046,l,2.3690295927226543,10,630,2,2427.8643866549246,2429.3658597520553,2429.3658597520553,,,,,,,,,,,,,,,,,,,,,,,,,,,,,,,,,,,,,,,,,,,,,,,,,,,,,,,,,,,,,,,,,,,,,,13678,2022-12-02_14h59.49.142,vts_reward_expectancy_bt_OFFLINE,2022.2.4,60.329188053994905,
0,0,1,0,0,1,0,0,hexagon,circle,2,0,2,0,2,6,30,7,,,,,,,,,,,,,,,,,,,,,,,,,,,,,,,,,,,,,,,,2429.866619989043,2429.866619989043,2429.866619989043,2429.866619989043,2429.866619989043,2429.866619989043,2429.866619989043,2429.866619989043,2429.866619989043,2429.866619989043,a,5.325165501795709,1,631,2,2435.2224112290423,2436.7241145749576,,,,,,,,,,,,,,,,,,,,,,,,,,,,,,,,,,,,,,,,,,,,,,,,,,,,,,,,,,,,,,,,,,,,,,,13678,2022-12-02_14h59.49.142,vts_reward_expectancy_bt_OFFLINE,2022.2.4,60.329188053994905,
0,1,0,0,1,0,0,0,circle,triangle,2,0,2,0,2,7,31,3,,,,,,,,,,,,,,,,,,,,,,,,,,,,,,,,,,,,,,,,2437.2244732929394,2437.2244732929394,2437.2244732929394,2437.2244732929394,2437.2244732929394,2437.2244732929394,2437.2244732929394,2437.2244732929394,2437.2244732929394,2437.2244732929394,a,2.953726952895522,1,632,2,2440.1944129820913,2441.696108507924,2441.696108507924,,,,,,,,,,,,,,,,,,,,,,,,,,,,,,,,,,,,,,,,,,,,,,,,,,,,,,,,,,,,,,,,,,,,,,13678,2022-12-02_14h59.49.142,vts_reward_expectancy_bt_OFFLINE,2022.2.4,60.329188053994905,
1,0,0,0,0,0,1,0,triangle,hexagon,2,0,2,0,2,8,32,1,,,,,,,,,,,,,,,,,,,,,,,,,,,,,,,,,,,,,,,,2442.196764491964,2442.196764491964,2442.196764491964,2442.196764491964,2442.196764491964,2442.196764491964,2442.196764491964,2442.196764491964,2442.196764491964,2442.196764491964,l,1.6261239629238844,10,642,2,2443.8487700039987,2445.3502788001206,,,,,,,,,,,,,,,,,,,,,,,,,,,,,,,,,,,,,,,,,,,,,,,,,,,,,,,,,,,,,,,,,,,,,,,13678,2022-12-02_14h59.49.142,vts_reward_expectancy_bt_OFFLINE,2022.2.4,60.329188053994905,
0,0,0,1,0,0,1,0,star,hexagon,2,0,2,0,2,9,33,11,,,,,,,,,,,,,,,,,,,,,,,,,,,,,,,,,,,,,,,,2445.850678008981,2445.850678008981,2445.850678008981,2445.850678008981,2445.850678008981,2445.850678008981,2445.850678008981,2445.850678008981,2445.850678008981,2445.850678008981,a,0.9419265899341553,1,643,2,2446.8186608371325,2448.320027660113,,,,,,,,,,,,,,,,,,,,,,,,,,,,,,,,,,,,,,,,,,,,,,,,,,,,,,,,,,,,,,,,,,,,,,,13678,2022-12-02_14h59.49.142,vts_reward_expectancy_bt_OFFLINE,2022.2.4,60.329188053994905,
0,0,0,1,1,0,0,0,star,triangle,2,0,2,0,2,10,34,9,,,,,,,,,,,,,,,,,,,,,,,,,,,,,,,,,,,,,,,,2448.820750164101,2448.820750164101,2448.820750164101,2448.820750164101,2448.820750164101,2448.820750164101,2448.820750164101,2448.820750164101,2448.820750164101,2448.820750164101,a,1.019650860922411,10,653,2,2449.871879907092,2451.3736101780087,,,,,,,,,,,,,,,,,,,,,,,,,,,,,,,,,,,,,,,,,,,,,,,,,,,,,,,,,,,,,,,,,,,,,,,13678,2022-12-02_14h59.49.142,vts_reward_expectancy_bt_OFFLINE,2022.2.4,60.329188053994905,
0,0,0,1,0,1,0,0,star ,circle,2,0,2,0,2,11,35,10,,,,,,,,,,,,,,,,,,,,,,,,,,,,,,,,,,,,,,,,2451.8740472439677,2451.8740472439677,2451.8740472439677,2451.8740472439677,2451.8740472439677,2451.8740472439677,2451.8740472439677,2451.8740472439677,2451.8740472439677,2451.8740472439677,a,1.1616476678755134,10,663,2,2453.058853130089,2454.5604552589357,2454.5604552589357,,,,,,,,,,,,,,,,,,,,,,,,,,,,,,,,,,,,,,,,,,,,,,,,,,,,,,,,,,,,,,,,,,,,,,13678,2022-12-02_14h59.49.142,vts_reward_expectancy_bt_OFFLINE,2022.2.4,60.329188053994905,
0,0,1,0,0,0,0,1,hexagon,star,2,0,2,0,3,0,36,8,,,,,,,,,,,,,,,,,,,,,,,,,,,,,,,,,,,,,,,,2455.0607432271354,2455.0607432271354,2455.0607432271354,2455.0607432271354,2455.0607432271354,2455.0607432271354,2455.0607432271354,2455.0607432271354,2455.0607432271354,2455.0607432271354,a,2.0273410947993398,1,664,2,2457.1130419489928,2458.6147027169354,,,,,,,,,,,,,,,,,,,,,,,,,,,,,,,,,,,,,,,,,,,,,,,,,,,,,,,,,,,,,,,,,,,,,,,13678,2022-12-02_14h59.49.142,vts_reward_expectancy_bt_OFFLINE,2022.2.4,60.329188053994905,
0,0,1,0,0,1,0,0,hexagon,circle,2,0,2,0,3,1,37,7,,,,,,,,,,,,,,,,,,,,,,,,,,,,,,,,,,,,,,,,2459.1151136530098,2459.1151136530098,2459.1151136530098,2459.1151136530098,2459.1151136530098,2459.1151136530098,2459.1151136530098,2459.1151136530098,2459.1151136530098,2459.1151136530098,a,2.5516069738660008,10,674,2,2461.685168813914,2463.1867291941307,,,,,,,,,,,,,,,,,,,,,,,,,,,,,,,,,,,,,,,,,,,,,,,,,,,,,,,,,,,,,,,,,,,,,,,13678,2022-12-02_14h59.49.142,vts_reward_expectancy_bt_OFFLINE,2022.2.4,60.329188053994905,
0,1,0,0,0,0,0,1,circle,star,2,0,2,0,3,2,38,5,,,,,,,,,,,,,,,,,,,,,,,,,,,,,,,,,,,,,,,,2463.6870851269923,2463.6870851269923,2463.6870851269923,2463.6870851269923,2463.6870851269923,2463.6870851269923,2463.6870851269923,2463.6870851269923,2463.6870851269923,2463.6870851269923,l,1.8143971657846123,10,684,2,2465.522385277087,2467.0242191581056,,,,,,,,,,,,,,,,,,,,,,,,,,,,,,,,,,,,,,,,,,,,,,,,,,,,,,,,,,,,,,,,,,,,,,,13678,2022-12-02_14h59.49.142,vts_reward_expectancy_bt_OFFLINE,2022.2.4,60.329188053994905,
1,0,0,0,0,1,0,0,triangle,circle,2,0,2,0,3,3,39,0,,,,,,,,,,,,,,,,,,,,,,,,,,,,,,,,,,,,,,,,2467.524814119097,2467.524814119097,2467.524814119097,2467.524814119097,2467.524814119097,2467.524814119097,2467.524814119097,2467.524814119097,2467.524814119097,2467.524814119097,l,1.8261784699279815,10,694,2,2469.376659231959,2470.8785319330636,2470.8785319330636,,,,,,,,,,,,,,,,,,,,,,,,,,,,,,,,,,,,,,,,,,,,,,,,,,,,,,,,,,,,,,,,,,,,,,13678,2022-12-02_14h59.49.142,vts_reward_expectancy_bt_OFFLINE,2022.2.4,60.329188053994905,
0,0,0,1,0,0,1,0,star,hexagon,2,0,2,0,3,4,40,11,,,,,,,,,,,,,,,,,,,,,,,,,,,,,,,,,,,,,,,,2471.3787315620575,2471.3787315620575,2471.3787315620575,2471.3787315620575,2471.3787315620575,2471.3787315620575,2471.3787315620575,2471.3787315620575,2471.3787315620575,2471.3787315620575,a,2.0319150569848716,10,704,2,2473.431099714013,2474.93271949701,,,,,,,,,,,,,,,,,,,,,,,,,,,,,,,,,,,,,,,,,,,,,,,,,,,,,,,,,,,,,,,,,,,,,,,13678,2022-12-02_14h59.49.142,vts_reward_expectancy_bt_OFFLINE,2022.2.4,60.329188053994905,
0,0,0,1,0,1,0,0,star ,circle,2,0,2,0,3,5,41,10,,,,,,,,,,,,,,,,,,,,,,,,,,,,,,,,,,,,,,,,2475.4334391949233,2475.4334391949233,2475.4334391949233,2475.4334391949233,2475.4334391949233,2475.4334391949233,2475.4334391949233,2475.4334391949233,2475.4334391949233,2475.4334391949233,a,1.510124186752364,10,714,2,2476.968348463066,2478.46999587398,,,,,,,,,,,,,,,,,,,,,,,,,,,,,,,,,,,,,,,,,,,,,,,,,,,,,,,,,,,,,,,,,,,,,,,13678,2022-12-02_14h59.49.142,vts_reward_expectancy_bt_OFFLINE,2022.2.4,60.329188053994905,
0,1,0,0,0,0,1,0,circle,hexagon,2,0,2,0,3,6,42,4,,,,,,,,,,,,,,,,,,,,,,,,,,,,,,,,,,,,,,,,2478.9704143691342,2478.9704143691342,2478.9704143691342,2478.9704143691342,2478.9704143691342,2478.9704143691342,2478.9704143691342,2478.9704143691342,2478.9704143691342,2478.9704143691342,l,1.6527079169172794,10,724,2,2480.6557743691374,2482.1573505289853,,,,,,,,,,,,,,,,,,,,,,,,,,,,,,,,,,,,,,,,,,,,,,,,,,,,,,,,,,,,,,,,,,,,,,,13678,2022-12-02_14h59.49.142,vts_reward_expectancy_bt_OFFLINE,2022.2.4,60.329188053994905,
1,0,0,0,0,0,1,0,triangle,hexagon,2,0,2,0,3,7,43,1,,,,,,,,,,,,,,,,,,,,,,,,,,,,,,,,,,,,,,,,2482.658049932914,2482.658049932914,2482.658049932914,2482.658049932914,2482.658049932914,2482.658049932914,2482.658049932914,2482.658049932914,2482.658049932914,2482.658049932914,a,3.072323203785345,10,734,2,2485.7615075239446,2487.2630329369567,,,,,,,,,,,,,,,,,,,,,,,,,,,,,,,,,,,,,,,,,,,,,,,,,,,,,,,,,,,,,,,,,,,,,,,13678,2022-12-02_14h59.49.142,vts_reward_expectancy_bt_OFFLINE,2022.2.4,60.329188053994905,
0,0,1,0,1,0,0,0,hexagon,triangle,2,0,2,0,3,8,44,6,,,,,,,,,,,,,,,,,,,,,,,,,,,,,,,,,,,,,,,,2487.763485288946,2487.763485288946,2487.763485288946,2487.763485288946,2487.763485288946,2487.763485288946,2487.763485288946,2487.763485288946,2487.763485288946,2487.763485288946,l,1.8161295189056545,10,744,2,2489.5991955120116,2491.1007322981022,,,,,,,,,,,,,,,,,,,,,,,,,,,,,,,,,,,,,,,,,,,,,,,,,,,,,,,,,,,,,,,,,,,,,,,13678,2022-12-02_14h59.49.142,vts_reward_expectancy_bt_OFFLINE,2022.2.4,60.329188053994905,
1,0,0,0,0,0,0,1,triangle,star,2,0,2,0,3,9,45,2,,,,,,,,,,,,,,,,,,,,,,,,,,,,,,,,,,,,,,,,2491.601329230005,2491.601329230005,2491.601329230005,2491.601329230005,2491.601329230005,2491.601329230005,2491.601329230005,2491.601329230005,2491.601329230005,2491.601329230005,a,2.5451730298809707,1,745,2,2494.1709420739207,2495.672478212975,,,,,,,,,,,,,,,,,,,,,,,,,,,,,,,,,,,,,,,,,,,,,,,,,,,,,,,,,,,,,,,,,,,,,,,13678,2022-12-02_14h59.49.142,vts_reward_expectancy_bt_OFFLINE,2022.2.4,60.329188053994905,
0,1,0,0,1,0,0,0,circle,triangle,2,0,2,0,3,10,46,3,,,,,,,,,,,,,,,,,,,,,,,,,,,,,,,,,,,,,,,,2496.1729174379725,2496.1729174379725,2496.1729174379725,2496.1729174379725,2496.1729174379725,2496.1729174379725,2496.1729174379725,2496.1729174379725,2496.1729174379725,2496.1729174379725,a,2.6769162728451192,1,746,2,2498.8758195450064,2500.377457347,,,,,,,,,,,,,,,,,,,,,,,,,,,,,,,,,,,,,,,,,,,,,,,,,,,,,,,,,,,,,,,,,,,,,,,13678,2022-12-02_14h59.49.142,vts_reward_expectancy_bt_OFFLINE,2022.2.4,60.329188053994905,
0,0,0,1,1,0,0,0,star,triangle,2,0,2,0,3,11,47,9,,,,,,,,,,,,,,,,,,,,,,,,,,,,,,,,,,,,,,,,2500.8781328930054,2500.8781328930054,2500.8781328930054,2500.8781328930054,2500.8781328930054,2500.8781328930054,2500.8781328930054,2500.8781328930054,2500.8781328930054,2500.8781328930054,a,2.370588804828003,1,747,2,2503.280696270056,2504.782367558917,,,,,,,,,,,,,,,,,,,,,,,,,,,,,,,,,,,,,,,,,,,,,,,,,,,,,,,,,,,,,,,,,,,,,,,13678,2022-12-02_14h59.49.142,vts_reward_expectancy_bt_OFFLINE,2022.2.4,60.329188053994905,
,,,,,,,,,,,,,,,,,,0,0,0,0,0,0,0,0,,,,,,,,,,,,,,,,,,,,,,,,,,,,,,,,,,,,,,,,,,,,,,,,2537.568503635004,,F,160,circle,0.00175106106325984,2532.4974095430225,2533.9980811369605,2533.9980811369605,2533.9980811369605,1,0,d,2.0363753780256957,0,2536.0674065239727,,,,,,,,,,,,,,,,,,,,,,,,,,,,,,,,,,,,,,,,,,,,,,,,,,,,,,,,13678,2022-12-02_14h59.49.142,vts_reward_expectancy_bt_OFFLINE,2022.2.4,60.329188053994905,
,,,,,,,,,,,,,,,,,,0,0,0,0,1,0,1,0,,,,,,,,,,,,,,,,,,,,,,,,,,,,,,,,,,,,,,,,,,,,,,,,2542.607436954044,,U,174,star,0.0013438190799206495,2538.5540799379814,2540.0547541580163,2540.0547541580163,2540.0547541580163,1,0,f,1.0186376937199384,0,2541.1059730679262,,,,,,,,,,,,,,,,,,,,,,,,,,,,,,,,,,,,,,,,,,,,,,,,,,,,,,,,13678,2022-12-02_14h59.49.142,vts_reward_expectancy_bt_OFFLINE,2022.2.4,60.329188053994905,
,,,,,,,,,,,,,,,,,,0,0,0,0,2,0,2,0,,,,,,,,,,,,,,,,,,,,,,,,,,,,,,,,,,,,,,,,,,,,,,,,2547.4293395041022,,Y,146,hexagon,0.0013821139000356197,2543.5919214270543,2545.0933926729485,2545.0933926729485,2545.0933926729485,1,0,f,0.8080921357031912,0,2545.9278443979565,,,,,,,,,,,,,,,,,,,,,,,,,,,,,,,,,,,,,,,,,,,,,,,,,,,,,,,,13678,2022-12-02_14h59.49.142,vts_reward_expectancy_bt_OFFLINE,2022.2.4,60.329188053994905,
,,,,,,,,,,,,,,,,,,0,0,0,0,3,0,3,0,,,,,,,,,,,,,,,,,,,,,,,,,,,,,,,,,,,,,,,,,,,,,,,,2552.184543686919,,D,132,triangle,0.001392717007547617,2548.414917570073,2549.915386962006,2549.915386962006,2549.915386962006,1,0,d,0.7437983427662402,0,2550.682890064083,,,,,,,,,,,,,,,,,,,,,,,,,,,,,,,,,,,,,,,,,,,,,,,,,,,,,,,,13678,2022-12-02_14h59.49.142,vts_reward_expectancy_bt_OFFLINE,2022.2.4,60.329188053994905,
,,,,,,,,,,,,,,,,,,0,0,0,0,4,0,4,0,,,,,,,,,,,,,,,,,,,,,,,,,,,,,,,,,,,,,,,,,,,,,,,,2557.457284233067,,S,139,hexagon,0.0012945649214088917,2553.1691782670096,2554.670816084137,2554.670816084137,2554.670816084137,1,0,f,1.2658944018185139,0,2555.955773161957,,,,,,,,,,,,,,,,,,,,,,,,,,,,,,,,,,,,,,,,,,,,,,,,,,,,,,,,13678,2022-12-02_14h59.49.142,vts_reward_expectancy_bt_OFFLINE,2022.2.4,60.329188053994905,
,,,,,,,,,,,,,,,,,,0,0,0,0,5,0,5,0,,,,,,,,,,,,,,,,,,,,,,,,,,,,,,,,,,,,,,,,,,,,,,,,2562.3958942340687,,B,167,triangle,0.0011217049323022366,2558.4415295231156,2559.94337454997,2559.94337454997,2559.94337454997,1,0,d,0.9319796836934984,0,2560.8942553671077,,,,,,,,,,,,,,,,,,,,,,,,,,,,,,,,,,,,,,,,,,,,,,,,,,,,,,,,13678,2022-12-02_14h59.49.142,vts_reward_expectancy_bt_OFFLINE,2022.2.4,60.329188053994905,
,,,,,,,,,,,,,,,,,,0,0,0,0,6,0,6,0,,,,,,,,,,,,,,,,,,,,,,,,,,,,,,,,,,,,,,,,,,,,,,,,2566.9678037289996,,W,181,circle,0.0012367288582026958,2563.3814803329296,2564.882092670072,2564.882092670072,2564.882092670072,1,0,f,0.561098757898435,0,2565.466110920068,2566.9678037289996,,,,,,,,,,,,,,,,,,,,,,,,,,,,,,,,,,,,,,,,,,,,,,,,,,,,,,,13678,2022-12-02_14h59.49.142,vts_reward_expectancy_bt_OFFLINE,2022.2.4,60.329188053994905,
,,,,,,,,,,,,,,,,,,0,0,0,0,7,0,7,0,,,,,,,,,,,,,,,,,,,,,,,,,,,,,,,,,,,,,,,,,,,,,,,,2571.589339855127,,H,125,star,0.0009661808144301176,2567.9521837579086,2569.453797398135,2569.453797398135,2569.453797398135,1,0,d,0.6126860587392002,0,2570.087870823918,,,,,,,,,,,,,,,,,,,,,,,,,,,,,,,,,,,,,,,,,,,,,,,,,,,,,,,,13678,2022-12-02_14h59.49.142,vts_reward_expectancy_bt_OFFLINE,2022.2.4,60.329188053994905,
,,,,,,,,,,,,,,,,,,0,0,0,0,8,0,8,0,,,,,,,,,,,,,,,,,,,,,,,,,,,,,,,,,,,,,,,,,,,,,,,,2576.211034730077,,F,160,circle,0.0011926749721169472,2572.573777425103,2574.0755013320595,2574.0755013320595,2574.0755013320595,0,0,f,0.604188023833558,0,2574.7112302801106,,,,,,,,,,,,,,,,,,,,,,,,,,,,,,,,,,,,,,,,,,,,,,,,,,,,,,,,13678,2022-12-02_14h59.49.142,vts_reward_expectancy_bt_OFFLINE,2022.2.4,60.329188053994905,
,,,,,,,,,,,,,,,,,,0,0,0,0,9,0,9,0,,,,,,,,,,,,,,,,,,,,,,,,,,,,,,,,,,,,,,,,,,,,,,,,2581.1165716270916,,U,174,triangle,0.001564352074638009,2577.195558618987,2578.6972107440233,2578.6972107440233,2578.6972107440233,1,1,f,0.9010271539445966,0,2579.6160085350275,2581.1165716270916,,,,,,,,,,,,,,,,,,,,,,,,,,,,,,,,,,,,,,,,,,,,,,,,,,,,,,,13678,2022-12-02_14h59.49.142,vts_reward_expectancy_bt_OFFLINE,2022.2.4,60.329188053994905,
,,,,,,,,,,,,,,,,,,,,,,,,,,0,0,0,0,0,0,0,0,,,,,,,,,,,,,,,,,,,,,,,,,,,,,,,,,,,,,,,,2601.4723542451393,,F,139,hexagon,0.0019264400471001863,,,,,1,0,,,1,2599.9707600050606,,2597.000924238935,2598.50237405207,2598.50237405207,2598.50237405207,j,1.4472842358518392,,,,,,,,,,,,,,,,,,,,,,,,,,,,,,,,,,,,,,,,,,,,,,,,,13678,2022-12-02_14h59.49.142,vts_reward_expectancy_bt_OFFLINE,2022.2.4,60.329188053994905,
,,,,,,,,,,,,,,,,,,,,,,,,,,0,0,0,0,1,0,1,0,,,,,,,,,,,,,,,,,,,,,,,,,,,,,,,,,,,,,,,,2606.5612710649148,,Y,160,star,0.0013374409172683954,,,,,1,0,,,1,2605.0595699830446,,2602.4569494090974,2603.9586390471086,2603.9586390471086,2603.9586390471086,k,1.0755787268280983,,,,,,,,,,,,,,,,,,,,,,,,,,,,,,,,,,,,,,,,,,,,,,,,,13678,2022-12-02_14h59.49.142,vts_reward_expectancy_bt_OFFLINE,2022.2.4,60.329188053994905,
,,,,,,,,,,,,,,,,,,,,,,,,,,0,0,0,0,2,0,2,0,,,,,,,,,,,,,,,,,,,,,,,,,,,,,,,,,,,,,,,,2611.2332840519957,,B,167,triangle,0.0014343089424073696,,,,,1,0,,,1,2609.731668949127,,2607.545871549053,2609.0475884049665,2609.0475884049665,2609.0475884049665,k,0.6562626699451357,,,,,,,,,,,,,,,,,,,,,,,,,,,,,,,,,,,,,,,,,,,,,,,,,13678,2022-12-02_14h59.49.142,vts_reward_expectancy_bt_OFFLINE,2022.2.4,60.329188053994905,
,,,,,,,,,,,,,,,,,,,,,,,,,,0,0,0,0,3,0,3,0,,,,,,,,,,,,,,,,,,,,,,,,,,,,,,,,,,,,,,,,2615.854893967975,,H,174,circle,0.001348947174847126,,,,,1,0,,,1,2614.353391712997,,2612.2175262919627,2613.7191979880445,2613.7191979880445,2613.7191979880445,k,0.6076703849248588,,,,,,,,,,,,,,,,,,,,,,,,,,,,,,,,,,,,,,,,,,,,,,,,,13678,2022-12-02_14h59.49.142,vts_reward_expectancy_bt_OFFLINE,2022.2.4,60.329188053994905,
,,,,,,,,,,,,,,,,,,,,,,,,,,0,0,0,0,4,0,4,0,,,,,,,,,,,,,,,,,,,,,,,,,,,,,,,,,,,,,,,,2620.3760933890007,,D,132,star,0.0011424811091274023,,,,,1,0,,,1,2618.8748412090354,2620.3760933890007,2616.8391783169936,2618.3409398391377,2618.3409398391377,2618.3409398391377,j,0.5096320789307356,,,,,,,,,,,,,,,,,,,,,,,,,,,,,,,,,,,,,,,,,,,,,,,,,13678,2022-12-02_14h59.49.142,vts_reward_expectancy_bt_OFFLINE,2022.2.4,60.329188053994905,
,,,,,,,,,,,,,,,,,,,,,,,,,,0,0,0,0,5,0,5,0,,,,,,,,,,,,,,,,,,,,,,,,,,,,,,,,,,,,,,,,2625.081575142918,,W,125,hexagon,0.001180768944323063,,,,,1,0,,,1,2623.580214746995,,2621.360975736985,2622.8625133179594,2622.8625133179594,2622.8625133179594,j,0.6907047787681222,,,,,,,,,,,,,,,,,,,,,,,,,,,,,,,,,,,,,,,,,,,,,,,,,13678,2022-12-02_14h59.49.142,vts_reward_expectancy_bt_OFFLINE,2022.2.4,60.329188053994905,
,,,,,,,,,,,,,,,,,,,,,,,,,,0,0,0,0,6,0,6,0,,,,,,,,,,,,,,,,,,,,,,,,,,,,,,,,,,,,,,,,2630.13731565699,,S,146,circle,0.001169250113889575,,,,,1,0,,,1,2628.635589133948,,2626.0661549831275,2627.5679593589157,2627.5679593589157,2627.5679593589157,j,1.0371762828435749,,,,,,,,,,,,,,,,,,,,,,,,,,,,,,,,,,,,,,,,,,,,,,,,,13678,2022-12-02_14h59.49.142,vts_reward_expectancy_bt_OFFLINE,2022.2.4,60.329188053994905,
,,,,,,,,,,,,,,,,,,,,,,,,,,0,0,0,0,7,0,7,0,,,,,,,,,,,,,,,,,,,,,,,,,,,,,,,,,,,,,,,,2634.7090044489596,,U,181,triangle,0.0013200549874454737,,,,,1,0,,,1,2633.207580160117,2634.7090044489596,2631.121702895034,2632.623383949045,2632.623383949045,2632.623383949045,k,0.5606538637075573,2635.2094564249273,,,,,,,,,,,,,,,,,,,,,,,,,,,,,,,,,,,,,,,,,,,,,,,,13678,2022-12-02_14h59.49.142,vts_reward_expectancy_bt_OFFLINE,2022.2.4,60.329188053994905,
,,,,,,,,,,,,,,,,,,,,,,,,,,0,0,0,0,8,0,8,0,,,,,,,,,,,,,,,,,,,,,,,,,,,,,,,,,,,,,,,,2639.7144486599136,,F,139,star,0.0005459110252559185,,,,,1,0,,,1,2638.2129759979434,,2635.6933829290792,2637.195086060092,2637.195086060092,2637.195086060092,j,0.9953447678126395,,,,,,,,,,,,,,,,,,,,,,,,,,,,,,,,,,,,,,,,,,,,,,,,,13678,2022-12-02_14h59.49.142,vts_reward_expectancy_bt_OFFLINE,2022.2.4,60.329188053994905,
,,,,,,,,,,,,,,,,,,,,,,,,,,0,0,0,0,9,0,9,0,,,,,,,,,,,,,,,,,,,,,,,,,,,,,,,,,,,,,,,,2644.203084710054,,Y,160,circle,0.0014083951245993376,,,,,1,0,,,1,2642.7013640450314,,2640.698981334921,2642.200799379032,2642.200799379032,2642.200799379032,k,0.46818829188123345,,,,,,,,,,,,,,,,,,,,,,,,,,,,,,,,,,,,,,,,,,,,,,,,,13678,2022-12-02_14h59.49.142,vts_reward_expectancy_bt_OFFLINE,2022.2.4,60.329188053994905,
,,,,,,,,,,,,,,,,,,,,,,,,,,,,,,,,,,0,0,0,0,0,0,0,0,,,,,,,,,,,,,,,,,,,,,,,,,,,,0,747,,,2692.873258477077,,H,181,hexagon,0.0019120881333947182,,,,,1,0,,,2,,,,,,,,,,2687.819627528079,2687.819627528079,2687.819627528079,2687.819627528079,2689.3192731221206,2689.3192731221206,2689.3192731221206,2689.3192731221206,2689.3192731221206,2689.3192731221206,2689.3192731221206,2689.3192731221206,-1,number,NA,k,2.020118033979088,vtsPrac,2691.372472441988,2692.873258477077,,,,,,,,,,,,,,,,,,,,,,,,,,,,13678,2022-12-02_14h59.49.142,vts_reward_expectancy_bt_OFFLINE,2022.2.4,60.329188053994905,
,,,,,,,,,,,,,,,,,,,,,,,,,,,,,,,,,,0,0,0,0,1,0,1,0,,,,,,,,,,,,,,,,,,,,,,,,,,,,0,747,,,2698.462687097024,,B,167,circle,0.0008994417730718851,,,,,1,0,,,2,,,,,,,,,,2693.858934243908,2693.858934243908,2693.858934243908,2693.858934243908,2695.359194509918,2695.359194509918,2695.359194509918,2695.359194509918,2695.359194509918,2695.359194509918,2695.359194509918,2695.359194509918,switch,letter,lettSwt,d,1.5718647397588938,vtsPrac,2696.9611732230987,,,,,,,,,,,,,,,,,,,,,,,,,,,,,13678,2022-12-02_14h59.49.142,vts_reward_expectancy_bt_OFFLINE,2022.2.4,60.329188053994905,
,,,,,,,,,,,,,,,,,,,,,,,,,,,,,,,,,,0,0,0,0,2,0,2,0,,,,,,,,,,,,,,,,,,,,,,,,,,,,0,747,,,2704.2356570390984,,Y,160,star,0.0011962170246988535,,,,,1,0,,,2,,,,,,,,,,2699.4469711480197,2699.4469711480197,2699.4469711480197,2699.4469711480197,2700.9489524569362,2700.9489524569362,2700.9489524569362,2700.9489524569362,2700.9489524569362,2700.9489524569362,2700.9489524569362,2700.9489524569362,switch,number,numSwt,k,1.7646307947579771,vtsPrac,2702.73406250705,,,,,,,,,,,,,,,,,,,,,,,,,,,,,13678,2022-12-02_14h59.49.142,vts_reward_expectancy_bt_OFFLINE,2022.2.4,60.329188053994905,
,,,,,,,,,,,,,,,,,,,,,,,,,,,,,,,,,,0,0,0,0,3,0,3,0,,,,,,,,,,,,,,,,,,,,,,,,,,,,0,747,,,2709.5249081049114,,D,132,circle,0.0009892310481518507,,,,,1,0,,,2,,,,,,,,,,2705.220942319138,2705.220942319138,2705.220942319138,2705.220942319138,2706.7219407800585,2706.7219407800585,2706.7219407800585,2706.7219407800585,2706.7219407800585,2706.7219407800585,2706.7219407800585,2706.7219407800585,switch,letter,lettSwt,d,1.2799142887815833,vtsPrac,2708.0233345830347,,,,,,,,,,,,,,,,,,,,,,,,,,,,,13678,2022-12-02_14h59.49.142,vts_reward_expectancy_bt_OFFLINE,2022.2.4,60.329188053994905,
,,,,,,,,,,,,,,,,,,,,,,,,,,,,,,,,,,0,0,0,0,4,0,4,0,,,,,,,,,,,,,,,,,,,,,,,,,,,,0,747,,,2716.0987436180003,,H,181,star,0.0014573568478226662,,,,,1,0,,,2,,,,,,,,,,2710.50939147803,2710.50939147803,2710.50939147803,2710.50939147803,2712.0109415899497,2712.0109415899497,2712.0109415899497,2712.0109415899497,2712.0109415899497,2712.0109415899497,2712.0109415899497,2712.0109415899497,switch,number,numSwt,k,2.5610795677639544,vtsPrac,2714.5971259539947,,,,,,,,,,,,,,,,,,,,,,,,,,,,,13678,2022-12-02_14h59.49.142,vts_reward_expectancy_bt_OFFLINE,2022.2.4,60.329188053994905,
,,,,,,,,,,,,,,,,,,,,,,,,,,,,,,,,,,0,0,0,0,5,0,5,0,,,,,,,,,,,,,,,,,,,,,,,,,,,,0,747,,,2722.4557865229435,,B,167,triangle,0.0010517199989408255,,,,,1,0,,,2,,,,,,,,,,2717.083461702103,2717.083461702103,2717.083461702103,2717.083461702103,2718.584936338011,2718.584936338011,2718.584936338011,2718.584936338011,2718.584936338011,2718.584936338011,2718.584936338011,2718.584936338011,repeat,number,numRpt,k,2.343565493822098,vtsPrac,2720.9542952240445,,,,,,,,,,,,,,,,,,,,,,,,,,,,,13678,2022-12-02_14h59.49.142,vts_reward_expectancy_bt_OFFLINE,2022.2.4,60.329188053994905,
,,,,,,,,,,,,,,,,,,,,,,,,,,,,,,,,,,0,0,0,0,6,0,6,0,,,,,,,,,,,,,,,,,,,,,,,,,,,,0,747,,,2727.9119213379454,,Y,160,circle,0.001011410029605031,,,,,1,0,,,2,,,,,,,,,,2723.440179022029,2723.440179022029,2723.440179022029,2723.440179022029,2724.941869052127,2724.941869052127,2724.941869052127,2724.941869052127,2724.941869052127,2724.941869052127,2724.941869052127,2724.941869052127,repeat,number,numRpt,k,1.443943734979257,vtsPrac,2726.410086875083,,,,,,,,,,,,,,,,,,,,,,,,,,,,,13678,2022-12-02_14h59.49.142,vts_reward_expectancy_bt_OFFLINE,2022.2.4,60.329188053994905,
,,,,,,,,,,,,,,,,,,,,,,,,,,,,,,,,,,0,0,0,0,7,0,7,0,,,,,,,,,,,,,,,,,,,,,,,,,,,,0,747,,,2733.284482568968,,D,132,hexagon,0.001206815941259265,,,,,1,0,,,2,,,,,,,,,,2728.8963487639558,2728.8963487639558,2728.8963487639558,2728.8963487639558,2730.3979198730085,2730.3979198730085,2730.3979198730085,2730.3979198730085,2730.3979198730085,2730.3979198730085,2730.3979198730085,2730.3979198730085,switch,letter,lettSwt,d,1.3538973040413111,vtsPrac,2731.783062823117,2733.284482568968,,,,,,,,,,,,,,,,,,,,,,,,,,,,13678,2022-12-02_14h59.49.142,vts_reward_expectancy_bt_OFFLINE,2022.2.4,60.329188053994905,
,,,,,,,,,,,,,,,,,,,,,,,,,,,,,,,,,,0,0,0,0,8,0,8,0,,,,,,,,,,,,,,,,,,,,,,,,,,,,0,747,,,2739.007550252136,,W,181,hexagon,0.001081822905689478,,,,,1,0,,,2,,,,,,,,,,2734.269090223126,2734.269090223126,2734.269090223126,2734.269090223126,2735.7704666820355,2735.7704666820355,2735.7704666820355,2735.7704666820355,2735.7704666820355,2735.7704666820355,2735.7704666820355,2735.7704666820355,repeat,letter,lettRpt,f,1.7084996218327433,vtsPrac,2737.505702340044,,,,,,,,,,,,,,,,,,,,,,,,,,,,,13678,2022-12-02_14h59.49.142,vts_reward_expectancy_bt_OFFLINE,2022.2.4,60.329188053994905,
,,,,,,,,,,,,,,,,,,,,,,,,,,,,,,,,,,0,0,0,0,9,0,9,0,,,,,,,,,,,,,,,,,,,,,,,,,,,,0,747,,,2744.7637328780256,,U,160,circle,0.0011677020229399204,,,,,1,0,,,2,,,,,,,,,,2739.9920105419587,2739.9920105419587,2739.9920105419587,2739.9920105419587,2741.4936083629727,2741.4936083629727,2741.4936083629727,2741.4936083629727,2741.4936083629727,2741.4936083629727,2741.4936083629727,2741.4936083629727,switch,number,numSwt,k,1.7462182978633791,vtsPrac,2743.262127982918,,,,,,,,,,,,,,,,,,,,,,,,,,,,,13678,2022-12-02_14h59.49.142,vts_reward_expectancy_bt_OFFLINE,2022.2.4,60.329188053994905,
,,,,,,,,,,,,,,,,,,,,,,,,,,,,,,,,,,0,0,0,0,10,0,10,0,,,,,,,,,,,,,,,,,,,,,,,,,,,,0,747,,,2749.9361241599545,,Y,167,star,0.0015226430259644985,,,,,1,0,,,2,,,,,,,,,,2745.748219178058,2745.748219178058,2745.748219178058,2745.748219178058,2747.249993584119,2747.249993584119,2747.249993584119,2747.249993584119,2747.249993584119,2747.249993584119,2747.249993584119,2747.249993584119,switch,letter,lettSwt,f,1.165865966817364,vtsPrac,2748.4345685229637,2749.9361241599545,,,,,,,,,,,,,,,,,,,,,,,,,,,,13678,2022-12-02_14h59.49.142,vts_reward_expectancy_bt_OFFLINE,2022.2.4,60.329188053994905,
,,,,,,,,,,,,,,,,,,,,,,,,,,,,,,,,,,0,0,0,0,11,0,11,0,,,,,,,,,,,,,,,,,,,,,,,,,,,,0,747,,,2754.9083004570566,,B,174,circle,0.0010081799700856209,,,,,1,0,,,2,,,,,,,,,,2750.9205057621,2750.9205057621,2750.9205057621,2750.9205057621,2752.4221028499305,2752.4221028499305,2752.4221028499305,2752.4221028499305,2752.4221028499305,2752.4221028499305,2752.4221028499305,2752.4221028499305,repeat,letter,lettRpt,d,0.953501587966457,vtsPrac,2753.406671524048,,,,,,,,,,,,,,,,,,,,,,,,,,,,,13678,2022-12-02_14h59.49.142,vts_reward_expectancy_bt_OFFLINE,2022.2.4,60.329188053994905,
,,,,,,,,,,,,,,,,,,,,,,,,,,,,,,,,,,0,0,0,0,12,0,12,0,,,,,,,,,,,,,,,,,,,,,,,,,,,,0,747,,,2760.531359842047,,D,181,star,0.00118161179125309,,,,,1,0,,,2,,,,,,,,,,2755.892699459102,2755.892699459102,2755.892699459102,2755.892699459102,2757.394302157918,2757.394302157918,2757.394302157918,2757.394302157918,2757.394302157918,2757.394302157918,2757.394302157918,2757.394302157918,repeat,letter,lettRpt,d,1.6084750099107623,vtsPrac,2759.0296265380457,,,,,,,,,,,,,,,,,,,,,,,,,,,,,13678,2022-12-02_14h59.49.142,vts_reward_expectancy_bt_OFFLINE,2022.2.4,60.329188053994905,
,,,,,,,,,,,,,,,,,,,,,,,,,,,,,,,,,,0,0,0,0,13,0,13,0,,,,,,,,,,,,,,,,,,,,,,,,,,,,0,747,,,2766.6547992001288,,W,160,circle,0.0013649999164044857,,,,,1,0,,,2,,,,,,,,,,2761.515660953941,2761.515660953941,2761.515660953941,2761.515660953941,2763.0171996480785,2763.0171996480785,2763.0171996480785,2763.0171996480785,2763.0171996480785,2763.0171996480785,2763.0171996480785,2763.0171996480785,repeat,letter,lettRpt,f,2.117208333918825,vtsPrac,2765.153053099988,,,,,,,,,,,,,,,,,,,,,,,,,,,,,13678,2022-12-02_14h59.49.142,vts_reward_expectancy_bt_OFFLINE,2022.2.4,60.329188053994905,
,,,,,,,,,,,,,,,,,,,,,,,,,,,,,,,,,,0,0,0,0,14,0,14,0,,,,,,,,,,,,,,,,,,,,,,,,,,,,0,747,,,2772.0273170040455,,Y,146,triangle,0.0011567350011318922,,,,,1,0,,,2,,,,,,,,,,2767.639016803121,2767.639016803121,2767.639016803121,2767.639016803121,2769.1406243599486,2769.1406243599486,2769.1406243599486,2769.1406243599486,2769.1406243599486,2769.1406243599486,2769.1406243599486,2769.1406243599486,repeat,letter,lettRpt,f,1.359448348870501,vtsPrac,2770.5254374169745,,,,,,,,,,,,,,,,,,,,,,,,,,,,,13678,2022-12-02_14h59.49.142,vts_reward_expectancy_bt_OFFLINE,2022.2.4,60.329188053994905,
,,,,,,,,,,,,,,,,,,,,,,,,,,,,,,,,,,0,0,0,0,15,0,15,0,,,,,,,,,,,,,,,,,,,,,,,,,,,,0,747,,,2778.434138207929,,H,174,star,0.0011431940365582705,,,,,1,0,,,2,,,,,,,,,,2773.0117376139387,2773.0117376139387,2773.0117376139387,2773.0117376139387,2774.513364743907,2774.513364743907,2774.513364743907,2774.513364743907,2774.513364743907,2774.513364743907,2774.513364743907,2774.513364743907,switch,number,numSwt,k,2.388150335755199,vtsPrac,2776.9326025489718,,,,,,,,,,,,,,,,,,,,,,,,,,,,,13678,2022-12-02_14h59.49.142,vts_reward_expectancy_bt_OFFLINE,2022.2.4,60.329188053994905,
,,,,,,,,,,,,,,,,,,,,,,,,,,,,,,,,,,0,0,0,0,16,0,16,0,,,,,,,,,,,,,,,,,,,,,,,,,,,,0,747,,,2784.7913659389596,,F,174,star,0.0012327390722930431,,,,,1,0,,,2,,,,,,,,,,2779.4185487870127,2779.4185487870127,2779.4185487870127,2779.4185487870127,2780.920334303053,2780.920334303053,2780.920334303053,2780.920334303053,2780.920334303053,2780.920334303053,2780.920334303053,2780.920334303053,repeat,number,numRpt,k,2.338276132941246,vtsPrac,2783.2897148500197,,,,,,,,,,,,,,,,,,,,,,,,,,,,,13678,2022-12-02_14h59.49.142,vts_reward_expectancy_bt_OFFLINE,2022.2.4,60.329188053994905,
,,,,,,,,,,,,,,,,,,,,,,,,,,,,,,,,,,0,0,0,0,17,0,17,0,,,,,,,,,,,,,,,,,,,,,,,,,,,,0,747,,,2790.7645422420464,,D,146,hexagon,0.0014286809600889683,,,,,1,0,,,2,,,,,,,,,,2785.7757842671126,2785.7757842671126,2785.7757842671126,2785.7757842671126,2787.277364698937,2787.277364698937,2787.277364698937,2787.277364698937,2787.277364698937,2787.277364698937,2787.277364698937,2787.277364698937,repeat,number,numRpt,j,1.9545849547721446,vtsPrac,2789.263012466952,,,,,,,,,,,,,,,,,,,,,,,,,,,,,13678,2022-12-02_14h59.49.142,vts_reward_expectancy_bt_OFFLINE,2022.2.4,60.329188053994905,
,,,,,,,,,,,,,,,,,,,,,,,,,,,,,,,,,,0,0,0,0,18,0,18,0,,,,,,,,,,,,,,,,,,,,,,,,,,,,0,747,,,2797.0547225219198,,H,139,star,0.0016895020380616188,,,,,1,0,,,2,,,,,,,,,,2791.7490016079973,2791.7490016079973,2791.7490016079973,2791.7490016079973,2793.2505918340757,2793.2505918340757,2793.2505918340757,2793.2505918340757,2793.2505918340757,2793.2505918340757,2793.2505918340757,2793.2505918340757,repeat,number,numRpt,j,2.2820280687883496,vtsPrac,2795.5533051430248,,,,,,,,,,,,,,,,,,,,,,,,,,,,,13678,2022-12-02_14h59.49.142,vts_reward_expectancy_bt_OFFLINE,2022.2.4,60.329188053994905,
,,,,,,,,,,,,,,,,,,,,,,,,,,,,,,,,,,0,0,0,0,19,0,19,0,,,,,,,,,,,,,,,,,,,,,,,,,,,,0,747,,,2802.2440822790377,,U,160,circle,0.0011686268262565136,,,,,1,0,,,2,,,,,,,,,,2798.0392143400386,2798.0392143400386,2798.0392143400386,2798.0392143400386,2799.540675532073,2799.540675532073,2799.540675532073,2799.540675532073,2799.540675532073,2799.540675532073,2799.540675532073,2799.540675532073,switch,letter,lettSwt,f,1.1789069757796824,vtsPrac,2800.7422582930885,2802.2440822790377,,,,,,,,,,,,,,,,,,,,,,,,,,,,13678,2022-12-02_14h59.49.142,vts_reward_expectancy_bt_OFFLINE,2022.2.4,60.329188053994905,
,,,,,,,,,,,,,,,,,,,,,,,,,,,,,,,,,,0,0,0,0,20,0,20,0,,,,,,,,,,,,,,,,,,,,,,,,,,,,0,747,,,2808.183947101934,,H,174,circle,0.0009682518430054188,,,,,1,0,,,2,,,,,,,,,,2803.2284101939294,2803.2284101939294,2803.2284101939294,2803.2284101939294,2804.7299820049666,2804.7299820049666,2804.7299820049666,2804.7299820049666,2804.7299820049666,2804.7299820049666,2804.7299820049666,2804.7299820049666,switch,number,numSwt,k,1.9196960479021072,vtsPrac,2806.682115965057,,,,,,,,,,,,,,,,,,,,,,,,,,,,,13678,2022-12-02_14h59.49.142,vts_reward_expectancy_bt_OFFLINE,2022.2.4,60.329188053994905,
,,,,,,,,,,,,,,,,,,,,,,,,,,,,,,,,,,0,0,0,0,21,0,21,0,,,,,,,,,,,,,,,,,,,,,,,,,,,,0,747,,,2813.289407354081,,D,139,hexagon,0.0012695849873125553,,,,,1,0,,,2,,,,,,,,,,2809.16815857403,2809.16815857403,2809.16815857403,2809.16815857403,2810.669698103098,2810.669698103098,2810.669698103098,2810.669698103098,2810.669698103098,2810.669698103098,2810.669698103098,2810.669698103098,switch,letter,lettSwt,d,1.0872957818210125,vtsPrac,2811.787778723985,,,,,,,,,,,,,,,,,,,,,,,,,,,,,13678,2022-12-02_14h59.49.142,vts_reward_expectancy_bt_OFFLINE,2022.2.4,60.329188053994905,
,,,,,,,,,,,,,,,,,,,,,,,,,,,,,,,,,,0,0,0,0,22,0,22,0,,,,,,,,,,,,,,,,,,,,,,,,,,,,0,747,,,2818.745463195024,,B,181,circle,0.0013670360203832388,,,,,1,0,,,2,,,,,,,,,,2814.273647513939,2814.273647513939,2814.273647513939,2814.273647513939,2815.7755606430583,2815.7755606430583,2815.7755606430583,2815.7755606430583,2815.7755606430583,2815.7755606430583,2815.7755606430583,2815.7755606430583,repeat,letter,lettRpt,d,1.4496880997903645,vtsPrac,2817.243801762117,,,,,,,,,,,,,,,,,,,,,,,,,,,,,13678,2022-12-02_14h59.49.142,vts_reward_expectancy_bt_OFFLINE,2022.2.4,60.329188053994905,
,,,,,,,,,,,,,,,,,,,,,,,,,,,,,,,,,,0,0,0,0,23,0,23,0,,,,,,,,,,,,,,,,,,,,,,,,,,,,0,747,,,2825.01915724203,,U,132,triangle,0.0011947008315473795,,,,,1,0,,,2,,,,,,,,,,2819.7300243130885,2819.7300243130885,2819.7300243130885,2819.7300243130885,2821.2315820381045,2821.2315820381045,2821.2315820381045,2821.2315820381045,2821.2315820381045,2821.2315820381045,2821.2315820381045,2821.2315820381045,switch,number,numSwt,j,2.2594298978801817,vtsPrac,2823.517151409993,,,,,,,,,,,,,,,,,,,,,,,,,,,,,13678,2022-12-02_14h59.49.142,vts_reward_expectancy_bt_OFFLINE,2022.2.4,60.329188053994905,
,,,,,,,,,,,,,,,,,,,,,,,,,,,,,,,,,,0,0,0,0,24,0,24,0,,,,,,,,,,,,,,,,,,,,,,,,,,,,0,747,,,2831.3594923000783,,U,146,circle,0.001192866126075387,,,,,1,0,,,2,,,,,,,,,,2826.0034974550363,2826.0034974550363,2826.0034974550363,2826.0034974550363,2827.5052285681013,2827.5052285681013,2827.5052285681013,2827.5052285681013,2827.5052285681013,2827.5052285681013,2827.5052285681013,2827.5052285681013,repeat,number,numRpt,j,2.330835449974984,vtsPrac,2829.8577114241198,,,,,,,,,,,,,,,,,,,,,,,,,,,,,13678,2022-12-02_14h59.49.142,vts_reward_expectancy_bt_OFFLINE,2022.2.4,60.329188053994905,
,,,,,,,,,,,,,,,,,,,,,,,,,,,,,,,,,,0,0,0,0,25,0,25,0,,,,,,,,,,,,,,,,,,,,,,,,,,,,0,747,,,2836.4650629691314,,B,181,triangle,0.0012199098709970713,,,,,1,0,,,2,,,,,,,,,,2832.343787848018,2832.343787848018,2832.343787848018,2832.343787848018,2833.8453809130006,2833.8453809130006,2833.8453809130006,2833.8453809130006,2833.8453809130006,2833.8453809130006,2833.8453809130006,2833.8453809130006,switch,letter,lettSwt,d,1.1010035430081189,vtsPrac,2834.9633220620453,2836.4650629691314,,,,,,,,,,,,,,,,,,,,,,,,,,,,13678,2022-12-02_14h59.49.142,vts_reward_expectancy_bt_OFFLINE,2022.2.4,60.329188053994905,
,,,,,,,,,,,,,,,,,,,,,,,,,,,,,,,,,,0,0,0,0,26,0,26,0,,,,,,,,,,,,,,,,,,,,,,,,,,,,0,747,,,2841.9878505100496,,F,139,star,0.0009351549670100212,,,,,1,0,,,2,,,,,,,,,,2837.4493906621356,2837.4493906621356,2837.4493906621356,2837.4493906621356,2838.95106411702,2838.95106411702,2838.95106411702,2838.95106411702,2838.95106411702,2838.95106411702,2838.95106411702,2838.95106411702,repeat,letter,lettRpt,d,1.5078369958791882,vtsPrac,2840.4861200640444,,,,,,,,,,,,,,,,,,,,,,,,,,,,,13678,2022-12-02_14h59.49.142,vts_reward_expectancy_bt_OFFLINE,2022.2.4,60.329188053994905,
,,,,,,,,,,,,,,,,,,,,,,,,,,,,,,,,,,0,0,0,0,27,0,27,0,,,,,,,,,,,,,,,,,,,,,,,,,,,,0,747,,,2848.5115793941077,,W,174,hexagon,0.0013235870283097029,,,,,1,0,,,2,,,,,,,,,,2842.9720991249196,2842.9720991249196,2842.9720991249196,2842.9720991249196,2844.473814469995,2844.473814469995,2844.473814469995,2844.473814469995,2844.473814469995,2844.473814469995,2844.473814469995,2844.473814469995,switch,number,numSwt,k,2.5097155689727515,vtsPrac,2847.009808816947,,,,,,,,,,,,,,,,,,,,,,,,,,,,,13678,2022-12-02_14h59.49.142,vts_reward_expectancy_bt_OFFLINE,2022.2.4,60.329188053994905,
