LTriangleOpac,LCircleOpac,LHexagonOpac,LStarOpac,RTriangleOpac,RCircleOpac,RHexagonOpac,RStarOpac,LShape_ID,RShape_ID,training_blocks.thisRepN,training_blocks.thisTrialN,training_blocks.thisN,training_blocks.thisIndex,training.thisRepN,training.thisTrialN,training.thisN,training.thisIndex,task1_prac_redo.thisRepN,task1_prac_redo.thisTrialN,task1_prac_redo.thisN,task1_prac_redo.thisIndex,task1_prac_trials.thisRepN,task1_prac_trials.thisTrialN,task1_prac_trials.thisN,task1_prac_trials.thisIndex,task2_prac_redo.thisRepN,task2_prac_redo.thisTrialN,task2_prac_redo.thisN,task2_prac_redo.thisIndex,task2_praac_trials.thisRepN,task2_praac_trials.thisTrialN,task2_praac_trials.thisN,task2_praac_trials.thisIndex,vts_prac_redo.thisRepN,vts_prac_redo.thisTrialN,vts_prac_redo.thisN,vts_prac_redo.thisIndex,vts_practice_trials.thisRepN,vts_practice_trials.thisTrialN,vts_practice_trials.thisN,vts_practice_trials.thisIndex,trials_norew.thisRepN,trials_norew.thisTrialN,trials_norew.thisN,trials_norew.thisIndex,block.thisRepN,block.thisTrialN,block.thisN,block.thisIndex,trials_rew.thisRepN,trials_rew.thisTrialN,trials_rew.thisN,trials_rew.thisIndex,key_resp.started,key_resp.keys,key_resp.rt,left_circle.started,right_circle.started,left_triangle.started,right_triangle.started,left_star.started,right_star.started,left_hexagon.started,right_hexagon.started,training_fix.started,training_resp.started,training_resp.keys,training_resp.rt,points_trial,points_cumul,trainBlock,training_feedback_txt.started,fix.started,training_feedback_txt.stopped,curr_topStim,curr_bottStim,curr_shape,ISI.started,tgt_fix_prac1.started,top_target_prac1.started,bott_target_prac1.started,target_resp_prac1.started,acc,E1,target_resp_prac1.keys,target_resp_prac1.rt,pracBlock,prac_fback_text.started,top_target_prac1.stopped,tgt_fix_prac1.stopped,bott_target_prac1.stopped,target_resp_prac1.stopped,prac_fback_text.stopped,fix.stopped,tgt_fix_prac2.started,top_target_prac2.started,bott_target_prac2.started,target_resp_prac2.started,target_resp_prac2.keys,target_resp_prac2.rt,star.started,hegagon.started,triangle.started,circle.started,star.stopped,hegagon.stopped,triangle.stopped,circle.stopped,top_target.started,tgt_fix.started,bot_target.started,target_resp.started,alt,task,condition,target_resp.keys,target_resp.rt,rewCond,vts_fback.started,top_target.stopped,tgt_fix.stopped,bot_target.stopped,target_resp.stopped,vts_fback.stopped,blockNum,norew_fback.started,norew_fback.stopped,key_resp_2.keys,key_resp_2.rt,rewExpectancy,feedbk_text.started,feedbk_text.stopped,text_3.started,debrief.started,text_3.stopped,button.started,debrief.index,debrief.itemText,debrief.type,debrief.granularity,debrief.font,debrief.markerColor,debrief.response,debrief.rt,button.numClicks,button.timesOn,button.timesOff,participant,date,expName,psychopyVersion,frameRate,
,,,,,,,,,,,,,,,,,,,,,,,,,,,,,,,,,,,,,,,,,,,,,,,,,,,,,,936.175408029987,space,16.38494364405051,,,,,,,,,,,,,,,,,,,,,,,,,,,,,,,,,,,,,,,,,,,,,,,,,,,,,,,,,,,,,,,,,,,,,,,,,,,,,,,,,,,,,,,,,,,,13676,2022-12-02_14h54.06.036,vts_reward_expectancy_bt_OFFLINE,2022.2.4,59.93063509894357,
0,0,0,1,1,0,0,0,star,triangle,0,0,0,0,0,0,0,9,,,,,,,,,,,,,,,,,,,,,,,,,,,,,,,,,,,,,,,,981.9781693349942,981.9781693349942,981.9781693349942,981.9781693349942,981.9781693349942,981.9781693349942,981.9781693349942,981.9781693349942,981.9781693349942,981.9781693349942,a,1.9411116300616413,10,10,0,983.9402595539577,985.4420001769904,,,,,,,,,,,,,,,,,,,,,,,,,,,,,,,,,,,,,,,,,,,,,,,,,,,,,,,,,,,,,,,,,,,,,,,,,,,13676,2022-12-02_14h54.06.036,vts_reward_expectancy_bt_OFFLINE,2022.2.4,59.93063509894357,
1,0,0,0,0,0,0,1,triangle,star,0,0,0,0,0,1,1,2,,,,,,,,,,,,,,,,,,,,,,,,,,,,,,,,,,,,,,,,985.9425844599609,985.9425844599609,985.9425844599609,985.9425844599609,985.9425844599609,985.9425844599609,985.9425844599609,985.9425844599609,985.9425844599609,985.9425844599609,l,0.9047713790205307,10,20,0,986.8768208599649,988.3786066419561,,,,,,,,,,,,,,,,,,,,,,,,,,,,,,,,,,,,,,,,,,,,,,,,,,,,,,,,,,,,,,,,,,,,,,,,,,,13676,2022-12-02_14h54.06.036,vts_reward_expectancy_bt_OFFLINE,2022.2.4,59.93063509894357,
0,0,1,0,1,0,0,0,hexagon,triangle,0,0,0,0,0,2,2,6,,,,,,,,,,,,,,,,,,,,,,,,,,,,,,,,,,,,,,,,988.8791980789974,988.8791980789974,988.8791980789974,988.8791980789974,988.8791980789974,988.8791980789974,988.8791980789974,988.8791980789974,988.8791980789974,988.8791980789974,a,1.5193260820233263,1,21,0,990.4309130809852,991.9325364019605,,,,,,,,,,,,,,,,,,,,,,,,,,,,,,,,,,,,,,,,,,,,,,,,,,,,,,,,,,,,,,,,,,,,,,,,,,,13676,2022-12-02_14h54.06.036,vts_reward_expectancy_bt_OFFLINE,2022.2.4,59.93063509894357,
0,0,1,0,0,1,0,0,hexagon,circle,0,0,0,0,0,3,3,7,,,,,,,,,,,,,,,,,,,,,,,,,,,,,,,,,,,,,,,,992.4330028640106,992.4330028640106,992.4330028640106,992.4330028640106,992.4330028640106,992.4330028640106,992.4330028640106,992.4330028640106,992.4330028640106,992.4330028640106,l,3.1196074149920605,1,22,0,995.5696902219788,997.071398094995,,,,,,,,,,,,,,,,,,,,,,,,,,,,,,,,,,,,,,,,,,,,,,,,,,,,,,,,,,,,,,,,,,,,,,,,,,,13676,2022-12-02_14h54.06.036,vts_reward_expectancy_bt_OFFLINE,2022.2.4,59.93063509894357,
1,0,0,0,0,1,0,0,triangle,circle,0,0,0,0,0,4,4,0,,,,,,,,,,,,,,,,,,,,,,,,,,,,,,,,,,,,,,,,997.5718129570014,997.5718129570014,997.5718129570014,997.5718129570014,997.5718129570014,997.5718129570014,997.5718129570014,997.5718129570014,997.5718129570014,997.5718129570014,a,1.4440338680287823,10,32,0,999.0406182309962,1000.5419433109928,,,,,,,,,,,,,,,,,,,,,,,,,,,,,,,,,,,,,,,,,,,,,,,,,,,,,,,,,,,,,,,,,,,,,,,,,,,13676,2022-12-02_14h54.06.036,vts_reward_expectancy_bt_OFFLINE,2022.2.4,59.93063509894357,
1,0,0,0,0,0,1,0,triangle,hexagon,0,0,0,0,0,5,5,1,,,,,,,,,,,,,,,,,,,,,,,,,,,,,,,,,,,,,,,,1001.0427077049972,1001.0427077049972,1001.0427077049972,1001.0427077049972,1001.0427077049972,1001.0427077049972,1001.0427077049972,1001.0427077049972,1001.0427077049972,1001.0427077049972,a,0.7341219590161927,1,33,0,1001.7933506429545,1003.2951623889967,,,,,,,,,,,,,,,,,,,,,,,,,,,,,,,,,,,,,,,,,,,,,,,,,,,,,,,,,,,,,,,,,,,,,,,,,,,13676,2022-12-02_14h54.06.036,vts_reward_expectancy_bt_OFFLINE,2022.2.4,59.93063509894357,
0,1,0,0,1,0,0,0,circle,triangle,0,0,0,0,0,6,6,3,,,,,,,,,,,,,,,,,,,,,,,,,,,,,,,,,,,,,,,,1003.7959037839901,1003.7959037839901,1003.7959037839901,1003.7959037839901,1003.7959037839901,1003.7959037839901,1003.7959037839901,1003.7959037839901,1003.7959037839901,1003.7959037839901,a,1.9628337120520882,1,34,0,1005.7812401729752,1007.2828985140077,,,,,,,,,,,,,,,,,,,,,,,,,,,,,,,,,,,,,,,,,,,,,,,,,,,,,,,,,,,,,,,,,,,,,,,,,,,13676,2022-12-02_14h54.06.036,vts_reward_expectancy_bt_OFFLINE,2022.2.4,59.93063509894357,
0,0,1,0,0,0,0,1,hexagon,star,0,0,0,0,0,7,7,8,,,,,,,,,,,,,,,,,,,,,,,,,,,,,,,,,,,,,,,,1007.7834770419868,1007.7834770419868,1007.7834770419868,1007.7834770419868,1007.7834770419868,1007.7834770419868,1007.7834770419868,1007.7834770419868,1007.7834770419868,1007.7834770419868,l,0.7919781840173528,10,44,0,1008.6008082589833,1010.1027891039848,,,,,,,,,,,,,,,,,,,,,,,,,,,,,,,,,,,,,,,,,,,,,,,,,,,,,,,,,,,,,,,,,,,,,,,,,,,13676,2022-12-02_14h54.06.036,vts_reward_expectancy_bt_OFFLINE,2022.2.4,59.93063509894357,
0,1,0,0,0,0,1,0,circle,hexagon,0,0,0,0,0,8,8,4,,,,,,,,,,,,,,,,,,,,,,,,,,,,,,,,,,,,,,,,1010.6031654310063,1010.6031654310063,1010.6031654310063,1010.6031654310063,1010.6031654310063,1010.6031654310063,1010.6031654310063,1010.6031654310063,1010.6031654310063,1010.6031654310063,a,1.516960266046226,10,54,0,1012.1381524309982,1013.6396924559958,,,,,,,,,,,,,,,,,,,,,,,,,,,,,,,,,,,,,,,,,,,,,,,,,,,,,,,,,,,,,,,,,,,,,,,,,,,13676,2022-12-02_14h54.06.036,vts_reward_expectancy_bt_OFFLINE,2022.2.4,59.93063509894357,
0,0,0,1,0,0,1,0,star,hexagon,0,0,0,0,0,9,9,11,,,,,,,,,,,,,,,,,,,,,,,,,,,,,,,,,,,,,,,,1014.140218148008,1014.140218148008,1014.140218148008,1014.140218148008,1014.140218148008,1014.140218148008,1014.140218148008,1014.140218148008,1014.140218148008,1014.140218148008,a,1.1630931700346991,10,64,0,1015.3248581049847,1016.8265010619652,,,,,,,,,,,,,,,,,,,,,,,,,,,,,,,,,,,,,,,,,,,,,,,,,,,,,,,,,,,,,,,,,,,,,,,,,,,13676,2022-12-02_14h54.06.036,vts_reward_expectancy_bt_OFFLINE,2022.2.4,59.93063509894357,
0,0,0,1,0,1,0,0,star ,circle,0,0,0,0,0,10,10,10,,,,,,,,,,,,,,,,,,,,,,,,,,,,,,,,,,,,,,,,1017.3273140689707,1017.3273140689707,1017.3273140689707,1017.3273140689707,1017.3273140689707,1017.3273140689707,1017.3273140689707,1017.3273140689707,1017.3273140689707,1017.3273140689707,a,1.1280362860416062,10,74,0,1018.4770617510076,1019.9801973630092,,,,,,,,,,,,,,,,,,,,,,,,,,,,,,,,,,,,,,,,,,,,,,,,,,,,,,,,,,,,,,,,,,,,,,,,,,,13676,2022-12-02_14h54.06.036,vts_reward_expectancy_bt_OFFLINE,2022.2.4,59.93063509894357,
0,1,0,0,0,0,0,1,circle,star,0,0,0,0,0,11,11,5,,,,,,,,,,,,,,,,,,,,,,,,,,,,,,,,,,,,,,,,1020.4805112020113,1020.4805112020113,1020.4805112020113,1020.4805112020113,1020.4805112020113,1020.4805112020113,1020.4805112020113,1020.4805112020113,1020.4805112020113,1020.4805112020113,l,1.310872077010572,1,75,0,1021.8153556319885,1023.317216816009,,,,,,,,,,,,,,,,,,,,,,,,,,,,,,,,,,,,,,,,,,,,,,,,,,,,,,,,,,,,,,,,,,,,,,,,,,,13676,2022-12-02_14h54.06.036,vts_reward_expectancy_bt_OFFLINE,2022.2.4,59.93063509894357,
0,0,1,0,0,1,0,0,hexagon,circle,0,0,0,0,1,0,12,7,,,,,,,,,,,,,,,,,,,,,,,,,,,,,,,,,,,,,,,,1023.8178441409837,1023.8178441409837,1023.8178441409837,1023.8178441409837,1023.8178441409837,1023.8178441409837,1023.8178441409837,1023.8178441409837,1023.8178441409837,1023.8178441409837,a,1.781274849025067,10,85,0,1025.6196339369635,1027.1213794449577,,,,,,,,,,,,,,,,,,,,,,,,,,,,,,,,,,,,,,,,,,,,,,,,,,,,,,,,,,,,,,,,,,,,,,,,,,,13676,2022-12-02_14h54.06.036,vts_reward_expectancy_bt_OFFLINE,2022.2.4,59.93063509894357,
0,0,0,1,0,1,0,0,star ,circle,0,0,0,0,1,1,13,10,,,,,,,,,,,,,,,,,,,,,,,,,,,,,,,,,,,,,,,,1027.621960007993,1027.621960007993,1027.621960007993,1027.621960007993,1027.621960007993,1027.621960007993,1027.621960007993,1027.621960007993,1027.621960007993,1027.621960007993,a,0.5690003940253519,10,95,0,1028.222443295992,1029.7242014610092,,,,,,,,,,,,,,,,,,,,,,,,,,,,,,,,,,,,,,,,,,,,,,,,,,,,,,,,,,,,,,,,,,,,,,,,,,,13676,2022-12-02_14h54.06.036,vts_reward_expectancy_bt_OFFLINE,2022.2.4,59.93063509894357,
1,0,0,0,0,0,1,0,triangle,hexagon,0,0,0,0,1,2,14,1,,,,,,,,,,,,,,,,,,,,,,,,,,,,,,,,,,,,,,,,1030.22478714498,1030.22478714498,1030.22478714498,1030.22478714498,1030.22478714498,1030.22478714498,1030.22478714498,1030.22478714498,1030.22478714498,1030.22478714498,a,1.4387115900753997,1,96,0,1031.6929747379618,1033.1950947300065,,,,,,,,,,,,,,,,,,,,,,,,,,,,,,,,,,,,,,,,,,,,,,,,,,,,,,,,,,,,,,,,,,,,,,,,,,,13676,2022-12-02_14h54.06.036,vts_reward_expectancy_bt_OFFLINE,2022.2.4,59.93063509894357,
0,1,0,0,0,0,0,1,circle,star,0,0,0,0,1,3,15,5,,,,,,,,,,,,,,,,,,,,,,,,,,,,,,,,,,,,,,,,1033.6952413539984,1033.6952413539984,1033.6952413539984,1033.6952413539984,1033.6952413539984,1033.6952413539984,1033.6952413539984,1033.6952413539984,1033.6952413539984,1033.6952413539984,l,0.5919362340355292,1,97,0,1034.3129169360036,1035.8141680689878,,,,,,,,,,,,,,,,,,,,,,,,,,,,,,,,,,,,,,,,,,,,,,,,,,,,,,,,,,,,,,,,,,,,,,,,,,,13676,2022-12-02_14h54.06.036,vts_reward_expectancy_bt_OFFLINE,2022.2.4,59.93063509894357,
1,0,0,0,0,1,0,0,triangle,circle,0,0,0,0,1,4,16,0,,,,,,,,,,,,,,,,,,,,,,,,,,,,,,,,,,,,,,,,1036.314923717,1036.314923717,1036.314923717,1036.314923717,1036.314923717,1036.314923717,1036.314923717,1036.314923717,1036.314923717,1036.314923717,a,0.6848019390599802,10,107,0,1037.0322752610082,1038.5340437089908,,,,,,,,,,,,,,,,,,,,,,,,,,,,,,,,,,,,,,,,,,,,,,,,,,,,,,,,,,,,,,,,,,,,,,,,,,,13676,2022-12-02_14h54.06.036,vts_reward_expectancy_bt_OFFLINE,2022.2.4,59.93063509894357,
0,0,0,1,1,0,0,0,star,triangle,0,0,0,0,1,5,17,9,,,,,,,,,,,,,,,,,,,,,,,,,,,,,,,,,,,,,,,,1039.034658451972,1039.034658451972,1039.034658451972,1039.034658451972,1039.034658451972,1039.034658451972,1039.034658451972,1039.034658451972,1039.034658451972,1039.034658451972,a,0.45217481901636347,10,117,0,1039.5184210359585,1041.0201369249844,,,,,,,,,,,,,,,,,,,,,,,,,,,,,,,,,,,,,,,,,,,,,,,,,,,,,,,,,,,,,,,,,,,,,,,,,,,13676,2022-12-02_14h54.06.036,vts_reward_expectancy_bt_OFFLINE,2022.2.4,59.93063509894357,
0,0,0,1,0,0,1,0,star,hexagon,0,0,0,0,1,6,18,11,,,,,,,,,,,,,,,,,,,,,,,,,,,,,,,,,,,,,,,,1041.5205393589567,1041.5205393589567,1041.5205393589567,1041.5205393589567,1041.5205393589567,1041.5205393589567,1041.5205393589567,1041.5205393589567,1041.5205393589567,1041.5205393589567,a,0.5347472760477103,10,127,0,1042.0877911669668,1043.589481442992,,,,,,,,,,,,,,,,,,,,,,,,,,,,,,,,,,,,,,,,,,,,,,,,,,,,,,,,,,,,,,,,,,,,,,,,,,,13676,2022-12-02_14h54.06.036,vts_reward_expectancy_bt_OFFLINE,2022.2.4,59.93063509894357,
0,0,1,0,0,0,0,1,hexagon,star,0,0,0,0,1,7,19,8,,,,,,,,,,,,,,,,,,,,,,,,,,,,,,,,,,,,,,,,1044.0900518809794,1044.0900518809794,1044.0900518809794,1044.0900518809794,1044.0900518809794,1044.0900518809794,1044.0900518809794,1044.0900518809794,1044.0900518809794,1044.0900518809794,l,1.0057473300257698,1,128,0,1045.1243507989566,1046.6260689109913,,,,,,,,,,,,,,,,,,,,,,,,,,,,,,,,,,,,,,,,,,,,,,,,,,,,,,,,,,,,,,,,,,,,,,,,,,,13676,2022-12-02_14h54.06.036,vts_reward_expectancy_bt_OFFLINE,2022.2.4,59.93063509894357,
0,0,1,0,1,0,0,0,hexagon,triangle,0,0,0,0,1,8,20,6,,,,,,,,,,,,,,,,,,,,,,,,,,,,,,,,,,,,,,,,1047.1267228180077,1047.1267228180077,1047.1267228180077,1047.1267228180077,1047.1267228180077,1047.1267228180077,1047.1267228180077,1047.1267228180077,1047.1267228180077,1047.1267228180077,a,0.360552087018732,10,138,0,1047.5103941689595,1049.012179198966,,,,,,,,,,,,,,,,,,,,,,,,,,,,,,,,,,,,,,,,,,,,,,,,,,,,,,,,,,,,,,,,,,,,,,,,,,,13676,2022-12-02_14h54.06.036,vts_reward_expectancy_bt_OFFLINE,2022.2.4,59.93063509894357,
0,1,0,0,0,0,1,0,circle,hexagon,0,0,0,0,1,9,21,4,,,,,,,,,,,,,,,,,,,,,,,,,,,,,,,,,,,,,,,,1049.51265344501,1049.51265344501,1049.51265344501,1049.51265344501,1049.51265344501,1049.51265344501,1049.51265344501,1049.51265344501,1049.51265344501,1049.51265344501,a,0.3100407370366156,10,148,0,1049.846781811968,1051.3479656300042,,,,,,,,,,,,,,,,,,,,,,,,,,,,,,,,,,,,,,,,,,,,,,,,,,,,,,,,,,,,,,,,,,,,,,,,,,,13676,2022-12-02_14h54.06.036,vts_reward_expectancy_bt_OFFLINE,2022.2.4,59.93063509894357,
1,0,0,0,0,0,0,1,triangle,star,0,0,0,0,1,10,22,2,,,,,,,,,,,,,,,,,,,,,,,,,,,,,,,,,,,,,,,,1051.8485104019637,1051.8485104019637,1051.8485104019637,1051.8485104019637,1051.8485104019637,1051.8485104019637,1051.8485104019637,1051.8485104019637,1051.8485104019637,1051.8485104019637,a,0.27804741106228903,10,158,0,1052.1488026989973,1053.6505969130085,,,,,,,,,,,,,,,,,,,,,,,,,,,,,,,,,,,,,,,,,,,,,,,,,,,,,,,,,,,,,,,,,,,,,,,,,,,13676,2022-12-02_14h54.06.036,vts_reward_expectancy_bt_OFFLINE,2022.2.4,59.93063509894357,
0,1,0,0,1,0,0,0,circle,triangle,0,0,0,0,1,11,23,3,,,,,,,,,,,,,,,,,,,,,,,,,,,,,,,,,,,,,,,,1054.1510107399663,1054.1510107399663,1054.1510107399663,1054.1510107399663,1054.1510107399663,1054.1510107399663,1054.1510107399663,1054.1510107399663,1054.1510107399663,1054.1510107399663,a,0.26435296202544123,10,168,0,1054.4346479529631,1055.9363619749784,,,,,,,,,,,,,,,,,,,,,,,,,,,,,,,,,,,,,,,,,,,,,,,,,,,,,,,,,,,,,,,,,,,,,,,,,,,13676,2022-12-02_14h54.06.036,vts_reward_expectancy_bt_OFFLINE,2022.2.4,59.93063509894357,
1,0,0,0,0,0,1,0,triangle,hexagon,0,0,0,0,2,0,24,1,,,,,,,,,,,,,,,,,,,,,,,,,,,,,,,,,,,,,,,,1056.4368686149828,1056.4368686149828,1056.4368686149828,1056.4368686149828,1056.4368686149828,1056.4368686149828,1056.4368686149828,1056.4368686149828,1056.4368686149828,1056.4368686149828,a,0.345825980999507,1,169,0,1056.803888113005,1058.3056474789628,,,,,,,,,,,,,,,,,,,,,,,,,,,,,,,,,,,,,,,,,,,,,,,,,,,,,,,,,,,,,,,,,,,,,,,,,,,13676,2022-12-02_14h54.06.036,vts_reward_expectancy_bt_OFFLINE,2022.2.4,59.93063509894357,
0,0,0,1,0,1,0,0,star ,circle,0,0,0,0,2,1,25,10,,,,,,,,,,,,,,,,,,,,,,,,,,,,,,,,,,,,,,,,1058.8061905829818,1058.8061905829818,1058.8061905829818,1058.8061905829818,1058.8061905829818,1058.8061905829818,1058.8061905829818,1058.8061905829818,1058.8061905829818,1058.8061905829818,a,0.4507160240318626,1,170,0,1059.2733056219877,1060.7750399169745,,,,,,,,,,,,,,,,,,,,,,,,,,,,,,,,,,,,,,,,,,,,,,,,,,,,,,,,,,,,,,,,,,,,,,,,,,,13676,2022-12-02_14h54.06.036,vts_reward_expectancy_bt_OFFLINE,2022.2.4,59.93063509894357,
1,0,0,0,0,1,0,0,triangle,circle,0,0,0,0,2,2,26,0,,,,,,,,,,,,,,,,,,,,,,,,,,,,,,,,,,,,,,,,1061.2755587199936,1061.2755587199936,1061.2755587199936,1061.2755587199936,1061.2755587199936,1061.2755587199936,1061.2755587199936,1061.2755587199936,1061.2755587199936,1061.2755587199936,l,0.6434629880241118,1,171,0,1061.942995330959,1063.4447510999744,,,,,,,,,,,,,,,,,,,,,,,,,,,,,,,,,,,,,,,,,,,,,,,,,,,,,,,,,,,,,,,,,,,,,,,,,,,13676,2022-12-02_14h54.06.036,vts_reward_expectancy_bt_OFFLINE,2022.2.4,59.93063509894357,
0,0,1,0,1,0,0,0,hexagon,triangle,0,0,0,0,2,3,27,6,,,,,,,,,,,,,,,,,,,,,,,,,,,,,,,,,,,,,,,,1063.9452804789762,1063.9452804789762,1063.9452804789762,1063.9452804789762,1063.9452804789762,1063.9452804789762,1063.9452804789762,1063.9452804789762,1063.9452804789762,1063.9452804789762,l,1.2857613720116206,10,181,0,1065.2633803099743,1066.7650171819841,,,,,,,,,,,,,,,,,,,,,,,,,,,,,,,,,,,,,,,,,,,,,,,,,,,,,,,,,,,,,,,,,,,,,,,,,,,13676,2022-12-02_14h54.06.036,vts_reward_expectancy_bt_OFFLINE,2022.2.4,59.93063509894357,
0,0,1,0,0,1,0,0,hexagon,circle,0,0,0,0,2,4,28,7,,,,,,,,,,,,,,,,,,,,,,,,,,,,,,,,,,,,,,,,1067.2648796209833,1067.2648796209833,1067.2648796209833,1067.2648796209833,1067.2648796209833,1067.2648796209833,1067.2648796209833,1067.2648796209833,1067.2648796209833,1067.2648796209833,l,3.238630418025423,1,182,0,1070.535997228988,1072.037464747962,,,,,,,,,,,,,,,,,,,,,,,,,,,,,,,,,,,,,,,,,,,,,,,,,,,,,,,,,,,,,,,,,,,,,,,,,,,13676,2022-12-02_14h54.06.036,vts_reward_expectancy_bt_OFFLINE,2022.2.4,59.93063509894357,
0,1,0,0,0,0,0,1,circle,star,0,0,0,0,2,5,29,5,,,,,,,,,,,,,,,,,,,,,,,,,,,,,,,,,,,,,,,,1072.5381146619911,1072.5381146619911,1072.5381146619911,1072.5381146619911,1072.5381146619911,1072.5381146619911,1072.5381146619911,1072.5381146619911,1072.5381146619911,1072.5381146619911,l,0.6446792520000599,10,192,0,1073.2053852119716,1074.7069870589767,1074.7069870589767,,,,,,,,,,,,,,,,,,,,,,,,,,,,,,,,,,,,,,,,,,,,,,,,,,,,,,,,,,,,,,,,,,,,,,,,,,13676,2022-12-02_14h54.06.036,vts_reward_expectancy_bt_OFFLINE,2022.2.4,59.93063509894357,
0,1,0,0,1,0,0,0,circle,triangle,0,0,0,0,2,6,30,3,,,,,,,,,,,,,,,,,,,,,,,,,,,,,,,,,,,,,,,,1075.2076803849777,1075.2076803849777,1075.2076803849777,1075.2076803849777,1075.2076803849777,1075.2076803849777,1075.2076803849777,1075.2076803849777,1075.2076803849777,1075.2076803849777,l,4.735832090023905,1,193,0,1079.9628317509778,1081.4644385969732,,,,,,,,,,,,,,,,,,,,,,,,,,,,,,,,,,,,,,,,,,,,,,,,,,,,,,,,,,,,,,,,,,,,,,,,,,,13676,2022-12-02_14h54.06.036,vts_reward_expectancy_bt_OFFLINE,2022.2.4,59.93063509894357,
0,1,0,0,0,0,1,0,circle,hexagon,0,0,0,0,2,7,31,4,,,,,,,,,,,,,,,,,,,,,,,,,,,,,,,,,,,,,,,,1081.9650921009597,1081.9650921009597,1081.9650921009597,1081.9650921009597,1081.9650921009597,1081.9650921009597,1081.9650921009597,1081.9650921009597,1081.9650921009597,1081.9650921009597,a,0.8825651850784197,10,203,0,1082.8659486600081,1084.3677183449618,,,,,,,,,,,,,,,,,,,,,,,,,,,,,,,,,,,,,,,,,,,,,,,,,,,,,,,,,,,,,,,,,,,,,,,,,,,13676,2022-12-02_14h54.06.036,vts_reward_expectancy_bt_OFFLINE,2022.2.4,59.93063509894357,
0,0,1,0,0,0,0,1,hexagon,star,0,0,0,0,2,8,32,8,,,,,,,,,,,,,,,,,,,,,,,,,,,,,,,,,,,,,,,,1084.8683794199605,1084.8683794199605,1084.8683794199605,1084.8683794199605,1084.8683794199605,1084.8683794199605,1084.8683794199605,1084.8683794199605,1084.8683794199605,1084.8683794199605,l,0.8103129320079461,10,213,0,1085.7025485080085,1087.2042618399719,,,,,,,,,,,,,,,,,,,,,,,,,,,,,,,,,,,,,,,,,,,,,,,,,,,,,,,,,,,,,,,,,,,,,,,,,,,13676,2022-12-02_14h54.06.036,vts_reward_expectancy_bt_OFFLINE,2022.2.4,59.93063509894357,
0,0,0,1,0,0,1,0,star,hexagon,0,0,0,0,2,9,33,11,,,,,,,,,,,,,,,,,,,,,,,,,,,,,,,,,,,,,,,,1087.7048086209688,1087.7048086209688,1087.7048086209688,1087.7048086209688,1087.7048086209688,1087.7048086209688,1087.7048086209688,1087.7048086209688,1087.7048086209688,1087.7048086209688,l,1.9417489009792916,1,214,0,1089.6736947079771,1091.1754954559729,,,,,,,,,,,,,,,,,,,,,,,,,,,,,,,,,,,,,,,,,,,,,,,,,,,,,,,,,,,,,,,,,,,,,,,,,,,13676,2022-12-02_14h54.06.036,vts_reward_expectancy_bt_OFFLINE,2022.2.4,59.93063509894357,
0,0,0,1,1,0,0,0,star,triangle,0,0,0,0,2,10,34,9,,,,,,,,,,,,,,,,,,,,,,,,,,,,,,,,,,,,,,,,1091.6758034979575,1091.6758034979575,1091.6758034979575,1091.6758034979575,1091.6758034979575,1091.6758034979575,1091.6758034979575,1091.6758034979575,1091.6758034979575,1091.6758034979575,a,1.1239978710073046,10,224,0,1092.827084007964,1094.3290340679814,,,,,,,,,,,,,,,,,,,,,,,,,,,,,,,,,,,,,,,,,,,,,,,,,,,,,,,,,,,,,,,,,,,,,,,,,,,13676,2022-12-02_14h54.06.036,vts_reward_expectancy_bt_OFFLINE,2022.2.4,59.93063509894357,
1,0,0,0,0,0,0,1,triangle,star,0,0,0,0,2,11,35,2,,,,,,,,,,,,,,,,,,,,,,,,,,,,,,,,,,,,,,,,1094.8292985279695,1094.8292985279695,1094.8292985279695,1094.8292985279695,1094.8292985279695,1094.8292985279695,1094.8292985279695,1094.8292985279695,1094.8292985279695,1094.8292985279695,l,0.697999049036298,10,234,0,1095.5467246439657,1097.0483970009955,,,,,,,,,,,,,,,,,,,,,,,,,,,,,,,,,,,,,,,,,,,,,,,,,,,,,,,,,,,,,,,,,,,,,,,,,,,13676,2022-12-02_14h54.06.036,vts_reward_expectancy_bt_OFFLINE,2022.2.4,59.93063509894357,
0,0,1,0,0,0,0,1,hexagon,star,0,0,0,0,3,0,36,8,,,,,,,,,,,,,,,,,,,,,,,,,,,,,,,,,,,,,,,,1097.5489200849552,1097.5489200849552,1097.5489200849552,1097.5489200849552,1097.5489200849552,1097.5489200849552,1097.5489200849552,1097.5489200849552,1097.5489200849552,1097.5489200849552,l,0.5464970149914734,10,244,0,1098.116540332965,1099.6179199710023,,,,,,,,,,,,,,,,,,,,,,,,,,,,,,,,,,,,,,,,,,,,,,,,,,,,,,,,,,,,,,,,,,,,,,,,,,,13676,2022-12-02_14h54.06.036,vts_reward_expectancy_bt_OFFLINE,2022.2.4,59.93063509894357,
0,1,0,0,0,0,0,1,circle,star,0,0,0,0,3,1,37,5,,,,,,,,,,,,,,,,,,,,,,,,,,,,,,,,,,,,,,,,1100.118791552959,1100.118791552959,1100.118791552959,1100.118791552959,1100.118791552959,1100.118791552959,1100.118791552959,1100.118791552959,1100.118791552959,1100.118791552959,l,0.47985354805132374,10,254,0,1100.6190695459954,1102.1206520109554,,,,,,,,,,,,,,,,,,,,,,,,,,,,,,,,,,,,,,,,,,,,,,,,,,,,,,,,,,,,,,,,,,,,,,,,,,,13676,2022-12-02_14h54.06.036,vts_reward_expectancy_bt_OFFLINE,2022.2.4,59.93063509894357,
0,1,0,0,0,0,1,0,circle,hexagon,0,0,0,0,3,2,38,4,,,,,,,,,,,,,,,,,,,,,,,,,,,,,,,,,,,,,,,,1102.6216250829748,1102.6216250829748,1102.6216250829748,1102.6216250829748,1102.6216250829748,1102.6216250829748,1102.6216250829748,1102.6216250829748,1102.6216250829748,1102.6216250829748,a,0.8902358470368199,10,264,0,1103.539003555954,1105.0407152759726,,,,,,,,,,,,,,,,,,,,,,,,,,,,,,,,,,,,,,,,,,,,,,,,,,,,,,,,,,,,,,,,,,,,,,,,,,,13676,2022-12-02_14h54.06.036,vts_reward_expectancy_bt_OFFLINE,2022.2.4,59.93063509894357,
0,0,0,1,0,1,0,0,star ,circle,0,0,0,0,3,3,39,10,,,,,,,,,,,,,,,,,,,,,,,,,,,,,,,,,,,,,,,,1105.541255233984,1105.541255233984,1105.541255233984,1105.541255233984,1105.541255233984,1105.541255233984,1105.541255233984,1105.541255233984,1105.541255233984,1105.541255233984,l,1.497953530983068,10,274,0,1107.0593904039706,1108.5610701059923,,,,,,,,,,,,,,,,,,,,,,,,,,,,,,,,,,,,,,,,,,,,,,,,,,,,,,,,,,,,,,,,,,,,,,,,,,,13676,2022-12-02_14h54.06.036,vts_reward_expectancy_bt_OFFLINE,2022.2.4,59.93063509894357,
0,0,0,1,1,0,0,0,star,triangle,0,0,0,0,3,4,40,9,,,,,,,,,,,,,,,,,,,,,,,,,,,,,,,,,,,,,,,,1109.061728629982,1109.061728629982,1109.061728629982,1109.061728629982,1109.061728629982,1109.061728629982,1109.061728629982,1109.061728629982,1109.061728629982,1109.061728629982,a,0.5375684600439854,10,284,0,1109.6290496849688,1111.1304826519918,,,,,,,,,,,,,,,,,,,,,,,,,,,,,,,,,,,,,,,,,,,,,,,,,,,,,,,,,,,,,,,,,,,,,,,,,,,13676,2022-12-02_14h54.06.036,vts_reward_expectancy_bt_OFFLINE,2022.2.4,59.93063509894357,
0,0,0,1,0,0,1,0,star,hexagon,0,0,0,0,3,5,41,11,,,,,,,,,,,,,,,,,,,,,,,,,,,,,,,,,,,,,,,,1111.6310948070022,1111.6310948070022,1111.6310948070022,1111.6310948070022,1111.6310948070022,1111.6310948070022,1111.6310948070022,1111.6310948070022,1111.6310948070022,1111.6310948070022,l,1.104188320983667,10,294,0,1112.7656657929765,1114.2675095839659,,,,,,,,,,,,,,,,,,,,,,,,,,,,,,,,,,,,,,,,,,,,,,,,,,,,,,,,,,,,,,,,,,,,,,,,,,,13676,2022-12-02_14h54.06.036,vts_reward_expectancy_bt_OFFLINE,2022.2.4,59.93063509894357,
0,1,0,0,1,0,0,0,circle,triangle,0,0,0,0,3,6,42,3,,,,,,,,,,,,,,,,,,,,,,,,,,,,,,,,,,,,,,,,1114.768037137983,1114.768037137983,1114.768037137983,1114.768037137983,1114.768037137983,1114.768037137983,1114.768037137983,1114.768037137983,1114.768037137983,1114.768037137983,a,1.4631946110748686,10,304,0,1116.2529655169928,1117.7545281089842,,,,,,,,,,,,,,,,,,,,,,,,,,,,,,,,,,,,,,,,,,,,,,,,,,,,,,,,,,,,,,,,,,,,,,,,,,,13676,2022-12-02_14h54.06.036,vts_reward_expectancy_bt_OFFLINE,2022.2.4,59.93063509894357,
0,0,1,0,0,1,0,0,hexagon,circle,0,0,0,0,3,7,43,7,,,,,,,,,,,,,,,,,,,,,,,,,,,,,,,,,,,,,,,,1118.255153296981,1118.255153296981,1118.255153296981,1118.255153296981,1118.255153296981,1118.255153296981,1118.255153296981,1118.255153296981,1118.255153296981,1118.255153296981,l,1.8328199459938332,10,314,0,1120.107210638991,1121.6089711049572,,,,,,,,,,,,,,,,,,,,,,,,,,,,,,,,,,,,,,,,,,,,,,,,,,,,,,,,,,,,,,,,,,,,,,,,,,,13676,2022-12-02_14h54.06.036,vts_reward_expectancy_bt_OFFLINE,2022.2.4,59.93063509894357,
1,0,0,0,0,1,0,0,triangle,circle,0,0,0,0,3,8,44,0,,,,,,,,,,,,,,,,,,,,,,,,,,,,,,,,,,,,,,,,1122.1095030219876,1122.1095030219876,1122.1095030219876,1122.1095030219876,1122.1095030219876,1122.1095030219876,1122.1095030219876,1122.1095030219876,1122.1095030219876,1122.1095030219876,a,3.0578688170644455,10,324,0,1125.1962016769685,1126.6979101590114,,,,,,,,,,,,,,,,,,,,,,,,,,,,,,,,,,,,,,,,,,,,,,,,,,,,,,,,,,,,,,,,,,,,,,,,,,,13676,2022-12-02_14h54.06.036,vts_reward_expectancy_bt_OFFLINE,2022.2.4,59.93063509894357,
0,0,1,0,1,0,0,0,hexagon,triangle,0,0,0,0,3,9,45,6,,,,,,,,,,,,,,,,,,,,,,,,,,,,,,,,,,,,,,,,1127.1982690729783,1127.1982690729783,1127.1982690729783,1127.1982690729783,1127.1982690729783,1127.1982690729783,1127.1982690729783,1127.1982690729783,1127.1982690729783,1127.1982690729783,a,2.921734587987885,10,334,0,1130.1515565270092,1131.6534844269627,,,,,,,,,,,,,,,,,,,,,,,,,,,,,,,,,,,,,,,,,,,,,,,,,,,,,,,,,,,,,,,,,,,,,,,,,,,13676,2022-12-02_14h54.06.036,vts_reward_expectancy_bt_OFFLINE,2022.2.4,59.93063509894357,
1,0,0,0,0,0,0,1,triangle,star,0,0,0,0,3,10,46,2,,,,,,,,,,,,,,,,,,,,,,,,,,,,,,,,,,,,,,,,1132.1538650289876,1132.1538650289876,1132.1538650289876,1132.1538650289876,1132.1538650289876,1132.1538650289876,1132.1538650289876,1132.1538650289876,1132.1538650289876,1132.1538650289876,l,0.7659923650207929,10,344,0,1132.9380099899718,1134.4397837609868,,,,,,,,,,,,,,,,,,,,,,,,,,,,,,,,,,,,,,,,,,,,,,,,,,,,,,,,,,,,,,,,,,,,,,,,,,,13676,2022-12-02_14h54.06.036,vts_reward_expectancy_bt_OFFLINE,2022.2.4,59.93063509894357,
1,0,0,0,0,0,1,0,triangle,hexagon,0,0,0,0,3,11,47,1,,,,,,,,,,,,,,,,,,,,,,,,,,,,,,,,,,,,,,,,1134.9404844749952,1134.9404844749952,1134.9404844749952,1134.9404844749952,1134.9404844749952,1134.9404844749952,1134.9404844749952,1134.9404844749952,1134.9404844749952,1134.9404844749952,l,1.9390035530086607,1,345,0,1136.9090841459692,1138.4107138249674,,,,,,,,,,,,,,,,,,,,,,,,,,,,,,,,,,,,,,,,,,,,,,,,,,,,,,,,,,,,,,,,,,,,,,,,,,,13676,2022-12-02_14h54.06.036,vts_reward_expectancy_bt_OFFLINE,2022.2.4,59.93063509894357,
1,0,0,0,0,0,0,1,triangle,star,1,0,1,0,0,0,0,2,,,,,,,,,,,,,,,,,,,,,,,,,,,,,,,,,,,,,,,,1146.7748167460086,1146.7748167460086,1146.7748167460086,1146.7748167460086,1146.7748167460086,1146.7748167460086,1146.7748167460086,1146.7748167460086,1146.7748167460086,1146.7748167460086,l,0.9038006020127796,10,355,1,1147.704312887974,1149.2060031240107,,,,,,,,,,,,,,,,,,,,,,,,,,,,,,,,,,,,,,,,,,,,,,,,,,,,,,,,,,,,,,,,,,,,,,,,,,,13676,2022-12-02_14h54.06.036,vts_reward_expectancy_bt_OFFLINE,2022.2.4,59.93063509894357,
0,0,0,1,1,0,0,0,star,triangle,1,0,1,0,0,1,1,9,,,,,,,,,,,,,,,,,,,,,,,,,,,,,,,,,,,,,,,,1149.7065273459884,1149.7065273459884,1149.7065273459884,1149.7065273459884,1149.7065273459884,1149.7065273459884,1149.7065273459884,1149.7065273459884,1149.7065273459884,1149.7065273459884,a,0.5573600080679171,10,365,1,1150.290604167967,1151.7922003300046,,,,,,,,,,,,,,,,,,,,,,,,,,,,,,,,,,,,,,,,,,,,,,,,,,,,,,,,,,,,,,,,,,,,,,,,,,,13676,2022-12-02_14h54.06.036,vts_reward_expectancy_bt_OFFLINE,2022.2.4,59.93063509894357,
0,1,0,0,0,0,1,0,circle,hexagon,1,0,1,0,0,2,2,4,,,,,,,,,,,,,,,,,,,,,,,,,,,,,,,,,,,,,,,,1152.2927277630079,1152.2927277630079,1152.2927277630079,1152.2927277630079,1152.2927277630079,1152.2927277630079,1152.2927277630079,1152.2927277630079,1152.2927277630079,1152.2927277630079,a,2.5943796270294115,1,366,1,1154.9121985589736,1156.4139175969758,,,,,,,,,,,,,,,,,,,,,,,,,,,,,,,,,,,,,,,,,,,,,,,,,,,,,,,,,,,,,,,,,,,,,,,,,,,13676,2022-12-02_14h54.06.036,vts_reward_expectancy_bt_OFFLINE,2022.2.4,59.93063509894357,
0,0,1,0,1,0,0,0,hexagon,triangle,1,0,1,0,0,3,3,6,,,,,,,,,,,,,,,,,,,,,,,,,,,,,,,,,,,,,,,,1156.9143536119955,1156.9143536119955,1156.9143536119955,1156.9143536119955,1156.9143536119955,1156.9143536119955,1156.9143536119955,1156.9143536119955,1156.9143536119955,1156.9143536119955,l,0.48514617403270677,10,376,1,1157.4317213689792,1158.9332526579965,,,,,,,,,,,,,,,,,,,,,,,,,,,,,,,,,,,,,,,,,,,,,,,,,,,,,,,,,,,,,,,,,,,,,,,,,,,13676,2022-12-02_14h54.06.036,vts_reward_expectancy_bt_OFFLINE,2022.2.4,59.93063509894357,
0,0,0,1,0,1,0,0,star ,circle,1,0,1,0,0,4,4,10,,,,,,,,,,,,,,,,,,,,,,,,,,,,,,,,,,,,,,,,1159.4338646559627,1159.4338646559627,1159.4338646559627,1159.4338646559627,1159.4338646559627,1159.4338646559627,1159.4338646559627,1159.4338646559627,1159.4338646559627,1159.4338646559627,a,0.5254456850234419,10,386,1,1159.9843763509998,1161.4861221679603,,,,,,,,,,,,,,,,,,,,,,,,,,,,,,,,,,,,,,,,,,,,,,,,,,,,,,,,,,,,,,,,,,,,,,,,,,,13676,2022-12-02_14h54.06.036,vts_reward_expectancy_bt_OFFLINE,2022.2.4,59.93063509894357,
0,0,1,0,0,1,0,0,hexagon,circle,1,0,1,0,0,5,5,7,,,,,,,,,,,,,,,,,,,,,,,,,,,,,,,,,,,,,,,,1161.9865445699543,1161.9865445699543,1161.9865445699543,1161.9865445699543,1161.9865445699543,1161.9865445699543,1161.9865445699543,1161.9865445699543,1161.9865445699543,1161.9865445699543,a,1.508924227033276,1,387,1,1163.521540910995,1165.0233692349866,,,,,,,,,,,,,,,,,,,,,,,,,,,,,,,,,,,,,,,,,,,,,,,,,,,,,,,,,,,,,,,,,,,,,,,,,,,13676,2022-12-02_14h54.06.036,vts_reward_expectancy_bt_OFFLINE,2022.2.4,59.93063509894357,
0,0,1,0,0,0,0,1,hexagon,star,1,0,1,0,0,6,6,8,,,,,,,,,,,,,,,,,,,,,,,,,,,,,,,,,,,,,,,,1165.523778356961,1165.523778356961,1165.523778356961,1165.523778356961,1165.523778356961,1165.523778356961,1165.523778356961,1165.523778356961,1165.523778356961,1165.523778356961,l,0.6683231170172803,1,388,1,1166.2246281320113,1167.726363883994,,,,,,,,,,,,,,,,,,,,,,,,,,,,,,,,,,,,,,,,,,,,,,,,,,,,,,,,,,,,,,,,,,,,,,,,,,,13676,2022-12-02_14h54.06.036,vts_reward_expectancy_bt_OFFLINE,2022.2.4,59.93063509894357,
0,0,0,1,0,0,1,0,star,hexagon,1,0,1,0,0,7,7,11,,,,,,,,,,,,,,,,,,,,,,,,,,,,,,,,,,,,,,,,1168.2270084740012,1168.2270084740012,1168.2270084740012,1168.2270084740012,1168.2270084740012,1168.2270084740012,1168.2270084740012,1168.2270084740012,1168.2270084740012,1168.2270084740012,l,0.7648891580174677,1,389,1,1169.0112151049543,1170.5130466609844,,,,,,,,,,,,,,,,,,,,,,,,,,,,,,,,,,,,,,,,,,,,,,,,,,,,,,,,,,,,,,,,,,,,,,,,,,,13676,2022-12-02_14h54.06.036,vts_reward_expectancy_bt_OFFLINE,2022.2.4,59.93063509894357,
0,1,0,0,1,0,0,0,circle,triangle,1,0,1,0,0,8,8,3,,,,,,,,,,,,,,,,,,,,,,,,,,,,,,,,,,,,,,,,1171.0133964309935,1171.0133964309935,1171.0133964309935,1171.0133964309935,1171.0133964309935,1171.0133964309935,1171.0133964309935,1171.0133964309935,1171.0133964309935,1171.0133964309935,l,1.041146050032694,1,390,1,1172.081326265994,1173.5829697930021,,,,,,,,,,,,,,,,,,,,,,,,,,,,,,,,,,,,,,,,,,,,,,,,,,,,,,,,,,,,,,,,,,,,,,,,,,,13676,2022-12-02_14h54.06.036,vts_reward_expectancy_bt_OFFLINE,2022.2.4,59.93063509894357,
1,0,0,0,0,0,1,0,triangle,hexagon,1,0,1,0,0,9,9,1,,,,,,,,,,,,,,,,,,,,,,,,,,,,,,,,,,,,,,,,1174.0834764119936,1174.0834764119936,1174.0834764119936,1174.0834764119936,1174.0834764119936,1174.0834764119936,1174.0834764119936,1174.0834764119936,1174.0834764119936,1174.0834764119936,a,0.595794512075372,1,391,1,1174.7008473379537,1176.2024345149985,,,,,,,,,,,,,,,,,,,,,,,,,,,,,,,,,,,,,,,,,,,,,,,,,,,,,,,,,,,,,,,,,,,,,,,,,,,13676,2022-12-02_14h54.06.036,vts_reward_expectancy_bt_OFFLINE,2022.2.4,59.93063509894357,
1,0,0,0,0,1,0,0,triangle,circle,1,0,1,0,0,10,10,0,,,,,,,,,,,,,,,,,,,,,,,,,,,,,,,,,,,,,,,,1176.7028482689639,1176.7028482689639,1176.7028482689639,1176.7028482689639,1176.7028482689639,1176.7028482689639,1176.7028482689639,1176.7028482689639,1176.7028482689639,1176.7028482689639,l,0.6239877180196345,10,401,1,1177.3536267989548,1178.8555502329837,,,,,,,,,,,,,,,,,,,,,,,,,,,,,,,,,,,,,,,,,,,,,,,,,,,,,,,,,,,,,,,,,,,,,,,,,,,13676,2022-12-02_14h54.06.036,vts_reward_expectancy_bt_OFFLINE,2022.2.4,59.93063509894357,
0,1,0,0,0,0,0,1,circle,star,1,0,1,0,0,11,11,5,,,,,,,,,,,,,,,,,,,,,,,,,,,,,,,,,,,,,,,,1179.3560732449987,1179.3560732449987,1179.3560732449987,1179.3560732449987,1179.3560732449987,1179.3560732449987,1179.3560732449987,1179.3560732449987,1179.3560732449987,1179.3560732449987,a,0.44341354904463515,1,402,1,1179.8231402919628,1181.324751018954,,,,,,,,,,,,,,,,,,,,,,,,,,,,,,,,,,,,,,,,,,,,,,,,,,,,,,,,,,,,,,,,,,,,,,,,,,,13676,2022-12-02_14h54.06.036,vts_reward_expectancy_bt_OFFLINE,2022.2.4,59.93063509894357,
1,0,0,0,0,0,1,0,triangle,hexagon,1,0,1,0,1,0,12,1,,,,,,,,,,,,,,,,,,,,,,,,,,,,,,,,,,,,,,,,1181.825223118998,1181.825223118998,1181.825223118998,1181.825223118998,1181.825223118998,1181.825223118998,1181.825223118998,1181.825223118998,1181.825223118998,1181.825223118998,l,0.5014625130570494,10,412,1,1182.359226199973,1183.860859184002,,,,,,,,,,,,,,,,,,,,,,,,,,,,,,,,,,,,,,,,,,,,,,,,,,,,,,,,,,,,,,,,,,,,,,,,,,,13676,2022-12-02_14h54.06.036,vts_reward_expectancy_bt_OFFLINE,2022.2.4,59.93063509894357,
0,0,1,0,1,0,0,0,hexagon,triangle,1,0,1,0,1,1,13,6,,,,,,,,,,,,,,,,,,,,,,,,,,,,,,,,,,,,,,,,1184.3615189199918,1184.3615189199918,1184.3615189199918,1184.3615189199918,1184.3615189199918,1184.3615189199918,1184.3615189199918,1184.3615189199918,1184.3615189199918,1184.3615189199918,l,1.9749604250537232,10,422,1,1186.3637206709827,1187.8653958140058,,,,,,,,,,,,,,,,,,,,,,,,,,,,,,,,,,,,,,,,,,,,,,,,,,,,,,,,,,,,,,,,,,,,,,,,,,,13676,2022-12-02_14h54.06.036,vts_reward_expectancy_bt_OFFLINE,2022.2.4,59.93063509894357,
0,0,1,0,0,1,0,0,hexagon,circle,1,0,1,0,1,2,14,7,,,,,,,,,,,,,,,,,,,,,,,,,,,,,,,,,,,,,,,,1188.3657495519728,1188.3657495519728,1188.3657495519728,1188.3657495519728,1188.3657495519728,1188.3657495519728,1188.3657495519728,1188.3657495519728,1188.3657495519728,1188.3657495519728,a,0.5930072009796277,10,432,1,1188.9831308730063,1190.4847326569725,,,,,,,,,,,,,,,,,,,,,,,,,,,,,,,,,,,,,,,,,,,,,,,,,,,,,,,,,,,,,,,,,,,,,,,,,,,13676,2022-12-02_14h54.06.036,vts_reward_expectancy_bt_OFFLINE,2022.2.4,59.93063509894357,
0,0,0,1,0,0,1,0,star,hexagon,1,0,1,0,1,3,15,11,,,,,,,,,,,,,,,,,,,,,,,,,,,,,,,,,,,,,,,,1190.9853945539799,1190.9853945539799,1190.9853945539799,1190.9853945539799,1190.9853945539799,1190.9853945539799,1190.9853945539799,1190.9853945539799,1190.9853945539799,1190.9853945539799,a,0.5511756860068999,10,442,1,1191.5692952799727,1193.0710457100067,,,,,,,,,,,,,,,,,,,,,,,,,,,,,,,,,,,,,,,,,,,,,,,,,,,,,,,,,,,,,,,,,,,,,,,,,,,13676,2022-12-02_14h54.06.036,vts_reward_expectancy_bt_OFFLINE,2022.2.4,59.93063509894357,
0,0,0,1,0,1,0,0,star ,circle,1,0,1,0,1,4,16,10,,,,,,,,,,,,,,,,,,,,,,,,,,,,,,,,,,,,,,,,1193.5716677579912,1193.5716677579912,1193.5716677579912,1193.5716677579912,1193.5716677579912,1193.5716677579912,1193.5716677579912,1193.5716677579912,1193.5716677579912,1193.5716677579912,a,0.41108129505300894,10,452,1,1194.0053919079946,1195.507001060003,,,,,,,,,,,,,,,,,,,,,,,,,,,,,,,,,,,,,,,,,,,,,,,,,,,,,,,,,,,,,,,,,,,,,,,,,,,13676,2022-12-02_14h54.06.036,vts_reward_expectancy_bt_OFFLINE,2022.2.4,59.93063509894357,
1,0,0,0,0,0,0,1,triangle,star,1,0,1,0,1,5,17,2,,,,,,,,,,,,,,,,,,,,,,,,,,,,,,,,,,,,,,,,1196.007646434009,1196.007646434009,1196.007646434009,1196.007646434009,1196.007646434009,1196.007646434009,1196.007646434009,1196.007646434009,1196.007646434009,1196.007646434009,l,0.5916835840325803,10,462,1,1196.6249277739553,1198.126587006962,,,,,,,,,,,,,,,,,,,,,,,,,,,,,,,,,,,,,,,,,,,,,,,,,,,,,,,,,,,,,,,,,,,,,,,,,,,13676,2022-12-02_14h54.06.036,vts_reward_expectancy_bt_OFFLINE,2022.2.4,59.93063509894357,
1,0,0,0,0,1,0,0,triangle,circle,1,0,1,0,1,6,18,0,,,,,,,,,,,,,,,,,,,,,,,,,,,,,,,,,,,,,,,,1198.6270922640106,1198.6270922640106,1198.6270922640106,1198.6270922640106,1198.6270922640106,1198.6270922640106,1198.6270922640106,1198.6270922640106,1198.6270922640106,1198.6270922640106,a,0.5658043820294552,1,463,1,1199.2114139189944,1200.7129162100027,,,,,,,,,,,,,,,,,,,,,,,,,,,,,,,,,,,,,,,,,,,,,,,,,,,,,,,,,,,,,,,,,,,,,,,,,,,13676,2022-12-02_14h54.06.036,vts_reward_expectancy_bt_OFFLINE,2022.2.4,59.93063509894357,
0,0,0,1,1,0,0,0,star,triangle,1,0,1,0,1,7,19,9,,,,,,,,,,,,,,,,,,,,,,,,,,,,,,,,,,,,,,,,1201.2132717510103,1201.2132717510103,1201.2132717510103,1201.2132717510103,1201.2132717510103,1201.2132717510103,1201.2132717510103,1201.2132717510103,1201.2132717510103,1201.2132717510103,l,0.3060623890487477,1,464,1,1201.547047422966,1203.048937448999,,,,,,,,,,,,,,,,,,,,,,,,,,,,,,,,,,,,,,,,,,,,,,,,,,,,,,,,,,,,,,,,,,,,,,,,,,,13676,2022-12-02_14h54.06.036,vts_reward_expectancy_bt_OFFLINE,2022.2.4,59.93063509894357,
0,0,1,0,0,0,0,1,hexagon,star,1,0,1,0,1,8,20,8,,,,,,,,,,,,,,,,,,,,,,,,,,,,,,,,,,,,,,,,1203.5493532450055,1203.5493532450055,1203.5493532450055,1203.5493532450055,1203.5493532450055,1203.5493532450055,1203.5493532450055,1203.5493532450055,1203.5493532450055,1203.5493532450055,l,0.45827796502271667,1,465,1,1204.0332084340043,1205.534737312002,,,,,,,,,,,,,,,,,,,,,,,,,,,,,,,,,,,,,,,,,,,,,,,,,,,,,,,,,,,,,,,,,,,,,,,,,,,13676,2022-12-02_14h54.06.036,vts_reward_expectancy_bt_OFFLINE,2022.2.4,59.93063509894357,
0,1,0,0,0,0,1,0,circle,hexagon,1,0,1,0,1,9,21,4,,,,,,,,,,,,,,,,,,,,,,,,,,,,,,,,,,,,,,,,1206.0355202299543,1206.0355202299543,1206.0355202299543,1206.0355202299543,1206.0355202299543,1206.0355202299543,1206.0355202299543,1206.0355202299543,1206.0355202299543,1206.0355202299543,a,0.40345807903213426,1,466,1,1206.4691384109901,1207.970836212975,,,,,,,,,,,,,,,,,,,,,,,,,,,,,,,,,,,,,,,,,,,,,,,,,,,,,,,,,,,,,,,,,,,,,,,,,,,13676,2022-12-02_14h54.06.036,vts_reward_expectancy_bt_OFFLINE,2022.2.4,59.93063509894357,
0,1,0,0,1,0,0,0,circle,triangle,1,0,1,0,1,10,22,3,,,,,,,,,,,,,,,,,,,,,,,,,,,,,,,,,,,,,,,,1208.4716331259697,1208.4716331259697,1208.4716331259697,1208.4716331259697,1208.4716331259697,1208.4716331259697,1208.4716331259697,1208.4716331259697,1208.4716331259697,1208.4716331259697,l,0.6079260680126026,1,467,1,1209.1055884739617,1210.6069516330026,,,,,,,,,,,,,,,,,,,,,,,,,,,,,,,,,,,,,,,,,,,,,,,,,,,,,,,,,,,,,,,,,,,,,,,,,,,13676,2022-12-02_14h54.06.036,vts_reward_expectancy_bt_OFFLINE,2022.2.4,59.93063509894357,
0,1,0,0,0,0,0,1,circle,star,1,0,1,0,1,11,23,5,,,,,,,,,,,,,,,,,,,,,,,,,,,,,,,,,,,,,,,,1211.1076332269586,1211.1076332269586,1211.1076332269586,1211.1076332269586,1211.1076332269586,1211.1076332269586,1211.1076332269586,1211.1076332269586,1211.1076332269586,1211.1076332269586,a,0.4119205520255491,10,477,1,1211.5414642719552,1213.0433569189627,,,,,,,,,,,,,,,,,,,,,,,,,,,,,,,,,,,,,,,,,,,,,,,,,,,,,,,,,,,,,,,,,,,,,,,,,,,13676,2022-12-02_14h54.06.036,vts_reward_expectancy_bt_OFFLINE,2022.2.4,59.93063509894357,
0,0,0,1,1,0,0,0,star,triangle,1,0,1,0,2,0,24,9,,,,,,,,,,,,,,,,,,,,,,,,,,,,,,,,,,,,,,,,1213.543615409988,1213.543615409988,1213.543615409988,1213.543615409988,1213.543615409988,1213.543615409988,1213.543615409988,1213.543615409988,1213.543615409988,1213.543615409988,a,0.5684094470343553,10,487,1,1214.1442986929906,1215.6457728960086,,,,,,,,,,,,,,,,,,,,,,,,,,,,,,,,,,,,,,,,,,,,,,,,,,,,,,,,,,,,,,,,,,,,,,,,,,,13676,2022-12-02_14h54.06.036,vts_reward_expectancy_bt_OFFLINE,2022.2.4,59.93063509894357,
1,0,0,0,0,1,0,0,triangle,circle,1,0,1,0,2,1,25,0,,,,,,,,,,,,,,,,,,,,,,,,,,,,,,,,,,,,,,,,1216.1464837219683,1216.1464837219683,1216.1464837219683,1216.1464837219683,1216.1464837219683,1216.1464837219683,1216.1464837219683,1216.1464837219683,1216.1464837219683,1216.1464837219683,a,1.9250152970198542,10,497,1,1218.0986856360105,1219.6002666789573,,,,,,,,,,,,,,,,,,,,,,,,,,,,,,,,,,,,,,,,,,,,,,,,,,,,,,,,,,,,,,,,,,,,,,,,,,,13676,2022-12-02_14h54.06.036,vts_reward_expectancy_bt_OFFLINE,2022.2.4,59.93063509894357,
0,0,0,1,0,1,0,0,star ,circle,1,0,1,0,2,2,26,10,,,,,,,,,,,,,,,,,,,,,,,,,,,,,,,,,,,,,,,,1220.1007738980115,1220.1007738980115,1220.1007738980115,1220.1007738980115,1220.1007738980115,1220.1007738980115,1220.1007738980115,1220.1007738980115,1220.1007738980115,1220.1007738980115,l,1.546836088062264,10,507,1,1221.6693431489985,1223.1708919229568,,,,,,,,,,,,,,,,,,,,,,,,,,,,,,,,,,,,,,,,,,,,,,,,,,,,,,,,,,,,,,,,,,,,,,,,,,,13676,2022-12-02_14h54.06.036,vts_reward_expectancy_bt_OFFLINE,2022.2.4,59.93063509894357,
0,0,1,0,0,1,0,0,hexagon,circle,1,0,1,0,2,3,27,7,,,,,,,,,,,,,,,,,,,,,,,,,,,,,,,,,,,,,,,,1223.6715940120048,1223.6715940120048,1223.6715940120048,1223.6715940120048,1223.6715940120048,1223.6715940120048,1223.6715940120048,1223.6715940120048,1223.6715940120048,1223.6715940120048,l,1.7029496870236471,1,508,1,1225.406690542004,1226.9083441039547,,,,,,,,,,,,,,,,,,,,,,,,,,,,,,,,,,,,,,,,,,,,,,,,,,,,,,,,,,,,,,,,,,,,,,,,,,,13676,2022-12-02_14h54.06.036,vts_reward_expectancy_bt_OFFLINE,2022.2.4,59.93063509894357,
0,0,1,0,0,0,0,1,hexagon,star,1,0,1,0,2,4,28,8,,,,,,,,,,,,,,,,,,,,,,,,,,,,,,,,,,,,,,,,1227.409132683999,1227.409132683999,1227.409132683999,1227.409132683999,1227.409132683999,1227.409132683999,1227.409132683999,1227.409132683999,1227.409132683999,1227.409132683999,a,1.5743465150007978,1,509,1,1229.0108326050104,1230.5121965199942,,,,,,,,,,,,,,,,,,,,,,,,,,,,,,,,,,,,,,,,,,,,,,,,,,,,,,,,,,,,,,,,,,,,,,,,,,,13676,2022-12-02_14h54.06.036,vts_reward_expectancy_bt_OFFLINE,2022.2.4,59.93063509894357,
0,0,1,0,1,0,0,0,hexagon,triangle,1,0,1,0,2,5,29,6,,,,,,,,,,,,,,,,,,,,,,,,,,,,,,,,,,,,,,,,1231.0127823000075,1231.0127823000075,1231.0127823000075,1231.0127823000075,1231.0127823000075,1231.0127823000075,1231.0127823000075,1231.0127823000075,1231.0127823000075,1231.0127823000075,a,1.137826423975639,1,510,1,1232.1808519809856,1233.6823347539757,,,,,,,,,,,,,,,,,,,,,,,,,,,,,,,,,,,,,,,,,,,,,,,,,,,,,,,,,,,,,,,,,,,,,,,,,,,13676,2022-12-02_14h54.06.036,vts_reward_expectancy_bt_OFFLINE,2022.2.4,59.93063509894357,
1,0,0,0,0,0,1,0,triangle,hexagon,1,0,1,0,2,6,30,1,,,,,,,,,,,,,,,,,,,,,,,,,,,,,,,,,,,,,,,,1234.1829696729546,1234.1829696729546,1234.1829696729546,1234.1829696729546,1234.1829696729546,1234.1829696729546,1234.1829696729546,1234.1829696729546,1234.1829696729546,1234.1829696729546,a,0.9035042030154727,10,520,1,1235.1168050289853,1236.61885153997,,,,,,,,,,,,,,,,,,,,,,,,,,,,,,,,,,,,,,,,,,,,,,,,,,,,,,,,,,,,,,,,,,,,,,,,,,,13676,2022-12-02_14h54.06.036,vts_reward_expectancy_bt_OFFLINE,2022.2.4,59.93063509894357,
1,0,0,0,0,0,0,1,triangle,star,1,0,1,0,2,7,31,2,,,,,,,,,,,,,,,,,,,,,,,,,,,,,,,,,,,,,,,,1237.1194811270107,1237.1194811270107,1237.1194811270107,1237.1194811270107,1237.1194811270107,1237.1194811270107,1237.1194811270107,1237.1194811270107,1237.1194811270107,1237.1194811270107,l,1.4154752290342003,1,521,1,1238.5544981489656,1240.0562201759894,,,,,,,,,,,,,,,,,,,,,,,,,,,,,,,,,,,,,,,,,,,,,,,,,,,,,,,,,,,,,,,,,,,,,,,,,,,13676,2022-12-02_14h54.06.036,vts_reward_expectancy_bt_OFFLINE,2022.2.4,59.93063509894357,
0,1,0,0,0,0,1,0,circle,hexagon,1,0,1,0,2,8,32,4,,,,,,,,,,,,,,,,,,,,,,,,,,,,,,,,,,,,,,,,1240.5568532659672,1240.5568532659672,1240.5568532659672,1240.5568532659672,1240.5568532659672,1240.5568532659672,1240.5568532659672,1240.5568532659672,1240.5568532659672,1240.5568532659672,a,0.39406254701316357,10,531,1,1240.9740105679957,1242.4759517599596,,,,,,,,,,,,,,,,,,,,,,,,,,,,,,,,,,,,,,,,,,,,,,,,,,,,,,,,,,,,,,,,,,,,,,,,,,,13676,2022-12-02_14h54.06.036,vts_reward_expectancy_bt_OFFLINE,2022.2.4,59.93063509894357,
0,1,0,0,1,0,0,0,circle,triangle,1,0,1,0,2,9,33,3,,,,,,,,,,,,,,,,,,,,,,,,,,,,,,,,,,,,,,,,1242.976048282988,1242.976048282988,1242.976048282988,1242.976048282988,1242.976048282988,1242.976048282988,1242.976048282988,1242.976048282988,1242.976048282988,1242.976048282988,a,0.5346833639778197,10,541,1,1243.5434736770112,1245.045031105983,,,,,,,,,,,,,,,,,,,,,,,,,,,,,,,,,,,,,,,,,,,,,,,,,,,,,,,,,,,,,,,,,,,,,,,,,,,13676,2022-12-02_14h54.06.036,vts_reward_expectancy_bt_OFFLINE,2022.2.4,59.93063509894357,
0,0,0,1,0,0,1,0,star,hexagon,1,0,1,0,2,10,34,11,,,,,,,,,,,,,,,,,,,,,,,,,,,,,,,,,,,,,,,,1245.5455997419776,1245.5455997419776,1245.5455997419776,1245.5455997419776,1245.5455997419776,1245.5455997419776,1245.5455997419776,1245.5455997419776,1245.5455997419776,1245.5455997419776,a,1.1907733700354584,1,542,1,1246.7637109829811,1248.2653374139918,,,,,,,,,,,,,,,,,,,,,,,,,,,,,,,,,,,,,,,,,,,,,,,,,,,,,,,,,,,,,,,,,,,,,,,,,,,13676,2022-12-02_14h54.06.036,vts_reward_expectancy_bt_OFFLINE,2022.2.4,59.93063509894357,
0,1,0,0,0,0,0,1,circle,star,1,0,1,0,2,11,35,5,,,,,,,,,,,,,,,,,,,,,,,,,,,,,,,,,,,,,,,,1248.7660476900055,1248.7660476900055,1248.7660476900055,1248.7660476900055,1248.7660476900055,1248.7660476900055,1248.7660476900055,1248.7660476900055,1248.7660476900055,1248.7660476900055,l,1.113476728030946,10,552,1,1249.9003805950051,1251.402087941009,,,,,,,,,,,,,,,,,,,,,,,,,,,,,,,,,,,,,,,,,,,,,,,,,,,,,,,,,,,,,,,,,,,,,,,,,,,13676,2022-12-02_14h54.06.036,vts_reward_expectancy_bt_OFFLINE,2022.2.4,59.93063509894357,
0,0,0,1,0,1,0,0,star ,circle,1,0,1,0,3,0,36,10,,,,,,,,,,,,,,,,,,,,,,,,,,,,,,,,,,,,,,,,1251.902575983957,1251.902575983957,1251.902575983957,1251.902575983957,1251.902575983957,1251.902575983957,1251.902575983957,1251.902575983957,1251.902575983957,1251.902575983957,a,1.4643372340360656,10,562,1,1253.3876330329804,1254.888961849967,,,,,,,,,,,,,,,,,,,,,,,,,,,,,,,,,,,,,,,,,,,,,,,,,,,,,,,,,,,,,,,,,,,,,,,,,,,13676,2022-12-02_14h54.06.036,vts_reward_expectancy_bt_OFFLINE,2022.2.4,59.93063509894357,
0,0,1,0,1,0,0,0,hexagon,triangle,1,0,1,0,3,1,37,6,,,,,,,,,,,,,,,,,,,,,,,,,,,,,,,,,,,,,,,,1255.3897315369686,1255.3897315369686,1255.3897315369686,1255.3897315369686,1255.3897315369686,1255.3897315369686,1255.3897315369686,1255.3897315369686,1255.3897315369686,1255.3897315369686,a,2.202784490014892,10,572,1,1257.6088053240092,1259.1104821449844,,,,,,,,,,,,,,,,,,,,,,,,,,,,,,,,,,,,,,,,,,,,,,,,,,,,,,,,,,,,,,,,,,,,,,,,,,,13676,2022-12-02_14h54.06.036,vts_reward_expectancy_bt_OFFLINE,2022.2.4,59.93063509894357,
0,0,1,0,0,1,0,0,hexagon,circle,1,0,1,0,3,2,38,7,,,,,,,,,,,,,,,,,,,,,,,,,,,,,,,,,,,,,,,,1259.6113691710052,1259.6113691710052,1259.6113691710052,1259.6113691710052,1259.6113691710052,1259.6113691710052,1259.6113691710052,1259.6113691710052,1259.6113691710052,1259.6113691710052,a,1.5475741200498305,10,582,1,1261.179465706984,1262.6812738119625,,,,,,,,,,,,,,,,,,,,,,,,,,,,,,,,,,,,,,,,,,,,,,,,,,,,,,,,,,,,,,,,,,,,,,,,,,,13676,2022-12-02_14h54.06.036,vts_reward_expectancy_bt_OFFLINE,2022.2.4,59.93063509894357,
0,1,0,0,0,0,0,1,circle,star,1,0,1,0,3,3,39,5,,,,,,,,,,,,,,,,,,,,,,,,,,,,,,,,,,,,,,,,1263.1816900320118,1263.1816900320118,1263.1816900320118,1263.1816900320118,1263.1816900320118,1263.1816900320118,1263.1816900320118,1263.1816900320118,1263.1816900320118,1263.1816900320118,l,1.2745591329876333,10,592,1,1264.4831204150105,1265.984773493954,,,,,,,,,,,,,,,,,,,,,,,,,,,,,,,,,,,,,,,,,,,,,,,,,,,,,,,,,,,,,,,,,,,,,,,,,,,13676,2022-12-02_14h54.06.036,vts_reward_expectancy_bt_OFFLINE,2022.2.4,59.93063509894357,
1,0,0,0,0,1,0,0,triangle,circle,1,0,1,0,3,4,40,0,,,,,,,,,,,,,,,,,,,,,,,,,,,,,,,,,,,,,,,,1266.485386227956,1266.485386227956,1266.485386227956,1266.485386227956,1266.485386227956,1266.485386227956,1266.485386227956,1266.485386227956,1266.485386227956,1266.485386227956,a,0.6181090570171364,1,593,1,1267.1360054920078,1268.6376909289975,,,,,,,,,,,,,,,,,,,,,,,,,,,,,,,,,,,,,,,,,,,,,,,,,,,,,,,,,,,,,,,,,,,,,,,,,,,13676,2022-12-02_14h54.06.036,vts_reward_expectancy_bt_OFFLINE,2022.2.4,59.93063509894357,
0,0,0,1,0,0,1,0,star,hexagon,1,0,1,0,3,5,41,11,,,,,,,,,,,,,,,,,,,,,,,,,,,,,,,,,,,,,,,,1269.138283488981,1269.138283488981,1269.138283488981,1269.138283488981,1269.138283488981,1269.138283488981,1269.138283488981,1269.138283488981,1269.138283488981,1269.138283488981,l,0.5251493340474553,10,603,1,1269.6890312120086,1271.190497841977,,,,,,,,,,,,,,,,,,,,,,,,,,,,,,,,,,,,,,,,,,,,,,,,,,,,,,,,,,,,,,,,,,,,,,,,,,,13676,2022-12-02_14h54.06.036,vts_reward_expectancy_bt_OFFLINE,2022.2.4,59.93063509894357,
0,1,0,0,1,0,0,0,circle,triangle,1,0,1,0,3,6,42,3,,,,,,,,,,,,,,,,,,,,,,,,,,,,,,,,,,,,,,,,1271.6910246539628,1271.6910246539628,1271.6910246539628,1271.6910246539628,1271.6910246539628,1271.6910246539628,1271.6910246539628,1271.6910246539628,1271.6910246539628,1271.6910246539628,l,1.8914925870485604,1,604,1,1273.6099567679921,1275.1115370459738,,,,,,,,,,,,,,,,,,,,,,,,,,,,,,,,,,,,,,,,,,,,,,,,,,,,,,,,,,,,,,,,,,,,,,,,,,,13676,2022-12-02_14h54.06.036,vts_reward_expectancy_bt_OFFLINE,2022.2.4,59.93063509894357,
0,0,0,1,1,0,0,0,star,triangle,1,0,1,0,3,7,43,9,,,,,,,,,,,,,,,,,,,,,,,,,,,,,,,,,,,,,,,,1275.6120276029687,1275.6120276029687,1275.6120276029687,1275.6120276029687,1275.6120276029687,1275.6120276029687,1275.6120276029687,1275.6120276029687,1275.6120276029687,1275.6120276029687,a,1.5786591159994714,10,614,1,1277.2138903799932,1278.7154609370045,,,,,,,,,,,,,,,,,,,,,,,,,,,,,,,,,,,,,,,,,,,,,,,,,,,,,,,,,,,,,,,,,,,,,,,,,,,13676,2022-12-02_14h54.06.036,vts_reward_expectancy_bt_OFFLINE,2022.2.4,59.93063509894357,
0,0,1,0,0,0,0,1,hexagon,star,1,0,1,0,3,8,44,8,,,,,,,,,,,,,,,,,,,,,,,,,,,,,,,,,,,,,,,,1279.2159100869903,1279.2159100869903,1279.2159100869903,1279.2159100869903,1279.2159100869903,1279.2159100869903,1279.2159100869903,1279.2159100869903,1279.2159100869903,1279.2159100869903,a,5.273037281061988,1,615,1,1284.5054451379692,1286.007237354992,1286.007237354992,,,,,,,,,,,,,,,,,,,,,,,,,,,,,,,,,,,,,,,,,,,,,,,,,,,,,,,,,,,,,,,,,,,,,,,,,,13676,2022-12-02_14h54.06.036,vts_reward_expectancy_bt_OFFLINE,2022.2.4,59.93063509894357,
1,0,0,0,0,0,0,1,triangle,star,1,0,1,0,3,9,45,2,,,,,,,,,,,,,,,,,,,,,,,,,,,,,,,,,,,,,,,,1286.507413188985,1286.507413188985,1286.507413188985,1286.507413188985,1286.507413188985,1286.507413188985,1286.507413188985,1286.507413188985,1286.507413188985,1286.507413188985,l,0.4113789030816406,10,625,1,1286.941238244006,1288.4427917819703,,,,,,,,,,,,,,,,,,,,,,,,,,,,,,,,,,,,,,,,,,,,,,,,,,,,,,,,,,,,,,,,,,,,,,,,,,,13676,2022-12-02_14h54.06.036,vts_reward_expectancy_bt_OFFLINE,2022.2.4,59.93063509894357,
0,1,0,0,0,0,1,0,circle,hexagon,1,0,1,0,3,10,46,4,,,,,,,,,,,,,,,,,,,,,,,,,,,,,,,,,,,,,,,,1288.9433927650098,1288.9433927650098,1288.9433927650098,1288.9433927650098,1288.9433927650098,1288.9433927650098,1288.9433927650098,1288.9433927650098,1288.9433927650098,1288.9433927650098,a,0.3516718400060199,10,635,1,1289.3261244279565,1290.8289456939674,,,,,,,,,,,,,,,,,,,,,,,,,,,,,,,,,,,,,,,,,,,,,,,,,,,,,,,,,,,,,,,,,,,,,,,,,,,13676,2022-12-02_14h54.06.036,vts_reward_expectancy_bt_OFFLINE,2022.2.4,59.93063509894357,
1,0,0,0,0,0,1,0,triangle,hexagon,1,0,1,0,3,11,47,1,,,,,,,,,,,,,,,,,,,,,,,,,,,,,,,,,,,,,,,,1291.3293592649861,1291.3293592649861,1291.3293592649861,1291.3293592649861,1291.3293592649861,1291.3293592649861,1291.3293592649861,1291.3293592649861,1291.3293592649861,1291.3293592649861,l,0.35107548104133457,1,636,1,1291.7133689589682,1293.214730091975,,,,,,,,,,,,,,,,,,,,,,,,,,,,,,,,,,,,,,,,,,,,,,,,,,,,,,,,,,,,,,,,,,,,,,,,,,,13676,2022-12-02_14h54.06.036,vts_reward_expectancy_bt_OFFLINE,2022.2.4,59.93063509894357,
0,0,1,0,0,1,0,0,hexagon,circle,2,0,2,0,0,0,0,7,,,,,,,,,,,,,,,,,,,,,,,,,,,,,,,,,,,,,,,,1296.3401501369663,1296.3401501369663,1296.3401501369663,1296.3401501369663,1296.3401501369663,1296.3401501369663,1296.3401501369663,1296.3401501369663,1296.3401501369663,1296.3401501369663,a,1.107474156015087,1,637,2,1297.4695649329806,1298.9711556530092,,,,,,,,,,,,,,,,,,,,,,,,,,,,,,,,,,,,,,,,,,,,,,,,,,,,,,,,,,,,,,,,,,,,,,,,,,,13676,2022-12-02_14h54.06.036,vts_reward_expectancy_bt_OFFLINE,2022.2.4,59.93063509894357,
1,0,0,0,0,0,1,0,triangle,hexagon,2,0,2,0,0,1,1,1,,,,,,,,,,,,,,,,,,,,,,,,,,,,,,,,,,,,,,,,1299.47171260498,1299.47171260498,1299.47171260498,1299.47171260498,1299.47171260498,1299.47171260498,1299.47171260498,1299.47171260498,1299.47171260498,1299.47171260498,a,3.415797855006531,10,647,2,1302.9088996009668,1304.4104828549898,,,,,,,,,,,,,,,,,,,,,,,,,,,,,,,,,,,,,,,,,,,,,,,,,,,,,,,,,,,,,,,,,,,,,,,,,,,13676,2022-12-02_14h54.06.036,vts_reward_expectancy_bt_OFFLINE,2022.2.4,59.93063509894357,
0,0,1,0,1,0,0,0,hexagon,triangle,2,0,2,0,0,2,2,6,,,,,,,,,,,,,,,,,,,,,,,,,,,,,,,,,,,,,,,,1304.9111851140042,1304.9111851140042,1304.9111851140042,1304.9111851140042,1304.9111851140042,1304.9111851140042,1304.9111851140042,1304.9111851140042,1304.9111851140042,1304.9111851140042,l,1.6164478700375184,10,657,2,1306.546278082009,1308.0479537500069,,,,,,,,,,,,,,,,,,,,,,,,,,,,,,,,,,,,,,,,,,,,,,,,,,,,,,,,,,,,,,,,,,,,,,,,,,,13676,2022-12-02_14h54.06.036,vts_reward_expectancy_bt_OFFLINE,2022.2.4,59.93063509894357,
0,1,0,0,0,0,1,0,circle,hexagon,2,0,2,0,0,3,3,4,,,,,,,,,,,,,,,,,,,,,,,,,,,,,,,,,,,,,,,,1308.54845474998,1308.54845474998,1308.54845474998,1308.54845474998,1308.54845474998,1308.54845474998,1308.54845474998,1308.54845474998,1308.54845474998,1308.54845474998,a,2.5145618630340323,1,658,2,1311.0846494369907,1312.5864027809585,,,,,,,,,,,,,,,,,,,,,,,,,,,,,,,,,,,,,,,,,,,,,,,,,,,,,,,,,,,,,,,,,,,,,,,,,,,13676,2022-12-02_14h54.06.036,vts_reward_expectancy_bt_OFFLINE,2022.2.4,59.93063509894357,
1,0,0,0,0,1,0,0,triangle,circle,2,0,2,0,0,4,4,0,,,,,,,,,,,,,,,,,,,,,,,,,,,,,,,,,,,,,,,,1313.0867556039593,1313.0867556039593,1313.0867556039593,1313.0867556039593,1313.0867556039593,1313.0867556039593,1313.0867556039593,1313.0867556039593,1313.0867556039593,1313.0867556039593,a,1.7769607530208305,10,668,2,1314.8886340329773,1316.3905842640088,,,,,,,,,,,,,,,,,,,,,,,,,,,,,,,,,,,,,,,,,,,,,,,,,,,,,,,,,,,,,,,,,,,,,,,,,,,13676,2022-12-02_14h54.06.036,vts_reward_expectancy_bt_OFFLINE,2022.2.4,59.93063509894357,
1,0,0,0,0,0,0,1,triangle,star,2,0,2,0,0,5,5,2,,,,,,,,,,,,,,,,,,,,,,,,,,,,,,,,,,,,,,,,1316.8910289069754,1316.8910289069754,1316.8910289069754,1316.8910289069754,1316.8910289069754,1316.8910289069754,1316.8910289069754,1316.8910289069754,1316.8910289069754,1316.8910289069754,a,2.26933383702999,10,678,2,1319.1767944699968,1320.6784662230057,,,,,,,,,,,,,,,,,,,,,,,,,,,,,,,,,,,,,,,,,,,,,,,,,,,,,,,,,,,,,,,,,,,,,,,,,,,13676,2022-12-02_14h54.06.036,vts_reward_expectancy_bt_OFFLINE,2022.2.4,59.93063509894357,
0,1,0,0,1,0,0,0,circle,triangle,2,0,2,0,0,6,6,3,,,,,,,,,,,,,,,,,,,,,,,,,,,,,,,,,,,,,,,,1321.1790511370054,1321.1790511370054,1321.1790511370054,1321.1790511370054,1321.1790511370054,1321.1790511370054,1321.1790511370054,1321.1790511370054,1321.1790511370054,1321.1790511370054,l,1.5802325420663692,1,679,2,1322.7809801559779,1324.2826298499713,,,,,,,,,,,,,,,,,,,,,,,,,,,,,,,,,,,,,,,,,,,,,,,,,,,,,,,,,,,,,,,,,,,,,,,,,,,13676,2022-12-02_14h54.06.036,vts_reward_expectancy_bt_OFFLINE,2022.2.4,59.93063509894357,
0,0,1,0,0,0,0,1,hexagon,star,2,0,2,0,0,7,7,8,,,,,,,,,,,,,,,,,,,,,,,,,,,,,,,,,,,,,,,,1324.783020109986,1324.783020109986,1324.783020109986,1324.783020109986,1324.783020109986,1324.783020109986,1324.783020109986,1324.783020109986,1324.783020109986,1324.783020109986,a,0.9608064630301669,1,680,2,1325.7673749699607,1327.268969237979,,,,,,,,,,,,,,,,,,,,,,,,,,,,,,,,,,,,,,,,,,,,,,,,,,,,,,,,,,,,,,,,,,,,,,,,,,,13676,2022-12-02_14h54.06.036,vts_reward_expectancy_bt_OFFLINE,2022.2.4,59.93063509894357,
0,1,0,0,0,0,0,1,circle,star,2,0,2,0,0,8,8,5,,,,,,,,,,,,,,,,,,,,,,,,,,,,,,,,,,,,,,,,1327.7695772369625,1327.7695772369625,1327.7695772369625,1327.7695772369625,1327.7695772369625,1327.7695772369625,1327.7695772369625,1327.7695772369625,1327.7695772369625,1327.7695772369625,l,0.3413172250147909,10,690,2,1328.1367865909706,1329.6383454239694,,,,,,,,,,,,,,,,,,,,,,,,,,,,,,,,,,,,,,,,,,,,,,,,,,,,,,,,,,,,,,,,,,,,,,,,,,,13676,2022-12-02_14h54.06.036,vts_reward_expectancy_bt_OFFLINE,2022.2.4,59.93063509894357,
0,0,0,1,0,1,0,0,star ,circle,2,0,2,0,0,9,9,10,,,,,,,,,,,,,,,,,,,,,,,,,,,,,,,,,,,,,,,,1330.1391219999641,1330.1391219999641,1330.1391219999641,1330.1391219999641,1330.1391219999641,1330.1391219999641,1330.1391219999641,1330.1391219999641,1330.1391219999641,1330.1391219999641,a,0.8521803210605867,10,700,2,1331.0231700579752,1332.524851561,,,,,,,,,,,,,,,,,,,,,,,,,,,,,,,,,,,,,,,,,,,,,,,,,,,,,,,,,,,,,,,,,,,,,,,,,,,13676,2022-12-02_14h54.06.036,vts_reward_expectancy_bt_OFFLINE,2022.2.4,59.93063509894357,
0,0,0,1,0,0,1,0,star,hexagon,2,0,2,0,0,10,10,11,,,,,,,,,,,,,,,,,,,,,,,,,,,,,,,,,,,,,,,,1333.0254439329728,1333.0254439329728,1333.0254439329728,1333.0254439329728,1333.0254439329728,1333.0254439329728,1333.0254439329728,1333.0254439329728,1333.0254439329728,1333.0254439329728,l,3.693826392001938,1,701,2,1336.7462855529739,1338.2478025659802,,,,,,,,,,,,,,,,,,,,,,,,,,,,,,,,,,,,,,,,,,,,,,,,,,,,,,,,,,,,,,,,,,,,,,,,,,,13676,2022-12-02_14h54.06.036,vts_reward_expectancy_bt_OFFLINE,2022.2.4,59.93063509894357,
0,0,0,1,1,0,0,0,star,triangle,2,0,2,0,0,11,11,9,,,,,,,,,,,,,,,,,,,,,,,,,,,,,,,,,,,,,,,,1338.74839177198,1338.74839177198,1338.74839177198,1338.74839177198,1338.74839177198,1338.74839177198,1338.74839177198,1338.74839177198,1338.74839177198,1338.74839177198,a,0.5865902890218422,1,702,2,1339.365785897011,1340.8674233519705,,,,,,,,,,,,,,,,,,,,,,,,,,,,,,,,,,,,,,,,,,,,,,,,,,,,,,,,,,,,,,,,,,,,,,,,,,,13676,2022-12-02_14h54.06.036,vts_reward_expectancy_bt_OFFLINE,2022.2.4,59.93063509894357,
1,0,0,0,0,0,1,0,triangle,hexagon,2,0,2,0,1,0,12,1,,,,,,,,,,,,,,,,,,,,,,,,,,,,,,,,,,,,,,,,1341.3678019350045,1341.3678019350045,1341.3678019350045,1341.3678019350045,1341.3678019350045,1341.3678019350045,1341.3678019350045,1341.3678019350045,1341.3678019350045,1341.3678019350045,a,0.47125711903208867,10,712,2,1341.8685316959745,1343.3701112970011,,,,,,,,,,,,,,,,,,,,,,,,,,,,,,,,,,,,,,,,,,,,,,,,,,,,,,,,,,,,,,,,,,,,,,,,,,,13676,2022-12-02_14h54.06.036,vts_reward_expectancy_bt_OFFLINE,2022.2.4,59.93063509894357,
0,1,0,0,0,0,0,1,circle,star,2,0,2,0,1,1,13,5,,,,,,,,,,,,,,,,,,,,,,,,,,,,,,,,,,,,,,,,1343.870591125975,1343.870591125975,1343.870591125975,1343.870591125975,1343.870591125975,1343.870591125975,1343.870591125975,1343.870591125975,1343.870591125975,1343.870591125975,l,1.6414696240681224,1,713,2,1345.539067066973,1347.0407338349614,,,,,,,,,,,,,,,,,,,,,,,,,,,,,,,,,,,,,,,,,,,,,,,,,,,,,,,,,,,,,,,,,,,,,,,,,,,13676,2022-12-02_14h54.06.036,vts_reward_expectancy_bt_OFFLINE,2022.2.4,59.93063509894357,
0,0,0,1,0,0,1,0,star,hexagon,2,0,2,0,1,2,14,11,,,,,,,,,,,,,,,,,,,,,,,,,,,,,,,,,,,,,,,,1347.541353685956,1347.541353685956,1347.541353685956,1347.541353685956,1347.541353685956,1347.541353685956,1347.541353685956,1347.541353685956,1347.541353685956,1347.541353685956,a,0.6572785410098732,10,723,2,1348.225510321965,1349.72704779997,,,,,,,,,,,,,,,,,,,,,,,,,,,,,,,,,,,,,,,,,,,,,,,,,,,,,,,,,,,,,,,,,,,,,,,,,,,13676,2022-12-02_14h54.06.036,vts_reward_expectancy_bt_OFFLINE,2022.2.4,59.93063509894357,
0,0,1,0,1,0,0,0,hexagon,triangle,2,0,2,0,1,3,15,6,,,,,,,,,,,,,,,,,,,,,,,,,,,,,,,,,,,,,,,,1350.2276627320098,1350.2276627320098,1350.2276627320098,1350.2276627320098,1350.2276627320098,1350.2276627320098,1350.2276627320098,1350.2276627320098,1350.2276627320098,1350.2276627320098,l,0.4845965400454588,1,724,2,1350.7447420799872,1352.246660867997,,,,,,,,,,,,,,,,,,,,,,,,,,,,,,,,,,,,,,,,,,,,,,,,,,,,,,,,,,,,,,,,,,,,,,,,,,,13676,2022-12-02_14h54.06.036,vts_reward_expectancy_bt_OFFLINE,2022.2.4,59.93063509894357,
0,0,0,1,0,1,0,0,star ,circle,2,0,2,0,1,4,16,10,,,,,,,,,,,,,,,,,,,,,,,,,,,,,,,,,,,,,,,,1352.747002738004,1352.747002738004,1352.747002738004,1352.747002738004,1352.747002738004,1352.747002738004,1352.747002738004,1352.747002738004,1352.747002738004,1352.747002738004,a,0.5731407210114412,1,725,2,1353.348039642966,1354.849472604983,,,,,,,,,,,,,,,,,,,,,,,,,,,,,,,,,,,,,,,,,,,,,,,,,,,,,,,,,,,,,,,,,,,,,,,,,,,13676,2022-12-02_14h54.06.036,vts_reward_expectancy_bt_OFFLINE,2022.2.4,59.93063509894357,
0,0,1,0,0,0,0,1,hexagon,star,2,0,2,0,1,5,17,8,,,,,,,,,,,,,,,,,,,,,,,,,,,,,,,,,,,,,,,,1355.3502431099769,1355.3502431099769,1355.3502431099769,1355.3502431099769,1355.3502431099769,1355.3502431099769,1355.3502431099769,1355.3502431099769,1355.3502431099769,1355.3502431099769,a,0.78484572598245,10,735,2,1356.167703635001,1357.6695259019616,,,,,,,,,,,,,,,,,,,,,,,,,,,,,,,,,,,,,,,,,,,,,,,,,,,,,,,,,,,,,,,,,,,,,,,,,,,13676,2022-12-02_14h54.06.036,vts_reward_expectancy_bt_OFFLINE,2022.2.4,59.93063509894357,
0,0,0,1,1,0,0,0,star,triangle,2,0,2,0,1,6,18,9,,,,,,,,,,,,,,,,,,,,,,,,,,,,,,,,,,,,,,,,1358.1697544879862,1358.1697544879862,1358.1697544879862,1358.1697544879862,1358.1697544879862,1358.1697544879862,1358.1697544879862,1358.1697544879862,1358.1697544879862,1358.1697544879862,l,0.551258836989291,1,736,2,1358.753839713987,1360.2554284799844,,,,,,,,,,,,,,,,,,,,,,,,,,,,,,,,,,,,,,,,,,,,,,,,,,,,,,,,,,,,,,,,,,,,,,,,,,,13676,2022-12-02_14h54.06.036,vts_reward_expectancy_bt_OFFLINE,2022.2.4,59.93063509894357,
1,0,0,0,0,1,0,0,triangle,circle,2,0,2,0,1,7,19,0,,,,,,,,,,,,,,,,,,,,,,,,,,,,,,,,,,,,,,,,1360.7559081919608,1360.7559081919608,1360.7559081919608,1360.7559081919608,1360.7559081919608,1360.7559081919608,1360.7559081919608,1360.7559081919608,1360.7559081919608,1360.7559081919608,a,0.4184516710229218,1,737,2,1361.2065689169685,1362.7083807739546,,,,,,,,,,,,,,,,,,,,,,,,,,,,,,,,,,,,,,,,,,,,,,,,,,,,,,,,,,,,,,,,,,,,,,,,,,,13676,2022-12-02_14h54.06.036,vts_reward_expectancy_bt_OFFLINE,2022.2.4,59.93063509894357,
0,0,1,0,0,1,0,0,hexagon,circle,2,0,2,0,1,8,20,7,,,,,,,,,,,,,,,,,,,,,,,,,,,,,,,,,,,,,,,,1363.2089863789733,1363.2089863789733,1363.2089863789733,1363.2089863789733,1363.2089863789733,1363.2089863789733,1363.2089863789733,1363.2089863789733,1363.2089863789733,1363.2089863789733,l,0.2623629290610552,10,747,2,1363.49242147099,1364.9940368469688,,,,,,,,,,,,,,,,,,,,,,,,,,,,,,,,,,,,,,,,,,,,,,,,,,,,,,,,,,,,,,,,,,,,,,,,,,,13676,2022-12-02_14h54.06.036,vts_reward_expectancy_bt_OFFLINE,2022.2.4,59.93063509894357,
1,0,0,0,0,0,0,1,triangle,star,2,0,2,0,1,9,21,2,,,,,,,,,,,,,,,,,,,,,,,,,,,,,,,,,,,,,,,,1365.4945301749976,1365.4945301749976,1365.4945301749976,1365.4945301749976,1365.4945301749976,1365.4945301749976,1365.4945301749976,1365.4945301749976,1365.4945301749976,1365.4945301749976,l,0.25019520602654666,10,757,2,1365.7616251119762,1367.2631643379573,,,,,,,,,,,,,,,,,,,,,,,,,,,,,,,,,,,,,,,,,,,,,,,,,,,,,,,,,,,,,,,,,,,,,,,,,,,13676,2022-12-02_14h54.06.036,vts_reward_expectancy_bt_OFFLINE,2022.2.4,59.93063509894357,
0,1,0,0,1,0,0,0,circle,triangle,2,0,2,0,1,10,22,3,,,,,,,,,,,,,,,,,,,,,,,,,,,,,,,,,,,,,,,,1367.763748710975,1367.763748710975,1367.763748710975,1367.763748710975,1367.763748710975,1367.763748710975,1367.763748710975,1367.763748710975,1367.763748710975,1367.763748710975,l,0.25179645902244374,1,758,2,1368.047356830968,1369.5489266599761,,,,,,,,,,,,,,,,,,,,,,,,,,,,,,,,,,,,,,,,,,,,,,,,,,,,,,,,,,,,,,,,,,,,,,,,,,,13676,2022-12-02_14h54.06.036,vts_reward_expectancy_bt_OFFLINE,2022.2.4,59.93063509894357,
0,1,0,0,0,0,1,0,circle,hexagon,2,0,2,0,1,11,23,4,,,,,,,,,,,,,,,,,,,,,,,,,,,,,,,,,,,,,,,,1370.0495772779686,1370.0495772779686,1370.0495772779686,1370.0495772779686,1370.0495772779686,1370.0495772779686,1370.0495772779686,1370.0495772779686,1370.0495772779686,1370.0495772779686,l,0.3740470570628531,1,759,2,1370.4499697840074,1371.9517389619723,,,,,,,,,,,,,,,,,,,,,,,,,,,,,,,,,,,,,,,,,,,,,,,,,,,,,,,,,,,,,,,,,,,,,,,,,,,13676,2022-12-02_14h54.06.036,vts_reward_expectancy_bt_OFFLINE,2022.2.4,59.93063509894357,
0,0,1,0,1,0,0,0,hexagon,triangle,2,0,2,0,2,0,24,6,,,,,,,,,,,,,,,,,,,,,,,,,,,,,,,,,,,,,,,,1372.4524993769592,1372.4524993769592,1372.4524993769592,1372.4524993769592,1372.4524993769592,1372.4524993769592,1372.4524993769592,1372.4524993769592,1372.4524993769592,1372.4524993769592,a,0.26751865103142336,10,769,2,1372.7525843280018,1374.2542118309648,,,,,,,,,,,,,,,,,,,,,,,,,,,,,,,,,,,,,,,,,,,,,,,,,,,,,,,,,,,,,,,,,,,,,,,,,,,13676,2022-12-02_14h54.06.036,vts_reward_expectancy_bt_OFFLINE,2022.2.4,59.93063509894357,
1,0,0,0,0,0,0,1,triangle,star,2,0,2,0,2,1,25,2,,,,,,,,,,,,,,,,,,,,,,,,,,,,,,,,,,,,,,,,1374.7547176119988,1374.7547176119988,1374.7547176119988,1374.7547176119988,1374.7547176119988,1374.7547176119988,1374.7547176119988,1374.7547176119988,1374.7547176119988,1374.7547176119988,l,0.619710493076127,10,779,2,1375.4054678539978,1376.9071407259908,,,,,,,,,,,,,,,,,,,,,,,,,,,,,,,,,,,,,,,,,,,,,,,,,,,,,,,,,,,,,,,,,,,,,,,,,,,13676,2022-12-02_14h54.06.036,vts_reward_expectancy_bt_OFFLINE,2022.2.4,59.93063509894357,
1,0,0,0,0,0,1,0,triangle,hexagon,2,0,2,0,2,2,26,1,,,,,,,,,,,,,,,,,,,,,,,,,,,,,,,,,,,,,,,,1377.4076018249616,1377.4076018249616,1377.4076018249616,1377.4076018249616,1377.4076018249616,1377.4076018249616,1377.4076018249616,1377.4076018249616,1377.4076018249616,1377.4076018249616,a,0.45624470501206815,10,789,2,1377.891516358999,1379.3932198709808,,,,,,,,,,,,,,,,,,,,,,,,,,,,,,,,,,,,,,,,,,,,,,,,,,,,,,,,,,,,,,,,,,,,,,,,,,,13676,2022-12-02_14h54.06.036,vts_reward_expectancy_bt_OFFLINE,2022.2.4,59.93063509894357,
0,1,0,0,0,0,1,0,circle,hexagon,2,0,2,0,2,3,27,4,,,,,,,,,,,,,,,,,,,,,,,,,,,,,,,,,,,,,,,,1379.893644813972,1379.893644813972,1379.893644813972,1379.893644813972,1379.893644813972,1379.893644813972,1379.893644813972,1379.893644813972,1379.893644813972,1379.893644813972,l,0.36926952603971586,10,799,2,1380.2942214650102,1381.7958182009752,,,,,,,,,,,,,,,,,,,,,,,,,,,,,,,,,,,,,,,,,,,,,,,,,,,,,,,,,,,,,,,,,,,,,,,,,,,13676,2022-12-02_14h54.06.036,vts_reward_expectancy_bt_OFFLINE,2022.2.4,59.93063509894357,
0,0,1,0,0,1,0,0,hexagon,circle,2,0,2,0,2,4,28,7,,,,,,,,,,,,,,,,,,,,,,,,,,,,,,,,,,,,,,,,1382.2964470189763,1382.2964470189763,1382.2964470189763,1382.2964470189763,1382.2964470189763,1382.2964470189763,1382.2964470189763,1382.2964470189763,1382.2964470189763,1382.2964470189763,a,0.2945581490639597,10,809,2,1382.6134224119596,1384.1150623149588,,,,,,,,,,,,,,,,,,,,,,,,,,,,,,,,,,,,,,,,,,,,,,,,,,,,,,,,,,,,,,,,,,,,,,,,,,,13676,2022-12-02_14h54.06.036,vts_reward_expectancy_bt_OFFLINE,2022.2.4,59.93063509894357,
0,0,1,0,0,0,0,1,hexagon,star,2,0,2,0,2,5,29,8,,,,,,,,,,,,,,,,,,,,,,,,,,,,,,,,,,,,,,,,1384.6154759089695,1384.6154759089695,1384.6154759089695,1384.6154759089695,1384.6154759089695,1384.6154759089695,1384.6154759089695,1384.6154759089695,1384.6154759089695,1384.6154759089695,l,0.27367564605083317,10,819,2,1384.9158936619642,1386.4176031349925,,,,,,,,,,,,,,,,,,,,,,,,,,,,,,,,,,,,,,,,,,,,,,,,,,,,,,,,,,,,,,,,,,,,,,,,,,,13676,2022-12-02_14h54.06.036,vts_reward_expectancy_bt_OFFLINE,2022.2.4,59.93063509894357,
0,1,0,0,1,0,0,0,circle,triangle,2,0,2,0,2,6,30,3,,,,,,,,,,,,,,,,,,,,,,,,,,,,,,,,,,,,,,,,1386.917950892006,1386.917950892006,1386.917950892006,1386.917950892006,1386.917950892006,1386.917950892006,1386.917950892006,1386.917950892006,1386.917950892006,1386.917950892006,a,0.29681528703076765,10,829,2,1387.2352616729913,1388.7368235900067,,,,,,,,,,,,,,,,,,,,,,,,,,,,,,,,,,,,,,,,,,,,,,,,,,,,,,,,,,,,,,,,,,,,,,,,,,,13676,2022-12-02_14h54.06.036,vts_reward_expectancy_bt_OFFLINE,2022.2.4,59.93063509894357,
1,0,0,0,0,1,0,0,triangle,circle,2,0,2,0,2,7,31,0,,,,,,,,,,,,,,,,,,,,,,,,,,,,,,,,,,,,,,,,1389.2372689750046,1389.2372689750046,1389.2372689750046,1389.2372689750046,1389.2372689750046,1389.2372689750046,1389.2372689750046,1389.2372689750046,1389.2372689750046,1389.2372689750046,l,0.25774783903034404,10,839,2,1389.5209172919858,1391.0226076389663,,,,,,,,,,,,,,,,,,,,,,,,,,,,,,,,,,,,,,,,,,,,,,,,,,,,,,,,,,,,,,,,,,,,,,,,,,,13676,2022-12-02_14h54.06.036,vts_reward_expectancy_bt_OFFLINE,2022.2.4,59.93063509894357,
0,1,0,0,0,0,0,1,circle,star,2,0,2,0,2,8,32,5,,,,,,,,,,,,,,,,,,,,,,,,,,,,,,,,,,,,,,,,1391.523256245011,1391.523256245011,1391.523256245011,1391.523256245011,1391.523256245011,1391.523256245011,1391.523256245011,1391.523256245011,1391.523256245011,1391.523256245011,a,0.2844816570286639,10,849,2,1391.8401161069633,1393.341749602987,,,,,,,,,,,,,,,,,,,,,,,,,,,,,,,,,,,,,,,,,,,,,,,,,,,,,,,,,,,,,,,,,,,,,,,,,,,13676,2022-12-02_14h54.06.036,vts_reward_expectancy_bt_OFFLINE,2022.2.4,59.93063509894357,
0,0,0,1,0,0,1,0,star,hexagon,2,0,2,0,2,9,33,11,,,,,,,,,,,,,,,,,,,,,,,,,,,,,,,,,,,,,,,,1393.842377724999,1393.842377724999,1393.842377724999,1393.842377724999,1393.842377724999,1393.842377724999,1393.842377724999,1393.842377724999,1393.842377724999,1393.842377724999,l,0.23601491103181615,1,850,2,1394.109200351988,1395.6110570119927,,,,,,,,,,,,,,,,,,,,,,,,,,,,,,,,,,,,,,,,,,,,,,,,,,,,,,,,,,,,,,,,,,,,,,,,,,,13676,2022-12-02_14h54.06.036,vts_reward_expectancy_bt_OFFLINE,2022.2.4,59.93063509894357,
0,0,0,1,1,0,0,0,star,triangle,2,0,2,0,2,10,34,9,,,,,,,,,,,,,,,,,,,,,,,,,,,,,,,,,,,,,,,,1396.1115962659824,1396.1115962659824,1396.1115962659824,1396.1115962659824,1396.1115962659824,1396.1115962659824,1396.1115962659824,1396.1115962659824,1396.1115962659824,1396.1115962659824,a,0.23268878197995946,1,851,2,1396.3617974829976,1397.86361647601,,,,,,,,,,,,,,,,,,,,,,,,,,,,,,,,,,,,,,,,,,,,,,,,,,,,,,,,,,,,,,,,,,,,,,,,,,,13676,2022-12-02_14h54.06.036,vts_reward_expectancy_bt_OFFLINE,2022.2.4,59.93063509894357,
0,0,0,1,0,1,0,0,star ,circle,2,0,2,0,2,11,35,10,,,,,,,,,,,,,,,,,,,,,,,,,,,,,,,,,,,,,,,,1398.3643918199814,1398.3643918199814,1398.3643918199814,1398.3643918199814,1398.3643918199814,1398.3643918199814,1398.3643918199814,1398.3643918199814,1398.3643918199814,1398.3643918199814,a,0.2743331749807112,1,852,2,1398.6643420149921,1400.1661361259758,,,,,,,,,,,,,,,,,,,,,,,,,,,,,,,,,,,,,,,,,,,,,,,,,,,,,,,,,,,,,,,,,,,,,,,,,,,13676,2022-12-02_14h54.06.036,vts_reward_expectancy_bt_OFFLINE,2022.2.4,59.93063509894357,
0,1,0,0,0,0,1,0,circle,hexagon,2,0,2,0,3,0,36,4,,,,,,,,,,,,,,,,,,,,,,,,,,,,,,,,,,,,,,,,1400.6665583289578,1400.6665583289578,1400.6665583289578,1400.6665583289578,1400.6665583289578,1400.6665583289578,1400.6665583289578,1400.6665583289578,1400.6665583289578,1400.6665583289578,l,0.34021042304812,1,853,2,1401.0337558430037,1402.5353977169725,,,,,,,,,,,,,,,,,,,,,,,,,,,,,,,,,,,,,,,,,,,,,,,,,,,,,,,,,,,,,,,,,,,,,,,,,,,13676,2022-12-02_14h54.06.036,vts_reward_expectancy_bt_OFFLINE,2022.2.4,59.93063509894357,
0,0,1,0,1,0,0,0,hexagon,triangle,2,0,2,0,3,1,37,6,,,,,,,,,,,,,,,,,,,,,,,,,,,,,,,,,,,,,,,,1403.0358394709765,1403.0358394709765,1403.0358394709765,1403.0358394709765,1403.0358394709765,1403.0358394709765,1403.0358394709765,1403.0358394709765,1403.0358394709765,1403.0358394709765,a,0.12363328103674576,1,854,2,1403.1865225830115,1404.6878111039987,,,,,,,,,,,,,,,,,,,,,,,,,,,,,,,,,,,,,,,,,,,,,,,,,,,,,,,,,,,,,,,,,,,,,,,,,,,13676,2022-12-02_14h54.06.036,vts_reward_expectancy_bt_OFFLINE,2022.2.4,59.93063509894357,
1,0,0,0,0,1,0,0,triangle,circle,2,0,2,0,3,2,38,0,,,,,,,,,,,,,,,,,,,,,,,,,,,,,,,,,,,,,,,,1405.1883416849887,1405.1883416849887,1405.1883416849887,1405.1883416849887,1405.1883416849887,1405.1883416849887,1405.1883416849887,1405.1883416849887,1405.1883416849887,1405.1883416849887,a,0.002125866012647748,1,855,2,1405.2216674069641,1406.7234607549617,,,,,,,,,,,,,,,,,,,,,,,,,,,,,,,,,,,,,,,,,,,,,,,,,,,,,,,,,,,,,,,,,,,,,,,,,,,13676,2022-12-02_14h54.06.036,vts_reward_expectancy_bt_OFFLINE,2022.2.4,59.93063509894357,
0,0,0,1,0,0,1,0,star,hexagon,2,0,2,0,3,3,39,11,,,,,,,,,,,,,,,,,,,,,,,,,,,,,,,,,,,,,,,,1407.2238684439799,1407.2238684439799,1407.2238684439799,1407.2238684439799,1407.2238684439799,1407.2238684439799,1407.2238684439799,1407.2238684439799,1407.2238684439799,1407.2238684439799,l,0.28692702000262216,1,856,2,1407.5408512399881,1409.043006494001,,,,,,,,,,,,,,,,,,,,,,,,,,,,,,,,,,,,,,,,,,,,,,,,,,,,,,,,,,,,,,,,,,,,,,,,,,,13676,2022-12-02_14h54.06.036,vts_reward_expectancy_bt_OFFLINE,2022.2.4,59.93063509894357,
0,0,1,0,0,1,0,0,hexagon,circle,2,0,2,0,3,4,40,7,,,,,,,,,,,,,,,,,,,,,,,,,,,,,,,,,,,,,,,,1409.543361752003,1409.543361752003,1409.543361752003,1409.543361752003,1409.543361752003,1409.543361752003,1409.543361752003,1409.543361752003,1409.543361752003,1409.543361752003,a,0.22416429803706706,1,857,2,1409.7936014799634,1411.2949871679884,,,,,,,,,,,,,,,,,,,,,,,,,,,,,,,,,,,,,,,,,,,,,,,,,,,,,,,,,,,,,,,,,,,,,,,,,,,13676,2022-12-02_14h54.06.036,vts_reward_expectancy_bt_OFFLINE,2022.2.4,59.93063509894357,
0,1,0,0,1,0,0,0,circle,triangle,2,0,2,0,3,5,41,3,,,,,,,,,,,,,,,,,,,,,,,,,,,,,,,,,,,,,,,,1411.7955641300068,1411.7955641300068,1411.7955641300068,1411.7955641300068,1411.7955641300068,1411.7955641300068,1411.7955641300068,1411.7955641300068,1411.7955641300068,1411.7955641300068,a,0.40286473504966125,10,867,2,1412.2294601419708,1413.7312138049747,,,,,,,,,,,,,,,,,,,,,,,,,,,,,,,,,,,,,,,,,,,,,,,,,,,,,,,,,,,,,,,,,,,,,,,,,,,13676,2022-12-02_14h54.06.036,vts_reward_expectancy_bt_OFFLINE,2022.2.4,59.93063509894357,
0,0,0,1,1,0,0,0,star,triangle,2,0,2,0,3,6,42,9,,,,,,,,,,,,,,,,,,,,,,,,,,,,,,,,,,,,,,,,1414.2315847639693,1414.2315847639693,1414.2315847639693,1414.2315847639693,1414.2315847639693,1414.2315847639693,1414.2315847639693,1414.2315847639693,1414.2315847639693,1414.2315847639693,a,0.31953521305695176,1,868,2,1414.5821721609682,1416.083946403989,,,,,,,,,,,,,,,,,,,,,,,,,,,,,,,,,,,,,,,,,,,,,,,,,,,,,,,,,,,,,,,,,,,,,,,,,,,13676,2022-12-02_14h54.06.036,vts_reward_expectancy_bt_OFFLINE,2022.2.4,59.93063509894357,
1,0,0,0,0,0,0,1,triangle,star,2,0,2,0,3,7,43,2,,,,,,,,,,,,,,,,,,,,,,,,,,,,,,,,,,,,,,,,1416.5842482979642,1416.5842482979642,1416.5842482979642,1416.5842482979642,1416.5842482979642,1416.5842482979642,1416.5842482979642,1416.5842482979642,1416.5842482979642,1416.5842482979642,a,0.3512935950420797,10,878,2,1416.9681824870058,1418.4697048969683,,,,,,,,,,,,,,,,,,,,,,,,,,,,,,,,,,,,,,,,,,,,,,,,,,,,,,,,,,,,,,,,,,,,,,,,,,,13676,2022-12-02_14h54.06.036,vts_reward_expectancy_bt_OFFLINE,2022.2.4,59.93063509894357,
0,1,0,0,0,0,0,1,circle,star,2,0,2,0,3,8,44,5,,,,,,,,,,,,,,,,,,,,,,,,,,,,,,,,,,,,,,,,1418.9701045419788,1418.9701045419788,1418.9701045419788,1418.9701045419788,1418.9701045419788,1418.9701045419788,1418.9701045419788,1418.9701045419788,1418.9701045419788,1418.9701045419788,l,0.5248236930347048,10,888,2,1419.5208788609598,1421.0224448519875,,,,,,,,,,,,,,,,,,,,,,,,,,,,,,,,,,,,,,,,,,,,,,,,,,,,,,,,,,,,,,,,,,,,,,,,,,,13676,2022-12-02_14h54.06.036,vts_reward_expectancy_bt_OFFLINE,2022.2.4,59.93063509894357,
0,0,1,0,0,0,0,1,hexagon,star,2,0,2,0,3,9,45,8,,,,,,,,,,,,,,,,,,,,,,,,,,,,,,,,,,,,,,,,1421.5230844419566,1421.5230844419566,1421.5230844419566,1421.5230844419566,1421.5230844419566,1421.5230844419566,1421.5230844419566,1421.5230844419566,1421.5230844419566,1421.5230844419566,a,0.2916404510033317,1,889,2,1421.839933359006,1423.3417570419842,,,,,,,,,,,,,,,,,,,,,,,,,,,,,,,,,,,,,,,,,,,,,,,,,,,,,,,,,,,,,,,,,,,,,,,,,,,13676,2022-12-02_14h54.06.036,vts_reward_expectancy_bt_OFFLINE,2022.2.4,59.93063509894357,
1,0,0,0,0,0,1,0,triangle,hexagon,2,0,2,0,3,10,46,1,,,,,,,,,,,,,,,,,,,,,,,,,,,,,,,,,,,,,,,,1423.8421789709828,1423.8421789709828,1423.8421789709828,1423.8421789709828,1423.8421789709828,1423.8421789709828,1423.8421789709828,1423.8421789709828,1423.8421789709828,1423.8421789709828,l,0.23686627799179405,10,899,2,1424.1094465299975,1425.6109940930037,,,,,,,,,,,,,,,,,,,,,,,,,,,,,,,,,,,,,,,,,,,,,,,,,,,,,,,,,,,,,,,,,,,,,,,,,,,13676,2022-12-02_14h54.06.036,vts_reward_expectancy_bt_OFFLINE,2022.2.4,59.93063509894357,
0,0,0,1,0,1,0,0,star ,circle,2,0,2,0,3,11,47,10,,,,,,,,,,,,,,,,,,,,,,,,,,,,,,,,,,,,,,,,1426.1114152449882,1426.1114152449882,1426.1114152449882,1426.1114152449882,1426.1114152449882,1426.1114152449882,1426.1114152449882,1426.1114152449882,1426.1114152449882,1426.1114152449882,l,0.5915518380352296,1,900,2,1426.7288373589981,1428.2304440619773,,,,,,,,,,,,,,,,,,,,,,,,,,,,,,,,,,,,,,,,,,,,,,,,,,,,,,,,,,,,,,,,,,,,,,,,,,,13676,2022-12-02_14h54.06.036,vts_reward_expectancy_bt_OFFLINE,2022.2.4,59.93063509894357,
,,,,,,,,,,,,,,,,,,0,0,0,0,0,0,0,0,,,,,,,,,,,,,,,,,,,,,,,,,,,,,,,,,,,,,,,,,,,,,,,,1467.7739190729917,,S,132,triangle,0.0021790280006825924,1461.8127736499882,1463.31902833801,1463.31902833801,1463.31902833801,1,0,f,2.9211770390393212,0,1466.2722722069593,,,,,,,,,,,,,,,,,,,,,,,,,,,,,,,,,,,,,,,,,,,,,,,,,,,,,,,,,,,,13676,2022-12-02_14h54.06.036,vts_reward_expectancy_bt_OFFLINE,2022.2.4,59.93063509894357,
,,,,,,,,,,,,,,,,,,0,0,0,0,1,0,1,0,,,,,,,,,,,,,,,,,,,,,,,,,,,,,,,,,,,,,,,,,,,,,,,,1472.8963334549917,,F,146,circle,0.0014587229816243052,1468.7524219969637,1470.2601140610059,1470.2601140610059,1470.2601140610059,1,0,d,1.1158916430431418,0,1471.394691088004,,,,,,,,,,,,,,,,,,,,,,,,,,,,,,,,,,,,,,,,,,,,,,,,,,,,,,,,,,,,13676,2022-12-02_14h54.06.036,vts_reward_expectancy_bt_OFFLINE,2022.2.4,59.93063509894357,
,,,,,,,,,,,,,,,,,,0,0,0,0,2,0,2,0,,,,,,,,,,,,,,,,,,,,,,,,,,,,,,,,,,,,,,,,,,,,,,,,1477.7851999779814,,H,174,hexagon,0.0014200439909473062,1473.8754876980092,1475.3824855889543,1475.3824855889543,1475.3824855889543,1,0,d,0.8823738050414249,0,1476.2834213390015,,,,,,,,,,,,,,,,,,,,,,,,,,,,,,,,,,,,,,,,,,,,,,,,,,,,,,,,,,,,13676,2022-12-02_14h54.06.036,vts_reward_expectancy_bt_OFFLINE,2022.2.4,59.93063509894357,
,,,,,,,,,,,,,,,,,,0,0,0,0,3,0,3,0,,,,,,,,,,,,,,,,,,,,,,,,,,,,,,,,,,,,,,,,,,,,,,,,1484.7762024959666,,D,160,star,0.0013494219747371972,1478.7615843419917,1480.2711518279975,1480.2711518279975,1480.2711518279975,0,0,None,,0,1483.274361068965,1483.274361068965,1483.274361068965,1483.274361068965,1483.274361068965,1484.7762024959666,1485.276768443,,,,,,,,,,,,,,,,,,,,,,,,,,,,,,,,,,,,,,,,,,,,,,,,,,,,,,13676,2022-12-02_14h54.06.036,vts_reward_expectancy_bt_OFFLINE,2022.2.4,59.93063509894357,
,,,,,,,,,,,,,,,,,,0,0,0,0,4,0,4,0,,,,,,,,,,,,,,,,,,,,,,,,,,,,,,,,,,,,,,,,,,,,,,,,1490.5158191079972,,Y,125,triangle,0.008916045015212148,1485.7715871529654,1487.2791592499707,1487.2791592499707,1487.2791592499707,1,1,f,1.704245860048104,0,1489.0142222569557,,,,,,,,,,,,,,,,,,,,,,,,,,,,,,,,,,,,,,,,,,,,,,,,,,,,,,,,,,,,13676,2022-12-02_14h54.06.036,vts_reward_expectancy_bt_OFFLINE,2022.2.4,59.93063509894357,
,,,,,,,,,,,,,,,,,,0,0,0,0,5,0,5,0,,,,,,,,,,,,,,,,,,,,,,,,,,,,,,,,,,,,,,,,,,,,,,,,1497.0062952470034,,U,181,hexagon,0.001732786011416465,1491.4942151180003,1493.0018049919745,1493.0018049919745,1493.0018049919745,1,0,f,2.4779765660641715,0,1495.5047581089893,,,,,,,,,,,,,,,,,,,,,,,,,,,,,,,,,,,,,,,,,,,,,,,,,,,,,,,,,,,,13676,2022-12-02_14h54.06.036,vts_reward_expectancy_bt_OFFLINE,2022.2.4,59.93063509894357,
,,,,,,,,,,,,,,,,,,0,0,0,0,6,0,6,0,,,,,,,,,,,,,,,,,,,,,,,,,,,,,,,,,,,,,,,,,,,,,,,,1501.9449773529777,,W,167,circle,0.0015991519903764129,1497.9842505339766,1499.4923738639918,1499.4923738639918,1499.4923738639918,1,0,f,0.9230553510133177,0,1500.4433319699601,,,,,,,,,,,,,,,,,,,,,,,,,,,,,,,,,,,,,,,,,,,,,,,,,,,,,,,,,,,,13676,2022-12-02_14h54.06.036,vts_reward_expectancy_bt_OFFLINE,2022.2.4,59.93063509894357,
,,,,,,,,,,,,,,,,,,0,0,0,0,7,0,7,0,,,,,,,,,,,,,,,,,,,,,,,,,,,,,,,,,,,,,,,,,,,,,,,,1506.5169123779633,,B,139,star,0.0015731489984318614,1502.923661350971,1504.4312211869983,1504.4312211869983,1504.4312211869983,1,0,d,0.551676421018783,0,1505.0150464589824,,,,,,,,,,,,,,,,,,,,,,,,,,,,,,,,,,,,,,,,,,,,,,,,,,,,,,,,,,,,13676,2022-12-02_14h54.06.036,vts_reward_expectancy_bt_OFFLINE,2022.2.4,59.93063509894357,
,,,,,,,,,,,,,,,,,,0,0,0,0,8,0,8,0,,,,,,,,,,,,,,,,,,,,,,,,,,,,,,,,,,,,,,,,,,,,,,,,1512.3731496559922,,S,132,star,0.0012989910319447517,1507.4936848499929,1509.0028758939588,1509.0028758939588,1509.0028758939588,1,0,f,1.843906982045155,0,1510.871732539963,,,,,,,,,,,,,,,,,,,,,,,,,,,,,,,,,,,,,,,,,,,,,,,,,,,,,,,,,,,,13676,2022-12-02_14h54.06.036,vts_reward_expectancy_bt_OFFLINE,2022.2.4,59.93063509894357,
,,,,,,,,,,,,,,,,,,0,0,0,0,9,0,9,0,,,,,,,,,,,,,,,,,,,,,,,,,,,,,,,,,,,,,,,,,,,,,,,,1517.3786282709916,,F,146,hexagon,0.002071598020847887,1513.350578830985,1514.8592777519953,1514.8592777519953,1514.8592777519953,1,0,d,0.9955332720419392,0,1515.8770175799727,,,,,,,,,,,,,,,,,,,,,,,,,,,,,,,,,,,,,,,,,,,,,,,,,,,,,,,,,,,,13676,2022-12-02_14h54.06.036,vts_reward_expectancy_bt_OFFLINE,2022.2.4,59.93063509894357,
,,,,,,,,,,,,,,,,,,,,,,,,,,0,0,0,0,0,0,0,0,,,,,,,,,,,,,,,,,,,,,,,,,,,,,,,,,,,,,,,,1539.8368919210043,,U,167,hexagon,0.002127796004060656,,,,,1,0,,,1,1538.3352209699806,,,,,,,1536.1103785639862,1537.6177313859807,1537.6177313859807,1537.6177313859807,k,0.6930147640523501,,,,,,,,,,,,,,,,,,,,,,,,,,,,,,,,,,,,,,,,,,,,,,,,13676,2022-12-02_14h54.06.036,vts_reward_expectancy_bt_OFFLINE,2022.2.4,59.93063509894357,
,,,,,,,,,,,,,,,,,,,,,,,,,,0,0,0,0,1,0,1,0,,,,,,,,,,,,,,,,,,,,,,,,,,,,,,,,,,,,,,,,1544.5920875709853,,F,174,star,0.001719438994769007,,,,,1,0,,,1,1543.0905059769866,,,,,,,1540.8148028779542,1542.3231358059566,1542.3231358059566,1542.3231358059566,k,0.740634662040975,,,,,,,,,,,,,,,,,,,,,,,,,,,,,,,,,,,,,,,,,,,,,,,,13676,2022-12-02_14h54.06.036,vts_reward_expectancy_bt_OFFLINE,2022.2.4,59.93063509894357,
,,,,,,,,,,,,,,,,,,,,,,,,,,0,0,0,0,2,0,2,0,,,,,,,,,,,,,,,,,,,,,,,,,,,,,,,,,,,,,,,,1549.2806123559712,,Y,125,triangle,0.0013769199722446501,,,,,1,0,,,1,1547.7789265739848,,,,,,,1545.569990821008,1547.0783471149625,1547.0783471149625,1547.0783471149625,j,0.6811777150142007,,,,,,,,,,,,,,,,,,,,,,,,,,,,,,,,,,,,,,,,,,,,,,,,13676,2022-12-02_14h54.06.036,vts_reward_expectancy_bt_OFFLINE,2022.2.4,59.93063509894357,
,,,,,,,,,,,,,,,,,,,,,,,,,,0,0,0,0,3,0,3,0,,,,,,,,,,,,,,,,,,,,,,,,,,,,,,,,,,,,,,,,1555.0369552570046,,S,132,circle,0.0012362860143184662,,,,,1,0,,,1,1553.5353738709819,,,,,,,1550.2571774179814,1551.7667681559687,1551.7667681559687,1551.7667681559687,j,1.74424240301596,,,,,,,,,,,,,,,,,,,,,,,,,,,,,,,,,,,,,,,,,,,,,,,,13676,2022-12-02_14h54.06.036,vts_reward_expectancy_bt_OFFLINE,2022.2.4,59.93063509894357,
,,,,,,,,,,,,,,,,,,,,,,,,,,0,0,0,0,4,0,4,0,,,,,,,,,,,,,,,,,,,,,,,,,,,,,,,,,,,,,,,,1560.2592126519885,,H,146,star,0.001641798997297883,,,,,1,0,,,1,1558.7577510160045,,,,,,,1556.0143687769887,1557.5230682859547,1557.5230682859547,1557.5230682859547,j,1.2121103520621546,,,,,,,,,,,,,,,,,,,,,,,,,,,,,,,,,,,,,,,,,,,,,,,,13676,2022-12-02_14h54.06.036,vts_reward_expectancy_bt_OFFLINE,2022.2.4,59.93063509894357,
,,,,,,,,,,,,,,,,,,,,,,,,,,0,0,0,0,5,0,5,0,,,,,,,,,,,,,,,,,,,,,,,,,,,,,,,,,,,,,,,,1564.7645400299807,,W,181,hexagon,0.0016902920324355364,,,,,1,0,,,1,1563.2624829759588,,,,,,,1561.2374268929707,1562.7453619340085,1562.7453619340085,1562.7453619340085,k,0.4857097060303204,,,,,,,,,,,,,,,,,,,,,,,,,,,,,,,,,,,,,,,,,,,,,,,,13676,2022-12-02_14h54.06.036,vts_reward_expectancy_bt_OFFLINE,2022.2.4,59.93063509894357,
,,,,,,,,,,,,,,,,,,,,,,,,,,0,0,0,0,6,0,6,0,,,,,,,,,,,,,,,,,,,,,,,,,,,,,,,,,,,,,,,,1569.3865793889854,,D,139,circle,0.00181303801946342,,,,,1,0,,,1,1567.8845083339838,,,,,,,1565.7417673789896,1567.2504229960032,1567.2504229960032,1567.2504229960032,j,0.612969916081056,,,,,,,,,,,,,,,,,,,,,,,,,,,,,,,,,,,,,,,,,,,,,,,,13676,2022-12-02_14h54.06.036,vts_reward_expectancy_bt_OFFLINE,2022.2.4,59.93063509894357,
,,,,,,,,,,,,,,,,,,,,,,,,,,0,0,0,0,7,0,7,0,,,,,,,,,,,,,,,,,,,,,,,,,,,,,,,,,,,,,,,,1573.8742575079668,,B,160,triangle,0.0017089860048145056,,,,,1,0,,,1,1572.3727124829893,,,,,,,1570.3639026199817,1571.872108060983,1571.872108060983,1571.872108060983,k,0.4789079520269297,,,,,,,,,,,,,,,,,,,,,,,,,,,,,,,,,,,,,,,,,,,,,,,,13676,2022-12-02_14h54.06.036,vts_reward_expectancy_bt_OFFLINE,2022.2.4,59.93063509894357,
,,,,,,,,,,,,,,,,,,,,,,,,,,0,0,0,0,8,0,8,0,,,,,,,,,,,,,,,,,,,,,,,,,,,,,,,,,,,,,,,,1578.429306940001,,U,167,circle,0.0014735389850102365,,,,,1,0,,,1,1576.9278306799824,,,,,,,1574.8514557099552,1576.3605327570112,1576.3605327570112,1576.3605327570112,k,0.5423387089977041,,,,,,,,,,,,,,,,,,,,,,,,,,,,,,,,,,,,,,,,,,,,,,,,13676,2022-12-02_14h54.06.036,vts_reward_expectancy_bt_OFFLINE,2022.2.4,59.93063509894357,
,,,,,,,,,,,,,,,,,,,,,,,,,,0,0,0,0,9,0,9,0,,,,,,,,,,,,,,,,,,,,,,,,,,,,,,,,,,,,,,,,1583.1011705119745,,F,174,triangle,0.0016467369860038161,,,,,1,0,,,1,1581.599762688973,,,,,,,1579.4067403619993,1580.9158105929964,1580.9158105929964,1580.9158105929964,k,0.65189676504815,,,,,,,,,,,,,,,,,,,,,,,,,,,,,,,,,,,,,,,,,,,,,,,,13676,2022-12-02_14h54.06.036,vts_reward_expectancy_bt_OFFLINE,2022.2.4,59.93063509894357,
,,,,,,,,,,,,,,,,,,,,,,,,,,,,,,,,,,0,0,0,0,0,0,0,0,,,,,,,,,,,,,,,,,,,,,,,,,,,,0,900,,,1632.4555248869583,,U,167,star,0.0022171310265548527,,,,,1,0,,,2,,,,,,,,,,,,,,1627.512207650987,1627.512207650987,1627.512207650987,1627.512207650987,1629.0185391919804,1629.0185391919804,1629.0185391919804,1629.0185391919804,1629.0185391919804,1629.0185391919804,1629.0185391919804,1629.0185391919804,-1,number,NA,k,1.9179560460615903,vtsPrac,1630.9539116710075,,,,,,,,,,,,,,,,,,,,,,,,,,,,,13676,2022-12-02_14h54.06.036,vts_reward_expectancy_bt_OFFLINE,2022.2.4,59.93063509894357,
,,,,,,,,,,,,,,,,,,,,,,,,,,,,,,,,,,0,0,0,0,1,0,1,0,,,,,,,,,,,,,,,,,,,,,,,,,,,,0,900,,,1639.4467416839907,,Y,132,circle,0.0014290169929154217,,,,,-1,0,,,2,,,,,,,1639.9471589800087,,,,,,,1633.434972190007,1633.434972190007,1633.434972190007,1633.434972190007,1634.9418058549636,1634.9418058549636,1634.9418058549636,1634.9418058549636,1634.9418058549636,1634.9418058549636,1634.9418058549636,1634.9418058549636,switch,no_choice,NA,None,,vtsPrac,1637.9452427949873,1637.9452427949873,1637.9452427949873,1637.9452427949873,1637.9452427949873,1639.4467416839907,,,,,,,,,,,,,,,,,,,,,,,,13676,2022-12-02_14h54.06.036,vts_reward_expectancy_bt_OFFLINE,2022.2.4,59.93063509894357,
,,,,,,,,,,,,,,,,,,,,,,,,,,,,,,,,,,0,0,0,0,2,0,2,0,,,,,,,,,,,,,,,,,,,,,,,,,,,,0,900,,,1644.085154416971,,F,174,triangle,0.008662629988975823,,,,,1,0,,,2,,,,,,,,,,,,,,1640.4420662589837,1640.4420662589837,1640.4420662589837,1640.4420662589837,1641.9495124630048,1641.9495124630048,1641.9495124630048,1641.9495124630048,1641.9495124630048,1641.9495124630048,1641.9495124630048,1641.9495124630048,switch,letter,lettSwt,d,0.6014223860111088,vtsPrac,1642.5836517059943,,,,,,,,,,,,,,,,,,,,,,,,,,,,,13676,2022-12-02_14h54.06.036,vts_reward_expectancy_bt_OFFLINE,2022.2.4,59.93063509894357,
,,,,,,,,,,,,,,,,,,,,,,,,,,,,,,,,,,0,0,0,0,3,0,3,0,,,,,,,,,,,,,,,,,,,,,,,,,,,,0,900,,,1648.7906087699812,,S,125,circle,0.0016083589871414006,,,,,1,0,,,2,,,,,,,,,,,,,,1645.0642973119975,1645.0642973119975,1645.0642973119975,1645.0642973119975,1646.5714936619624,1646.5714936619624,1646.5714936619624,1646.5714936619624,1646.5714936619624,1646.5714936619624,1646.5714936619624,1646.5714936619624,repeat,letter,lettRpt,f,0.6847295750048943,vtsPrac,1647.2887201039703,,,,,,,,,,,,,,,,,,,,,,,,,,,,,13676,2022-12-02_14h54.06.036,vts_reward_expectancy_bt_OFFLINE,2022.2.4,59.93063509894357,
,,,,,,,,,,,,,,,,,,,,,,,,,,,,,,,,,,0,0,0,0,4,0,4,0,,,,,,,,,,,,,,,,,,,,,,,,,,,,0,900,,,1653.195724049001,,U,167,star,0.0015112459659576416,,,,,1,0,,,2,,,,,,,,,,,,,,1649.768612534972,1649.768612534972,1649.768612534972,1649.768612534972,1651.2766373750055,1651.2766373750055,1651.2766373750055,1651.2766373750055,1651.2766373750055,1651.2766373750055,1651.2766373750055,1651.2766373750055,switch,number,numSwt,k,0.3858271010685712,vtsPrac,1651.6936466769548,,,,,,,,,,,,,,,,,,,,,,,,,,,,,13676,2022-12-02_14h54.06.036,vts_reward_expectancy_bt_OFFLINE,2022.2.4,59.93063509894357,
,,,,,,,,,,,,,,,,,,,,,,,,,,,,,,,,,,0,0,0,0,5,0,5,0,,,,,,,,,,,,,,,,,,,,,,,,,,,,0,900,,,1658.0504645489855,,Y,132,circle,0.001371486985590309,,,,,1,0,,,2,,,,,,,,,,,,,,1654.1729926029802,1654.1729926029802,1654.1729926029802,1654.1729926029802,1655.6811743639992,1655.6811743639992,1655.6811743639992,1655.6811743639992,1655.6811743639992,1655.6811743639992,1655.6811743639992,1655.6811743639992,switch,letter,lettSwt,f,0.8455284850206226,vtsPrac,1656.5489595200052,,,,,,,,,,,,,,,,,,,,,,,,,,,,,13676,2022-12-02_14h54.06.036,vts_reward_expectancy_bt_OFFLINE,2022.2.4,59.93063509894357,
,,,,,,,,,,,,,,,,,,,,,,,,,,,,,,,,,,0,0,0,0,6,0,6,0,,,,,,,,,,,,,,,,,,,,,,,,,,,,0,900,,,1662.8056998969987,,F,174,circle,0.0016571489977650344,,,,,1,0,,,2,,,,,,,,,,,,,,1659.0283865469974,1659.0283865469974,1659.0283865469974,1659.0283865469974,1660.5368309550104,1660.5368309550104,1660.5368309550104,1660.5368309550104,1660.5368309550104,1660.5368309550104,1660.5368309550104,1660.5368309550104,repeat,letter,lettRpt,d,0.7514623240567744,vtsPrac,1661.3041237549623,,,,,1662.8056998969987,,,,,,,,,,,,,,,,,,,,,,,,13676,2022-12-02_14h54.06.036,vts_reward_expectancy_bt_OFFLINE,2022.2.4,59.93063509894357,
,,,,,,,,,,,,,,,,,,,,,,,,,,,,,,,,,,0,0,0,0,7,0,7,0,,,,,,,,,,,,,,,,,,,,,,,,,,,,0,900,,,1667.2608508139965,,S,125,star,0.0008383039967156947,,,,,1,0,,,2,,,,,,,,,,,,,,1663.7831299569807,1663.7831299569807,1663.7831299569807,1663.7831299569807,1665.292007741984,1665.292007741984,1665.292007741984,1665.292007741984,1665.292007741984,1665.292007741984,1665.292007741984,1665.292007741984,switch,number,numSwt,j,0.4434634650242515,vtsPrac,1665.7590878839837,,,,,,,,,,,,,,,,,,,,,,,,,,,,,13676,2022-12-02_14h54.06.036,vts_reward_expectancy_bt_OFFLINE,2022.2.4,59.93063509894357,
,,,,,,,,,,,,,,,,,,,,,,,,,,,,,,,,,,0,0,0,0,8,0,8,0,,,,,,,,,,,,,,,,,,,,,,,,,,,,0,900,,,1671.81577120797,,W,139,triangle,0.0015941500314511359,,,,,1,0,,,2,,,,,,,,,,,,,,1668.2406902369694,1668.2406902369694,1668.2406902369694,1668.2406902369694,1669.7467619319796,1669.7467619319796,1669.7467619319796,1669.7467619319796,1669.7467619319796,1669.7467619319796,1669.7467619319796,1669.7467619319796,switch,letter,lettSwt,f,0.5407289760187268,vtsPrac,1670.313961990003,,,,,,,,,,,,,,,,,,,,,,,,,,,,,13676,2022-12-02_14h54.06.036,vts_reward_expectancy_bt_OFFLINE,2022.2.4,59.93063509894357,
,,,,,,,,,,,,,,,,,,,,,,,,,,,,,,,,,,0,0,0,0,9,0,9,0,,,,,,,,,,,,,,,,,,,,,,,,,,,,0,900,,,1676.4375656949705,,U,167,circle,0.0016817080322653055,,,,,1,0,,,2,,,,,,,,,,,,,,1672.7925196989672,1672.7925196989672,1672.7925196989672,1672.7925196989672,1674.30175215099,1674.30175215099,1674.30175215099,1674.30175215099,1674.30175215099,1674.30175215099,1674.30175215099,1674.30175215099,switch,number,numSwt,k,0.6016610160586424,vtsPrac,1674.9358874099562,,,,,,,,,,,,,,,,,,,,,,,,,,,,,13676,2022-12-02_14h54.06.036,vts_reward_expectancy_bt_OFFLINE,2022.2.4,59.93063509894357,
,,,,,,,,,,,,,,,,,,,,,,,,,,,,,,,,,,0,0,0,0,10,0,10,0,,,,,,,,,,,,,,,,,,,,,,,,,,,,0,900,,,1681.0260956899729,,H,174,star,0.0016973859746940434,,,,,1,0,,,2,,,,,,,,,,,,,,1677.4162162269931,1677.4162162269931,1677.4162162269931,1677.4162162269931,1678.923644554976,1678.923644554976,1678.923644554976,1678.923644554976,1678.923644554976,1678.923644554976,1678.923644554976,1678.923644554976,repeat,number,numRpt,k,0.5724066650145687,vtsPrac,1679.5241757569602,,,,,,,,,,,,,,,,,,,,,,,,,,,,,13676,2022-12-02_14h54.06.036,vts_reward_expectancy_bt_OFFLINE,2022.2.4,59.93063509894357,
,,,,,,,,,,,,,,,,,,,,,,,,,,,,,,,,,,0,0,0,0,11,0,11,0,,,,,,,,,,,,,,,,,,,,,,,,,,,,0,900,,,1685.530895039963,,S,160,hexagon,0.0016644920106045902,,,,,1,0,,,2,,,,,,,,,,,,,,1682.0039897820097,1682.0039897820097,1682.0039897820097,1682.0039897820097,1683.5121658860007,1683.5121658860007,1683.5121658860007,1683.5121658860007,1683.5121658860007,1683.5121658860007,1683.5121658860007,1683.5121658860007,repeat,number,numRpt,k,0.4862323630368337,vtsPrac,1684.0292503249948,,,,,,,,,,,,,,,,,,,,,,,,,,,,,13676,2022-12-02_14h54.06.036,vts_reward_expectancy_bt_OFFLINE,2022.2.4,59.93063509894357,
,,,,,,,,,,,,,,,,,,,,,,,,,,,,,,,,,,0,0,0,0,12,0,12,0,,,,,,,,,,,,,,,,,,,,,,,,,,,,0,900,,,1690.58651043399,,U,139,circle,0.0014734299620613456,,,,,1,0,,,2,,,,,,,,,,,,,,1686.5093637710088,1686.5093637710088,1686.5093637710088,1686.5093637710088,1688.0170389479608,1688.0170389479608,1688.0170389479608,1688.0170389479608,1688.0170389479608,1688.0170389479608,1688.0170389479608,1688.0170389479608,repeat,number,numRpt,j,1.0463961100322194,vtsPrac,1689.0851651039557,,,,,,,,,,,,,,,,,,,,,,,,,,,,,13676,2022-12-02_14h54.06.036,vts_reward_expectancy_bt_OFFLINE,2022.2.4,59.93063509894357,
,,,,,,,,,,,,,,,,,,,,,,,,,,,,,,,,,,0,0,0,0,13,0,13,0,,,,,,,,,,,,,,,,,,,,,,,,,,,,0,900,,,1695.0580226829625,,D,160,hexagon,0.0016015080036595464,,,,,1,0,,,2,,,,,,,,,,,,,,1691.5643148649833,1691.5643148649833,1691.5643148649833,1691.5643148649833,1693.072540352994,1693.072540352994,1693.072540352994,1693.072540352994,1693.072540352994,1693.072540352994,1693.072540352994,1693.072540352994,switch,letter,lettSwt,d,0.4558377070352435,vtsPrac,1693.5564272949705,,,,,,,,,,,,,,,,,,,,,,,,,,,,,13676,2022-12-02_14h54.06.036,vts_reward_expectancy_bt_OFFLINE,2022.2.4,59.93063509894357,
,,,,,,,,,,,,,,,,,,,,,,,,,,,,,,,,,,0,0,0,0,14,0,14,0,,,,,,,,,,,,,,,,,,,,,,,,,,,,0,900,,,1699.813280795992,,W,181,triangle,0.0014671339886263013,,,,,1,0,,,2,,,,,,,,,,,,,,1696.0365920370095,1696.0365920370095,1696.0365920370095,1696.0365920370095,1697.544138497964,1697.544138497964,1697.544138497964,1697.544138497964,1697.544138497964,1697.544138497964,1697.544138497964,1697.544138497964,repeat,letter,lettRpt,f,0.7426764870178886,vtsPrac,1698.3117994149798,,,,,,,,,,,,,,,,,,,,,,,,,,,,,13676,2022-12-02_14h54.06.036,vts_reward_expectancy_bt_OFFLINE,2022.2.4,59.93063509894357,
,,,,,,,,,,,,,,,,,,,,,,,,,,,,,,,,,,0,0,0,0,15,0,15,0,,,,,,,,,,,,,,,,,,,,,,,,,,,,0,900,,,1704.6187485219561,,H,132,star,0.0013587249559350312,,,,,1,0,,,2,,,,,,,,,,,,,,1700.7899099260103,1700.7899099260103,1700.7899099260103,1700.7899099260103,1702.2993382309796,1702.2993382309796,1702.2993382309796,1702.2993382309796,1702.2993382309796,1702.2993382309796,1702.2993382309796,1702.2993382309796,switch,number,numSwt,j,0.7960313380463049,vtsPrac,1703.1168987769634,,,,,,,,,,,,,,,,,,,,,,,,,,,,,13676,2022-12-02_14h54.06.036,vts_reward_expectancy_bt_OFFLINE,2022.2.4,59.93063509894357,
,,,,,,,,,,,,,,,,,,,,,,,,,,,,,,,,,,0,0,0,0,16,0,16,0,,,,,,,,,,,,,,,,,,,,,,,,,,,,0,900,,,1709.3070938299643,,W,167,circle,0.0014468010049313307,,,,,1,0,,,2,,,,,,,,,,,,,,1705.5963540259982,1705.5963540259982,1705.5963540259982,1705.5963540259982,1707.1046927399584,1707.1046927399584,1707.1046927399584,1707.1046927399584,1707.1046927399584,1707.1046927399584,1707.1046927399584,1707.1046927399584,repeat,number,numRpt,k,0.6699254840495996,vtsPrac,1707.805476481968,,,,,,,,,,,,,,,,,,,,,,,,,,,,,13676,2022-12-02_14h54.06.036,vts_reward_expectancy_bt_OFFLINE,2022.2.4,59.93063509894357,
,,,,,,,,,,,,,,,,,,,,,,,,,,,,,,,,,,0,0,0,0,17,0,17,0,,,,,,,,,,,,,,,,,,,,,,,,,,,,0,900,,,1713.8788254259853,,S,181,hexagon,0.0015718379872851074,,,,,1,0,,,2,,,,,,,,,,,,,,1710.2845816959743,1710.2845816959743,1710.2845816959743,1710.2845816959743,1711.7931616819697,1711.7931616819697,1711.7931616819697,1711.7931616819697,1711.7931616819697,1711.7931616819697,1711.7931616819697,1711.7931616819697,repeat,number,numRpt,k,0.5581565740285441,vtsPrac,1712.3771983879851,,,,,,,,,,,,,,,,,,,,,,,,,,,,,13676,2022-12-02_14h54.06.036,vts_reward_expectancy_bt_OFFLINE,2022.2.4,59.93063509894357,
,,,,,,,,,,,,,,,,,,,,,,,,,,,,,,,,,,0,0,0,0,18,0,18,0,,,,,,,,,,,,,,,,,,,,,,,,,,,,0,900,,,1718.5007204959984,,H,132,star,0.001880412979517132,,,,,1,0,,,2,,,,,,,,,,,,,,1714.8562619480072,1714.8562619480072,1714.8562619480072,1714.8562619480072,1716.364885721996,1716.364885721996,1716.364885721996,1716.364885721996,1716.364885721996,1716.364885721996,1716.364885721996,1716.364885721996,switch,letter,lettSwt,d,0.602075427013915,vtsPrac,1716.9988821959705,,,,,,,,,,,,,,,,,,,,,,,,,,,,,13676,2022-12-02_14h54.06.036,vts_reward_expectancy_bt_OFFLINE,2022.2.4,59.93063509894357,
,,,,,,,,,,,,,,,,,,,,,,,,,,,,,,,,,,0,0,0,0,19,0,19,0,,,,,,,,,,,,,,,,,,,,,,,,,,,,0,900,,,1723.2224370510085,,Y,139,circle,0.0010965339606627822,,,,,1,0,,,2,,,,,,,,,,,,,,1719.4780932079884,1719.4780932079884,1719.4780932079884,1719.4780932079884,1720.986625643971,1720.986625643971,1720.986625643971,1720.986625643971,1720.986625643971,1720.986625643971,1720.986625643971,1720.986625643971,repeat,letter,lettRpt,f,0.701938993006479,vtsPrac,1721.720844223979,,,,,,,,,,,,,,,,,,,,,,,,,,,,,13676,2022-12-02_14h54.06.036,vts_reward_expectancy_bt_OFFLINE,2022.2.4,59.93063509894357,
,,,,,,,,,,,,,,,,,,,,,,,,,,,,,,,,,,0,0,0,0,20,0,20,0,,,,,,,,,,,,,,,,,,,,,,,,,,,,0,900,,,1727.827415454958,,H,139,hexagon,0.001686972042080015,,,,,1,0,,,2,,,,,,,,,,,,,,1724.2003324399702,1724.2003324399702,1724.2003324399702,1724.2003324399702,1725.7085010409937,1725.7085010409937,1725.7085010409937,1725.7085010409937,1725.7085010409937,1725.7085010409937,1725.7085010409937,1725.7085010409937,repeat,letter,lettRpt,d,0.5864190630381927,vtsPrac,1726.3257614179747,,,,,,,,,,,,,,,,,,,,,,,,,,,,,13676,2022-12-02_14h54.06.036,vts_reward_expectancy_bt_OFFLINE,2022.2.4,59.93063509894357,
,,,,,,,,,,,,,,,,,,,,,,,,,,,,,,,,,,0,0,0,0,21,0,21,0,,,,,,,,,,,,,,,,,,,,,,,,,,,,0,900,,,1732.6828410419985,,D,132,star,0.001656103995628655,,,,,1,0,,,2,,,,,,,,,,,,,,1728.8051404309808,1728.8051404309808,1728.8051404309808,1728.8051404309808,1730.3137791039771,1730.3137791039771,1730.3137791039771,1730.3137791039771,1730.3137791039771,1730.3137791039771,1730.3137791039771,1730.3137791039771,switch,number,numSwt,j,0.8377195019857027,vtsPrac,1731.1812960130046,,,,,,,,,,,,,,,,,,,,,,,,,,,,,13676,2022-12-02_14h54.06.036,vts_reward_expectancy_bt_OFFLINE,2022.2.4,59.93063509894357,
,,,,,,,,,,,,,,,,,,,,,,,,,,,,,,,,,,0,0,0,0,22,0,22,0,,,,,,,,,,,,,,,,,,,,,,,,,,,,0,900,,,1737.1878069170052,,B,125,circle,0.0013563180109485984,,,,,1,0,,,2,,,,,,,,,,,,,,1733.6613808129914,1733.6613808129914,1733.6613808129914,1733.6613808129914,1735.1689908999833,1735.1689908999833,1735.1689908999833,1735.1689908999833,1735.1689908999833,1735.1689908999833,1735.1689908999833,1735.1689908999833,repeat,number,numRpt,j,0.4939937529852614,vtsPrac,1735.6861784339999,,,,,,,,,,,,,,,,,,,,,,,,,,,,,13676,2022-12-02_14h54.06.036,vts_reward_expectancy_bt_OFFLINE,2022.2.4,59.93063509894357,
,,,,,,,,,,,,,,,,,,,,,,,,,,,,,,,,,,0,0,0,0,23,0,23,0,,,,,,,,,,,,,,,,,,,,,,,,,,,,0,900,,,1741.6764701429638,,Y,181,star,0.0016062470385804772,,,,,1,0,,,2,,,,,,,,,,,,,,1738.1656004699762,1738.1656004699762,1738.1656004699762,1738.1656004699762,1739.6740784639842,1739.6740784639842,1739.6740784639842,1739.6740784639842,1739.6740784639842,1739.6740784639842,1739.6740784639842,1739.6740784639842,repeat,number,numRpt,k,0.4778307450469583,vtsPrac,1740.174524616974,,,,,,,,,,,,,,,,,,,,,,,,,,,,,13676,2022-12-02_14h54.06.036,vts_reward_expectancy_bt_OFFLINE,2022.2.4,59.93063509894357,
,,,,,,,,,,,,,,,,,,,,,,,,,,,,,,,,,,0,0,0,0,24,0,24,0,,,,,,,,,,,,,,,,,,,,,,,,,,,,0,900,,,1746.2145707299933,,H,132,hexagon,0.0016115260077640414,,,,,1,0,,,2,,,,,,,,,,,,,,1742.6536710140062,1742.6536710140062,1742.6536710140062,1742.6536710140062,1744.1623010690091,1744.1623010690091,1744.1623010690091,1744.1623010690091,1744.1623010690091,1744.1623010690091,1744.1623010690091,1744.1623010690091,repeat,number,numRpt,j,0.5186636490398087,vtsPrac,1744.7127698389813,,,,,,,,,,,,,,,,,,,,,,,,,,,,,13676,2022-12-02_14h54.06.036,vts_reward_expectancy_bt_OFFLINE,2022.2.4,59.93063509894357,
,,,,,,,,,,,,,,,,,,,,,,,,,,,,,,,,,,0,0,0,0,25,0,25,0,,,,,,,,,,,,,,,,,,,,,,,,,,,,0,900,,,1750.7362962889601,,S,167,triangle,0.0016683609574101865,,,,,1,0,,,2,,,,,,,,,,,,,,1747.192221248988,1747.192221248988,1747.192221248988,1747.192221248988,1748.700637158996,1748.700637158996,1748.700637158996,1748.700637158996,1748.700637158996,1748.700637158996,1748.700637158996,1748.700637158996,repeat,number,numRpt,k,0.5145956510095857,vtsPrac,1749.234529171954,,,,,,,,,,,,,,,,,,,,,,,,,,,,,13676,2022-12-02_14h54.06.036,vts_reward_expectancy_bt_OFFLINE,2022.2.4,59.93063509894357,
,,,,,,,,,,,,,,,,,,,,,,,,,,,,,,,,,,0,0,0,0,26,0,26,0,,,,,,,,,,,,,,,,,,,,,,,,,,,,0,900,,,1755.2913554429542,,U,125,triangle,0.001179502985905856,,,,,1,0,,,2,,,,,,,,,,,,,,1751.713094034989,1751.713094034989,1751.713094034989,1751.713094034989,1753.2223121789866,1753.2223121789866,1753.2223121789866,1753.2223121789866,1753.2223121789866,1753.2223121789866,1753.2223121789866,1753.2223121789866,switch,letter,lettSwt,f,0.5443405560217798,vtsPrac,1753.7895835620002,,,,,,,,,,,,,,,,,,,,,,,,,,,,,13676,2022-12-02_14h54.06.036,vts_reward_expectancy_bt_OFFLINE,2022.2.4,59.93063509894357,
