LTriangleOpac,LCircleOpac,LHexagonOpac,LStarOpac,RTriangleOpac,RCircleOpac,RHexagonOpac,RStarOpac,LShape_ID,RShape_ID,training_blocks.thisRepN,training_blocks.thisTrialN,training_blocks.thisN,training_blocks.thisIndex,training.thisRepN,training.thisTrialN,training.thisN,training.thisIndex,task1_prac_redo.thisRepN,task1_prac_redo.thisTrialN,task1_prac_redo.thisN,task1_prac_redo.thisIndex,task1_prac_trials.thisRepN,task1_prac_trials.thisTrialN,task1_prac_trials.thisN,task1_prac_trials.thisIndex,task2_prac_redo.thisRepN,task2_prac_redo.thisTrialN,task2_prac_redo.thisN,task2_prac_redo.thisIndex,task2_praac_trials.thisRepN,task2_praac_trials.thisTrialN,task2_praac_trials.thisN,task2_praac_trials.thisIndex,vts_prac_redo.thisRepN,vts_prac_redo.thisTrialN,vts_prac_redo.thisN,vts_prac_redo.thisIndex,vts_practice_trials.thisRepN,vts_practice_trials.thisTrialN,vts_practice_trials.thisN,vts_practice_trials.thisIndex,trials_norew.thisRepN,trials_norew.thisTrialN,trials_norew.thisN,trials_norew.thisIndex,block.thisRepN,block.thisTrialN,block.thisN,block.thisIndex,trials_rew.thisRepN,trials_rew.thisTrialN,trials_rew.thisN,trials_rew.thisIndex,key_resp.started,key_resp.keys,key_resp.rt,left_circle.started,right_circle.started,left_triangle.started,right_triangle.started,left_star.started,right_star.started,left_hexagon.started,right_hexagon.started,training_fix.started,training_resp.started,training_resp.keys,training_resp.rt,points_trial,points_cumul,trainBlock,training_feedback_txt.started,fix.started,training_feedback_txt.stopped,fix.stopped,curr_topStim,curr_bottStim,curr_shape,ISI.started,tgt_fix_prac1.started,top_target_prac1.started,bott_target_prac1.started,target_resp_prac1.started,acc,E1,target_resp_prac1.keys,target_resp_prac1.rt,pracBlock,prac_fback_text.started,prac_fback_text.stopped,tgt_fix_prac2.started,top_target_prac2.started,bott_target_prac2.started,target_resp_prac2.started,target_resp_prac2.keys,target_resp_prac2.rt,star.started,hegagon.started,triangle.started,circle.started,top_target.started,tgt_fix.started,bot_target.started,target_resp.started,star.stopped,hegagon.stopped,triangle.stopped,circle.stopped,alt,task,condition,target_resp.keys,target_resp.rt,rewCond,vts_fback.started,vts_fback.stopped,blockNum,norew_fback.started,norew_fback.stopped,key_resp_2.keys,key_resp_2.rt,rewExpectancy,feedbk_text.started,feedbk_text.stopped,top_target.stopped,tgt_fix.stopped,bot_target.stopped,target_resp.stopped,text_3.started,debrief.started,text_3.stopped,button.started,debrief.index,debrief.itemText,debrief.type,debrief.granularity,debrief.font,debrief.markerColor,debrief.response,debrief.rt,button.numClicks,button.timesOn,button.timesOff,participant,date,expName,psychopyVersion,frameRate,
,,,,,,,,,,,,,,,,,,,,,,,,,,,,,,,,,,,,,,,,,,,,,,,,,,,,,,1545.1271057170816,space,15.214214473497123,,,,,,,,,,,,,,,,,,,,,,,,,,,,,,,,,,,,,,,,,,,,,,,,,,,,,,,,,,,,,,,,,,,,,,,,,,,,,,,,,,,,,,,,13675,2022-12-02_14h50.48.413,vts_reward_expectancy_bt_OFFLINE,2022.2.4,60.01774342024522,
0,0,1,0,1,0,0,0,hexagon,triangle,0,0,0,0,0,0,0,6,,,,,,,,,,,,,,,,,,,,,,,,,,,,,,,,,,,,,,,,1593.2789723710157,1593.2789723710157,1593.2789723710157,1593.2789723710157,1593.2789723710157,1593.2789723710157,1593.2789723710157,1593.2789723710157,1593.2789723710157,1593.2789723710157,a,1.354339562356472,1,1,0,1594.666305496823,1596.1680301968008,,,,,,,,,,,,,,,,,,,,,,,,,,,,,,,,,,,,,,,,,,,,,,,,,,,,,,,,,,,,,,,,,,,,,,,13675,2022-12-02_14h50.48.413,vts_reward_expectancy_bt_OFFLINE,2022.2.4,60.01774342024522,
1,0,0,0,0,1,0,0,triangle,circle,0,0,0,0,0,1,1,0,,,,,,,,,,,,,,,,,,,,,,,,,,,,,,,,,,,,,,,,1596.6679884376936,1596.6679884376936,1596.6679884376936,1596.6679884376936,1596.6679884376936,1596.6679884376936,1596.6679884376936,1596.6679884376936,1596.6679884376936,1596.6679884376936,l,1.5099165616557002,1,2,0,1598.2021112819202,1599.702561203856,1599.702561203856,,,,,,,,,,,,,,,,,,,,,,,,,,,,,,,,,,,,,,,,,,,,,,,,,,,,,,,,,,,,,,,,,,,,,,13675,2022-12-02_14h50.48.413,vts_reward_expectancy_bt_OFFLINE,2022.2.4,60.01774342024522,
1,0,0,0,0,0,1,0,triangle,hexagon,0,0,0,0,0,2,2,1,,,,,,,,,,,,,,,,,,,,,,,,,,,,,,,,,,,,,,,,1600.2025275290944,1600.2025275290944,1600.2025275290944,1600.2025275290944,1600.2025275290944,1600.2025275290944,1600.2025275290944,1600.2025275290944,1600.2025275290944,1600.2025275290944,a,1.1704228413291276,10,12,0,1601.4059745087288,1602.9055177001283,1602.9055177001283,1603.4057892509736,,,,,,,,,,,,,,,,,,,,,,,,,,,,,,,,,,,,,,,,,,,,,,,,,,,,,,,,,,,,,,,,,,,,,13675,2022-12-02_14h50.48.413,vts_reward_expectancy_bt_OFFLINE,2022.2.4,60.01774342024522,
0,0,0,1,0,1,0,0,star ,circle,0,0,0,0,0,3,3,10,,,,,,,,,,,,,,,,,,,,,,,,,,,,,,,,,,,,,,,,1603.4057892509736,1603.4057892509736,1603.4057892509736,1603.4057892509736,1603.4057892509736,1603.4057892509736,1603.4057892509736,1603.4057892509736,1603.4057892509736,1603.4057892509736,a,1.6685118451714516,10,22,0,1605.1062912489288,1606.6085286797024,,,,,,,,,,,,,,,,,,,,,,,,,,,,,,,,,,,,,,,,,,,,,,,,,,,,,,,,,,,,,,,,,,,,,,,13675,2022-12-02_14h50.48.413,vts_reward_expectancy_bt_OFFLINE,2022.2.4,60.01774342024522,
0,0,1,0,0,0,0,1,hexagon,star,0,0,0,0,0,4,4,8,,,,,,,,,,,,,,,,,,,,,,,,,,,,,,,,,,,,,,,,1607.1090445187874,1607.1090445187874,1607.1090445187874,1607.1090445187874,1607.1090445187874,1607.1090445187874,1607.1090445187874,1607.1090445187874,1607.1090445187874,1607.1090445187874,l,1.3171420353464782,10,32,0,1608.4426922597922,1609.9432778861374,1609.9432778861374,1610.443275110796,,,,,,,,,,,,,,,,,,,,,,,,,,,,,,,,,,,,,,,,,,,,,,,,,,,,,,,,,,,,,,,,,,,,,13675,2022-12-02_14h50.48.413,vts_reward_expectancy_bt_OFFLINE,2022.2.4,60.01774342024522,
0,0,1,0,0,1,0,0,hexagon,circle,0,0,0,0,0,5,5,7,,,,,,,,,,,,,,,,,,,,,,,,,,,,,,,,,,,,,,,,1610.443275110796,1610.443275110796,1610.443275110796,1610.443275110796,1610.443275110796,1610.443275110796,1610.443275110796,1610.443275110796,1610.443275110796,1610.443275110796,a,1.685463186353445,1,33,0,1612.1471256311052,1613.6462055947632,1613.6462055947632,1614.146581612993,,,,,,,,,,,,,,,,,,,,,,,,,,,,,,,,,,,,,,,,,,,,,,,,,,,,,,,,,,,,,,,,,,,,,13675,2022-12-02_14h50.48.413,vts_reward_expectancy_bt_OFFLINE,2022.2.4,60.01774342024522,
1,0,0,0,0,0,0,1,triangle,star,0,0,0,0,0,6,6,2,,,,,,,,,,,,,,,,,,,,,,,,,,,,,,,,,,,,,,,,1614.146581612993,1614.146581612993,1614.146581612993,1614.146581612993,1614.146581612993,1614.146581612993,1614.146581612993,1614.146581612993,1614.146581612993,1614.146581612993,a,1.3672721083275974,10,43,0,1615.532173005864,1617.0327334441245,,,,,,,,,,,,,,,,,,,,,,,,,,,,,,,,,,,,,,,,,,,,,,,,,,,,,,,,,,,,,,,,,,,,,,,13675,2022-12-02_14h50.48.413,vts_reward_expectancy_bt_OFFLINE,2022.2.4,60.01774342024522,
0,0,0,1,1,0,0,0,star,triangle,0,0,0,0,0,7,7,9,,,,,,,,,,,,,,,,,,,,,,,,,,,,,,,,,,,,,,,,1617.5329485530965,1617.5329485530965,1617.5329485530965,1617.5329485530965,1617.5329485530965,1617.5329485530965,1617.5329485530965,1617.5329485530965,1617.5329485530965,1617.5329485530965,l,0.8723663161508739,10,53,0,1618.4335082438774,1619.9337880341336,1619.9337880341336,1620.4340063510463,,,,,,,,,,,,,,,,,,,,,,,,,,,,,,,,,,,,,,,,,,,,,,,,,,,,,,,,,,,,,,,,,,,,,13675,2022-12-02_14h50.48.413,vts_reward_expectancy_bt_OFFLINE,2022.2.4,60.01774342024522,
0,1,0,0,0,0,0,1,circle,star,0,0,0,0,0,8,8,5,,,,,,,,,,,,,,,,,,,,,,,,,,,,,,,,,,,,,,,,1620.4340063510463,1620.4340063510463,1620.4340063510463,1620.4340063510463,1620.4340063510463,1620.4340063510463,1620.4340063510463,1620.4340063510463,1620.4340063510463,1620.4340063510463,a,1.290775387082249,1,54,0,1621.754386681132,1623.2535793697461,1623.2535793697461,,,,,,,,,,,,,,,,,,,,,,,,,,,,,,,,,,,,,,,,,,,,,,,,,,,,,,,,,,,,,,,,,,,,,,13675,2022-12-02_14h50.48.413,vts_reward_expectancy_bt_OFFLINE,2022.2.4,60.01774342024522,
0,1,0,0,1,0,0,0,circle,triangle,0,0,0,0,0,9,9,3,,,,,,,,,,,,,,,,,,,,,,,,,,,,,,,,,,,,,,,,1623.7534872246906,1623.7534872246906,1623.7534872246906,1623.7534872246906,1623.7534872246906,1623.7534872246906,1623.7534872246906,1623.7534872246906,1623.7534872246906,1623.7534872246906,l,1.0084326229989529,10,64,0,1624.7890330869704,1626.28981316695,,,,,,,,,,,,,,,,,,,,,,,,,,,,,,,,,,,,,,,,,,,,,,,,,,,,,,,,,,,,,,,,,,,,,,,13675,2022-12-02_14h50.48.413,vts_reward_expectancy_bt_OFFLINE,2022.2.4,60.01774342024522,
0,0,0,1,0,0,1,0,star,hexagon,0,0,0,0,0,10,10,11,,,,,,,,,,,,,,,,,,,,,,,,,,,,,,,,,,,,,,,,1626.789950271137,1626.789950271137,1626.789950271137,1626.789950271137,1626.789950271137,1626.789950271137,1626.789950271137,1626.789950271137,1626.789950271137,1626.789950271137,a,1.4940239661373198,10,74,0,1628.3073330069892,1629.8076985389926,1629.8076985389926,1630.307895774953,,,,,,,,,,,,,,,,,,,,,,,,,,,,,,,,,,,,,,,,,,,,,,,,,,,,,,,,,,,,,,,,,,,,,13675,2022-12-02_14h50.48.413,vts_reward_expectancy_bt_OFFLINE,2022.2.4,60.01774342024522,
0,1,0,0,0,0,1,0,circle,hexagon,0,0,0,0,0,11,11,4,,,,,,,,,,,,,,,,,,,,,,,,,,,,,,,,,,,,,,,,1630.307895774953,1630.307895774953,1630.307895774953,1630.307895774953,1630.307895774953,1630.307895774953,1630.307895774953,1630.307895774953,1630.307895774953,1630.307895774953,a,1.3508486710488796,1,75,0,1631.6781385079958,1633.177478776779,1633.177478776779,,,,,,,,,,,,,,,,,,,,,,,,,,,,,,,,,,,,,,,,,,,,,,,,,,,,,,,,,,,,,,,,,,,,,,13675,2022-12-02_14h50.48.413,vts_reward_expectancy_bt_OFFLINE,2022.2.4,60.01774342024522,
1,0,0,0,0,0,1,0,triangle,hexagon,0,0,0,0,1,0,12,1,,,,,,,,,,,,,,,,,,,,,,,,,,,,,,,,,,,,,,,,1633.6774903028272,1633.6774903028272,1633.6774903028272,1633.6774903028272,1633.6774903028272,1633.6774903028272,1633.6774903028272,1633.6774903028272,1633.6774903028272,1633.6774903028272,a,1.2443824242800474,10,85,0,1634.9466949598864,1636.4470529318787,,,,,,,,,,,,,,,,,,,,,,,,,,,,,,,,,,,,,,,,,,,,,,,,,,,,,,,,,,,,,,,,,,,,,,,13675,2022-12-02_14h50.48.413,vts_reward_expectancy_bt_OFFLINE,2022.2.4,60.01774342024522,
0,1,0,0,0,0,1,0,circle,hexagon,0,0,0,0,1,1,13,4,,,,,,,,,,,,,,,,,,,,,,,,,,,,,,,,,,,,,,,,1636.9473201679066,1636.9473201679066,1636.9473201679066,1636.9473201679066,1636.9473201679066,1636.9473201679066,1636.9473201679066,1636.9473201679066,1636.9473201679066,1636.9473201679066,l,1.7542747124098241,1,86,0,1638.732803309802,1640.2318015000783,1640.2318015000783,1640.7320276000537,,,,,,,,,,,,,,,,,,,,,,,,,,,,,,,,,,,,,,,,,,,,,,,,,,,,,,,,,,,,,,,,,,,,,13675,2022-12-02_14h50.48.413,vts_reward_expectancy_bt_OFFLINE,2022.2.4,60.01774342024522,
0,0,1,0,0,0,0,1,hexagon,star,0,0,0,0,1,2,14,8,,,,,,,,,,,,,,,,,,,,,,,,,,,,,,,,,,,,,,,,1640.7320276000537,1640.7320276000537,1640.7320276000537,1640.7320276000537,1640.7320276000537,1640.7320276000537,1640.7320276000537,1640.7320276000537,1640.7320276000537,1640.7320276000537,l,1.0970682725310326,10,96,0,1641.8528354307637,1643.3681521466933,,,,,,,,,,,,,,,,,,,,,,,,,,,,,,,,,,,,,,,,,,,,,,,,,,,,,,,,,,,,,,,,,,,,,,,13675,2022-12-02_14h50.48.413,vts_reward_expectancy_bt_OFFLINE,2022.2.4,60.01774342024522,
0,0,1,0,1,0,0,0,hexagon,triangle,0,0,0,0,1,3,15,6,,,,,,,,,,,,,,,,,,,,,,,,,,,,,,,,,,,,,,,,1643.8683408908546,1643.8683408908546,1643.8683408908546,1643.8683408908546,1643.8683408908546,1643.8683408908546,1643.8683408908546,1643.8683408908546,1643.8683408908546,1643.8683408908546,l,0.7397040352225304,10,106,0,1644.6354097221047,1646.1358419489115,1646.1358419489115,,,,,,,,,,,,,,,,,,,,,,,,,,,,,,,,,,,,,,,,,,,,,,,,,,,,,,,,,,,,,,,,,,,,,,13675,2022-12-02_14h50.48.413,vts_reward_expectancy_bt_OFFLINE,2022.2.4,60.01774342024522,
0,1,0,0,1,0,0,0,circle,triangle,0,0,0,0,1,4,16,3,,,,,,,,,,,,,,,,,,,,,,,,,,,,,,,,,,,,,,,,1646.6377559998073,1646.6377559998073,1646.6377559998073,1646.6377559998073,1646.6377559998073,1646.6377559998073,1646.6377559998073,1646.6377559998073,1646.6377559998073,1646.6377559998073,l,0.6703379051759839,10,116,0,1647.3379927980714,1648.8385874400847,1648.8385874400847,1649.3386858808808,,,,,,,,,,,,,,,,,,,,,,,,,,,,,,,,,,,,,,,,,,,,,,,,,,,,,,,,,,,,,,,,,,,,,13675,2022-12-02_14h50.48.413,vts_reward_expectancy_bt_OFFLINE,2022.2.4,60.01774342024522,
0,0,0,1,1,0,0,0,star,triangle,0,0,0,0,1,5,17,9,,,,,,,,,,,,,,,,,,,,,,,,,,,,,,,,,,,,,,,,1649.3386858808808,1649.3386858808808,1649.3386858808808,1649.3386858808808,1649.3386858808808,1649.3386858808808,1649.3386858808808,1649.3386858808808,1649.3386858808808,1649.3386858808808,l,0.5016910033300519,10,126,0,1649.8725046827458,1651.3748750397936,,,,,,,,,,,,,,,,,,,,,,,,,,,,,,,,,,,,,,,,,,,,,,,,,,,,,,,,,,,,,,,,,,,,,,,13675,2022-12-02_14h50.48.413,vts_reward_expectancy_bt_OFFLINE,2022.2.4,60.01774342024522,
0,0,0,1,0,1,0,0,star ,circle,0,0,0,0,1,6,18,10,,,,,,,,,,,,,,,,,,,,,,,,,,,,,,,,,,,,,,,,1651.8747192779556,1651.8747192779556,1651.8747192779556,1651.8747192779556,1651.8747192779556,1651.8747192779556,1651.8747192779556,1651.8747192779556,1651.8747192779556,1651.8747192779556,a,0.7334106988273561,10,136,0,1652.6255150660872,1654.1256927750073,1654.1256927750073,1654.6257898327895,,,,,,,,,,,,,,,,,,,,,,,,,,,,,,,,,,,,,,,,,,,,,,,,,,,,,,,,,,,,,,,,,,,,,13675,2022-12-02_14h50.48.413,vts_reward_expectancy_bt_OFFLINE,2022.2.4,60.01774342024522,
0,1,0,0,0,0,0,1,circle,star,0,0,0,0,1,7,19,5,,,,,,,,,,,,,,,,,,,,,,,,,,,,,,,,,,,,,,,,1654.6257898327895,1654.6257898327895,1654.6257898327895,1654.6257898327895,1654.6257898327895,1654.6257898327895,1654.6257898327895,1654.6257898327895,1654.6257898327895,1654.6257898327895,l,0.8621750031597912,10,146,0,1655.5096845789813,1657.0116324960254,,,,,,,,,,,,,,,,,,,,,,,,,,,,,,,,,,,,,,,,,,,,,,,,,,,,,,,,,,,,,,,,,,,,,,,13675,2022-12-02_14h50.48.413,vts_reward_expectancy_bt_OFFLINE,2022.2.4,60.01774342024522,
0,0,1,0,0,1,0,0,hexagon,circle,0,0,0,0,1,8,20,7,,,,,,,,,,,,,,,,,,,,,,,,,,,,,,,,,,,,,,,,1657.5119531629607,1657.5119531629607,1657.5119531629607,1657.5119531629607,1657.5119531629607,1657.5119531629607,1657.5119531629607,1657.5119531629607,1657.5119531629607,1657.5119531629607,a,1.890415937639773,10,156,0,1659.429433179088,1660.9300345410593,1660.9300345410593,,,,,,,,,,,,,,,,,,,,,,,,,,,,,,,,,,,,,,,,,,,,,,,,,,,,,,,,,,,,,,,,,,,,,,13675,2022-12-02_14h50.48.413,vts_reward_expectancy_bt_OFFLINE,2022.2.4,60.01774342024522,
0,0,0,1,0,0,1,0,star,hexagon,0,0,0,0,1,9,21,11,,,,,,,,,,,,,,,,,,,,,,,,,,,,,,,,,,,,,,,,1661.4320549811237,1661.4320549811237,1661.4320549811237,1661.4320549811237,1661.4320549811237,1661.4320549811237,1661.4320549811237,1661.4320549811237,1661.4320549811237,1661.4320549811237,l,0.7832247852347791,1,157,0,1662.2337618931197,1663.7329082340002,1663.7329082340002,1664.232949649915,,,,,,,,,,,,,,,,,,,,,,,,,,,,,,,,,,,,,,,,,,,,,,,,,,,,,,,,,,,,,,,,,,,,,13675,2022-12-02_14h50.48.413,vts_reward_expectancy_bt_OFFLINE,2022.2.4,60.01774342024522,
1,0,0,0,0,1,0,0,triangle,circle,0,0,0,0,1,10,22,0,,,,,,,,,,,,,,,,,,,,,,,,,,,,,,,,,,,,,,,,1664.232949649915,1664.232949649915,1664.232949649915,1664.232949649915,1664.232949649915,1664.232949649915,1664.232949649915,1664.232949649915,1664.232949649915,1664.232949649915,a,0.6492420402355492,10,167,0,1664.9016785761341,1666.4023956838064,,,,,,,,,,,,,,,,,,,,,,,,,,,,,,,,,,,,,,,,,,,,,,,,,,,,,,,,,,,,,,,,,,,,,,,13675,2022-12-02_14h50.48.413,vts_reward_expectancy_bt_OFFLINE,2022.2.4,60.01774342024522,
1,0,0,0,0,0,0,1,triangle,star,0,0,0,0,1,11,23,2,,,,,,,,,,,,,,,,,,,,,,,,,,,,,,,,,,,,,,,,1666.902271579951,1666.902271579951,1666.902271579951,1666.902271579951,1666.902271579951,1666.902271579951,1666.902271579951,1666.902271579951,1666.902271579951,1666.902271579951,a,0.7129493490792811,1,168,0,1667.6376911820844,1669.1533634099178,,,,,,,,,,,,,,,,,,,,,,,,,,,,,,,,,,,,,,,,,,,,,,,,,,,,,,,,,,,,,,,,,,,,,,,13675,2022-12-02_14h50.48.413,vts_reward_expectancy_bt_OFFLINE,2022.2.4,60.01774342024522,
0,0,1,0,0,0,0,1,hexagon,star,0,0,0,0,2,0,24,8,,,,,,,,,,,,,,,,,,,,,,,,,,,,,,,,,,,,,,,,1669.6532517429441,1669.6532517429441,1669.6532517429441,1669.6532517429441,1669.6532517429441,1669.6532517429441,1669.6532517429441,1669.6532517429441,1669.6532517429441,1669.6532517429441,a,1.8886096449568868,1,169,0,1671.5726932547987,1673.0729696839117,1673.0729696839117,,,,,,,,,,,,,,,,,,,,,,,,,,,,,,,,,,,,,,,,,,,,,,,,,,,,,,,,,,,,,,,,,,,,,,13675,2022-12-02_14h50.48.413,vts_reward_expectancy_bt_OFFLINE,2022.2.4,60.01774342024522,
0,1,0,0,0,0,1,0,circle,hexagon,0,0,0,0,2,1,25,4,,,,,,,,,,,,,,,,,,,,,,,,,,,,,,,,,,,,,,,,1673.5732981888577,1673.5732981888577,1673.5732981888577,1673.5732981888577,1673.5732981888577,1673.5732981888577,1673.5732981888577,1673.5732981888577,1673.5732981888577,1673.5732981888577,l,1.1749539580196142,1,170,0,1674.7740303040482,1676.276173508726,,,,,,,,,,,,,,,,,,,,,,,,,,,,,,,,,,,,,,,,,,,,,,,,,,,,,,,,,,,,,,,,,,,,,,,13675,2022-12-02_14h50.48.413,vts_reward_expectancy_bt_OFFLINE,2022.2.4,60.01774342024522,
0,1,0,0,1,0,0,0,circle,triangle,0,0,0,0,2,2,26,3,,,,,,,,,,,,,,,,,,,,,,,,,,,,,,,,,,,,,,,,1676.7764398669824,1676.7764398669824,1676.7764398669824,1676.7764398669824,1676.7764398669824,1676.7764398669824,1676.7764398669824,1676.7764398669824,1676.7764398669824,1676.7764398669824,a,0.5484245610423386,1,171,0,1677.343186008744,1678.8439640128054,1678.8439640128054,1679.3436790057458,,,,,,,,,,,,,,,,,,,,,,,,,,,,,,,,,,,,,,,,,,,,,,,,,,,,,,,,,,,,,,,,,,,,,13675,2022-12-02_14h50.48.413,vts_reward_expectancy_bt_OFFLINE,2022.2.4,60.01774342024522,
1,0,0,0,0,0,1,0,triangle,hexagon,0,0,0,0,2,3,27,1,,,,,,,,,,,,,,,,,,,,,,,,,,,,,,,,,,,,,,,,1679.3436790057458,1679.3436790057458,1679.3436790057458,1679.3436790057458,1679.3436790057458,1679.3436790057458,1679.3436790057458,1679.3436790057458,1679.3436790057458,1679.3436790057458,l,0.8722596750594676,10,181,0,1680.2458492000587,1681.746694387868,,,,,,,,,,,,,,,,,,,,,,,,,,,,,,,,,,,,,,,,,,,,,,,,,,,,,,,,,,,,,,,,,,,,,,,13675,2022-12-02_14h50.48.413,vts_reward_expectancy_bt_OFFLINE,2022.2.4,60.01774342024522,
0,0,0,1,0,1,0,0,star ,circle,0,0,0,0,2,4,28,10,,,,,,,,,,,,,,,,,,,,,,,,,,,,,,,,,,,,,,,,1682.247021961026,1682.247021961026,1682.247021961026,1682.247021961026,1682.247021961026,1682.247021961026,1682.247021961026,1682.247021961026,1682.247021961026,1682.247021961026,a,0.8384932782500982,10,191,0,1683.1138010397553,1684.6144559658132,1684.6144559658132,1685.114583909046,,,,,,,,,,,,,,,,,,,,,,,,,,,,,,,,,,,,,,,,,,,,,,,,,,,,,,,,,,,,,,,,,,,,,13675,2022-12-02_14h50.48.413,vts_reward_expectancy_bt_OFFLINE,2022.2.4,60.01774342024522,
0,0,1,0,1,0,0,0,hexagon,triangle,0,0,0,0,2,5,29,6,,,,,,,,,,,,,,,,,,,,,,,,,,,,,,,,,,,,,,,,1685.114583909046,1685.114583909046,1685.114583909046,1685.114583909046,1685.114583909046,1685.114583909046,1685.114583909046,1685.114583909046,1685.114583909046,1685.114583909046,l,0.6479848162271082,10,201,0,1685.781462312676,1687.2837757021189,,,,,,,,,,,,,,,,,,,,,,,,,,,,,,,,,,,,,,,,,,,,,,,,,,,,,,,,,,,,,,,,,,,,,,,13675,2022-12-02_14h50.48.413,vts_reward_expectancy_bt_OFFLINE,2022.2.4,60.01774342024522,
1,0,0,0,0,1,0,0,triangle,circle,0,0,0,0,2,6,30,0,,,,,,,,,,,,,,,,,,,,,,,,,,,,,,,,,,,,,,,,1687.7837639660574,1687.7837639660574,1687.7837639660574,1687.7837639660574,1687.7837639660574,1687.7837639660574,1687.7837639660574,1687.7837639660574,1687.7837639660574,1687.7837639660574,a,0.8710651420988142,10,211,0,1688.684467177838,1690.1848861128092,1690.1848861128092,1690.68495849194,,,,,,,,,,,,,,,,,,,,,,,,,,,,,,,,,,,,,,,,,,,,,,,,,,,,,,,,,,,,,,,,,,,,,13675,2022-12-02_14h50.48.413,vts_reward_expectancy_bt_OFFLINE,2022.2.4,60.01774342024522,
0,1,0,0,0,0,0,1,circle,star,0,0,0,0,2,7,31,5,,,,,,,,,,,,,,,,,,,,,,,,,,,,,,,,,,,,,,,,1690.68495849194,1690.68495849194,1690.68495849194,1690.68495849194,1690.68495849194,1690.68495849194,1690.68495849194,1690.68495849194,1690.68495849194,1690.68495849194,l,1.1653083423152566,10,221,0,1691.8704769890755,1693.3712574858218,1693.3712574858218,1693.8714342508465,,,,,,,,,,,,,,,,,,,,,,,,,,,,,,,,,,,,,,,,,,,,,,,,,,,,,,,,,,,,,,,,,,,,,13675,2022-12-02_14h50.48.413,vts_reward_expectancy_bt_OFFLINE,2022.2.4,60.01774342024522,
0,0,0,1,1,0,0,0,star,triangle,0,0,0,0,2,8,32,9,,,,,,,,,,,,,,,,,,,,,,,,,,,,,,,,,,,,,,,,1693.8714342508465,1693.8714342508465,1693.8714342508465,1693.8714342508465,1693.8714342508465,1693.8714342508465,1693.8714342508465,1693.8714342508465,1693.8714342508465,1693.8714342508465,l,0.5103312353603542,10,231,0,1694.4046267271042,1695.9055013549514,1695.9055013549514,,,,,,,,,,,,,,,,,,,,,,,,,,,,,,,,,,,,,,,,,,,,,,,,,,,,,,,,,,,,,,,,,,,,,,13675,2022-12-02_14h50.48.413,vts_reward_expectancy_bt_OFFLINE,2022.2.4,60.01774342024522,
0,0,1,0,0,1,0,0,hexagon,circle,0,0,0,0,2,9,33,7,,,,,,,,,,,,,,,,,,,,,,,,,,,,,,,,,,,,,,,,1696.4076105477288,1696.4076105477288,1696.4076105477288,1696.4076105477288,1696.4076105477288,1696.4076105477288,1696.4076105477288,1696.4076105477288,1696.4076105477288,1696.4076105477288,a,0.7411914831027389,1,232,0,1697.1762550137937,1698.6914686118253,,,,,,,,,,,,,,,,,,,,,,,,,,,,,,,,,,,,,,,,,,,,,,,,,,,,,,,,,,,,,,,,,,,,,,,13675,2022-12-02_14h50.48.413,vts_reward_expectancy_bt_OFFLINE,2022.2.4,60.01774342024522,
1,0,0,0,0,0,0,1,triangle,star,0,0,0,0,2,10,34,2,,,,,,,,,,,,,,,,,,,,,,,,,,,,,,,,,,,,,,,,1699.1916940398514,1699.1916940398514,1699.1916940398514,1699.1916940398514,1699.1916940398514,1699.1916940398514,1699.1916940398514,1699.1916940398514,1699.1916940398514,1699.1916940398514,a,0.4991828058846295,10,242,0,1699.7104724710807,1701.2143789390102,,,,,,,,,,,,,,,,,,,,,,,,,,,,,,,,,,,,,,,,,,,,,,,,,,,,,,,,,,,,,,,,,,,,,,,13675,2022-12-02_14h50.48.413,vts_reward_expectancy_bt_OFFLINE,2022.2.4,60.01774342024522,
0,0,0,1,0,0,1,0,star,hexagon,0,0,0,0,2,11,35,11,,,,,,,,,,,,,,,,,,,,,,,,,,,,,,,,,,,,,,,,1701.711113837082,1701.711113837082,1701.711113837082,1701.711113837082,1701.711113837082,1701.711113837082,1701.711113837082,1701.711113837082,1701.711113837082,1701.711113837082,a,0.43235795525833964,10,252,0,1702.1614013207145,1703.6621022378094,1703.6621022378094,1704.1620604977943,,,,,,,,,,,,,,,,,,,,,,,,,,,,,,,,,,,,,,,,,,,,,,,,,,,,,,,,,,,,,,,,,,,,,13675,2022-12-02_14h50.48.413,vts_reward_expectancy_bt_OFFLINE,2022.2.4,60.01774342024522,
0,0,0,1,0,0,1,0,star,hexagon,0,0,0,0,3,0,36,11,,,,,,,,,,,,,,,,,,,,,,,,,,,,,,,,,,,,,,,,1704.1620604977943,1704.1620604977943,1704.1620604977943,1704.1620604977943,1704.1620604977943,1704.1620604977943,1704.1620604977943,1704.1620604977943,1704.1620604977943,1704.1620604977943,l,0.5015442804433405,10,262,0,1704.6955409781076,1706.1930781761184,1706.1930781761184,,,,,,,,,,,,,,,,,,,,,,,,,,,,,,,,,,,,,,,,,,,,,,,,,,,,,,,,,,,,,,,,,,,,,,13675,2022-12-02_14h50.48.413,vts_reward_expectancy_bt_OFFLINE,2022.2.4,60.01774342024522,
0,0,0,1,1,0,0,0,star,triangle,0,0,0,0,3,1,37,9,,,,,,,,,,,,,,,,,,,,,,,,,,,,,,,,,,,,,,,,1706.6982606109232,1706.6982606109232,1706.6982606109232,1706.6982606109232,1706.6982606109232,1706.6982606109232,1706.6982606109232,1706.6982606109232,1706.6982606109232,1706.6982606109232,l,0.54222776228562,10,272,0,1707.2653538058512,1708.7656685239635,1708.7656685239635,1709.265671350062,,,,,,,,,,,,,,,,,,,,,,,,,,,,,,,,,,,,,,,,,,,,,,,,,,,,,,,,,,,,,,,,,,,,,13675,2022-12-02_14h50.48.413,vts_reward_expectancy_bt_OFFLINE,2022.2.4,60.01774342024522,
0,1,0,0,0,0,1,0,circle,hexagon,0,0,0,0,3,2,38,4,,,,,,,,,,,,,,,,,,,,,,,,,,,,,,,,,,,,,,,,1709.265671350062,1709.265671350062,1709.265671350062,1709.265671350062,1709.265671350062,1709.265671350062,1709.265671350062,1709.265671350062,1709.265671350062,1709.265671350062,l,0.8889638823457062,1,273,0,1710.1848347610794,1711.6853215307929,,,,,,,,,,,,,,,,,,,,,,,,,,,,,,,,,,,,,,,,,,,,,,,,,,,,,,,,,,,,,,,,,,,,,,,13675,2022-12-02_14h50.48.413,vts_reward_expectancy_bt_OFFLINE,2022.2.4,60.01774342024522,
0,0,1,0,0,0,0,1,hexagon,star,0,0,0,0,3,3,39,8,,,,,,,,,,,,,,,,,,,,,,,,,,,,,,,,,,,,,,,,1712.1852309200913,1712.1852309200913,1712.1852309200913,1712.1852309200913,1712.1852309200913,1712.1852309200913,1712.1852309200913,1712.1852309200913,1712.1852309200913,1712.1852309200913,a,0.5567114162258804,10,283,0,1712.7710508489981,1714.2862091078423,,,,,,,,,,,,,,,,,,,,,,,,,,,,,,,,,,,,,,,,,,,,,,,,,,,,,,,,,,,,,,,,,,,,,,,13675,2022-12-02_14h50.48.413,vts_reward_expectancy_bt_OFFLINE,2022.2.4,60.01774342024522,
0,0,0,1,0,1,0,0,star ,circle,0,0,0,0,3,4,40,10,,,,,,,,,,,,,,,,,,,,,,,,,,,,,,,,,,,,,,,,1714.786255467683,1714.786255467683,1714.786255467683,1714.786255467683,1714.786255467683,1714.786255467683,1714.786255467683,1714.786255467683,1714.786255467683,1714.786255467683,a,0.7230329113081098,10,293,0,1715.536394613795,1717.0388495470397,,,,,,,,,,,,,,,,,,,,,,,,,,,,,,,,,,,,,,,,,,,,,,,,,,,,,,,,,,,,,,,,,,,,,,,13675,2022-12-02_14h50.48.413,vts_reward_expectancy_bt_OFFLINE,2022.2.4,60.01774342024522,
1,0,0,0,0,1,0,0,triangle,circle,0,0,0,0,3,5,41,0,,,,,,,,,,,,,,,,,,,,,,,,,,,,,,,,,,,,,,,,1717.5393986520357,1717.5393986520357,1717.5393986520357,1717.5393986520357,1717.5393986520357,1717.5393986520357,1717.5393986520357,1717.5393986520357,1717.5393986520357,1717.5393986520357,a,0.7943881251849234,10,303,0,1718.3559581828304,1719.8566909097135,1719.8566909097135,,,,,,,,,,,,,,,,,,,,,,,,,,,,,,,,,,,,,,,,,,,,,,,,,,,,,,,,,,,,,,,,,,,,,,13675,2022-12-02_14h50.48.413,vts_reward_expectancy_bt_OFFLINE,2022.2.4,60.01774342024522,
1,0,0,0,0,0,1,0,triangle,hexagon,0,0,0,0,3,6,42,1,,,,,,,,,,,,,,,,,,,,,,,,,,,,,,,,,,,,,,,,1720.3597529157996,1720.3597529157996,1720.3597529157996,1720.3597529157996,1720.3597529157996,1720.3597529157996,1720.3597529157996,1720.3597529157996,1720.3597529157996,1720.3597529157996,a,0.516557190567255,10,313,0,1720.9069301597774,1722.4093044507317,,,,,,,,,,,,,,,,,,,,,,,,,,,,,,,,,,,,,,,,,,,,,,,,,,,,,,,,,,,,,,,,,,,,,,,13675,2022-12-02_14h50.48.413,vts_reward_expectancy_bt_OFFLINE,2022.2.4,60.01774342024522,
1,0,0,0,0,0,0,1,triangle,star,0,0,0,0,3,7,43,2,,,,,,,,,,,,,,,,,,,,,,,,,,,,,,,,,,,,,,,,1722.9095268850215,1722.9095268850215,1722.9095268850215,1722.9095268850215,1722.9095268850215,1722.9095268850215,1722.9095268850215,1722.9095268850215,1722.9095268850215,1722.9095268850215,a,0.4748762734234333,10,323,0,1723.4101023608819,1724.910518991761,1724.910518991761,1725.4102201759815,,,,,,,,,,,,,,,,,,,,,,,,,,,,,,,,,,,,,,,,,,,,,,,,,,,,,,,,,,,,,,,,,,,,,13675,2022-12-02_14h50.48.413,vts_reward_expectancy_bt_OFFLINE,2022.2.4,60.01774342024522,
0,1,0,0,1,0,0,0,circle,triangle,0,0,0,0,3,8,44,3,,,,,,,,,,,,,,,,,,,,,,,,,,,,,,,,,,,,,,,,1725.4102201759815,1725.4102201759815,1725.4102201759815,1725.4102201759815,1725.4102201759815,1725.4102201759815,1725.4102201759815,1725.4102201759815,1725.4102201759815,1725.4102201759815,l,0.37070876313373446,10,333,0,1725.8103660447523,1727.3129443279468,,,,,,,,,,,,,,,,,,,,,,,,,,,,,,,,,,,,,,,,,,,,,,,,,,,,,,,,,,,,,,,,,,,,,,,13675,2022-12-02_14h50.48.413,vts_reward_expectancy_bt_OFFLINE,2022.2.4,60.01774342024522,
0,1,0,0,0,0,0,1,circle,star,0,0,0,0,3,9,45,5,,,,,,,,,,,,,,,,,,,,,,,,,,,,,,,,,,,,,,,,1727.8130030147731,1727.8130030147731,1727.8130030147731,1727.8130030147731,1727.8130030147731,1727.8130030147731,1727.8130030147731,1727.8130030147731,1727.8130030147731,1727.8130030147731,a,0.47690333519130945,1,334,0,1728.3149498756975,1729.830486355815,,,,,,,,,,,,,,,,,,,,,,,,,,,,,,,,,,,,,,,,,,,,,,,,,,,,,,,,,,,,,,,,,,,,,,,13675,2022-12-02_14h50.48.413,vts_reward_expectancy_bt_OFFLINE,2022.2.4,60.01774342024522,
0,0,1,0,1,0,0,0,hexagon,triangle,0,0,0,0,3,10,46,6,,,,,,,,,,,,,,,,,,,,,,,,,,,,,,,,,,,,,,,,1730.313753200695,1730.313753200695,1730.313753200695,1730.313753200695,1730.313753200695,1730.313753200695,1730.313753200695,1730.313753200695,1730.313753200695,1730.313753200695,l,0.46254265401512384,10,344,0,1730.799582265783,1732.2999773588963,,,,,,,,,,,,,,,,,,,,,,,,,,,,,,,,,,,,,,,,,,,,,,,,,,,,,,,,,,,,,,,,,,,,,,,13675,2022-12-02_14h50.48.413,vts_reward_expectancy_bt_OFFLINE,2022.2.4,60.01774342024522,
0,0,1,0,0,1,0,0,hexagon,circle,0,0,0,0,3,11,47,7,,,,,,,,,,,,,,,,,,,,,,,,,,,,,,,,,,,,,,,,1732.7999429451302,1732.7999429451302,1732.7999429451302,1732.7999429451302,1732.7999429451302,1732.7999429451302,1732.7999429451302,1732.7999429451302,1732.7999429451302,1732.7999429451302,a,0.901658930350095,1,345,0,1733.7344907470979,1735.2342055221088,1735.2342055221088,1735.741715223994,,,,,,,,,,,,,,,,,,,,,,,,,,,,,,,,,,,,,,,,,,,,,,,,,,,,,,,,,,,,,,,,,,,,,13675,2022-12-02_14h50.48.413,vts_reward_expectancy_bt_OFFLINE,2022.2.4,60.01774342024522,
0,0,0,1,0,0,1,0,star,hexagon,1,0,1,0,0,0,0,11,,,,,,,,,,,,,,,,,,,,,,,,,,,,,,,,,,,,,,,,1741.1154067390598,1741.1154067390598,1741.1154067390598,1741.1154067390598,1741.1154067390598,1741.1154067390598,1741.1154067390598,1741.1154067390598,1741.1154067390598,1741.1154067390598,a,1.1147990352474153,10,355,1,1742.2593923411332,1743.7745418027043,,,,,,,,,,,,,,,,,,,,,,,,,,,,,,,,,,,,,,,,,,,,,,,,,,,,,,,,,,,,,,,,,,,,,,,13675,2022-12-02_14h50.48.413,vts_reward_expectancy_bt_OFFLINE,2022.2.4,60.01774342024522,
1,0,0,0,0,1,0,0,triangle,circle,1,0,1,0,0,1,1,0,,,,,,,,,,,,,,,,,,,,,,,,,,,,,,,,,,,,,,,,1744.2746804049239,1744.2746804049239,1744.2746804049239,1744.2746804049239,1744.2746804049239,1744.2746804049239,1744.2746804049239,1744.2746804049239,1744.2746804049239,1744.2746804049239,a,0.5431745033711195,10,365,1,1744.841613596771,1746.3438155739568,,,,,,,,,,,,,,,,,,,,,,,,,,,,,,,,,,,,,,,,,,,,,,,,,,,,,,,,,,,,,,,,,,,,,,,13675,2022-12-02_14h50.48.413,vts_reward_expectancy_bt_OFFLINE,2022.2.4,60.01774342024522,
0,0,1,0,0,0,0,1,hexagon,star,1,0,1,0,0,2,2,8,,,,,,,,,,,,,,,,,,,,,,,,,,,,,,,,,,,,,,,,1746.8438877789304,1746.8438877789304,1746.8438877789304,1746.8438877789304,1746.8438877789304,1746.8438877789304,1746.8438877789304,1746.8438877789304,1746.8438877789304,1746.8438877789304,a,0.5502837323583663,10,375,1,1747.411328948103,1748.911390102934,1748.911390102934,1749.4114543260075,,,,,,,,,,,,,,,,,,,,,,,,,,,,,,,,,,,,,,,,,,,,,,,,,,,,,,,,,,,,,,,,,,,,,13675,2022-12-02_14h50.48.413,vts_reward_expectancy_bt_OFFLINE,2022.2.4,60.01774342024522,
0,0,1,0,0,1,0,0,hexagon,circle,1,0,1,0,0,3,3,7,,,,,,,,,,,,,,,,,,,,,,,,,,,,,,,,,,,,,,,,1749.4114543260075,1749.4114543260075,1749.4114543260075,1749.4114543260075,1749.4114543260075,1749.4114543260075,1749.4114543260075,1749.4114543260075,1749.4114543260075,1749.4114543260075,a,1.3234795392490923,1,376,1,1750.7642030110583,1752.2645313739777,,,,,,,,,,,,,,,,,,,,,,,,,,,,,,,,,,,,,,,,,,,,,,,,,,,,,,,,,,,,,,,,,,,,,,,13675,2022-12-02_14h50.48.413,vts_reward_expectancy_bt_OFFLINE,2022.2.4,60.01774342024522,
0,0,0,1,1,0,0,0,star,triangle,1,0,1,0,0,4,4,9,,,,,,,,,,,,,,,,,,,,,,,,,,,,,,,,,,,,,,,,1752.7645593639463,1752.7645593639463,1752.7645593639463,1752.7645593639463,1752.7645593639463,1752.7645593639463,1752.7645593639463,1752.7645593639463,1752.7645593639463,1752.7645593639463,l,1.0079836514778435,10,386,1,1753.8010537656955,1755.3156832698733,,,,,,,,,,,,,,,,,,,,,,,,,,,,,,,,,,,,,,,,,,,,,,,,,,,,,,,,,,,,,,,,,,,,,,,13675,2022-12-02_14h50.48.413,vts_reward_expectancy_bt_OFFLINE,2022.2.4,60.01774342024522,
0,0,1,0,1,0,0,0,hexagon,triangle,1,0,1,0,0,5,5,6,,,,,,,,,,,,,,,,,,,,,,,,,,,,,,,,,,,,,,,,1755.8155486579053,1755.8155486579053,1755.8155486579053,1755.8155486579053,1755.8155486579053,1755.8155486579053,1755.8155486579053,1755.8155486579053,1755.8155486579053,1755.8155486579053,l,0.5894159562885761,10,396,1,1756.434517455753,1757.9352437187918,1757.9352437187918,,,,,,,,,,,,,,,,,,,,,,,,,,,,,,,,,,,,,,,,,,,,,,,,,,,,,,,,,,,,,,,,,,,,,,13675,2022-12-02_14h50.48.413,vts_reward_expectancy_bt_OFFLINE,2022.2.4,60.01774342024522,
0,1,0,0,0,0,1,0,circle,hexagon,1,0,1,0,0,6,6,4,,,,,,,,,,,,,,,,,,,,,,,,,,,,,,,,,,,,,,,,1758.435535673052,1758.435535673052,1758.435535673052,1758.435535673052,1758.435535673052,1758.435535673052,1758.435535673052,1758.435535673052,1758.435535673052,1758.435535673052,l,0.5009209294803441,1,397,1,1758.9694469380192,1760.469092558138,1760.469092558138,1760.969380049035,,,,,,,,,,,,,,,,,,,,,,,,,,,,,,,,,,,,,,,,,,,,,,,,,,,,,,,,,,,,,,,,,,,,,13675,2022-12-02_14h50.48.413,vts_reward_expectancy_bt_OFFLINE,2022.2.4,60.01774342024522,
0,1,0,0,1,0,0,0,circle,triangle,1,0,1,0,0,7,7,3,,,,,,,,,,,,,,,,,,,,,,,,,,,,,,,,,,,,,,,,1760.969380049035,1760.969380049035,1760.969380049035,1760.969380049035,1760.969380049035,1760.969380049035,1760.969380049035,1760.969380049035,1760.969380049035,1760.969380049035,l,0.5108667151071131,10,407,1,1761.5070343390107,1763.021932312753,,,,,,,,,,,,,,,,,,,,,,,,,,,,,,,,,,,,,,,,,,,,,,,,,,,,,,,,,,,,,,,,,,,,,,,13675,2022-12-02_14h50.48.413,vts_reward_expectancy_bt_OFFLINE,2022.2.4,60.01774342024522,
1,0,0,0,0,0,1,0,triangle,hexagon,1,0,1,0,0,8,8,1,,,,,,,,,,,,,,,,,,,,,,,,,,,,,,,,,,,,,,,,1763.5056573138572,1763.5056573138572,1763.5056573138572,1763.5056573138572,1763.5056573138572,1763.5056573138572,1763.5056573138572,1763.5056573138572,1763.5056573138572,1763.5056573138572,a,0.5947261741384864,10,417,1,1764.1225274261087,1765.623075822834,1765.623075822834,,,,,,,,,,,,,,,,,,,,,,,,,,,,,,,,,,,,,,,,,,,,,,,,,,,,,,,,,,,,,,,,,,,,,,13675,2022-12-02_14h50.48.413,vts_reward_expectancy_bt_OFFLINE,2022.2.4,60.01774342024522,
1,0,0,0,0,0,0,1,triangle,star,1,0,1,0,0,9,9,2,,,,,,,,,,,,,,,,,,,,,,,,,,,,,,,,,,,,,,,,1766.1230821157806,1766.1230821157806,1766.1230821157806,1766.1230821157806,1766.1230821157806,1766.1230821157806,1766.1230821157806,1766.1230821157806,1766.1230821157806,1766.1230821157806,a,0.722406554967165,1,418,1,1766.8773477301002,1768.392448595725,,,,,,,,,,,,,,,,,,,,,,,,,,,,,,,,,,,,,,,,,,,,,,,,,,,,,,,,,,,,,,,,,,,,,,,13675,2022-12-02_14h50.48.413,vts_reward_expectancy_bt_OFFLINE,2022.2.4,60.01774342024522,
0,1,0,0,0,0,0,1,circle,star,1,0,1,0,0,10,10,5,,,,,,,,,,,,,,,,,,,,,,,,,,,,,,,,,,,,,,,,1768.8928404897451,1768.8928404897451,1768.8928404897451,1768.8928404897451,1768.8928404897451,1768.8928404897451,1768.8928404897451,1768.8928404897451,1768.8928404897451,1768.8928404897451,l,0.8668052540160716,10,428,1,1769.7786037148908,1771.2791448547505,,,,,,,,,,,,,,,,,,,,,,,,,,,,,,,,,,,,,,,,,,,,,,,,,,,,,,,,,,,,,,,,,,,,,,,13675,2022-12-02_14h50.48.413,vts_reward_expectancy_bt_OFFLINE,2022.2.4,60.01774342024522,
0,0,0,1,0,1,0,0,star ,circle,1,0,1,0,0,11,11,10,,,,,,,,,,,,,,,,,,,,,,,,,,,,,,,,,,,,,,,,1771.7789040911011,1771.7789040911011,1771.7789040911011,1771.7789040911011,1771.7789040911011,1771.7789040911011,1771.7789040911011,1771.7789040911011,1771.7789040911011,1771.7789040911011,a,0.8383255936205387,10,438,1,1772.6459345920011,1774.146274534054,1774.146274534054,1774.6465843659826,,,,,,,,,,,,,,,,,,,,,,,,,,,,,,,,,,,,,,,,,,,,,,,,,,,,,,,,,,,,,,,,,,,,,13675,2022-12-02_14h50.48.413,vts_reward_expectancy_bt_OFFLINE,2022.2.4,60.01774342024522,
0,0,1,0,1,0,0,0,hexagon,triangle,1,0,1,0,1,0,12,6,,,,,,,,,,,,,,,,,,,,,,,,,,,,,,,,,,,,,,,,1774.6465843659826,1774.6465843659826,1774.6465843659826,1774.6465843659826,1774.6465843659826,1774.6465843659826,1774.6465843659826,1774.6465843659826,1774.6465843659826,1774.6465843659826,l,0.5926442444324493,10,448,1,1775.2635994637385,1776.7657672930509,,,,,,,,,,,,,,,,,,,,,,,,,,,,,,,,,,,,,,,,,,,,,,,,,,,,,,,,,,,,,,,,,,,,,,,13675,2022-12-02_14h50.48.413,vts_reward_expectancy_bt_OFFLINE,2022.2.4,60.01774342024522,
0,0,0,1,0,1,0,0,star ,circle,1,0,1,0,1,1,13,10,,,,,,,,,,,,,,,,,,,,,,,,,,,,,,,,,,,,,,,,1777.2658959496766,1777.2658959496766,1777.2658959496766,1777.2658959496766,1777.2658959496766,1777.2658959496766,1777.2658959496766,1777.2658959496766,1777.2658959496766,1777.2658959496766,l,0.5038400515913963,1,449,1,1777.8018756718375,1779.3165417127311,,,,,,,,,,,,,,,,,,,,,,,,,,,,,,,,,,,,,,,,,,,,,,,,,,,,,,,,,,,,,,,,,,,,,,,13675,2022-12-02_14h50.48.413,vts_reward_expectancy_bt_OFFLINE,2022.2.4,60.01774342024522,
1,0,0,0,0,0,0,1,triangle,star,1,0,1,0,1,2,14,2,,,,,,,,,,,,,,,,,,,,,,,,,,,,,,,,,,,,,,,,1779.8168428177014,1779.8168428177014,1779.8168428177014,1779.8168428177014,1779.8168428177014,1779.8168428177014,1779.8168428177014,1779.8168428177014,1779.8168428177014,1779.8168428177014,a,0.5643427590839565,10,459,1,1780.4023876991123,1781.9028331548907,,,,,,,,,,,,,,,,,,,,,,,,,,,,,,,,,,,,,,,,,,,,,,,,,,,,,,,,,,,,,,,,,,,,,,,13675,2022-12-02_14h50.48.413,vts_reward_expectancy_bt_OFFLINE,2022.2.4,60.01774342024522,
1,0,0,0,0,1,0,0,triangle,circle,1,0,1,0,1,3,15,0,,,,,,,,,,,,,,,,,,,,,,,,,,,,,,,,,,,,,,,,1782.4028697400354,1782.4028697400354,1782.4028697400354,1782.4028697400354,1782.4028697400354,1782.4028697400354,1782.4028697400354,1782.4028697400354,1782.4028697400354,1782.4028697400354,a,0.5873650894500315,10,469,1,1783.0202208147384,1784.5203886898234,1784.5203886898234,1785.0206199111417,,,,,,,,,,,,,,,,,,,,,,,,,,,,,,,,,,,,,,,,,,,,,,,,,,,,,,,,,,,,,,,,,,,,,13675,2022-12-02_14h50.48.413,vts_reward_expectancy_bt_OFFLINE,2022.2.4,60.01774342024522,
0,1,0,0,0,0,0,1,circle,star,1,0,1,0,1,4,16,5,,,,,,,,,,,,,,,,,,,,,,,,,,,,,,,,,,,,,,,,1785.0206199111417,1785.0206199111417,1785.0206199111417,1785.0206199111417,1785.0206199111417,1785.0206199111417,1785.0206199111417,1785.0206199111417,1785.0206199111417,1785.0206199111417,l,0.8619049824774265,10,479,1,1785.9046897720546,1787.406772383023,,,,,,,,,,,,,,,,,,,,,,,,,,,,,,,,,,,,,,,,,,,,,,,,,,,,,,,,,,,,,,,,,,,,,,,13675,2022-12-02_14h50.48.413,vts_reward_expectancy_bt_OFFLINE,2022.2.4,60.01774342024522,
0,1,0,0,0,0,1,0,circle,hexagon,1,0,1,0,1,5,17,4,,,,,,,,,,,,,,,,,,,,,,,,,,,,,,,,,,,,,,,,1787.9069287637249,1787.9069287637249,1787.9069287637249,1787.9069287637249,1787.9069287637249,1787.9069287637249,1787.9069287637249,1787.9069287637249,1787.9069287637249,1787.9069287637249,a,0.7991205425933003,10,489,1,1788.7242779200897,1790.2243651100434,1790.2243651100434,1790.724466967862,,,,,,,,,,,,,,,,,,,,,,,,,,,,,,,,,,,,,,,,,,,,,,,,,,,,,,,,,,,,,,,,,,,,,13675,2022-12-02_14h50.48.413,vts_reward_expectancy_bt_OFFLINE,2022.2.4,60.01774342024522,
0,0,0,1,0,0,1,0,star,hexagon,1,0,1,0,1,6,18,11,,,,,,,,,,,,,,,,,,,,,,,,,,,,,,,,,,,,,,,,1790.724466967862,1790.724466967862,1790.724466967862,1790.724466967862,1790.724466967862,1790.724466967862,1790.724466967862,1790.724466967862,1790.724466967862,1790.724466967862,a,1.1765563343651593,10,499,1,1791.9269174570218,1793.427261237055,1793.427261237055,1793.9273872408085,,,,,,,,,,,,,,,,,,,,,,,,,,,,,,,,,,,,,,,,,,,,,,,,,,,,,,,,,,,,,,,,,,,,,13675,2022-12-02_14h50.48.413,vts_reward_expectancy_bt_OFFLINE,2022.2.4,60.01774342024522,
0,0,1,0,0,1,0,0,hexagon,circle,1,0,1,0,1,7,19,7,,,,,,,,,,,,,,,,,,,,,,,,,,,,,,,,,,,,,,,,1793.9273872408085,1793.9273872408085,1793.9273872408085,1793.9273872408085,1793.9273872408085,1793.9273872408085,1793.9273872408085,1793.9273872408085,1793.9273872408085,1793.9273872408085,a,0.7416061321273446,1,500,1,1794.6969094336964,1796.211798415985,,,,,,,,,,,,,,,,,,,,,,,,,,,,,,,,,,,,,,,,,,,,,,,,,,,,,,,,,,,,,,,,,,,,,,,13675,2022-12-02_14h50.48.413,vts_reward_expectancy_bt_OFFLINE,2022.2.4,60.01774342024522,
0,1,0,0,1,0,0,0,circle,triangle,1,0,1,0,1,8,20,3,,,,,,,,,,,,,,,,,,,,,,,,,,,,,,,,,,,,,,,,1796.6970047918148,1796.6970047918148,1796.6970047918148,1796.6970047918148,1796.6970047918148,1796.6970047918148,1796.6970047918148,1796.6970047918148,1796.6970047918148,1796.6970047918148,l,0.8859732341952622,1,501,1,1797.6140594957396,1799.1146168950945,1799.1146168950945,1799.6147745270282,,,,,,,,,,,,,,,,,,,,,,,,,,,,,,,,,,,,,,,,,,,,,,,,,,,,,,,,,,,,,,,,,,,,,13675,2022-12-02_14h50.48.413,vts_reward_expectancy_bt_OFFLINE,2022.2.4,60.01774342024522,
0,0,1,0,0,0,0,1,hexagon,star,1,0,1,0,1,9,21,8,,,,,,,,,,,,,,,,,,,,,,,,,,,,,,,,,,,,,,,,1799.6147745270282,1799.6147745270282,1799.6147745270282,1799.6147745270282,1799.6147745270282,1799.6147745270282,1799.6147745270282,1799.6147745270282,1799.6147745270282,1799.6147745270282,l,1.488959948066622,10,511,1,1801.1342193037271,1802.6343529489823,,,,,,,,,,,,,,,,,,,,,,,,,,,,,,,,,,,,,,,,,,,,,,,,,,,,,,,,,,,,,,,,,,,,,,,13675,2022-12-02_14h50.48.413,vts_reward_expectancy_bt_OFFLINE,2022.2.4,60.01774342024522,
0,0,0,1,1,0,0,0,star,triangle,1,0,1,0,1,10,22,9,,,,,,,,,,,,,,,,,,,,,,,,,,,,,,,,,,,,,,,,1803.1346331280656,1803.1346331280656,1803.1346331280656,1803.1346331280656,1803.1346331280656,1803.1346331280656,1803.1346331280656,1803.1346331280656,1803.1346331280656,1803.1346331280656,a,1.715640761423856,10,521,1,1804.868501687888,1806.3705164389685,,,,,,,,,,,,,,,,,,,,,,,,,,,,,,,,,,,,,,,,,,,,,,,,,,,,,,,,,,,,,,,,,,,,,,,13675,2022-12-02_14h50.48.413,vts_reward_expectancy_bt_OFFLINE,2022.2.4,60.01774342024522,
1,0,0,0,0,0,1,0,triangle,hexagon,1,0,1,0,1,11,23,1,,,,,,,,,,,,,,,,,,,,,,,,,,,,,,,,,,,,,,,,1806.871040649712,1806.871040649712,1806.871040649712,1806.871040649712,1806.871040649712,1806.871040649712,1806.871040649712,1806.871040649712,1806.871040649712,1806.871040649712,a,0.6114905984140933,10,531,1,1807.504658528138,1809.0051130438223,1809.0051130438223,1809.5050617801026,,,,,,,,,,,,,,,,,,,,,,,,,,,,,,,,,,,,,,,,,,,,,,,,,,,,,,,,,,,,,,,,,,,,,13675,2022-12-02_14h50.48.413,vts_reward_expectancy_bt_OFFLINE,2022.2.4,60.01774342024522,
1,0,0,0,0,1,0,0,triangle,circle,1,0,1,0,2,0,24,0,,,,,,,,,,,,,,,,,,,,,,,,,,,,,,,,,,,,,,,,1809.5050617801026,1809.5050617801026,1809.5050617801026,1809.5050617801026,1809.5050617801026,1809.5050617801026,1809.5050617801026,1809.5050617801026,1809.5050617801026,1809.5050617801026,a,0.5324663533829153,10,541,1,1810.0556557718664,1811.557700468693,,,,,,,,,,,,,,,,,,,,,,,,,,,,,,,,,,,,,,,,,,,,,,,,,,,,,,,,,,,,,,,,,,,,,,,13675,2022-12-02_14h50.48.413,vts_reward_expectancy_bt_OFFLINE,2022.2.4,60.01774342024522,
0,0,0,1,1,0,0,0,star,triangle,1,0,1,0,2,1,25,9,,,,,,,,,,,,,,,,,,,,,,,,,,,,,,,,,,,,,,,,1812.0579634937458,1812.0579634937458,1812.0579634937458,1812.0579634937458,1812.0579634937458,1812.0579634937458,1812.0579634937458,1812.0579634937458,1812.0579634937458,1812.0579634937458,a,1.2419744599610567,1,542,1,1813.327390562743,1814.8423074167222,,,,,,,,,,,,,,,,,,,,,,,,,,,,,,,,,,,,,,,,,,,,,,,,,,,,,,,,,,,,,,,,,,,,,,,13675,2022-12-02_14h50.48.413,vts_reward_expectancy_bt_OFFLINE,2022.2.4,60.01774342024522,
0,1,0,0,0,0,0,1,circle,star,1,0,1,0,2,2,26,5,,,,,,,,,,,,,,,,,,,,,,,,,,,,,,,,,,,,,,,,1815.3425077809952,1815.3425077809952,1815.3425077809952,1815.3425077809952,1815.3425077809952,1815.3425077809952,1815.3425077809952,1815.3425077809952,1815.3425077809952,1815.3425077809952,l,1.7034298074431717,10,552,1,1817.0795852569863,1818.5786714958958,1818.5786714958958,1819.0790228131227,,,,,,,,,,,,,,,,,,,,,,,,,,,,,,,,,,,,,,,,,,,,,,,,,,,,,,,,,,,,,,,,,,,,,13675,2022-12-02_14h50.48.413,vts_reward_expectancy_bt_OFFLINE,2022.2.4,60.01774342024522,
0,0,0,1,0,1,0,0,star ,circle,1,0,1,0,2,3,27,10,,,,,,,,,,,,,,,,,,,,,,,,,,,,,,,,,,,,,,,,1819.0790228131227,1819.0790228131227,1819.0790228131227,1819.0790228131227,1819.0790228131227,1819.0790228131227,1819.0790228131227,1819.0790228131227,1819.0790228131227,1819.0790228131227,a,0.9491216810420156,10,562,1,1820.0464705610648,1821.548254857771,,,,,,,,,,,,,,,,,,,,,,,,,,,,,,,,,,,,,,,,,,,,,,,,,,,,,,,,,,,,,,,,,,,,,,,13675,2022-12-02_14h50.48.413,vts_reward_expectancy_bt_OFFLINE,2022.2.4,60.01774342024522,
0,0,1,0,1,0,0,0,hexagon,triangle,1,0,1,0,2,4,28,6,,,,,,,,,,,,,,,,,,,,,,,,,,,,,,,,,,,,,,,,1822.0484906518832,1822.0484906518832,1822.0484906518832,1822.0484906518832,1822.0484906518832,1822.0484906518832,1822.0484906518832,1822.0484906518832,1822.0484906518832,1822.0484906518832,l,0.8701235842891037,1,563,1,1822.9516281951219,1824.4659363087267,,,,,,,,,,,,,,,,,,,,,,,,,,,,,,,,,,,,,,,,,,,,,,,,,,,,,,,,,,,,,,,,,,,,,,,13675,2022-12-02_14h50.48.413,vts_reward_expectancy_bt_OFFLINE,2022.2.4,60.01774342024522,
1,0,0,0,0,0,1,0,triangle,hexagon,1,0,1,0,2,5,29,1,,,,,,,,,,,,,,,,,,,,,,,,,,,,,,,,,,,,,,,,1824.9662654628046,1824.9662654628046,1824.9662654628046,1824.9662654628046,1824.9662654628046,1824.9662654628046,1824.9662654628046,1824.9662654628046,1824.9662654628046,1824.9662654628046,a,0.9682476273737848,10,573,1,1825.9674907219596,1827.4691320308484,,,,,,,,,,,,,,,,,,,,,,,,,,,,,,,,,,,,,,,,,,,,,,,,,,,,,,,,,,,,,,,,,,,,,,,13675,2022-12-02_14h50.48.413,vts_reward_expectancy_bt_OFFLINE,2022.2.4,60.01774342024522,
0,0,0,1,0,0,1,0,star,hexagon,1,0,1,0,2,6,30,11,,,,,,,,,,,,,,,,,,,,,,,,,,,,,,,,,,,,,,,,1827.969145197887,1827.969145197887,1827.969145197887,1827.969145197887,1827.969145197887,1827.969145197887,1827.969145197887,1827.969145197887,1827.969145197887,1827.969145197887,a,0.7659524343907833,10,583,1,1828.7532982188277,1830.2534062839113,1830.2534062839113,1830.7535802228376,,,,,,,,,,,,,,,,,,,,,,,,,,,,,,,,,,,,,,,,,,,,,,,,,,,,,,,,,,,,,,,,,,,,,13675,2022-12-02_14h50.48.413,vts_reward_expectancy_bt_OFFLINE,2022.2.4,60.01774342024522,
0,1,0,0,1,0,0,0,circle,triangle,1,0,1,0,2,7,31,3,,,,,,,,,,,,,,,,,,,,,,,,,,,,,,,,,,,,,,,,1830.7535802228376,1830.7535802228376,1830.7535802228376,1830.7535802228376,1830.7535802228376,1830.7535802228376,1830.7535802228376,1830.7535802228376,1830.7535802228376,1830.7535802228376,a,0.56927451165393,10,593,1,1831.3416839479469,1832.8561478690244,,,,,,,,,,,,,,,,,,,,,,,,,,,,,,,,,,,,,,,,,,,,,,,,,,,,,,,,,,,,,,,,,,,,,,,13675,2022-12-02_14h50.48.413,vts_reward_expectancy_bt_OFFLINE,2022.2.4,60.01774342024522,
0,0,1,0,0,0,0,1,hexagon,star,1,0,1,0,2,8,32,8,,,,,,,,,,,,,,,,,,,,,,,,,,,,,,,,,,,,,,,,1833.3565500420518,1833.3565500420518,1833.3565500420518,1833.3565500420518,1833.3565500420518,1833.3565500420518,1833.3565500420518,1833.3565500420518,1833.3565500420518,1833.3565500420518,l,1.0035824375227094,10,603,1,1834.3905178117566,1835.8906192858703,,,,,,,,,,,,,,,,,,,,,,,,,,,,,,,,,,,,,,,,,,,,,,,,,,,,,,,,,,,,,,,,,,,,,,,13675,2022-12-02_14h50.48.413,vts_reward_expectancy_bt_OFFLINE,2022.2.4,60.01774342024522,
1,0,0,0,0,0,0,1,triangle,star,1,0,1,0,2,9,33,2,,,,,,,,,,,,,,,,,,,,,,,,,,,,,,,,,,,,,,,,1836.3926243670285,1836.3926243670285,1836.3926243670285,1836.3926243670285,1836.3926243670285,1836.3926243670285,1836.3926243670285,1836.3926243670285,1836.3926243670285,1836.3926243670285,a,0.5001517962664366,1,604,1,1836.9235881050117,1838.4266616408713,,,,,,,,,,,,,,,,,,,,,,,,,,,,,,,,,,,,,,,,,,,,,,,,,,,,,,,,,,,,,,,,,,,,,,,13675,2022-12-02_14h50.48.413,vts_reward_expectancy_bt_OFFLINE,2022.2.4,60.01774342024522,
0,1,0,0,0,0,1,0,circle,hexagon,1,0,1,0,2,10,34,4,,,,,,,,,,,,,,,,,,,,,,,,,,,,,,,,,,,,,,,,1838.9268870409578,1838.9268870409578,1838.9268870409578,1838.9268870409578,1838.9268870409578,1838.9268870409578,1838.9268870409578,1838.9268870409578,1838.9268870409578,1838.9268870409578,a,1.2160563273355365,1,605,1,1840.1609669369645,1841.6628344529308,,,,,,,,,,,,,,,,,,,,,,,,,,,,,,,,,,,,,,,,,,,,,,,,,,,,,,,,,,,,,,,,,,,,,,,13675,2022-12-02_14h50.48.413,vts_reward_expectancy_bt_OFFLINE,2022.2.4,60.01774342024522,
0,0,1,0,0,1,0,0,hexagon,circle,1,0,1,0,2,11,35,7,,,,,,,,,,,,,,,,,,,,,,,,,,,,,,,,,,,,,,,,1842.1632445356809,1842.1632445356809,1842.1632445356809,1842.1632445356809,1842.1632445356809,1842.1632445356809,1842.1632445356809,1842.1632445356809,1842.1632445356809,1842.1632445356809,a,1.5014306562952697,1,606,1,1843.6971168448217,1845.1978309671395,1845.1978309671395,1845.697579775937,,,,,,,,,,,,,,,,,,,,,,,,,,,,,,,,,,,,,,,,,,,,,,,,,,,,,,,,,,,,,,,,,,,,,13675,2022-12-02_14h50.48.413,vts_reward_expectancy_bt_OFFLINE,2022.2.4,60.01774342024522,
0,1,0,0,0,0,1,0,circle,hexagon,1,0,1,0,3,0,36,4,,,,,,,,,,,,,,,,,,,,,,,,,,,,,,,,,,,,,,,,1845.697579775937,1845.697579775937,1845.697579775937,1845.697579775937,1845.697579775937,1845.697579775937,1845.697579775937,1845.697579775937,1845.697579775937,1845.697579775937,a,1.1294745220802724,1,607,1,1846.8506140890531,1848.3506378601305,1848.3506378601305,1848.8507268261164,,,,,,,,,,,,,,,,,,,,,,,,,,,,,,,,,,,,,,,,,,,,,,,,,,,,,,,,,,,,,,,,,,,,,13675,2022-12-02_14h50.48.413,vts_reward_expectancy_bt_OFFLINE,2022.2.4,60.01774342024522,
0,0,1,0,0,0,0,1,hexagon,star,1,0,1,0,3,1,37,8,,,,,,,,,,,,,,,,,,,,,,,,,,,,,,,,,,,,,,,,1848.8507268261164,1848.8507268261164,1848.8507268261164,1848.8507268261164,1848.8507268261164,1848.8507268261164,1848.8507268261164,1848.8507268261164,1848.8507268261164,1848.8507268261164,l,1.3173849522136152,10,617,1,1850.1874967659824,1851.6870698221028,,,,,,,,,,,,,,,,,,,,,,,,,,,,,,,,,,,,,,,,,,,,,,,,,,,,,,,,,,,,,,,,,,,,,,,13675,2022-12-02_14h50.48.413,vts_reward_expectancy_bt_OFFLINE,2022.2.4,60.01774342024522,
0,0,1,0,1,0,0,0,hexagon,triangle,1,0,1,0,3,2,38,6,,,,,,,,,,,,,,,,,,,,,,,,,,,,,,,,,,,,,,,,1852.1869619269855,1852.1869619269855,1852.1869619269855,1852.1869619269855,1852.1869619269855,1852.1869619269855,1852.1869619269855,1852.1869619269855,1852.1869619269855,1852.1869619269855,a,1.424212273210287,1,618,1,1853.639972244855,1855.1546643027104,,,,,,,,,,,,,,,,,,,,,,,,,,,,,,,,,,,,,,,,,,,,,,,,,,,,,,,,,,,,,,,,,,,,,,,13675,2022-12-02_14h50.48.413,vts_reward_expectancy_bt_OFFLINE,2022.2.4,60.01774342024522,
0,0,0,1,0,1,0,0,star ,circle,1,0,1,0,3,3,39,10,,,,,,,,,,,,,,,,,,,,,,,,,,,,,,,,,,,,,,,,1855.654979947023,1855.654979947023,1855.654979947023,1855.654979947023,1855.654979947023,1855.654979947023,1855.654979947023,1855.654979947023,1855.654979947023,1855.654979947023,l,1.8822402232326567,1,619,1,1857.558346756734,1859.0581555217505,1859.0581555217505,1859.5580066288821,,,,,,,,,,,,,,,,,,,,,,,,,,,,,,,,,,,,,,,,,,,,,,,,,,,,,,,,,,,,,,,,,,,,,13675,2022-12-02_14h50.48.413,vts_reward_expectancy_bt_OFFLINE,2022.2.4,60.01774342024522,
0,0,0,1,1,0,0,0,star,triangle,1,0,1,0,3,4,40,9,,,,,,,,,,,,,,,,,,,,,,,,,,,,,,,,,,,,,,,,1859.5580066288821,1859.5580066288821,1859.5580066288821,1859.5580066288821,1859.5580066288821,1859.5580066288821,1859.5580066288821,1859.5580066288821,1859.5580066288821,1859.5580066288821,l,0.6451950604096055,10,629,1,1860.227709112689,1861.7275646990165,,,,,,,,,,,,,,,,,,,,,,,,,,,,,,,,,,,,,,,,,,,,,,,,,,,,,,,,,,,,,,,,,,,,,,,13675,2022-12-02_14h50.48.413,vts_reward_expectancy_bt_OFFLINE,2022.2.4,60.01774342024522,
0,0,1,0,0,1,0,0,hexagon,circle,1,0,1,0,3,5,41,7,,,,,,,,,,,,,,,,,,,,,,,,,,,,,,,,,,,,,,,,1862.22781918291,1862.22781918291,1862.22781918291,1862.22781918291,1862.22781918291,1862.22781918291,1862.22781918291,1862.22781918291,1862.22781918291,1862.22781918291,l,1.0127664501778781,1,630,1,1863.2640662956983,1864.7788508101366,,,,,,,,,,,,,,,,,,,,,,,,,,,,,,,,,,,,,,,,,,,,,,,,,,,,,,,,,,,,,,,,,,,,,,,13675,2022-12-02_14h50.48.413,vts_reward_expectancy_bt_OFFLINE,2022.2.4,60.01774342024522,
0,1,0,0,0,0,0,1,circle,star,1,0,1,0,3,6,42,5,,,,,,,,,,,,,,,,,,,,,,,,,,,,,,,,,,,,,,,,1865.278870366048,1865.278870366048,1865.278870366048,1865.278870366048,1865.278870366048,1865.278870366048,1865.278870366048,1865.278870366048,1865.278870366048,1865.278870366048,a,0.7629789882339537,1,631,1,1866.0630746497773,1867.564815768972,,,,,,,,,,,,,,,,,,,,,,,,,,,,,,,,,,,,,,,,,,,,,,,,,,,,,,,,,,,,,,,,,,,,,,,13675,2022-12-02_14h50.48.413,vts_reward_expectancy_bt_OFFLINE,2022.2.4,60.01774342024522,
0,0,0,1,0,0,1,0,star,hexagon,1,0,1,0,3,7,43,11,,,,,,,,,,,,,,,,,,,,,,,,,,,,,,,,,,,,,,,,1868.0652677370235,1868.0652677370235,1868.0652677370235,1868.0652677370235,1868.0652677370235,1868.0652677370235,1868.0652677370235,1868.0652677370235,1868.0652677370235,1868.0652677370235,a,1.1042407592758536,10,641,1,1869.20171204675,1870.7159602809697,,,,,,,,,,,,,,,,,,,,,,,,,,,,,,,,,,,,,,,,,,,,,,,,,,,,,,,,,,,,,,,,,,,,,,,13675,2022-12-02_14h50.48.413,vts_reward_expectancy_bt_OFFLINE,2022.2.4,60.01774342024522,
1,0,0,0,0,1,0,0,triangle,circle,1,0,1,0,3,8,44,0,,,,,,,,,,,,,,,,,,,,,,,,,,,,,,,,,,,,,,,,1871.2161286030896,1871.2161286030896,1871.2161286030896,1871.2161286030896,1871.2161286030896,1871.2161286030896,1871.2161286030896,1871.2161286030896,1871.2161286030896,1871.2161286030896,a,0.6997475582174957,10,651,1,1871.9354809890501,1873.4356805197895,1873.4356805197895,,,,,,,,,,,,,,,,,,,,,,,,,,,,,,,,,,,,,,,,,,,,,,,,,,,,,,,,,,,,,,,,,,,,,,13675,2022-12-02_14h50.48.413,vts_reward_expectancy_bt_OFFLINE,2022.2.4,60.01774342024522,
1,0,0,0,0,0,0,1,triangle,star,1,0,1,0,3,9,45,2,,,,,,,,,,,,,,,,,,,,,,,,,,,,,,,,,,,,,,,,1873.9357597096823,1873.9357597096823,1873.9357597096823,1873.9357597096823,1873.9357597096823,1873.9357597096823,1873.9357597096823,1873.9357597096823,1873.9357597096823,1873.9357597096823,a,0.48815141757950187,10,661,1,1874.4530317177996,1875.9529263819568,1875.9529263819568,,,,,,,,,,,,,,,,,,,,,,,,,,,,,,,,,,,,,,,,,,,,,,,,,,,,,,,,,,,,,,,,,,,,,,13675,2022-12-02_14h50.48.413,vts_reward_expectancy_bt_OFFLINE,2022.2.4,60.01774342024522,
1,0,0,0,0,0,1,0,triangle,hexagon,1,0,1,0,3,10,46,1,,,,,,,,,,,,,,,,,,,,,,,,,,,,,,,,,,,,,,,,1876.4552155151032,1876.4552155151032,1876.4552155151032,1876.4552155151032,1876.4552155151032,1876.4552155151032,1876.4552155151032,1876.4552155151032,1876.4552155151032,1876.4552155151032,a,0.6245504291728139,10,671,1,1877.1062248558737,1878.6058666016906,1878.6058666016906,1879.106037845835,,,,,,,,,,,,,,,,,,,,,,,,,,,,,,,,,,,,,,,,,,,,,,,,,,,,,,,,,,,,,,,,,,,,,13675,2022-12-02_14h50.48.413,vts_reward_expectancy_bt_OFFLINE,2022.2.4,60.01774342024522,
0,1,0,0,1,0,0,0,circle,triangle,1,0,1,0,3,11,47,3,,,,,,,,,,,,,,,,,,,,,,,,,,,,,,,,,,,,,,,,1879.106037845835,1879.106037845835,1879.106037845835,1879.106037845835,1879.106037845835,1879.106037845835,1879.106037845835,1879.106037845835,1879.106037845835,1879.106037845835,a,1.1339934915304184,1,672,1,1880.274931662716,1881.7754972181283,1881.7754972181283,1882.2816945938393,,,,,,,,,,,,,,,,,,,,,,,,,,,,,,,,,,,,,,,,,,,,,,,,,,,,,,,,,,,,,,,,,,,,,13675,2022-12-02_14h50.48.413,vts_reward_expectancy_bt_OFFLINE,2022.2.4,60.01774342024522,
1,0,0,0,0,1,0,0,triangle,circle,2,0,2,0,0,0,0,0,,,,,,,,,,,,,,,,,,,,,,,,,,,,,,,,,,,,,,,,1884.8041916550137,1884.8041916550137,1884.8041916550137,1884.8041916550137,1884.8041916550137,1884.8041916550137,1884.8041916550137,1884.8041916550137,1884.8041916550137,1884.8041916550137,a,0.6571245081722736,10,682,2,1885.495471920818,1886.995719944127,1886.995719944127,1887.496179186739,,,,,,,,,,,,,,,,,,,,,,,,,,,,,,,,,,,,,,,,,,,,,,,,,,,,,,,,,,,,,,,,,,,,,13675,2022-12-02_14h50.48.413,vts_reward_expectancy_bt_OFFLINE,2022.2.4,60.01774342024522,
0,0,1,0,0,0,0,1,hexagon,star,2,0,2,0,0,1,1,8,,,,,,,,,,,,,,,,,,,,,,,,,,,,,,,,,,,,,,,,1887.496179186739,1887.496179186739,1887.496179186739,1887.496179186739,1887.496179186739,1887.496179186739,1887.496179186739,1887.496179186739,1887.496179186739,1887.496179186739,l,1.3850499992258847,10,692,2,1888.9133874699473,1890.413627285976,1890.413627285976,1890.9137854059227,,,,,,,,,,,,,,,,,,,,,,,,,,,,,,,,,,,,,,,,,,,,,,,,,,,,,,,,,,,,,,,,,,,,,13675,2022-12-02_14h50.48.413,vts_reward_expectancy_bt_OFFLINE,2022.2.4,60.01774342024522,
0,0,0,1,1,0,0,0,star,triangle,2,0,2,0,0,2,2,9,,,,,,,,,,,,,,,,,,,,,,,,,,,,,,,,,,,,,,,,1890.9137854059227,1890.9137854059227,1890.9137854059227,1890.9137854059227,1890.9137854059227,1890.9137854059227,1890.9137854059227,1890.9137854059227,1890.9137854059227,1890.9137854059227,l,0.6110811792314053,10,702,2,1891.5500563257374,1893.0499623250216,1893.0499623250216,1893.5500659220852,,,,,,,,,,,,,,,,,,,,,,,,,,,,,,,,,,,,,,,,,,,,,,,,,,,,,,,,,,,,,,,,,,,,,13675,2022-12-02_14h50.48.413,vts_reward_expectancy_bt_OFFLINE,2022.2.4,60.01774342024522,
1,0,0,0,0,0,1,0,triangle,hexagon,2,0,2,0,0,3,3,1,,,,,,,,,,,,,,,,,,,,,,,,,,,,,,,,,,,,,,,,1893.5500659220852,1893.5500659220852,1893.5500659220852,1893.5500659220852,1893.5500659220852,1893.5500659220852,1893.5500659220852,1893.5500659220852,1893.5500659220852,1893.5500659220852,a,0.6638806783594191,10,712,2,1894.2342319120653,1895.7340889270417,1895.7340889270417,1896.2344974246807,,,,,,,,,,,,,,,,,,,,,,,,,,,,,,,,,,,,,,,,,,,,,,,,,,,,,,,,,,,,,,,,,,,,,13675,2022-12-02_14h50.48.413,vts_reward_expectancy_bt_OFFLINE,2022.2.4,60.01774342024522,
0,1,0,0,0,0,1,0,circle,hexagon,2,0,2,0,0,4,4,4,,,,,,,,,,,,,,,,,,,,,,,,,,,,,,,,,,,,,,,,1896.2344974246807,1896.2344974246807,1896.2344974246807,1896.2344974246807,1896.2344974246807,1896.2344974246807,1896.2344974246807,1896.2344974246807,1896.2344974246807,1896.2344974246807,a,0.5327109843492508,10,722,2,1896.7870542467572,1898.2869717059657,1898.2869717059657,,,,,,,,,,,,,,,,,,,,,,,,,,,,,,,,,,,,,,,,,,,,,,,,,,,,,,,,,,,,,,,,,,,,,,13675,2022-12-02_14h50.48.413,vts_reward_expectancy_bt_OFFLINE,2022.2.4,60.01774342024522,
0,1,0,0,0,0,0,1,circle,star,2,0,2,0,0,5,5,5,,,,,,,,,,,,,,,,,,,,,,,,,,,,,,,,,,,,,,,,1898.7869952977635,1898.7869952977635,1898.7869952977635,1898.7869952977635,1898.7869952977635,1898.7869952977635,1898.7869952977635,1898.7869952977635,1898.7869952977635,1898.7869952977635,a,0.8155225091613829,1,723,2,1899.6232618130744,1901.1380140520632,,,,,,,,,,,,,,,,,,,,,,,,,,,,,,,,,,,,,,,,,,,,,,,,,,,,,,,,,,,,,,,,,,,,,,,13675,2022-12-02_14h50.48.413,vts_reward_expectancy_bt_OFFLINE,2022.2.4,60.01774342024522,
0,0,1,0,1,0,0,0,hexagon,triangle,2,0,2,0,0,6,6,6,,,,,,,,,,,,,,,,,,,,,,,,,,,,,,,,,,,,,,,,1901.6233437517658,1901.6233437517658,1901.6233437517658,1901.6233437517658,1901.6233437517658,1901.6233437517658,1901.6233437517658,1901.6233437517658,1901.6233437517658,1901.6233437517658,l,0.9273149752989411,10,733,2,1902.5763435908593,1904.0908091589808,,,,,,,,,,,,,,,,,,,,,,,,,,,,,,,,,,,,,,,,,,,,,,,,,,,,,,,,,,,,,,,,,,,,,,,13675,2022-12-02_14h50.48.413,vts_reward_expectancy_bt_OFFLINE,2022.2.4,60.01774342024522,
0,1,0,0,1,0,0,0,circle,triangle,2,0,2,0,0,7,7,3,,,,,,,,,,,,,,,,,,,,,,,,,,,,,,,,,,,,,,,,1904.5909715709276,1904.5909715709276,1904.5909715709276,1904.5909715709276,1904.5909715709276,1904.5909715709276,1904.5909715709276,1904.5909715709276,1904.5909715709276,1904.5909715709276,l,0.9516878444701433,10,743,2,1905.5751324230805,1907.0771357379854,1907.0771357379854,1907.5773448017426,,,,,,,,,,,,,,,,,,,,,,,,,,,,,,,,,,,,,,,,,,,,,,,,,,,,,,,,,,,,,,,,,,,,,13675,2022-12-02_14h50.48.413,vts_reward_expectancy_bt_OFFLINE,2022.2.4,60.01774342024522,
0,0,1,0,0,1,0,0,hexagon,circle,2,0,2,0,0,8,8,7,,,,,,,,,,,,,,,,,,,,,,,,,,,,,,,,,,,,,,,,1907.5773448017426,1907.5773448017426,1907.5773448017426,1907.5773448017426,1907.5773448017426,1907.5773448017426,1907.5773448017426,1907.5773448017426,1907.5773448017426,1907.5773448017426,a,0.7779041640460491,1,744,2,1908.3805835228413,1909.8949482468888,,,,,,,,,,,,,,,,,,,,,,,,,,,,,,,,,,,,,,,,,,,,,,,,,,,,,,,,,,,,,,,,,,,,,,,13675,2022-12-02_14h50.48.413,vts_reward_expectancy_bt_OFFLINE,2022.2.4,60.01774342024522,
0,0,0,1,0,1,0,0,star ,circle,2,0,2,0,0,9,9,10,,,,,,,,,,,,,,,,,,,,,,,,,,,,,,,,,,,,,,,,1910.3949564411305,1910.3949564411305,1910.3949564411305,1910.3949564411305,1910.3949564411305,1910.3949564411305,1910.3949564411305,1910.3949564411305,1910.3949564411305,1910.3949564411305,a,0.8517456953413785,1,745,2,1911.278728920035,1912.781142281834,1912.781142281834,1913.281062046066,,,,,,,,,,,,,,,,,,,,,,,,,,,,,,,,,,,,,,,,,,,,,,,,,,,,,,,,,,,,,,,,,,,,,13675,2022-12-02_14h50.48.413,vts_reward_expectancy_bt_OFFLINE,2022.2.4,60.01774342024522,
1,0,0,0,0,0,0,1,triangle,star,2,0,2,0,0,10,10,2,,,,,,,,,,,,,,,,,,,,,,,,,,,,,,,,,,,,,,,,1913.281062046066,1913.281062046066,1913.281062046066,1913.281062046066,1913.281062046066,1913.281062046066,1913.281062046066,1913.281062046066,1913.281062046066,1913.281062046066,a,0.8465034342370927,10,755,2,1914.1509175659157,1915.6655992809683,,,,,,,,,,,,,,,,,,,,,,,,,,,,,,,,,,,,,,,,,,,,,,,,,,,,,,,,,,,,,,,,,,,,,,,13675,2022-12-02_14h50.48.413,vts_reward_expectancy_bt_OFFLINE,2022.2.4,60.01774342024522,
0,0,0,1,0,0,1,0,star,hexagon,2,0,2,0,0,11,11,11,,,,,,,,,,,,,,,,,,,,,,,,,,,,,,,,,,,,,,,,1916.1655025207438,1916.1655025207438,1916.1655025207438,1916.1655025207438,1916.1655025207438,1916.1655025207438,1916.1655025207438,1916.1655025207438,1916.1655025207438,1916.1655025207438,a,0.9652111483737826,10,765,2,1917.1519431411289,1918.6514671570621,1918.6514671570621,1919.151691344101,,,,,,,,,,,,,,,,,,,,,,,,,,,,,,,,,,,,,,,,,,,,,,,,,,,,,,,,,,,,,,,,,,,,,13675,2022-12-02_14h50.48.413,vts_reward_expectancy_bt_OFFLINE,2022.2.4,60.01774342024522,
0,0,1,0,0,0,0,1,hexagon,star,2,0,2,0,1,0,12,8,,,,,,,,,,,,,,,,,,,,,,,,,,,,,,,,,,,,,,,,1919.151691344101,1919.151691344101,1919.151691344101,1919.151691344101,1919.151691344101,1919.151691344101,1919.151691344101,1919.151691344101,1919.151691344101,1919.151691344101,l,1.2648733761161566,10,775,2,1920.4365741168149,1921.937614060007,,,,,,,,,,,,,,,,,,,,,,,,,,,,,,,,,,,,,,,,,,,,,,,,,,,,,,,,,,,,,,,,,,,,,,,13675,2022-12-02_14h50.48.413,vts_reward_expectancy_bt_OFFLINE,2022.2.4,60.01774342024522,
1,0,0,0,0,1,0,0,triangle,circle,2,0,2,0,1,1,13,0,,,,,,,,,,,,,,,,,,,,,,,,,,,,,,,,,,,,,,,,1922.4381568250246,1922.4381568250246,1922.4381568250246,1922.4381568250246,1922.4381568250246,1922.4381568250246,1922.4381568250246,1922.4381568250246,1922.4381568250246,1922.4381568250246,l,1.1510259499773383,10,785,2,1923.6221177740954,1925.1223749946803,1925.1223749946803,1925.6224611168727,,,,,,,,,,,,,,,,,,,,,,,,,,,,,,,,,,,,,,,,,,,,,,,,,,,,,,,,,,,,,,,,,,,,,13675,2022-12-02_14h50.48.413,vts_reward_expectancy_bt_OFFLINE,2022.2.4,60.01774342024522,
0,0,0,1,1,0,0,0,star,triangle,2,0,2,0,1,2,14,9,,,,,,,,,,,,,,,,,,,,,,,,,,,,,,,,,,,,,,,,1925.6224611168727,1925.6224611168727,1925.6224611168727,1925.6224611168727,1925.6224611168727,1925.6224611168727,1925.6224611168727,1925.6224611168727,1925.6224611168727,1925.6224611168727,l,0.610614747274667,10,795,2,1926.2570240790956,1927.758771384135,,,,,,,,,,,,,,,,,,,,,,,,,,,,,,,,,,,,,,,,,,,,,,,,,,,,,,,,,,,,,,,,,,,,,,,13675,2022-12-02_14h50.48.413,vts_reward_expectancy_bt_OFFLINE,2022.2.4,60.01774342024522,
0,0,0,1,0,0,1,0,star,hexagon,2,0,2,0,1,3,15,11,,,,,,,,,,,,,,,,,,,,,,,,,,,,,,,,,,,,,,,,1928.258787502069,1928.258787502069,1928.258787502069,1928.258787502069,1928.258787502069,1928.258787502069,1928.258787502069,1928.258787502069,1928.258787502069,1928.258787502069,a,1.134838793426752,10,805,2,1929.4260271689855,1930.9266237379052,1930.9266237379052,1931.4283694978803,,,,,,,,,,,,,,,,,,,,,,,,,,,,,,,,,,,,,,,,,,,,,,,,,,,,,,,,,,,,,,,,,,,,,13675,2022-12-02_14h50.48.413,vts_reward_expectancy_bt_OFFLINE,2022.2.4,60.01774342024522,
0,1,0,0,0,0,0,1,circle,star,2,0,2,0,1,4,16,5,,,,,,,,,,,,,,,,,,,,,,,,,,,,,,,,,,,,,,,,1931.4283694978803,1931.4283694978803,1931.4283694978803,1931.4283694978803,1931.4283694978803,1931.4283694978803,1931.4283694978803,1931.4283694978803,1931.4283694978803,1931.4283694978803,l,0.9916703142225742,10,815,2,1932.4466688428074,1933.945852349978,1933.945852349978,1934.4460756727494,,,,,,,,,,,,,,,,,,,,,,,,,,,,,,,,,,,,,,,,,,,,,,,,,,,,,,,,,,,,,,,,,,,,,13675,2022-12-02_14h50.48.413,vts_reward_expectancy_bt_OFFLINE,2022.2.4,60.01774342024522,
0,0,0,1,0,1,0,0,star ,circle,2,0,2,0,1,5,17,10,,,,,,,,,,,,,,,,,,,,,,,,,,,,,,,,,,,,,,,,1934.4460756727494,1934.4460756727494,1934.4460756727494,1934.4460756727494,1934.4460756727494,1934.4460756727494,1934.4460756727494,1934.4460756727494,1934.4460756727494,1934.4460756727494,l,0.5622523310594261,1,816,2,1935.0439808168449,1936.5320462039672,,,,,,,,,,,,,,,,,,,,,,,,,,,,,,,,,,,,,,,,,,,,,,,,,,,,,,,,,,,,,,,,,,,,,,,13675,2022-12-02_14h50.48.413,vts_reward_expectancy_bt_OFFLINE,2022.2.4,60.01774342024522,
0,0,1,0,1,0,0,0,hexagon,triangle,2,0,2,0,1,6,18,6,,,,,,,,,,,,,,,,,,,,,,,,,,,,,,,,,,,,,,,,1937.0321084600873,1937.0321084600873,1937.0321084600873,1937.0321084600873,1937.0321084600873,1937.0321084600873,1937.0321084600873,1937.0321084600873,1937.0321084600873,1937.0321084600873,l,1.6891255704686046,10,826,2,1938.7638491569087,1940.2668824489228,,,,,,,,,,,,,,,,,,,,,,,,,,,,,,,,,,,,,,,,,,,,,,,,,,,,,,,,,,,,,,,,,,,,,,,13675,2022-12-02_14h50.48.413,vts_reward_expectancy_bt_OFFLINE,2022.2.4,60.01774342024522,
0,0,1,0,0,1,0,0,hexagon,circle,2,0,2,0,1,7,19,7,,,,,,,,,,,,,,,,,,,,,,,,,,,,,,,,,,,,,,,,1940.75016850885,1940.75016850885,1940.75016850885,1940.75016850885,1940.75016850885,1940.75016850885,1940.75016850885,1940.75016850885,1940.75016850885,1940.75016850885,l,0.7714577591978014,1,827,2,1941.5555268940516,1943.069582637865,,,,,,,,,,,,,,,,,,,,,,,,,,,,,,,,,,,,,,,,,,,,,,,,,,,,,,,,,,,,,,,,,,,,,,,13675,2022-12-02_14h50.48.413,vts_reward_expectancy_bt_OFFLINE,2022.2.4,60.01774342024522,
0,1,0,0,1,0,0,0,circle,triangle,2,0,2,0,1,8,20,3,,,,,,,,,,,,,,,,,,,,,,,,,,,,,,,,,,,,,,,,1943.5531489891,1943.5531489891,1943.5531489891,1943.5531489891,1943.5531489891,1943.5531489891,1943.5531489891,1943.5531489891,1943.5531489891,1943.5531489891,l,0.8037396450527012,10,837,2,1944.3898947788402,1945.9039479210041,,,,,,,,,,,,,,,,,,,,,,,,,,,,,,,,,,,,,,,,,,,,,,,,,,,,,,,,,,,,,,,,,,,,,,,13675,2022-12-02_14h50.48.413,vts_reward_expectancy_bt_OFFLINE,2022.2.4,60.01774342024522,
0,1,0,0,0,0,1,0,circle,hexagon,2,0,2,0,1,9,21,4,,,,,,,,,,,,,,,,,,,,,,,,,,,,,,,,,,,,,,,,1946.3925724066794,1946.3925724066794,1946.3925724066794,1946.3925724066794,1946.3925724066794,1946.3925724066794,1946.3925724066794,1946.3925724066794,1946.3925724066794,1946.3925724066794,a,0.7096649361774325,1,838,2,1947.1370523096994,1948.6400558967143,,,,,,,,,,,,,,,,,,,,,,,,,,,,,,,,,,,,,,,,,,,,,,,,,,,,,,,,,,,,,,,,,,,,,,,13675,2022-12-02_14h50.48.413,vts_reward_expectancy_bt_OFFLINE,2022.2.4,60.01774342024522,
1,0,0,0,0,0,1,0,triangle,hexagon,2,0,2,0,1,10,22,1,,,,,,,,,,,,,,,,,,,,,,,,,,,,,,,,,,,,,,,,1949.1403997801244,1949.1403997801244,1949.1403997801244,1949.1403997801244,1949.1403997801244,1949.1403997801244,1949.1403997801244,1949.1403997801244,1949.1403997801244,1949.1403997801244,a,0.8645915598608553,10,848,2,1950.0270192120224,1951.5262198881246,,,,,,,,,,,,,,,,,,,,,,,,,,,,,,,,,,,,,,,,,,,,,,,,,,,,,,,,,,,,,,,,,,,,,,,13675,2022-12-02_14h50.48.413,vts_reward_expectancy_bt_OFFLINE,2022.2.4,60.01774342024522,
1,0,0,0,0,0,0,1,triangle,star,2,0,2,0,1,11,23,2,,,,,,,,,,,,,,,,,,,,,,,,,,,,,,,,,,,,,,,,1952.026326710824,1952.026326710824,1952.026326710824,1952.026326710824,1952.026326710824,1952.026326710824,1952.026326710824,1952.026326710824,1952.026326710824,1952.026326710824,a,0.5210255603305995,10,858,2,1952.5779700307176,1954.0772659569047,1954.0772659569047,1954.5773844979703,,,,,,,,,,,,,,,,,,,,,,,,,,,,,,,,,,,,,,,,,,,,,,,,,,,,,,,,,,,,,,,,,,,,,13675,2022-12-02_14h50.48.413,vts_reward_expectancy_bt_OFFLINE,2022.2.4,60.01774342024522,
0,0,1,0,1,0,0,0,hexagon,triangle,2,0,2,0,2,0,24,6,,,,,,,,,,,,,,,,,,,,,,,,,,,,,,,,,,,,,,,,1954.5773844979703,1954.5773844979703,1954.5773844979703,1954.5773844979703,1954.5773844979703,1954.5773844979703,1954.5773844979703,1954.5773844979703,1954.5773844979703,1954.5773844979703,l,0.6361189018934965,10,868,2,1955.245290598832,1956.74651458906,,,,,,,,,,,,,,,,,,,,,,,,,,,,,,,,,,,,,,,,,,,,,,,,,,,,,,,,,,,,,,,,,,,,,,,13675,2022-12-02_14h50.48.413,vts_reward_expectancy_bt_OFFLINE,2022.2.4,60.01774342024522,
0,1,0,0,0,0,1,0,circle,hexagon,2,0,2,0,2,1,25,4,,,,,,,,,,,,,,,,,,,,,,,,,,,,,,,,,,,,,,,,1957.2469480959699,1957.2469480959699,1957.2469480959699,1957.2469480959699,1957.2469480959699,1957.2469480959699,1957.2469480959699,1957.2469480959699,1957.2469480959699,1957.2469480959699,l,0.8363745315000415,1,869,2,1958.1168282739818,1959.6309420620091,,,,,,,,,,,,,,,,,,,,,,,,,,,,,,,,,,,,,,,,,,,,,,,,,,,,,,,,,,,,,,,,,,,,,,,13675,2022-12-02_14h50.48.413,vts_reward_expectancy_bt_OFFLINE,2022.2.4,60.01774342024522,
0,0,0,1,0,0,1,0,star,hexagon,2,0,2,0,2,2,26,11,,,,,,,,,,,,,,,,,,,,,,,,,,,,,,,,,,,,,,,,1960.131124409847,1960.131124409847,1960.131124409847,1960.131124409847,1960.131124409847,1960.131124409847,1960.131124409847,1960.131124409847,1960.131124409847,1960.131124409847,l,0.9787818072363734,1,870,2,1961.1326772677712,1962.6341133927926,,,,,,,,,,,,,,,,,,,,,,,,,,,,,,,,,,,,,,,,,,,,,,,,,,,,,,,,,,,,,,,,,,,,,,,13675,2022-12-02_14h50.48.413,vts_reward_expectancy_bt_OFFLINE,2022.2.4,60.01774342024522,
0,0,1,0,0,0,0,1,hexagon,star,2,0,2,0,2,3,27,8,,,,,,,,,,,,,,,,,,,,,,,,,,,,,,,,,,,,,,,,1963.134366847109,1963.134366847109,1963.134366847109,1963.134366847109,1963.134366847109,1963.134366847109,1963.134366847109,1963.134366847109,1963.134366847109,1963.134366847109,l,0.9222609256394207,10,880,2,1964.0874534277245,1965.6017996519804,,,,,,,,,,,,,,,,,,,,,,,,,,,,,,,,,,,,,,,,,,,,,,,,,,,,,,,,,,,,,,,,,,,,,,,13675,2022-12-02_14h50.48.413,vts_reward_expectancy_bt_OFFLINE,2022.2.4,60.01774342024522,
1,0,0,0,0,0,0,1,triangle,star,2,0,2,0,2,4,28,2,,,,,,,,,,,,,,,,,,,,,,,,,,,,,,,,,,,,,,,,1966.1019651838578,1966.1019651838578,1966.1019651838578,1966.1019651838578,1966.1019651838578,1966.1019651838578,1966.1019651838578,1966.1019651838578,1966.1019651838578,1966.1019651838578,a,0.6776313884183764,1,881,2,1966.807362361811,1968.3211967181414,,,,,,,,,,,,,,,,,,,,,,,,,,,,,,,,,,,,,,,,,,,,,,,,,,,,,,,,,,,,,,,,,,,,,,,13675,2022-12-02_14h50.48.413,vts_reward_expectancy_bt_OFFLINE,2022.2.4,60.01774342024522,
0,1,0,0,0,0,0,1,circle,star,2,0,2,0,2,5,29,5,,,,,,,,,,,,,,,,,,,,,,,,,,,,,,,,,,,,,,,,1968.8214606177062,1968.8214606177062,1968.8214606177062,1968.8214606177062,1968.8214606177062,1968.8214606177062,1968.8214606177062,1968.8214606177062,1968.8214606177062,1968.8214606177062,l,0.9846812253817916,10,891,2,1969.8407092760317,1971.3555643688887,,,,,,,,,,,,,,,,,,,,,,,,,,,,,,,,,,,,,,,,,,,,,,,,,,,,,,,,,,,,,,,,,,,,,,,13675,2022-12-02_14h50.48.413,vts_reward_expectancy_bt_OFFLINE,2022.2.4,60.01774342024522,
0,0,0,1,0,1,0,0,star ,circle,2,0,2,0,2,6,30,10,,,,,,,,,,,,,,,,,,,,,,,,,,,,,,,,,,,,,,,,1971.8576835398562,1971.8576835398562,1971.8576835398562,1971.8576835398562,1971.8576835398562,1971.8576835398562,1971.8576835398562,1971.8576835398562,1971.8576835398562,1971.8576835398562,a,0.884632799308747,10,901,2,1972.8023372599855,1974.3085627770051,,,,,,,,,,,,,,,,,,,,,,,,,,,,,,,,,,,,,,,,,,,,,,,,,,,,,,,,,,,,,,,,,,,,,,,13675,2022-12-02_14h50.48.413,vts_reward_expectancy_bt_OFFLINE,2022.2.4,60.01774342024522,
0,0,1,0,0,1,0,0,hexagon,circle,2,0,2,0,2,7,31,7,,,,,,,,,,,,,,,,,,,,,,,,,,,,,,,,,,,,,,,,1974.8085789456964,1974.8085789456964,1974.8085789456964,1974.8085789456964,1974.8085789456964,1974.8085789456964,1974.8085789456964,1974.8085789456964,1974.8085789456964,1974.8085789456964,l,1.7253840430639684,1,902,2,1976.5645182630979,1978.0784599538893,,,,,,,,,,,,,,,,,,,,,,,,,,,,,,,,,,,,,,,,,,,,,,,,,,,,,,,,,,,,,,,,,,,,,,,13675,2022-12-02_14h50.48.413,vts_reward_expectancy_bt_OFFLINE,2022.2.4,60.01774342024522,
0,1,0,0,1,0,0,0,circle,triangle,2,0,2,0,2,8,32,3,,,,,,,,,,,,,,,,,,,,,,,,,,,,,,,,,,,,,,,,1978.578569188714,1978.578569188714,1978.578569188714,1978.578569188714,1978.578569188714,1978.578569188714,1978.578569188714,1978.578569188714,1978.578569188714,1978.578569188714,a,0.6549782929942012,1,903,2,1979.2633263356984,1980.7627591588534,1980.7627591588534,1981.2626375281252,,,,,,,,,,,,,,,,,,,,,,,,,,,,,,,,,,,,,,,,,,,,,,,,,,,,,,,,,,,,,,,,,,,,,13675,2022-12-02_14h50.48.413,vts_reward_expectancy_bt_OFFLINE,2022.2.4,60.01774342024522,
1,0,0,0,0,1,0,0,triangle,circle,2,0,2,0,2,9,33,0,,,,,,,,,,,,,,,,,,,,,,,,,,,,,,,,,,,,,,,,1981.2626375281252,1981.2626375281252,1981.2626375281252,1981.2626375281252,1981.2626375281252,1981.2626375281252,1981.2626375281252,1981.2626375281252,1981.2626375281252,1981.2626375281252,a,0.6934972079470754,10,913,2,1981.984931484796,1983.498837199062,,,,,,,,,,,,,,,,,,,,,,,,,,,,,,,,,,,,,,,,,,,,,,,,,,,,,,,,,,,,,,,,,,,,,,,13675,2022-12-02_14h50.48.413,vts_reward_expectancy_bt_OFFLINE,2022.2.4,60.01774342024522,
1,0,0,0,0,0,1,0,triangle,hexagon,2,0,2,0,2,10,34,1,,,,,,,,,,,,,,,,,,,,,,,,,,,,,,,,,,,,,,,,1983.9991261521354,1983.9991261521354,1983.9991261521354,1983.9991261521354,1983.9991261521354,1983.9991261521354,1983.9991261521354,1983.9991261521354,1983.9991261521354,1983.9991261521354,a,0.6577989989891648,10,923,2,1984.6837754440494,1986.1830333131365,1986.1830333131365,,,,,,,,,,,,,,,,,,,,,,,,,,,,,,,,,,,,,,,,,,,,,,,,,,,,,,,,,,,,,,,,,,,,,,13675,2022-12-02_14h50.48.413,vts_reward_expectancy_bt_OFFLINE,2022.2.4,60.01774342024522,
0,0,0,1,1,0,0,0,star,triangle,2,0,2,0,2,11,35,9,,,,,,,,,,,,,,,,,,,,,,,,,,,,,,,,,,,,,,,,1986.6851502228528,1986.6851502228528,1986.6851502228528,1986.6851502228528,1986.6851502228528,1986.6851502228528,1986.6851502228528,1986.6851502228528,1986.6851502228528,1986.6851502228528,l,0.4256851840764284,10,933,2,1987.1365682696924,1988.635922046844,1988.635922046844,1989.1361922910437,,,,,,,,,,,,,,,,,,,,,,,,,,,,,,,,,,,,,,,,,,,,,,,,,,,,,,,,,,,,,,,,,,,,,13675,2022-12-02_14h50.48.413,vts_reward_expectancy_bt_OFFLINE,2022.2.4,60.01774342024522,
0,1,0,0,0,0,0,1,circle,star,2,0,2,0,3,0,36,5,,,,,,,,,,,,,,,,,,,,,,,,,,,,,,,,,,,,,,,,1989.1361922910437,1989.1361922910437,1989.1361922910437,1989.1361922910437,1989.1361922910437,1989.1361922910437,1989.1361922910437,1989.1361922910437,1989.1361922910437,1989.1361922910437,a,0.4370660912245512,1,934,2,1989.6060674460605,1991.1200650869869,,,,,,,,,,,,,,,,,,,,,,,,,,,,,,,,,,,,,,,,,,,,,,,,,,,,,,,,,,,,,,,,,,,,,,,13675,2022-12-02_14h50.48.413,vts_reward_expectancy_bt_OFFLINE,2022.2.4,60.01774342024522,
1,0,0,0,0,1,0,0,triangle,circle,2,0,2,0,3,1,37,0,,,,,,,,,,,,,,,,,,,,,,,,,,,,,,,,,,,,,,,,1991.6056724251248,1991.6056724251248,1991.6056724251248,1991.6056724251248,1991.6056724251248,1991.6056724251248,1991.6056724251248,1991.6056724251248,1991.6056724251248,1991.6056724251248,a,0.566195510327816,10,944,2,1992.1922342488542,1993.7062775418162,,,,,,,,,,,,,,,,,,,,,,,,,,,,,,,,,,,,,,,,,,,,,,,,,,,,,,,,,,,,,,,,,,,,,,,13675,2022-12-02_14h50.48.413,vts_reward_expectancy_bt_OFFLINE,2022.2.4,60.01774342024522,
0,1,0,0,0,0,1,0,circle,hexagon,2,0,2,0,3,2,38,4,,,,,,,,,,,,,,,,,,,,,,,,,,,,,,,,,,,,,,,,1994.2065373398364,1994.2065373398364,1994.2065373398364,1994.2065373398364,1994.2065373398364,1994.2065373398364,1994.2065373398364,1994.2065373398364,1994.2065373398364,1994.2065373398364,l,1.4083328871056437,1,945,2,1995.6437050509267,1997.1423765420914,,,,,,,,,,,,,,,,,,,,,,,,,,,,,,,,,,,,,,,,,,,,,,,,,,,,,,,,,,,,,,,,,,,,,,,13675,2022-12-02_14h50.48.413,vts_reward_expectancy_bt_OFFLINE,2022.2.4,60.01774342024522,
1,0,0,0,0,0,0,1,triangle,star,2,0,2,0,3,3,39,2,,,,,,,,,,,,,,,,,,,,,,,,,,,,,,,,,,,,,,,,1997.642726935912,1997.642726935912,1997.642726935912,1997.642726935912,1997.642726935912,1997.642726935912,1997.642726935912,1997.642726935912,1997.642726935912,1997.642726935912,a,0.7284710132516921,10,955,2,1998.3961257678457,1999.9102704250254,,,,,,,,,,,,,,,,,,,,,,,,,,,,,,,,,,,,,,,,,,,,,,,,,,,,,,,,,,,,,,,,,,,,,,,13675,2022-12-02_14h50.48.413,vts_reward_expectancy_bt_OFFLINE,2022.2.4,60.01774342024522,
0,0,1,0,1,0,0,0,hexagon,triangle,2,0,2,0,3,4,40,6,,,,,,,,,,,,,,,,,,,,,,,,,,,,,,,,,,,,,,,,2000.4103230168112,2000.4103230168112,2000.4103230168112,2000.4103230168112,2000.4103230168112,2000.4103230168112,2000.4103230168112,2000.4103230168112,2000.4103230168112,2000.4103230168112,l,0.705591450445354,10,965,2,2001.145193929784,2002.646278721746,,,,,,,,,,,,,,,,,,,,,,,,,,,,,,,,,,,,,,,,,,,,,,,,,,,,,,,,,,,,,,,,,,,,,,,13675,2022-12-02_14h50.48.413,vts_reward_expectancy_bt_OFFLINE,2022.2.4,60.01774342024522,
1,0,0,0,0,0,1,0,triangle,hexagon,2,0,2,0,3,5,41,1,,,,,,,,,,,,,,,,,,,,,,,,,,,,,,,,,,,,,,,,2003.1466597458348,2003.1466597458348,2003.1466597458348,2003.1466597458348,2003.1466597458348,2003.1466597458348,2003.1466597458348,2003.1466597458348,2003.1466597458348,2003.1466597458348,a,0.5922160963527858,10,975,2,2003.7646804787219,2005.2642175778747,2005.2642175778747,2005.76406825101,,,,,,,,,,,,,,,,,,,,,,,,,,,,,,,,,,,,,,,,,,,,,,,,,,,,,,,,,,,,,,,,,,,,,13675,2022-12-02_14h50.48.413,vts_reward_expectancy_bt_OFFLINE,2022.2.4,60.01774342024522,
0,1,0,0,1,0,0,0,circle,triangle,2,0,2,0,3,6,42,3,,,,,,,,,,,,,,,,,,,,,,,,,,,,,,,,,,,,,,,,2005.76406825101,2005.76406825101,2005.76406825101,2005.76406825101,2005.76406825101,2005.76406825101,2005.76406825101,2005.76406825101,2005.76406825101,2005.76406825101,l,0.7635716004297137,10,985,2,2006.551331859082,2008.0666254488751,,,,,,,,,,,,,,,,,,,,,,,,,,,,,,,,,,,,,,,,,,,,,,,,,,,,,,,,,,,,,,,,,,,,,,,13675,2022-12-02_14h50.48.413,vts_reward_expectancy_bt_OFFLINE,2022.2.4,60.01774342024522,
0,0,1,0,0,0,0,1,hexagon,star,2,0,2,0,3,7,43,8,,,,,,,,,,,,,,,,,,,,,,,,,,,,,,,,,,,,,,,,2008.56704076007,2008.56704076007,2008.56704076007,2008.56704076007,2008.56704076007,2008.56704076007,2008.56704076007,2008.56704076007,2008.56704076007,2008.56704076007,l,0.7622925913892686,10,995,2,2009.3522252971306,2010.851149220951,2010.851149220951,2011.3514602519572,,,,,,,,,,,,,,,,,,,,,,,,,,,,,,,,,,,,,,,,,,,,,,,,,,,,,,,,,,,,,,,,,,,,,13675,2022-12-02_14h50.48.413,vts_reward_expectancy_bt_OFFLINE,2022.2.4,60.01774342024522,
0,0,0,1,1,0,0,0,star,triangle,2,0,2,0,3,8,44,9,,,,,,,,,,,,,,,,,,,,,,,,,,,,,,,,,,,,,,,,2011.3514602519572,2011.3514602519572,2011.3514602519572,2011.3514602519572,2011.3514602519572,2011.3514602519572,2011.3514602519572,2011.3514602519572,2011.3514602519572,2011.3514602519572,l,0.8021686845459044,10,1005,2,2012.1719440910965,2013.6873489599675,,,,,,,,,,,,,,,,,,,,,,,,,,,,,,,,,,,,,,,,,,,,,,,,,,,,,,,,,,,,,,,,,,,,,,,13675,2022-12-02_14h50.48.413,vts_reward_expectancy_bt_OFFLINE,2022.2.4,60.01774342024522,
0,0,0,1,0,0,1,0,star,hexagon,2,0,2,0,3,9,45,11,,,,,,,,,,,,,,,,,,,,,,,,,,,,,,,,,,,,,,,,2014.1877252338454,2014.1877252338454,2014.1877252338454,2014.1877252338454,2014.1877252338454,2014.1877252338454,2014.1877252338454,2014.1877252338454,2014.1877252338454,2014.1877252338454,l,0.507683013100177,10,1015,2,2014.722063146066,2016.221800192725,2016.221800192725,,,,,,,,,,,,,,,,,,,,,,,,,,,,,,,,,,,,,,,,,,,,,,,,,,,,,,,,,,,,,,,,,,,,,,13675,2022-12-02_14h50.48.413,vts_reward_expectancy_bt_OFFLINE,2022.2.4,60.01774342024522,
0,0,0,1,0,1,0,0,star ,circle,2,0,2,0,3,10,46,10,,,,,,,,,,,,,,,,,,,,,,,,,,,,,,,,,,,,,,,,2016.7236406197771,2016.7236406197771,2016.7236406197771,2016.7236406197771,2016.7236406197771,2016.7236406197771,2016.7236406197771,2016.7236406197771,2016.7236406197771,2016.7236406197771,a,1.3017991911619902,10,1025,2,2018.0580184301361,2019.5579430321231,2019.5579430321231,2020.0579819660634,,,,,,,,,,,,,,,,,,,,,,,,,,,,,,,,,,,,,,,,,,,,,,,,,,,,,,,,,,,,,,,,,,,,,13675,2022-12-02_14h50.48.413,vts_reward_expectancy_bt_OFFLINE,2022.2.4,60.01774342024522,
0,0,1,0,0,1,0,0,hexagon,circle,2,0,2,0,3,11,47,7,,,,,,,,,,,,,,,,,,,,,,,,,,,,,,,,,,,,,,,,2020.0579819660634,2020.0579819660634,2020.0579819660634,2020.0579819660634,2020.0579819660634,2020.0579819660634,2020.0579819660634,2020.0579819660634,2020.0579819660634,2020.0579819660634,l,0.6453146524727345,1,1026,2,2020.7285907538608,2022.2274905950762,,,,,,,,,,,,,,,,,,,,,,,,,,,,,,,,,,,,,,,,,,,,,,,,,,,,,,,,,,,,,,,,,,,,,,,13675,2022-12-02_14h50.48.413,vts_reward_expectancy_bt_OFFLINE,2022.2.4,60.01774342024522,
,,,,,,,,,,,,,,,,,,0,0,0,0,0,0,0,0,,,,,,,,,,,,,,,,,,,,,,,,,,,,,,,,,,,,,,,,,,,,,,,,2061.73970774794,,,S,139,star,0.0005745901726186275,2056.2137270169333,2057.7030574060045,2057.7030574060045,2057.7030574060045,1,0,f,2.5123560833744705,0,2060.240820203908,,,,,,,,,,,,,,,,,,,,,,,,,,,,,,,,,,,,,,,,,,,,,,,,,,,,,,,13675,2022-12-02_14h50.48.413,vts_reward_expectancy_bt_OFFLINE,2022.2.4,60.01774342024522,
,,,,,,,,,,,,,,,,,,0,0,0,0,1,0,1,0,,,,,,,,,,,,,,,,,,,,,,,,,,,,,,,,,,,,,,,,,,,,,,,,2066.5930952341296,,,U,181,circle,0.0018188729882240295,2062.735304629896,2064.223783246707,2064.223783246707,2064.223783246707,1,0,f,0.8405225835740566,0,2065.0923144128174,,,,,,,,,,,,,,,,,,,,,,,,,,,,,,,,,,,,,,,,,,,,,,,,,,,,,,,13675,2022-12-02_14h50.48.413,vts_reward_expectancy_bt_OFFLINE,2022.2.4,60.01774342024522,
,,,,,,,,,,,,,,,,,,0,0,0,0,2,0,2,0,,,,,,,,,,,,,,,,,,,,,,,,,,,,,,,,,,,,,,,,,,,,,,,,2071.1448645619676,,,Y,146,hexagon,0.0018592393025755882,2067.588388511911,2069.07764654886,2069.07764654886,2069.07764654886,1,0,f,0.5435309722088277,0,2069.645908643026,2071.1448645619676,,,,,,,,,,,,,,,,,,,,,,,,,,,,,,,,,,,,,,,,,,,,,,,,,,,,,,13675,2022-12-02_14h50.48.413,vts_reward_expectancy_bt_OFFLINE,2022.2.4,60.01774342024522,
,,,,,,,,,,,,,,,,,,0,0,0,0,3,0,3,0,,,,,,,,,,,,,,,,,,,,,,,,,,,,,,,,,,,,,,,,,,,,,,,,2075.865275251679,,,B,174,triangle,0.0022894712164998055,2072.143396490719,2073.630997845903,2073.630997845903,2073.630997845903,1,0,d,0.7036172454245389,0,2074.365987394005,2075.865275251679,,,,,,,,,,,,,,,,,,,,,,,,,,,,,,,,,,,,,,,,,,,,,,,,,,,,,,13675,2022-12-02_14h50.48.413,vts_reward_expectancy_bt_OFFLINE,2022.2.4,60.01774342024522,
,,,,,,,,,,,,,,,,,,0,0,0,0,4,0,4,0,,,,,,,,,,,,,,,,,,,,,,,,,,,,,,,,,,,,,,,,,,,,,,,,2080.5355599299073,,,W,167,star,0.00031168991699814796,2076.8615983147174,2078.350963979028,2078.350963979028,2078.350963979028,1,0,f,0.641520073171705,0,2079.020075908862,,,,,,,,,,,,,,,,,,,,,,,,,,,,,,,,,,,,,,,,,,,,,,,,,,,,,,,13675,2022-12-02_14h50.48.413,vts_reward_expectancy_bt_OFFLINE,2022.2.4,60.01774342024522,
,,,,,,,,,,,,,,,,,,0,0,0,0,5,0,5,0,,,,,,,,,,,,,,,,,,,,,,,,,,,,,,,,,,,,,,,,,,,,,,,,2085.4055896927603,,2085.9056972647086,D,160,triangle,0.01678898697718978,2081.5313415457495,2083.0048742648214,2083.0048742648214,2083.0048742648214,1,0,d,0.8821382713504136,0,2083.906609021127,2085.4055896927603,,,,,,,,,,,,,,,,,,,,,,,,,,,,,,,,,,,,,,,,,,,,,,,,,,,,,,13675,2022-12-02_14h50.48.413,vts_reward_expectancy_bt_OFFLINE,2022.2.4,60.01774342024522,
,,,,,,,,,,,,,,,,,,0,0,0,0,6,0,6,0,,,,,,,,,,,,,,,,,,,,,,,,,,,,,,,,,,,,,,,,,,,,,,,,2090.1923222709447,,,H,132,hexagon,0.0005942634306848049,2086.4018007977866,2087.8916627569124,2087.8916627569124,2087.8916627569124,1,0,d,0.7540140971541405,0,2088.6770346798003,,,,,,,,,,,,,,,,,,,,,,,,,,,,,,,,,,,,,,,,,,,,,,,,,,,,,,,13675,2022-12-02_14h50.48.413,vts_reward_expectancy_bt_OFFLINE,2022.2.4,60.01774342024522,
,,,,,,,,,,,,,,,,,,0,0,0,0,7,0,7,0,,,,,,,,,,,,,,,,,,,,,,,,,,,,,,,,,,,,,,,,,,,,,,,,2094.96258414397,,,F,125,circle,0.016727883834391832,2091.1882625990547,2092.6619949648157,2092.6619949648157,2092.6619949648157,1,0,d,0.753953458275646,0,2093.447571101133,,,,,,,,,,,,,,,,,,,,,,,,,,,,,,,,,,,,,,,,,,,,,,,,,,,,,,,13675,2022-12-02_14h50.48.413,vts_reward_expectancy_bt_OFFLINE,2022.2.4,60.01774342024522,
,,,,,,,,,,,,,,,,,,0,0,0,0,8,0,8,0,,,,,,,,,,,,,,,,,,,,,,,,,,,,,,,,,,,,,,,,,,,,,,,,2099.599463006947,,2100.0997003349476,S,139,triangle,0.016879588831216097,2095.958513424732,2097.4323405339383,2097.4323405339383,2097.4323405339383,1,0,f,0.6411749329417944,0,2098.100522388704,2099.599463006947,,,,,,,,,,,,,,,,,,,,,,,,,,,,,,,,,,,,,,,,,,,,,,,,,,,,,,13675,2022-12-02_14h50.48.413,vts_reward_expectancy_bt_OFFLINE,2022.2.4,60.01774342024522,
,,,,,,,,,,,,,,,,,,0,0,0,0,9,0,9,0,,,,,,,,,,,,,,,,,,,,,,,,,,,,,,,,,,,,,,,,,,,,,,,,2104.2528036069125,,2104.7627762239426,U,181,hexagon,0.0005492647178471088,2100.594820756931,2102.085417885799,2102.085417885799,2102.085417885799,1,0,f,0.6348729482851923,0,2102.752599975094,2104.2528036069125,,,,,,,,,,,,,,,,,,,,,,,,,,,,,,,,,,,,,,,,,,,,,,,,,,,,,,13675,2022-12-02_14h50.48.413,vts_reward_expectancy_bt_OFFLINE,2022.2.4,60.01774342024522,
,,,,,,,,,,,,,,,,,,,,,,,,,,0,0,0,0,0,0,0,0,,,,,,,,,,,,,,,,,,,,,,,,,,,,,,,,,,,,,,,,2133.0911324610934,,,Y,146,circle,0.00260951928794384,,,,,1,0,,,1,2131.575790598057,,2128.700125730131,2130.188299676869,2130.188299676869,2130.188299676869,j,1.3568446501158178,,,,,,,,,,,,,,,,,,,,,,,,,,,,,,,,,,,,,,,,,,,,,,,,13675,2022-12-02_14h50.48.413,vts_reward_expectancy_bt_OFFLINE,2022.2.4,60.01774342024522,
,,,,,,,,,,,,,,,,,,,,,,,,,,0,0,0,0,1,0,1,0,,,,,,,,,,,,,,,,,,,,,,,,,,,,,,,,,,,,,,,,2137.7613353128545,,,B,181,triangle,0.016750319860875607,,,,,1,0,,,1,2136.260585227981,,2134.086877434049,2135.5586515427567,2135.5586515427567,2135.5586515427567,k,0.6771588595584035,,,,,,,,,,,,,,,,,,,,,,,,,,,,,,,,,,,,,,,,,,,,,,,,13675,2022-12-02_14h50.48.413,vts_reward_expectancy_bt_OFFLINE,2022.2.4,60.01774342024522,
,,,,,,,,,,,,,,,,,,,,,,,,,,0,0,0,0,2,0,2,0,,,,,,,,,,,,,,,,,,,,,,,,,,,,,,,,,,,,,,,,2142.4814878730103,,,U,125,hexagon,0.0021380381658673286,,,,,1,0,,,1,2140.9808447607793,,2138.7568777208216,2140.2455884180963,2140.2455884180963,2140.2455884180963,j,0.7155790543183684,,,,,,,,,,,,,,,,,,,,,,,,,,,,,,,,,,,,,,,,,,,,,,,,13675,2022-12-02_14h50.48.413,vts_reward_expectancy_bt_OFFLINE,2022.2.4,60.01774342024522,
,,,,,,,,,,,,,,,,,,,,,,,,,,0,0,0,0,3,0,3,0,,,,,,,,,,,,,,,,,,,,,,,,,,,,,,,,,,,,,,,,2147.2851071208715,,,D,160,star,0.0022245249710977077,,,,,1,0,,,1,2145.784643257037,,2143.477098058909,2144.965969322715,2144.965969322715,2144.965969322715,k,0.8001099252142012,,,,,,,,,,,,,,,,,,,,,,,,,,,,,,,,,,,,,,,,,,,,,,,,13675,2022-12-02_14h50.48.413,vts_reward_expectancy_bt_OFFLINE,2022.2.4,60.01774342024522,
,,,,,,,,,,,,,,,,,,,,,,,,,,0,0,0,0,4,0,4,0,,,,,,,,,,,,,,,,,,,,,,,,,,,,,,,,,,,,,,,,2151.8885577027686,,,H,139,star,0.002014785073697567,,,,,1,0,,,1,2150.3881052010693,,2148.280622454826,2149.7694010240957,2149.7694010240957,2149.7694010240957,j,0.5979281975887716,,,,,,,,,,,,,,,,,,,,,,,,,,,,,,,,,,,,,,,,,,,,,,,,13675,2022-12-02_14h50.48.413,vts_reward_expectancy_bt_OFFLINE,2022.2.4,60.01774342024522,
,,,,,,,,,,,,,,,,,,,,,,,,,,0,0,0,0,5,0,5,0,,,,,,,,,,,,,,,,,,,,,,,,,,,,,,,,,,,,,,,,2156.5449886457063,,,F,174,circle,0.0017462088726460934,,,,,1,0,,,1,2155.0415717917494,,2152.8837160710245,2154.372879614122,2154.372879614122,2154.372879614122,k,0.639874963555485,,,,,,,,,,,,,,,,,,,,,,,,,,,,,,,,,,,,,,,,,,,,,,,,13675,2022-12-02_14h50.48.413,vts_reward_expectancy_bt_OFFLINE,2022.2.4,60.01774342024522,
,,,,,,,,,,,,,,,,,,,,,,,,,,0,0,0,0,6,0,6,0,,,,,,,,,,,,,,,,,,,,,,,,,,,,,,,,,,,,,,,,2161.160508391913,,,W,167,hexagon,0.0019137472845613956,,,,,1,0,,,1,2159.645445467904,,2157.53723288374,2159.026426162105,2159.026426162105,2159.026426162105,k,0.6001561982557178,,,,,,,,,,,,,,,,,,,,,,,,,,,,,,,,,,,,,,,,,,,,,,,,13675,2022-12-02_14h50.48.413,vts_reward_expectancy_bt_OFFLINE,2022.2.4,60.01774342024522,
,,,,,,,,,,,,,,,,,,,,,,,,,,0,0,0,0,7,0,7,0,,,,,,,,,,,,,,,,,,,,,,,,,,,,,,,,,,,,,,,,2165.7974242349155,,,S,132,triangle,0.001738556195050478,,,,,1,0,,,1,2164.281819237862,,2162.14042591583,2163.6299343239516,2163.6299343239516,2163.6299343239516,j,0.6315713883377612,,,,,,,,,,,,,,,,,,,,,,,,,,,,,,,,,,,,,,,,,,,,,,,,13675,2022-12-02_14h50.48.413,vts_reward_expectancy_bt_OFFLINE,2022.2.4,60.01774342024522,
,,,,,,,,,,,,,,,,,,,,,,,,,,0,0,0,0,8,0,8,0,,,,,,,,,,,,,,,,,,,,,,,,,,,,,,,,,,,,,,,,2170.6342264451087,,,Y,146,hexagon,0.016849900130182505,,,,,1,0,,,1,2169.118827797007,,2166.793253066018,2168.266907095909,2168.266907095909,2168.266907095909,j,0.820704426150769,,,,,,,,,,,,,,,,,,,,,,,,,,,,,,,,,,,,,,,,,,,,,,,,13675,2022-12-02_14h50.48.413,vts_reward_expectancy_bt_OFFLINE,2022.2.4,60.01774342024522,
,,,,,,,,,,,,,,,,,,,,,,,,,,0,0,0,0,9,0,9,0,,,,,,,,,,,,,,,,,,,,,,,,,,,,,,,,,,,,,,,,2175.3877083859406,,2175.891158925835,B,181,star,0.016690202057361603,,,,,1,0,,,1,2173.8889752398245,,2171.629854470957,2173.103493395727,2173.103493395727,2173.103493395727,k,0.7654785313643515,,,,,,,,,,,,,,,,,,,,,,,,,,,,,,,,,,,,,,,,,,,,,,,,13675,2022-12-02_14h50.48.413,vts_reward_expectancy_bt_OFFLINE,2022.2.4,60.01774342024522,
,,,,,,,,,,,,,,,,,,,,,,,,,,,,,,,,,,0,0,0,0,0,0,0,0,,,,,,,,,,,,,,,,,,,,,,,,,,,,0,1026,,,2221.5676276688464,,,Y,167,triangle,0.0009631779976189137,,,,,1,0,,,2,,,,,,,,,2216.7310971608385,2216.7310971608385,2216.7310971608385,2216.7310971608385,2218.2198491459712,2218.2198491459712,2218.2198491459712,2218.2198491459712,2218.236389745958,2218.236389745958,2218.236389745958,2218.236389745958,-1,number,NA,k,1.810908617451787,vtsPrac,2220.057386684697,,,,,,,,,,,,,,,,,,,,,,,,,,,,,13675,2022-12-02_14h50.48.413,vts_reward_expectancy_bt_OFFLINE,2022.2.4,60.01774342024522,
,,,,,,,,,,,,,,,,,,,,,,,,,,,,,,,,,,0,0,0,0,1,0,1,0,,,,,,,,,,,,,,,,,,,,,,,,,,,,0,1026,,,2226.8265362889506,,,U,146,circle,0.0018743588589131832,,,,,1,0,,,2,,,,,,,,,2222.551923644729,2222.551923644729,2222.551923644729,2222.551923644729,2224.0403718426824,2224.0403718426824,2224.0403718426824,2224.0403718426824,2224.056944123935,2224.056944123935,2224.056944123935,2224.056944123935,switch,letter,lettSwt,f,1.2557095303200185,vtsPrac,2225.3267005570233,,,,,,,,,,,,,,,,,,,,,,,,,,,,,13675,2022-12-02_14h50.48.413,vts_reward_expectancy_bt_OFFLINE,2022.2.4,60.01774342024522,
,,,,,,,,,,,,,,,,,,,,,,,,,,,,,,,,,,0,0,0,0,2,0,2,0,,,,,,,,,,,,,,,,,,,,,,,,,,,,0,1026,,,2232.397011450026,,,W,132,circle,0.0015402361750602722,,,,,1,0,,,2,,,,,,,,,2227.8223605901003,2227.8223605901003,2227.8223605901003,2227.8223605901003,2229.3106229407713,2229.3106229407713,2229.3106229407713,2229.3106229407713,2229.3272312837653,2229.3272312837653,2229.3272312837653,2229.3272312837653,repeat,letter,lettRpt,f,1.5545046464540064,vtsPrac,2230.8965692790225,,,,,,,,,,,,,,,,,,,,,,,,,,,,,13675,2022-12-02_14h50.48.413,vts_reward_expectancy_bt_OFFLINE,2022.2.4,60.01774342024522,
,,,,,,,,,,,,,,,,,,,,,,,,,,,,,,,,,,0,0,0,0,3,0,3,0,,,,,,,,,,,,,,,,,,,,,,,,,,,,0,1026,,,2238.0007099998184,,,S,174,triangle,0.002233174629509449,,,,,1,0,,,2,,,,,,,,,2233.392489232123,2233.392489232123,2233.392489232123,2233.392489232123,2234.8811757909134,2234.8811757909134,2234.8811757909134,2234.8811757909134,2234.8977576070465,2234.8977576070465,2234.8977576070465,2234.8977576070465,switch,number,numSwt,k,1.597988358233124,vtsPrac,2236.500224254094,,,,,,,,,,,,,,,,,,,,,,,,,,,,,13675,2022-12-02_14h50.48.413,vts_reward_expectancy_bt_OFFLINE,2022.2.4,60.01774342024522,
,,,,,,,,,,,,,,,,,,,,,,,,,,,,,,,,,,0,0,0,0,4,0,4,0,,,,,,,,,,,,,,,,,,,,,,,,,,,,0,1026,,,2242.787840127945,,,Y,167,hexagon,0.002147784922271967,,,,,1,0,,,2,,,,,,,,,2238.995975676924,2238.995975676924,2238.995975676924,2238.995975676924,2240.484916787129,2240.484916787129,2240.484916787129,2240.484916787129,2240.5015887259506,2240.5015887259506,2240.5015887259506,2240.5015887259506,repeat,number,numRpt,k,0.7749297702684999,vtsPrac,2241.287975094747,,,,,,,,,,,,,,,,,,,,,,,,,,,,,13675,2022-12-02_14h50.48.413,vts_reward_expectancy_bt_OFFLINE,2022.2.4,60.01774342024522,
,,,,,,,,,,,,,,,,,,,,,,,,,,,,,,,,,,0,0,0,0,5,0,5,0,,,,,,,,,,,,,,,,,,,,,,,,,,,,0,1026,,,2247.8745943917893,,,U,146,triangle,0.0020219599828124046,,,,,1,0,,,2,,,,,,,,,2243.7828807658516,2243.7828807658516,2243.7828807658516,2243.7828807658516,2245.2721266797744,2245.2721266797744,2245.2721266797744,2245.2721266797744,2245.2883998029865,2245.2883998029865,2245.2883998029865,2245.2883998029865,switch,letter,lettSwt,f,1.0732793612405658,vtsPrac,2246.3743057237007,,,,,,,,,,,,,,,,,,,,,,,,,,,,,13675,2022-12-02_14h50.48.413,vts_reward_expectancy_bt_OFFLINE,2022.2.4,60.01774342024522,
,,,,,,,,,,,,,,,,,,,,,,,,,,,,,,,,,,0,0,0,0,6,0,6,0,,,,,,,,,,,,,,,,,,,,,,,,,,,,0,1026,,,2252.8617901359685,,,W,132,triangle,0.0022027497179806232,,,,,1,0,,,2,,,,,,,,,2248.8703980059363,2248.8703980059363,2248.8703980059363,2248.8703980059363,2250.358835692052,2250.358835692052,2250.358835692052,2250.358835692052,2250.375539719127,2250.375539719127,2250.375539719127,2250.375539719127,repeat,letter,lettRpt,f,0.971134674269706,vtsPrac,2251.361410245765,,,,,,,,,,,,,,,,,,,,,,,,,,,,,13675,2022-12-02_14h50.48.413,vts_reward_expectancy_bt_OFFLINE,2022.2.4,60.01774342024522,
,,,,,,,,,,,,,,,,,,,,,,,,,,,,,,,,,,0,0,0,0,7,0,7,0,,,,,,,,,,,,,,,,,,,,,,,,,,,,0,1026,,,2257.965528335888,,,S,174,star,0.001989251933991909,,,,,1,0,,,2,,,,,,,,,2253.8567545418628,2253.8567545418628,2253.8567545418628,2253.8567545418628,2255.3455787920393,2255.3455787920393,2255.3455787920393,2255.3455787920393,2255.3625847287476,2255.3625847287476,2255.3625847287476,2255.3625847287476,switch,number,numSwt,k,1.0921621583402157,vtsPrac,2256.465284239035,,,,,,,,,,,,,,,,,,,,,,,,,,,,,13675,2022-12-02_14h50.48.413,vts_reward_expectancy_bt_OFFLINE,2022.2.4,60.01774342024522,
,,,,,,,,,,,,,,,,,,,,,,,,,,,,,,,,,,0,0,0,0,8,0,8,0,,,,,,,,,,,,,,,,,,,,,,,,,,,,0,1026,,,2262.5521055450663,,,Y,146,star,0.0017355061136186123,,,,,1,0,,,2,,,,,,,,,2258.9606196917593,2258.9606196917593,2258.9606196917593,2258.9606196917593,2260.4493248257786,2260.4493248257786,2260.4493248257786,2260.4493248257786,2260.4661317388527,2260.4661317388527,2260.4661317388527,2260.4661317388527,repeat,number,numRpt,j,0.5790517930872738,vtsPrac,2261.0515681789257,,,,,,,,,,,,,,,,,,,,,,,,,,,,,13675,2022-12-02_14h50.48.413,vts_reward_expectancy_bt_OFFLINE,2022.2.4,60.01774342024522,
,,,,,,,,,,,,,,,,,,,,,,,,,,,,,,,,,,0,0,0,0,9,0,9,0,,,,,,,,,,,,,,,,,,,,,,,,,,,,0,1026,,,2267.238912779838,,,W,139,triangle,0.0019482877105474472,,,,,1,0,,,2,,,,,,,,,2263.547775340732,2263.547775340732,2263.547775340732,2263.547775340732,2265.0363356401213,2265.0363356401213,2265.0363356401213,2265.0363356401213,2265.0528722447343,2265.0528722447343,2265.0528722447343,2265.0528722447343,switch,letter,lettSwt,f,0.6824923241510987,vtsPrac,2265.738671525847,,,,,,,,,,,,,,,,,,,,,,,,,,,,,13675,2022-12-02_14h50.48.413,vts_reward_expectancy_bt_OFFLINE,2022.2.4,60.01774342024522,
,,,,,,,,,,,,,,,,,,,,,,,,,,,,,,,,,,0,0,0,0,10,0,10,0,,,,,,,,,,,,,,,,,,,,,,,,,,,,0,1026,,,2272.1092803459615,,,D,167,triangle,0.0018640789203345776,,,,,1,0,,,2,,,,,,,,,2268.2347262641415,2268.2347262641415,2268.2347262641415,2268.2347262641415,2269.7233104109764,2269.7233104109764,2269.7233104109764,2269.7233104109764,2269.739918769803,2269.739918769803,2269.739918769803,2269.739918769803,switch,number,numSwt,k,0.8670737193897367,vtsPrac,2270.609527486842,,,,,,,,,,,,,,,,,,,,,,,,,,,,,13675,2022-12-02_14h50.48.413,vts_reward_expectancy_bt_OFFLINE,2022.2.4,60.01774342024522,
,,,,,,,,,,,,,,,,,,,,,,,,,,,,,,,,,,0,0,0,0,11,0,11,0,,,,,,,,,,,,,,,,,,,,,,,,,,,,0,1026,,,2276.8461574958637,,,F,174,circle,0.001550840213894844,,,,,1,0,,,2,,,,,,,,,2273.104827356059,2273.104827356059,2273.104827356059,2273.104827356059,2274.5932725309394,2274.5932725309394,2274.5932725309394,2274.5932725309394,2274.6102855498902,2274.6102855498902,2274.6102855498902,2274.6102855498902,switch,letter,lettSwt,d,0.7337743346579373,vtsPrac,2275.3461986039765,,,,,,,,,,,,,,,,,,,,,,,,,,,,,13675,2022-12-02_14h50.48.413,vts_reward_expectancy_bt_OFFLINE,2022.2.4,60.01774342024522,
,,,,,,,,,,,,,,,,,,,,,,,,,,,,,,,,,,0,0,0,0,12,0,12,0,,,,,,,,,,,,,,,,,,,,,,,,,,,,0,1026,,,2281.4976923880167,,,D,174,star,0.00169702572748065,,,,,1,0,,,2,,,,,,,,,2277.8415337558836,2277.8415337558836,2277.8415337558836,2277.8415337558836,2279.3303519589826,2279.3303519589826,2279.3303519589826,2279.3303519589826,2279.346905114129,2279.346905114129,2279.346905114129,2279.346905114129,repeat,letter,lettRpt,d,0.620704451110214,vtsPrac,2279.982674031984,,,,,,,,,,,,,,,,,,,,,,,,,,,,,13675,2022-12-02_14h50.48.413,vts_reward_expectancy_bt_OFFLINE,2022.2.4,60.01774342024522,
,,,,,,,,,,,,,,,,,,,,,,,,,,,,,,,,,,0,0,0,0,13,0,13,0,,,,,,,,,,,,,,,,,,,,,,,,,,,,0,1026,,,2286.017922294792,,,U,146,triangle,0.001962152775377035,,,,,1,0,,,2,,,,,,,,,2282.4778939820826,2282.4778939820826,2282.4778939820826,2282.4778939820826,2283.967055603862,2283.967055603862,2283.967055603862,2283.967055603862,2283.983785812743,2283.983785812743,2283.983785812743,2283.983785812743,switch,number,numSwt,j,0.5065611256286502,vtsPrac,2284.5031073749997,,,,,,,,,,,,,,,,,,,,,,,,,,,,,13675,2022-12-02_14h50.48.413,vts_reward_expectancy_bt_OFFLINE,2022.2.4,60.01774342024522,
,,,,,,,,,,,,,,,,,,,,,,,,,,,,,,,,,,0,0,0,0,14,0,14,0,,,,,,,,,,,,,,,,,,,,,,,,,,,,0,1026,,,2290.7549025979824,,2291.254935610108,F,132,star,0.0165381976403296,,,,,1,0,,,2,,,,,,,,,2287.0139453560114,2287.0139453560114,2287.0139453560114,2287.0139453560114,2288.4874168438837,2288.4874168438837,2288.4874168438837,2288.4874168438837,2288.520643613767,2288.520643613767,2288.520643613767,2288.520643613767,switch,letter,lettSwt,d,0.7341806362383068,vtsPrac,2289.254547368735,2290.7549025979824,,,,,,,,,,,,,,,,,,,,,,,,,,,,13675,2022-12-02_14h50.48.413,vts_reward_expectancy_bt_OFFLINE,2022.2.4,60.01774342024522,
,,,,,,,,,,,,,,,,,,,,,,,,,,,,,,,,,,0,0,0,0,15,0,15,0,,,,,,,,,,,,,,,,,,,,,,,,,,,,0,1026,,,2295.3917284747586,,,S,167,triangle,0.014348071068525314,,,,,1,0,,,2,,,,,,,,,2291.7672812328674,2291.7672812328674,2291.7672812328674,2291.7672812328674,2293.240851708688,2293.240851708688,2293.240851708688,2293.240851708688,2293.27411560202,2293.27411560202,2293.27411560202,2293.27411560202,switch,number,numSwt,k,0.6053014784120023,vtsPrac,2293.876515585929,,,,,,,,,,,,,,,,,,,,,,,,,,,,,13675,2022-12-02_14h50.48.413,vts_reward_expectancy_bt_OFFLINE,2022.2.4,60.01774342024522,
,,,,,,,,,,,,,,,,,,,,,,,,,,,,,,,,,,0,0,0,0,16,0,16,0,,,,,,,,,,,,,,,,,,,,,,,,,,,,0,1026,,,2299.894981919788,,,D,181,circle,0.01682475581765175,,,,,1,0,,,2,,,,,,,,,2296.3879291471094,2296.3879291471094,2296.3879291471094,2296.3879291471094,2297.8609498227015,2297.8609498227015,2297.8609498227015,2297.8609498227015,2297.8945221989416,2297.8945221989416,2297.8945221989416,2297.8945221989416,repeat,number,numRpt,k,0.49610993824899197,vtsPrac,2298.3799752877094,,,,,,,,,,,,,,,,,,,,,,,,,,,,,13675,2022-12-02_14h50.48.413,vts_reward_expectancy_bt_OFFLINE,2022.2.4,60.01774342024522,
,,,,,,,,,,,,,,,,,,,,,,,,,,,,,,,,,,0,0,0,0,17,0,17,0,,,,,,,,,,,,,,,,,,,,,,,,,,,,0,1026,,,2304.498658785131,,,B,125,triangle,0.016964362934231758,,,,,1,0,,,2,,,,,,,,,2300.891479803715,2300.891479803715,2300.891479803715,2300.891479803715,2302.364454843104,2302.364454843104,2302.364454843104,2302.364454843104,2302.3977057058364,2302.3977057058364,2302.3977057058364,2302.3977057058364,switch,letter,lettSwt,d,0.5936903390102088,vtsPrac,2302.983570743818,,,,,,,,,,,,,,,,,,,,,,,,,,,,,13675,2022-12-02_14h50.48.413,vts_reward_expectancy_bt_OFFLINE,2022.2.4,60.01774342024522,
,,,,,,,,,,,,,,,,,,,,,,,,,,,,,,,,,,0,0,0,0,18,0,18,0,,,,,,,,,,,,,,,,,,,,,,,,,,,,0,1026,,,2309.585493071936,,,S,146,triangle,0.01669153617694974,,,,,1,0,,,2,,,,,,,,,2305.4943030290306,2305.4943030290306,2305.4943030290306,2305.4943030290306,2306.967943381984,2306.967943381984,2306.967943381984,2306.967943381984,2307.0013871900737,2307.0013871900737,2307.0013871900737,2307.0013871900737,switch,number,numSwt,j,1.0754186543636024,vtsPrac,2308.0706755379215,,,,,,,,,,,,,,,,,,,,,,,,,,,,,13675,2022-12-02_14h50.48.413,vts_reward_expectancy_bt_OFFLINE,2022.2.4,60.01774342024522,
,,,,,,,,,,,,,,,,,,,,,,,,,,,,,,,,,,0,0,0,0,19,0,19,0,,,,,,,,,,,,,,,,,,,,,,,,,,,,0,1026,,,2314.3556387061253,,,F,167,hexagon,0.01665260409936309,,,,,1,0,,,2,,,,,,,,,2310.5811362699606,2310.5811362699606,2310.5811362699606,2310.5811362699606,2312.0551540791057,2312.0551540791057,2312.0551540791057,2312.0551540791057,2312.0885050799698,2312.0885050799698,2312.0885050799698,2312.0885050799698,repeat,number,numRpt,k,0.7588387220166624,vtsPrac,2312.840923416894,,,,,,,,,,,,,,,,,,,,,,,,,,,,,13675,2022-12-02_14h50.48.413,vts_reward_expectancy_bt_OFFLINE,2022.2.4,60.01774342024522,
,,,,,,,,,,,,,,,,,,,,,,,,,,,,,,,,,,0,0,0,0,20,0,20,0,,,,,,,,,,,,,,,,,,,,,,,,,,,,0,1026,,,2318.926032504067,,2319.4260915881023,F,132,triangle,0.016779421363025904,,,,,1,0,,,2,,,,,,,,,2315.3509811661206,2315.3509811661206,2315.3509811661206,2315.3509811661206,2316.8253060639836,2316.8253060639836,2316.8253060639836,2316.8253060639836,2316.858392378781,2316.858392378781,2316.858392378781,2316.858392378781,switch,letter,lettSwt,d,0.5679641305468976,vtsPrac,2317.4257974140346,2318.926032504067,,,,,,,,,,,,,,,,,,,,,,,,,,,,13675,2022-12-02_14h50.48.413,vts_reward_expectancy_bt_OFFLINE,2022.2.4,60.01774342024522,
,,,,,,,,,,,,,,,,,,,,,,,,,,,,,,,,,,0,0,0,0,21,0,21,0,,,,,,,,,,,,,,,,,,,,,,,,,,,,0,1026,,,2323.5794933307916,,,B,174,star,0.01410352811217308,,,,,1,0,,,2,,,,,,,,,2319.937885983847,2319.937885983847,2319.937885983847,2319.937885983847,2321.4269721801393,2321.4269721801393,2321.4269721801393,2321.4269721801393,2321.443697496783,2321.443697496783,2321.443697496783,2321.443697496783,repeat,letter,lettRpt,d,0.6122104963287711,vtsPrac,2322.0643495237455,,,,,,,,,,,,,,,,,,,,,,,,,,,,,13675,2022-12-02_14h50.48.413,vts_reward_expectancy_bt_OFFLINE,2022.2.4,60.01774342024522,
,,,,,,,,,,,,,,,,,,,,,,,,,,,,,,,,,,0,0,0,0,22,0,22,0,,,,,,,,,,,,,,,,,,,,,,,,,,,,0,1026,,,2328.34958252497,,,D,181,circle,0.01708015101030469,,,,,1,0,,,2,,,,,,,,,2324.5749730989337,2324.5749730989337,2324.5749730989337,2324.5749730989337,2326.0469572669826,2326.0469572669826,2326.0469572669826,2326.0469572669826,2326.080491325818,2326.080491325818,2326.080491325818,2326.080491325818,repeat,letter,lettRpt,d,0.7624897700734437,vtsPrac,2326.834523596801,,,,,,,,,,,,,,,,,,,,,,,,,,,,,13675,2022-12-02_14h50.48.413,vts_reward_expectancy_bt_OFFLINE,2022.2.4,60.01774342024522,
,,,,,,,,,,,,,,,,,,,,,,,,,,,,,,,,,,0,0,0,0,23,0,23,0,,,,,,,,,,,,,,,,,,,,,,,,,,,,0,1026,,,2333.0699512837455,,,H,125,star,0.0004998482763767242,,,,,1,0,,,2,,,,,,,,,2329.328995863907,2329.328995863907,2329.328995863907,2329.328995863907,2330.8172587486915,2330.8172587486915,2330.8172587486915,2330.8172587486915,2330.8339315750636,2330.8339315750636,2330.8339315750636,2330.8339315750636,switch,number,numSwt,j,0.7287219814024866,vtsPrac,2331.5698897037655,,,,,,,,,,,,,,,,,,,,,,,,,,,,,13675,2022-12-02_14h50.48.413,vts_reward_expectancy_bt_OFFLINE,2022.2.4,60.01774342024522,
,,,,,,,,,,,,,,,,,,,,,,,,,,,,,,,,,,0,0,0,0,24,0,24,0,,,,,,,,,,,,,,,,,,,,,,,,,,,,0,1026,,,2338.173669421114,,,B,125,triangle,0.002108615357428789,,,,,1,0,,,2,,,,,,,,,2334.065487429034,2334.065487429034,2334.065487429034,2334.065487429034,2335.55394185381,2335.55394185381,2335.55394185381,2335.55394185381,2335.570874339901,2335.570874339901,2335.570874339901,2335.570874339901,switch,letter,lettSwt,d,1.0897359033115208,vtsPrac,2336.667350986041,,,,,,,,,,,,,,,,,,,,,,,,,,,,,13675,2022-12-02_14h50.48.413,vts_reward_expectancy_bt_OFFLINE,2022.2.4,60.01774342024522,
