LTriangleOpac,LCircleOpac,LHexagonOpac,LStarOpac,RTriangleOpac,RCircleOpac,RHexagonOpac,RStarOpac,LShape_ID,RShape_ID,training_blocks.thisRepN,training_blocks.thisTrialN,training_blocks.thisN,training_blocks.thisIndex,training.thisRepN,training.thisTrialN,training.thisN,training.thisIndex,task1_prac_redo.thisRepN,task1_prac_redo.thisTrialN,task1_prac_redo.thisN,task1_prac_redo.thisIndex,task1_prac_trials.thisRepN,task1_prac_trials.thisTrialN,task1_prac_trials.thisN,task1_prac_trials.thisIndex,task2_prac_redo.thisRepN,task2_prac_redo.thisTrialN,task2_prac_redo.thisN,task2_prac_redo.thisIndex,task2_praac_trials.thisRepN,task2_praac_trials.thisTrialN,task2_praac_trials.thisN,task2_praac_trials.thisIndex,vts_prac_redo.thisRepN,vts_prac_redo.thisTrialN,vts_prac_redo.thisN,vts_prac_redo.thisIndex,vts_practice_trials.thisRepN,vts_practice_trials.thisTrialN,vts_practice_trials.thisN,vts_practice_trials.thisIndex,trials_norew.thisRepN,trials_norew.thisTrialN,trials_norew.thisN,trials_norew.thisIndex,block.thisRepN,block.thisTrialN,block.thisN,block.thisIndex,trials_rew.thisRepN,trials_rew.thisTrialN,trials_rew.thisN,trials_rew.thisIndex,key_resp.started,key_resp.keys,key_resp.rt,left_circle.started,right_circle.started,left_triangle.started,right_triangle.started,left_star.started,right_star.started,left_hexagon.started,right_hexagon.started,training_fix.started,training_resp.started,training_resp.keys,training_resp.rt,points_trial,points_cumul,trainBlock,training_feedback_txt.started,fix.started,curr_topStim,curr_bottStim,curr_shape,ISI.started,tgt_fix_prac1.started,top_target_prac1.started,bott_target_prac1.started,target_resp_prac1.started,top_target_prac1.stopped,tgt_fix_prac1.stopped,bott_target_prac1.stopped,target_resp_prac1.stopped,acc,E1,target_resp_prac1.keys,pracBlock,prac_fback_text.started,prac_fback_text.stopped,fix.stopped,target_resp_prac1.rt,tgt_fix_prac2.started,top_target_prac2.started,bott_target_prac2.started,target_resp_prac2.started,target_resp_prac2.keys,target_resp_prac2.rt,star.started,hegagon.started,triangle.started,circle.started,star.stopped,hegagon.stopped,triangle.stopped,circle.stopped,top_target.started,tgt_fix.started,bot_target.started,target_resp.started,alt,task,condition,target_resp.keys,target_resp.rt,rewCond,vts_fback.started,blockNum,norew_fback.started,key_resp_2.keys,key_resp_2.rt,rewExpectancy,feedbk_text.started,feedbk_text.stopped,text_3.started,debrief.started,text_3.stopped,button.started,debrief.index,debrief.itemText,debrief.type,debrief.granularity,debrief.font,debrief.markerColor,debrief.response,debrief.rt,button.numClicks,button.timesOn,button.timesOff,participant,date,expName,psychopyVersion,frameRate,
,,,,,,,,,,,,,,,,,,,,,,,,,,,,,,,,,,,,,,,,,,,,,,,,,,,,,,17.976905777992215,space,19.602401615993585,,,,,,,,,,,,,,,,,,,,,,,,,,,,,,,,,,,,,,,,,,,,,,,,,,,,,,,,,,,,,,,,,,,,,,,,,,,,,,,,,,,,,14066,2022-11-08_10h23.42.245,vts_reward_expectancy_bt_OFFLINE,2022.2.4,59.94715633633594,
0,0,0,1,1,0,0,0,star,triangle,0,0,0,0,0,0,0,9,,,,,,,,,,,,,,,,,,,,,,,,,,,,,,,,,,,,,,,,70.76163694899878,70.76163694899878,70.76163694899878,70.76163694899878,70.76163694899878,70.76163694899878,70.76163694899878,70.76163694899878,70.76163694899878,70.76163694899878,a,2.323285318998387,1,1,0,73.11735853398568,74.61913309199736,,,,,,,,,,,,,,,,,,,,,,,,,,,,,,,,,,,,,,,,,,,,,,,,,,,,,,,,,,,,,,,,,,,,14066,2022-11-08_10h23.42.245,vts_reward_expectancy_bt_OFFLINE,2022.2.4,59.94715633633594,
0,0,1,0,1,0,0,0,hexagon,triangle,0,0,0,0,0,1,1,6,,,,,,,,,,,,,,,,,,,,,,,,,,,,,,,,,,,,,,,,75.11970952100819,75.11970952100819,75.11970952100819,75.11970952100819,75.11970952100819,75.11970952100819,75.11970952100819,75.11970952100819,75.11970952100819,75.11970952100819,a,3.6248782140319236,1,2,0,78.77390231299796,80.27546280098613,,,,,,,,,,,,,,,,,,,,,,,,,,,,,,,,,,,,,,,,,,,,,,,,,,,,,,,,,,,,,,,,,,,,14066,2022-11-08_10h23.42.245,vts_reward_expectancy_bt_OFFLINE,2022.2.4,59.94715633633594,
0,0,1,0,0,1,0,0,hexagon,circle,0,0,0,0,0,2,2,7,,,,,,,,,,,,,,,,,,,,,,,,,,,,,,,,,,,,,,,,80.77595005600597,80.77595005600597,80.77595005600597,80.77595005600597,80.77595005600597,80.77595005600597,80.77595005600597,80.77595005600597,80.77595005600597,80.77595005600597,a,1.445559507003054,1,3,0,82.24433037498966,83.7460246720002,,,,,,,,,,,,,,,,,,,,,,,,,,,,,,,,,,,,,,,,,,,,,,,,,,,,,,,,,,,,,,,,,,,,14066,2022-11-08_10h23.42.245,vts_reward_expectancy_bt_OFFLINE,2022.2.4,59.94715633633594,
1,0,0,0,0,0,1,0,triangle,hexagon,0,0,0,0,0,3,3,1,,,,,,,,,,,,,,,,,,,,,,,,,,,,,,,,,,,,,,,,84.24643115600338,84.24643115600338,84.24643115600338,84.24643115600338,84.24643115600338,84.24643115600338,84.24643115600338,84.24643115600338,84.24643115600338,84.24643115600338,l,1.03566663901438,1,4,0,85.3143027779879,86.81595198798459,,,,,,,,,,,,,,,,,,,,,,,,,,,,,,,,,,,,,,,,,,,,,,,,,,,,,,,,,,,,,,,,,,,,14066,2022-11-08_10h23.42.245,vts_reward_expectancy_bt_OFFLINE,2022.2.4,59.94715633633594,
0,1,0,0,0,0,0,1,circle,star,0,0,0,0,0,4,4,5,,,,,,,,,,,,,,,,,,,,,,,,,,,,,,,,,,,,,,,,87.31660478000413,87.31660478000413,87.31660478000413,87.31660478000413,87.31660478000413,87.31660478000413,87.31660478000413,87.31660478000413,87.31660478000413,87.31660478000413,l,0.8436726290092338,1,5,0,88.18432797098649,89.68588005800848,,,,,,,,,,,,,,,,,,,,,,,,,,,,,,,,,,,,,,,,,,,,,,,,,,,,,,,,,,,,,,,,,,,,14066,2022-11-08_10h23.42.245,vts_reward_expectancy_bt_OFFLINE,2022.2.4,59.94715633633594,
0,1,0,0,0,0,1,0,circle,hexagon,0,0,0,0,0,5,5,4,,,,,,,,,,,,,,,,,,,,,,,,,,,,,,,,,,,,,,,,90.18634335900424,90.18634335900424,90.18634335900424,90.18634335900424,90.18634335900424,90.18634335900424,90.18634335900424,90.18634335900424,90.18634335900424,90.18634335900424,l,0.7196871030319016,1,6,0,90.93730436899932,92.43884155098931,,,,,,,,,,,,,,,,,,,,,,,,,,,,,,,,,,,,,,,,,,,,,,,,,,,,,,,,,,,,,,,,,,,,14066,2022-11-08_10h23.42.245,vts_reward_expectancy_bt_OFFLINE,2022.2.4,59.94715633633594,
1,0,0,0,0,0,0,1,triangle,star,0,0,0,0,0,6,6,2,,,,,,,,,,,,,,,,,,,,,,,,,,,,,,,,,,,,,,,,92.93943183298688,92.93943183298688,92.93943183298688,92.93943183298688,92.93943183298688,92.93943183298688,92.93943183298688,92.93943183298688,92.93943183298688,92.93943183298688,l,0.6777345029986463,10,16,0,93.64017624000553,95.1419924510119,,,,,,,,,,,,,,,,,,,,,,,,,,,,,,,,,,,,,,,,,,,,,,,,,,,,,,,,,,,,,,,,,,,,14066,2022-11-08_10h23.42.245,vts_reward_expectancy_bt_OFFLINE,2022.2.4,59.94715633633594,
1,0,0,0,0,1,0,0,triangle,circle,0,0,0,0,0,7,7,0,,,,,,,,,,,,,,,,,,,,,,,,,,,,,,,,,,,,,,,,95.64264740500948,95.64264740500948,95.64264740500948,95.64264740500948,95.64264740500948,95.64264740500948,95.64264740500948,95.64264740500948,95.64264740500948,95.64264740500948,a,0.640567649010336,1,17,0,96.30981091799913,97.8114978139929,,,,,,,,,,,,,,,,,,,,,,,,,,,,,,,,,,,,,,,,,,,,,,,,,,,,,,,,,,,,,,,,,,,,14066,2022-11-08_10h23.42.245,vts_reward_expectancy_bt_OFFLINE,2022.2.4,59.94715633633594,
0,0,0,1,0,0,1,0,star,hexagon,0,0,0,0,0,8,8,11,,,,,,,,,,,,,,,,,,,,,,,,,,,,,,,,,,,,,,,,98.31192017300054,98.31192017300054,98.31192017300054,98.31192017300054,98.31192017300054,98.31192017300054,98.31192017300054,98.31192017300054,98.31192017300054,98.31192017300054,a,1.8982441690168343,1,18,0,100.23082178799086,101.73251344400342,,,,,,,,,,,,,,,,,,,,,,,,,,,,,,,,,,,,,,,,,,,,,,,,,,,,,,,,,,,,,,,,,,,,14066,2022-11-08_10h23.42.245,vts_reward_expectancy_bt_OFFLINE,2022.2.4,59.94715633633594,
0,1,0,0,1,0,0,0,circle,triangle,0,0,0,0,0,9,9,3,,,,,,,,,,,,,,,,,,,,,,,,,,,,,,,,,,,,,,,,102.23306091400445,102.23306091400445,102.23306091400445,102.23306091400445,102.23306091400445,102.23306091400445,102.23306091400445,102.23306091400445,102.23306091400445,102.23306091400445,l,0.7907116660207976,1,19,0,103.05058428499615,104.55218159599463,,,,,,,,,,,,,,,,,,,,,,,,,,,,,,,,,,,,,,,,,,,,,,,,,,,,,,,,,,,,,,,,,,,,14066,2022-11-08_10h23.42.245,vts_reward_expectancy_bt_OFFLINE,2022.2.4,59.94715633633594,
0,0,0,1,0,1,0,0,star ,circle,0,0,0,0,0,10,10,10,,,,,,,,,,,,,,,,,,,,,,,,,,,,,,,,,,,,,,,,105.05291550699621,105.05291550699621,105.05291550699621,105.05291550699621,105.05291550699621,105.05291550699621,105.05291550699621,105.05291550699621,105.05291550699621,105.05291550699621,a,0.7496027479937766,1,20,0,105.8204076680122,107.32198420300847,,,,,,,,,,,,,,,,,,,,,,,,,,,,,,,,,,,,,,,,,,,,,,,,,,,,,,,,,,,,,,,,,,,,14066,2022-11-08_10h23.42.245,vts_reward_expectancy_bt_OFFLINE,2022.2.4,59.94715633633594,
0,0,1,0,0,0,0,1,hexagon,star,0,0,0,0,0,11,11,8,,,,,,,,,,,,,,,,,,,,,,,,,,,,,,,,,,,,,,,,107.82209771699854,107.82209771699854,107.82209771699854,107.82209771699854,107.82209771699854,107.82209771699854,107.82209771699854,107.82209771699854,107.82209771699854,107.82209771699854,l,0.6918488130322658,10,30,0,108.53996221499983,110.04171981598483,,,,,,,,,,,,,,,,,,,,,,,,,,,,,,,,,,,,,,,,,,,,,,,,,,,,,,,,,,,,,,,,,,,,14066,2022-11-08_10h23.42.245,vts_reward_expectancy_bt_OFFLINE,2022.2.4,59.94715633633594,
0,0,1,0,0,1,0,0,hexagon,circle,0,0,0,0,1,0,12,7,,,,,,,,,,,,,,,,,,,,,,,,,,,,,,,,,,,,,,,,110.54231713700574,110.54231713700574,110.54231713700574,110.54231713700574,110.54231713700574,110.54231713700574,110.54231713700574,110.54231713700574,110.54231713700574,110.54231713700574,a,0.8948271620029118,10,40,0,111.46004305800307,112.96148543298477,,,,,,,,,,,,,,,,,,,,,,,,,,,,,,,,,,,,,,,,,,,,,,,,,,,,,,,,,,,,,,,,,,,,14066,2022-11-08_10h23.42.245,vts_reward_expectancy_bt_OFFLINE,2022.2.4,59.94715633633594,
1,0,0,0,0,1,0,0,triangle,circle,0,0,0,0,1,1,13,0,,,,,,,,,,,,,,,,,,,,,,,,,,,,,,,,,,,,,,,,113.46203068600153,113.46203068600153,113.46203068600153,113.46203068600153,113.46203068600153,113.46203068600153,113.46203068600153,113.46203068600153,113.46203068600153,113.46203068600153,a,0.6074865680129733,10,50,0,114.09605972399004,115.59777324800962,,,,,,,,,,,,,,,,,,,,,,,,,,,,,,,,,,,,,,,,,,,,,,,,,,,,,,,,,,,,,,,,,,,,14066,2022-11-08_10h23.42.245,vts_reward_expectancy_bt_OFFLINE,2022.2.4,59.94715633633594,
0,1,0,0,0,0,1,0,circle,hexagon,0,0,0,0,1,2,14,4,,,,,,,,,,,,,,,,,,,,,,,,,,,,,,,,,,,,,,,,116.09823448499083,116.09823448499083,116.09823448499083,116.09823448499083,116.09823448499083,116.09823448499083,116.09823448499083,116.09823448499083,116.09823448499083,116.09823448499083,l,0.6392137299990281,10,60,0,116.76588951499434,118.2673388599942,,,,,,,,,,,,,,,,,,,,,,,,,,,,,,,,,,,,,,,,,,,,,,,,,,,,,,,,,,,,,,,,,,,,14066,2022-11-08_10h23.42.245,vts_reward_expectancy_bt_OFFLINE,2022.2.4,59.94715633633594,
0,0,0,1,1,0,0,0,star,triangle,0,0,0,0,1,3,15,9,,,,,,,,,,,,,,,,,,,,,,,,,,,,,,,,,,,,,,,,118.76805797099951,118.76805797099951,118.76805797099951,118.76805797099951,118.76805797099951,118.76805797099951,118.76805797099951,118.76805797099951,118.76805797099951,118.76805797099951,a,0.6680636070086621,10,70,0,119.46862990100635,120.97022763700807,,,,,,,,,,,,,,,,,,,,,,,,,,,,,,,,,,,,,,,,,,,,,,,,,,,,,,,,,,,,,,,,,,,,14066,2022-11-08_10h23.42.245,vts_reward_expectancy_bt_OFFLINE,2022.2.4,59.94715633633594,
0,1,0,0,0,0,0,1,circle,star,0,0,0,0,1,4,16,5,,,,,,,,,,,,,,,,,,,,,,,,,,,,,,,,,,,,,,,,121.47081043000799,121.47081043000799,121.47081043000799,121.47081043000799,121.47081043000799,121.47081043000799,121.47081043000799,121.47081043000799,121.47081043000799,121.47081043000799,l,0.7347901320026722,1,71,0,122.23832823999692,123.7399580499914,,,,,,,,,,,,,,,,,,,,,,,,,,,,,,,,,,,,,,,,,,,,,,,,,,,,,,,,,,,,,,,,,,,,14066,2022-11-08_10h23.42.245,vts_reward_expectancy_bt_OFFLINE,2022.2.4,59.94715633633594,
0,0,0,1,0,0,1,0,star,hexagon,0,0,0,0,1,5,17,11,,,,,,,,,,,,,,,,,,,,,,,,,,,,,,,,,,,,,,,,124.24057030398399,124.24057030398399,124.24057030398399,124.24057030398399,124.24057030398399,124.24057030398399,124.24057030398399,124.24057030398399,124.24057030398399,124.24057030398399,a,1.1695041340135504,1,72,0,125.44210579598439,126.94364897999913,,,,,,,,,,,,,,,,,,,,,,,,,,,,,,,,,,,,,,,,,,,,,,,,,,,,,,,,,,,,,,,,,,,,14066,2022-11-08_10h23.42.245,vts_reward_expectancy_bt_OFFLINE,2022.2.4,59.94715633633594,
0,1,0,0,1,0,0,0,circle,triangle,0,0,0,0,1,6,18,3,,,,,,,,,,,,,,,,,,,,,,,,,,,,,,,,,,,,,,,,127.4440711659845,127.4440711659845,127.4440711659845,127.4440711659845,127.4440711659845,127.4440711659845,127.4440711659845,127.4440711659845,127.4440711659845,127.4440711659845,l,0.6671828069956973,10,82,0,128.12831192600424,129.6298380669905,,,,,,,,,,,,,,,,,,,,,,,,,,,,,,,,,,,,,,,,,,,,,,,,,,,,,,,,,,,,,,,,,,,,14066,2022-11-08_10h23.42.245,vts_reward_expectancy_bt_OFFLINE,2022.2.4,59.94715633633594,
0,0,0,1,0,1,0,0,star ,circle,0,0,0,0,1,7,19,10,,,,,,,,,,,,,,,,,,,,,,,,,,,,,,,,,,,,,,,,130.13027965498623,130.13027965498623,130.13027965498623,130.13027965498623,130.13027965498623,130.13027965498623,130.13027965498623,130.13027965498623,130.13027965498623,130.13027965498623,a,0.5354058039956726,10,92,0,130.69782651399146,132.19937671898515,,,,,,,,,,,,,,,,,,,,,,,,,,,,,,,,,,,,,,,,,,,,,,,,,,,,,,,,,,,,,,,,,,,,14066,2022-11-08_10h23.42.245,vts_reward_expectancy_bt_OFFLINE,2022.2.4,59.94715633633594,
1,0,0,0,0,0,1,0,triangle,hexagon,0,0,0,0,1,8,20,1,,,,,,,,,,,,,,,,,,,,,,,,,,,,,,,,,,,,,,,,132.69980877099442,132.69980877099442,132.69980877099442,132.69980877099442,132.69980877099442,132.69980877099442,132.69980877099442,132.69980877099442,132.69980877099442,132.69980877099442,l,0.6422584510000888,1,93,0,133.36746110901004,134.86903702598647,,,,,,,,,,,,,,,,,,,,,,,,,,,,,,,,,,,,,,,,,,,,,,,,,,,,,,,,,,,,,,,,,,,,14066,2022-11-08_10h23.42.245,vts_reward_expectancy_bt_OFFLINE,2022.2.4,59.94715633633594,
1,0,0,0,0,0,0,1,triangle,star,0,0,0,0,1,9,21,2,,,,,,,,,,,,,,,,,,,,,,,,,,,,,,,,,,,,,,,,135.3695258559892,135.3695258559892,135.3695258559892,135.3695258559892,135.3695258559892,135.3695258559892,135.3695258559892,135.3695258559892,135.3695258559892,135.3695258559892,l,0.7185884089849424,10,103,0,136.12040299299406,137.62209829498897,,,,,,,,,,,,,,,,,,,,,,,,,,,,,,,,,,,,,,,,,,,,,,,,,,,,,,,,,,,,,,,,,,,,14066,2022-11-08_10h23.42.245,vts_reward_expectancy_bt_OFFLINE,2022.2.4,59.94715633633594,
0,0,1,0,1,0,0,0,hexagon,triangle,0,0,0,0,1,10,22,6,,,,,,,,,,,,,,,,,,,,,,,,,,,,,,,,,,,,,,,,138.1225982340111,138.1225982340111,138.1225982340111,138.1225982340111,138.1225982340111,138.1225982340111,138.1225982340111,138.1225982340111,138.1225982340111,138.1225982340111,a,0.620236841001315,1,104,0,138.77342616798705,140.2749823470076,,,,,,,,,,,,,,,,,,,,,,,,,,,,,,,,,,,,,,,,,,,,,,,,,,,,,,,,,,,,,,,,,,,,14066,2022-11-08_10h23.42.245,vts_reward_expectancy_bt_OFFLINE,2022.2.4,59.94715633633594,
0,0,1,0,0,0,0,1,hexagon,star,0,0,0,0,1,11,23,8,,,,,,,,,,,,,,,,,,,,,,,,,,,,,,,,,,,,,,,,140.77556350300438,140.77556350300438,140.77556350300438,140.77556350300438,140.77556350300438,140.77556350300438,140.77556350300438,140.77556350300438,140.77556350300438,140.77556350300438,l,0.6101810710097197,1,105,0,141.40964249899844,142.911207541998,,,,,,,,,,,,,,,,,,,,,,,,,,,,,,,,,,,,,,,,,,,,,,,,,,,,,,,,,,,,,,,,,,,,14066,2022-11-08_10h23.42.245,vts_reward_expectancy_bt_OFFLINE,2022.2.4,59.94715633633594,
0,0,0,1,0,1,0,0,star ,circle,0,0,0,0,2,0,24,10,,,,,,,,,,,,,,,,,,,,,,,,,,,,,,,,,,,,,,,,143.41167671300354,143.41167671300354,143.41167671300354,143.41167671300354,143.41167671300354,143.41167671300354,143.41167671300354,143.41167671300354,143.41167671300354,143.41167671300354,a,0.9786557460029144,1,106,0,144.4128122050024,145.91467228299007,,,,,,,,,,,,,,,,,,,,,,,,,,,,,,,,,,,,,,,,,,,,,,,,,,,,,,,,,,,,,,,,,,,,14066,2022-11-08_10h23.42.245,vts_reward_expectancy_bt_OFFLINE,2022.2.4,59.94715633633594,
0,1,0,0,0,0,0,1,circle,star,0,0,0,0,2,1,25,5,,,,,,,,,,,,,,,,,,,,,,,,,,,,,,,,,,,,,,,,146.41510261100484,146.41510261100484,146.41510261100484,146.41510261100484,146.41510261100484,146.41510261100484,146.41510261100484,146.41510261100484,146.41510261100484,146.41510261100484,l,0.6184924290282652,1,107,0,147.06577239499893,148.5674359500117,,,,,,,,,,,,,,,,,,,,,,,,,,,,,,,,,,,,,,,,,,,,,,,,,,,,,,,,,,,,,,,,,,,,14066,2022-11-08_10h23.42.245,vts_reward_expectancy_bt_OFFLINE,2022.2.4,59.94715633633594,
0,0,0,1,1,0,0,0,star,triangle,0,0,0,0,2,2,26,9,,,,,,,,,,,,,,,,,,,,,,,,,,,,,,,,,,,,,,,,149.06802543599042,149.06802543599042,149.06802543599042,149.06802543599042,149.06802543599042,149.06802543599042,149.06802543599042,149.06802543599042,149.06802543599042,149.06802543599042,a,0.8113018020230811,1,108,0,149.9023979449994,151.40381149199675,,,,,,,,,,,,,,,,,,,,,,,,,,,,,,,,,,,,,,,,,,,,,,,,,,,,,,,,,,,,,,,,,,,,14066,2022-11-08_10h23.42.245,vts_reward_expectancy_bt_OFFLINE,2022.2.4,59.94715633633594,
0,1,0,0,0,0,1,0,circle,hexagon,0,0,0,0,2,3,27,4,,,,,,,,,,,,,,,,,,,,,,,,,,,,,,,,,,,,,,,,151.90438311599428,151.90438311599428,151.90438311599428,151.90438311599428,151.90438311599428,151.90438311599428,151.90438311599428,151.90438311599428,151.90438311599428,151.90438311599428,l,0.5294860130234156,1,109,0,152.45508991798852,153.95675368400407,,,,,,,,,,,,,,,,,,,,,,,,,,,,,,,,,,,,,,,,,,,,,,,,,,,,,,,,,,,,,,,,,,,,14066,2022-11-08_10h23.42.245,vts_reward_expectancy_bt_OFFLINE,2022.2.4,59.94715633633594,
0,0,1,0,1,0,0,0,hexagon,triangle,0,0,0,0,2,4,28,6,,,,,,,,,,,,,,,,,,,,,,,,,,,,,,,,,,,,,,,,154.45754433600814,154.45754433600814,154.45754433600814,154.45754433600814,154.45754433600814,154.45754433600814,154.45754433600814,154.45754433600814,154.45754433600814,154.45754433600814,a,0.6427858009992633,10,119,0,155.12480598301045,156.62636881900835,,,,,,,,,,,,,,,,,,,,,,,,,,,,,,,,,,,,,,,,,,,,,,,,,,,,,,,,,,,,,,,,,,,,14066,2022-11-08_10h23.42.245,vts_reward_expectancy_bt_OFFLINE,2022.2.4,59.94715633633594,
1,0,0,0,0,0,1,0,triangle,hexagon,0,0,0,0,2,5,29,1,,,,,,,,,,,,,,,,,,,,,,,,,,,,,,,,,,,,,,,,157.12684658699436,157.12684658699436,157.12684658699436,157.12684658699436,157.12684658699436,157.12684658699436,157.12684658699436,157.12684658699436,157.12684658699436,157.12684658699436,l,0.6179140480235219,1,120,0,157.77759585500462,159.27922974998364,,,,,,,,,,,,,,,,,,,,,,,,,,,,,,,,,,,,,,,,,,,,,,,,,,,,,,,,,,,,,,,,,,,,14066,2022-11-08_10h23.42.245,vts_reward_expectancy_bt_OFFLINE,2022.2.4,59.94715633633594,
0,1,0,0,1,0,0,0,circle,triangle,0,0,0,0,2,6,30,3,,,,,,,,,,,,,,,,,,,,,,,,,,,,,,,,,,,,,,,,159.77980677699088,159.77980677699088,159.77980677699088,159.77980677699088,159.77980677699088,159.77980677699088,159.77980677699088,159.77980677699088,159.77980677699088,159.77980677699088,l,0.8103009460028261,10,130,0,160.61400890300865,162.11567894098698,,,,,,,,,,,,,,,,,,,,,,,,,,,,,,,,,,,,,,,,,,,,,,,,,,,,,,,,,,,,,,,,,,,,14066,2022-11-08_10h23.42.245,vts_reward_expectancy_bt_OFFLINE,2022.2.4,59.94715633633594,
0,0,0,1,0,0,1,0,star,hexagon,0,0,0,0,2,7,31,11,,,,,,,,,,,,,,,,,,,,,,,,,,,,,,,,,,,,,,,,162.61621025798377,162.61621025798377,162.61621025798377,162.61621025798377,162.61621025798377,162.61621025798377,162.61621025798377,162.61621025798377,162.61621025798377,162.61621025798377,a,0.664004099991871,10,140,0,163.29961228001048,164.8021098540048,,,,,,,,,,,,,,,,,,,,,,,,,,,,,,,,,,,,,,,,,,,,,,,,,,,,,,,,,,,,,,,,,,,,14066,2022-11-08_10h23.42.245,vts_reward_expectancy_bt_OFFLINE,2022.2.4,59.94715633633594,
0,0,1,0,0,1,0,0,hexagon,circle,0,0,0,0,2,8,32,7,,,,,,,,,,,,,,,,,,,,,,,,,,,,,,,,,,,,,,,,165.30265506598516,165.30265506598516,165.30265506598516,165.30265506598516,165.30265506598516,165.30265506598516,165.30265506598516,165.30265506598516,165.30265506598516,165.30265506598516,a,0.801152901025489,1,141,0,166.13688239600742,167.63849178800592,,,,,,,,,,,,,,,,,,,,,,,,,,,,,,,,,,,,,,,,,,,,,,,,,,,,,,,,,,,,,,,,,,,,14066,2022-11-08_10h23.42.245,vts_reward_expectancy_bt_OFFLINE,2022.2.4,59.94715633633594,
1,0,0,0,0,1,0,0,triangle,circle,0,0,0,0,2,9,33,0,,,,,,,,,,,,,,,,,,,,,,,,,,,,,,,,,,,,,,,,168.1391187029949,168.1391187029949,168.1391187029949,168.1391187029949,168.1391187029949,168.1391187029949,168.1391187029949,168.1391187029949,168.1391187029949,168.1391187029949,a,0.7542467729945201,10,151,0,168.92318346200045,170.42495086599956,,,,,,,,,,,,,,,,,,,,,,,,,,,,,,,,,,,,,,,,,,,,,,,,,,,,,,,,,,,,,,,,,,,,14066,2022-11-08_10h23.42.245,vts_reward_expectancy_bt_OFFLINE,2022.2.4,59.94715633633594,
0,0,1,0,0,0,0,1,hexagon,star,0,0,0,0,2,10,34,8,,,,,,,,,,,,,,,,,,,,,,,,,,,,,,,,,,,,,,,,170.92541022298974,170.92541022298974,170.92541022298974,170.92541022298974,170.92541022298974,170.92541022298974,170.92541022298974,170.92541022298974,170.92541022298974,170.92541022298974,l,0.6121817980019841,10,161,0,171.55953471100656,173.06120597099653,,,,,,,,,,,,,,,,,,,,,,,,,,,,,,,,,,,,,,,,,,,,,,,,,,,,,,,,,,,,,,,,,,,,14066,2022-11-08_10h23.42.245,vts_reward_expectancy_bt_OFFLINE,2022.2.4,59.94715633633594,
1,0,0,0,0,0,0,1,triangle,star,0,0,0,0,2,11,35,2,,,,,,,,,,,,,,,,,,,,,,,,,,,,,,,,,,,,,,,,173.56186305900337,173.56186305900337,173.56186305900337,173.56186305900337,173.56186305900337,173.56186305900337,173.56186305900337,173.56186305900337,173.56186305900337,173.56186305900337,l,0.5737799190101214,1,162,0,174.16252127700136,175.6639372690115,,,,,,,,,,,,,,,,,,,,,,,,,,,,,,,,,,,,,,,,,,,,,,,,,,,,,,,,,,,,,,,,,,,,14066,2022-11-08_10h23.42.245,vts_reward_expectancy_bt_OFFLINE,2022.2.4,59.94715633633594,
1,0,0,0,0,0,1,0,triangle,hexagon,0,0,0,0,3,0,36,1,,,,,,,,,,,,,,,,,,,,,,,,,,,,,,,,,,,,,,,,176.1646637179947,176.1646637179947,176.1646637179947,176.1646637179947,176.1646637179947,176.1646637179947,176.1646637179947,176.1646637179947,176.1646637179947,176.1646637179947,l,0.8741953159915283,1,163,0,177.06577108398778,178.5671966439986,,,,,,,,,,,,,,,,,,,,,,,,,,,,,,,,,,,,,,,,,,,,,,,,,,,,,,,,,,,,,,,,,,,,14066,2022-11-08_10h23.42.245,vts_reward_expectancy_bt_OFFLINE,2022.2.4,59.94715633633594,
0,1,0,0,1,0,0,0,circle,triangle,0,0,0,0,3,1,37,3,,,,,,,,,,,,,,,,,,,,,,,,,,,,,,,,,,,,,,,,179.06789677598863,179.06789677598863,179.06789677598863,179.06789677598863,179.06789677598863,179.06789677598863,179.06789677598863,179.06789677598863,179.06789677598863,179.06789677598863,l,0.5127058240177575,1,164,0,179.60174876300152,181.10328974100412,,,,,,,,,,,,,,,,,,,,,,,,,,,,,,,,,,,,,,,,,,,,,,,,,,,,,,,,,,,,,,,,,,,,14066,2022-11-08_10h23.42.245,vts_reward_expectancy_bt_OFFLINE,2022.2.4,59.94715633633594,
1,0,0,0,0,1,0,0,triangle,circle,0,0,0,0,3,2,38,0,,,,,,,,,,,,,,,,,,,,,,,,,,,,,,,,,,,,,,,,181.60396141398815,181.60396141398815,181.60396141398815,181.60396141398815,181.60396141398815,181.60396141398815,181.60396141398815,181.60396141398815,181.60396141398815,181.60396141398815,a,0.6096204030036461,10,174,0,182.23799533498823,183.73951435901108,,,,,,,,,,,,,,,,,,,,,,,,,,,,,,,,,,,,,,,,,,,,,,,,,,,,,,,,,,,,,,,,,,,,14066,2022-11-08_10h23.42.245,vts_reward_expectancy_bt_OFFLINE,2022.2.4,59.94715633633594,
0,0,0,1,0,1,0,0,star ,circle,0,0,0,0,3,3,39,10,,,,,,,,,,,,,,,,,,,,,,,,,,,,,,,,,,,,,,,,184.24018957500812,184.24018957500812,184.24018957500812,184.24018957500812,184.24018957500812,184.24018957500812,184.24018957500812,184.24018957500812,184.24018957500812,184.24018957500812,a,0.6291778120212257,10,184,0,184.89085365401115,186.39252153100097,,,,,,,,,,,,,,,,,,,,,,,,,,,,,,,,,,,,,,,,,,,,,,,,,,,,,,,,,,,,,,,,,,,,14066,2022-11-08_10h23.42.245,vts_reward_expectancy_bt_OFFLINE,2022.2.4,59.94715633633594,
1,0,0,0,0,0,0,1,triangle,star,0,0,0,0,3,4,40,2,,,,,,,,,,,,,,,,,,,,,,,,,,,,,,,,,,,,,,,,186.8931349469931,186.8931349469931,186.8931349469931,186.8931349469931,186.8931349469931,186.8931349469931,186.8931349469931,186.8931349469931,186.8931349469931,186.8931349469931,l,0.5852072809939273,10,194,0,187.5104115110007,189.01206813400495,,,,,,,,,,,,,,,,,,,,,,,,,,,,,,,,,,,,,,,,,,,,,,,,,,,,,,,,,,,,,,,,,,,,14066,2022-11-08_10h23.42.245,vts_reward_expectancy_bt_OFFLINE,2022.2.4,59.94715633633594,
0,0,0,1,0,0,1,0,star,hexagon,0,0,0,0,3,5,41,11,,,,,,,,,,,,,,,,,,,,,,,,,,,,,,,,,,,,,,,,189.51258891500765,189.51258891500765,189.51258891500765,189.51258891500765,189.51258891500765,189.51258891500765,189.51258891500765,189.51258891500765,189.51258891500765,189.51258891500765,a,0.8131359060353134,1,195,0,190.34687754898914,191.84853470200323,,,,,,,,,,,,,,,,,,,,,,,,,,,,,,,,,,,,,,,,,,,,,,,,,,,,,,,,,,,,,,,,,,,,14066,2022-11-08_10h23.42.245,vts_reward_expectancy_bt_OFFLINE,2022.2.4,59.94715633633594,
0,1,0,0,0,0,1,0,circle,hexagon,0,0,0,0,3,6,42,4,,,,,,,,,,,,,,,,,,,,,,,,,,,,,,,,,,,,,,,,192.34924298000988,192.34924298000988,192.34924298000988,192.34924298000988,192.34924298000988,192.34924298000988,192.34924298000988,192.34924298000988,192.34924298000988,192.34924298000988,l,0.5304475970333442,10,205,0,192.89965262799524,194.40139753901167,,,,,,,,,,,,,,,,,,,,,,,,,,,,,,,,,,,,,,,,,,,,,,,,,,,,,,,,,,,,,,,,,,,,14066,2022-11-08_10h23.42.245,vts_reward_expectancy_bt_OFFLINE,2022.2.4,59.94715633633594,
0,0,1,0,0,1,0,0,hexagon,circle,0,0,0,0,3,7,43,7,,,,,,,,,,,,,,,,,,,,,,,,,,,,,,,,,,,,,,,,194.90189705998637,194.90189705998637,194.90189705998637,194.90189705998637,194.90189705998637,194.90189705998637,194.90189705998637,194.90189705998637,194.90189705998637,194.90189705998637,a,0.8239495960297063,1,206,0,195.75280517101055,197.25462824699935,,,,,,,,,,,,,,,,,,,,,,,,,,,,,,,,,,,,,,,,,,,,,,,,,,,,,,,,,,,,,,,,,,,,14066,2022-11-08_10h23.42.245,vts_reward_expectancy_bt_OFFLINE,2022.2.4,59.94715633633594,
0,0,0,1,1,0,0,0,star,triangle,0,0,0,0,3,8,44,9,,,,,,,,,,,,,,,,,,,,,,,,,,,,,,,,,,,,,,,,197.75517386800493,197.75517386800493,197.75517386800493,197.75517386800493,197.75517386800493,197.75517386800493,197.75517386800493,197.75517386800493,197.75517386800493,197.75517386800493,a,0.9854657590331044,1,207,0,198.77271224500146,200.2743907609838,,,,,,,,,,,,,,,,,,,,,,,,,,,,,,,,,,,,,,,,,,,,,,,,,,,,,,,,,,,,,,,,,,,,14066,2022-11-08_10h23.42.245,vts_reward_expectancy_bt_OFFLINE,2022.2.4,59.94715633633594,
0,1,0,0,0,0,0,1,circle,star,0,0,0,0,3,9,45,5,,,,,,,,,,,,,,,,,,,,,,,,,,,,,,,,,,,,,,,,200.7749922699877,200.7749922699877,200.7749922699877,200.7749922699877,200.7749922699877,200.7749922699877,200.7749922699877,200.7749922699877,200.7749922699877,200.7749922699877,a,0.7445864680048544,10,217,0,201.54255401200498,203.04416846198728,,,,,,,,,,,,,,,,,,,,,,,,,,,,,,,,,,,,,,,,,,,,,,,,,,,,,,,,,,,,,,,,,,,,14066,2022-11-08_10h23.42.245,vts_reward_expectancy_bt_OFFLINE,2022.2.4,59.94715633633594,
0,0,1,0,0,0,0,1,hexagon,star,0,0,0,0,3,10,46,8,,,,,,,,,,,,,,,,,,,,,,,,,,,,,,,,,,,,,,,,203.54482956699212,203.54482956699212,203.54482956699212,203.54482956699212,203.54482956699212,203.54482956699212,203.54482956699212,203.54482956699212,203.54482956699212,203.54482956699212,a,1.3507812049938366,10,227,0,204.91284758000984,206.4146132739843,,,,,,,,,,,,,,,,,,,,,,,,,,,,,,,,,,,,,,,,,,,,,,,,,,,,,,,,,,,,,,,,,,,,14066,2022-11-08_10h23.42.245,vts_reward_expectancy_bt_OFFLINE,2022.2.4,59.94715633633594,
0,0,1,0,1,0,0,0,hexagon,triangle,0,0,0,0,3,11,47,6,,,,,,,,,,,,,,,,,,,,,,,,,,,,,,,,,,,,,,,,206.9152030319965,206.9152030319965,206.9152030319965,206.9152030319965,206.9152030319965,206.9152030319965,206.9152030319965,206.9152030319965,206.9152030319965,206.9152030319965,a,1.6124493890092708,1,228,0,208.550271849992,210.052064471005,,,,,,,,,,,,,,,,,,,,,,,,,,,,,,,,,,,,,,,,,,,,,,,,,,,,,,,,,,,,,,,,,,,,14066,2022-11-08_10h23.42.245,vts_reward_expectancy_bt_OFFLINE,2022.2.4,59.94715633633594,
1,0,0,0,0,0,1,0,triangle,hexagon,1,0,1,0,0,0,0,1,,,,,,,,,,,,,,,,,,,,,,,,,,,,,,,,,,,,,,,,219.06840690600802,219.06840690600802,219.06840690600802,219.06840690600802,219.06840690600802,219.06840690600802,219.06840690600802,219.06840690600802,219.06840690600802,219.06840690600802,l,1.1370578670175746,10,238,1,220.2297953320085,221.7315724049986,,,,,,,,,,,,,,,,,,,,,,,,,,,,,,,,,,,,,,,,,,,,,,,,,,,,,,,,,,,,,,,,,,,,14066,2022-11-08_10h23.42.245,vts_reward_expectancy_bt_OFFLINE,2022.2.4,59.94715633633594,
0,0,1,0,1,0,0,0,hexagon,triangle,1,0,1,0,0,1,1,6,,,,,,,,,,,,,,,,,,,,,,,,,,,,,,,,,,,,,,,,222.23216114699608,222.23216114699608,222.23216114699608,222.23216114699608,222.23216114699608,222.23216114699608,222.23216114699608,222.23216114699608,222.23216114699608,222.23216114699608,a,0.6961418180144392,10,248,1,222.9494799739914,224.45115290698595,,,,,,,,,,,,,,,,,,,,,,,,,,,,,,,,,,,,,,,,,,,,,,,,,,,,,,,,,,,,,,,,,,,,14066,2022-11-08_10h23.42.245,vts_reward_expectancy_bt_OFFLINE,2022.2.4,59.94715633633594,
0,0,0,1,0,1,0,0,star ,circle,1,0,1,0,0,2,2,10,,,,,,,,,,,,,,,,,,,,,,,,,,,,,,,,,,,,,,,,224.9515113630041,224.9515113630041,224.9515113630041,224.9515113630041,224.9515113630041,224.9515113630041,224.9515113630041,224.9515113630041,224.9515113630041,224.9515113630041,l,0.7118487040279433,1,249,1,225.68586009199498,227.1875473179971,,,,,,,,,,,,,,,,,,,,,,,,,,,,,,,,,,,,,,,,,,,,,,,,,,,,,,,,,,,,,,,,,,,,14066,2022-11-08_10h23.42.245,vts_reward_expectancy_bt_OFFLINE,2022.2.4,59.94715633633594,
0,0,0,1,1,0,0,0,star,triangle,1,0,1,0,0,3,3,9,,,,,,,,,,,,,,,,,,,,,,,,,,,,,,,,,,,,,,,,227.6880840320082,227.6880840320082,227.6880840320082,227.6880840320082,227.6880840320082,227.6880840320082,227.6880840320082,227.6880840320082,227.6880840320082,227.6880840320082,a,0.8437210450065322,10,259,1,228.55569388199365,230.05732153900317,,,,,,,,,,,,,,,,,,,,,,,,,,,,,,,,,,,,,,,,,,,,,,,,,,,,,,,,,,,,,,,,,,,,14066,2022-11-08_10h23.42.245,vts_reward_expectancy_bt_OFFLINE,2022.2.4,59.94715633633594,
0,1,0,0,1,0,0,0,circle,triangle,1,0,1,0,0,4,4,3,,,,,,,,,,,,,,,,,,,,,,,,,,,,,,,,,,,,,,,,230.55792336398736,230.55792336398736,230.55792336398736,230.55792336398736,230.55792336398736,230.55792336398736,230.55792336398736,230.55792336398736,230.55792336398736,230.55792336398736,a,0.875448729027994,10,269,1,231.45891780100646,232.9606621020066,,,,,,,,,,,,,,,,,,,,,,,,,,,,,,,,,,,,,,,,,,,,,,,,,,,,,,,,,,,,,,,,,,,,14066,2022-11-08_10h23.42.245,vts_reward_expectancy_bt_OFFLINE,2022.2.4,59.94715633633594,
0,1,0,0,0,0,1,0,circle,hexagon,1,0,1,0,0,5,5,4,,,,,,,,,,,,,,,,,,,,,,,,,,,,,,,,,,,,,,,,233.46116253800574,233.46116253800574,233.46116253800574,233.46116253800574,233.46116253800574,233.46116253800574,233.46116253800574,233.46116253800574,233.46116253800574,233.46116253800574,a,1.3589030739967711,1,270,1,234.84593105199747,236.3475256919919,,,,,,,,,,,,,,,,,,,,,,,,,,,,,,,,,,,,,,,,,,,,,,,,,,,,,,,,,,,,,,,,,,,,14066,2022-11-08_10h23.42.245,vts_reward_expectancy_bt_OFFLINE,2022.2.4,59.94715633633594,
1,0,0,0,0,0,0,1,triangle,star,1,0,1,0,0,6,6,2,,,,,,,,,,,,,,,,,,,,,,,,,,,,,,,,,,,,,,,,236.84802311001113,236.84802311001113,236.84802311001113,236.84802311001113,236.84802311001113,236.84802311001113,236.84802311001113,236.84802311001113,236.84802311001113,236.84802311001113,l,0.8743056640087161,1,271,1,237.74911107099615,239.25073582699406,,,,,,,,,,,,,,,,,,,,,,,,,,,,,,,,,,,,,,,,,,,,,,,,,,,,,,,,,,,,,,,,,,,,14066,2022-11-08_10h23.42.245,vts_reward_expectancy_bt_OFFLINE,2022.2.4,59.94715633633594,
0,0,0,1,0,0,1,0,star,hexagon,1,0,1,0,0,7,7,11,,,,,,,,,,,,,,,,,,,,,,,,,,,,,,,,,,,,,,,,239.7514165219909,239.7514165219909,239.7514165219909,239.7514165219909,239.7514165219909,239.7514165219909,239.7514165219909,239.7514165219909,239.7514165219909,239.7514165219909,l,0.9517489539866801,1,272,1,240.7358947090106,242.23737735900795,,,,,,,,,,,,,,,,,,,,,,,,,,,,,,,,,,,,,,,,,,,,,,,,,,,,,,,,,,,,,,,,,,,,14066,2022-11-08_10h23.42.245,vts_reward_expectancy_bt_OFFLINE,2022.2.4,59.94715633633594,
1,0,0,0,0,1,0,0,triangle,circle,1,0,1,0,0,8,8,0,,,,,,,,,,,,,,,,,,,,,,,,,,,,,,,,,,,,,,,,242.73785441898508,242.73785441898508,242.73785441898508,242.73785441898508,242.73785441898508,242.73785441898508,242.73785441898508,242.73785441898508,242.73785441898508,242.73785441898508,a,0.5878014240006451,10,282,1,243.35517075299867,244.8569851559878,,,,,,,,,,,,,,,,,,,,,,,,,,,,,,,,,,,,,,,,,,,,,,,,,,,,,,,,,,,,,,,,,,,,14066,2022-11-08_10h23.42.245,vts_reward_expectancy_bt_OFFLINE,2022.2.4,59.94715633633594,
0,0,1,0,0,0,0,1,hexagon,star,1,0,1,0,0,9,9,8,,,,,,,,,,,,,,,,,,,,,,,,,,,,,,,,,,,,,,,,245.3574919689854,245.3574919689854,245.3574919689854,245.3574919689854,245.3574919689854,245.3574919689854,245.3574919689854,245.3574919689854,245.3574919689854,245.3574919689854,l,2.5815611840225756,1,283,1,247.96032504999312,249.46218287400552,,,,,,,,,,,,,,,,,,,,,,,,,,,,,,,,,,,,,,,,,,,,,,,,,,,,,,,,,,,,,,,,,,,,14066,2022-11-08_10h23.42.245,vts_reward_expectancy_bt_OFFLINE,2022.2.4,59.94715633633594,
0,1,0,0,0,0,0,1,circle,star,1,0,1,0,0,10,10,5,,,,,,,,,,,,,,,,,,,,,,,,,,,,,,,,,,,,,,,,249.96260436298326,249.96260436298326,249.96260436298326,249.96260436298326,249.96260436298326,249.96260436298326,249.96260436298326,249.96260436298326,249.96260436298326,249.96260436298326,a,0.8102178910048679,10,293,1,250.79681915900437,252.29857241301215,,,,,,,,,,,,,,,,,,,,,,,,,,,,,,,,,,,,,,,,,,,,,,,,,,,,,,,,,,,,,,,,,,,,14066,2022-11-08_10h23.42.245,vts_reward_expectancy_bt_OFFLINE,2022.2.4,59.94715633633594,
0,0,1,0,0,1,0,0,hexagon,circle,1,0,1,0,0,11,11,7,,,,,,,,,,,,,,,,,,,,,,,,,,,,,,,,,,,,,,,,252.79911189799896,252.79911189799896,252.79911189799896,252.79911189799896,252.79911189799896,252.79911189799896,252.79911189799896,252.79911189799896,252.79911189799896,252.79911189799896,a,0.7984168480033986,10,303,1,253.61671591899358,255.11836116100312,,,,,,,,,,,,,,,,,,,,,,,,,,,,,,,,,,,,,,,,,,,,,,,,,,,,,,,,,,,,,,,,,,,,14066,2022-11-08_10h23.42.245,vts_reward_expectancy_bt_OFFLINE,2022.2.4,59.94715633633594,
0,1,0,0,0,0,1,0,circle,hexagon,1,0,1,0,1,0,12,4,,,,,,,,,,,,,,,,,,,,,,,,,,,,,,,,,,,,,,,,255.61902174100396,255.61902174100396,255.61902174100396,255.61902174100396,255.61902174100396,255.61902174100396,255.61902174100396,255.61902174100396,255.61902174100396,255.61902174100396,a,1.2980689069954678,1,304,1,256.937093474,258.4386547699978,,,,,,,,,,,,,,,,,,,,,,,,,,,,,,,,,,,,,,,,,,,,,,,,,,,,,,,,,,,,,,,,,,,,14066,2022-11-08_10h23.42.245,vts_reward_expectancy_bt_OFFLINE,2022.2.4,59.94715633633594,
1,0,0,0,0,0,0,1,triangle,star,1,0,1,0,1,1,13,2,,,,,,,,,,,,,,,,,,,,,,,,,,,,,,,,,,,,,,,,258.9391920469934,258.9391920469934,258.9391920469934,258.9391920469934,258.9391920469934,258.9391920469934,258.9391920469934,258.9391920469934,258.9391920469934,258.9391920469934,a,2.185816518001957,1,305,1,261.14169895800296,262.64333930099383,,,,,,,,,,,,,,,,,,,,,,,,,,,,,,,,,,,,,,,,,,,,,,,,,,,,,,,,,,,,,,,,,,,,14066,2022-11-08_10h23.42.245,vts_reward_expectancy_bt_OFFLINE,2022.2.4,59.94715633633594,
0,0,1,0,1,0,0,0,hexagon,triangle,1,0,1,0,1,2,14,6,,,,,,,,,,,,,,,,,,,,,,,,,,,,,,,,,,,,,,,,263.1438334969862,263.1438334969862,263.1438334969862,263.1438334969862,263.1438334969862,263.1438334969862,263.1438334969862,263.1438334969862,263.1438334969862,263.1438334969862,l,0.7810861140023917,1,306,1,263.9449210879975,265.4464600170031,,,,,,,,,,,,,,,,,,,,,,,,,,,,,,,,,,,,,,,,,,,,,,,,,,,,,,,,,,,,,,,,,,,,14066,2022-11-08_10h23.42.245,vts_reward_expectancy_bt_OFFLINE,2022.2.4,59.94715633633594,
0,0,1,0,0,0,0,1,hexagon,star,1,0,1,0,1,3,15,8,,,,,,,,,,,,,,,,,,,,,,,,,,,,,,,,,,,,,,,,265.9468689489877,265.9468689489877,265.9468689489877,265.9468689489877,265.9468689489877,265.9468689489877,265.9468689489877,265.9468689489877,265.9468689489877,265.9468689489877,a,0.5671122740022838,1,307,1,266.5309226500103,268.0326435700117,,,,,,,,,,,,,,,,,,,,,,,,,,,,,,,,,,,,,,,,,,,,,,,,,,,,,,,,,,,,,,,,,,,,14066,2022-11-08_10h23.42.245,vts_reward_expectancy_bt_OFFLINE,2022.2.4,59.94715633633594,
0,0,0,1,0,1,0,0,star ,circle,1,0,1,0,1,4,16,10,,,,,,,,,,,,,,,,,,,,,,,,,,,,,,,,,,,,,,,,268.53322492798907,268.53322492798907,268.53322492798907,268.53322492798907,268.53322492798907,268.53322492798907,268.53322492798907,268.53322492798907,268.53322492798907,268.53322492798907,l,0.6114400810038205,10,317,1,269.16743873400264,270.6688336080115,,,,,,,,,,,,,,,,,,,,,,,,,,,,,,,,,,,,,,,,,,,,,,,,,,,,,,,,,,,,,,,,,,,,14066,2022-11-08_10h23.42.245,vts_reward_expectancy_bt_OFFLINE,2022.2.4,59.94715633633594,
1,0,0,0,0,1,0,0,triangle,circle,1,0,1,0,1,5,17,0,,,,,,,,,,,,,,,,,,,,,,,,,,,,,,,,,,,,,,,,271.169261840987,271.169261840987,271.169261840987,271.169261840987,271.169261840987,271.169261840987,271.169261840987,271.169261840987,271.169261840987,271.169261840987,l,0.709470093017444,1,318,1,271.9034468669852,273.4050392200006,,,,,,,,,,,,,,,,,,,,,,,,,,,,,,,,,,,,,,,,,,,,,,,,,,,,,,,,,,,,,,,,,,,,14066,2022-11-08_10h23.42.245,vts_reward_expectancy_bt_OFFLINE,2022.2.4,59.94715633633594,
0,0,0,1,0,0,1,0,star,hexagon,1,0,1,0,1,6,18,11,,,,,,,,,,,,,,,,,,,,,,,,,,,,,,,,,,,,,,,,273.9056409279874,273.9056409279874,273.9056409279874,273.9056409279874,273.9056409279874,273.9056409279874,273.9056409279874,273.9056409279874,273.9056409279874,273.9056409279874,l,0.6288127770239953,10,328,1,274.5565614599909,276.05797130899737,,,,,,,,,,,,,,,,,,,,,,,,,,,,,,,,,,,,,,,,,,,,,,,,,,,,,,,,,,,,,,,,,,,,14066,2022-11-08_10h23.42.245,vts_reward_expectancy_bt_OFFLINE,2022.2.4,59.94715633633594,
0,0,0,1,1,0,0,0,star,triangle,1,0,1,0,1,7,19,9,,,,,,,,,,,,,,,,,,,,,,,,,,,,,,,,,,,,,,,,276.55859940100345,276.55859940100345,276.55859940100345,276.55859940100345,276.55859940100345,276.55859940100345,276.55859940100345,276.55859940100345,276.55859940100345,276.55859940100345,l,0.7764771170332097,10,338,1,277.3595046160044,278.86105776400655,,,,,,,,,,,,,,,,,,,,,,,,,,,,,,,,,,,,,,,,,,,,,,,,,,,,,,,,,,,,,,,,,,,,14066,2022-11-08_10h23.42.245,vts_reward_expectancy_bt_OFFLINE,2022.2.4,59.94715633633594,
0,1,0,0,0,0,0,1,circle,star,1,0,1,0,1,8,20,5,,,,,,,,,,,,,,,,,,,,,,,,,,,,,,,,,,,,,,,,279.3617672410037,279.3617672410037,279.3617672410037,279.3617672410037,279.3617672410037,279.3617672410037,279.3617672410037,279.3617672410037,279.3617672410037,279.3617672410037,a,0.5615566220076289,1,339,1,279.9458480979956,281.44730501799495,,,,,,,,,,,,,,,,,,,,,,,,,,,,,,,,,,,,,,,,,,,,,,,,,,,,,,,,,,,,,,,,,,,,14066,2022-11-08_10h23.42.245,vts_reward_expectancy_bt_OFFLINE,2022.2.4,59.94715633633594,
0,1,0,0,1,0,0,0,circle,triangle,1,0,1,0,1,9,21,3,,,,,,,,,,,,,,,,,,,,,,,,,,,,,,,,,,,,,,,,281.9478538770054,281.9478538770054,281.9478538770054,281.9478538770054,281.9478538770054,281.9478538770054,281.9478538770054,281.9478538770054,281.9478538770054,281.9478538770054,l,0.8437470479984768,10,349,1,282.81545274998643,284.31716943200445,,,,,,,,,,,,,,,,,,,,,,,,,,,,,,,,,,,,,,,,,,,,,,,,,,,,,,,,,,,,,,,,,,,,14066,2022-11-08_10h23.42.245,vts_reward_expectancy_bt_OFFLINE,2022.2.4,59.94715633633594,
1,0,0,0,0,0,1,0,triangle,hexagon,1,0,1,0,1,10,22,1,,,,,,,,,,,,,,,,,,,,,,,,,,,,,,,,,,,,,,,,284.817838885996,284.817838885996,284.817838885996,284.817838885996,284.817838885996,284.817838885996,284.817838885996,284.817838885996,284.817838885996,284.817838885996,l,0.6738590599852614,1,350,1,285.5184616309998,287.02006025999435,,,,,,,,,,,,,,,,,,,,,,,,,,,,,,,,,,,,,,,,,,,,,,,,,,,,,,,,,,,,,,,,,,,,14066,2022-11-08_10h23.42.245,vts_reward_expectancy_bt_OFFLINE,2022.2.4,59.94715633633594,
0,0,1,0,0,1,0,0,hexagon,circle,1,0,1,0,1,11,23,7,,,,,,,,,,,,,,,,,,,,,,,,,,,,,,,,,,,,,,,,287.5207265089848,287.5207265089848,287.5207265089848,287.5207265089848,287.5207265089848,287.5207265089848,287.5207265089848,287.5207265089848,287.5207265089848,287.5207265089848,l,0.7263479749963153,1,351,1,288.27125690699904,289.77310800898704,,,,,,,,,,,,,,,,,,,,,,,,,,,,,,,,,,,,,,,,,,,,,,,,,,,,,,,,,,,,,,,,,,,,14066,2022-11-08_10h23.42.245,vts_reward_expectancy_bt_OFFLINE,2022.2.4,59.94715633633594,
0,0,0,1,1,0,0,0,star,triangle,1,0,1,0,2,0,24,9,,,,,,,,,,,,,,,,,,,,,,,,,,,,,,,,,,,,,,,,290.27380332601024,290.27380332601024,290.27380332601024,290.27380332601024,290.27380332601024,290.27380332601024,290.27380332601024,290.27380332601024,290.27380332601024,290.27380332601024,a,1.5521661500097252,10,361,1,291.8589498990041,293.3605511210044,,,,,,,,,,,,,,,,,,,,,,,,,,,,,,,,,,,,,,,,,,,,,,,,,,,,,,,,,,,,,,,,,,,,14066,2022-11-08_10h23.42.245,vts_reward_expectancy_bt_OFFLINE,2022.2.4,59.94715633633594,
0,0,0,1,0,0,1,0,star,hexagon,1,0,1,0,2,1,25,11,,,,,,,,,,,,,,,,,,,,,,,,,,,,,,,,,,,,,,,,293.860965038999,293.860965038999,293.860965038999,293.860965038999,293.860965038999,293.860965038999,293.860965038999,293.860965038999,293.860965038999,293.860965038999,a,0.8009354370296933,1,362,1,294.67857263199403,296.18039085000055,,,,,,,,,,,,,,,,,,,,,,,,,,,,,,,,,,,,,,,,,,,,,,,,,,,,,,,,,,,,,,,,,,,,14066,2022-11-08_10h23.42.245,vts_reward_expectancy_bt_OFFLINE,2022.2.4,59.94715633633594,
0,1,0,0,0,0,0,1,circle,star,1,0,1,0,2,2,26,5,,,,,,,,,,,,,,,,,,,,,,,,,,,,,,,,,,,,,,,,296.68080498400377,296.68080498400377,296.68080498400377,296.68080498400377,296.68080498400377,296.68080498400377,296.68080498400377,296.68080498400377,296.68080498400377,296.68080498400377,l,1.7369527140108403,1,363,1,298.44942326899036,299.9510072270059,,,,,,,,,,,,,,,,,,,,,,,,,,,,,,,,,,,,,,,,,,,,,,,,,,,,,,,,,,,,,,,,,,,,14066,2022-11-08_10h23.42.245,vts_reward_expectancy_bt_OFFLINE,2022.2.4,59.94715633633594,
0,0,0,1,0,1,0,0,star ,circle,1,0,1,0,2,3,27,10,,,,,,,,,,,,,,,,,,,,,,,,,,,,,,,,,,,,,,,,300.45158169599017,300.45158169599017,300.45158169599017,300.45158169599017,300.45158169599017,300.45158169599017,300.45158169599017,300.45158169599017,300.45158169599017,300.45158169599017,l,0.8578916210099123,10,373,1,301.3359674589883,302.8377221520059,,,,,,,,,,,,,,,,,,,,,,,,,,,,,,,,,,,,,,,,,,,,,,,,,,,,,,,,,,,,,,,,,,,,14066,2022-11-08_10h23.42.245,vts_reward_expectancy_bt_OFFLINE,2022.2.4,59.94715633633594,
0,0,1,0,0,1,0,0,hexagon,circle,1,0,1,0,2,4,28,7,,,,,,,,,,,,,,,,,,,,,,,,,,,,,,,,,,,,,,,,303.3381288340024,303.3381288340024,303.3381288340024,303.3381288340024,303.3381288340024,303.3381288340024,303.3381288340024,303.3381288340024,303.3381288340024,303.3381288340024,a,1.0426968589890748,10,383,1,304.40593898500083,305.90771543901064,,,,,,,,,,,,,,,,,,,,,,,,,,,,,,,,,,,,,,,,,,,,,,,,,,,,,,,,,,,,,,,,,,,,14066,2022-11-08_10h23.42.245,vts_reward_expectancy_bt_OFFLINE,2022.2.4,59.94715633633594,
1,0,0,0,0,0,0,1,triangle,star,1,0,1,0,2,5,29,2,,,,,,,,,,,,,,,,,,,,,,,,,,,,,,,,,,,,,,,,306.4081739569956,306.4081739569956,306.4081739569956,306.4081739569956,306.4081739569956,306.4081739569956,306.4081739569956,306.4081739569956,306.4081739569956,306.4081739569956,l,1.0549392770044506,10,393,1,307.492680121999,308.99439023900777,,,,,,,,,,,,,,,,,,,,,,,,,,,,,,,,,,,,,,,,,,,,,,,,,,,,,,,,,,,,,,,,,,,,14066,2022-11-08_10h23.42.245,vts_reward_expectancy_bt_OFFLINE,2022.2.4,59.94715633633594,
1,0,0,0,0,0,1,0,triangle,hexagon,1,0,1,0,2,6,30,1,,,,,,,,,,,,,,,,,,,,,,,,,,,,,,,,,,,,,,,,309.49484177699196,309.49484177699196,309.49484177699196,309.49484177699196,309.49484177699196,309.49484177699196,309.49484177699196,309.49484177699196,309.49484177699196,309.49484177699196,l,0.816432348015951,10,403,1,310.32916936901165,311.83082643698435,,,,,,,,,,,,,,,,,,,,,,,,,,,,,,,,,,,,,,,,,,,,,,,,,,,,,,,,,,,,,,,,,,,,14066,2022-11-08_10h23.42.245,vts_reward_expectancy_bt_OFFLINE,2022.2.4,59.94715633633594,
1,0,0,0,0,1,0,0,triangle,circle,1,0,1,0,2,7,31,0,,,,,,,,,,,,,,,,,,,,,,,,,,,,,,,,,,,,,,,,312.3315264249977,312.3315264249977,312.3315264249977,312.3315264249977,312.3315264249977,312.3315264249977,312.3315264249977,312.3315264249977,312.3315264249977,312.3315264249977,l,0.5782407759979833,1,404,1,312.9321305739868,314.433826744993,,,,,,,,,,,,,,,,,,,,,,,,,,,,,,,,,,,,,,,,,,,,,,,,,,,,,,,,,,,,,,,,,,,,14066,2022-11-08_10h23.42.245,vts_reward_expectancy_bt_OFFLINE,2022.2.4,59.94715633633594,
0,1,0,0,1,0,0,0,circle,triangle,1,0,1,0,2,8,32,3,,,,,,,,,,,,,,,,,,,,,,,,,,,,,,,,,,,,,,,,314.93423456998426,314.93423456998426,314.93423456998426,314.93423456998426,314.93423456998426,314.93423456998426,314.93423456998426,314.93423456998426,314.93423456998426,314.93423456998426,l,1.0349055149999913,10,414,1,316.0020870330045,317.5037561529898,,,,,,,,,,,,,,,,,,,,,,,,,,,,,,,,,,,,,,,,,,,,,,,,,,,,,,,,,,,,,,,,,,,,14066,2022-11-08_10h23.42.245,vts_reward_expectancy_bt_OFFLINE,2022.2.4,59.94715633633594,
0,0,1,0,0,0,0,1,hexagon,star,1,0,1,0,2,9,33,8,,,,,,,,,,,,,,,,,,,,,,,,,,,,,,,,,,,,,,,,318.00442858898896,318.00442858898896,318.00442858898896,318.00442858898896,318.00442858898896,318.00442858898896,318.00442858898896,318.00442858898896,318.00442858898896,318.00442858898896,a,1.226662433007732,1,415,1,319.2559420510079,320.7573393310013,,,,,,,,,,,,,,,,,,,,,,,,,,,,,,,,,,,,,,,,,,,,,,,,,,,,,,,,,,,,,,,,,,,,14066,2022-11-08_10h23.42.245,vts_reward_expectancy_bt_OFFLINE,2022.2.4,59.94715633633594,
0,1,0,0,0,0,1,0,circle,hexagon,1,0,1,0,2,10,34,4,,,,,,,,,,,,,,,,,,,,,,,,,,,,,,,,,,,,,,,,321.25789048100705,321.25789048100705,321.25789048100705,321.25789048100705,321.25789048100705,321.25789048100705,321.25789048100705,321.25789048100705,321.25789048100705,321.25789048100705,l,1.0789542910060845,1,416,1,322.3590650789847,323.8609655520122,,,,,,,,,,,,,,,,,,,,,,,,,,,,,,,,,,,,,,,,,,,,,,,,,,,,,,,,,,,,,,,,,,,,14066,2022-11-08_10h23.42.245,vts_reward_expectancy_bt_OFFLINE,2022.2.4,59.94715633633594,
0,0,1,0,1,0,0,0,hexagon,triangle,1,0,1,0,2,11,35,6,,,,,,,,,,,,,,,,,,,,,,,,,,,,,,,,,,,,,,,,324.3614354020101,324.3614354020101,324.3614354020101,324.3614354020101,324.3614354020101,324.3614354020101,324.3614354020101,324.3614354020101,324.3614354020101,324.3614354020101,a,0.7997868550010026,1,417,1,325.17908423100016,326.68051859599655,,,,,,,,,,,,,,,,,,,,,,,,,,,,,,,,,,,,,,,,,,,,,,,,,,,,,,,,,,,,,,,,,,,,14066,2022-11-08_10h23.42.245,vts_reward_expectancy_bt_OFFLINE,2022.2.4,59.94715633633594,
0,0,0,1,0,0,1,0,star,hexagon,1,0,1,0,3,0,36,11,,,,,,,,,,,,,,,,,,,,,,,,,,,,,,,,,,,,,,,,327.1811246580037,327.1811246580037,327.1811246580037,327.1811246580037,327.1811246580037,327.1811246580037,327.1811246580037,327.1811246580037,327.1811246580037,327.1811246580037,a,0.7578664740140084,10,427,1,327.9654779249977,329.46697280200897,,,,,,,,,,,,,,,,,,,,,,,,,,,,,,,,,,,,,,,,,,,,,,,,,,,,,,,,,,,,,,,,,,,,14066,2022-11-08_10h23.42.245,vts_reward_expectancy_bt_OFFLINE,2022.2.4,59.94715633633594,
0,0,1,0,0,1,0,0,hexagon,circle,1,0,1,0,3,1,37,7,,,,,,,,,,,,,,,,,,,,,,,,,,,,,,,,,,,,,,,,329.9674470940081,329.9674470940081,329.9674470940081,329.9674470940081,329.9674470940081,329.9674470940081,329.9674470940081,329.9674470940081,329.9674470940081,329.9674470940081,l,0.8410603560041636,1,428,1,330.83521618900704,332.3367587829998,,,,,,,,,,,,,,,,,,,,,,,,,,,,,,,,,,,,,,,,,,,,,,,,,,,,,,,,,,,,,,,,,,,,14066,2022-11-08_10h23.42.245,vts_reward_expectancy_bt_OFFLINE,2022.2.4,59.94715633633594,
0,1,0,0,0,0,0,1,circle,star,1,0,1,0,3,2,38,5,,,,,,,,,,,,,,,,,,,,,,,,,,,,,,,,,,,,,,,,332.8373428689956,332.8373428689956,332.8373428689956,332.8373428689956,332.8373428689956,332.8373428689956,332.8373428689956,332.8373428689956,332.8373428689956,332.8373428689956,a,0.726663138018921,10,438,1,333.588393840997,335.09005309300846,,,,,,,,,,,,,,,,,,,,,,,,,,,,,,,,,,,,,,,,,,,,,,,,,,,,,,,,,,,,,,,,,,,,14066,2022-11-08_10h23.42.245,vts_reward_expectancy_bt_OFFLINE,2022.2.4,59.94715633633594,
1,0,0,0,0,0,0,1,triangle,star,1,0,1,0,3,3,39,2,,,,,,,,,,,,,,,,,,,,,,,,,,,,,,,,,,,,,,,,335.5903370989836,335.5903370989836,335.5903370989836,335.5903370989836,335.5903370989836,335.5903370989836,335.5903370989836,335.5903370989836,335.5903370989836,335.5903370989836,a,1.326242351991823,10,448,1,336.9420459079847,338.44367805199,,,,,,,,,,,,,,,,,,,,,,,,,,,,,,,,,,,,,,,,,,,,,,,,,,,,,,,,,,,,,,,,,,,,14066,2022-11-08_10h23.42.245,vts_reward_expectancy_bt_OFFLINE,2022.2.4,59.94715633633594,
0,1,0,0,1,0,0,0,circle,triangle,1,0,1,0,3,4,40,3,,,,,,,,,,,,,,,,,,,,,,,,,,,,,,,,,,,,,,,,338.9442169039976,338.9442169039976,338.9442169039976,338.9442169039976,338.9442169039976,338.9442169039976,338.9442169039976,338.9442169039976,338.9442169039976,338.9442169039976,a,0.8521300250140484,10,458,1,339.8284606279922,341.33006617598585,,,,,,,,,,,,,,,,,,,,,,,,,,,,,,,,,,,,,,,,,,,,,,,,,,,,,,,,,,,,,,,,,,,,14066,2022-11-08_10h23.42.245,vts_reward_expectancy_bt_OFFLINE,2022.2.4,59.94715633633594,
0,0,0,1,0,1,0,0,star ,circle,1,0,1,0,3,5,41,10,,,,,,,,,,,,,,,,,,,,,,,,,,,,,,,,,,,,,,,,341.8306630709849,341.8306630709849,341.8306630709849,341.8306630709849,341.8306630709849,341.8306630709849,341.8306630709849,341.8306630709849,341.8306630709849,341.8306630709849,l,1.127040316001512,1,459,1,342.9820305870089,344.48361054598354,,,,,,,,,,,,,,,,,,,,,,,,,,,,,,,,,,,,,,,,,,,,,,,,,,,,,,,,,,,,,,,,,,,,14066,2022-11-08_10h23.42.245,vts_reward_expectancy_bt_OFFLINE,2022.2.4,59.94715633633594,
0,0,1,0,0,0,0,1,hexagon,star,1,0,1,0,3,6,42,8,,,,,,,,,,,,,,,,,,,,,,,,,,,,,,,,,,,,,,,,344.9840890879859,344.9840890879859,344.9840890879859,344.9840890879859,344.9840890879859,344.9840890879859,344.9840890879859,344.9840890879859,344.9840890879859,344.9840890879859,a,0.6404493740119506,1,460,1,345.65151576700737,347.15306162298657,,,,,,,,,,,,,,,,,,,,,,,,,,,,,,,,,,,,,,,,,,,,,,,,,,,,,,,,,,,,,,,,,,,,14066,2022-11-08_10h23.42.245,vts_reward_expectancy_bt_OFFLINE,2022.2.4,59.94715633633594,
0,0,1,0,1,0,0,0,hexagon,triangle,1,0,1,0,3,7,43,6,,,,,,,,,,,,,,,,,,,,,,,,,,,,,,,,,,,,,,,,347.65373296500184,347.65373296500184,347.65373296500184,347.65373296500184,347.65373296500184,347.65373296500184,347.65373296500184,347.65373296500184,347.65373296500184,347.65373296500184,l,0.693119261006359,10,470,1,348.3708872970019,349.8728515279945,,,,,,,,,,,,,,,,,,,,,,,,,,,,,,,,,,,,,,,,,,,,,,,,,,,,,,,,,,,,,,,,,,,,14066,2022-11-08_10h23.42.245,vts_reward_expectancy_bt_OFFLINE,2022.2.4,59.94715633633594,
1,0,0,0,0,1,0,0,triangle,circle,1,0,1,0,3,8,44,0,,,,,,,,,,,,,,,,,,,,,,,,,,,,,,,,,,,,,,,,350.37341406199266,350.37341406199266,350.37341406199266,350.37341406199266,350.37341406199266,350.37341406199266,350.37341406199266,350.37341406199266,350.37341406199266,350.37341406199266,l,0.6631030419957824,1,471,1,351.05741616600426,352.5591600360058,,,,,,,,,,,,,,,,,,,,,,,,,,,,,,,,,,,,,,,,,,,,,,,,,,,,,,,,,,,,,,,,,,,,14066,2022-11-08_10h23.42.245,vts_reward_expectancy_bt_OFFLINE,2022.2.4,59.94715633633594,
0,0,0,1,1,0,0,0,star,triangle,1,0,1,0,3,9,45,9,,,,,,,,,,,,,,,,,,,,,,,,,,,,,,,,,,,,,,,,353.0597110989911,353.0597110989911,353.0597110989911,353.0597110989911,353.0597110989911,353.0597110989911,353.0597110989911,353.0597110989911,353.0597110989911,353.0597110989911,l,0.7554672380210832,1,472,1,353.84377624600893,355.3454534339835,,,,,,,,,,,,,,,,,,,,,,,,,,,,,,,,,,,,,,,,,,,,,,,,,,,,,,,,,,,,,,,,,,,,14066,2022-11-08_10h23.42.245,vts_reward_expectancy_bt_OFFLINE,2022.2.4,59.94715633633594,
1,0,0,0,0,0,1,0,triangle,hexagon,1,0,1,0,3,10,46,1,,,,,,,,,,,,,,,,,,,,,,,,,,,,,,,,,,,,,,,,355.8462207150005,355.8462207150005,355.8462207150005,355.8462207150005,355.8462207150005,355.8462207150005,355.8462207150005,355.8462207150005,355.8462207150005,355.8462207150005,a,1.2311116379860323,1,473,1,357.0973869629961,358.59928390799905,,,,,,,,,,,,,,,,,,,,,,,,,,,,,,,,,,,,,,,,,,,,,,,,,,,,,,,,,,,,,,,,,,,,14066,2022-11-08_10h23.42.245,vts_reward_expectancy_bt_OFFLINE,2022.2.4,59.94715633633594,
0,1,0,0,0,0,1,0,circle,hexagon,1,0,1,0,3,11,47,4,,,,,,,,,,,,,,,,,,,,,,,,,,,,,,,,,,,,,,,,359.0997278750001,359.0997278750001,359.0997278750001,359.0997278750001,359.0997278750001,359.0997278750001,359.0997278750001,359.0997278750001,359.0997278750001,359.0997278750001,l,0.5326805880176835,10,483,1,359.6502789439983,361.1519258150074,,,,,,,,,,,,,,,,,,,,,,,,,,,,,,,,,,,,,,,,,,,,,,,,,,,,,,,,,,,,,,,,,,,,14066,2022-11-08_10h23.42.245,vts_reward_expectancy_bt_OFFLINE,2022.2.4,59.94715633633594,
1,0,0,0,0,0,1,0,triangle,hexagon,2,0,2,0,0,0,0,1,,,,,,,,,,,,,,,,,,,,,,,,,,,,,,,,,,,,,,,,365.5314802970097,365.5314802970097,365.5314802970097,365.5314802970097,365.5314802970097,365.5314802970097,365.5314802970097,365.5314802970097,365.5314802970097,365.5314802970097,l,2.605789368011756,1,484,2,368.1598330810084,369.66142472298816,,,,,,,,,,,,,,,,,,,,,,,,,,,,,,,,,,,,,,,,,,,,,,,,,,,,,,,,,,,,,,,,,,,,14066,2022-11-08_10h23.42.245,vts_reward_expectancy_bt_OFFLINE,2022.2.4,59.94715633633594,
0,0,0,1,0,1,0,0,star ,circle,2,0,2,0,0,1,1,10,,,,,,,,,,,,,,,,,,,,,,,,,,,,,,,,,,,,,,,,370.16174529198906,370.16174529198906,370.16174529198906,370.16174529198906,370.16174529198906,370.16174529198906,370.16174529198906,370.16174529198906,370.16174529198906,370.16174529198906,a,0.8000158530194312,1,485,2,370.9793724720075,372.4811187819869,,,,,,,,,,,,,,,,,,,,,,,,,,,,,,,,,,,,,,,,,,,,,,,,,,,,,,,,,,,,,,,,,,,,14066,2022-11-08_10h23.42.245,vts_reward_expectancy_bt_OFFLINE,2022.2.4,59.94715633633594,
0,0,0,1,0,0,1,0,star,hexagon,2,0,2,0,0,2,2,11,,,,,,,,,,,,,,,,,,,,,,,,,,,,,,,,,,,,,,,,372.9817079420027,372.9817079420027,372.9817079420027,372.9817079420027,372.9817079420027,372.9817079420027,372.9817079420027,372.9817079420027,372.9817079420027,372.9817079420027,a,0.6444856800080743,1,486,2,373.64904036500957,375.1508603960101,,,,,,,,,,,,,,,,,,,,,,,,,,,,,,,,,,,,,,,,,,,,,,,,,,,,,,,,,,,,,,,,,,,,14066,2022-11-08_10h23.42.245,vts_reward_expectancy_bt_OFFLINE,2022.2.4,59.94715633633594,
0,0,1,0,0,0,0,1,hexagon,star,2,0,2,0,0,3,3,8,,,,,,,,,,,,,,,,,,,,,,,,,,,,,,,,,,,,,,,,375.6513991919928,375.6513991919928,375.6513991919928,375.6513991919928,375.6513991919928,375.6513991919928,375.6513991919928,375.6513991919928,375.6513991919928,375.6513991919928,a,0.686230642022565,1,487,2,376.36873938801,377.8704134399886,,,,,,,,,,,,,,,,,,,,,,,,,,,,,,,,,,,,,,,,,,,,,,,,,,,,,,,,,,,,,,,,,,,,14066,2022-11-08_10h23.42.245,vts_reward_expectancy_bt_OFFLINE,2022.2.4,59.94715633633594,
1,0,0,0,0,1,0,0,triangle,circle,2,0,2,0,0,4,4,0,,,,,,,,,,,,,,,,,,,,,,,,,,,,,,,,,,,,,,,,378.3710407479957,378.3710407479957,378.3710407479957,378.3710407479957,378.3710407479957,378.3710407479957,378.3710407479957,378.3710407479957,378.3710407479957,378.3710407479957,l,0.634531382995192,10,497,2,379.0385708420072,380.5400114549848,,,,,,,,,,,,,,,,,,,,,,,,,,,,,,,,,,,,,,,,,,,,,,,,,,,,,,,,,,,,,,,,,,,,14066,2022-11-08_10h23.42.245,vts_reward_expectancy_bt_OFFLINE,2022.2.4,59.94715633633594,
0,1,0,0,1,0,0,0,circle,triangle,2,0,2,0,0,5,5,3,,,,,,,,,,,,,,,,,,,,,,,,,,,,,,,,,,,,,,,,381.04045003000647,381.04045003000647,381.04045003000647,381.04045003000647,381.04045003000647,381.04045003000647,381.04045003000647,381.04045003000647,381.04045003000647,381.04045003000647,l,1.1582072890014388,1,498,2,382.225140480994,383.7268259380071,,,,,,,,,,,,,,,,,,,,,,,,,,,,,,,,,,,,,,,,,,,,,,,,,,,,,,,,,,,,,,,,,,,,14066,2022-11-08_10h23.42.245,vts_reward_expectancy_bt_OFFLINE,2022.2.4,59.94715633633594,
0,0,1,0,1,0,0,0,hexagon,triangle,2,0,2,0,0,6,6,6,,,,,,,,,,,,,,,,,,,,,,,,,,,,,,,,,,,,,,,,384.22735681800987,384.22735681800987,384.22735681800987,384.22735681800987,384.22735681800987,384.22735681800987,384.22735681800987,384.22735681800987,384.22735681800987,384.22735681800987,l,0.6044824779964983,10,508,2,384.86150964398985,386.36317548400257,,,,,,,,,,,,,,,,,,,,,,,,,,,,,,,,,,,,,,,,,,,,,,,,,,,,,,,,,,,,,,,,,,,,14066,2022-11-08_10h23.42.245,vts_reward_expectancy_bt_OFFLINE,2022.2.4,59.94715633633594,
0,1,0,0,0,0,0,1,circle,star,2,0,2,0,0,7,7,5,,,,,,,,,,,,,,,,,,,,,,,,,,,,,,,,,,,,,,,,386.8628333180095,386.8628333180095,386.8628333180095,386.8628333180095,386.8628333180095,386.8628333180095,386.8628333180095,386.8628333180095,386.8628333180095,386.8628333180095,a,0.7707623210153542,1,509,2,387.6642359539983,389.1661727220053,,,,,,,,,,,,,,,,,,,,,,,,,,,,,,,,,,,,,,,,,,,,,,,,,,,,,,,,,,,,,,,,,,,,14066,2022-11-08_10h23.42.245,vts_reward_expectancy_bt_OFFLINE,2022.2.4,59.94715633633594,
0,0,0,1,1,0,0,0,star,triangle,2,0,2,0,0,8,8,9,,,,,,,,,,,,,,,,,,,,,,,,,,,,,,,,,,,,,,,,389.6667885159841,389.6667885159841,389.6667885159841,389.6667885159841,389.6667885159841,389.6667885159841,389.6667885159841,389.6667885159841,389.6667885159841,389.6667885159841,a,0.8587789759912994,1,510,2,390.55103853100445,392.0526876570075,,,,,,,,,,,,,,,,,,,,,,,,,,,,,,,,,,,,,,,,,,,,,,,,,,,,,,,,,,,,,,,,,,,,14066,2022-11-08_10h23.42.245,vts_reward_expectancy_bt_OFFLINE,2022.2.4,59.94715633633594,
0,1,0,0,0,0,1,0,circle,hexagon,2,0,2,0,0,9,9,4,,,,,,,,,,,,,,,,,,,,,,,,,,,,,,,,,,,,,,,,392.5531610309845,392.5531610309845,392.5531610309845,392.5531610309845,392.5531610309845,392.5531610309845,392.5531610309845,392.5531610309845,392.5531610309845,392.5531610309845,a,0.8078230149985757,1,511,2,393.38744681098615,394.8893278299947,,,,,,,,,,,,,,,,,,,,,,,,,,,,,,,,,,,,,,,,,,,,,,,,,,,,,,,,,,,,,,,,,,,,14066,2022-11-08_10h23.42.245,vts_reward_expectancy_bt_OFFLINE,2022.2.4,59.94715633633594,
1,0,0,0,0,0,0,1,triangle,star,2,0,2,0,0,10,10,2,,,,,,,,,,,,,,,,,,,,,,,,,,,,,,,,,,,,,,,,395.3897766699956,395.3897766699956,395.3897766699956,395.3897766699956,395.3897766699956,395.3897766699956,395.3897766699956,395.3897766699956,395.3897766699956,395.3897766699956,a,0.5349249349965248,10,521,2,395.9569353009865,397.4586643189832,,,,,,,,,,,,,,,,,,,,,,,,,,,,,,,,,,,,,,,,,,,,,,,,,,,,,,,,,,,,,,,,,,,,14066,2022-11-08_10h23.42.245,vts_reward_expectancy_bt_OFFLINE,2022.2.4,59.94715633633594,
0,0,1,0,0,1,0,0,hexagon,circle,2,0,2,0,0,11,11,7,,,,,,,,,,,,,,,,,,,,,,,,,,,,,,,,,,,,,,,,397.9592556889984,397.9592556889984,397.9592556889984,397.9592556889984,397.9592556889984,397.9592556889984,397.9592556889984,397.9592556889984,397.9592556889984,397.9592556889984,l,0.5416245629894547,10,531,2,398.52670249098446,400.027998998994,,,,,,,,,,,,,,,,,,,,,,,,,,,,,,,,,,,,,,,,,,,,,,,,,,,,,,,,,,,,,,,,,,,,14066,2022-11-08_10h23.42.245,vts_reward_expectancy_bt_OFFLINE,2022.2.4,59.94715633633594,
0,1,0,0,0,0,1,0,circle,hexagon,2,0,2,0,1,0,12,4,,,,,,,,,,,,,,,,,,,,,,,,,,,,,,,,,,,,,,,,400.52848576399265,400.52848576399265,400.52848576399265,400.52848576399265,400.52848576399265,400.52848576399265,400.52848576399265,400.52848576399265,400.52848576399265,400.52848576399265,a,0.5498114259971771,1,532,2,401.0959228349966,402.59774364798795,,,,,,,,,,,,,,,,,,,,,,,,,,,,,,,,,,,,,,,,,,,,,,,,,,,,,,,,,,,,,,,,,,,,14066,2022-11-08_10h23.42.245,vts_reward_expectancy_bt_OFFLINE,2022.2.4,59.94715633633594,
0,0,0,1,0,0,1,0,star,hexagon,2,0,2,0,1,1,13,11,,,,,,,,,,,,,,,,,,,,,,,,,,,,,,,,,,,,,,,,403.0980464830063,403.0980464830063,403.0980464830063,403.0980464830063,403.0980464830063,403.0980464830063,403.0980464830063,403.0980464830063,403.0980464830063,403.0980464830063,l,0.5565567550074775,1,533,2,403.6821083659888,405.1838760130049,,,,,,,,,,,,,,,,,,,,,,,,,,,,,,,,,,,,,,,,,,,,,,,,,,,,,,,,,,,,,,,,,,,,14066,2022-11-08_10h23.42.245,vts_reward_expectancy_bt_OFFLINE,2022.2.4,59.94715633633594,
0,0,1,0,0,1,0,0,hexagon,circle,2,0,2,0,1,2,14,7,,,,,,,,,,,,,,,,,,,,,,,,,,,,,,,,,,,,,,,,405.6845679479884,405.6845679479884,405.6845679479884,405.6845679479884,405.6845679479884,405.6845679479884,405.6845679479884,405.6845679479884,405.6845679479884,405.6845679479884,l,0.7928710400010459,10,543,2,406.50203082399094,408.0037968159886,,,,,,,,,,,,,,,,,,,,,,,,,,,,,,,,,,,,,,,,,,,,,,,,,,,,,,,,,,,,,,,,,,,,14066,2022-11-08_10h23.42.245,vts_reward_expectancy_bt_OFFLINE,2022.2.4,59.94715633633594,
0,1,0,0,0,0,0,1,circle,star,2,0,2,0,1,3,15,5,,,,,,,,,,,,,,,,,,,,,,,,,,,,,,,,,,,,,,,,408.5041634159861,408.5041634159861,408.5041634159861,408.5041634159861,408.5041634159861,408.5041634159861,408.5041634159861,408.5041634159861,408.5041634159861,408.5041634159861,a,0.797446985001443,10,553,2,409.3219491140044,410.8234019849915,,,,,,,,,,,,,,,,,,,,,,,,,,,,,,,,,,,,,,,,,,,,,,,,,,,,,,,,,,,,,,,,,,,,14066,2022-11-08_10h23.42.245,vts_reward_expectancy_bt_OFFLINE,2022.2.4,59.94715633633594,
0,0,1,0,1,0,0,0,hexagon,triangle,2,0,2,0,1,4,16,6,,,,,,,,,,,,,,,,,,,,,,,,,,,,,,,,,,,,,,,,411.3238633440051,411.3238633440051,411.3238633440051,411.3238633440051,411.3238633440051,411.3238633440051,411.3238633440051,411.3238633440051,411.3238633440051,411.3238633440051,l,1.2861243750085123,10,563,2,412.64201972898445,414.1435899579956,,,,,,,,,,,,,,,,,,,,,,,,,,,,,,,,,,,,,,,,,,,,,,,,,,,,,,,,,,,,,,,,,,,,14066,2022-11-08_10h23.42.245,vts_reward_expectancy_bt_OFFLINE,2022.2.4,59.94715633633594,
0,1,0,0,1,0,0,0,circle,triangle,2,0,2,0,1,5,17,3,,,,,,,,,,,,,,,,,,,,,,,,,,,,,,,,,,,,,,,,414.6443337039964,414.6443337039964,414.6443337039964,414.6443337039964,414.6443337039964,414.6443337039964,414.6443337039964,414.6443337039964,414.6443337039964,414.6443337039964,l,1.418958743015537,10,573,2,416.09588171800715,417.59755618398776,,,,,,,,,,,,,,,,,,,,,,,,,,,,,,,,,,,,,,,,,,,,,,,,,,,,,,,,,,,,,,,,,,,,14066,2022-11-08_10h23.42.245,vts_reward_expectancy_bt_OFFLINE,2022.2.4,59.94715633633594,
0,0,0,1,0,1,0,0,star ,circle,2,0,2,0,1,6,18,10,,,,,,,,,,,,,,,,,,,,,,,,,,,,,,,,,,,,,,,,418.0983033340017,418.0983033340017,418.0983033340017,418.0983033340017,418.0983033340017,418.0983033340017,418.0983033340017,418.0983033340017,418.0983033340017,418.0983033340017,a,1.644384875020478,10,583,2,419.766714494006,421.2682628289913,,,,,,,,,,,,,,,,,,,,,,,,,,,,,,,,,,,,,,,,,,,,,,,,,,,,,,,,,,,,,,,,,,,,14066,2022-11-08_10h23.42.245,vts_reward_expectancy_bt_OFFLINE,2022.2.4,59.94715633633594,
1,0,0,0,0,0,0,1,triangle,star,2,0,2,0,1,7,19,2,,,,,,,,,,,,,,,,,,,,,,,,,,,,,,,,,,,,,,,,421.7688960240048,421.7688960240048,421.7688960240048,421.7688960240048,421.7688960240048,421.7688960240048,421.7688960240048,421.7688960240048,421.7688960240048,421.7688960240048,l,0.785541806020774,10,593,2,422.5865897219919,424.08821617698413,,,,,,,,,,,,,,,,,,,,,,,,,,,,,,,,,,,,,,,,,,,,,,,,,,,,,,,,,,,,,,,,,,,,14066,2022-11-08_10h23.42.245,vts_reward_expectancy_bt_OFFLINE,2022.2.4,59.94715633633594,
0,0,0,1,1,0,0,0,star,triangle,2,0,2,0,1,8,20,9,,,,,,,,,,,,,,,,,,,,,,,,,,,,,,,,,,,,,,,,424.5885611170088,424.5885611170088,424.5885611170088,424.5885611170088,424.5885611170088,424.5885611170088,424.5885611170088,424.5885611170088,424.5885611170088,424.5885611170088,a,0.8116549120168202,10,603,2,425.42278231299133,426.9245288230013,,,,,,,,,,,,,,,,,,,,,,,,,,,,,,,,,,,,,,,,,,,,,,,,,,,,,,,,,,,,,,,,,,,,14066,2022-11-08_10h23.42.245,vts_reward_expectancy_bt_OFFLINE,2022.2.4,59.94715633633594,
0,0,1,0,0,0,0,1,hexagon,star,2,0,2,0,1,9,21,8,,,,,,,,,,,,,,,,,,,,,,,,,,,,,,,,,,,,,,,,427.42498697698466,427.42498697698466,427.42498697698466,427.42498697698466,427.42498697698466,427.42498697698466,427.42498697698466,427.42498697698466,427.42498697698466,427.42498697698466,l,0.6535127419920173,1,604,2,428.109114699997,429.61074600100983,,,,,,,,,,,,,,,,,,,,,,,,,,,,,,,,,,,,,,,,,,,,,,,,,,,,,,,,,,,,,,,,,,,,14066,2022-11-08_10h23.42.245,vts_reward_expectancy_bt_OFFLINE,2022.2.4,59.94715633633594,
1,0,0,0,0,1,0,0,triangle,circle,2,0,2,0,1,10,22,0,,,,,,,,,,,,,,,,,,,,,,,,,,,,,,,,,,,,,,,,430.1113964410033,430.1113964410033,430.1113964410033,430.1113964410033,430.1113964410033,430.1113964410033,430.1113964410033,430.1113964410033,430.1113964410033,430.1113964410033,a,0.4993497809919063,1,605,2,430.6286185760109,432.1302737829974,,,,,,,,,,,,,,,,,,,,,,,,,,,,,,,,,,,,,,,,,,,,,,,,,,,,,,,,,,,,,,,,,,,,14066,2022-11-08_10h23.42.245,vts_reward_expectancy_bt_OFFLINE,2022.2.4,59.94715633633594,
1,0,0,0,0,0,1,0,triangle,hexagon,2,0,2,0,1,11,23,1,,,,,,,,,,,,,,,,,,,,,,,,,,,,,,,,,,,,,,,,432.63079585999367,432.63079585999367,432.63079585999367,432.63079585999367,432.63079585999367,432.63079585999367,432.63079585999367,432.63079585999367,432.63079585999367,432.63079585999367,a,0.7014152720221318,10,615,2,433.3649012100068,434.8665977620112,,,,,,,,,,,,,,,,,,,,,,,,,,,,,,,,,,,,,,,,,,,,,,,,,,,,,,,,,,,,,,,,,,,,14066,2022-11-08_10h23.42.245,vts_reward_expectancy_bt_OFFLINE,2022.2.4,59.94715633633594,
1,0,0,0,0,0,1,0,triangle,hexagon,2,0,2,0,2,0,24,1,,,,,,,,,,,,,,,,,,,,,,,,,,,,,,,,,,,,,,,,435.3671325609903,435.3671325609903,435.3671325609903,435.3671325609903,435.3671325609903,435.3671325609903,435.3671325609903,435.3671325609903,435.3671325609903,435.3671325609903,a,0.8346330370113719,1,616,2,436.23493383001187,437.7363870650006,,,,,,,,,,,,,,,,,,,,,,,,,,,,,,,,,,,,,,,,,,,,,,,,,,,,,,,,,,,,,,,,,,,,14066,2022-11-08_10h23.42.245,vts_reward_expectancy_bt_OFFLINE,2022.2.4,59.94715633633594,
0,1,0,0,0,0,0,1,circle,star,2,0,2,0,2,1,25,5,,,,,,,,,,,,,,,,,,,,,,,,,,,,,,,,,,,,,,,,438.23710396300885,438.23710396300885,438.23710396300885,438.23710396300885,438.23710396300885,438.23710396300885,438.23710396300885,438.23710396300885,438.23710396300885,438.23710396300885,l,0.7662391440244392,1,617,2,439.02110862301197,440.5228087329888,,,,,,,,,,,,,,,,,,,,,,,,,,,,,,,,,,,,,,,,,,,,,,,,,,,,,,,,,,,,,,,,,,,,14066,2022-11-08_10h23.42.245,vts_reward_expectancy_bt_OFFLINE,2022.2.4,59.94715633633594,
1,0,0,0,0,1,0,0,triangle,circle,2,0,2,0,2,2,26,0,,,,,,,,,,,,,,,,,,,,,,,,,,,,,,,,,,,,,,,,441.0233355269884,441.0233355269884,441.0233355269884,441.0233355269884,441.0233355269884,441.0233355269884,441.0233355269884,441.0233355269884,441.0233355269884,441.0233355269884,l,0.7814316200092435,10,627,2,441.82437252099044,443.3258463270031,,,,,,,,,,,,,,,,,,,,,,,,,,,,,,,,,,,,,,,,,,,,,,,,,,,,,,,,,,,,,,,,,,,,14066,2022-11-08_10h23.42.245,vts_reward_expectancy_bt_OFFLINE,2022.2.4,59.94715633633594,
0,0,1,0,0,1,0,0,hexagon,circle,2,0,2,0,2,3,27,7,,,,,,,,,,,,,,,,,,,,,,,,,,,,,,,,,,,,,,,,443.82662226699176,443.82662226699176,443.82662226699176,443.82662226699176,443.82662226699176,443.82662226699176,443.82662226699176,443.82662226699176,443.82662226699176,443.82662226699176,l,0.7343651890114415,1,628,2,444.5941069489927,446.09557578200474,,,,,,,,,,,,,,,,,,,,,,,,,,,,,,,,,,,,,,,,,,,,,,,,,,,,,,,,,,,,,,,,,,,,14066,2022-11-08_10h23.42.245,vts_reward_expectancy_bt_OFFLINE,2022.2.4,59.94715633633594,
0,0,1,0,1,0,0,0,hexagon,triangle,2,0,2,0,2,4,28,6,,,,,,,,,,,,,,,,,,,,,,,,,,,,,,,,,,,,,,,,446.5961308669939,446.5961308669939,446.5961308669939,446.5961308669939,446.5961308669939,446.5961308669939,446.5961308669939,446.5961308669939,446.5961308669939,446.5961308669939,l,0.5740757810126524,10,638,2,447.1967511929979,448.6984774559969,,,,,,,,,,,,,,,,,,,,,,,,,,,,,,,,,,,,,,,,,,,,,,,,,,,,,,,,,,,,,,,,,,,,14066,2022-11-08_10h23.42.245,vts_reward_expectancy_bt_OFFLINE,2022.2.4,59.94715633633594,
0,0,0,1,1,0,0,0,star,triangle,2,0,2,0,2,5,29,9,,,,,,,,,,,,,,,,,,,,,,,,,,,,,,,,,,,,,,,,449.1991713400057,449.1991713400057,449.1991713400057,449.1991713400057,449.1991713400057,449.1991713400057,449.1991713400057,449.1991713400057,449.1991713400057,449.1991713400057,l,1.0084699010185432,10,648,2,450.233446697006,451.7352708079852,,,,,,,,,,,,,,,,,,,,,,,,,,,,,,,,,,,,,,,,,,,,,,,,,,,,,,,,,,,,,,,,,,,,14066,2022-11-08_10h23.42.245,vts_reward_expectancy_bt_OFFLINE,2022.2.4,59.94715633633594,
0,0,0,1,0,0,1,0,star,hexagon,2,0,2,0,2,6,30,11,,,,,,,,,,,,,,,,,,,,,,,,,,,,,,,,,,,,,,,,452.23576200800017,452.23576200800017,452.23576200800017,452.23576200800017,452.23576200800017,452.23576200800017,452.23576200800017,452.23576200800017,452.23576200800017,452.23576200800017,a,0.9305213000043295,1,649,2,453.1866870689846,454.68840203399304,,,,,,,,,,,,,,,,,,,,,,,,,,,,,,,,,,,,,,,,,,,,,,,,,,,,,,,,,,,,,,,,,,,,14066,2022-11-08_10h23.42.245,vts_reward_expectancy_bt_OFFLINE,2022.2.4,59.94715633633594,
0,0,0,1,0,1,0,0,star ,circle,2,0,2,0,2,7,31,10,,,,,,,,,,,,,,,,,,,,,,,,,,,,,,,,,,,,,,,,455.1890151890111,455.1890151890111,455.1890151890111,455.1890151890111,455.1890151890111,455.1890151890111,455.1890151890111,455.1890151890111,455.1890151890111,455.1890151890111,l,0.49860599101521075,1,650,2,455.7062595629832,457.20784626499517,,,,,,,,,,,,,,,,,,,,,,,,,,,,,,,,,,,,,,,,,,,,,,,,,,,,,,,,,,,,,,,,,,,,14066,2022-11-08_10h23.42.245,vts_reward_expectancy_bt_OFFLINE,2022.2.4,59.94715633633594,
1,0,0,0,0,0,0,1,triangle,star,2,0,2,0,2,8,32,2,,,,,,,,,,,,,,,,,,,,,,,,,,,,,,,,,,,,,,,,457.7084623010014,457.7084623010014,457.7084623010014,457.7084623010014,457.7084623010014,457.7084623010014,457.7084623010014,457.7084623010014,457.7084623010014,457.7084623010014,l,0.7804286320169922,10,660,2,458.50933999801055,460.0111131129961,,,,,,,,,,,,,,,,,,,,,,,,,,,,,,,,,,,,,,,,,,,,,,,,,,,,,,,,,,,,,,,,,,,,14066,2022-11-08_10h23.42.245,vts_reward_expectancy_bt_OFFLINE,2022.2.4,59.94715633633594,
0,1,0,0,0,0,1,0,circle,hexagon,2,0,2,0,2,9,33,4,,,,,,,,,,,,,,,,,,,,,,,,,,,,,,,,,,,,,,,,460.51128276699455,460.51128276699455,460.51128276699455,460.51128276699455,460.51128276699455,460.51128276699455,460.51128276699455,460.51128276699455,460.51128276699455,460.51128276699455,a,0.9580243190284818,10,670,2,461.4961626470031,462.99765249999473,,,,,,,,,,,,,,,,,,,,,,,,,,,,,,,,,,,,,,,,,,,,,,,,,,,,,,,,,,,,,,,,,,,,14066,2022-11-08_10h23.42.245,vts_reward_expectancy_bt_OFFLINE,2022.2.4,59.94715633633594,
0,1,0,0,1,0,0,0,circle,triangle,2,0,2,0,2,10,34,3,,,,,,,,,,,,,,,,,,,,,,,,,,,,,,,,,,,,,,,,463.4981509500067,463.4981509500067,463.4981509500067,463.4981509500067,463.4981509500067,463.4981509500067,463.4981509500067,463.4981509500067,463.4981509500067,463.4981509500067,a,0.5920769899967127,1,671,2,464.1152530070103,465.61709175500437,,,,,,,,,,,,,,,,,,,,,,,,,,,,,,,,,,,,,,,,,,,,,,,,,,,,,,,,,,,,,,,,,,,,14066,2022-11-08_10h23.42.245,vts_reward_expectancy_bt_OFFLINE,2022.2.4,59.94715633633594,
0,0,1,0,0,0,0,1,hexagon,star,2,0,2,0,2,11,35,8,,,,,,,,,,,,,,,,,,,,,,,,,,,,,,,,,,,,,,,,466.1175525489962,466.1175525489962,466.1175525489962,466.1175525489962,466.1175525489962,466.1175525489962,466.1175525489962,466.1175525489962,466.1175525489962,466.1175525489962,l,0.7407112390210386,1,672,2,466.8851231180015,468.3869563640037,,,,,,,,,,,,,,,,,,,,,,,,,,,,,,,,,,,,,,,,,,,,,,,,,,,,,,,,,,,,,,,,,,,,14066,2022-11-08_10h23.42.245,vts_reward_expectancy_bt_OFFLINE,2022.2.4,59.94715633633594,
0,0,1,0,0,1,0,0,hexagon,circle,2,0,2,0,3,0,36,7,,,,,,,,,,,,,,,,,,,,,,,,,,,,,,,,,,,,,,,,468.88738414499676,468.88738414499676,468.88738414499676,468.88738414499676,468.88738414499676,468.88738414499676,468.88738414499676,468.88738414499676,468.88738414499676,468.88738414499676,l,0.5693922280042898,1,673,2,469.4881710050104,470.9898015889921,,,,,,,,,,,,,,,,,,,,,,,,,,,,,,,,,,,,,,,,,,,,,,,,,,,,,,,,,,,,,,,,,,,,14066,2022-11-08_10h23.42.245,vts_reward_expectancy_bt_OFFLINE,2022.2.4,59.94715633633594,
0,0,0,1,1,0,0,0,star,triangle,2,0,2,0,3,1,37,9,,,,,,,,,,,,,,,,,,,,,,,,,,,,,,,,,,,,,,,,471.4903207879979,471.4903207879979,471.4903207879979,471.4903207879979,471.4903207879979,471.4903207879979,471.4903207879979,471.4903207879979,471.4903207879979,471.4903207879979,l,0.5873634979943745,10,683,2,472.10775764199207,473.6093622529879,,,,,,,,,,,,,,,,,,,,,,,,,,,,,,,,,,,,,,,,,,,,,,,,,,,,,,,,,,,,,,,,,,,,14066,2022-11-08_10h23.42.245,vts_reward_expectancy_bt_OFFLINE,2022.2.4,59.94715633633594,
0,0,1,0,1,0,0,0,hexagon,triangle,2,0,2,0,3,2,38,6,,,,,,,,,,,,,,,,,,,,,,,,,,,,,,,,,,,,,,,,474.109816857992,474.109816857992,474.109816857992,474.109816857992,474.109816857992,474.109816857992,474.109816857992,474.109816857992,474.109816857992,474.109816857992,l,0.5573036940186284,10,693,2,474.6939536189893,476.1956055719929,,,,,,,,,,,,,,,,,,,,,,,,,,,,,,,,,,,,,,,,,,,,,,,,,,,,,,,,,,,,,,,,,,,,14066,2022-11-08_10h23.42.245,vts_reward_expectancy_bt_OFFLINE,2022.2.4,59.94715633633594,
0,0,0,1,0,1,0,0,star ,circle,2,0,2,0,3,3,39,10,,,,,,,,,,,,,,,,,,,,,,,,,,,,,,,,,,,,,,,,476.69625199900474,476.69625199900474,476.69625199900474,476.69625199900474,476.69625199900474,476.69625199900474,476.69625199900474,476.69625199900474,476.69625199900474,476.69625199900474,l,0.6581712790066376,10,703,2,477.38006977099576,478.88175888799015,,,,,,,,,,,,,,,,,,,,,,,,,,,,,,,,,,,,,,,,,,,,,,,,,,,,,,,,,,,,,,,,,,,,14066,2022-11-08_10h23.42.245,vts_reward_expectancy_bt_OFFLINE,2022.2.4,59.94715633633594,
0,0,0,1,0,0,1,0,star,hexagon,2,0,2,0,3,4,40,11,,,,,,,,,,,,,,,,,,,,,,,,,,,,,,,,,,,,,,,,479.38239795999834,479.38239795999834,479.38239795999834,479.38239795999834,479.38239795999834,479.38239795999834,479.38239795999834,479.38239795999834,479.38239795999834,479.38239795999834,l,0.7183617530099582,10,713,2,480.1333082120109,481.63488817200414,,,,,,,,,,,,,,,,,,,,,,,,,,,,,,,,,,,,,,,,,,,,,,,,,,,,,,,,,,,,,,,,,,,,14066,2022-11-08_10h23.42.245,vts_reward_expectancy_bt_OFFLINE,2022.2.4,59.94715633633594,
0,1,0,0,1,0,0,0,circle,triangle,2,0,2,0,3,5,41,3,,,,,,,,,,,,,,,,,,,,,,,,,,,,,,,,,,,,,,,,482.13531671901,482.13531671901,482.13531671901,482.13531671901,482.13531671901,482.13531671901,482.13531671901,482.13531671901,482.13531671901,482.13531671901,l,0.6531146409979556,10,723,2,482.81953853400773,484.3210823420086,,,,,,,,,,,,,,,,,,,,,,,,,,,,,,,,,,,,,,,,,,,,,,,,,,,,,,,,,,,,,,,,,,,,14066,2022-11-08_10h23.42.245,vts_reward_expectancy_bt_OFFLINE,2022.2.4,59.94715633633594,
0,1,0,0,0,0,0,1,circle,star,2,0,2,0,3,6,42,5,,,,,,,,,,,,,,,,,,,,,,,,,,,,,,,,,,,,,,,,484.82162410000456,484.82162410000456,484.82162410000456,484.82162410000456,484.82162410000456,484.82162410000456,484.82162410000456,484.82162410000456,484.82162410000456,484.82162410000456,l,0.6568748780118767,1,724,2,485.50581200400484,487.00748993700836,,,,,,,,,,,,,,,,,,,,,,,,,,,,,,,,,,,,,,,,,,,,,,,,,,,,,,,,,,,,,,,,,,,,14066,2022-11-08_10h23.42.245,vts_reward_expectancy_bt_OFFLINE,2022.2.4,59.94715633633594,
0,1,0,0,0,0,1,0,circle,hexagon,2,0,2,0,3,7,43,4,,,,,,,,,,,,,,,,,,,,,,,,,,,,,,,,,,,,,,,,487.5080085689842,487.5080085689842,487.5080085689842,487.5080085689842,487.5080085689842,487.5080085689842,487.5080085689842,487.5080085689842,487.5080085689842,487.5080085689842,l,0.6250285050191451,10,734,2,488.15869035900687,489.660474119999,,,,,,,,,,,,,,,,,,,,,,,,,,,,,,,,,,,,,,,,,,,,,,,,,,,,,,,,,,,,,,,,,,,,14066,2022-11-08_10h23.42.245,vts_reward_expectancy_bt_OFFLINE,2022.2.4,59.94715633633594,
1,0,0,0,0,0,0,1,triangle,star,2,0,2,0,3,8,44,2,,,,,,,,,,,,,,,,,,,,,,,,,,,,,,,,,,,,,,,,490.1608703059901,490.1608703059901,490.1608703059901,490.1608703059901,490.1608703059901,490.1608703059901,490.1608703059901,490.1608703059901,490.1608703059901,490.1608703059901,l,0.9087923800107092,10,744,2,491.09518585700425,492.5969997649954,,,,,,,,,,,,,,,,,,,,,,,,,,,,,,,,,,,,,,,,,,,,,,,,,,,,,,,,,,,,,,,,,,,,14066,2022-11-08_10h23.42.245,vts_reward_expectancy_bt_OFFLINE,2022.2.4,59.94715633633594,
1,0,0,0,0,0,1,0,triangle,hexagon,2,0,2,0,3,9,45,1,,,,,,,,,,,,,,,,,,,,,,,,,,,,,,,,,,,,,,,,493.09765811800025,493.09765811800025,493.09765811800025,493.09765811800025,493.09765811800025,493.09765811800025,493.09765811800025,493.09765811800025,493.09765811800025,493.09765811800025,l,0.7272943720163312,1,745,2,493.8482732590055,495.3500145029975,,,,,,,,,,,,,,,,,,,,,,,,,,,,,,,,,,,,,,,,,,,,,,,,,,,,,,,,,,,,,,,,,,,,14066,2022-11-08_10h23.42.245,vts_reward_expectancy_bt_OFFLINE,2022.2.4,59.94715633633594,
1,0,0,0,0,1,0,0,triangle,circle,2,0,2,0,3,10,46,0,,,,,,,,,,,,,,,,,,,,,,,,,,,,,,,,,,,,,,,,495.85062907700194,495.85062907700194,495.85062907700194,495.85062907700194,495.85062907700194,495.85062907700194,495.85062907700194,495.85062907700194,495.85062907700194,495.85062907700194,a,0.6295284210063983,10,755,2,496.5013157610083,498.002741142991,,,,,,,,,,,,,,,,,,,,,,,,,,,,,,,,,,,,,,,,,,,,,,,,,,,,,,,,,,,,,,,,,,,,14066,2022-11-08_10h23.42.245,vts_reward_expectancy_bt_OFFLINE,2022.2.4,59.94715633633594,
0,0,1,0,0,0,0,1,hexagon,star,2,0,2,0,3,11,47,8,,,,,,,,,,,,,,,,,,,,,,,,,,,,,,,,,,,,,,,,498.50332968798466,498.50332968798466,498.50332968798466,498.50332968798466,498.50332968798466,498.50332968798466,498.50332968798466,498.50332968798466,498.50332968798466,498.50332968798466,l,0.633804309007246,1,756,2,499.1543049470056,500.655817529012,,,,,,,,,,,,,,,,,,,,,,,,,,,,,,,,,,,,,,,,,,,,,,,,,,,,,,,,,,,,,,,,,,,,14066,2022-11-08_10h23.42.245,vts_reward_expectancy_bt_OFFLINE,2022.2.4,59.94715633633594,
,,,,,,,,,,,,,,,,,,0,0,0,0,0,0,0,0,,,,,,,,,,,,,,,,,,,,,,,,,,,,,,,,,,,,,,,,,,,,,,,,517.6911587229988,139,S,hexagon,0.002322143001947552,511.6838637639885,513.1864912349847,513.1864912349847,513.1864912349847,516.1896163519996,516.1896163519996,516.1896163519996,516.1896163519996,0,0,None,0,516.1896163519996,517.6911587229988,518.1917936450045,,,,,,,,,,,,,,,,,,,,,,,,,,,,,,,,,,,,,,,,,,,,,,,,,14066,2022-11-08_10h23.42.245,vts_reward_expectancy_bt_OFFLINE,2022.2.4,59.94715633633594,
,,,,,,,,,,,,,,,,,,0,0,0,0,1,0,1,0,,,,,,,,,,,,,,,,,,,,,,,,,,,,,,,,,,,,,,,,,,,,,,,,524.7156589860097,174,B,star,0.00944048198289238,518.7505916180089,520.1941805119859,520.1941805119859,520.1941805119859,523.1973543209897,,523.1973543209897,523.1973543209897,0,1,None,0,523.2140298679878,,,,,,,,,,,,,,,,,,,,,,,,,,,,,,,,,,,,,,,,,,,,,,,,,,,14066,2022-11-08_10h23.42.245,vts_reward_expectancy_bt_OFFLINE,2022.2.4,59.94715633633594,
,,,,,,,,,,,,,,,,,,0,0,0,0,2,0,2,0,,,,,,,,,,,,,,,,,,,,,,,,,,,,,,,,,,,,,,,,,,,,,,,,531.6900596790074,160,W,triangle,0.0009431679791305214,525.6813428649912,527.1850945100014,527.1850945100014,527.1850945100014,530.1883171779918,530.1883171779918,530.1883171779918,530.1883171779918,0,1,None,0,530.1883171779918,531.6900596790074,532.190509957989,,,,,,,,,,,,,,,,,,,,,,,,,,,,,,,,,,,,,,,,,,,,,,,,,14066,2022-11-08_10h23.42.245,vts_reward_expectancy_bt_OFFLINE,2022.2.4,59.94715633633594,
,,,,,,,,,,,,,,,,,,0,0,0,0,3,0,3,0,,,,,,,,,,,,,,,,,,,,,,,,,,,,,,,,,,,,,,,,,,,,,,,,538.6977010309929,146,D,circle,0.008169843000359833,532.6859486169997,534.1927670610021,534.1927670610021,534.1927670610021,537.1961779599951,537.1961779599951,537.1961779599951,537.1961779599951,0,1,None,0,537.1961779599951,538.6977010309929,539.1984039029921,,,,,,,,,,,,,,,,,,,,,,,,,,,,,,,,,,,,,,,,,,,,,,,,,14066,2022-11-08_10h23.42.245,vts_reward_expectancy_bt_OFFLINE,2022.2.4,59.94715633633594,
,,,,,,,,,,,,,,,,,,0,0,0,0,4,0,4,0,,,,,,,,,,,,,,,,,,,,,,,,,,,,,,,,,,,,,,,,,,,,,,,,545.6889125359885,125,U,star,4.937598714604974e-05,539.680899369996,541.1838994669961,541.1838994669961,541.1838994669961,544.187078952993,544.187078952993,544.187078952993,544.187078952993,0,1,None,0,544.187078952993,545.6889125359885,546.1893989540113,,,,,,,,,,,,,,,,,,,,,,,,,,,,,,,,,,,,,,,,,,,,,,,,,14066,2022-11-08_10h23.42.245,vts_reward_expectancy_bt_OFFLINE,2022.2.4,59.94715633633594,
,,,,,,,,,,,,,,,,,,0,0,0,0,5,0,5,0,,,,,,,,,,,,,,,,,,,,,,,,,,,,,,,,,,,,,,,,,,,,,,,,552.6964876609854,181,H,triangle,0.00704502098960802,546.6868437579833,548.1915393160016,548.1915393160016,548.1915393160016,551.194828459993,551.194828459993,551.194828459993,551.194828459993,0,1,None,0,551.194828459993,552.6964876609854,553.1972720799968,,,,,,,,,,,,,,,,,,,,,,,,,,,,,,,,,,,,,,,,,,,,,,,,,14066,2022-11-08_10h23.42.245,vts_reward_expectancy_bt_OFFLINE,2022.2.4,59.94715633633594,
,,,,,,,,,,,,,,,,,,0,0,0,0,6,0,6,0,,,,,,,,,,,,,,,,,,,,,,,,,,,,,,,,,,,,,,,,,,,,,,,,559.704252947995,167,F,circle,0.014918244996806607,553.6923764609965,555.1825987210032,555.1825987210032,555.1825987210032,558.1857870800013,,558.1857870800013,558.1857870800013,0,1,None,0,558.2026134869957,,,,,,,,,,,,,,,,,,,,,,,,,,,,,,,,,,,,,,,,,,,,,,,,,,,14066,2022-11-08_10h23.42.245,vts_reward_expectancy_bt_OFFLINE,2022.2.4,59.94715633633594,
,,,,,,,,,,,,,,,,,,0,0,0,0,7,0,7,0,,,,,,,,,,,,,,,,,,,,,,,,,,,,,,,,,,,,,,,,,,,,,,,,566.6955142729857,132,Y,hexagon,0.006128373992396519,560.6838503910112,562.1902836090012,562.1902836090012,562.1902836090012,565.1937559159996,565.1937559159996,565.1937559159996,565.1937559159996,0,1,None,0,565.1937559159996,566.6955142729857,567.1959647189942,,,,,,,,,,,,,,,,,,,,,,,,,,,,,,,,,,,,,,,,,,,,,,,,,14066,2022-11-08_10h23.42.245,vts_reward_expectancy_bt_OFFLINE,2022.2.4,59.94715633633594,
,,,,,,,,,,,,,,,,,,0,0,0,0,8,0,8,0,,,,,,,,,,,,,,,,,,,,,,,,,,,,,,,,,,,,,,,,,,,,,,,,573.703020195011,139,S,triangle,0.013609415997052565,567.6910050990118,569.1814296969969,569.1814296969969,569.1814296969969,572.18463543299,,572.18463543299,572.18463543299,0,1,None,0,572.2012647149968,,,,,,,,,,,,,,,,,,,,,,,,,,,,,,,,,,,,,,,,,,,,,,,,,,,14066,2022-11-08_10h23.42.245,vts_reward_expectancy_bt_OFFLINE,2022.2.4,59.94715633633594,
,,,,,,,,,,,,,,,,,,0,0,0,0,9,0,9,0,,,,,,,,,,,,,,,,,,,,,,,,,,,,,,,,,,,,,,,,,,,,,,,,580.6939233090088,174,B,hexagon,0.004890212003374472,574.6823955629952,576.1891713519872,576.1891713519872,576.1891713519872,579.1924575479934,579.1924575479934,579.1924575479934,579.1924575479934,0,1,None,0,579.1924575479934,580.6939233090088,581.1999456399935,,,,,,,,,,,,,,,,,,,,,,,,,,,,,,,,,,,,,,,,,,,,,,,,,14066,2022-11-08_10h23.42.245,vts_reward_expectancy_bt_OFFLINE,2022.2.4,59.94715633633594,
,,,,,,,,,,,,,,,,,,1,0,1,0,0,0,0,0,,,,,,,,,,,,,,,,,,,,,,,,,,,,,,,,,,,,,,,,,,,,,,,,610.8939948040061,146,U,hexagon,0.00210627299384214,606.9856616829929,608.4913519709953,608.4913519709953,608.4913519709953,,,,,1,1,d,1,609.3937469189987,,,0.8743082430155482,,,,,,,,,,,,,,,,,,,,,,,,,,,,,,,,,,,,,,,,,,,,,,,,14066,2022-11-08_10h23.42.245,vts_reward_expectancy_bt_OFFLINE,2022.2.4,59.94715633633594,
,,,,,,,,,,,,,,,,,,1,0,1,0,1,0,1,0,,,,,,,,,,,,,,,,,,,,,,,,,,,,,,,,,,,,,,,,,,,,,,,,615.8162903839839,181,D,triangle,0.0016496329917572439,611.8755549030029,613.3803223909927,613.3803223909927,613.3803223909927,,,,,1,0,f,1,614.3145005670085,,,0.9016891760111321,,,,,,,,,,,,,,,,,,,,,,,,,,,,,,,,,,,,,,,,,,,,,,,,14066,2022-11-08_10h23.42.245,vts_reward_expectancy_bt_OFFLINE,2022.2.4,59.94715633633594,
,,,,,,,,,,,,,,,,,,1,0,1,0,2,0,2,0,,,,,,,,,,,,,,,,,,,,,,,,,,,,,,,,,,,,,,,,,,,,,,,,620.8217966869997,125,H,star,0.0015524280024692416,616.7978125310037,618.3022658929985,618.3022658929985,618.3022658929985,,,,,1,0,d,1,619.3199746850005,,,0.9985963080252986,,,,,,,,,,,,,,,,,,,,,,,,,,,,,,,,,,,,,,,,,,,,,,,,14066,2022-11-08_10h23.42.245,vts_reward_expectancy_bt_OFFLINE,2022.2.4,59.94715633633594,
,,,,,,,,,,,,,,,,,,1,0,1,0,3,0,3,0,,,,,,,,,,,,,,,,,,,,,,,,,,,,,,,,,,,,,,,,,,,,,,,,625.7605522279919,167,B,circle,0.0018335830245632678,621.8030547229864,623.3077751630044,623.3077751630044,623.3077751630044,,,,,1,0,f,1,624.2588008849998,,,0.920464801019989,,,,,,,,,,,,,,,,,,,,,,,,,,,,,,,,,,,,,,,,,,,,,,,,14066,2022-11-08_10h23.42.245,vts_reward_expectancy_bt_OFFLINE,2022.2.4,59.94715633633594,
,,,,,,,,,,,,,,,,,,1,0,1,0,4,0,4,0,,,,,,,,,,,,,,,,,,,,,,,,,,,,,,,,,,,,,,,,,,,,,,,,630.6993918220105,139,Y,star,0.0015157599991653115,626.7400159809913,628.2466964529885,628.2466964529885,628.2466964529885,,,,,1,0,d,1,629.1977241529967,,,0.9328531550127082,,,,,,,,,,,,,,,,,,,,,,,,,,,,,,,,,,,,,,,,,,,,,,,,14066,2022-11-08_10h23.42.245,vts_reward_expectancy_bt_OFFLINE,2022.2.4,59.94715633633594,
,,,,,,,,,,,,,,,,,,1,0,1,0,5,0,5,0,,,,,,,,,,,,,,,,,,,,,,,,,,,,,,,,,,,,,,,,,,,,,,,,635.4379060940119,174,W,triangle,0.001737601007334888,631.6804550439992,633.1853621460032,633.1853621460032,633.1853621460032,,,,,1,0,f,1,633.9361229779897,,,0.7295894900162239,,,,,,,,,,,,,,,,,,,,,,,,,,,,,,,,,,,,,,,,,,,,,,,,14066,2022-11-08_10h23.42.245,vts_reward_expectancy_bt_OFFLINE,2022.2.4,59.94715633633594,
,,,,,,,,,,,,,,,,,,1,0,1,0,6,0,6,0,,,,,,,,,,,,,,,,,,,,,,,,,,,,,,,,,,,,,,,,,,,,,,,,642.0284484449949,160,F,circle,0.001806198008125648,636.4169915489911,637.9236937600072,637.9236937600072,637.9236937600072,,,,,1,0,f,1,640.5268792920106,,,2.5842259140044916,,,,,,,,,,,,,,,,,,,,,,,,,,,,,,,,,,,,,,,,,,,,,,,,14066,2022-11-08_10h23.42.245,vts_reward_expectancy_bt_OFFLINE,2022.2.4,59.94715633633594,
,,,,,,,,,,,,,,,,,,1,0,1,0,7,0,7,0,,,,,,,,,,,,,,,,,,,,,,,,,,,,,,,,,,,,,,,,,,,,,,,,646.6835473850078,132,S,hexagon,0.0016880829934962094,643.0080690119939,644.5144353320065,644.5144353320065,644.5144353320065,,,,,1,0,d,1,645.1818273740064,,,0.639613156003179,,,,,,,,,,,,,,,,,,,,,,,,,,,,,,,,,,,,,,,,,,,,,,,,14066,2022-11-08_10h23.42.245,vts_reward_expectancy_bt_OFFLINE,2022.2.4,59.94715633633594,
,,,,,,,,,,,,,,,,,,1,0,1,0,8,0,8,0,,,,,,,,,,,,,,,,,,,,,,,,,,,,,,,,,,,,,,,,,,,,,,,,651.5556796900055,146,U,triangle,0.0016216799849644303,647.6622182189894,649.1696477209916,649.1696477209916,649.1696477209916,,,,,1,0,d,1,650.0539907400089,,,0.8674222439876758,,,,,,,,,,,,,,,,,,,,,,,,,,,,,,,,,,,,,,,,,,,,,,,,14066,2022-11-08_10h23.42.245,vts_reward_expectancy_bt_OFFLINE,2022.2.4,59.94715633633594,
,,,,,,,,,,,,,,,,,,1,0,1,0,9,0,9,0,,,,,,,,,,,,,,,,,,,,,,,,,,,,,,,,,,,,,,,,,,,,,,,,656.1106665399857,181,D,hexagon,0.0014175440010149032,652.5353557890048,654.0416709519923,654.0416709519923,654.0416709519923,,,,,1,0,f,1,654.6090832240006,,,0.5406256150163244,,,,,,,,,,,,,,,,,,,,,,,,,,,,,,,,,,,,,,,,,,,,,,,,14066,2022-11-08_10h23.42.245,vts_reward_expectancy_bt_OFFLINE,2022.2.4,59.94715633633594,
,,,,,,,,,,,,,,,,,,,,,,,,,,0,0,0,0,0,0,0,0,,,,,,,,,,,,,,,,,,,,,,,,,,,,,,,,,,,,,,,,675.1482451639895,132,D,hexagon,0.002197502995841205,,,,,,,,,1,0,,2,673.6466748100065,,,,670.5555967029941,672.0616575609893,672.0616575609893,672.0616575609893,j,1.567831861000741,,,,,,,,,,,,,,,,,,,,,,,,,,,,,,,,,,,,,,,,,,14066,2022-11-08_10h23.42.245,vts_reward_expectancy_bt_OFFLINE,2022.2.4,59.94715633633594,
,,,,,,,,,,,,,,,,,,,,,,,,,,0,0,0,0,1,0,1,0,,,,,,,,,,,,,,,,,,,,,,,,,,,,,,,,,,,,,,,,680.0201990930072,167,W,triangle,0.0016371379897464067,,,,,,,,,1,0,,2,678.5186467159947,,,,676.1260944230016,677.6343797699956,677.6343797699956,677.6343797699956,k,0.8664547790249344,,,,,,,,,,,,,,,,,,,,,,,,,,,,,,,,,,,,,,,,,,14066,2022-11-08_10h23.42.245,vts_reward_expectancy_bt_OFFLINE,2022.2.4,59.94715633633594,
,,,,,,,,,,,,,,,,,,,,,,,,,,0,0,0,0,2,0,2,0,,,,,,,,,,,,,,,,,,,,,,,,,,,,,,,,,,,,,,,,684.8254952600109,139,F,star,0.0014819469943176955,,,,,,,,,1,0,,2,683.3239141069935,,,,680.9998406329833,682.5064509799995,682.5064509799995,682.5064509799995,j,0.7970188389881514,,,,,,,,,,,,,,,,,,,,,,,,,,,,,,,,,,,,,,,,,,14066,2022-11-08_10h23.42.245,vts_reward_expectancy_bt_OFFLINE,2022.2.4,59.94715633633594,
,,,,,,,,,,,,,,,,,,,,,,,,,,0,0,0,0,3,0,3,0,,,,,,,,,,,,,,,,,,,,,,,,,,,,,,,,,,,,,,,,689.5641782830062,181,Y,circle,0.0018261990044265985,,,,,,,,,1,0,,2,688.062632924004,,,,685.8047194549872,687.3118194279959,687.3118194279959,687.3118194279959,k,0.7176795010163914,,,,,,,,,,,,,,,,,,,,,,,,,,,,,,,,,,,,,,,,,,14066,2022-11-08_10h23.42.245,vts_reward_expectancy_bt_OFFLINE,2022.2.4,59.94715633633594,
,,,,,,,,,,,,,,,,,,,,,,,,,,0,0,0,0,4,0,4,0,,,,,,,,,,,,,,,,,,,,,,,,,,,,,,,,,,,,,,,,694.3027061180037,160,H,triangle,0.0016975610051304102,,,,,,,,,1,0,,2,692.8011231700075,,,,690.5427578509843,692.0503282439895,692.0503282439895,692.0503282439895,j,0.7267594910226762,,,,,,,,,,,,,,,,,,,,,,,,,,,,,,,,,,,,,,,,,,14066,2022-11-08_10h23.42.245,vts_reward_expectancy_bt_OFFLINE,2022.2.4,59.94715633633594,
,,,,,,,,,,,,,,,,,,,,,,,,,,0,0,0,0,5,0,5,0,,,,,,,,,,,,,,,,,,,,,,,,,,,,,,,,,,,,,,,,699.692048388999,125,S,star,0.0016743580054026097,,,,,,,,,1,0,,2,698.1903017990116,,,,695.2825124099909,696.7887560350064,696.7887560350064,696.7887560350064,k,1.3772758989944123,,,,,,,,,,,,,,,,,,,,,,,,,,,,,,,,,,,,,,,,,,14066,2022-11-08_10h23.42.245,vts_reward_expectancy_bt_OFFLINE,2022.2.4,59.94715633633594,
,,,,,,,,,,,,,,,,,,,,,,,,,,0,0,0,0,6,0,6,0,,,,,,,,,,,,,,,,,,,,,,,,,,,,,,,,,,,,,,,,704.4305916159938,174,B,circle,0.0017764309886842966,,,,,,,,,1,0,,2,702.9289051409869,,,,700.6707983879896,702.1780679640069,702.1780679640069,702.1780679640069,j,0.7236506110057235,,,,,,,,,,,,,,,,,,,,,,,,,,,,,,,,,,,,,,,,,,14066,2022-11-08_10h23.42.245,vts_reward_expectancy_bt_OFFLINE,2022.2.4,59.94715633633594,
,,,,,,,,,,,,,,,,,,,,,,,,,,0,0,0,0,7,0,7,0,,,,,,,,,,,,,,,,,,,,,,,,,,,,,,,,,,,,,,,,709.4695030000003,146,U,hexagon,0.0017388809937983751,,,,,,,,,1,0,,2,707.9678256920015,,,,705.4104007029964,706.9165782250057,706.9165782250057,706.9165782250057,k,1.0241861770045944,,,,,,,,,,,,,,,,,,,,,,,,,,,,,,,,,,,,,,,,,,14066,2022-11-08_10h23.42.245,vts_reward_expectancy_bt_OFFLINE,2022.2.4,59.94715633633594,
,,,,,,,,,,,,,,,,,,,,,,,,,,0,0,0,0,8,0,8,0,,,,,,,,,,,,,,,,,,,,,,,,,,,,,,,,,,,,,,,,714.1747917059984,132,D,circle,0.0016108450072351843,,,,,,,,,1,0,,2,712.6731515869906,,,,710.4479922020109,711.9557097840006,711.9557097840006,711.9557097840006,j,0.6902676620229613,,,,,,,,,,,,,,,,,,,,,,,,,,,,,,,,,,,,,,,,,,14066,2022-11-08_10h23.42.245,vts_reward_expectancy_bt_OFFLINE,2022.2.4,59.94715633633594,
,,,,,,,,,,,,,,,,,,,,,,,,,,0,0,0,0,9,0,9,0,,,,,,,,,,,,,,,,,,,,,,,,,,,,,,,,,,,,,,,,718.7796693929995,167,W,star,0.0016285880119539797,,,,,,,,,1,0,,2,717.2779906269861,,,,715.1544558669848,716.6606882110063,716.6606882110063,716.6606882110063,k,0.5848752680176403,,,,,,,,,,,,,,,,,,,,,,,,,,,,,,,,,,,,,,,,,,14066,2022-11-08_10h23.42.245,vts_reward_expectancy_bt_OFFLINE,2022.2.4,59.94715633633594,
,,,,,,,,,,,,,,,,,,,,,,,,,,,,,,,,,,0,0,0,0,0,0,0,0,,,,,,,,,,,,,,,,,,,,,,,,,,,,0,756,,,759.3746093549998,160,Y,circle,0.002151298976968974,,,,,,,,,1,0,,3,,,,,,,,,,,755.1004371900053,755.1004371900053,755.1004371900053,755.1004371900053,756.6048141079955,756.6048141079955,756.6048141079955,756.6048141079955,756.6048141079955,756.6048141079955,756.6048141079955,756.6048141079955,-1,number,NA,f,1.2432112410315312,vtsPrac,757.8732002069883,,,,,,,,,,,,,,,,,,,,,,,14066,2022-11-08_10h23.42.245,vts_reward_expectancy_bt_OFFLINE,2022.2.4,59.94715633633594,
,,,,,,,,,,,,,,,,,,,,,,,,,,,,,,,,,,0,0,0,0,1,0,1,0,,,,,,,,,,,,,,,,,,,,,,,,,,,,0,756,,,764.3467738250038,174,B,triangle,0.0014423649990931153,,,,,,,,,1,0,,3,,,,,,,,,,,760.3577360970085,760.3577360970085,760.3577360970085,760.3577360970085,761.8606357430108,761.8606357430108,761.8606357430108,761.8606357430108,761.8606357430108,761.8606357430108,761.8606357430108,761.8606357430108,switch,letter,lettSwt,j,0.9604909250047058,vtsPrac,762.8451188599865,,,,,,,,,,,,,,,,,,,,,,,14066,2022-11-08_10h23.42.245,vts_reward_expectancy_bt_OFFLINE,2022.2.4,59.94715633633594,
,,,,,,,,,,,,,,,,,,,,,,,,,,,,,,,,,,0,0,0,0,2,0,2,0,,,,,,,,,,,,,,,,,,,,,,,,,,,,0,756,,,769.3354306399997,167,S,star,0.0015417659888044,,,,,,,,,1,0,,3,,,,,,,,,,,765.3265034490032,765.3265034490032,765.3265034490032,765.3265034490032,766.8327420389978,766.8327420389978,766.8327420389978,766.8327420389978,766.8327420389978,766.8327420389978,766.8327420389978,766.8327420389978,switch,number,numSwt,f,0.9729681860189885,vtsPrac,767.8339777679939,,,,,,,,,,,,,,,,,,,,,,,14066,2022-11-08_10h23.42.245,vts_reward_expectancy_bt_OFFLINE,2022.2.4,59.94715633633594,
,,,,,,,,,,,,,,,,,,,,,,,,,,,,,,,,,,0,0,0,0,3,0,3,0,,,,,,,,,,,,,,,,,,,,,,,,,,,,0,756,,,775.7425964649883,125,H,triangle,0.0013494380109477788,,,,,,,,,1,0,,3,,,,,,,,,,,770.3170177419961,770.3170177419961,770.3170177419961,770.3170177419961,771.8216045050067,771.8216045050067,771.8216045050067,771.8216045050067,771.8216045050067,771.8216045050067,771.8216045050067,771.8216045050067,repeat,number,numRpt,d,2.3962096520117484,vtsPrac,774.2408183290099,,,,,,,,,,,,,,,,,,,,,,,14066,2022-11-08_10h23.42.245,vts_reward_expectancy_bt_OFFLINE,2022.2.4,59.94715633633594,
,,,,,,,,,,,,,,,,,,,,,,,,,,,,,,,,,,0,0,0,0,4,0,4,0,,,,,,,,,,,,,,,,,,,,,,,,,,,,0,756,,,780.5647010749963,160,Y,hexagon,0.0015948930231388658,,,,,,,,,1,0,,3,,,,,,,,,,,776.7218611679855,776.7218611679855,776.7218611679855,776.7218611679855,778.2286420839955,778.2286420839955,778.2286420839955,778.2286420839955,778.2286420839955,778.2286420839955,778.2286420839955,778.2286420839955,repeat,number,numRpt,f,0.8039170550182462,vtsPrac,779.0629128389992,,,,,,,,,,,,,,,,,,,,,,,14066,2022-11-08_10h23.42.245,vts_reward_expectancy_bt_OFFLINE,2022.2.4,59.94715633633594,
,,,,,,,,,,,,,,,,,,,,,,,,,,,,,,,,,,0,0,0,0,5,0,5,0,,,,,,,,,,,,,,,,,,,,,,,,,,,,0,756,,,785.2698209430091,174,B,star,0.0016479300102218986,,,,,,,,,1,0,,3,,,,,,,,,,,781.5443351739959,781.5443351739959,781.5443351739959,781.5443351739959,783.0505632339919,783.0505632339919,783.0505632339919,783.0505632339919,783.0505632339919,783.0505632339919,783.0505632339919,783.0505632339919,switch,letter,lettSwt,j,0.6962631120113656,vtsPrac,783.7680419730023,,,,,,,,,,,,,,,,,,,,,,,14066,2022-11-08_10h23.42.245,vts_reward_expectancy_bt_OFFLINE,2022.2.4,59.94715633633594,
,,,,,,,,,,,,,,,,,,,,,,,,,,,,,,,,,,0,0,0,0,6,0,6,0,,,,,,,,,,,,,,,,,,,,,,,,,,,,0,756,,,790.2253772100084,167,S,hexagon,0.0017152760119643062,,,,,,,,,1,0,,3,,,,,,,,,,,786.2509928299987,786.2509928299987,786.2509928299987,786.2509928299987,787.7559530790022,787.7559530790022,787.7559530790022,787.7559530790022,787.7559530790022,787.7559530790022,787.7559530790022,787.7559530790022,repeat,letter,lettRpt,k,0.9401839850179385,vtsPrac,788.7237003750051,,,,,,,,,,,,,,,,,,,,,,,14066,2022-11-08_10h23.42.245,vts_reward_expectancy_bt_OFFLINE,2022.2.4,59.94715633633594,
,,,,,,,,,,,,,,,,,,,,,,,,,,,,,,,,,,0,0,0,0,7,0,7,0,,,,,,,,,,,,,,,,,,,,,,,,,,,,0,756,,,794.9305005639908,125,H,triangle,0.001663995994022116,,,,,,,,,1,0,,3,,,,,,,,,,,791.2049458340043,791.2049458340043,791.2049458340043,791.2049458340043,792.7113745879906,792.7113745879906,792.7113745879906,792.7113745879906,792.7113745879906,792.7113745879906,792.7113745879906,792.7113745879906,switch,number,numSwt,d,0.7002873360179365,vtsPrac,793.4288645150082,,,,,,,,,,,,,,,,,,,,,,,14066,2022-11-08_10h23.42.245,vts_reward_expectancy_bt_OFFLINE,2022.2.4,59.94715633633594,
,,,,,,,,,,,,,,,,,,,,,,,,,,,,,,,,,,0,0,0,0,8,0,8,0,,,,,,,,,,,,,,,,,,,,,,,,,,,,0,756,,,800.6033932240098,160,U,star,0.001674570987233892,,,,,,,,,1,0,,3,,,,,,,,,,,795.910940945003,795.910940945003,795.910940945003,795.910940945003,797.4166477890103,797.4166477890103,797.4166477890103,797.4166477890103,797.4166477890103,797.4166477890103,797.4166477890103,797.4166477890103,repeat,number,numRpt,f,1.6534014630015008,vtsPrac,799.1016619360016,,,,,,,,,,,,,,,,,,,,,,,14066,2022-11-08_10h23.42.245,vts_reward_expectancy_bt_OFFLINE,2022.2.4,59.94715633633594,
,,,,,,,,,,,,,,,,,,,,,,,,,,,,,,,,,,0,0,0,0,9,0,9,0,,,,,,,,,,,,,,,,,,,,,,,,,,,,0,756,,,805.658937545988,174,W,hexagon,0.0015994929999578744,,,,,,,,,1,0,,3,,,,,,,,,,,801.5852042979968,801.5852042979968,801.5852042979968,801.5852042979968,803.0895521809871,803.0895521809871,803.0895521809871,803.0895521809871,803.0895521809871,803.0895521809871,803.0895521809871,803.0895521809871,repeat,number,numRpt,f,1.0423419730213936,vtsPrac,804.1573165130103,,,,,,,,,,,,,,,,,,,,,,,14066,2022-11-08_10h23.42.245,vts_reward_expectancy_bt_OFFLINE,2022.2.4,59.94715633633594,
,,,,,,,,,,,,,,,,,,,,,,,,,,,,,,,,,,0,0,0,0,10,0,10,0,,,,,,,,,,,,,,,,,,,,,,,,,,,,0,756,,,811.9825129109959,139,F,circle,0.0016022770141717046,,,,,,,,,1,0,,3,,,,,,,,,,,806.642047914007,806.642047914007,806.642047914007,806.642047914007,808.1450783509936,808.1450783509936,808.1450783509936,808.1450783509936,808.1450783509936,808.1450783509936,808.1450783509936,808.1450783509936,repeat,number,numRpt,d,2.3090316250163596,vtsPrac,810.4808450359851,,,,,,,,,,,,,,,,,,,,,,,14066,2022-11-08_10h23.42.245,vts_reward_expectancy_bt_OFFLINE,2022.2.4,59.94715633633594,
,,,,,,,,,,,,,,,,,,,,,,,,,,,,,,,,,,0,0,0,0,11,0,11,0,,,,,,,,,,,,,,,,,,,,,,,,,,,,0,756,,,817.8224243950099,167,H,hexagon,0.0018395949737168849,,,,,,,,,1,0,,3,,,,,,,,,,,812.9618313469982,812.9618313469982,812.9618313469982,812.9618313469982,814.468621818989,814.468621818989,814.468621818989,814.468621818989,814.468621818989,814.468621818989,814.468621818989,814.468621818989,repeat,number,numRpt,f,1.824956853990443,vtsPrac,816.3208386689948,,,,,,,,,,,,,,,,,,,,,,,14066,2022-11-08_10h23.42.245,vts_reward_expectancy_bt_OFFLINE,2022.2.4,59.94715633633594,
,,,,,,,,,,,,,,,,,,,,,,,,,,,,,,,,,,0,0,0,0,12,0,12,0,,,,,,,,,,,,,,,,,,,,,,,,,,,,0,756,,,822.6110125810083,174,Y,triangle,0.0015814009821042418,,,,,,,,,1,0,,3,,,,,,,,,,,818.8035379970097,818.8035379970097,818.8035379970097,818.8035379970097,820.3084954530059,820.3084954530059,820.3084954530059,820.3084954530059,820.3084954530059,820.3084954530059,820.3084954530059,820.3084954530059,switch,letter,lettSwt,k,0.7783431770221796,vtsPrac,821.1093031979981,,,,,,,,,,,,,,,,,,,,,,,14066,2022-11-08_10h23.42.245,vts_reward_expectancy_bt_OFFLINE,2022.2.4,59.94715633633594,
,,,,,,,,,,,,,,,,,,,,,,,,,,,,,,,,,,0,0,0,0,13,0,13,0,,,,,,,,,,,,,,,,,,,,,,,,,,,,0,756,,,827.4329037719872,132,W,star,0.0015128509839996696,,,,,,,,,1,0,,3,,,,,,,,,,,823.5901220749947,823.5901220749947,823.5901220749947,823.5901220749947,825.0971766109869,825.0971766109869,825.0971766109869,825.0971766109869,825.0971766109869,825.0971766109869,825.0971766109869,825.0971766109869,repeat,letter,lettRpt,k,0.8166647230100352,vtsPrac,825.9312654499954,,,,,,,,,,,,,,,,,,,,,,,14066,2022-11-08_10h23.42.245,vts_reward_expectancy_bt_OFFLINE,2022.2.4,59.94715633633594,
,,,,,,,,,,,,,,,,,,,,,,,,,,,,,,,,,,0,0,0,0,14,0,14,0,,,,,,,,,,,,,,,,,,,,,,,,,,,,0,756,,,832.872218673001,167,H,hexagon,0.001766964007401839,,,,,,,,,1,0,,3,,,,,,,,,,,828.4121845589834,828.4121845589834,828.4121845589834,828.4121845589834,829.9191576080048,829.9191576080048,829.9191576080048,829.9191576080048,829.9191576080048,829.9191576080048,829.9191576080048,829.9191576080048,switch,number,numSwt,f,1.4272084520198405,vtsPrac,831.3708424420038,,,,,,,,,,,,,,,,,,,,,,,14066,2022-11-08_10h23.42.245,vts_reward_expectancy_bt_OFFLINE,2022.2.4,59.94715633633594,
,,,,,,,,,,,,,,,,,,,,,,,,,,,,,,,,,,0,0,0,0,15,0,15,0,,,,,,,,,,,,,,,,,,,,,,,,,,,,0,756,,,838.5952521639992,146,D,triangle,0.0015297879872377962,,,,,,,,,1,0,,3,,,,,,,,,,,833.8515785449999,833.8515785449999,833.8515785449999,833.8515785449999,835.3582493290014,835.3582493290014,835.3582493290014,835.3582493290014,835.3582493290014,835.3582493290014,835.3582493290014,835.3582493290014,switch,letter,lettSwt,j,1.7037174370198045,vtsPrac,837.0934700089856,,,,,,,,,,,,,,,,,,,,,,,14066,2022-11-08_10h23.42.245,vts_reward_expectancy_bt_OFFLINE,2022.2.4,59.94715633633594,
,,,,,,,,,,,,,,,,,,,,,,,,,,,,,,,,,,0,0,0,0,16,0,16,0,,,,,,,,,,,,,,,,,,,,,,,,,,,,0,756,,,844.4350001800049,167,D,hexagon,0.0015299380174838006,,,,,,,,,1,0,,3,,,,,,,,,,,839.5733472889988,839.5733472889988,839.5733472889988,839.5733472889988,841.0812005159969,841.0812005159969,841.0812005159969,841.0812005159969,841.0812005159969,841.0812005159969,841.0812005159969,841.0812005159969,repeat,letter,lettRpt,j,1.8311491039930843,vtsPrac,842.9331875969947,,,,,,,,,,,,,,,,,,,,,,,14066,2022-11-08_10h23.42.245,vts_reward_expectancy_bt_OFFLINE,2022.2.4,59.94715633633594,
,,,,,,,,,,,,,,,,,,,,,,,,,,,,,,,,,,0,0,0,0,17,0,17,0,,,,,,,,,,,,,,,,,,,,,,,,,,,,0,756,,,849.3403735370084,132,S,star,0.0016030700062401593,,,,,,,,,1,0,,3,,,,,,,,,,,845.414291447989,845.414291447989,845.414291447989,845.414291447989,846.9208961800032,846.9208961800032,846.9208961800032,846.9208961800032,846.9208961800032,846.9208961800032,846.9208961800032,846.9208961800032,repeat,letter,lettRpt,k,0.8855158920050599,vtsPrac,847.838684294984,,,,,,,,,,,,,,,,,,,,,,,14066,2022-11-08_10h23.42.245,vts_reward_expectancy_bt_OFFLINE,2022.2.4,59.94715633633594,
,,,,,,,,,,,,,,,,,,,,,,,,,,,,,,,,,,0,0,0,0,18,0,18,0,,,,,,,,,,,,,,,,,,,,,,,,,,,,0,756,,,854.6794558429974,174,H,circle,0.0016968540148809552,,,,,,,,,1,0,,3,,,,,,,,,,,850.3195790169993,850.3195790169993,850.3195790169993,850.3195790169993,851.8265135200054,851.8265135200054,851.8265135200054,851.8265135200054,851.8265135200054,851.8265135200054,851.8265135200054,851.8265135200054,switch,number,numSwt,f,1.3245892700215336,vtsPrac,853.1778309890069,,,,,,,,,,,,,,,,,,,,,,,14066,2022-11-08_10h23.42.245,vts_reward_expectancy_bt_OFFLINE,2022.2.4,59.94715633633594,
,,,,,,,,,,,,,,,,,,,,,,,,,,,,,,,,,,0,0,0,0,19,0,19,0,,,,,,,,,,,,,,,,,,,,,,,,,,,,0,756,,,859.7351291789964,146,Y,triangle,0.0017169959901366383,,,,,,,,,1,0,,3,,,,,,,,,,,855.6591186409933,855.6591186409933,855.6591186409933,855.6591186409933,857.1657377209922,857.1657377209922,857.1657377209922,857.1657377209922,857.1657377209922,857.1657377209922,857.1657377209922,857.1657377209922,switch,letter,lettSwt,k,1.0353441160114016,vtsPrac,858.2335243999842,,,,,,,,,,,,,,,,,,,,,,,14066,2022-11-08_10h23.42.245,vts_reward_expectancy_bt_OFFLINE,2022.2.4,59.94715633633594,
,,,,,,,,,,,,,,,,,,,,,,,,,,,,,,,,,,0,0,0,0,20,0,20,0,,,,,,,,,,,,,,,,,,,,,,,,,,,,0,756,,,864.990941297001,181,F,star,0.0016050059930421412,,,,,,,,,1,0,,3,,,,,,,,,,,860.714654927986,860.714654927986,860.714654927986,860.714654927986,862.221197248,862.221197248,862.221197248,862.221197248,862.221197248,862.221197248,862.221197248,862.221197248,switch,number,numSwt,f,1.2447527980257291,vtsPrac,863.4892933059891,,,,,,,,,,,,,,,,,,,,,,,14066,2022-11-08_10h23.42.245,vts_reward_expectancy_bt_OFFLINE,2022.2.4,59.94715633633594,
,,,,,,,,,,,,,,,,,,,,,,,,,,,,,,,,,,0,0,0,0,21,0,21,0,,,,,,,,,,,,,,,,,,,,,,,,,,,,0,756,,,871.431545236992,146,D,hexagon,0.001691417011898011,,,,,,,,,1,0,,3,,,,,,,,,,,865.9702406520082,865.9702406520082,865.9702406520082,865.9702406520082,867.4770282419922,867.4770282419922,867.4770282419922,867.4770282419922,867.4770282419922,867.4770282419922,867.4770282419922,867.4770282419922,repeat,number,numRpt,d,2.425395185011439,vtsPrac,869.9298931339872,,,,,,,,,,,,,,,,,,,,,,,14066,2022-11-08_10h23.42.245,vts_reward_expectancy_bt_OFFLINE,2022.2.4,59.94715633633594,
,,,,,,,,,,,,,,,,,,,,,,,,,,,,,,,,,,0,0,0,0,22,0,22,0,,,,,,,,,,,,,,,,,,,,,,,,,,,,0,756,,,876.4202938920062,139,Y,triangle,0.001607637997949496,,,,,,,,,1,0,,3,,,,,,,,,,,872.4109737300023,872.4109737300023,872.4109737300023,872.4109737300023,873.9174808450043,873.9174808450043,873.9174808450043,873.9174808450043,873.9174808450043,873.9174808450043,873.9174808450043,873.9174808450043,switch,letter,lettSwt,k,0.9688631430035457,vtsPrac,874.9187962870055,,,,,,,,,,,,,,,,,,,,,,,14066,2022-11-08_10h23.42.245,vts_reward_expectancy_bt_OFFLINE,2022.2.4,59.94715633633594,
