LTriangleOpac,LCircleOpac,LHexagonOpac,LStarOpac,RTriangleOpac,RCircleOpac,RHexagonOpac,RStarOpac,LShape_ID,RShape_ID,training_blocks.thisRepN,training_blocks.thisTrialN,training_blocks.thisN,training_blocks.thisIndex,training.thisRepN,training.thisTrialN,training.thisN,training.thisIndex,task1_prac_redo.thisRepN,task1_prac_redo.thisTrialN,task1_prac_redo.thisN,task1_prac_redo.thisIndex,task1_prac_trials.thisRepN,task1_prac_trials.thisTrialN,task1_prac_trials.thisN,task1_prac_trials.thisIndex,task2_prac_redo.thisRepN,task2_prac_redo.thisTrialN,task2_prac_redo.thisN,task2_prac_redo.thisIndex,task2_praac_trials.thisRepN,task2_praac_trials.thisTrialN,task2_praac_trials.thisN,task2_praac_trials.thisIndex,vts_prac_redo.thisRepN,vts_prac_redo.thisTrialN,vts_prac_redo.thisN,vts_prac_redo.thisIndex,vts_practice_trials.thisRepN,vts_practice_trials.thisTrialN,vts_practice_trials.thisN,vts_practice_trials.thisIndex,trials_norew.thisRepN,trials_norew.thisTrialN,trials_norew.thisN,trials_norew.thisIndex,block.thisRepN,block.thisTrialN,block.thisN,block.thisIndex,trials_rew.thisRepN,trials_rew.thisTrialN,trials_rew.thisN,trials_rew.thisIndex,key_resp.started,key_resp.keys,key_resp.rt,left_circle.started,right_circle.started,left_triangle.started,right_triangle.started,left_star.started,right_star.started,left_hexagon.started,right_hexagon.started,training_fix.started,training_resp.started,training_resp.keys,training_resp.rt,points_trial,points_cumul,trainBlock,training_feedback_txt.started,fix.started,training_feedback_txt.stopped,fix.stopped,curr_topStim,curr_bottStim,curr_shape,ISI.started,tgt_fix_prac1.started,top_target_prac1.started,bott_target_prac1.started,target_resp_prac1.started,acc,E1,target_resp_prac1.keys,target_resp_prac1.rt,pracBlock,prac_fback_text.started,prac_fback_text.stopped,tgt_fix_prac2.started,top_target_prac2.started,bott_target_prac2.started,target_resp_prac2.started,target_resp_prac2.keys,target_resp_prac2.rt,star.started,hegagon.started,triangle.started,circle.started,top_target.started,tgt_fix.started,bot_target.started,target_resp.started,star.stopped,hegagon.stopped,triangle.stopped,circle.stopped,alt,task,condition,target_resp.keys,target_resp.rt,rewCond,vts_fback.started,vts_fback.stopped,blockNum,norew_fback.started,norew_fback.stopped,key_resp_2.keys,key_resp_2.rt,rewExpectancy,feedbk_text.started,feedbk_text.stopped,text_3.started,text_3.stopped,button.started,debrief.index,debrief.itemText,debrief.type,debrief.granularity,debrief.font,debrief.markerColor,debrief.response,debrief.rt,button.numClicks,button.timesOn,button.timesOff,participant,date,expName,psychopyVersion,frameRate,
,,,,,,,,,,,,,,,,,,,,,,,,,,,,,,,,,,,,,,,,,,,,,,,,,,,,,,2080.231056033983,space,1.3701514530112036,,,,,,,,,,,,,,,,,,,,,,,,,,,,,,,,,,,,,,,,,,,,,,,,,,,,,,,,,,,,,,,,,,,,,,,,,,,,,,,,,,,16592,2022-10-28_15h15.59.757,vts_reward_expectancy_bt_OFFLINE,2022.2.4,60.1094454735859,
0,0,0,1,1,0,0,0,star,triangle,0,0,0,0,0,0,0,9,,,,,,,,,,,,,,,,,,,,,,,,,,,,,,,,,,,,,,,,2082.9172761859954,2082.9172761859954,2082.9172761859954,2082.9172761859954,2082.9172761859954,2082.9172761859954,2082.9172761859954,2082.9172761859954,2082.9172761859954,2082.9172761859954,a,29.165854299033526,1,1,0,2112.1158375990344,2113.61740396003,,,,,,,,,,,,,,,,,,,,,,,,,,,,,,,,,,,,,,,,,,,,,,,,,,,,,,,,,,,,,,,,,,16592,2022-10-28_15h15.59.757,vts_reward_expectancy_bt_OFFLINE,2022.2.4,60.1094454735859,
0,1,0,0,1,0,0,0,circle,triangle,0,0,0,0,0,1,1,3,,,,,,,,,,,,,,,,,,,,,,,,,,,,,,,,,,,,,,,,2114.1181659260183,2114.1181659260183,2114.1181659260183,2114.1181659260183,2114.1181659260183,2114.1181659260183,2114.1181659260183,2114.1181659260183,2114.1181659260183,2114.1181659260183,a,2.170391018036753,10,11,0,2116.320454913017,2117.822365469008,,,,,,,,,,,,,,,,,,,,,,,,,,,,,,,,,,,,,,,,,,,,,,,,,,,,,,,,,,,,,,,,,,16592,2022-10-28_15h15.59.757,vts_reward_expectancy_bt_OFFLINE,2022.2.4,60.1094454735859,
0,0,0,1,0,1,0,0,star ,circle,0,0,0,0,0,2,2,10,,,,,,,,,,,,,,,,,,,,,,,,,,,,,,,,,,,,,,,,2118.322775974986,2118.322775974986,2118.322775974986,2118.322775974986,2118.322775974986,2118.322775974986,2118.322775974986,2118.322775974986,2118.322775974986,2118.322775974986,a,2.136253507982474,10,21,0,2120.491830304032,2121.993641278008,,,,,,,,,,,,,,,,,,,,,,,,,,,,,,,,,,,,,,,,,,,,,,,,,,,,,,,,,,,,,,,,,,16592,2022-10-28_15h15.59.757,vts_reward_expectancy_bt_OFFLINE,2022.2.4,60.1094454735859,
0,0,0,1,0,0,1,0,star,hexagon,0,0,0,0,0,3,3,11,,,,,,,,,,,,,,,,,,,,,,,,,,,,,,,,,,,,,,,,2122.494043641025,2122.494043641025,2122.494043641025,2122.494043641025,2122.494043641025,2122.494043641025,2122.494043641025,2122.494043641025,2122.494043641025,2122.494043641025,a,1.7953554820269346,1,22,0,2124.312687996018,2125.8143930240185,,,,,,,,,,,,,,,,,,,,,,,,,,,,,,,,,,,,,,,,,,,,,,,,,,,,,,,,,,,,,,,,,,16592,2022-10-28_15h15.59.757,vts_reward_expectancy_bt_OFFLINE,2022.2.4,60.1094454735859,
1,0,0,0,0,0,1,0,triangle,hexagon,0,0,0,0,0,4,4,1,,,,,,,,,,,,,,,,,,,,,,,,,,,,,,,,,,,,,,,,2126.3148331110133,2126.3148331110133,2126.3148331110133,2126.3148331110133,2126.3148331110133,2126.3148331110133,2126.3148331110133,2126.3148331110133,2126.3148331110133,2126.3148331110133,l,5.5180574000114575,1,23,0,2131.854505009018,2133.3560359160183,,,,,,,,,,,,,,,,,,,,,,,,,,,,,,,,,,,,,,,,,,,,,,,,,,,,,,,,,,,,,,,,,,16592,2022-10-28_15h15.59.757,vts_reward_expectancy_bt_OFFLINE,2022.2.4,60.1094454735859,
0,1,0,0,0,0,0,1,circle,star,0,0,0,0,0,5,5,5,,,,,,,,,,,,,,,,,,,,,,,,,,,,,,,,,,,,,,,,2133.8567319710273,2133.8567319710273,2133.8567319710273,2133.8567319710273,2133.8567319710273,2133.8567319710273,2133.8567319710273,2133.8567319710273,2133.8567319710273,2133.8567319710273,l,3.6883343810332008,1,24,0,2137.5772666680277,2139.07919439103,,,,,,,,,,,,,,,,,,,,,,,,,,,,,,,,,,,,,,,,,,,,,,,,,,,,,,,,,,,,,,,,,,16592,2022-10-28_15h15.59.757,vts_reward_expectancy_bt_OFFLINE,2022.2.4,60.1094454735859,
1,0,0,0,0,1,0,0,triangle,circle,0,0,0,0,0,6,6,0,,,,,,,,,,,,,,,,,,,,,,,,,,,,,,,,,,,,,,,,2139.579655194015,2139.579655194015,2139.579655194015,2139.579655194015,2139.579655194015,2139.579655194015,2139.579655194015,2139.579655194015,2139.579655194015,2139.579655194015,a,0.4848435200401582,10,34,0,2140.0969284760067,2141.5984629580053,,,,,,,,,,,,,,,,,,,,,,,,,,,,,,,,,,,,,,,,,,,,,,,,,,,,,,,,,,,,,,,,,,16592,2022-10-28_15h15.59.757,vts_reward_expectancy_bt_OFFLINE,2022.2.4,60.1094454735859,
0,1,0,0,0,0,1,0,circle,hexagon,0,0,0,0,0,7,7,4,,,,,,,,,,,,,,,,,,,,,,,,,,,,,,,,,,,,,,,,2142.098957995011,2142.098957995011,2142.098957995011,2142.098957995011,2142.098957995011,2142.098957995011,2142.098957995011,2142.098957995011,2142.098957995011,2142.098957995011,a,0.3674559320206754,10,44,0,2142.482707209012,2143.984381230024,2143.984381230024,,,,,,,,,,,,,,,,,,,,,,,,,,,,,,,,,,,,,,,,,,,,,,,,,,,,,,,,,,,,,,,,,16592,2022-10-28_15h15.59.757,vts_reward_expectancy_bt_OFFLINE,2022.2.4,60.1094454735859,
0,0,1,0,0,1,0,0,hexagon,circle,0,0,0,0,0,8,8,7,,,,,,,,,,,,,,,,,,,,,,,,,,,,,,,,,,,,,,,,2144.48500572599,2144.48500572599,2144.48500572599,2144.48500572599,2144.48500572599,2144.48500572599,2144.48500572599,2144.48500572599,2144.48500572599,2144.48500572599,a,0.01938989502377808,1,45,0,2144.535122296016,2146.0367734340252,,,,,,,,,,,,,,,,,,,,,,,,,,,,,,,,,,,,,,,,,,,,,,,,,,,,,,,,,,,,,,,,,,16592,2022-10-28_15h15.59.757,vts_reward_expectancy_bt_OFFLINE,2022.2.4,60.1094454735859,
0,0,1,0,1,0,0,0,hexagon,triangle,0,0,0,0,0,9,9,6,,,,,,,,,,,,,,,,,,,,,,,,,,,,,,,,,,,,,,,,2146.537432969024,2146.537432969024,2146.537432969024,2146.537432969024,2146.537432969024,2146.537432969024,2146.537432969024,2146.537432969024,2146.537432969024,2146.537432969024,a,1.175991604977753,1,46,0,2147.7386874189833,2149.240486213006,,,,,,,,,,,,,,,,,,,,,,,,,,,,,,,,,,,,,,,,,,,,,,,,,,,,,,,,,,,,,,,,,,16592,2022-10-28_15h15.59.757,vts_reward_expectancy_bt_OFFLINE,2022.2.4,60.1094454735859,
1,0,0,0,0,0,0,1,triangle,star,0,0,0,0,0,10,10,2,,,,,,,,,,,,,,,,,,,,,,,,,,,,,,,,,,,,,,,,2149.7408498830046,2149.7408498830046,2149.7408498830046,2149.7408498830046,2149.7408498830046,2149.7408498830046,2149.7408498830046,2149.7408498830046,2149.7408498830046,2149.7408498830046,a,1.1255943779833615,10,56,0,2150.8922134700115,2152.3936322560185,,,,,,,,,,,,,,,,,,,,,,,,,,,,,,,,,,,,,,,,,,,,,,,,,,,,,,,,,,,,,,,,,,16592,2022-10-28_15h15.59.757,vts_reward_expectancy_bt_OFFLINE,2022.2.4,60.1094454735859,
0,0,1,0,0,0,0,1,hexagon,star,0,0,0,0,0,11,11,8,,,,,,,,,,,,,,,,,,,,,,,,,,,,,,,,,,,,,,,,2152.894201254996,2152.894201254996,2152.894201254996,2152.894201254996,2152.894201254996,2152.894201254996,2152.894201254996,2152.894201254996,2152.894201254996,2152.894201254996,l,1.915078888006974,10,66,0,2154.82968047302,2156.3313382809865,,,,,,,,,,,,,,,,,,,,,,,,,,,,,,,,,,,,,,,,,,,,,,,,,,,,,,,,,,,,,,,,,,16592,2022-10-28_15h15.59.757,vts_reward_expectancy_bt_OFFLINE,2022.2.4,60.1094454735859,
0,0,0,1,0,0,1,0,star,hexagon,0,0,0,0,1,0,12,11,,,,,,,,,,,,,,,,,,,,,,,,,,,,,,,,,,,,,,,,2156.8319886759855,2156.8319886759855,2156.8319886759855,2156.8319886759855,2156.8319886759855,2156.8319886759855,2156.8319886759855,2156.8319886759855,2156.8319886759855,2156.8319886759855,l,1.473399626032915,10,76,0,2158.3334361980087,2159.835140143987,,,,,,,,,,,,,,,,,,,,,,,,,,,,,,,,,,,,,,,,,,,,,,,,,,,,,,,,,,,,,,,,,,16592,2022-10-28_15h15.59.757,vts_reward_expectancy_bt_OFFLINE,2022.2.4,60.1094454735859,
1,0,0,0,0,0,0,1,triangle,star,0,0,0,0,1,1,13,2,,,,,,,,,,,,,,,,,,,,,,,,,,,,,,,,,,,,,,,,2160.3357811759925,2160.3357811759925,2160.3357811759925,2160.3357811759925,2160.3357811759925,2160.3357811759925,2160.3357811759925,2160.3357811759925,2160.3357811759925,2160.3357811759925,a,1.1299006909830496,10,86,0,2161.4872689610347,2162.9888006949914,,,,,,,,,,,,,,,,,,,,,,,,,,,,,,,,,,,,,,,,,,,,,,,,,,,,,,,,,,,,,,,,,,16592,2022-10-28_15h15.59.757,vts_reward_expectancy_bt_OFFLINE,2022.2.4,60.1094454735859,
0,0,0,1,1,0,0,0,star,triangle,0,0,0,0,1,2,14,9,,,,,,,,,,,,,,,,,,,,,,,,,,,,,,,,,,,,,,,,2163.4892845010036,2163.4892845010036,2163.4892845010036,2163.4892845010036,2163.4892845010036,2163.4892845010036,2163.4892845010036,2163.4892845010036,2163.4892845010036,2163.4892845010036,a,1.3436328200041316,1,87,0,2164.857515527983,2166.3591558189946,,,,,,,,,,,,,,,,,,,,,,,,,,,,,,,,,,,,,,,,,,,,,,,,,,,,,,,,,,,,,,,,,,16592,2022-10-28_15h15.59.757,vts_reward_expectancy_bt_OFFLINE,2022.2.4,60.1094454735859,
0,0,1,0,1,0,0,0,hexagon,triangle,0,0,0,0,1,3,15,6,,,,,,,,,,,,,,,,,,,,,,,,,,,,,,,,,,,,,,,,2166.859710538003,2166.859710538003,2166.859710538003,2166.859710538003,2166.859710538003,2166.859710538003,2166.859710538003,2166.859710538003,2166.859710538003,2166.859710538003,a,2.703466838982422,10,97,0,2169.596180217981,2171.097768343985,,,,,,,,,,,,,,,,,,,,,,,,,,,,,,,,,,,,,,,,,,,,,,,,,,,,,,,,,,,,,,,,,,16592,2022-10-28_15h15.59.757,vts_reward_expectancy_bt_OFFLINE,2022.2.4,60.1094454735859,
0,1,0,0,0,0,1,0,circle,hexagon,0,0,0,0,1,4,16,4,,,,,,,,,,,,,,,,,,,,,,,,,,,,,,,,,,,,,,,,2171.5983093400137,2171.5983093400137,2171.5983093400137,2171.5983093400137,2171.5983093400137,2171.5983093400137,2171.5983093400137,2171.5983093400137,2171.5983093400137,2171.5983093400137,a,0.9628060520044528,1,98,0,2172.582704091037,2174.084290430008,,,,,,,,,,,,,,,,,,,,,,,,,,,,,,,,,,,,,,,,,,,,,,,,,,,,,,,,,,,,,,,,,,16592,2022-10-28_15h15.59.757,vts_reward_expectancy_bt_OFFLINE,2022.2.4,60.1094454735859,
1,0,0,0,0,1,0,0,triangle,circle,0,0,0,0,1,5,17,0,,,,,,,,,,,,,,,,,,,,,,,,,,,,,,,,,,,,,,,,2174.584915916028,2174.584915916028,2174.584915916028,2174.584915916028,2174.584915916028,2174.584915916028,2174.584915916028,2174.584915916028,2174.584915916028,2174.584915916028,a,0.8649031960521825,10,108,0,2175.4691307580215,2176.9709002650343,,,,,,,,,,,,,,,,,,,,,,,,,,,,,,,,,,,,,,,,,,,,,,,,,,,,,,,,,,,,,,,,,,16592,2022-10-28_15h15.59.757,vts_reward_expectancy_bt_OFFLINE,2022.2.4,60.1094454735859,
1,0,0,0,0,0,1,0,triangle,hexagon,0,0,0,0,1,6,18,1,,,,,,,,,,,,,,,,,,,,,,,,,,,,,,,,,,,,,,,,2177.4713833599817,2177.4713833599817,2177.4713833599817,2177.4713833599817,2177.4713833599817,2177.4713833599817,2177.4713833599817,2177.4713833599817,2177.4713833599817,2177.4713833599817,l,1.4024955249624327,1,109,0,2178.906432148011,2180.4081071930123,,,,,,,,,,,,,,,,,,,,,,,,,,,,,,,,,,,,,,,,,,,,,,,,,,,,,,,,,,,,,,,,,,16592,2022-10-28_15h15.59.757,vts_reward_expectancy_bt_OFFLINE,2022.2.4,60.1094454735859,
0,1,0,0,0,0,0,1,circle,star,0,0,0,0,1,7,19,5,,,,,,,,,,,,,,,,,,,,,,,,,,,,,,,,,,,,,,,,2180.9087257800275,2180.9087257800275,2180.9087257800275,2180.9087257800275,2180.9087257800275,2180.9087257800275,2180.9087257800275,2180.9087257800275,2180.9087257800275,2180.9087257800275,a,0.25215959595516324,1,110,0,2181.1922745240154,2182.6938001480303,,,,,,,,,,,,,,,,,,,,,,,,,,,,,,,,,,,,,,,,,,,,,,,,,,,,,,,,,,,,,,,,,,16592,2022-10-28_15h15.59.757,vts_reward_expectancy_bt_OFFLINE,2022.2.4,60.1094454735859,
0,0,1,0,0,0,0,1,hexagon,star,0,0,0,0,1,8,20,8,,,,,,,,,,,,,,,,,,,,,,,,,,,,,,,,,,,,,,,,2183.1943294330267,2183.1943294330267,2183.1943294330267,2183.1943294330267,2183.1943294330267,2183.1943294330267,2183.1943294330267,2183.1943294330267,2183.1943294330267,2183.1943294330267,l,0.2552719959639944,10,120,0,2183.4779962379835,2184.9796086950228,,,,,,,,,,,,,,,,,,,,,,,,,,,,,,,,,,,,,,,,,,,,,,,,,,,,,,,,,,,,,,,,,,16592,2022-10-28_15h15.59.757,vts_reward_expectancy_bt_OFFLINE,2022.2.4,60.1094454735859,
0,0,0,1,0,1,0,0,star ,circle,0,0,0,0,1,9,21,10,,,,,,,,,,,,,,,,,,,,,,,,,,,,,,,,,,,,,,,,2185.4801957500167,2185.4801957500167,2185.4801957500167,2185.4801957500167,2185.4801957500167,2185.4801957500167,2185.4801957500167,2185.4801957500167,2185.4801957500167,2185.4801957500167,l,0.08992048999061808,1,121,0,2185.597006438009,2187.098683135002,,,,,,,,,,,,,,,,,,,,,,,,,,,,,,,,,,,,,,,,,,,,,,,,,,,,,,,,,,,,,,,,,,16592,2022-10-28_15h15.59.757,vts_reward_expectancy_bt_OFFLINE,2022.2.4,60.1094454735859,
0,0,1,0,0,1,0,0,hexagon,circle,0,0,0,0,1,10,22,7,,,,,,,,,,,,,,,,,,,,,,,,,,,,,,,,,,,,,,,,2187.599147350993,2187.599147350993,2187.599147350993,2187.599147350993,2187.599147350993,2187.599147350993,2187.599147350993,2187.599147350993,2187.599147350993,2187.599147350993,a,0.4349523939890787,1,122,0,2188.066641234036,2189.5680778910173,,,,,,,,,,,,,,,,,,,,,,,,,,,,,,,,,,,,,,,,,,,,,,,,,,,,,,,,,,,,,,,,,,16592,2022-10-28_15h15.59.757,vts_reward_expectancy_bt_OFFLINE,2022.2.4,60.1094454735859,
0,1,0,0,1,0,0,0,circle,triangle,0,0,0,0,1,11,23,3,,,,,,,,,,,,,,,,,,,,,,,,,,,,,,,,,,,,,,,,2190.068594459037,2190.068594459037,2190.068594459037,2190.068594459037,2190.068594459037,2190.068594459037,2190.068594459037,2190.068594459037,2190.068594459037,2190.068594459037,l,0.3816845710389316,10,132,0,2190.4690832379856,2191.970574325009,,,,,,,,,,,,,,,,,,,,,,,,,,,,,,,,,,,,,,,,,,,,,,,,,,,,,,,,,,,,,,,,,,16592,2022-10-28_15h15.59.757,vts_reward_expectancy_bt_OFFLINE,2022.2.4,60.1094454735859,
0,0,1,0,1,0,0,0,hexagon,triangle,0,0,0,0,2,0,24,6,,,,,,,,,,,,,,,,,,,,,,,,,,,,,,,,,,,,,,,,2192.471095068031,2192.471095068031,2192.471095068031,2192.471095068031,2192.471095068031,2192.471095068031,2192.471095068031,2192.471095068031,2192.471095068031,2192.471095068031,l,0.5622067259973846,10,142,0,2193.0553728209925,2194.5570341650164,,,,,,,,,,,,,,,,,,,,,,,,,,,,,,,,,,,,,,,,,,,,,,,,,,,,,,,,,,,,,,,,,,16592,2022-10-28_15h15.59.757,vts_reward_expectancy_bt_OFFLINE,2022.2.4,60.1094454735859,
1,0,0,0,0,1,0,0,triangle,circle,0,0,0,0,2,1,25,0,,,,,,,,,,,,,,,,,,,,,,,,,,,,,,,,,,,,,,,,2195.0573126850068,2195.0573126850068,2195.0573126850068,2195.0573126850068,2195.0573126850068,2195.0573126850068,2195.0573126850068,2195.0573126850068,2195.0573126850068,2195.0573126850068,l,0.4084342500427738,10,152,0,2195.4912392410333,2196.9928222100134,,,,,,,,,,,,,,,,,,,,,,,,,,,,,,,,,,,,,,,,,,,,,,,,,,,,,,,,,,,,,,,,,,16592,2022-10-28_15h15.59.757,vts_reward_expectancy_bt_OFFLINE,2022.2.4,60.1094454735859,
0,0,0,1,1,0,0,0,star,triangle,0,0,0,0,2,2,26,9,,,,,,,,,,,,,,,,,,,,,,,,,,,,,,,,,,,,,,,,2197.49331385002,2197.49331385002,2197.49331385002,2197.49331385002,2197.49331385002,2197.49331385002,2197.49331385002,2197.49331385002,2197.49331385002,2197.49331385002,l,0.2848327950341627,1,153,0,2197.8104790659854,2199.3121428660234,,,,,,,,,,,,,,,,,,,,,,,,,,,,,,,,,,,,,,,,,,,,,,,,,,,,,,,,,,,,,,,,,,16592,2022-10-28_15h15.59.757,vts_reward_expectancy_bt_OFFLINE,2022.2.4,60.1094454735859,
0,0,0,1,0,0,1,0,star,hexagon,0,0,0,0,2,3,27,11,,,,,,,,,,,,,,,,,,,,,,,,,,,,,,,,,,,,,,,,2199.8126869680127,2199.8126869680127,2199.8126869680127,2199.8126869680127,2199.8126869680127,2199.8126869680127,2199.8126869680127,2199.8126869680127,2199.8126869680127,2199.8126869680127,a,0.18125912203686312,10,163,0,2200.012804055994,2201.514545299986,,,,,,,,,,,,,,,,,,,,,,,,,,,,,,,,,,,,,,,,,,,,,,,,,,,,,,,,,,,,,,,,,,16592,2022-10-28_15h15.59.757,vts_reward_expectancy_bt_OFFLINE,2022.2.4,60.1094454735859,
0,0,1,0,0,0,0,1,hexagon,star,0,0,0,0,2,4,28,8,,,,,,,,,,,,,,,,,,,,,,,,,,,,,,,,,,,,,,,,2202.015151139989,2202.015151139989,2202.015151139989,2202.015151139989,2202.015151139989,2202.015151139989,2202.015151139989,2202.015151139989,2202.015151139989,2202.015151139989,a,0.02653268602443859,10,173,0,2202.0651954910136,2203.566663826001,,,,,,,,,,,,,,,,,,,,,,,,,,,,,,,,,,,,,,,,,,,,,,,,,,,,,,,,,,,,,,,,,,16592,2022-10-28_15h15.59.757,vts_reward_expectancy_bt_OFFLINE,2022.2.4,60.1094454735859,
1,0,0,0,0,0,0,1,triangle,star,0,0,0,0,2,5,29,2,,,,,,,,,,,,,,,,,,,,,,,,,,,,,,,,,,,,,,,,2204.067273228022,2204.067273228022,2204.067273228022,2204.067273228022,2204.067273228022,2204.067273228022,2204.067273228022,2204.067273228022,2204.067273228022,2204.067273228022,l,0.022607855033129454,1,174,0,2204.117316349002,2205.6191075980314,,,,,,,,,,,,,,,,,,,,,,,,,,,,,,,,,,,,,,,,,,,,,,,,,,,,,,,,,,,,,,,,,,16592,2022-10-28_15h15.59.757,vts_reward_expectancy_bt_OFFLINE,2022.2.4,60.1094454735859,
0,1,0,0,0,0,0,1,circle,star,0,0,0,0,2,6,30,5,,,,,,,,,,,,,,,,,,,,,,,,,,,,,,,,,,,,,,,,2206.1197038040264,2206.1197038040264,2206.1197038040264,2206.1197038040264,2206.1197038040264,2206.1197038040264,2206.1197038040264,2206.1197038040264,2206.1197038040264,2206.1197038040264,l,0.0010678530088625848,10,184,0,2206.152866656019,2207.654687308008,,,,,,,,,,,,,,,,,,,,,,,,,,,,,,,,,,,,,,,,,,,,,,,,,,,,,,,,,,,,,,,,,,16592,2022-10-28_15h15.59.757,vts_reward_expectancy_bt_OFFLINE,2022.2.4,60.1094454735859,
0,0,0,1,0,1,0,0,star ,circle,0,0,0,0,2,7,31,10,,,,,,,,,,,,,,,,,,,,,,,,,,,,,,,,,,,,,,,,2208.155213168997,2208.155213168997,2208.155213168997,2208.155213168997,2208.155213168997,2208.155213168997,2208.155213168997,2208.155213168997,2208.155213168997,2208.155213168997,a,0.02999571099644527,10,194,0,2208.205239204981,2209.7069316839916,,,,,,,,,,,,,,,,,,,,,,,,,,,,,,,,,,,,,,,,,,,,,,,,,,,,,,,,,,,,,,,,,,16592,2022-10-28_15h15.59.757,vts_reward_expectancy_bt_OFFLINE,2022.2.4,60.1094454735859,
0,0,1,0,0,1,0,0,hexagon,circle,0,0,0,0,2,8,32,7,,,,,,,,,,,,,,,,,,,,,,,,,,,,,,,,,,,,,,,,2210.2076096850215,2210.2076096850215,2210.2076096850215,2210.2076096850215,2210.2076096850215,2210.2076096850215,2210.2076096850215,2210.2076096850215,2210.2076096850215,2210.2076096850215,a,0.11432937596691772,10,204,0,2210.3410171280266,2211.842772768985,,,,,,,,,,,,,,,,,,,,,,,,,,,,,,,,,,,,,,,,,,,,,,,,,,,,,,,,,,,,,,,,,,16592,2022-10-28_15h15.59.757,vts_reward_expectancy_bt_OFFLINE,2022.2.4,60.1094454735859,
0,1,0,0,1,0,0,0,circle,triangle,0,0,0,0,2,9,33,3,,,,,,,,,,,,,,,,,,,,,,,,,,,,,,,,,,,,,,,,2212.343173239031,2212.343173239031,2212.343173239031,2212.343173239031,2212.343173239031,2212.343173239031,2212.343173239031,2212.343173239031,2212.343173239031,2212.343173239031,a,0.07512616703752428,1,205,0,2212.443864703004,2213.944974229031,,,,,,,,,,,,,,,,,,,,,,,,,,,,,,,,,,,,,,,,,,,,,,,,,,,,,,,,,,,,,,,,,,16592,2022-10-28_15h15.59.757,vts_reward_expectancy_bt_OFFLINE,2022.2.4,60.1094454735859,
0,1,0,0,0,0,1,0,circle,hexagon,0,0,0,0,2,10,34,4,,,,,,,,,,,,,,,,,,,,,,,,,,,,,,,,,,,,,,,,2214.445592501026,2214.445592501026,2214.445592501026,2214.445592501026,2214.445592501026,2214.445592501026,2214.445592501026,2214.445592501026,2214.445592501026,2214.445592501026,l,0.2274557469645515,10,215,0,2214.6963607480284,2216.1975862249965,,,,,,,,,,,,,,,,,,,,,,,,,,,,,,,,,,,,,,,,,,,,,,,,,,,,,,,,,,,,,,,,,,16592,2022-10-28_15h15.59.757,vts_reward_expectancy_bt_OFFLINE,2022.2.4,60.1094454735859,
1,0,0,0,0,0,1,0,triangle,hexagon,0,0,0,0,2,11,35,1,,,,,,,,,,,,,,,,,,,,,,,,,,,,,,,,,,,,,,,,2216.698161896027,2216.698161896027,2216.698161896027,2216.698161896027,2216.698161896027,2216.698161896027,2216.698161896027,2216.698161896027,2216.698161896027,2216.698161896027,l,0.2168919580290094,10,225,0,2216.9314436750137,2218.433368796017,2218.433368796017,,,,,,,,,,,,,,,,,,,,,,,,,,,,,,,,,,,,,,,,,,,,,,,,,,,,,,,,,,,,,,,,,16592,2022-10-28_15h15.59.757,vts_reward_expectancy_bt_OFFLINE,2022.2.4,60.1094454735859,
0,1,0,0,0,0,1,0,circle,hexagon,0,0,0,0,3,0,36,4,,,,,,,,,,,,,,,,,,,,,,,,,,,,,,,,,,,,,,,,2218.933899174037,2218.933899174037,2218.933899174037,2218.933899174037,2218.933899174037,2218.933899174037,2218.933899174037,2218.933899174037,2218.933899174037,2218.933899174037,a,0.42662360600661486,1,226,0,2219.385275220033,2220.8860300660017,,,,,,,,,,,,,,,,,,,,,,,,,,,,,,,,,,,,,,,,,,,,,,,,,,,,,,,,,,,,,,,,,,16592,2022-10-28_15h15.59.757,vts_reward_expectancy_bt_OFFLINE,2022.2.4,60.1094454735859,
0,0,0,1,0,0,1,0,star,hexagon,0,0,0,0,3,1,37,11,,,,,,,,,,,,,,,,,,,,,,,,,,,,,,,,,,,,,,,,2221.386555686011,2221.386555686011,2221.386555686011,2221.386555686011,2221.386555686011,2221.386555686011,2221.386555686011,2221.386555686011,2221.386555686011,2221.386555686011,l,0.09508451604051515,10,236,0,2221.504415920994,2223.004973287985,,,,,,,,,,,,,,,,,,,,,,,,,,,,,,,,,,,,,,,,,,,,,,,,,,,,,,,,,,,,,,,,,,16592,2022-10-28_15h15.59.757,vts_reward_expectancy_bt_OFFLINE,2022.2.4,60.1094454735859,
0,0,0,1,0,1,0,0,star ,circle,0,0,0,0,3,2,38,10,,,,,,,,,,,,,,,,,,,,,,,,,,,,,,,,,,,,,,,,2223.505469141004,2223.505469141004,2223.505469141004,2223.505469141004,2223.505469141004,2223.505469141004,2223.505469141004,2223.505469141004,2223.505469141004,2223.505469141004,a,0.14303621399449185,10,246,0,2223.6723183179856,2225.173991299991,,,,,,,,,,,,,,,,,,,,,,,,,,,,,,,,,,,,,,,,,,,,,,,,,,,,,,,,,,,,,,,,,,16592,2022-10-28_15h15.59.757,vts_reward_expectancy_bt_OFFLINE,2022.2.4,60.1094454735859,
0,0,1,0,0,0,0,1,hexagon,star,0,0,0,0,3,3,39,8,,,,,,,,,,,,,,,,,,,,,,,,,,,,,,,,,,,,,,,,2225.6745772900176,2225.6745772900176,2225.6745772900176,2225.6745772900176,2225.6745772900176,2225.6745772900176,2225.6745772900176,2225.6745772900176,2225.6745772900176,2225.6745772900176,a,2.0223556050332263,10,256,0,2227.7266922109993,2229.2286131809815,2229.2286131809815,,,,,,,,,,,,,,,,,,,,,,,,,,,,,,,,,,,,,,,,,,,,,,,,,,,,,,,,,,,,,,,,,16592,2022-10-28_15h15.59.757,vts_reward_expectancy_bt_OFFLINE,2022.2.4,60.1094454735859,
1,0,0,0,0,0,1,0,triangle,hexagon,0,0,0,0,3,4,40,1,,,,,,,,,,,,,,,,,,,,,,,,,,,,,,,,,,,,,,,,2229.7290654280223,2229.7290654280223,2229.7290654280223,2229.7290654280223,2229.7290654280223,2229.7290654280223,2229.7290654280223,2229.7290654280223,2229.7290654280223,2229.7290654280223,l,0.0006462580058723688,1,257,0,2229.762418723025,2231.2639173390344,,,,,,,,,,,,,,,,,,,,,,,,,,,,,,,,,,,,,,,,,,,,,,,,,,,,,,,,,,,,,,,,,,16592,2022-10-28_15h15.59.757,vts_reward_expectancy_bt_OFFLINE,2022.2.4,60.1094454735859,
1,0,0,0,0,0,0,1,triangle,star,0,0,0,0,3,5,41,2,,,,,,,,,,,,,,,,,,,,,,,,,,,,,,,,,,,,,,,,2231.764757130004,2231.764757130004,2231.764757130004,2231.764757130004,2231.764757130004,2231.764757130004,2231.764757130004,2231.764757130004,2231.764757130004,2231.764757130004,l,0.0769523199996911,10,267,0,2231.866474465991,2233.366492545989,,,,,,,,,,,,,,,,,,,,,,,,,,,,,,,,,,,,,,,,,,,,,,,,,,,,,,,,,,,,,,,,,,16592,2022-10-28_15h15.59.757,vts_reward_expectancy_bt_OFFLINE,2022.2.4,60.1094454735859,
0,1,0,0,1,0,0,0,circle,triangle,0,0,0,0,3,6,42,3,,,,,,,,,,,,,,,,,,,,,,,,,,,,,,,,,,,,,,,,2233.866830216022,2233.866830216022,2233.866830216022,2233.866830216022,2233.866830216022,2233.866830216022,2233.866830216022,2233.866830216022,2233.866830216022,2233.866830216022,l,0.15102939901407808,10,277,0,2234.050602864998,2235.5522506700363,2235.5522506700363,2236.052587876038,,,,,,,,,,,,,,,,,,,,,,,,,,,,,,,,,,,,,,,,,,,,,,,,,,,,,,,,,,,,,,,,16592,2022-10-28_15h15.59.757,vts_reward_expectancy_bt_OFFLINE,2022.2.4,60.1094454735859,
0,0,1,0,1,0,0,0,hexagon,triangle,0,0,0,0,3,7,43,6,,,,,,,,,,,,,,,,,,,,,,,,,,,,,,,,,,,,,,,,2236.052587876038,2236.052587876038,2236.052587876038,2236.052587876038,2236.052587876038,2236.052587876038,2236.052587876038,2236.052587876038,2236.052587876038,2236.052587876038,l,0.004294374026358128,10,287,0,2236.0862388699898,2237.5879382010316,2237.5879382010316,2238.0883714050287,,,,,,,,,,,,,,,,,,,,,,,,,,,,,,,,,,,,,,,,,,,,,,,,,,,,,,,,,,,,,,,,16592,2022-10-28_15h15.59.757,vts_reward_expectancy_bt_OFFLINE,2022.2.4,60.1094454735859,
0,0,0,1,1,0,0,0,star,triangle,0,0,0,0,3,8,44,9,,,,,,,,,,,,,,,,,,,,,,,,,,,,,,,,,,,,,,,,2238.0883714050287,2238.0883714050287,2238.0883714050287,2238.0883714050287,2238.0883714050287,2238.0883714050287,2238.0883714050287,2238.0883714050287,2238.0883714050287,2238.0883714050287,a,0.09790554700884968,10,297,0,2238.2049936529947,2239.7066164850257,,,,,,,,,,,,,,,,,,,,,,,,,,,,,,,,,,,,,,,,,,,,,,,,,,,,,,,,,,,,,,,,,,16592,2022-10-28_15h15.59.757,vts_reward_expectancy_bt_OFFLINE,2022.2.4,60.1094454735859,
0,0,1,0,0,1,0,0,hexagon,circle,0,0,0,0,3,9,45,7,,,,,,,,,,,,,,,,,,,,,,,,,,,,,,,,,,,,,,,,2240.207180751022,2240.207180751022,2240.207180751022,2240.207180751022,2240.207180751022,2240.207180751022,2240.207180751022,2240.207180751022,2240.207180751022,2240.207180751022,l,0.0019687979947775602,1,298,0,2240.2408129299874,2241.742418356007,2241.742418356007,2242.2428670680383,,,,,,,,,,,,,,,,,,,,,,,,,,,,,,,,,,,,,,,,,,,,,,,,,,,,,,,,,,,,,,,,16592,2022-10-28_15h15.59.757,vts_reward_expectancy_bt_OFFLINE,2022.2.4,60.1094454735859,
1,0,0,0,0,1,0,0,triangle,circle,0,0,0,0,3,10,46,0,,,,,,,,,,,,,,,,,,,,,,,,,,,,,,,,,,,,,,,,2242.2428670680383,2242.2428670680383,2242.2428670680383,2242.2428670680383,2242.2428670680383,2242.2428670680383,2242.2428670680383,2242.2428670680383,2242.2428670680383,2242.2428670680383,a,0.14240936801070347,10,308,0,2242.4266089150333,2243.9113493080367,,,,,,,,,,,,,,,,,,,,,,,,,,,,,,,,,,,,,,,,,,,,,,,,,,,,,,,,,,,,,,,,,,16592,2022-10-28_15h15.59.757,vts_reward_expectancy_bt_OFFLINE,2022.2.4,60.1094454735859,
0,1,0,0,0,0,0,1,circle,star,0,0,0,0,3,11,47,5,,,,,,,,,,,,,,,,,,,,,,,,,,,,,,,,,,,,,,,,2244.4118911889964,2244.4118911889964,2244.4118911889964,2244.4118911889964,2244.4118911889964,2244.4118911889964,2244.4118911889964,2244.4118911889964,2244.4118911889964,2244.4118911889964,l,0.13420010200934485,1,309,0,2244.595600255998,2246.0971009340137,,,,,,,,,,,,,,,,,,,,,,,,,,,,,,,,,,,,,,,,,,,,,,,,,,,,,,,,,,,,,,,,,,16592,2022-10-28_15h15.59.757,vts_reward_expectancy_bt_OFFLINE,2022.2.4,60.1094454735859,
0,0,1,0,0,1,0,0,hexagon,circle,1,0,1,0,0,0,0,7,,,,,,,,,,,,,,,,,,,,,,,,,,,,,,,,,,,,,,,,2268.1215297490126,2268.1215297490126,2268.1215297490126,2268.1215297490126,2268.1215297490126,2268.1215297490126,2268.1215297490126,2268.1215297490126,2268.1215297490126,2268.1215297490126,a,1.5925609820405953,10,319,1,2269.7565247890307,2271.241464739025,,,,,,,,,,,,,,,,,,,,,,,,,,,,,,,,,,,,,,,,,,,,,,,,,,,,,,,,,,,,,,,,,,16592,2022-10-28_15h15.59.757,vts_reward_expectancy_bt_OFFLINE,2022.2.4,60.1094454735859,
0,0,0,1,0,0,1,0,star,hexagon,1,0,1,0,0,1,1,11,,,,,,,,,,,,,,,,,,,,,,,,,,,,,,,,,,,,,,,,2271.74197475001,2271.74197475001,2271.74197475001,2271.74197475001,2271.74197475001,2271.74197475001,2271.74197475001,2271.74197475001,2271.74197475001,2271.74197475001,a,0.3172517000348307,1,320,1,2272.0925069990335,2273.593997230986,,,,,,,,,,,,,,,,,,,,,,,,,,,,,,,,,,,,,,,,,,,,,,,,,,,,,,,,,,,,,,,,,,16592,2022-10-28_15h15.59.757,vts_reward_expectancy_bt_OFFLINE,2022.2.4,60.1094454735859,
1,0,0,0,0,0,0,1,triangle,star,1,0,1,0,0,2,2,2,,,,,,,,,,,,,,,,,,,,,,,,,,,,,,,,,,,,,,,,2274.0780580560095,2274.0780580560095,2274.0780580560095,2274.0780580560095,2274.0780580560095,2274.0780580560095,2274.0780580560095,2274.0780580560095,2274.0780580560095,2274.0780580560095,a,0.07538331102114171,10,330,1,2274.194773058989,2275.6796073250007,,,,,,,,,,,,,,,,,,,,,,,,,,,,,,,,,,,,,,,,,,,,,,,,,,,,,,,,,,,,,,,,,,16592,2022-10-28_15h15.59.757,vts_reward_expectancy_bt_OFFLINE,2022.2.4,60.1094454735859,
1,0,0,0,0,0,1,0,triangle,hexagon,1,0,1,0,0,3,3,1,,,,,,,,,,,,,,,,,,,,,,,,,,,,,,,,,,,,,,,,2276.1801542839967,2276.1801542839967,2276.1801542839967,2276.1801542839967,2276.1801542839967,2276.1801542839967,2276.1801542839967,2276.1801542839967,2276.1801542839967,2276.1801542839967,a,1.5804236130206846,10,340,1,2277.782847058028,2279.2837993510184,,,,,,,,,,,,,,,,,,,,,,,,,,,,,,,,,,,,,,,,,,,,,,,,,,,,,,,,,,,,,,,,,,16592,2022-10-28_15h15.59.757,vts_reward_expectancy_bt_OFFLINE,2022.2.4,60.1094454735859,
0,1,0,0,0,0,1,0,circle,hexagon,1,0,1,0,0,4,4,4,,,,,,,,,,,,,,,,,,,,,,,,,,,,,,,,,,,,,,,,2279.7841789760278,2279.7841789760278,2279.7841789760278,2279.7841789760278,2279.7841789760278,2279.7841789760278,2279.7841789760278,2279.7841789760278,2279.7841789760278,2279.7841789760278,a,1.4813468880020082,10,350,1,2281.287405730982,2282.787663433992,,,,,,,,,,,,,,,,,,,,,,,,,,,,,,,,,,,,,,,,,,,,,,,,,,,,,,,,,,,,,,,,,,16592,2022-10-28_15h15.59.757,vts_reward_expectancy_bt_OFFLINE,2022.2.4,60.1094454735859,
0,0,0,1,1,0,0,0,star,triangle,1,0,1,0,0,5,5,9,,,,,,,,,,,,,,,,,,,,,,,,,,,,,,,,,,,,,,,,2283.2882478649844,2283.2882478649844,2283.2882478649844,2283.2882478649844,2283.2882478649844,2283.2882478649844,2283.2882478649844,2283.2882478649844,2283.2882478649844,2283.2882478649844,l,1.4657468229997903,10,360,1,2284.7743778550066,2286.2748026580084,,,,,,,,,,,,,,,,,,,,,,,,,,,,,,,,,,,,,,,,,,,,,,,,,,,,,,,,,,,,,,,,,,16592,2022-10-28_15h15.59.757,vts_reward_expectancy_bt_OFFLINE,2022.2.4,60.1094454735859,
0,0,1,0,1,0,0,0,hexagon,triangle,1,0,1,0,0,6,6,6,,,,,,,,,,,,,,,,,,,,,,,,,,,,,,,,,,,,,,,,2286.775263399002,2286.775263399002,2286.775263399002,2286.775263399002,2286.775263399002,2286.775263399002,2286.775263399002,2286.775263399002,2286.775263399002,2286.775263399002,l,0.9781997929676436,10,370,1,2287.7781813879847,2289.278169394005,,,,,,,,,,,,,,,,,,,,,,,,,,,,,,,,,,,,,,,,,,,,,,,,,,,,,,,,,,,,,,,,,,16592,2022-10-28_15h15.59.757,vts_reward_expectancy_bt_OFFLINE,2022.2.4,60.1094454735859,
0,1,0,0,1,0,0,0,circle,triangle,1,0,1,0,0,7,7,3,,,,,,,,,,,,,,,,,,,,,,,,,,,,,,,,,,,,,,,,2289.778533706034,2289.778533706034,2289.778533706034,2289.778533706034,2289.778533706034,2289.778533706034,2289.778533706034,2289.778533706034,2289.778533706034,2289.778533706034,a,1.2544494059984572,1,371,1,2291.0801934099873,2292.5817605049815,,,,,,,,,,,,,,,,,,,,,,,,,,,,,,,,,,,,,,,,,,,,,,,,,,,,,,,,,,,,,,,,,,16592,2022-10-28_15h15.59.757,vts_reward_expectancy_bt_OFFLINE,2022.2.4,60.1094454735859,
0,0,1,0,0,0,0,1,hexagon,star,1,0,1,0,0,8,8,8,,,,,,,,,,,,,,,,,,,,,,,,,,,,,,,,,,,,,,,,2293.082226597995,2293.082226597995,2293.082226597995,2293.082226597995,2293.082226597995,2293.082226597995,2293.082226597995,2293.082226597995,2293.082226597995,2293.082226597995,a,0.9755619210191071,1,372,1,2294.084673977981,2295.584956053004,,,,,,,,,,,,,,,,,,,,,,,,,,,,,,,,,,,,,,,,,,,,,,,,,,,,,,,,,,,,,,,,,,16592,2022-10-28_15h15.59.757,vts_reward_expectancy_bt_OFFLINE,2022.2.4,60.1094454735859,
1,0,0,0,0,1,0,0,triangle,circle,1,0,1,0,0,9,9,0,,,,,,,,,,,,,,,,,,,,,,,,,,,,,,,,,,,,,,,,2296.0857066980097,2296.0857066980097,2296.0857066980097,2296.0857066980097,2296.0857066980097,2296.0857066980097,2296.0857066980097,2296.0857066980097,2296.0857066980097,2296.0857066980097,l,1.3709874129854143,10,382,1,2297.503753956,2299.005300296005,,,,,,,,,,,,,,,,,,,,,,,,,,,,,,,,,,,,,,,,,,,,,,,,,,,,,,,,,,,,,,,,,,16592,2022-10-28_15h15.59.757,vts_reward_expectancy_bt_OFFLINE,2022.2.4,60.1094454735859,
0,1,0,0,0,0,0,1,circle,star,1,0,1,0,0,10,10,5,,,,,,,,,,,,,,,,,,,,,,,,,,,,,,,,,,,,,,,,2299.505967632984,2299.505967632984,2299.505967632984,2299.505967632984,2299.505967632984,2299.505967632984,2299.505967632984,2299.505967632984,2299.505967632984,2299.505967632984,l,1.1035303320386447,1,383,1,2300.6571848239983,2302.158958288026,,,,,,,,,,,,,,,,,,,,,,,,,,,,,,,,,,,,,,,,,,,,,,,,,,,,,,,,,,,,,,,,,,16592,2022-10-28_15h15.59.757,vts_reward_expectancy_bt_OFFLINE,2022.2.4,60.1094454735859,
0,0,0,1,0,1,0,0,star ,circle,1,0,1,0,0,11,11,10,,,,,,,,,,,,,,,,,,,,,,,,,,,,,,,,,,,,,,,,2302.6594980600057,2302.6594980600057,2302.6594980600057,2302.6594980600057,2302.6594980600057,2302.6594980600057,2302.6594980600057,2302.6594980600057,2302.6594980600057,2302.6594980600057,l,0.13460643001599237,10,393,1,2302.843144158018,2304.3448421300272,,,,,,,,,,,,,,,,,,,,,,,,,,,,,,,,,,,,,,,,,,,,,,,,,,,,,,,,,,,,,,,,,,16592,2022-10-28_15h15.59.757,vts_reward_expectancy_bt_OFFLINE,2022.2.4,60.1094454735859,
1,0,0,0,0,0,1,0,triangle,hexagon,1,0,1,0,1,0,12,1,,,,,,,,,,,,,,,,,,,,,,,,,,,,,,,,,,,,,,,,2304.845272267994,2304.845272267994,2304.845272267994,2304.845272267994,2304.845272267994,2304.845272267994,2304.845272267994,2304.845272267994,2304.845272267994,2304.845272267994,a,0.13375742395874113,1,394,1,2305.012087851006,2306.5138335130177,,,,,,,,,,,,,,,,,,,,,,,,,,,,,,,,,,,,,,,,,,,,,,,,,,,,,,,,,,,,,,,,,,16592,2022-10-28_15h15.59.757,vts_reward_expectancy_bt_OFFLINE,2022.2.4,60.1094454735859,
1,0,0,0,0,0,0,1,triangle,star,1,0,1,0,1,1,13,2,,,,,,,,,,,,,,,,,,,,,,,,,,,,,,,,,,,,,,,,2306.997712648008,2306.997712648008,2306.997712648008,2306.997712648008,2306.997712648008,2306.997712648008,2306.997712648008,2306.997712648008,2306.997712648008,2306.997712648008,l,0.04363771801581606,1,395,1,2307.0810533059994,2308.566053481016,,,,,,,,,,,,,,,,,,,,,,,,,,,,,,,,,,,,,,,,,,,,,,,,,,,,,,,,,,,,,,,,,,16592,2022-10-28_15h15.59.757,vts_reward_expectancy_bt_OFFLINE,2022.2.4,60.1094454735859,
0,0,1,0,0,1,0,0,hexagon,circle,1,0,1,0,1,2,14,7,,,,,,,,,,,,,,,,,,,,,,,,,,,,,,,,,,,,,,,,2309.083411965985,2309.083411965985,2309.083411965985,2309.083411965985,2309.083411965985,2309.083411965985,2309.083411965985,2309.083411965985,2309.083411965985,2309.083411965985,l,0.12550193403149024,1,396,1,2309.2502899240353,2310.7352778509958,,,,,,,,,,,,,,,,,,,,,,,,,,,,,,,,,,,,,,,,,,,,,,,,,,,,,,,,,,,,,,,,,,16592,2022-10-28_15h15.59.757,vts_reward_expectancy_bt_OFFLINE,2022.2.4,60.1094454735859,
0,0,0,1,0,1,0,0,star ,circle,1,0,1,0,1,3,15,10,,,,,,,,,,,,,,,,,,,,,,,,,,,,,,,,,,,,,,,,2311.235557648004,2311.235557648004,2311.235557648004,2311.235557648004,2311.235557648004,2311.235557648004,2311.235557648004,2311.235557648004,2311.235557648004,2311.235557648004,a,0.05406116397352889,1,397,1,2311.335781503003,2312.8387798930053,,,,,,,,,,,,,,,,,,,,,,,,,,,,,,,,,,,,,,,,,,,,,,,,,,,,,,,,,,,,,,,,,,16592,2022-10-28_15h15.59.757,vts_reward_expectancy_bt_OFFLINE,2022.2.4,60.1094454735859,
0,0,1,0,1,0,0,0,hexagon,triangle,1,0,1,0,1,4,16,6,,,,,,,,,,,,,,,,,,,,,,,,,,,,,,,,,,,,,,,,2313.354734068038,2313.354734068038,2313.354734068038,2313.354734068038,2313.354734068038,2313.354734068038,2313.354734068038,2313.354734068038,2313.354734068038,2313.354734068038,l,0.11776450701290742,10,407,1,2313.521576302999,2315.023119891004,,,,,,,,,,,,,,,,,,,,,,,,,,,,,,,,,,,,,,,,,,,,,,,,,,,,,,,,,,,,,,,,,,16592,2022-10-28_15h15.59.757,vts_reward_expectancy_bt_OFFLINE,2022.2.4,60.1094454735859,
0,1,0,0,0,0,0,1,circle,star,1,0,1,0,1,5,17,5,,,,,,,,,,,,,,,,,,,,,,,,,,,,,,,,,,,,,,,,2315.5239891590318,2315.5239891590318,2315.5239891590318,2315.5239891590318,2315.5239891590318,2315.5239891590318,2315.5239891590318,2315.5239891590318,2315.5239891590318,2315.5239891590318,a,0.04533659003209323,1,408,1,2315.6072864230373,2317.0919754630304,,,,,,,,,,,,,,,,,,,,,,,,,,,,,,,,,,,,,,,,,,,,,,,,,,,,,,,,,,,,,,,,,,16592,2022-10-28_15h15.59.757,vts_reward_expectancy_bt_OFFLINE,2022.2.4,60.1094454735859,
1,0,0,0,0,1,0,0,triangle,circle,1,0,1,0,1,6,18,0,,,,,,,,,,,,,,,,,,,,,,,,,,,,,,,,,,,,,,,,2317.6092568960157,2317.6092568960157,2317.6092568960157,2317.6092568960157,2317.6092568960157,2317.6092568960157,2317.6092568960157,2317.6092568960157,2317.6092568960157,2317.6092568960157,a,0.03334473998984322,1,409,1,2317.67625276302,2319.177796459,,,,,,,,,,,,,,,,,,,,,,,,,,,,,,,,,,,,,,,,,,,,,,,,,,,,,,,,,,,,,,,,,,16592,2022-10-28_15h15.59.757,vts_reward_expectancy_bt_OFFLINE,2022.2.4,60.1094454735859,
0,0,1,0,0,0,0,1,hexagon,star,1,0,1,0,1,7,19,8,,,,,,,,,,,,,,,,,,,,,,,,,,,,,,,,,,,,,,,,2319.6783462340245,2319.6783462340245,2319.6783462340245,2319.6783462340245,2319.6783462340245,2319.6783462340245,2319.6783462340245,2319.6783462340245,2319.6783462340245,2319.6783462340245,a,0.09089408500585705,1,410,1,2319.8119056639844,2321.2967178550316,,,,,,,,,,,,,,,,,,,,,,,,,,,,,,,,,,,,,,,,,,,,,,,,,,,,,,,,,,,,,,,,,,16592,2022-10-28_15h15.59.757,vts_reward_expectancy_bt_OFFLINE,2022.2.4,60.1094454735859,
0,1,0,0,1,0,0,0,circle,triangle,1,0,1,0,1,8,20,3,,,,,,,,,,,,,,,,,,,,,,,,,,,,,,,,,,,,,,,,2321.7972947050002,2321.7972947050002,2321.7972947050002,2321.7972947050002,2321.7972947050002,2321.7972947050002,2321.7972947050002,2321.7972947050002,2321.7972947050002,2321.7972947050002,a,0.06777769501786679,1,411,1,2321.9140703810262,2323.415951219038,,,,,,,,,,,,,,,,,,,,,,,,,,,,,,,,,,,,,,,,,,,,,,,,,,,,,,,,,,,,,,,,,,16592,2022-10-28_15h15.59.757,vts_reward_expectancy_bt_OFFLINE,2022.2.4,60.1094454735859,
0,0,0,1,1,0,0,0,star,triangle,1,0,1,0,1,9,21,9,,,,,,,,,,,,,,,,,,,,,,,,,,,,,,,,,,,,,,,,2323.9162417409825,2323.9162417409825,2323.9162417409825,2323.9162417409825,2323.9162417409825,2323.9162417409825,2323.9162417409825,2323.9162417409825,2323.9162417409825,2323.9162417409825,l,0.02816624700790271,10,421,1,2323.9831802580156,2325.4679873129935,,,,,,,,,,,,,,,,,,,,,,,,,,,,,,,,,,,,,,,,,,,,,,,,,,,,,,,,,,,,,,,,,,16592,2022-10-28_15h15.59.757,vts_reward_expectancy_bt_OFFLINE,2022.2.4,60.1094454735859,
0,1,0,0,0,0,1,0,circle,hexagon,1,0,1,0,1,10,22,4,,,,,,,,,,,,,,,,,,,,,,,,,,,,,,,,,,,,,,,,2325.9685650939937,2325.9685650939937,2325.9685650939937,2325.9685650939937,2325.9685650939937,2325.9685650939937,2325.9685650939937,2325.9685650939937,2325.9685650939937,2325.9685650939937,a,1.5525960869854316,10,431,1,2327.570119123033,2329.071834668983,,,,,,,,,,,,,,,,,,,,,,,,,,,,,,,,,,,,,,,,,,,,,,,,,,,,,,,,,,,,,,,,,,16592,2022-10-28_15h15.59.757,vts_reward_expectancy_bt_OFFLINE,2022.2.4,60.1094454735859,
0,0,0,1,0,0,1,0,star,hexagon,1,0,1,0,1,11,23,11,,,,,,,,,,,,,,,,,,,,,,,,,,,,,,,,,,,,,,,,2329.572459290037,2329.572459290037,2329.572459290037,2329.572459290037,2329.572459290037,2329.572459290037,2329.572459290037,2329.572459290037,2329.572459290037,2329.572459290037,l,0.43643213697941974,10,441,1,2330.0562794730067,2331.558098139998,,,,,,,,,,,,,,,,,,,,,,,,,,,,,,,,,,,,,,,,,,,,,,,,,,,,,,,,,,,,,,,,,,16592,2022-10-28_15h15.59.757,vts_reward_expectancy_bt_OFFLINE,2022.2.4,60.1094454735859,
0,0,1,0,1,0,0,0,hexagon,triangle,1,0,1,0,2,0,24,6,,,,,,,,,,,,,,,,,,,,,,,,,,,,,,,,,,,,,,,,2332.058627213002,2332.058627213002,2332.058627213002,2332.058627213002,2332.058627213002,2332.058627213002,2332.058627213002,2332.058627213002,2332.058627213002,2332.058627213002,a,0.3914335659937933,10,451,1,2332.4925612530205,2333.9773533479893,,,,,,,,,,,,,,,,,,,,,,,,,,,,,,,,,,,,,,,,,,,,,,,,,,,,,,,,,,,,,,,,,,16592,2022-10-28_15h15.59.757,vts_reward_expectancy_bt_OFFLINE,2022.2.4,60.1094454735859,
0,1,0,0,0,0,0,1,circle,star,1,0,1,0,2,1,25,5,,,,,,,,,,,,,,,,,,,,,,,,,,,,,,,,,,,,,,,,2334.494735029002,2334.494735029002,2334.494735029002,2334.494735029002,2334.494735029002,2334.494735029002,2334.494735029002,2334.494735029002,2334.494735029002,2334.494735029002,l,0.34731335000833496,1,452,1,2334.8783461030107,2336.3634875399875,,,,,,,,,,,,,,,,,,,,,,,,,,,,,,,,,,,,,,,,,,,,,,,,,,,,,,,,,,,,,,,,,,16592,2022-10-28_15h15.59.757,vts_reward_expectancy_bt_OFFLINE,2022.2.4,60.1094454735859,
0,0,0,1,0,1,0,0,star ,circle,1,0,1,0,2,2,26,10,,,,,,,,,,,,,,,,,,,,,,,,,,,,,,,,,,,,,,,,2336.8804272240377,2336.8804272240377,2336.8804272240377,2336.8804272240377,2336.8804272240377,2336.8804272240377,2336.8804272240377,2336.8804272240377,2336.8804272240377,2336.8804272240377,a,0.12807070603594184,1,453,1,2337.047270141018,2338.5492679930176,,,,,,,,,,,,,,,,,,,,,,,,,,,,,,,,,,,,,,,,,,,,,,,,,,,,,,,,,,,,,,,,,,16592,2022-10-28_15h15.59.757,vts_reward_expectancy_bt_OFFLINE,2022.2.4,60.1094454735859,
1,0,0,0,0,1,0,0,triangle,circle,1,0,1,0,2,3,27,0,,,,,,,,,,,,,,,,,,,,,,,,,,,,,,,,,,,,,,,,2339.0327883980353,2339.0327883980353,2339.0327883980353,2339.0327883980353,2339.0327883980353,2339.0327883980353,2339.0327883980353,2339.0327883980353,2339.0327883980353,2339.0327883980353,l,0.0176100279786624,1,454,1,2339.0995733059826,2340.6012392340344,,,,,,,,,,,,,,,,,,,,,,,,,,,,,,,,,,,,,,,,,,,,,,,,,,,,,,,,,,,,,,,,,,16592,2022-10-28_15h15.59.757,vts_reward_expectancy_bt_OFFLINE,2022.2.4,60.1094454735859,
0,1,0,0,0,0,1,0,circle,hexagon,1,0,1,0,2,4,28,4,,,,,,,,,,,,,,,,,,,,,,,,,,,,,,,,,,,,,,,,2341.1019575060345,2341.1019575060345,2341.1019575060345,2341.1019575060345,2341.1019575060345,2341.1019575060345,2341.1019575060345,2341.1019575060345,2341.1019575060345,2341.1019575060345,a,0.09096926997881383,10,464,1,2341.235246144992,2342.7202913340298,,,,,,,,,,,,,,,,,,,,,,,,,,,,,,,,,,,,,,,,,,,,,,,,,,,,,,,,,,,,,,,,,,16592,2022-10-28_15h15.59.757,vts_reward_expectancy_bt_OFFLINE,2022.2.4,60.1094454735859,
0,0,0,1,0,0,1,0,star,hexagon,1,0,1,0,2,5,29,11,,,,,,,,,,,,,,,,,,,,,,,,,,,,,,,,,,,,,,,,2343.220993260038,2343.220993260038,2343.220993260038,2343.220993260038,2343.220993260038,2343.220993260038,2343.220993260038,2343.220993260038,2343.220993260038,2343.220993260038,a,0.044141160033177584,1,465,1,2343.3045947680366,2344.7892852930236,,,,,,,,,,,,,,,,,,,,,,,,,,,,,,,,,,,,,,,,,,,,,,,,,,,,,,,,,,,,,,,,,,16592,2022-10-28_15h15.59.757,vts_reward_expectancy_bt_OFFLINE,2022.2.4,60.1094454735859,
0,1,0,0,1,0,0,0,circle,triangle,1,0,1,0,2,6,30,3,,,,,,,,,,,,,,,,,,,,,,,,,,,,,,,,,,,,,,,,2345.289962137991,2345.289962137991,2345.289962137991,2345.289962137991,2345.289962137991,2345.289962137991,2345.289962137991,2345.289962137991,2345.289962137991,2345.289962137991,a,0.09454325697151944,10,475,1,2345.4398903340334,2346.908471025992,,,,,,,,,,,,,,,,,,,,,,,,,,,,,,,,,,,,,,,,,,,,,,,,,,,,,,,,,,,,,,,,,,16592,2022-10-28_15h15.59.757,vts_reward_expectancy_bt_OFFLINE,2022.2.4,60.1094454735859,
0,0,0,1,1,0,0,0,star,triangle,1,0,1,0,2,7,31,9,,,,,,,,,,,,,,,,,,,,,,,,,,,,,,,,,,,,,,,,2347.4089123280137,2347.4089123280137,2347.4089123280137,2347.4089123280137,2347.4089123280137,2347.4089123280137,2347.4089123280137,2347.4089123280137,2347.4089123280137,2347.4089123280137,l,0.5850294100237079,10,485,1,2348.0428995740367,2349.5445890229894,,,,,,,,,,,,,,,,,,,,,,,,,,,,,,,,,,,,,,,,,,,,,,,,,,,,,,,,,,,,,,,,,,16592,2022-10-28_15h15.59.757,vts_reward_expectancy_bt_OFFLINE,2022.2.4,60.1094454735859,
0,0,1,0,0,1,0,0,hexagon,circle,1,0,1,0,2,8,32,7,,,,,,,,,,,,,,,,,,,,,,,,,,,,,,,,,,,,,,,,2350.0450832500355,2350.0450832500355,2350.0450832500355,2350.0450832500355,2350.0450832500355,2350.0450832500355,2350.0450832500355,2350.0450832500355,2350.0450832500355,2350.0450832500355,a,0.01139983005123213,10,495,1,2350.0953042600304,2351.580070002994,,,,,,,,,,,,,,,,,,,,,,,,,,,,,,,,,,,,,,,,,,,,,,,,,,,,,,,,,,,,,,,,,,16592,2022-10-28_15h15.59.757,vts_reward_expectancy_bt_OFFLINE,2022.2.4,60.1094454735859,
0,0,1,0,0,0,0,1,hexagon,star,1,0,1,0,2,9,33,8,,,,,,,,,,,,,,,,,,,,,,,,,,,,,,,,,,,,,,,,2352.0805991609814,2352.0805991609814,2352.0805991609814,2352.0805991609814,2352.0805991609814,2352.0805991609814,2352.0805991609814,2352.0805991609814,2352.0805991609814,2352.0805991609814,l,0.0007398679736070335,1,496,1,2352.1142588660005,2353.615670195024,,,,,,,,,,,,,,,,,,,,,,,,,,,,,,,,,,,,,,,,,,,,,,,,,,,,,,,,,,,,,,,,,,16592,2022-10-28_15h15.59.757,vts_reward_expectancy_bt_OFFLINE,2022.2.4,60.1094454735859,
1,0,0,0,0,0,0,1,triangle,star,1,0,1,0,2,10,34,2,,,,,,,,,,,,,,,,,,,,,,,,,,,,,,,,,,,,,,,,2354.116370614036,2354.116370614036,2354.116370614036,2354.116370614036,2354.116370614036,2354.116370614036,2354.116370614036,2354.116370614036,2354.116370614036,2354.116370614036,l,0.11722633597673848,1,497,1,2354.2829946010024,2355.8014945260365,,,,,,,,,,,,,,,,,,,,,,,,,,,,,,,,,,,,,,,,,,,,,,,,,,,,,,,,,,,,,,,,,,16592,2022-10-28_15h15.59.757,vts_reward_expectancy_bt_OFFLINE,2022.2.4,60.1094454735859,
1,0,0,0,0,0,1,0,triangle,hexagon,1,0,1,0,2,11,35,1,,,,,,,,,,,,,,,,,,,,,,,,,,,,,,,,,,,,,,,,2356.285309756,2356.285309756,2356.285309756,2356.285309756,2356.285309756,2356.285309756,2356.285309756,2356.285309756,2356.285309756,2356.285309756,a,0.011877766053657979,10,507,1,2356.335456967994,2357.8204334740294,,,,,,,,,,,,,,,,,,,,,,,,,,,,,,,,,,,,,,,,,,,,,,,,,,,,,,,,,,,,,,,,,,16592,2022-10-28_15h15.59.757,vts_reward_expectancy_bt_OFFLINE,2022.2.4,60.1094454735859,
0,1,0,0,0,0,1,0,circle,hexagon,1,0,1,0,3,0,36,4,,,,,,,,,,,,,,,,,,,,,,,,,,,,,,,,,,,,,,,,2358.337677564996,2358.337677564996,2358.337677564996,2358.337677564996,2358.337677564996,2358.337677564996,2358.337677564996,2358.337677564996,2358.337677564996,2358.337677564996,l,0.16765577404294163,10,517,1,2358.554589709034,2360.0894087660126,,,,,,,,,,,,,,,,,,,,,,,,,,,,,,,,,,,,,,,,,,,,,,,,,,,,,,,,,,,,,,,,,,16592,2022-10-28_15h15.59.757,vts_reward_expectancy_bt_OFFLINE,2022.2.4,60.1094454735859,
0,0,0,1,0,1,0,0,star ,circle,1,0,1,0,3,1,37,10,,,,,,,,,,,,,,,,,,,,,,,,,,,,,,,,,,,,,,,,2360.556642986019,2360.556642986019,2360.556642986019,2360.556642986019,2360.556642986019,2360.556642986019,2360.556642986019,2360.556642986019,2360.556642986019,2360.556642986019,a,0.06035299802897498,10,527,1,2360.656973509991,2362.158448481001,,,,,,,,,,,,,,,,,,,,,,,,,,,,,,,,,,,,,,,,,,,,,,,,,,,,,,,,,,,,,,,,,,16592,2022-10-28_15h15.59.757,vts_reward_expectancy_bt_OFFLINE,2022.2.4,60.1094454735859,
0,1,0,0,0,0,0,1,circle,star,1,0,1,0,3,2,38,5,,,,,,,,,,,,,,,,,,,,,,,,,,,,,,,,,,,,,,,,2362.675785275991,2362.675785275991,2362.675785275991,2362.675785275991,2362.675785275991,2362.675785275991,2362.675785275991,2362.675785275991,2362.675785275991,2362.675785275991,l,0.15090168203460053,10,537,1,2362.8761031380272,2364.3776101450203,,,,,,,,,,,,,,,,,,,,,,,,,,,,,,,,,,,,,,,,,,,,,,,,,,,,,,,,,,,,,,,,,,16592,2022-10-28_15h15.59.757,vts_reward_expectancy_bt_OFFLINE,2022.2.4,60.1094454735859,
1,0,0,0,0,0,1,0,triangle,hexagon,1,0,1,0,3,3,39,1,,,,,,,,,,,,,,,,,,,,,,,,,,,,,,,,,,,,,,,,2364.8780838749954,2364.8780838749954,2364.8780838749954,2364.8780838749954,2364.8780838749954,2364.8780838749954,2364.8780838749954,2364.8780838749954,2364.8780838749954,2364.8780838749954,l,0.07452438800828531,10,547,1,2364.9952067380073,2366.4799710350344,,,,,,,,,,,,,,,,,,,,,,,,,,,,,,,,,,,,,,,,,,,,,,,,,,,,,,,,,,,,,,,,,,16592,2022-10-28_15h15.59.757,vts_reward_expectancy_bt_OFFLINE,2022.2.4,60.1094454735859,
1,0,0,0,0,1,0,0,triangle,circle,1,0,1,0,3,4,40,0,,,,,,,,,,,,,,,,,,,,,,,,,,,,,,,,,,,,,,,,2366.980433978024,2366.980433978024,2366.980433978024,2366.980433978024,2366.980433978024,2366.980433978024,2366.980433978024,2366.980433978024,2366.980433978024,2366.980433978024,a,0.8448227299959399,10,557,1,2367.8647647490143,2369.3497481680242,,,,,,,,,,,,,,,,,,,,,,,,,,,,,,,,,,,,,,,,,,,,,,,,,,,,,,,,,,,,,,,,,,16592,2022-10-28_15h15.59.757,vts_reward_expectancy_bt_OFFLINE,2022.2.4,60.1094454735859,
0,0,1,0,1,0,0,0,hexagon,triangle,1,0,1,0,3,5,41,6,,,,,,,,,,,,,,,,,,,,,,,,,,,,,,,,,,,,,,,,2369.8502393460367,2369.8502393460367,2369.8502393460367,2369.8502393460367,2369.8502393460367,2369.8502393460367,2369.8502393460367,2369.8502393460367,2369.8502393460367,2369.8502393460367,a,25.87074715498602,10,567,1,2395.762145105982,2397.2471399210044,,,,,,,,,,,,,,,,,,,,,,,,,,,,,,,,,,,,,,,,,,,,,,,,,,,,,,,,,,,,,,,,,,16592,2022-10-28_15h15.59.757,vts_reward_expectancy_bt_OFFLINE,2022.2.4,60.1094454735859,
0,0,1,0,0,0,0,1,hexagon,star,1,0,1,0,3,6,42,8,,,,,,,,,,,,,,,,,,,,,,,,,,,,,,,,,,,,,,,,2397.747724493034,2397.747724493034,2397.747724493034,2397.747724493034,2397.747724493034,2397.747724493034,2397.747724493034,2397.747724493034,2397.747724493034,2397.747724493034,l,0.02976324298651889,10,577,1,2397.8144542500377,2399.299461971037,,,,,,,,,,,,,,,,,,,,,,,,,,,,,,,,,,,,,,,,,,,,,,,,,,,,,,,,,,,,,,,,,,16592,2022-10-28_15h15.59.757,vts_reward_expectancy_bt_OFFLINE,2022.2.4,60.1094454735859,
0,1,0,0,1,0,0,0,circle,triangle,1,0,1,0,3,7,43,3,,,,,,,,,,,,,,,,,,,,,,,,,,,,,,,,,,,,,,,,2399.799979800009,2399.799979800009,2399.799979800009,2399.799979800009,2399.799979800009,2399.799979800009,2399.799979800009,2399.799979800009,2399.799979800009,2399.799979800009,l,0.041476173035334796,1,578,1,2399.883580157999,2401.368399113009,,,,,,,,,,,,,,,,,,,,,,,,,,,,,,,,,,,,,,,,,,,,,,,,,,,,,,,,,,,,,,,,,,16592,2022-10-28_15h15.59.757,vts_reward_expectancy_bt_OFFLINE,2022.2.4,60.1094454735859,
0,0,1,0,0,1,0,0,hexagon,circle,1,0,1,0,3,8,44,7,,,,,,,,,,,,,,,,,,,,,,,,,,,,,,,,,,,,,,,,2401.86922131601,2401.86922131601,2401.86922131601,2401.86922131601,2401.86922131601,2401.86922131601,2401.86922131601,2401.86922131601,2401.86922131601,2401.86922131601,l,0.09232400299515575,1,579,1,2402.0027724480024,2403.5041637790273,,,,,,,,,,,,,,,,,,,,,,,,,,,,,,,,,,,,,,,,,,,,,,,,,,,,,,,,,,,,,,,,,,16592,2022-10-28_15h15.59.757,vts_reward_expectancy_bt_OFFLINE,2022.2.4,60.1094454735859,
1,0,0,0,0,0,0,1,triangle,star,1,0,1,0,3,9,45,2,,,,,,,,,,,,,,,,,,,,,,,,,,,,,,,,,,,,,,,,2403.988108358986,2403.988108358986,2403.988108358986,2403.988108358986,2403.988108358986,2403.988108358986,2403.988108358986,2403.988108358986,2403.988108358986,2403.988108358986,a,0.12466312799369916,10,589,1,2404.1713462590124,2405.6731525980285,,,,,,,,,,,,,,,,,,,,,,,,,,,,,,,,,,,,,,,,,,,,,,,,,,,,,,,,,,,,,,,,,,16592,2022-10-28_15h15.59.757,vts_reward_expectancy_bt_OFFLINE,2022.2.4,60.1094454735859,
0,0,0,1,1,0,0,0,star,triangle,1,0,1,0,3,10,46,9,,,,,,,,,,,,,,,,,,,,,,,,,,,,,,,,,,,,,,,,2406.173694810015,2406.173694810015,2406.173694810015,2406.173694810015,2406.173694810015,2406.173694810015,2406.173694810015,2406.173694810015,2406.173694810015,2406.173694810015,a,0.01195975299924612,1,590,1,2406.2236487150076,2407.7085983930156,,,,,,,,,,,,,,,,,,,,,,,,,,,,,,,,,,,,,,,,,,,,,,,,,,,,,,,,,,,,,,,,,,16592,2022-10-28_15h15.59.757,vts_reward_expectancy_bt_OFFLINE,2022.2.4,60.1094454735859,
0,0,0,1,0,0,1,0,star,hexagon,1,0,1,0,3,11,47,11,,,,,,,,,,,,,,,,,,,,,,,,,,,,,,,,,,,,,,,,2408.2091966650332,2408.2091966650332,2408.2091966650332,2408.2091966650332,2408.2091966650332,2408.2091966650332,2408.2091966650332,2408.2091966650332,2408.2091966650332,2408.2091966650332,a,0.02465517504606396,1,591,1,2408.2761875300203,2409.7610225829994,,,,,,,,,,,,,,,,,,,,,,,,,,,,,,,,,,,,,,,,,,,,,,,,,,,,,,,,,,,,,,,,,,16592,2022-10-28_15h15.59.757,vts_reward_expectancy_bt_OFFLINE,2022.2.4,60.1094454735859,
0,0,1,0,0,1,0,0,hexagon,circle,2,0,2,0,0,0,0,7,,,,,,,,,,,,,,,,,,,,,,,,,,,,,,,,,,,,,,,,2414.9501543490333,2414.9501543490333,2414.9501543490333,2414.9501543490333,2414.9501543490333,2414.9501543490333,2414.9501543490333,2414.9501543490333,2414.9501543490333,2414.9501543490333,a,0.5954893620219082,10,601,2,2415.584038047993,2417.069144495006,,,,,,,,,,,,,,,,,,,,,,,,,,,,,,,,,,,,,,,,,,,,,,,,,,,,,,,,,,,,,,,,,,16592,2022-10-28_15h15.59.757,vts_reward_expectancy_bt_OFFLINE,2022.2.4,60.1094454735859,
1,0,0,0,0,0,1,0,triangle,hexagon,2,0,2,0,0,1,1,1,,,,,,,,,,,,,,,,,,,,,,,,,,,,,,,,,,,,,,,,2417.586480905011,2417.586480905011,2417.586480905011,2417.586480905011,2417.586480905011,2417.586480905011,2417.586480905011,2417.586480905011,2417.586480905011,2417.586480905011,l,0.10230480396421626,1,602,2,2417.7363882649806,2419.2383195830043,,,,,,,,,,,,,,,,,,,,,,,,,,,,,,,,,,,,,,,,,,,,,,,,,,,,,,,,,,,,,,,,,,16592,2022-10-28_15h15.59.757,vts_reward_expectancy_bt_OFFLINE,2022.2.4,60.1094454735859,
0,0,0,1,0,0,1,0,star,hexagon,2,0,2,0,0,2,2,11,,,,,,,,,,,,,,,,,,,,,,,,,,,,,,,,,,,,,,,,2419.738555040036,2419.738555040036,2419.738555040036,2419.738555040036,2419.738555040036,2419.738555040036,2419.738555040036,2419.738555040036,2419.738555040036,2419.738555040036,a,0.03947173000779003,10,612,2,2419.822203888034,2421.3236675160006,,,,,,,,,,,,,,,,,,,,,,,,,,,,,,,,,,,,,,,,,,,,,,,,,,,,,,,,,,,,,,,,,,16592,2022-10-28_15h15.59.757,vts_reward_expectancy_bt_OFFLINE,2022.2.4,60.1094454735859,
0,1,0,0,0,0,1,0,circle,hexagon,2,0,2,0,0,3,3,4,,,,,,,,,,,,,,,,,,,,,,,,,,,,,,,,,,,,,,,,2421.8241227039834,2421.8241227039834,2421.8241227039834,2421.8241227039834,2421.8241227039834,2421.8241227039834,2421.8241227039834,2421.8241227039834,2421.8241227039834,2421.8241227039834,a,0.0011350209824740887,1,613,2,2421.8741547330283,2423.376134895021,,,,,,,,,,,,,,,,,,,,,,,,,,,,,,,,,,,,,,,,,,,,,,,,,,,,,,,,,,,,,,,,,,16592,2022-10-28_15h15.59.757,vts_reward_expectancy_bt_OFFLINE,2022.2.4,60.1094454735859,
1,0,0,0,0,0,0,1,triangle,star,2,0,2,0,0,4,4,2,,,,,,,,,,,,,,,,,,,,,,,,,,,,,,,,,,,,,,,,2423.8765925430343,2423.8765925430343,2423.8765925430343,2423.8765925430343,2423.8765925430343,2423.8765925430343,2423.8765925430343,2423.8765925430343,2423.8765925430343,2423.8765925430343,l,0.12428599700797349,1,614,2,2424.0601198450313,2425.528477768996,,,,,,,,,,,,,,,,,,,,,,,,,,,,,,,,,,,,,,,,,,,,,,,,,,,,,,,,,,,,,,,,,,16592,2022-10-28_15h15.59.757,vts_reward_expectancy_bt_OFFLINE,2022.2.4,60.1094454735859,
1,0,0,0,0,1,0,0,triangle,circle,2,0,2,0,0,5,5,0,,,,,,,,,,,,,,,,,,,,,,,,,,,,,,,,,,,,,,,,2426.0457608830184,2426.0457608830184,2426.0457608830184,2426.0457608830184,2426.0457608830184,2426.0457608830184,2426.0457608830184,2426.0457608830184,2426.0457608830184,2426.0457608830184,a,0.1168990790611133,10,624,2,2426.1957245059893,2427.697384986037,,,,,,,,,,,,,,,,,,,,,,,,,,,,,,,,,,,,,,,,,,,,,,,,,,,,,,,,,,,,,,,,,,16592,2022-10-28_15h15.59.757,vts_reward_expectancy_bt_OFFLINE,2022.2.4,60.1094454735859,
0,0,1,0,0,0,0,1,hexagon,star,2,0,2,0,0,6,6,8,,,,,,,,,,,,,,,,,,,,,,,,,,,,,,,,,,,,,,,,2428.1980525850086,2428.1980525850086,2428.1980525850086,2428.1980525850086,2428.1980525850086,2428.1980525850086,2428.1980525850086,2428.1980525850086,2428.1980525850086,2428.1980525850086,l,0.10036970902001485,1,625,2,2428.331398618,2429.8498635779833,,,,,,,,,,,,,,,,,,,,,,,,,,,,,,,,,,,,,,,,,,,,,,,,,,,,,,,,,,,,,,,,,,16592,2022-10-28_15h15.59.757,vts_reward_expectancy_bt_OFFLINE,2022.2.4,60.1094454735859,
0,0,0,1,1,0,0,0,star,triangle,2,0,2,0,0,7,7,9,,,,,,,,,,,,,,,,,,,,,,,,,,,,,,,,,,,,,,,,2430.3171572859865,2430.3171572859865,2430.3171572859865,2430.3171572859865,2430.3171572859865,2430.3171572859865,2430.3171572859865,2430.3171572859865,2430.3171572859865,2430.3171572859865,a,0.14986068598227575,1,626,2,2430.5006213749875,2431.9854804680217,,,,,,,,,,,,,,,,,,,,,,,,,,,,,,,,,,,,,,,,,,,,,,,,,,,,,,,,,,,,,,,,,,16592,2022-10-28_15h15.59.757,vts_reward_expectancy_bt_OFFLINE,2022.2.4,60.1094454735859,
0,1,0,0,1,0,0,0,circle,triangle,2,0,2,0,0,8,8,3,,,,,,,,,,,,,,,,,,,,,,,,,,,,,,,,,,,,,,,,2432.486192783981,2432.486192783981,2432.486192783981,2432.486192783981,2432.486192783981,2432.486192783981,2432.486192783981,2432.486192783981,2432.486192783981,2432.486192783981,l,0.09085183497518301,10,636,2,2432.619593191019,2434.1045664229896,,,,,,,,,,,,,,,,,,,,,,,,,,,,,,,,,,,,,,,,,,,,,,,,,,,,,,,,,,,,,,,,,,16592,2022-10-28_15h15.59.757,vts_reward_expectancy_bt_OFFLINE,2022.2.4,60.1094454735859,
0,1,0,0,0,0,0,1,circle,star,2,0,2,0,0,9,9,5,,,,,,,,,,,,,,,,,,,,,,,,,,,,,,,,,,,,,,,,2434.6051999460324,2434.6051999460324,2434.6051999460324,2434.6051999460324,2434.6051999460324,2434.6051999460324,2434.6051999460324,2434.6051999460324,2434.6051999460324,2434.6051999460324,l,0.14867675100686029,1,637,2,2434.821981724992,2436.2736616210314,,,,,,,,,,,,,,,,,,,,,,,,,,,,,,,,,,,,,,,,,,,,,,,,,,,,,,,,,,,,,,,,,,16592,2022-10-28_15h15.59.757,vts_reward_expectancy_bt_OFFLINE,2022.2.4,60.1094454735859,
0,0,1,0,1,0,0,0,hexagon,triangle,2,0,2,0,0,10,10,6,,,,,,,,,,,,,,,,,,,,,,,,,,,,,,,,,,,,,,,,2436.7739668760332,2436.7739668760332,2436.7739668760332,2436.7739668760332,2436.7739668760332,2436.7739668760332,2436.7739668760332,2436.7739668760332,2436.7739668760332,2436.7739668760332,l,0.027286705968435854,10,647,2,2436.8408868380357,2438.325951736013,,,,,,,,,,,,,,,,,,,,,,,,,,,,,,,,,,,,,,,,,,,,,,,,,,,,,,,,,,,,,,,,,,16592,2022-10-28_15h15.59.757,vts_reward_expectancy_bt_OFFLINE,2022.2.4,60.1094454735859,
0,0,0,1,0,1,0,0,star ,circle,2,0,2,0,0,11,11,10,,,,,,,,,,,,,,,,,,,,,,,,,,,,,,,,,,,,,,,,2438.8429316160036,2438.8429316160036,2438.8429316160036,2438.8429316160036,2438.8429316160036,2438.8429316160036,2438.8429316160036,2438.8429316160036,2438.8429316160036,2438.8429316160036,l,0.015384970989543945,1,648,2,2438.893277895986,2440.378095041029,,,,,,,,,,,,,,,,,,,,,,,,,,,,,,,,,,,,,,,,,,,,,,,,,,,,,,,,,,,,,,,,,,16592,2022-10-28_15h15.59.757,vts_reward_expectancy_bt_OFFLINE,2022.2.4,60.1094454735859,
0,1,0,0,0,0,1,0,circle,hexagon,2,0,2,0,1,0,12,4,,,,,,,,,,,,,,,,,,,,,,,,,,,,,,,,,,,,,,,,2440.8787958259927,2440.8787958259927,2440.8787958259927,2440.8787958259927,2440.8787958259927,2440.8787958259927,2440.8787958259927,2440.8787958259927,2440.8787958259927,2440.8787958259927,a,0.0506792240194045,10,658,2,2440.9786678400123,2442.496950693021,,,,,,,,,,,,,,,,,,,,,,,,,,,,,,,,,,,,,,,,,,,,,,,,,,,,,,,,,,,,,,,,,,16592,2022-10-28_15h15.59.757,vts_reward_expectancy_bt_OFFLINE,2022.2.4,60.1094454735859,
0,0,1,0,0,1,0,0,hexagon,circle,2,0,2,0,1,1,13,7,,,,,,,,,,,,,,,,,,,,,,,,,,,,,,,,,,,,,,,,2442.9808994089835,2442.9808994089835,2442.9808994089835,2442.9808994089835,2442.9808994089835,2442.9808994089835,2442.9808994089835,2442.9808994089835,2442.9808994089835,2442.9808994089835,a,0.15711261698743328,10,668,2,2443.1811277900124,2444.666159907996,,,,,,,,,,,,,,,,,,,,,,,,,,,,,,,,,,,,,,,,,,,,,,,,,,,,,,,,,,,,,,,,,,16592,2022-10-28_15h15.59.757,vts_reward_expectancy_bt_OFFLINE,2022.2.4,60.1094454735859,
1,0,0,0,0,0,0,1,triangle,star,2,0,2,0,1,2,14,2,,,,,,,,,,,,,,,,,,,,,,,,,,,,,,,,,,,,,,,,2445.1665702750324,2445.1665702750324,2445.1665702750324,2445.1665702750324,2445.1665702750324,2445.1665702750324,2445.1665702750324,2445.1665702750324,2445.1665702750324,2445.1665702750324,l,0.009940174000803381,1,669,2,2445.216611384996,2446.71835085802,,,,,,,,,,,,,,,,,,,,,,,,,,,,,,,,,,,,,,,,,,,,,,,,,,,,,,,,,,,,,,,,,,16592,2022-10-28_15h15.59.757,vts_reward_expectancy_bt_OFFLINE,2022.2.4,60.1094454735859,
1,0,0,0,0,0,1,0,triangle,hexagon,2,0,2,0,1,3,15,1,,,,,,,,,,,,,,,,,,,,,,,,,,,,,,,,,,,,,,,,2447.202380570001,2447.202380570001,2447.202380570001,2447.202380570001,2447.202380570001,2447.202380570001,2447.202380570001,2447.202380570001,2447.202380570001,2447.202380570001,l,0.07875549996970221,10,679,2,2447.3196762800217,2448.8039668080164,,,,,,,,,,,,,,,,,,,,,,,,,,,,,,,,,,,,,,,,,,,,,,,,,,,,,,,,,,,,,,,,,,16592,2022-10-28_15h15.59.757,vts_reward_expectancy_bt_OFFLINE,2022.2.4,60.1094454735859,
0,0,0,1,0,1,0,0,star ,circle,2,0,2,0,1,4,16,10,,,,,,,,,,,,,,,,,,,,,,,,,,,,,,,,,,,,,,,,2449.321443624038,2449.321443624038,2449.321443624038,2449.321443624038,2449.321443624038,2449.321443624038,2449.321443624038,2449.321443624038,2449.321443624038,2449.321443624038,l,0.14415999600896612,10,689,2,2449.538130995992,2451.0564811750082,,,,,,,,,,,,,,,,,,,,,,,,,,,,,,,,,,,,,,,,,,,,,,,,,,,,,,,,,,,,,,,,,,16592,2022-10-28_15h15.59.757,vts_reward_expectancy_bt_OFFLINE,2022.2.4,60.1094454735859,
0,0,1,0,0,0,0,1,hexagon,star,2,0,2,0,1,5,17,8,,,,,,,,,,,,,,,,,,,,,,,,,,,,,,,,,,,,,,,,2451.540436760988,2451.540436760988,2451.540436760988,2451.540436760988,2451.540436760988,2451.540436760988,2451.540436760988,2451.540436760988,2451.540436760988,2451.540436760988,l,0.12495936499908566,1,690,2,2451.708188346005,2453.1920636980212,,,,,,,,,,,,,,,,,,,,,,,,,,,,,,,,,,,,,,,,,,,,,,,,,,,,,,,,,,,,,,,,,,16592,2022-10-28_15h15.59.757,vts_reward_expectancy_bt_OFFLINE,2022.2.4,60.1094454735859,
0,0,1,0,1,0,0,0,hexagon,triangle,2,0,2,0,1,6,18,6,,,,,,,,,,,,,,,,,,,,,,,,,,,,,,,,,,,,,,,,2453.7261490399833,2453.7261490399833,2453.7261490399833,2453.7261490399833,2453.7261490399833,2453.7261490399833,2453.7261490399833,2453.7261490399833,2453.7261490399833,2453.7261490399833,l,0.13254125096136704,1,691,2,2453.926411023014,2455.378076388035,,,,,,,,,,,,,,,,,,,,,,,,,,,,,,,,,,,,,,,,,,,,,,,,,,,,,,,,,,,,,,,,,,16592,2022-10-28_15h15.59.757,vts_reward_expectancy_bt_OFFLINE,2022.2.4,60.1094454735859,
0,1,0,0,1,0,0,0,circle,triangle,2,0,2,0,1,7,19,3,,,,,,,,,,,,,,,,,,,,,,,,,,,,,,,,,,,,,,,,2455.895080615999,2455.895080615999,2455.895080615999,2455.895080615999,2455.895080615999,2455.895080615999,2455.895080615999,2455.895080615999,2455.895080615999,2455.895080615999,l,0.14602373400703073,10,701,2,2456.1120198349818,2457.5635686930036,,,,,,,,,,,,,,,,,,,,,,,,,,,,,,,,,,,,,,,,,,,,,,,,,,,,,,,,,,,,,,,,,,16592,2022-10-28_15h15.59.757,vts_reward_expectancy_bt_OFFLINE,2022.2.4,60.1094454735859,
0,0,0,1,1,0,0,0,star,triangle,2,0,2,0,1,8,20,9,,,,,,,,,,,,,,,,,,,,,,,,,,,,,,,,,,,,,,,,2458.06424234499,2458.06424234499,2458.06424234499,2458.06424234499,2458.06424234499,2458.06424234499,2458.06424234499,2458.06424234499,2458.06424234499,2458.06424234499,a,0.05654033902101219,10,711,2,2458.1812734699924,2459.682866989984,,,,,,,,,,,,,,,,,,,,,,,,,,,,,,,,,,,,,,,,,,,,,,,,,,,,,,,,,,,,,,,,,,16592,2022-10-28_15h15.59.757,vts_reward_expectancy_bt_OFFLINE,2022.2.4,60.1094454735859,
0,0,0,1,0,0,1,0,star,hexagon,2,0,2,0,1,9,21,11,,,,,,,,,,,,,,,,,,,,,,,,,,,,,,,,,,,,,,,,2460.1831794159953,2460.1831794159953,2460.1831794159953,2460.1831794159953,2460.1831794159953,2460.1831794159953,2460.1831794159953,2460.1831794159953,2460.1831794159953,2460.1831794159953,l,0.03427186899352819,10,721,2,2460.2668050240027,2461.7850490229903,,,,,,,,,,,,,,,,,,,,,,,,,,,,,,,,,,,,,,,,,,,,,,,,,,,,,,,,,,,,,,,,,,16592,2022-10-28_15h15.59.757,vts_reward_expectancy_bt_OFFLINE,2022.2.4,60.1094454735859,
1,0,0,0,0,1,0,0,triangle,circle,2,0,2,0,1,10,22,0,,,,,,,,,,,,,,,,,,,,,,,,,,,,,,,,,,,,,,,,2462.285638509027,2462.285638509027,2462.285638509027,2462.285638509027,2462.285638509027,2462.285638509027,2462.285638509027,2462.285638509027,2462.285638509027,2462.285638509027,a,0.17912548797903582,10,731,2,2462.502368629037,2463.987472095003,,,,,,,,,,,,,,,,,,,,,,,,,,,,,,,,,,,,,,,,,,,,,,,,,,,,,,,,,,,,,,,,,,16592,2022-10-28_15h15.59.757,vts_reward_expectancy_bt_OFFLINE,2022.2.4,60.1094454735859,
0,1,0,0,0,0,0,1,circle,star,2,0,2,0,1,11,23,5,,,,,,,,,,,,,,,,,,,,,,,,,,,,,,,,,,,,,,,,2464.504806410987,2464.504806410987,2464.504806410987,2464.504806410987,2464.504806410987,2464.504806410987,2464.504806410987,2464.504806410987,2464.504806410987,2464.504806410987,a,0.2654237779788673,1,732,2,2464.838533230999,2466.306757775019,,,,,,,,,,,,,,,,,,,,,,,,,,,,,,,,,,,,,,,,,,,,,,,,,,,,,,,,,,,,,,,,,,16592,2022-10-28_15h15.59.757,vts_reward_expectancy_bt_OFFLINE,2022.2.4,60.1094454735859,
0,1,0,0,0,0,1,0,circle,hexagon,2,0,2,0,2,0,24,4,,,,,,,,,,,,,,,,,,,,,,,,,,,,,,,,,,,,,,,,2466.7905850509997,2466.7905850509997,2466.7905850509997,2466.7905850509997,2466.7905850509997,2466.7905850509997,2466.7905850509997,2466.7905850509997,2466.7905850509997,2466.7905850509997,l,0.06715195899596438,10,742,2,2466.924159001035,2468.3923840129864,,,,,,,,,,,,,,,,,,,,,,,,,,,,,,,,,,,,,,,,,,,,,,,,,,,,,,,,,,,,,,,,,,16592,2022-10-28_15h15.59.757,vts_reward_expectancy_bt_OFFLINE,2022.2.4,60.1094454735859,
0,1,0,0,1,0,0,0,circle,triangle,2,0,2,0,2,1,25,3,,,,,,,,,,,,,,,,,,,,,,,,,,,,,,,,,,,,,,,,2468.8763483630028,2468.8763483630028,2468.8763483630028,2468.8763483630028,2468.8763483630028,2468.8763483630028,2468.8763483630028,2468.8763483630028,2468.8763483630028,2468.8763483630028,l,0.22920022200560197,1,743,2,2469.176514539984,2470.661423349986,,,,,,,,,,,,,,,,,,,,,,,,,,,,,,,,,,,,,,,,,,,,,,,,,,,,,,,,,,,,,,,,,,16592,2022-10-28_15h15.59.757,vts_reward_expectancy_bt_OFFLINE,2022.2.4,60.1094454735859,
0,0,1,0,0,1,0,0,hexagon,circle,2,0,2,0,2,2,26,7,,,,,,,,,,,,,,,,,,,,,,,,,,,,,,,,,,,,,,,,2471.1284924590145,2471.1284924590145,2471.1284924590145,2471.1284924590145,2471.1284924590145,2471.1284924590145,2471.1284924590145,2471.1284924590145,2471.1284924590145,2471.1284924590145,l,0.050532046996522695,1,744,2,2471.2287917329813,2472.730440166022,,,,,,,,,,,,,,,,,,,,,,,,,,,,,,,,,,,,,,,,,,,,,,,,,,,,,,,,,,,,,,,,,,16592,2022-10-28_15h15.59.757,vts_reward_expectancy_bt_OFFLINE,2022.2.4,60.1094454735859,
0,0,1,0,0,0,0,1,hexagon,star,2,0,2,0,2,3,27,8,,,,,,,,,,,,,,,,,,,,,,,,,,,,,,,,,,,,,,,,2473.214230591024,2473.214230591024,2473.214230591024,2473.214230591024,2473.214230591024,2473.214230591024,2473.214230591024,2473.214230591024,2473.214230591024,2473.214230591024,l,0.0028594149625860155,1,745,2,2473.297774087987,2474.799434783985,,,,,,,,,,,,,,,,,,,,,,,,,,,,,,,,,,,,,,,,,,,,,,,,,,,,,,,,,,,,,,,,,,16592,2022-10-28_15h15.59.757,vts_reward_expectancy_bt_OFFLINE,2022.2.4,60.1094454735859,
0,0,0,1,0,0,1,0,star,hexagon,2,0,2,0,2,4,28,11,,,,,,,,,,,,,,,,,,,,,,,,,,,,,,,,,,,,,,,,2475.299959218013,2475.299959218013,2475.299959218013,2475.299959218013,2475.299959218013,2475.299959218013,2475.299959218013,2475.299959218013,2475.299959218013,2475.299959218013,l,0.19925500301178545,1,746,2,2475.56716788403,2477.018471945019,,,,,,,,,,,,,,,,,,,,,,,,,,,,,,,,,,,,,,,,,,,,,,,,,,,,,,,,,,,,,,,,,,16592,2022-10-28_15h15.59.757,vts_reward_expectancy_bt_OFFLINE,2022.2.4,60.1094454735859,
0,1,0,0,0,0,0,1,circle,star,2,0,2,0,2,5,29,5,,,,,,,,,,,,,,,,,,,,,,,,,,,,,,,,,,,,,,,,2477.5190148230176,2477.5190148230176,2477.5190148230176,2477.5190148230176,2477.5190148230176,2477.5190148230176,2477.5190148230176,2477.5190148230176,2477.5190148230176,2477.5190148230176,a,0.10017818899359554,1,747,2,2477.6861330640386,2479.137666439987,,,,,,,,,,,,,,,,,,,,,,,,,,,,,,,,,,,,,,,,,,,,,,,,,,,,,,,,,,,,,,,,,,16592,2022-10-28_15h15.59.757,vts_reward_expectancy_bt_OFFLINE,2022.2.4,60.1094454735859,
1,0,0,0,0,0,1,0,triangle,hexagon,2,0,2,0,2,6,30,1,,,,,,,,,,,,,,,,,,,,,,,,,,,,,,,,,,,,,,,,2479.6548576740315,2479.6548576740315,2479.6548576740315,2479.6548576740315,2479.6548576740315,2479.6548576740315,2479.6548576740315,2479.6548576740315,2479.6548576740315,2479.6548576740315,a,0.22575011901790276,10,757,2,2479.9550727210008,2481.4566609979956,,,,,,,,,,,,,,,,,,,,,,,,,,,,,,,,,,,,,,,,,,,,,,,,,,,,,,,,,,,,,,,,,,16592,2022-10-28_15h15.59.757,vts_reward_expectancy_bt_OFFLINE,2022.2.4,60.1094454735859,
0,0,1,0,1,0,0,0,hexagon,triangle,2,0,2,0,2,7,31,6,,,,,,,,,,,,,,,,,,,,,,,,,,,,,,,,,,,,,,,,2481.957200239005,2481.957200239005,2481.957200239005,2481.957200239005,2481.957200239005,2481.957200239005,2481.957200239005,2481.957200239005,2481.957200239005,2481.957200239005,a,0.011819034989457577,1,758,2,2482.0407556780265,2483.4922480009845,,,,,,,,,,,,,,,,,,,,,,,,,,,,,,,,,,,,,,,,,,,,,,,,,,,,,,,,,,,,,,,,,,16592,2022-10-28_15h15.59.757,vts_reward_expectancy_bt_OFFLINE,2022.2.4,60.1094454735859,
0,0,0,1,1,0,0,0,star,triangle,2,0,2,0,2,8,32,9,,,,,,,,,,,,,,,,,,,,,,,,,,,,,,,,,,,,,,,,2483.9927702730056,2483.9927702730056,2483.9927702730056,2483.9927702730056,2483.9927702730056,2483.9927702730056,2483.9927702730056,2483.9927702730056,2483.9927702730056,2483.9927702730056,l,0.05024755495833233,10,768,2,2484.109781779989,2485.5779463850195,,,,,,,,,,,,,,,,,,,,,,,,,,,,,,,,,,,,,,,,,,,,,,,,,,,,,,,,,,,,,,,,,,16592,2022-10-28_15h15.59.757,vts_reward_expectancy_bt_OFFLINE,2022.2.4,60.1094454735859,
0,0,0,1,0,1,0,0,star ,circle,2,0,2,0,2,9,33,10,,,,,,,,,,,,,,,,,,,,,,,,,,,,,,,,,,,,,,,,2486.0618049590266,2486.0618049590266,2486.0618049590266,2486.0618049590266,2486.0618049590266,2486.0618049590266,2486.0618049590266,2486.0618049590266,2486.0618049590266,2486.0618049590266,a,0.1631514509790577,10,778,2,2486.295494630991,2487.7471484729904,,,,,,,,,,,,,,,,,,,,,,,,,,,,,,,,,,,,,,,,,,,,,,,,,,,,,,,,,,,,,,,,,,16592,2022-10-28_15h15.59.757,vts_reward_expectancy_bt_OFFLINE,2022.2.4,60.1094454735859,
1,0,0,0,0,1,0,0,triangle,circle,2,0,2,0,2,10,34,0,,,,,,,,,,,,,,,,,,,,,,,,,,,,,,,,,,,,,,,,2488.2476197860087,2488.2476197860087,2488.2476197860087,2488.2476197860087,2488.2476197860087,2488.2476197860087,2488.2476197860087,2488.2476197860087,2488.2476197860087,2488.2476197860087,l,0.14548389799892902,1,779,2,2488.4645971680293,2489.916240828985,,,,,,,,,,,,,,,,,,,,,,,,,,,,,,,,,,,,,,,,,,,,,,,,,,,,,,,,,,,,,,,,,,16592,2022-10-28_15h15.59.757,vts_reward_expectancy_bt_OFFLINE,2022.2.4,60.1094454735859,
1,0,0,0,0,0,0,1,triangle,star,2,0,2,0,2,11,35,2,,,,,,,,,,,,,,,,,,,,,,,,,,,,,,,,,,,,,,,,2490.416738473985,2490.416738473985,2490.416738473985,2490.416738473985,2490.416738473985,2490.416738473985,2490.416738473985,2490.416738473985,2490.416738473985,2490.416738473985,l,0.07393255800707266,10,789,2,2490.566888336034,2492.0183951450163,,,,,,,,,,,,,,,,,,,,,,,,,,,,,,,,,,,,,,,,,,,,,,,,,,,,,,,,,,,,,,,,,,16592,2022-10-28_15h15.59.757,vts_reward_expectancy_bt_OFFLINE,2022.2.4,60.1094454735859,
1,0,0,0,0,0,1,0,triangle,hexagon,2,0,2,0,3,0,36,1,,,,,,,,,,,,,,,,,,,,,,,,,,,,,,,,,,,,,,,,2492.5191349610104,2492.5191349610104,2492.5191349610104,2492.5191349610104,2492.5191349610104,2492.5191349610104,2492.5191349610104,2492.5191349610104,2492.5191349610104,2492.5191349610104,l,0.02561641001375392,1,790,2,2492.6024019010365,2494.1543089600164,,,,,,,,,,,,,,,,,,,,,,,,,,,,,,,,,,,,,,,,,,,,,,,,,,,,,,,,,,,,,,,,,,16592,2022-10-28_15h15.59.757,vts_reward_expectancy_bt_OFFLINE,2022.2.4,60.1094454735859,
0,0,0,1,0,0,1,0,star,hexagon,2,0,2,0,3,1,37,11,,,,,,,,,,,,,,,,,,,,,,,,,,,,,,,,,,,,,,,,2494.604574243014,2494.604574243014,2494.604574243014,2494.604574243014,2494.604574243014,2494.604574243014,2494.604574243014,2494.604574243014,2494.604574243014,2494.604574243014,a,0.08591615501791239,1,791,2,2494.754891294986,2496.223109889019,,,,,,,,,,,,,,,,,,,,,,,,,,,,,,,,,,,,,,,,,,,,,,,,,,,,,,,,,,,,,,,,,,16592,2022-10-28_15h15.59.757,vts_reward_expectancy_bt_OFFLINE,2022.2.4,60.1094454735859,
1,0,0,0,0,1,0,0,triangle,circle,2,0,2,0,3,2,38,0,,,,,,,,,,,,,,,,,,,,,,,,,,,,,,,,,,,,,,,,2496.7237465379876,2496.7237465379876,2496.7237465379876,2496.7237465379876,2496.7237465379876,2496.7237465379876,2496.7237465379876,2496.7237465379876,2496.7237465379876,2496.7237465379876,l,0.18350818403996527,1,792,2,2496.973854315991,2498.442152089032,,,,,,,,,,,,,,,,,,,,,,,,,,,,,,,,,,,,,,,,,,,,,,,,,,,,,,,,,,,,,,,,,,16592,2022-10-28_15h15.59.757,vts_reward_expectancy_bt_OFFLINE,2022.2.4,60.1094454735859,
0,1,0,0,1,0,0,0,circle,triangle,2,0,2,0,3,3,39,3,,,,,,,,,,,,,,,,,,,,,,,,,,,,,,,,,,,,,,,,2498.9592429230106,2498.9592429230106,2498.9592429230106,2498.9592429230106,2498.9592429230106,2498.9592429230106,2498.9592429230106,2498.9592429230106,2498.9592429230106,2498.9592429230106,l,0.17774211801588535,1,793,2,2499.2096168579883,2500.677924847987,,,,,,,,,,,,,,,,,,,,,,,,,,,,,,,,,,,,,,,,,,,,,,,,,,,,,,,,,,,,,,,,,,16592,2022-10-28_15h15.59.757,vts_reward_expectancy_bt_OFFLINE,2022.2.4,60.1094454735859,
0,0,0,1,1,0,0,0,star,triangle,2,0,2,0,3,4,40,9,,,,,,,,,,,,,,,,,,,,,,,,,,,,,,,,,,,,,,,,2501.161757314985,2501.161757314985,2501.161757314985,2501.161757314985,2501.161757314985,2501.161757314985,2501.161757314985,2501.161757314985,2501.161757314985,2501.161757314985,a,1.424100726027973,10,803,2,2502.6467953760293,2504.1150264940225,,,,,,,,,,,,,,,,,,,,,,,,,,,,,,,,,,,,,,,,,,,,,,,,,,,,,,,,,,,,,,,,,,16592,2022-10-28_15h15.59.757,vts_reward_expectancy_bt_OFFLINE,2022.2.4,60.1094454735859,
0,0,0,1,0,1,0,0,star ,circle,2,0,2,0,3,5,41,10,,,,,,,,,,,,,,,,,,,,,,,,,,,,,,,,,,,,,,,,2504.615517618018,2504.615517618018,2504.615517618018,2504.615517618018,2504.615517618018,2504.615517618018,2504.615517618018,2504.615517618018,2504.615517618018,2504.615517618018,l,0.06526750500779599,1,804,2,2504.732374076033,2506.2842200039886,,,,,,,,,,,,,,,,,,,,,,,,,,,,,,,,,,,,,,,,,,,,,,,,,,,,,,,,,,,,,,,,,,16592,2022-10-28_15h15.59.757,vts_reward_expectancy_bt_OFFLINE,2022.2.4,60.1094454735859,
0,0,1,0,1,0,0,0,hexagon,triangle,2,0,2,0,3,6,42,6,,,,,,,,,,,,,,,,,,,,,,,,,,,,,,,,,,,,,,,,2506.7858090189984,2506.7858090189984,2506.7858090189984,2506.7858090189984,2506.7858090189984,2506.7858090189984,2506.7858090189984,2506.7858090189984,2506.7858090189984,2506.7858090189984,a,0.20693589805159718,1,805,2,2507.0683115680004,2508.569904920005,2508.569904920005,2509.0705716999946,,,,,,,,,,,,,,,,,,,,,,,,,,,,,,,,,,,,,,,,,,,,,,,,,,,,,,,,,,,,,,,,16592,2022-10-28_15h15.59.757,vts_reward_expectancy_bt_OFFLINE,2022.2.4,60.1094454735859,
0,1,0,0,0,0,1,0,circle,hexagon,2,0,2,0,3,7,43,4,,,,,,,,,,,,,,,,,,,,,,,,,,,,,,,,,,,,,,,,2509.0705716999946,2509.0705716999946,2509.0705716999946,2509.0705716999946,2509.0705716999946,2509.0705716999946,2509.0705716999946,2509.0705716999946,2509.0705716999946,2509.0705716999946,a,0.16307946003507823,1,806,2,2509.287399453984,2510.7557023550035,,,,,,,,,,,,,,,,,,,,,,,,,,,,,,,,,,,,,,,,,,,,,,,,,,,,,,,,,,,,,,,,,,16592,2022-10-28_15h15.59.757,vts_reward_expectancy_bt_OFFLINE,2022.2.4,60.1094454735859,
0,0,1,0,0,0,0,1,hexagon,star,2,0,2,0,3,8,44,8,,,,,,,,,,,,,,,,,,,,,,,,,,,,,,,,,,,,,,,,2511.256394350028,2511.256394350028,2511.256394350028,2511.256394350028,2511.256394350028,2511.256394350028,2511.256394350028,2511.256394350028,2511.256394350028,2511.256394350028,l,0.14404237602138892,1,807,2,2511.489851701015,2512.9915764339967,,,,,,,,,,,,,,,,,,,,,,,,,,,,,,,,,,,,,,,,,,,,,,,,,,,,,,,,,,,,,,,,,,16592,2022-10-28_15h15.59.757,vts_reward_expectancy_bt_OFFLINE,2022.2.4,60.1094454735859,
0,0,1,0,0,1,0,0,hexagon,circle,2,0,2,0,3,9,45,7,,,,,,,,,,,,,,,,,,,,,,,,,,,,,,,,,,,,,,,,2513.508570902981,2513.508570902981,2513.508570902981,2513.508570902981,2513.508570902981,2513.508570902981,2513.508570902981,2513.508570902981,2513.508570902981,2513.508570902981,l,0.18010406201938167,10,817,2,2513.7758874690044,2515.210826188035,,,,,,,,,,,,,,,,,,,,,,,,,,,,,,,,,,,,,,,,,,,,,,,,,,,,,,,,,,,,,,,,,,16592,2022-10-28_15h15.59.757,vts_reward_expectancy_bt_OFFLINE,2022.2.4,60.1094454735859,
0,1,0,0,0,0,0,1,circle,star,2,0,2,0,3,10,46,5,,,,,,,,,,,,,,,,,,,,,,,,,,,,,,,,,,,,,,,,2515.7114068510127,2515.7114068510127,2515.7114068510127,2515.7114068510127,2515.7114068510127,2515.7114068510127,2515.7114068510127,2515.7114068510127,2515.7114068510127,2515.7114068510127,a,0.24123144202167168,1,818,2,2516.0116213380243,2517.479951558984,,,,,,,,,,,,,,,,,,,,,,,,,,,,,,,,,,,,,,,,,,,,,,,,,,,,,,,,,,,,,,,,,,16592,2022-10-28_15h15.59.757,vts_reward_expectancy_bt_OFFLINE,2022.2.4,60.1094454735859,
1,0,0,0,0,0,0,1,triangle,star,2,0,2,0,3,11,47,2,,,,,,,,,,,,,,,,,,,,,,,,,,,,,,,,,,,,,,,,2518.013784628012,2518.013784628012,2518.013784628012,2518.013784628012,2518.013784628012,2518.013784628012,2518.013784628012,2518.013784628012,2518.013784628012,2518.013784628012,a,0.14824877498904243,10,828,2,2518.2475481000147,2519.715444837988,,,,,,,,,,,,,,,,,,,,,,,,,,,,,,,,,,,,,,,,,,,,,,,,,,,,,,,,,,,,,,,,,,16592,2022-10-28_15h15.59.757,vts_reward_expectancy_bt_OFFLINE,2022.2.4,60.1094454735859,
,,,,,,,,,,,,,,,,,,0,0,0,0,0,0,0,0,,,,,,,,,,,,,,,,,,,,,,,,,,,,,,,,,,,,,,,,,,,,,,,,2551.3506965879933,,,167,B,hexagon,0.001968826982192695,2547.2963161160005,2548.7811928750016,2548.7811928750016,2548.7811928750016,0,0,d,1.0032627550535835,0,2549.848910423985,,,,,,,,,,,,,,,,,,,,,,,,,,,,,,,,,,,,,,,,,,,,,,,,,,16592,2022-10-28_15h15.59.757,vts_reward_expectancy_bt_OFFLINE,2022.2.4,60.1094454735859,
,,,,,,,,,,,,,,,,,,0,0,0,0,1,0,1,0,,,,,,,,,,,,,,,,,,,,,,,,,,,,,,,,,,,,,,,,,,,,,,,,2556.2058395610075,,,174,Y,star,0.0011921650147996843,2552.335879069986,2553.836712330987,2553.836712330987,2553.836712330987,1,1,f,0.8447802970185876,0,2554.73754091101,,,,,,,,,,,,,,,,,,,,,,,,,,,,,,,,,,,,,,,,,,,,,,,,,,16592,2022-10-28_15h15.59.757,vts_reward_expectancy_bt_OFFLINE,2022.2.4,60.1094454735859,
,,,,,,,,,,,,,,,,,,0,0,0,0,2,0,2,0,,,,,,,,,,,,,,,,,,,,,,,,,,,,,,,,,,,,,,,,,,,,,,,,2560.994632398011,,,139,S,circle,0.0013304080348461866,2557.191156211018,2558.6919650550117,2558.6919650550117,2558.6919650550117,1,0,d,0.7739476970164105,0,2559.5264910680125,,,,,,,,,,,,,,,,,,,,,,,,,,,,,,,,,,,,,,,,,,,,,,,,,,16592,2022-10-28_15h15.59.757,vts_reward_expectancy_bt_OFFLINE,2022.2.4,60.1094454735859,
,,,,,,,,,,,,,,,,,,0,0,0,0,3,0,3,0,,,,,,,,,,,,,,,,,,,,,,,,,,,,,,,,,,,,,,,,,,,,,,,,2566.066702446027,,,146,D,triangle,0.001234552008099854,2561.9788724550162,2563.4806434779894,2563.4806434779894,2563.4806434779894,1,0,d,1.0572299159830436,0,2564.598575143027,,,,,,,,,,,,,,,,,,,,,,,,,,,,,,,,,,,,,,,,,,,,,,,,,,16592,2022-10-28_15h15.59.757,vts_reward_expectancy_bt_OFFLINE,2022.2.4,60.1094454735859,
,,,,,,,,,,,,,,,,,,0,0,0,0,4,0,4,0,,,,,,,,,,,,,,,,,,,,,,,,,,,,,,,,,,,,,,,,,,,,,,,,2570.9890169189894,,,160,F,circle,0.0011738050379790366,2567.051184041018,2568.5527991779963,2568.5527991779963,2568.5527991779963,0,0,d,0.9044926760252565,0,2569.5205256880145,,,,,,,,,,,,,,,,,,,,,,,,,,,,,,,,,,,,,,,,,,,,,,,,,,16592,2022-10-28_15h15.59.757,vts_reward_expectancy_bt_OFFLINE,2022.2.4,60.1094454735859,
,,,,,,,,,,,,,,,,,,0,0,0,0,5,0,5,0,,,,,,,,,,,,,,,,,,,,,,,,,,,,,,,,,,,,,,,,,,,,,,,,2576.9788248750265,,,181,H,star,0.0013033709838055074,2571.9732104580035,2573.4750739000156,2573.4750739000156,2573.4750739000156,0,1,d,1.9829066639649682,0,2575.510635944025,,,,,,,,,,,,,,,,,,,,,,,,,,,,,,,,,,,,,,,,,,,,,,,,,,16592,2022-10-28_15h15.59.757,vts_reward_expectancy_bt_OFFLINE,2022.2.4,60.1094454735859,
,,,,,,,,,,,,,,,,,,0,0,0,0,6,0,6,0,,,,,,,,,,,,,,,,,,,,,,,,,,,,,,,,,,,,,,,,,,,,,,,,2582.4514064689865,,,132,W,hexagon,0.0012281330418772995,2577.9633230080362,2579.4647343649995,2579.4647343649995,2579.4647343649995,0,1,f,1.4579691140097566,0,2580.983179493982,,,,,,,,,,,,,,,,,,,,,,,,,,,,,,,,,,,,,,,,,,,,,,,,,,16592,2022-10-28_15h15.59.757,vts_reward_expectancy_bt_OFFLINE,2022.2.4,60.1094454735859,
,,,,,,,,,,,,,,,,,,0,0,0,0,7,0,7,0,,,,,,,,,,,,,,,,,,,,,,,,,,,,,,,,,,,,,,,,,,,,,,,,2587.473781179986,,,125,U,triangle,0.0015450080391019583,2583.4359391049948,2584.9375180029892,2584.9375180029892,2584.9375180029892,1,1,d,1.0018968020449392,0,2585.9886345179984,,,,,,,,,,,,,,,,,,,,,,,,,,,,,,,,,,,,,,,,,,,,,,,,,,16592,2022-10-28_15h15.59.757,vts_reward_expectancy_bt_OFFLINE,2022.2.4,60.1094454735859,
,,,,,,,,,,,,,,,,,,0,0,0,0,8,0,8,0,,,,,,,,,,,,,,,,,,,,,,,,,,,,,,,,,,,,,,,,,,,,,,,,2591.7283028780366,,,167,B,star,0.016347097989637405,2588.458241943037,2589.9430510000093,2589.9430510000093,2589.9430510000093,0,0,d,0.25844870501896366,0,2590.2602847280214,,,,,,,,,,,,,,,,,,,,,,,,,,,,,,,,,,,,,,,,,,,,,,,,,,16592,2022-10-28_15h15.59.757,vts_reward_expectancy_bt_OFFLINE,2022.2.4,60.1094454735859,
,,,,,,,,,,,,,,,,,,0,0,0,0,9,0,9,0,,,,,,,,,,,,,,,,,,,,,,,,,,,,,,,,,,,,,,,,,,,,,,,,2595.899721433001,,,174,Y,triangle,0.017730505031067878,2592.7629189980216,2594.2143567600287,2594.2143567600287,2594.2143567600287,0,1,d,0.15667953802039847,0,2594.431421144982,,,,,,,,,,,,,,,,,,,,,,,,,,,,,,,,,,,,,,,,,,,,,,,,,,16592,2022-10-28_15h15.59.757,vts_reward_expectancy_bt_OFFLINE,2022.2.4,60.1094454735859,
,,,,,,,,,,,,,,,,,,1,0,1,0,0,0,0,0,,,,,,,,,,,,,,,,,,,,,,,,,,,,,,,,,,,,,,,,,,,,,,,,2628.8527984340326,,,132,W,triangle,0.0018683649832382798,2624.8998011589865,2626.400112784002,2626.400112784002,2626.400112784002,1,1,d,0.9058596250251867,1,2627.3677126750117,,,,,,,,,,,,,,,,,,,,,,,,,,,,,,,,,,,,,,,,,,,,,,,,,,16592,2022-10-28_15h15.59.757,vts_reward_expectancy_bt_OFFLINE,2022.2.4,60.1094454735859,
,,,,,,,,,,,,,,,,,,1,0,1,0,1,0,1,0,,,,,,,,,,,,,,,,,,,,,,,,,,,,,,,,,,,,,,,,,,,,,,,,2633.6580076559912,,,160,Y,hexagon,0.0011029669549316168,2629.820617839985,2631.322098214994,2631.322098214994,2631.322098214994,1,0,f,0.815867840021383,1,2632.1896917150007,,,,,,,,,,,,,,,,,,,,,,,,,,,,,,,,,,,,,,,,,,,,,,,,,,16592,2022-10-28_15h15.59.757,vts_reward_expectancy_bt_OFFLINE,2022.2.4,60.1094454735859,
,,,,,,,,,,,,,,,,,,1,0,1,0,2,0,2,0,,,,,,,,,,,,,,,,,,,,,,,,,,,,,,,,,,,,,,,,,,,,,,,,2638.42999016901,,,167,S,circle,0.0013354410184547305,2634.6424745100085,2636.1441604529973,2636.1441604529973,2636.1441604529973,1,0,f,0.7613667370169424,1,2636.961454625998,,,,,,,,,,,,,,,,,,,,,,,,,,,,,,,,,,,,,,,,,,,,,,,,,,16592,2022-10-28_15h15.59.757,vts_reward_expectancy_bt_OFFLINE,2022.2.4,60.1094454735859,
,,,,,,,,,,,,,,,,,,1,0,1,0,3,0,3,0,,,,,,,,,,,,,,,,,,,,,,,,,,,,,,,,,,,,,,,,,,,,,,,,2643.368561408017,,,146,F,star,0.001010467007290572,2639.414406808035,2640.9160346289864,2640.9160346289864,2640.9160346289864,1,0,d,0.8853497720556334,1,2641.8669440030353,,,,,,,,,,,,,,,,,,,,,,,,,,,,,,,,,,,,,,,,,,,,,,,,,,16592,2022-10-28_15h15.59.757,vts_reward_expectancy_bt_OFFLINE,2022.2.4,60.1094454735859,
,,,,,,,,,,,,,,,,,,1,0,1,0,4,0,4,0,,,,,,,,,,,,,,,,,,,,,,,,,,,,,,,,,,,,,,,,,,,,,,,,2648.2238180559943,,,125,B,star,0.001274345035199076,2644.3530466899974,2645.854926578002,2645.854926578002,2645.854926578002,1,0,d,0.8017796640051529,1,2646.722476501018,2648.2238180559943,,,,,,,,,,,,,,,,,,,,,,,,,,,,,,,,,,,,,,,,,,,,,,,,,16592,2022-10-28_15h15.59.757,vts_reward_expectancy_bt_OFFLINE,2022.2.4,60.1094454735859,
,,,,,,,,,,,,,,,,,,1,0,1,0,5,0,5,0,,,,,,,,,,,,,,,,,,,,,,,,,,,,,,,,,,,,,,,,,,,,,,,,2653.029217199015,,,139,D,circle,0.0008129859925247729,2649.2085107360035,2650.7102579050115,2650.7102579050115,2650.7102579050115,1,0,d,0.7953836949891411,1,2651.5611048000283,,,,,,,,,,,,,,,,,,,,,,,,,,,,,,,,,,,,,,,,,,,,,,,,,,16592,2022-10-28_15h15.59.757,vts_reward_expectancy_bt_OFFLINE,2022.2.4,60.1094454735859,
,,,,,,,,,,,,,,,,,,1,0,1,0,6,0,6,0,,,,,,,,,,,,,,,,,,,,,,,,,,,,,,,,,,,,,,,,,,,,,,,,2657.8846800589818,,,174,U,triangle,0.001237722986843437,2654.0138104450307,2655.515340387996,2655.515340387996,2655.515340387996,1,0,f,0.8228429909795523,1,2656.3998051050003,,,,,,,,,,,,,,,,,,,,,,,,,,,,,,,,,,,,,,,,,,,,,,,,,,16592,2022-10-28_15h15.59.757,vts_reward_expectancy_bt_OFFLINE,2022.2.4,60.1094454735859,
,,,,,,,,,,,,,,,,,,1,0,1,0,7,0,7,0,,,,,,,,,,,,,,,,,,,,,,,,,,,,,,,,,,,,,,,,,,,,,,,,2662.489881305024,,,181,H,hexagon,0.0010035139857791364,2658.852321560029,2660.3540817979956,2660.3540817979956,2660.3540817979956,1,0,f,0.568363779981155,1,2660.9880687830155,,,,,,,,,,,,,,,,,,,,,,,,,,,,,,,,,,,,,,,,,,,,,,,,,,16592,2022-10-28_15h15.59.757,vts_reward_expectancy_bt_OFFLINE,2022.2.4,60.1094454735859,
,,,,,,,,,,,,,,,,,,1,0,1,0,8,0,8,0,,,,,,,,,,,,,,,,,,,,,,,,,,,,,,,,,,,,,,,,,,,,,,,,2667.2283800559817,,,132,W,triangle,0.001292949018534273,2663.474361080036,2664.9757838360383,2664.9757838360383,2664.9757838360383,1,0,d,0.721295164024923,1,2665.760240337986,,,,,,,,,,,,,,,,,,,,,,,,,,,,,,,,,,,,,,,,,,,,,,,,,,16592,2022-10-28_15h15.59.757,vts_reward_expectancy_bt_OFFLINE,2022.2.4,60.1094454735859,
,,,,,,,,,,,,,,,,,,1,0,1,0,9,0,9,0,,,,,,,,,,,,,,,,,,,,,,,,,,,,,,,,,,,,,,,,,,,,,,,,2671.9502384600346,,,160,Y,hexagon,0.0010868480312637985,2668.212783497991,2669.714574465994,2669.714574465994,2669.714574465994,1,0,f,0.710574439028278,1,2670.4821017140057,,,,,,,,,,,,,,,,,,,,,,,,,,,,,,,,,,,,,,,,,,,,,,,,,,16592,2022-10-28_15h15.59.757,vts_reward_expectancy_bt_OFFLINE,2022.2.4,60.1094454735859,
,,,,,,,,,,,,,,,,,,,,,,,,,,0,0,0,0,0,0,0,0,,,,,,,,,,,,,,,,,,,,,,,,,,,,,,,,,,,,,,,,2691.338193983014,,,146,D,star,0.0018980909953825176,,,,,1,0,,,2,2689.8366566129844,,2687.467317337985,2688.969078108028,2688.969078108028,2688.969078108028,j,0.8013896889751777,,,,,,,,,,,,,,,,,,,,,,,,,,,,,,,,,,,,,,,,,,,16592,2022-10-28_15h15.59.757,vts_reward_expectancy_bt_OFFLINE,2022.2.4,60.1094454735859,
,,,,,,,,,,,,,,,,,,,,,,,,,,0,0,0,0,1,0,1,0,,,,,,,,,,,,,,,,,,,,,,,,,,,,,,,,,,,,,,,,2696.794502228033,,,160,H,triangle,0.0011556800454854965,,,,,0,0,,,2,2695.3093842490343,,2692.322667191038,2693.824465740996,2693.824465740996,2693.824465740996,k,1.4334508790052496,,,,,,,,,,,,,,,,,,,,,,,,,,,,,,,,,,,,,,,,,,,16592,2022-10-28_15h15.59.757,vts_reward_expectancy_bt_OFFLINE,2022.2.4,60.1094454735859,
,,,,,,,,,,,,,,,,,,,,,,,,,,0,0,0,0,2,0,2,0,,,,,,,,,,,,,,,,,,,,,,,,,,,,,,,,,,,,,,,,2701.516024513985,,,125,Y,hexagon,0.0011917139636352658,,,,,1,1,,,2,2700.048083108035,,2697.76223886403,2699.2637119080173,2699.2637119080173,2699.2637119080173,k,0.7298968759714626,,,,,,,,,,,,,,,,,,,,,,,,,,,,,,,,,,,,,,,,,,,16592,2022-10-28_15h15.59.757,vts_reward_expectancy_bt_OFFLINE,2022.2.4,60.1094454735859,
,,,,,,,,,,,,,,,,,,,,,,,,,,0,0,0,0,3,0,3,0,,,,,,,,,,,,,,,,,,,,,,,,,,,,,,,,,,,,,,,,2706.305050698982,,,181,B,circle,0.0013890580157749355,,,,,1,0,,,2,2704.836581755022,,2702.5007388280355,2704.002451506036,2704.002451506036,2704.002451506036,j,0.775086663023103,,,,,,,,,,,,,,,,,,,,,,,,,,,,,,,,,,,,,,,,,,,16592,2022-10-28_15h15.59.757,vts_reward_expectancy_bt_OFFLINE,2022.2.4,60.1094454735859,
,,,,,,,,,,,,,,,,,,,,,,,,,,0,0,0,0,4,0,4,0,,,,,,,,,,,,,,,,,,,,,,,,,,,,,,,,,,,,,,,,2711.0600655529997,,,139,U,star,0.0012406599707901478,,,,,1,0,,,2,2709.592096509994,,2707.2894289640244,2708.791013828013,2708.791013828013,2708.791013828013,k,0.7460752490442246,,,,,,,,,,,,,,,,,,,,,,,,,,,,,,,,,,,,,,,,,,,16592,2022-10-28_15h15.59.757,vts_reward_expectancy_bt_OFFLINE,2022.2.4,60.1094454735859,
,,,,,,,,,,,,,,,,,,,,,,,,,,0,0,0,0,5,0,5,0,,,,,,,,,,,,,,,,,,,,,,,,,,,,,,,,,,,,,,,,2715.7151371100335,,,132,S,triangle,0.0015555740101262927,,,,,1,0,,,2,2714.213391049998,,2712.0445948900306,2713.546258078015,2713.546258078015,2713.546258078015,k,0.6010787109844387,,,,,,,,,,,,,,,,,,,,,,,,,,,,,,,,,,,,,,,,,,,16592,2022-10-28_15h15.59.757,vts_reward_expectancy_bt_OFFLINE,2022.2.4,60.1094454735859,
,,,,,,,,,,,,,,,,,,,,,,,,,,0,0,0,0,6,0,6,0,,,,,,,,,,,,,,,,,,,,,,,,,,,,,,,,,,,,,,,,2720.3870936760213,,,167,W,hexagon,0.0012155710137449205,,,,,1,0,,,2,2718.918924967991,,2716.6996686530183,2718.2012103160378,2718.2012103160378,2718.2012103160378,k,0.6648766199941747,,,,,,,,,,,,,,,,,,,,,,,,,,,,,,,,,,,,,,,,,,,16592,2022-10-28_15h15.59.757,vts_reward_expectancy_bt_OFFLINE,2022.2.4,60.1094454735859,
,,,,,,,,,,,,,,,,,,,,,,,,,,0,0,0,0,7,0,7,0,,,,,,,,,,,,,,,,,,,,,,,,,,,,,,,,,,,,,,,,2725.258960306004,,,174,F,circle,0.001238175027538091,,,,,1,0,,,2,2723.790741298988,,2721.37143489602,2722.87311054999,2722.87311054999,2722.87311054999,j,0.8576666350127198,,,,,,,,,,,,,,,,,,,,,,,,,,,,,,,,,,,,,,,,,,,16592,2022-10-28_15h15.59.757,vts_reward_expectancy_bt_OFFLINE,2022.2.4,60.1094454735859,
,,,,,,,,,,,,,,,,,,,,,,,,,,0,0,0,0,8,0,8,0,,,,,,,,,,,,,,,,,,,,,,,,,,,,,,,,,,,,,,,,2729.8975141349947,,,146,D,hexagon,0.0012171679991297424,,,,,1,0,,,2,2728.412532580027,,2726.243413838034,2727.745009257982,2727.745009257982,2727.745009257982,j,0.6177090089768171,,,,,,,,,,,,,,,,,,,,,,,,,,,,,,,,,,,,,,,,,,,16592,2022-10-28_15h15.59.757,vts_reward_expectancy_bt_OFFLINE,2022.2.4,60.1094454735859,
,,,,,,,,,,,,,,,,,,,,,,,,,,0,0,0,0,9,0,9,0,,,,,,,,,,,,,,,,,,,,,,,,,,,,,,,,,,,,,,,,2734.6527814400033,,,160,H,triangle,0.0008185390033759177,,,,,1,0,,,2,2733.1845924390364,,2730.865201966022,2732.3670071039815,2732.3670071039815,2732.3670071039815,j,0.7543149510165676,,,,,,,,,,,,,,,,,,,,,,,,,,,,,,,,,,,,,,,,,,,16592,2022-10-28_15h15.59.757,vts_reward_expectancy_bt_OFFLINE,2022.2.4,60.1094454735859,
,,,,,,,,,,,,,,,,,,,,,,,,,,,,,,,,,,0,0,0,0,0,0,0,0,,,,,,,,,,,,,,,,,,,,,,,,,,,,0,828,,,2778.234081754985,,,146,D,hexagon,0.0017039999947883189,,,,,1,0,,,3,,,,,,,,,2773.3790357480175,2773.3790357480175,2773.3790357480175,2773.3790357480175,2774.8639224829967,2774.8639224829967,2774.8639224829967,2774.8639224829967,2774.880545235006,2774.880545235006,2774.880545235006,2774.880545235006,-1,number,NA,d,1.8025550830061547,vtsPrac,2776.7327885910054,,,,,,,,,,,,,,,,,,,,,,,,16592,2022-10-28_15h15.59.757,vts_reward_expectancy_bt_OFFLINE,2022.2.4,60.1094454735859,
,,,,,,,,,,,,,,,,,,,,,,,,,,,,,,,,,,0,0,0,0,1,0,1,0,,,,,,,,,,,,,,,,,,,,,,,,,,,,0,828,,,2783.9072738490067,,,139,H,star,0.001118419982958585,,,,,1,0,,,3,,,,,,,,,2779.218562185997,2779.218562185997,2779.218562185997,2779.218562185997,2780.720503156015,2780.720503156015,2780.720503156015,2780.720503156015,2780.720503156015,2780.720503156015,2780.720503156015,2780.720503156015,repeat,number,numRpt,d,1.618845907971263,vtsPrac,2782.4057045450318,,,,,,,,,,,,,,,,,,,,,,,,16592,2022-10-28_15h15.59.757,vts_reward_expectancy_bt_OFFLINE,2022.2.4,60.1094454735859,
,,,,,,,,,,,,,,,,,,,,,,,,,,,,,,,,,,0,0,0,0,2,0,2,0,,,,,,,,,,,,,,,,,,,,,,,,,,,,0,828,,,2789.4467352030333,,,167,B,circle,0.0014299189788289368,,,,,1,0,,,3,,,,,,,,,2784.891510227986,2784.891510227986,2784.891510227986,2784.891510227986,2786.3932986400323,2786.3932986400323,2786.3932986400323,2786.3932986400323,2786.3932986400323,2786.3932986400323,2786.3932986400323,2786.3932986400323,repeat,number,numRpt,f,1.4876316140289418,vtsPrac,2787.944993596,,,,,,,,,,,,,,,,,,,,,,,,16592,2022-10-28_15h15.59.757,vts_reward_expectancy_bt_OFFLINE,2022.2.4,60.1094454735859,
,,,,,,,,,,,,,,,,,,,,,,,,,,,,,,,,,,0,0,0,0,3,0,3,0,,,,,,,,,,,,,,,,,,,,,,,,,,,,0,828,,,2794.3852024750086,,,125,Y,star,0.0011456170468591154,,,,,1,0,,,3,,,,,,,,,2790.431556351017,2790.431556351017,2790.431556351017,2790.431556351017,2791.9325184680056,2791.9325184680056,2791.9325184680056,2791.9325184680056,2791.9325184680056,2791.9325184680056,2791.9325184680056,2791.9325184680056,repeat,number,numRpt,d,0.8853175340336747,vtsPrac,2792.8835130240186,2794.3852024750086,,,,,,,,,,,,,,,,,,,,,,,16592,2022-10-28_15h15.59.757,vts_reward_expectancy_bt_OFFLINE,2022.2.4,60.1094454735859,
,,,,,,,,,,,,,,,,,,,,,,,,,,,,,,,,,,0,0,0,0,4,0,4,0,,,,,,,,,,,,,,,,,,,,,,,,,,,,0,828,,,2799.6745456350036,,,146,D,hexagon,0.0009632880100980401,,,,,1,0,,,3,,,,,,,,,2795.3698523159837,2795.3698523159837,2795.3698523159837,2795.3698523159837,2796.8712527449825,2796.8712527449825,2796.8712527449825,2796.8712527449825,2796.8712527449825,2796.8712527449825,2796.8712527449825,2796.8712527449825,repeat,number,numRpt,d,1.2677449519978836,vtsPrac,2798.189385859994,,,,,,,,,,,,,,,,,,,,,,,,16592,2022-10-28_15h15.59.757,vts_reward_expectancy_bt_OFFLINE,2022.2.4,60.1094454735859,
,,,,,,,,,,,,,,,,,,,,,,,,,,,,,,,,,,0,0,0,0,5,0,5,0,,,,,,,,,,,,,,,,,,,,,,,,,,,,0,828,,,2804.3129957150086,,,139,H,triangle,0.0010173259652219713,,,,,1,0,,,3,,,,,,,,,2800.642305988993,2800.642305988993,2800.642305988993,2800.642305988993,2802.1437997639878,2802.1437997639878,2802.1437997639878,2802.1437997639878,2802.1437997639878,2802.1437997639878,2802.1437997639878,2802.1437997639878,repeat,number,numRpt,d,0.6253347500460222,vtsPrac,2802.8278928590007,,,,,,,,,,,,,,,,,,,,,,,,16592,2022-10-28_15h15.59.757,vts_reward_expectancy_bt_OFFLINE,2022.2.4,60.1094454735859,
,,,,,,,,,,,,,,,,,,,,,,,,,,,,,,,,,,0,0,0,0,6,0,6,0,,,,,,,,,,,,,,,,,,,,,,,,,,,,0,828,,,2809.5019579390064,,,167,B,circle,0.0012696729972958565,,,,,1,0,,,3,,,,,,,,,2805.2806335579953,2805.2806335579953,2805.2806335579953,2805.2806335579953,2806.782220317982,2806.782220317982,2806.782220317982,2806.782220317982,2806.782220317982,2806.782220317982,2806.782220317982,2806.782220317982,repeat,number,numRpt,f,1.1951720789656974,vtsPrac,2808.0338372699916,,,,,,,,,,,,,,,,,,,,,,,,16592,2022-10-28_15h15.59.757,vts_reward_expectancy_bt_OFFLINE,2022.2.4,60.1094454735859,
,,,,,,,,,,,,,,,,,,,,,,,,,,,,,,,,,,0,0,0,0,7,0,7,0,,,,,,,,,,,,,,,,,,,,,,,,,,,,0,828,,,2814.2739962799824,,,125,Y,star,0.0011014650226570666,,,,,1,0,,,3,,,,,,,,,2810.4865041989833,2810.4865041989833,2810.4865041989833,2810.4865041989833,2811.988012158021,2811.988012158021,2811.988012158021,2811.988012158021,2811.988012158021,2811.988012158021,2811.988012158021,2811.988012158021,repeat,number,numRpt,d,0.7501902499934658,vtsPrac,2812.7890915010357,,,,,,,,,,,,,,,,,,,,,,,,16592,2022-10-28_15h15.59.757,vts_reward_expectancy_bt_OFFLINE,2022.2.4,60.1094454735859,
,,,,,,,,,,,,,,,,,,,,,,,,,,,,,,,,,,0,0,0,0,8,0,8,0,,,,,,,,,,,,,,,,,,,,,,,,,,,,0,828,,,2819.0458039180376,,,139,W,triangle,0.0010539310169406235,,,,,1,0,,,3,,,,,,,,,2815.2417386799934,2815.2417386799934,2815.2417386799934,2815.2417386799934,2816.743307444034,2816.743307444034,2816.743307444034,2816.743307444034,2816.743307444034,2816.743307444034,2816.743307444034,2816.743307444034,repeat,number,numRpt,d,0.7772246209788136,vtsPrac,2817.577717776003,,,,,,,,,,,,,,,,,,,,,,,,16592,2022-10-28_15h15.59.757,vts_reward_expectancy_bt_OFFLINE,2022.2.4,60.1094454735859,
,,,,,,,,,,,,,,,,,,,,,,,,,,,,,,,,,,0,0,0,0,9,0,9,0,,,,,,,,,,,,,,,,,,,,,,,,,,,,0,828,,,2824.2180973680224,,,160,B,hexagon,0.001417377032339573,,,,,0,0,,,3,,,,,,,,,2820.030228501011,2820.030228501011,2820.030228501011,2820.030228501011,2821.532058369019,2821.532058369019,2821.532058369019,2821.532058369019,2821.532058369019,2821.532058369019,2821.532058369019,2821.532058369019,repeat,number,NA,d,1.1512074520578608,vtsPrac,2822.7332941680215,,,,,,,,,,,,,,,,,,,,,,,,16592,2022-10-28_15h15.59.757,vts_reward_expectancy_bt_OFFLINE,2022.2.4,60.1094454735859,
,,,,,,,,,,,,,,,,,,,,,,,,,,,,,,,,,,0,0,0,0,10,0,10,0,,,,,,,,,,,,,,,,,,,,,,,,,,,,0,828,,,2828.9235044579837,,,181,F,star,0.000498112989589572,,,,,1,1,,,3,,,,,,,,,2825.186358097999,2825.186358097999,2825.186358097999,2825.186358097999,2826.6877046499867,2826.6877046499867,2826.6877046499867,2826.6877046499867,2826.6877046499867,2826.6877046499867,2826.6877046499867,2826.6877046499867,repeat,number,numRpt,f,0.7065910259843804,vtsPrac,2827.4550986639806,,,,,,,,,,,,,,,,,,,,,,,,16592,2022-10-28_15h15.59.757,vts_reward_expectancy_bt_OFFLINE,2022.2.4,60.1094454735859,
,,,,,,,,,,,,,,,,,,,,,,,,,,,,,,,,,,0,0,0,0,11,0,11,0,,,,,,,,,,,,,,,,,,,,,,,,,,,,0,828,,,2834.3459798429976,,,167,D,triangle,0.0012949560186825693,,,,,1,0,,,3,,,,,,,,,2829.907801294001,2829.907801294001,2829.907801294001,2829.907801294001,2831.4095997760305,2831.4095997760305,2831.4095997760305,2831.4095997760305,2831.4095997760305,2831.4095997760305,2831.4095997760305,2831.4095997760305,repeat,number,numRpt,f,1.4080009270110168,vtsPrac,2832.8776658790302,,,,,,,,,,,,,,,,,,,,,,,,16592,2022-10-28_15h15.59.757,vts_reward_expectancy_bt_OFFLINE,2022.2.4,60.1094454735859,
,,,,,,,,,,,,,,,,,,,,,,,,,,,,,,,,,,0,0,0,0,12,0,12,0,,,,,,,,,,,,,,,,,,,,,,,,,,,,0,828,,,2839.5348894140334,,,125,D,hexagon,0.001167922979220748,,,,,1,0,,,3,,,,,,,,,2835.3304200430284,2835.3304200430284,2835.3304200430284,2835.3304200430284,2836.831998209993,2836.831998209993,2836.831998209993,2836.831998209993,2836.831998209993,2836.831998209993,2836.831998209993,2836.831998209993,repeat,number,numRpt,d,1.1371168920304626,vtsPrac,2838.033392768004,,,,,,,,,,,,,,,,,,,,,,,,16592,2022-10-28_15h15.59.757,vts_reward_expectancy_bt_OFFLINE,2022.2.4,60.1094454735859,
,,,,,,,,,,,,,,,,,,,,,,,,,,,,,,,,,,0,0,0,0,13,0,13,0,,,,,,,,,,,,,,,,,,,,,,,,,,,,0,828,,,2844.5572645349894,,,181,H,circle,0.0009265289991162717,,,,,1,0,,,3,,,,,,,,,2840.519614268036,2840.519614268036,2840.519614268036,2840.519614268036,2842.021093274001,2842.021093274001,2842.021093274001,2842.021093274001,2842.021093274001,2842.021093274001,2842.021093274001,2842.021093274001,repeat,number,numRpt,f,1.0123063849750906,vtsPrac,2843.0892595390324,,,,,,,,,,,,,,,,,,,,,,,,16592,2022-10-28_15h15.59.757,vts_reward_expectancy_bt_OFFLINE,2022.2.4,60.1094454735859,
,,,,,,,,,,,,,,,,,,,,,,,,,,,,,,,,,,0,0,0,0,14,0,14,0,,,,,,,,,,,,,,,,,,,,,,,,,,,,0,828,,,2849.3795781600056,,,160,Y,star,0.0012549689854495227,,,,,1,0,,,3,,,,,,,,,2845.5418876539916,2845.5418876539916,2845.5418876539916,2845.5418876539916,2847.043343025027,2847.043343025027,2847.043343025027,2847.043343025027,2847.043343025027,2847.043343025027,2847.043343025027,2847.043343025027,repeat,number,numRpt,f,0.8133095650118776,vtsPrac,2847.9111796210054,,,,,,,,,,,,,,,,,,,,,,,,16592,2022-10-28_15h15.59.757,vts_reward_expectancy_bt_OFFLINE,2022.2.4,60.1094454735859,
,,,,,,,,,,,,,,,,,,,,,,,,,,,,,,,,,,0,0,0,0,15,0,15,0,,,,,,,,,,,,,,,,,,,,,,,,,,,,0,828,,,2854.117796786013,,,139,F,triangle,0.001328009006101638,,,,,1,0,,,3,,,,,,,,,2850.3636545240297,2850.3636545240297,2850.3636545240297,2850.3636545240297,2851.8654420709936,2851.8654420709936,2851.8654420709936,2851.8654420709936,2851.8654420709936,2851.8654420709936,2851.8654420709936,2851.8654420709936,repeat,number,numRpt,d,0.7278346610255539,vtsPrac,2852.649577576027,,,,,,,,,,,,,,,,,,,,,,,,16592,2022-10-28_15h15.59.757,vts_reward_expectancy_bt_OFFLINE,2022.2.4,60.1094454735859,
,,,,,,,,,,,,,,,,,,,,,,,,,,,,,,,,,,1,0,1,0,0,0,0,0,,,,,,,,,,,,,,,,,,,,,,,,,,,,0,828,,,2868.633775667986,,,181,H,circle,0.0021533030085265636,,,,,1,0,,,4,,,,,,,,,2864.6295254360302,2864.6295254360302,2864.6295254360302,2864.6295254360302,2866.1311803309945,2866.1311803309945,2866.1311803309945,2866.1311803309945,2866.1311803309945,2866.1311803309945,2866.1311803309945,2866.1311803309945,repeat,number,numRpt,f,0.9741158440010622,vtsPrac,2867.1656735800207,,,,,,,,,,,,,,,,,,,,,,,,16592,2022-10-28_15h15.59.757,vts_reward_expectancy_bt_OFFLINE,2022.2.4,60.1094454735859,
,,,,,,,,,,,,,,,,,,,,,,,,,,,,,,,,,,1,0,1,0,1,0,1,0,,,,,,,,,,,,,,,,,,,,,,,,,,,,0,828,,,2873.539281596022,,,125,F,hexagon,0.0012552449479699135,,,,,1,0,,,4,,,,,,,,,2869.618399825995,2869.618399825995,2869.618399825995,2869.618399825995,2871.1199112299946,2871.1199112299946,2871.1199112299946,2871.1199112299946,2871.1199112299946,2871.1199112299946,2871.1199112299946,2871.1199112299946,switch,letter,lettSwt,j,0.8982574660331011,vtsPrac,2872.070972199028,,,,,,,,,,,,,,,,,,,,,,,,16592,2022-10-28_15h15.59.757,vts_reward_expectancy_bt_OFFLINE,2022.2.4,60.1094454735859,
,,,,,,,,,,,,,,,,,,,,,,,,,,,,,,,,,,1,0,1,0,2,0,2,0,,,,,,,,,,,,,,,,,,,,,,,,,,,,0,828,,,2878.2276895979885,,,146,B,circle,0.0012466639745980501,,,,,1,0,,,4,,,,,,,,,2874.5238637329894,2874.5238637329894,2874.5238637329894,2874.5238637329894,2876.0254337700317,2876.0254337700317,2876.0254337700317,2876.0254337700317,2876.0254337700317,2876.0254337700317,2876.0254337700317,2876.0254337700317,switch,number,numSwt,d,0.6791328309918754,vtsPrac,2876.7596416359884,,,,,,,,,,,,,,,,,,,,,,,,16592,2022-10-28_15h15.59.757,vts_reward_expectancy_bt_OFFLINE,2022.2.4,60.1094454735859,
,,,,,,,,,,,,,,,,,,,,,,,,,,,,,,,,,,1,0,1,0,3,0,3,0,,,,,,,,,,,,,,,,,,,,,,,,,,,,0,828,,,2883.0331423390307,,,139,U,hexagon,0.0010905920062214136,,,,,1,0,,,4,,,,,,,,,2879.2123130650143,2879.2123130650143,2879.2123130650143,2879.2123130650143,2880.7136976100155,2880.7136976100155,2880.7136976100155,2880.7136976100155,2880.7136976100155,2880.7136976100155,2880.7136976100155,2880.7136976100155,switch,letter,lettSwt,k,0.7845878770458512,vtsPrac,2881.548044265015,,,,,,,,,,,,,,,,,,,,,,,,16592,2022-10-28_15h15.59.757,vts_reward_expectancy_bt_OFFLINE,2022.2.4,60.1094454735859,
,,,,,,,,,,,,,,,,,,,,,,,,,,,,,,,,,,1,0,1,0,4,0,4,0,,,,,,,,,,,,,,,,,,,,,,,,,,,,0,828,,,2887.671476559015,,,181,H,circle,0.0005764429806731641,,,,,1,0,,,4,,,,,,,,,2884.0008879640372,2884.0008879640372,2884.0008879640372,2884.0008879640372,2885.50272195501,2885.50272195501,2885.50272195501,2885.50272195501,2885.50272195501,2885.50272195501,2885.50272195501,2885.50272195501,switch,number,numSwt,f,0.6020685760304332,vtsPrac,2886.1700724959956,2887.671476559015,,,,,,,,,,,,,,,,,,,,,,,16592,2022-10-28_15h15.59.757,vts_reward_expectancy_bt_OFFLINE,2022.2.4,60.1094454735859,
,,,,,,,,,,,,,,,,,,,,,,,,,,,,,,,,,,1,0,1,0,5,0,5,0,,,,,,,,,,,,,,,,,,,,,,,,,,,,0,828,,,2892.443392446032,,,125,F,hexagon,0.0008487420273013413,,,,,1,0,,,4,,,,,,,,,2888.6561538749957,2888.6561538749957,2888.6561538749957,2888.6561538749957,2890.1575085840304,2890.1575085840304,2890.1575085840304,2890.1575085840304,2890.1575085840304,2890.1575085840304,2890.1575085840304,2890.1575085840304,switch,letter,lettSwt,j,0.7638792669749819,vtsPrac,2890.9751755140023,,,,,,,,,,,,,,,,,,,,,,,,16592,2022-10-28_15h15.59.757,vts_reward_expectancy_bt_OFFLINE,2022.2.4,60.1094454735859,
,,,,,,,,,,,,,,,,,,,,,,,,,,,,,,,,,,1,0,1,0,6,0,6,0,,,,,,,,,,,,,,,,,,,,,,,,,,,,0,828,,,2897.0985354279983,,,146,B,star,0.0010585650452412665,,,,,1,0,,,4,,,,,,,,,2893.42782681901,2893.42782681901,2893.42782681901,2893.42782681901,2894.9294718389865,2894.9294718389865,2894.9294718389865,2894.9294718389865,2894.9294718389865,2894.9294718389865,2894.9294718389865,2894.9294718389865,switch,number,numSwt,d,0.6492989630205557,vtsPrac,2895.6303735899855,,,,,,,,,,,,,,,,,,,,,,,,16592,2022-10-28_15h15.59.757,vts_reward_expectancy_bt_OFFLINE,2022.2.4,60.1094454735859,
,,,,,,,,,,,,,,,,,,,,,,,,,,,,,,,,,,1,0,1,0,7,0,7,0,,,,,,,,,,,,,,,,,,,,,,,,,,,,0,828,,,2901.786592689983,,,139,U,triangle,0.0011104909935966134,,,,,1,0,,,4,,,,,,,,,2898.083239662985,2898.083239662985,2898.083239662985,2898.083239662985,2899.584675666003,2899.584675666003,2899.584675666003,2899.584675666003,2899.584675666003,2899.584675666003,2899.584675666003,2899.584675666003,switch,letter,lettSwt,k,0.6733714569709264,vtsPrac,2900.3183612290304,,,,,,,,,,,,,,,,,,,,,,,,16592,2022-10-28_15h15.59.757,vts_reward_expectancy_bt_OFFLINE,2022.2.4,60.1094454735859,
