LTriangleOpac,LCircleOpac,LHexagonOpac,LStarOpac,RTriangleOpac,RCircleOpac,RHexagonOpac,RStarOpac,LShape_ID,RShape_ID,training_blocks.thisRepN,training_blocks.thisTrialN,training_blocks.thisN,training_blocks.thisIndex,training.thisRepN,training.thisTrialN,training.thisN,training.thisIndex,task1_prac_redo.thisRepN,task1_prac_redo.thisTrialN,task1_prac_redo.thisN,task1_prac_redo.thisIndex,task1_prac_trials.thisRepN,task1_prac_trials.thisTrialN,task1_prac_trials.thisN,task1_prac_trials.thisIndex,task2_prac_redo.thisRepN,task2_prac_redo.thisTrialN,task2_prac_redo.thisN,task2_prac_redo.thisIndex,task2_praac_trials.thisRepN,task2_praac_trials.thisTrialN,task2_praac_trials.thisN,task2_praac_trials.thisIndex,vts_prac_redo.thisRepN,vts_prac_redo.thisTrialN,vts_prac_redo.thisN,vts_prac_redo.thisIndex,vts_practice_trials.thisRepN,vts_practice_trials.thisTrialN,vts_practice_trials.thisN,vts_practice_trials.thisIndex,trials_norew.thisRepN,trials_norew.thisTrialN,trials_norew.thisN,trials_norew.thisIndex,block.thisRepN,block.thisTrialN,block.thisN,block.thisIndex,trials_rew.thisRepN,trials_rew.thisTrialN,trials_rew.thisN,trials_rew.thisIndex,key_resp.started,key_resp.keys,key_resp.rt,left_circle.started,right_circle.started,left_triangle.started,right_triangle.started,left_star.started,right_star.started,left_hexagon.started,right_hexagon.started,training_fix.started,training_resp.started,training_resp.keys,training_resp.rt,points_trial,points_cumul,trainBlock,training_feedback_txt.started,fix.started,training_feedback_txt.stopped,fix.stopped,curr_topStim,curr_bottStim,curr_shape,ISI.started,tgt_fix_prac1.started,top_target_prac1.started,bott_target_prac1.started,target_resp_prac1.started,top_target_prac1.stopped,bott_target_prac1.stopped,target_resp_prac1.stopped,acc,E1,target_resp_prac1.keys,pracBlock,prac_fback_text.started,target_resp_prac1.rt,prac_fback_text.stopped,tgt_fix_prac2.started,top_target_prac2.started,bott_target_prac2.started,target_resp_prac2.started,target_resp_prac2.keys,target_resp_prac2.rt,star.started,hegagon.started,triangle.started,circle.started,top_target.started,tgt_fix.started,bot_target.started,target_resp.started,star.stopped,hegagon.stopped,triangle.stopped,circle.stopped,alt,task,condition,target_resp.keys,target_resp.rt,rewCond,vts_fback.started,vts_fback.stopped,blockNum,norew_fback.started,top_target.stopped,tgt_fix.stopped,bot_target.stopped,target_resp.stopped,norew_fback.stopped,key_resp_2.keys,key_resp_2.rt,rewExpectancy,feedbk_text.started,feedbk_text.stopped,text_3.started,debrief.started,text_3.stopped,button.started,debrief.index,debrief.itemText,debrief.type,debrief.granularity,debrief.font,debrief.markerColor,debrief.response,debrief.rt,button.numClicks,button.timesOn,button.timesOff,participant,date,expName,psychopyVersion,frameRate,
,,,,,,,,,,,,,,,,,,,,,,,,,,,,,,,,,,,,,,,,,,,,,,,,,,,,,,14.908570594154298,space,15.641418021172285,,,,,,,,,,,,,,,,,,,,,,,,,,,,,,,,,,,,,,,,,,,,,,,,,,,,,,,,,,,,,,,,,,,,,,,,,,,,,,,,,,,,,,,,,,,16771,2022-12-01_14h02.20.602,vts_reward_expectancy_bt_OFFLINE,2022.2.4,59.94994940911568,
1,0,0,0,0,0,1,0,triangle,hexagon,0,0,0,0,0,0,0,1,,,,,,,,,,,,,,,,,,,,,,,,,,,,,,,,,,,,,,,,53.213093801401556,53.213093801401556,53.213093801401556,53.213093801401556,53.213093801401556,53.213093801401556,53.213093801401556,53.213093801401556,53.213093801401556,53.213093801401556,l,1.9305337108671665,1,1,0,55.17311349930242,56.687747749034315,,,,,,,,,,,,,,,,,,,,,,,,,,,,,,,,,,,,,,,,,,,,,,,,,,,,,,,,,,,,,,,,,,,,,,,,,,16771,2022-12-01_14h02.20.602,vts_reward_expectancy_bt_OFFLINE,2022.2.4,59.94994940911568,
0,0,1,0,1,0,0,0,hexagon,triangle,0,0,0,0,0,1,1,6,,,,,,,,,,,,,,,,,,,,,,,,,,,,,,,,,,,,,,,,57.187757085077465,57.187757085077465,57.187757085077465,57.187757085077465,57.187757085077465,57.187757085077465,57.187757085077465,57.187757085077465,57.187757085077465,57.187757085077465,a,1.7020644741132855,1,2,0,58.921656529419124,60.42434901697561,,,,,,,,,,,,,,,,,,,,,,,,,,,,,,,,,,,,,,,,,,,,,,,,,,,,,,,,,,,,,,,,,,,,,,,,,,16771,2022-12-01_14h02.20.602,vts_reward_expectancy_bt_OFFLINE,2022.2.4,59.94994940911568,
0,1,0,0,0,0,0,1,circle,star,0,0,0,0,0,2,2,5,,,,,,,,,,,,,,,,,,,,,,,,,,,,,,,,,,,,,,,,60.92454214813188,60.92454214813188,60.92454214813188,60.92454214813188,60.92454214813188,60.92454214813188,60.92454214813188,60.92454214813188,60.92454214813188,60.92454214813188,a,1.3173634987324476,1,3,0,62.25848782621324,63.758956980425864,63.758956980425864,64.25891456007957,,,,,,,,,,,,,,,,,,,,,,,,,,,,,,,,,,,,,,,,,,,,,,,,,,,,,,,,,,,,,,,,,,,,,,,,16771,2022-12-01_14h02.20.602,vts_reward_expectancy_bt_OFFLINE,2022.2.4,59.94994940911568,
0,0,0,1,1,0,0,0,star,triangle,0,0,0,0,0,3,3,9,,,,,,,,,,,,,,,,,,,,,,,,,,,,,,,,,,,,,,,,64.25891456007957,64.25891456007957,64.25891456007957,64.25891456007957,64.25891456007957,64.25891456007957,64.25891456007957,64.25891456007957,64.25891456007957,64.25891456007957,a,1.0100130909122527,10,13,0,65.29725749325007,66.81192712206393,,,,,,,,,,,,,,,,,,,,,,,,,,,,,,,,,,,,,,,,,,,,,,,,,,,,,,,,,,,,,,,,,,,,,,,,,,16771,2022-12-01_14h02.20.602,vts_reward_expectancy_bt_OFFLINE,2022.2.4,59.94994940911568,
0,1,0,0,1,0,0,0,circle,triangle,0,0,0,0,0,4,4,3,,,,,,,,,,,,,,,,,,,,,,,,,,,,,,,,,,,,,,,,67.31171327130869,67.31171327130869,67.31171327130869,67.31171327130869,67.31171327130869,67.31171327130869,67.31171327130869,67.31171327130869,67.31171327130869,67.31171327130869,l,3.6840921407565475,1,14,0,71.0164920031093,72.51562297530472,72.51562297530472,73.01568109216169,,,,,,,,,,,,,,,,,,,,,,,,,,,,,,,,,,,,,,,,,,,,,,,,,,,,,,,,,,,,,,,,,,,,,,,,16771,2022-12-01_14h02.20.602,vts_reward_expectancy_bt_OFFLINE,2022.2.4,59.94994940911568,
0,0,0,1,0,1,0,0,star ,circle,0,0,0,0,0,5,5,10,,,,,,,,,,,,,,,,,,,,,,,,,,,,,,,,,,,,,,,,73.01568109216169,73.01568109216169,73.01568109216169,73.01568109216169,73.01568109216169,73.01568109216169,73.01568109216169,73.01568109216169,73.01568109216169,73.01568109216169,a,0.6348965736106038,1,15,0,73.68263862235472,75.18511811224744,,,,,,,,,,,,,,,,,,,,,,,,,,,,,,,,,,,,,,,,,,,,,,,,,,,,,,,,,,,,,,,,,,,,,,,,,,16771,2022-12-01_14h02.20.602,vts_reward_expectancy_bt_OFFLINE,2022.2.4,59.94994940911568,
0,0,1,0,0,0,0,1,hexagon,star,0,0,0,0,0,6,6,8,,,,,,,,,,,,,,,,,,,,,,,,,,,,,,,,,,,,,,,,75.68504452425987,75.68504452425987,75.68504452425987,75.68504452425987,75.68504452425987,75.68504452425987,75.68504452425987,75.68504452425987,75.68504452425987,75.68504452425987,l,0.6873914329335093,10,25,0,76.40357435122132,77.90260602114722,77.90260602114722,78.40291740000248,,,,,,,,,,,,,,,,,,,,,,,,,,,,,,,,,,,,,,,,,,,,,,,,,,,,,,,,,,,,,,,,,,,,,,,,16771,2022-12-01_14h02.20.602,vts_reward_expectancy_bt_OFFLINE,2022.2.4,59.94994940911568,
0,0,1,0,0,1,0,0,hexagon,circle,0,0,0,0,0,7,7,7,,,,,,,,,,,,,,,,,,,,,,,,,,,,,,,,,,,,,,,,78.40291740000248,78.40291740000248,78.40291740000248,78.40291740000248,78.40291740000248,78.40291740000248,78.40291740000248,78.40291740000248,78.40291740000248,78.40291740000248,a,3.066068264655769,10,35,0,81.4891974083148,82.98962001129985,82.98962001129985,83.48978229006752,,,,,,,,,,,,,,,,,,,,,,,,,,,,,,,,,,,,,,,,,,,,,,,,,,,,,,,,,,,,,,,,,,,,,,,,16771,2022-12-01_14h02.20.602,vts_reward_expectancy_bt_OFFLINE,2022.2.4,59.94994940911568,
1,0,0,0,0,1,0,0,triangle,circle,0,0,0,0,0,8,8,0,,,,,,,,,,,,,,,,,,,,,,,,,,,,,,,,,,,,,,,,83.48978229006752,83.48978229006752,83.48978229006752,83.48978229006752,83.48978229006752,83.48978229006752,83.48978229006752,83.48978229006752,83.48978229006752,83.48978229006752,a,1.4228034517727792,1,36,0,84.9439628473483,86.45937022008002,,,,,,,,,,,,,,,,,,,,,,,,,,,,,,,,,,,,,,,,,,,,,,,,,,,,,,,,,,,,,,,,,,,,,,,,,,16771,2022-12-01_14h02.20.602,vts_reward_expectancy_bt_OFFLINE,2022.2.4,59.94994940911568,
0,0,0,1,0,0,1,0,star,hexagon,0,0,0,0,0,9,9,11,,,,,,,,,,,,,,,,,,,,,,,,,,,,,,,,,,,,,,,,86.95953093096614,86.95953093096614,86.95953093096614,86.95953093096614,86.95953093096614,86.95953093096614,86.95953093096614,86.95953093096614,86.95953093096614,86.95953093096614,a,0.6633153758011758,1,37,0,87.6432424033992,89.14370671333745,89.14370671333745,,,,,,,,,,,,,,,,,,,,,,,,,,,,,,,,,,,,,,,,,,,,,,,,,,,,,,,,,,,,,,,,,,,,,,,,,16771,2022-12-01_14h02.20.602,vts_reward_expectancy_bt_OFFLINE,2022.2.4,59.94994940911568,
1,0,0,0,0,0,0,1,triangle,star,0,0,0,0,0,10,10,2,,,,,,,,,,,,,,,,,,,,,,,,,,,,,,,,,,,,,,,,89.64589656703174,89.64589656703174,89.64589656703174,89.64589656703174,89.64589656703174,89.64589656703174,89.64589656703174,89.64589656703174,89.64589656703174,89.64589656703174,a,1.5671885940246284,1,38,0,91.22980630025268,92.73019221331924,92.73019221331924,93.23048558039591,,,,,,,,,,,,,,,,,,,,,,,,,,,,,,,,,,,,,,,,,,,,,,,,,,,,,,,,,,,,,,,,,,,,,,,,16771,2022-12-01_14h02.20.602,vts_reward_expectancy_bt_OFFLINE,2022.2.4,59.94994940911568,
0,1,0,0,0,0,1,0,circle,hexagon,0,0,0,0,0,11,11,4,,,,,,,,,,,,,,,,,,,,,,,,,,,,,,,,,,,,,,,,93.23048558039591,93.23048558039591,93.23048558039591,93.23048558039591,93.23048558039591,93.23048558039591,93.23048558039591,93.23048558039591,93.23048558039591,93.23048558039591,a,1.4138580369763076,1,39,0,94.66606562631205,96.1666280310601,96.1666280310601,,,,,,,,,,,,,,,,,,,,,,,,,,,,,,,,,,,,,,,,,,,,,,,,,,,,,,,,,,,,,,,,,,,,,,,,,16771,2022-12-01_14h02.20.602,vts_reward_expectancy_bt_OFFLINE,2022.2.4,59.94994940911568,
0,0,0,1,0,0,1,0,star,hexagon,0,0,0,0,1,0,12,11,,,,,,,,,,,,,,,,,,,,,,,,,,,,,,,,,,,,,,,,96.6666436851956,96.6666436851956,96.6666436851956,96.6666436851956,96.6666436851956,96.6666436851956,96.6666436851956,96.6666436851956,96.6666436851956,96.6666436851956,a,0.5425603119656444,10,49,0,97.23552396241575,98.75083019537851,,,,,,,,,,,,,,,,,,,,,,,,,,,,,,,,,,,,,,,,,,,,,,,,,,,,,,,,,,,,,,,,,,,,,,,,,,16771,2022-12-01_14h02.20.602,vts_reward_expectancy_bt_OFFLINE,2022.2.4,59.94994940911568,
0,0,0,1,1,0,0,0,star,triangle,0,0,0,0,1,1,13,9,,,,,,,,,,,,,,,,,,,,,,,,,,,,,,,,,,,,,,,,99.25099067436531,99.25099067436531,99.25099067436531,99.25099067436531,99.25099067436531,99.25099067436531,99.25099067436531,99.25099067436531,99.25099067436531,99.25099067436531,a,2.4583582188934088,10,59,0,101.73725746804848,103.23788318037987,103.23788318037987,103.73783879401162,,,,,,,,,,,,,,,,,,,,,,,,,,,,,,,,,,,,,,,,,,,,,,,,,,,,,,,,,,,,,,,,,,,,,,,,16771,2022-12-01_14h02.20.602,vts_reward_expectancy_bt_OFFLINE,2022.2.4,59.94994940911568,
0,0,0,1,0,1,0,0,star ,circle,0,0,0,0,1,2,14,10,,,,,,,,,,,,,,,,,,,,,,,,,,,,,,,,,,,,,,,,103.73783879401162,103.73783879401162,103.73783879401162,103.73783879401162,103.73783879401162,103.73783879401162,103.73783879401162,103.73783879401162,103.73783879401162,103.73783879401162,l,0.5582365687005222,1,60,0,104.3233745591715,105.8240207079798,,,,,,,,,,,,,,,,,,,,,,,,,,,,,,,,,,,,,,,,,,,,,,,,,,,,,,,,,,,,,,,,,,,,,,,,,,16771,2022-12-01_14h02.20.602,vts_reward_expectancy_bt_OFFLINE,2022.2.4,59.94994940911568,
0,0,1,0,0,1,0,0,hexagon,circle,0,0,0,0,1,3,15,7,,,,,,,,,,,,,,,,,,,,,,,,,,,,,,,,,,,,,,,,106.32413883134723,106.32413883134723,106.32413883134723,106.32413883134723,106.32413883134723,106.32413883134723,106.32413883134723,106.32413883134723,106.32413883134723,106.32413883134723,l,0.8746866071596742,10,70,0,107.22617953736335,108.74158872524276,,,,,,,,,,,,,,,,,,,,,,,,,,,,,,,,,,,,,,,,,,,,,,,,,,,,,,,,,,,,,,,,,,,,,,,,,,16771,2022-12-01_14h02.20.602,vts_reward_expectancy_bt_OFFLINE,2022.2.4,59.94994940911568,
1,0,0,0,0,0,1,0,triangle,hexagon,0,0,0,0,1,4,16,1,,,,,,,,,,,,,,,,,,,,,,,,,,,,,,,,,,,,,,,,109.24147648923099,109.24147648923099,109.24147648923099,109.24147648923099,109.24147648923099,109.24147648923099,109.24147648923099,109.24147648923099,109.24147648923099,109.24147648923099,l,1.715307445731014,10,80,0,110.97762918099761,112.4779512854293,112.4779512854293,112.9780782032758,,,,,,,,,,,,,,,,,,,,,,,,,,,,,,,,,,,,,,,,,,,,,,,,,,,,,,,,,,,,,,,,,,,,,,,,16771,2022-12-01_14h02.20.602,vts_reward_expectancy_bt_OFFLINE,2022.2.4,59.94994940911568,
0,1,0,0,1,0,0,0,circle,triangle,0,0,0,0,1,5,17,3,,,,,,,,,,,,,,,,,,,,,,,,,,,,,,,,,,,,,,,,112.9780782032758,112.9780782032758,112.9780782032758,112.9780782032758,112.9780782032758,112.9780782032758,112.9780782032758,112.9780782032758,112.9780782032758,112.9780782032758,a,2.636275125667453,10,90,0,115.63072113599628,117.13162019429728,117.13162019429728,117.63163512013853,,,,,,,,,,,,,,,,,,,,,,,,,,,,,,,,,,,,,,,,,,,,,,,,,,,,,,,,,,,,,,,,,,,,,,,,16771,2022-12-01_14h02.20.602,vts_reward_expectancy_bt_OFFLINE,2022.2.4,59.94994940911568,
0,0,1,0,1,0,0,0,hexagon,triangle,0,0,0,0,1,6,18,6,,,,,,,,,,,,,,,,,,,,,,,,,,,,,,,,,,,,,,,,117.63163512013853,117.63163512013853,117.63163512013853,117.63163512013853,117.63163512013853,117.63163512013853,117.63163512013853,117.63163512013853,117.63163512013853,117.63163512013853,a,1.2685700827278197,1,91,0,118.93296639807522,120.43481542216614,,,,,,,,,,,,,,,,,,,,,,,,,,,,,,,,,,,,,,,,,,,,,,,,,,,,,,,,,,,,,,,,,,,,,,,,,,16771,2022-12-01_14h02.20.602,vts_reward_expectancy_bt_OFFLINE,2022.2.4,59.94994940911568,
1,0,0,0,0,1,0,0,triangle,circle,0,0,0,0,1,7,19,0,,,,,,,,,,,,,,,,,,,,,,,,,,,,,,,,,,,,,,,,120.9348228033632,120.9348228033632,120.9348228033632,120.9348228033632,120.9348228033632,120.9348228033632,120.9348228033632,120.9348228033632,120.9348228033632,120.9348228033632,l,1.5757677326910198,1,92,0,122.53525372315198,124.0360846943222,,,,,,,,,,,,,,,,,,,,,,,,,,,,,,,,,,,,,,,,,,,,,,,,,,,,,,,,,,,,,,,,,,,,,,,,,,16771,2022-12-01_14h02.20.602,vts_reward_expectancy_bt_OFFLINE,2022.2.4,59.94994940911568,
1,0,0,0,0,0,0,1,triangle,star,0,0,0,0,1,8,20,2,,,,,,,,,,,,,,,,,,,,,,,,,,,,,,,,,,,,,,,,124.53788540139794,124.53788540139794,124.53788540139794,124.53788540139794,124.53788540139794,124.53788540139794,124.53788540139794,124.53788540139794,124.53788540139794,124.53788540139794,l,0.616784012876451,10,102,0,125.17347300238907,126.68877613404766,,,,,,,,,,,,,,,,,,,,,,,,,,,,,,,,,,,,,,,,,,,,,,,,,,,,,,,,,,,,,,,,,,,,,,,,,,16771,2022-12-01_14h02.20.602,vts_reward_expectancy_bt_OFFLINE,2022.2.4,59.94994940911568,
0,1,0,0,0,0,1,0,circle,hexagon,0,0,0,0,1,9,21,4,,,,,,,,,,,,,,,,,,,,,,,,,,,,,,,,,,,,,,,,127.18891813233495,127.18891813233495,127.18891813233495,127.18891813233495,127.18891813233495,127.18891813233495,127.18891813233495,127.18891813233495,127.18891813233495,127.18891813233495,l,2.702956823632121,1,103,0,129.91054268321022,131.42553871823475,,,,,,,,,,,,,,,,,,,,,,,,,,,,,,,,,,,,,,,,,,,,,,,,,,,,,,,,,,,,,,,,,,,,,,,,,,16771,2022-12-01_14h02.20.602,vts_reward_expectancy_bt_OFFLINE,2022.2.4,59.94994940911568,
0,0,1,0,0,0,0,1,hexagon,star,0,0,0,0,1,10,22,8,,,,,,,,,,,,,,,,,,,,,,,,,,,,,,,,,,,,,,,,131.92574917525053,131.92574917525053,131.92574917525053,131.92574917525053,131.92574917525053,131.92574917525053,131.92574917525053,131.92574917525053,131.92574917525053,131.92574917525053,l,0.7107471767812967,10,113,0,132.6610769443214,134.17660193610936,,,,,,,,,,,,,,,,,,,,,,,,,,,,,,,,,,,,,,,,,,,,,,,,,,,,,,,,,,,,,,,,,,,,,,,,,,16771,2022-12-01_14h02.20.602,vts_reward_expectancy_bt_OFFLINE,2022.2.4,59.94994940911568,
0,1,0,0,0,0,0,1,circle,star,0,0,0,0,1,11,23,5,,,,,,,,,,,,,,,,,,,,,,,,,,,,,,,,,,,,,,,,134.66215554717928,134.66215554717928,134.66215554717928,134.66215554717928,134.66215554717928,134.66215554717928,134.66215554717928,134.66215554717928,134.66215554717928,134.66215554717928,a,0.7986625689081848,10,123,0,135.47891215141863,136.9792373580858,136.9792373580858,137.47966480301693,,,,,,,,,,,,,,,,,,,,,,,,,,,,,,,,,,,,,,,,,,,,,,,,,,,,,,,,,,,,,,,,,,,,,,,,16771,2022-12-01_14h02.20.602,vts_reward_expectancy_bt_OFFLINE,2022.2.4,59.94994940911568,
0,1,0,0,0,0,0,1,circle,star,0,0,0,0,2,0,24,5,,,,,,,,,,,,,,,,,,,,,,,,,,,,,,,,,,,,,,,,137.47966480301693,137.47966480301693,137.47966480301693,137.47966480301693,137.47966480301693,137.47966480301693,137.47966480301693,137.47966480301693,137.47966480301693,137.47966480301693,a,0.5232954267412424,10,133,0,138.02977818530053,139.53225798811764,,,,,,,,,,,,,,,,,,,,,,,,,,,,,,,,,,,,,,,,,,,,,,,,,,,,,,,,,,,,,,,,,,,,,,,,,,16771,2022-12-01_14h02.20.602,vts_reward_expectancy_bt_OFFLINE,2022.2.4,59.94994940911568,
1,0,0,0,0,0,0,1,triangle,star,0,0,0,0,2,1,25,2,,,,,,,,,,,,,,,,,,,,,,,,,,,,,,,,,,,,,,,,140.0320801991038,140.0320801991038,140.0320801991038,140.0320801991038,140.0320801991038,140.0320801991038,140.0320801991038,140.0320801991038,140.0320801991038,140.0320801991038,l,0.8734715986065567,10,143,0,140.93301158817485,142.43335818499327,142.43335818499327,142.93308696709573,,,,,,,,,,,,,,,,,,,,,,,,,,,,,,,,,,,,,,,,,,,,,,,,,,,,,,,,,,,,,,,,,,,,,,,,16771,2022-12-01_14h02.20.602,vts_reward_expectancy_bt_OFFLINE,2022.2.4,59.94994940911568,
0,0,0,1,1,0,0,0,star,triangle,0,0,0,0,2,2,26,9,,,,,,,,,,,,,,,,,,,,,,,,,,,,,,,,,,,,,,,,142.93308696709573,142.93308696709573,142.93308696709573,142.93308696709573,142.93308696709573,142.93308696709573,142.93308696709573,142.93308696709573,142.93308696709573,142.93308696709573,a,0.8758542686700821,10,153,0,143.833855594974,145.3357053999789,,,,,,,,,,,,,,,,,,,,,,,,,,,,,,,,,,,,,,,,,,,,,,,,,,,,,,,,,,,,,,,,,,,,,,,,,,16771,2022-12-01_14h02.20.602,vts_reward_expectancy_bt_OFFLINE,2022.2.4,59.94994940911568,
0,1,0,0,1,0,0,0,circle,triangle,0,0,0,0,2,3,27,3,,,,,,,,,,,,,,,,,,,,,,,,,,,,,,,,,,,,,,,,145.83626270014793,145.83626270014793,145.83626270014793,145.83626270014793,145.83626270014793,145.83626270014793,145.83626270014793,145.83626270014793,145.83626270014793,145.83626270014793,a,2.259171994868666,10,163,0,148.12044248124585,149.6227527251467,,,,,,,,,,,,,,,,,,,,,,,,,,,,,,,,,,,,,,,,,,,,,,,,,,,,,,,,,,,,,,,,,,,,,,,,,,16771,2022-12-01_14h02.20.602,vts_reward_expectancy_bt_OFFLINE,2022.2.4,59.94994940911568,
0,0,1,0,1,0,0,0,hexagon,triangle,0,0,0,0,2,4,28,6,,,,,,,,,,,,,,,,,,,,,,,,,,,,,,,,,,,,,,,,150.12277983501554,150.12277983501554,150.12277983501554,150.12277983501554,150.12277983501554,150.12277983501554,150.12277983501554,150.12277983501554,150.12277983501554,150.12277983501554,a,1.0325794876553118,1,164,0,151.1754552903585,152.69043414201587,,,,,,,,,,,,,,,,,,,,,,,,,,,,,,,,,,,,,,,,,,,,,,,,,,,,,,,,,,,,,,,,,,,,,,,,,,16771,2022-12-01_14h02.20.602,vts_reward_expectancy_bt_OFFLINE,2022.2.4,59.94994940911568,
1,0,0,0,0,1,0,0,triangle,circle,0,0,0,0,2,5,29,0,,,,,,,,,,,,,,,,,,,,,,,,,,,,,,,,,,,,,,,,153.19075983716175,153.19075983716175,153.19075983716175,153.19075983716175,153.19075983716175,153.19075983716175,153.19075983716175,153.19075983716175,153.19075983716175,153.19075983716175,l,1.3503371118567884,10,174,0,154.56197520717978,156.07702950714156,,,,,,,,,,,,,,,,,,,,,,,,,,,,,,,,,,,,,,,,,,,,,,,,,,,,,,,,,,,,,,,,,,,,,,,,,,16771,2022-12-01_14h02.20.602,vts_reward_expectancy_bt_OFFLINE,2022.2.4,59.94994940911568,
0,1,0,0,0,0,1,0,circle,hexagon,0,0,0,0,2,6,30,4,,,,,,,,,,,,,,,,,,,,,,,,,,,,,,,,,,,,,,,,156.57693835813552,156.57693835813552,156.57693835813552,156.57693835813552,156.57693835813552,156.57693835813552,156.57693835813552,156.57693835813552,156.57693835813552,156.57693835813552,a,1.4634985937736928,10,184,0,158.06103911204264,159.5634369063191,,,,,,,,,,,,,,,,,,,,,,,,,,,,,,,,,,,,,,,,,,,,,,,,,,,,,,,,,,,,,,,,,,,,,,,,,,16771,2022-12-01_14h02.20.602,vts_reward_expectancy_bt_OFFLINE,2022.2.4,59.94994940911568,
0,0,1,0,0,0,0,1,hexagon,star,0,0,0,0,2,7,31,8,,,,,,,,,,,,,,,,,,,,,,,,,,,,,,,,,,,,,,,,160.06337343808264,160.06337343808264,160.06337343808264,160.06337343808264,160.06337343808264,160.06337343808264,160.06337343808264,160.06337343808264,160.06337343808264,160.06337343808264,l,0.9016914395615458,10,194,0,160.99754098197445,162.4978865920566,162.4978865920566,162.9979748101905,,,,,,,,,,,,,,,,,,,,,,,,,,,,,,,,,,,,,,,,,,,,,,,,,,,,,,,,,,,,,,,,,,,,,,,,16771,2022-12-01_14h02.20.602,vts_reward_expectancy_bt_OFFLINE,2022.2.4,59.94994940911568,
1,0,0,0,0,0,1,0,triangle,hexagon,0,0,0,0,2,8,32,1,,,,,,,,,,,,,,,,,,,,,,,,,,,,,,,,,,,,,,,,162.9979748101905,162.9979748101905,162.9979748101905,162.9979748101905,162.9979748101905,162.9979748101905,162.9979748101905,162.9979748101905,162.9979748101905,162.9979748101905,l,1.2298578256741166,10,204,0,164.24838311504573,165.75079351617023,,,,,,,,,,,,,,,,,,,,,,,,,,,,,,,,,,,,,,,,,,,,,,,,,,,,,,,,,,,,,,,,,,,,,,,,,,16771,2022-12-01_14h02.20.602,vts_reward_expectancy_bt_OFFLINE,2022.2.4,59.94994940911568,
0,0,0,1,0,1,0,0,star ,circle,0,0,0,0,2,9,33,10,,,,,,,,,,,,,,,,,,,,,,,,,,,,,,,,,,,,,,,,166.25117768440396,166.25117768440396,166.25117768440396,166.25117768440396,166.25117768440396,166.25117768440396,166.25117768440396,166.25117768440396,166.25117768440396,166.25117768440396,l,2.275821601971984,1,205,0,168.55375135829672,170.05415439605713,,,,,,,,,,,,,,,,,,,,,,,,,,,,,,,,,,,,,,,,,,,,,,,,,,,,,,,,,,,,,,,,,,,,,,,,,,16771,2022-12-01_14h02.20.602,vts_reward_expectancy_bt_OFFLINE,2022.2.4,59.94994940911568,
0,0,0,1,0,0,1,0,star,hexagon,0,0,0,0,2,10,34,11,,,,,,,,,,,,,,,,,,,,,,,,,,,,,,,,,,,,,,,,170.5544468872249,170.5544468872249,170.5544468872249,170.5544468872249,170.5544468872249,170.5544468872249,170.5544468872249,170.5544468872249,170.5544468872249,170.5544468872249,a,1.2450410625897348,10,215,0,171.82336364220828,173.33879764098674,,,,,,,,,,,,,,,,,,,,,,,,,,,,,,,,,,,,,,,,,,,,,,,,,,,,,,,,,,,,,,,,,,,,,,,,,,16771,2022-12-01_14h02.20.602,vts_reward_expectancy_bt_OFFLINE,2022.2.4,59.94994940911568,
0,0,1,0,0,1,0,0,hexagon,circle,0,0,0,0,2,11,35,7,,,,,,,,,,,,,,,,,,,,,,,,,,,,,,,,,,,,,,,,173.83873420022428,173.83873420022428,173.83873420022428,173.83873420022428,173.83873420022428,173.83873420022428,173.83873420022428,173.83873420022428,173.83873420022428,173.83873420022428,a,0.8630694141611457,1,216,0,174.72663291497156,176.2413881700486,,,,,,,,,,,,,,,,,,,,,,,,,,,,,,,,,,,,,,,,,,,,,,,,,,,,,,,,,,,,,,,,,,,,,,,,,,16771,2022-12-01_14h02.20.602,vts_reward_expectancy_bt_OFFLINE,2022.2.4,59.94994940911568,
0,0,0,1,0,1,0,0,star ,circle,0,0,0,0,3,0,36,10,,,,,,,,,,,,,,,,,,,,,,,,,,,,,,,,,,,,,,,,176.74161252425984,176.74161252425984,176.74161252425984,176.74161252425984,176.74161252425984,176.74161252425984,176.74161252425984,176.74161252425984,176.74161252425984,176.74161252425984,a,1.6509840628132224,1,217,0,178.40947890421376,179.91125880600885,,,,,,,,,,,,,,,,,,,,,,,,,,,,,,,,,,,,,,,,,,,,,,,,,,,,,,,,,,,,,,,,,,,,,,,,,,16771,2022-12-01_14h02.20.602,vts_reward_expectancy_bt_OFFLINE,2022.2.4,59.94994940911568,
0,0,1,0,0,0,0,1,hexagon,star,0,0,0,0,3,1,37,8,,,,,,,,,,,,,,,,,,,,,,,,,,,,,,,,,,,,,,,,180.41171829635277,180.41171829635277,180.41171829635277,180.41171829635277,180.41171829635277,180.41171829635277,180.41171829635277,180.41171829635277,180.41171829635277,180.41171829635277,l,0.9618226676248014,10,227,0,181.39712803205475,182.91253590397537,,,,,,,,,,,,,,,,,,,,,,,,,,,,,,,,,,,,,,,,,,,,,,,,,,,,,,,,,,,,,,,,,,,,,,,,,,16771,2022-12-01_14h02.20.602,vts_reward_expectancy_bt_OFFLINE,2022.2.4,59.94994940911568,
0,0,0,1,1,0,0,0,star,triangle,0,0,0,0,3,2,38,9,,,,,,,,,,,,,,,,,,,,,,,,,,,,,,,,,,,,,,,,183.41266753524542,183.41266753524542,183.41266753524542,183.41266753524542,183.41266753524542,183.41266753524542,183.41266753524542,183.41266753524542,183.41266753524542,183.41266753524542,a,1.111383576411754,10,237,0,184.5514577361755,186.06537550827488,,,,,,,,,,,,,,,,,,,,,,,,,,,,,,,,,,,,,,,,,,,,,,,,,,,,,,,,,,,,,,,,,,,,,,,,,,16771,2022-12-01_14h02.20.602,vts_reward_expectancy_bt_OFFLINE,2022.2.4,59.94994940911568,
0,0,1,0,1,0,0,0,hexagon,triangle,0,0,0,0,3,3,39,6,,,,,,,,,,,,,,,,,,,,,,,,,,,,,,,,,,,,,,,,186.56551986001432,186.56551986001432,186.56551986001432,186.56551986001432,186.56551986001432,186.56551986001432,186.56551986001432,186.56551986001432,186.56551986001432,186.56551986001432,a,1.0750376847572625,1,238,0,187.6681445701979,189.18326154910028,,,,,,,,,,,,,,,,,,,,,,,,,,,,,,,,,,,,,,,,,,,,,,,,,,,,,,,,,,,,,,,,,,,,,,,,,,16771,2022-12-01_14h02.20.602,vts_reward_expectancy_bt_OFFLINE,2022.2.4,59.94994940911568,
0,1,0,0,0,0,1,0,circle,hexagon,0,0,0,0,3,4,40,4,,,,,,,,,,,,,,,,,,,,,,,,,,,,,,,,,,,,,,,,189.6683296682313,189.6683296682313,189.6683296682313,189.6683296682313,189.6683296682313,189.6683296682313,189.6683296682313,189.6683296682313,189.6683296682313,189.6683296682313,a,0.9762379457242787,10,248,0,190.67155095236376,192.18602711334825,,,,,,,,,,,,,,,,,,,,,,,,,,,,,,,,,,,,,,,,,,,,,,,,,,,,,,,,,,,,,,,,,,,,,,,,,,16771,2022-12-01_14h02.20.602,vts_reward_expectancy_bt_OFFLINE,2022.2.4,59.94994940911568,
0,0,1,0,0,1,0,0,hexagon,circle,0,0,0,0,3,5,41,7,,,,,,,,,,,,,,,,,,,,,,,,,,,,,,,,,,,,,,,,192.68616505432874,192.68616505432874,192.68616505432874,192.68616505432874,192.68616505432874,192.68616505432874,192.68616505432874,192.68616505432874,192.68616505432874,192.68616505432874,l,1.7043189038522542,10,258,0,194.42015936039388,195.92288856441155,,,,,,,,,,,,,,,,,,,,,,,,,,,,,,,,,,,,,,,,,,,,,,,,,,,,,,,,,,,,,,,,,,,,,,,,,,16771,2022-12-01_14h02.20.602,vts_reward_expectancy_bt_OFFLINE,2022.2.4,59.94994940911568,
0,1,0,0,1,0,0,0,circle,triangle,0,0,0,0,3,6,42,3,,,,,,,,,,,,,,,,,,,,,,,,,,,,,,,,,,,,,,,,196.42286113230512,196.42286113230512,196.42286113230512,196.42286113230512,196.42286113230512,196.42286113230512,196.42286113230512,196.42286113230512,196.42286113230512,196.42286113230512,a,1.2526871324516833,10,268,0,197.70674326037988,199.20730927214026,199.20730927214026,,,,,,,,,,,,,,,,,,,,,,,,,,,,,,,,,,,,,,,,,,,,,,,,,,,,,,,,,,,,,,,,,,,,,,,,,16771,2022-12-01_14h02.20.602,vts_reward_expectancy_bt_OFFLINE,2022.2.4,59.94994940911568,
0,0,0,1,0,0,1,0,star,hexagon,0,0,0,0,3,7,43,11,,,,,,,,,,,,,,,,,,,,,,,,,,,,,,,,,,,,,,,,199.70915929600596,199.70915929600596,199.70915929600596,199.70915929600596,199.70915929600596,199.70915929600596,199.70915929600596,199.70915929600596,199.70915929600596,199.70915929600596,a,1.3199836616404355,10,278,0,201.05975763406605,202.56022600503638,202.56022600503638,,,,,,,,,,,,,,,,,,,,,,,,,,,,,,,,,,,,,,,,,,,,,,,,,,,,,,,,,,,,,,,,,,,,,,,,,16771,2022-12-01_14h02.20.602,vts_reward_expectancy_bt_OFFLINE,2022.2.4,59.94994940911568,
1,0,0,0,0,1,0,0,triangle,circle,0,0,0,0,3,8,44,0,,,,,,,,,,,,,,,,,,,,,,,,,,,,,,,,,,,,,,,,203.0601864112541,203.0601864112541,203.0601864112541,203.0601864112541,203.0601864112541,203.0601864112541,203.0601864112541,203.0601864112541,203.0601864112541,203.0601864112541,a,2.997091007884592,1,279,0,206.08183395303786,207.59705998003483,,,,,,,,,,,,,,,,,,,,,,,,,,,,,,,,,,,,,,,,,,,,,,,,,,,,,,,,,,,,,,,,,,,,,,,,,,16771,2022-12-01_14h02.20.602,vts_reward_expectancy_bt_OFFLINE,2022.2.4,59.94994940911568,
0,1,0,0,0,0,0,1,circle,star,0,0,0,0,3,9,45,5,,,,,,,,,,,,,,,,,,,,,,,,,,,,,,,,,,,,,,,,208.09733529714867,208.09733529714867,208.09733529714867,208.09733529714867,208.09733529714867,208.09733529714867,208.09733529714867,208.09733529714867,208.09733529714867,208.09733529714867,a,1.6726615917868912,10,289,0,209.8017449262552,211.31692803232,,,,,,,,,,,,,,,,,,,,,,,,,,,,,,,,,,,,,,,,,,,,,,,,,,,,,,,,,,,,,,,,,,,,,,,,,,16771,2022-12-01_14h02.20.602,vts_reward_expectancy_bt_OFFLINE,2022.2.4,59.94994940911568,
1,0,0,0,0,0,1,0,triangle,hexagon,0,0,0,0,3,10,46,1,,,,,,,,,,,,,,,,,,,,,,,,,,,,,,,,,,,,,,,,211.8172204643488,211.8172204643488,211.8172204643488,211.8172204643488,211.8172204643488,211.8172204643488,211.8172204643488,211.8172204643488,211.8172204643488,211.8172204643488,l,1.5414844998158514,10,299,0,213.38447506399825,214.88674404099584,,,,,,,,,,,,,,,,,,,,,,,,,,,,,,,,,,,,,,,,,,,,,,,,,,,,,,,,,,,,,,,,,,,,,,,,,,16771,2022-12-01_14h02.20.602,vts_reward_expectancy_bt_OFFLINE,2022.2.4,59.94994940911568,
1,0,0,0,0,0,0,1,triangle,star,0,0,0,0,3,11,47,2,,,,,,,,,,,,,,,,,,,,,,,,,,,,,,,,,,,,,,,,215.38693955121562,215.38693955121562,215.38693955121562,215.38693955121562,215.38693955121562,215.38693955121562,215.38693955121562,215.38693955121562,215.38693955121562,215.38693955121562,l,1.156889627687633,10,309,0,216.5708289630711,218.0714771640487,218.0714771640487,,,,,,,,,,,,,,,,,,,,,,,,,,,,,,,,,,,,,,,,,,,,,,,,,,,,,,,,,,,,,,,,,,,,,,,,,16771,2022-12-01_14h02.20.602,vts_reward_expectancy_bt_OFFLINE,2022.2.4,59.94994940911568,
0,0,1,0,0,0,0,1,hexagon,star,1,0,1,0,0,0,0,8,,,,,,,,,,,,,,,,,,,,,,,,,,,,,,,,,,,,,,,,222.1190177630633,222.1190177630633,222.1190177630633,222.1190177630633,222.1190177630633,222.1190177630633,222.1190177630633,222.1190177630633,222.1190177630633,222.1190177630633,l,3.7284490214660764,10,319,1,225.87819581106305,227.37833800632507,227.37833800632507,227.87840416142717,,,,,,,,,,,,,,,,,,,,,,,,,,,,,,,,,,,,,,,,,,,,,,,,,,,,,,,,,,,,,,,,,,,,,,,,16771,2022-12-01_14h02.20.602,vts_reward_expectancy_bt_OFFLINE,2022.2.4,59.94994940911568,
0,1,0,0,0,0,1,0,circle,hexagon,1,0,1,0,0,1,1,4,,,,,,,,,,,,,,,,,,,,,,,,,,,,,,,,,,,,,,,,227.87840416142717,227.87840416142717,227.87840416142717,227.87840416142717,227.87840416142717,227.87840416142717,227.87840416142717,227.87840416142717,227.87840416142717,227.87840416142717,l,3.503647003788501,1,320,1,231.41615468543023,232.91548257414252,232.91548257414252,233.41584893036634,,,,,,,,,,,,,,,,,,,,,,,,,,,,,,,,,,,,,,,,,,,,,,,,,,,,,,,,,,,,,,,,,,,,,,,,16771,2022-12-01_14h02.20.602,vts_reward_expectancy_bt_OFFLINE,2022.2.4,59.94994940911568,
0,0,1,0,0,1,0,0,hexagon,circle,1,0,1,0,0,2,2,7,,,,,,,,,,,,,,,,,,,,,,,,,,,,,,,,,,,,,,,,233.41584893036634,233.41584893036634,233.41584893036634,233.41584893036634,233.41584893036634,233.41584893036634,233.41584893036634,233.41584893036634,233.41584893036634,233.41584893036634,l,0.7904941877350211,10,330,1,234.23504890641198,235.7350602922961,,,,,,,,,,,,,,,,,,,,,,,,,,,,,,,,,,,,,,,,,,,,,,,,,,,,,,,,,,,,,,,,,,,,,,,,,,16771,2022-12-01_14h02.20.602,vts_reward_expectancy_bt_OFFLINE,2022.2.4,59.94994940911568,
0,0,0,1,1,0,0,0,star,triangle,1,0,1,0,0,3,3,9,,,,,,,,,,,,,,,,,,,,,,,,,,,,,,,,,,,,,,,,236.23525680834427,236.23525680834427,236.23525680834427,236.23525680834427,236.23525680834427,236.23525680834427,236.23525680834427,236.23525680834427,236.23525680834427,236.23525680834427,a,0.7503630788996816,1,331,1,237.0044536581263,238.5192626863718,,,,,,,,,,,,,,,,,,,,,,,,,,,,,,,,,,,,,,,,,,,,,,,,,,,,,,,,,,,,,,,,,,,,,,,,,,16771,2022-12-01_14h02.20.602,vts_reward_expectancy_bt_OFFLINE,2022.2.4,59.94994940911568,
0,0,0,1,0,1,0,0,star ,circle,1,0,1,0,0,4,4,10,,,,,,,,,,,,,,,,,,,,,,,,,,,,,,,,,,,,,,,,239.01958663621917,239.01958663621917,239.01958663621917,239.01958663621917,239.01958663621917,239.01958663621917,239.01958663621917,239.01958663621917,239.01958663621917,239.01958663621917,a,2.0941614490002394,1,332,1,241.1393681820482,242.63936718506739,242.63936718506739,243.1393673401326,,,,,,,,,,,,,,,,,,,,,,,,,,,,,,,,,,,,,,,,,,,,,,,,,,,,,,,,,,,,,,,,,,,,,,,,16771,2022-12-01_14h02.20.602,vts_reward_expectancy_bt_OFFLINE,2022.2.4,59.94994940911568,
1,0,0,0,0,0,0,1,triangle,star,1,0,1,0,0,5,5,2,,,,,,,,,,,,,,,,,,,,,,,,,,,,,,,,,,,,,,,,243.1393673401326,243.1393673401326,243.1393673401326,243.1393673401326,243.1393673401326,243.1393673401326,243.1393673401326,243.1393673401326,243.1393673401326,243.1393673401326,l,0.6863567819818854,10,342,1,243.85886484198272,245.35865627322346,,,,,,,,,,,,,,,,,,,,,,,,,,,,,,,,,,,,,,,,,,,,,,,,,,,,,,,,,,,,,,,,,,,,,,,,,,16771,2022-12-01_14h02.20.602,vts_reward_expectancy_bt_OFFLINE,2022.2.4,59.94994940911568,
1,0,0,0,0,1,0,0,triangle,circle,1,0,1,0,0,6,6,0,,,,,,,,,,,,,,,,,,,,,,,,,,,,,,,,,,,,,,,,245.85905917128548,245.85905917128548,245.85905917128548,245.85905917128548,245.85905917128548,245.85905917128548,245.85905917128548,245.85905917128548,245.85905917128548,245.85905917128548,l,2.6123757921159267,10,352,1,248.49363707518205,249.99556070705876,,,,,,,,,,,,,,,,,,,,,,,,,,,,,,,,,,,,,,,,,,,,,,,,,,,,,,,,,,,,,,,,,,,,,,,,,,16771,2022-12-01_14h02.20.602,vts_reward_expectancy_bt_OFFLINE,2022.2.4,59.94994940911568,
0,0,0,1,0,0,1,0,star,hexagon,1,0,1,0,0,7,7,11,,,,,,,,,,,,,,,,,,,,,,,,,,,,,,,,,,,,,,,,250.49577155942097,250.49577155942097,250.49577155942097,250.49577155942097,250.49577155942097,250.49577155942097,250.49577155942097,250.49577155942097,250.49577155942097,250.49577155942097,l,1.3286446868442,1,353,1,251.84849632298574,253.36353028006852,,,,,,,,,,,,,,,,,,,,,,,,,,,,,,,,,,,,,,,,,,,,,,,,,,,,,,,,,,,,,,,,,,,,,,,,,,16771,2022-12-01_14h02.20.602,vts_reward_expectancy_bt_OFFLINE,2022.2.4,59.94994940911568,
1,0,0,0,0,0,1,0,triangle,hexagon,1,0,1,0,0,8,8,1,,,,,,,,,,,,,,,,,,,,,,,,,,,,,,,,,,,,,,,,253.84707395127043,253.84707395127043,253.84707395127043,253.84707395127043,253.84707395127043,253.84707395127043,253.84707395127043,253.84707395127043,253.84707395127043,253.84707395127043,l,0.6221981607377529,1,354,1,254.49742263322696,255.99966297019273,,,,,,,,,,,,,,,,,,,,,,,,,,,,,,,,,,,,,,,,,,,,,,,,,,,,,,,,,,,,,,,,,,,,,,,,,,16771,2022-12-01_14h02.20.602,vts_reward_expectancy_bt_OFFLINE,2022.2.4,59.94994940911568,
0,0,1,0,1,0,0,0,hexagon,triangle,1,0,1,0,0,9,9,6,,,,,,,,,,,,,,,,,,,,,,,,,,,,,,,,,,,,,,,,256.49981616204605,256.49981616204605,256.49981616204605,256.49981616204605,256.49981616204605,256.49981616204605,256.49981616204605,256.49981616204605,256.49981616204605,256.49981616204605,a,1.040575078688562,1,355,1,257.5670145303011,259.06729376129806,259.06729376129806,259.5644317823462,,,,,,,,,,,,,,,,,,,,,,,,,,,,,,,,,,,,,,,,,,,,,,,,,,,,,,,,,,,,,,,,,,,,,,,,16771,2022-12-01_14h02.20.602,vts_reward_expectancy_bt_OFFLINE,2022.2.4,59.94994940911568,
0,1,0,0,1,0,0,0,circle,triangle,1,0,1,0,0,10,10,3,,,,,,,,,,,,,,,,,,,,,,,,,,,,,,,,,,,,,,,,259.5644317823462,259.5644317823462,259.5644317823462,259.5644317823462,259.5644317823462,259.5644317823462,259.5644317823462,259.5644317823462,259.5644317823462,259.5644317823462,a,1.3730875528417528,10,365,1,260.9706231742166,262.47054314706475,262.47054314706475,262.97072147624567,,,,,,,,,,,,,,,,,,,,,,,,,,,,,,,,,,,,,,,,,,,,,,,,,,,,,,,,,,,,,,,,,,,,,,,,16771,2022-12-01_14h02.20.602,vts_reward_expectancy_bt_OFFLINE,2022.2.4,59.94994940911568,
0,1,0,0,0,0,0,1,circle,star,1,0,1,0,0,11,11,5,,,,,,,,,,,,,,,,,,,,,,,,,,,,,,,,,,,,,,,,262.97072147624567,262.97072147624567,262.97072147624567,262.97072147624567,262.97072147624567,262.97072147624567,262.97072147624567,262.97072147624567,262.97072147624567,262.97072147624567,l,0.5439801160246134,1,366,1,263.53996985498816,265.04005531733856,,,,,,,,,,,,,,,,,,,,,,,,,,,,,,,,,,,,,,,,,,,,,,,,,,,,,,,,,,,,,,,,,,,,,,,,,,16771,2022-12-01_14h02.20.602,vts_reward_expectancy_bt_OFFLINE,2022.2.4,59.94994940911568,
0,0,0,1,0,0,1,0,star,hexagon,1,0,1,0,1,0,12,11,,,,,,,,,,,,,,,,,,,,,,,,,,,,,,,,,,,,,,,,265.5398306204006,265.5398306204006,265.5398306204006,265.5398306204006,265.5398306204006,265.5398306204006,265.5398306204006,265.5398306204006,265.5398306204006,265.5398306204006,a,0.7533273454755545,10,376,1,266.3253460652195,267.8409238331951,,,,,,,,,,,,,,,,,,,,,,,,,,,,,,,,,,,,,,,,,,,,,,,,,,,,,,,,,,,,,,,,,,,,,,,,,,16771,2022-12-01_14h02.20.602,vts_reward_expectancy_bt_OFFLINE,2022.2.4,59.94994940911568,
0,1,0,0,0,0,1,0,circle,hexagon,1,0,1,0,1,1,13,4,,,,,,,,,,,,,,,,,,,,,,,,,,,,,,,,,,,,,,,,268.3410492744297,268.3410492744297,268.3410492744297,268.3410492744297,268.3410492744297,268.3410492744297,268.3410492744297,268.3410492744297,268.3410492744297,268.3410492744297,l,1.0564573090523481,1,377,1,269.4268888900988,270.9272133423947,,,,,,,,,,,,,,,,,,,,,,,,,,,,,,,,,,,,,,,,,,,,,,,,,,,,,,,,,,,,,,,,,,,,,,,,,,16771,2022-12-01_14h02.20.602,vts_reward_expectancy_bt_OFFLINE,2022.2.4,59.94994940911568,
0,0,1,0,0,0,0,1,hexagon,star,1,0,1,0,1,2,14,8,,,,,,,,,,,,,,,,,,,,,,,,,,,,,,,,,,,,,,,,271.4272195682861,271.4272195682861,271.4272195682861,271.4272195682861,271.4272195682861,271.4272195682861,271.4272195682861,271.4272195682861,271.4272195682861,271.4272195682861,l,0.8839745386503637,10,387,1,272.33022374333814,273.84502248000354,,,,,,,,,,,,,,,,,,,,,,,,,,,,,,,,,,,,,,,,,,,,,,,,,,,,,,,,,,,,,,,,,,,,,,,,,,16771,2022-12-01_14h02.20.602,vts_reward_expectancy_bt_OFFLINE,2022.2.4,59.94994940911568,
0,0,1,0,1,0,0,0,hexagon,triangle,1,0,1,0,1,3,15,6,,,,,,,,,,,,,,,,,,,,,,,,,,,,,,,,,,,,,,,,274.34507861407474,274.34507861407474,274.34507861407474,274.34507861407474,274.34507861407474,274.34507861407474,274.34507861407474,274.34507861407474,274.34507861407474,274.34507861407474,a,0.9138353425078094,1,388,1,275.2828804552555,276.797826083377,,,,,,,,,,,,,,,,,,,,,,,,,,,,,,,,,,,,,,,,,,,,,,,,,,,,,,,,,,,,,,,,,,,,,,,,,,16771,2022-12-01_14h02.20.602,vts_reward_expectancy_bt_OFFLINE,2022.2.4,59.94994940911568,
0,1,0,0,0,0,0,1,circle,star,1,0,1,0,1,4,16,5,,,,,,,,,,,,,,,,,,,,,,,,,,,,,,,,,,,,,,,,277.298050228972,277.298050228972,277.298050228972,277.298050228972,277.298050228972,277.298050228972,277.298050228972,277.298050228972,277.298050228972,277.298050228972,a,1.3474936559796333,10,398,1,278.66729761101305,280.1677084732801,,,,,,,,,,,,,,,,,,,,,,,,,,,,,,,,,,,,,,,,,,,,,,,,,,,,,,,,,,,,,,,,,,,,,,,,,,16771,2022-12-01_14h02.20.602,vts_reward_expectancy_bt_OFFLINE,2022.2.4,59.94994940911568,
0,0,0,1,1,0,0,0,star,triangle,1,0,1,0,1,5,17,9,,,,,,,,,,,,,,,,,,,,,,,,,,,,,,,,,,,,,,,,280.6678804391995,280.6678804391995,280.6678804391995,280.6678804391995,280.6678804391995,280.6678804391995,280.6678804391995,280.6678804391995,280.6678804391995,280.6678804391995,a,1.0159466797485948,10,408,1,281.70183126907796,283.2020031702705,283.2020031702705,283.70228689722717,,,,,,,,,,,,,,,,,,,,,,,,,,,,,,,,,,,,,,,,,,,,,,,,,,,,,,,,,,,,,,,,,,,,,,,,16771,2022-12-01_14h02.20.602,vts_reward_expectancy_bt_OFFLINE,2022.2.4,59.94994940911568,
0,1,0,0,1,0,0,0,circle,triangle,1,0,1,0,1,6,18,3,,,,,,,,,,,,,,,,,,,,,,,,,,,,,,,,,,,,,,,,283.70228689722717,283.70228689722717,283.70228689722717,283.70228689722717,283.70228689722717,283.70228689722717,283.70228689722717,283.70228689722717,283.70228689722717,283.70228689722717,a,2.1771590299904346,10,418,1,285.90524611016735,287.4053633143194,287.4053633143194,287.9051241884008,,,,,,,,,,,,,,,,,,,,,,,,,,,,,,,,,,,,,,,,,,,,,,,,,,,,,,,,,,,,,,,,,,,,,,,,16771,2022-12-01_14h02.20.602,vts_reward_expectancy_bt_OFFLINE,2022.2.4,59.94994940911568,
1,0,0,0,0,0,0,1,triangle,star,1,0,1,0,1,7,19,2,,,,,,,,,,,,,,,,,,,,,,,,,,,,,,,,,,,,,,,,287.9051241884008,287.9051241884008,287.9051241884008,287.9051241884008,287.9051241884008,287.9051241884008,287.9051241884008,287.9051241884008,287.9051241884008,287.9051241884008,l,1.4733971147798002,10,428,1,289.40674542915076,290.908372214064,,,,,,,,,,,,,,,,,,,,,,,,,,,,,,,,,,,,,,,,,,,,,,,,,,,,,,,,,,,,,,,,,,,,,,,,,,16771,2022-12-01_14h02.20.602,vts_reward_expectancy_bt_OFFLINE,2022.2.4,59.94994940911568,
0,0,1,0,0,1,0,0,hexagon,circle,1,0,1,0,1,8,20,7,,,,,,,,,,,,,,,,,,,,,,,,,,,,,,,,,,,,,,,,291.40862197009847,291.40862197009847,291.40862197009847,291.40862197009847,291.40862197009847,291.40862197009847,291.40862197009847,291.40862197009847,291.40862197009847,291.40862197009847,l,1.0414279899559915,10,438,1,292.47602127306163,293.9762329091318,293.9762329091318,294.4762412169948,,,,,,,,,,,,,,,,,,,,,,,,,,,,,,,,,,,,,,,,,,,,,,,,,,,,,,,,,,,,,,,,,,,,,,,,16771,2022-12-01_14h02.20.602,vts_reward_expectancy_bt_OFFLINE,2022.2.4,59.94994940911568,
0,0,0,1,0,1,0,0,star ,circle,1,0,1,0,1,9,21,10,,,,,,,,,,,,,,,,,,,,,,,,,,,,,,,,,,,,,,,,294.4762412169948,294.4762412169948,294.4762412169948,294.4762412169948,294.4762412169948,294.4762412169948,294.4762412169948,294.4762412169948,294.4762412169948,294.4762412169948,l,1.3268228340893984,10,448,1,295.82915901439264,297.32924664299935,297.32924664299935,,,,,,,,,,,,,,,,,,,,,,,,,,,,,,,,,,,,,,,,,,,,,,,,,,,,,,,,,,,,,,,,,,,,,,,,,16771,2022-12-01_14h02.20.602,vts_reward_expectancy_bt_OFFLINE,2022.2.4,59.94994940911568,
1,0,0,0,0,0,1,0,triangle,hexagon,1,0,1,0,1,10,22,1,,,,,,,,,,,,,,,,,,,,,,,,,,,,,,,,,,,,,,,,297.8293941169977,297.8293941169977,297.8293941169977,297.8293941169977,297.8293941169977,297.8293941169977,297.8293941169977,297.8293941169977,297.8293941169977,297.8293941169977,l,6.456718652043492,1,449,1,304.3314460343681,305.819396390114,,,,,,,,,,,,,,,,,,,,,,,,,,,,,,,,,,,,,,,,,,,,,,,,,,,,,,,,,,,,,,,,,,,,,,,,,,16771,2022-12-01_14h02.20.602,vts_reward_expectancy_bt_OFFLINE,2022.2.4,59.94994940911568,
1,0,0,0,0,1,0,0,triangle,circle,1,0,1,0,1,11,23,0,,,,,,,,,,,,,,,,,,,,,,,,,,,,,,,,,,,,,,,,306.3194412300363,306.3194412300363,306.3194412300363,306.3194412300363,306.3194412300363,306.3194412300363,306.3194412300363,306.3194412300363,306.3194412300363,306.3194412300363,l,1.0603606379590929,10,459,1,307.4055467112921,308.9203638690524,,,,,,,,,,,,,,,,,,,,,,,,,,,,,,,,,,,,,,,,,,,,,,,,,,,,,,,,,,,,,,,,,,,,,,,,,,16771,2022-12-01_14h02.20.602,vts_reward_expectancy_bt_OFFLINE,2022.2.4,59.94994940911568,
1,0,0,0,0,1,0,0,triangle,circle,1,0,1,0,2,0,24,0,,,,,,,,,,,,,,,,,,,,,,,,,,,,,,,,,,,,,,,,309.4203611910343,309.4203611910343,309.4203611910343,309.4203611910343,309.4203611910343,309.4203611910343,309.4203611910343,309.4203611910343,309.4203611910343,309.4203611910343,l,1.2665844527073205,10,469,1,310.70623029535636,312.2065616482869,312.2065616482869,,,,,,,,,,,,,,,,,,,,,,,,,,,,,,,,,,,,,,,,,,,,,,,,,,,,,,,,,,,,,,,,,,,,,,,,,16771,2022-12-01_14h02.20.602,vts_reward_expectancy_bt_OFFLINE,2022.2.4,59.94994940911568,
1,0,0,0,0,0,1,0,triangle,hexagon,1,0,1,0,2,1,25,1,,,,,,,,,,,,,,,,,,,,,,,,,,,,,,,,,,,,,,,,312.7068152134307,312.7068152134307,312.7068152134307,312.7068152134307,312.7068152134307,312.7068152134307,312.7068152134307,312.7068152134307,312.7068152134307,312.7068152134307,a,0.8712863828986883,1,470,1,313.6097093024291,315.1094350842759,,,,,,,,,,,,,,,,,,,,,,,,,,,,,,,,,,,,,,,,,,,,,,,,,,,,,,,,,,,,,,,,,,,,,,,,,,16771,2022-12-01_14h02.20.602,vts_reward_expectancy_bt_OFFLINE,2022.2.4,59.94994940911568,
0,1,0,0,0,0,1,0,circle,hexagon,1,0,1,0,2,2,26,4,,,,,,,,,,,,,,,,,,,,,,,,,,,,,,,,,,,,,,,,315.6097053983249,315.6097053983249,315.6097053983249,315.6097053983249,315.6097053983249,315.6097053983249,315.6097053983249,315.6097053983249,315.6097053983249,315.6097053983249,a,1.2762354868464172,10,480,1,316.91273829340935,318.42750840308145,,,,,,,,,,,,,,,,,,,,,,,,,,,,,,,,,,,,,,,,,,,,,,,,,,,,,,,,,,,,,,,,,,,,,,,,,,16771,2022-12-01_14h02.20.602,vts_reward_expectancy_bt_OFFLINE,2022.2.4,59.94994940911568,
0,1,0,0,1,0,0,0,circle,triangle,1,0,1,0,2,3,27,3,,,,,,,,,,,,,,,,,,,,,,,,,,,,,,,,,,,,,,,,318.9275495731272,318.9275495731272,318.9275495731272,318.9275495731272,318.9275495731272,318.9275495731272,318.9275495731272,318.9275495731272,318.9275495731272,318.9275495731272,a,1.8855764367617667,1,481,1,320.8324922802858,322.34743082197383,,,,,,,,,,,,,,,,,,,,,,,,,,,,,,,,,,,,,,,,,,,,,,,,,,,,,,,,,,,,,,,,,,,,,,,,,,16771,2022-12-01_14h02.20.602,vts_reward_expectancy_bt_OFFLINE,2022.2.4,59.94994940911568,
0,0,0,1,0,0,1,0,star,hexagon,1,0,1,0,2,4,28,11,,,,,,,,,,,,,,,,,,,,,,,,,,,,,,,,,,,,,,,,322.8474778011441,322.8474778011441,322.8474778011441,322.8474778011441,322.8474778011441,322.8474778011441,322.8474778011441,322.8474778011441,322.8474778011441,322.8474778011441,a,0.9135056678205729,10,491,1,323.7836617580615,325.2836364014074,,,,,,,,,,,,,,,,,,,,,,,,,,,,,,,,,,,,,,,,,,,,,,,,,,,,,,,,,,,,,,,,,,,,,,,,,,16771,2022-12-01_14h02.20.602,vts_reward_expectancy_bt_OFFLINE,2022.2.4,59.94994940911568,
0,1,0,0,0,0,0,1,circle,star,1,0,1,0,2,5,29,5,,,,,,,,,,,,,,,,,,,,,,,,,,,,,,,,,,,,,,,,325.7839040630497,325.7839040630497,325.7839040630497,325.7839040630497,325.7839040630497,325.7839040630497,325.7839040630497,325.7839040630497,325.7839040630497,325.7839040630497,l,2.105160228908062,10,501,1,327.9183300002478,329.41826177900657,329.41826177900657,,,,,,,,,,,,,,,,,,,,,,,,,,,,,,,,,,,,,,,,,,,,,,,,,,,,,,,,,,,,,,,,,,,,,,,,,16771,2022-12-01_14h02.20.602,vts_reward_expectancy_bt_OFFLINE,2022.2.4,59.94994940911568,
0,0,0,1,0,1,0,0,star ,circle,1,0,1,0,2,6,30,10,,,,,,,,,,,,,,,,,,,,,,,,,,,,,,,,,,,,,,,,329.9205160783604,329.9205160783604,329.9205160783604,329.9205160783604,329.9205160783604,329.9205160783604,329.9205160783604,329.9205160783604,329.9205160783604,329.9205160783604,a,0.7366926725953817,10,511,1,330.68798162508756,332.1878281873651,332.1878281873651,332.68810938624665,,,,,,,,,,,,,,,,,,,,,,,,,,,,,,,,,,,,,,,,,,,,,,,,,,,,,,,,,,,,,,,,,,,,,,,,16771,2022-12-01_14h02.20.602,vts_reward_expectancy_bt_OFFLINE,2022.2.4,59.94994940911568,
0,0,1,0,1,0,0,0,hexagon,triangle,1,0,1,0,2,7,31,6,,,,,,,,,,,,,,,,,,,,,,,,,,,,,,,,,,,,,,,,332.68810938624665,332.68810938624665,332.68810938624665,332.68810938624665,332.68810938624665,332.68810938624665,332.68810938624665,332.68810938624665,332.68810938624665,332.68810938624665,l,0.9950652308762074,1,512,1,333.7074261121452,335.2074662121013,,,,,,,,,,,,,,,,,,,,,,,,,,,,,,,,,,,,,,,,,,,,,,,,,,,,,,,,,,,,,,,,,,,,,,,,,,16771,2022-12-01_14h02.20.602,vts_reward_expectancy_bt_OFFLINE,2022.2.4,59.94994940911568,
1,0,0,0,0,0,0,1,triangle,star,1,0,1,0,2,8,32,2,,,,,,,,,,,,,,,,,,,,,,,,,,,,,,,,,,,,,,,,335.7076232791878,335.7076232791878,335.7076232791878,335.7076232791878,335.7076232791878,335.7076232791878,335.7076232791878,335.7076232791878,335.7076232791878,335.7076232791878,l,1.958529643714428,10,522,1,337.69429844105616,339.2088400609791,,,,,,,,,,,,,,,,,,,,,,,,,,,,,,,,,,,,,,,,,,,,,,,,,,,,,,,,,,,,,,,,,,,,,,,,,,16771,2022-12-01_14h02.20.602,vts_reward_expectancy_bt_OFFLINE,2022.2.4,59.94994940911568,
0,0,1,0,0,0,0,1,hexagon,star,1,0,1,0,2,9,33,8,,,,,,,,,,,,,,,,,,,,,,,,,,,,,,,,,,,,,,,,339.6945445551537,339.6945445551537,339.6945445551537,339.6945445551537,339.6945445551537,339.6945445551537,339.6945445551537,339.6945445551537,339.6945445551537,339.6945445551537,l,1.1661468367092311,10,532,1,340.8785205562599,342.3785892580636,342.3785892580636,342.8786925650202,,,,,,,,,,,,,,,,,,,,,,,,,,,,,,,,,,,,,,,,,,,,,,,,,,,,,,,,,,,,,,,,,,,,,,,,16771,2022-12-01_14h02.20.602,vts_reward_expectancy_bt_OFFLINE,2022.2.4,59.94994940911568,
0,0,1,0,0,1,0,0,hexagon,circle,1,0,1,0,2,10,34,7,,,,,,,,,,,,,,,,,,,,,,,,,,,,,,,,,,,,,,,,342.8786925650202,342.8786925650202,342.8786925650202,342.8786925650202,342.8786925650202,342.8786925650202,342.8786925650202,342.8786925650202,342.8786925650202,342.8786925650202,l,0.8069837815128267,1,533,1,343.7149959160015,345.21446633012965,,,,,,,,,,,,,,,,,,,,,,,,,,,,,,,,,,,,,,,,,,,,,,,,,,,,,,,,,,,,,,,,,,,,,,,,,,16771,2022-12-01_14h02.20.602,vts_reward_expectancy_bt_OFFLINE,2022.2.4,59.94994940911568,
0,0,0,1,1,0,0,0,star,triangle,1,0,1,0,2,11,35,9,,,,,,,,,,,,,,,,,,,,,,,,,,,,,,,,,,,,,,,,345.7150384671986,345.7150384671986,345.7150384671986,345.7150384671986,345.7150384671986,345.7150384671986,345.7150384671986,345.7150384671986,345.7150384671986,345.7150384671986,a,0.6592700239270926,10,543,1,346.40120097622275,347.9155555181205,,,,,,,,,,,,,,,,,,,,,,,,,,,,,,,,,,,,,,,,,,,,,,,,,,,,,,,,,,,,,,,,,,,,,,,,,,16771,2022-12-01_14h02.20.602,vts_reward_expectancy_bt_OFFLINE,2022.2.4,59.94994940911568,
1,0,0,0,0,0,0,1,triangle,star,1,0,1,0,3,0,36,2,,,,,,,,,,,,,,,,,,,,,,,,,,,,,,,,,,,,,,,,348.4159561791457,348.4159561791457,348.4159561791457,348.4159561791457,348.4159561791457,348.4159561791457,348.4159561791457,348.4159561791457,348.4159561791457,348.4159561791457,l,0.7822850588709116,10,553,1,349.2167154890485,350.71861103503034,,,,,,,,,,,,,,,,,,,,,,,,,,,,,,,,,,,,,,,,,,,,,,,,,,,,,,,,,,,,,,,,,,,,,,,,,,16771,2022-12-01_14h02.20.602,vts_reward_expectancy_bt_OFFLINE,2022.2.4,59.94994940911568,
1,0,0,0,0,0,1,0,triangle,hexagon,1,0,1,0,3,1,37,1,,,,,,,,,,,,,,,,,,,,,,,,,,,,,,,,,,,,,,,,351.21881483029574,351.21881483029574,351.21881483029574,351.21881483029574,351.21881483029574,351.21881483029574,351.21881483029574,351.21881483029574,351.21881483029574,351.21881483029574,l,0.5669667939655483,1,554,1,351.8053924352862,353.31955019105226,,,,,,,,,,,,,,,,,,,,,,,,,,,,,,,,,,,,,,,,,,,,,,,,,,,,,,,,,,,,,,,,,,,,,,,,,,16771,2022-12-01_14h02.20.602,vts_reward_expectancy_bt_OFFLINE,2022.2.4,59.94994940911568,
0,1,0,0,1,0,0,0,circle,triangle,1,0,1,0,3,2,38,3,,,,,,,,,,,,,,,,,,,,,,,,,,,,,,,,,,,,,,,,353.8197157164104,353.8197157164104,353.8197157164104,353.8197157164104,353.8197157164104,353.8197157164104,353.8197157164104,353.8197157164104,353.8197157164104,353.8197157164104,a,1.1612907047383487,10,564,1,355.00850548036397,356.52267928700894,,,,,,,,,,,,,,,,,,,,,,,,,,,,,,,,,,,,,,,,,,,,,,,,,,,,,,,,,,,,,,,,,,,,,,,,,,16771,2022-12-01_14h02.20.602,vts_reward_expectancy_bt_OFFLINE,2022.2.4,59.94994940911568,
0,0,1,0,1,0,0,0,hexagon,triangle,1,0,1,0,3,3,39,6,,,,,,,,,,,,,,,,,,,,,,,,,,,,,,,,,,,,,,,,357.0227888263762,357.0227888263762,357.0227888263762,357.0227888263762,357.0227888263762,357.0227888263762,357.0227888263762,357.0227888263762,357.0227888263762,357.0227888263762,a,4.5623339070007205,1,565,1,361.6119599682279,363.12663676636294,,,,,,,,,,,,,,,,,,,,,,,,,,,,,,,,,,,,,,,,,,,,,,,,,,,,,,,,,,,,,,,,,,,,,,,,,,16771,2022-12-01_14h02.20.602,vts_reward_expectancy_bt_OFFLINE,2022.2.4,59.94994940911568,
0,0,1,0,0,1,0,0,hexagon,circle,1,0,1,0,3,4,40,7,,,,,,,,,,,,,,,,,,,,,,,,,,,,,,,,,,,,,,,,363.626920028124,363.626920028124,363.626920028124,363.626920028124,363.626920028124,363.626920028124,363.626920028124,363.626920028124,363.626920028124,363.626920028124,l,5.911446032114327,1,566,1,369.5645887902938,371.06678403308615,,,,,,,,,,,,,,,,,,,,,,,,,,,,,,,,,,,,,,,,,,,,,,,,,,,,,,,,,,,,,,,,,,,,,,,,,,16771,2022-12-01_14h02.20.602,vts_reward_expectancy_bt_OFFLINE,2022.2.4,59.94994940911568,
0,0,1,0,0,0,0,1,hexagon,star,1,0,1,0,3,5,41,8,,,,,,,,,,,,,,,,,,,,,,,,,,,,,,,,,,,,,,,,371.56676000822335,371.56676000822335,371.56676000822335,371.56676000822335,371.56676000822335,371.56676000822335,371.56676000822335,371.56676000822335,371.56676000822335,371.56676000822335,a,0.6718596206046641,1,567,1,372.26780027430505,373.7676061321981,373.7676061321981,374.2676274171099,,,,,,,,,,,,,,,,,,,,,,,,,,,,,,,,,,,,,,,,,,,,,,,,,,,,,,,,,,,,,,,,,,,,,,,,16771,2022-12-01_14h02.20.602,vts_reward_expectancy_bt_OFFLINE,2022.2.4,59.94994940911568,
0,0,0,1,0,1,0,0,star ,circle,1,0,1,0,3,6,42,10,,,,,,,,,,,,,,,,,,,,,,,,,,,,,,,,,,,,,,,,374.2676274171099,374.2676274171099,374.2676274171099,374.2676274171099,374.2676274171099,374.2676274171099,374.2676274171099,374.2676274171099,374.2676274171099,374.2676274171099,a,0.5134586007334292,1,568,1,374.8036380712874,376.30351092712954,376.30351092712954,,,,,,,,,,,,,,,,,,,,,,,,,,,,,,,,,,,,,,,,,,,,,,,,,,,,,,,,,,,,,,,,,,,,,,,,,16771,2022-12-01_14h02.20.602,vts_reward_expectancy_bt_OFFLINE,2022.2.4,59.94994940911568,
1,0,0,0,0,1,0,0,triangle,circle,1,0,1,0,3,7,43,0,,,,,,,,,,,,,,,,,,,,,,,,,,,,,,,,,,,,,,,,376.8037816840224,376.8037816840224,376.8037816840224,376.8037816840224,376.8037816840224,376.8037816840224,376.8037816840224,376.8037816840224,376.8037816840224,376.8037816840224,l,15.709031474776566,1,569,1,392.532551959157,394.03237103298306,394.03237103298306,394.53225944703445,,,,,,,,,,,,,,,,,,,,,,,,,,,,,,,,,,,,,,,,,,,,,,,,,,,,,,,,,,,,,,,,,,,,,,,,16771,2022-12-01_14h02.20.602,vts_reward_expectancy_bt_OFFLINE,2022.2.4,59.94994940911568,
0,0,0,1,1,0,0,0,star,triangle,1,0,1,0,3,8,44,9,,,,,,,,,,,,,,,,,,,,,,,,,,,,,,,,,,,,,,,,394.53225944703445,394.53225944703445,394.53225944703445,394.53225944703445,394.53225944703445,394.53225944703445,394.53225944703445,394.53225944703445,394.53225944703445,394.53225944703445,a,0.658380248118192,10,579,1,395.22020740713924,396.7353379870765,,,,,,,,,,,,,,,,,,,,,,,,,,,,,,,,,,,,,,,,,,,,,,,,,,,,,,,,,,,,,,,,,,,,,,,,,,16771,2022-12-01_14h02.20.602,vts_reward_expectancy_bt_OFFLINE,2022.2.4,59.94994940911568,
0,0,0,1,0,0,1,0,star,hexagon,1,0,1,0,3,9,45,11,,,,,,,,,,,,,,,,,,,,,,,,,,,,,,,,,,,,,,,,397.23520672135055,397.23520672135055,397.23520672135055,397.23520672135055,397.23520672135055,397.23520672135055,397.23520672135055,397.23520672135055,397.23520672135055,397.23520672135055,a,0.9929607757367194,10,589,1,398.25311444932595,399.75481769721955,,,,,,,,,,,,,,,,,,,,,,,,,,,,,,,,,,,,,,,,,,,,,,,,,,,,,,,,,,,,,,,,,,,,,,,,,,16771,2022-12-01_14h02.20.602,vts_reward_expectancy_bt_OFFLINE,2022.2.4,59.94994940911568,
0,1,0,0,0,0,1,0,circle,hexagon,1,0,1,0,3,10,46,4,,,,,,,,,,,,,,,,,,,,,,,,,,,,,,,,,,,,,,,,400.2549838712439,400.2549838712439,400.2549838712439,400.2549838712439,400.2549838712439,400.2549838712439,400.2549838712439,400.2549838712439,400.2549838712439,400.2549838712439,a,1.3361511309631169,10,599,1,401.6221245280467,403.1222576862201,403.1222576862201,403.62277417536825,,,,,,,,,,,,,,,,,,,,,,,,,,,,,,,,,,,,,,,,,,,,,,,,,,,,,,,,,,,,,,,,,,,,,,,,16771,2022-12-01_14h02.20.602,vts_reward_expectancy_bt_OFFLINE,2022.2.4,59.94994940911568,
0,1,0,0,0,0,0,1,circle,star,1,0,1,0,3,11,47,5,,,,,,,,,,,,,,,,,,,,,,,,,,,,,,,,,,,,,,,,403.62277417536825,403.62277417536825,403.62277417536825,403.62277417536825,403.62277417536825,403.62277417536825,403.62277417536825,403.62277417536825,403.62277417536825,403.62277417536825,l,7.588751245755702,1,600,1,411.2315613874234,412.74622858921066,,,,,,,,,,,,,,,,,,,,,,,,,,,,,,,,,,,,,,,,,,,,,,,,,,,,,,,,,,,,,,,,,,,,,,,,,,16771,2022-12-01_14h02.20.602,vts_reward_expectancy_bt_OFFLINE,2022.2.4,59.94994940911568,
1,0,0,0,0,0,0,1,triangle,star,2,0,2,0,0,0,0,2,,,,,,,,,,,,,,,,,,,,,,,,,,,,,,,,,,,,,,,,499.3207112760283,499.3207112760283,499.3207112760283,499.3207112760283,499.3207112760283,499.3207112760283,499.3207112760283,499.3207112760283,499.3207112760283,499.3207112760283,l,2.3561647329479456,10,610,2,501.69737974042073,503.2122141942382,,,,,,,,,,,,,,,,,,,,,,,,,,,,,,,,,,,,,,,,,,,,,,,,,,,,,,,,,,,,,,,,,,,,,,,,,,16771,2022-12-01_14h02.20.602,vts_reward_expectancy_bt_OFFLINE,2022.2.4,59.94994940911568,
0,0,1,0,0,0,0,1,hexagon,star,2,0,2,0,0,1,1,8,,,,,,,,,,,,,,,,,,,,,,,,,,,,,,,,,,,,,,,,503.7119761183858,503.7119761183858,503.7119761183858,503.7119761183858,503.7119761183858,503.7119761183858,503.7119761183858,503.7119761183858,503.7119761183858,503.7119761183858,l,0.45148626854643226,10,620,2,504.19556551333517,505.6979978652671,505.6979978652671,506.19846336822957,,,,,,,,,,,,,,,,,,,,,,,,,,,,,,,,,,,,,,,,,,,,,,,,,,,,,,,,,,,,,,,,,,,,,,,,16771,2022-12-01_14h02.20.602,vts_reward_expectancy_bt_OFFLINE,2022.2.4,59.94994940911568,
0,1,0,0,0,0,0,1,circle,star,2,0,2,0,0,2,2,5,,,,,,,,,,,,,,,,,,,,,,,,,,,,,,,,,,,,,,,,506.19846336822957,506.19846336822957,506.19846336822957,506.19846336822957,506.19846336822957,506.19846336822957,506.19846336822957,506.19846336822957,506.19846336822957,506.19846336822957,l,0.49530681455507874,10,630,2,506.7159900274128,508.21536401612684,508.21536401612684,,,,,,,,,,,,,,,,,,,,,,,,,,,,,,,,,,,,,,,,,,,,,,,,,,,,,,,,,,,,,,,,,,,,,,,,,16771,2022-12-01_14h02.20.602,vts_reward_expectancy_bt_OFFLINE,2022.2.4,59.94994940911568,
0,0,1,0,1,0,0,0,hexagon,triangle,2,0,2,0,0,3,3,6,,,,,,,,,,,,,,,,,,,,,,,,,,,,,,,,,,,,,,,,508.71553840022534,508.71553840022534,508.71553840022534,508.71553840022534,508.71553840022534,508.71553840022534,508.71553840022534,508.71553840022534,508.71553840022534,508.71553840022534,a,1.342293264809996,10,640,2,510.0855432190001,511.5853221602738,511.5853221602738,512.0855845063925,,,,,,,,,,,,,,,,,,,,,,,,,,,,,,,,,,,,,,,,,,,,,,,,,,,,,,,,,,,,,,,,,,,,,,,,16771,2022-12-01_14h02.20.602,vts_reward_expectancy_bt_OFFLINE,2022.2.4,59.94994940911568,
0,0,1,0,0,1,0,0,hexagon,circle,2,0,2,0,0,4,4,7,,,,,,,,,,,,,,,,,,,,,,,,,,,,,,,,,,,,,,,,512.0855845063925,512.0855845063925,512.0855845063925,512.0855845063925,512.0855845063925,512.0855845063925,512.0855845063925,512.0855845063925,512.0855845063925,512.0855845063925,l,0.9312630938366055,1,641,2,513.0503027210943,514.5531763993204,,,,,,,,,,,,,,,,,,,,,,,,,,,,,,,,,,,,,,,,,,,,,,,,,,,,,,,,,,,,,,,,,,,,,,,,,,16771,2022-12-01_14h02.20.602,vts_reward_expectancy_bt_OFFLINE,2022.2.4,59.94994940911568,
1,0,0,0,0,1,0,0,triangle,circle,2,0,2,0,0,5,5,0,,,,,,,,,,,,,,,,,,,,,,,,,,,,,,,,,,,,,,,,515.0383491180837,515.0383491180837,515.0383491180837,515.0383491180837,515.0383491180837,515.0383491180837,515.0383491180837,515.0383491180837,515.0383491180837,515.0383491180837,l,3.8847182798199356,10,651,2,518.9429665934294,520.4421857870184,,,,,,,,,,,,,,,,,,,,,,,,,,,,,,,,,,,,,,,,,,,,,,,,,,,,,,,,,,,,,,,,,,,,,,,,,,16771,2022-12-01_14h02.20.602,vts_reward_expectancy_bt_OFFLINE,2022.2.4,59.94994940911568,
0,0,0,1,0,1,0,0,star ,circle,2,0,2,0,0,6,6,10,,,,,,,,,,,,,,,,,,,,,,,,,,,,,,,,,,,,,,,,520.9421689580195,520.9421689580195,520.9421689580195,520.9421689580195,520.9421689580195,520.9421689580195,520.9421689580195,520.9421689580195,520.9421689580195,520.9421689580195,a,0.963319995906204,10,661,2,521.9270011782646,523.426448806189,523.426448806189,523.9266376430169,,,,,,,,,,,,,,,,,,,,,,,,,,,,,,,,,,,,,,,,,,,,,,,,,,,,,,,,,,,,,,,,,,,,,,,,16771,2022-12-01_14h02.20.602,vts_reward_expectancy_bt_OFFLINE,2022.2.4,59.94994940911568,
0,1,0,0,1,0,0,0,circle,triangle,2,0,2,0,0,7,7,3,,,,,,,,,,,,,,,,,,,,,,,,,,,,,,,,,,,,,,,,523.9266376430169,523.9266376430169,523.9266376430169,523.9266376430169,523.9266376430169,523.9266376430169,523.9266376430169,523.9266376430169,523.9266376430169,523.9266376430169,a,1.7358635198324919,10,671,2,525.6810472202487,527.1966969561763,,,,,,,,,,,,,,,,,,,,,,,,,,,,,,,,,,,,,,,,,,,,,,,,,,,,,,,,,,,,,,,,,,,,,,,,,,16771,2022-12-01_14h02.20.602,vts_reward_expectancy_bt_OFFLINE,2022.2.4,59.94994940911568,
1,0,0,0,0,0,1,0,triangle,hexagon,2,0,2,0,0,8,8,1,,,,,,,,,,,,,,,,,,,,,,,,,,,,,,,,,,,,,,,,527.6963011743501,527.6963011743501,527.6963011743501,527.6963011743501,527.6963011743501,527.6963011743501,527.6963011743501,527.6963011743501,527.6963011743501,527.6963011743501,l,0.8583764359354973,1,672,2,528.5830148314126,530.0824545742944,,,,,,,,,,,,,,,,,,,,,,,,,,,,,,,,,,,,,,,,,,,,,,,,,,,,,,,,,,,,,,,,,,,,,,,,,,16771,2022-12-01_14h02.20.602,vts_reward_expectancy_bt_OFFLINE,2022.2.4,59.94994940911568,
0,0,0,1,1,0,0,0,star,triangle,2,0,2,0,0,9,9,9,,,,,,,,,,,,,,,,,,,,,,,,,,,,,,,,,,,,,,,,530.5827453993261,530.5827453993261,530.5827453993261,530.5827453993261,530.5827453993261,530.5827453993261,530.5827453993261,530.5827453993261,530.5827453993261,530.5827453993261,a,0.5589289949275553,10,682,2,531.1693324632943,532.6835568863899,,,,,,,,,,,,,,,,,,,,,,,,,,,,,,,,,,,,,,,,,,,,,,,,,,,,,,,,,,,,,,,,,,,,,,,,,,16771,2022-12-01_14h02.20.602,vts_reward_expectancy_bt_OFFLINE,2022.2.4,59.94994940911568,
0,1,0,0,0,0,1,0,circle,hexagon,2,0,2,0,0,10,10,4,,,,,,,,,,,,,,,,,,,,,,,,,,,,,,,,,,,,,,,,533.1837476780638,533.1837476780638,533.1837476780638,533.1837476780638,533.1837476780638,533.1837476780638,533.1837476780638,533.1837476780638,533.1837476780638,533.1837476780638,a,2.2671138858422637,10,692,2,535.4707980570383,536.9701433209702,536.9701433209702,537.4703345382586,,,,,,,,,,,,,,,,,,,,,,,,,,,,,,,,,,,,,,,,,,,,,,,,,,,,,,,,,,,,,,,,,,,,,,,,16771,2022-12-01_14h02.20.602,vts_reward_expectancy_bt_OFFLINE,2022.2.4,59.94994940911568,
0,0,0,1,0,0,1,0,star,hexagon,2,0,2,0,0,11,11,11,,,,,,,,,,,,,,,,,,,,,,,,,,,,,,,,,,,,,,,,537.4703345382586,537.4703345382586,537.4703345382586,537.4703345382586,537.4703345382586,537.4703345382586,537.4703345382586,537.4703345382586,537.4703345382586,537.4703345382586,a,0.9388299668207765,10,702,2,538.4383608750068,539.9396161781624,,,,,,,,,,,,,,,,,,,,,,,,,,,,,,,,,,,,,,,,,,,,,,,,,,,,,,,,,,,,,,,,,,,,,,,,,,16771,2022-12-01_14h02.20.602,vts_reward_expectancy_bt_OFFLINE,2022.2.4,59.94994940911568,
1,0,0,0,0,0,0,1,triangle,star,2,0,2,0,1,0,12,2,,,,,,,,,,,,,,,,,,,,,,,,,,,,,,,,,,,,,,,,540.4399423440918,540.4399423440918,540.4399423440918,540.4399423440918,540.4399423440918,540.4399423440918,540.4399423440918,540.4399423440918,540.4399423440918,540.4399423440918,l,0.850185526534915,10,712,2,541.3082764623687,542.8073799270205,542.8073799270205,543.3076651152223,,,,,,,,,,,,,,,,,,,,,,,,,,,,,,,,,,,,,,,,,,,,,,,,,,,,,,,,,,,,,,,,,,,,,,,,16771,2022-12-01_14h02.20.602,vts_reward_expectancy_bt_OFFLINE,2022.2.4,59.94994940911568,
0,1,0,0,0,0,0,1,circle,star,2,0,2,0,1,1,13,5,,,,,,,,,,,,,,,,,,,,,,,,,,,,,,,,,,,,,,,,543.3076651152223,543.3076651152223,543.3076651152223,543.3076651152223,543.3076651152223,543.3076651152223,543.3076651152223,543.3076651152223,543.3076651152223,543.3076651152223,l,2.1331359930336475,10,722,2,545.4610320273787,546.9609094033949,546.9609094033949,547.4609397193417,,,,,,,,,,,,,,,,,,,,,,,,,,,,,,,,,,,,,,,,,,,,,,,,,,,,,,,,,,,,,,,,,,,,,,,,16771,2022-12-01_14h02.20.602,vts_reward_expectancy_bt_OFFLINE,2022.2.4,59.94994940911568,
0,0,1,0,1,0,0,0,hexagon,triangle,2,0,2,0,1,2,14,6,,,,,,,,,,,,,,,,,,,,,,,,,,,,,,,,,,,,,,,,547.4609397193417,547.4609397193417,547.4609397193417,547.4609397193417,547.4609397193417,547.4609397193417,547.4609397193417,547.4609397193417,547.4609397193417,547.4609397193417,a,3.661258245818317,1,723,2,551.1504529840313,552.6647730320692,,,,,,,,,,,,,,,,,,,,,,,,,,,,,,,,,,,,,,,,,,,,,,,,,,,,,,,,,,,,,,,,,,,,,,,,,,16771,2022-12-01_14h02.20.602,vts_reward_expectancy_bt_OFFLINE,2022.2.4,59.94994940911568,
0,0,1,0,0,0,0,1,hexagon,star,2,0,2,0,1,3,15,8,,,,,,,,,,,,,,,,,,,,,,,,,,,,,,,,,,,,,,,,553.1648912383243,553.1648912383243,553.1648912383243,553.1648912383243,553.1648912383243,553.1648912383243,553.1648912383243,553.1648912383243,553.1648912383243,553.1648912383243,l,0.613090009894222,10,733,2,553.8018166720867,555.300734215416,,,,,,,,,,,,,,,,,,,,,,,,,,,,,,,,,,,,,,,,,,,,,,,,,,,,,,,,,,,,,,,,,,,,,,,,,,16771,2022-12-01_14h02.20.602,vts_reward_expectancy_bt_OFFLINE,2022.2.4,59.94994940911568,
0,0,0,1,0,1,0,0,star ,circle,2,0,2,0,1,4,16,10,,,,,,,,,,,,,,,,,,,,,,,,,,,,,,,,,,,,,,,,555.8010499309748,555.8010499309748,555.8010499309748,555.8010499309748,555.8010499309748,555.8010499309748,555.8010499309748,555.8010499309748,555.8010499309748,555.8010499309748,a,18.01348162489012,10,743,2,573.8473069854081,575.3486139019951,575.3486139019951,575.8488852879964,,,,,,,,,,,,,,,,,,,,,,,,,,,,,,,,,,,,,,,,,,,,,,,,,,,,,,,,,,,,,,,,,,,,,,,,16771,2022-12-01_14h02.20.602,vts_reward_expectancy_bt_OFFLINE,2022.2.4,59.94994940911568,
1,0,0,0,0,0,1,0,triangle,hexagon,2,0,2,0,1,5,17,1,,,,,,,,,,,,,,,,,,,,,,,,,,,,,,,,,,,,,,,,575.8488852879964,575.8488852879964,575.8488852879964,575.8488852879964,575.8488852879964,575.8488852879964,575.8488852879964,575.8488852879964,575.8488852879964,575.8488852879964,a,6.437535816803575,10,753,2,582.3043731600046,583.8035448282026,583.8035448282026,584.3038322404027,,,,,,,,,,,,,,,,,,,,,,,,,,,,,,,,,,,,,,,,,,,,,,,,,,,,,,,,,,,,,,,,,,,,,,,,16771,2022-12-01_14h02.20.602,vts_reward_expectancy_bt_OFFLINE,2022.2.4,59.94994940911568,
0,0,0,1,0,0,1,0,star,hexagon,2,0,2,0,1,6,18,11,,,,,,,,,,,,,,,,,,,,,,,,,,,,,,,,,,,,,,,,584.3038322404027,584.3038322404027,584.3038322404027,584.3038322404027,584.3038322404027,584.3038322404027,584.3038322404027,584.3038322404027,584.3038322404027,584.3038322404027,a,0.469474324490875,10,763,2,584.8017077092081,586.3066104091704,,,,,,,,,,,,,,,,,,,,,,,,,,,,,,,,,,,,,,,,,,,,,,,,,,,,,,,,,,,,,,,,,,,,,,,,,,16771,2022-12-01_14h02.20.602,vts_reward_expectancy_bt_OFFLINE,2022.2.4,59.94994940911568,
0,1,0,0,1,0,0,0,circle,triangle,2,0,2,0,1,7,19,3,,,,,,,,,,,,,,,,,,,,,,,,,,,,,,,,,,,,,,,,586.8065044041723,586.8065044041723,586.8065044041723,586.8065044041723,586.8065044041723,586.8065044041723,586.8065044041723,586.8065044041723,586.8065044041723,586.8065044041723,l,1.5439009037800133,1,764,2,588.3882555263117,589.8762219641358,,,,,,,,,,,,,,,,,,,,,,,,,,,,,,,,,,,,,,,,,,,,,,,,,,,,,,,,,,,,,,,,,,,,,,,,,,16771,2022-12-01_14h02.20.602,vts_reward_expectancy_bt_OFFLINE,2022.2.4,59.94994940911568,
0,0,0,1,1,0,0,0,star,triangle,2,0,2,0,1,8,20,9,,,,,,,,,,,,,,,,,,,,,,,,,,,,,,,,,,,,,,,,590.376459163148,590.376459163148,590.376459163148,590.376459163148,590.376459163148,590.376459163148,590.376459163148,590.376459163148,590.376459163148,590.376459163148,a,1.1013801996596158,10,774,2,591.5123557620682,593.0271273162216,,,,,,,,,,,,,,,,,,,,,,,,,,,,,,,,,,,,,,,,,,,,,,,,,,,,,,,,,,,,,,,,,,,,,,,,,,16771,2022-12-01_14h02.20.602,vts_reward_expectancy_bt_OFFLINE,2022.2.4,59.94994940911568,
0,1,0,0,0,0,1,0,circle,hexagon,2,0,2,0,1,9,21,4,,,,,,,,,,,,,,,,,,,,,,,,,,,,,,,,,,,,,,,,593.527351854369,593.527351854369,593.527351854369,593.527351854369,593.527351854369,593.527351854369,593.527351854369,593.527351854369,593.527351854369,593.527351854369,a,0.5493373977951705,10,784,2,594.0954587371089,595.5966984932311,,,,,,,,,,,,,,,,,,,,,,,,,,,,,,,,,,,,,,,,,,,,,,,,,,,,,,,,,,,,,,,,,,,,,,,,,,16771,2022-12-01_14h02.20.602,vts_reward_expectancy_bt_OFFLINE,2022.2.4,59.94994940911568,
0,0,1,0,0,1,0,0,hexagon,circle,2,0,2,0,1,10,22,7,,,,,,,,,,,,,,,,,,,,,,,,,,,,,,,,,,,,,,,,596.0968718240038,596.0968718240038,596.0968718240038,596.0968718240038,596.0968718240038,596.0968718240038,596.0968718240038,596.0968718240038,596.0968718240038,596.0968718240038,l,1.2099461876787245,10,794,2,597.3318592230789,598.8314673993737,598.8314673993737,599.3308673850261,,,,,,,,,,,,,,,,,,,,,,,,,,,,,,,,,,,,,,,,,,,,,,,,,,,,,,,,,,,,,,,,,,,,,,,,16771,2022-12-01_14h02.20.602,vts_reward_expectancy_bt_OFFLINE,2022.2.4,59.94994940911568,
1,0,0,0,0,1,0,0,triangle,circle,2,0,2,0,1,11,23,0,,,,,,,,,,,,,,,,,,,,,,,,,,,,,,,,,,,,,,,,599.3308673850261,599.3308673850261,599.3308673850261,599.3308673850261,599.3308673850261,599.3308673850261,599.3308673850261,599.3308673850261,599.3308673850261,599.3308673850261,a,0.5853449879214168,10,804,2,599.934540156275,601.4338294900954,601.4338294900954,601.9340982101858,,,,,,,,,,,,,,,,,,,,,,,,,,,,,,,,,,,,,,,,,,,,,,,,,,,,,,,,,,,,,,,,,,,,,,,,16771,2022-12-01_14h02.20.602,vts_reward_expectancy_bt_OFFLINE,2022.2.4,59.94994940911568,
0,0,0,1,0,0,1,0,star,hexagon,2,0,2,0,2,0,24,11,,,,,,,,,,,,,,,,,,,,,,,,,,,,,,,,,,,,,,,,601.9340982101858,601.9340982101858,601.9340982101858,601.9340982101858,601.9340982101858,601.9340982101858,601.9340982101858,601.9340982101858,601.9340982101858,601.9340982101858,l,0.3556605321355164,1,805,2,602.3204636331648,603.8350726882927,,,,,,,,,,,,,,,,,,,,,,,,,,,,,,,,,,,,,,,,,,,,,,,,,,,,,,,,,,,,,,,,,,,,,,,,,,16771,2022-12-01_14h02.20.602,vts_reward_expectancy_bt_OFFLINE,2022.2.4,59.94994940911568,
0,0,0,1,0,1,0,0,star ,circle,2,0,2,0,2,1,25,10,,,,,,,,,,,,,,,,,,,,,,,,,,,,,,,,,,,,,,,,604.3182644620538,604.3182644620538,604.3182644620538,604.3182644620538,604.3182644620538,604.3182644620538,604.3182644620538,604.3182644620538,604.3182644620538,604.3182644620538,a,0.5029943846166134,1,806,2,604.8426803443581,606.3542407630011,,,,,,,,,,,,,,,,,,,,,,,,,,,,,,,,,,,,,,,,,,,,,,,,,,,,,,,,,,,,,,,,,,,,,,,,,,16771,2022-12-01_14h02.20.602,vts_reward_expectancy_bt_OFFLINE,2022.2.4,59.94994940911568,
0,0,1,0,0,1,0,0,hexagon,circle,2,0,2,0,2,2,26,7,,,,,,,,,,,,,,,,,,,,,,,,,,,,,,,,,,,,,,,,606.8543790234253,606.8543790234253,606.8543790234253,606.8543790234253,606.8543790234253,606.8543790234253,606.8543790234253,606.8543790234253,606.8543790234253,606.8543790234253,l,1.1631274549290538,10,816,2,608.0412925980054,609.555536264088,,,,,,,,,,,,,,,,,,,,,,,,,,,,,,,,,,,,,,,,,,,,,,,,,,,,,,,,,,,,,,,,,,,,,,,,,,16771,2022-12-01_14h02.20.602,vts_reward_expectancy_bt_OFFLINE,2022.2.4,59.94994940911568,
0,1,0,0,0,0,0,1,circle,star,2,0,2,0,2,3,27,5,,,,,,,,,,,,,,,,,,,,,,,,,,,,,,,,,,,,,,,,610.0407347092405,610.0407347092405,610.0407347092405,610.0407347092405,610.0407347092405,610.0407347092405,610.0407347092405,610.0407347092405,610.0407347092405,610.0407347092405,l,0.59746212977916,10,826,2,610.6585714761168,612.1582484929822,612.1582484929822,612.6582985711284,,,,,,,,,,,,,,,,,,,,,,,,,,,,,,,,,,,,,,,,,,,,,,,,,,,,,,,,,,,,,,,,,,,,,,,,16771,2022-12-01_14h02.20.602,vts_reward_expectancy_bt_OFFLINE,2022.2.4,59.94994940911568,
1,0,0,0,0,1,0,0,triangle,circle,2,0,2,0,2,4,28,0,,,,,,,,,,,,,,,,,,,,,,,,,,,,,,,,,,,,,,,,612.6582985711284,612.6582985711284,612.6582985711284,612.6582985711284,612.6582985711284,612.6582985711284,612.6582985711284,612.6582985711284,612.6582985711284,612.6582985711284,a,3.6170059787109494,1,827,2,616.2979296273552,617.8119551590644,,,,,,,,,,,,,,,,,,,,,,,,,,,,,,,,,,,,,,,,,,,,,,,,,,,,,,,,,,,,,,,,,,,,,,,,,,16771,2022-12-01_14h02.20.602,vts_reward_expectancy_bt_OFFLINE,2022.2.4,59.94994940911568,
1,0,0,0,0,0,0,1,triangle,star,2,0,2,0,2,5,29,2,,,,,,,,,,,,,,,,,,,,,,,,,,,,,,,,,,,,,,,,618.312025193125,618.312025193125,618.312025193125,618.312025193125,618.312025193125,618.312025193125,618.312025193125,618.312025193125,618.312025193125,618.312025193125,l,0.8758546398021281,1,828,2,619.2134743500501,620.7150376960635,,,,,,,,,,,,,,,,,,,,,,,,,,,,,,,,,,,,,,,,,,,,,,,,,,,,,,,,,,,,,,,,,,,,,,,,,,16771,2022-12-01_14h02.20.602,vts_reward_expectancy_bt_OFFLINE,2022.2.4,59.94994940911568,
0,1,0,0,1,0,0,0,circle,triangle,2,0,2,0,2,6,30,3,,,,,,,,,,,,,,,,,,,,,,,,,,,,,,,,,,,,,,,,621.2150349472649,621.2150349472649,621.2150349472649,621.2150349472649,621.2150349472649,621.2150349472649,621.2150349472649,621.2150349472649,621.2150349472649,621.2150349472649,l,106.47349014878273,1,829,2,727.7101733861491,729.2092587812804,729.2092587812804,729.7092439453118,,,,,,,,,,,,,,,,,,,,,,,,,,,,,,,,,,,,,,,,,,,,,,,,,,,,,,,,,,,,,,,,,,,,,,,,16771,2022-12-01_14h02.20.602,vts_reward_expectancy_bt_OFFLINE,2022.2.4,59.94994940911568,
0,0,0,1,1,0,0,0,star,triangle,2,0,2,0,2,7,31,9,,,,,,,,,,,,,,,,,,,,,,,,,,,,,,,,,,,,,,,,729.7092439453118,729.7092439453118,729.7092439453118,729.7092439453118,729.7092439453118,729.7092439453118,729.7092439453118,729.7092439453118,729.7092439453118,729.7092439453118,a,1.039186046924442,1,830,2,730.779394374229,732.2788000111468,732.2788000111468,732.7789131794125,,,,,,,,,,,,,,,,,,,,,,,,,,,,,,,,,,,,,,,,,,,,,,,,,,,,,,,,,,,,,,,,,,,,,,,,16771,2022-12-01_14h02.20.602,vts_reward_expectancy_bt_OFFLINE,2022.2.4,59.94994940911568,
0,0,1,0,1,0,0,0,hexagon,triangle,2,0,2,0,2,8,32,6,,,,,,,,,,,,,,,,,,,,,,,,,,,,,,,,,,,,,,,,732.7789131794125,732.7789131794125,732.7789131794125,732.7789131794125,732.7789131794125,732.7789131794125,732.7789131794125,732.7789131794125,732.7789131794125,732.7789131794125,a,1.0082616661675274,1,831,2,733.813999469392,735.3148008431308,,,,,,,,,,,,,,,,,,,,,,,,,,,,,,,,,,,,,,,,,,,,,,,,,,,,,,,,,,,,,,,,,,,,,,,,,,16771,2022-12-01_14h02.20.602,vts_reward_expectancy_bt_OFFLINE,2022.2.4,59.94994940911568,
1,0,0,0,0,0,1,0,triangle,hexagon,2,0,2,0,2,9,33,1,,,,,,,,,,,,,,,,,,,,,,,,,,,,,,,,,,,,,,,,735.8152414220385,735.8152414220385,735.8152414220385,735.8152414220385,735.8152414220385,735.8152414220385,735.8152414220385,735.8152414220385,735.8152414220385,735.8152414220385,l,2.403474373742938,1,832,2,738.2507641641423,739.7497171070427,739.7497171070427,,,,,,,,,,,,,,,,,,,,,,,,,,,,,,,,,,,,,,,,,,,,,,,,,,,,,,,,,,,,,,,,,,,,,,,,,16771,2022-12-01_14h02.20.602,vts_reward_expectancy_bt_OFFLINE,2022.2.4,59.94994940911568,
0,0,1,0,0,0,0,1,hexagon,star,2,0,2,0,2,10,34,8,,,,,,,,,,,,,,,,,,,,,,,,,,,,,,,,,,,,,,,,740.2518210951239,740.2518210951239,740.2518210951239,740.2518210951239,740.2518210951239,740.2518210951239,740.2518210951239,740.2518210951239,740.2518210951239,740.2518210951239,l,0.43100306671112776,10,842,2,740.7055925852619,742.2192556052469,,,,,,,,,,,,,,,,,,,,,,,,,,,,,,,,,,,,,,,,,,,,,,,,,,,,,,,,,,,,,,,,,,,,,,,,,,16771,2022-12-01_14h02.20.602,vts_reward_expectancy_bt_OFFLINE,2022.2.4,59.94994940911568,
0,1,0,0,0,0,1,0,circle,hexagon,2,0,2,0,2,11,35,4,,,,,,,,,,,,,,,,,,,,,,,,,,,,,,,,,,,,,,,,742.7194648422301,742.7194648422301,742.7194648422301,742.7194648422301,742.7194648422301,742.7194648422301,742.7194648422301,742.7194648422301,742.7194648422301,742.7194648422301,a,1.1702477848157287,10,852,2,743.9210552033037,745.4223390989937,,,,,,,,,,,,,,,,,,,,,,,,,,,,,,,,,,,,,,,,,,,,,,,,,,,,,,,,,,,,,,,,,,,,,,,,,,16771,2022-12-01_14h02.20.602,vts_reward_expectancy_bt_OFFLINE,2022.2.4,59.94994940911568,
0,1,0,0,0,0,1,0,circle,hexagon,2,0,2,0,3,0,36,4,,,,,,,,,,,,,,,,,,,,,,,,,,,,,,,,,,,,,,,,745.922463461291,745.922463461291,745.922463461291,745.922463461291,745.922463461291,745.922463461291,745.922463461291,745.922463461291,745.922463461291,745.922463461291,a,0.8130760956555605,1,853,2,746.7595949531533,748.2732169930823,,,,,,,,,,,,,,,,,,,,,,,,,,,,,,,,,,,,,,,,,,,,,,,,,,,,,,,,,,,,,,,,,,,,,,,,,,16771,2022-12-01_14h02.20.602,vts_reward_expectancy_bt_OFFLINE,2022.2.4,59.94994940911568,
0,0,0,1,1,0,0,0,star,triangle,2,0,2,0,3,1,37,9,,,,,,,,,,,,,,,,,,,,,,,,,,,,,,,,,,,,,,,,748.756737114396,748.756737114396,748.756737114396,748.756737114396,748.756737114396,748.756737114396,748.756737114396,748.756737114396,748.756737114396,748.756737114396,a,0.432469570543617,10,863,2,749.2101271580905,750.7093465751968,,,,,,,,,,,,,,,,,,,,,,,,,,,,,,,,,,,,,,,,,,,,,,,,,,,,,,,,,,,,,,,,,,,,,,,,,,16771,2022-12-01_14h02.20.602,vts_reward_expectancy_bt_OFFLINE,2022.2.4,59.94994940911568,
0,0,1,0,1,0,0,0,hexagon,triangle,2,0,2,0,3,2,38,6,,,,,,,,,,,,,,,,,,,,,,,,,,,,,,,,,,,,,,,,751.209617451299,751.209617451299,751.209617451299,751.209617451299,751.209617451299,751.209617451299,751.209617451299,751.209617451299,751.209617451299,751.209617451299,a,1.1400602613575757,1,864,2,752.3796600094065,753.8939041220583,,,,,,,,,,,,,,,,,,,,,,,,,,,,,,,,,,,,,,,,,,,,,,,,,,,,,,,,,,,,,,,,,,,,,,,,,,16771,2022-12-01_14h02.20.602,vts_reward_expectancy_bt_OFFLINE,2022.2.4,59.94994940911568,
1,0,0,0,0,0,0,1,triangle,star,2,0,2,0,3,3,39,2,,,,,,,,,,,,,,,,,,,,,,,,,,,,,,,,,,,,,,,,754.3771951501258,754.3771951501258,754.3771951501258,754.3771951501258,754.3771951501258,754.3771951501258,754.3771951501258,754.3771951501258,754.3771951501258,754.3771951501258,l,2.6643715114332736,10,874,2,757.0667228950188,758.580705284141,,,,,,,,,,,,,,,,,,,,,,,,,,,,,,,,,,,,,,,,,,,,,,,,,,,,,,,,,,,,,,,,,,,,,,,,,,16771,2022-12-01_14h02.20.602,vts_reward_expectancy_bt_OFFLINE,2022.2.4,59.94994940911568,
0,1,0,0,1,0,0,0,circle,triangle,2,0,2,0,3,4,40,3,,,,,,,,,,,,,,,,,,,,,,,,,,,,,,,,,,,,,,,,759.0640769209713,759.0640769209713,759.0640769209713,759.0640769209713,759.0640769209713,759.0640769209713,759.0640769209713,759.0640769209713,759.0640769209713,759.0640769209713,a,0.9248961769044399,10,884,2,760.0176730831154,761.5171105670743,761.5171105670743,762.0171145820059,,,,,,,,,,,,,,,,,,,,,,,,,,,,,,,,,,,,,,,,,,,,,,,,,,,,,,,,,,,,,,,,,,,,,,,,16771,2022-12-01_14h02.20.602,vts_reward_expectancy_bt_OFFLINE,2022.2.4,59.94994940911568,
0,0,0,1,0,1,0,0,star ,circle,2,0,2,0,3,5,41,10,,,,,,,,,,,,,,,,,,,,,,,,,,,,,,,,,,,,,,,,762.0171145820059,762.0171145820059,762.0171145820059,762.0171145820059,762.0171145820059,762.0171145820059,762.0171145820059,762.0171145820059,762.0171145820059,762.0171145820059,a,1.0542230177670717,10,894,2,763.1023349543102,764.618170616217,,,,,,,,,,,,,,,,,,,,,,,,,,,,,,,,,,,,,,,,,,,,,,,,,,,,,,,,,,,,,,,,,,,,,,,,,,16771,2022-12-01_14h02.20.602,vts_reward_expectancy_bt_OFFLINE,2022.2.4,59.94994940911568,
0,1,0,0,0,0,0,1,circle,star,2,0,2,0,3,6,42,5,,,,,,,,,,,,,,,,,,,,,,,,,,,,,,,,,,,,,,,,765.1032559843734,765.1032559843734,765.1032559843734,765.1032559843734,765.1032559843734,765.1032559843734,765.1032559843734,765.1032559843734,765.1032559843734,765.1032559843734,l,0.99486616672948,1,895,2,766.1237418041565,767.6377499611117,,,,,,,,,,,,,,,,,,,,,,,,,,,,,,,,,,,,,,,,,,,,,,,,,,,,,,,,,,,,,,,,,,,,,,,,,,16771,2022-12-01_14h02.20.602,vts_reward_expectancy_bt_OFFLINE,2022.2.4,59.94994940911568,
0,0,0,1,0,0,1,0,star,hexagon,2,0,2,0,3,7,43,11,,,,,,,,,,,,,,,,,,,,,,,,,,,,,,,,,,,,,,,,768.137636856176,768.137636856176,768.137636856176,768.137636856176,768.137636856176,768.137636856176,768.137636856176,768.137636856176,768.137636856176,768.137636856176,a,1.81998668378219,1,896,2,769.9768127840944,771.4906815853901,,,,,,,,,,,,,,,,,,,,,,,,,,,,,,,,,,,,,,,,,,,,,,,,,,,,,,,,,,,,,,,,,,,,,,,,,,16771,2022-12-01_14h02.20.602,vts_reward_expectancy_bt_OFFLINE,2022.2.4,59.94994940911568,
0,0,1,0,0,0,0,1,hexagon,star,2,0,2,0,3,8,44,8,,,,,,,,,,,,,,,,,,,,,,,,,,,,,,,,,,,,,,,,771.9910839181393,771.9910839181393,771.9910839181393,771.9910839181393,771.9910839181393,771.9910839181393,771.9910839181393,771.9910839181393,771.9910839181393,771.9910839181393,a,0.05900635709986091,1,897,2,772.0759361912496,773.5917491773143,,,,,,,,,,,,,,,,,,,,,,,,,,,,,,,,,,,,,,,,,,,,,,,,,,,,,,,,,,,,,,,,,,,,,,,,,,16771,2022-12-01_14h02.20.602,vts_reward_expectancy_bt_OFFLINE,2022.2.4,59.94994940911568,
1,0,0,0,0,1,0,0,triangle,circle,2,0,2,0,3,9,45,0,,,,,,,,,,,,,,,,,,,,,,,,,,,,,,,,,,,,,,,,774.0915553993545,774.0915553993545,774.0915553993545,774.0915553993545,774.0915553993545,774.0915553993545,774.0915553993545,774.0915553993545,774.0915553993545,774.0915553993545,l,1.5927325556986034,10,907,2,775.7142154150642,777.2280216761865,,,,,,,,,,,,,,,,,,,,,,,,,,,,,,,,,,,,,,,,,,,,,,,,,,,,,,,,,,,,,,,,,,,,,,,,,,16771,2022-12-01_14h02.20.602,vts_reward_expectancy_bt_OFFLINE,2022.2.4,59.94994940911568,
1,0,0,0,0,0,1,0,triangle,hexagon,2,0,2,0,3,10,46,1,,,,,,,,,,,,,,,,,,,,,,,,,,,,,,,,,,,,,,,,777.7282984233461,777.7282984233461,777.7282984233461,777.7282984233461,777.7282984233461,777.7282984233461,777.7282984233461,777.7282984233461,777.7282984233461,777.7282984233461,a,2.1176706519909203,1,908,2,779.8813813952729,781.3813952491619,781.3813952491619,781.8817109069787,,,,,,,,,,,,,,,,,,,,,,,,,,,,,,,,,,,,,,,,,,,,,,,,,,,,,,,,,,,,,,,,,,,,,,,,16771,2022-12-01_14h02.20.602,vts_reward_expectancy_bt_OFFLINE,2022.2.4,59.94994940911568,
0,0,1,0,0,1,0,0,hexagon,circle,2,0,2,0,3,11,47,7,,,,,,,,,,,,,,,,,,,,,,,,,,,,,,,,,,,,,,,,781.8817109069787,781.8817109069787,781.8817109069787,781.8817109069787,781.8817109069787,781.8817109069787,781.8817109069787,781.8817109069787,781.8817109069787,781.8817109069787,l,1.160007509868592,10,918,2,783.0688840942457,784.582634320017,,,,,,,,,,,,,,,,,,,,,,,,,,,,,,,,,,,,,,,,,,,,,,,,,,,,,,,,,,,,,,,,,,,,,,,,,,16771,2022-12-01_14h02.20.602,vts_reward_expectancy_bt_OFFLINE,2022.2.4,59.94994940911568,
,,,,,,,,,,,,,,,,,,0,0,0,0,0,0,0,0,,,,,,,,,,,,,,,,,,,,,,,,,,,,,,,,,,,,,,,,,,,,,,,,1159.955184453167,,,132,B,hexagon,0.0008787717670202255,1153.9468360920437,1155.4368462460116,1155.4368462460116,1155.4368462460116,1158.438049281016,1158.438049281016,1158.438049281016,0,0,None,0,1158.4554551010951,,,,,,,,,,,,,,,,,,,,,,,,,,,,,,,,,,,,,,,,,,,,,,,,,,,,,,,,16771,2022-12-01_14h02.20.602,vts_reward_expectancy_bt_OFFLINE,2022.2.4,59.94994940911568,
,,,,,,,,,,,,,,,,,,0,0,0,0,1,0,1,0,,,,,,,,,,,,,,,,,,,,,,,,,,,,,,,,,,,,,,,,,,,,,,,,1166.9614475010894,,,160,W,triangle,0.006712261121720076,1160.9524958604015,1162.4412564793602,1162.4412564793602,1162.4412564793602,1165.4442561459728,1165.4442561459728,1165.4442561459728,0,1,None,0,1165.460611246992,,,,,,,,,,,,,,,,,,,,,,,,,,,,,,,,,,,,,,,,,,,,,,,,,,,,,,,,16771,2022-12-01_14h02.20.602,vts_reward_expectancy_bt_OFFLINE,2022.2.4,59.94994940911568,
,,,,,,,,,,,,,,,,,,0,0,0,0,2,0,2,0,,,,,,,,,,,,,,,,,,,,,,,,,,,,,,,,,,,,,,,,,,,,,,,,1171.3648249963298,,,139,H,circle,0.011152576189488173,1167.957257089205,1169.4456034270115,1169.4456034270115,1169.4456034270115,,,,1,1,d,0,1169.8655710592866,0.38920536916702986,,,,,,,,,,,,,,,,,,,,,,,,,,,,,,,,,,,,,,,,,,,,,,,,,,,,,,,16771,2022-12-01_14h02.20.602,vts_reward_expectancy_bt_OFFLINE,2022.2.4,59.94994940911568,
,,,,,,,,,,,,,,,,,,0,0,0,0,3,0,3,0,,,,,,,,,,,,,,,,,,,,,,,,,,,,,,,,,,,,,,,,,,,,,,,,1176.0016935830936,,,174,F,star,0.0019521131180226803,1172.3611587150954,1173.8490925771184,1173.8490925771184,1173.8490925771184,,,,0,0,d,0,1174.5025270073675,0.6213337434455752,,,,,,,,,,,,,,,,,,,,,,,,,,,,,,,,,,,,,,,,,,,,,,,,,,,,,,,16771,2022-12-01_14h02.20.602,vts_reward_expectancy_bt_OFFLINE,2022.2.4,59.94994940911568,
,,,,,,,,,,,,,,,,,,0,0,0,0,4,0,4,0,,,,,,,,,,,,,,,,,,,,,,,,,,,,,,,,,,,,,,,,,,,,,,,,1183.0061311330646,,,181,U,star,0.0016966634429991245,1176.9974437942728,1178.4857565662824,1178.4857565662824,1178.4857565662824,1181.4886721372604,1181.4886721372604,1181.4886721372604,0,1,None,0,1181.505550517235,,,,,,,,,,,,,,,,,,,,,,,,,,,,,,,,,,,,,,,,,,,,,,,,,,,,,,,,16771,2022-12-01_14h02.20.602,vts_reward_expectancy_bt_OFFLINE,2022.2.4,59.94994940911568,
,,,,,,,,,,,,,,,,,,0,0,0,0,5,0,5,0,,,,,,,,,,,,,,,,,,,,,,,,,,,,,,,,,,,,,,,,,,,,,,,,1190.0102431653067,,,125,S,hexagon,0.005925652105361223,1184.0017846850678,1185.492219103966,1185.492219103966,1185.492219103966,1188.49326074915,1188.49326074915,1188.49326074915,0,1,None,0,1188.5095682283863,,,,,,,,,,,,,,,,,,,,,,,,,,,,,,,,,,,,,,,,,,,,,,,,,,,,,,,,16771,2022-12-01_14h02.20.602,vts_reward_expectancy_bt_OFFLINE,2022.2.4,59.94994940911568,
,,,,,,,,,,,,,,,,,,0,0,0,0,6,0,6,0,,,,,,,,,,,,,,,,,,,,,,,,,,,,,,,,,,,,,,,,,,,,,,,,1194.6305605103262,,,167,D,circle,0.012219068128615618,1191.0073048812337,1192.496464563068,1192.496464563068,1192.496464563068,,,,0,1,d,0,1193.115097687114,0.5936638657003641,,,,,,,,,,,,,,,,,,,,,,,,,,,,,,,,,,,,,,,,,,,,,,,,,,,,,,,16771,2022-12-01_14h02.20.602,vts_reward_expectancy_bt_OFFLINE,2022.2.4,59.94994940911568,
,,,,,,,,,,,,,,,,,,0,0,0,0,7,0,7,0,,,,,,,,,,,,,,,,,,,,,,,,,,,,,,,,,,,,,,,,,,,,,,,,1199.0839560800232,,,146,Y,triangle,0.01683651702478528,1195.6267213202082,1197.0999800954014,1197.0999800954014,1197.0999800954014,,,,0,1,f,0,1197.5687360023148,0.4456101940013468,,,,,,,,,,,,,,,,,,,,,,,,,,,,,,,,,,,,,,,,,,,,,,,,,,,,,,,16771,2022-12-01_14h02.20.602,vts_reward_expectancy_bt_OFFLINE,2022.2.4,59.94994940911568,
,,,,,,,,,,,,,,,,,,0,0,0,0,8,0,8,0,,,,,,,,,,,,,,,,,,,,,,,,,,,,,,,,,,,,,,,,,,,,,,,,1203.5371999801137,,,132,B,hexagon,0.016640605870634317,1200.0796084729955,1201.553578156978,1201.553578156978,1201.553578156978,,,,0,1,f,0,1202.0223896834068,0.44688167283311486,,,,,,,,,,,,,,,,,,,,,,,,,,,,,,,,,,,,,,,,,,,,,,,,,,,,,,,16771,2022-12-01_14h02.20.602,vts_reward_expectancy_bt_OFFLINE,2022.2.4,59.94994940911568,
,,,,,,,,,,,,,,,,,,0,0,0,0,9,0,9,0,,,,,,,,,,,,,,,,,,,,,,,,,,,,,,,,,,,,,,,,,,,,,,,,1210.5266381171532,,,160,W,circle,0.01671076938509941,1204.5323632899672,1206.0069616273977,1206.0069616273977,1206.0069616273977,1209.0080634271726,1209.0080634271726,1209.0080634271726,0,1,None,0,1209.024639774114,,,,,,,,,,,,,,,,,,,,,,,,,,,,,,,,,,,,,,,,,,,,,,,,,,,,,,,,16771,2022-12-01_14h02.20.602,vts_reward_expectancy_bt_OFFLINE,2022.2.4,59.94994940911568,
,,,,,,,,,,,,,,,,,,1,0,1,0,0,0,0,0,,,,,,,,,,,,,,,,,,,,,,,,,,,,,,,,,,,,,,,,,,,,,,,,1231.7252518404275,,,181,S,triangle,0.0010410877875983715,1227.9846927663311,1229.4726483700797,1229.4726483700797,1229.4726483700797,,,,0,1,d,1,1230.225071176421,0.7225477690808475,,,,,,,,,,,,,,,,,,,,,,,,,,,,,,,,,,,,,,,,,,,,,,,,,,,,,,,16771,2022-12-01_14h02.20.602,vts_reward_expectancy_bt_OFFLINE,2022.2.4,59.94994940911568,
,,,,,,,,,,,,,,,,,,1,0,1,0,1,0,1,0,,,,,,,,,,,,,,,,,,,,,,,,,,,,,,,,,,,,,,,,,,,,,,,,1236.662242051214,,,174,U,hexagon,0.0019350210204720497,1232.720438159071,1234.2095876270905,1234.2095876270905,1234.2095876270905,,,,0,1,d,1,1235.1621912671253,0.9250245317816734,,,,,,,,,,,,,,,,,,,,,,,,,,,,,,,,,,,,,,,,,,,,,,,,,,,,,,,16771,2022-12-01_14h02.20.602,vts_reward_expectancy_bt_OFFLINE,2022.2.4,59.94994940911568,
,,,,,,,,,,,,,,,,,,1,0,1,0,2,0,2,0,,,,,,,,,,,,,,,,,,,,,,,,,,,,,,,,,,,,,,,,,,,,,,,,1241.599295814056,,,167,W,star,0.0019083330407738686,1237.6577377649955,1239.1466510933824,1239.1466510933824,1239.1466510933824,,,,1,1,f,1,1240.0998521302827,0.9261081260628998,,,,,,,,,,,,,,,,,,,,,,,,,,,,,,,,,,,,,,,,,,,,,,,,,,,,,,,16771,2022-12-01_14h02.20.602,vts_reward_expectancy_bt_OFFLINE,2022.2.4,59.94994940911568,
,,,,,,,,,,,,,,,,,,1,0,1,0,3,0,3,0,,,,,,,,,,,,,,,,,,,,,,,,,,,,,,,,,,,,,,,,,,,,,,,,1246.3692574752495,,,139,F,circle,0.0019417153671383858,1242.5946107530035,1244.0834660460241,1244.0834660460241,1244.0834660460241,,,,1,0,d,1,1244.868809227366,0.7598811439238489,,,,,,,,,,,,,,,,,,,,,,,,,,,,,,,,,,,,,,,,,,,,,,,,,,,,,,,16771,2022-12-01_14h02.20.602,vts_reward_expectancy_bt_OFFLINE,2022.2.4,59.94994940911568,
,,,,,,,,,,,,,,,,,,1,0,1,0,4,0,4,0,,,,,,,,,,,,,,,,,,,,,,,,,,,,,,,,,,,,,,,,,,,,,,,,1251.0227167191915,,,160,H,hexagon,0.0022193901240825653,1247.3650996773504,1248.8534649340436,1248.8534649340436,1248.8534649340436,,,,1,0,f,1,1249.5222586081363,0.6477987295947969,,,,,,,,,,,,,,,,,,,,,,,,,,,,,,,,,,,,,,,,,,,,,,,,,,,,,,,16771,2022-12-01_14h02.20.602,vts_reward_expectancy_bt_OFFLINE,2022.2.4,59.94994940911568,
,,,,,,,,,,,,,,,,,,1,0,1,0,5,0,5,0,,,,,,,,,,,,,,,,,,,,,,,,,,,,,,,,,,,,,,,,,,,,,,,,1256.259927968029,,,125,Y,triangle,0.0018783439882099628,1252.0182534512132,1253.5068374499679,1253.5068374499679,1253.5068374499679,,,,1,0,d,1,1254.7456899113022,1.2144561246968806,,,,,,,,,,,,,,,,,,,,,,,,,,,,,,,,,,,,,,,,,,,,,,,,,,,,,,,16771,2022-12-01_14h02.20.602,vts_reward_expectancy_bt_OFFLINE,2022.2.4,59.94994940911568,
,,,,,,,,,,,,,,,,,,1,0,1,0,6,0,6,0,,,,,,,,,,,,,,,,,,,,,,,,,,,,,,,,,,,,,,,,,,,,,,,,1263.0642134500667,,,146,D,star,0.01339546125382185,1257.255284707062,1258.7441049111076,1258.7441049111076,1258.7441049111076,,,,0,0,f,1,1261.5503044039942,2.7835465227253735,,,,,,,,,,,,,,,,,,,,,,,,,,,,,,,,,,,,,,,,,,,,,,,,,,,,,,,16771,2022-12-01_14h02.20.602,vts_reward_expectancy_bt_OFFLINE,2022.2.4,59.94994940911568,
,,,,,,,,,,,,,,,,,,1,0,1,0,7,0,7,0,,,,,,,,,,,,,,,,,,,,,,,,,,,,,,,,,,,,,,,,,,,,,,,,1267.6677515930496,,,132,B,circle,0.0004755840636789799,1264.0431343191303,1265.5335665591992,1265.5335665591992,1265.5335665591992,,,,1,1,d,1,1266.1537458691746,0.5963301178999245,,,,,,,,,,,,,,,,,,,,,,,,,,,,,,,,,,,,,,,,,,,,,,,,,,,,,,,16771,2022-12-01_14h02.20.602,vts_reward_expectancy_bt_OFFLINE,2022.2.4,59.94994940911568,
,,,,,,,,,,,,,,,,,,1,0,1,0,8,0,8,0,,,,,,,,,,,,,,,,,,,,,,,,,,,,,,,,,,,,,,,,,,,,,,,,1272.9380529480986,,,181,S,hexagon,0.016779419966042042,1268.6625682050362,1270.1351261390373,1270.1351261390373,1270.1351261390373,,,,0,0,d,1,1271.4410733790137,1.2817692197859287,,,,,,,,,,,,,,,,,,,,,,,,,,,,,,,,,,,,,,,,,,,,,,,,,,,,,,,16771,2022-12-01_14h02.20.602,vts_reward_expectancy_bt_OFFLINE,2022.2.4,59.94994940911568,
,,,,,,,,,,,,,,,,,,1,0,1,0,9,0,9,0,,,,,,,,,,,,,,,,,,,,,,,,,,,,,,,,,,,,,,,,,,,,,,,,1277.6417959192768,,,174,U,triangle,0.00044455379247665405,1273.9334264080971,1275.4241184871644,1275.4241184871644,1275.4241184871644,,,,1,1,f,1,1276.1276175212115,0.6727581690065563,,,,,,,,,,,,,,,,,,,,,,,,,,,,,,,,,,,,,,,,,,,,,,,,,,,,,,,16771,2022-12-01_14h02.20.602,vts_reward_expectancy_bt_OFFLINE,2022.2.4,59.94994940911568,
,,,,,,,,,,,,,,,,,,2,0,2,0,0,0,0,0,,,,,,,,,,,,,,,,,,,,,,,,,,,,,,,,,,,,,,,,,,,,,,,,1286.565089988988,,1287.0654526720755,160,F,star,0.0007125441916286945,1282.9731220970862,1284.462482706178,1284.462482706178,1284.462482706178,,,,1,0,f,2,1285.063089956995,0.5683400728739798,1286.565089988988,,,,,,,,,,,,,,,,,,,,,,,,,,,,,,,,,,,,,,,,,,,,,,,,,,,,,,16771,2022-12-01_14h02.20.602,vts_reward_expectancy_bt_OFFLINE,2022.2.4,59.94994940911568,
,,,,,,,,,,,,,,,,,,2,0,2,0,1,0,1,0,,,,,,,,,,,,,,,,,,,,,,,,,,,,,,,,,,,,,,,,,,,,,,,,1293.5695011122152,,,125,B,triangle,0.00016356119886040688,1287.5603931923397,1289.0495383911766,1289.0495383911766,1289.0495383911766,1292.0522954082116,1292.0522954082116,1292.0522954082116,0,0,None,2,1292.0690104300156,,,,,,,,,,,,,,,,,,,,,,,,,,,,,,,,,,,,,,,,,,,,,,,,,,,,,,,,16771,2022-12-01_14h02.20.602,vts_reward_expectancy_bt_OFFLINE,2022.2.4,59.94994940911568,
,,,,,,,,,,,,,,,,,,2,0,2,0,2,0,2,0,,,,,,,,,,,,,,,,,,,,,,,,,,,,,,,,,,,,,,,,,,,,,,,,1298.1062611262314,,,167,D,circle,0.004309263080358505,1294.565122999251,1296.055317062419,1296.055317062419,1296.055317062419,,,,1,1,f,2,1296.5923572201282,0.5068593844771385,,,,,,,,,,,,,,,,,,,,,,,,,,,,,,,,,,,,,,,,,,,,,,,,,,,,,,,16771,2022-12-01_14h02.20.602,vts_reward_expectancy_bt_OFFLINE,2022.2.4,59.94994940911568,
,,,,,,,,,,,,,,,,,,2,0,2,0,3,0,3,0,,,,,,,,,,,,,,,,,,,,,,,,,,,,,,,,,,,,,,,,,,,,,,,,1302.8097995733842,,,174,U,hexagon,0.0004344061017036438,1299.0852783303708,1300.5759012703784,1300.5759012703784,1300.5759012703784,,,,1,0,f,2,1301.295188975986,0.7000756761990488,,,,,,,,,,,,,,,,,,,,,,,,,,,,,,,,,,,,,,,,,,,,,,,,,,,,,,,16771,2022-12-01_14h02.20.602,vts_reward_expectancy_bt_OFFLINE,2022.2.4,59.94994940911568,
,,,,,,,,,,,,,,,,,,2,0,2,0,4,0,4,0,,,,,,,,,,,,,,,,,,,,,,,,,,,,,,,,,,,,,,,,,,,,,,,,1308.4137628893368,,,146,Y,circle,0.01662867097184062,1303.8057681024075,1305.277174236253,1305.277174236253,1305.277174236253,,,,1,0,d,2,1306.8987492253073,1.60104037867859,,,,,,,,,,,,,,,,,,,,,,,,,,,,,,,,,,,,,,,,,,,,,,,,,,,,,,,16771,2022-12-01_14h02.20.602,vts_reward_expectancy_bt_OFFLINE,2022.2.4,59.94994940911568,
,,,,,,,,,,,,,,,,,,2,0,2,0,5,0,5,0,,,,,,,,,,,,,,,,,,,,,,,,,,,,,,,,,,,,,,,,,,,,,,,,1313.3841799232177,,,132,S,hexagon,0.01694050757214427,1309.4091642983258,1310.883041471243,1310.883041471243,1310.883041471243,,,,1,0,d,2,1311.8688662233762,0.9568063379265368,,,,,,,,,,,,,,,,,,,,,,,,,,,,,,,,,,,,,,,,,,,,,,,,,,,,,,,16771,2022-12-01_14h02.20.602,vts_reward_expectancy_bt_OFFLINE,2022.2.4,59.94994940911568,
,,,,,,,,,,,,,,,,,,2,0,2,0,6,0,6,0,,,,,,,,,,,,,,,,,,,,,,,,,,,,,,,,,,,,,,,,,,,,,,,,1318.0208505620249,,,181,H,triangle,0.016951413359493017,1314.3794973134063,1315.853464610409,1315.853464610409,1315.853464610409,,,,1,0,f,2,1316.5057124360465,0.6334493109025061,,,,,,,,,,,,,,,,,,,,,,,,,,,,,,,,,,,,,,,,,,,,,,,,,,,,,,,16771,2022-12-01_14h02.20.602,vts_reward_expectancy_bt_OFFLINE,2022.2.4,59.94994940911568,
,,,,,,,,,,,,,,,,,,2,0,2,0,7,0,7,0,,,,,,,,,,,,,,,,,,,,,,,,,,,,,,,,,,,,,,,,,,,,,,,,1323.5412548179738,,,139,W,star,0.01652136305347085,1319.0157428290695,1320.4902580031194,1320.4902580031194,1320.4902580031194,,,,1,0,d,2,1322.0264902631752,1.5087272268719971,,,,,,,,,,,,,,,,,,,,,,,,,,,,,,,,,,,,,,,,,,,,,,,,,,,,,,,16771,2022-12-01_14h02.20.602,vts_reward_expectancy_bt_OFFLINE,2022.2.4,59.94994940911568,
,,,,,,,,,,,,,,,,,,2,0,2,0,8,0,8,0,,,,,,,,,,,,,,,,,,,,,,,,,,,,,,,,,,,,,,,,,,,,,,,,1329.4785494301468,,,160,F,circle,0.005428793840110302,1324.5224186852574,1326.0106004001573,1326.0106004001573,1326.0106004001573,,,,1,0,f,2,1327.9635332762264,1.928832727484405,,,,,,,,,,,,,,,,,,,,,,,,,,,,,,,,,,,,,,,,,,,,,,,,,,,,,,,16771,2022-12-01_14h02.20.602,vts_reward_expectancy_bt_OFFLINE,2022.2.4,59.94994940911568,
,,,,,,,,,,,,,,,,,,2,0,2,0,9,0,9,0,,,,,,,,,,,,,,,,,,,,,,,,,,,,,,,,,,,,,,,,,,,,,,,,1334.7325147581287,,,125,B,triangle,0.0005471799522638321,1330.457556660287,1331.9478526641615,1331.9478526641615,1331.9478526641615,,,,1,0,d,2,1333.2172557613812,1.246686332859099,,,,,,,,,,,,,,,,,,,,,,,,,,,,,,,,,,,,,,,,,,,,,,,,,,,,,,,16771,2022-12-01_14h02.20.602,vts_reward_expectancy_bt_OFFLINE,2022.2.4,59.94994940911568,
,,,,,,,,,,,,,,,,,,,,,,,,,,0,0,0,0,0,0,0,0,,,,,,,,,,,,,,,,,,,,,,,,,,,,,,,,,,,,,,,,1353.9297644384205,,,174,B,circle,0.017297210171818733,,,,,,,,1,0,,3,1352.4151650844142,,,1350.0723290522583,1351.545636238996,1351.545636238996,1351.545636238996,j,0.8416473446413875,,,,,,,,,,,,,,,,,,,,,,,,,,,,,,,,,,,,,,,,,,,,,,,,16771,2022-12-01_14h02.20.602,vts_reward_expectancy_bt_OFFLINE,2022.2.4,59.94994940911568,
,,,,,,,,,,,,,,,,,,,,,,,,,,0,0,0,0,1,0,1,0,,,,,,,,,,,,,,,,,,,,,,,,,,,,,,,,,,,,,,,,1358.9166368832812,,,125,S,triangle,0.016427983064204454,,,,,,,,1,0,,3,1357.4023326653987,,,1354.9254919742234,1356.3992560091428,1356.3992560091428,1356.3992560091428,k,0.9838562337681651,,,,,,,,,,,,,,,,,,,,,,,,,,,,,,,,,,,,,,,,,,,,,,,,16771,2022-12-01_14h02.20.602,vts_reward_expectancy_bt_OFFLINE,2022.2.4,59.94994940911568,
,,,,,,,,,,,,,,,,,,,,,,,,,,0,0,0,0,2,0,2,0,,,,,,,,,,,,,,,,,,,,,,,,,,,,,,,,,,,,,,,,1363.6536113140173,,,132,D,hexagon,0.01631202409043908,,,,,,,,1,0,,3,1362.1390159213915,,,1359.9120804453269,1361.3861652719788,1361.3861652719788,1361.3861652719788,j,0.7213705410249531,,,,,,,,,,,,,,,,,,,,,,,,,,,,,,,,,,,,,,,,,,,,,,,,16771,2022-12-01_14h02.20.602,vts_reward_expectancy_bt_OFFLINE,2022.2.4,59.94994940911568,
,,,,,,,,,,,,,,,,,,,,,,,,,,0,0,0,0,3,0,3,0,,,,,,,,,,,,,,,,,,,,,,,,,,,,,,,,,,,,,,,,1368.5569438962266,,1369.0574389412068,160,F,star,0.016264941077679396,,,,,,,,1,0,,3,1367.0572540522553,,1368.5569438962266,1364.6483652470633,1366.1231395839714,1366.1231395839714,1366.1231395839714,j,0.9007125278003514,,,,,,,,,,,,,,,,,,,,,,,,,,,,,,,,,,,,,,,,,,,,,,,,16771,2022-12-01_14h02.20.602,vts_reward_expectancy_bt_OFFLINE,2022.2.4,59.94994940911568,
,,,,,,,,,,,,,,,,,,,,,,,,,,0,0,0,0,4,0,4,0,,,,,,,,,,,,,,,,,,,,,,,,,,,,,,,,,,,,,,,,1373.3609192580916,,,139,H,hexagon,0.014140261337161064,,,,,,,,1,0,,3,1371.8460774943233,,,1369.5693097864278,1371.0433429200202,1371.0433429200202,1371.0433429200202,j,0.7732844860292971,,,,,,,,,,,,,,,,,,,,,,,,,,,,,,,,,,,,,,,,,,,,,,,,16771,2022-12-01_14h02.20.602,vts_reward_expectancy_bt_OFFLINE,2022.2.4,59.94994940911568,
,,,,,,,,,,,,,,,,,,,,,,,,,,0,0,0,0,5,0,5,0,,,,,,,,,,,,,,,,,,,,,,,,,,,,,,,,,,,,,,,,1377.9978562500328,,,146,Y,star,0.01667297910898924,,,,,,,,1,0,,3,1376.482757456135,,,1374.3561448734254,1375.8303375253454,1375.8303375253454,1375.8303375253454,k,0.6215624515898526,,,,,,,,,,,,,,,,,,,,,,,,,,,,,,,,,,,,,,,,,,,,,,,,16771,2022-12-01_14h02.20.602,vts_reward_expectancy_bt_OFFLINE,2022.2.4,59.94994940911568,
,,,,,,,,,,,,,,,,,,,,,,,,,,0,0,0,0,6,0,6,0,,,,,,,,,,,,,,,,,,,,,,,,,,,,,,,,,,,,,,,,1383.251353896223,,,167,W,circle,0.016789043322205544,,,,,,,,1,0,,3,1381.7368280780502,,,1378.9930588970892,1380.4671763554215,1380.4671763554215,1380.4671763554215,k,1.2505339509807527,,,,,,,,,,,,,,,,,,,,,,,,,,,,,,,,,,,,,,,,,,,,,,,,16771,2022-12-01_14h02.20.602,vts_reward_expectancy_bt_OFFLINE,2022.2.4,59.94994940911568,
,,,,,,,,,,,,,,,,,,,,,,,,,,0,0,0,0,7,0,7,0,,,,,,,,,,,,,,,,,,,,,,,,,,,,,,,,,,,,,,,,1389.1222019470297,,,181,U,triangle,0.01659485325217247,,,,,,,,1,0,,3,1387.607101473026,,,1384.2466448382474,1385.7207530792803,1385.7207530792803,1385.7207530792803,k,1.8595932107418776,,,,,,,,,,,,,,,,,,,,,,,,,,,,,,,,,,,,,,,,,,,,,,,,16771,2022-12-01_14h02.20.602,vts_reward_expectancy_bt_OFFLINE,2022.2.4,59.94994940911568,
,,,,,,,,,,,,,,,,,,,,,,,,,,0,0,0,0,8,0,8,0,,,,,,,,,,,,,,,,,,,,,,,,,,,,,,,,,,,,,,,,1394.309319361113,,,174,B,circle,0.00034668203443288803,,,,,,,,1,0,,3,1392.7942954152822,,,1390.101151672192,1391.5916745150462,1391.5916745150462,1391.5916745150462,j,1.1735684555023909,,,,,,,,,,,,,,,,,,,,,,,,,,,,,,,,,,,,,,,,,,,,,,,,16771,2022-12-01_14h02.20.602,vts_reward_expectancy_bt_OFFLINE,2022.2.4,59.94994940911568,
,,,,,,,,,,,,,,,,,,,,,,,,,,0,0,0,0,9,0,9,0,,,,,,,,,,,,,,,,,,,,,,,,,,,,,,,,,,,,,,,,1400.4183155209757,,,125,S,star,0.01678347820416093,,,,,,,,1,0,,3,1398.914658466354,,,1395.3048629490659,1396.778342452366,1396.778342452366,1396.778342452366,k,2.107200985774398,,,,,,,,,,,,,,,,,,,,,,,,,,,,,,,,,,,,,,,,,,,,,,,,16771,2022-12-01_14h02.20.602,vts_reward_expectancy_bt_OFFLINE,2022.2.4,59.94994940911568,
,,,,,,,,,,,,,,,,,,,,,,,,,,,,,,,,,,0,0,0,0,0,0,0,0,,,,,,,,,,,,,,,,,,,,,,,,,,,,0,918,,,1611.2178349113092,,,181,B,hexagon,0.017362968996167183,,,,,,,,0,0,,4,,,,,,,,,,1605.8761239391752,1605.8761239391752,1605.8761239391752,1605.8761239391752,1607.3481541234069,1607.3481541234069,1607.3481541234069,1607.3481541234069,1607.3811122942716,1607.3811122942716,1607.3811122942716,1607.3811122942716,-1,number,NA,d,2.3505424885079265,vtsPrac,1609.7190384631976,,,,,,,,,,,,,,,,,,,,,,,,,,,,,16771,2022-12-01_14h02.20.602,vts_reward_expectancy_bt_OFFLINE,2022.2.4,59.94994940911568,
,,,,,,,,,,,,,,,,,,,,,,,,,,,,,,,,,,0,0,0,0,1,0,1,0,,,,,,,,,,,,,,,,,,,,,,,,,,,,0,918,,,1617.1551895672455,,,160,F,circle,0.0017161648720502853,,,,,,,,1,1,,4,,,,,,,,,,1612.2134203324094,1612.2134203324094,1612.2134203324094,1612.2134203324094,1613.7022005263716,1613.7022005263716,1613.7022005263716,1613.7022005263716,1613.7187178740278,1613.7187178740278,1613.7187178740278,1613.7187178740278,repeat,number,numRpt,f,1.9030046155676246,vtsPrac,1615.6411338951439,,,,,,,,,,,,,,,,,,,,,,,,,,,,,16771,2022-12-01_14h02.20.602,vts_reward_expectancy_bt_OFFLINE,2022.2.4,59.94994940911568,
,,,,,,,,,,,,,,,,,,,,,,,,,,,,,,,,,,0,0,0,0,2,0,2,0,,,,,,,,,,,,,,,,,,,,,,,,,,,,0,918,,,1623.1256157220341,,,167,D,triangle,0.014823266305029392,,,,,,,,1,0,,4,,,,,,,,,,1618.1506617581472,1618.1506617581472,1618.1506617581472,1618.1506617581472,1619.6391875441186,1619.6391875441186,1619.6391875441186,1619.6391875441186,1619.6559038753621,1619.6559038753621,1619.6559038753621,1619.6559038753621,repeat,number,numRpt,f,1.9513786835595965,vtsPrac,1621.6109190629795,,,,,,,,,,,,,,,,,,,,,,,,,,,,,16771,2022-12-01_14h02.20.602,vts_reward_expectancy_bt_OFFLINE,2022.2.4,59.94994940911568,
,,,,,,,,,,,,,,,,,,,,,,,,,,,,,,,,,,0,0,0,0,3,0,3,0,,,,,,,,,,,,,,,,,,,,,,,,,,,,0,918,,,1627.9626074000262,,,125,W,circle,0.016796999145299196,,,,,,,,1,0,,4,,,,,,,,,,1624.1215830571018,1624.1215830571018,1624.1215830571018,1624.1215830571018,1625.5969750052318,1625.5969750052318,1625.5969750052318,1625.5969750052318,1625.6286873803474,1625.6286873803474,1625.6286873803474,1625.6286873803474,repeat,number,numRpt,d,0.8200574647635221,vtsPrac,1626.4477487173863,,,,,,,,,,,,,,,,,,,,,,,,,,,,,16771,2022-12-01_14h02.20.602,vts_reward_expectancy_bt_OFFLINE,2022.2.4,59.94994940911568,
,,,,,,,,,,,,,,,,,,,,,,,,,,,,,,,,,,0,0,0,0,4,0,4,0,,,,,,,,,,,,,,,,,,,,,,,,,,,,0,918,,,1634.3503092410974,,,181,B,hexagon,0.00040076812729239464,,,,,,,,1,0,,4,,,,,,,,,,1628.9416809570976,1628.9416809570976,1628.9416809570976,1628.9416809570976,1630.4301741831005,1630.4301741831005,1630.4301741831005,1630.4301741831005,1630.4471021513455,1630.4471021513455,1630.4471021513455,1630.4471021513455,switch,letter,lettSwt,j,2.3775774124078453,vtsPrac,1632.8356079291552,,,,,,,,,,,,,,,,,,,,,,,,,,,,,16771,2022-12-01_14h02.20.602,vts_reward_expectancy_bt_OFFLINE,2022.2.4,59.94994940911568,
,,,,,,,,,,,,,,,,,,,,,,,,,,,,,,,,,,0,0,0,0,5,0,5,0,,,,,,,,,,,,,,,,,,,,,,,,,,,,0,918,,,1639.0036318660714,,,160,F,star,0.016948590986430645,,,,,,,,1,0,,4,,,,,,,,,,1635.3460879670456,1635.3460879670456,1635.3460879670456,1635.3460879670456,1636.819541842211,1636.819541842211,1636.819541842211,1636.819541842211,1636.8529316363856,1636.8529316363856,1636.8529316363856,1636.8529316363856,repeat,letter,lettRpt,j,0.6452825982123613,vtsPrac,1637.4889705730602,,,,,,,,,,,,,,,,,,,,,,,,,,,,,16771,2022-12-01_14h02.20.602,vts_reward_expectancy_bt_OFFLINE,2022.2.4,59.94994940911568,
,,,,,,,,,,,,,,,,,,,,,,,,,,,,,,,,,,0,0,0,0,6,0,6,0,,,,,,,,,,,,,,,,,,,,,,,,,,,,0,918,,,1643.9573716321029,,,167,D,triangle,0.00047505227848887444,,,,,,,,1,0,,4,,,,,,,,,,1639.9829585622065,1639.9829585622065,1639.9829585622065,1639.9829585622065,1641.4730774532072,1641.4730774532072,1641.4730774532072,1641.4730774532072,1641.4897515452467,1641.4897515452467,1641.4897515452467,1641.4897515452467,switch,number,numSwt,f,0.9426496494561434,vtsPrac,1642.442806544248,,,,,,,,,,,,,,,,,,,,,,,,,,,,,16771,2022-12-01_14h02.20.602,vts_reward_expectancy_bt_OFFLINE,2022.2.4,59.94994940911568,
,,,,,,,,,,,,,,,,,,,,,,,,,,,,,,,,,,0,0,0,0,7,0,7,0,,,,,,,,,,,,,,,,,,,,,,,,,,,,0,918,,,1649.8446189430542,,,125,W,star,0.016683506779372692,,,,,,,,1,0,,4,,,,,,,,,,1644.9530437863432,1644.9530437863432,1644.9530437863432,1644.9530437863432,1646.4267374803312,1646.4267374803312,1646.4267374803312,1646.4267374803312,1646.460075693205,1646.460075693205,1646.460075693205,1646.460075693205,switch,letter,lettSwt,k,1.8725642119534314,vtsPrac,1648.329904364422,,,,,,,,,,,,,,,,,,,,,,,,,,,,,16771,2022-12-01_14h02.20.602,vts_reward_expectancy_bt_OFFLINE,2022.2.4,59.94994940911568,
,,,,,,,,,,,,,,,,,,,,,,,,,,,,,,,,,,0,0,0,0,8,0,8,0,,,,,,,,,,,,,,,,,,,,,,,,,,,,0,918,,,1655.5787458890118,,1656.0837469110265,160,D,star,0.016919380985200405,,,,,,,,1,0,,4,,,,,,,,,,1650.8406210620888,1650.8406210620888,1650.8406210620888,1650.8406210620888,1652.31390508404,1652.31390508404,1652.31390508404,1652.31390508404,1652.3473052703775,1652.3473052703775,1652.3473052703775,1652.3473052703775,switch,number,numSwt,f,1.7344003771431744,vtsPrac,1654.0820658709854,1655.5787458890118,,,,,,,,,,,,,,,,,,,,,,,,,,,,16771,2022-12-01_14h02.20.602,vts_reward_expectancy_bt_OFFLINE,2022.2.4,59.94994940911568,
,,,,,,,,,,,,,,,,,,,,,,,,,,,,,,,,,,0,0,0,0,9,0,9,0,,,,,,,,,,,,,,,,,,,,,,,,,,,,0,918,,,1660.302105478011,,,132,U,hexagon,-0.00034403475001454353,,,,,,,,1,0,,4,,,,,,,,,,1656.5792096843943,1656.5792096843943,1656.5792096843943,1656.5792096843943,1658.0677053052932,1658.0677053052932,1658.0677053052932,1658.0677053052932,1658.0847405991517,1658.0847405991517,1658.0847405991517,1658.0847405991517,switch,letter,lettSwt,k,0.6954314676113427,vtsPrac,1658.78758521704,,,,,,,,,,,,,,,,,,,,,,,,,,,,,16771,2022-12-01_14h02.20.602,vts_reward_expectancy_bt_OFFLINE,2022.2.4,59.94994940911568,
,,,,,,,,,,,,,,,,,,,,,,,,,,,,,,,,,,0,0,0,0,10,0,10,0,,,,,,,,,,,,,,,,,,,,,,,,,,,,0,918,,,1666.2578570293263,,,125,S,triangle,0.001692791935056448,,,,,,,,1,0,,4,,,,,,,,,,1661.2822621911764,1661.2822621911764,1661.2822621911764,1661.2822621911764,1662.7715955050662,1662.7715955050662,1662.7715955050662,1662.7715955050662,1662.7879296122119,1662.7879296122119,1662.7879296122119,1662.7879296122119,repeat,letter,lettRpt,k,1.9542563748545945,vtsPrac,1664.7581702740863,,,,,,,,,,,,,,,,,,,,,,,,,,,,,16771,2022-12-01_14h02.20.602,vts_reward_expectancy_bt_OFFLINE,2022.2.4,59.94994940911568,
