LTriangleOpac,LCircleOpac,LHexagonOpac,LStarOpac,RTriangleOpac,RCircleOpac,RHexagonOpac,RStarOpac,LShape_ID,RShape_ID,training_blocks.thisRepN,training_blocks.thisTrialN,training_blocks.thisN,training_blocks.thisIndex,training.thisRepN,training.thisTrialN,training.thisN,training.thisIndex,task1_prac_redo.thisRepN,task1_prac_redo.thisTrialN,task1_prac_redo.thisN,task1_prac_redo.thisIndex,task1_prac_trials.thisRepN,task1_prac_trials.thisTrialN,task1_prac_trials.thisN,task1_prac_trials.thisIndex,task2_prac_redo.thisRepN,task2_prac_redo.thisTrialN,task2_prac_redo.thisN,task2_prac_redo.thisIndex,task2_praac_trials.thisRepN,task2_praac_trials.thisTrialN,task2_praac_trials.thisN,task2_praac_trials.thisIndex,vts_prac_redo.thisRepN,vts_prac_redo.thisTrialN,vts_prac_redo.thisN,vts_prac_redo.thisIndex,vts_practice_trials.thisRepN,vts_practice_trials.thisTrialN,vts_practice_trials.thisN,vts_practice_trials.thisIndex,trials_norew.thisRepN,trials_norew.thisTrialN,trials_norew.thisN,trials_norew.thisIndex,block.thisRepN,block.thisTrialN,block.thisN,block.thisIndex,trials_rew.thisRepN,trials_rew.thisTrialN,trials_rew.thisN,trials_rew.thisIndex,key_resp.started,key_resp.keys,key_resp.rt,left_circle.started,right_circle.started,left_triangle.started,right_triangle.started,left_star.started,right_star.started,left_hexagon.started,right_hexagon.started,training_fix.started,training_resp.started,training_resp.keys,training_resp.rt,points_trial,points_cumul,trainBlock,training_feedback_txt.started,fix.started,training_feedback_txt.stopped,fix.stopped,curr_topStim,curr_bottStim,curr_shape,ISI.started,tgt_fix_prac1.started,top_target_prac1.started,bott_target_prac1.started,target_resp_prac1.started,acc,E1,target_resp_prac1.keys,target_resp_prac1.rt,pracBlock,prac_fback_text.started,prac_fback_text.stopped,tgt_fix_prac2.started,top_target_prac2.started,bott_target_prac2.started,target_resp_prac2.started,target_resp_prac2.keys,target_resp_prac2.rt,star.started,hegagon.started,triangle.started,circle.started,star.stopped,hegagon.stopped,triangle.stopped,circle.stopped,top_target.started,tgt_fix.started,bot_target.started,target_resp.started,alt,task,condition,target_resp.keys,target_resp.rt,rewCond,vts_fback.started,vts_fback.stopped,blockNum,norew_fback.started,norew_fback.stopped,top_target.stopped,tgt_fix.stopped,bot_target.stopped,target_resp.stopped,key_resp_2.keys,key_resp_2.rt,rewExpectancy,feedbk_text.started,feedbk_text.stopped,text_3.started,debrief.started,text_3.stopped,button.started,debrief.index,debrief.itemText,debrief.type,debrief.granularity,debrief.font,debrief.markerColor,debrief.response,debrief.rt,button.numClicks,button.timesOn,button.timesOff,participant,date,expName,psychopyVersion,frameRate,
,,,,,,,,,,,,,,,,,,,,,,,,,,,,,,,,,,,,,,,,,,,,,,,,,,,,,,763.3048997349979,space,15.024752472003456,,,,,,,,,,,,,,,,,,,,,,,,,,,,,,,,,,,,,,,,,,,,,,,,,,,,,,,,,,,,,,,,,,,,,,,,,,,,,,,,,,,,,,,,16861,2022-11-21_10h38.16.206,vts_reward_expectancy_bt_OFFLINE,2022.2.4,59.90117372623791,
0,1,0,0,0,0,1,0,circle,hexagon,0,0,0,0,0,0,0,4,,,,,,,,,,,,,,,,,,,,,,,,,,,,,,,,,,,,,,,,809.9679049039842,809.9679049039842,809.9679049039842,809.9679049039842,809.9679049039842,809.9679049039842,809.9679049039842,809.9679049039842,809.9679049039842,809.9679049039842,a,1.1202587070292793,1,1,0,811.1141001639771,812.6158022589807,,,,,,,,,,,,,,,,,,,,,,,,,,,,,,,,,,,,,,,,,,,,,,,,,,,,,,,,,,,,,,,,,,,,,,,16861,2022-11-21_10h38.16.206,vts_reward_expectancy_bt_OFFLINE,2022.2.4,59.90117372623791,
0,0,1,0,0,0,0,1,hexagon,star,0,0,0,0,0,1,1,8,,,,,,,,,,,,,,,,,,,,,,,,,,,,,,,,,,,,,,,,813.1163656909775,813.1163656909775,813.1163656909775,813.1163656909775,813.1163656909775,813.1163656909775,813.1163656909775,813.1163656909775,813.1163656909775,813.1163656909775,l,1.1357848400075454,1,2,0,814.284669753979,815.7858677149925,,,,,,,,,,,,,,,,,,,,,,,,,,,,,,,,,,,,,,,,,,,,,,,,,,,,,,,,,,,,,,,,,,,,,,,16861,2022-11-21_10h38.16.206,vts_reward_expectancy_bt_OFFLINE,2022.2.4,59.90117372623791,
1,0,0,0,0,0,0,1,triangle,star,0,0,0,0,0,2,2,2,,,,,,,,,,,,,,,,,,,,,,,,,,,,,,,,,,,,,,,,816.2865911069966,816.2865911069966,816.2865911069966,816.2865911069966,816.2865911069966,816.2865911069966,816.2865911069966,816.2865911069966,816.2865911069966,816.2865911069966,a,0.9355080999957863,10,12,0,817.254360521998,818.7559579649824,,,,,,,,,,,,,,,,,,,,,,,,,,,,,,,,,,,,,,,,,,,,,,,,,,,,,,,,,,,,,,,,,,,,,,,16861,2022-11-21_10h38.16.206,vts_reward_expectancy_bt_OFFLINE,2022.2.4,59.90117372623791,
0,0,0,1,0,1,0,0,star ,circle,0,0,0,0,0,3,3,10,,,,,,,,,,,,,,,,,,,,,,,,,,,,,,,,,,,,,,,,819.256641754997,819.256641754997,819.256641754997,819.256641754997,819.256641754997,819.256641754997,819.256641754997,819.256641754997,819.256641754997,819.256641754997,l,0.8352108170220163,10,22,0,820.1240961969888,821.6258444749983,,,,,,,,,,,,,,,,,,,,,,,,,,,,,,,,,,,,,,,,,,,,,,,,,,,,,,,,,,,,,,,,,,,,,,,16861,2022-11-21_10h38.16.206,vts_reward_expectancy_bt_OFFLINE,2022.2.4,59.90117372623791,
0,0,1,0,1,0,0,0,hexagon,triangle,0,0,0,0,0,4,4,6,,,,,,,,,,,,,,,,,,,,,,,,,,,,,,,,,,,,,,,,822.1263507480035,822.1263507480035,822.1263507480035,822.1263507480035,822.1263507480035,822.1263507480035,822.1263507480035,822.1263507480035,822.1263507480035,822.1263507480035,a,1.23613967403071,10,32,0,823.3943442149903,824.8960175910033,,,,,,,,,,,,,,,,,,,,,,,,,,,,,,,,,,,,,,,,,,,,,,,,,,,,,,,,,,,,,,,,,,,,,,,16861,2022-11-21_10h38.16.206,vts_reward_expectancy_bt_OFFLINE,2022.2.4,59.90117372623791,
0,1,0,0,0,0,0,1,circle,star,0,0,0,0,0,5,5,5,,,,,,,,,,,,,,,,,,,,,,,,,,,,,,,,,,,,,,,,825.3964567429794,825.3964567429794,825.3964567429794,825.3964567429794,825.3964567429794,825.3964567429794,825.3964567429794,825.3964567429794,825.3964567429794,825.3964567429794,a,1.341003884037491,1,33,0,826.7646549569909,828.2664432049787,,,,,,,,,,,,,,,,,,,,,,,,,,,,,,,,,,,,,,,,,,,,,,,,,,,,,,,,,,,,,,,,,,,,,,,16861,2022-11-21_10h38.16.206,vts_reward_expectancy_bt_OFFLINE,2022.2.4,59.90117372623791,
0,1,0,0,1,0,0,0,circle,triangle,0,0,0,0,0,6,6,3,,,,,,,,,,,,,,,,,,,,,,,,,,,,,,,,,,,,,,,,828.7672200969828,828.7672200969828,828.7672200969828,828.7672200969828,828.7672200969828,828.7672200969828,828.7672200969828,828.7672200969828,828.7672200969828,828.7672200969828,l,1.245902027003467,10,43,0,830.035289906984,831.5366877490014,,,,,,,,,,,,,,,,,,,,,,,,,,,,,,,,,,,,,,,,,,,,,,,,,,,,,,,,,,,,,,,,,,,,,,,16861,2022-11-21_10h38.16.206,vts_reward_expectancy_bt_OFFLINE,2022.2.4,59.90117372623791,
0,0,1,0,0,1,0,0,hexagon,circle,0,0,0,0,0,7,7,7,,,,,,,,,,,,,,,,,,,,,,,,,,,,,,,,,,,,,,,,832.0373833509802,832.0373833509802,832.0373833509802,832.0373833509802,832.0373833509802,832.0373833509802,832.0373833509802,832.0373833509802,832.0373833509802,832.0373833509802,a,0.5961531630018726,1,44,0,832.6533264229947,834.1563794699905,,,,,,,,,,,,,,,,,,,,,,,,,,,,,,,,,,,,,,,,,,,,,,,,,,,,,,,,,,,,,,,,,,,,,,,16861,2022-11-21_10h38.16.206,vts_reward_expectancy_bt_OFFLINE,2022.2.4,59.90117372623791,
1,0,0,0,0,1,0,0,triangle,circle,0,0,0,0,0,8,8,0,,,,,,,,,,,,,,,,,,,,,,,,,,,,,,,,,,,,,,,,834.6568154169945,834.6568154169945,834.6568154169945,834.6568154169945,834.6568154169945,834.6568154169945,834.6568154169945,834.6568154169945,834.6568154169945,834.6568154169945,a,1.1153085390105844,10,54,0,835.7912468760042,837.2930961200036,,,,,,,,,,,,,,,,,,,,,,,,,,,,,,,,,,,,,,,,,,,,,,,,,,,,,,,,,,,,,,,,,,,,,,,16861,2022-11-21_10h38.16.206,vts_reward_expectancy_bt_OFFLINE,2022.2.4,59.90117372623791,
0,0,0,1,0,0,1,0,star,hexagon,0,0,0,0,0,9,9,11,,,,,,,,,,,,,,,,,,,,,,,,,,,,,,,,,,,,,,,,837.7935735789943,837.7935735789943,837.7935735789943,837.7935735789943,837.7935735789943,837.7935735789943,837.7935735789943,837.7935735789943,837.7935735789943,837.7935735789943,l,0.7455983840045519,10,64,0,838.5610649529845,840.0627100709826,,,,,,,,,,,,,,,,,,,,,,,,,,,,,,,,,,,,,,,,,,,,,,,,,,,,,,,,,,,,,,,,,,,,,,,16861,2022-11-21_10h38.16.206,vts_reward_expectancy_bt_OFFLINE,2022.2.4,59.90117372623791,
0,0,0,1,1,0,0,0,star,triangle,0,0,0,0,0,10,10,9,,,,,,,,,,,,,,,,,,,,,,,,,,,,,,,,,,,,,,,,840.5632993670006,840.5632993670006,840.5632993670006,840.5632993670006,840.5632993670006,840.5632993670006,840.5632993670006,840.5632993670006,840.5632993670006,840.5632993670006,l,1.3530733870284166,10,74,0,841.9481119620032,843.4497684249945,,,,,,,,,,,,,,,,,,,,,,,,,,,,,,,,,,,,,,,,,,,,,,,,,,,,,,,,,,,,,,,,,,,,,,,16861,2022-11-21_10h38.16.206,vts_reward_expectancy_bt_OFFLINE,2022.2.4,59.90117372623791,
1,0,0,0,0,0,1,0,triangle,hexagon,0,0,0,0,0,11,11,1,,,,,,,,,,,,,,,,,,,,,,,,,,,,,,,,,,,,,,,,843.9504191879823,843.9504191879823,843.9504191879823,843.9504191879823,843.9504191879823,843.9504191879823,843.9504191879823,843.9504191879823,843.9504191879823,843.9504191879823,l,0.9116825569944922,1,75,0,844.8847617110005,846.3865023719845,,,,,,,,,,,,,,,,,,,,,,,,,,,,,,,,,,,,,,,,,,,,,,,,,,,,,,,,,,,,,,,,,,,,,,,16861,2022-11-21_10h38.16.206,vts_reward_expectancy_bt_OFFLINE,2022.2.4,59.90117372623791,
0,1,0,0,1,0,0,0,circle,triangle,0,0,0,0,1,0,12,3,,,,,,,,,,,,,,,,,,,,,,,,,,,,,,,,,,,,,,,,846.8869497199776,846.8869497199776,846.8869497199776,846.8869497199776,846.8869497199776,846.8869497199776,846.8869497199776,846.8869497199776,846.8869497199776,846.8869497199776,l,1.216286842012778,10,85,0,848.1217159869848,849.6232686569856,,,,,,,,,,,,,,,,,,,,,,,,,,,,,,,,,,,,,,,,,,,,,,,,,,,,,,,,,,,,,,,,,,,,,,,16861,2022-11-21_10h38.16.206,vts_reward_expectancy_bt_OFFLINE,2022.2.4,59.90117372623791,
0,1,0,0,0,0,0,1,circle,star,0,0,0,0,1,1,13,5,,,,,,,,,,,,,,,,,,,,,,,,,,,,,,,,,,,,,,,,850.1241086770024,850.1241086770024,850.1241086770024,850.1241086770024,850.1241086770024,850.1241086770024,850.1241086770024,850.1241086770024,850.1241086770024,850.1241086770024,a,0.6685594670125283,10,95,0,850.8248914970027,852.3263889999944,,,,,,,,,,,,,,,,,,,,,,,,,,,,,,,,,,,,,,,,,,,,,,,,,,,,,,,,,,,,,,,,,,,,,,,16861,2022-11-21_10h38.16.206,vts_reward_expectancy_bt_OFFLINE,2022.2.4,59.90117372623791,
0,0,0,1,0,0,1,0,star,hexagon,0,0,0,0,1,2,14,11,,,,,,,,,,,,,,,,,,,,,,,,,,,,,,,,,,,,,,,,852.8268675399886,852.8268675399886,852.8268675399886,852.8268675399886,852.8268675399886,852.8268675399886,852.8268675399886,852.8268675399886,852.8268675399886,852.8268675399886,l,0.9355195560201537,10,105,0,853.794622558984,855.2963017080037,,,,,,,,,,,,,,,,,,,,,,,,,,,,,,,,,,,,,,,,,,,,,,,,,,,,,,,,,,,,,,,,,,,,,,,16861,2022-11-21_10h38.16.206,vts_reward_expectancy_bt_OFFLINE,2022.2.4,59.90117372623791,
0,0,1,0,0,0,0,1,hexagon,star,0,0,0,0,1,3,15,8,,,,,,,,,,,,,,,,,,,,,,,,,,,,,,,,,,,,,,,,855.7969921460026,855.7969921460026,855.7969921460026,855.7969921460026,855.7969921460026,855.7969921460026,855.7969921460026,855.7969921460026,855.7969921460026,855.7969921460026,a,0.8685973540123086,1,106,0,856.698082339979,858.1994466949836,,,,,,,,,,,,,,,,,,,,,,,,,,,,,,,,,,,,,,,,,,,,,,,,,,,,,,,,,,,,,,,,,,,,,,,16861,2022-11-21_10h38.16.206,vts_reward_expectancy_bt_OFFLINE,2022.2.4,59.90117372623791,
0,0,1,0,1,0,0,0,hexagon,triangle,0,0,0,0,1,4,16,6,,,,,,,,,,,,,,,,,,,,,,,,,,,,,,,,,,,,,,,,858.7000391350011,858.7000391350011,858.7000391350011,858.7000391350011,858.7000391350011,858.7000391350011,858.7000391350011,858.7000391350011,858.7000391350011,858.7000391350011,a,1.2843116590229329,10,116,0,860.0013610879832,861.5030469469784,,,,,,,,,,,,,,,,,,,,,,,,,,,,,,,,,,,,,,,,,,,,,,,,,,,,,,,,,,,,,,,,,,,,,,,16861,2022-11-21_10h38.16.206,vts_reward_expectancy_bt_OFFLINE,2022.2.4,59.90117372623791,
1,0,0,0,0,0,1,0,triangle,hexagon,0,0,0,0,1,5,17,1,,,,,,,,,,,,,,,,,,,,,,,,,,,,,,,,,,,,,,,,862.003572186979,862.003572186979,862.003572186979,862.003572186979,862.003572186979,862.003572186979,862.003572186979,862.003572186979,862.003572186979,862.003572186979,l,0.8700607370119542,10,126,0,862.9045208930038,864.4062586649961,,,,,,,,,,,,,,,,,,,,,,,,,,,,,,,,,,,,,,,,,,,,,,,,,,,,,,,,,,,,,,,,,,,,,,,16861,2022-11-21_10h38.16.206,vts_reward_expectancy_bt_OFFLINE,2022.2.4,59.90117372623791,
1,0,0,0,0,1,0,0,triangle,circle,0,0,0,0,1,6,18,0,,,,,,,,,,,,,,,,,,,,,,,,,,,,,,,,,,,,,,,,864.9067872209998,864.9067872209998,864.9067872209998,864.9067872209998,864.9067872209998,864.9067872209998,864.9067872209998,864.9067872209998,864.9067872209998,864.9067872209998,a,1.1405768010008615,10,136,0,866.0748884920031,867.5764313109976,,,,,,,,,,,,,,,,,,,,,,,,,,,,,,,,,,,,,,,,,,,,,,,,,,,,,,,,,,,,,,,,,,,,,,,16861,2022-11-21_10h38.16.206,vts_reward_expectancy_bt_OFFLINE,2022.2.4,59.90117372623791,
0,1,0,0,0,0,1,0,circle,hexagon,0,0,0,0,1,7,19,4,,,,,,,,,,,,,,,,,,,,,,,,,,,,,,,,,,,,,,,,868.0771260199836,868.0771260199836,868.0771260199836,868.0771260199836,868.0771260199836,868.0771260199836,868.0771260199836,868.0771260199836,868.0771260199836,868.0771260199836,l,0.7258375819947105,10,146,0,868.8278629499837,870.3293973229884,,,,,,,,,,,,,,,,,,,,,,,,,,,,,,,,,,,,,,,,,,,,,,,,,,,,,,,,,,,,,,,,,,,,,,,16861,2022-11-21_10h38.16.206,vts_reward_expectancy_bt_OFFLINE,2022.2.4,59.90117372623791,
0,0,0,1,1,0,0,0,star,triangle,0,0,0,0,1,8,20,9,,,,,,,,,,,,,,,,,,,,,,,,,,,,,,,,,,,,,,,,870.8299735669862,870.8299735669862,870.8299735669862,870.8299735669862,870.8299735669862,870.8299735669862,870.8299735669862,870.8299735669862,870.8299735669862,870.8299735669862,a,1.0570815120008774,1,147,0,871.9145992489939,873.4161458269809,,,,,,,,,,,,,,,,,,,,,,,,,,,,,,,,,,,,,,,,,,,,,,,,,,,,,,,,,,,,,,,,,,,,,,,16861,2022-11-21_10h38.16.206,vts_reward_expectancy_bt_OFFLINE,2022.2.4,59.90117372623791,
0,0,0,1,0,1,0,0,star ,circle,0,0,0,0,1,9,21,10,,,,,,,,,,,,,,,,,,,,,,,,,,,,,,,,,,,,,,,,873.9168152489874,873.9168152489874,873.9168152489874,873.9168152489874,873.9168152489874,873.9168152489874,873.9168152489874,873.9168152489874,873.9168152489874,873.9168152489874,l,0.6234926310135052,1,148,0,874.5674493339902,876.0691185100004,,,,,,,,,,,,,,,,,,,,,,,,,,,,,,,,,,,,,,,,,,,,,,,,,,,,,,,,,,,,,,,,,,,,,,,16861,2022-11-21_10h38.16.206,vts_reward_expectancy_bt_OFFLINE,2022.2.4,59.90117372623791,
1,0,0,0,0,0,0,1,triangle,star,0,0,0,0,1,10,22,2,,,,,,,,,,,,,,,,,,,,,,,,,,,,,,,,,,,,,,,,876.5696761619765,876.5696761619765,876.5696761619765,876.5696761619765,876.5696761619765,876.5696761619765,876.5696761619765,876.5696761619765,876.5696761619765,876.5696761619765,a,0.6258683910127729,10,158,0,877.2204918049974,878.7220588999917,,,,,,,,,,,,,,,,,,,,,,,,,,,,,,,,,,,,,,,,,,,,,,,,,,,,,,,,,,,,,,,,,,,,,,,16861,2022-11-21_10h38.16.206,vts_reward_expectancy_bt_OFFLINE,2022.2.4,59.90117372623791,
0,0,1,0,0,1,0,0,hexagon,circle,0,0,0,0,1,11,23,7,,,,,,,,,,,,,,,,,,,,,,,,,,,,,,,,,,,,,,,,879.2225732299848,879.2225732299848,879.2225732299848,879.2225732299848,879.2225732299848,879.2225732299848,879.2225732299848,879.2225732299848,879.2225732299848,879.2225732299848,a,0.8865849310241174,1,159,0,880.1401908139815,881.6418160999892,,,,,,,,,,,,,,,,,,,,,,,,,,,,,,,,,,,,,,,,,,,,,,,,,,,,,,,,,,,,,,,,,,,,,,,16861,2022-11-21_10h38.16.206,vts_reward_expectancy_bt_OFFLINE,2022.2.4,59.90117372623791,
0,0,0,1,0,0,1,0,star,hexagon,0,0,0,0,2,0,24,11,,,,,,,,,,,,,,,,,,,,,,,,,,,,,,,,,,,,,,,,882.1425821569865,882.1425821569865,882.1425821569865,882.1425821569865,882.1425821569865,882.1425821569865,882.1425821569865,882.1425821569865,882.1425821569865,882.1425821569865,l,0.5906177040014882,1,160,0,882.7598595009767,884.2615183839807,,,,,,,,,,,,,,,,,,,,,,,,,,,,,,,,,,,,,,,,,,,,,,,,,,,,,,,,,,,,,,,,,,,,,,,16861,2022-11-21_10h38.16.206,vts_reward_expectancy_bt_OFFLINE,2022.2.4,59.90117372623791,
0,0,1,0,0,0,0,1,hexagon,star,0,0,0,0,2,1,25,8,,,,,,,,,,,,,,,,,,,,,,,,,,,,,,,,,,,,,,,,884.762131978001,884.762131978001,884.762131978001,884.762131978001,884.762131978001,884.762131978001,884.762131978001,884.762131978001,884.762131978001,884.762131978001,a,0.6691447790362872,10,170,0,885.4628748429823,886.9645308789914,,,,,,,,,,,,,,,,,,,,,,,,,,,,,,,,,,,,,,,,,,,,,,,,,,,,,,,,,,,,,,,,,,,,,,,16861,2022-11-21_10h38.16.206,vts_reward_expectancy_bt_OFFLINE,2022.2.4,59.90117372623791,
1,0,0,0,0,0,1,0,triangle,hexagon,0,0,0,0,2,2,26,1,,,,,,,,,,,,,,,,,,,,,,,,,,,,,,,,,,,,,,,,887.4653313320014,887.4653313320014,887.4653313320014,887.4653313320014,887.4653313320014,887.4653313320014,887.4653313320014,887.4653313320014,887.4653313320014,887.4653313320014,l,0.7446394380240235,10,180,0,888.2327041749959,889.7342536469805,,,,,,,,,,,,,,,,,,,,,,,,,,,,,,,,,,,,,,,,,,,,,,,,,,,,,,,,,,,,,,,,,,,,,,,16861,2022-11-21_10h38.16.206,vts_reward_expectancy_bt_OFFLINE,2022.2.4,59.90117372623791,
0,0,1,0,0,1,0,0,hexagon,circle,0,0,0,0,2,3,27,7,,,,,,,,,,,,,,,,,,,,,,,,,,,,,,,,,,,,,,,,890.2349861690018,890.2349861690018,890.2349861690018,890.2349861690018,890.2349861690018,890.2349861690018,890.2349861690018,890.2349861690018,890.2349861690018,890.2349861690018,l,0.6855878080241382,10,190,0,890.9522949809907,892.4539050339954,,,,,,,,,,,,,,,,,,,,,,,,,,,,,,,,,,,,,,,,,,,,,,,,,,,,,,,,,,,,,,,,,,,,,,,16861,2022-11-21_10h38.16.206,vts_reward_expectancy_bt_OFFLINE,2022.2.4,59.90117372623791,
0,1,0,0,1,0,0,0,circle,triangle,0,0,0,0,2,4,28,3,,,,,,,,,,,,,,,,,,,,,,,,,,,,,,,,,,,,,,,,892.954676238005,892.954676238005,892.954676238005,892.954676238005,892.954676238005,892.954676238005,892.954676238005,892.954676238005,892.954676238005,892.954676238005,a,0.835008951020427,1,191,0,893.8219844969863,895.3241162039922,,,,,,,,,,,,,,,,,,,,,,,,,,,,,,,,,,,,,,,,,,,,,,,,,,,,,,,,,,,,,,,,,,,,,,,16861,2022-11-21_10h38.16.206,vts_reward_expectancy_bt_OFFLINE,2022.2.4,59.90117372623791,
0,0,1,0,1,0,0,0,hexagon,triangle,0,0,0,0,2,5,29,6,,,,,,,,,,,,,,,,,,,,,,,,,,,,,,,,,,,,,,,,895.8243455219781,895.8243455219781,895.8243455219781,895.8243455219781,895.8243455219781,895.8243455219781,895.8243455219781,895.8243455219781,895.8243455219781,895.8243455219781,l,0.5992942220182158,10,201,0,896.4416909449792,897.9431962079834,,,,,,,,,,,,,,,,,,,,,,,,,,,,,,,,,,,,,,,,,,,,,,,,,,,,,,,,,,,,,,,,,,,,,,,16861,2022-11-21_10h38.16.206,vts_reward_expectancy_bt_OFFLINE,2022.2.4,59.90117372623791,
0,0,0,1,0,1,0,0,star ,circle,0,0,0,0,2,6,30,10,,,,,,,,,,,,,,,,,,,,,,,,,,,,,,,,,,,,,,,,898.4436755229835,898.4436755229835,898.4436755229835,898.4436755229835,898.4436755229835,898.4436755229835,898.4436755229835,898.4436755229835,898.4436755229835,898.4436755229835,l,0.6233616560057271,1,202,0,899.0945365469961,900.596097451984,,,,,,,,,,,,,,,,,,,,,,,,,,,,,,,,,,,,,,,,,,,,,,,,,,,,,,,,,,,,,,,,,,,,,,,16861,2022-11-21_10h38.16.206,vts_reward_expectancy_bt_OFFLINE,2022.2.4,59.90117372623791,
0,0,0,1,1,0,0,0,star,triangle,0,0,0,0,2,7,31,9,,,,,,,,,,,,,,,,,,,,,,,,,,,,,,,,,,,,,,,,901.0966015799786,901.0966015799786,901.0966015799786,901.0966015799786,901.0966015799786,901.0966015799786,901.0966015799786,901.0966015799786,901.0966015799786,901.0966015799786,l,0.6249079010158312,10,212,0,901.7474120859988,903.2489557929803,,,,,,,,,,,,,,,,,,,,,,,,,,,,,,,,,,,,,,,,,,,,,,,,,,,,,,,,,,,,,,,,,,,,,,,16861,2022-11-21_10h38.16.206,vts_reward_expectancy_bt_OFFLINE,2022.2.4,59.90117372623791,
0,1,0,0,0,0,1,0,circle,hexagon,0,0,0,0,2,8,32,4,,,,,,,,,,,,,,,,,,,,,,,,,,,,,,,,,,,,,,,,903.7495986519789,903.7495986519789,903.7495986519789,903.7495986519789,903.7495986519789,903.7495986519789,903.7495986519789,903.7495986519789,903.7495986519789,903.7495986519789,a,0.5942073570331559,1,213,0,904.3670090549858,905.8687045739789,,,,,,,,,,,,,,,,,,,,,,,,,,,,,,,,,,,,,,,,,,,,,,,,,,,,,,,,,,,,,,,,,,,,,,,16861,2022-11-21_10h38.16.206,vts_reward_expectancy_bt_OFFLINE,2022.2.4,59.90117372623791,
1,0,0,0,0,1,0,0,triangle,circle,0,0,0,0,2,9,33,0,,,,,,,,,,,,,,,,,,,,,,,,,,,,,,,,,,,,,,,,906.3692441500025,906.3692441500025,906.3692441500025,906.3692441500025,906.3692441500025,906.3692441500025,906.3692441500025,906.3692441500025,906.3692441500025,906.3692441500025,l,0.6181565590086393,1,214,0,907.0031645199924,908.5049461860035,908.5049461860035,,,,,,,,,,,,,,,,,,,,,,,,,,,,,,,,,,,,,,,,,,,,,,,,,,,,,,,,,,,,,,,,,,,,,,16861,2022-11-21_10h38.16.206,vts_reward_expectancy_bt_OFFLINE,2022.2.4,59.90117372623791,
1,0,0,0,0,0,0,1,triangle,star,0,0,0,0,2,10,34,2,,,,,,,,,,,,,,,,,,,,,,,,,,,,,,,,,,,,,,,,909.005805134977,909.005805134977,909.005805134977,909.005805134977,909.005805134977,909.005805134977,909.005805134977,909.005805134977,909.005805134977,909.005805134977,a,0.5229100470314734,1,215,0,909.5561795279791,911.0577137229848,,,,,,,,,,,,,,,,,,,,,,,,,,,,,,,,,,,,,,,,,,,,,,,,,,,,,,,,,,,,,,,,,,,,,,,16861,2022-11-21_10h38.16.206,vts_reward_expectancy_bt_OFFLINE,2022.2.4,59.90117372623791,
0,1,0,0,0,0,0,1,circle,star,0,0,0,0,2,11,35,5,,,,,,,,,,,,,,,,,,,,,,,,,,,,,,,,,,,,,,,,911.5584702839842,911.5584702839842,911.5584702839842,911.5584702839842,911.5584702839842,911.5584702839842,911.5584702839842,911.5584702839842,911.5584702839842,911.5584702839842,a,0.6026964830234647,1,216,0,912.1925592789776,913.693955131981,,,,,,,,,,,,,,,,,,,,,,,,,,,,,,,,,,,,,,,,,,,,,,,,,,,,,,,,,,,,,,,,,,,,,,,16861,2022-11-21_10h38.16.206,vts_reward_expectancy_bt_OFFLINE,2022.2.4,59.90117372623791,
0,1,0,0,0,0,0,1,circle,star,0,0,0,0,3,0,36,5,,,,,,,,,,,,,,,,,,,,,,,,,,,,,,,,,,,,,,,,914.194759992999,914.194759992999,914.194759992999,914.194759992999,914.194759992999,914.194759992999,914.194759992999,914.194759992999,914.194759992999,914.194759992999,a,0.6351225190155674,10,226,0,914.8619713439839,916.3635236090049,,,,,,,,,,,,,,,,,,,,,,,,,,,,,,,,,,,,,,,,,,,,,,,,,,,,,,,,,,,,,,,,,,,,,,,16861,2022-11-21_10h38.16.206,vts_reward_expectancy_bt_OFFLINE,2022.2.4,59.90117372623791,
0,0,1,0,0,0,0,1,hexagon,star,0,0,0,0,3,1,37,8,,,,,,,,,,,,,,,,,,,,,,,,,,,,,,,,,,,,,,,,916.8641164760047,916.8641164760047,916.8641164760047,916.8641164760047,916.8641164760047,916.8641164760047,916.8641164760047,916.8641164760047,916.8641164760047,916.8641164760047,a,0.43971315401722677,10,236,0,917.3312811409996,918.8329997760011,,,,,,,,,,,,,,,,,,,,,,,,,,,,,,,,,,,,,,,,,,,,,,,,,,,,,,,,,,,,,,,,,,,,,,,16861,2022-11-21_10h38.16.206,vts_reward_expectancy_bt_OFFLINE,2022.2.4,59.90117372623791,
0,0,1,0,1,0,0,0,hexagon,triangle,0,0,0,0,3,2,38,6,,,,,,,,,,,,,,,,,,,,,,,,,,,,,,,,,,,,,,,,919.3336061279988,919.3336061279988,919.3336061279988,919.3336061279988,919.3336061279988,919.3336061279988,919.3336061279988,919.3336061279988,919.3336061279988,919.3336061279988,a,0.5458695270353928,10,246,0,919.9008350629883,921.4024100489914,,,,,,,,,,,,,,,,,,,,,,,,,,,,,,,,,,,,,,,,,,,,,,,,,,,,,,,,,,,,,,,,,,,,,,,16861,2022-11-21_10h38.16.206,vts_reward_expectancy_bt_OFFLINE,2022.2.4,59.90117372623791,
1,0,0,0,0,0,0,1,triangle,star,0,0,0,0,3,3,39,2,,,,,,,,,,,,,,,,,,,,,,,,,,,,,,,,,,,,,,,,921.903075041977,921.903075041977,921.903075041977,921.903075041977,921.903075041977,921.903075041977,921.903075041977,921.903075041977,921.903075041977,921.903075041977,a,0.46263430701219477,10,256,0,922.3869385069993,923.8885245150013,,,,,,,,,,,,,,,,,,,,,,,,,,,,,,,,,,,,,,,,,,,,,,,,,,,,,,,,,,,,,,,,,,,,,,,16861,2022-11-21_10h38.16.206,vts_reward_expectancy_bt_OFFLINE,2022.2.4,59.90117372623791,
0,0,0,1,0,1,0,0,star ,circle,0,0,0,0,3,4,40,10,,,,,,,,,,,,,,,,,,,,,,,,,,,,,,,,,,,,,,,,924.3891459309962,924.3891459309962,924.3891459309962,924.3891459309962,924.3891459309962,924.3891459309962,924.3891459309962,924.3891459309962,924.3891459309962,924.3891459309962,a,0.531884385010926,10,266,0,924.9395948239835,926.441557588987,,,,,,,,,,,,,,,,,,,,,,,,,,,,,,,,,,,,,,,,,,,,,,,,,,,,,,,,,,,,,,,,,,,,,,,16861,2022-11-21_10h38.16.206,vts_reward_expectancy_bt_OFFLINE,2022.2.4,59.90117372623791,
1,0,0,0,0,0,1,0,triangle,hexagon,0,0,0,0,3,5,41,1,,,,,,,,,,,,,,,,,,,,,,,,,,,,,,,,,,,,,,,,926.9417700640042,926.9417700640042,926.9417700640042,926.9417700640042,926.9417700640042,926.9417700640042,926.9417700640042,926.9417700640042,926.9417700640042,926.9417700640042,l,0.7025553820130881,10,276,0,927.6760701949825,929.1777806890022,,,,,,,,,,,,,,,,,,,,,,,,,,,,,,,,,,,,,,,,,,,,,,,,,,,,,,,,,,,,,,,,,,,,,,,16861,2022-11-21_10h38.16.206,vts_reward_expectancy_bt_OFFLINE,2022.2.4,59.90117372623791,
1,0,0,0,0,1,0,0,triangle,circle,0,0,0,0,3,6,42,0,,,,,,,,,,,,,,,,,,,,,,,,,,,,,,,,,,,,,,,,929.678338511003,929.678338511003,929.678338511003,929.678338511003,929.678338511003,929.678338511003,929.678338511003,929.678338511003,929.678338511003,929.678338511003,a,0.7321281320182607,10,286,0,930.4291408749996,931.930790739978,931.930790739978,,,,,,,,,,,,,,,,,,,,,,,,,,,,,,,,,,,,,,,,,,,,,,,,,,,,,,,,,,,,,,,,,,,,,,16861,2022-11-21_10h38.16.206,vts_reward_expectancy_bt_OFFLINE,2022.2.4,59.90117372623791,
0,0,1,0,0,1,0,0,hexagon,circle,0,0,0,0,3,7,43,7,,,,,,,,,,,,,,,,,,,,,,,,,,,,,,,,,,,,,,,,932.4314464239869,932.4314464239869,932.4314464239869,932.4314464239869,932.4314464239869,932.4314464239869,932.4314464239869,932.4314464239869,932.4314464239869,932.4314464239869,l,0.7235746149963234,1,287,0,933.1822607879876,934.6839937969926,,,,,,,,,,,,,,,,,,,,,,,,,,,,,,,,,,,,,,,,,,,,,,,,,,,,,,,,,,,,,,,,,,,,,,,16861,2022-11-21_10h38.16.206,vts_reward_expectancy_bt_OFFLINE,2022.2.4,59.90117372623791,
0,1,0,0,1,0,0,0,circle,triangle,0,0,0,0,3,8,44,3,,,,,,,,,,,,,,,,,,,,,,,,,,,,,,,,,,,,,,,,935.1843313389982,935.1843313389982,935.1843313389982,935.1843313389982,935.1843313389982,935.1843313389982,935.1843313389982,935.1843313389982,935.1843313389982,935.1843313389982,a,0.5812930160318501,1,288,0,935.7852430869825,937.2866597959946,,,,,,,,,,,,,,,,,,,,,,,,,,,,,,,,,,,,,,,,,,,,,,,,,,,,,,,,,,,,,,,,,,,,,,,16861,2022-11-21_10h38.16.206,vts_reward_expectancy_bt_OFFLINE,2022.2.4,59.90117372623791,
0,0,0,1,0,0,1,0,star,hexagon,0,0,0,0,3,9,45,11,,,,,,,,,,,,,,,,,,,,,,,,,,,,,,,,,,,,,,,,937.7873062019935,937.7873062019935,937.7873062019935,937.7873062019935,937.7873062019935,937.7873062019935,937.7873062019935,937.7873062019935,937.7873062019935,937.7873062019935,l,0.702427547017578,1,289,0,938.5213647880009,940.0229782839888,,,,,,,,,,,,,,,,,,,,,,,,,,,,,,,,,,,,,,,,,,,,,,,,,,,,,,,,,,,,,,,,,,,,,,,16861,2022-11-21_10h38.16.206,vts_reward_expectancy_bt_OFFLINE,2022.2.4,59.90117372623791,
0,1,0,0,0,0,1,0,circle,hexagon,0,0,0,0,3,10,46,4,,,,,,,,,,,,,,,,,,,,,,,,,,,,,,,,,,,,,,,,940.5234794199932,940.5234794199932,940.5234794199932,940.5234794199932,940.5234794199932,940.5234794199932,940.5234794199932,940.5234794199932,940.5234794199932,940.5234794199932,a,0.49517216501408257,10,299,0,941.0406497969816,942.5424256679835,,,,,,,,,,,,,,,,,,,,,,,,,,,,,,,,,,,,,,,,,,,,,,,,,,,,,,,,,,,,,,,,,,,,,,,16861,2022-11-21_10h38.16.206,vts_reward_expectancy_bt_OFFLINE,2022.2.4,59.90117372623791,
0,0,0,1,1,0,0,0,star,triangle,0,0,0,0,3,11,47,9,,,,,,,,,,,,,,,,,,,,,,,,,,,,,,,,,,,,,,,,943.0429674649786,943.0429674649786,943.0429674649786,943.0429674649786,943.0429674649786,943.0429674649786,943.0429674649786,943.0429674649786,943.0429674649786,943.0429674649786,l,0.7000133110268507,10,309,0,943.7604405369784,945.2621962339908,,,,,,,,,,,,,,,,,,,,,,,,,,,,,,,,,,,,,,,,,,,,,,,,,,,,,,,,,,,,,,,,,,,,,,,16861,2022-11-21_10h38.16.206,vts_reward_expectancy_bt_OFFLINE,2022.2.4,59.90117372623791,
1,0,0,0,0,0,1,0,triangle,hexagon,1,0,1,0,0,0,0,1,,,,,,,,,,,,,,,,,,,,,,,,,,,,,,,,,,,,,,,,953.726337508997,953.726337508997,953.726337508997,953.726337508997,953.726337508997,953.726337508997,953.726337508997,953.726337508997,953.726337508997,953.726337508997,a,0.8381389510177542,10,319,1,954.5891411239863,956.0907226759882,,,,,,,,,,,,,,,,,,,,,,,,,,,,,,,,,,,,,,,,,,,,,,,,,,,,,,,,,,,,,,,,,,,,,,,16861,2022-11-21_10h38.16.206,vts_reward_expectancy_bt_OFFLINE,2022.2.4,59.90117372623791,
0,0,1,0,0,1,0,0,hexagon,circle,1,0,1,0,0,1,1,7,,,,,,,,,,,,,,,,,,,,,,,,,,,,,,,,,,,,,,,,956.5912158299761,956.5912158299761,956.5912158299761,956.5912158299761,956.5912158299761,956.5912158299761,956.5912158299761,956.5912158299761,956.5912158299761,956.5912158299761,a,0.12266479001846164,1,320,1,956.7415283419832,958.2432012129866,,,,,,,,,,,,,,,,,,,,,,,,,,,,,,,,,,,,,,,,,,,,,,,,,,,,,,,,,,,,,,,,,,,,,,,16861,2022-11-21_10h38.16.206,vts_reward_expectancy_bt_OFFLINE,2022.2.4,59.90117372623791,
0,0,0,1,1,0,0,0,star,triangle,1,0,1,0,0,2,2,9,,,,,,,,,,,,,,,,,,,,,,,,,,,,,,,,,,,,,,,,958.7436865569907,958.7436865569907,958.7436865569907,958.7436865569907,958.7436865569907,958.7436865569907,958.7436865569907,958.7436865569907,958.7436865569907,958.7436865569907,l,0.5565697959973477,10,330,1,959.3278311099857,960.8293056209804,,,,,,,,,,,,,,,,,,,,,,,,,,,,,,,,,,,,,,,,,,,,,,,,,,,,,,,,,,,,,,,,,,,,,,,16861,2022-11-21_10h38.16.206,vts_reward_expectancy_bt_OFFLINE,2022.2.4,59.90117372623791,
0,0,1,0,1,0,0,0,hexagon,triangle,1,0,1,0,0,3,3,6,,,,,,,,,,,,,,,,,,,,,,,,,,,,,,,,,,,,,,,,961.3298579799884,961.3298579799884,961.3298579799884,961.3298579799884,961.3298579799884,961.3298579799884,961.3298579799884,961.3298579799884,961.3298579799884,961.3298579799884,a,0.873995683999965,10,340,1,962.2309165079787,963.7327611539804,,,,,,,,,,,,,,,,,,,,,,,,,,,,,,,,,,,,,,,,,,,,,,,,,,,,,,,,,,,,,,,,,,,,,,,16861,2022-11-21_10h38.16.206,vts_reward_expectancy_bt_OFFLINE,2022.2.4,59.90117372623791,
0,0,1,0,0,0,0,1,hexagon,star,1,0,1,0,0,4,4,8,,,,,,,,,,,,,,,,,,,,,,,,,,,,,,,,,,,,,,,,964.2331181949994,964.2331181949994,964.2331181949994,964.2331181949994,964.2331181949994,964.2331181949994,964.2331181949994,964.2331181949994,964.2331181949994,964.2331181949994,a,0.8280492920312099,10,350,1,965.0843094860029,966.5856822569913,,,,,,,,,,,,,,,,,,,,,,,,,,,,,,,,,,,,,,,,,,,,,,,,,,,,,,,,,,,,,,,,,,,,,,,16861,2022-11-21_10h38.16.206,vts_reward_expectancy_bt_OFFLINE,2022.2.4,59.90117372623791,
0,1,0,0,0,0,1,0,circle,hexagon,1,0,1,0,0,5,5,4,,,,,,,,,,,,,,,,,,,,,,,,,,,,,,,,,,,,,,,,967.0862333079858,967.0862333079858,967.0862333079858,967.0862333079858,967.0862333079858,967.0862333079858,967.0862333079858,967.0862333079858,967.0862333079858,967.0862333079858,l,0.9120181830076035,1,351,1,968.0209096839826,969.5223167309887,,,,,,,,,,,,,,,,,,,,,,,,,,,,,,,,,,,,,,,,,,,,,,,,,,,,,,,,,,,,,,,,,,,,,,,16861,2022-11-21_10h38.16.206,vts_reward_expectancy_bt_OFFLINE,2022.2.4,59.90117372623791,
0,1,0,0,0,0,0,1,circle,star,1,0,1,0,0,6,6,5,,,,,,,,,,,,,,,,,,,,,,,,,,,,,,,,,,,,,,,,970.0231964989798,970.0231964989798,970.0231964989798,970.0231964989798,970.0231964989798,970.0231964989798,970.0231964989798,970.0231964989798,970.0231964989798,970.0231964989798,l,0.9902698820224032,1,352,1,971.0405459979957,972.5422601239989,,,,,,,,,,,,,,,,,,,,,,,,,,,,,,,,,,,,,,,,,,,,,,,,,,,,,,,,,,,,,,,,,,,,,,,16861,2022-11-21_10h38.16.206,vts_reward_expectancy_bt_OFFLINE,2022.2.4,59.90117372623791,
1,0,0,0,0,0,0,1,triangle,star,1,0,1,0,0,7,7,2,,,,,,,,,,,,,,,,,,,,,,,,,,,,,,,,,,,,,,,,973.0427341619798,973.0427341619798,973.0427341619798,973.0427341619798,973.0427341619798,973.0427341619798,973.0427341619798,973.0427341619798,973.0427341619798,973.0427341619798,a,0.8272001470322721,10,362,1,973.8938264689932,975.395458953979,,,,,,,,,,,,,,,,,,,,,,,,,,,,,,,,,,,,,,,,,,,,,,,,,,,,,,,,,,,,,,,,,,,,,,,16861,2022-11-21_10h38.16.206,vts_reward_expectancy_bt_OFFLINE,2022.2.4,59.90117372623791,
0,0,0,1,0,1,0,0,star ,circle,1,0,1,0,0,8,8,10,,,,,,,,,,,,,,,,,,,,,,,,,,,,,,,,,,,,,,,,975.895992714999,975.895992714999,975.895992714999,975.895992714999,975.895992714999,975.895992714999,975.895992714999,975.895992714999,975.895992714999,975.895992714999,l,0.6736612140084617,1,363,1,976.5967845229898,978.0985345929803,,,,,,,,,,,,,,,,,,,,,,,,,,,,,,,,,,,,,,,,,,,,,,,,,,,,,,,,,,,,,,,,,,,,,,,16861,2022-11-21_10h38.16.206,vts_reward_expectancy_bt_OFFLINE,2022.2.4,59.90117372623791,
0,1,0,0,1,0,0,0,circle,triangle,1,0,1,0,0,9,9,3,,,,,,,,,,,,,,,,,,,,,,,,,,,,,,,,,,,,,,,,978.5989268779813,978.5989268779813,978.5989268779813,978.5989268779813,978.5989268779813,978.5989268779813,978.5989268779813,978.5989268779813,978.5989268779813,978.5989268779813,l,1.6522476440295577,1,364,1,980.2675866269856,981.7690609209822,981.7690609209822,,,,,,,,,,,,,,,,,,,,,,,,,,,,,,,,,,,,,,,,,,,,,,,,,,,,,,,,,,,,,,,,,,,,,,16861,2022-11-21_10h38.16.206,vts_reward_expectancy_bt_OFFLINE,2022.2.4,59.90117372623791,
1,0,0,0,0,1,0,0,triangle,circle,1,0,1,0,0,10,10,0,,,,,,,,,,,,,,,,,,,,,,,,,,,,,,,,,,,,,,,,982.269646560977,982.269646560977,982.269646560977,982.269646560977,982.269646560977,982.269646560977,982.269646560977,982.269646560977,982.269646560977,982.269646560977,a,0.7351413329888601,10,374,1,983.0370819809905,984.5393443880021,,,,,,,,,,,,,,,,,,,,,,,,,,,,,,,,,,,,,,,,,,,,,,,,,,,,,,,,,,,,,,,,,,,,,,,16861,2022-11-21_10h38.16.206,vts_reward_expectancy_bt_OFFLINE,2022.2.4,59.90117372623791,
0,0,0,1,0,0,1,0,star,hexagon,1,0,1,0,0,11,11,11,,,,,,,,,,,,,,,,,,,,,,,,,,,,,,,,,,,,,,,,985.0392826570023,985.0392826570023,985.0392826570023,985.0392826570023,985.0392826570023,985.0392826570023,985.0392826570023,985.0392826570023,985.0392826570023,985.0392826570023,l,0.6552841530065052,10,384,1,985.7233813519997,987.2249301529955,,,,,,,,,,,,,,,,,,,,,,,,,,,,,,,,,,,,,,,,,,,,,,,,,,,,,,,,,,,,,,,,,,,,,,,16861,2022-11-21_10h38.16.206,vts_reward_expectancy_bt_OFFLINE,2022.2.4,59.90117372623791,
1,0,0,0,0,0,1,0,triangle,hexagon,1,0,1,0,1,0,12,1,,,,,,,,,,,,,,,,,,,,,,,,,,,,,,,,,,,,,,,,987.7256045700051,987.7256045700051,987.7256045700051,987.7256045700051,987.7256045700051,987.7256045700051,987.7256045700051,987.7256045700051,987.7256045700051,987.7256045700051,a,1.6246004500135314,10,394,1,989.3775318299886,990.8791992990009,,,,,,,,,,,,,,,,,,,,,,,,,,,,,,,,,,,,,,,,,,,,,,,,,,,,,,,,,,,,,,,,,,,,,,,16861,2022-11-21_10h38.16.206,vts_reward_expectancy_bt_OFFLINE,2022.2.4,59.90117372623791,
0,0,1,0,1,0,0,0,hexagon,triangle,1,0,1,0,1,1,13,6,,,,,,,,,,,,,,,,,,,,,,,,,,,,,,,,,,,,,,,,991.3796674219775,991.3796674219775,991.3796674219775,991.3796674219775,991.3796674219775,991.3796674219775,991.3796674219775,991.3796674219775,991.3796674219775,991.3796674219775,l,2.459330852027051,10,404,1,993.8657153550012,995.367485669005,,,,,,,,,,,,,,,,,,,,,,,,,,,,,,,,,,,,,,,,,,,,,,,,,,,,,,,,,,,,,,,,,,,,,,,16861,2022-11-21_10h38.16.206,vts_reward_expectancy_bt_OFFLINE,2022.2.4,59.90117372623791,
1,0,0,0,0,1,0,0,triangle,circle,1,0,1,0,1,2,14,0,,,,,,,,,,,,,,,,,,,,,,,,,,,,,,,,,,,,,,,,995.8679499569989,995.8679499569989,995.8679499569989,995.8679499569989,995.8679499569989,995.8679499569989,995.8679499569989,995.8679499569989,995.8679499569989,995.8679499569989,l,1.3466991859895643,1,405,1,997.2361940190021,998.737922425993,,,,,,,,,,,,,,,,,,,,,,,,,,,,,,,,,,,,,,,,,,,,,,,,,,,,,,,,,,,,,,,,,,,,,,,16861,2022-11-21_10h38.16.206,vts_reward_expectancy_bt_OFFLINE,2022.2.4,59.90117372623791,
0,0,0,1,0,0,1,0,star,hexagon,1,0,1,0,1,3,15,11,,,,,,,,,,,,,,,,,,,,,,,,,,,,,,,,,,,,,,,,999.238348902989,999.238348902989,999.238348902989,999.238348902989,999.238348902989,999.238348902989,999.238348902989,999.238348902989,999.238348902989,999.238348902989,a,0.9579484760179184,1,406,1,1000.2228261349956,1001.72447504499,,,,,,,,,,,,,,,,,,,,,,,,,,,,,,,,,,,,,,,,,,,,,,,,,,,,,,,,,,,,,,,,,,,,,,,16861,2022-11-21_10h38.16.206,vts_reward_expectancy_bt_OFFLINE,2022.2.4,59.90117372623791,
1,0,0,0,0,0,0,1,triangle,star,1,0,1,0,1,4,16,2,,,,,,,,,,,,,,,,,,,,,,,,,,,,,,,,,,,,,,,,1002.2250386480009,1002.2250386480009,1002.2250386480009,1002.2250386480009,1002.2250386480009,1002.2250386480009,1002.2250386480009,1002.2250386480009,1002.2250386480009,1002.2250386480009,a,0.5478606750257313,10,416,1,1002.7923815129907,1004.2938745239808,,,,,,,,,,,,,,,,,,,,,,,,,,,,,,,,,,,,,,,,,,,,,,,,,,,,,,,,,,,,,,,,,,,,,,,16861,2022-11-21_10h38.16.206,vts_reward_expectancy_bt_OFFLINE,2022.2.4,59.90117372623791,
0,1,0,0,1,0,0,0,circle,triangle,1,0,1,0,1,5,17,3,,,,,,,,,,,,,,,,,,,,,,,,,,,,,,,,,,,,,,,,1004.7944987039955,1004.7944987039955,1004.7944987039955,1004.7944987039955,1004.7944987039955,1004.7944987039955,1004.7944987039955,1004.7944987039955,1004.7944987039955,1004.7944987039955,a,0.6435260540165473,1,417,1,1005.4617141159833,1006.9634754639992,,,,,,,,,,,,,,,,,,,,,,,,,,,,,,,,,,,,,,,,,,,,,,,,,,,,,,,,,,,,,,,,,,,,,,,16861,2022-11-21_10h38.16.206,vts_reward_expectancy_bt_OFFLINE,2022.2.4,59.90117372623791,
0,1,0,0,0,0,1,0,circle,hexagon,1,0,1,0,1,6,18,4,,,,,,,,,,,,,,,,,,,,,,,,,,,,,,,,,,,,,,,,1007.4639407949871,1007.4639407949871,1007.4639407949871,1007.4639407949871,1007.4639407949871,1007.4639407949871,1007.4639407949871,1007.4639407949871,1007.4639407949871,1007.4639407949871,l,0.5731650410161819,10,427,1,1008.0646983009938,1009.5664458969841,,,,,,,,,,,,,,,,,,,,,,,,,,,,,,,,,,,,,,,,,,,,,,,,,,,,,,,,,,,,,,,,,,,,,,,16861,2022-11-21_10h38.16.206,vts_reward_expectancy_bt_OFFLINE,2022.2.4,59.90117372623791,
0,0,0,1,0,1,0,0,star ,circle,1,0,1,0,1,7,19,10,,,,,,,,,,,,,,,,,,,,,,,,,,,,,,,,,,,,,,,,1010.0669319469889,1010.0669319469889,1010.0669319469889,1010.0669319469889,1010.0669319469889,1010.0669319469889,1010.0669319469889,1010.0669319469889,1010.0669319469889,1010.0669319469889,l,0.6371460870141163,1,428,1,1010.7343985789921,1012.2359678359935,,,,,,,,,,,,,,,,,,,,,,,,,,,,,,,,,,,,,,,,,,,,,,,,,,,,,,,,,,,,,,,,,,,,,,,16861,2022-11-21_10h38.16.206,vts_reward_expectancy_bt_OFFLINE,2022.2.4,59.90117372623791,
0,0,0,1,1,0,0,0,star,triangle,1,0,1,0,1,8,20,9,,,,,,,,,,,,,,,,,,,,,,,,,,,,,,,,,,,,,,,,1012.73646034798,1012.73646034798,1012.73646034798,1012.73646034798,1012.73646034798,1012.73646034798,1012.73646034798,1012.73646034798,1012.73646034798,1012.73646034798,a,0.6231796820065938,1,429,1,1013.3871573299984,1014.8888872079842,,,,,,,,,,,,,,,,,,,,,,,,,,,,,,,,,,,,,,,,,,,,,,,,,,,,,,,,,,,,,,,,,,,,,,,16861,2022-11-21_10h38.16.206,vts_reward_expectancy_bt_OFFLINE,2022.2.4,59.90117372623791,
0,1,0,0,0,0,0,1,circle,star,1,0,1,0,1,9,21,5,,,,,,,,,,,,,,,,,,,,,,,,,,,,,,,,,,,,,,,,1015.389647576987,1015.389647576987,1015.389647576987,1015.389647576987,1015.389647576987,1015.389647576987,1015.389647576987,1015.389647576987,1015.389647576987,1015.389647576987,a,0.5013308180205058,1,430,1,1015.9235309590003,1017.4251044809935,,,,,,,,,,,,,,,,,,,,,,,,,,,,,,,,,,,,,,,,,,,,,,,,,,,,,,,,,,,,,,,,,,,,,,,16861,2022-11-21_10h38.16.206,vts_reward_expectancy_bt_OFFLINE,2022.2.4,59.90117372623791,
0,0,1,0,0,0,0,1,hexagon,star,1,0,1,0,1,10,22,8,,,,,,,,,,,,,,,,,,,,,,,,,,,,,,,,,,,,,,,,1017.9255867500033,1017.9255867500033,1017.9255867500033,1017.9255867500033,1017.9255867500033,1017.9255867500033,1017.9255867500033,1017.9255867500033,1017.9255867500033,1017.9255867500033,l,0.7102944240323268,1,431,1,1018.6600557429774,1020.1615851660026,,,,,,,,,,,,,,,,,,,,,,,,,,,,,,,,,,,,,,,,,,,,,,,,,,,,,,,,,,,,,,,,,,,,,,,16861,2022-11-21_10h38.16.206,vts_reward_expectancy_bt_OFFLINE,2022.2.4,59.90117372623791,
0,0,1,0,0,1,0,0,hexagon,circle,1,0,1,0,1,11,23,7,,,,,,,,,,,,,,,,,,,,,,,,,,,,,,,,,,,,,,,,1020.6619580809784,1020.6619580809784,1020.6619580809784,1020.6619580809784,1020.6619580809784,1020.6619580809784,1020.6619580809784,1020.6619580809784,1020.6619580809784,1020.6619580809784,a,0.5609688630211167,10,441,1,1021.246012218995,1022.7477437249909,,,,,,,,,,,,,,,,,,,,,,,,,,,,,,,,,,,,,,,,,,,,,,,,,,,,,,,,,,,,,,,,,,,,,,,16861,2022-11-21_10h38.16.206,vts_reward_expectancy_bt_OFFLINE,2022.2.4,59.90117372623791,
0,0,0,1,0,0,1,0,star,hexagon,1,0,1,0,2,0,24,11,,,,,,,,,,,,,,,,,,,,,,,,,,,,,,,,,,,,,,,,1023.2484481679858,1023.2484481679858,1023.2484481679858,1023.2484481679858,1023.2484481679858,1023.2484481679858,1023.2484481679858,1023.2484481679858,1023.2484481679858,1023.2484481679858,l,0.6189007989887614,10,451,1,1023.8987144839775,1025.4005045109952,,,,,,,,,,,,,,,,,,,,,,,,,,,,,,,,,,,,,,,,,,,,,,,,,,,,,,,,,,,,,,,,,,,,,,,16861,2022-11-21_10h38.16.206,vts_reward_expectancy_bt_OFFLINE,2022.2.4,59.90117372623791,
0,1,0,0,1,0,0,0,circle,triangle,1,0,1,0,2,1,25,3,,,,,,,,,,,,,,,,,,,,,,,,,,,,,,,,,,,,,,,,1025.9010735129996,1025.9010735129996,1025.9010735129996,1025.9010735129996,1025.9010735129996,1025.9010735129996,1025.9010735129996,1025.9010735129996,1025.9010735129996,1025.9010735129996,a,0.5762960220163222,1,452,1,1026.5017295619764,1028.0033795119962,,,,,,,,,,,,,,,,,,,,,,,,,,,,,,,,,,,,,,,,,,,,,,,,,,,,,,,,,,,,,,,,,,,,,,,16861,2022-11-21_10h38.16.206,vts_reward_expectancy_bt_OFFLINE,2022.2.4,59.90117372623791,
0,0,0,1,1,0,0,0,star,triangle,1,0,1,0,2,2,26,9,,,,,,,,,,,,,,,,,,,,,,,,,,,,,,,,,,,,,,,,1028.504057833983,1028.504057833983,1028.504057833983,1028.504057833983,1028.504057833983,1028.504057833983,1028.504057833983,1028.504057833983,1028.504057833983,1028.504057833983,l,0.5161024880071636,10,462,1,1029.0379331430013,1030.5394707969972,1030.5394707969972,,,,,,,,,,,,,,,,,,,,,,,,,,,,,,,,,,,,,,,,,,,,,,,,,,,,,,,,,,,,,,,,,,,,,,16861,2022-11-21_10h38.16.206,vts_reward_expectancy_bt_OFFLINE,2022.2.4,59.90117372623791,
0,0,1,0,0,0,0,1,hexagon,star,1,0,1,0,2,3,27,8,,,,,,,,,,,,,,,,,,,,,,,,,,,,,,,,,,,,,,,,1031.039989352983,1031.039989352983,1031.039989352983,1031.039989352983,1031.039989352983,1031.039989352983,1031.039989352983,1031.039989352983,1031.039989352983,1031.039989352983,a,0.8698704080015887,1,463,1,1031.9409853819816,1033.4427343139832,,,,,,,,,,,,,,,,,,,,,,,,,,,,,,,,,,,,,,,,,,,,,,,,,,,,,,,,,,,,,,,,,,,,,,,16861,2022-11-21_10h38.16.206,vts_reward_expectancy_bt_OFFLINE,2022.2.4,59.90117372623791,
0,0,0,1,0,1,0,0,star ,circle,1,0,1,0,2,4,28,10,,,,,,,,,,,,,,,,,,,,,,,,,,,,,,,,,,,,,,,,1033.9437303779996,1033.9437303779996,1033.9437303779996,1033.9437303779996,1033.9437303779996,1033.9437303779996,1033.9437303779996,1033.9437303779996,1033.9437303779996,1033.9437303779996,l,0.6017058950092178,1,464,1,1034.5774712330021,1036.0789290459943,,,,,,,,,,,,,,,,,,,,,,,,,,,,,,,,,,,,,,,,,,,,,,,,,,,,,,,,,,,,,,,,,,,,,,,16861,2022-11-21_10h38.16.206,vts_reward_expectancy_bt_OFFLINE,2022.2.4,59.90117372623791,
0,0,1,0,1,0,0,0,hexagon,triangle,1,0,1,0,2,5,29,6,,,,,,,,,,,,,,,,,,,,,,,,,,,,,,,,,,,,,,,,1036.5797966139799,1036.5797966139799,1036.5797966139799,1036.5797966139799,1036.5797966139799,1036.5797966139799,1036.5797966139799,1036.5797966139799,1036.5797966139799,1036.5797966139799,a,0.5627564809983596,10,474,1,1037.1635673589772,1038.6652209029999,,,,,,,,,,,,,,,,,,,,,,,,,,,,,,,,,,,,,,,,,,,,,,,,,,,,,,,,,,,,,,,,,,,,,,,16861,2022-11-21_10h38.16.206,vts_reward_expectancy_bt_OFFLINE,2022.2.4,59.90117372623791,
1,0,0,0,0,0,1,0,triangle,hexagon,1,0,1,0,2,6,30,1,,,,,,,,,,,,,,,,,,,,,,,,,,,,,,,,,,,,,,,,1039.1658894009888,1039.1658894009888,1039.1658894009888,1039.1658894009888,1039.1658894009888,1039.1658894009888,1039.1658894009888,1039.1658894009888,1039.1658894009888,1039.1658894009888,a,0.6316484790295362,10,484,1,1039.8166519279766,1041.318202163995,,,,,,,,,,,,,,,,,,,,,,,,,,,,,,,,,,,,,,,,,,,,,,,,,,,,,,,,,,,,,,,,,,,,,,,16861,2022-11-21_10h38.16.206,vts_reward_expectancy_bt_OFFLINE,2022.2.4,59.90117372623791,
1,0,0,0,0,0,0,1,triangle,star,1,0,1,0,2,7,31,2,,,,,,,,,,,,,,,,,,,,,,,,,,,,,,,,,,,,,,,,1041.8188940410037,1041.8188940410037,1041.8188940410037,1041.8188940410037,1041.8188940410037,1041.8188940410037,1041.8188940410037,1041.8188940410037,1041.8188940410037,1041.8188940410037,a,1.4430893539974932,10,494,1,1043.2870087699848,1044.7887375869905,,,,,,,,,,,,,,,,,,,,,,,,,,,,,,,,,,,,,,,,,,,,,,,,,,,,,,,,,,,,,,,,,,,,,,,16861,2022-11-21_10h38.16.206,vts_reward_expectancy_bt_OFFLINE,2022.2.4,59.90117372623791,
1,0,0,0,0,1,0,0,triangle,circle,1,0,1,0,2,8,32,0,,,,,,,,,,,,,,,,,,,,,,,,,,,,,,,,,,,,,,,,1045.2891621099843,1045.2891621099843,1045.2891621099843,1045.2891621099843,1045.2891621099843,1045.2891621099843,1045.2891621099843,1045.2891621099843,1045.2891621099843,1045.2891621099843,a,0.4936933270073496,10,504,1,1045.8062997109955,1047.308121907001,,,,,,,,,,,,,,,,,,,,,,,,,,,,,,,,,,,,,,,,,,,,,,,,,,,,,,,,,,,,,,,,,,,,,,,16861,2022-11-21_10h38.16.206,vts_reward_expectancy_bt_OFFLINE,2022.2.4,59.90117372623791,
0,1,0,0,0,0,1,0,circle,hexagon,1,0,1,0,2,9,33,4,,,,,,,,,,,,,,,,,,,,,,,,,,,,,,,,,,,,,,,,1047.808583518985,1047.808583518985,1047.808583518985,1047.808583518985,1047.808583518985,1047.808583518985,1047.808583518985,1047.808583518985,1047.808583518985,1047.808583518985,a,0.25728555698879063,1,505,1,1048.0922935759882,1049.5940295589971,,,,,,,,,,,,,,,,,,,,,,,,,,,,,,,,,,,,,,,,,,,,,,,,,,,,,,,,,,,,,,,,,,,,,,,16861,2022-11-21_10h38.16.206,vts_reward_expectancy_bt_OFFLINE,2022.2.4,59.90117372623791,
0,0,1,0,0,1,0,0,hexagon,circle,1,0,1,0,2,10,34,7,,,,,,,,,,,,,,,,,,,,,,,,,,,,,,,,,,,,,,,,1050.0944683050038,1050.0944683050038,1050.0944683050038,1050.0944683050038,1050.0944683050038,1050.0944683050038,1050.0944683050038,1050.0944683050038,1050.0944683050038,1050.0944683050038,l,0.41358084601233713,1,506,1,1050.5283745240013,1052.0303807349992,,,,,,,,,,,,,,,,,,,,,,,,,,,,,,,,,,,,,,,,,,,,,,,,,,,,,,,,,,,,,,,,,,,,,,,16861,2022-11-21_10h38.16.206,vts_reward_expectancy_bt_OFFLINE,2022.2.4,59.90117372623791,
0,1,0,0,0,0,0,1,circle,star,1,0,1,0,2,11,35,5,,,,,,,,,,,,,,,,,,,,,,,,,,,,,,,,,,,,,,,,1052.5307347920025,1052.5307347920025,1052.5307347920025,1052.5307347920025,1052.5307347920025,1052.5307347920025,1052.5307347920025,1052.5307347920025,1052.5307347920025,1052.5307347920025,a,0.4847041550092399,1,507,1,1053.0477937249816,1054.549477402994,,,,,,,,,,,,,,,,,,,,,,,,,,,,,,,,,,,,,,,,,,,,,,,,,,,,,,,,,,,,,,,,,,,,,,,16861,2022-11-21_10h38.16.206,vts_reward_expectancy_bt_OFFLINE,2022.2.4,59.90117372623791,
0,1,0,0,0,0,0,1,circle,star,1,0,1,0,3,0,36,5,,,,,,,,,,,,,,,,,,,,,,,,,,,,,,,,,,,,,,,,1055.050004944991,1055.050004944991,1055.050004944991,1055.050004944991,1055.050004944991,1055.050004944991,1055.050004944991,1055.050004944991,1055.050004944991,1055.050004944991,l,1.0261155870102812,1,508,1,1056.101207190979,1057.6029229279957,,,,,,,,,,,,,,,,,,,,,,,,,,,,,,,,,,,,,,,,,,,,,,,,,,,,,,,,,,,,,,,,,,,,,,,16861,2022-11-21_10h38.16.206,vts_reward_expectancy_bt_OFFLINE,2022.2.4,59.90117372623791,
0,1,0,0,0,0,1,0,circle,hexagon,1,0,1,0,3,1,37,4,,,,,,,,,,,,,,,,,,,,,,,,,,,,,,,,,,,,,,,,1058.1034062909894,1058.1034062909894,1058.1034062909894,1058.1034062909894,1058.1034062909894,1058.1034062909894,1058.1034062909894,1058.1034062909894,1058.1034062909894,1058.1034062909894,l,0.6400311470206361,10,518,1,1058.7708454449894,1060.2723973910033,,,,,,,,,,,,,,,,,,,,,,,,,,,,,,,,,,,,,,,,,,,,,,,,,,,,,,,,,,,,,,,,,,,,,,,16861,2022-11-21_10h38.16.206,vts_reward_expectancy_bt_OFFLINE,2022.2.4,59.90117372623791,
0,0,1,0,0,1,0,0,hexagon,circle,1,0,1,0,3,2,38,7,,,,,,,,,,,,,,,,,,,,,,,,,,,,,,,,,,,,,,,,1060.7730757499812,1060.7730757499812,1060.7730757499812,1060.7730757499812,1060.7730757499812,1060.7730757499812,1060.7730757499812,1060.7730757499812,1060.7730757499812,1060.7730757499812,a,0.9188026649935637,10,528,1,1061.7239410869952,1063.225538676983,,,,,,,,,,,,,,,,,,,,,,,,,,,,,,,,,,,,,,,,,,,,,,,,,,,,,,,,,,,,,,,,,,,,,,,16861,2022-11-21_10h38.16.206,vts_reward_expectancy_bt_OFFLINE,2022.2.4,59.90117372623791,
0,0,0,1,0,1,0,0,star ,circle,1,0,1,0,3,3,39,10,,,,,,,,,,,,,,,,,,,,,,,,,,,,,,,,,,,,,,,,1063.726133463002,1063.726133463002,1063.726133463002,1063.726133463002,1063.726133463002,1063.726133463002,1063.726133463002,1063.726133463002,1063.726133463002,1063.726133463002,l,0.6524682450399268,1,529,1,1064.410113824997,1065.9118930549885,,,,,,,,,,,,,,,,,,,,,,,,,,,,,,,,,,,,,,,,,,,,,,,,,,,,,,,,,,,,,,,,,,,,,,,16861,2022-11-21_10h38.16.206,vts_reward_expectancy_bt_OFFLINE,2022.2.4,59.90117372623791,
0,0,0,1,1,0,0,0,star,triangle,1,0,1,0,3,4,40,9,,,,,,,,,,,,,,,,,,,,,,,,,,,,,,,,,,,,,,,,1066.4123695489834,1066.4123695489834,1066.4123695489834,1066.4123695489834,1066.4123695489834,1066.4123695489834,1066.4123695489834,1066.4123695489834,1066.4123695489834,1066.4123695489834,l,1.52101285601384,10,539,1,1067.9641336399945,1069.4659403279948,,,,,,,,,,,,,,,,,,,,,,,,,,,,,,,,,,,,,,,,,,,,,,,,,,,,,,,,,,,,,,,,,,,,,,,16861,2022-11-21_10h38.16.206,vts_reward_expectancy_bt_OFFLINE,2022.2.4,59.90117372623791,
0,1,0,0,1,0,0,0,circle,triangle,1,0,1,0,3,5,41,3,,,,,,,,,,,,,,,,,,,,,,,,,,,,,,,,,,,,,,,,1069.9663972650014,1069.9663972650014,1069.9663972650014,1069.9663972650014,1069.9663972650014,1069.9663972650014,1069.9663972650014,1069.9663972650014,1069.9663972650014,1069.9663972650014,l,0.7127347660134546,10,549,1,1070.7008274179825,1072.2021284829825,,,,,,,,,,,,,,,,,,,,,,,,,,,,,,,,,,,,,,,,,,,,,,,,,,,,,,,,,,,,,,,,,,,,,,,16861,2022-11-21_10h38.16.206,vts_reward_expectancy_bt_OFFLINE,2022.2.4,59.90117372623791,
0,0,0,1,0,0,1,0,star,hexagon,1,0,1,0,3,6,42,11,,,,,,,,,,,,,,,,,,,,,,,,,,,,,,,,,,,,,,,,1072.7027081080014,1072.7027081080014,1072.7027081080014,1072.7027081080014,1072.7027081080014,1072.7027081080014,1072.7027081080014,1072.7027081080014,1072.7027081080014,1072.7027081080014,l,0.6091643500258215,10,559,1,1073.336854306981,1074.8384917479998,,,,,,,,,,,,,,,,,,,,,,,,,,,,,,,,,,,,,,,,,,,,,,,,,,,,,,,,,,,,,,,,,,,,,,,16861,2022-11-21_10h38.16.206,vts_reward_expectancy_bt_OFFLINE,2022.2.4,59.90117372623791,
1,0,0,0,0,0,0,1,triangle,star,1,0,1,0,3,7,43,2,,,,,,,,,,,,,,,,,,,,,,,,,,,,,,,,,,,,,,,,1075.3389201749815,1075.3389201749815,1075.3389201749815,1075.3389201749815,1075.3389201749815,1075.3389201749815,1075.3389201749815,1075.3389201749815,1075.3389201749815,1075.3389201749815,a,0.6401069590065163,10,569,1,1076.0063917139778,1077.5080349209893,,,,,,,,,,,,,,,,,,,,,,,,,,,,,,,,,,,,,,,,,,,,,,,,,,,,,,,,,,,,,,,,,,,,,,,16861,2022-11-21_10h38.16.206,vts_reward_expectancy_bt_OFFLINE,2022.2.4,59.90117372623791,
0,0,1,0,1,0,0,0,hexagon,triangle,1,0,1,0,3,8,44,6,,,,,,,,,,,,,,,,,,,,,,,,,,,,,,,,,,,,,,,,1078.008486286999,1078.008486286999,1078.008486286999,1078.008486286999,1078.008486286999,1078.008486286999,1078.008486286999,1078.008486286999,1078.008486286999,1078.008486286999,a,1.4029498940217309,10,579,1,1079.4434656689991,1080.945132775989,,,,,,,,,,,,,,,,,,,,,,,,,,,,,,,,,,,,,,,,,,,,,,,,,,,,,,,,,,,,,,,,,,,,,,,16861,2022-11-21_10h38.16.206,vts_reward_expectancy_bt_OFFLINE,2022.2.4,59.90117372623791,
0,0,1,0,0,0,0,1,hexagon,star,1,0,1,0,3,9,45,8,,,,,,,,,,,,,,,,,,,,,,,,,,,,,,,,,,,,,,,,1081.4458158740017,1081.4458158740017,1081.4458158740017,1081.4458158740017,1081.4458158740017,1081.4458158740017,1081.4458158740017,1081.4458158740017,1081.4458158740017,1081.4458158740017,a,0.6747242920391727,10,589,1,1082.1465963899973,1083.648078119004,,,,,,,,,,,,,,,,,,,,,,,,,,,,,,,,,,,,,,,,,,,,,,,,,,,,,,,,,,,,,,,,,,,,,,,16861,2022-11-21_10h38.16.206,vts_reward_expectancy_bt_OFFLINE,2022.2.4,59.90117372623791,
1,0,0,0,0,1,0,0,triangle,circle,1,0,1,0,3,10,46,0,,,,,,,,,,,,,,,,,,,,,,,,,,,,,,,,,,,,,,,,1084.1487541529932,1084.1487541529932,1084.1487541529932,1084.1487541529932,1084.1487541529932,1084.1487541529932,1084.1487541529932,1084.1487541529932,1084.1487541529932,1084.1487541529932,a,1.4602183530223556,10,599,1,1085.6340927239798,1087.135517695977,,,,,,,,,,,,,,,,,,,,,,,,,,,,,,,,,,,,,,,,,,,,,,,,,,,,,,,,,,,,,,,,,,,,,,,16861,2022-11-21_10h38.16.206,vts_reward_expectancy_bt_OFFLINE,2022.2.4,59.90117372623791,
1,0,0,0,0,0,1,0,triangle,hexagon,1,0,1,0,3,11,47,1,,,,,,,,,,,,,,,,,,,,,,,,,,,,,,,,,,,,,,,,1087.6358232990024,1087.6358232990024,1087.6358232990024,1087.6358232990024,1087.6358232990024,1087.6358232990024,1087.6358232990024,1087.6358232990024,1087.6358232990024,1087.6358232990024,a,0.6948712019948289,10,609,1,1088.353385964001,1089.8550224689825,,,,,,,,,,,,,,,,,,,,,,,,,,,,,,,,,,,,,,,,,,,,,,,,,,,,,,,,,,,,,,,,,,,,,,,16861,2022-11-21_10h38.16.206,vts_reward_expectancy_bt_OFFLINE,2022.2.4,59.90117372623791,
0,1,0,0,1,0,0,0,circle,triangle,2,0,2,0,0,0,0,3,,,,,,,,,,,,,,,,,,,,,,,,,,,,,,,,,,,,,,,,1096.7514065039868,1096.7514065039868,1096.7514065039868,1096.7514065039868,1096.7514065039868,1096.7514065039868,1096.7514065039868,1096.7514065039868,1096.7514065039868,1096.7514065039868,l,0.9296621629910078,10,619,2,1097.7139716119855,1099.215171554999,,,,,,,,,,,,,,,,,,,,,,,,,,,,,,,,,,,,,,,,,,,,,,,,,,,,,,,,,,,,,,,,,,,,,,,16861,2022-11-21_10h38.16.206,vts_reward_expectancy_bt_OFFLINE,2022.2.4,59.90117372623791,
1,0,0,0,0,0,1,0,triangle,hexagon,2,0,2,0,0,1,1,1,,,,,,,,,,,,,,,,,,,,,,,,,,,,,,,,,,,,,,,,1099.7157410579966,1099.7157410579966,1099.7157410579966,1099.7157410579966,1099.7157410579966,1099.7157410579966,1099.7157410579966,1099.7157410579966,1099.7157410579966,1099.7157410579966,l,0.41830965600092895,1,620,2,1100.1662988799799,1101.6679894999834,,,,,,,,,,,,,,,,,,,,,,,,,,,,,,,,,,,,,,,,,,,,,,,,,,,,,,,,,,,,,,,,,,,,,,,16861,2022-11-21_10h38.16.206,vts_reward_expectancy_bt_OFFLINE,2022.2.4,59.90117372623791,
0,1,0,0,0,0,0,1,circle,star,2,0,2,0,0,2,2,5,,,,,,,,,,,,,,,,,,,,,,,,,,,,,,,,,,,,,,,,1102.1685313449998,1102.1685313449998,1102.1685313449998,1102.1685313449998,1102.1685313449998,1102.1685313449998,1102.1685313449998,1102.1685313449998,1102.1685313449998,1102.1685313449998,a,0.708720370021183,1,621,2,1102.9026941229822,1104.4043786090042,,,,,,,,,,,,,,,,,,,,,,,,,,,,,,,,,,,,,,,,,,,,,,,,,,,,,,,,,,,,,,,,,,,,,,,16861,2022-11-21_10h38.16.206,vts_reward_expectancy_bt_OFFLINE,2022.2.4,59.90117372623791,
0,0,1,0,0,1,0,0,hexagon,circle,2,0,2,0,0,3,3,7,,,,,,,,,,,,,,,,,,,,,,,,,,,,,,,,,,,,,,,,1104.9049018739897,1104.9049018739897,1104.9049018739897,1104.9049018739897,1104.9049018739897,1104.9049018739897,1104.9049018739897,1104.9049018739897,1104.9049018739897,1104.9049018739897,a,0.762657165993005,10,631,2,1105.6891481629864,1107.1908469589835,,,,,,,,,,,,,,,,,,,,,,,,,,,,,,,,,,,,,,,,,,,,,,,,,,,,,,,,,,,,,,,,,,,,,,,16861,2022-11-21_10h38.16.206,vts_reward_expectancy_bt_OFFLINE,2022.2.4,59.90117372623791,
0,1,0,0,0,0,1,0,circle,hexagon,2,0,2,0,0,4,4,4,,,,,,,,,,,,,,,,,,,,,,,,,,,,,,,,,,,,,,,,1107.6912853370013,1107.6912853370013,1107.6912853370013,1107.6912853370013,1107.6912853370013,1107.6912853370013,1107.6912853370013,1107.6912853370013,1107.6912853370013,1107.6912853370013,l,0.7099973919976037,10,641,2,1108.4254835890024,1109.927123728994,,,,,,,,,,,,,,,,,,,,,,,,,,,,,,,,,,,,,,,,,,,,,,,,,,,,,,,,,,,,,,,,,,,,,,,16861,2022-11-21_10h38.16.206,vts_reward_expectancy_bt_OFFLINE,2022.2.4,59.90117372623791,
1,0,0,0,0,0,0,1,triangle,star,2,0,2,0,0,5,5,2,,,,,,,,,,,,,,,,,,,,,,,,,,,,,,,,,,,,,,,,1110.4277731729962,1110.4277731729962,1110.4277731729962,1110.4277731729962,1110.4277731729962,1110.4277731729962,1110.4277731729962,1110.4277731729962,1110.4277731729962,1110.4277731729962,a,0.9098351030261256,10,651,2,1111.3618955150014,1112.8636351889872,,,,,,,,,,,,,,,,,,,,,,,,,,,,,,,,,,,,,,,,,,,,,,,,,,,,,,,,,,,,,,,,,,,,,,,16861,2022-11-21_10h38.16.206,vts_reward_expectancy_bt_OFFLINE,2022.2.4,59.90117372623791,
0,0,0,1,0,0,1,0,star,hexagon,2,0,2,0,0,6,6,11,,,,,,,,,,,,,,,,,,,,,,,,,,,,,,,,,,,,,,,,1113.364224556979,1113.364224556979,1113.364224556979,1113.364224556979,1113.364224556979,1113.364224556979,1113.364224556979,1113.364224556979,1113.364224556979,1113.364224556979,l,0.8203273540129885,10,661,2,1114.2152113789925,1115.7167947469861,,,,,,,,,,,,,,,,,,,,,,,,,,,,,,,,,,,,,,,,,,,,,,,,,,,,,,,,,,,,,,,,,,,,,,,16861,2022-11-21_10h38.16.206,vts_reward_expectancy_bt_OFFLINE,2022.2.4,59.90117372623791,
0,0,1,0,0,0,0,1,hexagon,star,2,0,2,0,0,7,7,8,,,,,,,,,,,,,,,,,,,,,,,,,,,,,,,,,,,,,,,,1116.2175885780016,1116.2175885780016,1116.2175885780016,1116.2175885780016,1116.2175885780016,1116.2175885780016,1116.2175885780016,1116.2175885780016,1116.2175885780016,1116.2175885780016,a,0.6013204990304075,10,671,2,1116.8513950269844,1118.3530276019883,,,,,,,,,,,,,,,,,,,,,,,,,,,,,,,,,,,,,,,,,,,,,,,,,,,,,,,,,,,,,,,,,,,,,,,16861,2022-11-21_10h38.16.206,vts_reward_expectancy_bt_OFFLINE,2022.2.4,59.90117372623791,
0,0,0,1,1,0,0,0,star,triangle,2,0,2,0,0,8,8,9,,,,,,,,,,,,,,,,,,,,,,,,,,,,,,,,,,,,,,,,1118.853709543997,1118.853709543997,1118.853709543997,1118.853709543997,1118.853709543997,1118.853709543997,1118.853709543997,1118.853709543997,1118.853709543997,1118.853709543997,l,0.5517380910168868,10,681,2,1119.4378984840005,1120.939457254979,,,,,,,,,,,,,,,,,,,,,,,,,,,,,,,,,,,,,,,,,,,,,,,,,,,,,,,,,,,,,,,,,,,,,,,16861,2022-11-21_10h38.16.206,vts_reward_expectancy_bt_OFFLINE,2022.2.4,59.90117372623791,
1,0,0,0,0,1,0,0,triangle,circle,2,0,2,0,0,9,9,0,,,,,,,,,,,,,,,,,,,,,,,,,,,,,,,,,,,,,,,,1121.4397101089999,1121.4397101089999,1121.4397101089999,1121.4397101089999,1121.4397101089999,1121.4397101089999,1121.4397101089999,1121.4397101089999,1121.4397101089999,1121.4397101089999,a,1.0806972610007506,1,682,2,1122.5410311519809,1124.042661279993,,,,,,,,,,,,,,,,,,,,,,,,,,,,,,,,,,,,,,,,,,,,,,,,,,,,,,,,,,,,,,,,,,,,,,,16861,2022-11-21_10h38.16.206,vts_reward_expectancy_bt_OFFLINE,2022.2.4,59.90117372623791,
0,0,0,1,0,1,0,0,star ,circle,2,0,2,0,0,10,10,10,,,,,,,,,,,,,,,,,,,,,,,,,,,,,,,,,,,,,,,,1124.5434327189869,1124.5434327189869,1124.5434327189869,1124.5434327189869,1124.5434327189869,1124.5434327189869,1124.5434327189869,1124.5434327189869,1124.5434327189869,1124.5434327189869,l,0.8359414700244088,10,692,2,1125.4107595160021,1126.9125131180044,,,,,,,,,,,,,,,,,,,,,,,,,,,,,,,,,,,,,,,,,,,,,,,,,,,,,,,,,,,,,,,,,,,,,,,16861,2022-11-21_10h38.16.206,vts_reward_expectancy_bt_OFFLINE,2022.2.4,59.90117372623791,
0,0,1,0,1,0,0,0,hexagon,triangle,2,0,2,0,0,11,11,6,,,,,,,,,,,,,,,,,,,,,,,,,,,,,,,,,,,,,,,,1127.413634408993,1127.413634408993,1127.413634408993,1127.413634408993,1127.413634408993,1127.413634408993,1127.413634408993,1127.413634408993,1127.413634408993,1127.413634408993,a,1.0695371789915953,10,702,2,1128.5142090689915,1130.0157941729994,,,,,,,,,,,,,,,,,,,,,,,,,,,,,,,,,,,,,,,,,,,,,,,,,,,,,,,,,,,,,,,,,,,,,,,16861,2022-11-21_10h38.16.206,vts_reward_expectancy_bt_OFFLINE,2022.2.4,59.90117372623791,
1,0,0,0,0,1,0,0,triangle,circle,2,0,2,0,1,0,12,0,,,,,,,,,,,,,,,,,,,,,,,,,,,,,,,,,,,,,,,,1130.516428175004,1130.516428175004,1130.516428175004,1130.516428175004,1130.516428175004,1130.516428175004,1130.516428175004,1130.516428175004,1130.516428175004,1130.516428175004,a,1.1527118750091176,10,712,2,1131.701036073995,1133.202681708004,,,,,,,,,,,,,,,,,,,,,,,,,,,,,,,,,,,,,,,,,,,,,,,,,,,,,,,,,,,,,,,,,,,,,,,16861,2022-11-21_10h38.16.206,vts_reward_expectancy_bt_OFFLINE,2022.2.4,59.90117372623791,
0,0,1,0,1,0,0,0,hexagon,triangle,2,0,2,0,1,1,13,6,,,,,,,,,,,,,,,,,,,,,,,,,,,,,,,,,,,,,,,,1133.7033682869805,1133.7033682869805,1133.7033682869805,1133.7033682869805,1133.7033682869805,1133.7033682869805,1133.7033682869805,1133.7033682869805,1133.7033682869805,1133.7033682869805,a,0.7869969750172459,10,722,2,1134.5207408290007,1136.022579240991,,,,,,,,,,,,,,,,,,,,,,,,,,,,,,,,,,,,,,,,,,,,,,,,,,,,,,,,,,,,,,,,,,,,,,,16861,2022-11-21_10h38.16.206,vts_reward_expectancy_bt_OFFLINE,2022.2.4,59.90117372623791,
0,1,0,0,0,0,0,1,circle,star,2,0,2,0,1,2,14,5,,,,,,,,,,,,,,,,,,,,,,,,,,,,,,,,,,,,,,,,1136.523009180004,1136.523009180004,1136.523009180004,1136.523009180004,1136.523009180004,1136.523009180004,1136.523009180004,1136.523009180004,1136.523009180004,1136.523009180004,a,0.6910528620064724,1,723,2,1137.2405565590016,1138.7421925480012,,,,,,,,,,,,,,,,,,,,,,,,,,,,,,,,,,,,,,,,,,,,,,,,,,,,,,,,,,,,,,,,,,,,,,,16861,2022-11-21_10h38.16.206,vts_reward_expectancy_bt_OFFLINE,2022.2.4,59.90117372623791,
0,0,0,1,1,0,0,0,star,triangle,2,0,2,0,1,3,15,9,,,,,,,,,,,,,,,,,,,,,,,,,,,,,,,,,,,,,,,,1139.2425979099935,1139.2425979099935,1139.2425979099935,1139.2425979099935,1139.2425979099935,1139.2425979099935,1139.2425979099935,1139.2425979099935,1139.2425979099935,1139.2425979099935,l,0.6039257000375073,10,733,2,1139.876817835,1141.378541077982,,,,,,,,,,,,,,,,,,,,,,,,,,,,,,,,,,,,,,,,,,,,,,,,,,,,,,,,,,,,,,,,,,,,,,,16861,2022-11-21_10h38.16.206,vts_reward_expectancy_bt_OFFLINE,2022.2.4,59.90117372623791,
0,0,1,0,0,1,0,0,hexagon,circle,2,0,2,0,1,4,16,7,,,,,,,,,,,,,,,,,,,,,,,,,,,,,,,,,,,,,,,,1141.8791230279894,1141.8791230279894,1141.8791230279894,1141.8791230279894,1141.8791230279894,1141.8791230279894,1141.8791230279894,1141.8791230279894,1141.8791230279894,1141.8791230279894,a,0.6351602730283048,1,734,2,1142.5463862089964,1144.0480277559836,,,,,,,,,,,,,,,,,,,,,,,,,,,,,,,,,,,,,,,,,,,,,,,,,,,,,,,,,,,,,,,,,,,,,,,16861,2022-11-21_10h38.16.206,vts_reward_expectancy_bt_OFFLINE,2022.2.4,59.90117372623791,
0,0,0,1,0,0,1,0,star,hexagon,2,0,2,0,1,5,17,11,,,,,,,,,,,,,,,,,,,,,,,,,,,,,,,,,,,,,,,,1144.5488590269815,1144.5488590269815,1144.5488590269815,1144.5488590269815,1144.5488590269815,1144.5488590269815,1144.5488590269815,1144.5488590269815,1144.5488590269815,1144.5488590269815,l,0.5516448870184831,10,744,2,1145.132681002986,1146.6344678969763,,,,,,,,,,,,,,,,,,,,,,,,,,,,,,,,,,,,,,,,,,,,,,,,,,,,,,,,,,,,,,,,,,,,,,,16861,2022-11-21_10h38.16.206,vts_reward_expectancy_bt_OFFLINE,2022.2.4,59.90117372623791,
0,0,1,0,0,0,0,1,hexagon,star,2,0,2,0,1,6,18,8,,,,,,,,,,,,,,,,,,,,,,,,,,,,,,,,,,,,,,,,1147.1348227690032,1147.1348227690032,1147.1348227690032,1147.1348227690032,1147.1348227690032,1147.1348227690032,1147.1348227690032,1147.1348227690032,1147.1348227690032,1147.1348227690032,a,0.6326275980391074,10,754,2,1147.7855917550041,1149.2871910879912,,,,,,,,,,,,,,,,,,,,,,,,,,,,,,,,,,,,,,,,,,,,,,,,,,,,,,,,,,,,,,,,,,,,,,,16861,2022-11-21_10h38.16.206,vts_reward_expectancy_bt_OFFLINE,2022.2.4,59.90117372623791,
1,0,0,0,0,0,1,0,triangle,hexagon,2,0,2,0,1,7,19,1,,,,,,,,,,,,,,,,,,,,,,,,,,,,,,,,,,,,,,,,1149.7877992579888,1149.7877992579888,1149.7877992579888,1149.7877992579888,1149.7877992579888,1149.7877992579888,1149.7877992579888,1149.7877992579888,1149.7877992579888,1149.7877992579888,l,0.7123740380338859,10,764,2,1150.5219918789808,1152.023678255995,,,,,,,,,,,,,,,,,,,,,,,,,,,,,,,,,,,,,,,,,,,,,,,,,,,,,,,,,,,,,,,,,,,,,,,16861,2022-11-21_10h38.16.206,vts_reward_expectancy_bt_OFFLINE,2022.2.4,59.90117372623791,
0,1,0,0,1,0,0,0,circle,triangle,2,0,2,0,1,8,20,3,,,,,,,,,,,,,,,,,,,,,,,,,,,,,,,,,,,,,,,,1152.5242548309907,1152.5242548309907,1152.5242548309907,1152.5242548309907,1152.5242548309907,1152.5242548309907,1152.5242548309907,1152.5242548309907,1152.5242548309907,1152.5242548309907,a,1.036480607028352,1,765,2,1153.5919355899969,1155.0938364809845,,,,,,,,,,,,,,,,,,,,,,,,,,,,,,,,,,,,,,,,,,,,,,,,,,,,,,,,,,,,,,,,,,,,,,,16861,2022-11-21_10h38.16.206,vts_reward_expectancy_bt_OFFLINE,2022.2.4,59.90117372623791,
0,1,0,0,0,0,1,0,circle,hexagon,2,0,2,0,1,9,21,4,,,,,,,,,,,,,,,,,,,,,,,,,,,,,,,,,,,,,,,,1155.5942322179908,1155.5942322179908,1155.5942322179908,1155.5942322179908,1155.5942322179908,1155.5942322179908,1155.5942322179908,1155.5942322179908,1155.5942322179908,1155.5942322179908,l,0.5654030280129518,10,775,2,1156.1780800919805,1157.6801265059912,1157.6801265059912,1158.1806751609838,,,,,,,,,,,,,,,,,,,,,,,,,,,,,,,,,,,,,,,,,,,,,,,,,,,,,,,,,,,,,,,,,,,,,16861,2022-11-21_10h38.16.206,vts_reward_expectancy_bt_OFFLINE,2022.2.4,59.90117372623791,
0,0,0,1,0,1,0,0,star ,circle,2,0,2,0,1,10,22,10,,,,,,,,,,,,,,,,,,,,,,,,,,,,,,,,,,,,,,,,1158.1806751609838,1158.1806751609838,1158.1806751609838,1158.1806751609838,1158.1806751609838,1158.1806751609838,1158.1806751609838,1158.1806751609838,1158.1806751609838,1158.1806751609838,l,0.6115989079989959,1,776,2,1158.8143644069787,1160.3159930410038,,,,,,,,,,,,,,,,,,,,,,,,,,,,,,,,,,,,,,,,,,,,,,,,,,,,,,,,,,,,,,,,,,,,,,,16861,2022-11-21_10h38.16.206,vts_reward_expectancy_bt_OFFLINE,2022.2.4,59.90117372623791,
1,0,0,0,0,0,0,1,triangle,star,2,0,2,0,1,11,23,2,,,,,,,,,,,,,,,,,,,,,,,,,,,,,,,,,,,,,,,,1160.816855320998,1160.816855320998,1160.816855320998,1160.816855320998,1160.816855320998,1160.816855320998,1160.816855320998,1160.816855320998,1160.816855320998,1160.816855320998,a,0.6299761900154408,10,786,2,1161.4672496029816,1162.9689888040011,,,,,,,,,,,,,,,,,,,,,,,,,,,,,,,,,,,,,,,,,,,,,,,,,,,,,,,,,,,,,,,,,,,,,,,16861,2022-11-21_10h38.16.206,vts_reward_expectancy_bt_OFFLINE,2022.2.4,59.90117372623791,
0,1,0,0,1,0,0,0,circle,triangle,2,0,2,0,2,0,24,3,,,,,,,,,,,,,,,,,,,,,,,,,,,,,,,,,,,,,,,,1163.4697589639982,1163.4697589639982,1163.4697589639982,1163.4697589639982,1163.4697589639982,1163.4697589639982,1163.4697589639982,1163.4697589639982,1163.4697589639982,1163.4697589639982,l,0.6209543150034733,1,787,2,1164.1204035219853,1165.622120141983,,,,,,,,,,,,,,,,,,,,,,,,,,,,,,,,,,,,,,,,,,,,,,,,,,,,,,,,,,,,,,,,,,,,,,,16861,2022-11-21_10h38.16.206,vts_reward_expectancy_bt_OFFLINE,2022.2.4,59.90117372623791,
1,0,0,0,0,0,0,1,triangle,star,2,0,2,0,2,1,25,2,,,,,,,,,,,,,,,,,,,,,,,,,,,,,,,,,,,,,,,,1166.1223823329783,1166.1223823329783,1166.1223823329783,1166.1223823329783,1166.1223823329783,1166.1223823329783,1166.1223823329783,1166.1223823329783,1166.1223823329783,1166.1223823329783,a,0.5791470640106127,10,797,2,1166.7231323099986,1168.2248120299773,,,,,,,,,,,,,,,,,,,,,,,,,,,,,,,,,,,,,,,,,,,,,,,,,,,,,,,,,,,,,,,,,,,,,,,16861,2022-11-21_10h38.16.206,vts_reward_expectancy_bt_OFFLINE,2022.2.4,59.90117372623791,
0,0,0,1,0,1,0,0,star ,circle,2,0,2,0,2,2,26,10,,,,,,,,,,,,,,,,,,,,,,,,,,,,,,,,,,,,,,,,1168.7254875539802,1168.7254875539802,1168.7254875539802,1168.7254875539802,1168.7254875539802,1168.7254875539802,1168.7254875539802,1168.7254875539802,1168.7254875539802,1168.7254875539802,l,0.5408360360306688,10,807,2,1169.2924365509825,1170.7942077530024,,,,,,,,,,,,,,,,,,,,,,,,,,,,,,,,,,,,,,,,,,,,,,,,,,,,,,,,,,,,,,,,,,,,,,,16861,2022-11-21_10h38.16.206,vts_reward_expectancy_bt_OFFLINE,2022.2.4,59.90117372623791,
0,1,0,0,0,0,0,1,circle,star,2,0,2,0,2,3,27,5,,,,,,,,,,,,,,,,,,,,,,,,,,,,,,,,,,,,,,,,1171.2947739480005,1171.2947739480005,1171.2947739480005,1171.2947739480005,1171.2947739480005,1171.2947739480005,1171.2947739480005,1171.2947739480005,1171.2947739480005,1171.2947739480005,a,0.548010182013968,10,817,2,1171.8620078259846,1173.363634993002,,,,,,,,,,,,,,,,,,,,,,,,,,,,,,,,,,,,,,,,,,,,,,,,,,,,,,,,,,,,,,,,,,,,,,,16861,2022-11-21_10h38.16.206,vts_reward_expectancy_bt_OFFLINE,2022.2.4,59.90117372623791,
0,1,0,0,0,0,1,0,circle,hexagon,2,0,2,0,2,4,28,4,,,,,,,,,,,,,,,,,,,,,,,,,,,,,,,,,,,,,,,,1173.864234921988,1173.864234921988,1173.864234921988,1173.864234921988,1173.864234921988,1173.864234921988,1173.864234921988,1173.864234921988,1173.864234921988,1173.864234921988,l,0.7688975740165915,10,827,2,1174.665083425003,1176.1668925569975,1176.1668925569975,,,,,,,,,,,,,,,,,,,,,,,,,,,,,,,,,,,,,,,,,,,,,,,,,,,,,,,,,,,,,,,,,,,,,,16861,2022-11-21_10h38.16.206,vts_reward_expectancy_bt_OFFLINE,2022.2.4,59.90117372623791,
0,0,1,0,0,0,0,1,hexagon,star,2,0,2,0,2,5,29,8,,,,,,,,,,,,,,,,,,,,,,,,,,,,,,,,,,,,,,,,1176.6672969479987,1176.6672969479987,1176.6672969479987,1176.6672969479987,1176.6672969479987,1176.6672969479987,1176.6672969479987,1176.6672969479987,1176.6672969479987,1176.6672969479987,a,0.6760377660102677,10,837,2,1177.3681991509802,1178.8696553100017,,,,,,,,,,,,,,,,,,,,,,,,,,,,,,,,,,,,,,,,,,,,,,,,,,,,,,,,,,,,,,,,,,,,,,,16861,2022-11-21_10h38.16.206,vts_reward_expectancy_bt_OFFLINE,2022.2.4,59.90117372623791,
0,0,0,1,1,0,0,0,star,triangle,2,0,2,0,2,6,30,9,,,,,,,,,,,,,,,,,,,,,,,,,,,,,,,,,,,,,,,,1179.3703219769814,1179.3703219769814,1179.3703219769814,1179.3703219769814,1179.3703219769814,1179.3703219769814,1179.3703219769814,1179.3703219769814,1179.3703219769814,1179.3703219769814,l,0.527359661005903,10,847,2,1179.9208993919892,1181.4225770619814,,,,,,,,,,,,,,,,,,,,,,,,,,,,,,,,,,,,,,,,,,,,,,,,,,,,,,,,,,,,,,,,,,,,,,,16861,2022-11-21_10h38.16.206,vts_reward_expectancy_bt_OFFLINE,2022.2.4,59.90117372623791,
1,0,0,0,0,0,1,0,triangle,hexagon,2,0,2,0,2,7,31,1,,,,,,,,,,,,,,,,,,,,,,,,,,,,,,,,,,,,,,,,1181.9231742919947,1181.9231742919947,1181.9231742919947,1181.9231742919947,1181.9231742919947,1181.9231742919947,1181.9231742919947,1181.9231742919947,1181.9231742919947,1181.9231742919947,l,0.629308547009714,1,848,2,1182.573794869997,1184.0754833099782,,,,,,,,,,,,,,,,,,,,,,,,,,,,,,,,,,,,,,,,,,,,,,,,,,,,,,,,,,,,,,,,,,,,,,,16861,2022-11-21_10h38.16.206,vts_reward_expectancy_bt_OFFLINE,2022.2.4,59.90117372623791,
0,0,0,1,0,0,1,0,star,hexagon,2,0,2,0,2,8,32,11,,,,,,,,,,,,,,,,,,,,,,,,,,,,,,,,,,,,,,,,1184.576374019991,1184.576374019991,1184.576374019991,1184.576374019991,1184.576374019991,1184.576374019991,1184.576374019991,1184.576374019991,1184.576374019991,1184.576374019991,l,0.5527355179947335,10,858,2,1185.160085335985,1186.6620146509958,,,,,,,,,,,,,,,,,,,,,,,,,,,,,,,,,,,,,,,,,,,,,,,,,,,,,,,,,,,,,,,,,,,,,,,16861,2022-11-21_10h38.16.206,vts_reward_expectancy_bt_OFFLINE,2022.2.4,59.90117372623791,
0,0,1,0,1,0,0,0,hexagon,triangle,2,0,2,0,2,9,33,6,,,,,,,,,,,,,,,,,,,,,,,,,,,,,,,,,,,,,,,,1187.1623119449941,1187.1623119449941,1187.1623119449941,1187.1623119449941,1187.1623119449941,1187.1623119449941,1187.1623119449941,1187.1623119449941,1187.1623119449941,1187.1623119449941,a,0.6564758320164401,10,868,2,1187.8464030110044,1189.3479986869788,,,,,,,,,,,,,,,,,,,,,,,,,,,,,,,,,,,,,,,,,,,,,,,,,,,,,,,,,,,,,,,,,,,,,,,16861,2022-11-21_10h38.16.206,vts_reward_expectancy_bt_OFFLINE,2022.2.4,59.90117372623791,
0,0,1,0,0,1,0,0,hexagon,circle,2,0,2,0,2,10,34,7,,,,,,,,,,,,,,,,,,,,,,,,,,,,,,,,,,,,,,,,1189.8488463649992,1189.8488463649992,1189.8488463649992,1189.8488463649992,1189.8488463649992,1189.8488463649992,1189.8488463649992,1189.8488463649992,1189.8488463649992,1189.8488463649992,a,0.6582075800106395,1,869,2,1190.5326198469847,1192.0344802039908,,,,,,,,,,,,,,,,,,,,,,,,,,,,,,,,,,,,,,,,,,,,,,,,,,,,,,,,,,,,,,,,,,,,,,,16861,2022-11-21_10h38.16.206,vts_reward_expectancy_bt_OFFLINE,2022.2.4,59.90117372623791,
1,0,0,0,0,1,0,0,triangle,circle,2,0,2,0,2,11,35,0,,,,,,,,,,,,,,,,,,,,,,,,,,,,,,,,,,,,,,,,1192.5348661169992,1192.5348661169992,1192.5348661169992,1192.5348661169992,1192.5348661169992,1192.5348661169992,1192.5348661169992,1192.5348661169992,1192.5348661169992,1192.5348661169992,a,0.5818430770013947,10,879,2,1193.1354968090018,1194.637628581986,,,,,,,,,,,,,,,,,,,,,,,,,,,,,,,,,,,,,,,,,,,,,,,,,,,,,,,,,,,,,,,,,,,,,,,16861,2022-11-21_10h38.16.206,vts_reward_expectancy_bt_OFFLINE,2022.2.4,59.90117372623791,
0,0,0,1,1,0,0,0,star,triangle,2,0,2,0,3,0,36,9,,,,,,,,,,,,,,,,,,,,,,,,,,,,,,,,,,,,,,,,1195.137837835995,1195.137837835995,1195.137837835995,1195.137837835995,1195.137837835995,1195.137837835995,1195.137837835995,1195.137837835995,1195.137837835995,1195.137837835995,l,0.6233735050191171,10,889,2,1195.7883777579991,1197.2900860999944,,,,,,,,,,,,,,,,,,,,,,,,,,,,,,,,,,,,,,,,,,,,,,,,,,,,,,,,,,,,,,,,,,,,,,,16861,2022-11-21_10h38.16.206,vts_reward_expectancy_bt_OFFLINE,2022.2.4,59.90117372623791,
0,0,1,0,0,1,0,0,hexagon,circle,2,0,2,0,3,1,37,7,,,,,,,,,,,,,,,,,,,,,,,,,,,,,,,,,,,,,,,,1197.790675456985,1197.790675456985,1197.790675456985,1197.790675456985,1197.790675456985,1197.790675456985,1197.790675456985,1197.790675456985,1197.790675456985,1197.790675456985,a,0.6134526910027489,10,899,2,1198.4248035319906,1199.9263332159899,,,,,,,,,,,,,,,,,,,,,,,,,,,,,,,,,,,,,,,,,,,,,,,,,,,,,,,,,,,,,,,,,,,,,,,16861,2022-11-21_10h38.16.206,vts_reward_expectancy_bt_OFFLINE,2022.2.4,59.90117372623791,
0,0,1,0,1,0,0,0,hexagon,triangle,2,0,2,0,3,2,38,6,,,,,,,,,,,,,,,,,,,,,,,,,,,,,,,,,,,,,,,,1200.426806545991,1200.426806545991,1200.426806545991,1200.426806545991,1200.426806545991,1200.426806545991,1200.426806545991,1200.426806545991,1200.426806545991,1200.426806545991,a,0.6110209269972984,1,900,2,1201.0608112799819,1202.562483519985,,,,,,,,,,,,,,,,,,,,,,,,,,,,,,,,,,,,,,,,,,,,,,,,,,,,,,,,,,,,,,,,,,,,,,,16861,2022-11-21_10h38.16.206,vts_reward_expectancy_bt_OFFLINE,2022.2.4,59.90117372623791,
1,0,0,0,0,0,0,1,triangle,star,2,0,2,0,3,3,39,2,,,,,,,,,,,,,,,,,,,,,,,,,,,,,,,,,,,,,,,,1203.0630325919774,1203.0630325919774,1203.0630325919774,1203.0630325919774,1203.0630325919774,1203.0630325919774,1203.0630325919774,1203.0630325919774,1203.0630325919774,1203.0630325919774,a,0.8088268330029678,10,910,2,1203.8977887659858,1205.3991059550026,,,,,,,,,,,,,,,,,,,,,,,,,,,,,,,,,,,,,,,,,,,,,,,,,,,,,,,,,,,,,,,,,,,,,,,16861,2022-11-21_10h38.16.206,vts_reward_expectancy_bt_OFFLINE,2022.2.4,59.90117372623791,
0,1,0,0,0,0,0,1,circle,star,2,0,2,0,3,4,40,5,,,,,,,,,,,,,,,,,,,,,,,,,,,,,,,,,,,,,,,,1205.8997626519995,1205.8997626519995,1205.8997626519995,1205.8997626519995,1205.8997626519995,1205.8997626519995,1205.8997626519995,1205.8997626519995,1205.8997626519995,1205.8997626519995,a,0.9191763070120942,10,920,2,1206.8508903890033,1208.3526588749955,,,,,,,,,,,,,,,,,,,,,,,,,,,,,,,,,,,,,,,,,,,,,,,,,,,,,,,,,,,,,,,,,,,,,,,16861,2022-11-21_10h38.16.206,vts_reward_expectancy_bt_OFFLINE,2022.2.4,59.90117372623791,
0,0,0,1,0,1,0,0,star ,circle,2,0,2,0,3,5,41,10,,,,,,,,,,,,,,,,,,,,,,,,,,,,,,,,,,,,,,,,1208.8528048119915,1208.8528048119915,1208.8528048119915,1208.8528048119915,1208.8528048119915,1208.8528048119915,1208.8528048119915,1208.8528048119915,1208.8528048119915,1208.8528048119915,l,1.0938761980214622,10,930,2,1209.9707919639768,1211.4723297899764,,,,,,,,,,,,,,,,,,,,,,,,,,,,,,,,,,,,,,,,,,,,,,,,,,,,,,,,,,,,,,,,,,,,,,,16861,2022-11-21_10h38.16.206,vts_reward_expectancy_bt_OFFLINE,2022.2.4,59.90117372623791,
0,0,0,1,0,0,1,0,star,hexagon,2,0,2,0,3,6,42,11,,,,,,,,,,,,,,,,,,,,,,,,,,,,,,,,,,,,,,,,1211.9728753849922,1211.9728753849922,1211.9728753849922,1211.9728753849922,1211.9728753849922,1211.9728753849922,1211.9728753849922,1211.9728753849922,1211.9728753849922,1211.9728753849922,l,0.5518585320096463,10,940,2,1212.5569226229854,1214.0587060899998,,,,,,,,,,,,,,,,,,,,,,,,,,,,,,,,,,,,,,,,,,,,,,,,,,,,,,,,,,,,,,,,,,,,,,,16861,2022-11-21_10h38.16.206,vts_reward_expectancy_bt_OFFLINE,2022.2.4,59.90117372623791,
1,0,0,0,0,1,0,0,triangle,circle,2,0,2,0,3,7,43,0,,,,,,,,,,,,,,,,,,,,,,,,,,,,,,,,,,,,,,,,1214.559390171984,1214.559390171984,1214.559390171984,1214.559390171984,1214.559390171984,1214.559390171984,1214.559390171984,1214.559390171984,1214.559390171984,1214.559390171984,l,1.158953462028876,1,941,2,1215.7437232740049,1217.2454393709777,,,,,,,,,,,,,,,,,,,,,,,,,,,,,,,,,,,,,,,,,,,,,,,,,,,,,,,,,,,,,,,,,,,,,,,16861,2022-11-21_10h38.16.206,vts_reward_expectancy_bt_OFFLINE,2022.2.4,59.90117372623791,
0,1,0,0,0,0,1,0,circle,hexagon,2,0,2,0,3,8,44,4,,,,,,,,,,,,,,,,,,,,,,,,,,,,,,,,,,,,,,,,1217.745922357979,1217.745922357979,1217.745922357979,1217.745922357979,1217.745922357979,1217.745922357979,1217.745922357979,1217.745922357979,1217.745922357979,1217.745922357979,l,0.7191317470278591,10,951,2,1218.4968219900038,1219.9985503240023,,,,,,,,,,,,,,,,,,,,,,,,,,,,,,,,,,,,,,,,,,,,,,,,,,,,,,,,,,,,,,,,,,,,,,,16861,2022-11-21_10h38.16.206,vts_reward_expectancy_bt_OFFLINE,2022.2.4,59.90117372623791,
1,0,0,0,0,0,1,0,triangle,hexagon,2,0,2,0,3,9,45,1,,,,,,,,,,,,,,,,,,,,,,,,,,,,,,,,,,,,,,,,1220.4990284849773,1220.4990284849773,1220.4990284849773,1220.4990284849773,1220.4990284849773,1220.4990284849773,1220.4990284849773,1220.4990284849773,1220.4990284849773,1220.4990284849773,l,0.641986924019875,10,961,2,1221.166393233987,1222.6680344359775,,,,,,,,,,,,,,,,,,,,,,,,,,,,,,,,,,,,,,,,,,,,,,,,,,,,,,,,,,,,,,,,,,,,,,,16861,2022-11-21_10h38.16.206,vts_reward_expectancy_bt_OFFLINE,2022.2.4,59.90117372623791,
0,1,0,0,1,0,0,0,circle,triangle,2,0,2,0,3,10,46,3,,,,,,,,,,,,,,,,,,,,,,,,,,,,,,,,,,,,,,,,1223.1685770819895,1223.1685770819895,1223.1685770819895,1223.1685770819895,1223.1685770819895,1223.1685770819895,1223.1685770819895,1223.1685770819895,1223.1685770819895,1223.1685770819895,a,1.05605741601903,10,971,2,1224.2531134969904,1225.7548177059798,,,,,,,,,,,,,,,,,,,,,,,,,,,,,,,,,,,,,,,,,,,,,,,,,,,,,,,,,,,,,,,,,,,,,,,16861,2022-11-21_10h38.16.206,vts_reward_expectancy_bt_OFFLINE,2022.2.4,59.90117372623791,
0,0,1,0,0,0,0,1,hexagon,star,2,0,2,0,3,11,47,8,,,,,,,,,,,,,,,,,,,,,,,,,,,,,,,,,,,,,,,,1226.255270966998,1226.255270966998,1226.255270966998,1226.255270966998,1226.255270966998,1226.255270966998,1226.255270966998,1226.255270966998,1226.255270966998,1226.255270966998,a,0.5897175070131198,10,981,2,1226.8727464919793,1228.37437878098,,,,,,,,,,,,,,,,,,,,,,,,,,,,,,,,,,,,,,,,,,,,,,,,,,,,,,,,,,,,,,,,,,,,,,,16861,2022-11-21_10h38.16.206,vts_reward_expectancy_bt_OFFLINE,2022.2.4,59.90117372623791,
,,,,,,,,,,,,,,,,,,0,0,0,0,0,0,0,0,,,,,,,,,,,,,,,,,,,,,,,,,,,,,,,,,,,,,,,,,,,,,,,,1263.4129981099977,,,Y,132,star,0.0020759020117111504,1258.5527507149964,1260.0592806649802,1260.0592806649802,1260.0592806649802,1,0,f,1.8304947240103502,0,1261.911656436976,,,,,,,,,,,,,,,,,,,,,,,,,,,,,,,,,,,,,,,,,,,,,,,,,,,,,,,16861,2022-11-21_10h38.16.206,vts_reward_expectancy_bt_OFFLINE,2022.2.4,59.90117372623791,
,,,,,,,,,,,,,,,,,,0,0,0,0,1,0,1,0,,,,,,,,,,,,,,,,,,,,,,,,,,,,,,,,,,,,,,,,,,,,,,,,1268.2017140550015,,,D,167,circle,0.00151792899123393,1264.3920725100033,1265.899107766978,1265.899107766978,1265.899107766978,1,0,d,0.7728708400391042,0,1266.7002882499946,,,,,,,,,,,,,,,,,,,,,,,,,,,,,,,,,,,,,,,,,,,,,,,,,,,,,,,16861,2022-11-21_10h38.16.206,vts_reward_expectancy_bt_OFFLINE,2022.2.4,59.90117372623791,
,,,,,,,,,,,,,,,,,,0,0,0,0,2,0,2,0,,,,,,,,,,,,,,,,,,,,,,,,,,,,,,,,,,,,,,,,,,,,,,,,1272.9736718509812,,,U,125,triangle,0.0015845089801587164,1269.1813876199885,1270.6877800729999,1270.6877800729999,1270.6877800729999,1,0,f,0.765347175009083,0,1271.4718318459927,,,,,,,,,,,,,,,,,,,,,,,,,,,,,,,,,,,,,,,,,,,,,,,,,,,,,,,16861,2022-11-21_10h38.16.206,vts_reward_expectancy_bt_OFFLINE,2022.2.4,59.90117372623791,
,,,,,,,,,,,,,,,,,,0,0,0,0,3,0,3,0,,,,,,,,,,,,,,,,,,,,,,,,,,,,,,,,,,,,,,,,,,,,,,,,1277.7788275599887,,,S,146,hexagon,0.000815723993582651,1273.9591716830037,1275.4596722099814,1275.4596722099814,1275.4596722099814,1,0,f,0.7850289960042574,0,1276.277208538988,,,,,,,,,,,,,,,,,,,,,,,,,,,,,,,,,,,,,,,,,,,,,,,,,,,,,,,16861,2022-11-21_10h38.16.206,vts_reward_expectancy_bt_OFFLINE,2022.2.4,59.90117372623791,
,,,,,,,,,,,,,,,,,,0,0,0,0,4,0,4,0,,,,,,,,,,,,,,,,,,,,,,,,,,,,,,,,,,,,,,,,,,,,,,,,1282.4842372779967,,,W,181,star,0.0014248979859985411,1278.7584843929799,1280.2664059179951,1280.2664059179951,1280.2664059179951,1,0,f,0.6835442610026803,0,1280.9826691329945,,,,,,,,,,,,,,,,,,,,,,,,,,,,,,,,,,,,,,,,,,,,,,,,,,,,,,,16861,2022-11-21_10h38.16.206,vts_reward_expectancy_bt_OFFLINE,2022.2.4,59.90117372623791,
,,,,,,,,,,,,,,,,,,0,0,0,0,5,0,5,0,,,,,,,,,,,,,,,,,,,,,,,,,,,,,,,,,,,,,,,,,,,,,,,,1287.6564823380031,,,F,139,hexagon,0.0013925000093877316,1283.4624767939968,1284.9701003149967,1284.9701003149967,1284.9701003149967,1,0,d,1.1524017449992243,0,1286.1547411259962,,,,,,,,,,,,,,,,,,,,,,,,,,,,,,,,,,,,,,,,,,,,,,,,,,,,,,,16861,2022-11-21_10h38.16.206,vts_reward_expectancy_bt_OFFLINE,2022.2.4,59.90117372623791,
,,,,,,,,,,,,,,,,,,0,0,0,0,6,0,6,0,,,,,,,,,,,,,,,,,,,,,,,,,,,,,,,,,,,,,,,,,,,,,,,,1292.3450641770032,,,H,174,triangle,0.001847672974690795,1288.6347229579987,1290.1425212429895,1290.1425212429895,1290.1425212429895,1,0,d,0.6732883540098555,0,1290.8433227729984,,,,,,,,,,,,,,,,,,,,,,,,,,,,,,,,,,,,,,,,,,,,,,,,,,,,,,,16861,2022-11-21_10h38.16.206,vts_reward_expectancy_bt_OFFLINE,2022.2.4,59.90117372623791,
,,,,,,,,,,,,,,,,,,0,0,0,0,7,0,7,0,,,,,,,,,,,,,,,,,,,,,,,,,,,,,,,,,,,,,,,,,,,,,,,,1297.0501829679997,,,B,160,circle,0.001311669999267906,1293.3234049379826,1294.8312322690035,1294.8312322690035,1294.8312322690035,1,0,d,0.6858872840239201,0,1295.5486084379954,,,,,,,,,,,,,,,,,,,,,,,,,,,,,,,,,,,,,,,,,,,,,,,,,,,,,,,16861,2022-11-21_10h38.16.206,vts_reward_expectancy_bt_OFFLINE,2022.2.4,59.90117372623791,
,,,,,,,,,,,,,,,,,,0,0,0,0,8,0,8,0,,,,,,,,,,,,,,,,,,,,,,,,,,,,,,,,,,,,,,,,,,,,,,,,1301.671952787001,,,Y,132,star,0.0016568620048929006,1298.0267035089782,1299.536332475982,1299.536332475982,1299.536332475982,0,0,d,0.618140625039814,0,1300.1703536109999,1301.671952787001,,,,,,,,,,,,,,,,,,,,,,,,,,,,,,,,,,,,,,,,,,,,,,,,,,,,,,16861,2022-11-21_10h38.16.206,vts_reward_expectancy_bt_OFFLINE,2022.2.4,59.90117372623791,
,,,,,,,,,,,,,,,,,,0,0,0,0,9,0,9,0,,,,,,,,,,,,,,,,,,,,,,,,,,,,,,,,,,,,,,,,,,,,,,,,1306.2771082159888,,,D,167,circle,0.0006203209923114628,1302.6571478029946,1304.158060663991,1304.158060663991,1304.158060663991,1,1,d,0.5951456020120531,0,1304.7753331739805,,,,,,,,,,,,,,,,,,,,,,,,,,,,,,,,,,,,,,,,,,,,,,,,,,,,,,,16861,2022-11-21_10h38.16.206,vts_reward_expectancy_bt_OFFLINE,2022.2.4,59.90117372623791,
,,,,,,,,,,,,,,,,,,,,,,,,,,0,0,0,0,0,0,0,0,,,,,,,,,,,,,,,,,,,,,,,,,,,,,,,,,,,,,,,,1321.7943529589975,,,S,125,hexagon,0.001977089006686583,,,,,1,0,,,1,1320.2925535799877,,1318.2006920219865,1319.7086589270039,1319.7086589270039,1319.7086589270039,j,0.5588238979980815,,,,,,,,,,,,,,,,,,,,,,,,,,,,,,,,,,,,,,,,,,,,,,,,16861,2022-11-21_10h38.16.206,vts_reward_expectancy_bt_OFFLINE,2022.2.4,59.90117372623791,
,,,,,,,,,,,,,,,,,,,,,,,,,,0,0,0,0,1,0,1,0,,,,,,,,,,,,,,,,,,,,,,,,,,,,,,,,,,,,,,,,1326.7995770940033,,,B,167,circle,0.001185870001791045,,,,,1,0,,,1,1325.298024579999,,1322.7726540209842,1324.2800752999901,1324.2800752999901,1324.2800752999901,k,0.99406680802349,,,,,,,,,,,,,,,,,,,,,,,,,,,,,,,,,,,,,,,,,,,,,,,,16861,2022-11-21_10h38.16.206,vts_reward_expectancy_bt_OFFLINE,2022.2.4,59.90117372623791,
,,,,,,,,,,,,,,,,,,,,,,,,,,0,0,0,0,2,0,2,0,,,,,,,,,,,,,,,,,,,,,,,,,,,,,,,,,,,,,,,,1331.6883975689998,,,U,132,star,0.0014487279986497015,,,,,1,0,,,1,1330.1867534749908,1331.6883975689998,1327.7759456310014,1329.2858772529871,1329.2858772529871,1329.2858772529871,j,0.8838373690086883,,,,,,,,,,,,,,,,,,,,,,,,,,,,,,,,,,,,,,,,,,,,,,,,16861,2022-11-21_10h38.16.206,vts_reward_expectancy_bt_OFFLINE,2022.2.4,59.90117372623791,
,,,,,,,,,,,,,,,,,,,,,,,,,,0,0,0,0,3,0,3,0,,,,,,,,,,,,,,,,,,,,,,,,,,,,,,,,,,,,,,,,1336.3269400050049,,,F,181,triangle,0.000701651006238535,,,,,1,0,,,1,1334.825525569002,,1332.6656293909764,1334.1745091209887,1334.1745091209887,1334.1745091209887,k,0.6292161200253759,,,,,,,,,,,,,,,,,,,,,,,,,,,,,,,,,,,,,,,,,,,,,,,,16861,2022-11-21_10h38.16.206,vts_reward_expectancy_bt_OFFLINE,2022.2.4,59.90117372623791,
,,,,,,,,,,,,,,,,,,,,,,,,,,0,0,0,0,4,0,4,0,,,,,,,,,,,,,,,,,,,,,,,,,,,,,,,,,,,,,,,,1341.0819799779856,,,Y,174,circle,0.001906646997667849,,,,,1,0,,,1,1339.5803967889806,,1337.304214215983,1338.8129345669877,1338.8129345669877,1338.8129345669877,k,0.7395976500120014,,,,,,,,,,,,,,,,,,,,,,,,,,,,,,,,,,,,,,,,,,,,,,,,16861,2022-11-21_10h38.16.206,vts_reward_expectancy_bt_OFFLINE,2022.2.4,59.90117372623791,
,,,,,,,,,,,,,,,,,,,,,,,,,,0,0,0,0,5,0,5,0,,,,,,,,,,,,,,,,,,,,,,,,,,,,,,,,,,,,,,,,1345.9544761249854,,,H,139,triangle,0.0017429940053261817,,,,,1,0,,,1,1344.4525732589827,1345.9544761249854,1342.0598492849967,1343.568116562994,1343.568116562994,1343.568116562994,j,0.8664090160164051,,,,,,,,,,,,,,,,,,,,,,,,,,,,,,,,,,,,,,,,,,,,,,,,16861,2022-11-21_10h38.16.206,vts_reward_expectancy_bt_OFFLINE,2022.2.4,59.90117372623791,
,,,,,,,,,,,,,,,,,,,,,,,,,,0,0,0,0,6,0,6,0,,,,,,,,,,,,,,,,,,,,,,,,,,,,,,,,,,,,,,,,1351.5770759699808,,,W,146,star,0.0006833270017523319,,,,,1,0,,,1,1350.0753251760034,,1346.9395267899963,1348.440206351981,1348.440206351981,1348.440206351981,j,1.6074931329931132,,,,,,,,,,,,,,,,,,,,,,,,,,,,,,,,,,,,,,,,,,,,,,,,16861,2022-11-21_10h38.16.206,vts_reward_expectancy_bt_OFFLINE,2022.2.4,59.90117372623791,
,,,,,,,,,,,,,,,,,,,,,,,,,,0,0,0,0,7,0,7,0,,,,,,,,,,,,,,,,,,,,,,,,,,,,,,,,,,,,,,,,1356.3321527549997,,,D,160,hexagon,0.0015597309975419194,,,,,1,0,,,1,1354.8305571730016,,1352.5547346259991,1354.0634156570013,1354.0634156570013,1354.0634156570013,k,0.743196010007523,,,,,,,,,,,,,,,,,,,,,,,,,,,,,,,,,,,,,,,,,,,,,,,,16861,2022-11-21_10h38.16.206,vts_reward_expectancy_bt_OFFLINE,2022.2.4,59.90117372623791,
,,,,,,,,,,,,,,,,,,,,,,,,,,0,0,0,0,8,0,8,0,,,,,,,,,,,,,,,,,,,,,,,,,,,,,,,,,,,,,,,,1361.0708826049813,,,S,125,hexagon,0.0015044889878481627,,,,,1,0,,,1,1359.5692124589987,,1357.3086571609892,1358.8182734400034,1358.8182734400034,1358.8182734400034,j,0.7247338520246558,,,,,,,,,,,,,,,,,,,,,,,,,,,,,,,,,,,,,,,,,,,,,,,,16861,2022-11-21_10h38.16.206,vts_reward_expectancy_bt_OFFLINE,2022.2.4,59.90117372623791,
,,,,,,,,,,,,,,,,,,,,,,,,,,0,0,0,0,9,0,9,0,,,,,,,,,,,,,,,,,,,,,,,,,,,,,,,,,,,,,,,,1365.926067170978,,,B,167,circle,0.0017054550116881728,,,,,1,0,,,1,1364.424512084981,,1362.0480950459896,1363.5570038669975,1363.5570038669975,1363.5570038669975,k,0.8353374820144381,,,,,,,,,,,,,,,,,,,,,,,,,,,,,,,,,,,,,,,,,,,,,,,,16861,2022-11-21_10h38.16.206,vts_reward_expectancy_bt_OFFLINE,2022.2.4,59.90117372623791,
,,,,,,,,,,,,,,,,,,,,,,,,,,,,,,,,,,0,0,0,0,0,0,0,0,,,,,,,,,,,,,,,,,,,,,,,,,,,,0,981,,,1400.914878562995,,,U,132,hexagon,0.0021669119887519628,,,,,1,0,,,2,,,,,,,,,1395.4378930349776,1395.4378930349776,1395.4378930349776,1395.4378930349776,1396.9436501569871,1396.9436501569871,1396.9436501569871,1396.9436501569871,1396.9436501569871,1396.9436501569871,1396.9436501569871,1396.9436501569871,-1,letter,NA,f,2.447597719001351,vtsPrac,1399.413319794985,,,,,,,,,,,,,,,,,,,,,,,,,,,,,16861,2022-11-21_10h38.16.206,vts_reward_expectancy_bt_OFFLINE,2022.2.4,59.90117372623791,
,,,,,,,,,,,,,,,,,,,,,,,,,,,,,,,,,,0,0,0,0,1,0,1,0,,,,,,,,,,,,,,,,,,,,,,,,,,,,0,981,,,1405.9204095909954,,,Y,181,star,0.001400370994815603,,,,,1,0,,,2,,,,,,,,,1401.8944667149917,1401.8944667149917,1401.8944667149917,1401.8944667149917,1403.4008383839973,1403.4008383839973,1403.4008383839973,1403.4008383839973,1403.4008383839973,1403.4008383839973,1403.4008383839973,1403.4008383839973,repeat,letter,lettRpt,f,0.9859705880226102,vtsPrac,1404.4186834009888,,,,,,,,,,,,,,,,,,,,,,,,,,,,,16861,2022-11-21_10h38.16.206,vts_reward_expectancy_bt_OFFLINE,2022.2.4,59.90117372623791,
,,,,,,,,,,,,,,,,,,,,,,,,,,,,,,,,,,0,0,0,0,2,0,2,0,,,,,,,,,,,,,,,,,,,,,,,,,,,,0,981,,,1410.9258226169914,,,W,167,triangle,0.0015986079815775156,,,,,1,0,,,2,,,,,,,,,1406.8998921969905,1406.8998921969905,1406.8998921969905,1406.8998921969905,1408.4065284709795,1408.4065284709795,1408.4065284709795,1408.4065284709795,1408.4065284709795,1408.4065284709795,1408.4065284709795,1408.4065284709795,switch,number,numSwt,k,0.9863068929989822,vtsPrac,1409.4244871400006,,,,,,,,,,,,,,,,,,,,,,,,,,,,,16861,2022-11-21_10h38.16.206,vts_reward_expectancy_bt_OFFLINE,2022.2.4,59.90117372623791,
,,,,,,,,,,,,,,,,,,,,,,,,,,,,,,,,,,0,0,0,0,3,0,3,0,,,,,,,,,,,,,,,,,,,,,,,,,,,,0,981,,,1416.3817905089818,,,F,146,hexagon,0.0012771009933203459,,,,,1,0,,,2,,,,,,,,,1411.9046177550044,1411.9046177550044,1411.9046177550044,1411.9046177550044,1413.4119743269985,1413.4119743269985,1413.4119743269985,1413.4119743269985,1413.4119743269985,1413.4119743269985,1413.4119743269985,1413.4119743269985,switch,letter,lettSwt,d,1.4502461780211888,vtsPrac,1414.8803429160034,,,,,,,,,,,,,,,,,,,,,,,,,,,,,16861,2022-11-21_10h38.16.206,vts_reward_expectancy_bt_OFFLINE,2022.2.4,59.90117372623791,
,,,,,,,,,,,,,,,,,,,,,,,,,,,,,,,,,,0,0,0,0,4,0,4,0,,,,,,,,,,,,,,,,,,,,,,,,,,,,0,981,,,1421.3708782029862,,,U,132,star,0.0009123939962591976,,,,,1,0,,,2,,,,,,,,,1417.359702226997,1417.359702226997,1417.359702226997,1417.359702226997,1418.8681465889968,1418.8681465889968,1418.8681465889968,1418.8681465889968,1418.8681465889968,1418.8681465889968,1418.8681465889968,1418.8681465889968,switch,number,numSwt,j,0.9760552530060522,vtsPrac,1419.8690987509908,,,,,,,,,,,,,,,,,,,,,,,,,,,,,16861,2022-11-21_10h38.16.206,vts_reward_expectancy_bt_OFFLINE,2022.2.4,59.90117372623791,
,,,,,,,,,,,,,,,,,,,,,,,,,,,,,,,,,,0,0,0,0,5,0,5,0,,,,,,,,,,,,,,,,,,,,,,,,,,,,0,981,,,1426.4763661899779,,,Y,181,hexagon,0.0016820409800857306,,,,,1,0,,,2,,,,,,,,,1422.3492100519943,1422.3492100519943,1422.3492100519943,1422.3492100519943,1423.8569775899814,1423.8569775899814,1423.8569775899814,1423.8569775899814,1423.8569775899814,1423.8569775899814,1423.8569775899814,1423.8569775899814,repeat,number,numRpt,k,1.096162170986645,vtsPrac,1424.9746657209762,,,,,,,,,,,,,,,,,,,,,,,,,,,,,16861,2022-11-21_10h38.16.206,vts_reward_expectancy_bt_OFFLINE,2022.2.4,59.90117372623791,
,,,,,,,,,,,,,,,,,,,,,,,,,,,,,,,,,,0,0,0,0,6,0,6,0,,,,,,,,,,,,,,,,,,,,,,,,,,,,0,981,,,1431.7987890869845,,,W,167,hexagon,0.0016508910048287362,,,,,1,0,,,2,,,,,,,,,1427.4538994379982,1427.4538994379982,1427.4538994379982,1427.4538994379982,1428.9623085089843,1428.9623085089843,1428.9623085089843,1428.9623085089843,1428.9623085089843,1428.9623085089843,1428.9623085089843,1428.9623085089843,repeat,number,numRpt,k,1.3115161140158307,vtsPrac,1430.2970838399779,,,,,,,,,,,,,,,,,,,,,,,,,,,,,16861,2022-11-21_10h38.16.206,vts_reward_expectancy_bt_OFFLINE,2022.2.4,59.90117372623791,
,,,,,,,,,,,,,,,,,,,,,,,,,,,,,,,,,,0,0,0,0,7,0,7,0,,,,,,,,,,,,,,,,,,,,,,,,,,,,0,981,,,1436.5694742689957,,,F,146,star,0.0017112189962062985,,,,,1,0,,,2,,,,,,,,,1432.7766856939998,1432.7766856939998,1432.7766856939998,1432.7766856939998,1434.2836182309838,1434.2836182309838,1434.2836182309838,1434.2836182309838,1434.2836182309838,1434.2836182309838,1434.2836182309838,1434.2836182309838,switch,letter,lettSwt,d,0.7598240360093769,vtsPrac,1435.0677757060039,,,,,,,,,,,,,,,,,,,,,,,,,,,,,16861,2022-11-21_10h38.16.206,vts_reward_expectancy_bt_OFFLINE,2022.2.4,59.90117372623791,
,,,,,,,,,,,,,,,,,,,,,,,,,,,,,,,,,,0,0,0,0,8,0,8,0,,,,,,,,,,,,,,,,,,,,,,,,,,,,0,981,,,1442.2757848530018,,,U,181,hexagon,0.001242849015397951,,,,,1,0,,,2,,,,,,,,,1437.5467893579917,1437.5467893579917,1437.5467893579917,1437.5467893579917,1439.055471700005,1439.055471700005,1439.055471700005,1439.055471700005,1439.055471700005,1439.055471700005,1439.055471700005,1439.055471700005,switch,number,numSwt,k,1.6919485090184025,vtsPrac,1440.7742158899782,,,,,,,,,,,,,,,,,,,,,,,,,,,,,16861,2022-11-21_10h38.16.206,vts_reward_expectancy_bt_OFFLINE,2022.2.4,59.90117372623791,
,,,,,,,,,,,,,,,,,,,,,,,,,,,,,,,,,,0,0,0,0,9,0,9,0,,,,,,,,,,,,,,,,,,,,,,,,,,,,0,981,,,1447.0475059349847,,,S,139,circle,0.0012504199985414743,,,,,1,0,,,2,,,,,,,,,1443.2548751479771,1443.2548751479771,1443.2548751479771,1443.2548751479771,1444.7617214689963,1444.7617214689963,1444.7617214689963,1444.7617214689963,1444.7617214689963,1444.7617214689963,1444.7617214689963,1444.7617214689963,switch,letter,lettSwt,f,0.756566621013917,vtsPrac,1445.5459915229876,,,,,,,,,,,,,,,,,,,,,,,,,,,,,16861,2022-11-21_10h38.16.206,vts_reward_expectancy_bt_OFFLINE,2022.2.4,59.90117372623791,
,,,,,,,,,,,,,,,,,,,,,,,,,,,,,,,,,,0,0,0,0,10,0,10,0,,,,,,,,,,,,,,,,,,,,,,,,,,,,0,981,,,1452.0698561779864,,,W,160,star,0.0012801410048268735,,,,,1,0,,,2,,,,,,,,,1448.0259578379919,1448.0259578379919,1448.0259578379919,1448.0259578379919,1449.5337457959831,1449.5337457959831,1449.5337457959831,1449.5337457959831,1449.5337457959831,1449.5337457959831,1449.5337457959831,1449.5337457959831,repeat,letter,lettRpt,f,1.0015803370042704,vtsPrac,1450.568226478994,,,,,,,,,,,,,,,,,,,,,,,,,,,,,16861,2022-11-21_10h38.16.206,vts_reward_expectancy_bt_OFFLINE,2022.2.4,59.90117372623791,
,,,,,,,,,,,,,,,,,,,,,,,,,,,,,,,,,,0,0,0,0,11,0,11,0,,,,,,,,,,,,,,,,,,,,,,,,,,,,0,981,,,1456.6248948829889,,,B,125,circle,0.001225510990479961,,,,,1,0,,,2,,,,,,,,,1453.0489214120025,1453.0489214120025,1453.0489214120025,1453.0489214120025,1454.5559391089773,1454.5559391089773,1454.5559391089773,1454.5559391089773,1454.5559391089773,1454.5559391089773,1454.5559391089773,1454.5559391089773,switch,number,numSwt,j,0.535588347032899,vtsPrac,1455.123304304987,,,,,,,,,,,,,,,,,,,,,,,,,,,,,16861,2022-11-21_10h38.16.206,vts_reward_expectancy_bt_OFFLINE,2022.2.4,59.90117372623791,
,,,,,,,,,,,,,,,,,,,,,,,,,,,,,,,,,,0,0,0,0,12,0,12,0,,,,,,,,,,,,,,,,,,,,,,,,,,,,0,981,,,1462.0975568549766,,,U,146,hexagon,0.0013483640213962644,,,,,1,0,,,2,,,,,,,,,1457.6028837369813,1457.6028837369813,1457.6028837369813,1457.6028837369813,1459.1109903889883,1459.1109903889883,1459.1109903889883,1459.1109903889883,1459.1109903889883,1459.1109903889883,1459.1109903889883,1459.1109903889883,repeat,number,numRpt,j,1.4602155559987295,vtsPrac,1460.5959122319764,,,,,,,,,,,,,,,,,,,,,,,,,,,,,16861,2022-11-21_10h38.16.206,vts_reward_expectancy_bt_OFFLINE,2022.2.4,59.90117372623791,
,,,,,,,,,,,,,,,,,,,,,,,,,,,,,,,,,,0,0,0,0,13,0,13,0,,,,,,,,,,,,,,,,,,,,,,,,,,,,0,981,,,1466.669331001991,,,B,125,circle,0.0015902449958957732,,,,,1,0,,,2,,,,,,,,,1463.0746655349794,1463.0746655349794,1463.0746655349794,1463.0746655349794,1464.5835351769929,1464.5835351769929,1464.5835351769929,1464.5835351769929,1464.5835351769929,1464.5835351769929,1464.5835351769929,1464.5835351769929,switch,letter,lettSwt,d,0.5550284210185055,vtsPrac,1465.167781739001,,,,,,,,,,,,,,,,,,,,,,,,,,,,,16861,2022-11-21_10h38.16.206,vts_reward_expectancy_bt_OFFLINE,2022.2.4,59.90117372623791,
,,,,,,,,,,,,,,,,,,,,,,,,,,,,,,,,,,0,0,0,0,14,0,14,0,,,,,,,,,,,,,,,,,,,,,,,,,,,,0,981,,,1471.7748572400014,,,H,174,star,0.0011877899814862758,,,,,1,0,,,2,,,,,,,,,1467.6468253469793,1467.6468253469793,1467.6468253469793,1467.6468253469793,1469.1553852490033,1469.1553852490033,1469.1553852490033,1469.1553852490033,1469.1553852490033,1469.1553852490033,1469.1553852490033,1469.1553852490033,switch,number,numSwt,k,1.0902125170105137,vtsPrac,1470.2732779840007,,,,,,,,,,,,,,,,,,,,,,,,,,,,,16861,2022-11-21_10h38.16.206,vts_reward_expectancy_bt_OFFLINE,2022.2.4,59.90117372623791,
,,,,,,,,,,,,,,,,,,,,,,,,,,,,,,,,,,0,0,0,0,15,0,15,0,,,,,,,,,,,,,,,,,,,,,,,,,,,,0,981,,,1476.8304905289842,,,Y,132,circle,0.0012166340020485222,,,,,1,0,,,2,,,,,,,,,1472.7526977649832,1472.7526977649832,1472.7526977649832,1472.7526977649832,1474.2610660749779,1474.2610660749779,1474.2610660749779,1474.2610660749779,1474.2610660749779,1474.2610660749779,1474.2610660749779,1474.2610660749779,repeat,number,numRpt,j,1.0367835420183837,vtsPrac,1475.328825464996,,,,,,,,,,,,,,,,,,,,,,,,,,,,,16861,2022-11-21_10h38.16.206,vts_reward_expectancy_bt_OFFLINE,2022.2.4,59.90117372623791,
,,,,,,,,,,,,,,,,,,,,,,,,,,,,,,,,,,0,0,0,0,16,0,16,0,,,,,,,,,,,,,,,,,,,,,,,,,,,,0,981,,,1481.5856718489958,,,D,125,triangle,0.0013564800028689206,,,,,1,0,,,2,,,,,,,,,1477.8089258879772,1477.8089258879772,1477.8089258879772,1477.8089258879772,1479.3165011089877,1479.3165011089877,1479.3165011089877,1479.3165011089877,1479.3165011089877,1479.3165011089877,1479.3165011089877,1479.3165011089877,switch,letter,lettSwt,d,0.7396682590187993,vtsPrac,1480.0840467799862,,,,,,,,,,,,,,,,,,,,,,,,,,,,,16861,2022-11-21_10h38.16.206,vts_reward_expectancy_bt_OFFLINE,2022.2.4,59.90117372623791,
,,,,,,,,,,,,,,,,,,,,,,,,,,,,,,,,,,0,0,0,0,17,0,17,0,,,,,,,,,,,,,,,,,,,,,,,,,,,,0,981,,,1486.3910050999839,,,S,160,star,0.0010822900221683085,,,,,1,0,,,2,,,,,,,,,1482.5636338180047,1482.5636338180047,1482.5636338180047,1482.5636338180047,1484.0717713119811,1484.0717713119811,1484.0717713119811,1484.0717713119811,1484.0717713119811,1484.0717713119811,1484.0717713119811,1484.0717713119811,switch,number,numSwt,k,0.7888120790303219,vtsPrac,1484.889506588981,,,,,,,,,,,,,,,,,,,,,,,,,,,,,16861,2022-11-21_10h38.16.206,vts_reward_expectancy_bt_OFFLINE,2022.2.4,59.90117372623791,
,,,,,,,,,,,,,,,,,,,,,,,,,,,,,,,,,,0,0,0,0,18,0,18,0,,,,,,,,,,,,,,,,,,,,,,,,,,,,0,981,,,1491.0460681259865,,,Y,181,triangle,0.0012632700090762228,,,,,1,0,,,2,,,,,,,,,1487.368055975996,1487.368055975996,1487.368055975996,1487.368055975996,1488.8772030539985,1488.8772030539985,1488.8772030539985,1488.8772030539985,1488.8772030539985,1488.8772030539985,1488.8772030539985,1488.8772030539985,switch,letter,lettSwt,f,0.6405890980095137,vtsPrac,1489.5445530989964,,,,,,,,,,,,,,,,,,,,,,,,,,,,,16861,2022-11-21_10h38.16.206,vts_reward_expectancy_bt_OFFLINE,2022.2.4,59.90117372623791,
,,,,,,,,,,,,,,,,,,,,,,,,,,,,,,,,,,0,0,0,0,19,0,19,0,,,,,,,,,,,,,,,,,,,,,,,,,,,,0,981,,,1495.9347364769783,,,U,139,circle,0.0012816039961762726,,,,,1,0,,,2,,,,,,,,,1492.0237773940025,1492.0237773940025,1492.0237773940025,1492.0237773940025,1493.5323668799829,1493.5323668799829,1493.5323668799829,1493.5323668799829,1493.5323668799829,1493.5323668799829,1493.5323668799829,1493.5323668799829,repeat,letter,lettRpt,f,0.8798284040240105,vtsPrac,1494.4332660599903,,,,,,,,,,,,,,,,,,,,,,,,,,,,,16861,2022-11-21_10h38.16.206,vts_reward_expectancy_bt_OFFLINE,2022.2.4,59.90117372623791,
,,,,,,,,,,,,,,,,,,,,,,,,,,,,,,,,,,0,0,0,0,20,0,20,0,,,,,,,,,,,,,,,,,,,,,,,,,,,,0,981,,,1502.1750580189982,,,F,146,triangle,0.001164753019111231,,,,,1,0,,,2,,,,,,,,,1496.9137050879945,1496.9137050879945,1496.9137050879945,1496.9137050879945,1498.4208202739828,1498.4208202739828,1498.4208202739828,1498.4208202739828,1498.4208202739828,1498.4208202739828,1498.4208202739828,1498.4208202739828,switch,number,numSwt,j,2.2236145790084265,vtsPrac,1500.6733935409866,,,,,,,,,,,,,,,,,,,,,,,,,,,,,16861,2022-11-21_10h38.16.206,vts_reward_expectancy_bt_OFFLINE,2022.2.4,59.90117372623791,
,,,,,,,,,,,,,,,,,,,,,,,,,,,,,,,,,,0,0,0,0,21,0,21,0,,,,,,,,,,,,,,,,,,,,,,,,,,,,0,981,,,1507.2972485189966,,,W,139,star,0.0010764489998109639,,,,,1,0,,,2,,,,,,,,,1503.152536974987,1503.152536974987,1503.152536974987,1503.152536974987,1504.661088230001,1504.661088230001,1504.661088230001,1504.661088230001,1504.661088230001,1504.661088230001,1504.661088230001,1504.661088230001,switch,letter,lettSwt,f,1.1021263959992211,vtsPrac,1505.7957494949806,,,,,,,,,,,,,,,,,,,,,,,,,,,,,16861,2022-11-21_10h38.16.206,vts_reward_expectancy_bt_OFFLINE,2022.2.4,59.90117372623791,
,,,,,,,,,,,,,,,,,,,,,,,,,,,,,,,,,,0,0,0,0,22,0,22,0,,,,,,,,,,,,,,,,,,,,,,,,,,,,0,981,,,1512.3027565800003,,,U,167,triangle,0.0014470579917542636,,,,,1,0,,,2,,,,,,,,,1508.2747232959955,1508.2747232959955,1508.2747232959955,1508.2747232959955,1509.783455552999,1509.783455552999,1509.783455552999,1509.783455552999,1509.783455552999,1509.783455552999,1509.783455552999,1509.783455552999,switch,number,numSwt,k,0.9976364950125571,vtsPrac,1510.801195557986,,,,,,,,,,,,,,,,,,,,,,,,,,,,,16861,2022-11-21_10h38.16.206,vts_reward_expectancy_bt_OFFLINE,2022.2.4,59.90117372623791,
,,,,,,,,,,,,,,,,,,,,,,,,,,,,,,,,,,0,0,0,0,23,0,23,0,,,,,,,,,,,,,,,,,,,,,,,,,,,,0,981,,,1517.174933968985,,,D,174,hexagon,0.0013935950119048357,,,,,1,0,,,2,,,,,,,,,1513.2805976399977,1513.2805976399977,1513.2805976399977,1513.2805976399977,1514.7889615320018,1514.7889615320018,1514.7889615320018,1514.7889615320018,1514.7889615320018,1514.7889615320018,1514.7889615320018,1514.7889615320018,repeat,number,numRpt,k,0.8630235870368779,vtsPrac,1515.6732467209804,,,,,,,,,,,,,,,,,,,,,,,,,,,,,16861,2022-11-21_10h38.16.206,vts_reward_expectancy_bt_OFFLINE,2022.2.4,59.90117372623791,
,,,,,,,,,,,,,,,,,,,,,,,,,,,,,,,,,,0,0,0,0,24,0,24,0,,,,,,,,,,,,,,,,,,,,,,,,,,,,0,981,,,1521.8966813599982,,,Y,125,star,0.0011283119965810329,,,,,1,0,,,2,,,,,,,,,1518.1528739649802,1518.1528739649802,1518.1528739649802,1518.1528739649802,1519.6610185460013,1519.6610185460013,1519.6610185460013,1519.6610185460013,1519.6610185460013,1519.6610185460013,1519.6610185460013,1519.6610185460013,switch,letter,lettSwt,f,0.7172664050012827,vtsPrac,1520.3952633589797,1521.8966813599982,,,,,,,,,,,,,,,,,,,,,,,,,,,,16861,2022-11-21_10h38.16.206,vts_reward_expectancy_bt_OFFLINE,2022.2.4,59.90117372623791,
,,,,,,,,,,,,,,,,,,,,,,,,,,,,,,,,,,0,0,0,0,25,0,25,0,,,,,,,,,,,,,,,,,,,,,,,,,,,,0,981,,,1527.3696211389906,,,B,181,hexagon,0.0011667499784380198,,,,,1,0,,,2,,,,,,,,,1522.8739168359898,1522.8739168359898,1522.8739168359898,1522.8739168359898,1524.3830038669985,1524.3830038669985,1524.3830038669985,1524.3830038669985,1524.3830038669985,1524.3830038669985,1524.3830038669985,1524.3830038669985,switch,number,numSwt,k,1.4625346820103005,vtsPrac,1525.8679264359816,,,,,,,,,,,,,,,,,,,,,,,,,,,,,16861,2022-11-21_10h38.16.206,vts_reward_expectancy_bt_OFFLINE,2022.2.4,59.90117372623791,
,,,,,,,,,,,,,,,,,,,,,,,,,,,,,,,,,,0,0,0,0,26,0,26,0,,,,,,,,,,,,,,,,,,,,,,,,,,,,0,981,,,1532.1247655399784,,,U,146,hexagon,0.001165392022812739,,,,,1,0,,,2,,,,,,,,,1528.3469976699853,1528.3469976699853,1528.3469976699853,1528.3469976699853,1529.8556612299872,1529.8556612299872,1529.8556612299872,1529.8556612299872,1529.8556612299872,1529.8556612299872,1529.8556612299872,1529.8556612299872,switch,letter,lettSwt,f,0.7491342780122068,vtsPrac,1530.6234092609957,,,,,,,,,,,,,,,,,,,,,,,,,,,,,16861,2022-11-21_10h38.16.206,vts_reward_expectancy_bt_OFFLINE,2022.2.4,59.90117372623791,
,,,,,,,,,,,,,,,,,,,,,,,,,,,,,,,,,,0,0,0,0,27,0,27,0,,,,,,,,,,,,,,,,,,,,,,,,,,,,0,981,,,1536.9133717959921,,,S,167,star,0.0012405859888531268,,,,,1,0,,,2,,,,,,,,,1533.1036762849835,1533.1036762849835,1533.1036762849835,1533.1036762849835,1534.610875184997,1534.610875184997,1534.610875184997,1534.610875184997,1534.610875184997,1534.610875184997,1534.610875184997,1534.610875184997,repeat,letter,lettRpt,f,0.7741604320181068,vtsPrac,1535.4119260349835,,,,,,,,,,,,,,,,,,,,,,,,,,,,,16861,2022-11-21_10h38.16.206,vts_reward_expectancy_bt_OFFLINE,2022.2.4,59.90117372623791,
,,,,,,,,,,,,,,,,,,,,,,,,,,,,,,,,,,0,0,0,0,28,0,28,0,,,,,,,,,,,,,,,,,,,,,,,,,,,,0,981,,,1541.652097504004,,,F,167,hexagon,0.0013651170011144131,,,,,1,0,,,2,,,,,,,,,1537.8913693549985,1537.8913693549985,1537.8913693549985,1537.8913693549985,1539.3995465589978,1539.3995465589978,1539.3995465589978,1539.3995465589978,1539.3995465589978,1539.3995465589978,1539.3995465589978,1539.3995465589978,repeat,letter,lettRpt,d,0.7217238190060016,vtsPrac,1540.1503670630045,,,,,,,,,,,,,,,,,,,,,,,,,,,,,16861,2022-11-21_10h38.16.206,vts_reward_expectancy_bt_OFFLINE,2022.2.4,59.90117372623791,
