LTriangleOpac,LCircleOpac,LHexagonOpac,LStarOpac,RTriangleOpac,RCircleOpac,RHexagonOpac,RStarOpac,LShape_ID,RShape_ID,training_blocks.thisRepN,training_blocks.thisTrialN,training_blocks.thisN,training_blocks.thisIndex,training.thisRepN,training.thisTrialN,training.thisN,training.thisIndex,task1_prac_redo.thisRepN,task1_prac_redo.thisTrialN,task1_prac_redo.thisN,task1_prac_redo.thisIndex,task1_prac_trials.thisRepN,task1_prac_trials.thisTrialN,task1_prac_trials.thisN,task1_prac_trials.thisIndex,task2_prac_redo.thisRepN,task2_prac_redo.thisTrialN,task2_prac_redo.thisN,task2_prac_redo.thisIndex,task2_praac_trials.thisRepN,task2_praac_trials.thisTrialN,task2_praac_trials.thisN,task2_praac_trials.thisIndex,vts_prac_redo.thisRepN,vts_prac_redo.thisTrialN,vts_prac_redo.thisN,vts_prac_redo.thisIndex,vts_practice_trials.thisRepN,vts_practice_trials.thisTrialN,vts_practice_trials.thisN,vts_practice_trials.thisIndex,trials_norew.thisRepN,trials_norew.thisTrialN,trials_norew.thisN,trials_norew.thisIndex,block.thisRepN,block.thisTrialN,block.thisN,block.thisIndex,trials_rew.thisRepN,trials_rew.thisTrialN,trials_rew.thisN,trials_rew.thisIndex,key_resp.started,key_resp.keys,key_resp.rt,left_circle.started,right_circle.started,left_triangle.started,right_triangle.started,left_star.started,right_star.started,left_hexagon.started,right_hexagon.started,training_fix.started,training_resp.started,training_resp.keys,training_resp.rt,points_trial,points_cumul,trainBlock,training_feedback_txt.started,fix.started,training_feedback_txt.stopped,curr_topStim,curr_bottStim,curr_shape,ISI.started,tgt_fix_prac1.started,top_target_prac1.started,bott_target_prac1.started,target_resp_prac1.started,acc,E1,target_resp_prac1.keys,target_resp_prac1.rt,pracBlock,prac_fback_text.started,tgt_fix_prac2.started,top_target_prac2.started,bott_target_prac2.started,target_resp_prac2.started,target_resp_prac2.keys,target_resp_prac2.rt,star.started,hegagon.started,triangle.started,circle.started,star.stopped,hegagon.stopped,triangle.stopped,circle.stopped,top_target.started,tgt_fix.started,bot_target.started,target_resp.started,top_target.stopped,tgt_fix.stopped,bot_target.stopped,target_resp.stopped,alt,task,condition,target_resp.keys,rewCond,vts_fback.started,vts_fback.stopped,fix.stopped,target_resp.rt,blockNum,norew_fback.started,norew_fback.stopped,key_resp_2.keys,key_resp_2.rt,rewExpectancy,feedbk_text.started,feedbk_text.stopped,text_3.started,debrief.started,text_3.stopped,button.started,debrief.index,debrief.itemText,debrief.type,debrief.granularity,debrief.font,debrief.markerColor,debrief.response,debrief.rt,button.numClicks,button.timesOn,button.timesOff,participant,date,expName,psychopyVersion,frameRate,
,,,,,,,,,,,,,,,,,,,,,,,,,,,,,,,,,,,,,,,,,,,,,,,,,,,,,,834.0832423369866,space,47.70349960900785,,,,,,,,,,,,,,,,,,,,,,,,,,,,,,,,,,,,,,,,,,,,,,,,,,,,,,,,,,,,,,,,,,,,,,,,,,,,,,,,,,,,,,,17022,2022-11-03_11h17.55.310,vts_reward_expectancy_bt_OFFLINE,2022.2.4,59.929231485705024,
1,0,0,0,0,1,0,0,triangle,circle,0,0,0,0,0,0,0,0,,,,,,,,,,,,,,,,,,,,,,,,,,,,,,,,,,,,,,,,915.4906931429869,915.4906931429869,915.4906931429869,915.4906931429869,915.4906931429869,915.4906931429869,915.4906931429869,915.4906931429869,915.4906931429869,915.4906931429869,a,1.226075917002163,1,1,0,916.7488812329975,918.2502742249926,,,,,,,,,,,,,,,,,,,,,,,,,,,,,,,,,,,,,,,,,,,,,,,,,,,,,,,,,,,,,,,,,,,,,,17022,2022-11-03_11h17.55.310,vts_reward_expectancy_bt_OFFLINE,2022.2.4,59.929231485705024,
0,0,0,1,1,0,0,0,star,triangle,0,0,0,0,0,1,1,9,,,,,,,,,,,,,,,,,,,,,,,,,,,,,,,,,,,,,,,,918.750939960999,918.750939960999,918.750939960999,918.750939960999,918.750939960999,918.750939960999,918.750939960999,918.750939960999,918.750939960999,918.750939960999,a,1.2076396929915063,10,11,0,919.9856879769941,921.4874473109958,,,,,,,,,,,,,,,,,,,,,,,,,,,,,,,,,,,,,,,,,,,,,,,,,,,,,,,,,,,,,,,,,,,,,,17022,2022-11-03_11h17.55.310,vts_reward_expectancy_bt_OFFLINE,2022.2.4,59.929231485705024,
1,0,0,0,0,0,1,0,triangle,hexagon,0,0,0,0,0,2,2,1,,,,,,,,,,,,,,,,,,,,,,,,,,,,,,,,,,,,,,,,921.9880145149946,921.9880145149946,921.9880145149946,921.9880145149946,921.9880145149946,921.9880145149946,921.9880145149946,921.9880145149946,921.9880145149946,921.9880145149946,a,2.9427440950094024,10,21,0,924.9579298269964,926.4596171999874,,,,,,,,,,,,,,,,,,,,,,,,,,,,,,,,,,,,,,,,,,,,,,,,,,,,,,,,,,,,,,,,,,,,,,17022,2022-11-03_11h17.55.310,vts_reward_expectancy_bt_OFFLINE,2022.2.4,59.929231485705024,
0,1,0,0,0,0,0,1,circle,star,0,0,0,0,0,3,3,5,,,,,,,,,,,,,,,,,,,,,,,,,,,,,,,,,,,,,,,,926.9600376739982,926.9600376739982,926.9600376739982,926.9600376739982,926.9600376739982,926.9600376739982,926.9600376739982,926.9600376739982,926.9600376739982,926.9600376739982,a,2.7206345810118364,10,31,0,929.7131953189964,931.2148846689961,,,,,,,,,,,,,,,,,,,,,,,,,,,,,,,,,,,,,,,,,,,,,,,,,,,,,,,,,,,,,,,,,,,,,,17022,2022-11-03_11h17.55.310,vts_reward_expectancy_bt_OFFLINE,2022.2.4,59.929231485705024,
0,1,0,0,0,0,1,0,circle,hexagon,0,0,0,0,0,4,4,4,,,,,,,,,,,,,,,,,,,,,,,,,,,,,,,,,,,,,,,,931.7155345169886,931.7155345169886,931.7155345169886,931.7155345169886,931.7155345169886,931.7155345169886,931.7155345169886,931.7155345169886,931.7155345169886,931.7155345169886,l,1.3039351730112685,10,41,0,933.0502435829985,934.5518031009997,,,,,,,,,,,,,,,,,,,,,,,,,,,,,,,,,,,,,,,,,,,,,,,,,,,,,,,,,,,,,,,,,,,,,,17022,2022-11-03_11h17.55.310,vts_reward_expectancy_bt_OFFLINE,2022.2.4,59.929231485705024,
0,0,1,0,0,0,0,1,hexagon,star,0,0,0,0,0,5,5,8,,,,,,,,,,,,,,,,,,,,,,,,,,,,,,,,,,,,,,,,935.0526410769962,935.0526410769962,935.0526410769962,935.0526410769962,935.0526410769962,935.0526410769962,935.0526410769962,935.0526410769962,935.0526410769962,935.0526410769962,l,0.9816471169906436,10,51,0,936.0536340519902,937.5550403279922,,,,,,,,,,,,,,,,,,,,,,,,,,,,,,,,,,,,,,,,,,,,,,,,,,,,,,,,,,,,,,,,,,,,,,17022,2022-11-03_11h17.55.310,vts_reward_expectancy_bt_OFFLINE,2022.2.4,59.929231485705024,
0,0,1,0,1,0,0,0,hexagon,triangle,0,0,0,0,0,6,6,6,,,,,,,,,,,,,,,,,,,,,,,,,,,,,,,,,,,,,,,,938.0556926999998,938.0556926999998,938.0556926999998,938.0556926999998,938.0556926999998,938.0556926999998,938.0556926999998,938.0556926999998,938.0556926999998,938.0556926999998,l,1.2192600179987494,10,61,0,939.3071540189994,940.809039269996,,,,,,,,,,,,,,,,,,,,,,,,,,,,,,,,,,,,,,,,,,,,,,,,,,,,,,,,,,,,,,,,,,,,,,17022,2022-11-03_11h17.55.310,vts_reward_expectancy_bt_OFFLINE,2022.2.4,59.929231485705024,
0,0,0,1,0,0,1,0,star,hexagon,0,0,0,0,0,7,7,11,,,,,,,,,,,,,,,,,,,,,,,,,,,,,,,,,,,,,,,,941.309209035986,941.309209035986,941.309209035986,941.309209035986,941.309209035986,941.309209035986,941.309209035986,941.309209035986,941.309209035986,941.309209035986,a,2.104743743999279,10,71,0,943.445012694996,944.946675203988,,,,,,,,,,,,,,,,,,,,,,,,,,,,,,,,,,,,,,,,,,,,,,,,,,,,,,,,,,,,,,,,,,,,,,17022,2022-11-03_11h17.55.310,vts_reward_expectancy_bt_OFFLINE,2022.2.4,59.929231485705024,
0,0,0,1,0,1,0,0,star ,circle,0,0,0,0,0,8,8,10,,,,,,,,,,,,,,,,,,,,,,,,,,,,,,,,,,,,,,,,945.447142244986,945.447142244986,945.447142244986,945.447142244986,945.447142244986,945.447142244986,945.447142244986,945.447142244986,945.447142244986,945.447142244986,l,1.4336636590014677,10,81,0,946.8988983519957,948.4005172009929,948.4005172009929,,,,,,,,,,,,,,,,,,,,,,,,,,,,,,,,,,,,,,,,,,,,,,,,,,,,,,,,,,,,,,,,,,,,,17022,2022-11-03_11h17.55.310,vts_reward_expectancy_bt_OFFLINE,2022.2.4,59.929231485705024,
1,0,0,0,0,0,0,1,triangle,star,0,0,0,0,0,9,9,2,,,,,,,,,,,,,,,,,,,,,,,,,,,,,,,,,,,,,,,,948.9008951139986,948.9008951139986,948.9008951139986,948.9008951139986,948.9008951139986,948.9008951139986,948.9008951139986,948.9008951139986,948.9008951139986,948.9008951139986,l,0.9938289099955,1,82,0,949.9187488189928,951.4205407079862,,,,,,,,,,,,,,,,,,,,,,,,,,,,,,,,,,,,,,,,,,,,,,,,,,,,,,,,,,,,,,,,,,,,,,17022,2022-11-03_11h17.55.310,vts_reward_expectancy_bt_OFFLINE,2022.2.4,59.929231485705024,
0,1,0,0,1,0,0,0,circle,triangle,0,0,0,0,0,10,10,3,,,,,,,,,,,,,,,,,,,,,,,,,,,,,,,,,,,,,,,,951.9209548269864,951.9209548269864,951.9209548269864,951.9209548269864,951.9209548269864,951.9209548269864,951.9209548269864,951.9209548269864,951.9209548269864,951.9209548269864,l,1.4859182029904332,10,92,0,953.4391248419997,954.940887151999,,,,,,,,,,,,,,,,,,,,,,,,,,,,,,,,,,,,,,,,,,,,,,,,,,,,,,,,,,,,,,,,,,,,,,17022,2022-11-03_11h17.55.310,vts_reward_expectancy_bt_OFFLINE,2022.2.4,59.929231485705024,
0,0,1,0,0,1,0,0,hexagon,circle,0,0,0,0,0,11,11,7,,,,,,,,,,,,,,,,,,,,,,,,,,,,,,,,,,,,,,,,955.4413145739964,955.4413145739964,955.4413145739964,955.4413145739964,955.4413145739964,955.4413145739964,955.4413145739964,955.4413145739964,955.4413145739964,955.4413145739964,l,3.2523754819994792,1,93,0,958.711795168987,960.213327503996,,,,,,,,,,,,,,,,,,,,,,,,,,,,,,,,,,,,,,,,,,,,,,,,,,,,,,,,,,,,,,,,,,,,,,17022,2022-11-03_11h17.55.310,vts_reward_expectancy_bt_OFFLINE,2022.2.4,59.929231485705024,
0,0,0,1,1,0,0,0,star,triangle,0,0,0,0,1,0,12,9,,,,,,,,,,,,,,,,,,,,,,,,,,,,,,,,,,,,,,,,960.7140997909883,960.7140997909883,960.7140997909883,960.7140997909883,960.7140997909883,960.7140997909883,960.7140997909883,960.7140997909883,960.7140997909883,960.7140997909883,a,1.4892538839922054,10,103,0,962.2324462589895,963.7339846509858,,,,,,,,,,,,,,,,,,,,,,,,,,,,,,,,,,,,,,,,,,,,,,,,,,,,,,,,,,,,,,,,,,,,,,17022,2022-11-03_11h17.55.310,vts_reward_expectancy_bt_OFFLINE,2022.2.4,59.929231485705024,
0,1,0,0,0,0,1,0,circle,hexagon,0,0,0,0,1,1,13,4,,,,,,,,,,,,,,,,,,,,,,,,,,,,,,,,,,,,,,,,964.2346325010003,964.2346325010003,964.2346325010003,964.2346325010003,964.2346325010003,964.2346325010003,964.2346325010003,964.2346325010003,964.2346325010003,964.2346325010003,a,1.8604174310021335,10,113,0,966.1200685069925,967.6215733299905,,,,,,,,,,,,,,,,,,,,,,,,,,,,,,,,,,,,,,,,,,,,,,,,,,,,,,,,,,,,,,,,,,,,,,17022,2022-11-03_11h17.55.310,vts_reward_expectancy_bt_OFFLINE,2022.2.4,59.929231485705024,
1,0,0,0,0,0,1,0,triangle,hexagon,0,0,0,0,1,2,14,1,,,,,,,,,,,,,,,,,,,,,,,,,,,,,,,,,,,,,,,,968.1226433089905,968.1226433089905,968.1226433089905,968.1226433089905,968.1226433089905,968.1226433089905,968.1226433089905,968.1226433089905,968.1226433089905,968.1226433089905,l,1.235409596003592,1,114,0,969.3904428049864,970.8919150299917,,,,,,,,,,,,,,,,,,,,,,,,,,,,,,,,,,,,,,,,,,,,,,,,,,,,,,,,,,,,,,,,,,,,,,17022,2022-11-03_11h17.55.310,vts_reward_expectancy_bt_OFFLINE,2022.2.4,59.929231485705024,
0,0,1,0,0,1,0,0,hexagon,circle,0,0,0,0,1,3,15,7,,,,,,,,,,,,,,,,,,,,,,,,,,,,,,,,,,,,,,,,971.3925592909945,971.3925592909945,971.3925592909945,971.3925592909945,971.3925592909945,971.3925592909945,971.3925592909945,971.3925592909945,971.3925592909945,971.3925592909945,l,0.9572727170016151,1,115,0,972.3770151969948,973.8785121819965,,,,,,,,,,,,,,,,,,,,,,,,,,,,,,,,,,,,,,,,,,,,,,,,,,,,,,,,,,,,,,,,,,,,,,17022,2022-11-03_11h17.55.310,vts_reward_expectancy_bt_OFFLINE,2022.2.4,59.929231485705024,
0,0,0,1,0,1,0,0,star ,circle,0,0,0,0,1,4,16,10,,,,,,,,,,,,,,,,,,,,,,,,,,,,,,,,,,,,,,,,974.3790605569957,974.3790605569957,974.3790605569957,974.3790605569957,974.3790605569957,974.3790605569957,974.3790605569957,974.3790605569957,974.3790605569957,974.3790605569957,l,1.1447429109975928,10,125,0,975.546936904997,977.0487460219883,,,,,,,,,,,,,,,,,,,,,,,,,,,,,,,,,,,,,,,,,,,,,,,,,,,,,,,,,,,,,,,,,,,,,,17022,2022-11-03_11h17.55.310,vts_reward_expectancy_bt_OFFLINE,2022.2.4,59.929231485705024,
0,0,1,0,1,0,0,0,hexagon,triangle,0,0,0,0,1,5,17,6,,,,,,,,,,,,,,,,,,,,,,,,,,,,,,,,,,,,,,,,977.5492366289982,977.5492366289982,977.5492366289982,977.5492366289982,977.5492366289982,977.5492366289982,977.5492366289982,977.5492366289982,977.5492366289982,977.5492366289982,a,1.4401871629961533,10,135,0,979.017421120996,980.519078982994,,,,,,,,,,,,,,,,,,,,,,,,,,,,,,,,,,,,,,,,,,,,,,,,,,,,,,,,,,,,,,,,,,,,,,17022,2022-11-03_11h17.55.310,vts_reward_expectancy_bt_OFFLINE,2022.2.4,59.929231485705024,
1,0,0,0,0,1,0,0,triangle,circle,0,0,0,0,1,6,18,0,,,,,,,,,,,,,,,,,,,,,,,,,,,,,,,,,,,,,,,,981.0196687189891,981.0196687189891,981.0196687189891,981.0196687189891,981.0196687189891,981.0196687189891,981.0196687189891,981.0196687189891,981.0196687189891,981.0196687189891,a,0.826849183999002,1,136,0,981.8706564219901,983.3722897709958,,,,,,,,,,,,,,,,,,,,,,,,,,,,,,,,,,,,,,,,,,,,,,,,,,,,,,,,,,,,,,,,,,,,,,17022,2022-11-03_11h17.55.310,vts_reward_expectancy_bt_OFFLINE,2022.2.4,59.929231485705024,
0,0,1,0,0,0,0,1,hexagon,star,0,0,0,0,1,7,19,8,,,,,,,,,,,,,,,,,,,,,,,,,,,,,,,,,,,,,,,,983.873013681994,983.873013681994,983.873013681994,983.873013681994,983.873013681994,983.873013681994,983.873013681994,983.873013681994,983.873013681994,983.873013681994,a,1.1114078199898358,1,137,0,985.0073895179958,986.5091830199963,,,,,,,,,,,,,,,,,,,,,,,,,,,,,,,,,,,,,,,,,,,,,,,,,,,,,,,,,,,,,,,,,,,,,,17022,2022-11-03_11h17.55.310,vts_reward_expectancy_bt_OFFLINE,2022.2.4,59.929231485705024,
0,0,0,1,0,0,1,0,star,hexagon,0,0,0,0,1,8,20,11,,,,,,,,,,,,,,,,,,,,,,,,,,,,,,,,,,,,,,,,987.0096253989905,987.0096253989905,987.0096253989905,987.0096253989905,987.0096253989905,987.0096253989905,987.0096253989905,987.0096253989905,987.0096253989905,987.0096253989905,a,0.924617466997006,1,138,0,987.9608897339931,989.4623272209865,,,,,,,,,,,,,,,,,,,,,,,,,,,,,,,,,,,,,,,,,,,,,,,,,,,,,,,,,,,,,,,,,,,,,,17022,2022-11-03_11h17.55.310,vts_reward_expectancy_bt_OFFLINE,2022.2.4,59.929231485705024,
1,0,0,0,0,0,0,1,triangle,star,0,0,0,0,1,9,21,2,,,,,,,,,,,,,,,,,,,,,,,,,,,,,,,,,,,,,,,,989.9629894499958,989.9629894499958,989.9629894499958,989.9629894499958,989.9629894499958,989.9629894499958,989.9629894499958,989.9629894499958,989.9629894499958,989.9629894499958,l,1.8405310590023873,1,139,0,991.8318515099963,993.3335724229983,,,,,,,,,,,,,,,,,,,,,,,,,,,,,,,,,,,,,,,,,,,,,,,,,,,,,,,,,,,,,,,,,,,,,,17022,2022-11-03_11h17.55.310,vts_reward_expectancy_bt_OFFLINE,2022.2.4,59.929231485705024,
0,1,0,0,0,0,0,1,circle,star,0,0,0,0,1,10,22,5,,,,,,,,,,,,,,,,,,,,,,,,,,,,,,,,,,,,,,,,993.8339711569861,993.8339711569861,993.8339711569861,993.8339711569861,993.8339711569861,993.8339711569861,993.8339711569861,993.8339711569861,993.8339711569861,993.8339711569861,l,1.2757051980006509,1,140,0,995.1352277259866,996.6368606679898,,,,,,,,,,,,,,,,,,,,,,,,,,,,,,,,,,,,,,,,,,,,,,,,,,,,,,,,,,,,,,,,,,,,,,17022,2022-11-03_11h17.55.310,vts_reward_expectancy_bt_OFFLINE,2022.2.4,59.929231485705024,
0,1,0,0,1,0,0,0,circle,triangle,0,0,0,0,1,11,23,3,,,,,,,,,,,,,,,,,,,,,,,,,,,,,,,,,,,,,,,,997.1375023799919,997.1375023799919,997.1375023799919,997.1375023799919,997.1375023799919,997.1375023799919,997.1375023799919,997.1375023799919,997.1375023799919,997.1375023799919,l,0.8306230610032799,10,150,0,997.9883303639945,999.48997843299,,,,,,,,,,,,,,,,,,,,,,,,,,,,,,,,,,,,,,,,,,,,,,,,,,,,,,,,,,,,,,,,,,,,,,17022,2022-11-03_11h17.55.310,vts_reward_expectancy_bt_OFFLINE,2022.2.4,59.929231485705024,
0,0,1,0,0,1,0,0,hexagon,circle,0,0,0,0,2,0,24,7,,,,,,,,,,,,,,,,,,,,,,,,,,,,,,,,,,,,,,,,999.9904945179878,999.9904945179878,999.9904945179878,999.9904945179878,999.9904945179878,999.9904945179878,999.9904945179878,999.9904945179878,999.9904945179878,999.9904945179878,l,0.9025310880097095,1,151,0,1000.9249442719884,1002.4265530699922,,,,,,,,,,,,,,,,,,,,,,,,,,,,,,,,,,,,,,,,,,,,,,,,,,,,,,,,,,,,,,,,,,,,,,17022,2022-11-03_11h17.55.310,vts_reward_expectancy_bt_OFFLINE,2022.2.4,59.929231485705024,
1,0,0,0,0,0,0,1,triangle,star,0,0,0,0,2,1,25,2,,,,,,,,,,,,,,,,,,,,,,,,,,,,,,,,,,,,,,,,1002.9274756769883,1002.9274756769883,1002.9274756769883,1002.9274756769883,1002.9274756769883,1002.9274756769883,1002.9274756769883,1002.9274756769883,1002.9274756769883,1002.9274756769883,l,0.7563201150042005,10,161,0,1003.7114983119973,1005.2132423399889,,,,,,,,,,,,,,,,,,,,,,,,,,,,,,,,,,,,,,,,,,,,,,,,,,,,,,,,,,,,,,,,,,,,,,17022,2022-11-03_11h17.55.310,vts_reward_expectancy_bt_OFFLINE,2022.2.4,59.929231485705024,
1,0,0,0,0,1,0,0,triangle,circle,0,0,0,0,2,2,26,0,,,,,,,,,,,,,,,,,,,,,,,,,,,,,,,,,,,,,,,,1005.7137377009931,1005.7137377009931,1005.7137377009931,1005.7137377009931,1005.7137377009931,1005.7137377009931,1005.7137377009931,1005.7137377009931,1005.7137377009931,1005.7137377009931,a,0.9858090670022648,10,171,0,1006.7313393669901,1008.2334387129958,,,,,,,,,,,,,,,,,,,,,,,,,,,,,,,,,,,,,,,,,,,,,,,,,,,,,,,,,,,,,,,,,,,,,,17022,2022-11-03_11h17.55.310,vts_reward_expectancy_bt_OFFLINE,2022.2.4,59.929231485705024,
0,0,1,0,0,0,0,1,hexagon,star,0,0,0,0,2,3,27,8,,,,,,,,,,,,,,,,,,,,,,,,,,,,,,,,,,,,,,,,1008.733687777989,1008.733687777989,1008.733687777989,1008.733687777989,1008.733687777989,1008.733687777989,1008.733687777989,1008.733687777989,1008.733687777989,1008.733687777989,a,1.1587244840047788,1,172,0,1009.9182386129978,1011.4198500459897,,,,,,,,,,,,,,,,,,,,,,,,,,,,,,,,,,,,,,,,,,,,,,,,,,,,,,,,,,,,,,,,,,,,,,17022,2022-11-03_11h17.55.310,vts_reward_expectancy_bt_OFFLINE,2022.2.4,59.929231485705024,
0,0,1,0,1,0,0,0,hexagon,triangle,0,0,0,0,2,4,28,6,,,,,,,,,,,,,,,,,,,,,,,,,,,,,,,,,,,,,,,,1011.9204611769965,1011.9204611769965,1011.9204611769965,1011.9204611769965,1011.9204611769965,1011.9204611769965,1011.9204611769965,1011.9204611769965,1011.9204611769965,1011.9204611769965,a,2.3936321520013735,10,182,0,1014.3394284979877,1015.841813313993,,,,,,,,,,,,,,,,,,,,,,,,,,,,,,,,,,,,,,,,,,,,,,,,,,,,,,,,,,,,,,,,,,,,,,17022,2022-11-03_11h17.55.310,vts_reward_expectancy_bt_OFFLINE,2022.2.4,59.929231485705024,
0,1,0,0,1,0,0,0,circle,triangle,0,0,0,0,2,5,29,3,,,,,,,,,,,,,,,,,,,,,,,,,,,,,,,,,,,,,,,,1016.3420717699919,1016.3420717699919,1016.3420717699919,1016.3420717699919,1016.3420717699919,1016.3420717699919,1016.3420717699919,1016.3420717699919,1016.3420717699919,1016.3420717699919,a,1.1452279350050958,10,192,0,1017.5099796489958,1019.0115208109928,,,,,,,,,,,,,,,,,,,,,,,,,,,,,,,,,,,,,,,,,,,,,,,,,,,,,,,,,,,,,,,,,,,,,,17022,2022-11-03_11h17.55.310,vts_reward_expectancy_bt_OFFLINE,2022.2.4,59.929231485705024,
0,0,0,1,0,1,0,0,star ,circle,0,0,0,0,2,6,30,10,,,,,,,,,,,,,,,,,,,,,,,,,,,,,,,,,,,,,,,,1019.5121270049858,1019.5121270049858,1019.5121270049858,1019.5121270049858,1019.5121270049858,1019.5121270049858,1019.5121270049858,1019.5121270049858,1019.5121270049858,1019.5121270049858,a,2.137209739012178,10,202,0,1021.681183763998,1023.182938339989,,,,,,,,,,,,,,,,,,,,,,,,,,,,,,,,,,,,,,,,,,,,,,,,,,,,,,,,,,,,,,,,,,,,,,17022,2022-11-03_11h17.55.310,vts_reward_expectancy_bt_OFFLINE,2022.2.4,59.929231485705024,
0,1,0,0,0,0,1,0,circle,hexagon,0,0,0,0,2,7,31,4,,,,,,,,,,,,,,,,,,,,,,,,,,,,,,,,,,,,,,,,1023.683543881998,1023.683543881998,1023.683543881998,1023.683543881998,1023.683543881998,1023.683543881998,1023.683543881998,1023.683543881998,1023.683543881998,1023.683543881998,l,2.331367010003305,1,203,0,1026.0360628989874,1027.537678055989,,,,,,,,,,,,,,,,,,,,,,,,,,,,,,,,,,,,,,,,,,,,,,,,,,,,,,,,,,,,,,,,,,,,,,17022,2022-11-03_11h17.55.310,vts_reward_expectancy_bt_OFFLINE,2022.2.4,59.929231485705024,
1,0,0,0,0,0,1,0,triangle,hexagon,0,0,0,0,2,8,32,1,,,,,,,,,,,,,,,,,,,,,,,,,,,,,,,,,,,,,,,,1028.0383572479914,1028.0383572479914,1028.0383572479914,1028.0383572479914,1028.0383572479914,1028.0383572479914,1028.0383572479914,1028.0383572479914,1028.0383572479914,1028.0383572479914,l,2.397401510999771,10,213,0,1030.4578363539913,1031.9594451390003,,,,,,,,,,,,,,,,,,,,,,,,,,,,,,,,,,,,,,,,,,,,,,,,,,,,,,,,,,,,,,,,,,,,,,17022,2022-11-03_11h17.55.310,vts_reward_expectancy_bt_OFFLINE,2022.2.4,59.929231485705024,
0,0,0,1,0,0,1,0,star,hexagon,0,0,0,0,2,9,33,11,,,,,,,,,,,,,,,,,,,,,,,,,,,,,,,,,,,,,,,,1032.4599514699948,1032.4599514699948,1032.4599514699948,1032.4599514699948,1032.4599514699948,1032.4599514699948,1032.4599514699948,1032.4599514699948,1032.4599514699948,1032.4599514699948,a,1.6668518780061277,10,223,0,1034.1449841039866,1035.64674327799,,,,,,,,,,,,,,,,,,,,,,,,,,,,,,,,,,,,,,,,,,,,,,,,,,,,,,,,,,,,,,,,,,,,,,17022,2022-11-03_11h17.55.310,vts_reward_expectancy_bt_OFFLINE,2022.2.4,59.929231485705024,
0,0,0,1,1,0,0,0,star,triangle,0,0,0,0,2,10,34,9,,,,,,,,,,,,,,,,,,,,,,,,,,,,,,,,,,,,,,,,1036.1473999499867,1036.1473999499867,1036.1473999499867,1036.1473999499867,1036.1473999499867,1036.1473999499867,1036.1473999499867,1036.1473999499867,1036.1473999499867,1036.1473999499867,a,0.9504304619913455,1,224,0,1037.1148457909876,1038.6165687259927,,,,,,,,,,,,,,,,,,,,,,,,,,,,,,,,,,,,,,,,,,,,,,,,,,,,,,,,,,,,,,,,,,,,,,17022,2022-11-03_11h17.55.310,vts_reward_expectancy_bt_OFFLINE,2022.2.4,59.929231485705024,
0,1,0,0,0,0,0,1,circle,star,0,0,0,0,2,11,35,5,,,,,,,,,,,,,,,,,,,,,,,,,,,,,,,,,,,,,,,,1039.1171991789888,1039.1171991789888,1039.1171991789888,1039.1171991789888,1039.1171991789888,1039.1171991789888,1039.1171991789888,1039.1171991789888,1039.1171991789888,1039.1171991789888,a,1.3089118079951731,10,234,0,1040.4518552569934,1041.9536457679933,,,,,,,,,,,,,,,,,,,,,,,,,,,,,,,,,,,,,,,,,,,,,,,,,,,,,,,,,,,,,,,,,,,,,,17022,2022-11-03_11h17.55.310,vts_reward_expectancy_bt_OFFLINE,2022.2.4,59.929231485705024,
0,1,0,0,0,0,1,0,circle,hexagon,0,0,0,0,3,0,36,4,,,,,,,,,,,,,,,,,,,,,,,,,,,,,,,,,,,,,,,,1042.454168101991,1042.454168101991,1042.454168101991,1042.454168101991,1042.454168101991,1042.454168101991,1042.454168101991,1042.454168101991,1042.454168101991,1042.454168101991,l,1.5512696039950242,10,244,0,1044.0225546439906,1045.5241760009958,,,,,,,,,,,,,,,,,,,,,,,,,,,,,,,,,,,,,,,,,,,,,,,,,,,,,,,,,,,,,,,,,,,,,,17022,2022-11-03_11h17.55.310,vts_reward_expectancy_bt_OFFLINE,2022.2.4,59.929231485705024,
0,0,1,0,1,0,0,0,hexagon,triangle,0,0,0,0,3,1,37,6,,,,,,,,,,,,,,,,,,,,,,,,,,,,,,,,,,,,,,,,1046.0248652839946,1046.0248652839946,1046.0248652839946,1046.0248652839946,1046.0248652839946,1046.0248652839946,1046.0248652839946,1046.0248652839946,1046.0248652839946,1046.0248652839946,l,2.3213773090101313,10,254,0,1048.377390853988,1049.8792221669864,,,,,,,,,,,,,,,,,,,,,,,,,,,,,,,,,,,,,,,,,,,,,,,,,,,,,,,,,,,,,,,,,,,,,,17022,2022-11-03_11h17.55.310,vts_reward_expectancy_bt_OFFLINE,2022.2.4,59.929231485705024,
0,0,1,0,0,0,0,1,hexagon,star,0,0,0,0,3,2,38,8,,,,,,,,,,,,,,,,,,,,,,,,,,,,,,,,,,,,,,,,1050.3796671049931,1050.3796671049931,1050.3796671049931,1050.3796671049931,1050.3796671049931,1050.3796671049931,1050.3796671049931,1050.3796671049931,1050.3796671049931,1050.3796671049931,a,3.504051205003634,1,255,0,1053.9001945749915,1055.401776756,,,,,,,,,,,,,,,,,,,,,,,,,,,,,,,,,,,,,,,,,,,,,,,,,,,,,,,,,,,,,,,,,,,,,,17022,2022-11-03_11h17.55.310,vts_reward_expectancy_bt_OFFLINE,2022.2.4,59.929231485705024,
0,0,1,0,0,1,0,0,hexagon,circle,0,0,0,0,3,3,39,7,,,,,,,,,,,,,,,,,,,,,,,,,,,,,,,,,,,,,,,,1055.9023912699922,1055.9023912699922,1055.9023912699922,1055.9023912699922,1055.9023912699922,1055.9023912699922,1055.9023912699922,1055.9023912699922,1055.9023912699922,1055.9023912699922,a,1.7366616840008646,1,256,0,1057.6708711769897,1059.172678480987,,,,,,,,,,,,,,,,,,,,,,,,,,,,,,,,,,,,,,,,,,,,,,,,,,,,,,,,,,,,,,,,,,,,,,17022,2022-11-03_11h17.55.310,vts_reward_expectancy_bt_OFFLINE,2022.2.4,59.929231485705024,
1,0,0,0,0,1,0,0,triangle,circle,0,0,0,0,3,4,40,0,,,,,,,,,,,,,,,,,,,,,,,,,,,,,,,,,,,,,,,,1059.673144581,1059.673144581,1059.673144581,1059.673144581,1059.673144581,1059.673144581,1059.673144581,1059.673144581,1059.673144581,1059.673144581,l,1.8582175549963722,10,266,0,1061.5586298469862,1063.0601596529887,,,,,,,,,,,,,,,,,,,,,,,,,,,,,,,,,,,,,,,,,,,,,,,,,,,,,,,,,,,,,,,,,,,,,,17022,2022-11-03_11h17.55.310,vts_reward_expectancy_bt_OFFLINE,2022.2.4,59.929231485705024,
1,0,0,0,0,0,0,1,triangle,star,0,0,0,0,3,5,41,2,,,,,,,,,,,,,,,,,,,,,,,,,,,,,,,,,,,,,,,,1063.5608003389934,1063.5608003389934,1063.5608003389934,1063.5608003389934,1063.5608003389934,1063.5608003389934,1063.5608003389934,1063.5608003389934,1063.5608003389934,1063.5608003389934,l,1.5039954840030987,1,267,0,1065.095790070991,1066.597597991,,,,,,,,,,,,,,,,,,,,,,,,,,,,,,,,,,,,,,,,,,,,,,,,,,,,,,,,,,,,,,,,,,,,,,17022,2022-11-03_11h17.55.310,vts_reward_expectancy_bt_OFFLINE,2022.2.4,59.929231485705024,
0,0,0,1,0,1,0,0,star ,circle,0,0,0,0,3,6,42,10,,,,,,,,,,,,,,,,,,,,,,,,,,,,,,,,,,,,,,,,1067.0983746109996,1067.0983746109996,1067.0983746109996,1067.0983746109996,1067.0983746109996,1067.0983746109996,1067.0983746109996,1067.0983746109996,1067.0983746109996,1067.0983746109996,l,0.9355224199971417,10,277,0,1068.0657305949862,1069.5673922819988,,,,,,,,,,,,,,,,,,,,,,,,,,,,,,,,,,,,,,,,,,,,,,,,,,,,,,,,,,,,,,,,,,,,,,17022,2022-11-03_11h17.55.310,vts_reward_expectancy_bt_OFFLINE,2022.2.4,59.929231485705024,
1,0,0,0,0,0,1,0,triangle,hexagon,0,0,0,0,3,7,43,1,,,,,,,,,,,,,,,,,,,,,,,,,,,,,,,,,,,,,,,,1070.0682085269946,1070.0682085269946,1070.0682085269946,1070.0682085269946,1070.0682085269946,1070.0682085269946,1070.0682085269946,1070.0682085269946,1070.0682085269946,1070.0682085269946,l,1.1400010729994392,10,287,0,1071.2359140959888,1072.7376425959956,,,,,,,,,,,,,,,,,,,,,,,,,,,,,,,,,,,,,,,,,,,,,,,,,,,,,,,,,,,,,,,,,,,,,,17022,2022-11-03_11h17.55.310,vts_reward_expectancy_bt_OFFLINE,2022.2.4,59.929231485705024,
0,1,0,0,1,0,0,0,circle,triangle,0,0,0,0,3,8,44,3,,,,,,,,,,,,,,,,,,,,,,,,,,,,,,,,,,,,,,,,1073.238079731993,1073.238079731993,1073.238079731993,1073.238079731993,1073.238079731993,1073.238079731993,1073.238079731993,1073.238079731993,1073.238079731993,1073.238079731993,a,2.6375453829969047,1,288,0,1075.9077330269938,1077.409316537989,,,,,,,,,,,,,,,,,,,,,,,,,,,,,,,,,,,,,,,,,,,,,,,,,,,,,,,,,,,,,,,,,,,,,,17022,2022-11-03_11h17.55.310,vts_reward_expectancy_bt_OFFLINE,2022.2.4,59.929231485705024,
0,0,0,1,1,0,0,0,star,triangle,0,0,0,0,3,9,45,9,,,,,,,,,,,,,,,,,,,,,,,,,,,,,,,,,,,,,,,,1077.9100292929943,1077.9100292929943,1077.9100292929943,1077.9100292929943,1077.9100292929943,1077.9100292929943,1077.9100292929943,1077.9100292929943,1077.9100292929943,1077.9100292929943,a,0.7687612090085167,1,289,0,1078.7108707179868,1080.2127089329879,,,,,,,,,,,,,,,,,,,,,,,,,,,,,,,,,,,,,,,,,,,,,,,,,,,,,,,,,,,,,,,,,,,,,,17022,2022-11-03_11h17.55.310,vts_reward_expectancy_bt_OFFLINE,2022.2.4,59.929231485705024,
0,1,0,0,0,0,0,1,circle,star,0,0,0,0,3,10,46,5,,,,,,,,,,,,,,,,,,,,,,,,,,,,,,,,,,,,,,,,1080.7129576709995,1080.7129576709995,1080.7129576709995,1080.7129576709995,1080.7129576709995,1080.7129576709995,1080.7129576709995,1080.7129576709995,1080.7129576709995,1080.7129576709995,l,1.3406656089937314,1,290,0,1082.0813864169904,1083.5829736499873,,,,,,,,,,,,,,,,,,,,,,,,,,,,,,,,,,,,,,,,,,,,,,,,,,,,,,,,,,,,,,,,,,,,,,17022,2022-11-03_11h17.55.310,vts_reward_expectancy_bt_OFFLINE,2022.2.4,59.929231485705024,
0,0,0,1,0,0,1,0,star,hexagon,0,0,0,0,3,11,47,11,,,,,,,,,,,,,,,,,,,,,,,,,,,,,,,,,,,,,,,,1084.0835881189996,1084.0835881189996,1084.0835881189996,1084.0835881189996,1084.0835881189996,1084.0835881189996,1084.0835881189996,1084.0835881189996,1084.0835881189996,1084.0835881189996,a,2.637335964012891,1,291,0,1086.7530077729898,1088.2547965139966,,,,,,,,,,,,,,,,,,,,,,,,,,,,,,,,,,,,,,,,,,,,,,,,,,,,,,,,,,,,,,,,,,,,,,17022,2022-11-03_11h17.55.310,vts_reward_expectancy_bt_OFFLINE,2022.2.4,59.929231485705024,
0,0,1,0,1,0,0,0,hexagon,triangle,1,0,1,0,0,0,0,6,,,,,,,,,,,,,,,,,,,,,,,,,,,,,,,,,,,,,,,,1103.9272521809908,1103.9272521809908,1103.9272521809908,1103.9272521809908,1103.9272521809908,1103.9272521809908,1103.9272521809908,1103.9272521809908,1103.9272521809908,1103.9272521809908,l,1.4805804780044127,10,301,1,1105.4402709599963,1106.9421172949951,,,,,,,,,,,,,,,,,,,,,,,,,,,,,,,,,,,,,,,,,,,,,,,,,,,,,,,,,,,,,,,,,,,,,,17022,2022-11-03_11h17.55.310,vts_reward_expectancy_bt_OFFLINE,2022.2.4,59.929231485705024,
0,1,0,0,1,0,0,0,circle,triangle,1,0,1,0,0,1,1,3,,,,,,,,,,,,,,,,,,,,,,,,,,,,,,,,,,,,,,,,1107.442780389989,1107.442780389989,1107.442780389989,1107.442780389989,1107.442780389989,1107.442780389989,1107.442780389989,1107.442780389989,1107.442780389989,1107.442780389989,l,0.868299207999371,10,311,1,1108.3437714129977,1109.8451576919906,,,,,,,,,,,,,,,,,,,,,,,,,,,,,,,,,,,,,,,,,,,,,,,,,,,,,,,,,,,,,,,,,,,,,,17022,2022-11-03_11h17.55.310,vts_reward_expectancy_bt_OFFLINE,2022.2.4,59.929231485705024,
1,0,0,0,0,1,0,0,triangle,circle,1,0,1,0,0,2,2,0,,,,,,,,,,,,,,,,,,,,,,,,,,,,,,,,,,,,,,,,1110.346227832997,1110.346227832997,1110.346227832997,1110.346227832997,1110.346227832997,1110.346227832997,1110.346227832997,1110.346227832997,1110.346227832997,1110.346227832997,l,0.7772639640024863,1,312,1,1111.1465796939883,1112.6482336579938,,,,,,,,,,,,,,,,,,,,,,,,,,,,,,,,,,,,,,,,,,,,,,,,,,,,,,,,,,,,,,,,,,,,,,17022,2022-11-03_11h17.55.310,vts_reward_expectancy_bt_OFFLINE,2022.2.4,59.929231485705024,
0,1,0,0,0,0,1,0,circle,hexagon,1,0,1,0,0,3,3,4,,,,,,,,,,,,,,,,,,,,,,,,,,,,,,,,,,,,,,,,1113.1488275149895,1113.1488275149895,1113.1488275149895,1113.1488275149895,1113.1488275149895,1113.1488275149895,1113.1488275149895,1113.1488275149895,1113.1488275149895,1113.1488275149895,l,0.944633856008295,1,313,1,1114.116751043999,1115.6182452899957,,,,,,,,,,,,,,,,,,,,,,,,,,,,,,,,,,,,,,,,,,,,,,,,,,,,,,,,,,,,,,,,,,,,,,17022,2022-11-03_11h17.55.310,vts_reward_expectancy_bt_OFFLINE,2022.2.4,59.929231485705024,
0,1,0,0,0,0,0,1,circle,star,1,0,1,0,0,4,4,5,,,,,,,,,,,,,,,,,,,,,,,,,,,,,,,,,,,,,,,,1116.1187881579972,1116.1187881579972,1116.1187881579972,1116.1187881579972,1116.1187881579972,1116.1187881579972,1116.1187881579972,1116.1187881579972,1116.1187881579972,1116.1187881579972,l,1.4194436639954802,10,323,1,1117.5703405479871,1119.0719458779931,,,,,,,,,,,,,,,,,,,,,,,,,,,,,,,,,,,,,,,,,,,,,,,,,,,,,,,,,,,,,,,,,,,,,,17022,2022-11-03_11h17.55.310,vts_reward_expectancy_bt_OFFLINE,2022.2.4,59.929231485705024,
0,0,0,1,0,1,0,0,star ,circle,1,0,1,0,0,5,5,10,,,,,,,,,,,,,,,,,,,,,,,,,,,,,,,,,,,,,,,,1119.572715819988,1119.572715819988,1119.572715819988,1119.572715819988,1119.572715819988,1119.572715819988,1119.572715819988,1119.572715819988,1119.572715819988,1119.572715819988,a,0.48432698400574736,10,333,1,1120.0899489659932,1121.5915094999946,,,,,,,,,,,,,,,,,,,,,,,,,,,,,,,,,,,,,,,,,,,,,,,,,,,,,,,,,,,,,,,,,,,,,,17022,2022-11-03_11h17.55.310,vts_reward_expectancy_bt_OFFLINE,2022.2.4,59.929231485705024,
0,0,1,0,0,0,0,1,hexagon,star,1,0,1,0,0,6,6,8,,,,,,,,,,,,,,,,,,,,,,,,,,,,,,,,,,,,,,,,1122.0921290459955,1122.0921290459955,1122.0921290459955,1122.0921290459955,1122.0921290459955,1122.0921290459955,1122.0921290459955,1122.0921290459955,1122.0921290459955,1122.0921290459955,a,0.6413462859927677,10,343,1,1122.759347728992,1124.261162632989,,,,,,,,,,,,,,,,,,,,,,,,,,,,,,,,,,,,,,,,,,,,,,,,,,,,,,,,,,,,,,,,,,,,,,17022,2022-11-03_11h17.55.310,vts_reward_expectancy_bt_OFFLINE,2022.2.4,59.929231485705024,
1,0,0,0,0,0,1,0,triangle,hexagon,1,0,1,0,0,7,7,1,,,,,,,,,,,,,,,,,,,,,,,,,,,,,,,,,,,,,,,,1124.761635539995,1124.761635539995,1124.761635539995,1124.761635539995,1124.761635539995,1124.761635539995,1124.761635539995,1124.761635539995,1124.761635539995,1124.761635539995,a,0.6037987509917002,1,344,1,1125.3957300899929,1126.8975074249902,,,,,,,,,,,,,,,,,,,,,,,,,,,,,,,,,,,,,,,,,,,,,,,,,,,,,,,,,,,,,,,,,,,,,,17022,2022-11-03_11h17.55.310,vts_reward_expectancy_bt_OFFLINE,2022.2.4,59.929231485705024,
1,0,0,0,0,0,0,1,triangle,star,1,0,1,0,0,8,8,2,,,,,,,,,,,,,,,,,,,,,,,,,,,,,,,,,,,,,,,,1127.3978413939913,1127.3978413939913,1127.3978413939913,1127.3978413939913,1127.3978413939913,1127.3978413939913,1127.3978413939913,1127.3978413939913,1127.3978413939913,1127.3978413939913,a,1.0071999500069069,10,354,1,1128.4322915459925,1129.9339486539975,,,,,,,,,,,,,,,,,,,,,,,,,,,,,,,,,,,,,,,,,,,,,,,,,,,,,,,,,,,,,,,,,,,,,,17022,2022-11-03_11h17.55.310,vts_reward_expectancy_bt_OFFLINE,2022.2.4,59.929231485705024,
0,0,1,0,0,1,0,0,hexagon,circle,1,0,1,0,0,9,9,7,,,,,,,,,,,,,,,,,,,,,,,,,,,,,,,,,,,,,,,,1130.434617588995,1130.434617588995,1130.434617588995,1130.434617588995,1130.434617588995,1130.434617588995,1130.434617588995,1130.434617588995,1130.434617588995,1130.434617588995,l,1.1866445190098602,1,355,1,1131.6524785439979,1133.1541128359968,,,,,,,,,,,,,,,,,,,,,,,,,,,,,,,,,,,,,,,,,,,,,,,,,,,,,,,,,,,,,,,,,,,,,,17022,2022-11-03_11h17.55.310,vts_reward_expectancy_bt_OFFLINE,2022.2.4,59.929231485705024,
0,0,0,1,1,0,0,0,star,triangle,1,0,1,0,0,10,10,9,,,,,,,,,,,,,,,,,,,,,,,,,,,,,,,,,,,,,,,,1133.65474880299,1133.65474880299,1133.65474880299,1133.65474880299,1133.65474880299,1133.65474880299,1133.65474880299,1133.65474880299,1133.65474880299,1133.65474880299,l,0.7790388610010268,10,365,1,1134.4556186809932,1135.957277581998,,,,,,,,,,,,,,,,,,,,,,,,,,,,,,,,,,,,,,,,,,,,,,,,,,,,,,,,,,,,,,,,,,,,,,17022,2022-11-03_11h17.55.310,vts_reward_expectancy_bt_OFFLINE,2022.2.4,59.929231485705024,
0,0,0,1,0,0,1,0,star,hexagon,1,0,1,0,0,11,11,11,,,,,,,,,,,,,,,,,,,,,,,,,,,,,,,,,,,,,,,,1136.4577374329965,1136.4577374329965,1136.4577374329965,1136.4577374329965,1136.4577374329965,1136.4577374329965,1136.4577374329965,1136.4577374329965,1136.4577374329965,1136.4577374329965,l,0.721256368997274,10,375,1,1137.2085772680002,1138.7104047169996,,,,,,,,,,,,,,,,,,,,,,,,,,,,,,,,,,,,,,,,,,,,,,,,,,,,,,,,,,,,,,,,,,,,,,17022,2022-11-03_11h17.55.310,vts_reward_expectancy_bt_OFFLINE,2022.2.4,59.929231485705024,
1,0,0,0,0,0,1,0,triangle,hexagon,1,0,1,0,1,0,12,1,,,,,,,,,,,,,,,,,,,,,,,,,,,,,,,,,,,,,,,,1139.2110983389866,1139.2110983389866,1139.2110983389866,1139.2110983389866,1139.2110983389866,1139.2110983389866,1139.2110983389866,1139.2110983389866,1139.2110983389866,1139.2110983389866,a,1.4350245029927464,10,385,1,1140.6627710209868,1142.1641605179902,,,,,,,,,,,,,,,,,,,,,,,,,,,,,,,,,,,,,,,,,,,,,,,,,,,,,,,,,,,,,,,,,,,,,,17022,2022-11-03_11h17.55.310,vts_reward_expectancy_bt_OFFLINE,2022.2.4,59.929231485705024,
1,0,0,0,0,1,0,0,triangle,circle,1,0,1,0,1,1,13,0,,,,,,,,,,,,,,,,,,,,,,,,,,,,,,,,,,,,,,,,1142.6648745129933,1142.6648745129933,1142.6648745129933,1142.6648745129933,1142.6648745129933,1142.6648745129933,1142.6648745129933,1142.6648745129933,1142.6648745129933,1142.6648745129933,a,1.1069616900058463,1,386,1,1143.7991600929963,1145.3010981599946,,,,,,,,,,,,,,,,,,,,,,,,,,,,,,,,,,,,,,,,,,,,,,,,,,,,,,,,,,,,,,,,,,,,,,17022,2022-11-03_11h17.55.310,vts_reward_expectancy_bt_OFFLINE,2022.2.4,59.929231485705024,
0,0,1,0,0,0,0,1,hexagon,star,1,0,1,0,1,2,14,8,,,,,,,,,,,,,,,,,,,,,,,,,,,,,,,,,,,,,,,,1145.8014777079952,1145.8014777079952,1145.8014777079952,1145.8014777079952,1145.8014777079952,1145.8014777079952,1145.8014777079952,1145.8014777079952,1145.8014777079952,1145.8014777079952,a,2.0436245309974765,10,396,1,1147.8705244089942,1149.3722166239895,,,,,,,,,,,,,,,,,,,,,,,,,,,,,,,,,,,,,,,,,,,,,,,,,,,,,,,,,,,,,,,,,,,,,,17022,2022-11-03_11h17.55.310,vts_reward_expectancy_bt_OFFLINE,2022.2.4,59.929231485705024,
0,1,0,0,1,0,0,0,circle,triangle,1,0,1,0,1,3,15,3,,,,,,,,,,,,,,,,,,,,,,,,,,,,,,,,,,,,,,,,1149.8726266299927,1149.8726266299927,1149.8726266299927,1149.8726266299927,1149.8726266299927,1149.8726266299927,1149.8726266299927,1149.8726266299927,1149.8726266299927,1149.8726266299927,a,1.5954184489964973,1,397,1,1151.490970393992,1152.9927360459988,,,,,,,,,,,,,,,,,,,,,,,,,,,,,,,,,,,,,,,,,,,,,,,,,,,,,,,,,,,,,,,,,,,,,,17022,2022-11-03_11h17.55.310,vts_reward_expectancy_bt_OFFLINE,2022.2.4,59.929231485705024,
0,0,0,1,0,1,0,0,star ,circle,1,0,1,0,1,4,16,10,,,,,,,,,,,,,,,,,,,,,,,,,,,,,,,,,,,,,,,,1153.4934946589929,1153.4934946589929,1153.4934946589929,1153.4934946589929,1153.4934946589929,1153.4934946589929,1153.4934946589929,1153.4934946589929,1153.4934946589929,1153.4934946589929,a,1.9781745399959618,1,398,1,1155.4954997309978,1156.9971886079875,,,,,,,,,,,,,,,,,,,,,,,,,,,,,,,,,,,,,,,,,,,,,,,,,,,,,,,,,,,,,,,,,,,,,,17022,2022-11-03_11h17.55.310,vts_reward_expectancy_bt_OFFLINE,2022.2.4,59.929231485705024,
0,0,1,0,0,1,0,0,hexagon,circle,1,0,1,0,1,5,17,7,,,,,,,,,,,,,,,,,,,,,,,,,,,,,,,,,,,,,,,,1157.4976593959873,1157.4976593959873,1157.4976593959873,1157.4976593959873,1157.4976593959873,1157.4976593959873,1157.4976593959873,1157.4976593959873,1157.4976593959873,1157.4976593959873,l,1.3947123819962144,10,408,1,1158.9160358299996,1160.4175952749938,,,,,,,,,,,,,,,,,,,,,,,,,,,,,,,,,,,,,,,,,,,,,,,,,,,,,,,,,,,,,,,,,,,,,,17022,2022-11-03_11h17.55.310,vts_reward_expectancy_bt_OFFLINE,2022.2.4,59.929231485705024,
0,1,0,0,0,0,1,0,circle,hexagon,1,0,1,0,1,6,18,4,,,,,,,,,,,,,,,,,,,,,,,,,,,,,,,,,,,,,,,,1160.9182430449873,1160.9182430449873,1160.9182430449873,1160.9182430449873,1160.9182430449873,1160.9182430449873,1160.9182430449873,1160.9182430449873,1160.9182430449873,1160.9182430449873,l,2.226311655002064,10,418,1,1163.1707730609924,1164.672482501992,,,,,,,,,,,,,,,,,,,,,,,,,,,,,,,,,,,,,,,,,,,,,,,,,,,,,,,,,,,,,,,,,,,,,,17022,2022-11-03_11h17.55.310,vts_reward_expectancy_bt_OFFLINE,2022.2.4,59.929231485705024,
0,0,1,0,1,0,0,0,hexagon,triangle,1,0,1,0,1,7,19,6,,,,,,,,,,,,,,,,,,,,,,,,,,,,,,,,,,,,,,,,1165.1731343009887,1165.1731343009887,1165.1731343009887,1165.1731343009887,1165.1731343009887,1165.1731343009887,1165.1731343009887,1165.1731343009887,1165.1731343009887,1165.1731343009887,a,1.6403814799996326,10,428,1,1166.8418212609977,1168.3431068709906,,,,,,,,,,,,,,,,,,,,,,,,,,,,,,,,,,,,,,,,,,,,,,,,,,,,,,,,,,,,,,,,,,,,,,17022,2022-11-03_11h17.55.310,vts_reward_expectancy_bt_OFFLINE,2022.2.4,59.929231485705024,
0,0,0,1,0,0,1,0,star,hexagon,1,0,1,0,1,8,20,11,,,,,,,,,,,,,,,,,,,,,,,,,,,,,,,,,,,,,,,,1168.8436889999866,1168.8436889999866,1168.8436889999866,1168.8436889999866,1168.8436889999866,1168.8436889999866,1168.8436889999866,1168.8436889999866,1168.8436889999866,1168.8436889999866,a,1.1295165520132286,1,429,1,1169.9949040889915,1171.4964121569938,,,,,,,,,,,,,,,,,,,,,,,,,,,,,,,,,,,,,,,,,,,,,,,,,,,,,,,,,,,,,,,,,,,,,,17022,2022-11-03_11h17.55.310,vts_reward_expectancy_bt_OFFLINE,2022.2.4,59.929231485705024,
1,0,0,0,0,0,0,1,triangle,star,1,0,1,0,1,9,21,2,,,,,,,,,,,,,,,,,,,,,,,,,,,,,,,,,,,,,,,,1171.9972601579939,1171.9972601579939,1171.9972601579939,1171.9972601579939,1171.9972601579939,1171.9972601579939,1171.9972601579939,1171.9972601579939,1171.9972601579939,1171.9972601579939,a,0.9689099399984116,1,430,1,1172.998112492991,1174.4998008419934,,,,,,,,,,,,,,,,,,,,,,,,,,,,,,,,,,,,,,,,,,,,,,,,,,,,,,,,,,,,,,,,,,,,,,17022,2022-11-03_11h17.55.310,vts_reward_expectancy_bt_OFFLINE,2022.2.4,59.929231485705024,
0,1,0,0,0,0,0,1,circle,star,1,0,1,0,1,10,22,5,,,,,,,,,,,,,,,,,,,,,,,,,,,,,,,,,,,,,,,,1175.000349386988,1175.000349386988,1175.000349386988,1175.000349386988,1175.000349386988,1175.000349386988,1175.000349386988,1175.000349386988,1175.000349386988,1175.000349386988,l,0.532660400000168,1,431,1,1175.5510691099917,1177.0525616119994,1177.0525616119994,,,,,,,,,,,,,,,,,,,,,,,,,,,,,,,,,,,,,,,,,,,,,,,,,,,,,,,,,,,,,,,,,,,,,17022,2022-11-03_11h17.55.310,vts_reward_expectancy_bt_OFFLINE,2022.2.4,59.929231485705024,
0,0,0,1,1,0,0,0,star,triangle,1,0,1,0,1,11,23,9,,,,,,,,,,,,,,,,,,,,,,,,,,,,,,,,,,,,,,,,1177.5530959999887,1177.5530959999887,1177.5530959999887,1177.5530959999887,1177.5530959999887,1177.5530959999887,1177.5530959999887,1177.5530959999887,1177.5530959999887,1177.5530959999887,l,0.7901949929946568,1,432,1,1178.3708593789925,1179.872771654991,,,,,,,,,,,,,,,,,,,,,,,,,,,,,,,,,,,,,,,,,,,,,,,,,,,,,,,,,,,,,,,,,,,,,,17022,2022-11-03_11h17.55.310,vts_reward_expectancy_bt_OFFLINE,2022.2.4,59.929231485705024,
0,0,1,0,1,0,0,0,hexagon,triangle,1,0,1,0,2,0,24,6,,,,,,,,,,,,,,,,,,,,,,,,,,,,,,,,,,,,,,,,1180.3730360499903,1180.3730360499903,1180.3730360499903,1180.3730360499903,1180.3730360499903,1180.3730360499903,1180.3730360499903,1180.3730360499903,1180.3730360499903,1180.3730360499903,l,1.7525848250079434,10,442,1,1182.1583419269882,1183.6598249939998,,,,,,,,,,,,,,,,,,,,,,,,,,,,,,,,,,,,,,,,,,,,,,,,,,,,,,,,,,,,,,,,,,,,,,17022,2022-11-03_11h17.55.310,vts_reward_expectancy_bt_OFFLINE,2022.2.4,59.929231485705024,
1,0,0,0,0,0,0,1,triangle,star,1,0,1,0,2,1,25,2,,,,,,,,,,,,,,,,,,,,,,,,,,,,,,,,,,,,,,,,1184.1605374369974,1184.1605374369974,1184.1605374369974,1184.1605374369974,1184.1605374369974,1184.1605374369974,1184.1605374369974,1184.1605374369974,1184.1605374369974,1184.1605374369974,a,1.1583953289955389,1,443,1,1185.3450625119876,1186.8467320469936,,,,,,,,,,,,,,,,,,,,,,,,,,,,,,,,,,,,,,,,,,,,,,,,,,,,,,,,,,,,,,,,,,,,,,17022,2022-11-03_11h17.55.310,vts_reward_expectancy_bt_OFFLINE,2022.2.4,59.929231485705024,
0,0,0,1,1,0,0,0,star,triangle,1,0,1,0,2,2,26,9,,,,,,,,,,,,,,,,,,,,,,,,,,,,,,,,,,,,,,,,1187.3474414469965,1187.3474414469965,1187.3474414469965,1187.3474414469965,1187.3474414469965,1187.3474414469965,1187.3474414469965,1187.3474414469965,1187.3474414469965,1187.3474414469965,a,0.6851107179973042,10,453,1,1188.0647331149958,1189.5663905169931,,,,,,,,,,,,,,,,,,,,,,,,,,,,,,,,,,,,,,,,,,,,,,,,,,,,,,,,,,,,,,,,,,,,,,17022,2022-11-03_11h17.55.310,vts_reward_expectancy_bt_OFFLINE,2022.2.4,59.929231485705024,
0,0,1,0,0,0,0,1,hexagon,star,1,0,1,0,2,3,27,8,,,,,,,,,,,,,,,,,,,,,,,,,,,,,,,,,,,,,,,,1190.0669540209929,1190.0669540209929,1190.0669540209929,1190.0669540209929,1190.0669540209929,1190.0669540209929,1190.0669540209929,1190.0669540209929,1190.0669540209929,1190.0669540209929,a,1.3381357100006426,1,454,1,1191.4352209819917,1192.9366656789934,,,,,,,,,,,,,,,,,,,,,,,,,,,,,,,,,,,,,,,,,,,,,,,,,,,,,,,,,,,,,,,,,,,,,,17022,2022-11-03_11h17.55.310,vts_reward_expectancy_bt_OFFLINE,2022.2.4,59.929231485705024,
0,0,1,0,0,1,0,0,hexagon,circle,1,0,1,0,2,4,28,7,,,,,,,,,,,,,,,,,,,,,,,,,,,,,,,,,,,,,,,,1193.43751733299,1193.43751733299,1193.43751733299,1193.43751733299,1193.43751733299,1193.43751733299,1193.43751733299,1193.43751733299,1193.43751733299,1193.43751733299,a,0.9183114100014791,10,464,1,1194.388474344989,1195.89003047999,,,,,,,,,,,,,,,,,,,,,,,,,,,,,,,,,,,,,,,,,,,,,,,,,,,,,,,,,,,,,,,,,,,,,,17022,2022-11-03_11h17.55.310,vts_reward_expectancy_bt_OFFLINE,2022.2.4,59.929231485705024,
0,0,0,1,0,1,0,0,star ,circle,1,0,1,0,2,5,29,10,,,,,,,,,,,,,,,,,,,,,,,,,,,,,,,,,,,,,,,,1196.3907292089862,1196.3907292089862,1196.3907292089862,1196.3907292089862,1196.3907292089862,1196.3907292089862,1196.3907292089862,1196.3907292089862,1196.3907292089862,1196.3907292089862,l,1.036060020007426,10,474,1,1197.4583696199988,1198.960470015998,,,,,,,,,,,,,,,,,,,,,,,,,,,,,,,,,,,,,,,,,,,,,,,,,,,,,,,,,,,,,,,,,,,,,,17022,2022-11-03_11h17.55.310,vts_reward_expectancy_bt_OFFLINE,2022.2.4,59.929231485705024,
0,1,0,0,0,0,0,1,circle,star,1,0,1,0,2,6,30,5,,,,,,,,,,,,,,,,,,,,,,,,,,,,,,,,,,,,,,,,1199.460852712,1199.460852712,1199.460852712,1199.460852712,1199.460852712,1199.460852712,1199.460852712,1199.460852712,1199.460852712,1199.460852712,a,0.5633239129965659,10,484,1,1200.044657417995,1201.54639992,,,,,,,,,,,,,,,,,,,,,,,,,,,,,,,,,,,,,,,,,,,,,,,,,,,,,,,,,,,,,,,,,,,,,,17022,2022-11-03_11h17.55.310,vts_reward_expectancy_bt_OFFLINE,2022.2.4,59.929231485705024,
0,0,0,1,0,0,1,0,star,hexagon,1,0,1,0,2,7,31,11,,,,,,,,,,,,,,,,,,,,,,,,,,,,,,,,,,,,,,,,1202.0470772239933,1202.0470772239933,1202.0470772239933,1202.0470772239933,1202.0470772239933,1202.0470772239933,1202.0470772239933,1202.0470772239933,1202.0470772239933,1202.0470772239933,l,0.6324002939945785,1,485,1,1202.6976932459947,1204.199181899996,,,,,,,,,,,,,,,,,,,,,,,,,,,,,,,,,,,,,,,,,,,,,,,,,,,,,,,,,,,,,,,,,,,,,,17022,2022-11-03_11h17.55.310,vts_reward_expectancy_bt_OFFLINE,2022.2.4,59.929231485705024,
1,0,0,0,0,0,1,0,triangle,hexagon,1,0,1,0,2,8,32,1,,,,,,,,,,,,,,,,,,,,,,,,,,,,,,,,,,,,,,,,1204.699662012994,1204.699662012994,1204.699662012994,1204.699662012994,1204.699662012994,1204.699662012994,1204.699662012994,1204.699662012994,1204.699662012994,1204.699662012994,l,0.9707097640057327,1,486,1,1205.7008174259972,1207.2025637799961,,,,,,,,,,,,,,,,,,,,,,,,,,,,,,,,,,,,,,,,,,,,,,,,,,,,,,,,,,,,,,,,,,,,,,17022,2022-11-03_11h17.55.310,vts_reward_expectancy_bt_OFFLINE,2022.2.4,59.929231485705024,
1,0,0,0,0,1,0,0,triangle,circle,1,0,1,0,2,9,33,0,,,,,,,,,,,,,,,,,,,,,,,,,,,,,,,,,,,,,,,,1207.7030477239896,1207.7030477239896,1207.7030477239896,1207.7030477239896,1207.7030477239896,1207.7030477239896,1207.7030477239896,1207.7030477239896,1207.7030477239896,1207.7030477239896,l,1.5240679179987637,1,487,1,1209.2548029659956,1210.7564495299885,,,,,,,,,,,,,,,,,,,,,,,,,,,,,,,,,,,,,,,,,,,,,,,,,,,,,,,,,,,,,,,,,,,,,,17022,2022-11-03_11h17.55.310,vts_reward_expectancy_bt_OFFLINE,2022.2.4,59.929231485705024,
0,1,0,0,1,0,0,0,circle,triangle,1,0,1,0,2,10,34,3,,,,,,,,,,,,,,,,,,,,,,,,,,,,,,,,,,,,,,,,1211.2571067049867,1211.2571067049867,1211.2571067049867,1211.2571067049867,1211.2571067049867,1211.2571067049867,1211.2571067049867,1211.2571067049867,1211.2571067049867,1211.2571067049867,l,0.9614066969952546,1,488,1,1212.2415347249917,1213.7430749679916,,,,,,,,,,,,,,,,,,,,,,,,,,,,,,,,,,,,,,,,,,,,,,,,,,,,,,,,,,,,,,,,,,,,,,17022,2022-11-03_11h17.55.310,vts_reward_expectancy_bt_OFFLINE,2022.2.4,59.929231485705024,
0,1,0,0,0,0,1,0,circle,hexagon,1,0,1,0,2,11,35,4,,,,,,,,,,,,,,,,,,,,,,,,,,,,,,,,,,,,,,,,1214.2434979879908,1214.2434979879908,1214.2434979879908,1214.2434979879908,1214.2434979879908,1214.2434979879908,1214.2434979879908,1214.2434979879908,1214.2434979879908,1214.2434979879908,l,1.0355983360059327,10,498,1,1215.311392394986,1216.8130813549942,,,,,,,,,,,,,,,,,,,,,,,,,,,,,,,,,,,,,,,,,,,,,,,,,,,,,,,,,,,,,,,,,,,,,,17022,2022-11-03_11h17.55.310,vts_reward_expectancy_bt_OFFLINE,2022.2.4,59.929231485705024,
1,0,0,0,0,0,0,1,triangle,star,1,0,1,0,3,0,36,2,,,,,,,,,,,,,,,,,,,,,,,,,,,,,,,,,,,,,,,,1217.313653316989,1217.313653316989,1217.313653316989,1217.313653316989,1217.313653316989,1217.313653316989,1217.313653316989,1217.313653316989,1217.313653316989,1217.313653316989,a,1.6100277459918289,1,499,1,1218.9490943149867,1220.450626438993,,,,,,,,,,,,,,,,,,,,,,,,,,,,,,,,,,,,,,,,,,,,,,,,,,,,,,,,,,,,,,,,,,,,,,17022,2022-11-03_11h17.55.310,vts_reward_expectancy_bt_OFFLINE,2022.2.4,59.929231485705024,
0,1,0,0,1,0,0,0,circle,triangle,1,0,1,0,3,1,37,3,,,,,,,,,,,,,,,,,,,,,,,,,,,,,,,,,,,,,,,,1220.9509780639928,1220.9509780639928,1220.9509780639928,1220.9509780639928,1220.9509780639928,1220.9509780639928,1220.9509780639928,1220.9509780639928,1220.9509780639928,1220.9509780639928,a,1.001110276003601,1,500,1,1221.9688581669907,1223.4706872509996,1223.4706872509996,,,,,,,,,,,,,,,,,,,,,,,,,,,,,,,,,,,,,,,,,,,,,,,,,,,,,,,,,,,,,,,,,,,,,17022,2022-11-03_11h17.55.310,vts_reward_expectancy_bt_OFFLINE,2022.2.4,59.929231485705024,
0,0,1,0,0,0,0,1,hexagon,star,1,0,1,0,3,2,38,8,,,,,,,,,,,,,,,,,,,,,,,,,,,,,,,,,,,,,,,,1223.971331555993,1223.971331555993,1223.971331555993,1223.971331555993,1223.971331555993,1223.971331555993,1223.971331555993,1223.971331555993,1223.971331555993,1223.971331555993,l,0.9723677430010866,10,510,1,1224.9722485529928,1226.4743058909953,,,,,,,,,,,,,,,,,,,,,,,,,,,,,,,,,,,,,,,,,,,,,,,,,,,,,,,,,,,,,,,,,,,,,,17022,2022-11-03_11h17.55.310,vts_reward_expectancy_bt_OFFLINE,2022.2.4,59.929231485705024,
0,0,1,0,1,0,0,0,hexagon,triangle,1,0,1,0,3,3,39,6,,,,,,,,,,,,,,,,,,,,,,,,,,,,,,,,,,,,,,,,1226.9743635569903,1226.9743635569903,1226.9743635569903,1226.9743635569903,1226.9743635569903,1226.9743635569903,1226.9743635569903,1226.9743635569903,1226.9743635569903,1226.9743635569903,l,1.1411909760063281,1,511,1,1228.1423740939936,1229.6440479319863,,,,,,,,,,,,,,,,,,,,,,,,,,,,,,,,,,,,,,,,,,,,,,,,,,,,,,,,,,,,,,,,,,,,,,17022,2022-11-03_11h17.55.310,vts_reward_expectancy_bt_OFFLINE,2022.2.4,59.929231485705024,
0,1,0,0,0,0,1,0,circle,hexagon,1,0,1,0,3,4,40,4,,,,,,,,,,,,,,,,,,,,,,,,,,,,,,,,,,,,,,,,1230.1444080879883,1230.1444080879883,1230.1444080879883,1230.1444080879883,1230.1444080879883,1230.1444080879883,1230.1444080879883,1230.1444080879883,1230.1444080879883,1230.1444080879883,a,0.738411524987896,10,521,1,1230.9120799869997,1232.4136707449943,,,,,,,,,,,,,,,,,,,,,,,,,,,,,,,,,,,,,,,,,,,,,,,,,,,,,,,,,,,,,,,,,,,,,,17022,2022-11-03_11h17.55.310,vts_reward_expectancy_bt_OFFLINE,2022.2.4,59.929231485705024,
0,0,0,1,1,0,0,0,star,triangle,1,0,1,0,3,5,41,9,,,,,,,,,,,,,,,,,,,,,,,,,,,,,,,,,,,,,,,,1232.9142168439867,1232.9142168439867,1232.9142168439867,1232.9142168439867,1232.9142168439867,1232.9142168439867,1232.9142168439867,1232.9142168439867,1232.9142168439867,1232.9142168439867,a,0.7150077679980313,1,522,1,1233.6486013879912,1235.150122506995,,,,,,,,,,,,,,,,,,,,,,,,,,,,,,,,,,,,,,,,,,,,,,,,,,,,,,,,,,,,,,,,,,,,,,17022,2022-11-03_11h17.55.310,vts_reward_expectancy_bt_OFFLINE,2022.2.4,59.929231485705024,
0,0,0,1,0,1,0,0,star ,circle,1,0,1,0,3,6,42,10,,,,,,,,,,,,,,,,,,,,,,,,,,,,,,,,,,,,,,,,1235.6508688839967,1235.6508688839967,1235.6508688839967,1235.6508688839967,1235.6508688839967,1235.6508688839967,1235.6508688839967,1235.6508688839967,1235.6508688839967,1235.6508688839967,l,1.18536635300552,1,523,1,1236.868735126991,1238.3701818109985,,,,,,,,,,,,,,,,,,,,,,,,,,,,,,,,,,,,,,,,,,,,,,,,,,,,,,,,,,,,,,,,,,,,,,17022,2022-11-03_11h17.55.310,vts_reward_expectancy_bt_OFFLINE,2022.2.4,59.929231485705024,
0,1,0,0,0,0,0,1,circle,star,1,0,1,0,3,7,43,5,,,,,,,,,,,,,,,,,,,,,,,,,,,,,,,,,,,,,,,,1238.8707891279919,1238.8707891279919,1238.8707891279919,1238.8707891279919,1238.8707891279919,1238.8707891279919,1238.8707891279919,1238.8707891279919,1238.8707891279919,1238.8707891279919,l,1.080646735994378,1,524,1,1239.9721632529981,1241.4738186549948,,,,,,,,,,,,,,,,,,,,,,,,,,,,,,,,,,,,,,,,,,,,,,,,,,,,,,,,,,,,,,,,,,,,,,17022,2022-11-03_11h17.55.310,vts_reward_expectancy_bt_OFFLINE,2022.2.4,59.929231485705024,
0,0,1,0,0,1,0,0,hexagon,circle,1,0,1,0,3,8,44,7,,,,,,,,,,,,,,,,,,,,,,,,,,,,,,,,,,,,,,,,1241.974368308991,1241.974368308991,1241.974368308991,1241.974368308991,1241.974368308991,1241.974368308991,1241.974368308991,1241.974368308991,1241.974368308991,1241.974368308991,l,0.990860651989351,1,525,1,1242.9923249919957,1244.4937348889944,,,,,,,,,,,,,,,,,,,,,,,,,,,,,,,,,,,,,,,,,,,,,,,,,,,,,,,,,,,,,,,,,,,,,,17022,2022-11-03_11h17.55.310,vts_reward_expectancy_bt_OFFLINE,2022.2.4,59.929231485705024,
1,0,0,0,0,1,0,0,triangle,circle,1,0,1,0,3,9,45,0,,,,,,,,,,,,,,,,,,,,,,,,,,,,,,,,,,,,,,,,1244.9943047039997,1244.9943047039997,1244.9943047039997,1244.9943047039997,1244.9943047039997,1244.9943047039997,1244.9943047039997,1244.9943047039997,1244.9943047039997,1244.9943047039997,a,1.6192023150069872,1,526,1,1246.6461782309925,1248.1478701549931,,,,,,,,,,,,,,,,,,,,,,,,,,,,,,,,,,,,,,,,,,,,,,,,,,,,,,,,,,,,,,,,,,,,,,17022,2022-11-03_11h17.55.310,vts_reward_expectancy_bt_OFFLINE,2022.2.4,59.929231485705024,
1,0,0,0,0,0,1,0,triangle,hexagon,1,0,1,0,3,10,46,1,,,,,,,,,,,,,,,,,,,,,,,,,,,,,,,,,,,,,,,,1248.648592833997,1248.648592833997,1248.648592833997,1248.648592833997,1248.648592833997,1248.648592833997,1248.648592833997,1248.648592833997,1248.648592833997,1248.648592833997,a,0.7646674379939213,10,536,1,1249.4324964249972,1250.9340450369928,,,,,,,,,,,,,,,,,,,,,,,,,,,,,,,,,,,,,,,,,,,,,,,,,,,,,,,,,,,,,,,,,,,,,,17022,2022-11-03_11h17.55.310,vts_reward_expectancy_bt_OFFLINE,2022.2.4,59.929231485705024,
0,0,0,1,0,0,1,0,star,hexagon,1,0,1,0,3,11,47,11,,,,,,,,,,,,,,,,,,,,,,,,,,,,,,,,,,,,,,,,1251.4346230869996,1251.4346230869996,1251.4346230869996,1251.4346230869996,1251.4346230869996,1251.4346230869996,1251.4346230869996,1251.4346230869996,1251.4346230869996,1251.4346230869996,a,2.4106254370126408,1,537,1,1253.8706944669975,1255.3722519959992,,,,,,,,,,,,,,,,,,,,,,,,,,,,,,,,,,,,,,,,,,,,,,,,,,,,,,,,,,,,,,,,,,,,,,17022,2022-11-03_11h17.55.310,vts_reward_expectancy_bt_OFFLINE,2022.2.4,59.929231485705024,
0,0,1,0,0,0,0,1,hexagon,star,2,0,2,0,0,0,0,8,,,,,,,,,,,,,,,,,,,,,,,,,,,,,,,,,,,,,,,,1262.836341667993,1262.836341667993,1262.836341667993,1262.836341667993,1262.836341667993,1262.836341667993,1262.836341667993,1262.836341667993,1262.836341667993,1262.836341667993,l,0.8420384600030957,1,538,2,1263.6982861889992,1265.1998818909924,,,,,,,,,,,,,,,,,,,,,,,,,,,,,,,,,,,,,,,,,,,,,,,,,,,,,,,,,,,,,,,,,,,,,,17022,2022-11-03_11h17.55.310,vts_reward_expectancy_bt_OFFLINE,2022.2.4,59.929231485705024,
0,1,0,0,0,0,0,1,circle,star,2,0,2,0,0,1,1,5,,,,,,,,,,,,,,,,,,,,,,,,,,,,,,,,,,,,,,,,1265.7004313399957,1265.7004313399957,1265.7004313399957,1265.7004313399957,1265.7004313399957,1265.7004313399957,1265.7004313399957,1265.7004313399957,1265.7004313399957,1265.7004313399957,a,0.5421578259993112,1,539,2,1266.267738399998,1267.7693153829896,,,,,,,,,,,,,,,,,,,,,,,,,,,,,,,,,,,,,,,,,,,,,,,,,,,,,,,,,,,,,,,,,,,,,,17022,2022-11-03_11h17.55.310,vts_reward_expectancy_bt_OFFLINE,2022.2.4,59.929231485705024,
0,0,0,1,1,0,0,0,star,triangle,2,0,2,0,0,2,2,9,,,,,,,,,,,,,,,,,,,,,,,,,,,,,,,,,,,,,,,,1268.2700180749962,1268.2700180749962,1268.2700180749962,1268.2700180749962,1268.2700180749962,1268.2700180749962,1268.2700180749962,1268.2700180749962,1268.2700180749962,1268.2700180749962,a,0.31302196499018464,10,549,2,1268.603909086989,1270.105309298,,,,,,,,,,,,,,,,,,,,,,,,,,,,,,,,,,,,,,,,,,,,,,,,,,,,,,,,,,,,,,,,,,,,,,17022,2022-11-03_11h17.55.310,vts_reward_expectancy_bt_OFFLINE,2022.2.4,59.929231485705024,
0,1,0,0,1,0,0,0,circle,triangle,2,0,2,0,0,3,3,3,,,,,,,,,,,,,,,,,,,,,,,,,,,,,,,,,,,,,,,,1270.6059296099993,1270.6059296099993,1270.6059296099993,1270.6059296099993,1270.6059296099993,1270.6059296099993,1270.6059296099993,1270.6059296099993,1270.6059296099993,1270.6059296099993,a,0.542211527004838,10,559,2,1271.1730611019884,1272.6747196789947,,,,,,,,,,,,,,,,,,,,,,,,,,,,,,,,,,,,,,,,,,,,,,,,,,,,,,,,,,,,,,,,,,,,,,17022,2022-11-03_11h17.55.310,vts_reward_expectancy_bt_OFFLINE,2022.2.4,59.929231485705024,
0,0,1,0,1,0,0,0,hexagon,triangle,2,0,2,0,0,4,4,6,,,,,,,,,,,,,,,,,,,,,,,,,,,,,,,,,,,,,,,,1273.175364568,1273.175364568,1273.175364568,1273.175364568,1273.175364568,1273.175364568,1273.175364568,1273.175364568,1273.175364568,1273.175364568,a,0.44861289199616294,1,560,2,1273.6427104519971,1275.144462457989,1275.144462457989,,,,,,,,,,,,,,,,,,,,,,,,,,,,,,,,,,,,,,,,,,,,,,,,,,,,,,,,,,,,,,,,,,,,,17022,2022-11-03_11h17.55.310,vts_reward_expectancy_bt_OFFLINE,2022.2.4,59.929231485705024,
0,0,0,1,0,1,0,0,star ,circle,2,0,2,0,0,5,5,10,,,,,,,,,,,,,,,,,,,,,,,,,,,,,,,,,,,,,,,,1275.6449050709925,1275.6449050709925,1275.6449050709925,1275.6449050709925,1275.6449050709925,1275.6449050709925,1275.6449050709925,1275.6449050709925,1275.6449050709925,1275.6449050709925,l,1.5105519630014896,10,570,2,1277.179922239986,1278.6815221309953,,,,,,,,,,,,,,,,,,,,,,,,,,,,,,,,,,,,,,,,,,,,,,,,,,,,,,,,,,,,,,,,,,,,,,17022,2022-11-03_11h17.55.310,vts_reward_expectancy_bt_OFFLINE,2022.2.4,59.929231485705024,
1,0,0,0,0,1,0,0,triangle,circle,2,0,2,0,0,6,6,0,,,,,,,,,,,,,,,,,,,,,,,,,,,,,,,,,,,,,,,,1279.182072008989,1279.182072008989,1279.182072008989,1279.182072008989,1279.182072008989,1279.182072008989,1279.182072008989,1279.182072008989,1279.182072008989,1279.182072008989,a,1.945062141996459,10,580,2,1281.150842365998,1282.6525696609897,,,,,,,,,,,,,,,,,,,,,,,,,,,,,,,,,,,,,,,,,,,,,,,,,,,,,,,,,,,,,,,,,,,,,,17022,2022-11-03_11h17.55.310,vts_reward_expectancy_bt_OFFLINE,2022.2.4,59.929231485705024,
1,0,0,0,0,0,0,1,triangle,star,2,0,2,0,0,7,7,2,,,,,,,,,,,,,,,,,,,,,,,,,,,,,,,,,,,,,,,,1283.1529234029877,1283.1529234029877,1283.1529234029877,1283.1529234029877,1283.1529234029877,1283.1529234029877,1283.1529234029877,1283.1529234029877,1283.1529234029877,1283.1529234029877,l,0.8656754190014908,1,581,2,1284.0373002609995,1285.5390620869875,1285.5390620869875,,,,,,,,,,,,,,,,,,,,,,,,,,,,,,,,,,,,,,,,,,,,,,,,,,,,,,,,,,,,,,,,,,,,,17022,2022-11-03_11h17.55.310,vts_reward_expectancy_bt_OFFLINE,2022.2.4,59.929231485705024,
1,0,0,0,0,0,1,0,triangle,hexagon,2,0,2,0,0,8,8,1,,,,,,,,,,,,,,,,,,,,,,,,,,,,,,,,,,,,,,,,1286.0394057759986,1286.0394057759986,1286.0394057759986,1286.0394057759986,1286.0394057759986,1286.0394057759986,1286.0394057759986,1286.0394057759986,1286.0394057759986,1286.0394057759986,l,1.1081194859871175,10,591,2,1287.174242819994,1288.6757172639918,,,,,,,,,,,,,,,,,,,,,,,,,,,,,,,,,,,,,,,,,,,,,,,,,,,,,,,,,,,,,,,,,,,,,,17022,2022-11-03_11h17.55.310,vts_reward_expectancy_bt_OFFLINE,2022.2.4,59.929231485705024,
0,0,1,0,0,1,0,0,hexagon,circle,2,0,2,0,0,9,9,7,,,,,,,,,,,,,,,,,,,,,,,,,,,,,,,,,,,,,,,,1289.1762215899944,1289.1762215899944,1289.1762215899944,1289.1762215899944,1289.1762215899944,1289.1762215899944,1289.1762215899944,1289.1762215899944,1289.1762215899944,1289.1762215899944,a,1.9196609990030993,1,592,2,1291.1282841799984,1292.6300499979989,,,,,,,,,,,,,,,,,,,,,,,,,,,,,,,,,,,,,,,,,,,,,,,,,,,,,,,,,,,,,,,,,,,,,,17022,2022-11-03_11h17.55.310,vts_reward_expectancy_bt_OFFLINE,2022.2.4,59.929231485705024,
0,1,0,0,0,0,1,0,circle,hexagon,2,0,2,0,0,10,10,4,,,,,,,,,,,,,,,,,,,,,,,,,,,,,,,,,,,,,,,,1293.130573790986,1293.130573790986,1293.130573790986,1293.130573790986,1293.130573790986,1293.130573790986,1293.130573790986,1293.130573790986,1293.130573790986,1293.130573790986,a,1.5077914479916217,1,593,2,1294.665624604997,1296.1672374179907,,,,,,,,,,,,,,,,,,,,,,,,,,,,,,,,,,,,,,,,,,,,,,,,,,,,,,,,,,,,,,,,,,,,,,17022,2022-11-03_11h17.55.310,vts_reward_expectancy_bt_OFFLINE,2022.2.4,59.929231485705024,
0,0,0,1,0,0,1,0,star,hexagon,2,0,2,0,0,11,11,11,,,,,,,,,,,,,,,,,,,,,,,,,,,,,,,,,,,,,,,,1296.6678205089993,1296.6678205089993,1296.6678205089993,1296.6678205089993,1296.6678205089993,1296.6678205089993,1296.6678205089993,1296.6678205089993,1296.6678205089993,1296.6678205089993,l,1.5029629619966727,10,603,2,1298.2029411289986,1299.7045569379989,,,,,,,,,,,,,,,,,,,,,,,,,,,,,,,,,,,,,,,,,,,,,,,,,,,,,,,,,,,,,,,,,,,,,,17022,2022-11-03_11h17.55.310,vts_reward_expectancy_bt_OFFLINE,2022.2.4,59.929231485705024,
0,0,1,0,0,0,0,1,hexagon,star,2,0,2,0,1,0,12,8,,,,,,,,,,,,,,,,,,,,,,,,,,,,,,,,,,,,,,,,1300.2051049459988,1300.2051049459988,1300.2051049459988,1300.2051049459988,1300.2051049459988,1300.2051049459988,1300.2051049459988,1300.2051049459988,1300.2051049459988,1300.2051049459988,a,2.106027137997444,1,604,2,1302.3410426499904,1303.8423758289864,,,,,,,,,,,,,,,,,,,,,,,,,,,,,,,,,,,,,,,,,,,,,,,,,,,,,,,,,,,,,,,,,,,,,,17022,2022-11-03_11h17.55.310,vts_reward_expectancy_bt_OFFLINE,2022.2.4,59.929231485705024,
1,0,0,0,0,1,0,0,triangle,circle,2,0,2,0,1,1,13,0,,,,,,,,,,,,,,,,,,,,,,,,,,,,,,,,,,,,,,,,1304.3430726679944,1304.3430726679944,1304.3430726679944,1304.3430726679944,1304.3430726679944,1304.3430726679944,1304.3430726679944,1304.3430726679944,1304.3430726679944,1304.3430726679944,l,1.70290951700008,10,614,2,1306.0783242219914,1307.5799962349993,,,,,,,,,,,,,,,,,,,,,,,,,,,,,,,,,,,,,,,,,,,,,,,,,,,,,,,,,,,,,,,,,,,,,,17022,2022-11-03_11h17.55.310,vts_reward_expectancy_bt_OFFLINE,2022.2.4,59.929231485705024,
0,1,0,0,0,0,1,0,circle,hexagon,2,0,2,0,1,2,14,4,,,,,,,,,,,,,,,,,,,,,,,,,,,,,,,,,,,,,,,,1308.0805112349917,1308.0805112349917,1308.0805112349917,1308.0805112349917,1308.0805112349917,1308.0805112349917,1308.0805112349917,1308.0805112349917,1308.0805112349917,1308.0805112349917,a,0.9582341909990646,1,615,2,1309.065150091992,1310.5667942709988,,,,,,,,,,,,,,,,,,,,,,,,,,,,,,,,,,,,,,,,,,,,,,,,,,,,,,,,,,,,,,,,,,,,,,17022,2022-11-03_11h17.55.310,vts_reward_expectancy_bt_OFFLINE,2022.2.4,59.929231485705024,
1,0,0,0,0,0,0,1,triangle,star,2,0,2,0,1,3,15,2,,,,,,,,,,,,,,,,,,,,,,,,,,,,,,,,,,,,,,,,1311.067426108988,1311.067426108988,1311.067426108988,1311.067426108988,1311.067426108988,1311.067426108988,1311.067426108988,1311.067426108988,1311.067426108988,1311.067426108988,a,0.9308227059955243,1,616,2,1312.0183812539908,1313.5199814819935,,,,,,,,,,,,,,,,,,,,,,,,,,,,,,,,,,,,,,,,,,,,,,,,,,,,,,,,,,,,,,,,,,,,,,17022,2022-11-03_11h17.55.310,vts_reward_expectancy_bt_OFFLINE,2022.2.4,59.929231485705024,
0,1,0,0,0,0,0,1,circle,star,2,0,2,0,1,4,16,5,,,,,,,,,,,,,,,,,,,,,,,,,,,,,,,,,,,,,,,,1314.0204585419997,1314.0204585419997,1314.0204585419997,1314.0204585419997,1314.0204585419997,1314.0204585419997,1314.0204585419997,1314.0204585419997,1314.0204585419997,1314.0204585419997,a,0.9932495660032146,10,626,2,1315.0382256909943,1316.539750854994,,,,,,,,,,,,,,,,,,,,,,,,,,,,,,,,,,,,,,,,,,,,,,,,,,,,,,,,,,,,,,,,,,,,,,17022,2022-11-03_11h17.55.310,vts_reward_expectancy_bt_OFFLINE,2022.2.4,59.929231485705024,
0,0,1,0,1,0,0,0,hexagon,triangle,2,0,2,0,1,5,17,6,,,,,,,,,,,,,,,,,,,,,,,,,,,,,,,,,,,,,,,,1317.040719436991,1317.040719436991,1317.040719436991,1317.040719436991,1317.040719436991,1317.040719436991,1317.040719436991,1317.040719436991,1317.040719436991,1317.040719436991,l,1.504220244998578,1,627,2,1318.5756759739888,1320.077061901,,,,,,,,,,,,,,,,,,,,,,,,,,,,,,,,,,,,,,,,,,,,,,,,,,,,,,,,,,,,,,,,,,,,,,17022,2022-11-03_11h17.55.310,vts_reward_expectancy_bt_OFFLINE,2022.2.4,59.929231485705024,
0,0,0,1,0,1,0,0,star ,circle,2,0,2,0,1,6,18,10,,,,,,,,,,,,,,,,,,,,,,,,,,,,,,,,,,,,,,,,1320.577595594994,1320.577595594994,1320.577595594994,1320.577595594994,1320.577595594994,1320.577595594994,1320.577595594994,1320.577595594994,1320.577595594994,1320.577595594994,l,2.4236962430004496,1,628,2,1323.0305453119945,1324.531899417998,,,,,,,,,,,,,,,,,,,,,,,,,,,,,,,,,,,,,,,,,,,,,,,,,,,,,,,,,,,,,,,,,,,,,,17022,2022-11-03_11h17.55.310,vts_reward_expectancy_bt_OFFLINE,2022.2.4,59.929231485705024,
1,0,0,0,0,0,1,0,triangle,hexagon,2,0,2,0,1,7,19,1,,,,,,,,,,,,,,,,,,,,,,,,,,,,,,,,,,,,,,,,1325.0326501229865,1325.0326501229865,1325.0326501229865,1325.0326501229865,1325.0326501229865,1325.0326501229865,1325.0326501229865,1325.0326501229865,1325.0326501229865,1325.0326501229865,l,0.9375047599896789,1,629,2,1326.0003189609997,1327.5019119419885,,,,,,,,,,,,,,,,,,,,,,,,,,,,,,,,,,,,,,,,,,,,,,,,,,,,,,,,,,,,,,,,,,,,,,17022,2022-11-03_11h17.55.310,vts_reward_expectancy_bt_OFFLINE,2022.2.4,59.929231485705024,
0,0,0,1,0,0,1,0,star,hexagon,2,0,2,0,1,8,20,11,,,,,,,,,,,,,,,,,,,,,,,,,,,,,,,,,,,,,,,,1328.0027842899872,1328.0027842899872,1328.0027842899872,1328.0027842899872,1328.0027842899872,1328.0027842899872,1328.0027842899872,1328.0027842899872,1328.0027842899872,1328.0027842899872,l,1.3658939039887628,10,639,2,1329.387198544995,1330.8890514969971,,,,,,,,,,,,,,,,,,,,,,,,,,,,,,,,,,,,,,,,,,,,,,,,,,,,,,,,,,,,,,,,,,,,,,17022,2022-11-03_11h17.55.310,vts_reward_expectancy_bt_OFFLINE,2022.2.4,59.929231485705024,
0,0,0,1,1,0,0,0,star,triangle,2,0,2,0,1,9,21,9,,,,,,,,,,,,,,,,,,,,,,,,,,,,,,,,,,,,,,,,1331.389512277994,1331.389512277994,1331.389512277994,1331.389512277994,1331.389512277994,1331.389512277994,1331.389512277994,1331.389512277994,1331.389512277994,1331.389512277994,a,0.8147137160121929,1,640,2,1332.223666373,1333.7256055039907,,,,,,,,,,,,,,,,,,,,,,,,,,,,,,,,,,,,,,,,,,,,,,,,,,,,,,,,,,,,,,,,,,,,,,17022,2022-11-03_11h17.55.310,vts_reward_expectancy_bt_OFFLINE,2022.2.4,59.929231485705024,
0,0,1,0,0,1,0,0,hexagon,circle,2,0,2,0,1,10,22,7,,,,,,,,,,,,,,,,,,,,,,,,,,,,,,,,,,,,,,,,1334.2259095799964,1334.2259095799964,1334.2259095799964,1334.2259095799964,1334.2259095799964,1334.2259095799964,1334.2259095799964,1334.2259095799964,1334.2259095799964,1334.2259095799964,a,0.836329920013668,10,650,2,1335.0940508200001,1336.59549242699,,,,,,,,,,,,,,,,,,,,,,,,,,,,,,,,,,,,,,,,,,,,,,,,,,,,,,,,,,,,,,,,,,,,,,17022,2022-11-03_11h17.55.310,vts_reward_expectancy_bt_OFFLINE,2022.2.4,59.929231485705024,
0,1,0,0,1,0,0,0,circle,triangle,2,0,2,0,1,11,23,3,,,,,,,,,,,,,,,,,,,,,,,,,,,,,,,,,,,,,,,,1337.0958395239868,1337.0958395239868,1337.0958395239868,1337.0958395239868,1337.0958395239868,1337.0958395239868,1337.0958395239868,1337.0958395239868,1337.0958395239868,1337.0958395239868,l,1.2057717939896975,10,660,2,1338.330859632988,1339.832534538,,,,,,,,,,,,,,,,,,,,,,,,,,,,,,,,,,,,,,,,,,,,,,,,,,,,,,,,,,,,,,,,,,,,,,17022,2022-11-03_11h17.55.310,vts_reward_expectancy_bt_OFFLINE,2022.2.4,59.929231485705024,
0,1,0,0,0,0,1,0,circle,hexagon,2,0,2,0,2,0,24,4,,,,,,,,,,,,,,,,,,,,,,,,,,,,,,,,,,,,,,,,1340.332981525993,1340.332981525993,1340.332981525993,1340.332981525993,1340.332981525993,1340.332981525993,1340.332981525993,1340.332981525993,1340.332981525993,1340.332981525993,l,0.8263571509887697,10,670,2,1341.1837708559906,1342.6856443309953,,,,,,,,,,,,,,,,,,,,,,,,,,,,,,,,,,,,,,,,,,,,,,,,,,,,,,,,,,,,,,,,,,,,,,17022,2022-11-03_11h17.55.310,vts_reward_expectancy_bt_OFFLINE,2022.2.4,59.929231485705024,
0,0,1,0,1,0,0,0,hexagon,triangle,2,0,2,0,2,1,25,6,,,,,,,,,,,,,,,,,,,,,,,,,,,,,,,,,,,,,,,,1343.1861981249967,1343.1861981249967,1343.1861981249967,1343.1861981249967,1343.1861981249967,1343.1861981249967,1343.1861981249967,1343.1861981249967,1343.1861981249967,1343.1861981249967,a,1.0101317669905256,1,671,2,1344.2202323819947,1345.7221931039967,,,,,,,,,,,,,,,,,,,,,,,,,,,,,,,,,,,,,,,,,,,,,,,,,,,,,,,,,,,,,,,,,,,,,,17022,2022-11-03_11h17.55.310,vts_reward_expectancy_bt_OFFLINE,2022.2.4,59.929231485705024,
1,0,0,0,0,0,1,0,triangle,hexagon,2,0,2,0,2,2,26,1,,,,,,,,,,,,,,,,,,,,,,,,,,,,,,,,,,,,,,,,1346.2226739929902,1346.2226739929902,1346.2226739929902,1346.2226739929902,1346.2226739929902,1346.2226739929902,1346.2226739929902,1346.2226739929902,1346.2226739929902,1346.2226739929902,a,0.7859204600099474,10,681,2,1347.0401095799898,1348.5419079029962,,,,,,,,,,,,,,,,,,,,,,,,,,,,,,,,,,,,,,,,,,,,,,,,,,,,,,,,,,,,,,,,,,,,,,17022,2022-11-03_11h17.55.310,vts_reward_expectancy_bt_OFFLINE,2022.2.4,59.929231485705024,
0,1,0,0,0,0,0,1,circle,star,2,0,2,0,2,3,27,5,,,,,,,,,,,,,,,,,,,,,,,,,,,,,,,,,,,,,,,,1349.042484570993,1349.042484570993,1349.042484570993,1349.042484570993,1349.042484570993,1349.042484570993,1349.042484570993,1349.042484570993,1349.042484570993,1349.042484570993,l,1.4761647879931843,10,691,2,1350.544033401995,1352.04570335499,,,,,,,,,,,,,,,,,,,,,,,,,,,,,,,,,,,,,,,,,,,,,,,,,,,,,,,,,,,,,,,,,,,,,,17022,2022-11-03_11h17.55.310,vts_reward_expectancy_bt_OFFLINE,2022.2.4,59.929231485705024,
0,0,0,1,0,1,0,0,star ,circle,2,0,2,0,2,4,28,10,,,,,,,,,,,,,,,,,,,,,,,,,,,,,,,,,,,,,,,,1352.5462713249872,1352.5462713249872,1352.5462713249872,1352.5462713249872,1352.5462713249872,1352.5462713249872,1352.5462713249872,1352.5462713249872,1352.5462713249872,1352.5462713249872,a,1.3488698409928475,10,701,2,1353.9143459899933,1355.4159796249878,,,,,,,,,,,,,,,,,,,,,,,,,,,,,,,,,,,,,,,,,,,,,,,,,,,,,,,,,,,,,,,,,,,,,,17022,2022-11-03_11h17.55.310,vts_reward_expectancy_bt_OFFLINE,2022.2.4,59.929231485705024,
0,0,0,1,0,0,1,0,star,hexagon,2,0,2,0,2,5,29,11,,,,,,,,,,,,,,,,,,,,,,,,,,,,,,,,,,,,,,,,1355.9164863969927,1355.9164863969927,1355.9164863969927,1355.9164863969927,1355.9164863969927,1355.9164863969927,1355.9164863969927,1355.9164863969927,1355.9164863969927,1355.9164863969927,l,0.9024768770032097,10,711,2,1356.8509476019972,1358.3526144299976,,,,,,,,,,,,,,,,,,,,,,,,,,,,,,,,,,,,,,,,,,,,,,,,,,,,,,,,,,,,,,,,,,,,,,17022,2022-11-03_11h17.55.310,vts_reward_expectancy_bt_OFFLINE,2022.2.4,59.929231485705024,
0,0,1,0,0,1,0,0,hexagon,circle,2,0,2,0,2,6,30,7,,,,,,,,,,,,,,,,,,,,,,,,,,,,,,,,,,,,,,,,1358.8531335239968,1358.8531335239968,1358.8531335239968,1358.8531335239968,1358.8531335239968,1358.8531335239968,1358.8531335239968,1358.8531335239968,1358.8531335239968,1358.8531335239968,a,1.0160870899999281,1,712,2,1359.887623636998,1361.3892450319981,,,,,,,,,,,,,,,,,,,,,,,,,,,,,,,,,,,,,,,,,,,,,,,,,,,,,,,,,,,,,,,,,,,,,,17022,2022-11-03_11h17.55.310,vts_reward_expectancy_bt_OFFLINE,2022.2.4,59.929231485705024,
1,0,0,0,0,0,0,1,triangle,star,2,0,2,0,2,7,31,2,,,,,,,,,,,,,,,,,,,,,,,,,,,,,,,,,,,,,,,,1361.89005876999,1361.89005876999,1361.89005876999,1361.89005876999,1361.89005876999,1361.89005876999,1361.89005876999,1361.89005876999,1361.89005876999,1361.89005876999,l,1.4654010359954555,1,713,2,1363.374726858994,1364.8767232819955,,,,,,,,,,,,,,,,,,,,,,,,,,,,,,,,,,,,,,,,,,,,,,,,,,,,,,,,,,,,,,,,,,,,,,17022,2022-11-03_11h17.55.310,vts_reward_expectancy_bt_OFFLINE,2022.2.4,59.929231485705024,
1,0,0,0,0,1,0,0,triangle,circle,2,0,2,0,2,8,32,0,,,,,,,,,,,,,,,,,,,,,,,,,,,,,,,,,,,,,,,,1365.3770312809938,1365.3770312809938,1365.3770312809938,1365.3770312809938,1365.3770312809938,1365.3770312809938,1365.3770312809938,1365.3770312809938,1365.3770312809938,1365.3770312809938,l,1.2526231850060867,1,714,2,1366.6618328240002,1368.1636444239994,,,,,,,,,,,,,,,,,,,,,,,,,,,,,,,,,,,,,,,,,,,,,,,,,,,,,,,,,,,,,,,,,,,,,,17022,2022-11-03_11h17.55.310,vts_reward_expectancy_bt_OFFLINE,2022.2.4,59.929231485705024,
0,1,0,0,1,0,0,0,circle,triangle,2,0,2,0,2,9,33,3,,,,,,,,,,,,,,,,,,,,,,,,,,,,,,,,,,,,,,,,1368.6638060039986,1368.6638060039986,1368.6638060039986,1368.6638060039986,1368.6638060039986,1368.6638060039986,1368.6638060039986,1368.6638060039986,1368.6638060039986,1368.6638060039986,l,1.137496506999014,1,715,2,1369.8317709329858,1371.3333703359967,,,,,,,,,,,,,,,,,,,,,,,,,,,,,,,,,,,,,,,,,,,,,,,,,,,,,,,,,,,,,,,,,,,,,,17022,2022-11-03_11h17.55.310,vts_reward_expectancy_bt_OFFLINE,2022.2.4,59.929231485705024,
0,0,1,0,0,0,0,1,hexagon,star,2,0,2,0,2,10,34,8,,,,,,,,,,,,,,,,,,,,,,,,,,,,,,,,,,,,,,,,1371.834096718987,1371.834096718987,1371.834096718987,1371.834096718987,1371.834096718987,1371.834096718987,1371.834096718987,1371.834096718987,1371.834096718987,1371.834096718987,l,1.2989500550029334,1,716,2,1373.152191481,1374.6537388609868,,,,,,,,,,,,,,,,,,,,,,,,,,,,,,,,,,,,,,,,,,,,,,,,,,,,,,,,,,,,,,,,,,,,,,17022,2022-11-03_11h17.55.310,vts_reward_expectancy_bt_OFFLINE,2022.2.4,59.929231485705024,
0,0,0,1,1,0,0,0,star,triangle,2,0,2,0,2,11,35,9,,,,,,,,,,,,,,,,,,,,,,,,,,,,,,,,,,,,,,,,1375.1544218859926,1375.1544218859926,1375.1544218859926,1375.1544218859926,1375.1544218859926,1375.1544218859926,1375.1544218859926,1375.1544218859926,1375.1544218859926,1375.1544218859926,l,0.970041480002692,10,726,2,1376.155521580993,1377.6570803019858,,,,,,,,,,,,,,,,,,,,,,,,,,,,,,,,,,,,,,,,,,,,,,,,,,,,,,,,,,,,,,,,,,,,,,17022,2022-11-03_11h17.55.310,vts_reward_expectancy_bt_OFFLINE,2022.2.4,59.929231485705024,
0,1,0,0,0,0,0,1,circle,star,2,0,2,0,3,0,36,5,,,,,,,,,,,,,,,,,,,,,,,,,,,,,,,,,,,,,,,,1378.157802072994,1378.157802072994,1378.157802072994,1378.157802072994,1378.157802072994,1378.157802072994,1378.157802072994,1378.157802072994,1378.157802072994,1378.157802072994,a,0.8928759010013891,1,727,2,1379.0756681219937,1380.5773597799998,,,,,,,,,,,,,,,,,,,,,,,,,,,,,,,,,,,,,,,,,,,,,,,,,,,,,,,,,,,,,,,,,,,,,,17022,2022-11-03_11h17.55.310,vts_reward_expectancy_bt_OFFLINE,2022.2.4,59.929231485705024,
0,0,1,0,0,1,0,0,hexagon,circle,2,0,2,0,3,1,37,7,,,,,,,,,,,,,,,,,,,,,,,,,,,,,,,,,,,,,,,,1381.0777444999985,1381.0777444999985,1381.0777444999985,1381.0777444999985,1381.0777444999985,1381.0777444999985,1381.0777444999985,1381.0777444999985,1381.0777444999985,1381.0777444999985,a,1.864645372988889,1,728,2,1382.963380546993,1384.4648705539876,,,,,,,,,,,,,,,,,,,,,,,,,,,,,,,,,,,,,,,,,,,,,,,,,,,,,,,,,,,,,,,,,,,,,,17022,2022-11-03_11h17.55.310,vts_reward_expectancy_bt_OFFLINE,2022.2.4,59.929231485705024,
1,0,0,0,0,1,0,0,triangle,circle,2,0,2,0,3,2,38,0,,,,,,,,,,,,,,,,,,,,,,,,,,,,,,,,,,,,,,,,1384.9653309619898,1384.9653309619898,1384.9653309619898,1384.9653309619898,1384.9653309619898,1384.9653309619898,1384.9653309619898,1384.9653309619898,1384.9653309619898,1384.9653309619898,a,0.7443928180000512,10,738,2,1385.7328589049866,1387.2344959799957,,,,,,,,,,,,,,,,,,,,,,,,,,,,,,,,,,,,,,,,,,,,,,,,,,,,,,,,,,,,,,,,,,,,,,17022,2022-11-03_11h17.55.310,vts_reward_expectancy_bt_OFFLINE,2022.2.4,59.929231485705024,
0,0,1,0,1,0,0,0,hexagon,triangle,2,0,2,0,3,3,39,6,,,,,,,,,,,,,,,,,,,,,,,,,,,,,,,,,,,,,,,,1387.7351717919955,1387.7351717919955,1387.7351717919955,1387.7351717919955,1387.7351717919955,1387.7351717919955,1387.7351717919955,1387.7351717919955,1387.7351717919955,1387.7351717919955,a,1.7102914139977656,1,739,2,1389.4702182899928,1390.9718619589985,,,,,,,,,,,,,,,,,,,,,,,,,,,,,,,,,,,,,,,,,,,,,,,,,,,,,,,,,,,,,,,,,,,,,,17022,2022-11-03_11h17.55.310,vts_reward_expectancy_bt_OFFLINE,2022.2.4,59.929231485705024,
0,0,0,1,1,0,0,0,star,triangle,2,0,2,0,3,4,40,9,,,,,,,,,,,,,,,,,,,,,,,,,,,,,,,,,,,,,,,,1391.4725230119948,1391.4725230119948,1391.4725230119948,1391.4725230119948,1391.4725230119948,1391.4725230119948,1391.4725230119948,1391.4725230119948,1391.4725230119948,1391.4725230119948,a,1.348692191997543,1,740,2,1392.840833885988,1394.3420576579956,,,,,,,,,,,,,,,,,,,,,,,,,,,,,,,,,,,,,,,,,,,,,,,,,,,,,,,,,,,,,,,,,,,,,,17022,2022-11-03_11h17.55.310,vts_reward_expectancy_bt_OFFLINE,2022.2.4,59.929231485705024,
1,0,0,0,0,0,0,1,triangle,star,2,0,2,0,3,5,41,2,,,,,,,,,,,,,,,,,,,,,,,,,,,,,,,,,,,,,,,,1394.8427929789905,1394.8427929789905,1394.8427929789905,1394.8427929789905,1394.8427929789905,1394.8427929789905,1394.8427929789905,1394.8427929789905,1394.8427929789905,1394.8427929789905,l,1.0595875309954863,1,741,2,1395.9273015919898,1397.4290993299946,,,,,,,,,,,,,,,,,,,,,,,,,,,,,,,,,,,,,,,,,,,,,,,,,,,,,,,,,,,,,,,,,,,,,,17022,2022-11-03_11h17.55.310,vts_reward_expectancy_bt_OFFLINE,2022.2.4,59.929231485705024,
0,1,0,0,0,0,1,0,circle,hexagon,2,0,2,0,3,6,42,4,,,,,,,,,,,,,,,,,,,,,,,,,,,,,,,,,,,,,,,,1397.929591187989,1397.929591187989,1397.929591187989,1397.929591187989,1397.929591187989,1397.929591187989,1397.929591187989,1397.929591187989,1397.929591187989,1397.929591187989,l,0.5831309960049111,10,751,2,1398.5455441179947,1400.0487892769888,,,,,,,,,,,,,,,,,,,,,,,,,,,,,,,,,,,,,,,,,,,,,,,,,,,,,,,,,,,,,,,,,,,,,,17022,2022-11-03_11h17.55.310,vts_reward_expectancy_bt_OFFLINE,2022.2.4,59.929231485705024,
0,0,0,1,0,1,0,0,star ,circle,2,0,2,0,3,7,43,10,,,,,,,,,,,,,,,,,,,,,,,,,,,,,,,,,,,,,,,,1400.5491844839999,1400.5491844839999,1400.5491844839999,1400.5491844839999,1400.5491844839999,1400.5491844839999,1400.5491844839999,1400.5491844839999,1400.5491844839999,1400.5491844839999,a,0.9578401120088529,10,761,2,1401.5340046039928,1403.0350640089891,,,,,,,,,,,,,,,,,,,,,,,,,,,,,,,,,,,,,,,,,,,,,,,,,,,,,,,,,,,,,,,,,,,,,,17022,2022-11-03_11h17.55.310,vts_reward_expectancy_bt_OFFLINE,2022.2.4,59.929231485705024,
1,0,0,0,0,0,1,0,triangle,hexagon,2,0,2,0,3,8,44,1,,,,,,,,,,,,,,,,,,,,,,,,,,,,,,,,,,,,,,,,1403.5359155599872,1403.5359155599872,1403.5359155599872,1403.5359155599872,1403.5359155599872,1403.5359155599872,1403.5359155599872,1403.5359155599872,1403.5359155599872,1403.5359155599872,l,0.7028665970137808,1,762,2,1404.2701143619925,1405.7717861529964,,,,,,,,,,,,,,,,,,,,,,,,,,,,,,,,,,,,,,,,,,,,,,,,,,,,,,,,,,,,,,,,,,,,,,17022,2022-11-03_11h17.55.310,vts_reward_expectancy_bt_OFFLINE,2022.2.4,59.929231485705024,
0,1,0,0,1,0,0,0,circle,triangle,2,0,2,0,3,9,45,3,,,,,,,,,,,,,,,,,,,,,,,,,,,,,,,,,,,,,,,,1406.2720965809858,1406.2720965809858,1406.2720965809858,1406.2720965809858,1406.2720965809858,1406.2720965809858,1406.2720965809858,1406.2720965809858,1406.2720965809858,1406.2720965809858,a,0.6903522509965114,1,763,2,1406.9895974119863,1408.4913541519927,,,,,,,,,,,,,,,,,,,,,,,,,,,,,,,,,,,,,,,,,,,,,,,,,,,,,,,,,,,,,,,,,,,,,,17022,2022-11-03_11h17.55.310,vts_reward_expectancy_bt_OFFLINE,2022.2.4,59.929231485705024,
0,0,0,1,0,0,1,0,star,hexagon,2,0,2,0,3,10,46,11,,,,,,,,,,,,,,,,,,,,,,,,,,,,,,,,,,,,,,,,1408.992010611997,1408.992010611997,1408.992010611997,1408.992010611997,1408.992010611997,1408.992010611997,1408.992010611997,1408.992010611997,1408.992010611997,1408.992010611997,a,0.5578583370079286,1,764,2,1409.5759226699884,1411.0774578719866,,,,,,,,,,,,,,,,,,,,,,,,,,,,,,,,,,,,,,,,,,,,,,,,,,,,,,,,,,,,,,,,,,,,,,17022,2022-11-03_11h17.55.310,vts_reward_expectancy_bt_OFFLINE,2022.2.4,59.929231485705024,
0,0,1,0,0,0,0,1,hexagon,star,2,0,2,0,3,11,47,8,,,,,,,,,,,,,,,,,,,,,,,,,,,,,,,,,,,,,,,,1411.5782041119965,1411.5782041119965,1411.5782041119965,1411.5782041119965,1411.5782041119965,1411.5782041119965,1411.5782041119965,1411.5782041119965,1411.5782041119965,1411.5782041119965,a,0.5143741509964457,1,765,2,1412.1120082029956,1413.6137584829994,,,,,,,,,,,,,,,,,,,,,,,,,,,,,,,,,,,,,,,,,,,,,,,,,,,,,,,,,,,,,,,,,,,,,,17022,2022-11-03_11h17.55.310,vts_reward_expectancy_bt_OFFLINE,2022.2.4,59.929231485705024,
,,,,,,,,,,,,,,,,,,0,0,0,0,0,0,0,0,,,,,,,,,,,,,,,,,,,,,,,,,,,,,,,,,,,,,,,,,,,,,,,,1469.8424161489966,,B,181,triangle,0.0018709839932853356,1464.4326303689886,1465.9380632479879,1465.9380632479879,1465.9380632479879,1,0,d,2.3832769909931812,0,1468.3409921759885,,,,,,,,,,,,,,,,,,,,,,,,,,,,,,,,,,,,,,,,,,,,,,,,,,,,,,,17022,2022-11-03_11h17.55.310,vts_reward_expectancy_bt_OFFLINE,2022.2.4,59.929231485705024,
,,,,,,,,,,,,,,,,,,0,0,0,0,1,0,1,0,,,,,,,,,,,,,,,,,,,,,,,,,,,,,,,,,,,,,,,,,,,,,,,,1474.6809474579932,,S,167,hexagon,0.001084689996787347,1470.821287326995,1472.3284257029882,1472.3284257029882,1472.3284257029882,1,0,f,0.831412536004791,0,1473.1794851099985,,,,,,,,,,,,,,,,,,,,,,,,,,,,,,,,,,,,,,,,,,,,,,,,,,,,,,,17022,2022-11-03_11h17.55.310,vts_reward_expectancy_bt_OFFLINE,2022.2.4,59.929231485705024,
,,,,,,,,,,,,,,,,,,0,0,0,0,2,0,2,0,,,,,,,,,,,,,,,,,,,,,,,,,,,,,,,,,,,,,,,,,,,,,,,,1479.7697237539978,,H,132,circle,0.0014891719911247492,1475.66087173899,1477.1670044929924,1477.1670044929924,1477.1670044929924,1,0,d,1.076581682995311,0,1478.2669192529866,,,,,,,,,,,,,,,,,,,,,,,,,,,,,,,,,,,,,,,,,,,,,,,,,,,,,,,17022,2022-11-03_11h17.55.310,vts_reward_expectancy_bt_OFFLINE,2022.2.4,59.929231485705024,
,,,,,,,,,,,,,,,,,,0,0,0,0,3,0,3,0,,,,,,,,,,,,,,,,,,,,,,,,,,,,,,,,,,,,,,,,,,,,,,,,1484.992379903997,,U,139,star,0.0030784690025029704,1480.7498307189962,1482.25603860899,1482.25603860899,1482.25603860899,1,0,f,1.2078845200012438,0,1483.4905125359946,,,,,,,,,,,,,,,,,,,,,,,,,,,,,,,,,,,,,,,,,,,,,,,,,,,,,,,17022,2022-11-03_11h17.55.310,vts_reward_expectancy_bt_OFFLINE,2022.2.4,59.929231485705024,
,,,,,,,,,,,,,,,,,,0,0,0,0,4,0,4,0,,,,,,,,,,,,,,,,,,,,,,,,,,,,,,,,,,,,,,,,,,,,,,,,1489.6141101659887,,Y,146,star,0.0017361649952363223,1485.9718529619859,1487.4782746329874,1487.4782746329874,1487.4782746329874,1,0,f,0.610286819995963,0,1488.1123168389895,,,,,,,,,,,,,,,,,,,,,,,,,,,,,,,,,,,,,,,,,,,,,,,,,,,,,,,17022,2022-11-03_11h17.55.310,vts_reward_expectancy_bt_OFFLINE,2022.2.4,59.929231485705024,
,,,,,,,,,,,,,,,,,,0,0,0,0,5,0,5,0,,,,,,,,,,,,,,,,,,,,,,,,,,,,,,,,,,,,,,,,,,,,,,,,1494.6702428059943,,F,174,hexagon,0.001599940995220095,1490.591415226998,1492.1001927579928,1492.1001927579928,1492.1001927579928,1,0,d,1.0395695199986221,0,1493.1681303730002,,,,,,,,,,,,,,,,,,,,,,,,,,,,,,,,,,,,,,,,,,,,,,,,,,,,,,,17022,2022-11-03_11h17.55.310,vts_reward_expectancy_bt_OFFLINE,2022.2.4,59.929231485705024,
,,,,,,,,,,,,,,,,,,0,0,0,0,6,0,6,0,,,,,,,,,,,,,,,,,,,,,,,,,,,,,,,,,,,,,,,,,,,,,,,,1499.5082746029948,,D,125,triangle,0.0019571230077417567,1495.6492024569889,1497.1557450739929,1497.1557450739929,1497.1557450739929,1,0,d,0.8224322619935265,0,1498.0070556089922,,,,,,,,,,,,,,,,,,,,,,,,,,,,,,,,,,,,,,,,,,,,,,,,,,,,,,,17022,2022-11-03_11h17.55.310,vts_reward_expectancy_bt_OFFLINE,2022.2.4,59.929231485705024,
,,,,,,,,,,,,,,,,,,0,0,0,0,7,0,7,0,,,,,,,,,,,,,,,,,,,,,,,,,,,,,,,,,,,,,,,,,,,,,,,,1504.1301325779932,,W,160,circle,0.001621143994270824,1500.4864914579957,1501.9948493819975,1501.9948493819975,1501.9948493819975,1,0,f,0.605622108996613,0,1502.6283880639967,,,,,,,,,,,,,,,,,,,,,,,,,,,,,,,,,,,,,,,,,,,,,,,,,,,,,,,17022,2022-11-03_11h17.55.310,vts_reward_expectancy_bt_OFFLINE,2022.2.4,59.929231485705024,
,,,,,,,,,,,,,,,,,,0,0,0,0,8,0,8,0,,,,,,,,,,,,,,,,,,,,,,,,,,,,,,,,,,,,,,,,,,,,,,,,1508.951903934998,,B,181,star,0.001660311987507157,1505.1071616629924,1506.6163243179908,1506.6163243179908,1506.6163243179908,1,0,d,0.8014644549984951,0,1507.4504521749914,,,,,,,,,,,,,,,,,,,,,,,,,,,,,,,,,,,,,,,,,,,,,,,,,,,,,,,17022,2022-11-03_11h17.55.310,vts_reward_expectancy_bt_OFFLINE,2022.2.4,59.929231485705024,
,,,,,,,,,,,,,,,,,,0,0,0,0,9,0,9,0,,,,,,,,,,,,,,,,,,,,,,,,,,,,,,,,,,,,,,,,,,,,,,,,1513.6907275479898,,S,167,triangle,0.0016420400061178952,1509.9290744789905,1511.4380925609876,1511.4380925609876,1511.4380925609876,1,0,f,0.7262905789975775,0,1512.1890272409946,,,,,,,,,,,,,,,,,,,,,,,,,,,,,,,,,,,,,,,,,,,,,,,,,,,,,,,17022,2022-11-03_11h17.55.310,vts_reward_expectancy_bt_OFFLINE,2022.2.4,59.929231485705024,
,,,,,,,,,,,,,,,,,,,,,,,,,,0,0,0,0,0,0,0,0,,,,,,,,,,,,,,,,,,,,,,,,,,,,,,,,,,,,,,,,1560.4588700019958,,Y,174,circle,0.0022316870017675683,,,,,1,0,,,1,1558.9571998699976,1555.7314171619946,1557.2388216349937,1557.2388216349937,1557.2388216349937,k,1.6931111859885277,,,,,,,,,,,,,,,,,,,,,,,,,,,,,,,,,,,,,,,,,,,,,,,,,17022,2022-11-03_11h17.55.310,vts_reward_expectancy_bt_OFFLINE,2022.2.4,59.929231485705024,
,,,,,,,,,,,,,,,,,,,,,,,,,,0,0,0,0,1,0,1,0,,,,,,,,,,,,,,,,,,,,,,,,,,,,,,,,,,,,,,,,1565.0640330729948,,D,146,star,0.0016473360010422766,,,,,1,0,,,1,1563.5624780119979,1561.4366533430002,1562.9448767819995,1562.9448767819995,1562.9448767819995,j,0.5892381250014296,,,,,,,,,,,,,,,,,,,,,,,,,,,,,,,,,,,,,,,,,,,,,,,,,17022,2022-11-03_11h17.55.310,vts_reward_expectancy_bt_OFFLINE,2022.2.4,59.929231485705024,
,,,,,,,,,,,,,,,,,,,,,,,,,,0,0,0,0,2,0,2,0,,,,,,,,,,,,,,,,,,,,,,,,,,,,,,,,,,,,,,,,1570.0027658899926,,H,139,triangle,0.0017895979981403798,,,,,1,0,,,1,1568.501424725997,1566.042460038996,1567.5502373759955,1567.5502373759955,1567.5502373759955,j,0.9228365700109862,,,,,,,,,,,,,,,,,,,,,,,,,,,,,,,,,,,,,,,,,,,,,,,,,17022,2022-11-03_11h17.55.310,vts_reward_expectancy_bt_OFFLINE,2022.2.4,59.929231485705024,
,,,,,,,,,,,,,,,,,,,,,,,,,,0,0,0,0,3,0,3,0,,,,,,,,,,,,,,,,,,,,,,,,,,,,,,,,,,,,,,,,1574.724745693995,,S,181,hexagon,0.0018227850086987019,,,,,1,0,,,1,1573.2228908759862,1570.9803354459873,1572.4888707559876,1572.4888707559876,1572.4888707559876,k,0.7082103180000558,,,,,,,,,,,,,,,,,,,,,,,,,,,,,,,,,,,,,,,,,,,,,,,,,17022,2022-11-03_11h17.55.310,vts_reward_expectancy_bt_OFFLINE,2022.2.4,59.929231485705024,
,,,,,,,,,,,,,,,,,,,,,,,,,,0,0,0,0,4,0,4,0,,,,,,,,,,,,,,,,,,,,,,,,,,,,,,,,,,,,,,,,1579.4966384439904,,B,125,circle,0.0014751769922440872,,,,,1,0,,,1,1577.9948591729917,1575.7017321769963,1577.2107561209996,1577.2107561209996,1577.2107561209996,j,0.7561634279991267,,,,,,,,,,,,,,,,,,,,,,,,,,,,,,,,,,,,,,,,,,,,,,,,,17022,2022-11-03_11h17.55.310,vts_reward_expectancy_bt_OFFLINE,2022.2.4,59.929231485705024,
,,,,,,,,,,,,,,,,,,,,,,,,,,0,0,0,0,5,0,5,0,,,,,,,,,,,,,,,,,,,,,,,,,,,,,,,,,,,,,,,,1584.3685842799896,,W,132,star,0.0018329430022276938,,,,,1,0,,,1,1582.866867034987,1580.4742617569864,1581.9826163289981,1581.9826163289981,1581.9826163289981,j,0.8562750470009632,,,,,,,,,,,,,,,,,,,,,,,,,,,,,,,,,,,,,,,,,,,,,,,,,17022,2022-11-03_11h17.55.310,vts_reward_expectancy_bt_OFFLINE,2022.2.4,59.929231485705024,
,,,,,,,,,,,,,,,,,,,,,,,,,,0,0,0,0,6,0,6,0,,,,,,,,,,,,,,,,,,,,,,,,,,,,,,,,,,,,,,,,1589.607779916987,,U,160,triangle,0.001603555996553041,,,,,1,0,,,1,1588.1060275439959,1585.346183332993,1586.8546912939928,1586.8546912939928,1586.8546912939928,k,1.225912221998442,,,,,,,,,,,,,,,,,,,,,,,,,,,,,,,,,,,,,,,,,,,,,,,,,17022,2022-11-03_11h17.55.310,vts_reward_expectancy_bt_OFFLINE,2022.2.4,59.929231485705024,
,,,,,,,,,,,,,,,,,,,,,,,,,,0,0,0,0,7,0,7,0,,,,,,,,,,,,,,,,,,,,,,,,,,,,,,,,,,,,,,,,1594.7132955399866,,F,167,hexagon,0.0018396009982097894,,,,,1,0,,,1,1593.2118077269988,1590.5848323629907,1592.0938321359863,1592.0938321359863,1592.0938321359863,k,1.085733640997205,,,,,,,,,,,,,,,,,,,,,,,,,,,,,,,,,,,,,,,,,,,,,,,,,17022,2022-11-03_11h17.55.310,vts_reward_expectancy_bt_OFFLINE,2022.2.4,59.929231485705024,
,,,,,,,,,,,,,,,,,,,,,,,,,,0,0,0,0,8,0,8,0,,,,,,,,,,,,,,,,,,,,,,,,,,,,,,,,,,,,,,,,1599.7188069839904,,Y,174,circle,0.0014675120037281886,,,,,1,0,,,1,1598.2171075049991,1595.69022326899,1597.1993675689882,1597.1993675689882,1597.1993675689882,k,0.995202619000338,,,,,,,,,,,,,,,,,,,,,,,,,,,,,,,,,,,,,,,,,,,,,,,,,17022,2022-11-03_11h17.55.310,vts_reward_expectancy_bt_OFFLINE,2022.2.4,59.929231485705024,
,,,,,,,,,,,,,,,,,,,,,,,,,,0,0,0,0,9,0,9,0,,,,,,,,,,,,,,,,,,,,,,,,,,,,,,,,,,,,,,,,1605.058160501998,,D,146,hexagon,0.0017307659873040393,,,,,1,0,,,1,1603.5564154569875,1600.6954525689944,1602.2047955099988,1602.2047955099988,1602.2047955099988,j,1.3232816889940295,,,,,,,,,,,,,,,,,,,,,,,,,,,,,,,,,,,,,,,,,,,,,,,,,17022,2022-11-03_11h17.55.310,vts_reward_expectancy_bt_OFFLINE,2022.2.4,59.929231485705024,
,,,,,,,,,,,,,,,,,,,,,,,,,,,,,,,,,,0,0,0,0,0,0,0,0,,,,,,,,,,,,,,,,,,,,,,,,,,,,0,765,,,1663.2223994439992,,W,174,triangle,0.0024467809998895973,,,,,-1,0,,,2,,,,,,,,1657.2117380869895,1657.2117380869895,1657.2117380869895,1657.2117380869895,1658.7173970209988,1658.7173970209988,1658.7173970209988,1658.7173970209988,1658.7173970209988,1658.7173970209988,1658.7173970209988,1658.7173970209988,1661.7207478419878,1661.7207478419878,1661.7207478419878,1661.7207478419878,-1,no_choice,NA,None,vtsPrac,1661.7207478419878,1663.2223994439992,1663.7226402449887,,,,,,,,,,,,,,,,,,,,,,,,,17022,2022-11-03_11h17.55.310,vts_reward_expectancy_bt_OFFLINE,2022.2.4,59.929231485705024,
,,,,,,,,,,,,,,,,,,,,,,,,,,,,,,,,,,0,0,0,0,1,0,1,0,,,,,,,,,,,,,,,,,,,,,,,,,,,,0,765,,,1668.0107752539916,,F,146,star,0.009199017003993504,,,,,1,0,,,2,,,,,,,,1664.2182021189947,1664.2182021189947,1664.2182021189947,1664.2182021189947,1665.7250610699994,1665.7250610699994,1665.7250610699994,1665.7250610699994,1665.7250610699994,1665.7250610699994,1665.7250610699994,1665.7250610699994,,,,,switch,number,numSwt,j,vtsPrac,1666.509301166996,,,0.7591374229959911,,,,,,,,,,,,,,,,,,,,,,,,17022,2022-11-03_11h17.55.310,vts_reward_expectancy_bt_OFFLINE,2022.2.4,59.929231485705024,
,,,,,,,,,,,,,,,,,,,,,,,,,,,,,,,,,,0,0,0,0,2,0,2,0,,,,,,,,,,,,,,,,,,,,,,,,,,,,0,765,,,1672.7495798839955,,D,125,star,0.001552419998915866,,,,,1,0,,,2,,,,,,,,1668.990250222996,1668.990250222996,1668.990250222996,1668.990250222996,1670.4970024629874,1670.4970024629874,1670.4970024629874,1670.4970024629874,1670.4970024629874,1670.4970024629874,1670.4970024629874,1670.4970024629874,,,,,repeat,number,numRpt,j,vtsPrac,1671.2479214929917,,,0.7230489650100935,,,,,,,,,,,,,,,,,,,,,,,,17022,2022-11-03_11h17.55.310,vts_reward_expectancy_bt_OFFLINE,2022.2.4,59.929231485705024,
,,,,,,,,,,,,,,,,,,,,,,,,,,,,,,,,,,0,0,0,0,3,0,3,0,,,,,,,,,,,,,,,,,,,,,,,,,,,,0,765,,,1677.6380719429872,,Y,167,hexagon,0.0017106199957197532,,,,,1,0,,,2,,,,,,,,1673.7275613139936,1673.7275613139936,1673.7275613139936,1673.7275613139936,1675.2355453119962,1675.2355453119962,1675.2355453119962,1675.2355453119962,1675.2355453119962,1675.2355453119962,1675.2355453119962,1675.2355453119962,,,,,switch,letter,lettSwt,f,vtsPrac,1676.1363734229963,,,0.8685678109904984,,,,,,,,,,,,,,,,,,,,,,,,17022,2022-11-03_11h17.55.310,vts_reward_expectancy_bt_OFFLINE,2022.2.4,59.929231485705024,
,,,,,,,,,,,,,,,,,,,,,,,,,,,,,,,,,,0,0,0,0,4,0,4,0,,,,,,,,,,,,,,,,,,,,,,,,,,,,0,765,,,1682.2432520339935,,W,174,hexagon,0.00167692601098679,,,,,1,0,,,2,,,,,,,,1678.6158721189859,1678.6158721189859,1678.6158721189859,1678.6158721189859,1680.1241170669964,1680.1241170669964,1680.1241170669964,1680.1241170669964,1680.1241170669964,1680.1241170669964,1680.1241170669964,1680.1241170669964,,,,,repeat,letter,lettRpt,f,vtsPrac,1680.7414940959861,,,0.5916108550009085,,,,,,,,,,,,,,,,,,,,,,,,17022,2022-11-03_11h17.55.310,vts_reward_expectancy_bt_OFFLINE,2022.2.4,59.929231485705024,
,,,,,,,,,,,,,,,,,,,,,,,,,,,,,,,,,,0,0,0,0,5,0,5,0,,,,,,,,,,,,,,,,,,,,,,,,,,,,0,765,,,1686.8149188299867,,F,146,triangle,0.0016804029874037951,,,,,1,0,,,2,,,,,,,,1683.2208834429912,1683.2208834429912,1683.2208834429912,1683.2208834429912,1684.7293471829908,1684.7293471829908,1684.7293471829908,1684.7293471829908,1684.7293471829908,1684.7293471829908,1684.7293471829908,1684.7293471829908,,,,,switch,number,numSwt,j,vtsPrac,1685.313470063993,,,0.5556245079933433,,,,,,,,,,,,,,,,,,,,,,,,17022,2022-11-03_11h17.55.310,vts_reward_expectancy_bt_OFFLINE,2022.2.4,59.929231485705024,
,,,,,,,,,,,,,,,,,,,,,,,,,,,,,,,,,,0,0,0,0,6,0,6,0,,,,,,,,,,,,,,,,,,,,,,,,,,,,0,765,,,1691.2699317879888,,D,125,circle,0.001556564006023109,,,,,1,0,,,2,,,,,,,,1687.7929593539884,1687.7929593539884,1687.7929593539884,1687.7929593539884,1689.3009837749996,1689.3009837749996,1689.3009837749996,1689.3009837749996,1689.3009837749996,1689.3009837749996,1689.3009837749996,1689.3009837749996,,,,,repeat,number,numRpt,j,vtsPrac,1689.7682741209865,,,0.45098522199259605,,,,,,,,,,,,,,,,,,,,,,,,17022,2022-11-03_11h17.55.310,vts_reward_expectancy_bt_OFFLINE,2022.2.4,59.929231485705024,
,,,,,,,,,,,,,,,,,,,,,,,,,,,,,,,,,,0,0,0,0,7,0,7,0,,,,,,,,,,,,,,,,,,,,,,,,,,,,0,765,,,1695.9083095109963,,Y,167,hexagon,0.0009063010074896738,,,,,1,0,,,2,,,,,,,,1692.2478040939895,1692.2478040939895,1692.2478040939895,1692.2478040939895,1693.7558170029952,1693.7558170029952,1693.7558170029952,1693.7558170029952,1693.7558170029952,1693.7558170029952,1693.7558170029952,1693.7558170029952,,,,,switch,letter,lettSwt,f,vtsPrac,1694.406682490997,,,0.6292939189879689,,,,,,,,,,,,,,,,,,,,,,,,17022,2022-11-03_11h17.55.310,vts_reward_expectancy_bt_OFFLINE,2022.2.4,59.929231485705024,
,,,,,,,,,,,,,,,,,,,,,,,,,,,,,,,,,,0,0,0,0,8,0,8,0,,,,,,,,,,,,,,,,,,,,,,,,,,,,0,765,,,1700.630199807987,,S,174,hexagon,0.001717834995361045,,,,,1,0,,,2,,,,,,,,1696.8863707949931,1696.8863707949931,1696.8863707949931,1696.8863707949931,1698.394354937991,1698.394354937991,1698.394354937991,1698.394354937991,1698.394354937991,1698.394354937991,1698.394354937991,1698.394354937991,,,,,repeat,letter,lettRpt,f,vtsPrac,1699.1285007599945,,,0.7057415190065512,,,,,,,,,,,,,,,,,,,,,,,,17022,2022-11-03_11h17.55.310,vts_reward_expectancy_bt_OFFLINE,2022.2.4,59.929231485705024,
,,,,,,,,,,,,,,,,,,,,,,,,,,,,,,,,,,0,0,0,0,9,0,9,0,,,,,,,,,,,,,,,,,,,,,,,,,,,,0,765,,,1705.5356427589868,,Y,146,circle,0.001660253998124972,,,,,1,0,,,2,,,,,,,,1701.6081371889886,1701.6081371889886,1701.6081371889886,1701.6081371889886,1703.116188421991,1703.116188421991,1703.116188421991,1703.116188421991,1703.116188421991,1703.116188421991,1703.116188421991,1703.116188421991,,,,,switch,number,numSwt,j,vtsPrac,1704.034164413999,,,0.8886340369936079,,,,,,,,,,,,,,,,,,,,,,,,17022,2022-11-03_11h17.55.310,vts_reward_expectancy_bt_OFFLINE,2022.2.4,59.929231485705024,
,,,,,,,,,,,,,,,,,,,,,,,,,,,,,,,,,,0,0,0,0,10,0,10,0,,,,,,,,,,,,,,,,,,,,,,,,,,,,0,765,,,1710.3075821370003,,U,160,circle,0.0016704200097592548,,,,,1,0,,,2,,,,,,,,1706.5150900549925,1706.5150900549925,1706.5150900549925,1706.5150900549925,1708.0217588769883,1708.0217588769883,1708.0217588769883,1708.0217588769883,1708.0217588769883,1708.0217588769883,1708.0217588769883,1708.0217588769883,,,,,repeat,number,numRpt,k,vtsPrac,1708.8059977609955,,,0.7519262569985585,,,,,,,,,,,,,,,,,,,,,,,,17022,2022-11-03_11h17.55.310,vts_reward_expectancy_bt_OFFLINE,2022.2.4,59.929231485705024,
,,,,,,,,,,,,,,,,,,,,,,,,,,,,,,,,,,0,0,0,0,11,0,11,0,,,,,,,,,,,,,,,,,,,,,,,,,,,,0,765,,,1715.0960843179928,,H,167,hexagon,0.001656830994761549,,,,,1,0,,,2,,,,,,,,1711.2853694139922,1711.2853694139922,1711.2853694139922,1711.2853694139922,1712.793485479997,1712.793485479997,1712.793485479997,1712.793485479997,1712.793485479997,1712.793485479997,1712.793485479997,1712.793485479997,,,,,switch,letter,lettSwt,d,vtsPrac,1713.5945462279924,,,0.7727430300001288,,,,,,,,,,,,,,,,,,,,,,,,17022,2022-11-03_11h17.55.310,vts_reward_expectancy_bt_OFFLINE,2022.2.4,59.929231485705024,
,,,,,,,,,,,,,,,,,,,,,,,,,,,,,,,,,,0,0,0,0,12,0,12,0,,,,,,,,,,,,,,,,,,,,,,,,,,,,0,765,,,1720.2182870909892,,B,160,circle,0.001414151003700681,,,,,1,0,,,2,,,,,,,,1716.074881618988,1716.074881618988,1716.074881618988,1716.074881618988,1717.5821987699892,1717.5821987699892,1717.5821987699892,1717.5821987699892,1717.5821987699892,1717.5821987699892,1717.5821987699892,1717.5821987699892,,,,,switch,number,numSwt,k,vtsPrac,1718.7166853719973,,,1.1151704049989348,,,,,,,,,,,,,,,,,,,,,,,,17022,2022-11-03_11h17.55.310,vts_reward_expectancy_bt_OFFLINE,2022.2.4,59.929231485705024,
,,,,,,,,,,,,,,,,,,,,,,,,,,,,,,,,,,0,0,0,0,13,0,13,0,,,,,,,,,,,,,,,,,,,,,,,,,,,,0,765,,,1725.0404718859936,,W,125,star,0.0014585649914806709,,,,,1,0,,,2,,,,,,,,1721.1955549619888,1721.1955549619888,1721.1955549619888,1721.1955549619888,1722.704521776992,1722.704521776992,1722.704521776992,1722.704521776992,1722.704521776992,1722.704521776992,1722.704521776992,1722.704521776992,,,,,switch,letter,lettSwt,f,vtsPrac,1723.5386923889891,,,0.807669026995427,,,,,,,,,,,,,,,,,,,,,,,,17022,2022-11-03_11h17.55.310,vts_reward_expectancy_bt_OFFLINE,2022.2.4,59.929231485705024,
,,,,,,,,,,,,,,,,,,,,,,,,,,,,,,,,,,0,0,0,0,14,0,14,0,,,,,,,,,,,,,,,,,,,,,,,,,,,,0,765,,,1729.929342131989,,U,167,circle,0.0017339509940939024,,,,,1,0,,,2,,,,,,,,1726.0190721379913,1726.0190721379913,1726.0190721379913,1726.0190721379913,1727.5266650859994,1727.5266650859994,1727.5266650859994,1727.5266650859994,1727.5266650859994,1727.5266650859994,1727.5266650859994,1727.5266650859994,,,,,switch,number,numSwt,k,vtsPrac,1728.4274450929952,,,0.8795616559946211,,,,,,,,,,,,,,,,,,,,,,,,17022,2022-11-03_11h17.55.310,vts_reward_expectancy_bt_OFFLINE,2022.2.4,59.929231485705024,
,,,,,,,,,,,,,,,,,,,,,,,,,,,,,,,,,,0,0,0,0,15,0,15,0,,,,,,,,,,,,,,,,,,,,,,,,,,,,0,765,,,1734.8344750999968,,H,132,star,0.0015435710083693266,,,,,1,0,,,2,,,,,,,,1730.9077880809928,1730.9077880809928,1730.9077880809928,1730.9077880809928,1732.4155673249916,1732.4155673249916,1732.4155673249916,1732.4155673249916,1732.4155673249916,1732.4155673249916,1732.4155673249916,1732.4155673249916,,,,,switch,letter,lettSwt,d,vtsPrac,1733.3330396839883,,,0.8953974760079291,,,,,,,,,,,,,,,,,,,,,,,,17022,2022-11-03_11h17.55.310,vts_reward_expectancy_bt_OFFLINE,2022.2.4,59.929231485705024,
,,,,,,,,,,,,,,,,,,,,,,,,,,,,,,,,,,0,0,0,0,16,0,16,0,,,,,,,,,,,,,,,,,,,,,,,,,,,,0,765,,,1739.5232741889922,,U,160,star,0.0015128350059967488,,,,,1,0,,,2,,,,,,,,1735.8123212719947,1735.8123212719947,1735.8123212719947,1735.8123212719947,1737.320678277989,1737.320678277989,1737.320678277989,1737.320678277989,1737.320678277989,1737.320678277989,1737.320678277989,1737.320678277989,,,,,repeat,letter,lettRpt,f,vtsPrac,1738.0215168699942,1739.5232741889922,,0.6826004209870007,,,,,,,,,,,,,,,,,,,,,,,,17022,2022-11-03_11h17.55.310,vts_reward_expectancy_bt_OFFLINE,2022.2.4,59.929231485705024,
,,,,,,,,,,,,,,,,,,,,,,,,,,,,,,,,,,0,0,0,0,17,0,17,0,,,,,,,,,,,,,,,,,,,,,,,,,,,,0,765,,,1744.3118222219928,,S,146,hexagon,0.0005742649955209345,,,,,1,0,,,2,,,,,,,,1740.5000838499982,1740.5000838499982,1740.5000838499982,1740.5000838499982,1742.0093187289895,1742.0093187289895,1742.0093187289895,1742.0093187289895,1742.0093187289895,1742.0093187289895,1742.0093187289895,1742.0093187289895,,,,,repeat,letter,lettRpt,f,vtsPrac,1742.8102689339867,,,0.7748361300036777,,,,,,,,,,,,,,,,,,,,,,,,17022,2022-11-03_11h17.55.310,vts_reward_expectancy_bt_OFFLINE,2022.2.4,59.929231485705024,
,,,,,,,,,,,,,,,,,,,,,,,,,,,,,,,,,,0,0,0,0,18,0,18,0,,,,,,,,,,,,,,,,,,,,,,,,,,,,0,765,,,1748.883550057988,,D,167,hexagon,0.001798876008251682,,,,,1,0,,,2,,,,,,,,1745.2896016569866,1745.2896016569866,1745.2896016569866,1745.2896016569866,1746.7977902719867,1746.7977902719867,1746.7977902719867,1746.7977902719867,1746.7977902719867,1746.7977902719867,1746.7977902719867,1746.7977902719867,,,,,repeat,letter,lettRpt,d,vtsPrac,1747.381709702997,,,0.5542920010047965,,,,,,,,,,,,,,,,,,,,,,,,17022,2022-11-03_11h17.55.310,vts_reward_expectancy_bt_OFFLINE,2022.2.4,59.929231485705024,
,,,,,,,,,,,,,,,,,,,,,,,,,,,,,,,,,,0,0,0,0,19,0,19,0,,,,,,,,,,,,,,,,,,,,,,,,,,,,0,765,,,1753.6370248999883,,F,125,circle,0.0015303059917641804,,,,,1,0,,,2,,,,,,,,1749.8613133019971,1749.8613133019971,1749.8613133019971,1749.8613133019971,1751.3693732659885,1751.3693732659885,1751.3693732659885,1751.3693732659885,1751.3693732659885,1751.3693732659885,1751.3693732659885,1751.3693732659885,,,,,switch,number,numSwt,j,vtsPrac,1752.1370824199985,1753.6370248999883,1754.1374857639894,0.7418559350044234,,,,,,,,,,,,,,,,,,,,,,,,17022,2022-11-03_11h17.55.310,vts_reward_expectancy_bt_OFFLINE,2022.2.4,59.929231485705024,
,,,,,,,,,,,,,,,,,,,,,,,,,,,,,,,,,,0,0,0,0,20,0,20,0,,,,,,,,,,,,,,,,,,,,,,,,,,,,0,765,,,1758.2437565579894,,H,132,circle,0.00012220600910950452,,,,,1,0,,,2,,,,,,,,1754.6145519439888,1754.6145519439888,1754.6145519439888,1754.6145519439888,1756.1246222749905,1756.1246222749905,1756.1246222749905,1756.1246222749905,1756.1246222749905,1756.1246222749905,1756.1246222749905,1756.1246222749905,,,,,repeat,number,numRpt,j,vtsPrac,1756.7420453509985,,,0.599322188005317,,,,,,,,,,,,,,,,,,,,,,,,17022,2022-11-03_11h17.55.310,vts_reward_expectancy_bt_OFFLINE,2022.2.4,59.929231485705024,
,,,,,,,,,,,,,,,,,,,,,,,,,,,,,,,,,,0,0,0,0,21,0,21,0,,,,,,,,,,,,,,,,,,,,,,,,,,,,0,765,,,1763.0823066149896,,U,160,star,0.001158694998594001,,,,,1,0,,,2,,,,,,,,1759.221711596998,1759.221711596998,1759.221711596998,1759.221711596998,1760.729709014995,1760.729709014995,1760.729709014995,1760.729709014995,1760.729709014995,1760.729709014995,1760.729709014995,1760.729709014995,,,,,switch,letter,lettSwt,f,vtsPrac,1761.5806195019977,,,0.8329194730031304,,,,,,,,,,,,,,,,,,,,,,,,17022,2022-11-03_11h17.55.310,vts_reward_expectancy_bt_OFFLINE,2022.2.4,59.929231485705024,
,,,,,,,,,,,,,,,,,,,,,,,,,,,,,,,,,,0,0,0,0,22,0,22,0,,,,,,,,,,,,,,,,,,,,,,,,,,,,0,765,,,1767.8877479949879,,W,174,star,0.000834781996672973,,,,,1,0,,,2,,,,,,,,1764.059856473992,1764.059856473992,1764.059856473992,1764.059856473992,1765.5683780349937,1765.5683780349937,1765.5683780349937,1765.5683780349937,1765.5683780349937,1765.5683780349937,1765.5683780349937,1765.5683780349937,,,,,repeat,letter,lettRpt,f,vtsPrac,1766.3860905269976,,,0.7854050699970685,,,,,,,,,,,,,,,,,,,,,,,,17022,2022-11-03_11h17.55.310,vts_reward_expectancy_bt_OFFLINE,2022.2.4,59.929231485705024,
,,,,,,,,,,,,,,,,,,,,,,,,,,,,,,,,,,0,0,0,0,23,0,23,0,,,,,,,,,,,,,,,,,,,,,,,,,,,,0,765,,,1772.7263130639913,,Y,181,triangle,0.0015348839951911941,,,,,1,0,,,2,,,,,,,,1768.8660282899946,1768.8660282899946,1768.8660282899946,1768.8660282899946,1770.3736281969905,1770.3736281969905,1770.3736281969905,1770.3736281969905,1770.3736281969905,1770.3736281969905,1770.3736281969905,1770.3736281969905,,,,,switch,number,numSwt,k,vtsPrac,1771.2246275759971,,,0.8190030840050895,,,,,,,,,,,,,,,,,,,,,,,,17022,2022-11-03_11h17.55.310,vts_reward_expectancy_bt_OFFLINE,2022.2.4,59.929231485705024,
,,,,,,,,,,,,,,,,,,,,,,,,,,,,,,,,,,0,0,0,0,24,0,24,0,,,,,,,,,,,,,,,,,,,,,,,,,,,,0,765,,,1777.2814296949946,,H,125,circle,0.0018322579999221489,,,,,1,0,,,2,,,,,,,,1773.7039694549894,1773.7039694549894,1773.7039694549894,1773.7039694549894,1775.212351424998,1775.212351424998,1775.212351424998,1775.212351424998,1775.212351424998,1775.212351424998,1775.212351424998,1775.212351424998,,,,,repeat,number,numRpt,j,vtsPrac,1775.7796572789957,,,0.5462570789968595,,,,,,,,,,,,,,,,,,,,,,,,17022,2022-11-03_11h17.55.310,vts_reward_expectancy_bt_OFFLINE,2022.2.4,59.929231485705024,
,,,,,,,,,,,,,,,,,,,,,,,,,,,,,,,,,,0,0,0,0,25,0,25,0,,,,,,,,,,,,,,,,,,,,,,,,,,,,0,765,,,1782.3370205269894,,W,139,star,0.001579824005602859,,,,,1,0,,,2,,,,,,,,1778.2599593149935,1778.2599593149935,1778.2599593149935,1778.2599593149935,1779.7674491289945,1779.7674491289945,1779.7674491289945,1779.7674491289945,1779.7674491289945,1779.7674491289945,1779.7674491289945,1779.7674491289945,,,,,switch,letter,lettSwt,f,vtsPrac,1780.8352325409942,,,1.042455005008378,,,,,,,,,,,,,,,,,,,,,,,,17022,2022-11-03_11h17.55.310,vts_reward_expectancy_bt_OFFLINE,2022.2.4,59.929231485705024,
,,,,,,,,,,,,,,,,,,,,,,,,,,,,,,,,,,0,0,0,0,26,0,26,0,,,,,,,,,,,,,,,,,,,,,,,,,,,,0,765,,,1786.8921127239882,,U,160,star,0.0018909089994849637,,,,,1,0,,,2,,,,,,,,1783.3146467739862,1783.3146467739862,1783.3146467739862,1783.3146467739862,1784.8229426420003,1784.8229426420003,1784.8229426420003,1784.8229426420003,1784.8229426420003,1784.8229426420003,1784.8229426420003,1784.8229426420003,,,,,repeat,letter,lettRpt,f,vtsPrac,1785.390659755998,,,0.5435842720034998,,,,,,,,,,,,,,,,,,,,,,,,17022,2022-11-03_11h17.55.310,vts_reward_expectancy_bt_OFFLINE,2022.2.4,59.929231485705024,
,,,,,,,,,,,,,,,,,,,,,,,,,,,,,,,,,,0,0,0,0,27,0,27,0,,,,,,,,,,,,,,,,,,,,,,,,,,,,0,765,,,1791.8810353009903,,D,174,triangle,0.0016306739998981357,,,,,1,0,,,2,,,,,,,,1787.8698110449914,1787.8698110449914,1787.8698110449914,1787.8698110449914,1789.3780713859887,1789.3780713859887,1789.3780713859887,1789.3780713859887,1789.3780713859887,1789.3780713859887,1789.3780713859887,1789.3780713859887,,,,,switch,number,numSwt,k,vtsPrac,1790.3796260339877,,,0.9731164090044331,,,,,,,,,,,,,,,,,,,,,,,,17022,2022-11-03_11h17.55.310,vts_reward_expectancy_bt_OFFLINE,2022.2.4,59.929231485705024,
,,,,,,,,,,,,,,,,,,,,,,,,,,,,,,,,,,0,0,0,0,28,0,28,0,,,,,,,,,,,,,,,,,,,,,,,,,,,,0,765,,,1796.5025918509928,,U,125,hexagon,0.0018254879978485405,,,,,1,0,,,2,,,,,,,,1792.8586410749995,1792.8586410749995,1792.8586410749995,1792.8586410749995,1794.3671347279887,1794.3671347279887,1794.3671347279887,1794.3671347279887,1794.3671347279887,1794.3671347279887,1794.3671347279887,1794.3671347279887,,,,,switch,letter,lettSwt,f,vtsPrac,1795.0008588469937,,,0.6069432390067959,,,,,,,,,,,,,,,,,,,,,,,,17022,2022-11-03_11h17.55.310,vts_reward_expectancy_bt_OFFLINE,2022.2.4,59.929231485705024,
