LTriangleOpac,LCircleOpac,LHexagonOpac,LStarOpac,RTriangleOpac,RCircleOpac,RHexagonOpac,RStarOpac,LShape_ID,RShape_ID,training_blocks.thisRepN,training_blocks.thisTrialN,training_blocks.thisN,training_blocks.thisIndex,training.thisRepN,training.thisTrialN,training.thisN,training.thisIndex,task1_prac_redo.thisRepN,task1_prac_redo.thisTrialN,task1_prac_redo.thisN,task1_prac_redo.thisIndex,task1_prac_trials.thisRepN,task1_prac_trials.thisTrialN,task1_prac_trials.thisN,task1_prac_trials.thisIndex,task2_prac_redo.thisRepN,task2_prac_redo.thisTrialN,task2_prac_redo.thisN,task2_prac_redo.thisIndex,task2_praac_trials.thisRepN,task2_praac_trials.thisTrialN,task2_praac_trials.thisN,task2_praac_trials.thisIndex,vts_prac_redo.thisRepN,vts_prac_redo.thisTrialN,vts_prac_redo.thisN,vts_prac_redo.thisIndex,vts_practice_trials.thisRepN,vts_practice_trials.thisTrialN,vts_practice_trials.thisN,vts_practice_trials.thisIndex,trials_norew.thisRepN,trials_norew.thisTrialN,trials_norew.thisN,trials_norew.thisIndex,block.thisRepN,block.thisTrialN,block.thisN,block.thisIndex,trials_rew.thisRepN,trials_rew.thisTrialN,trials_rew.thisN,trials_rew.thisIndex,key_resp.started,key_resp.keys,key_resp.rt,left_circle.started,right_circle.started,left_triangle.started,right_triangle.started,left_star.started,right_star.started,left_hexagon.started,right_hexagon.started,training_fix.started,training_resp.started,training_resp.keys,training_resp.rt,points_trial,points_cumul,trainBlock,training_feedback_txt.started,fix.started,training_feedback_txt.stopped,curr_topStim,curr_bottStim,curr_shape,ISI.started,tgt_fix_prac1.started,top_target_prac1.started,bott_target_prac1.started,target_resp_prac1.started,acc,E1,target_resp_prac1.keys,target_resp_prac1.rt,pracBlock,prac_fback_text.started,tgt_fix_prac2.started,top_target_prac2.started,bott_target_prac2.started,target_resp_prac2.started,target_resp_prac2.keys,target_resp_prac2.rt,prac_fback_text.stopped,star.started,hegagon.started,triangle.started,circle.started,star.stopped,hegagon.stopped,triangle.stopped,circle.stopped,top_target.started,tgt_fix.started,bot_target.started,target_resp.started,alt,task,condition,target_resp.keys,target_resp.rt,rewCond,vts_fback.started,blockNum,norew_fback.started,norew_fback.stopped,key_resp_2.keys,key_resp_2.rt,rewExpectancy,feedbk_text.started,feedbk_text.stopped,fix.stopped,text_3.started,text_3.stopped,button.started,debrief.index,debrief.itemText,debrief.type,debrief.granularity,debrief.font,debrief.markerColor,debrief.response,debrief.rt,button.numClicks,button.timesOn,button.timesOff,participant,date,expName,psychopyVersion,frameRate,
,,,,,,,,,,,,,,,,,,,,,,,,,,,,,,,,,,,,,,,,,,,,,,,,,,,,,,17.656503956997767,space,27.27794951800024,,,,,,,,,,,,,,,,,,,,,,,,,,,,,,,,,,,,,,,,,,,,,,,,,,,,,,,,,,,,,,,,,,,,,,,,,,,,,,,,,,17433,2022-10-31_13h58.59.421,vts_reward_expectancy_bt_OFFLINE,2022.2.4,59.935576927775955,
1,0,0,0,0,1,0,0,triangle,circle,0,0,0,0,0,0,0,0,,,,,,,,,,,,,,,,,,,,,,,,,,,,,,,,,,,,,,,,68.90384875499876,68.90384875499876,68.90384875499876,68.90384875499876,68.90384875499876,68.90384875499876,68.90384875499876,68.90384875499876,68.90384875499876,68.90384875499876,a,0.878827464999631,1,1,0,69.80935244199645,71.31099932000507,,,,,,,,,,,,,,,,,,,,,,,,,,,,,,,,,,,,,,,,,,,,,,,,,,,,,,,,,,,,,,,,,17433,2022-10-31_13h58.59.421,vts_reward_expectancy_bt_OFFLINE,2022.2.4,59.935576927775955,
0,0,0,1,0,1,0,0,star ,circle,0,0,0,0,0,1,1,10,,,,,,,,,,,,,,,,,,,,,,,,,,,,,,,,,,,,,,,,71.8114330190001,71.8114330190001,71.8114330190001,71.8114330190001,71.8114330190001,71.8114330190001,71.8114330190001,71.8114330190001,71.8114330190001,71.8114330190001,l,0.8426118649949785,10,11,0,72.6790475930029,74.1809073320037,,,,,,,,,,,,,,,,,,,,,,,,,,,,,,,,,,,,,,,,,,,,,,,,,,,,,,,,,,,,,,,,,17433,2022-10-31_13h58.59.421,vts_reward_expectancy_bt_OFFLINE,2022.2.4,59.935576927775955,
0,1,0,0,0,0,0,1,circle,star,0,0,0,0,0,2,2,5,,,,,,,,,,,,,,,,,,,,,,,,,,,,,,,,,,,,,,,,74.68138836100115,74.68138836100115,74.68138836100115,74.68138836100115,74.68138836100115,74.68138836100115,74.68138836100115,74.68138836100115,74.68138836100115,74.68138836100115,a,1.5499979849992087,10,21,0,76.24975712099695,77.75140591099625,,,,,,,,,,,,,,,,,,,,,,,,,,,,,,,,,,,,,,,,,,,,,,,,,,,,,,,,,,,,,,,,,17433,2022-10-31_13h58.59.421,vts_reward_expectancy_bt_OFFLINE,2022.2.4,59.935576927775955,
0,0,1,0,1,0,0,0,hexagon,triangle,0,0,0,0,0,3,3,6,,,,,,,,,,,,,,,,,,,,,,,,,,,,,,,,,,,,,,,,78.25190658100473,78.25190658100473,78.25190658100473,78.25190658100473,78.25190658100473,78.25190658100473,78.25190658100473,78.25190658100473,78.25190658100473,78.25190658100473,a,1.3387466950080125,10,31,0,79.61999591300264,81.12178295399644,,,,,,,,,,,,,,,,,,,,,,,,,,,,,,,,,,,,,,,,,,,,,,,,,,,,,,,,,,,,,,,,,17433,2022-10-31_13h58.59.421,vts_reward_expectancy_bt_OFFLINE,2022.2.4,59.935576927775955,
0,1,0,0,0,0,1,0,circle,hexagon,0,0,0,0,0,4,4,4,,,,,,,,,,,,,,,,,,,,,,,,,,,,,,,,,,,,,,,,81.62237705600273,81.62237705600273,81.62237705600273,81.62237705600273,81.62237705600273,81.62237705600273,81.62237705600273,81.62237705600273,81.62237705600273,81.62237705600273,a,0.6491490120097296,10,41,0,82.28962125799444,83.79128872600268,,,,,,,,,,,,,,,,,,,,,,,,,,,,,,,,,,,,,,,,,,,,,,,,,,,,,,,,,,,,,,,,,17433,2022-10-31_13h58.59.421,vts_reward_expectancy_bt_OFFLINE,2022.2.4,59.935576927775955,
0,0,0,1,0,0,1,0,star,hexagon,0,0,0,0,0,5,5,11,,,,,,,,,,,,,,,,,,,,,,,,,,,,,,,,,,,,,,,,84.29197642099462,84.29197642099462,84.29197642099462,84.29197642099462,84.29197642099462,84.29197642099462,84.29197642099462,84.29197642099462,84.29197642099462,84.29197642099462,l,1.3784065710060531,10,51,0,85.69347985500644,87.19525868100754,,,,,,,,,,,,,,,,,,,,,,,,,,,,,,,,,,,,,,,,,,,,,,,,,,,,,,,,,,,,,,,,,17433,2022-10-31_13h58.59.421,vts_reward_expectancy_bt_OFFLINE,2022.2.4,59.935576927775955,
1,0,0,0,0,0,1,0,triangle,hexagon,0,0,0,0,0,6,6,1,,,,,,,,,,,,,,,,,,,,,,,,,,,,,,,,,,,,,,,,87.69564381400414,87.69564381400414,87.69564381400414,87.69564381400414,87.69564381400414,87.69564381400414,87.69564381400414,87.69564381400414,87.69564381400414,87.69564381400414,l,1.1193996729998617,10,61,0,88.84700943699863,90.34868227600236,,,,,,,,,,,,,,,,,,,,,,,,,,,,,,,,,,,,,,,,,,,,,,,,,,,,,,,,,,,,,,,,,17433,2022-10-31_13h58.59.421,vts_reward_expectancy_bt_OFFLINE,2022.2.4,59.935576927775955,
0,0,1,0,0,0,0,1,hexagon,star,0,0,0,0,0,7,7,8,,,,,,,,,,,,,,,,,,,,,,,,,,,,,,,,,,,,,,,,90.84909280500142,90.84909280500142,90.84909280500142,90.84909280500142,90.84909280500142,90.84909280500142,90.84909280500142,90.84909280500142,90.84909280500142,90.84909280500142,a,1.773429370005033,1,62,0,92.65111325800535,94.15291633900779,,,,,,,,,,,,,,,,,,,,,,,,,,,,,,,,,,,,,,,,,,,,,,,,,,,,,,,,,,,,,,,,,17433,2022-10-31_13h58.59.421,vts_reward_expectancy_bt_OFFLINE,2022.2.4,59.935576927775955,
0,0,0,1,1,0,0,0,star,triangle,0,0,0,0,0,8,8,9,,,,,,,,,,,,,,,,,,,,,,,,,,,,,,,,,,,,,,,,94.65335143500124,94.65335143500124,94.65335143500124,94.65335143500124,94.65335143500124,94.65335143500124,94.65335143500124,94.65335143500124,94.65335143500124,94.65335143500124,a,1.1130845630104886,1,63,0,95.78794614999788,97.28962085300009,,,,,,,,,,,,,,,,,,,,,,,,,,,,,,,,,,,,,,,,,,,,,,,,,,,,,,,,,,,,,,,,,17433,2022-10-31_13h58.59.421,vts_reward_expectancy_bt_OFFLINE,2022.2.4,59.935576927775955,
1,0,0,0,0,0,0,1,triangle,star,0,0,0,0,0,9,9,2,,,,,,,,,,,,,,,,,,,,,,,,,,,,,,,,,,,,,,,,97.79010808600287,97.79010808600287,97.79010808600287,97.79010808600287,97.79010808600287,97.79010808600287,97.79010808600287,97.79010808600287,97.79010808600287,97.79010808600287,l,2.1120070920005674,10,73,0,99.92566132999491,101.42756410699803,,,,,,,,,,,,,,,,,,,,,,,,,,,,,,,,,,,,,,,,,,,,,,,,,,,,,,,,,,,,,,,,,17433,2022-10-31_13h58.59.421,vts_reward_expectancy_bt_OFFLINE,2022.2.4,59.935576927775955,
0,0,1,0,0,1,0,0,hexagon,circle,0,0,0,0,0,10,10,7,,,,,,,,,,,,,,,,,,,,,,,,,,,,,,,,,,,,,,,,101.92791270199814,101.92791270199814,101.92791270199814,101.92791270199814,101.92791270199814,101.92791270199814,101.92791270199814,101.92791270199814,101.92791270199814,101.92791270199814,l,1.0708902010082966,1,74,0,103.02922545200272,104.53102794000006,,,,,,,,,,,,,,,,,,,,,,,,,,,,,,,,,,,,,,,,,,,,,,,,,,,,,,,,,,,,,,,,,17433,2022-10-31_13h58.59.421,vts_reward_expectancy_bt_OFFLINE,2022.2.4,59.935576927775955,
0,1,0,0,1,0,0,0,circle,triangle,0,0,0,0,0,11,11,3,,,,,,,,,,,,,,,,,,,,,,,,,,,,,,,,,,,,,,,,105.03136476399959,105.03136476399959,105.03136476399959,105.03136476399959,105.03136476399959,105.03136476399959,105.03136476399959,105.03136476399959,105.03136476399959,105.03136476399959,a,1.1427384530106792,10,84,0,106.19929765300185,107.70115264700144,,,,,,,,,,,,,,,,,,,,,,,,,,,,,,,,,,,,,,,,,,,,,,,,,,,,,,,,,,,,,,,,,17433,2022-10-31_13h58.59.421,vts_reward_expectancy_bt_OFFLINE,2022.2.4,59.935576927775955,
0,0,0,1,0,1,0,0,star ,circle,0,0,0,0,1,0,12,10,,,,,,,,,,,,,,,,,,,,,,,,,,,,,,,,,,,,,,,,108.20152949400654,108.20152949400654,108.20152949400654,108.20152949400654,108.20152949400654,108.20152949400654,108.20152949400654,108.20152949400654,108.20152949400654,108.20152949400654,a,1.1732692160003353,10,94,0,109.40310204599518,110.90477648400702,,,,,,,,,,,,,,,,,,,,,,,,,,,,,,,,,,,,,,,,,,,,,,,,,,,,,,,,,,,,,,,,,17433,2022-10-31_13h58.59.421,vts_reward_expectancy_bt_OFFLINE,2022.2.4,59.935576927775955,
1,0,0,0,0,0,0,1,triangle,star,0,0,0,0,1,1,13,2,,,,,,,,,,,,,,,,,,,,,,,,,,,,,,,,,,,,,,,,111.40535365299729,111.40535365299729,111.40535365299729,111.40535365299729,111.40535365299729,111.40535365299729,111.40535365299729,111.40535365299729,111.40535365299729,111.40535365299729,l,1.1854041810001945,1,95,0,112.62312921600824,114.12485648599977,,,,,,,,,,,,,,,,,,,,,,,,,,,,,,,,,,,,,,,,,,,,,,,,,,,,,,,,,,,,,,,,,17433,2022-10-31_13h58.59.421,vts_reward_expectancy_bt_OFFLINE,2022.2.4,59.935576927775955,
0,0,1,0,0,1,0,0,hexagon,circle,0,0,0,0,1,2,14,7,,,,,,,,,,,,,,,,,,,,,,,,,,,,,,,,,,,,,,,,114.6252960999991,114.6252960999991,114.6252960999991,114.6252960999991,114.6252960999991,114.6252960999991,114.6252960999991,114.6252960999991,114.6252960999991,114.6252960999991,l,0.7818395789945498,10,105,0,115.42634939900017,116.92806087799545,,,,,,,,,,,,,,,,,,,,,,,,,,,,,,,,,,,,,,,,,,,,,,,,,,,,,,,,,,,,,,,,,17433,2022-10-31_13h58.59.421,vts_reward_expectancy_bt_OFFLINE,2022.2.4,59.935576927775955,
1,0,0,0,0,1,0,0,triangle,circle,0,0,0,0,1,3,15,0,,,,,,,,,,,,,,,,,,,,,,,,,,,,,,,,,,,,,,,,117.42871539200132,117.42871539200132,117.42871539200132,117.42871539200132,117.42871539200132,117.42871539200132,117.42871539200132,117.42871539200132,117.42871539200132,117.42871539200132,l,1.3134251800074708,1,106,0,118.76337212100043,120.26497573099914,,,,,,,,,,,,,,,,,,,,,,,,,,,,,,,,,,,,,,,,,,,,,,,,,,,,,,,,,,,,,,,,,17433,2022-10-31_13h58.59.421,vts_reward_expectancy_bt_OFFLINE,2022.2.4,59.935576927775955,
1,0,0,0,0,0,1,0,triangle,hexagon,0,0,0,0,1,4,16,1,,,,,,,,,,,,,,,,,,,,,,,,,,,,,,,,,,,,,,,,120.76546021399554,120.76546021399554,120.76546021399554,120.76546021399554,120.76546021399554,120.76546021399554,120.76546021399554,120.76546021399554,120.76546021399554,120.76546021399554,a,1.0013266320165712,1,107,0,121.78348441999697,123.28501898700779,,,,,,,,,,,,,,,,,,,,,,,,,,,,,,,,,,,,,,,,,,,,,,,,,,,,,,,,,,,,,,,,,17433,2022-10-31_13h58.59.421,vts_reward_expectancy_bt_OFFLINE,2022.2.4,59.935576927775955,
0,0,1,0,1,0,0,0,hexagon,triangle,0,0,0,0,1,5,17,6,,,,,,,,,,,,,,,,,,,,,,,,,,,,,,,,,,,,,,,,123.78553420699609,123.78553420699609,123.78553420699609,123.78553420699609,123.78553420699609,123.78553420699609,123.78553420699609,123.78553420699609,123.78553420699609,123.78553420699609,a,1.6615739020053297,1,108,0,125.47069785800704,126.97227800500696,,,,,,,,,,,,,,,,,,,,,,,,,,,,,,,,,,,,,,,,,,,,,,,,,,,,,,,,,,,,,,,,,17433,2022-10-31_13h58.59.421,vts_reward_expectancy_bt_OFFLINE,2022.2.4,59.935576927775955,
0,1,0,0,0,0,1,0,circle,hexagon,0,0,0,0,1,6,18,4,,,,,,,,,,,,,,,,,,,,,,,,,,,,,,,,,,,,,,,,127.47283893299755,127.47283893299755,127.47283893299755,127.47283893299755,127.47283893299755,127.47283893299755,127.47283893299755,127.47283893299755,127.47283893299755,127.47283893299755,l,1.213316480992944,1,109,0,128.70774761900248,130.2093586330011,,,,,,,,,,,,,,,,,,,,,,,,,,,,,,,,,,,,,,,,,,,,,,,,,,,,,,,,,,,,,,,,,17433,2022-10-31_13h58.59.421,vts_reward_expectancy_bt_OFFLINE,2022.2.4,59.935576927775955,
0,1,0,0,1,0,0,0,circle,triangle,0,0,0,0,1,7,19,3,,,,,,,,,,,,,,,,,,,,,,,,,,,,,,,,,,,,,,,,130.7096903519996,130.7096903519996,130.7096903519996,130.7096903519996,130.7096903519996,130.7096903519996,130.7096903519996,130.7096903519996,130.7096903519996,130.7096903519996,a,1.7043771720054792,10,119,0,132.44632118700247,133.94675632000144,,,,,,,,,,,,,,,,,,,,,,,,,,,,,,,,,,,,,,,,,,,,,,,,,,,,,,,,,,,,,,,,,17433,2022-10-31_13h58.59.421,vts_reward_expectancy_bt_OFFLINE,2022.2.4,59.935576927775955,
0,1,0,0,0,0,0,1,circle,star,0,0,0,0,1,8,20,5,,,,,,,,,,,,,,,,,,,,,,,,,,,,,,,,,,,,,,,,134.44721300200035,134.44721300200035,134.44721300200035,134.44721300200035,134.44721300200035,134.44721300200035,134.44721300200035,134.44721300200035,134.44721300200035,134.44721300200035,l,1.2791855940013193,1,120,0,135.74857669099583,137.2503695839987,,,,,,,,,,,,,,,,,,,,,,,,,,,,,,,,,,,,,,,,,,,,,,,,,,,,,,,,,,,,,,,,,17433,2022-10-31_13h58.59.421,vts_reward_expectancy_bt_OFFLINE,2022.2.4,59.935576927775955,
0,0,0,1,0,0,1,0,star,hexagon,0,0,0,0,1,9,21,11,,,,,,,,,,,,,,,,,,,,,,,,,,,,,,,,,,,,,,,,137.75093335600104,137.75093335600104,137.75093335600104,137.75093335600104,137.75093335600104,137.75093335600104,137.75093335600104,137.75093335600104,137.75093335600104,137.75093335600104,l,1.2162120260036318,1,121,0,138.98559691199625,140.48723877800512,,,,,,,,,,,,,,,,,,,,,,,,,,,,,,,,,,,,,,,,,,,,,,,,,,,,,,,,,,,,,,,,,17433,2022-10-31_13h58.59.421,vts_reward_expectancy_bt_OFFLINE,2022.2.4,59.935576927775955,
0,0,1,0,0,0,0,1,hexagon,star,0,0,0,0,1,10,22,8,,,,,,,,,,,,,,,,,,,,,,,,,,,,,,,,,,,,,,,,140.98785309800587,140.98785309800587,140.98785309800587,140.98785309800587,140.98785309800587,140.98785309800587,140.98785309800587,140.98785309800587,140.98785309800587,140.98785309800587,l,1.459263627009932,1,122,0,142.47282291200827,143.97442871199746,,,,,,,,,,,,,,,,,,,,,,,,,,,,,,,,,,,,,,,,,,,,,,,,,,,,,,,,,,,,,,,,,17433,2022-10-31_13h58.59.421,vts_reward_expectancy_bt_OFFLINE,2022.2.4,59.935576927775955,
0,0,0,1,1,0,0,0,star,triangle,0,0,0,0,1,11,23,9,,,,,,,,,,,,,,,,,,,,,,,,,,,,,,,,,,,,,,,,144.47498672100483,144.47498672100483,144.47498672100483,144.47498672100483,144.47498672100483,144.47498672100483,144.47498672100483,144.47498672100483,144.47498672100483,144.47498672100483,l,0.9238397129956866,10,132,0,145.42594684699725,146.9277365559974,,,,,,,,,,,,,,,,,,,,,,,,,,,,,,,,,,,,,,,,,,,,,,,,,,,,,,,,,,,,,,,,,17433,2022-10-31_13h58.59.421,vts_reward_expectancy_bt_OFFLINE,2022.2.4,59.935576927775955,
1,0,0,0,0,0,0,1,triangle,star,0,0,0,0,2,0,24,2,,,,,,,,,,,,,,,,,,,,,,,,,,,,,,,,,,,,,,,,147.42812884600426,147.42812884600426,147.42812884600426,147.42812884600426,147.42812884600426,147.42812884600426,147.42812884600426,147.42812884600426,147.42812884600426,147.42812884600426,l,1.4991863400064176,10,142,0,148.94666860700818,150.44815899300738,,,,,,,,,,,,,,,,,,,,,,,,,,,,,,,,,,,,,,,,,,,,,,,,,,,,,,,,,,,,,,,,,17433,2022-10-31_13h58.59.421,vts_reward_expectancy_bt_OFFLINE,2022.2.4,59.935576927775955,
1,0,0,0,0,0,1,0,triangle,hexagon,0,0,0,0,2,1,25,1,,,,,,,,,,,,,,,,,,,,,,,,,,,,,,,,,,,,,,,,150.94863746399642,150.94863746399642,150.94863746399642,150.94863746399642,150.94863746399642,150.94863746399642,150.94863746399642,150.94863746399642,150.94863746399642,150.94863746399642,l,2.2261689139995724,1,143,0,153.20122825200087,154.7029890170088,,,,,,,,,,,,,,,,,,,,,,,,,,,,,,,,,,,,,,,,,,,,,,,,,,,,,,,,,,,,,,,,,17433,2022-10-31_13h58.59.421,vts_reward_expectancy_bt_OFFLINE,2022.2.4,59.935576927775955,
0,0,1,0,1,0,0,0,hexagon,triangle,0,0,0,0,2,2,26,6,,,,,,,,,,,,,,,,,,,,,,,,,,,,,,,,,,,,,,,,155.20363388500118,155.20363388500118,155.20363388500118,155.20363388500118,155.20363388500118,155.20363388500118,155.20363388500118,155.20363388500118,155.20363388500118,155.20363388500118,l,1.0832368249975843,1,144,0,156.30474549399514,157.80633389900322,,,,,,,,,,,,,,,,,,,,,,,,,,,,,,,,,,,,,,,,,,,,,,,,,,,,,,,,,,,,,,,,,17433,2022-10-31_13h58.59.421,vts_reward_expectancy_bt_OFFLINE,2022.2.4,59.935576927775955,
0,1,0,0,0,0,1,0,circle,hexagon,0,0,0,0,2,3,27,4,,,,,,,,,,,,,,,,,,,,,,,,,,,,,,,,,,,,,,,,158.3068974140042,158.3068974140042,158.3068974140042,158.3068974140042,158.3068974140042,158.3068974140042,158.3068974140042,158.3068974140042,158.3068974140042,158.3068974140042,a,1.027785643003881,10,154,0,159.35811995499535,160.85977126999933,,,,,,,,,,,,,,,,,,,,,,,,,,,,,,,,,,,,,,,,,,,,,,,,,,,,,,,,,,,,,,,,,17433,2022-10-31_13h58.59.421,vts_reward_expectancy_bt_OFFLINE,2022.2.4,59.935576927775955,
0,0,0,1,1,0,0,0,star,triangle,0,0,0,0,2,4,28,9,,,,,,,,,,,,,,,,,,,,,,,,,,,,,,,,,,,,,,,,161.36017241800437,161.36017241800437,161.36017241800437,161.36017241800437,161.36017241800437,161.36017241800437,161.36017241800437,161.36017241800437,161.36017241800437,161.36017241800437,a,0.8950892200082308,10,164,0,162.2780766969954,163.77958156699606,,,,,,,,,,,,,,,,,,,,,,,,,,,,,,,,,,,,,,,,,,,,,,,,,,,,,,,,,,,,,,,,,17433,2022-10-31_13h58.59.421,vts_reward_expectancy_bt_OFFLINE,2022.2.4,59.935576927775955,
0,0,1,0,0,1,0,0,hexagon,circle,0,0,0,0,2,5,29,7,,,,,,,,,,,,,,,,,,,,,,,,,,,,,,,,,,,,,,,,164.28025058700587,164.28025058700587,164.28025058700587,164.28025058700587,164.28025058700587,164.28025058700587,164.28025058700587,164.28025058700587,164.28025058700587,164.28025058700587,l,0.782751509002992,10,174,0,165.08121181900788,166.5828148540022,,,,,,,,,,,,,,,,,,,,,,,,,,,,,,,,,,,,,,,,,,,,,,,,,,,,,,,,,,,,,,,,,17433,2022-10-31_13h58.59.421,vts_reward_expectancy_bt_OFFLINE,2022.2.4,59.935576927775955,
0,0,0,1,0,1,0,0,star ,circle,0,0,0,0,2,6,30,10,,,,,,,,,,,,,,,,,,,,,,,,,,,,,,,,,,,,,,,,167.0831838830054,167.0831838830054,167.0831838830054,167.0831838830054,167.0831838830054,167.0831838830054,167.0831838830054,167.0831838830054,167.0831838830054,167.0831838830054,a,1.2997088760021143,10,184,0,168.40128629999526,169.90304576999915,,,,,,,,,,,,,,,,,,,,,,,,,,,,,,,,,,,,,,,,,,,,,,,,,,,,,,,,,,,,,,,,,17433,2022-10-31_13h58.59.421,vts_reward_expectancy_bt_OFFLINE,2022.2.4,59.935576927775955,
0,0,0,1,0,0,1,0,star,hexagon,0,0,0,0,2,7,31,11,,,,,,,,,,,,,,,,,,,,,,,,,,,,,,,,,,,,,,,,170.40363377200265,170.40363377200265,170.40363377200265,170.40363377200265,170.40363377200265,170.40363377200265,170.40363377200265,170.40363377200265,170.40363377200265,170.40363377200265,a,0.8030303310079034,1,185,0,171.2379119660036,172.73947545699775,,,,,,,,,,,,,,,,,,,,,,,,,,,,,,,,,,,,,,,,,,,,,,,,,,,,,,,,,,,,,,,,,17433,2022-10-31_13h58.59.421,vts_reward_expectancy_bt_OFFLINE,2022.2.4,59.935576927775955,
0,1,0,0,1,0,0,0,circle,triangle,0,0,0,0,2,8,32,3,,,,,,,,,,,,,,,,,,,,,,,,,,,,,,,,,,,,,,,,173.23996315199474,173.23996315199474,173.23996315199474,173.23996315199474,173.23996315199474,173.23996315199474,173.23996315199474,173.23996315199474,173.23996315199474,173.23996315199474,a,0.8539332320069661,10,195,0,174.12421251900378,175.62603706300433,,,,,,,,,,,,,,,,,,,,,,,,,,,,,,,,,,,,,,,,,,,,,,,,,,,,,,,,,,,,,,,,,17433,2022-10-31_13h58.59.421,vts_reward_expectancy_bt_OFFLINE,2022.2.4,59.935576927775955,
1,0,0,0,0,1,0,0,triangle,circle,0,0,0,0,2,9,33,0,,,,,,,,,,,,,,,,,,,,,,,,,,,,,,,,,,,,,,,,176.12649973999942,176.12649973999942,176.12649973999942,176.12649973999942,176.12649973999942,176.12649973999942,176.12649973999942,176.12649973999942,176.12649973999942,176.12649973999942,l,1.5360485300043365,10,205,0,177.69490085099824,179.19669891000376,,,,,,,,,,,,,,,,,,,,,,,,,,,,,,,,,,,,,,,,,,,,,,,,,,,,,,,,,,,,,,,,,17433,2022-10-31_13h58.59.421,vts_reward_expectancy_bt_OFFLINE,2022.2.4,59.935576927775955,
0,0,1,0,0,0,0,1,hexagon,star,0,0,0,0,2,10,34,8,,,,,,,,,,,,,,,,,,,,,,,,,,,,,,,,,,,,,,,,179.69730890799838,179.69730890799838,179.69730890799838,179.69730890799838,179.69730890799838,179.69730890799838,179.69730890799838,179.69730890799838,179.69730890799838,179.69730890799838,l,1.2372127950075082,10,215,0,180.9652213859954,182.4668754890008,,,,,,,,,,,,,,,,,,,,,,,,,,,,,,,,,,,,,,,,,,,,,,,,,,,,,,,,,,,,,,,,,17433,2022-10-31_13h58.59.421,vts_reward_expectancy_bt_OFFLINE,2022.2.4,59.935576927775955,
0,1,0,0,0,0,0,1,circle,star,0,0,0,0,2,11,35,5,,,,,,,,,,,,,,,,,,,,,,,,,,,,,,,,,,,,,,,,182.96735939799692,182.96735939799692,182.96735939799692,182.96735939799692,182.96735939799692,182.96735939799692,182.96735939799692,182.96735939799692,182.96735939799692,182.96735939799692,l,4.62292728999455,10,225,0,187.62241591900238,189.1238803150045,,,,,,,,,,,,,,,,,,,,,,,,,,,,,,,,,,,,,,,,,,,,,,,,,,,,,,,,,,,,,,,,,17433,2022-10-31_13h58.59.421,vts_reward_expectancy_bt_OFFLINE,2022.2.4,59.935576927775955,
0,0,0,1,0,1,0,0,star ,circle,0,0,0,0,3,0,36,10,,,,,,,,,,,,,,,,,,,,,,,,,,,,,,,,,,,,,,,,189.62457306400756,189.62457306400756,189.62457306400756,189.62457306400756,189.62457306400756,189.62457306400756,189.62457306400756,189.62457306400756,189.62457306400756,189.62457306400756,a,1.246197396016214,10,235,0,190.89277538300666,192.39437717900728,,,,,,,,,,,,,,,,,,,,,,,,,,,,,,,,,,,,,,,,,,,,,,,,,,,,,,,,,,,,,,,,,17433,2022-10-31_13h58.59.421,vts_reward_expectancy_bt_OFFLINE,2022.2.4,59.935576927775955,
0,1,0,0,1,0,0,0,circle,triangle,0,0,0,0,3,1,37,3,,,,,,,,,,,,,,,,,,,,,,,,,,,,,,,,,,,,,,,,192.8952445610048,192.8952445610048,192.8952445610048,192.8952445610048,192.8952445610048,192.8952445610048,192.8952445610048,192.8952445610048,192.8952445610048,192.8952445610048,a,1.0866598400025396,1,236,0,194.0129909390089,195.51459134700417,,,,,,,,,,,,,,,,,,,,,,,,,,,,,,,,,,,,,,,,,,,,,,,,,,,,,,,,,,,,,,,,,17433,2022-10-31_13h58.59.421,vts_reward_expectancy_bt_OFFLINE,2022.2.4,59.935576927775955,
0,0,0,1,0,0,1,0,star,hexagon,0,0,0,0,3,2,38,11,,,,,,,,,,,,,,,,,,,,,,,,,,,,,,,,,,,,,,,,196.01518899400253,196.01518899400253,196.01518899400253,196.01518899400253,196.01518899400253,196.01518899400253,196.01518899400253,196.01518899400253,196.01518899400253,196.01518899400253,a,2.087141915995744,10,246,0,198.13416568000684,199.63575777600636,,,,,,,,,,,,,,,,,,,,,,,,,,,,,,,,,,,,,,,,,,,,,,,,,,,,,,,,,,,,,,,,,17433,2022-10-31_13h58.59.421,vts_reward_expectancy_bt_OFFLINE,2022.2.4,59.935576927775955,
0,0,0,1,1,0,0,0,star,triangle,0,0,0,0,3,3,39,9,,,,,,,,,,,,,,,,,,,,,,,,,,,,,,,,,,,,,,,,200.13632015700568,200.13632015700568,200.13632015700568,200.13632015700568,200.13632015700568,200.13632015700568,200.13632015700568,200.13632015700568,200.13632015700568,200.13632015700568,l,2.5740304549981374,1,247,0,202.73920086999715,204.24101919900568,,,,,,,,,,,,,,,,,,,,,,,,,,,,,,,,,,,,,,,,,,,,,,,,,,,,,,,,,,,,,,,,,17433,2022-10-31_13h58.59.421,vts_reward_expectancy_bt_OFFLINE,2022.2.4,59.935576927775955,
1,0,0,0,0,1,0,0,triangle,circle,0,0,0,0,3,4,40,0,,,,,,,,,,,,,,,,,,,,,,,,,,,,,,,,,,,,,,,,204.74152928599506,204.74152928599506,204.74152928599506,204.74152928599506,204.74152928599506,204.74152928599506,204.74152928599506,204.74152928599506,204.74152928599506,204.74152928599506,l,0.9691566219989909,10,257,0,205.74273883800197,207.24333117999777,,,,,,,,,,,,,,,,,,,,,,,,,,,,,,,,,,,,,,,,,,,,,,,,,,,,,,,,,,,,,,,,,17433,2022-10-31_13h58.59.421,vts_reward_expectancy_bt_OFFLINE,2022.2.4,59.935576927775955,
0,0,1,0,0,0,0,1,hexagon,star,0,0,0,0,3,5,41,8,,,,,,,,,,,,,,,,,,,,,,,,,,,,,,,,,,,,,,,,207.74482224900567,207.74482224900567,207.74482224900567,207.74482224900567,207.74482224900567,207.74482224900567,207.74482224900567,207.74482224900567,207.74482224900567,207.74482224900567,l,4.054329887003405,10,267,0,211.8159510789992,213.31760217300325,,,,,,,,,,,,,,,,,,,,,,,,,,,,,,,,,,,,,,,,,,,,,,,,,,,,,,,,,,,,,,,,,17433,2022-10-31_13h58.59.421,vts_reward_expectancy_bt_OFFLINE,2022.2.4,59.935576927775955,
1,0,0,0,0,0,1,0,triangle,hexagon,0,0,0,0,3,6,42,1,,,,,,,,,,,,,,,,,,,,,,,,,,,,,,,,,,,,,,,,213.81810883000435,213.81810883000435,213.81810883000435,213.81810883000435,213.81810883000435,213.81810883000435,213.81810883000435,213.81810883000435,213.81810883000435,213.81810883000435,a,1.612360389000969,10,277,0,215.45334464800544,216.95487363700522,,,,,,,,,,,,,,,,,,,,,,,,,,,,,,,,,,,,,,,,,,,,,,,,,,,,,,,,,,,,,,,,,17433,2022-10-31_13h58.59.421,vts_reward_expectancy_bt_OFFLINE,2022.2.4,59.935576927775955,
0,0,1,0,1,0,0,0,hexagon,triangle,0,0,0,0,3,7,43,6,,,,,,,,,,,,,,,,,,,,,,,,,,,,,,,,,,,,,,,,217.45552848100488,217.45552848100488,217.45552848100488,217.45552848100488,217.45552848100488,217.45552848100488,217.45552848100488,217.45552848100488,217.45552848100488,217.45552848100488,l,4.646597908998956,1,278,0,222.12730193900643,223.62817468499998,,,,,,,,,,,,,,,,,,,,,,,,,,,,,,,,,,,,,,,,,,,,,,,,,,,,,,,,,,,,,,,,,17433,2022-10-31_13h58.59.421,vts_reward_expectancy_bt_OFFLINE,2022.2.4,59.935576927775955,
1,0,0,0,0,0,0,1,triangle,star,0,0,0,0,3,8,44,2,,,,,,,,,,,,,,,,,,,,,,,,,,,,,,,,,,,,,,,,224.12872521800455,224.12872521800455,224.12872521800455,224.12872521800455,224.12872521800455,224.12872521800455,224.12872521800455,224.12872521800455,224.12872521800455,224.12872521800455,l,0.7254245220101438,10,288,0,224.87994881300256,226.38192488900677,,,,,,,,,,,,,,,,,,,,,,,,,,,,,,,,,,,,,,,,,,,,,,,,,,,,,,,,,,,,,,,,,17433,2022-10-31_13h58.59.421,vts_reward_expectancy_bt_OFFLINE,2022.2.4,59.935576927775955,
0,1,0,0,0,0,1,0,circle,hexagon,0,0,0,0,3,9,45,4,,,,,,,,,,,,,,,,,,,,,,,,,,,,,,,,,,,,,,,,226.88241107200156,226.88241107200156,226.88241107200156,226.88241107200156,226.88241107200156,226.88241107200156,226.88241107200156,226.88241107200156,226.88241107200156,226.88241107200156,a,1.627906982015702,10,298,0,228.53449152100075,230.03608127600455,,,,,,,,,,,,,,,,,,,,,,,,,,,,,,,,,,,,,,,,,,,,,,,,,,,,,,,,,,,,,,,,,17433,2022-10-31_13h58.59.421,vts_reward_expectancy_bt_OFFLINE,2022.2.4,59.935576927775955,
0,1,0,0,0,0,0,1,circle,star,0,0,0,0,3,10,46,5,,,,,,,,,,,,,,,,,,,,,,,,,,,,,,,,,,,,,,,,230.5365175439947,230.5365175439947,230.5365175439947,230.5365175439947,230.5365175439947,230.5365175439947,230.5365175439947,230.5365175439947,230.5365175439947,230.5365175439947,l,1.2859041140036425,10,308,0,231.85467859600612,233.35632791899843,,,,,,,,,,,,,,,,,,,,,,,,,,,,,,,,,,,,,,,,,,,,,,,,,,,,,,,,,,,,,,,,,17433,2022-10-31_13h58.59.421,vts_reward_expectancy_bt_OFFLINE,2022.2.4,59.935576927775955,
0,0,1,0,0,1,0,0,hexagon,circle,0,0,0,0,3,11,47,7,,,,,,,,,,,,,,,,,,,,,,,,,,,,,,,,,,,,,,,,233.85704337600328,233.85704337600328,233.85704337600328,233.85704337600328,233.85704337600328,233.85704337600328,233.85704337600328,233.85704337600328,233.85704337600328,233.85704337600328,l,3.7658411900047213,10,318,0,237.64446774299722,239.14610347100825,,,,,,,,,,,,,,,,,,,,,,,,,,,,,,,,,,,,,,,,,,,,,,,,,,,,,,,,,,,,,,,,,17433,2022-10-31_13h58.59.421,vts_reward_expectancy_bt_OFFLINE,2022.2.4,59.935576927775955,
1,0,0,0,0,0,1,0,triangle,hexagon,1,0,1,0,0,0,0,1,,,,,,,,,,,,,,,,,,,,,,,,,,,,,,,,,,,,,,,,303.54012404900277,303.54012404900277,303.54012404900277,303.54012404900277,303.54012404900277,303.54012404900277,303.54012404900277,303.54012404900277,303.54012404900277,303.54012404900277,l,5.674145550001413,1,319,1,309.23997761899955,310.7415973019961,,,,,,,,,,,,,,,,,,,,,,,,,,,,,,,,,,,,,,,,,,,,,,,,,,,,,,,,,,,,,,,,,17433,2022-10-31_13h58.59.421,vts_reward_expectancy_bt_OFFLINE,2022.2.4,59.935576927775955,
1,0,0,0,0,0,0,1,triangle,star,1,0,1,0,0,1,1,2,,,,,,,,,,,,,,,,,,,,,,,,,,,,,,,,,,,,,,,,311.24232791000395,311.24232791000395,311.24232791000395,311.24232791000395,311.24232791000395,311.24232791000395,311.24232791000395,311.24232791000395,311.24232791000395,311.24232791000395,a,1.7569139190018177,1,320,1,313.02755271400383,314.5291644920071,,,,,,,,,,,,,,,,,,,,,,,,,,,,,,,,,,,,,,,,,,,,,,,,,,,,,,,,,,,,,,,,,17433,2022-10-31_13h58.59.421,vts_reward_expectancy_bt_OFFLINE,2022.2.4,59.935576927775955,
0,0,0,1,0,0,1,0,star,hexagon,1,0,1,0,0,2,2,11,,,,,,,,,,,,,,,,,,,,,,,,,,,,,,,,,,,,,,,,315.02984174899757,315.02984174899757,315.02984174899757,315.02984174899757,315.02984174899757,315.02984174899757,315.02984174899757,315.02984174899757,315.02984174899757,315.02984174899757,a,0.8731521259906003,10,330,1,315.9308770839998,317.43255815000157,,,,,,,,,,,,,,,,,,,,,,,,,,,,,,,,,,,,,,,,,,,,,,,,,,,,,,,,,,,,,,,,,17433,2022-10-31_13h58.59.421,vts_reward_expectancy_bt_OFFLINE,2022.2.4,59.935576927775955,
0,1,0,0,1,0,0,0,circle,triangle,1,0,1,0,0,3,3,3,,,,,,,,,,,,,,,,,,,,,,,,,,,,,,,,,,,,,,,,317.9328650270036,317.9328650270036,317.9328650270036,317.9328650270036,317.9328650270036,317.9328650270036,317.9328650270036,317.9328650270036,317.9328650270036,317.9328650270036,a,0.650380570004927,1,331,1,318.60037464200286,320.101964750007,,,,,,,,,,,,,,,,,,,,,,,,,,,,,,,,,,,,,,,,,,,,,,,,,,,,,,,,,,,,,,,,,17433,2022-10-31_13h58.59.421,vts_reward_expectancy_bt_OFFLINE,2022.2.4,59.935576927775955,
0,0,1,0,0,1,0,0,hexagon,circle,1,0,1,0,0,4,4,7,,,,,,,,,,,,,,,,,,,,,,,,,,,,,,,,,,,,,,,,320.6024377099966,320.6024377099966,320.6024377099966,320.6024377099966,320.6024377099966,320.6024377099966,320.6024377099966,320.6024377099966,320.6024377099966,320.6024377099966,l,0.9803569360083202,10,341,1,321.6035964330076,323.1054327610036,,,,,,,,,,,,,,,,,,,,,,,,,,,,,,,,,,,,,,,,,,,,,,,,,,,,,,,,,,,,,,,,,17433,2022-10-31_13h58.59.421,vts_reward_expectancy_bt_OFFLINE,2022.2.4,59.935576927775955,
0,0,0,1,1,0,0,0,star,triangle,1,0,1,0,0,5,5,9,,,,,,,,,,,,,,,,,,,,,,,,,,,,,,,,,,,,,,,,323.6060569459951,323.6060569459951,323.6060569459951,323.6060569459951,323.6060569459951,323.6060569459951,323.6060569459951,323.6060569459951,323.6060569459951,323.6060569459951,a,1.1120518900133902,10,351,1,324.74051768600475,326.24208664600155,,,,,,,,,,,,,,,,,,,,,,,,,,,,,,,,,,,,,,,,,,,,,,,,,,,,,,,,,,,,,,,,,17433,2022-10-31_13h58.59.421,vts_reward_expectancy_bt_OFFLINE,2022.2.4,59.935576927775955,
0,0,1,0,0,0,0,1,hexagon,star,1,0,1,0,0,6,6,8,,,,,,,,,,,,,,,,,,,,,,,,,,,,,,,,,,,,,,,,326.74274085600337,326.74274085600337,326.74274085600337,326.74274085600337,326.74274085600337,326.74274085600337,326.74274085600337,326.74274085600337,326.74274085600337,326.74274085600337,l,1.69611987900862,10,361,1,328.46122485499654,329.9629373719945,,,,,,,,,,,,,,,,,,,,,,,,,,,,,,,,,,,,,,,,,,,,,,,,,,,,,,,,,,,,,,,,,17433,2022-10-31_13h58.59.421,vts_reward_expectancy_bt_OFFLINE,2022.2.4,59.935576927775955,
0,0,0,1,0,1,0,0,star ,circle,1,0,1,0,0,7,7,10,,,,,,,,,,,,,,,,,,,,,,,,,,,,,,,,,,,,,,,,330.4636023869971,330.4636023869971,330.4636023869971,330.4636023869971,330.4636023869971,330.4636023869971,330.4636023869971,330.4636023869971,330.4636023869971,330.4636023869971,a,1.0788111750007374,10,371,1,331.5647669809987,333.06645657400077,,,,,,,,,,,,,,,,,,,,,,,,,,,,,,,,,,,,,,,,,,,,,,,,,,,,,,,,,,,,,,,,,17433,2022-10-31_13h58.59.421,vts_reward_expectancy_bt_OFFLINE,2022.2.4,59.935576927775955,
1,0,0,0,0,1,0,0,triangle,circle,1,0,1,0,0,8,8,0,,,,,,,,,,,,,,,,,,,,,,,,,,,,,,,,,,,,,,,,333.56680440800847,333.56680440800847,333.56680440800847,333.56680440800847,333.56680440800847,333.56680440800847,333.56680440800847,333.56680440800847,333.56680440800847,333.56680440800847,l,2.3923218060081126,10,381,1,335.9864403870015,337.4878585090046,,,,,,,,,,,,,,,,,,,,,,,,,,,,,,,,,,,,,,,,,,,,,,,,,,,,,,,,,,,,,,,,,17433,2022-10-31_13h58.59.421,vts_reward_expectancy_bt_OFFLINE,2022.2.4,59.935576927775955,
0,0,1,0,1,0,0,0,hexagon,triangle,1,0,1,0,0,9,9,6,,,,,,,,,,,,,,,,,,,,,,,,,,,,,,,,,,,,,,,,337.98834921499656,337.98834921499656,337.98834921499656,337.98834921499656,337.98834921499656,337.98834921499656,337.98834921499656,337.98834921499656,337.98834921499656,337.98834921499656,l,3.8663842090027174,1,382,1,341.8760531519947,343.37773589399876,,,,,,,,,,,,,,,,,,,,,,,,,,,,,,,,,,,,,,,,,,,,,,,,,,,,,,,,,,,,,,,,,17433,2022-10-31_13h58.59.421,vts_reward_expectancy_bt_OFFLINE,2022.2.4,59.935576927775955,
0,1,0,0,0,0,1,0,circle,hexagon,1,0,1,0,0,10,10,4,,,,,,,,,,,,,,,,,,,,,,,,,,,,,,,,,,,,,,,,343.87742812599754,343.87742812599754,343.87742812599754,343.87742812599754,343.87742812599754,343.87742812599754,343.87742812599754,343.87742812599754,343.87742812599754,343.87742812599754,a,1.1857933590072207,10,392,1,345.0795480710076,346.58118853000633,,,,,,,,,,,,,,,,,,,,,,,,,,,,,,,,,,,,,,,,,,,,,,,,,,,,,,,,,,,,,,,,,17433,2022-10-31_13h58.59.421,vts_reward_expectancy_bt_OFFLINE,2022.2.4,59.935576927775955,
0,1,0,0,0,0,0,1,circle,star,1,0,1,0,0,11,11,5,,,,,,,,,,,,,,,,,,,,,,,,,,,,,,,,,,,,,,,,347.0817532159999,347.0817532159999,347.0817532159999,347.0817532159999,347.0817532159999,347.0817532159999,347.0817532159999,347.0817532159999,347.0817532159999,347.0817532159999,l,1.6855449489958119,10,402,1,348.7836797720083,350.28526890500507,,,,,,,,,,,,,,,,,,,,,,,,,,,,,,,,,,,,,,,,,,,,,,,,,,,,,,,,,,,,,,,,,17433,2022-10-31_13h58.59.421,vts_reward_expectancy_bt_OFFLINE,2022.2.4,59.935576927775955,
1,0,0,0,0,0,0,1,triangle,star,1,0,1,0,1,0,12,2,,,,,,,,,,,,,,,,,,,,,,,,,,,,,,,,,,,,,,,,350.78587914499803,350.78587914499803,350.78587914499803,350.78587914499803,350.78587914499803,350.78587914499803,350.78587914499803,350.78587914499803,350.78587914499803,350.78587914499803,l,1.1805183270043926,10,412,1,351.987055976002,353.48881085199537,,,,,,,,,,,,,,,,,,,,,,,,,,,,,,,,,,,,,,,,,,,,,,,,,,,,,,,,,,,,,,,,,17433,2022-10-31_13h58.59.421,vts_reward_expectancy_bt_OFFLINE,2022.2.4,59.935576927775955,
0,0,0,1,0,0,1,0,star,hexagon,1,0,1,0,1,1,13,11,,,,,,,,,,,,,,,,,,,,,,,,,,,,,,,,,,,,,,,,353.9894366100052,353.9894366100052,353.9894366100052,353.9894366100052,353.9894366100052,353.9894366100052,353.9894366100052,353.9894366100052,353.9894366100052,353.9894366100052,a,0.9058657029963797,1,413,1,354.92391186200257,356.42539566500636,,,,,,,,,,,,,,,,,,,,,,,,,,,,,,,,,,,,,,,,,,,,,,,,,,,,,,,,,,,,,,,,,17433,2022-10-31_13h58.59.421,vts_reward_expectancy_bt_OFFLINE,2022.2.4,59.935576927775955,
0,0,1,0,0,0,0,1,hexagon,star,1,0,1,0,1,2,14,8,,,,,,,,,,,,,,,,,,,,,,,,,,,,,,,,,,,,,,,,356.9260511589964,356.9260511589964,356.9260511589964,356.9260511589964,356.9260511589964,356.9260511589964,356.9260511589964,356.9260511589964,356.9260511589964,356.9260511589964,a,1.7042071880132426,10,423,1,358.66131467900414,360.16299715000787,,,,,,,,,,,,,,,,,,,,,,,,,,,,,,,,,,,,,,,,,,,,,,,,,,,,,,,,,,,,,,,,,17433,2022-10-31_13h58.59.421,vts_reward_expectancy_bt_OFFLINE,2022.2.4,59.935576927775955,
0,0,0,1,1,0,0,0,star,triangle,1,0,1,0,1,3,15,9,,,,,,,,,,,,,,,,,,,,,,,,,,,,,,,,,,,,,,,,360.6636126090016,360.6636126090016,360.6636126090016,360.6636126090016,360.6636126090016,360.6636126090016,360.6636126090016,360.6636126090016,360.6636126090016,360.6636126090016,a,1.9595516770059476,1,424,1,362.6489982310013,364.1505143719987,,,,,,,,,,,,,,,,,,,,,,,,,,,,,,,,,,,,,,,,,,,,,,,,,,,,,,,,,,,,,,,,,17433,2022-10-31_13h58.59.421,vts_reward_expectancy_bt_OFFLINE,2022.2.4,59.935576927775955,
1,0,0,0,0,0,1,0,triangle,hexagon,1,0,1,0,1,4,16,1,,,,,,,,,,,,,,,,,,,,,,,,,,,,,,,,,,,,,,,,364.65103203599574,364.65103203599574,364.65103203599574,364.65103203599574,364.65103203599574,364.65103203599574,364.65103203599574,364.65103203599574,364.65103203599574,364.65103203599574,l,3.7471380030037835,10,434,1,368.42193532400415,369.92364082700806,,,,,,,,,,,,,,,,,,,,,,,,,,,,,,,,,,,,,,,,,,,,,,,,,,,,,,,,,,,,,,,,,17433,2022-10-31_13h58.59.421,vts_reward_expectancy_bt_OFFLINE,2022.2.4,59.935576927775955,
0,0,1,0,0,1,0,0,hexagon,circle,1,0,1,0,1,5,17,7,,,,,,,,,,,,,,,,,,,,,,,,,,,,,,,,,,,,,,,,370.4241487530089,370.4241487530089,370.4241487530089,370.4241487530089,370.4241487530089,370.4241487530089,370.4241487530089,370.4241487530089,370.4241487530089,370.4241487530089,a,0.7024202780012274,1,435,1,371.1585677950061,372.6601104410074,,,,,,,,,,,,,,,,,,,,,,,,,,,,,,,,,,,,,,,,,,,,,,,,,,,,,,,,,,,,,,,,,17433,2022-10-31_13h58.59.421,vts_reward_expectancy_bt_OFFLINE,2022.2.4,59.935576927775955,
0,1,0,0,1,0,0,0,circle,triangle,1,0,1,0,1,6,18,3,,,,,,,,,,,,,,,,,,,,,,,,,,,,,,,,,,,,,,,,373.1605525500054,373.1605525500054,373.1605525500054,373.1605525500054,373.1605525500054,373.1605525500054,373.1605525500054,373.1605525500054,373.1605525500054,373.1605525500054,l,1.7025762840057723,1,436,1,374.8957295250002,376.3976696460013,,,,,,,,,,,,,,,,,,,,,,,,,,,,,,,,,,,,,,,,,,,,,,,,,,,,,,,,,,,,,,,,,17433,2022-10-31_13h58.59.421,vts_reward_expectancy_bt_OFFLINE,2022.2.4,59.935576927775955,
0,0,1,0,1,0,0,0,hexagon,triangle,1,0,1,0,1,7,19,6,,,,,,,,,,,,,,,,,,,,,,,,,,,,,,,,,,,,,,,,376.8980246430001,376.8980246430001,376.8980246430001,376.8980246430001,376.8980246430001,376.8980246430001,376.8980246430001,376.8980246430001,376.8980246430001,376.8980246430001,a,0.9331618490105029,1,437,1,377.84910607899656,379.3506331079989,,,,,,,,,,,,,,,,,,,,,,,,,,,,,,,,,,,,,,,,,,,,,,,,,,,,,,,,,,,,,,,,,17433,2022-10-31_13h58.59.421,vts_reward_expectancy_bt_OFFLINE,2022.2.4,59.935576927775955,
0,1,0,0,0,0,0,1,circle,star,1,0,1,0,1,8,20,5,,,,,,,,,,,,,,,,,,,,,,,,,,,,,,,,,,,,,,,,379.8511973690038,379.8511973690038,379.8511973690038,379.8511973690038,379.8511973690038,379.8511973690038,379.8511973690038,379.8511973690038,379.8511973690038,379.8511973690038,l,0.9953385820117546,10,447,1,380.86892553600774,382.3706648009975,,,,,,,,,,,,,,,,,,,,,,,,,,,,,,,,,,,,,,,,,,,,,,,,,,,,,,,,,,,,,,,,,17433,2022-10-31_13h58.59.421,vts_reward_expectancy_bt_OFFLINE,2022.2.4,59.935576927775955,
0,1,0,0,0,0,1,0,circle,hexagon,1,0,1,0,1,9,21,4,,,,,,,,,,,,,,,,,,,,,,,,,,,,,,,,,,,,,,,,382.87131293700077,382.87131293700077,382.87131293700077,382.87131293700077,382.87131293700077,382.87131293700077,382.87131293700077,382.87131293700077,382.87131293700077,382.87131293700077,l,1.1754624390014214,1,448,1,384.07239959199796,385.5742576360062,,,,,,,,,,,,,,,,,,,,,,,,,,,,,,,,,,,,,,,,,,,,,,,,,,,,,,,,,,,,,,,,,17433,2022-10-31_13h58.59.421,vts_reward_expectancy_bt_OFFLINE,2022.2.4,59.935576927775955,
1,0,0,0,0,1,0,0,triangle,circle,1,0,1,0,1,10,22,0,,,,,,,,,,,,,,,,,,,,,,,,,,,,,,,,,,,,,,,,386.0750535670086,386.0750535670086,386.0750535670086,386.0750535670086,386.0750535670086,386.0750535670086,386.0750535670086,386.0750535670086,386.0750535670086,386.0750535670086,a,0.9077203680062667,1,449,1,387.0090822040074,388.5109092280036,,,,,,,,,,,,,,,,,,,,,,,,,,,,,,,,,,,,,,,,,,,,,,,,,,,,,,,,,,,,,,,,,17433,2022-10-31_13h58.59.421,vts_reward_expectancy_bt_OFFLINE,2022.2.4,59.935576927775955,
0,0,0,1,0,1,0,0,star ,circle,1,0,1,0,1,11,23,10,,,,,,,,,,,,,,,,,,,,,,,,,,,,,,,,,,,,,,,,389.01134541899955,389.01134541899955,389.01134541899955,389.01134541899955,389.01134541899955,389.01134541899955,389.01134541899955,389.01134541899955,389.01134541899955,389.01134541899955,a,0.7795499930070946,1,450,1,389.8124818799988,391.31395982799586,,,,,,,,,,,,,,,,,,,,,,,,,,,,,,,,,,,,,,,,,,,,,,,,,,,,,,,,,,,,,,,,,17433,2022-10-31_13h58.59.421,vts_reward_expectancy_bt_OFFLINE,2022.2.4,59.935576927775955,
0,1,0,0,1,0,0,0,circle,triangle,1,0,1,0,2,0,24,3,,,,,,,,,,,,,,,,,,,,,,,,,,,,,,,,,,,,,,,,391.8144037190068,391.8144037190068,391.8144037190068,391.8144037190068,391.8144037190068,391.8144037190068,391.8144037190068,391.8144037190068,391.8144037190068,391.8144037190068,a,0.48059813800500706,10,460,1,392.31511225200666,393.8167680589977,,,,,,,,,,,,,,,,,,,,,,,,,,,,,,,,,,,,,,,,,,,,,,,,,,,,,,,,,,,,,,,,,17433,2022-10-31_13h58.59.421,vts_reward_expectancy_bt_OFFLINE,2022.2.4,59.935576927775955,
0,0,1,0,0,0,0,1,hexagon,star,1,0,1,0,2,1,25,8,,,,,,,,,,,,,,,,,,,,,,,,,,,,,,,,,,,,,,,,394.31715402999544,394.31715402999544,394.31715402999544,394.31715402999544,394.31715402999544,394.31715402999544,394.31715402999544,394.31715402999544,394.31715402999544,394.31715402999544,l,1.1534610829985468,10,470,1,395.501878769006,397.00367203500355,,,,,,,,,,,,,,,,,,,,,,,,,,,,,,,,,,,,,,,,,,,,,,,,,,,,,,,,,,,,,,,,,17433,2022-10-31_13h58.59.421,vts_reward_expectancy_bt_OFFLINE,2022.2.4,59.935576927775955,
0,0,1,0,1,0,0,0,hexagon,triangle,1,0,1,0,2,2,26,6,,,,,,,,,,,,,,,,,,,,,,,,,,,,,,,,,,,,,,,,397.5040972040006,397.5040972040006,397.5040972040006,397.5040972040006,397.5040972040006,397.5040972040006,397.5040972040006,397.5040972040006,397.5040972040006,397.5040972040006,a,2.566278874001,1,471,1,400.09034502800205,401.5920276550023,,,,,,,,,,,,,,,,,,,,,,,,,,,,,,,,,,,,,,,,,,,,,,,,,,,,,,,,,,,,,,,,,17433,2022-10-31_13h58.59.421,vts_reward_expectancy_bt_OFFLINE,2022.2.4,59.935576927775955,
0,1,0,0,0,0,1,0,circle,hexagon,1,0,1,0,2,3,27,4,,,,,,,,,,,,,,,,,,,,,,,,,,,,,,,,,,,,,,,,402.09254875000624,402.09254875000624,402.09254875000624,402.09254875000624,402.09254875000624,402.09254875000624,402.09254875000624,402.09254875000624,402.09254875000624,402.09254875000624,a,2.1863105759985046,1,472,1,404.29493029600417,405.7966180039948,405.7966180039948,,,,,,,,,,,,,,,,,,,,,,,,,,,,,,,,,,,,,,,,,,,,,,,,,,,,,,,,,,,,,,,,17433,2022-10-31_13h58.59.421,vts_reward_expectancy_bt_OFFLINE,2022.2.4,59.935576927775955,
1,0,0,0,0,0,0,1,triangle,star,1,0,1,0,2,4,28,2,,,,,,,,,,,,,,,,,,,,,,,,,,,,,,,,,,,,,,,,406.29723957499664,406.29723957499664,406.29723957499664,406.29723957499664,406.29723957499664,406.29723957499664,406.29723957499664,406.29723957499664,406.29723957499664,406.29723957499664,l,1.620515251008328,10,482,1,407.94909608599846,409.45064617399476,,,,,,,,,,,,,,,,,,,,,,,,,,,,,,,,,,,,,,,,,,,,,,,,,,,,,,,,,,,,,,,,,17433,2022-10-31_13h58.59.421,vts_reward_expectancy_bt_OFFLINE,2022.2.4,59.935576927775955,
0,1,0,0,0,0,0,1,circle,star,1,0,1,0,2,5,29,5,,,,,,,,,,,,,,,,,,,,,,,,,,,,,,,,,,,,,,,,409.9513027130015,409.9513027130015,409.9513027130015,409.9513027130015,409.9513027130015,409.9513027130015,409.9513027130015,409.9513027130015,409.9513027130015,409.9513027130015,l,1.3355931190017145,10,492,1,411.3194217870041,412.8211240660021,,,,,,,,,,,,,,,,,,,,,,,,,,,,,,,,,,,,,,,,,,,,,,,,,,,,,,,,,,,,,,,,,17433,2022-10-31_13h58.59.421,vts_reward_expectancy_bt_OFFLINE,2022.2.4,59.935576927775955,
0,0,0,1,1,0,0,0,star,triangle,1,0,1,0,2,6,30,9,,,,,,,,,,,,,,,,,,,,,,,,,,,,,,,,,,,,,,,,413.321605131001,413.321605131001,413.321605131001,413.321605131001,413.321605131001,413.321605131001,413.321605131001,413.321605131001,413.321605131001,413.321605131001,a,0.9969805069995346,10,502,1,414.33932753800764,415.84088612900814,,,,,,,,,,,,,,,,,,,,,,,,,,,,,,,,,,,,,,,,,,,,,,,,,,,,,,,,,,,,,,,,,17433,2022-10-31_13h58.59.421,vts_reward_expectancy_bt_OFFLINE,2022.2.4,59.935576927775955,
0,0,1,0,0,1,0,0,hexagon,circle,1,0,1,0,2,7,31,7,,,,,,,,,,,,,,,,,,,,,,,,,,,,,,,,,,,,,,,,416.34167441200407,416.34167441200407,416.34167441200407,416.34167441200407,416.34167441200407,416.34167441200407,416.34167441200407,416.34167441200407,416.34167441200407,416.34167441200407,a,1.728569332000916,10,512,1,418.09328547700716,419.5950758240069,,,,,,,,,,,,,,,,,,,,,,,,,,,,,,,,,,,,,,,,,,,,,,,,,,,,,,,,,,,,,,,,,17433,2022-10-31_13h58.59.421,vts_reward_expectancy_bt_OFFLINE,2022.2.4,59.935576927775955,
0,0,0,1,0,1,0,0,star ,circle,1,0,1,0,2,8,32,10,,,,,,,,,,,,,,,,,,,,,,,,,,,,,,,,,,,,,,,,420.0956230640004,420.0956230640004,420.0956230640004,420.0956230640004,420.0956230640004,420.0956230640004,420.0956230640004,420.0956230640004,420.0956230640004,420.0956230640004,a,0.831649625004502,10,522,1,420.94646150499466,422.44816540699685,,,,,,,,,,,,,,,,,,,,,,,,,,,,,,,,,,,,,,,,,,,,,,,,,,,,,,,,,,,,,,,,,17433,2022-10-31_13h58.59.421,vts_reward_expectancy_bt_OFFLINE,2022.2.4,59.935576927775955,
1,0,0,0,0,0,1,0,triangle,hexagon,1,0,1,0,2,9,33,1,,,,,,,,,,,,,,,,,,,,,,,,,,,,,,,,,,,,,,,,422.948712686004,422.948712686004,422.948712686004,422.948712686004,422.948712686004,422.948712686004,422.948712686004,422.948712686004,422.948712686004,422.948712686004,a,2.1294042069930583,1,523,1,425.10099587999866,426.60288025799673,,,,,,,,,,,,,,,,,,,,,,,,,,,,,,,,,,,,,,,,,,,,,,,,,,,,,,,,,,,,,,,,,17433,2022-10-31_13h58.59.421,vts_reward_expectancy_bt_OFFLINE,2022.2.4,59.935576927775955,
1,0,0,0,0,1,0,0,triangle,circle,1,0,1,0,2,10,34,0,,,,,,,,,,,,,,,,,,,,,,,,,,,,,,,,,,,,,,,,427.1032297990023,427.1032297990023,427.1032297990023,427.1032297990023,427.1032297990023,427.1032297990023,427.1032297990023,427.1032297990023,427.1032297990023,427.1032297990023,a,2.5756542580056703,1,524,1,429.70641585100384,431.20804140700784,,,,,,,,,,,,,,,,,,,,,,,,,,,,,,,,,,,,,,,,,,,,,,,,,,,,,,,,,,,,,,,,,17433,2022-10-31_13h58.59.421,vts_reward_expectancy_bt_OFFLINE,2022.2.4,59.935576927775955,
0,0,0,1,0,0,1,0,star,hexagon,1,0,1,0,2,11,35,11,,,,,,,,,,,,,,,,,,,,,,,,,,,,,,,,,,,,,,,,431.70845647099486,431.70845647099486,431.70845647099486,431.70845647099486,431.70845647099486,431.70845647099486,431.70845647099486,431.70845647099486,431.70845647099486,431.70845647099486,a,0.9855144049943192,10,534,1,432.7264061140013,434.22806894899986,,,,,,,,,,,,,,,,,,,,,,,,,,,,,,,,,,,,,,,,,,,,,,,,,,,,,,,,,,,,,,,,,17433,2022-10-31_13h58.59.421,vts_reward_expectancy_bt_OFFLINE,2022.2.4,59.935576927775955,
1,0,0,0,0,1,0,0,triangle,circle,1,0,1,0,3,0,36,0,,,,,,,,,,,,,,,,,,,,,,,,,,,,,,,,,,,,,,,,434.7284947379958,434.7284947379958,434.7284947379958,434.7284947379958,434.7284947379958,434.7284947379958,434.7284947379958,434.7284947379958,434.7284947379958,434.7284947379958,l,2.0379026720038382,10,544,1,436.79758378899714,438.29907343699597,,,,,,,,,,,,,,,,,,,,,,,,,,,,,,,,,,,,,,,,,,,,,,,,,,,,,,,,,,,,,,,,,17433,2022-10-31_13h58.59.421,vts_reward_expectancy_bt_OFFLINE,2022.2.4,59.935576927775955,
0,0,1,0,0,0,0,1,hexagon,star,1,0,1,0,3,1,37,8,,,,,,,,,,,,,,,,,,,,,,,,,,,,,,,,,,,,,,,,438.79955360799795,438.79955360799795,438.79955360799795,438.79955360799795,438.79955360799795,438.79955360799795,438.79955360799795,438.79955360799795,438.79955360799795,438.79955360799795,l,1.4384310860041296,10,554,1,440.26789719100634,441.7697477890033,,,,,,,,,,,,,,,,,,,,,,,,,,,,,,,,,,,,,,,,,,,,,,,,,,,,,,,,,,,,,,,,,17433,2022-10-31_13h58.59.421,vts_reward_expectancy_bt_OFFLINE,2022.2.4,59.935576927775955,
0,1,0,0,0,0,0,1,circle,star,1,0,1,0,3,2,38,5,,,,,,,,,,,,,,,,,,,,,,,,,,,,,,,,,,,,,,,,442.2701074409997,442.2701074409997,442.2701074409997,442.2701074409997,442.2701074409997,442.2701074409997,442.2701074409997,442.2701074409997,442.2701074409997,442.2701074409997,l,0.7357841939956415,1,555,1,443.03767725599755,444.53945917899546,,,,,,,,,,,,,,,,,,,,,,,,,,,,,,,,,,,,,,,,,,,,,,,,,,,,,,,,,,,,,,,,,17433,2022-10-31_13h58.59.421,vts_reward_expectancy_bt_OFFLINE,2022.2.4,59.935576927775955,
0,0,0,1,1,0,0,0,star,triangle,1,0,1,0,3,3,39,9,,,,,,,,,,,,,,,,,,,,,,,,,,,,,,,,,,,,,,,,445.03972358000465,445.03972358000465,445.03972358000465,445.03972358000465,445.03972358000465,445.03972358000465,445.03972358000465,445.03972358000465,445.03972358000465,445.03972358000465,a,1.2784696680027992,10,565,1,446.34151201300847,447.8429265970044,,,,,,,,,,,,,,,,,,,,,,,,,,,,,,,,,,,,,,,,,,,,,,,,,,,,,,,,,,,,,,,,,17433,2022-10-31_13h58.59.421,vts_reward_expectancy_bt_OFFLINE,2022.2.4,59.935576927775955,
0,0,1,0,1,0,0,0,hexagon,triangle,1,0,1,0,3,4,40,6,,,,,,,,,,,,,,,,,,,,,,,,,,,,,,,,,,,,,,,,448.3436079660023,448.3436079660023,448.3436079660023,448.3436079660023,448.3436079660023,448.3436079660023,448.3436079660023,448.3436079660023,448.3436079660023,448.3436079660023,a,2.3589416350005195,1,566,1,450.72945795199485,452.2311648650066,,,,,,,,,,,,,,,,,,,,,,,,,,,,,,,,,,,,,,,,,,,,,,,,,,,,,,,,,,,,,,,,,17433,2022-10-31_13h58.59.421,vts_reward_expectancy_bt_OFFLINE,2022.2.4,59.935576927775955,
0,0,0,1,0,0,1,0,star,hexagon,1,0,1,0,3,5,41,11,,,,,,,,,,,,,,,,,,,,,,,,,,,,,,,,,,,,,,,,452.7316274640034,452.7316274640034,452.7316274640034,452.7316274640034,452.7316274640034,452.7316274640034,452.7316274640034,452.7316274640034,452.7316274640034,452.7316274640034,a,1.89135199500015,10,576,1,454.6504464580066,456.1520674350031,,,,,,,,,,,,,,,,,,,,,,,,,,,,,,,,,,,,,,,,,,,,,,,,,,,,,,,,,,,,,,,,,17433,2022-10-31_13h58.59.421,vts_reward_expectancy_bt_OFFLINE,2022.2.4,59.935576927775955,
1,0,0,0,0,0,0,1,triangle,star,1,0,1,0,3,6,42,2,,,,,,,,,,,,,,,,,,,,,,,,,,,,,,,,,,,,,,,,456.6525783100078,456.6525783100078,456.6525783100078,456.6525783100078,456.6525783100078,456.6525783100078,456.6525783100078,456.6525783100078,456.6525783100078,456.6525783100078,l,1.690605782016064,10,586,1,458.3711621440016,459.8729723419965,,,,,,,,,,,,,,,,,,,,,,,,,,,,,,,,,,,,,,,,,,,,,,,,,,,,,,,,,,,,,,,,,17433,2022-10-31_13h58.59.421,vts_reward_expectancy_bt_OFFLINE,2022.2.4,59.935576927775955,
0,1,0,0,0,0,1,0,circle,hexagon,1,0,1,0,3,7,43,4,,,,,,,,,,,,,,,,,,,,,,,,,,,,,,,,,,,,,,,,460.37357826500374,460.37357826500374,460.37357826500374,460.37357826500374,460.37357826500374,460.37357826500374,460.37357826500374,460.37357826500374,460.37357826500374,460.37357826500374,l,2.737262620998081,1,587,1,463.14330570900347,464.6447268549964,,,,,,,,,,,,,,,,,,,,,,,,,,,,,,,,,,,,,,,,,,,,,,,,,,,,,,,,,,,,,,,,,17433,2022-10-31_13h58.59.421,vts_reward_expectancy_bt_OFFLINE,2022.2.4,59.935576927775955,
1,0,0,0,0,0,1,0,triangle,hexagon,1,0,1,0,3,8,44,1,,,,,,,,,,,,,,,,,,,,,,,,,,,,,,,,,,,,,,,,465.1454911269975,465.1454911269975,465.1454911269975,465.1454911269975,465.1454911269975,465.1454911269975,465.1454911269975,465.1454911269975,465.1454911269975,465.1454911269975,a,2.6857145730027696,1,588,1,467.8483053880045,469.3500100020028,,,,,,,,,,,,,,,,,,,,,,,,,,,,,,,,,,,,,,,,,,,,,,,,,,,,,,,,,,,,,,,,,17433,2022-10-31_13h58.59.421,vts_reward_expectancy_bt_OFFLINE,2022.2.4,59.935576927775955,
0,1,0,0,1,0,0,0,circle,triangle,1,0,1,0,3,9,45,3,,,,,,,,,,,,,,,,,,,,,,,,,,,,,,,,,,,,,,,,469.85051227700023,469.85051227700023,469.85051227700023,469.85051227700023,469.85051227700023,469.85051227700023,469.85051227700023,469.85051227700023,469.85051227700023,469.85051227700023,a,1.2033135679957923,1,589,1,471.08515098800126,472.5868051379948,,,,,,,,,,,,,,,,,,,,,,,,,,,,,,,,,,,,,,,,,,,,,,,,,,,,,,,,,,,,,,,,,17433,2022-10-31_13h58.59.421,vts_reward_expectancy_bt_OFFLINE,2022.2.4,59.935576927775955,
0,0,0,1,0,1,0,0,star ,circle,1,0,1,0,3,10,46,10,,,,,,,,,,,,,,,,,,,,,,,,,,,,,,,,,,,,,,,,473.0873847150069,473.0873847150069,473.0873847150069,473.0873847150069,473.0873847150069,473.0873847150069,473.0873847150069,473.0873847150069,473.0873847150069,473.0873847150069,a,0.7913804239942692,1,590,1,473.9049765189993,475.4067033839965,,,,,,,,,,,,,,,,,,,,,,,,,,,,,,,,,,,,,,,,,,,,,,,,,,,,,,,,,,,,,,,,,17433,2022-10-31_13h58.59.421,vts_reward_expectancy_bt_OFFLINE,2022.2.4,59.935576927775955,
0,0,1,0,0,1,0,0,hexagon,circle,1,0,1,0,3,11,47,7,,,,,,,,,,,,,,,,,,,,,,,,,,,,,,,,,,,,,,,,475.9072325370071,475.9072325370071,475.9072325370071,475.9072325370071,475.9072325370071,475.9072325370071,475.9072325370071,475.9072325370071,475.9072325370071,475.9072325370071,l,1.075809255009517,10,600,1,477.00836090800294,478.5099944780086,,,,,,,,,,,,,,,,,,,,,,,,,,,,,,,,,,,,,,,,,,,,,,,,,,,,,,,,,,,,,,,,,17433,2022-10-31_13h58.59.421,vts_reward_expectancy_bt_OFFLINE,2022.2.4,59.935576927775955,
1,0,0,0,0,0,1,0,triangle,hexagon,2,0,2,0,0,0,0,1,,,,,,,,,,,,,,,,,,,,,,,,,,,,,,,,,,,,,,,,580.0271682540042,580.0271682540042,580.0271682540042,580.0271682540042,580.0271682540042,580.0271682540042,580.0271682540042,580.0271682540042,580.0271682540042,580.0271682540042,l,3.075240438003675,1,601,2,583.1254281459987,584.6271956340061,,,,,,,,,,,,,,,,,,,,,,,,,,,,,,,,,,,,,,,,,,,,,,,,,,,,,,,,,,,,,,,,,17433,2022-10-31_13h58.59.421,vts_reward_expectancy_bt_OFFLINE,2022.2.4,59.935576927775955,
1,0,0,0,0,0,0,1,triangle,star,2,0,2,0,0,1,1,2,,,,,,,,,,,,,,,,,,,,,,,,,,,,,,,,,,,,,,,,585.1276696529967,585.1276696529967,585.1276696529967,585.1276696529967,585.1276696529967,585.1276696529967,585.1276696529967,585.1276696529967,585.1276696529967,585.1276696529967,l,0.8239144460094394,1,602,2,585.9788259299967,587.4803400439996,,,,,,,,,,,,,,,,,,,,,,,,,,,,,,,,,,,,,,,,,,,,,,,,,,,,,,,,,,,,,,,,,17433,2022-10-31_13h58.59.421,vts_reward_expectancy_bt_OFFLINE,2022.2.4,59.935576927775955,
0,0,1,0,1,0,0,0,hexagon,triangle,2,0,2,0,0,2,2,6,,,,,,,,,,,,,,,,,,,,,,,,,,,,,,,,,,,,,,,,587.9808976799977,587.9808976799977,587.9808976799977,587.9808976799977,587.9808976799977,587.9808976799977,587.9808976799977,587.9808976799977,587.9808976799977,587.9808976799977,l,0.8900951469986467,1,603,2,588.8986555790034,590.4002905420057,,,,,,,,,,,,,,,,,,,,,,,,,,,,,,,,,,,,,,,,,,,,,,,,,,,,,,,,,,,,,,,,,17433,2022-10-31_13h58.59.421,vts_reward_expectancy_bt_OFFLINE,2022.2.4,59.935576927775955,
0,1,0,0,0,0,0,1,circle,star,2,0,2,0,0,3,3,5,,,,,,,,,,,,,,,,,,,,,,,,,,,,,,,,,,,,,,,,590.9009178870037,590.9009178870037,590.9009178870037,590.9009178870037,590.9009178870037,590.9009178870037,590.9009178870037,590.9009178870037,590.9009178870037,590.9009178870037,l,1.0501914210035466,10,613,2,591.9686672730022,593.4702497160033,,,,,,,,,,,,,,,,,,,,,,,,,,,,,,,,,,,,,,,,,,,,,,,,,,,,,,,,,,,,,,,,,17433,2022-10-31_13h58.59.421,vts_reward_expectancy_bt_OFFLINE,2022.2.4,59.935576927775955,
1,0,0,0,0,1,0,0,triangle,circle,2,0,2,0,0,4,4,0,,,,,,,,,,,,,,,,,,,,,,,,,,,,,,,,,,,,,,,,593.9708955149981,593.9708955149981,593.9708955149981,593.9708955149981,593.9708955149981,593.9708955149981,593.9708955149981,593.9708955149981,593.9708955149981,593.9708955149981,a,1.8751395709987264,10,623,2,595.8728046600008,597.374498204008,,,,,,,,,,,,,,,,,,,,,,,,,,,,,,,,,,,,,,,,,,,,,,,,,,,,,,,,,,,,,,,,,17433,2022-10-31_13h58.59.421,vts_reward_expectancy_bt_OFFLINE,2022.2.4,59.935576927775955,
0,1,0,0,1,0,0,0,circle,triangle,2,0,2,0,0,5,5,3,,,,,,,,,,,,,,,,,,,,,,,,,,,,,,,,,,,,,,,,597.8752917380043,597.8752917380043,597.8752917380043,597.8752917380043,597.8752917380043,597.8752917380043,597.8752917380043,597.8752917380043,597.8752917380043,597.8752917380043,a,2.3794990030000918,10,633,2,600.2776248690061,601.779494397997,,,,,,,,,,,,,,,,,,,,,,,,,,,,,,,,,,,,,,,,,,,,,,,,,,,,,,,,,,,,,,,,,17433,2022-10-31_13h58.59.421,vts_reward_expectancy_bt_OFFLINE,2022.2.4,59.935576927775955,
0,0,0,1,1,0,0,0,star,triangle,2,0,2,0,0,6,6,9,,,,,,,,,,,,,,,,,,,,,,,,,,,,,,,,,,,,,,,,602.2799975429953,602.2799975429953,602.2799975429953,602.2799975429953,602.2799975429953,602.2799975429953,602.2799975429953,602.2799975429953,602.2799975429953,602.2799975429953,a,0.6313585299940314,1,634,2,602.9307947140042,604.432506541998,,,,,,,,,,,,,,,,,,,,,,,,,,,,,,,,,,,,,,,,,,,,,,,,,,,,,,,,,,,,,,,,,17433,2022-10-31_13h58.59.421,vts_reward_expectancy_bt_OFFLINE,2022.2.4,59.935576927775955,
0,1,0,0,0,0,1,0,circle,hexagon,2,0,2,0,0,7,7,4,,,,,,,,,,,,,,,,,,,,,,,,,,,,,,,,,,,,,,,,604.9330012849969,604.9330012849969,604.9330012849969,604.9330012849969,604.9330012849969,604.9330012849969,604.9330012849969,604.9330012849969,604.9330012849969,604.9330012849969,l,1.0899299989978317,10,644,2,606.050961646004,607.552386891999,,,,,,,,,,,,,,,,,,,,,,,,,,,,,,,,,,,,,,,,,,,,,,,,,,,,,,,,,,,,,,,,,17433,2022-10-31_13h58.59.421,vts_reward_expectancy_bt_OFFLINE,2022.2.4,59.935576927775955,
0,0,1,0,0,1,0,0,hexagon,circle,2,0,2,0,0,8,8,7,,,,,,,,,,,,,,,,,,,,,,,,,,,,,,,,,,,,,,,,608.0529059819964,608.0529059819964,608.0529059819964,608.0529059819964,608.0529059819964,608.0529059819964,608.0529059819964,608.0529059819964,608.0529059819964,608.0529059819964,a,0.9131606800074223,1,645,2,608.9873937119992,610.4890329049958,,,,,,,,,,,,,,,,,,,,,,,,,,,,,,,,,,,,,,,,,,,,,,,,,,,,,,,,,,,,,,,,,17433,2022-10-31_13h58.59.421,vts_reward_expectancy_bt_OFFLINE,2022.2.4,59.935576927775955,
0,0,0,1,0,1,0,0,star ,circle,2,0,2,0,0,9,9,10,,,,,,,,,,,,,,,,,,,,,,,,,,,,,,,,,,,,,,,,610.9895966490003,610.9895966490003,610.9895966490003,610.9895966490003,610.9895966490003,610.9895966490003,610.9895966490003,610.9895966490003,610.9895966490003,610.9895966490003,a,0.7046407989982981,1,646,2,611.7236289110006,613.2254032250057,,,,,,,,,,,,,,,,,,,,,,,,,,,,,,,,,,,,,,,,,,,,,,,,,,,,,,,,,,,,,,,,,17433,2022-10-31_13h58.59.421,vts_reward_expectancy_bt_OFFLINE,2022.2.4,59.935576927775955,
0,0,1,0,0,0,0,1,hexagon,star,2,0,2,0,0,10,10,8,,,,,,,,,,,,,,,,,,,,,,,,,,,,,,,,,,,,,,,,613.7259622139973,613.7259622139973,613.7259622139973,613.7259622139973,613.7259622139973,613.7259622139973,613.7259622139973,613.7259622139973,613.7259622139973,613.7259622139973,l,0.5685411309968913,10,656,2,614.3266969630058,615.8282477110042,,,,,,,,,,,,,,,,,,,,,,,,,,,,,,,,,,,,,,,,,,,,,,,,,,,,,,,,,,,,,,,,,17433,2022-10-31_13h58.59.421,vts_reward_expectancy_bt_OFFLINE,2022.2.4,59.935576927775955,
0,0,0,1,0,0,1,0,star,hexagon,2,0,2,0,0,11,11,11,,,,,,,,,,,,,,,,,,,,,,,,,,,,,,,,,,,,,,,,616.3287699890061,616.3287699890061,616.3287699890061,616.3287699890061,616.3287699890061,616.3287699890061,616.3287699890061,616.3287699890061,616.3287699890061,616.3287699890061,a,0.5740549510082928,10,666,2,616.9295987119986,618.4310830470058,,,,,,,,,,,,,,,,,,,,,,,,,,,,,,,,,,,,,,,,,,,,,,,,,,,,,,,,,,,,,,,,,17433,2022-10-31_13h58.59.421,vts_reward_expectancy_bt_OFFLINE,2022.2.4,59.935576927775955,
0,1,0,0,1,0,0,0,circle,triangle,2,0,2,0,1,0,12,3,,,,,,,,,,,,,,,,,,,,,,,,,,,,,,,,,,,,,,,,618.9317189910071,618.9317189910071,618.9317189910071,618.9317189910071,618.9317189910071,618.9317189910071,618.9317189910071,618.9317189910071,618.9317189910071,618.9317189910071,a,1.522562090001884,10,676,2,620.4834666550014,621.9851295520057,,,,,,,,,,,,,,,,,,,,,,,,,,,,,,,,,,,,,,,,,,,,,,,,,,,,,,,,,,,,,,,,,17433,2022-10-31_13h58.59.421,vts_reward_expectancy_bt_OFFLINE,2022.2.4,59.935576927775955,
0,0,0,1,0,1,0,0,star ,circle,2,0,2,0,1,1,13,10,,,,,,,,,,,,,,,,,,,,,,,,,,,,,,,,,,,,,,,,622.485474097004,622.485474097004,622.485474097004,622.485474097004,622.485474097004,622.485474097004,622.485474097004,622.485474097004,622.485474097004,622.485474097004,a,1.097046422000858,10,686,2,623.6034963540005,625.1050220370089,,,,,,,,,,,,,,,,,,,,,,,,,,,,,,,,,,,,,,,,,,,,,,,,,,,,,,,,,,,,,,,,,17433,2022-10-31_13h58.59.421,vts_reward_expectancy_bt_OFFLINE,2022.2.4,59.935576927775955,
0,0,1,0,1,0,0,0,hexagon,triangle,2,0,2,0,1,2,14,6,,,,,,,,,,,,,,,,,,,,,,,,,,,,,,,,,,,,,,,,625.6055646250024,625.6055646250024,625.6055646250024,625.6055646250024,625.6055646250024,625.6055646250024,625.6055646250024,625.6055646250024,625.6055646250024,625.6055646250024,l,1.0972598109947285,1,687,2,626.723511876,628.2252143399965,,,,,,,,,,,,,,,,,,,,,,,,,,,,,,,,,,,,,,,,,,,,,,,,,,,,,,,,,,,,,,,,,17433,2022-10-31_13h58.59.421,vts_reward_expectancy_bt_OFFLINE,2022.2.4,59.935576927775955,
0,0,1,0,0,1,0,0,hexagon,circle,2,0,2,0,1,3,15,7,,,,,,,,,,,,,,,,,,,,,,,,,,,,,,,,,,,,,,,,628.7260200760065,628.7260200760065,628.7260200760065,628.7260200760065,628.7260200760065,628.7260200760065,628.7260200760065,628.7260200760065,628.7260200760065,628.7260200760065,l,0.8966662580060074,10,697,2,629.6434972040006,631.145179004001,,,,,,,,,,,,,,,,,,,,,,,,,,,,,,,,,,,,,,,,,,,,,,,,,,,,,,,,,,,,,,,,,17433,2022-10-31_13h58.59.421,vts_reward_expectancy_bt_OFFLINE,2022.2.4,59.935576927775955,
1,0,0,0,0,1,0,0,triangle,circle,2,0,2,0,1,4,16,0,,,,,,,,,,,,,,,,,,,,,,,,,,,,,,,,,,,,,,,,631.6459334090032,631.6459334090032,631.6459334090032,631.6459334090032,631.6459334090032,631.6459334090032,631.6459334090032,631.6459334090032,631.6459334090032,631.6459334090032,l,1.1281039510067785,10,707,2,632.797061973004,634.2985584209964,,,,,,,,,,,,,,,,,,,,,,,,,,,,,,,,,,,,,,,,,,,,,,,,,,,,,,,,,,,,,,,,,17433,2022-10-31_13h58.59.421,vts_reward_expectancy_bt_OFFLINE,2022.2.4,59.935576927775955,
1,0,0,0,0,0,0,1,triangle,star,2,0,2,0,1,5,17,2,,,,,,,,,,,,,,,,,,,,,,,,,,,,,,,,,,,,,,,,634.7991115729965,634.7991115729965,634.7991115729965,634.7991115729965,634.7991115729965,634.7991115729965,634.7991115729965,634.7991115729965,634.7991115729965,634.7991115729965,l,0.7999077599961311,10,717,2,635.6167736479983,637.1184451890003,,,,,,,,,,,,,,,,,,,,,,,,,,,,,,,,,,,,,,,,,,,,,,,,,,,,,,,,,,,,,,,,,17433,2022-10-31_13h58.59.421,vts_reward_expectancy_bt_OFFLINE,2022.2.4,59.935576927775955,
0,1,0,0,0,0,0,1,circle,star,2,0,2,0,1,6,18,5,,,,,,,,,,,,,,,,,,,,,,,,,,,,,,,,,,,,,,,,637.6188414689968,637.6188414689968,637.6188414689968,637.6188414689968,637.6188414689968,637.6188414689968,637.6188414689968,637.6188414689968,637.6188414689968,637.6188414689968,l,0.5243280879949452,10,727,2,638.1695968830027,639.6711267170031,,,,,,,,,,,,,,,,,,,,,,,,,,,,,,,,,,,,,,,,,,,,,,,,,,,,,,,,,,,,,,,,,17433,2022-10-31_13h58.59.421,vts_reward_expectancy_bt_OFFLINE,2022.2.4,59.935576927775955,
0,1,0,0,0,0,1,0,circle,hexagon,2,0,2,0,1,7,19,4,,,,,,,,,,,,,,,,,,,,,,,,,,,,,,,,,,,,,,,,640.1716822540038,640.1716822540038,640.1716822540038,640.1716822540038,640.1716822540038,640.1716822540038,640.1716822540038,640.1716822540038,640.1716822540038,640.1716822540038,l,1.0590798089979216,10,737,2,641.2562442619965,642.7580128620029,,,,,,,,,,,,,,,,,,,,,,,,,,,,,,,,,,,,,,,,,,,,,,,,,,,,,,,,,,,,,,,,,17433,2022-10-31_13h58.59.421,vts_reward_expectancy_bt_OFFLINE,2022.2.4,59.935576927775955,
0,0,0,1,1,0,0,0,star,triangle,2,0,2,0,1,8,20,9,,,,,,,,,,,,,,,,,,,,,,,,,,,,,,,,,,,,,,,,643.258653056997,643.258653056997,643.258653056997,643.258653056997,643.258653056997,643.258653056997,643.258653056997,643.258653056997,643.258653056997,643.258653056997,a,0.6434468049992574,10,747,2,643.9258593800041,645.4275888819975,,,,,,,,,,,,,,,,,,,,,,,,,,,,,,,,,,,,,,,,,,,,,,,,,,,,,,,,,,,,,,,,,17433,2022-10-31_13h58.59.421,vts_reward_expectancy_bt_OFFLINE,2022.2.4,59.935576927775955,
1,0,0,0,0,0,1,0,triangle,hexagon,2,0,2,0,1,9,21,1,,,,,,,,,,,,,,,,,,,,,,,,,,,,,,,,,,,,,,,,645.9281790100067,645.9281790100067,645.9281790100067,645.9281790100067,645.9281790100067,645.9281790100067,645.9281790100067,645.9281790100067,645.9281790100067,645.9281790100067,l,1.070553582001594,1,748,2,647.0294718229998,648.5309011140052,,,,,,,,,,,,,,,,,,,,,,,,,,,,,,,,,,,,,,,,,,,,,,,,,,,,,,,,,,,,,,,,,17433,2022-10-31_13h58.59.421,vts_reward_expectancy_bt_OFFLINE,2022.2.4,59.935576927775955,
0,0,0,1,0,0,1,0,star,hexagon,2,0,2,0,1,10,22,11,,,,,,,,,,,,,,,,,,,,,,,,,,,,,,,,,,,,,,,,649.0314348490065,649.0314348490065,649.0314348490065,649.0314348490065,649.0314348490065,649.0314348490065,649.0314348490065,649.0314348490065,649.0314348490065,649.0314348490065,a,0.4795242120017065,10,758,2,649.5319971930003,651.0336814530019,,,,,,,,,,,,,,,,,,,,,,,,,,,,,,,,,,,,,,,,,,,,,,,,,,,,,,,,,,,,,,,,,17433,2022-10-31_13h58.59.421,vts_reward_expectancy_bt_OFFLINE,2022.2.4,59.935576927775955,
0,0,1,0,0,0,0,1,hexagon,star,2,0,2,0,1,11,23,8,,,,,,,,,,,,,,,,,,,,,,,,,,,,,,,,,,,,,,,,651.5341930849972,651.5341930849972,651.5341930849972,651.5341930849972,651.5341930849972,651.5341930849972,651.5341930849972,651.5341930849972,651.5341930849972,651.5341930849972,l,0.5449669150111731,10,768,2,652.1014799620025,653.6030598789948,,,,,,,,,,,,,,,,,,,,,,,,,,,,,,,,,,,,,,,,,,,,,,,,,,,,,,,,,,,,,,,,,17433,2022-10-31_13h58.59.421,vts_reward_expectancy_bt_OFFLINE,2022.2.4,59.935576927775955,
0,0,1,0,0,0,0,1,hexagon,star,2,0,2,0,2,0,24,8,,,,,,,,,,,,,,,,,,,,,,,,,,,,,,,,,,,,,,,,654.1036899180035,654.1036899180035,654.1036899180035,654.1036899180035,654.1036899180035,654.1036899180035,654.1036899180035,654.1036899180035,654.1036899180035,654.1036899180035,l,0.39947366500564385,10,778,2,654.5208116790018,656.0225227269984,,,,,,,,,,,,,,,,,,,,,,,,,,,,,,,,,,,,,,,,,,,,,,,,,,,,,,,,,,,,,,,,,17433,2022-10-31_13h58.59.421,vts_reward_expectancy_bt_OFFLINE,2022.2.4,59.935576927775955,
0,0,1,0,0,1,0,0,hexagon,circle,2,0,2,0,2,1,25,7,,,,,,,,,,,,,,,,,,,,,,,,,,,,,,,,,,,,,,,,656.5230694509955,656.5230694509955,656.5230694509955,656.5230694509955,656.5230694509955,656.5230694509955,656.5230694509955,656.5230694509955,656.5230694509955,656.5230694509955,a,0.9328070539922919,10,788,2,657.4741740239988,658.975921899997,,,,,,,,,,,,,,,,,,,,,,,,,,,,,,,,,,,,,,,,,,,,,,,,,,,,,,,,,,,,,,,,,17433,2022-10-31_13h58.59.421,vts_reward_expectancy_bt_OFFLINE,2022.2.4,59.935576927775955,
1,0,0,0,0,0,0,1,triangle,star,2,0,2,0,2,2,26,2,,,,,,,,,,,,,,,,,,,,,,,,,,,,,,,,,,,,,,,,659.4763780990033,659.4763780990033,659.4763780990033,659.4763780990033,659.4763780990033,659.4763780990033,659.4763780990033,659.4763780990033,659.4763780990033,659.4763780990033,l,0.49912261200370267,1,789,2,659.993606486998,661.4953939609986,,,,,,,,,,,,,,,,,,,,,,,,,,,,,,,,,,,,,,,,,,,,,,,,,,,,,,,,,,,,,,,,,17433,2022-10-31_13h58.59.421,vts_reward_expectancy_bt_OFFLINE,2022.2.4,59.935576927775955,
1,0,0,0,0,1,0,0,triangle,circle,2,0,2,0,2,3,27,0,,,,,,,,,,,,,,,,,,,,,,,,,,,,,,,,,,,,,,,,661.9959237110015,661.9959237110015,661.9959237110015,661.9959237110015,661.9959237110015,661.9959237110015,661.9959237110015,661.9959237110015,661.9959237110015,661.9959237110015,l,1.034863975000917,10,799,2,663.0636890309979,664.5652368410083,,,,,,,,,,,,,,,,,,,,,,,,,,,,,,,,,,,,,,,,,,,,,,,,,,,,,,,,,,,,,,,,,17433,2022-10-31_13h58.59.421,vts_reward_expectancy_bt_OFFLINE,2022.2.4,59.935576927775955,
0,0,0,1,0,1,0,0,star ,circle,2,0,2,0,2,4,28,10,,,,,,,,,,,,,,,,,,,,,,,,,,,,,,,,,,,,,,,,665.0657490779995,665.0657490779995,665.0657490779995,665.0657490779995,665.0657490779995,665.0657490779995,665.0657490779995,665.0657490779995,665.0657490779995,665.0657490779995,a,0.5169234280037927,10,809,2,665.5997507970023,667.1013642489997,667.1013642489997,,,,,,,,,,,,,,,,,,,,,,,,,,,,,,,,,,,,,,,,,,,,,,,,,,,,,,,,,,,,,,,,17433,2022-10-31_13h58.59.421,vts_reward_expectancy_bt_OFFLINE,2022.2.4,59.935576927775955,
0,1,0,0,0,0,0,1,circle,star,2,0,2,0,2,5,29,5,,,,,,,,,,,,,,,,,,,,,,,,,,,,,,,,,,,,,,,,667.602005120003,667.602005120003,667.602005120003,667.602005120003,667.602005120003,667.602005120003,667.602005120003,667.602005120003,667.602005120003,667.602005120003,l,0.5883206100115785,10,819,2,668.2194538140029,669.7211022289994,,,,,,,,,,,,,,,,,,,,,,,,,,,,,,,,,,,,,,,,,,,,,,,,,,,,,,,,,,,,,,,,,17433,2022-10-31_13h58.59.421,vts_reward_expectancy_bt_OFFLINE,2022.2.4,59.935576927775955,
0,0,1,0,1,0,0,0,hexagon,triangle,2,0,2,0,2,6,30,6,,,,,,,,,,,,,,,,,,,,,,,,,,,,,,,,,,,,,,,,670.221508912,670.221508912,670.221508912,670.221508912,670.221508912,670.221508912,670.221508912,670.221508912,670.221508912,670.221508912,a,0.6891539420030313,1,820,2,670.9391123620007,672.4407154100045,,,,,,,,,,,,,,,,,,,,,,,,,,,,,,,,,,,,,,,,,,,,,,,,,,,,,,,,,,,,,,,,,17433,2022-10-31_13h58.59.421,vts_reward_expectancy_bt_OFFLINE,2022.2.4,59.935576927775955,
1,0,0,0,0,0,1,0,triangle,hexagon,2,0,2,0,2,7,31,1,,,,,,,,,,,,,,,,,,,,,,,,,,,,,,,,,,,,,,,,672.9411995980045,672.9411995980045,672.9411995980045,672.9411995980045,672.9411995980045,672.9411995980045,672.9411995980045,672.9411995980045,672.9411995980045,672.9411995980045,l,0.5940127190115163,1,821,2,673.558699205998,675.0602695830021,,,,,,,,,,,,,,,,,,,,,,,,,,,,,,,,,,,,,,,,,,,,,,,,,,,,,,,,,,,,,,,,,17433,2022-10-31_13h58.59.421,vts_reward_expectancy_bt_OFFLINE,2022.2.4,59.935576927775955,
0,1,0,0,1,0,0,0,circle,triangle,2,0,2,0,2,8,32,3,,,,,,,,,,,,,,,,,,,,,,,,,,,,,,,,,,,,,,,,675.560025712999,675.560025712999,675.560025712999,675.560025712999,675.560025712999,675.560025712999,675.560025712999,675.560025712999,675.560025712999,675.560025712999,a,0.9993196750001516,10,831,2,676.5787701320078,678.0802022590069,,,,,,,,,,,,,,,,,,,,,,,,,,,,,,,,,,,,,,,,,,,,,,,,,,,,,,,,,,,,,,,,,17433,2022-10-31_13h58.59.421,vts_reward_expectancy_bt_OFFLINE,2022.2.4,59.935576927775955,
0,0,0,1,1,0,0,0,star,triangle,2,0,2,0,2,9,33,9,,,,,,,,,,,,,,,,,,,,,,,,,,,,,,,,,,,,,,,,678.5809333799989,678.5809333799989,678.5809333799989,678.5809333799989,678.5809333799989,678.5809333799989,678.5809333799989,678.5809333799989,678.5809333799989,678.5809333799989,a,0.4827952970081242,10,841,2,679.0814055299998,680.5831082880031,,,,,,,,,,,,,,,,,,,,,,,,,,,,,,,,,,,,,,,,,,,,,,,,,,,,,,,,,,,,,,,,,17433,2022-10-31_13h58.59.421,vts_reward_expectancy_bt_OFFLINE,2022.2.4,59.935576927775955,
0,1,0,0,0,0,1,0,circle,hexagon,2,0,2,0,2,10,34,4,,,,,,,,,,,,,,,,,,,,,,,,,,,,,,,,,,,,,,,,681.0835287890077,681.0835287890077,681.0835287890077,681.0835287890077,681.0835287890077,681.0835287890077,681.0835287890077,681.0835287890077,681.0835287890077,681.0835287890077,l,0.47489811599371023,10,851,2,681.5842077200068,683.0856679980061,,,,,,,,,,,,,,,,,,,,,,,,,,,,,,,,,,,,,,,,,,,,,,,,,,,,,,,,,,,,,,,,,17433,2022-10-31_13h58.59.421,vts_reward_expectancy_bt_OFFLINE,2022.2.4,59.935576927775955,
0,0,0,1,0,0,1,0,star,hexagon,2,0,2,0,2,11,35,11,,,,,,,,,,,,,,,,,,,,,,,,,,,,,,,,,,,,,,,,683.5863013759954,683.5863013759954,683.5863013759954,683.5863013759954,683.5863013759954,683.5863013759954,683.5863013759954,683.5863013759954,683.5863013759954,683.5863013759954,a,0.5083948259998579,10,861,2,684.1201343730063,685.621831284996,,,,,,,,,,,,,,,,,,,,,,,,,,,,,,,,,,,,,,,,,,,,,,,,,,,,,,,,,,,,,,,,,17433,2022-10-31_13h58.59.421,vts_reward_expectancy_bt_OFFLINE,2022.2.4,59.935576927775955,
0,1,0,0,0,0,1,0,circle,hexagon,2,0,2,0,3,0,36,4,,,,,,,,,,,,,,,,,,,,,,,,,,,,,,,,,,,,,,,,686.1223372960085,686.1223372960085,686.1223372960085,686.1223372960085,686.1223372960085,686.1223372960085,686.1223372960085,686.1223372960085,686.1223372960085,686.1223372960085,l,0.8844501130079152,1,862,2,687.0234818659956,688.5250143000012,,,,,,,,,,,,,,,,,,,,,,,,,,,,,,,,,,,,,,,,,,,,,,,,,,,,,,,,,,,,,,,,,17433,2022-10-31_13h58.59.421,vts_reward_expectancy_bt_OFFLINE,2022.2.4,59.935576927775955,
1,0,0,0,0,0,0,1,triangle,star,2,0,2,0,3,1,37,2,,,,,,,,,,,,,,,,,,,,,,,,,,,,,,,,,,,,,,,,689.0256068580056,689.0256068580056,689.0256068580056,689.0256068580056,689.0256068580056,689.0256068580056,689.0256068580056,689.0256068580056,689.0256068580056,689.0256068580056,l,0.476757690004888,10,872,2,689.5261789320066,691.027991570998,,,,,,,,,,,,,,,,,,,,,,,,,,,,,,,,,,,,,,,,,,,,,,,,,,,,,,,,,,,,,,,,,17433,2022-10-31_13h58.59.421,vts_reward_expectancy_bt_OFFLINE,2022.2.4,59.935576927775955,
0,0,1,0,0,0,0,1,hexagon,star,2,0,2,0,3,2,38,8,,,,,,,,,,,,,,,,,,,,,,,,,,,,,,,,,,,,,,,,691.5283934769977,691.5283934769977,691.5283934769977,691.5283934769977,691.5283934769977,691.5283934769977,691.5283934769977,691.5283934769977,691.5283934769977,691.5283934769977,l,0.5582120260078227,1,873,2,692.1123439799994,693.6139454920049,,,,,,,,,,,,,,,,,,,,,,,,,,,,,,,,,,,,,,,,,,,,,,,,,,,,,,,,,,,,,,,,,17433,2022-10-31_13h58.59.421,vts_reward_expectancy_bt_OFFLINE,2022.2.4,59.935576927775955,
0,1,0,0,1,0,0,0,circle,triangle,2,0,2,0,3,3,39,3,,,,,,,,,,,,,,,,,,,,,,,,,,,,,,,,,,,,,,,,694.114461463003,694.114461463003,694.114461463003,694.114461463003,694.114461463003,694.114461463003,694.114461463003,694.114461463003,694.114461463003,694.114461463003,a,1.347898185995291,10,883,2,695.4826275070081,696.9842845800013,,,,,,,,,,,,,,,,,,,,,,,,,,,,,,,,,,,,,,,,,,,,,,,,,,,,,,,,,,,,,,,,,17433,2022-10-31_13h58.59.421,vts_reward_expectancy_bt_OFFLINE,2022.2.4,59.935576927775955,
0,0,1,0,1,0,0,0,hexagon,triangle,2,0,2,0,3,4,40,6,,,,,,,,,,,,,,,,,,,,,,,,,,,,,,,,,,,,,,,,697.4848245820031,697.4848245820031,697.4848245820031,697.4848245820031,697.4848245820031,697.4848245820031,697.4848245820031,697.4848245820031,697.4848245820031,697.4848245820031,a,1.2093470429972513,1,884,2,698.7196303999954,700.2213951279991,,,,,,,,,,,,,,,,,,,,,,,,,,,,,,,,,,,,,,,,,,,,,,,,,,,,,,,,,,,,,,,,,17433,2022-10-31_13h58.59.421,vts_reward_expectancy_bt_OFFLINE,2022.2.4,59.935576927775955,
0,1,0,0,0,0,0,1,circle,star,2,0,2,0,3,5,41,5,,,,,,,,,,,,,,,,,,,,,,,,,,,,,,,,,,,,,,,,700.7219053129957,700.7219053129957,700.7219053129957,700.7219053129957,700.7219053129957,700.7219053129957,700.7219053129957,700.7219053129957,700.7219053129957,700.7219053129957,l,0.5963546959974337,10,894,2,701.339326966001,702.8410382820002,,,,,,,,,,,,,,,,,,,,,,,,,,,,,,,,,,,,,,,,,,,,,,,,,,,,,,,,,,,,,,,,,17433,2022-10-31_13h58.59.421,vts_reward_expectancy_bt_OFFLINE,2022.2.4,59.935576927775955,
0,0,0,1,0,1,0,0,star ,circle,2,0,2,0,3,6,42,10,,,,,,,,,,,,,,,,,,,,,,,,,,,,,,,,,,,,,,,,703.3413318899984,703.3413318899984,703.3413318899984,703.3413318899984,703.3413318899984,703.3413318899984,703.3413318899984,703.3413318899984,703.3413318899984,703.3413318899984,a,0.6018690170021728,10,904,2,703.975441417002,705.4770650400023,,,,,,,,,,,,,,,,,,,,,,,,,,,,,,,,,,,,,,,,,,,,,,,,,,,,,,,,,,,,,,,,,17433,2022-10-31_13h58.59.421,vts_reward_expectancy_bt_OFFLINE,2022.2.4,59.935576927775955,
0,0,0,1,0,0,1,0,star,hexagon,2,0,2,0,3,7,43,11,,,,,,,,,,,,,,,,,,,,,,,,,,,,,,,,,,,,,,,,705.9775670039962,705.9775670039962,705.9775670039962,705.9775670039962,705.9775670039962,705.9775670039962,705.9775670039962,705.9775670039962,705.9775670039962,705.9775670039962,a,0.5091018300008727,10,914,2,706.5115061380056,708.013251669996,,,,,,,,,,,,,,,,,,,,,,,,,,,,,,,,,,,,,,,,,,,,,,,,,,,,,,,,,,,,,,,,,17433,2022-10-31_13h58.59.421,vts_reward_expectancy_bt_OFFLINE,2022.2.4,59.935576927775955,
1,0,0,0,0,1,0,0,triangle,circle,2,0,2,0,3,8,44,0,,,,,,,,,,,,,,,,,,,,,,,,,,,,,,,,,,,,,,,,708.5137148649956,708.5137148649956,708.5137148649956,708.5137148649956,708.5137148649956,708.5137148649956,708.5137148649956,708.5137148649956,708.5137148649956,708.5137148649956,l,0.4291309140098747,10,924,2,708.9642457349983,710.465983276008,,,,,,,,,,,,,,,,,,,,,,,,,,,,,,,,,,,,,,,,,,,,,,,,,,,,,,,,,,,,,,,,,17433,2022-10-31_13h58.59.421,vts_reward_expectancy_bt_OFFLINE,2022.2.4,59.935576927775955,
0,0,1,0,0,1,0,0,hexagon,circle,2,0,2,0,3,9,45,7,,,,,,,,,,,,,,,,,,,,,,,,,,,,,,,,,,,,,,,,710.966469402003,710.966469402003,710.966469402003,710.966469402003,710.966469402003,710.966469402003,710.966469402003,710.966469402003,710.966469402003,710.966469402003,l,0.4648908770031994,10,934,2,711.4503720399953,712.9519928539958,,,,,,,,,,,,,,,,,,,,,,,,,,,,,,,,,,,,,,,,,,,,,,,,,,,,,,,,,,,,,,,,,17433,2022-10-31_13h58.59.421,vts_reward_expectancy_bt_OFFLINE,2022.2.4,59.935576927775955,
1,0,0,0,0,0,1,0,triangle,hexagon,2,0,2,0,3,10,46,1,,,,,,,,,,,,,,,,,,,,,,,,,,,,,,,,,,,,,,,,713.4526131669991,713.4526131669991,713.4526131669991,713.4526131669991,713.4526131669991,713.4526131669991,713.4526131669991,713.4526131669991,713.4526131669991,713.4526131669991,l,1.2179310930077918,1,935,2,714.6872561589989,716.1889766649983,,,,,,,,,,,,,,,,,,,,,,,,,,,,,,,,,,,,,,,,,,,,,,,,,,,,,,,,,,,,,,,,,17433,2022-10-31_13h58.59.421,vts_reward_expectancy_bt_OFFLINE,2022.2.4,59.935576927775955,
0,0,0,1,1,0,0,0,star,triangle,2,0,2,0,3,11,47,9,,,,,,,,,,,,,,,,,,,,,,,,,,,,,,,,,,,,,,,,716.689530675998,716.689530675998,716.689530675998,716.689530675998,716.689530675998,716.689530675998,716.689530675998,716.689530675998,716.689530675998,716.689530675998,a,0.46888221900735516,1,936,2,717.1900210210006,718.6917835790082,,,,,,,,,,,,,,,,,,,,,,,,,,,,,,,,,,,,,,,,,,,,,,,,,,,,,,,,,,,,,,,,,17433,2022-10-31_13h58.59.421,vts_reward_expectancy_bt_OFFLINE,2022.2.4,59.935576927775955,
,,,,,,,,,,,,,,,,,,0,0,0,0,0,0,0,0,,,,,,,,,,,,,,,,,,,,,,,,,,,,,,,,,,,,,,,,,,,,,,,,753.3633005890006,,W,181,triangle,0.0023625910107512027,749.2401417649962,750.7437020759971,750.7437020759971,750.7437020759971,1,0,f,1.0870377520041075,0,751.8621228490083,,,,,,,,,,,,,,,,,,,,,,,,,,,,,,,,,,,,,,,,,,,,,,,,,,17433,2022-10-31_13h58.59.421,vts_reward_expectancy_bt_OFFLINE,2022.2.4,59.935576927775955,
,,,,,,,,,,,,,,,,,,0,0,0,0,1,0,1,0,,,,,,,,,,,,,,,,,,,,,,,,,,,,,,,,,,,,,,,,,,,,,,,,758.201986857006,,U,167,circle,0.0013736489927396178,754.3453870390076,755.8495453219948,755.8495453219948,755.8495453219948,1,0,f,0.8288012080010958,0,756.7002909510047,,,,,,,,,,,,,,,,,,,,,,,,,,,,,,,,,,,,,,,,,,,,,,,,,,17433,2022-10-31_13h58.59.421,vts_reward_expectancy_bt_OFFLINE,2022.2.4,59.935576927775955,
,,,,,,,,,,,,,,,,,,0,0,0,0,2,0,2,0,,,,,,,,,,,,,,,,,,,,,,,,,,,,,,,,,,,,,,,,,,,,,,,,762.8729456779984,,F,160,star,0.0016444079956272617,759.1804809510068,760.6880020259996,760.6880020259996,760.6880020259996,1,0,d,0.6545656929956749,0,761.3721796000027,,,,,,,,,,,,,,,,,,,,,,,,,,,,,,,,,,,,,,,,,,,,,,,,,,17433,2022-10-31_13h58.59.421,vts_reward_expectancy_bt_OFFLINE,2022.2.4,59.935576927775955,
,,,,,,,,,,,,,,,,,,0,0,0,0,3,0,3,0,,,,,,,,,,,,,,,,,,,,,,,,,,,,,,,,,,,,,,,,,,,,,,,,767.4790262570023,,B,174,hexagon,0.0016615330096101388,763.856977065996,765.3599489129992,765.3599489129992,765.3599489129992,1,0,d,0.5995576620043721,0,765.9771544920077,,,,,,,,,,,,,,,,,,,,,,,,,,,,,,,,,,,,,,,,,,,,,,,,,,17433,2022-10-31_13h58.59.421,vts_reward_expectancy_bt_OFFLINE,2022.2.4,59.935576927775955,
,,,,,,,,,,,,,,,,,,0,0,0,0,4,0,4,0,,,,,,,,,,,,,,,,,,,,,,,,,,,,,,,,,,,,,,,,,,,,,,,,772.300767748995,,H,125,star,0.00126424701011274,768.4610443929996,769.9648823629977,769.9648823629977,769.9648823629977,1,0,d,0.817758078002953,0,770.7992297110031,,,,,,,,,,,,,,,,,,,,,,,,,,,,,,,,,,,,,,,,,,,,,,,,,,17433,2022-10-31_13h58.59.421,vts_reward_expectancy_bt_OFFLINE,2022.2.4,59.935576927775955,
,,,,,,,,,,,,,,,,,,0,0,0,0,5,0,5,0,,,,,,,,,,,,,,,,,,,,,,,,,,,,,,,,,,,,,,,,,,,,,,,,776.8724180340068,,D,132,triangle,0.0012113349948776886,773.2830022749986,774.786759982002,774.786759982002,774.786759982002,1,0,d,0.5567079540051054,0,775.3707481430029,,,,,,,,,,,,,,,,,,,,,,,,,,,,,,,,,,,,,,,,,,,,,,,,,,17433,2022-10-31_13h58.59.421,vts_reward_expectancy_bt_OFFLINE,2022.2.4,59.935576927775955,
,,,,,,,,,,,,,,,,,,0,0,0,0,6,0,6,0,,,,,,,,,,,,,,,,,,,,,,,,,,,,,,,,,,,,,,,,,,,,,,,,781.8613609159947,,S,139,hexagon,0.0016241150005953386,777.8536000909953,779.3587921930011,779.3587921930011,779.3587921930011,1,0,f,0.9683887390128803,0,780.3599258500035,,,,,,,,,,,,,,,,,,,,,,,,,,,,,,,,,,,,,,,,,,,,,,,,,,17433,2022-10-31_13h58.59.421,vts_reward_expectancy_bt_OFFLINE,2022.2.4,59.935576927775955,
,,,,,,,,,,,,,,,,,,0,0,0,0,7,0,7,0,,,,,,,,,,,,,,,,,,,,,,,,,,,,,,,,,,,,,,,,,,,,,,,,786.5665336719976,,Y,146,circle,0.0016658630047459155,782.8413254290062,784.3475212570047,784.3475212570047,784.3475212570047,1,0,f,0.691133087995695,0,785.0649145490024,,,,,,,,,,,,,,,,,,,,,,,,,,,,,,,,,,,,,,,,,,,,,,,,,,17433,2022-10-31_13h58.59.421,vts_reward_expectancy_bt_OFFLINE,2022.2.4,59.935576927775955,
,,,,,,,,,,,,,,,,,,0,0,0,0,8,0,8,0,,,,,,,,,,,,,,,,,,,,,,,,,,,,,,,,,,,,,,,,,,,,,,,,791.1883220080053,,W,181,hexagon,0.001695469007245265,787.5447669150017,789.052703895999,789.052703895999,789.052703895999,1,0,f,0.6012119130027713,0,789.686396820005,,,,,,,,,,,,,,,,,,,,,,,,,,,,,,,,,,,,,,,,,,,,,,,,,,17433,2022-10-31_13h58.59.421,vts_reward_expectancy_bt_OFFLINE,2022.2.4,59.935576927775955,
,,,,,,,,,,,,,,,,,,0,0,0,0,9,0,9,0,,,,,,,,,,,,,,,,,,,,,,,,,,,,,,,,,,,,,,,,,,,,,,,,795.8101241639961,,U,167,circle,0.0019056519959121943,792.1678605339985,793.6743921339948,793.6743921339948,793.6743921339948,1,0,f,0.6045963409997057,0,794.3083776139974,,,,,,,,,,,,,,,,,,,,,,,,,,,,,,,,,,,,,,,,,,,,,,,,,,17433,2022-10-31_13h58.59.421,vts_reward_expectancy_bt_OFFLINE,2022.2.4,59.935576927775955,
,,,,,,,,,,,,,,,,,,,,,,,,,,0,0,0,0,0,0,0,0,,,,,,,,,,,,,,,,,,,,,,,,,,,,,,,,,,,,,,,,814.3139867099962,,B,139,star,0.0017779049958335236,,,,,1,0,,,1,812.8121929189947,809.5563241049967,811.0603558550065,811.0603558550065,811.0603558550065,j,1.7310052090033423,,,,,,,,,,,,,,,,,,,,,,,,,,,,,,,,,,,,,,,,,,,,17433,2022-10-31_13h58.59.421,vts_reward_expectancy_bt_OFFLINE,2022.2.4,59.935576927775955,
,,,,,,,,,,,,,,,,,,,,,,,,,,0,0,0,0,1,0,1,0,,,,,,,,,,,,,,,,,,,,,,,,,,,,,,,,,,,,,,,,818.8521834099956,,S,174,triangle,0.001505476000602357,,,,,1,0,,,1,817.3505073929991,815.2949740420008,816.7999351760081,816.7999351760081,816.7999351760081,k,0.518471896997653,,,,,,,,,,,,,,,,,,,,,,,,,,,,,,,,,,,,,,,,,,,,17433,2022-10-31_13h58.59.421,vts_reward_expectancy_bt_OFFLINE,2022.2.4,59.935576927775955,
,,,,,,,,,,,,,,,,,,,,,,,,,,0,0,0,0,2,0,2,0,,,,,,,,,,,,,,,,,,,,,,,,,,,,,,,,,,,,,,,,823.6574075079989,,U,167,circle,0.0016176439967239276,,,,,1,0,,,1,822.1560076720052,819.8303167709964,821.3384490140015,821.3384490140015,821.3384490140015,k,0.7882986240147147,,,,,,,,,,,,,,,,,,,,,,,,,,,,,,,,,,,,,,,,,,,,17433,2022-10-31_13h58.59.421,vts_reward_expectancy_bt_OFFLINE,2022.2.4,59.935576927775955,
,,,,,,,,,,,,,,,,,,,,,,,,,,0,0,0,0,3,0,3,0,,,,,,,,,,,,,,,,,,,,,,,,,,,,,,,,,,,,,,,,828.3959904479998,,W,146,hexagon,0.0016111949953483418,,,,,1,0,,,1,826.8942539470008,824.6366164759966,826.1434281080001,826.1434281080001,826.1434281080001,j,0.7269122590078041,,,,,,,,,,,,,,,,,,,,,,,,,,,,,,,,,,,,,,,,,,,,17433,2022-10-31_13h58.59.421,vts_reward_expectancy_bt_OFFLINE,2022.2.4,59.935576927775955,
,,,,,,,,,,,,,,,,,,,,,,,,,,0,0,0,0,4,0,4,0,,,,,,,,,,,,,,,,,,,,,,,,,,,,,,,,,,,,,,,,833.0009394170047,,D,160,star,0.0015413520013680682,,,,,1,0,,,1,831.4993760719954,829.375281405999,830.8819746740046,830.8819746740046,830.8819746740046,k,0.596127939003054,833.0009394170047,,,,,,,,,,,,,,,,,,,,,,,,,,,,,,,,,,,,,,,,,,,17433,2022-10-31_13h58.59.421,vts_reward_expectancy_bt_OFFLINE,2022.2.4,59.935576927775955,
,,,,,,,,,,,,,,,,,,,,,,,,,,0,0,0,0,5,0,5,0,,,,,,,,,,,,,,,,,,,,,,,,,,,,,,,,,,,,,,,,837.6061582459952,,H,181,circle,0.001691058001597412,,,,,1,0,,,1,836.1043481990055,833.9802179399994,835.487224587996,835.487224587996,835.487224587996,k,0.5919628240080783,,,,,,,,,,,,,,,,,,,,,,,,,,,,,,,,,,,,,,,,,,,,17433,2022-10-31_13h58.59.421,vts_reward_expectancy_bt_OFFLINE,2022.2.4,59.935576927775955,
,,,,,,,,,,,,,,,,,,,,,,,,,,0,0,0,0,6,0,6,0,,,,,,,,,,,,,,,,,,,,,,,,,,,,,,,,,,,,,,,,842.228039870999,,Y,125,triangle,0.0015908239874988794,,,,,1,0,,,1,840.7263560809952,838.5858708570013,840.0922700200026,840.0922700200026,840.0922700200026,j,0.601755954005057,,,,,,,,,,,,,,,,,,,,,,,,,,,,,,,,,,,,,,,,,,,,17433,2022-10-31_13h58.59.421,vts_reward_expectancy_bt_OFFLINE,2022.2.4,59.935576927775955,
,,,,,,,,,,,,,,,,,,,,,,,,,,0,0,0,0,7,0,7,0,,,,,,,,,,,,,,,,,,,,,,,,,,,,,,,,,,,,,,,,846.9999500990089,,F,132,hexagon,0.0015594249998684973,,,,,1,0,,,1,845.4981480480055,843.2064800750086,844.7140692719986,844.7140692719986,844.7140692719986,j,0.7560883069963893,,,,,,,,,,,,,,,,,,,,,,,,,,,,,,,,,,,,,,,,,,,,17433,2022-10-31_13h58.59.421,vts_reward_expectancy_bt_OFFLINE,2022.2.4,59.935576927775955,
,,,,,,,,,,,,,,,,,,,,,,,,,,0,0,0,0,8,0,8,0,,,,,,,,,,,,,,,,,,,,,,,,,,,,,,,,,,,,,,,,851.5381648369948,,B,139,hexagon,0.0016256880044238642,,,,,1,0,,,1,850.0364666259993,847.9784452360036,849.4859790010087,849.4859790010087,849.4859790010087,j,0.5211575989960693,,,,,,,,,,,,,,,,,,,,,,,,,,,,,,,,,,,,,,,,,,,,17433,2022-10-31_13h58.59.421,vts_reward_expectancy_bt_OFFLINE,2022.2.4,59.935576927775955,
,,,,,,,,,,,,,,,,,,,,,,,,,,0,0,0,0,9,0,9,0,,,,,,,,,,,,,,,,,,,,,,,,,,,,,,,,,,,,,,,,856.3268773089949,,S,174,triangle,0.0016641980037093163,,,,,1,0,,,1,854.8252952689945,852.5166364159959,854.0242790839984,854.0242790839984,854.0242790839984,k,0.7829328920051921,,,,,,,,,,,,,,,,,,,,,,,,,,,,,,,,,,,,,,,,,,,,17433,2022-10-31_13h58.59.421,vts_reward_expectancy_bt_OFFLINE,2022.2.4,59.935576927775955,
,,,,,,,,,,,,,,,,,,,,,,,,,,,,,,,,,,0,0,0,0,0,0,0,0,,,,,,,,,,,,,,,,,,,,,,,,,,,,0,936,,,900.3087758990005,,Y,167,star,0.0022372079984052107,,,,,1,0,,,2,,,,,,,,,895.2862337630067,895.2862337630067,895.2862337630067,895.2862337630067,896.7883166469983,896.7883166469983,896.7883166469983,896.7883166469983,896.7883166469983,896.7883166469983,896.7883166469983,896.7883166469983,-1,number,NA,k,1.9937489570002072,vtsPrac,898.8082836240064,,,,,,,,,,,,,,,,,,,,,,,,17433,2022-10-31_13h58.59.421,vts_reward_expectancy_bt_OFFLINE,2022.2.4,59.935576927775955,
,,,,,,,,,,,,,,,,,,,,,,,,,,,,,,,,,,0,0,0,0,1,0,1,0,,,,,,,,,,,,,,,,,,,,,,,,,,,,0,936,,,905.0472640490043,,B,125,triangle,0.0015119010058697313,,,,,1,0,,,2,,,,,,,,,901.2913520949951,901.2913520949951,901.2913520949951,901.2913520949951,902.7946587839979,902.7946587839979,902.7946587839979,902.7946587839979,902.7946587839979,902.7946587839979,902.7946587839979,902.7946587839979,repeat,number,numRpt,j,0.7326524550007889,vtsPrac,903.5455837659974,,,,,,,,,,,,,,,,,,,,,,,,17433,2022-10-31_13h58.59.421,vts_reward_expectancy_bt_OFFLINE,2022.2.4,59.935576927775955,
,,,,,,,,,,,,,,,,,,,,,,,,,,,,,,,,,,0,0,0,0,2,0,2,0,,,,,,,,,,,,,,,,,,,,,,,,,,,,0,936,,,909.7690229860018,,H,174,hexagon,0.00143243299680762,,,,,1,0,,,2,,,,,,,,,906.0292634180078,906.0292634180078,906.0292634180078,906.0292634180078,907.5332642919966,907.5332642919966,907.5332642919966,907.5332642919966,907.5332642919966,907.5332642919966,907.5332642919966,907.5332642919966,switch,letter,lettSwt,d,0.7057751120009925,vtsPrac,908.2673932690086,,,,,,,,,,,,,,,,,,,,,,,,17433,2022-10-31_13h58.59.421,vts_reward_expectancy_bt_OFFLINE,2022.2.4,59.935576927775955,
,,,,,,,,,,,,,,,,,,,,,,,,,,,,,,,,,,0,0,0,0,3,0,3,0,,,,,,,,,,,,,,,,,,,,,,,,,,,,0,936,,,914.4241603389964,,D,132,triangle,0.001507939989096485,,,,,1,0,,,2,,,,,,,,,910.7504146959982,910.7504146959982,910.7504146959982,910.7504146959982,912.2550315590051,912.2550315590051,912.2550315590051,912.2550315590051,912.2550315590051,912.2550315590051,912.2550315590051,912.2550315590051,switch,number,numSwt,j,0.6404848740057787,vtsPrac,912.922484183,,,,,,,,,,,,,,,,,,,,,,,,17433,2022-10-31_13h58.59.421,vts_reward_expectancy_bt_OFFLINE,2022.2.4,59.935576927775955,
,,,,,,,,,,,,,,,,,,,,,,,,,,,,,,,,,,0,0,0,0,4,0,4,0,,,,,,,,,,,,,,,,,,,,,,,,,,,,0,936,,,919.0794506880047,,Y,167,triangle,0.0016822479956317693,,,,,1,0,,,2,,,,,,,,,915.403380046002,915.403380046002,915.403380046002,915.403380046002,916.9102527700015,916.9102527700015,916.9102527700015,916.9102527700015,916.9102527700015,916.9102527700015,916.9102527700015,916.9102527700015,repeat,number,numRpt,k,0.649015100003453,vtsPrac,917.5777488500025,,,,,,,,,,,,,,,,,,,,,,,,17433,2022-10-31_13h58.59.421,vts_reward_expectancy_bt_OFFLINE,2022.2.4,59.935576927775955,
,,,,,,,,,,,,,,,,,,,,,,,,,,,,,,,,,,0,0,0,0,5,0,5,0,,,,,,,,,,,,,,,,,,,,,,,,,,,,0,936,,,923.7344458389998,,B,125,hexagon,0.0014883169933455065,,,,,1,0,,,2,,,,,,,,,920.0587718229945,920.0587718229945,920.0587718229945,920.0587718229945,921.5652047650074,921.5652047650074,921.5652047650074,921.5652047650074,921.5652047650074,921.5652047650074,921.5652047650074,921.5652047650074,switch,letter,lettSwt,d,0.6412899319984717,vtsPrac,922.2329038830067,,,,,,,,,,,,,,,,,,,,,,,,17433,2022-10-31_13h58.59.421,vts_reward_expectancy_bt_OFFLINE,2022.2.4,59.935576927775955,
,,,,,,,,,,,,,,,,,,,,,,,,,,,,,,,,,,0,0,0,0,6,0,6,0,,,,,,,,,,,,,,,,,,,,,,,,,,,,0,936,,,928.3564306799963,,H,174,circle,0.0015876079996814951,,,,,1,0,,,2,,,,,,,,,924.7139874310087,924.7139874310087,924.7139874310087,924.7139874310087,926.2205933390069,926.2205933390069,926.2205933390069,926.2205933390069,926.2205933390069,926.2205933390069,926.2205933390069,926.2205933390069,switch,number,numSwt,k,0.6100290040049003,vtsPrac,926.8545777999971,,,,,,,,,,,,,,,,,,,,,,,,17433,2022-10-31_13h58.59.421,vts_reward_expectancy_bt_OFFLINE,2022.2.4,59.935576927775955,
,,,,,,,,,,,,,,,,,,,,,,,,,,,,,,,,,,0,0,0,0,7,0,7,0,,,,,,,,,,,,,,,,,,,,,,,,,,,,0,936,,,933.0782216920052,,D,132,hexagon,0.001841300996602513,,,,,1,0,,,2,,,,,,,,,929.3354957039992,929.3354957039992,929.3354957039992,929.3354957039992,930.8424366139952,930.8424366139952,930.8424366139952,930.8424366139952,930.8424366139952,930.8424366139952,930.8424366139952,930.8424366139952,switch,letter,lettSwt,d,0.7076110290072393,vtsPrac,931.576595311999,,,,,,,,,,,,,,,,,,,,,,,,17433,2022-10-31_13h58.59.421,vts_reward_expectancy_bt_OFFLINE,2022.2.4,59.935576927775955,
,,,,,,,,,,,,,,,,,,,,,,,,,,,,,,,,,,0,0,0,0,8,0,8,0,,,,,,,,,,,,,,,,,,,,,,,,,,,,0,936,,,937.5665614979953,,D,167,circle,0.0015329759917221963,,,,,1,0,,,2,,,,,,,,,934.0562188839976,934.0562188839976,934.0562188839976,934.0562188839976,935.5642804679956,935.5642804679956,935.5642804679956,935.5642804679956,935.5642804679956,935.5642804679956,935.5642804679956,935.5642804679956,repeat,letter,lettRpt,d,0.48272729601012543,vtsPrac,936.0648617359984,,,,,,,,,,,,,,,,,,,,,,,,17433,2022-10-31_13h58.59.421,vts_reward_expectancy_bt_OFFLINE,2022.2.4,59.935576927775955,
,,,,,,,,,,,,,,,,,,,,,,,,,,,,,,,,,,0,0,0,0,9,0,9,0,,,,,,,,,,,,,,,,,,,,,,,,,,,,0,936,,,942.4720953729993,,S,132,hexagon,0.0012623430084204301,,,,,1,0,,,2,,,,,,,,,938.5452359659976,938.5452359659976,938.5452359659976,938.5452359659976,940.0526152960083,940.0526152960083,940.0526152960083,940.0526152960083,940.0526152960083,940.0526152960083,940.0526152960083,940.0526152960083,repeat,letter,lettRpt,f,0.8906109420058783,vtsPrac,940.970278584995,,,,,,,,,,,,,,,,,,,,,,,,17433,2022-10-31_13h58.59.421,vts_reward_expectancy_bt_OFFLINE,2022.2.4,59.935576927775955,
,,,,,,,,,,,,,,,,,,,,,,,,,,,,,,,,,,0,0,0,0,10,0,10,0,,,,,,,,,,,,,,,,,,,,,,,,,,,,0,936,,,947.193610702001,,U,146,star,0.0017634949908824638,,,,,1,0,,,2,,,,,,,,,943.4518419600063,943.4518419600063,943.4518419600063,943.4518419600063,944.9578530840081,944.9578530840081,944.9578530840081,944.9578530840081,944.9578530840081,944.9578530840081,944.9578530840081,944.9578530840081,repeat,letter,lettRpt,f,0.7133864880015608,vtsPrac,945.6920122930023,,,,,,,,,,,,,,,,,,,,,,,,17433,2022-10-31_13h58.59.421,vts_reward_expectancy_bt_OFFLINE,2022.2.4,59.935576927775955,
,,,,,,,,,,,,,,,,,,,,,,,,,,,,,,,,,,0,0,0,0,11,0,11,0,,,,,,,,,,,,,,,,,,,,,,,,,,,,0,936,,,951.7821052930085,,F,139,hexagon,0.0014642539899796247,,,,,1,0,,,2,,,,,,,,,948.1757477439969,948.1757477439969,948.1757477439969,948.1757477439969,949.6797488709999,949.6797488709999,949.6797488709999,949.6797488709999,949.6797488709999,949.6797488709999,949.6797488709999,949.6797488709999,switch,number,numSwt,j,0.5828524990065489,vtsPrac,950.2805035450001,,,,,,,,,,,,,,,,,,,,,,,,17433,2022-10-31_13h58.59.421,vts_reward_expectancy_bt_OFFLINE,2022.2.4,59.935576927775955,
,,,,,,,,,,,,,,,,,,,,,,,,,,,,,,,,,,0,0,0,0,12,0,12,0,,,,,,,,,,,,,,,,,,,,,,,,,,,,0,936,,,956.4207415150013,,U,125,circle,0.0015531450044363737,,,,,1,0,,,2,,,,,,,,,952.7599001189956,952.7599001189956,952.7599001189956,952.7599001189956,954.268222276005,954.268222276005,954.268222276005,954.268222276005,954.268222276005,954.268222276005,954.268222276005,954.268222276005,repeat,number,numRpt,j,0.6180607410060475,vtsPrac,954.9190711450065,,,,,,,,,,,,,,,,,,,,,,,,17433,2022-10-31_13h58.59.421,vts_reward_expectancy_bt_OFFLINE,2022.2.4,59.935576927775955,
,,,,,,,,,,,,,,,,,,,,,,,,,,,,,,,,,,0,0,0,0,13,0,13,0,,,,,,,,,,,,,,,,,,,,,,,,,,,,0,936,,,961.1257353840047,,H,181,triangle,0.0014182599988998845,,,,,1,0,,,2,,,,,,,,,957.4019290279975,957.4019290279975,957.4019290279975,957.4019290279975,958.906582266005,958.906582266005,958.906582266005,958.906582266005,958.906582266005,958.906582266005,958.906582266005,958.906582266005,repeat,number,numRpt,k,0.6920048780011712,vtsPrac,959.6239911169978,,,,,,,,,,,,,,,,,,,,,,,,17433,2022-10-31_13h58.59.421,vts_reward_expectancy_bt_OFFLINE,2022.2.4,59.935576927775955,
,,,,,,,,,,,,,,,,,,,,,,,,,,,,,,,,,,0,0,0,0,14,0,14,0,,,,,,,,,,,,,,,,,,,,,,,,,,,,0,936,,,965.647542576,,B,174,star,0.001768424001056701,,,,,1,0,,,2,,,,,,,,,962.1041603930062,962.1041603930062,962.1041603930062,962.1041603930062,963.6118528509978,963.6118528509978,963.6118528509978,963.6118528509978,963.6118528509978,963.6118528509978,963.6118528509978,963.6118528509978,switch,letter,lettSwt,d,0.5154184460116085,vtsPrac,964.1457789749984,,,,,,,,,,,,,,,,,,,,,,,,17433,2022-10-31_13h58.59.421,vts_reward_expectancy_bt_OFFLINE,2022.2.4,59.935576927775955,
,,,,,,,,,,,,,,,,,,,,,,,,,,,,,,,,,,0,0,0,0,15,0,15,0,,,,,,,,,,,,,,,,,,,,,,,,,,,,0,936,,,970.2024466959992,,D,146,hexagon,0.001306897000176832,,,,,1,0,,,2,,,,,,,,,966.6263465929951,966.6263465929951,966.6263465929951,966.6263465929951,968.1334155950026,968.1334155950026,968.1334155950026,968.1334155950026,968.1334155950026,968.1334155950026,968.1334155950026,968.1334155950026,repeat,letter,lettRpt,d,0.5456576909928117,vtsPrac,968.7007978089969,,,,,,,,,,,,,,,,,,,,,,,,17433,2022-10-31_13h58.59.421,vts_reward_expectancy_bt_OFFLINE,2022.2.4,59.935576927775955,
,,,,,,,,,,,,,,,,,,,,,,,,,,,,,,,,,,,,,,,,,,0,0,0,0,,,,,,,,,,,,,,,,,,,,,,,,0,936,,,1008.3779017299967,,F,167,triangle,0.0021378999954322353,,,,,1,0,,,,,,,,,,,,1004.4353133999975,1004.4353133999975,1004.4353133999975,1004.4353133999975,1005.9417825099954,1005.9417825099954,1005.9417825099954,1005.9417825099954,1005.9417825099954,1005.9417825099954,1005.9417825099954,1005.9417825099954,repeat,letter,lettRpt,d,0.9124709490133682,noRew,,0,1006.8762002570002,,,,,,,,,,,,,,,,,,,,,,17433,2022-10-31_13h58.59.421,vts_reward_expectancy_bt_OFFLINE,2022.2.4,59.935576927775955,
,,,,,,,,,,,,,,,,,,,,,,,,,,,,,,,,,,,,,,,,,,1,0,1,0,,,,,,,,,,,,,,,,,,,,,,,,0,936,,,1013.0498164269957,,U,132,hexagon,0.0015696220070822164,,,,,1,0,,,,,,,,,,,,1009.3570934099989,1009.3570934099989,1009.3570934099989,1009.3570934099989,1010.863946027006,1010.863946027006,1010.863946027006,1010.863946027006,1010.863946027006,1010.863946027006,1010.863946027006,1010.863946027006,repeat,letter,lettRpt,f,0.6545403110067127,noRew,,0,1011.5481374670053,,,,,,,,,,,,,,,,,,,,,,17433,2022-10-31_13h58.59.421,vts_reward_expectancy_bt_OFFLINE,2022.2.4,59.935576927775955,
,,,,,,,,,,,,,,,,,,,,,,,,,,,,,,,,,,,,,,,,,,2,0,2,0,,,,,,,,,,,,,,,,,,,,,,,,0,936,,,1017.5715207089961,,S,125,star,0.001661244998103939,,,,,1,0,,,,,,,,,,,,1014.029020336995,1014.029020336995,1014.029020336995,1014.029020336995,1015.5358310790034,1015.5358310790034,1015.5358310790034,1015.5358310790034,1015.5358310790034,1015.5358310790034,1015.5358310790034,1015.5358310790034,switch,number,numSwt,j,0.5114837510045618,noRew,,0,1016.0699107249966,,,,,,,,,,,,,,,,,,,,,,17433,2022-10-31_13h58.59.421,vts_reward_expectancy_bt_OFFLINE,2022.2.4,59.935576927775955,
,,,,,,,,,,,,,,,,,,,,,,,,,,,,,,,,,,,,,,,,,,3,0,3,0,,,,,,,,,,,,,,,,,,,,,,,,0,936,,,1022.276453412007,,W,146,hexagon,0.0017094479990191758,,,,,1,0,,,,,,,,,,,,1018.5519814349973,1018.5519814349973,1018.5519814349973,1018.5519814349973,1020.0573844659957,1020.0573844659957,1020.0573844659957,1020.0573844659957,1020.0573844659957,1020.0573844659957,1020.0573844659957,1020.0573844659957,switch,letter,lettSwt,f,0.6854663900012383,noRew,,0,1020.7748261710076,,,,,,,,,,,,,,,,,,,,,,17433,2022-10-31_13h58.59.421,vts_reward_expectancy_bt_OFFLINE,2022.2.4,59.935576927775955,
,,,,,,,,,,,,,,,,,,,,,,,,,,,,,,,,,,,,,,,,,,4,0,4,0,,,,,,,,,,,,,,,,,,,,,,,,0,936,,,1026.8484260420082,,F,167,star,0.0014708119997521862,,,,,1,0,,,,,,,,,,,,1023.2561527259968,1023.2561527259968,1023.2561527259968,1023.2561527259968,1024.7622812110058,1024.7622812110058,1024.7622812110058,1024.7622812110058,1024.7622812110058,1024.7622812110058,1024.7622812110058,1024.7622812110058,repeat,letter,lettRpt,d,0.564187160009169,noRew,,0,1025.3466339040024,,,,,,,,,,,,,,,,,,,,,,17433,2022-10-31_13h58.59.421,vts_reward_expectancy_bt_OFFLINE,2022.2.4,59.935576927775955,
,,,,,,,,,,,,,,,,,,,,,,,,,,,,,,,,,,,,,,,,,,5,0,5,0,,,,,,,,,,,,,,,,,,,,,,,,0,936,,,1031.7202468790056,,U,132,triangle,0.0013327439955901355,,,,,1,0,,,,,,,,,,,,1027.8265722490032,1027.8265722490032,1027.8265722490032,1027.8265722490032,1029.334566999998,1029.334566999998,1029.334566999998,1029.334566999998,1029.334566999998,1029.334566999998,1029.334566999998,1029.334566999998,switch,number,numSwt,j,0.8649215470068157,noRew,,0,1030.218810876002,,,,,,,,,,,,,,,,,,,,,,17433,2022-10-31_13h58.59.421,vts_reward_expectancy_bt_OFFLINE,2022.2.4,59.935576927775955,
,,,,,,,,,,,,,,,,,,,,,,,,,,,,,,,,,,,,,,,,,,6,0,6,0,,,,,,,,,,,,,,,,,,,,,,,,0,936,,,1036.358829136996,,S,125,hexagon,0.0014118020044406876,,,,,1,0,,,,,,,,,,,,1032.6995114250021,1032.6995114250021,1032.6995114250021,1032.6995114250021,1034.2063482530066,1034.2063482530066,1034.2063482530066,1034.2063482530066,1034.2063482530066,1034.2063482530066,1034.2063482530066,1034.2063482530066,switch,letter,lettSwt,f,0.6247391720098676,noRew,,0,1034.8570219730027,,,,,,,,,,,,,,,,,,,,,,17433,2022-10-31_13h58.59.421,vts_reward_expectancy_bt_OFFLINE,2022.2.4,59.935576927775955,
,,,,,,,,,,,,,,,,,,,,,,,,,,,,,,,,,,,,,,,,,,7,0,7,0,,,,,,,,,,,,,,,,,,,,,,,,0,936,,,1041.347709641006,,W,146,triangle,0.0016476809978485107,,,,,1,0,,,,,,,,,,,,1037.3397863099963,1037.3397863099963,1037.3397863099963,1037.3397863099963,1038.8450544780062,1038.8450544780062,1038.8450544780062,1038.8450544780062,1038.8450544780062,1038.8450544780062,1038.8450544780062,1038.8450544780062,repeat,letter,lettRpt,f,0.977371196000604,noRew,,0,1039.8461242860067,,,,,,,,,,,,,,,,,,,,,,17433,2022-10-31_13h58.59.421,vts_reward_expectancy_bt_OFFLINE,2022.2.4,59.935576927775955,
,,,,,,,,,,,,,,,,,,,,,,,,,,,,,,,,,,,,,,,,,,8,0,8,0,,,,,,,,,,,,,,,,,,,,,,,,0,936,,,1046.2863480410015,,D,174,circle,0.0016056470049079508,,,,,1,0,,,,,,,,,,,,1042.327589833003,1042.327589833003,1042.327589833003,1042.327589833003,1043.8336886210018,1043.8336886210018,1043.8336886210018,1043.8336886210018,1043.8336886210018,1043.8336886210018,1043.8336886210018,1043.8336886210018,repeat,letter,lettRpt,d,0.9244390770036262,noRew,,0,1044.7848118770053,,,,,,,,,,,,,,,,,,,,,,17433,2022-10-31_13h58.59.421,vts_reward_expectancy_bt_OFFLINE,2022.2.4,59.935576927775955,
,,,,,,,,,,,,,,,,,,,,,,,,,,,,,,,,,,,,,,,,,,9,0,9,0,,,,,,,,,,,,,,,,,,,,,,,,0,936,,,1050.9417011360056,,B,181,star,0.0015017049881862476,,,,,1,0,,,,,,,,,,,,1047.2655775460007,1047.2655775460007,1047.2655775460007,1047.2655775460007,1048.772377205998,1048.772377205998,1048.772377205998,1048.772377205998,1048.772377205998,1048.772377205998,1048.772377205998,1048.772377205998,switch,number,numSwt,k,0.6504403169965371,noRew,,0,1049.439825620997,,,,,,,,,,,,,,,,,,,,,,17433,2022-10-31_13h58.59.421,vts_reward_expectancy_bt_OFFLINE,2022.2.4,59.935576927775955,
,,,,,,,,,,,,,,,,,,,,,,,,,,,,,,,,,,,,,,,,,,10,0,10,0,,,,,,,,,,,,,,,,,,,,,,,,0,936,,,1055.863536984005,,S,125,circle,0.0013124969991622493,,,,,1,0,,,,,,,,,,,,1051.9210955440067,1051.9210955440067,1051.9210955440067,1051.9210955440067,1053.4274985410011,1053.4274985410011,1053.4274985410011,1053.4274985410011,1053.4274985410011,1053.4274985410011,1053.4274985410011,1053.4274985410011,repeat,number,numRpt,j,0.9159145040030126,noRew,,0,1054.3619187510049,,,,,,,,,,,,,,,,,,,,,,17433,2022-10-31_13h58.59.421,vts_reward_expectancy_bt_OFFLINE,2022.2.4,59.935576927775955,
,,,,,,,,,,,,,,,,,,,,,,,,,,,,,,,,,,,,,,,,,,11,0,11,0,,,,,,,,,,,,,,,,,,,,,,,,0,936,,,1060.4853508380038,,F,132,triangle,0.0014365839888341725,,,,,1,0,,,,,,,,,,,,1056.843449811,1056.843449811,1056.843449811,1056.843449811,1058.3498166509962,1058.3498166509962,1058.3498166509962,1058.3498166509962,1058.3498166509962,1058.3498166509962,1058.3498166509962,1058.3498166509962,switch,letter,lettSwt,d,0.6007381060044281,noRew,,0,1058.9838889240054,,,,,,,,,,,,,,,,,,,,,,17433,2022-10-31_13h58.59.421,vts_reward_expectancy_bt_OFFLINE,2022.2.4,59.935576927775955,
,,,,,,,,,,,,,,,,,,,,,,,,,,,,,,,,,,,,,,,,,,12,0,12,0,,,,,,,,,,,,,,,,,,,,,,,,0,936,,,1065.0571574019996,,B,132,triangle,0.0017558969993842766,,,,,1,0,,,,,,,,,,,,1061.4645155489998,1061.4645155489998,1061.4645155489998,1061.4645155489998,1062.9713027160033,1062.9713027160033,1062.9713027160033,1062.9713027160033,1062.9713027160033,1062.9713027160033,1062.9713027160033,1062.9713027160033,switch,number,numSwt,j,0.5636425140110077,noRew,,0,1063.5555191210005,,,,,,,,,,,,,,,,,,,,,,17433,2022-10-31_13h58.59.421,vts_reward_expectancy_bt_OFFLINE,2022.2.4,59.935576927775955,
,,,,,,,,,,,,,,,,,,,,,,,,,,,,,,,,,,,,,,,,,,13,0,13,0,,,,,,,,,,,,,,,,,,,,,,,,0,936,,,1070.3128599850024,,S,146,hexagon,0.0013221629924373701,,,,,1,0,,,,,,,,,,,,1066.0371486479999,1066.0371486479999,1066.0371486479999,1066.0371486479999,1067.5431751989963,1067.5431751989963,1067.5431751989963,1067.5431751989963,1067.5431751989963,1067.5431751989963,1067.5431751989963,1067.5431751989963,repeat,number,numRpt,j,1.239810307015432,noRew,,0,1068.8110989370034,,,,,,,,,,,,,,,,,,,,,,17433,2022-10-31_13h58.59.421,vts_reward_expectancy_bt_OFFLINE,2022.2.4,59.935576927775955,
,,,,,,,,,,,,,,,,,,,,,,,,,,,,,,,,,,,,,,,,,,14,0,14,0,,,,,,,,,,,,,,,,,,,,,,,,0,936,,,1075.034644047002,,D,125,triangle,0.0015822279965505004,,,,,1,0,,,,,,,,,,,,1071.2919490939967,1071.2919490939967,1071.2919490939967,1071.2919490939967,1072.7988544800028,1072.7988544800028,1072.7988544800028,1072.7988544800028,1072.7988544800028,1072.7988544800028,1072.7988544800028,1072.7988544800028,repeat,number,numRpt,j,0.7114560680056456,noRew,,0,1073.532937445998,,,,,,,,,,,,,,,,,,,,,,17433,2022-10-31_13h58.59.421,vts_reward_expectancy_bt_OFFLINE,2022.2.4,59.935576927775955,
,,,,,,,,,,,,,,,,,,,,,,,,,,,,,,,,,,,,,,,,,,15,0,15,0,,,,,,,,,,,,,,,,,,,,,,,,0,936,,,1079.7232428290008,,F,160,circle,0.0016260760021395981,,,,,1,0,,,,,,,,,,,,1076.014349493009,1076.014349493009,1076.014349493009,1076.014349493009,1077.520811209004,1077.520811209004,1077.520811209004,1077.520811209004,1077.520811209004,1077.520811209004,1077.520811209004,1077.520811209004,switch,letter,lettSwt,d,0.6773632420081412,noRew,,0,1078.2214535179955,,,,,,,,,,,,,,,,,,,,,,17433,2022-10-31_13h58.59.421,vts_reward_expectancy_bt_OFFLINE,2022.2.4,59.935576927775955,
