LTriangleOpac,LCircleOpac,LHexagonOpac,LStarOpac,RTriangleOpac,RCircleOpac,RHexagonOpac,RStarOpac,LShape_ID,RShape_ID,training_blocks.thisRepN,training_blocks.thisTrialN,training_blocks.thisN,training_blocks.thisIndex,training.thisRepN,training.thisTrialN,training.thisN,training.thisIndex,task1_prac_redo.thisRepN,task1_prac_redo.thisTrialN,task1_prac_redo.thisN,task1_prac_redo.thisIndex,task1_prac_trials.thisRepN,task1_prac_trials.thisTrialN,task1_prac_trials.thisN,task1_prac_trials.thisIndex,task2_prac_redo.thisRepN,task2_prac_redo.thisTrialN,task2_prac_redo.thisN,task2_prac_redo.thisIndex,task2_praac_trials.thisRepN,task2_praac_trials.thisTrialN,task2_praac_trials.thisN,task2_praac_trials.thisIndex,vts_prac_redo.thisRepN,vts_prac_redo.thisTrialN,vts_prac_redo.thisN,vts_prac_redo.thisIndex,vts_practice_trials.thisRepN,vts_practice_trials.thisTrialN,vts_practice_trials.thisN,vts_practice_trials.thisIndex,trials_norew.thisRepN,trials_norew.thisTrialN,trials_norew.thisN,trials_norew.thisIndex,block.thisRepN,block.thisTrialN,block.thisN,block.thisIndex,trials_rew.thisRepN,trials_rew.thisTrialN,trials_rew.thisN,trials_rew.thisIndex,key_resp.started,key_resp.keys,key_resp.rt,left_circle.started,right_circle.started,left_triangle.started,right_triangle.started,left_star.started,right_star.started,left_hexagon.started,right_hexagon.started,training_fix.started,training_resp.started,training_resp.keys,training_resp.rt,points_trial,points_cumul,trainBlock,training_feedback_txt.started,fix.started,training_feedback_txt.stopped,fix.stopped,curr_topStim,curr_bottStim,curr_shape,ISI.started,tgt_fix_prac1.started,top_target_prac1.started,bott_target_prac1.started,target_resp_prac1.started,acc,E1,target_resp_prac1.keys,target_resp_prac1.rt,pracBlock,prac_fback_text.started,tgt_fix_prac2.started,top_target_prac2.started,bott_target_prac2.started,target_resp_prac2.started,target_resp_prac2.keys,target_resp_prac2.rt,star.started,hegagon.started,triangle.started,circle.started,top_target.started,tgt_fix.started,bot_target.started,target_resp.started,star.stopped,hegagon.stopped,triangle.stopped,circle.stopped,top_target.stopped,tgt_fix.stopped,bot_target.stopped,target_resp.stopped,alt,task,condition,target_resp.keys,rewCond,vts_fback.started,target_resp.rt,vts_fback.stopped,blockNum,norew_fback.started,norew_fback.stopped,key_resp_2.keys,key_resp_2.rt,rewExpectancy,feedbk_text.started,feedbk_text.stopped,text_3.started,debrief.started,text_3.stopped,button.started,debrief.index,debrief.itemText,debrief.type,debrief.granularity,debrief.font,debrief.markerColor,debrief.response,debrief.rt,button.numClicks,button.timesOn,button.timesOff,participant,date,expName,psychopyVersion,frameRate,
,,,,,,,,,,,,,,,,,,,,,,,,,,,,,,,,,,,,,,,,,,,,,,,,,,,,,,24.116950150113553,space,1.0604755280073732,,,,,,,,,,,,,,,,,,,,,,,,,,,,,,,,,,,,,,,,,,,,,,,,,,,,,,,,,,,,,,,,,,,,,,,,,,,,,,,,,,,,,,,17658,2022-12-01_14h11.18.460,vts_reward_expectancy_bt_OFFLINE,2022.2.4,59.940586410437234,
0,0,1,0,0,0,0,1,hexagon,star,0,0,0,0,0,0,0,8,,,,,,,,,,,,,,,,,,,,,,,,,,,,,,,,,,,,,,,,25.969864176004194,25.969864176004194,25.969864176004194,25.969864176004194,25.969864176004194,25.969864176004194,25.969864176004194,25.969864176004194,25.969864176004194,25.969864176004194,a,2.6196907920530066,1,1,0,28.62197827908676,30.12368724006228,,,,,,,,,,,,,,,,,,,,,,,,,,,,,,,,,,,,,,,,,,,,,,,,,,,,,,,,,,,,,,,,,,,,,,17658,2022-12-01_14h11.18.460,vts_reward_expectancy_bt_OFFLINE,2022.2.4,59.940586410437234,
0,1,0,0,0,0,0,1,circle,star,0,0,0,0,0,1,1,5,,,,,,,,,,,,,,,,,,,,,,,,,,,,,,,,,,,,,,,,30.62426680000499,30.62426680000499,30.62426680000499,30.62426680000499,30.62426680000499,30.62426680000499,30.62426680000499,30.62426680000499,30.62426680000499,30.62426680000499,l,1.4181923019932583,1,2,0,32.05925716611091,33.561027710093185,33.561027710093185,,,,,,,,,,,,,,,,,,,,,,,,,,,,,,,,,,,,,,,,,,,,,,,,,,,,,,,,,,,,,,,,,,,,,17658,2022-12-01_14h11.18.460,vts_reward_expectancy_bt_OFFLINE,2022.2.4,59.940586410437234,
0,0,0,1,0,0,1,0,star,hexagon,0,0,0,0,0,2,2,11,,,,,,,,,,,,,,,,,,,,,,,,,,,,,,,,,,,,,,,,34.06150493910536,34.06150493910536,34.06150493910536,34.06150493910536,34.06150493910536,34.06150493910536,34.06150493910536,34.06150493910536,34.06150493910536,34.06150493910536,l,0.05056145996786654,1,3,0,34.144731851061806,35.64643679908477,,,,,,,,,,,,,,,,,,,,,,,,,,,,,,,,,,,,,,,,,,,,,,,,,,,,,,,,,,,,,,,,,,,,,,17658,2022-12-01_14h11.18.460,vts_reward_expectancy_bt_OFFLINE,2022.2.4,59.940586410437234,
1,0,0,0,0,0,0,1,triangle,star,0,0,0,0,0,3,3,2,,,,,,,,,,,,,,,,,,,,,,,,,,,,,,,,,,,,,,,,36.14687008806504,36.14687008806504,36.14687008806504,36.14687008806504,36.14687008806504,36.14687008806504,36.14687008806504,36.14687008806504,36.14687008806504,36.14687008806504,l,0.22591995005495846,10,13,0,36.41408662800677,37.8987552250037,,,,,,,,,,,,,,,,,,,,,,,,,,,,,,,,,,,,,,,,,,,,,,,,,,,,,,,,,,,,,,,,,,,,,,17658,2022-12-01_14h11.18.460,vts_reward_expectancy_bt_OFFLINE,2022.2.4,59.940586410437234,
1,0,0,0,0,1,0,0,triangle,circle,0,0,0,0,0,4,4,0,,,,,,,,,,,,,,,,,,,,,,,,,,,,,,,,,,,,,,,,38.399536588112824,38.399536588112824,38.399536588112824,38.399536588112824,38.399536588112824,38.399536588112824,38.399536588112824,38.399536588112824,38.399536588112824,38.399536588112824,a,0.0673403189284727,10,23,0,38.49965831509326,40.001254120026715,,,,,,,,,,,,,,,,,,,,,,,,,,,,,,,,,,,,,,,,,,,,,,,,,,,,,,,,,,,,,,,,,,,,,,17658,2022-12-01_14h11.18.460,vts_reward_expectancy_bt_OFFLINE,2022.2.4,59.940586410437234,
0,1,0,0,1,0,0,0,circle,triangle,0,0,0,0,0,5,5,3,,,,,,,,,,,,,,,,,,,,,,,,,,,,,,,,,,,,,,,,40.501829818007536,40.501829818007536,40.501829818007536,40.501829818007536,40.501829818007536,40.501829818007536,40.501829818007536,40.501829818007536,40.501829818007536,40.501829818007536,a,0.5186166319763288,10,33,0,41.05246744409669,42.554020890034735,,,,,,,,,,,,,,,,,,,,,,,,,,,,,,,,,,,,,,,,,,,,,,,,,,,,,,,,,,,,,,,,,,,,,,17658,2022-12-01_14h11.18.460,vts_reward_expectancy_bt_OFFLINE,2022.2.4,59.940586410437234,
0,0,1,0,0,1,0,0,hexagon,circle,0,0,0,0,0,6,6,7,,,,,,,,,,,,,,,,,,,,,,,,,,,,,,,,,,,,,,,,43.0545227060793,43.0545227060793,43.0545227060793,43.0545227060793,43.0545227060793,43.0545227060793,43.0545227060793,43.0545227060793,43.0545227060793,43.0545227060793,l,0.5749545010039583,10,43,0,43.65538207802456,45.156941311084665,,,,,,,,,,,,,,,,,,,,,,,,,,,,,,,,,,,,,,,,,,,,,,,,,,,,,,,,,,,,,,,,,,,,,,17658,2022-12-01_14h11.18.460,vts_reward_expectancy_bt_OFFLINE,2022.2.4,59.940586410437234,
0,1,0,0,0,0,1,0,circle,hexagon,0,0,0,0,0,7,7,4,,,,,,,,,,,,,,,,,,,,,,,,,,,,,,,,,,,,,,,,45.657428243081085,45.657428243081085,45.657428243081085,45.657428243081085,45.657428243081085,45.657428243081085,45.657428243081085,45.657428243081085,45.657428243081085,45.657428243081085,a,0.5258694000076503,10,53,0,46.20819318899885,47.70966569404118,,,,,,,,,,,,,,,,,,,,,,,,,,,,,,,,,,,,,,,,,,,,,,,,,,,,,,,,,,,,,,,,,,,,,,17658,2022-12-01_14h11.18.460,vts_reward_expectancy_bt_OFFLINE,2022.2.4,59.940586410437234,
1,0,0,0,0,0,1,0,triangle,hexagon,0,0,0,0,0,8,8,1,,,,,,,,,,,,,,,,,,,,,,,,,,,,,,,,,,,,,,,,48.21049478906207,48.21049478906207,48.21049478906207,48.21049478906207,48.21049478906207,48.21049478906207,48.21049478906207,48.21049478906207,48.21049478906207,48.21049478906207,a,0.7853243689751253,1,54,0,49.0279554950539,50.52962907508481,,,,,,,,,,,,,,,,,,,,,,,,,,,,,,,,,,,,,,,,,,,,,,,,,,,,,,,,,,,,,,,,,,,,,,17658,2022-12-01_14h11.18.460,vts_reward_expectancy_bt_OFFLINE,2022.2.4,59.940586410437234,
0,0,0,1,1,0,0,0,star,triangle,0,0,0,0,0,9,9,9,,,,,,,,,,,,,,,,,,,,,,,,,,,,,,,,,,,,,,,,51.03026559902355,51.03026559902355,51.03026559902355,51.03026559902355,51.03026559902355,51.03026559902355,51.03026559902355,51.03026559902355,51.03026559902355,51.03026559902355,a,4.480239821015857,10,64,0,55.53509009501431,57.0366211211076,,,,,,,,,,,,,,,,,,,,,,,,,,,,,,,,,,,,,,,,,,,,,,,,,,,,,,,,,,,,,,,,,,,,,,17658,2022-12-01_14h11.18.460,vts_reward_expectancy_bt_OFFLINE,2022.2.4,59.940586410437234,
0,0,0,1,0,1,0,0,star ,circle,0,0,0,0,0,10,10,10,,,,,,,,,,,,,,,,,,,,,,,,,,,,,,,,,,,,,,,,57.53737609507516,57.53737609507516,57.53737609507516,57.53737609507516,57.53737609507516,57.53737609507516,57.53737609507516,57.53737609507516,57.53737609507516,57.53737609507516,l,27.31462195108179,10,74,0,84.88411978899967,86.3858244480798,,,,,,,,,,,,,,,,,,,,,,,,,,,,,,,,,,,,,,,,,,,,,,,,,,,,,,,,,,,,,,,,,,,,,,17658,2022-12-01_14h11.18.460,vts_reward_expectancy_bt_OFFLINE,2022.2.4,59.940586410437234,
0,0,1,0,1,0,0,0,hexagon,triangle,0,0,0,0,0,11,11,6,,,,,,,,,,,,,,,,,,,,,,,,,,,,,,,,,,,,,,,,86.88627387408633,86.88627387408633,86.88627387408633,86.88627387408633,86.88627387408633,86.88627387408633,86.88627387408633,86.88627387408633,86.88627387408633,86.88627387408633,a,5.627296257065609,10,84,0,92.54226276604459,94.04402572405525,,,,,,,,,,,,,,,,,,,,,,,,,,,,,,,,,,,,,,,,,,,,,,,,,,,,,,,,,,,,,,,,,,,,,,17658,2022-12-01_14h11.18.460,vts_reward_expectancy_bt_OFFLINE,2022.2.4,59.940586410437234,
1,0,0,0,0,1,0,0,triangle,circle,0,0,0,0,1,0,12,0,,,,,,,,,,,,,,,,,,,,,,,,,,,,,,,,,,,,,,,,94.54473608999979,94.54473608999979,94.54473608999979,94.54473608999979,94.54473608999979,94.54473608999979,94.54473608999979,94.54473608999979,94.54473608999979,94.54473608999979,l,15.802380953915417,10,94,0,110.37880006001797,111.88044917408843,,,,,,,,,,,,,,,,,,,,,,,,,,,,,,,,,,,,,,,,,,,,,,,,,,,,,,,,,,,,,,,,,,,,,,17658,2022-12-01_14h11.18.460,vts_reward_expectancy_bt_OFFLINE,2022.2.4,59.940586410437234,
0,1,0,0,0,0,1,0,circle,hexagon,0,0,0,0,1,1,13,4,,,,,,,,,,,,,,,,,,,,,,,,,,,,,,,,,,,,,,,,112.3811062250752,112.3811062250752,112.3811062250752,112.3811062250752,112.3811062250752,112.3811062250752,112.3811062250752,112.3811062250752,112.3811062250752,112.3811062250752,l,27.071984114008956,1,95,0,139.47759259911254,140.9792135130847,,,,,,,,,,,,,,,,,,,,,,,,,,,,,,,,,,,,,,,,,,,,,,,,,,,,,,,,,,,,,,,,,,,,,,17658,2022-12-01_14h11.18.460,vts_reward_expectancy_bt_OFFLINE,2022.2.4,59.940586410437234,
0,1,0,0,0,0,0,1,circle,star,0,0,0,0,1,2,14,5,,,,,,,,,,,,,,,,,,,,,,,,,,,,,,,,,,,,,,,,141.47974032501224,141.47974032501224,141.47974032501224,141.47974032501224,141.47974032501224,141.47974032501224,141.47974032501224,141.47974032501224,141.47974032501224,141.47974032501224,a,14.523561183013953,10,105,0,156.02934184507467,157.5308785000816,,,,,,,,,,,,,,,,,,,,,,,,,,,,,,,,,,,,,,,,,,,,,,,,,,,,,,,,,,,,,,,,,,,,,,17658,2022-12-01_14h11.18.460,vts_reward_expectancy_bt_OFFLINE,2022.2.4,59.940586410437234,
1,0,0,0,0,0,1,0,triangle,hexagon,0,0,0,0,1,3,15,1,,,,,,,,,,,,,,,,,,,,,,,,,,,,,,,,,,,,,,,,158.03144155605696,158.03144155605696,158.03144155605696,158.03144155605696,158.03144155605696,158.03144155605696,158.03144155605696,158.03144155605696,158.03144155605696,158.03144155605696,l,10.979674533940852,1,106,0,169.04357433400583,170.5452998810215,,,,,,,,,,,,,,,,,,,,,,,,,,,,,,,,,,,,,,,,,,,,,,,,,,,,,,,,,,,,,,,,,,,,,,17658,2022-12-01_14h11.18.460,vts_reward_expectancy_bt_OFFLINE,2022.2.4,59.940586410437234,
0,0,0,1,1,0,0,0,star,triangle,0,0,0,0,1,4,16,9,,,,,,,,,,,,,,,,,,,,,,,,,,,,,,,,,,,,,,,,171.0457662100671,171.0457662100671,171.0457662100671,171.0457662100671,171.0457662100671,171.0457662100671,171.0457662100671,171.0457662100671,171.0457662100671,171.0457662100671,a,4.839709307998419,10,116,0,175.91790896910243,177.419455488096,,,,,,,,,,,,,,,,,,,,,,,,,,,,,,,,,,,,,,,,,,,,,,,,,,,,,,,,,,,,,,,,,,,,,,17658,2022-12-01_14h11.18.460,vts_reward_expectancy_bt_OFFLINE,2022.2.4,59.940586410437234,
1,0,0,0,0,0,0,1,triangle,star,0,0,0,0,1,5,17,2,,,,,,,,,,,,,,,,,,,,,,,,,,,,,,,,,,,,,,,,177.92013330408372,177.92013330408372,177.92013330408372,177.92013330408372,177.92013330408372,177.92013330408372,177.92013330408372,177.92013330408372,177.92013330408372,177.92013330408372,l,5.084827207028866,10,126,0,183.02576379000675,184.52695769106504,,,,,,,,,,,,,,,,,,,,,,,,,,,,,,,,,,,,,,,,,,,,,,,,,,,,,,,,,,,,,,,,,,,,,,17658,2022-12-01_14h11.18.460,vts_reward_expectancy_bt_OFFLINE,2022.2.4,59.940586410437234,
0,0,0,1,0,1,0,0,star ,circle,0,0,0,0,1,6,18,10,,,,,,,,,,,,,,,,,,,,,,,,,,,,,,,,,,,,,,,,185.02796858910006,185.02796858910006,185.02796858910006,185.02796858910006,185.02796858910006,185.02796858910006,185.02796858910006,185.02796858910006,185.02796858910006,185.02796858910006,l,4.0292378349695355,10,136,0,189.08226011809893,190.5839670940768,,,,,,,,,,,,,,,,,,,,,,,,,,,,,,,,,,,,,,,,,,,,,,,,,,,,,,,,,,,,,,,,,,,,,,17658,2022-12-01_14h11.18.460,vts_reward_expectancy_bt_OFFLINE,2022.2.4,59.940586410437234,
0,0,1,0,1,0,0,0,hexagon,triangle,0,0,0,0,1,7,19,6,,,,,,,,,,,,,,,,,,,,,,,,,,,,,,,,,,,,,,,,191.08449588506483,191.08449588506483,191.08449588506483,191.08449588506483,191.08449588506483,191.08449588506483,191.08449588506483,191.08449588506483,191.08449588506483,191.08449588506483,a,3.9813027450582013,1,137,0,195.0890202090377,196.59073085000273,,,,,,,,,,,,,,,,,,,,,,,,,,,,,,,,,,,,,,,,,,,,,,,,,,,,,,,,,,,,,,,,,,,,,,17658,2022-12-01_14h11.18.460,vts_reward_expectancy_bt_OFFLINE,2022.2.4,59.940586410437234,
0,0,1,0,0,1,0,0,hexagon,circle,0,0,0,0,1,8,20,7,,,,,,,,,,,,,,,,,,,,,,,,,,,,,,,,,,,,,,,,197.09138520609122,197.09138520609122,197.09138520609122,197.09138520609122,197.09138520609122,197.09138520609122,197.09138520609122,197.09138520609122,197.09138520609122,197.09138520609122,l,5.220751827931963,1,138,0,202.33022237604018,203.83197575609665,,,,,,,,,,,,,,,,,,,,,,,,,,,,,,,,,,,,,,,,,,,,,,,,,,,,,,,,,,,,,,,,,,,,,,17658,2022-12-01_14h11.18.460,vts_reward_expectancy_bt_OFFLINE,2022.2.4,59.940586410437234,
0,1,0,0,1,0,0,0,circle,triangle,0,0,0,0,1,9,21,3,,,,,,,,,,,,,,,,,,,,,,,,,,,,,,,,,,,,,,,,204.3326732980786,204.3326732980786,204.3326732980786,204.3326732980786,204.3326732980786,204.3326732980786,204.3326732980786,204.3326732980786,204.3326732980786,204.3326732980786,a,4.47166150494013,10,148,0,208.82055412908085,210.32254492409993,210.32254492409993,,,,,,,,,,,,,,,,,,,,,,,,,,,,,,,,,,,,,,,,,,,,,,,,,,,,,,,,,,,,,,,,,,,,,17658,2022-12-01_14h11.18.460,vts_reward_expectancy_bt_OFFLINE,2022.2.4,59.940586410437234,
0,0,0,1,0,0,1,0,star,hexagon,0,0,0,0,1,10,22,11,,,,,,,,,,,,,,,,,,,,,,,,,,,,,,,,,,,,,,,,210.82296356500592,210.82296356500592,210.82296356500592,210.82296356500592,210.82296356500592,210.82296356500592,210.82296356500592,210.82296356500592,210.82296356500592,210.82296356500592,a,10.00676883396227,1,149,0,220.85068498004694,222.35247347911354,,,,,,,,,,,,,,,,,,,,,,,,,,,,,,,,,,,,,,,,,,,,,,,,,,,,,,,,,,,,,,,,,,,,,,17658,2022-12-01_14h11.18.460,vts_reward_expectancy_bt_OFFLINE,2022.2.4,59.940586410437234,
0,0,1,0,0,0,0,1,hexagon,star,0,0,0,0,1,11,23,8,,,,,,,,,,,,,,,,,,,,,,,,,,,,,,,,,,,,,,,,222.85276896506548,222.85276896506548,222.85276896506548,222.85276896506548,222.85276896506548,222.85276896506548,222.85276896506548,222.85276896506548,222.85276896506548,222.85276896506548,a,13.52552465593908,1,150,0,236.40129617101047,237.90267749503255,,,,,,,,,,,,,,,,,,,,,,,,,,,,,,,,,,,,,,,,,,,,,,,,,,,,,,,,,,,,,,,,,,,,,,17658,2022-12-01_14h11.18.460,vts_reward_expectancy_bt_OFFLINE,2022.2.4,59.940586410437234,
0,0,1,0,0,1,0,0,hexagon,circle,0,0,0,0,2,0,24,7,,,,,,,,,,,,,,,,,,,,,,,,,,,,,,,,,,,,,,,,238.40327161806636,238.40327161806636,238.40327161806636,238.40327161806636,238.40327161806636,238.40327161806636,238.40327161806636,238.40327161806636,238.40327161806636,238.40327161806636,l,7.099565802025609,1,151,0,245.5280232850928,247.02969781809952,,,,,,,,,,,,,,,,,,,,,,,,,,,,,,,,,,,,,,,,,,,,,,,,,,,,,,,,,,,,,,,,,,,,,,17658,2022-12-01_14h11.18.460,vts_reward_expectancy_bt_OFFLINE,2022.2.4,59.940586410437234,
0,0,0,1,0,1,0,0,star ,circle,0,0,0,0,2,1,25,10,,,,,,,,,,,,,,,,,,,,,,,,,,,,,,,,,,,,,,,,247.53019488009159,247.53019488009159,247.53019488009159,247.53019488009159,247.53019488009159,247.53019488009159,247.53019488009159,247.53019488009159,247.53019488009159,247.53019488009159,l,12.014383852947503,10,161,0,259.5767496731132,261.0786224449985,,,,,,,,,,,,,,,,,,,,,,,,,,,,,,,,,,,,,,,,,,,,,,,,,,,,,,,,,,,,,,,,,,,,,,17658,2022-12-01_14h11.18.460,vts_reward_expectancy_bt_OFFLINE,2022.2.4,59.940586410437234,
0,1,0,0,0,0,1,0,circle,hexagon,0,0,0,0,2,2,26,4,,,,,,,,,,,,,,,,,,,,,,,,,,,,,,,,,,,,,,,,261.57891105802264,261.57891105802264,261.57891105802264,261.57891105802264,261.57891105802264,261.57891105802264,261.57891105802264,261.57891105802264,261.57891105802264,261.57891105802264,l,3.7051512399921194,10,171,0,265.31643073505256,266.8182307400275,,,,,,,,,,,,,,,,,,,,,,,,,,,,,,,,,,,,,,,,,,,,,,,,,,,,,,,,,,,,,,,,,,,,,,17658,2022-12-01_14h11.18.460,vts_reward_expectancy_bt_OFFLINE,2022.2.4,59.940586410437234,
0,0,0,1,1,0,0,0,star,triangle,0,0,0,0,2,3,27,9,,,,,,,,,,,,,,,,,,,,,,,,,,,,,,,,,,,,,,,,267.31869355402887,267.31869355402887,267.31869355402887,267.31869355402887,267.31869355402887,267.31869355402887,267.31869355402887,267.31869355402887,267.31869355402887,267.31869355402887,a,4.409962804988027,10,181,0,271.7569739490282,273.2587441240903,,,,,,,,,,,,,,,,,,,,,,,,,,,,,,,,,,,,,,,,,,,,,,,,,,,,,,,,,,,,,,,,,,,,,,17658,2022-12-01_14h11.18.460,vts_reward_expectancy_bt_OFFLINE,2022.2.4,59.940586410437234,
0,0,1,0,1,0,0,0,hexagon,triangle,0,0,0,0,2,4,28,6,,,,,,,,,,,,,,,,,,,,,,,,,,,,,,,,,,,,,,,,273.75906370102894,273.75906370102894,273.75906370102894,273.75906370102894,273.75906370102894,273.75906370102894,273.75906370102894,273.75906370102894,273.75906370102894,273.75906370102894,l,4.529884526971728,1,182,0,278.31397930905223,279.8157339990139,,,,,,,,,,,,,,,,,,,,,,,,,,,,,,,,,,,,,,,,,,,,,,,,,,,,,,,,,,,,,,,,,,,,,,17658,2022-12-01_14h11.18.460,vts_reward_expectancy_bt_OFFLINE,2022.2.4,59.940586410437234,
1,0,0,0,0,1,0,0,triangle,circle,0,0,0,0,2,5,29,0,,,,,,,,,,,,,,,,,,,,,,,,,,,,,,,,,,,,,,,,280.3163559680106,280.3163559680106,280.3163559680106,280.3163559680106,280.3163559680106,280.3163559680106,280.3163559680106,280.3163559680106,280.3163559680106,280.3163559680106,l,6.724783426034264,10,192,0,287.0738416661043,288.5755543090636,,,,,,,,,,,,,,,,,,,,,,,,,,,,,,,,,,,,,,,,,,,,,,,,,,,,,,,,,,,,,,,,,,,,,,17658,2022-12-01_14h11.18.460,vts_reward_expectancy_bt_OFFLINE,2022.2.4,59.940586410437234,
0,0,0,1,0,0,1,0,star,hexagon,0,0,0,0,2,6,30,11,,,,,,,,,,,,,,,,,,,,,,,,,,,,,,,,,,,,,,,,289.0761160560651,289.0761160560651,289.0761160560651,289.0761160560651,289.0761160560651,289.0761160560651,289.0761160560651,289.0761160560651,289.0761160560651,289.0761160560651,a,4.3890254240250215,1,193,0,293.4974739761092,294.99927003111225,,,,,,,,,,,,,,,,,,,,,,,,,,,,,,,,,,,,,,,,,,,,,,,,,,,,,,,,,,,,,,,,,,,,,,17658,2022-12-01_14h11.18.460,vts_reward_expectancy_bt_OFFLINE,2022.2.4,59.940586410437234,
1,0,0,0,0,0,1,0,triangle,hexagon,0,0,0,0,2,7,31,1,,,,,,,,,,,,,,,,,,,,,,,,,,,,,,,,,,,,,,,,295.4997319300892,295.4997319300892,295.4997319300892,295.4997319300892,295.4997319300892,295.4997319300892,295.4997319300892,295.4997319300892,295.4997319300892,295.4997319300892,l,10.22922592901159,10,203,0,305.76099538605195,307.2629176090704,,,,,,,,,,,,,,,,,,,,,,,,,,,,,,,,,,,,,,,,,,,,,,,,,,,,,,,,,,,,,,,,,,,,,,17658,2022-12-01_14h11.18.460,vts_reward_expectancy_bt_OFFLINE,2022.2.4,59.940586410437234,
0,1,0,0,1,0,0,0,circle,triangle,0,0,0,0,2,8,32,3,,,,,,,,,,,,,,,,,,,,,,,,,,,,,,,,,,,,,,,,307.763502348098,307.763502348098,307.763502348098,307.763502348098,307.763502348098,307.763502348098,307.763502348098,307.763502348098,307.763502348098,307.763502348098,a,5.706984711927362,10,213,0,313.5029467190616,315.0045983811142,,,,,,,,,,,,,,,,,,,,,,,,,,,,,,,,,,,,,,,,,,,,,,,,,,,,,,,,,,,,,,,,,,,,,,17658,2022-12-01_14h11.18.460,vts_reward_expectancy_bt_OFFLINE,2022.2.4,59.940586410437234,
0,1,0,0,0,0,0,1,circle,star,0,0,0,0,2,9,33,5,,,,,,,,,,,,,,,,,,,,,,,,,,,,,,,,,,,,,,,,315.505129825091,315.505129825091,315.505129825091,315.505129825091,315.505129825091,315.505129825091,315.505129825091,315.505129825091,315.505129825091,315.505129825091,a,4.331943836994469,10,223,0,319.8598482130328,321.36166184500325,,,,,,,,,,,,,,,,,,,,,,,,,,,,,,,,,,,,,,,,,,,,,,,,,,,,,,,,,,,,,,,,,,,,,,17658,2022-12-01_14h11.18.460,vts_reward_expectancy_bt_OFFLINE,2022.2.4,59.940586410437234,
1,0,0,0,0,0,0,1,triangle,star,0,0,0,0,2,10,34,2,,,,,,,,,,,,,,,,,,,,,,,,,,,,,,,,,,,,,,,,321.8621695940383,321.8621695940383,321.8621695940383,321.8621695940383,321.8621695940383,321.8621695940383,321.8621695940383,321.8621695940383,321.8621695940383,321.8621695940383,l,3.7023808020167053,10,233,0,325.5828367990907,327.0845401730621,,,,,,,,,,,,,,,,,,,,,,,,,,,,,,,,,,,,,,,,,,,,,,,,,,,,,,,,,,,,,,,,,,,,,,17658,2022-12-01_14h11.18.460,vts_reward_expectancy_bt_OFFLINE,2022.2.4,59.940586410437234,
0,0,1,0,0,0,0,1,hexagon,star,0,0,0,0,2,11,35,8,,,,,,,,,,,,,,,,,,,,,,,,,,,,,,,,,,,,,,,,327.58533201005775,327.58533201005775,327.58533201005775,327.58533201005775,327.58533201005775,327.58533201005775,327.58533201005775,327.58533201005775,327.58533201005775,327.58533201005775,a,7.203758114017546,1,234,0,334.809849518002,336.31160521507263,,,,,,,,,,,,,,,,,,,,,,,,,,,,,,,,,,,,,,,,,,,,,,,,,,,,,,,,,,,,,,,,,,,,,,17658,2022-12-01_14h11.18.460,vts_reward_expectancy_bt_OFFLINE,2022.2.4,59.940586410437234,
0,1,0,0,0,0,1,0,circle,hexagon,0,0,0,0,3,0,36,4,,,,,,,,,,,,,,,,,,,,,,,,,,,,,,,,,,,,,,,,336.81186149909627,336.81186149909627,336.81186149909627,336.81186149909627,336.81186149909627,336.81186149909627,336.81186149909627,336.81186149909627,336.81186149909627,336.81186149909627,l,6.473673959029838,10,244,0,343.30267111503053,344.8041478630621,344.8041478630621,,,,,,,,,,,,,,,,,,,,,,,,,,,,,,,,,,,,,,,,,,,,,,,,,,,,,,,,,,,,,,,,,,,,,17658,2022-12-01_14h11.18.460,vts_reward_expectancy_bt_OFFLINE,2022.2.4,59.940586410437234,
0,0,1,0,0,0,0,1,hexagon,star,0,0,0,0,3,1,37,8,,,,,,,,,,,,,,,,,,,,,,,,,,,,,,,,,,,,,,,,345.3045324200066,345.3045324200066,345.3045324200066,345.3045324200066,345.3045324200066,345.3045324200066,345.3045324200066,345.3045324200066,345.3045324200066,345.3045324200066,l,7.396549705998041,10,254,0,352.729472919018,354.2312117490219,,,,,,,,,,,,,,,,,,,,,,,,,,,,,,,,,,,,,,,,,,,,,,,,,,,,,,,,,,,,,,,,,,,,,,17658,2022-12-01_14h11.18.460,vts_reward_expectancy_bt_OFFLINE,2022.2.4,59.940586410437234,
0,1,0,0,1,0,0,0,circle,triangle,0,0,0,0,3,2,38,3,,,,,,,,,,,,,,,,,,,,,,,,,,,,,,,,,,,,,,,,354.7315907240845,354.7315907240845,354.7315907240845,354.7315907240845,354.7315907240845,354.7315907240845,354.7315907240845,354.7315907240845,354.7315907240845,354.7315907240845,a,6.936676780926064,10,264,0,361.6896006700117,363.19101525109727,,,,,,,,,,,,,,,,,,,,,,,,,,,,,,,,,,,,,,,,,,,,,,,,,,,,,,,,,,,,,,,,,,,,,,17658,2022-12-01_14h11.18.460,vts_reward_expectancy_bt_OFFLINE,2022.2.4,59.940586410437234,
1,0,0,0,0,0,0,1,triangle,star,0,0,0,0,3,3,39,2,,,,,,,,,,,,,,,,,,,,,,,,,,,,,,,,,,,,,,,,363.6914804740809,363.6914804740809,363.6914804740809,363.6914804740809,363.6914804740809,363.6914804740809,363.6914804740809,363.6914804740809,363.6914804740809,363.6914804740809,l,7.617543120984919,10,274,0,371.33331875607837,372.83524947601836,,,,,,,,,,,,,,,,,,,,,,,,,,,,,,,,,,,,,,,,,,,,,,,,,,,,,,,,,,,,,,,,,,,,,,17658,2022-12-01_14h11.18.460,vts_reward_expectancy_bt_OFFLINE,2022.2.4,59.940586410437234,
1,0,0,0,0,1,0,0,triangle,circle,0,0,0,0,3,4,40,0,,,,,,,,,,,,,,,,,,,,,,,,,,,,,,,,,,,,,,,,373.33578415808734,373.33578415808734,373.33578415808734,373.33578415808734,373.33578415808734,373.33578415808734,373.33578415808734,373.33578415808734,373.33578415808734,373.33578415808734,l,3.305975985014811,10,284,0,376.6726932080928,378.1743795541115,,,,,,,,,,,,,,,,,,,,,,,,,,,,,,,,,,,,,,,,,,,,,,,,,,,,,,,,,,,,,,,,,,,,,,17658,2022-12-01_14h11.18.460,vts_reward_expectancy_bt_OFFLINE,2022.2.4,59.940586410437234,
0,0,0,1,1,0,0,0,star,triangle,0,0,0,0,3,5,41,9,,,,,,,,,,,,,,,,,,,,,,,,,,,,,,,,,,,,,,,,378.67476546403486,378.67476546403486,378.67476546403486,378.67476546403486,378.67476546403486,378.67476546403486,378.67476546403486,378.67476546403486,378.67476546403486,378.67476546403486,a,7.586873958003707,1,285,0,386.28324521903414,387.7850930891,387.7850930891,,,,,,,,,,,,,,,,,,,,,,,,,,,,,,,,,,,,,,,,,,,,,,,,,,,,,,,,,,,,,,,,,,,,,17658,2022-12-01_14h11.18.460,vts_reward_expectancy_bt_OFFLINE,2022.2.4,59.940586410437234,
0,1,0,0,0,0,0,1,circle,star,0,0,0,0,3,6,42,5,,,,,,,,,,,,,,,,,,,,,,,,,,,,,,,,,,,,,,,,388.28547189803794,388.28547189803794,388.28547189803794,388.28547189803794,388.28547189803794,388.28547189803794,388.28547189803794,388.28547189803794,388.28547189803794,388.28547189803794,a,6.493487099069171,10,295,0,394.80936280905735,396.31106197903864,,,,,,,,,,,,,,,,,,,,,,,,,,,,,,,,,,,,,,,,,,,,,,,,,,,,,,,,,,,,,,,,,,,,,,17658,2022-12-01_14h11.18.460,vts_reward_expectancy_bt_OFFLINE,2022.2.4,59.940586410437234,
0,0,1,0,1,0,0,0,hexagon,triangle,0,0,0,0,3,7,43,6,,,,,,,,,,,,,,,,,,,,,,,,,,,,,,,,,,,,,,,,396.8115652530687,396.8115652530687,396.8115652530687,396.8115652530687,396.8115652530687,396.8115652530687,396.8115652530687,396.8115652530687,396.8115652530687,396.8115652530687,a,5.583925376064144,1,296,0,402.41769968904555,403.9192520690849,,,,,,,,,,,,,,,,,,,,,,,,,,,,,,,,,,,,,,,,,,,,,,,,,,,,,,,,,,,,,,,,,,,,,,17658,2022-12-01_14h11.18.460,vts_reward_expectancy_bt_OFFLINE,2022.2.4,59.940586410437234,
0,0,0,1,0,0,1,0,star,hexagon,0,0,0,0,3,8,44,11,,,,,,,,,,,,,,,,,,,,,,,,,,,,,,,,,,,,,,,,404.4198034181027,404.4198034181027,404.4198034181027,404.4198034181027,404.4198034181027,404.4198034181027,404.4198034181027,404.4198034181027,404.4198034181027,404.4198034181027,l,5.998045240994543,10,306,0,410.44314101408236,411.9448949380312,,,,,,,,,,,,,,,,,,,,,,,,,,,,,,,,,,,,,,,,,,,,,,,,,,,,,,,,,,,,,,,,,,,,,,17658,2022-12-01_14h11.18.460,vts_reward_expectancy_bt_OFFLINE,2022.2.4,59.940586410437234,
1,0,0,0,0,0,1,0,triangle,hexagon,0,0,0,0,3,9,45,1,,,,,,,,,,,,,,,,,,,,,,,,,,,,,,,,,,,,,,,,412.44538964808453,412.44538964808453,412.44538964808453,412.44538964808453,412.44538964808453,412.44538964808453,412.44538964808453,412.44538964808453,412.44538964808453,412.44538964808453,l,11.811823064927012,10,316,0,424.2751103530172,425.77674459305126,,,,,,,,,,,,,,,,,,,,,,,,,,,,,,,,,,,,,,,,,,,,,,,,,,,,,,,,,,,,,,,,,,,,,,17658,2022-12-01_14h11.18.460,vts_reward_expectancy_bt_OFFLINE,2022.2.4,59.940586410437234,
0,0,1,0,0,1,0,0,hexagon,circle,0,0,0,0,3,10,46,7,,,,,,,,,,,,,,,,,,,,,,,,,,,,,,,,,,,,,,,,426.2774267550558,426.2774267550558,426.2774267550558,426.2774267550558,426.2774267550558,426.2774267550558,426.2774267550558,426.2774267550558,426.2774267550558,426.2774267550558,a,2.153415675042197,1,317,0,428.4630359651055,429.96466581104323,,,,,,,,,,,,,,,,,,,,,,,,,,,,,,,,,,,,,,,,,,,,,,,,,,,,,,,,,,,,,,,,,,,,,,17658,2022-12-01_14h11.18.460,vts_reward_expectancy_bt_OFFLINE,2022.2.4,59.940586410437234,
0,0,0,1,0,1,0,0,star ,circle,0,0,0,0,3,11,47,10,,,,,,,,,,,,,,,,,,,,,,,,,,,,,,,,,,,,,,,,430.4652030210709,430.4652030210709,430.4652030210709,430.4652030210709,430.4652030210709,430.4652030210709,430.4652030210709,430.4652030210709,430.4652030210709,430.4652030210709,a,3.4668589249486104,1,318,0,433.9524375241017,435.4541213910561,,,,,,,,,,,,,,,,,,,,,,,,,,,,,,,,,,,,,,,,,,,,,,,,,,,,,,,,,,,,,,,,,,,,,,17658,2022-12-01_14h11.18.460,vts_reward_expectancy_bt_OFFLINE,2022.2.4,59.940586410437234,
0,0,1,0,0,0,0,1,hexagon,star,1,0,1,0,0,0,0,8,,,,,,,,,,,,,,,,,,,,,,,,,,,,,,,,,,,,,,,,438.04049946099985,438.04049946099985,438.04049946099985,438.04049946099985,438.04049946099985,438.04049946099985,438.04049946099985,438.04049946099985,438.04049946099985,438.04049946099985,a,6.781765927909873,1,319,1,444.84797455300577,446.34938308410347,446.34938308410347,,,,,,,,,,,,,,,,,,,,,,,,,,,,,,,,,,,,,,,,,,,,,,,,,,,,,,,,,,,,,,,,,,,,,17658,2022-12-01_14h11.18.460,vts_reward_expectancy_bt_OFFLINE,2022.2.4,59.940586410437234,
0,0,1,0,1,0,0,0,hexagon,triangle,1,0,1,0,0,1,1,6,,,,,,,,,,,,,,,,,,,,,,,,,,,,,,,,,,,,,,,,446.8498308310518,446.8498308310518,446.8498308310518,446.8498308310518,446.8498308310518,446.8498308310518,446.8498308310518,446.8498308310518,446.8498308310518,446.8498308310518,a,5.490345495054498,1,320,1,452.3728144300403,453.8744596550241,,,,,,,,,,,,,,,,,,,,,,,,,,,,,,,,,,,,,,,,,,,,,,,,,,,,,,,,,,,,,,,,,,,,,,17658,2022-12-01_14h11.18.460,vts_reward_expectancy_bt_OFFLINE,2022.2.4,59.940586410437234,
0,1,0,0,0,0,1,0,circle,hexagon,1,0,1,0,0,2,2,4,,,,,,,,,,,,,,,,,,,,,,,,,,,,,,,,,,,,,,,,454.37495366309304,454.37495366309304,454.37495366309304,454.37495366309304,454.37495366309304,454.37495366309304,454.37495366309304,454.37495366309304,454.37495366309304,454.37495366309304,l,1.834379478939809,10,330,1,456.2271368401125,457.72875369305257,457.72875369305257,,,,,,,,,,,,,,,,,,,,,,,,,,,,,,,,,,,,,,,,,,,,,,,,,,,,,,,,,,,,,,,,,,,,,17658,2022-12-01_14h11.18.460,vts_reward_expectancy_bt_OFFLINE,2022.2.4,59.940586410437234,
1,0,0,0,0,0,1,0,triangle,hexagon,1,0,1,0,0,3,3,1,,,,,,,,,,,,,,,,,,,,,,,,,,,,,,,,,,,,,,,,458.2293241460575,458.2293241460575,458.2293241460575,458.2293241460575,458.2293241460575,458.2293241460575,458.2293241460575,458.2293241460575,458.2293241460575,458.2293241460575,l,0.19479192094877362,10,340,1,458.4460376300849,459.94787152006757,,,,,,,,,,,,,,,,,,,,,,,,,,,,,,,,,,,,,,,,,,,,,,,,,,,,,,,,,,,,,,,,,,,,,,17658,2022-12-01_14h11.18.460,vts_reward_expectancy_bt_OFFLINE,2022.2.4,59.940586410437234,
0,0,1,0,0,1,0,0,hexagon,circle,1,0,1,0,0,4,4,7,,,,,,,,,,,,,,,,,,,,,,,,,,,,,,,,,,,,,,,,460.4482724800473,460.4482724800473,460.4482724800473,460.4482724800473,460.4482724800473,460.4482724800473,460.4482724800473,460.4482724800473,460.4482724800473,460.4482724800473,l,0.14896864700131118,10,350,1,460.6151347811101,462.1169013690669,,,,,,,,,,,,,,,,,,,,,,,,,,,,,,,,,,,,,,,,,,,,,,,,,,,,,,,,,,,,,,,,,,,,,,17658,2022-12-01_14h11.18.460,vts_reward_expectancy_bt_OFFLINE,2022.2.4,59.940586410437234,
1,0,0,0,0,0,0,1,triangle,star,1,0,1,0,0,5,5,2,,,,,,,,,,,,,,,,,,,,,,,,,,,,,,,,,,,,,,,,462.61737275100313,462.61737275100313,462.61737275100313,462.61737275100313,462.61737275100313,462.61737275100313,462.61737275100313,462.61737275100313,462.61737275100313,462.61737275100313,l,1.5897452280623838,10,360,1,464.23575564904604,465.73755459301174,,,,,,,,,,,,,,,,,,,,,,,,,,,,,,,,,,,,,,,,,,,,,,,,,,,,,,,,,,,,,,,,,,,,,,17658,2022-12-01_14h11.18.460,vts_reward_expectancy_bt_OFFLINE,2022.2.4,59.940586410437234,
0,0,0,1,0,0,1,0,star,hexagon,1,0,1,0,0,6,6,11,,,,,,,,,,,,,,,,,,,,,,,,,,,,,,,,,,,,,,,,466.23818106600083,466.23818106600083,466.23818106600083,466.23818106600083,466.23818106600083,466.23818106600083,466.23818106600083,466.23818106600083,466.23818106600083,466.23818106600083,l,0.005942605086602271,10,370,1,466.27128403109964,467.77313020604197,,,,,,,,,,,,,,,,,,,,,,,,,,,,,,,,,,,,,,,,,,,,,,,,,,,,,,,,,,,,,,,,,,,,,,17658,2022-12-01_14h11.18.460,vts_reward_expectancy_bt_OFFLINE,2022.2.4,59.940586410437234,
0,1,0,0,1,0,0,0,circle,triangle,1,0,1,0,0,7,7,3,,,,,,,,,,,,,,,,,,,,,,,,,,,,,,,,,,,,,,,,468.2737344580237,468.2737344580237,468.2737344580237,468.2737344580237,468.2737344580237,468.2737344580237,468.2737344580237,468.2737344580237,468.2737344580237,468.2737344580237,l,0.06267279700841755,10,380,1,468.35702775104437,469.85866333311424,,,,,,,,,,,,,,,,,,,,,,,,,,,,,,,,,,,,,,,,,,,,,,,,,,,,,,,,,,,,,,,,,,,,,,17658,2022-12-01_14h11.18.460,vts_reward_expectancy_bt_OFFLINE,2022.2.4,59.940586410437234,
0,0,0,1,0,1,0,0,star ,circle,1,0,1,0,0,8,8,10,,,,,,,,,,,,,,,,,,,,,,,,,,,,,,,,,,,,,,,,470.3593263560906,470.3593263560906,470.3593263560906,470.3593263560906,470.3593263560906,470.3593263560906,470.3593263560906,470.3593263560906,470.3593263560906,470.3593263560906,l,0.03595700208097696,1,381,1,470.4259434910491,471.9278204590082,,,,,,,,,,,,,,,,,,,,,,,,,,,,,,,,,,,,,,,,,,,,,,,,,,,,,,,,,,,,,,,,,,,,,,17658,2022-12-01_14h11.18.460,vts_reward_expectancy_bt_OFFLINE,2022.2.4,59.940586410437234,
0,1,0,0,0,0,0,1,circle,star,1,0,1,0,0,9,9,5,,,,,,,,,,,,,,,,,,,,,,,,,,,,,,,,,,,,,,,,472.42833564500324,472.42833564500324,472.42833564500324,472.42833564500324,472.42833564500324,472.42833564500324,472.42833564500324,472.42833564500324,472.42833564500324,472.42833564500324,l,1.7473880220204592,1,382,1,474.19821227306966,475.69856329006143,,,,,,,,,,,,,,,,,,,,,,,,,,,,,,,,,,,,,,,,,,,,,,,,,,,,,,,,,,,,,,,,,,,,,,17658,2022-12-01_14h11.18.460,vts_reward_expectancy_bt_OFFLINE,2022.2.4,59.940586410437234,
1,0,0,0,0,1,0,0,triangle,circle,1,0,1,0,0,10,10,0,,,,,,,,,,,,,,,,,,,,,,,,,,,,,,,,,,,,,,,,476.199086139095,476.199086139095,476.199086139095,476.199086139095,476.199086139095,476.199086139095,476.199086139095,476.199086139095,476.199086139095,476.199086139095,l,0.463494380004704,1,383,1,476.6831270980183,478.18460311507806,,,,,,,,,,,,,,,,,,,,,,,,,,,,,,,,,,,,,,,,,,,,,,,,,,,,,,,,,,,,,,,,,,,,,,17658,2022-12-01_14h11.18.460,vts_reward_expectancy_bt_OFFLINE,2022.2.4,59.940586410437234,
0,0,0,1,1,0,0,0,star,triangle,1,0,1,0,0,11,11,9,,,,,,,,,,,,,,,,,,,,,,,,,,,,,,,,,,,,,,,,478.68524689006153,478.68524689006153,478.68524689006153,478.68524689006153,478.68524689006153,478.68524689006153,478.68524689006153,478.68524689006153,478.68524689006153,478.68524689006153,l,0.2508565980242565,1,384,1,478.96874170401134,480.4705001390539,,,,,,,,,,,,,,,,,,,,,,,,,,,,,,,,,,,,,,,,,,,,,,,,,,,,,,,,,,,,,,,,,,,,,,17658,2022-12-01_14h11.18.460,vts_reward_expectancy_bt_OFFLINE,2022.2.4,59.940586410437234,
0,0,0,1,1,0,0,0,star,triangle,1,0,1,0,1,0,12,9,,,,,,,,,,,,,,,,,,,,,,,,,,,,,,,,,,,,,,,,480.97109890508,480.97109890508,480.97109890508,480.97109890508,480.97109890508,480.97109890508,480.97109890508,480.97109890508,480.97109890508,480.97109890508,l,0.17961336497683078,1,385,1,481.1725615489995,482.67293574509677,,,,,,,,,,,,,,,,,,,,,,,,,,,,,,,,,,,,,,,,,,,,,,,,,,,,,,,,,,,,,,,,,,,,,,17658,2022-12-01_14h11.18.460,vts_reward_expectancy_bt_OFFLINE,2022.2.4,59.940586410437234,
0,1,0,0,1,0,0,0,circle,triangle,1,0,1,0,1,1,13,3,,,,,,,,,,,,,,,,,,,,,,,,,,,,,,,,,,,,,,,,483.17369023303036,483.17369023303036,483.17369023303036,483.17369023303036,483.17369023303036,483.17369023303036,483.17369023303036,483.17369023303036,483.17369023303036,483.17369023303036,l,0.15985410893335938,1,386,1,483.3571285980288,484.8587194751017,,,,,,,,,,,,,,,,,,,,,,,,,,,,,,,,,,,,,,,,,,,,,,,,,,,,,,,,,,,,,,,,,,,,,,17658,2022-12-01_14h11.18.460,vts_reward_expectancy_bt_OFFLINE,2022.2.4,59.940586410437234,
1,0,0,0,0,1,0,0,triangle,circle,1,0,1,0,1,2,14,0,,,,,,,,,,,,,,,,,,,,,,,,,,,,,,,,,,,,,,,,485.35930515406653,485.35930515406653,485.35930515406653,485.35930515406653,485.35930515406653,485.35930515406653,485.35930515406653,485.35930515406653,485.35930515406653,485.35930515406653,l,0.5517273820005357,1,387,1,485.943328618072,487.4447868440766,,,,,,,,,,,,,,,,,,,,,,,,,,,,,,,,,,,,,,,,,,,,,,,,,,,,,,,,,,,,,,,,,,,,,,17658,2022-12-01_14h11.18.460,vts_reward_expectancy_bt_OFFLINE,2022.2.4,59.940586410437234,
0,0,0,1,0,1,0,0,star ,circle,1,0,1,0,1,3,15,10,,,,,,,,,,,,,,,,,,,,,,,,,,,,,,,,,,,,,,,,487.9453101210529,487.9453101210529,487.9453101210529,487.9453101210529,487.9453101210529,487.9453101210529,487.9453101210529,487.9453101210529,487.9453101210529,487.9453101210529,l,0.012481585028581321,10,397,1,487.9789849300869,489.4804153960431,,,,,,,,,,,,,,,,,,,,,,,,,,,,,,,,,,,,,,,,,,,,,,,,,,,,,,,,,,,,,,,,,,,,,,17658,2022-12-01_14h11.18.460,vts_reward_expectancy_bt_OFFLINE,2022.2.4,59.940586410437234,
0,1,0,0,0,0,0,1,circle,star,1,0,1,0,1,4,16,5,,,,,,,,,,,,,,,,,,,,,,,,,,,,,,,,,,,,,,,,489.98091012006626,489.98091012006626,489.98091012006626,489.98091012006626,489.98091012006626,489.98091012006626,489.98091012006626,489.98091012006626,489.98091012006626,489.98091012006626,l,1.8138796819839627,10,407,1,491.8162134010345,493.317884641001,,,,,,,,,,,,,,,,,,,,,,,,,,,,,,,,,,,,,,,,,,,,,,,,,,,,,,,,,,,,,,,,,,,,,,17658,2022-12-01_14h11.18.460,vts_reward_expectancy_bt_OFFLINE,2022.2.4,59.940586410437234,
0,0,1,0,0,0,0,1,hexagon,star,1,0,1,0,1,5,17,8,,,,,,,,,,,,,,,,,,,,,,,,,,,,,,,,,,,,,,,,493.8183644990204,493.8183644990204,493.8183644990204,493.8183644990204,493.8183644990204,493.8183644990204,493.8183644990204,493.8183644990204,493.8183644990204,493.8183644990204,l,0.5185947709251195,1,408,1,494.3691355960909,495.87067014409695,,,,,,,,,,,,,,,,,,,,,,,,,,,,,,,,,,,,,,,,,,,,,,,,,,,,,,,,,,,,,,,,,,,,,,17658,2022-12-01_14h11.18.460,vts_reward_expectancy_bt_OFFLINE,2022.2.4,59.940586410437234,
1,0,0,0,0,0,1,0,triangle,hexagon,1,0,1,0,1,6,18,1,,,,,,,,,,,,,,,,,,,,,,,,,,,,,,,,,,,,,,,,496.371103720041,496.371103720041,496.371103720041,496.371103720041,496.371103720041,496.371103720041,496.371103720041,496.371103720041,496.371103720041,496.371103720041,l,0.42967484099790454,10,418,1,496.8221714460524,498.3234102081042,,,,,,,,,,,,,,,,,,,,,,,,,,,,,,,,,,,,,,,,,,,,,,,,,,,,,,,,,,,,,,,,,,,,,,17658,2022-12-01_14h11.18.460,vts_reward_expectancy_bt_OFFLINE,2022.2.4,59.940586410437234,
0,1,0,0,0,0,1,0,circle,hexagon,1,0,1,0,1,7,19,4,,,,,,,,,,,,,,,,,,,,,,,,,,,,,,,,,,,,,,,,498.82452407910023,498.82452407910023,498.82452407910023,498.82452407910023,498.82452407910023,498.82452407910023,498.82452407910023,498.82452407910023,498.82452407910023,498.82452407910023,l,0.06936092209070921,10,428,1,498.9240941440221,500.4257072410546,,,,,,,,,,,,,,,,,,,,,,,,,,,,,,,,,,,,,,,,,,,,,,,,,,,,,,,,,,,,,,,,,,,,,,17658,2022-12-01_14h11.18.460,vts_reward_expectancy_bt_OFFLINE,2022.2.4,59.940586410437234,
0,0,1,0,0,1,0,0,hexagon,circle,1,0,1,0,1,8,20,7,,,,,,,,,,,,,,,,,,,,,,,,,,,,,,,,,,,,,,,,500.92615262407344,500.92615262407344,500.92615262407344,500.92615262407344,500.92615262407344,500.92615262407344,500.92615262407344,500.92615262407344,500.92615262407344,500.92615262407344,l,0.19511123502161354,1,429,1,501.1434647690039,502.64505242404994,,,,,,,,,,,,,,,,,,,,,,,,,,,,,,,,,,,,,,,,,,,,,,,,,,,,,,,,,,,,,,,,,,,,,,17658,2022-12-01_14h11.18.460,vts_reward_expectancy_bt_OFFLINE,2022.2.4,59.940586410437234,
1,0,0,0,0,0,0,1,triangle,star,1,0,1,0,1,9,21,2,,,,,,,,,,,,,,,,,,,,,,,,,,,,,,,,,,,,,,,,503.1454975550296,503.1454975550296,503.1454975550296,503.1454975550296,503.1454975550296,503.1454975550296,503.1454975550296,503.1454975550296,503.1454975550296,503.1454975550296,l,0.125357600976713,10,439,1,503.29626990808174,504.79716870805714,,,,,,,,,,,,,,,,,,,,,,,,,,,,,,,,,,,,,,,,,,,,,,,,,,,,,,,,,,,,,,,,,,,,,,17658,2022-12-01_14h11.18.460,vts_reward_expectancy_bt_OFFLINE,2022.2.4,59.940586410437234,
0,0,1,0,1,0,0,0,hexagon,triangle,1,0,1,0,1,10,22,6,,,,,,,,,,,,,,,,,,,,,,,,,,,,,,,,,,,,,,,,505.2979730680818,505.2979730680818,505.2979730680818,505.2979730680818,505.2979730680818,505.2979730680818,505.2979730680818,505.2979730680818,505.2979730680818,505.2979730680818,l,0.7518331489991397,1,440,1,506.0820172280073,507.5837274530204,,,,,,,,,,,,,,,,,,,,,,,,,,,,,,,,,,,,,,,,,,,,,,,,,,,,,,,,,,,,,,,,,,,,,,17658,2022-12-01_14h11.18.460,vts_reward_expectancy_bt_OFFLINE,2022.2.4,59.940586410437234,
0,0,0,1,0,0,1,0,star,hexagon,1,0,1,0,1,11,23,11,,,,,,,,,,,,,,,,,,,,,,,,,,,,,,,,,,,,,,,,508.0844129860634,508.0844129860634,508.0844129860634,508.0844129860634,508.0844129860634,508.0844129860634,508.0844129860634,508.0844129860634,508.0844129860634,508.0844129860634,l,0.034657802898436785,10,450,1,508.15094157506246,509.6527826960664,,,,,,,,,,,,,,,,,,,,,,,,,,,,,,,,,,,,,,,,,,,,,,,,,,,,,,,,,,,,,,,,,,,,,,17658,2022-12-01_14h11.18.460,vts_reward_expectancy_bt_OFFLINE,2022.2.4,59.940586410437234,
0,0,0,1,1,0,0,0,star,triangle,1,0,1,0,2,0,24,9,,,,,,,,,,,,,,,,,,,,,,,,,,,,,,,,,,,,,,,,510.15354475507047,510.15354475507047,510.15354475507047,510.15354475507047,510.15354475507047,510.15354475507047,510.15354475507047,510.15354475507047,510.15354475507047,510.15354475507047,l,0.13672082300763577,10,460,1,510.32002201408613,511.82177657308057,,,,,,,,,,,,,,,,,,,,,,,,,,,,,,,,,,,,,,,,,,,,,,,,,,,,,,,,,,,,,,,,,,,,,,17658,2022-12-01_14h11.18.460,vts_reward_expectancy_bt_OFFLINE,2022.2.4,59.940586410437234,
1,0,0,0,0,0,0,1,triangle,star,1,0,1,0,2,1,25,2,,,,,,,,,,,,,,,,,,,,,,,,,,,,,,,,,,,,,,,,512.3224547581049,512.3224547581049,512.3224547581049,512.3224547581049,512.3224547581049,512.3224547581049,512.3224547581049,512.3224547581049,512.3224547581049,512.3224547581049,l,0.09481133206281811,10,470,1,512.4390641601058,513.9407700890442,,,,,,,,,,,,,,,,,,,,,,,,,,,,,,,,,,,,,,,,,,,,,,,,,,,,,,,,,,,,,,,,,,,,,,17658,2022-12-01_14h11.18.460,vts_reward_expectancy_bt_OFFLINE,2022.2.4,59.940586410437234,
0,0,1,0,1,0,0,0,hexagon,triangle,1,0,1,0,2,2,26,6,,,,,,,,,,,,,,,,,,,,,,,,,,,,,,,,,,,,,,,,514.4413022251101,514.4413022251101,514.4413022251101,514.4413022251101,514.4413022251101,514.4413022251101,514.4413022251101,514.4413022251101,514.4413022251101,514.4413022251101,l,0.4850039619486779,1,471,1,514.9585683380719,516.4601610010723,,,,,,,,,,,,,,,,,,,,,,,,,,,,,,,,,,,,,,,,,,,,,,,,,,,,,,,,,,,,,,,,,,,,,,17658,2022-12-01_14h11.18.460,vts_reward_expectancy_bt_OFFLINE,2022.2.4,59.940586410437234,
1,0,0,0,0,0,1,0,triangle,hexagon,1,0,1,0,2,3,27,1,,,,,,,,,,,,,,,,,,,,,,,,,,,,,,,,,,,,,,,,516.9607115540421,516.9607115540421,516.9607115540421,516.9607115540421,516.9607115540421,516.9607115540421,516.9607115540421,516.9607115540421,516.9607115540421,516.9607115540421,l,0.11619569489266723,1,472,1,517.0943715230096,518.5958213891136,518.5958213891136,,,,,,,,,,,,,,,,,,,,,,,,,,,,,,,,,,,,,,,,,,,,,,,,,,,,,,,,,,,,,,,,,,,,,17658,2022-12-01_14h11.18.460,vts_reward_expectancy_bt_OFFLINE,2022.2.4,59.940586410437234,
0,0,0,1,0,0,1,0,star,hexagon,1,0,1,0,2,4,28,11,,,,,,,,,,,,,,,,,,,,,,,,,,,,,,,,,,,,,,,,519.0965356701054,519.0965356701054,519.0965356701054,519.0965356701054,519.0965356701054,519.0965356701054,519.0965356701054,519.0965356701054,519.0965356701054,519.0965356701054,l,1.7809013799997047,1,473,1,520.8981102530379,522.4002114140894,,,,,,,,,,,,,,,,,,,,,,,,,,,,,,,,,,,,,,,,,,,,,,,,,,,,,,,,,,,,,,,,,,,,,,17658,2022-12-01_14h11.18.460,vts_reward_expectancy_bt_OFFLINE,2022.2.4,59.940586410437234,
0,1,0,0,0,0,1,0,circle,hexagon,1,0,1,0,2,5,29,4,,,,,,,,,,,,,,,,,,,,,,,,,,,,,,,,,,,,,,,,522.9007396200905,522.9007396200905,522.9007396200905,522.9007396200905,522.9007396200905,522.9007396200905,522.9007396200905,522.9007396200905,522.9007396200905,522.9007396200905,l,0.06929501506965607,1,474,1,523.0007379460149,524.5024488361087,524.5024488361087,,,,,,,,,,,,,,,,,,,,,,,,,,,,,,,,,,,,,,,,,,,,,,,,,,,,,,,,,,,,,,,,,,,,,17658,2022-12-01_14h11.18.460,vts_reward_expectancy_bt_OFFLINE,2022.2.4,59.940586410437234,
0,0,1,0,0,0,0,1,hexagon,star,1,0,1,0,2,6,30,8,,,,,,,,,,,,,,,,,,,,,,,,,,,,,,,,,,,,,,,,525.0029640840366,525.0029640840366,525.0029640840366,525.0029640840366,525.0029640840366,525.0029640840366,525.0029640840366,525.0029640840366,525.0029640840366,525.0029640840366,l,0.05066151497885585,10,484,1,525.0864125690423,526.5879785451107,,,,,,,,,,,,,,,,,,,,,,,,,,,,,,,,,,,,,,,,,,,,,,,,,,,,,,,,,,,,,,,,,,,,,,17658,2022-12-01_14h11.18.460,vts_reward_expectancy_bt_OFFLINE,2022.2.4,59.940586410437234,
1,0,0,0,0,1,0,0,triangle,circle,1,0,1,0,2,7,31,0,,,,,,,,,,,,,,,,,,,,,,,,,,,,,,,,,,,,,,,,527.0884204310132,527.0884204310132,527.0884204310132,527.0884204310132,527.0884204310132,527.0884204310132,527.0884204310132,527.0884204310132,527.0884204310132,527.0884204310132,l,0.034199006971903145,10,494,1,527.1551896861056,528.6570873900782,528.6570873900782,,,,,,,,,,,,,,,,,,,,,,,,,,,,,,,,,,,,,,,,,,,,,,,,,,,,,,,,,,,,,,,,,,,,,17658,2022-12-01_14h11.18.460,vts_reward_expectancy_bt_OFFLINE,2022.2.4,59.940586410437234,
0,0,1,0,0,1,0,0,hexagon,circle,1,0,1,0,2,8,32,7,,,,,,,,,,,,,,,,,,,,,,,,,,,,,,,,,,,,,,,,529.1574335750192,529.1574335750192,529.1574335750192,529.1574335750192,529.1574335750192,529.1574335750192,529.1574335750192,529.1574335750192,529.1574335750192,529.1574335750192,l,0.14852481393609196,1,495,1,529.3410205600085,530.8259342930978,,,,,,,,,,,,,,,,,,,,,,,,,,,,,,,,,,,,,,,,,,,,,,,,,,,,,,,,,,,,,,,,,,,,,,17658,2022-12-01_14h11.18.460,vts_reward_expectancy_bt_OFFLINE,2022.2.4,59.940586410437234,
0,1,0,0,1,0,0,0,circle,triangle,1,0,1,0,2,9,33,3,,,,,,,,,,,,,,,,,,,,,,,,,,,,,,,,,,,,,,,,531.3265959130367,531.3265959130367,531.3265959130367,531.3265959130367,531.3265959130367,531.3265959130367,531.3265959130367,531.3265959130367,531.3265959130367,531.3265959130367,l,0.02575904200784862,1,496,1,531.3767125610029,532.8784233230399,,,,,,,,,,,,,,,,,,,,,,,,,,,,,,,,,,,,,,,,,,,,,,,,,,,,,,,,,,,,,,,,,,,,,,17658,2022-12-01_14h11.18.460,vts_reward_expectancy_bt_OFFLINE,2022.2.4,59.940586410437234,
0,0,0,1,0,1,0,0,star ,circle,1,0,1,0,2,10,34,10,,,,,,,,,,,,,,,,,,,,,,,,,,,,,,,,,,,,,,,,533.3789906600723,533.3789906600723,533.3789906600723,533.3789906600723,533.3789906600723,533.3789906600723,533.3789906600723,533.3789906600723,533.3789906600723,533.3789906600723,l,0.24582931492477655,1,497,1,533.6459152540192,535.1474214560585,,,,,,,,,,,,,,,,,,,,,,,,,,,,,,,,,,,,,,,,,,,,,,,,,,,,,,,,,,,,,,,,,,,,,,17658,2022-12-01_14h11.18.460,vts_reward_expectancy_bt_OFFLINE,2022.2.4,59.940586410437234,
0,1,0,0,0,0,0,1,circle,star,1,0,1,0,2,11,35,5,,,,,,,,,,,,,,,,,,,,,,,,,,,,,,,,,,,,,,,,535.6482595410198,535.6482595410198,535.6482595410198,535.6482595410198,535.6482595410198,535.6482595410198,535.6482595410198,535.6482595410198,535.6482595410198,535.6482595410198,l,0.0250519149703905,10,507,1,535.7149205181049,537.1997503390303,,,,,,,,,,,,,,,,,,,,,,,,,,,,,,,,,,,,,,,,,,,,,,,,,,,,,,,,,,,,,,,,,,,,,,17658,2022-12-01_14h11.18.460,vts_reward_expectancy_bt_OFFLINE,2022.2.4,59.940586410437234,
1,0,0,0,0,1,0,0,triangle,circle,1,0,1,0,3,0,36,0,,,,,,,,,,,,,,,,,,,,,,,,,,,,,,,,,,,,,,,,537.7005355440779,537.7005355440779,537.7005355440779,537.7005355440779,537.7005355440779,537.7005355440779,537.7005355440779,537.7005355440779,537.7005355440779,537.7005355440779,l,0.1888776869745925,10,517,1,537.9170059980825,539.4189184100833,,,,,,,,,,,,,,,,,,,,,,,,,,,,,,,,,,,,,,,,,,,,,,,,,,,,,,,,,,,,,,,,,,,,,,17658,2022-12-01_14h11.18.460,vts_reward_expectancy_bt_OFFLINE,2022.2.4,59.940586410437234,
0,0,0,1,1,0,0,0,star,triangle,1,0,1,0,3,1,37,9,,,,,,,,,,,,,,,,,,,,,,,,,,,,,,,,,,,,,,,,539.9194081460591,539.9194081460591,539.9194081460591,539.9194081460591,539.9194081460591,539.9194081460591,539.9194081460591,539.9194081460591,539.9194081460591,539.9194081460591,l,0.09636084595695138,10,527,1,540.0360804240918,541.53803561104,,,,,,,,,,,,,,,,,,,,,,,,,,,,,,,,,,,,,,,,,,,,,,,,,,,,,,,,,,,,,,,,,,,,,,17658,2022-12-01_14h11.18.460,vts_reward_expectancy_bt_OFFLINE,2022.2.4,59.940586410437234,
0,1,0,0,1,0,0,0,circle,triangle,1,0,1,0,3,2,38,3,,,,,,,,,,,,,,,,,,,,,,,,,,,,,,,,,,,,,,,,542.0383841830771,542.0383841830771,542.0383841830771,542.0383841830771,542.0383841830771,542.0383841830771,542.0383841830771,542.0383841830771,542.0383841830771,542.0383841830771,l,0.06978121097199619,1,528,1,542.1385552930878,543.6400974080898,543.6400974080898,544.1405746930977,,,,,,,,,,,,,,,,,,,,,,,,,,,,,,,,,,,,,,,,,,,,,,,,,,,,,,,,,,,,,,,,,,,,17658,2022-12-01_14h11.18.460,vts_reward_expectancy_bt_OFFLINE,2022.2.4,59.940586410437234,
1,0,0,0,0,0,1,0,triangle,hexagon,1,0,1,0,3,3,39,1,,,,,,,,,,,,,,,,,,,,,,,,,,,,,,,,,,,,,,,,544.1405746930977,544.1405746930977,544.1405746930977,544.1405746930977,544.1405746930977,544.1405746930977,544.1405746930977,544.1405746930977,544.1405746930977,544.1405746930977,l,0.017391765024513006,1,529,1,544.1906125110108,545.6923653110862,545.6923653110862,,,,,,,,,,,,,,,,,,,,,,,,,,,,,,,,,,,,,,,,,,,,,,,,,,,,,,,,,,,,,,,,,,,,,17658,2022-12-01_14h11.18.460,vts_reward_expectancy_bt_OFFLINE,2022.2.4,59.940586410437234,
0,1,0,0,0,0,0,1,circle,star,1,0,1,0,3,4,40,5,,,,,,,,,,,,,,,,,,,,,,,,,,,,,,,,,,,,,,,,546.1928364430787,546.1928364430787,546.1928364430787,546.1928364430787,546.1928364430787,546.1928364430787,546.1928364430787,546.1928364430787,546.1928364430787,546.1928364430787,l,0.17996210604906082,1,530,1,546.393389973091,547.8948039010866,547.8948039010866,,,,,,,,,,,,,,,,,,,,,,,,,,,,,,,,,,,,,,,,,,,,,,,,,,,,,,,,,,,,,,,,,,,,,17658,2022-12-01_14h11.18.460,vts_reward_expectancy_bt_OFFLINE,2022.2.4,59.940586410437234,
0,0,1,0,0,1,0,0,hexagon,circle,1,0,1,0,3,5,41,7,,,,,,,,,,,,,,,,,,,,,,,,,,,,,,,,,,,,,,,,548.3968768561026,548.3968768561026,548.3968768561026,548.3968768561026,548.3968768561026,548.3968768561026,548.3968768561026,548.3968768561026,548.3968768561026,548.3968768561026,l,0.39446728001348674,10,540,1,548.8293005110463,550.3142619960709,,,,,,,,,,,,,,,,,,,,,,,,,,,,,,,,,,,,,,,,,,,,,,,,,,,,,,,,,,,,,,,,,,,,,,17658,2022-12-01_14h11.18.460,vts_reward_expectancy_bt_OFFLINE,2022.2.4,59.940586410437234,
0,0,1,0,1,0,0,0,hexagon,triangle,1,0,1,0,3,6,42,6,,,,,,,,,,,,,,,,,,,,,,,,,,,,,,,,,,,,,,,,550.8148907000432,550.8148907000432,550.8148907000432,550.8148907000432,550.8148907000432,550.8148907000432,550.8148907000432,550.8148907000432,550.8148907000432,550.8148907000432,l,0.18333410006016493,1,541,1,551.0317018610658,552.5332472330192,,,,,,,,,,,,,,,,,,,,,,,,,,,,,,,,,,,,,,,,,,,,,,,,,,,,,,,,,,,,,,,,,,,,,,17658,2022-12-01_14h11.18.460,vts_reward_expectancy_bt_OFFLINE,2022.2.4,59.940586410437234,
0,0,0,1,0,1,0,0,star ,circle,1,0,1,0,3,7,43,10,,,,,,,,,,,,,,,,,,,,,,,,,,,,,,,,,,,,,,,,553.0170959180687,553.0170959180687,553.0170959180687,553.0170959180687,553.0170959180687,553.0170959180687,553.0170959180687,553.0170959180687,553.0170959180687,553.0170959180687,l,0.016962080029770732,10,551,1,553.067325264099,554.5688149310881,,,,,,,,,,,,,,,,,,,,,,,,,,,,,,,,,,,,,,,,,,,,,,,,,,,,,,,,,,,,,,,,,,,,,,17658,2022-12-01_14h11.18.460,vts_reward_expectancy_bt_OFFLINE,2022.2.4,59.940586410437234,
0,0,0,1,0,0,1,0,star,hexagon,1,0,1,0,3,8,44,11,,,,,,,,,,,,,,,,,,,,,,,,,,,,,,,,,,,,,,,,555.0527366400929,555.0527366400929,555.0527366400929,555.0527366400929,555.0527366400929,555.0527366400929,555.0527366400929,555.0527366400929,555.0527366400929,555.0527366400929,l,0.17413627402856946,1,552,1,555.2696804890875,556.7547008200781,,,,,,,,,,,,,,,,,,,,,,,,,,,,,,,,,,,,,,,,,,,,,,,,,,,,,,,,,,,,,,,,,,,,,,17658,2022-12-01_14h11.18.460,vts_reward_expectancy_bt_OFFLINE,2022.2.4,59.940586410437234,
1,0,0,0,0,0,0,1,triangle,star,1,0,1,0,3,9,45,2,,,,,,,,,,,,,,,,,,,,,,,,,,,,,,,,,,,,,,,,557.2551439600065,557.2551439600065,557.2551439600065,557.2551439600065,557.2551439600065,557.2551439600065,557.2551439600065,557.2551439600065,557.2551439600065,557.2551439600065,l,0.21089476300403476,1,553,1,557.489419004065,558.9906300411094,,,,,,,,,,,,,,,,,,,,,,,,,,,,,,,,,,,,,,,,,,,,,,,,,,,,,,,,,,,,,,,,,,,,,,17658,2022-12-01_14h11.18.460,vts_reward_expectancy_bt_OFFLINE,2022.2.4,59.940586410437234,
0,0,1,0,0,0,0,1,hexagon,star,1,0,1,0,3,10,46,8,,,,,,,,,,,,,,,,,,,,,,,,,,,,,,,,,,,,,,,,559.4908922651084,559.4908922651084,559.4908922651084,559.4908922651084,559.4908922651084,559.4908922651084,559.4908922651084,559.4908922651084,559.4908922651084,559.4908922651084,l,0.29280965600628406,10,563,1,559.8248734950321,561.3096572980285,,,,,,,,,,,,,,,,,,,,,,,,,,,,,,,,,,,,,,,,,,,,,,,,,,,,,,,,,,,,,,,,,,,,,,17658,2022-12-01_14h11.18.460,vts_reward_expectancy_bt_OFFLINE,2022.2.4,59.940586410437234,
0,1,0,0,0,0,1,0,circle,hexagon,1,0,1,0,3,11,47,4,,,,,,,,,,,,,,,,,,,,,,,,,,,,,,,,,,,,,,,,561.8103207560489,561.8103207560489,561.8103207560489,561.8103207560489,561.8103207560489,561.8103207560489,561.8103207560489,561.8103207560489,561.8103207560489,561.8103207560489,l,0.16773083503358066,1,564,1,562.0269629460527,563.5286869460251,,,,,,,,,,,,,,,,,,,,,,,,,,,,,,,,,,,,,,,,,,,,,,,,,,,,,,,,,,,,,,,,,,,,,,17658,2022-12-01_14h11.18.460,vts_reward_expectancy_bt_OFFLINE,2022.2.4,59.940586410437234,
0,1,0,0,0,0,1,0,circle,hexagon,2,0,2,0,0,0,0,4,,,,,,,,,,,,,,,,,,,,,,,,,,,,,,,,,,,,,,,,570.5533340680413,570.5533340680413,570.5533340680413,570.5533340680413,570.5533340680413,570.5533340680413,570.5533340680413,570.5533340680413,570.5533340680413,570.5533340680413,l,0.26752553798723966,10,574,2,570.870286924066,572.3720636310754,,,,,,,,,,,,,,,,,,,,,,,,,,,,,,,,,,,,,,,,,,,,,,,,,,,,,,,,,,,,,,,,,,,,,,17658,2022-12-01_14h11.18.460,vts_reward_expectancy_bt_OFFLINE,2022.2.4,59.940586410437234,
1,0,0,0,0,0,1,0,triangle,hexagon,2,0,2,0,0,1,1,1,,,,,,,,,,,,,,,,,,,,,,,,,,,,,,,,,,,,,,,,572.8723718530964,572.8723718530964,572.8723718530964,572.8723718530964,572.8723718530964,572.8723718530964,572.8723718530964,572.8723718530964,572.8723718530964,572.8723718530964,l,0.04117985791526735,10,584,2,572.9403067560634,574.4407502700342,,,,,,,,,,,,,,,,,,,,,,,,,,,,,,,,,,,,,,,,,,,,,,,,,,,,,,,,,,,,,,,,,,,,,,17658,2022-12-01_14h11.18.460,vts_reward_expectancy_bt_OFFLINE,2022.2.4,59.940586410437234,
0,0,1,0,0,1,0,0,hexagon,circle,2,0,2,0,0,2,2,7,,,,,,,,,,,,,,,,,,,,,,,,,,,,,,,,,,,,,,,,574.9414331150474,574.9414331150474,574.9414331150474,574.9414331150474,574.9414331150474,574.9414331150474,574.9414331150474,574.9414331150474,574.9414331150474,574.9414331150474,l,0.05303607799578458,10,594,2,575.0415438050404,576.5430665600579,,,,,,,,,,,,,,,,,,,,,,,,,,,,,,,,,,,,,,,,,,,,,,,,,,,,,,,,,,,,,,,,,,,,,,17658,2022-12-01_14h11.18.460,vts_reward_expectancy_bt_OFFLINE,2022.2.4,59.940586410437234,
1,0,0,0,0,0,0,1,triangle,star,2,0,2,0,0,3,3,2,,,,,,,,,,,,,,,,,,,,,,,,,,,,,,,,,,,,,,,,577.0436343100155,577.0436343100155,577.0436343100155,577.0436343100155,577.0436343100155,577.0436343100155,577.0436343100155,577.0436343100155,577.0436343100155,577.0436343100155,l,0.17838650196790695,10,604,2,577.2607620710041,578.745604461059,,,,,,,,,,,,,,,,,,,,,,,,,,,,,,,,,,,,,,,,,,,,,,,,,,,,,,,,,,,,,,,,,,,,,,17658,2022-12-01_14h11.18.460,vts_reward_expectancy_bt_OFFLINE,2022.2.4,59.940586410437234,
1,0,0,0,0,1,0,0,triangle,circle,2,0,2,0,0,4,4,0,,,,,,,,,,,,,,,,,,,,,,,,,,,,,,,,,,,,,,,,579.2462185780751,579.2462185780751,579.2462185780751,579.2462185780751,579.2462185780751,579.2462185780751,579.2462185780751,579.2462185780751,579.2462185780751,579.2462185780751,l,0.04627019399777055,1,605,2,579.3298413390294,580.8310760060558,,,,,,,,,,,,,,,,,,,,,,,,,,,,,,,,,,,,,,,,,,,,,,,,,,,,,,,,,,,,,,,,,,,,,,17658,2022-12-01_14h11.18.460,vts_reward_expectancy_bt_OFFLINE,2022.2.4,59.940586410437234,
0,0,0,1,0,0,1,0,star,hexagon,2,0,2,0,0,5,5,11,,,,,,,,,,,,,,,,,,,,,,,,,,,,,,,,,,,,,,,,581.3150573800085,581.3150573800085,581.3150573800085,581.3150573800085,581.3150573800085,581.3150573800085,581.3150573800085,581.3150573800085,581.3150573800085,581.3150573800085,l,0.11653330305125564,1,606,2,581.4654314341024,582.9668758630287,,,,,,,,,,,,,,,,,,,,,,,,,,,,,,,,,,,,,,,,,,,,,,,,,,,,,,,,,,,,,,,,,,,,,,17658,2022-12-01_14h11.18.460,vts_reward_expectancy_bt_OFFLINE,2022.2.4,59.940586410437234,
0,0,0,1,0,1,0,0,star ,circle,2,0,2,0,0,6,6,10,,,,,,,,,,,,,,,,,,,,,,,,,,,,,,,,,,,,,,,,583.4506962330779,583.4506962330779,583.4506962330779,583.4506962330779,583.4506962330779,583.4506962330779,583.4506962330779,583.4506962330779,583.4506962330779,583.4506962330779,l,0.0842240130295977,1,607,2,583.5843824980548,585.08599051903,,,,,,,,,,,,,,,,,,,,,,,,,,,,,,,,,,,,,,,,,,,,,,,,,,,,,,,,,,,,,,,,,,,,,,17658,2022-12-01_14h11.18.460,vts_reward_expectancy_bt_OFFLINE,2022.2.4,59.940586410437234,
0,1,0,0,0,0,0,1,circle,star,2,0,2,0,0,7,7,5,,,,,,,,,,,,,,,,,,,,,,,,,,,,,,,,,,,,,,,,585.5865034330636,585.5865034330636,585.5865034330636,585.5865034330636,585.5865034330636,585.5865034330636,585.5865034330636,585.5865034330636,585.5865034330636,585.5865034330636,l,0.11813216505106539,10,617,2,585.7533644880168,587.2550013880245,,,,,,,,,,,,,,,,,,,,,,,,,,,,,,,,,,,,,,,,,,,,,,,,,,,,,,,,,,,,,,,,,,,,,,17658,2022-12-01_14h11.18.460,vts_reward_expectancy_bt_OFFLINE,2022.2.4,59.940586410437234,
0,1,0,0,1,0,0,0,circle,triangle,2,0,2,0,0,8,8,3,,,,,,,,,,,,,,,,,,,,,,,,,,,,,,,,,,,,,,,,587.7554381750524,587.7554381750524,587.7554381750524,587.7554381750524,587.7554381750524,587.7554381750524,587.7554381750524,587.7554381750524,587.7554381750524,587.7554381750524,l,1.156141771003604,1,618,2,588.9568051460665,590.4418250760064,,,,,,,,,,,,,,,,,,,,,,,,,,,,,,,,,,,,,,,,,,,,,,,,,,,,,,,,,,,,,,,,,,,,,,17658,2022-12-01_14h11.18.460,vts_reward_expectancy_bt_OFFLINE,2022.2.4,59.940586410437234,
0,0,1,0,0,0,0,1,hexagon,star,2,0,2,0,0,9,9,8,,,,,,,,,,,,,,,,,,,,,,,,,,,,,,,,,,,,,,,,590.9423069501063,590.9423069501063,590.9423069501063,590.9423069501063,590.9423069501063,590.9423069501063,590.9423069501063,590.9423069501063,590.9423069501063,590.9423069501063,l,0.207832844927907,1,619,2,591.192494239076,592.6777915090788,,,,,,,,,,,,,,,,,,,,,,,,,,,,,,,,,,,,,,,,,,,,,,,,,,,,,,,,,,,,,,,,,,,,,,17658,2022-12-01_14h11.18.460,vts_reward_expectancy_bt_OFFLINE,2022.2.4,59.940586410437234,
0,0,1,0,1,0,0,0,hexagon,triangle,2,0,2,0,0,10,10,6,,,,,,,,,,,,,,,,,,,,,,,,,,,,,,,,,,,,,,,,593.1780387250474,593.1780387250474,593.1780387250474,593.1780387250474,593.1780387250474,593.1780387250474,593.1780387250474,593.1780387250474,593.1780387250474,593.1780387250474,l,0.5172705530421808,10,629,2,593.7287005200051,595.2305489040446,,,,,,,,,,,,,,,,,,,,,,,,,,,,,,,,,,,,,,,,,,,,,,,,,,,,,,,,,,,,,,,,,,,,,,17658,2022-12-01_14h11.18.460,vts_reward_expectancy_bt_OFFLINE,2022.2.4,59.940586410437234,
0,0,0,1,1,0,0,0,star,triangle,2,0,2,0,0,11,11,9,,,,,,,,,,,,,,,,,,,,,,,,,,,,,,,,,,,,,,,,595.714401224046,595.714401224046,595.714401224046,595.714401224046,595.714401224046,595.714401224046,595.714401224046,595.714401224046,595.714401224046,595.714401224046,l,0.3746388459112495,1,630,2,596.1313650880475,597.6330155360047,,,,,,,,,,,,,,,,,,,,,,,,,,,,,,,,,,,,,,,,,,,,,,,,,,,,,,,,,,,,,,,,,,,,,,17658,2022-12-01_14h11.18.460,vts_reward_expectancy_bt_OFFLINE,2022.2.4,59.940586410437234,
0,0,0,1,0,1,0,0,star ,circle,2,0,2,0,1,0,12,10,,,,,,,,,,,,,,,,,,,,,,,,,,,,,,,,,,,,,,,,598.1169625651091,598.1169625651091,598.1169625651091,598.1169625651091,598.1169625651091,598.1169625651091,598.1169625651091,598.1169625651091,598.1169625651091,598.1169625651091,l,0.12188219593372196,10,640,2,598.2840112400008,599.7687739100074,,,,,,,,,,,,,,,,,,,,,,,,,,,,,,,,,,,,,,,,,,,,,,,,,,,,,,,,,,,,,,,,,,,,,,17658,2022-12-01_14h11.18.460,vts_reward_expectancy_bt_OFFLINE,2022.2.4,59.940586410437234,
0,0,1,0,1,0,0,0,hexagon,triangle,2,0,2,0,1,1,13,6,,,,,,,,,,,,,,,,,,,,,,,,,,,,,,,,,,,,,,,,600.2693964650389,600.2693964650389,600.2693964650389,600.2693964650389,600.2693964650389,600.2693964650389,600.2693964650389,600.2693964650389,600.2693964650389,600.2693964650389,l,0.0400066920556128,1,641,2,600.3526639540214,601.8377190890023,,,,,,,,,,,,,,,,,,,,,,,,,,,,,,,,,,,,,,,,,,,,,,,,,,,,,,,,,,,,,,,,,,,,,,17658,2022-12-01_14h11.18.460,vts_reward_expectancy_bt_OFFLINE,2022.2.4,59.940586410437234,
0,1,0,0,1,0,0,0,circle,triangle,2,0,2,0,1,2,14,3,,,,,,,,,,,,,,,,,,,,,,,,,,,,,,,,,,,,,,,,602.3380809280789,602.3380809280789,602.3380809280789,602.3380809280789,602.3380809280789,602.3380809280789,602.3380809280789,602.3380809280789,602.3380809280789,602.3380809280789,l,0.07441249093972147,1,642,2,602.4550450510578,603.9399910740322,,,,,,,,,,,,,,,,,,,,,,,,,,,,,,,,,,,,,,,,,,,,,,,,,,,,,,,,,,,,,,,,,,,,,,17658,2022-12-01_14h11.18.460,vts_reward_expectancy_bt_OFFLINE,2022.2.4,59.940586410437234,
0,1,0,0,0,0,0,1,circle,star,2,0,2,0,1,3,15,5,,,,,,,,,,,,,,,,,,,,,,,,,,,,,,,,,,,,,,,,604.4573694330174,604.4573694330174,604.4573694330174,604.4573694330174,604.4573694330174,604.4573694330174,604.4573694330174,604.4573694330174,604.4573694330174,604.4573694330174,l,0.3847552740480751,10,652,2,604.890944751096,606.3927501410944,,,,,,,,,,,,,,,,,,,,,,,,,,,,,,,,,,,,,,,,,,,,,,,,,,,,,,,,,,,,,,,,,,,,,,17658,2022-12-01_14h11.18.460,vts_reward_expectancy_bt_OFFLINE,2022.2.4,59.940586410437234,
1,0,0,0,0,0,1,0,triangle,hexagon,2,0,2,0,1,4,16,1,,,,,,,,,,,,,,,,,,,,,,,,,,,,,,,,,,,,,,,,606.8932922310196,606.8932922310196,606.8932922310196,606.8932922310196,606.8932922310196,606.8932922310196,606.8932922310196,606.8932922310196,606.8932922310196,606.8932922310196,l,0.290690918918699,10,662,2,607.2271267630858,608.7122155340621,,,,,,,,,,,,,,,,,,,,,,,,,,,,,,,,,,,,,,,,,,,,,,,,,,,,,,,,,,,,,,,,,,,,,,17658,2022-12-01_14h11.18.460,vts_reward_expectancy_bt_OFFLINE,2022.2.4,59.940586410437234,
1,0,0,0,0,1,0,0,triangle,circle,2,0,2,0,1,5,17,0,,,,,,,,,,,,,,,,,,,,,,,,,,,,,,,,,,,,,,,,609.2127016010927,609.2127016010927,609.2127016010927,609.2127016010927,609.2127016010927,609.2127016010927,609.2127016010927,609.2127016010927,609.2127016010927,609.2127016010927,l,0.37836008705198765,10,672,2,609.6297128380975,611.1147860380588,,,,,,,,,,,,,,,,,,,,,,,,,,,,,,,,,,,,,,,,,,,,,,,,,,,,,,,,,,,,,,,,,,,,,,17658,2022-12-01_14h11.18.460,vts_reward_expectancy_bt_OFFLINE,2022.2.4,59.940586410437234,
1,0,0,0,0,0,0,1,triangle,star,2,0,2,0,1,6,18,2,,,,,,,,,,,,,,,,,,,,,,,,,,,,,,,,,,,,,,,,611.6152976910817,611.6152976910817,611.6152976910817,611.6152976910817,611.6152976910817,611.6152976910817,611.6152976910817,611.6152976910817,611.6152976910817,611.6152976910817,l,0.43948784400708973,10,682,2,612.0991955080535,613.5838855860056,,,,,,,,,,,,,,,,,,,,,,,,,,,,,,,,,,,,,,,,,,,,,,,,,,,,,,,,,,,,,,,,,,,,,,17658,2022-12-01_14h11.18.460,vts_reward_expectancy_bt_OFFLINE,2022.2.4,59.940586410437234,
0,0,1,0,0,0,0,1,hexagon,star,2,0,2,0,1,7,19,8,,,,,,,,,,,,,,,,,,,,,,,,,,,,,,,,,,,,,,,,614.084515708033,614.084515708033,614.084515708033,614.084515708033,614.084515708033,614.084515708033,614.084515708033,614.084515708033,614.084515708033,614.084515708033,l,0.1984961429843679,10,692,2,614.3182369610295,615.8030303680571,,,,,,,,,,,,,,,,,,,,,,,,,,,,,,,,,,,,,,,,,,,,,,,,,,,,,,,,,,,,,,,,,,,,,,17658,2022-12-01_14h11.18.460,vts_reward_expectancy_bt_OFFLINE,2022.2.4,59.940586410437234,
0,0,0,1,1,0,0,0,star,triangle,2,0,2,0,1,8,20,9,,,,,,,,,,,,,,,,,,,,,,,,,,,,,,,,,,,,,,,,616.3201139580924,616.3201139580924,616.3201139580924,616.3201139580924,616.3201139580924,616.3201139580924,616.3201139580924,616.3201139580924,616.3201139580924,616.3201139580924,l,0.3353850139537826,1,693,2,616.7040344891138,618.2056729580509,618.2056729580509,,,,,,,,,,,,,,,,,,,,,,,,,,,,,,,,,,,,,,,,,,,,,,,,,,,,,,,,,,,,,,,,,,,,,17658,2022-12-01_14h11.18.460,vts_reward_expectancy_bt_OFFLINE,2022.2.4,59.940586410437234,
0,1,0,0,0,0,1,0,circle,hexagon,2,0,2,0,1,9,21,4,,,,,,,,,,,,,,,,,,,,,,,,,,,,,,,,,,,,,,,,618.7062019740697,618.7062019740697,618.7062019740697,618.7062019740697,618.7062019740697,618.7062019740697,618.7062019740697,618.7062019740697,618.7062019740697,618.7062019740697,l,0.176909301080741,1,694,2,618.9231873711105,620.4080735481111,,,,,,,,,,,,,,,,,,,,,,,,,,,,,,,,,,,,,,,,,,,,,,,,,,,,,,,,,,,,,,,,,,,,,,17658,2022-12-01_14h11.18.460,vts_reward_expectancy_bt_OFFLINE,2022.2.4,59.940586410437234,
0,0,1,0,0,1,0,0,hexagon,circle,2,0,2,0,1,10,22,7,,,,,,,,,,,,,,,,,,,,,,,,,,,,,,,,,,,,,,,,620.9087619900238,620.9087619900238,620.9087619900238,620.9087619900238,620.9087619900238,620.9087619900238,620.9087619900238,620.9087619900238,620.9087619900238,620.9087619900238,l,0.6302309350576252,10,704,2,621.5761922140373,623.0612539300928,,,,,,,,,,,,,,,,,,,,,,,,,,,,,,,,,,,,,,,,,,,,,,,,,,,,,,,,,,,,,,,,,,,,,,17658,2022-12-01_14h11.18.460,vts_reward_expectancy_bt_OFFLINE,2022.2.4,59.940586410437234,
0,0,0,1,0,0,1,0,star,hexagon,2,0,2,0,1,11,23,11,,,,,,,,,,,,,,,,,,,,,,,,,,,,,,,,,,,,,,,,623.5616388641065,623.5616388641065,623.5616388641065,623.5616388641065,623.5616388641065,623.5616388641065,623.5616388641065,623.5616388641065,623.5616388641065,623.5616388641065,l,0.20464029198046774,1,705,2,623.8120419600746,625.2968539810972,,,,,,,,,,,,,,,,,,,,,,,,,,,,,,,,,,,,,,,,,,,,,,,,,,,,,,,,,,,,,,,,,,,,,,17658,2022-12-01_14h11.18.460,vts_reward_expectancy_bt_OFFLINE,2022.2.4,59.940586410437234,
1,0,0,0,0,0,0,1,triangle,star,2,0,2,0,2,0,24,2,,,,,,,,,,,,,,,,,,,,,,,,,,,,,,,,,,,,,,,,625.7974010080798,625.7974010080798,625.7974010080798,625.7974010080798,625.7974010080798,625.7974010080798,625.7974010080798,625.7974010080798,625.7974010080798,625.7974010080798,l,0.44453526998404413,1,706,2,626.2815793630434,627.766310311039,,,,,,,,,,,,,,,,,,,,,,,,,,,,,,,,,,,,,,,,,,,,,,,,,,,,,,,,,,,,,,,,,,,,,,17658,2022-12-01_14h11.18.460,vts_reward_expectancy_bt_OFFLINE,2022.2.4,59.940586410437234,
0,0,1,0,0,1,0,0,hexagon,circle,2,0,2,0,2,1,25,7,,,,,,,,,,,,,,,,,,,,,,,,,,,,,,,,,,,,,,,,628.2669696731027,628.2669696731027,628.2669696731027,628.2669696731027,628.2669696731027,628.2669696731027,628.2669696731027,628.2669696731027,628.2669696731027,628.2669696731027,a,0.14630565291736275,1,707,2,628.4505788050592,629.9521752860164,,,,,,,,,,,,,,,,,,,,,,,,,,,,,,,,,,,,,,,,,,,,,,,,,,,,,,,,,,,,,,,,,,,,,,17658,2022-12-01_14h11.18.460,vts_reward_expectancy_bt_OFFLINE,2022.2.4,59.940586410437234,
0,0,1,0,0,0,0,1,hexagon,star,2,0,2,0,2,2,26,8,,,,,,,,,,,,,,,,,,,,,,,,,,,,,,,,,,,,,,,,630.4359073790256,630.4359073790256,630.4359073790256,630.4359073790256,630.4359073790256,630.4359073790256,630.4359073790256,630.4359073790256,630.4359073790256,630.4359073790256,l,0.1259507330833003,1,708,2,630.6029663750669,632.0879191990243,,,,,,,,,,,,,,,,,,,,,,,,,,,,,,,,,,,,,,,,,,,,,,,,,,,,,,,,,,,,,,,,,,,,,,17658,2022-12-01_14h11.18.460,vts_reward_expectancy_bt_OFFLINE,2022.2.4,59.940586410437234,
0,1,0,0,1,0,0,0,circle,triangle,2,0,2,0,2,3,27,3,,,,,,,,,,,,,,,,,,,,,,,,,,,,,,,,,,,,,,,,632.5883258200483,632.5883258200483,632.5883258200483,632.5883258200483,632.5883258200483,632.5883258200483,632.5883258200483,632.5883258200483,632.5883258200483,632.5883258200483,a,0.12369288294576108,1,709,2,632.7553055559983,634.2569756390294,,,,,,,,,,,,,,,,,,,,,,,,,,,,,,,,,,,,,,,,,,,,,,,,,,,,,,,,,,,,,,,,,,,,,,17658,2022-12-01_14h11.18.460,vts_reward_expectancy_bt_OFFLINE,2022.2.4,59.940586410437234,
0,1,0,0,0,0,0,1,circle,star,2,0,2,0,2,4,28,5,,,,,,,,,,,,,,,,,,,,,,,,,,,,,,,,,,,,,,,,634.7408350741025,634.7408350741025,634.7408350741025,634.7408350741025,634.7408350741025,634.7408350741025,634.7408350741025,634.7408350741025,634.7408350741025,634.7408350741025,l,0.017721359035931528,10,719,2,634.807681330014,636.309270588099,,,,,,,,,,,,,,,,,,,,,,,,,,,,,,,,,,,,,,,,,,,,,,,,,,,,,,,,,,,,,,,,,,,,,,17658,2022-12-01_14h11.18.460,vts_reward_expectancy_bt_OFFLINE,2022.2.4,59.940586410437234,
0,0,0,1,1,0,0,0,star,triangle,2,0,2,0,2,5,29,9,,,,,,,,,,,,,,,,,,,,,,,,,,,,,,,,,,,,,,,,636.8266367641045,636.8266367641045,636.8266367641045,636.8266367641045,636.8266367641045,636.8266367641045,636.8266367641045,636.8266367641045,636.8266367641045,636.8266367641045,l,0.23803708900231868,10,729,2,637.1101216280367,638.6116480660858,,,,,,,,,,,,,,,,,,,,,,,,,,,,,,,,,,,,,,,,,,,,,,,,,,,,,,,,,,,,,,,,,,,,,,17658,2022-12-01_14h11.18.460,vts_reward_expectancy_bt_OFFLINE,2022.2.4,59.940586410437234,
0,0,0,1,0,0,1,0,star,hexagon,2,0,2,0,2,6,30,11,,,,,,,,,,,,,,,,,,,,,,,,,,,,,,,,,,,,,,,,639.1121035501128,639.1121035501128,639.1121035501128,639.1121035501128,639.1121035501128,639.1121035501128,639.1121035501128,639.1121035501128,639.1121035501128,639.1121035501128,l,0.12490122905001044,1,730,2,639.2790292591089,640.7641790260095,,,,,,,,,,,,,,,,,,,,,,,,,,,,,,,,,,,,,,,,,,,,,,,,,,,,,,,,,,,,,,,,,,,,,,17658,2022-12-01_14h11.18.460,vts_reward_expectancy_bt_OFFLINE,2022.2.4,59.940586410437234,
0,0,0,1,0,1,0,0,star ,circle,2,0,2,0,2,7,31,10,,,,,,,,,,,,,,,,,,,,,,,,,,,,,,,,,,,,,,,,641.2644938951125,641.2644938951125,641.2644938951125,641.2644938951125,641.2644938951125,641.2644938951125,641.2644938951125,641.2644938951125,641.2644938951125,641.2644938951125,l,0.008368526003323495,10,740,2,641.3146898930427,642.7997447140515,,,,,,,,,,,,,,,,,,,,,,,,,,,,,,,,,,,,,,,,,,,,,,,,,,,,,,,,,,,,,,,,,,,,,,17658,2022-12-01_14h11.18.460,vts_reward_expectancy_bt_OFFLINE,2022.2.4,59.940586410437234,
0,0,1,0,1,0,0,0,hexagon,triangle,2,0,2,0,2,8,32,6,,,,,,,,,,,,,,,,,,,,,,,,,,,,,,,,,,,,,,,,643.3000658330275,643.3000658330275,643.3000658330275,643.3000658330275,643.3000658330275,643.3000658330275,643.3000658330275,643.3000658330275,643.3000658330275,643.3000658330275,l,0.19025635090656579,10,750,2,643.5338178400416,645.0187317361124,,,,,,,,,,,,,,,,,,,,,,,,,,,,,,,,,,,,,,,,,,,,,,,,,,,,,,,,,,,,,,,,,,,,,,17658,2022-12-01_14h11.18.460,vts_reward_expectancy_bt_OFFLINE,2022.2.4,59.940586410437234,
0,1,0,0,0,0,1,0,circle,hexagon,2,0,2,0,2,9,33,4,,,,,,,,,,,,,,,,,,,,,,,,,,,,,,,,,,,,,,,,645.5193353960058,645.5193353960058,645.5193353960058,645.5193353960058,645.5193353960058,645.5193353960058,645.5193353960058,645.5193353960058,645.5193353960058,645.5193353960058,a,0.18609930796083063,1,751,2,645.7528128060512,647.2543042231118,647.2543042231118,,,,,,,,,,,,,,,,,,,,,,,,,,,,,,,,,,,,,,,,,,,,,,,,,,,,,,,,,,,,,,,,,,,,,17658,2022-12-01_14h11.18.460,vts_reward_expectancy_bt_OFFLINE,2022.2.4,59.940586410437234,
1,0,0,0,0,0,1,0,triangle,hexagon,2,0,2,0,2,10,34,1,,,,,,,,,,,,,,,,,,,,,,,,,,,,,,,,,,,,,,,,647.7718934860313,647.7718934860313,647.7718934860313,647.7718934860313,647.7718934860313,647.7718934860313,647.7718934860313,647.7718934860313,647.7718934860313,647.7718934860313,a,0.24140005197841674,1,752,2,648.0555089160334,649.5401588380337,,,,,,,,,,,,,,,,,,,,,,,,,,,,,,,,,,,,,,,,,,,,,,,,,,,,,,,,,,,,,,,,,,,,,,17658,2022-12-01_14h11.18.460,vts_reward_expectancy_bt_OFFLINE,2022.2.4,59.940586410437234,
1,0,0,0,0,1,0,0,triangle,circle,2,0,2,0,2,11,35,0,,,,,,,,,,,,,,,,,,,,,,,,,,,,,,,,,,,,,,,,650.0409143280704,650.0409143280704,650.0409143280704,650.0409143280704,650.0409143280704,650.0409143280704,650.0409143280704,650.0409143280704,650.0409143280704,650.0409143280704,a,0.20960500498767942,1,753,2,650.2910819310928,651.7930315050762,,,,,,,,,,,,,,,,,,,,,,,,,,,,,,,,,,,,,,,,,,,,,,,,,,,,,,,,,,,,,,,,,,,,,,17658,2022-12-01_14h11.18.460,vts_reward_expectancy_bt_OFFLINE,2022.2.4,59.940586410437234,
0,0,0,1,1,0,0,0,star,triangle,2,0,2,0,3,0,36,9,,,,,,,,,,,,,,,,,,,,,,,,,,,,,,,,,,,,,,,,652.276500248001,652.276500248001,652.276500248001,652.276500248001,652.276500248001,652.276500248001,652.276500248001,652.276500248001,652.276500248001,652.276500248001,l,0.023178990930318832,10,763,2,652.3434418230318,653.8283520410769,,,,,,,,,,,,,,,,,,,,,,,,,,,,,,,,,,,,,,,,,,,,,,,,,,,,,,,,,,,,,,,,,,,,,,17658,2022-12-01_14h11.18.460,vts_reward_expectancy_bt_OFFLINE,2022.2.4,59.940586410437234,
0,0,1,0,0,0,0,1,hexagon,star,2,0,2,0,3,1,37,8,,,,,,,,,,,,,,,,,,,,,,,,,,,,,,,,,,,,,,,,654.3289008880965,654.3289008880965,654.3289008880965,654.3289008880965,654.3289008880965,654.3289008880965,654.3289008880965,654.3289008880965,654.3289008880965,654.3289008880965,l,0.23231381794903427,10,773,2,654.596063994104,656.0975956990151,,,,,,,,,,,,,,,,,,,,,,,,,,,,,,,,,,,,,,,,,,,,,,,,,,,,,,,,,,,,,,,,,,,,,,17658,2022-12-01_14h11.18.460,vts_reward_expectancy_bt_OFFLINE,2022.2.4,59.940586410437234,
0,1,0,0,0,0,0,1,circle,star,2,0,2,0,3,2,38,5,,,,,,,,,,,,,,,,,,,,,,,,,,,,,,,,,,,,,,,,656.5813985980349,656.5813985980349,656.5813985980349,656.5813985980349,656.5813985980349,656.5813985980349,656.5813985980349,656.5813985980349,656.5813985980349,656.5813985980349,l,0.05970895499922335,10,783,2,656.6814542630455,658.1831675980939,,,,,,,,,,,,,,,,,,,,,,,,,,,,,,,,,,,,,,,,,,,,,,,,,,,,,,,,,,,,,,,,,,,,,,17658,2022-12-01_14h11.18.460,vts_reward_expectancy_bt_OFFLINE,2022.2.4,59.940586410437234,
0,0,1,0,0,1,0,0,hexagon,circle,2,0,2,0,3,3,39,7,,,,,,,,,,,,,,,,,,,,,,,,,,,,,,,,,,,,,,,,658.666853159084,658.666853159084,658.666853159084,658.666853159084,658.666853159084,658.666853159084,658.666853159084,658.666853159084,658.666853159084,658.666853159084,l,0.04420544300228357,10,793,2,658.7505623580655,660.2353367561009,,,,,,,,,,,,,,,,,,,,,,,,,,,,,,,,,,,,,,,,,,,,,,,,,,,,,,,,,,,,,,,,,,,,,,17658,2022-12-01_14h11.18.460,vts_reward_expectancy_bt_OFFLINE,2022.2.4,59.940586410437234,
0,0,1,0,1,0,0,0,hexagon,triangle,2,0,2,0,3,4,40,6,,,,,,,,,,,,,,,,,,,,,,,,,,,,,,,,,,,,,,,,660.735858079046,660.735858079046,660.735858079046,660.735858079046,660.735858079046,660.735858079046,660.735858079046,660.735858079046,660.735858079046,660.735858079046,l,0.15802336402703077,10,803,2,660.9360483980272,662.4212724110112,,,,,,,,,,,,,,,,,,,,,,,,,,,,,,,,,,,,,,,,,,,,,,,,,,,,,,,,,,,,,,,,,,,,,,17658,2022-12-01_14h11.18.460,vts_reward_expectancy_bt_OFFLINE,2022.2.4,59.940586410437234,
1,0,0,0,0,1,0,0,triangle,circle,2,0,2,0,3,5,41,0,,,,,,,,,,,,,,,,,,,,,,,,,,,,,,,,,,,,,,,,662.9383509350009,662.9383509350009,662.9383509350009,662.9383509350009,662.9383509350009,662.9383509350009,662.9383509350009,662.9383509350009,662.9383509350009,662.9383509350009,l,0.25127719703596085,10,813,2,663.2389882510761,664.7403824550565,,,,,,,,,,,,,,,,,,,,,,,,,,,,,,,,,,,,,,,,,,,,,,,,,,,,,,,,,,,,,,,,,,,,,,17658,2022-12-01_14h11.18.460,vts_reward_expectancy_bt_OFFLINE,2022.2.4,59.940586410437234,
0,1,0,0,0,0,1,0,circle,hexagon,2,0,2,0,3,6,42,4,,,,,,,,,,,,,,,,,,,,,,,,,,,,,,,,,,,,,,,,665.2409139689989,665.2409139689989,665.2409139689989,665.2409139689989,665.2409139689989,665.2409139689989,665.2409139689989,665.2409139689989,665.2409139689989,665.2409139689989,a,0.007731997990049422,1,814,2,665.2911023960914,666.776086458005,,,,,,,,,,,,,,,,,,,,,,,,,,,,,,,,,,,,,,,,,,,,,,,,,,,,,,,,,,,,,,,,,,,,,,17658,2022-12-01_14h11.18.460,vts_reward_expectancy_bt_OFFLINE,2022.2.4,59.940586410437234,
0,0,0,1,0,1,0,0,star ,circle,2,0,2,0,3,7,43,10,,,,,,,,,,,,,,,,,,,,,,,,,,,,,,,,,,,,,,,,667.2765826300019,667.2765826300019,667.2765826300019,667.2765826300019,667.2765826300019,667.2765826300019,667.2765826300019,667.2765826300019,667.2765826300019,667.2765826300019,l,0.13405037601478398,1,815,2,667.4601501260186,668.9618528560968,,,,,,,,,,,,,,,,,,,,,,,,,,,,,,,,,,,,,,,,,,,,,,,,,,,,,,,,,,,,,,,,,,,,,,17658,2022-12-01_14h11.18.460,vts_reward_expectancy_bt_OFFLINE,2022.2.4,59.940586410437234,
1,0,0,0,0,0,0,1,triangle,star,2,0,2,0,3,8,44,2,,,,,,,,,,,,,,,,,,,,,,,,,,,,,,,,,,,,,,,,669.4622264340287,669.4622264340287,669.4622264340287,669.4622264340287,669.4622264340287,669.4622264340287,669.4622264340287,669.4622264340287,669.4622264340287,669.4622264340287,a,0.08426897693425417,1,816,2,669.5958519181004,671.097304374096,,,,,,,,,,,,,,,,,,,,,,,,,,,,,,,,,,,,,,,,,,,,,,,,,,,,,,,,,,,,,,,,,,,,,,17658,2022-12-01_14h11.18.460,vts_reward_expectancy_bt_OFFLINE,2022.2.4,59.940586410437234,
0,1,0,0,1,0,0,0,circle,triangle,2,0,2,0,3,9,45,3,,,,,,,,,,,,,,,,,,,,,,,,,,,,,,,,,,,,,,,,671.5979152080836,671.5979152080836,671.5979152080836,671.5979152080836,671.5979152080836,671.5979152080836,671.5979152080836,671.5979152080836,671.5979152080836,671.5979152080836,l,0.10806980705820024,10,826,2,671.7482335300883,673.2330270200036,,,,,,,,,,,,,,,,,,,,,,,,,,,,,,,,,,,,,,,,,,,,,,,,,,,,,,,,,,,,,,,,,,,,,,17658,2022-12-01_14h11.18.460,vts_reward_expectancy_bt_OFFLINE,2022.2.4,59.940586410437234,
0,0,0,1,0,0,1,0,star,hexagon,2,0,2,0,3,10,46,11,,,,,,,,,,,,,,,,,,,,,,,,,,,,,,,,,,,,,,,,673.7337522150483,673.7337522150483,673.7337522150483,673.7337522150483,673.7337522150483,673.7337522150483,673.7337522150483,673.7337522150483,673.7337522150483,673.7337522150483,a,0.23434086004272103,1,827,2,674.0173044491094,675.5190835510148,,,,,,,,,,,,,,,,,,,,,,,,,,,,,,,,,,,,,,,,,,,,,,,,,,,,,,,,,,,,,,,,,,,,,,17658,2022-12-01_14h11.18.460,vts_reward_expectancy_bt_OFFLINE,2022.2.4,59.940586410437234,
1,0,0,0,0,0,1,0,triangle,hexagon,2,0,2,0,3,11,47,1,,,,,,,,,,,,,,,,,,,,,,,,,,,,,,,,,,,,,,,,676.0195306410315,676.0195306410315,676.0195306410315,676.0195306410315,676.0195306410315,676.0195306410315,676.0195306410315,676.0195306410315,676.0195306410315,676.0195306410315,l,0.277182167978026,10,837,2,676.3366391400341,677.821578183095,,,,,,,,,,,,,,,,,,,,,,,,,,,,,,,,,,,,,,,,,,,,,,,,,,,,,,,,,,,,,,,,,,,,,,17658,2022-12-01_14h11.18.460,vts_reward_expectancy_bt_OFFLINE,2022.2.4,59.940586410437234,
,,,,,,,,,,,,,,,,,,0,0,0,0,0,0,0,0,,,,,,,,,,,,,,,,,,,,,,,,,,,,,,,,,,,,,,,,,,,,,,,,720.7189816210885,,,160,S,circle,0.0019815469859167933,715.8134008230409,717.3152441990096,717.3152441990096,717.3152441990096,0,0,d,1.8582822950556874,0,719.2172442190349,,,,,,,,,,,,,,,,,,,,,,,,,,,,,,,,,,,,,,,,,,,,,,,,,,,,,,17658,2022-12-01_14h11.18.460,vts_reward_expectancy_bt_OFFLINE,2022.2.4,59.940586410437234,
,,,,,,,,,,,,,,,,,,0,0,0,0,1,0,1,0,,,,,,,,,,,,,,,,,,,,,,,,,,,,,,,,,,,,,,,,,,,,,,,,726.4418025850318,,,139,Y,hexagon,0.0011008359724655747,721.6867529060692,723.1883236980066,723.1883236980066,723.1883236980066,1,1,d,1.7242876320378855,0,724.9568762750132,,,,,,,,,,,,,,,,,,,,,,,,,,,,,,,,,,,,,,,,,,,,,,,,,,,,,,17658,2022-12-01_14h11.18.460,vts_reward_expectancy_bt_OFFLINE,2022.2.4,59.940586410437234,
,,,,,,,,,,,,,,,,,,0,0,0,0,2,0,2,0,,,,,,,,,,,,,,,,,,,,,,,,,,,,,,,,,,,,,,,,,,,,,,,,731.0972339530708,,,132,D,triangle,0.0013916149036958814,727.4261909601046,728.9280140580377,728.9280140580377,728.9280140580377,1,0,d,0.6406800029799342,0,729.6121463680174,,,,,,,,,,,,,,,,,,,,,,,,,,,,,,,,,,,,,,,,,,,,,,,,,,,,,,17658,2022-12-01_14h11.18.460,vts_reward_expectancy_bt_OFFLINE,2022.2.4,59.940586410437234,
,,,,,,,,,,,,,,,,,,0,0,0,0,3,0,3,0,,,,,,,,,,,,,,,,,,,,,,,,,,,,,,,,,,,,,,,,,,,,,,,,735.6854710860644,,,174,U,star,0.0012128609232604504,732.081421361072,733.5832049060846,733.5832049060846,733.5832049060846,1,0,f,0.566287411027588,0,734.1840707490919,,,,,,,,,,,,,,,,,,,,,,,,,,,,,,,,,,,,,,,,,,,,,,,,,,,,,,17658,2022-12-01_14h11.18.460,vts_reward_expectancy_bt_OFFLINE,2022.2.4,59.940586410437234,
,,,,,,,,,,,,,,,,,,0,0,0,0,4,0,4,0,,,,,,,,,,,,,,,,,,,,,,,,,,,,,,,,,,,,,,,,,,,,,,,,740.2237101260107,,,125,W,hexagon,0.0008390709990635514,736.6531238090247,738.1549516400555,738.1549516400555,738.1549516400555,1,0,d,0.5182502700481564,0,738.7221072050743,,,,,,,,,,,,,,,,,,,,,,,,,,,,,,,,,,,,,,,,,,,,,,,,,,,,,,17658,2022-12-01_14h11.18.460,vts_reward_expectancy_bt_OFFLINE,2022.2.4,59.940586410437234,
,,,,,,,,,,,,,,,,,,0,0,0,0,5,0,5,0,,,,,,,,,,,,,,,,,,,,,,,,,,,,,,,,,,,,,,,,,,,,,,,,744.9454952310771,,,167,H,circle,0.0013562130043283105,741.2079716681037,742.7097644850146,742.7097644850146,742.7097644850146,1,0,f,0.7093524540541694,0,743.4606627951143,,,,,,,,,,,,,,,,,,,,,,,,,,,,,,,,,,,,,,,,,,,,,,,,,,,,,,17658,2022-12-01_14h11.18.460,vts_reward_expectancy_bt_OFFLINE,2022.2.4,59.940586410437234,
,,,,,,,,,,,,,,,,,,0,0,0,0,6,0,6,0,,,,,,,,,,,,,,,,,,,,,,,,,,,,,,,,,,,,,,,,,,,,,,,,750.8519278611057,,,146,B,triangle,0.00112375698518008,745.9300562851131,747.4315584710566,747.4315584710566,747.4315584710566,1,0,d,1.8944262419827282,0,749.3671672890196,,,,,,,,,,,,,,,,,,,,,,,,,,,,,,,,,,,,,,,,,,,,,,,,,,,,,,17658,2022-12-01_14h11.18.460,vts_reward_expectancy_bt_OFFLINE,2022.2.4,59.940586410437234,
,,,,,,,,,,,,,,,,,,0,0,0,0,7,0,7,0,,,,,,,,,,,,,,,,,,,,,,,,,,,,,,,,,,,,,,,,,,,,,,,,755.6573808330577,,,181,F,star,0.0014024290721863508,751.8364990151022,753.3381302750204,753.3381302750204,753.3381302750204,1,0,f,0.7918867989210412,0,754.1724818930961,,,,,,,,,,,,,,,,,,,,,,,,,,,,,,,,,,,,,,,,,,,,,,,,,,,,,,17658,2022-12-01_14h11.18.460,vts_reward_expectancy_bt_OFFLINE,2022.2.4,59.940586410437234,
,,,,,,,,,,,,,,,,,,0,0,0,0,8,0,8,0,,,,,,,,,,,,,,,,,,,,,,,,,,,,,,,,,,,,,,,,,,,,,,,,761.2969898061128,,,160,S,star,0.0012559669557958841,756.6418745811097,758.1434279390378,758.1434279390378,758.1434279390378,1,0,f,1.6028332520509139,0,759.7952967950841,,,,,,,,,,,,,,,,,,,,,,,,,,,,,,,,,,,,,,,,,,,,,,,,,,,,,,17658,2022-12-01_14h11.18.460,vts_reward_expectancy_bt_OFFLINE,2022.2.4,59.940586410437234,
,,,,,,,,,,,,,,,,,,0,0,0,0,9,0,9,0,,,,,,,,,,,,,,,,,,,,,,,,,,,,,,,,,,,,,,,,,,,,,,,,765.9523756850976,,,139,Y,hexagon,0.0010848609963431954,762.2814697700087,763.7833322900115,763.7833322900115,763.7833322900115,1,0,d,0.6414419539505616,0,764.4674806640251,,,,,,,,,,,,,,,,,,,,,,,,,,,,,,,,,,,,,,,,,,,,,,,,,,,,,,17658,2022-12-01_14h11.18.460,vts_reward_expectancy_bt_OFFLINE,2022.2.4,59.940586410437234,
,,,,,,,,,,,,,,,,,,,,,,,,,,0,0,0,0,0,0,0,0,,,,,,,,,,,,,,,,,,,,,,,,,,,,,,,,,,,,,,,,782.9376259660348,,,167,B,hexagon,0.0020226850174367428,,,,,1,0,,,1,781.4525878090644,778.4660649580183,779.9675001481082,779.9675001481082,779.9675001481082,j,1.4456832299474627,,,,,,,,,,,,,,,,,,,,,,,,,,,,,,,,,,,,,,,,,,,,,,,,17658,2022-12-01_14h11.18.460,vts_reward_expectancy_bt_OFFLINE,2022.2.4,59.940586410437234,
,,,,,,,,,,,,,,,,,,,,,,,,,,0,0,0,0,1,0,1,0,,,,,,,,,,,,,,,,,,,,,,,,,,,,,,,,,,,,,,,,788.8442434580065,,,174,D,triangle,0.0010906660463660955,,,,,1,0,,,1,787.3590490650386,783.9219534000149,785.423547414015,785.423547414015,785.423547414015,j,1.8967131109675393,,,,,,,,,,,,,,,,,,,,,,,,,,,,,,,,,,,,,,,,,,,,,,,,17658,2022-12-01_14h11.18.460,vts_reward_expectancy_bt_OFFLINE,2022.2.4,59.940586410437234,
,,,,,,,,,,,,,,,,,,,,,,,,,,0,0,0,0,2,0,2,0,,,,,,,,,,,,,,,,,,,,,,,,,,,,,,,,,,,,,,,,793.8828504990088,,,146,S,circle,0.0014726270455867052,,,,,1,0,,,1,792.3980167660629,789.8283942710841,791.3299755180487,791.3299755180487,791.3299755180487,k,1.0304265490267426,,,,,,,,,,,,,,,,,,,,,,,,,,,,,,,,,,,,,,,,,,,,,,,,17658,2022-12-01_14h11.18.460,vts_reward_expectancy_bt_OFFLINE,2022.2.4,59.940586410437234,
,,,,,,,,,,,,,,,,,,,,,,,,,,0,0,0,0,3,0,3,0,,,,,,,,,,,,,,,,,,,,,,,,,,,,,,,,,,,,,,,,799.0219017630443,,,139,U,star,0.001178471022285521,,,,,1,0,,,1,797.5370071600191,794.8673132790718,796.3689221160021,796.3689221160021,796.3689221160021,k,1.1213322600815445,,,,,,,,,,,,,,,,,,,,,,,,,,,,,,,,,,,,,,,,,,,,,,,,17658,2022-12-01_14h11.18.460,vts_reward_expectancy_bt_OFFLINE,2022.2.4,59.940586410437234,
,,,,,,,,,,,,,,,,,,,,,,,,,,0,0,0,0,4,0,4,0,,,,,,,,,,,,,,,,,,,,,,,,,,,,,,,,,,,,,,,,804.0775980640901,,,160,W,circle,0.0011838090140372515,,,,,1,0,,,1,802.5926141780801,800.0065105680842,801.5079712740844,801.5079712740844,801.5079712740844,k,1.045222762040794,,,,,,,,,,,,,,,,,,,,,,,,,,,,,,,,,,,,,,,,,,,,,,,,17658,2022-12-01_14h11.18.460,vts_reward_expectancy_bt_OFFLINE,2022.2.4,59.940586410437234,
,,,,,,,,,,,,,,,,,,,,,,,,,,0,0,0,0,5,0,5,0,,,,,,,,,,,,,,,,,,,,,,,,,,,,,,,,,,,,,,,,809.4669471291127,,,181,H,triangle,0.001373662962578237,,,,,1,0,,,1,807.9818298360333,805.0617927140556,806.5636027860455,806.5636027860455,806.5636027860455,j,1.379281381960027,,,,,,,,,,,,,,,,,,,,,,,,,,,,,,,,,,,,,,,,,,,,,,,,17658,2022-12-01_14h11.18.460,vts_reward_expectancy_bt_OFFLINE,2022.2.4,59.940586410437234,
,,,,,,,,,,,,,,,,,,,,,,,,,,0,0,0,0,6,0,6,0,,,,,,,,,,,,,,,,,,,,,,,,,,,,,,,,,,,,,,,,814.0217078680871,,,125,Y,hexagon,0.001150854048319161,,,,,1,0,,,1,812.5368748540059,810.5348011560272,811.9529260330601,811.9529260330601,811.9529260330601,k,0.54652592795901,,,,,,,,,,,,,,,,,,,,,,,,,,,,,,,,,,,,,,,,,,,,,,,,17658,2022-12-01_14h11.18.460,vts_reward_expectancy_bt_OFFLINE,2022.2.4,59.940586410437234,
,,,,,,,,,,,,,,,,,,,,,,,,,,0,0,0,0,7,0,7,0,,,,,,,,,,,,,,,,,,,,,,,,,,,,,,,,,,,,,,,,819.2441948790802,,,132,F,star,0.0013179610250517726,,,,,1,0,,,1,817.7593839010224,815.0060840490041,816.5079885841114,816.5079885841114,816.5079885841114,j,1.2113315808819607,,,,,,,,,,,,,,,,,,,,,,,,,,,,,,,,,,,,,,,,,,,,,,,,17658,2022-12-01_14h11.18.460,vts_reward_expectancy_bt_OFFLINE,2022.2.4,59.940586410437234,
,,,,,,,,,,,,,,,,,,,,,,,,,,0,0,0,0,8,0,8,0,,,,,,,,,,,,,,,,,,,,,,,,,,,,,,,,,,,,,,,,823.9996081810677,,,167,B,triangle,0.0014477269724011421,,,,,1,0,,,1,822.514531913097,820.2287873940077,821.7302618280519,821.7302618280519,821.7302618280519,j,0.7490854249335825,,,,,,,,,,,,,,,,,,,,,,,,,,,,,,,,,,,,,,,,,,,,,,,,17658,2022-12-01_14h11.18.460,vts_reward_expectancy_bt_OFFLINE,2022.2.4,59.940586410437234,
,,,,,,,,,,,,,,,,,,,,,,,,,,0,0,0,0,9,0,9,0,,,,,,,,,,,,,,,,,,,,,,,,,,,,,,,,,,,,,,,,828.7214780290378,,,174,D,circle,0.0014712379779666662,,,,,1,0,,,1,827.2197116840398,824.9839176740497,826.4855266991071,826.4855266991071,826.4855266991071,j,0.6852383079240099,,,,,,,,,,,,,,,,,,,,,,,,,,,,,,,,,,,,,,,,,,,,,,,,17658,2022-12-01_14h11.18.460,vts_reward_expectancy_bt_OFFLINE,2022.2.4,59.940586410437234,
,,,,,,,,,,,,,,,,,,,,,,,,,,,,,,,,,,0,0,0,0,0,0,0,0,,,,,,,,,,,,,,,,,,,,,,,,,,,,0,837,,,850.0616144650849,,,132,F,circle,0.0021414050133898854,,,,,-1,0,,,2,,,,,,,,844.0550956540974,844.0550956540974,844.0550956540974,844.0550956540974,845.5398516510613,845.5398516510613,845.5398516510613,845.5398516510613,845.5565501380479,845.5565501380479,845.5565501380479,845.5565501380479,848.5599146760069,848.5599146760069,848.5599146760069,848.5599146760069,-1,no_choice,NA,None,vtsPrac,848.5599146760069,,,,,,,,,,,,,,,,,,,,,,,,,,17658,2022-12-01_14h11.18.460,vts_reward_expectancy_bt_OFFLINE,2022.2.4,59.940586410437234,
,,,,,,,,,,,,,,,,,,,,,,,,,,,,,,,,,,0,0,0,0,1,0,1,0,,,,,,,,,,,,,,,,,,,,,,,,,,,,0,837,,,855.4507859710138,,,146,U,star,0.009389978018589318,,,,,1,0,,,2,,,,,,,,851.0461588801118,851.0461588801118,851.0461588801118,851.0461588801118,852.5475901290774,852.5475901290774,852.5475901290774,852.5475901290774,852.5475901290774,852.5475901290774,852.5475901290774,852.5475901290774,,,,,switch,letter,lettSwt,k,vtsPrac,853.9492849680828,1.3671827649232,,,,,,,,,,,,,,,,,,,,,,,,,17658,2022-12-01_14h11.18.460,vts_reward_expectancy_bt_OFFLINE,2022.2.4,59.940586410437234,
,,,,,,,,,,,,,,,,,,,,,,,,,,,,,,,,,,0,0,0,0,2,0,2,0,,,,,,,,,,,,,,,,,,,,,,,,,,,,0,837,,,860.5732698410284,,,167,H,hexagon,0.000968653941527009,,,,,1,0,,,2,,,,,,,,856.4184573100647,856.4184573100647,856.4184573100647,856.4184573100647,857.9202753880527,857.9202753880527,857.9202753880527,857.9202753880527,857.9202753880527,857.9202753880527,857.9202753880527,857.9202753880527,,,,,repeat,letter,lettRpt,j,vtsPrac,859.0716978940181,1.111698794993572,,,,,,,,,,,,,,,,,,,,,,,,,17658,2022-12-01_14h11.18.460,vts_reward_expectancy_bt_OFFLINE,2022.2.4,59.940586410437234,
,,,,,,,,,,,,,,,,,,,,,,,,,,,,,,,,,,0,0,0,0,3,0,3,0,,,,,,,,,,,,,,,,,,,,,,,,,,,,0,837,,,865.4452734501101,,,181,D,circle,0.0008960940176621079,,,,,1,0,,,2,,,,,,,,861.5408369801007,861.5408369801007,861.5408369801007,861.5408369801007,863.0425623740302,863.0425623740302,863.0425623740302,863.0425623740302,863.0425623740302,863.0425623740302,863.0425623740302,863.0425623740302,,,,,repeat,letter,lettRpt,j,vtsPrac,863.9603916000342,0.8735352669609711,,,,,,,,,,,,,,,,,,,,,,,,,17658,2022-12-01_14h11.18.460,vts_reward_expectancy_bt_OFFLINE,2022.2.4,59.940586410437234,
,,,,,,,,,,,,,,,,,,,,,,,,,,,,,,,,,,0,0,0,0,4,0,4,0,,,,,,,,,,,,,,,,,,,,,,,,,,,,0,837,,,870.1338606950594,,,132,F,hexagon,0.001285254955291748,,,,,1,0,,,2,,,,,,,,866.4296719901031,866.4296719901031,866.4296719901031,866.4296719901031,867.9312143690186,867.9312143690186,867.9312143690186,867.9312143690186,867.9312143690186,867.9312143690186,867.9312143690186,867.9312143690186,,,,,repeat,letter,lettRpt,j,vtsPrac,868.632047960069,0.6529812850058079,870.1338606950594,,,,,,,,,,,,,,,,,,,,,,,,17658,2022-12-01_14h11.18.460,vts_reward_expectancy_bt_OFFLINE,2022.2.4,59.940586410437234,
,,,,,,,,,,,,,,,,,,,,,,,,,,,,,,,,,,0,0,0,0,5,0,5,0,,,,,,,,,,,,,,,,,,,,,,,,,,,,0,837,,,874.7887259540148,,,146,U,triangle,0.0012636169558390975,,,,,1,0,,,2,,,,,,,,871.1181085261051,871.1181085261051,871.1181085261051,871.1181085261051,872.6196980110835,872.6196980110835,872.6196980110835,872.6196980110835,872.6196980110835,872.6196980110835,872.6196980110835,872.6196980110835,,,,,repeat,letter,lettRpt,k,vtsPrac,873.3039568810491,0.6445049160392955,,,,,,,,,,,,,,,,,,,,,,,,,17658,2022-12-01_14h11.18.460,vts_reward_expectancy_bt_OFFLINE,2022.2.4,59.940586410437234,
,,,,,,,,,,,,,,,,,,,,,,,,,,,,,,,,,,0,0,0,0,6,0,6,0,,,,,,,,,,,,,,,,,,,,,,,,,,,,0,837,,,879.4107501980616,,,167,H,triangle,0.0012164060026407242,,,,,1,0,,,2,,,,,,,,875.773345359019,875.773345359019,875.773345359019,875.773345359019,877.2749144140398,877.2749144140398,877.2749144140398,877.2749144140398,877.2749144140398,877.2749144140398,877.2749144140398,877.2749144140398,,,,,repeat,letter,lettRpt,j,vtsPrac,877.9257778960746,0.6146291550248861,,,,,,,,,,,,,,,,,,,,,,,,,17658,2022-12-01_14h11.18.460,vts_reward_expectancy_bt_OFFLINE,2022.2.4,59.940586410437234,
,,,,,,,,,,,,,,,,,,,,,,,,,,,,,,,,,,0,0,0,0,7,0,7,0,,,,,,,,,,,,,,,,,,,,,,,,,,,,0,837,,,884.0489819881041,,,181,D,circle,0.0011648290092125535,,,,,1,0,,,2,,,,,,,,880.3949168861145,880.3949168861145,880.3949168861145,880.3949168861145,881.8967945050681,881.8967945050681,881.8967945050681,881.8967945050681,881.8967945050681,881.8967945050681,881.8967945050681,881.8967945050681,,,,,repeat,letter,lettRpt,j,vtsPrac,882.5474608680233,0.6173646110109985,,,,,,,,,,,,,,,,,,,,,,,,,17658,2022-12-01_14h11.18.460,vts_reward_expectancy_bt_OFFLINE,2022.2.4,59.940586410437234,
,,,,,,,,,,,,,,,,,,,,,,,,,,,,,,,,,,0,0,0,0,8,0,8,0,,,,,,,,,,,,,,,,,,,,,,,,,,,,0,837,,,888.6873804740608,,,167,U,hexagon,0.0006047849310562015,,,,,1,0,,,2,,,,,,,,885.0166857750155,885.0166857750155,885.0166857750155,885.0166857750155,886.5184088760288,886.5184088760288,886.5184088760288,886.5184088760288,886.5184088760288,886.5184088760288,886.5184088760288,886.5184088760288,,,,,repeat,letter,lettRpt,k,vtsPrac,887.1859215840232,0.6182531889062375,888.6873804740608,,,,,,,,,,,,,,,,,,,,,,,,17658,2022-12-01_14h11.18.460,vts_reward_expectancy_bt_OFFLINE,2022.2.4,59.940586410437234,
,,,,,,,,,,,,,,,,,,,,,,,,,,,,,,,,,,0,0,0,0,9,0,9,0,,,,,,,,,,,,,,,,,,,,,,,,,,,,0,837,,,893.275720951031,,,146,S,star,0.0011582530569285154,,,,,1,0,,,2,,,,,,,,889.6718698610784,889.6718698610784,889.6718698610784,889.6718698610784,891.1734458280262,891.1734458280262,891.1734458280262,891.1734458280262,891.1734458280262,891.1734458280262,891.1734458280262,891.1734458280262,,,,,repeat,letter,lettRpt,k,vtsPrac,891.7743109150324,0.5532142820302397,893.275720951031,,,,,,,,,,,,,,,,,,,,,,,,17658,2022-12-01_14h11.18.460,vts_reward_expectancy_bt_OFFLINE,2022.2.4,59.940586410437234,
,,,,,,,,,,,,,,,,,,,,,,,,,,,,,,,,,,0,0,0,0,10,0,10,0,,,,,,,,,,,,,,,,,,,,,,,,,,,,0,837,,,897.9145004610764,,,174,B,hexagon,0.0009249319555237889,,,,,1,0,,,2,,,,,,,,894.2603540410055,894.2603540410055,894.2603540410055,894.2603540410055,895.7619038140401,895.7619038140401,895.7619038140401,895.7619038140401,895.7619038140401,895.7619038140401,895.7619038140401,895.7619038140401,,,,,repeat,letter,lettRpt,j,vtsPrac,896.4129348910647,0.6017190349521115,,,,,,,,,,,,,,,,,,,,,,,,,17658,2022-12-01_14h11.18.460,vts_reward_expectancy_bt_OFFLINE,2022.2.4,59.940586410437234,
,,,,,,,,,,,,,,,,,,,,,,,,,,,,,,,,,,0,0,0,0,11,0,11,0,,,,,,,,,,,,,,,,,,,,,,,,,,,,0,837,,,902.7531016280409,,,160,D,triangle,0.00113583798520267,,,,,1,0,,,2,,,,,,,,898.8987883230438,898.8987883230438,898.8987883230438,898.8987883230438,900.4003912030021,900.4003912030021,900.4003912030021,900.4003912030021,900.4003912030021,900.4003912030021,900.4003912030021,900.4003912030021,,,,,repeat,letter,lettRpt,j,vtsPrac,901.2513925760286,0.8114945909474045,,,,,,,,,,,,,,,,,,,,,,,,,17658,2022-12-01_14h11.18.460,vts_reward_expectancy_bt_OFFLINE,2022.2.4,59.940586410437234,
,,,,,,,,,,,,,,,,,,,,,,,,,,,,,,,,,,0,0,0,0,12,0,12,0,,,,,,,,,,,,,,,,,,,,,,,,,,,,0,837,,,907.3747875631088,,,132,D,triangle,0.0010169679298996925,,,,,1,0,,,2,,,,,,,,903.7207021140493,903.7207021140493,903.7207021140493,903.7207021140493,905.2224582650233,905.2224582650233,905.2224582650233,905.2224582650233,905.2224582650233,905.2224582650233,905.2224582650233,905.2224582650233,,,,,repeat,letter,lettRpt,j,vtsPrac,905.8730176780373,0.6017036479897797,,,,,,,,,,,,,,,,,,,,,,,,,17658,2022-12-01_14h11.18.460,vts_reward_expectancy_bt_OFFLINE,2022.2.4,59.940586410437234,
,,,,,,,,,,,,,,,,,,,,,,,,,,,,,,,,,,0,0,0,0,13,0,13,0,,,,,,,,,,,,,,,,,,,,,,,,,,,,0,837,,,912.4470527759986,,,146,B,hexagon,0.0011426019482314587,,,,,1,0,,,2,,,,,,,,908.3592474960024,908.3592474960024,908.3592474960024,908.3592474960024,909.8608218490845,909.8608218490845,909.8608218490845,909.8608218490845,909.8608218490845,909.8608218490845,909.8608218490845,909.8608218490845,,,,,repeat,letter,lettRpt,j,vtsPrac,910.9452748150798,1.0378387009259313,,,,,,,,,,,,,,,,,,,,,,,,,17658,2022-12-01_14h11.18.460,vts_reward_expectancy_bt_OFFLINE,2022.2.4,59.940586410437234,
,,,,,,,,,,,,,,,,,,,,,,,,,,,,,,,,,,0,0,0,0,14,0,14,0,,,,,,,,,,,,,,,,,,,,,,,,,,,,0,837,,,917.2523426350672,,,139,W,hexagon,0.0010612680343911052,,,,,1,0,,,2,,,,,,,,913.414951175102,913.414951175102,913.414951175102,913.414951175102,914.9164958880283,914.9164958880283,914.9164958880283,914.9164958880283,914.9164958880283,914.9164958880283,914.9164958880283,914.9164958880283,,,,,repeat,letter,lettRpt,k,vtsPrac,915.7506141610211,0.7858089099172503,,,,,,,,,,,,,,,,,,,,,,,,,17658,2022-12-01_14h11.18.460,vts_reward_expectancy_bt_OFFLINE,2022.2.4,59.940586410437234,
,,,,,,,,,,,,,,,,,,,,,,,,,,,,,,,,,,0,0,0,0,15,0,15,0,,,,,,,,,,,,,,,,,,,,,,,,,,,,0,837,,,922.1242632151116,,,125,S,triangle,0.001196737983264029,,,,,1,0,,,2,,,,,,,,918.236917236005,918.236917236005,918.236917236005,918.236917236005,919.7384814110119,919.7384814110119,919.7384814110119,919.7384814110119,919.7384814110119,919.7384814110119,919.7384814110119,919.7384814110119,,,,,repeat,letter,lettRpt,k,vtsPrac,920.6226666660514,0.8356954919872805,,,,,,,,,,,,,,,,,,,,,,,,,17658,2022-12-01_14h11.18.460,vts_reward_expectancy_bt_OFFLINE,2022.2.4,59.940586410437234,
,,,,,,,,,,,,,,,,,,,,,,,,,,,,,,,,,,0,0,0,0,16,0,16,0,,,,,,,,,,,,,,,,,,,,,,,,,,,,0,837,,,926.746179474052,,,139,S,circle,0.0012601580237969756,,,,,1,0,,,2,,,,,,,,923.1090608040104,923.1090608040104,923.1090608040104,923.1090608040104,924.6106203950476,924.6106203950476,924.6106203950476,924.6106203950476,924.6106203950476,924.6106203950476,924.6106203950476,924.6106203950476,,,,,repeat,letter,lettRpt,k,vtsPrac,925.2446229140041,0.6007602699100971,,,,,,,,,,,,,,,,,,,,,,,,,17658,2022-12-01_14h11.18.460,vts_reward_expectancy_bt_OFFLINE,2022.2.4,59.940586410437234,
,,,,,,,,,,,,,,,,,,,,,,,,,,,,,,,,,,0,0,0,0,17,0,17,0,,,,,,,,,,,,,,,,,,,,,,,,,,,,0,837,,,931.2844615860377,,,132,D,triangle,0.0006174499867483974,,,,,1,0,,,2,,,,,,,,927.7138900200371,927.7138900200371,927.7138900200371,927.7138900200371,929.2156395750353,929.2156395750353,929.2156395750353,929.2156395750353,929.2156395750353,929.2156395750353,929.2156395750353,929.2156395750353,,,,,repeat,letter,lettRpt,j,vtsPrac,929.7996316780336,0.5400614748941734,,,,,,,,,,,,,,,,,,,,,,,,,17658,2022-12-01_14h11.18.460,vts_reward_expectancy_bt_OFFLINE,2022.2.4,59.940586410437234,
,,,,,,,,,,,,,,,,,,,,,,,,,,,,,,,,,,0,0,0,0,18,0,18,0,,,,,,,,,,,,,,,,,,,,,,,,,,,,0,837,,,935.8228477210505,,,146,B,circle,0.0011281389743089676,,,,,1,0,,,2,,,,,,,,932.2688756700372,932.2688756700372,932.2688756700372,932.2688756700372,933.77059078007,933.77059078007,933.77059078007,933.77059078007,933.77059078007,933.77059078007,933.77059078007,933.77059078007,,,,,repeat,letter,lettRpt,j,vtsPrac,934.3379384190775,0.5294273749459535,,,,,,,,,,,,,,,,,,,,,,,,,17658,2022-12-01_14h11.18.460,vts_reward_expectancy_bt_OFFLINE,2022.2.4,59.940586410437234,
,,,,,,,,,,,,,,,,,,,,,,,,,,,,,,,,,,0,0,0,0,19,0,19,0,,,,,,,,,,,,,,,,,,,,,,,,,,,,0,837,,,940.4446514591109,,,167,H,hexagon,0.0012753340415656567,,,,,1,0,,,2,,,,,,,,936.8073927090736,936.8073927090736,936.8073927090736,936.8073927090736,938.308952581021,938.308952581021,938.308952581021,938.308952581021,938.308952581021,938.308952581021,938.308952581021,938.308952581021,,,,,repeat,letter,lettRpt,j,vtsPrac,938.9596988650737,0.6038520900765434,,,,,,,,,,,,,,,,,,,,,,,,,17658,2022-12-01_14h11.18.460,vts_reward_expectancy_bt_OFFLINE,2022.2.4,59.940586410437234,
,,,,,,,,,,,,,,,,,,,,,,,,,,,,,,,,,,0,0,0,0,20,0,20,0,,,,,,,,,,,,,,,,,,,,,,,,,,,,0,837,,,945.1164567790693,,,181,W,triangle,0.0012416980462148786,,,,,1,0,,,2,,,,,,,,941.4289937660797,941.4289937660797,941.4289937660797,941.4289937660797,942.9305529030971,942.9305529030971,942.9305529030971,942.9305529030971,942.9305529030971,942.9305529030971,942.9305529030971,942.9305529030971,,,,,repeat,letter,lettRpt,k,vtsPrac,943.6313562280266,0.6632017149822786,,,,,,,,,,,,,,,,,,,,,,,,,17658,2022-12-01_14h11.18.460,vts_reward_expectancy_bt_OFFLINE,2022.2.4,59.940586410437234,
,,,,,,,,,,,,,,,,,,,,,,,,,,,,,,,,,,0,0,0,0,21,0,21,0,,,,,,,,,,,,,,,,,,,,,,,,,,,,0,837,,,949.9550232250476,,,125,H,circle,0.0011714301072061062,,,,,1,0,,,2,,,,,,,,946.1006799160969,946.1006799160969,946.1006799160969,946.1006799160969,947.6023479300784,947.6023479300784,947.6023479300784,947.6023479300784,947.6023479300784,947.6023479300784,947.6023479300784,947.6023479300784,,,,,repeat,letter,lettRpt,j,vtsPrac,948.4701723840553,0.8291555879404768,,,,,,,,,,,,,,,,,,,,,,,,,17658,2022-12-01_14h11.18.460,vts_reward_expectancy_bt_OFFLINE,2022.2.4,59.940586410437234,
,,,,,,,,,,,,,,,,,,,,,,,,,,,,,,,,,,0,0,0,0,22,0,22,0,,,,,,,,,,,,,,,,,,,,,,,,,,,,0,837,,,954.6937775680562,,,167,S,triangle,0.0012040500296279788,,,,,1,0,,,2,,,,,,,,950.9395682810573,950.9395682810573,950.9395682810573,950.9395682810573,952.4410951780155,952.4410951780155,952.4410951780155,952.4410951780155,952.4410951780155,952.4410951780155,952.4410951780155,952.4410951780155,,,,,repeat,letter,lettRpt,k,vtsPrac,953.2086658250773,0.7269882699474692,,,,,,,,,,,,,,,,,,,,,,,,,17658,2022-12-01_14h11.18.460,vts_reward_expectancy_bt_OFFLINE,2022.2.4,59.940586410437234,
,,,,,,,,,,,,,,,,,,,,,,,,,,,,,,,,,,0,0,0,0,23,0,23,0,,,,,,,,,,,,,,,,,,,,,,,,,,,,0,837,,,959.4155116280308,,,139,Y,circle,0.001158284954726696,,,,,1,0,,,2,,,,,,,,955.6779614510015,955.6779614510015,955.6779614510015,955.6779614510015,957.1798563190969,957.1798563190969,957.1798563190969,957.1798563190969,957.1798563190969,957.1798563190969,957.1798563190969,957.1798563190969,,,,,repeat,letter,lettRpt,k,vtsPrac,957.9307227290701,0.7139806560007855,,,,,,,,,,,,,,,,,,,,,,,,,17658,2022-12-01_14h11.18.460,vts_reward_expectancy_bt_OFFLINE,2022.2.4,59.940586410437234,
,,,,,,,,,,,,,,,,,,,,,,,,,,,,,,,,,,0,0,0,0,24,0,24,0,,,,,,,,,,,,,,,,,,,,,,,,,,,,0,837,,,964.1541354360525,,,132,S,star,0.0014423029497265816,,,,,1,0,,,2,,,,,,,,960.3999981340021,960.3999981340021,960.3999981340021,960.3999981340021,961.9017177440692,961.9017177440692,961.9017177440692,961.9017177440692,961.9017177440692,961.9017177440692,961.9017177440692,961.9017177440692,,,,,switch,number,numSwt,d,vtsPrac,962.6692116700578,0.7285910600330681,,,,,,,,,,,,,,,,,,,,,,,,,17658,2022-12-01_14h11.18.460,vts_reward_expectancy_bt_OFFLINE,2022.2.4,59.940586410437234,
,,,,,,,,,,,,,,,,,,,,,,,,,,,,,,,,,,0,0,0,0,25,0,25,0,,,,,,,,,,,,,,,,,,,,,,,,,,,,0,837,,,968.9926446760073,,,146,W,triangle,0.0012502450263127685,,,,,1,0,,,2,,,,,,,,965.1385313461069,965.1385313461069,965.1385313461069,965.1385313461069,966.6400173880393,966.6400173880393,966.6400173880393,966.6400173880393,966.6400173880393,966.6400173880393,966.6400173880393,966.6400173880393,,,,,switch,letter,lettSwt,k,vtsPrac,967.5078939290252,0.8278760309331119,,,,,,,,,,,,,,,,,,,,,,,,,17658,2022-12-01_14h11.18.460,vts_reward_expectancy_bt_OFFLINE,2022.2.4,59.940586410437234,
,,,,,,,,,,,,,,,,,,,,,,,,,,,,,,,,,,0,0,0,0,26,0,26,0,,,,,,,,,,,,,,,,,,,,,,,,,,,,0,837,,,974.06492578506,,,160,Y,hexagon,0.001123810070566833,,,,,1,0,,,2,,,,,,,,969.9773119880119,969.9773119880119,969.9773119880119,969.9773119880119,971.4789821330924,971.4789821330924,971.4789821330924,971.4789821330924,971.4789821330924,971.4789821330924,971.4789821330924,971.4789821330924,,,,,repeat,letter,lettRpt,k,vtsPrac,972.5802076751133,1.0623901010258123,,,,,,,,,,,,,,,,,,,,,,,,,17658,2022-12-01_14h11.18.460,vts_reward_expectancy_bt_OFFLINE,2022.2.4,59.940586410437234,
,,,,,,,,,,,,,,,,,,,,,,,,,,,,,,,,,,0,0,0,0,27,0,27,0,,,,,,,,,,,,,,,,,,,,,,,,,,,,0,837,,,979.4041928380029,,,125,H,triangle,0.0012374049983918667,,,,,1,0,,,2,,,,,,,,975.0494147581048,975.0494147581048,975.0494147581048,975.0494147581048,976.5511596550932,976.5511596550932,976.5511596550932,976.5511596550932,976.5511596550932,976.5511596550932,976.5511596550932,976.5511596550932,,,,,repeat,letter,lettRpt,j,vtsPrac,977.902575228014,1.302036035922356,979.4041928380029,,,,,,,,,,,,,,,,,,,,,,,,17658,2022-12-01_14h11.18.460,vts_reward_expectancy_bt_OFFLINE,2022.2.4,59.940586410437234,
,,,,,,,,,,,,,,,,,,,,,,,,,,,,,,,,,,0,0,0,0,28,0,28,0,,,,,,,,,,,,,,,,,,,,,,,,,,,,0,837,,,984.3597536800662,,,160,W,star,0.0012578900204971433,,,,,1,0,,,2,,,,,,,,980.3885711530456,980.3885711530456,980.3885711530456,980.3885711530456,981.8904292610241,981.8904292610241,981.8904292610241,981.8904292610241,981.8904292610241,981.8904292610241,981.8904292610241,981.8904292610241,,,,,repeat,letter,lettRpt,k,vtsPrac,982.8747188460547,0.9461312699131668,,,,,,,,,,,,,,,,,,,,,,,,,17658,2022-12-01_14h11.18.460,vts_reward_expectancy_bt_OFFLINE,2022.2.4,59.940586410437234,
,,,,,,,,,,,,,,,,,,,,,,,,,,,,,,,,,,0,0,0,0,29,0,29,0,,,,,,,,,,,,,,,,,,,,,,,,,,,,0,837,,,989.2818913750816,,,167,U,triangle,0.0012502570170909166,,,,,1,0,,,2,,,,,,,,985.3443474380765,985.3443474380765,985.3443474380765,985.3443474380765,986.8460264680907,986.8460264680907,986.8460264680907,986.8460264680907,986.8460264680907,986.8460264680907,986.8460264680907,986.8460264680907,,,,,repeat,letter,lettRpt,k,vtsPrac,987.7969147550175,0.9079826889792457,,,,,,,,,,,,,,,,,,,,,,,,,17658,2022-12-01_14h11.18.460,vts_reward_expectancy_bt_OFFLINE,2022.2.4,59.940586410437234,
