LTriangleOpac,LCircleOpac,LHexagonOpac,LStarOpac,RTriangleOpac,RCircleOpac,RHexagonOpac,RStarOpac,LShape_ID,RShape_ID,training_blocks.thisRepN,training_blocks.thisTrialN,training_blocks.thisN,training_blocks.thisIndex,training.thisRepN,training.thisTrialN,training.thisN,training.thisIndex,task1_prac_redo.thisRepN,task1_prac_redo.thisTrialN,task1_prac_redo.thisN,task1_prac_redo.thisIndex,task1_prac_trials.thisRepN,task1_prac_trials.thisTrialN,task1_prac_trials.thisN,task1_prac_trials.thisIndex,task2_prac_redo.thisRepN,task2_prac_redo.thisTrialN,task2_prac_redo.thisN,task2_prac_redo.thisIndex,task2_praac_trials.thisRepN,task2_praac_trials.thisTrialN,task2_praac_trials.thisN,task2_praac_trials.thisIndex,vts_prac_redo.thisRepN,vts_prac_redo.thisTrialN,vts_prac_redo.thisN,vts_prac_redo.thisIndex,vts_practice_trials.thisRepN,vts_practice_trials.thisTrialN,vts_practice_trials.thisN,vts_practice_trials.thisIndex,trials_norew.thisRepN,trials_norew.thisTrialN,trials_norew.thisN,trials_norew.thisIndex,block.thisRepN,block.thisTrialN,block.thisN,block.thisIndex,trials_rew.thisRepN,trials_rew.thisTrialN,trials_rew.thisN,trials_rew.thisIndex,key_resp.started,key_resp.keys,key_resp.rt,left_circle.started,right_circle.started,left_triangle.started,right_triangle.started,left_star.started,right_star.started,left_hexagon.started,right_hexagon.started,training_fix.started,training_resp.started,training_resp.keys,training_resp.rt,points_trial,points_cumul,trainBlock,training_feedback_txt.started,fix.started,curr_topStim,curr_bottStim,curr_shape,ISI.started,tgt_fix_prac1.started,top_target_prac1.started,bott_target_prac1.started,target_resp_prac1.started,acc,E1,target_resp_prac1.keys,target_resp_prac1.rt,pracBlock,prac_fback_text.started,tgt_fix_prac2.started,top_target_prac2.started,bott_target_prac2.started,target_resp_prac2.started,target_resp_prac2.keys,target_resp_prac2.rt,star.started,hegagon.started,triangle.started,circle.started,star.stopped,hegagon.stopped,triangle.stopped,circle.stopped,top_target.started,tgt_fix.started,bot_target.started,target_resp.started,top_target.stopped,tgt_fix.stopped,bot_target.stopped,target_resp.stopped,alt,task,condition,target_resp.keys,rewCond,vts_fback.started,vts_fback.stopped,fix.stopped,target_resp.rt,blockNum,norew_fback.started,norew_fback.stopped,key_resp_2.keys,key_resp_2.rt,rewExpectancy,feedbk_text.started,feedbk_text.stopped,text_3.started,debrief.started,text_3.stopped,button.started,debrief.index,debrief.itemText,debrief.type,debrief.granularity,debrief.font,debrief.markerColor,debrief.response,debrief.rt,button.numClicks,button.timesOn,button.timesOff,participant,date,expName,psychopyVersion,frameRate,
,,,,,,,,,,,,,,,,,,,,,,,,,,,,,,,,,,,,,,,,,,,,,,,,,,,,,,22.736446257971693,space,16.561569996003527,,,,,,,,,,,,,,,,,,,,,,,,,,,,,,,,,,,,,,,,,,,,,,,,,,,,,,,,,,,,,,,,,,,,,,,,,,,,,,,,,,,,,,18375,2022-12-01_14h04.43.957,vts_reward_expectancy_bt_OFFLINE,2022.2.4,59.88073865394295,
0,0,1,0,1,0,0,0,hexagon,triangle,0,0,0,0,0,0,0,6,,,,,,,,,,,,,,,,,,,,,,,,,,,,,,,,,,,,,,,,68.93075526796747,68.93075526796747,68.93075526796747,68.93075526796747,68.93075526796747,68.93075526796747,68.93075526796747,68.93075526796747,68.93075526796747,68.93075526796747,a,1.4222920350148343,10,10,0,70.37243205000414,71.87462543399306,,,,,,,,,,,,,,,,,,,,,,,,,,,,,,,,,,,,,,,,,,,,,,,,,,,,,,,,,,,,,,,,,,,,,18375,2022-12-01_14h04.43.957,vts_reward_expectancy_bt_OFFLINE,2022.2.4,59.88073865394295,
0,0,1,0,0,0,0,1,hexagon,star,0,0,0,0,0,1,1,8,,,,,,,,,,,,,,,,,,,,,,,,,,,,,,,,,,,,,,,,72.37510857800953,72.37510857800953,72.37510857800953,72.37510857800953,72.37510857800953,72.37510857800953,72.37510857800953,72.37510857800953,72.37510857800953,72.37510857800953,a,0.8101597440545447,1,11,0,73.20914123998955,74.71059549000347,,,,,,,,,,,,,,,,,,,,,,,,,,,,,,,,,,,,,,,,,,,,,,,,,,,,,,,,,,,,,,,,,,,,,18375,2022-12-01_14h04.43.957,vts_reward_expectancy_bt_OFFLINE,2022.2.4,59.88073865394295,
0,1,0,0,1,0,0,0,circle,triangle,0,0,0,0,0,2,2,3,,,,,,,,,,,,,,,,,,,,,,,,,,,,,,,,,,,,,,,,75.2112347339862,75.2112347339862,75.2112347339862,75.2112347339862,75.2112347339862,75.2112347339862,75.2112347339862,75.2112347339862,75.2112347339862,75.2112347339862,l,3.4467309260508046,1,12,0,78.6818273079698,80.18339007598115,,,,,,,,,,,,,,,,,,,,,,,,,,,,,,,,,,,,,,,,,,,,,,,,,,,,,,,,,,,,,,,,,,,,,18375,2022-12-01_14h04.43.957,vts_reward_expectancy_bt_OFFLINE,2022.2.4,59.88073865394295,
1,0,0,0,0,0,0,1,triangle,star,0,0,0,0,0,3,3,2,,,,,,,,,,,,,,,,,,,,,,,,,,,,,,,,,,,,,,,,80.68418175197439,80.68418175197439,80.68418175197439,80.68418175197439,80.68418175197439,80.68418175197439,80.68418175197439,80.68418175197439,80.68418175197439,80.68418175197439,l,1.9022725109825842,1,13,0,82.60289830400143,84.10464623296866,,,,,,,,,,,,,,,,,,,,,,,,,,,,,,,,,,,,,,,,,,,,,,,,,,,,,,,,,,,,,,,,,,,,,18375,2022-12-01_14h04.43.957,vts_reward_expectancy_bt_OFFLINE,2022.2.4,59.88073865394295,
0,0,0,1,0,0,1,0,star,hexagon,0,0,0,0,0,4,4,11,,,,,,,,,,,,,,,,,,,,,,,,,,,,,,,,,,,,,,,,84.60499048797647,84.60499048797647,84.60499048797647,84.60499048797647,84.60499048797647,84.60499048797647,84.60499048797647,84.60499048797647,84.60499048797647,84.60499048797647,l,1.1239073390024714,1,14,0,85.75622711097822,87.25787979498273,,,,,,,,,,,,,,,,,,,,,,,,,,,,,,,,,,,,,,,,,,,,,,,,,,,,,,,,,,,,,,,,,,,,,18375,2022-12-01_14h04.43.957,vts_reward_expectancy_bt_OFFLINE,2022.2.4,59.88073865394295,
1,0,0,0,0,0,1,0,triangle,hexagon,0,0,0,0,0,5,5,1,,,,,,,,,,,,,,,,,,,,,,,,,,,,,,,,,,,,,,,,87.7586367779877,87.7586367779877,87.7586367779877,87.7586367779877,87.7586367779877,87.7586367779877,87.7586367779877,87.7586367779877,87.7586367779877,87.7586367779877,a,0.7703886239905842,10,24,0,88.55938993301243,90.06115300097736,,,,,,,,,,,,,,,,,,,,,,,,,,,,,,,,,,,,,,,,,,,,,,,,,,,,,,,,,,,,,,,,,,,,,18375,2022-12-01_14h04.43.957,vts_reward_expectancy_bt_OFFLINE,2022.2.4,59.88073865394295,
1,0,0,0,0,1,0,0,triangle,circle,0,0,0,0,0,6,6,0,,,,,,,,,,,,,,,,,,,,,,,,,,,,,,,,,,,,,,,,90.5615837139776,90.5615837139776,90.5615837139776,90.5615837139776,90.5615837139776,90.5615837139776,90.5615837139776,90.5615837139776,90.5615837139776,90.5615837139776,a,0.37597826501587406,1,25,0,90.96211523300735,92.4637640209985,,,,,,,,,,,,,,,,,,,,,,,,,,,,,,,,,,,,,,,,,,,,,,,,,,,,,,,,,,,,,,,,,,,,,18375,2022-12-01_14h04.43.957,vts_reward_expectancy_bt_OFFLINE,2022.2.4,59.88073865394295,
0,0,0,1,1,0,0,0,star,triangle,0,0,0,0,0,7,7,9,,,,,,,,,,,,,,,,,,,,,,,,,,,,,,,,,,,,,,,,92.96421761397505,92.96421761397505,92.96421761397505,92.96421761397505,92.96421761397505,92.96421761397505,92.96421761397505,92.96421761397505,92.96421761397505,92.96421761397505,l,1.2770879850140773,10,35,0,94.26584563701181,95.76735934999306,,,,,,,,,,,,,,,,,,,,,,,,,,,,,,,,,,,,,,,,,,,,,,,,,,,,,,,,,,,,,,,,,,,,,18375,2022-12-01_14h04.43.957,vts_reward_expectancy_bt_OFFLINE,2022.2.4,59.88073865394295,
0,0,1,0,0,1,0,0,hexagon,circle,0,0,0,0,0,8,8,7,,,,,,,,,,,,,,,,,,,,,,,,,,,,,,,,,,,,,,,,96.26796144596301,96.26796144596301,96.26796144596301,96.26796144596301,96.26796144596301,96.26796144596301,96.26796144596301,96.26796144596301,96.26796144596301,96.26796144596301,a,0.2616057870327495,10,45,0,96.55150698596844,98.05312498699641,,,,,,,,,,,,,,,,,,,,,,,,,,,,,,,,,,,,,,,,,,,,,,,,,,,,,,,,,,,,,,,,,,,,,18375,2022-12-01_14h04.43.957,vts_reward_expectancy_bt_OFFLINE,2022.2.4,59.88073865394295,
0,1,0,0,0,0,1,0,circle,hexagon,0,0,0,0,0,9,9,4,,,,,,,,,,,,,,,,,,,,,,,,,,,,,,,,,,,,,,,,98.55401056597475,98.55401056597475,98.55401056597475,98.55401056597475,98.55401056597475,98.55401056597475,98.55401056597475,98.55401056597475,98.55401056597475,98.55401056597475,l,0.2868535270681605,1,46,0,98.87068242399255,100.37240831000963,,,,,,,,,,,,,,,,,,,,,,,,,,,,,,,,,,,,,,,,,,,,,,,,,,,,,,,,,,,,,,,,,,,,,18375,2022-12-01_14h04.43.957,vts_reward_expectancy_bt_OFFLINE,2022.2.4,59.88073865394295,
0,1,0,0,0,0,0,1,circle,star,0,0,0,0,0,10,10,5,,,,,,,,,,,,,,,,,,,,,,,,,,,,,,,,,,,,,,,,100.872904223972,100.872904223972,100.872904223972,100.872904223972,100.872904223972,100.872904223972,100.872904223972,100.872904223972,100.872904223972,100.872904223972,l,0.5201367550180294,1,47,0,101.42342427396215,102.92517767701065,,,,,,,,,,,,,,,,,,,,,,,,,,,,,,,,,,,,,,,,,,,,,,,,,,,,,,,,,,,,,,,,,,,,,18375,2022-12-01_14h04.43.957,vts_reward_expectancy_bt_OFFLINE,2022.2.4,59.88073865394295,
0,0,0,1,0,1,0,0,star ,circle,0,0,0,0,0,11,11,10,,,,,,,,,,,,,,,,,,,,,,,,,,,,,,,,,,,,,,,,103.42583256197395,103.42583256197395,103.42583256197395,103.42583256197395,103.42583256197395,103.42583256197395,103.42583256197395,103.42583256197395,103.42583256197395,103.42583256197395,a,2.374859288043808,1,48,0,105.82843376899837,107.33003742899746,,,,,,,,,,,,,,,,,,,,,,,,,,,,,,,,,,,,,,,,,,,,,,,,,,,,,,,,,,,,,,,,,,,,,18375,2022-12-01_14h04.43.957,vts_reward_expectancy_bt_OFFLINE,2022.2.4,59.88073865394295,
0,1,0,0,1,0,0,0,circle,triangle,0,0,0,0,1,0,12,3,,,,,,,,,,,,,,,,,,,,,,,,,,,,,,,,,,,,,,,,107.83047016698401,107.83047016698401,107.83047016698401,107.83047016698401,107.83047016698401,107.83047016698401,107.83047016698401,107.83047016698401,107.83047016698401,107.83047016698401,l,0.36996206000912935,10,58,0,108.23097256699111,109.73290438996628,,,,,,,,,,,,,,,,,,,,,,,,,,,,,,,,,,,,,,,,,,,,,,,,,,,,,,,,,,,,,,,,,,,,,18375,2022-12-01_14h04.43.957,vts_reward_expectancy_bt_OFFLINE,2022.2.4,59.88073865394295,
0,1,0,0,0,0,1,0,circle,hexagon,0,0,0,0,1,1,13,4,,,,,,,,,,,,,,,,,,,,,,,,,,,,,,,,,,,,,,,,110.23335194296669,110.23335194296669,110.23335194296669,110.23335194296669,110.23335194296669,110.23335194296669,110.23335194296669,110.23335194296669,110.23335194296669,110.23335194296669,a,0.24014637700747699,10,68,0,110.50017793901497,112.00193255598424,,,,,,,,,,,,,,,,,,,,,,,,,,,,,,,,,,,,,,,,,,,,,,,,,,,,,,,,,,,,,,,,,,,,,18375,2022-12-01_14h04.43.957,vts_reward_expectancy_bt_OFFLINE,2022.2.4,59.88073865394295,
1,0,0,0,0,1,0,0,triangle,circle,0,0,0,0,1,2,14,0,,,,,,,,,,,,,,,,,,,,,,,,,,,,,,,,,,,,,,,,112.5024335019989,112.5024335019989,112.5024335019989,112.5024335019989,112.5024335019989,112.5024335019989,112.5024335019989,112.5024335019989,112.5024335019989,112.5024335019989,a,0.2677309109712951,10,78,0,112.80273787898477,114.30447971000103,,,,,,,,,,,,,,,,,,,,,,,,,,,,,,,,,,,,,,,,,,,,,,,,,,,,,,,,,,,,,,,,,,,,,18375,2022-12-01_14h04.43.957,vts_reward_expectancy_bt_OFFLINE,2022.2.4,59.88073865394295,
1,0,0,0,0,0,1,0,triangle,hexagon,0,0,0,0,1,3,15,1,,,,,,,,,,,,,,,,,,,,,,,,,,,,,,,,,,,,,,,,114.80533530097455,114.80533530097455,114.80533530097455,114.80533530097455,114.80533530097455,114.80533530097455,114.80533530097455,114.80533530097455,114.80533530097455,114.80533530097455,l,0.1805257410160266,10,88,0,115.00527297199005,116.50685897399671,,,,,,,,,,,,,,,,,,,,,,,,,,,,,,,,,,,,,,,,,,,,,,,,,,,,,,,,,,,,,,,,,,,,,18375,2022-12-01_14h04.43.957,vts_reward_expectancy_bt_OFFLINE,2022.2.4,59.88073865394295,
0,0,1,0,0,1,0,0,hexagon,circle,0,0,0,0,1,4,16,7,,,,,,,,,,,,,,,,,,,,,,,,,,,,,,,,,,,,,,,,117.00727606797591,117.00727606797591,117.00727606797591,117.00727606797591,117.00727606797591,117.00727606797591,117.00727606797591,117.00727606797591,117.00727606797591,117.00727606797591,a,0.21784072200534865,10,98,0,117.25769603898516,118.75939414801542,,,,,,,,,,,,,,,,,,,,,,,,,,,,,,,,,,,,,,,,,,,,,,,,,,,,,,,,,,,,,,,,,,,,,18375,2022-12-01_14h04.43.957,vts_reward_expectancy_bt_OFFLINE,2022.2.4,59.88073865394295,
0,0,1,0,1,0,0,0,hexagon,triangle,0,0,0,0,1,5,17,6,,,,,,,,,,,,,,,,,,,,,,,,,,,,,,,,,,,,,,,,119.25982614798704,119.25982614798704,119.25982614798704,119.25982614798704,119.25982614798704,119.25982614798704,119.25982614798704,119.25982614798704,119.25982614798704,119.25982614798704,l,0.10958850698079914,1,99,0,119.3934104279615,120.8951263219933,,,,,,,,,,,,,,,,,,,,,,,,,,,,,,,,,,,,,,,,,,,,,,,,,,,,,,,,,,,,,,,,,,,,,18375,2022-12-01_14h04.43.957,vts_reward_expectancy_bt_OFFLINE,2022.2.4,59.88073865394295,
0,1,0,0,0,0,0,1,circle,star,0,0,0,0,1,6,18,5,,,,,,,,,,,,,,,,,,,,,,,,,,,,,,,,,,,,,,,,121.39552902698051,121.39552902698051,121.39552902698051,121.39552902698051,121.39552902698051,121.39552902698051,121.39552902698051,121.39552902698051,121.39552902698051,121.39552902698051,a,0.9188085659989156,1,100,0,122.34657196496846,123.84836148499744,,,,,,,,,,,,,,,,,,,,,,,,,,,,,,,,,,,,,,,,,,,,,,,,,,,,,,,,,,,,,,,,,,,,,18375,2022-12-01_14h04.43.957,vts_reward_expectancy_bt_OFFLINE,2022.2.4,59.88073865394295,
0,0,0,1,0,0,1,0,star,hexagon,0,0,0,0,1,7,19,11,,,,,,,,,,,,,,,,,,,,,,,,,,,,,,,,,,,,,,,,124.34908642398659,124.34908642398659,124.34908642398659,124.34908642398659,124.34908642398659,124.34908642398659,124.34908642398659,124.34908642398659,124.34908642398659,124.34908642398659,a,0.26065214100526646,1,101,0,124.63248762098374,126.13399439497152,,,,,,,,,,,,,,,,,,,,,,,,,,,,,,,,,,,,,,,,,,,,,,,,,,,,,,,,,,,,,,,,,,,,,18375,2022-12-01_14h04.43.957,vts_reward_expectancy_bt_OFFLINE,2022.2.4,59.88073865394295,
0,0,0,1,1,0,0,0,star,triangle,0,0,0,0,1,8,20,9,,,,,,,,,,,,,,,,,,,,,,,,,,,,,,,,,,,,,,,,126.63457891496364,126.63457891496364,126.63457891496364,126.63457891496364,126.63457891496364,126.63457891496364,126.63457891496364,126.63457891496364,126.63457891496364,126.63457891496364,a,0.06288322899490595,1,102,0,126.71808547899127,128.21977146499557,,,,,,,,,,,,,,,,,,,,,,,,,,,,,,,,,,,,,,,,,,,,,,,,,,,,,,,,,,,,,,,,,,,,,18375,2022-12-01_14h04.43.957,vts_reward_expectancy_bt_OFFLINE,2022.2.4,59.88073865394295,
1,0,0,0,0,0,0,1,triangle,star,0,0,0,0,1,9,21,2,,,,,,,,,,,,,,,,,,,,,,,,,,,,,,,,,,,,,,,,128.72024421597598,128.72024421597598,128.72024421597598,128.72024421597598,128.72024421597598,128.72024421597598,128.72024421597598,128.72024421597598,128.72024421597598,128.72024421597598,a,1.3687680250150152,10,112,0,130.12184088496724,131.6233874449972,,,,,,,,,,,,,,,,,,,,,,,,,,,,,,,,,,,,,,,,,,,,,,,,,,,,,,,,,,,,,,,,,,,,,18375,2022-12-01_14h04.43.957,vts_reward_expectancy_bt_OFFLINE,2022.2.4,59.88073865394295,
0,0,0,1,0,1,0,0,star ,circle,0,0,0,0,1,10,22,10,,,,,,,,,,,,,,,,,,,,,,,,,,,,,,,,,,,,,,,,132.12422383698868,132.12422383698868,132.12422383698868,132.12422383698868,132.12422383698868,132.12422383698868,132.12422383698868,132.12422383698868,132.12422383698868,132.12422383698868,l,0.3504010150209069,1,113,0,132.49114908499178,133.9928095790092,,,,,,,,,,,,,,,,,,,,,,,,,,,,,,,,,,,,,,,,,,,,,,,,,,,,,,,,,,,,,,,,,,,,,18375,2022-12-01_14h04.43.957,vts_reward_expectancy_bt_OFFLINE,2022.2.4,59.88073865394295,
0,0,1,0,0,0,0,1,hexagon,star,0,0,0,0,1,11,23,8,,,,,,,,,,,,,,,,,,,,,,,,,,,,,,,,,,,,,,,,134.49328779499047,134.49328779499047,134.49328779499047,134.49328779499047,134.49328779499047,134.49328779499047,134.49328779499047,134.49328779499047,134.49328779499047,134.49328779499047,l,1.035747230052948,1,114,0,135.56125282600988,137.06277536496054,,,,,,,,,,,,,,,,,,,,,,,,,,,,,,,,,,,,,,,,,,,,,,,,,,,,,,,,,,,,,,,,,,,,,18375,2022-12-01_14h04.43.957,vts_reward_expectancy_bt_OFFLINE,2022.2.4,59.88073865394295,
0,0,0,1,1,0,0,0,star,triangle,0,0,0,0,2,0,24,9,,,,,,,,,,,,,,,,,,,,,,,,,,,,,,,,,,,,,,,,137.56341701600468,137.56341701600468,137.56341701600468,137.56341701600468,137.56341701600468,137.56341701600468,137.56341701600468,137.56341701600468,137.56341701600468,137.56341701600468,l,1.8376321939867921,1,115,0,139.4320305759902,140.93372433097102,,,,,,,,,,,,,,,,,,,,,,,,,,,,,,,,,,,,,,,,,,,,,,,,,,,,,,,,,,,,,,,,,,,,,18375,2022-12-01_14h04.43.957,vts_reward_expectancy_bt_OFFLINE,2022.2.4,59.88073865394295,
0,0,1,0,1,0,0,0,hexagon,triangle,0,0,0,0,2,1,25,6,,,,,,,,,,,,,,,,,,,,,,,,,,,,,,,,,,,,,,,,141.4342565870029,141.4342565870029,141.4342565870029,141.4342565870029,141.4342565870029,141.4342565870029,141.4342565870029,141.4342565870029,141.4342565870029,141.4342565870029,a,4.455337644030806,10,125,0,145.92332328896737,147.42413539398694,,,,,,,,,,,,,,,,,,,,,,,,,,,,,,,,,,,,,,,,,,,,,,,,,,,,,,,,,,,,,,,,,,,,,18375,2022-12-01_14h04.43.957,vts_reward_expectancy_bt_OFFLINE,2022.2.4,59.88073865394295,
0,0,1,0,0,0,0,1,hexagon,star,0,0,0,0,2,2,26,8,,,,,,,,,,,,,,,,,,,,,,,,,,,,,,,,,,,,,,,,147.92470164998667,147.92470164998667,147.92470164998667,147.92470164998667,147.92470164998667,147.92470164998667,147.92470164998667,147.92470164998667,147.92470164998667,147.92470164998667,a,0.708549932052847,10,135,0,148.65884494798956,150.16062368499115,,,,,,,,,,,,,,,,,,,,,,,,,,,,,,,,,,,,,,,,,,,,,,,,,,,,,,,,,,,,,,,,,,,,,18375,2022-12-01_14h04.43.957,vts_reward_expectancy_bt_OFFLINE,2022.2.4,59.88073865394295,
0,0,0,1,0,0,1,0,star,hexagon,0,0,0,0,2,3,27,11,,,,,,,,,,,,,,,,,,,,,,,,,,,,,,,,,,,,,,,,150.66117193800164,150.66117193800164,150.66117193800164,150.66117193800164,150.66117193800164,150.66117193800164,150.66117193800164,150.66117193800164,150.66117193800164,150.66117193800164,a,1.5962176420143805,1,136,0,152.27967612998327,153.78142430901062,,,,,,,,,,,,,,,,,,,,,,,,,,,,,,,,,,,,,,,,,,,,,,,,,,,,,,,,,,,,,,,,,,,,,18375,2022-12-01_14h04.43.957,vts_reward_expectancy_bt_OFFLINE,2022.2.4,59.88073865394295,
0,1,0,0,0,0,0,1,circle,star,0,0,0,0,2,4,28,5,,,,,,,,,,,,,,,,,,,,,,,,,,,,,,,,,,,,,,,,154.2819137769984,154.2819137769984,154.2819137769984,154.2819137769984,154.2819137769984,154.2819137769984,154.2819137769984,154.2819137769984,154.2819137769984,154.2819137769984,l,1.6549306790111586,1,137,0,155.96727368299617,157.4687816259684,,,,,,,,,,,,,,,,,,,,,,,,,,,,,,,,,,,,,,,,,,,,,,,,,,,,,,,,,,,,,,,,,,,,,18375,2022-12-01_14h04.43.957,vts_reward_expectancy_bt_OFFLINE,2022.2.4,59.88073865394295,
1,0,0,0,0,1,0,0,triangle,circle,0,0,0,0,2,5,29,0,,,,,,,,,,,,,,,,,,,,,,,,,,,,,,,,,,,,,,,,157.9693160270108,157.9693160270108,157.9693160270108,157.9693160270108,157.9693160270108,157.9693160270108,157.9693160270108,157.9693160270108,157.9693160270108,157.9693160270108,a,4.7758451330591924,1,138,0,162.77445887896465,164.27622953196988,,,,,,,,,,,,,,,,,,,,,,,,,,,,,,,,,,,,,,,,,,,,,,,,,,,,,,,,,,,,,,,,,,,,,18375,2022-12-01_14h04.43.957,vts_reward_expectancy_bt_OFFLINE,2022.2.4,59.88073865394295,
0,0,1,0,0,1,0,0,hexagon,circle,0,0,0,0,2,6,30,7,,,,,,,,,,,,,,,,,,,,,,,,,,,,,,,,,,,,,,,,164.77702050900552,164.77702050900552,164.77702050900552,164.77702050900552,164.77702050900552,164.77702050900552,164.77702050900552,164.77702050900552,164.77702050900552,164.77702050900552,a,1.0242910570232198,10,148,0,165.8280492759659,167.32960846397327,,,,,,,,,,,,,,,,,,,,,,,,,,,,,,,,,,,,,,,,,,,,,,,,,,,,,,,,,,,,,,,,,,,,,18375,2022-12-01_14h04.43.957,vts_reward_expectancy_bt_OFFLINE,2022.2.4,59.88073865394295,
1,0,0,0,0,0,1,0,triangle,hexagon,0,0,0,0,2,7,31,1,,,,,,,,,,,,,,,,,,,,,,,,,,,,,,,,,,,,,,,,167.83025366300717,167.83025366300717,167.83025366300717,167.83025366300717,167.83025366300717,167.83025366300717,167.83025366300717,167.83025366300717,167.83025366300717,167.83025366300717,l,0.5470112040056847,10,158,0,168.3975166939781,169.8991153970128,,,,,,,,,,,,,,,,,,,,,,,,,,,,,,,,,,,,,,,,,,,,,,,,,,,,,,,,,,,,,,,,,,,,,18375,2022-12-01_14h04.43.957,vts_reward_expectancy_bt_OFFLINE,2022.2.4,59.88073865394295,
0,1,0,0,0,0,1,0,circle,hexagon,0,0,0,0,2,8,32,4,,,,,,,,,,,,,,,,,,,,,,,,,,,,,,,,,,,,,,,,170.39982821099693,170.39982821099693,170.39982821099693,170.39982821099693,170.39982821099693,170.39982821099693,170.39982821099693,170.39982821099693,170.39982821099693,170.39982821099693,l,0.7614682110724971,10,168,0,171.1838918759604,172.6855899579823,,,,,,,,,,,,,,,,,,,,,,,,,,,,,,,,,,,,,,,,,,,,,,,,,,,,,,,,,,,,,,,,,,,,,18375,2022-12-01_14h04.43.957,vts_reward_expectancy_bt_OFFLINE,2022.2.4,59.88073865394295,
0,0,0,1,0,1,0,0,star ,circle,0,0,0,0,2,9,33,10,,,,,,,,,,,,,,,,,,,,,,,,,,,,,,,,,,,,,,,,173.18619181896793,173.18619181896793,173.18619181896793,173.18619181896793,173.18619181896793,173.18619181896793,173.18619181896793,173.18619181896793,173.18619181896793,173.18619181896793,a,1.3910561300581321,10,178,0,174.60425627900986,176.10589845100185,,,,,,,,,,,,,,,,,,,,,,,,,,,,,,,,,,,,,,,,,,,,,,,,,,,,,,,,,,,,,,,,,,,,,18375,2022-12-01_14h04.43.957,vts_reward_expectancy_bt_OFFLINE,2022.2.4,59.88073865394295,
0,1,0,0,1,0,0,0,circle,triangle,0,0,0,0,2,10,34,3,,,,,,,,,,,,,,,,,,,,,,,,,,,,,,,,,,,,,,,,176.60631895798724,176.60631895798724,176.60631895798724,176.60631895798724,176.60631895798724,176.60631895798724,176.60631895798724,176.60631895798724,176.60631895798724,176.60631895798724,a,1.9145992920384742,1,179,0,178.54179680498783,180.04347405099543,,,,,,,,,,,,,,,,,,,,,,,,,,,,,,,,,,,,,,,,,,,,,,,,,,,,,,,,,,,,,,,,,,,,,18375,2022-12-01_14h04.43.957,vts_reward_expectancy_bt_OFFLINE,2022.2.4,59.88073865394295,
1,0,0,0,0,0,0,1,triangle,star,0,0,0,0,2,11,35,2,,,,,,,,,,,,,,,,,,,,,,,,,,,,,,,,,,,,,,,,180.5440995299723,180.5440995299723,180.5440995299723,180.5440995299723,180.5440995299723,180.5440995299723,180.5440995299723,180.5440995299723,180.5440995299723,180.5440995299723,a,3.2965839590178803,1,180,0,183.86438707396155,185.36611268401612,,,,,,,,,,,,,,,,,,,,,,,,,,,,,,,,,,,,,,,,,,,,,,,,,,,,,,,,,,,,,,,,,,,,,18375,2022-12-01_14h04.43.957,vts_reward_expectancy_bt_OFFLINE,2022.2.4,59.88073865394295,
0,1,0,0,1,0,0,0,circle,triangle,0,0,0,0,3,0,36,3,,,,,,,,,,,,,,,,,,,,,,,,,,,,,,,,,,,,,,,,185.8667318499647,185.8667318499647,185.8667318499647,185.8667318499647,185.8667318499647,185.8667318499647,185.8667318499647,185.8667318499647,185.8667318499647,185.8667318499647,l,1.894837833067868,10,190,0,187.78595231997315,189.2872425329988,,,,,,,,,,,,,,,,,,,,,,,,,,,,,,,,,,,,,,,,,,,,,,,,,,,,,,,,,,,,,,,,,,,,,18375,2022-12-01_14h04.43.957,vts_reward_expectancy_bt_OFFLINE,2022.2.4,59.88073865394295,
0,1,0,0,0,0,0,1,circle,star,0,0,0,0,3,1,37,5,,,,,,,,,,,,,,,,,,,,,,,,,,,,,,,,,,,,,,,,189.78768650098937,189.78768650098937,189.78768650098937,189.78768650098937,189.78768650098937,189.78768650098937,189.78768650098937,189.78768650098937,189.78768650098937,189.78768650098937,l,1.0780566399917006,1,191,0,190.88894073601114,192.39056438399712,,,,,,,,,,,,,,,,,,,,,,,,,,,,,,,,,,,,,,,,,,,,,,,,,,,,,,,,,,,,,,,,,,,,,18375,2022-12-01_14h04.43.957,vts_reward_expectancy_bt_OFFLINE,2022.2.4,59.88073865394295,
0,0,0,1,0,1,0,0,star ,circle,0,0,0,0,3,2,38,10,,,,,,,,,,,,,,,,,,,,,,,,,,,,,,,,,,,,,,,,192.89127681101672,192.89127681101672,192.89127681101672,192.89127681101672,192.89127681101672,192.89127681101672,192.89127681101672,192.89127681101672,192.89127681101672,192.89127681101672,a,3.7653597260359675,1,192,0,196.6786922069732,198.18056150601478,,,,,,,,,,,,,,,,,,,,,,,,,,,,,,,,,,,,,,,,,,,,,,,,,,,,,,,,,,,,,,,,,,,,,18375,2022-12-01_14h04.43.957,vts_reward_expectancy_bt_OFFLINE,2022.2.4,59.88073865394295,
0,0,1,0,0,1,0,0,hexagon,circle,0,0,0,0,3,3,39,7,,,,,,,,,,,,,,,,,,,,,,,,,,,,,,,,,,,,,,,,198.6810494500096,198.6810494500096,198.6810494500096,198.6810494500096,198.6810494500096,198.6810494500096,198.6810494500096,198.6810494500096,198.6810494500096,198.6810494500096,a,1.0326573679922149,10,202,0,199.73199215898057,201.23356042901287,,,,,,,,,,,,,,,,,,,,,,,,,,,,,,,,,,,,,,,,,,,,,,,,,,,,,,,,,,,,,,,,,,,,,18375,2022-12-01_14h04.43.957,vts_reward_expectancy_bt_OFFLINE,2022.2.4,59.88073865394295,
0,0,1,0,0,0,0,1,hexagon,star,0,0,0,0,3,4,40,8,,,,,,,,,,,,,,,,,,,,,,,,,,,,,,,,,,,,,,,,201.7341218609945,201.7341218609945,201.7341218609945,201.7341218609945,201.7341218609945,201.7341218609945,201.7341218609945,201.7341218609945,201.7341218609945,201.7341218609945,a,1.4357274320209399,10,212,0,203.20243197999662,204.70395078201545,,,,,,,,,,,,,,,,,,,,,,,,,,,,,,,,,,,,,,,,,,,,,,,,,,,,,,,,,,,,,,,,,,,,,18375,2022-12-01_14h04.43.957,vts_reward_expectancy_bt_OFFLINE,2022.2.4,59.88073865394295,
0,0,0,1,0,0,1,0,star,hexagon,0,0,0,0,3,5,41,11,,,,,,,,,,,,,,,,,,,,,,,,,,,,,,,,,,,,,,,,205.20456683298107,205.20456683298107,205.20456683298107,205.20456683298107,205.20456683298107,205.20456683298107,205.20456683298107,205.20456683298107,205.20456683298107,205.20456683298107,l,0.5732518400182016,10,222,0,205.80527910299134,207.30721328296931,,,,,,,,,,,,,,,,,,,,,,,,,,,,,,,,,,,,,,,,,,,,,,,,,,,,,,,,,,,,,,,,,,,,,18375,2022-12-01_14h04.43.957,vts_reward_expectancy_bt_OFFLINE,2022.2.4,59.88073865394295,
0,0,0,1,1,0,0,0,star,triangle,0,0,0,0,3,6,42,9,,,,,,,,,,,,,,,,,,,,,,,,,,,,,,,,,,,,,,,,207.80757734598592,207.80757734598592,207.80757734598592,207.80757734598592,207.80757734598592,207.80757734598592,207.80757734598592,207.80757734598592,207.80757734598592,207.80757734598592,l,1.6578632409800775,10,232,0,209.49292210198473,210.99440507398685,,,,,,,,,,,,,,,,,,,,,,,,,,,,,,,,,,,,,,,,,,,,,,,,,,,,,,,,,,,,,,,,,,,,,18375,2022-12-01_14h04.43.957,vts_reward_expectancy_bt_OFFLINE,2022.2.4,59.88073865394295,
0,0,1,0,1,0,0,0,hexagon,triangle,0,0,0,0,3,7,43,6,,,,,,,,,,,,,,,,,,,,,,,,,,,,,,,,,,,,,,,,211.49497896101093,211.49497896101093,211.49497896101093,211.49497896101093,211.49497896101093,211.49497896101093,211.49497896101093,211.49497896101093,211.49497896101093,211.49497896101093,a,0.9541192820179276,10,242,0,212.47942139499355,213.98114259401336,,,,,,,,,,,,,,,,,,,,,,,,,,,,,,,,,,,,,,,,,,,,,,,,,,,,,,,,,,,,,,,,,,,,,18375,2022-12-01_14h04.43.957,vts_reward_expectancy_bt_OFFLINE,2022.2.4,59.88073865394295,
1,0,0,0,0,0,0,1,triangle,star,0,0,0,0,3,8,44,2,,,,,,,,,,,,,,,,,,,,,,,,,,,,,,,,,,,,,,,,214.4817221930134,214.4817221930134,214.4817221930134,214.4817221930134,214.4817221930134,214.4817221930134,214.4817221930134,214.4817221930134,214.4817221930134,214.4817221930134,l,3.35227345302701,1,243,0,217.8520305849961,219.35354468401056,,,,,,,,,,,,,,,,,,,,,,,,,,,,,,,,,,,,,,,,,,,,,,,,,,,,,,,,,,,,,,,,,,,,,18375,2022-12-01_14h04.43.957,vts_reward_expectancy_bt_OFFLINE,2022.2.4,59.88073865394295,
1,0,0,0,0,0,1,0,triangle,hexagon,0,0,0,0,3,9,45,1,,,,,,,,,,,,,,,,,,,,,,,,,,,,,,,,,,,,,,,,219.85420343000442,219.85420343000442,219.85420343000442,219.85420343000442,219.85420343000442,219.85420343000442,219.85420343000442,219.85420343000442,219.85420343000442,219.85420343000442,l,0.6348084610071965,10,253,0,220.52156106597977,222.0234619010007,,,,,,,,,,,,,,,,,,,,,,,,,,,,,,,,,,,,,,,,,,,,,,,,,,,,,,,,,,,,,,,,,,,,,18375,2022-12-01_14h04.43.957,vts_reward_expectancy_bt_OFFLINE,2022.2.4,59.88073865394295,
0,1,0,0,0,0,1,0,circle,hexagon,0,0,0,0,3,10,46,4,,,,,,,,,,,,,,,,,,,,,,,,,,,,,,,,,,,,,,,,222.523861138965,222.523861138965,222.523861138965,222.523861138965,222.523861138965,222.523861138965,222.523861138965,222.523861138965,222.523861138965,222.523861138965,l,0.5893027250422165,10,263,0,223.14123609301168,224.64290649996838,,,,,,,,,,,,,,,,,,,,,,,,,,,,,,,,,,,,,,,,,,,,,,,,,,,,,,,,,,,,,,,,,,,,,18375,2022-12-01_14h04.43.957,vts_reward_expectancy_bt_OFFLINE,2022.2.4,59.88073865394295,
1,0,0,0,0,1,0,0,triangle,circle,0,0,0,0,3,11,47,0,,,,,,,,,,,,,,,,,,,,,,,,,,,,,,,,,,,,,,,,225.14344120101305,225.14344120101305,225.14344120101305,225.14344120101305,225.14344120101305,225.14344120101305,225.14344120101305,225.14344120101305,225.14344120101305,225.14344120101305,a,1.0906580080045387,10,273,0,226.26124711497687,227.762981612992,,,,,,,,,,,,,,,,,,,,,,,,,,,,,,,,,,,,,,,,,,,,,,,,,,,,,,,,,,,,,,,,,,,,,18375,2022-12-01_14h04.43.957,vts_reward_expectancy_bt_OFFLINE,2022.2.4,59.88073865394295,
0,1,0,0,1,0,0,0,circle,triangle,1,0,1,0,0,0,0,3,,,,,,,,,,,,,,,,,,,,,,,,,,,,,,,,,,,,,,,,233.49064032698516,233.49064032698516,233.49064032698516,233.49064032698516,233.49064032698516,233.49064032698516,233.49064032698516,233.49064032698516,233.49064032698516,233.49064032698516,a,3.894227503973525,1,274,1,237.4066848079674,238.90839550597593,,,,,,,,,,,,,,,,,,,,,,,,,,,,,,,,,,,,,,,,,,,,,,,,,,,,,,,,,,,,,,,,,,,,,18375,2022-12-01_14h04.43.957,vts_reward_expectancy_bt_OFFLINE,2022.2.4,59.88073865394295,
0,0,1,0,0,0,0,1,hexagon,star,1,0,1,0,0,1,1,8,,,,,,,,,,,,,,,,,,,,,,,,,,,,,,,,,,,,,,,,239.40897789801238,239.40897789801238,239.40897789801238,239.40897789801238,239.40897789801238,239.40897789801238,239.40897789801238,239.40897789801238,239.40897789801238,239.40897789801238,a,1.207593112019822,10,284,1,240.64357433200348,242.14540658600163,,,,,,,,,,,,,,,,,,,,,,,,,,,,,,,,,,,,,,,,,,,,,,,,,,,,,,,,,,,,,,,,,,,,,18375,2022-12-01_14h04.43.957,vts_reward_expectancy_bt_OFFLINE,2022.2.4,59.88073865394295,
0,1,0,0,0,0,1,0,circle,hexagon,1,0,1,0,0,2,2,4,,,,,,,,,,,,,,,,,,,,,,,,,,,,,,,,,,,,,,,,242.64585119800176,242.64585119800176,242.64585119800176,242.64585119800176,242.64585119800176,242.64585119800176,242.64585119800176,242.64585119800176,242.64585119800176,242.64585119800176,l,0.6350602179882117,10,294,1,243.31335608899826,244.81487256701803,,,,,,,,,,,,,,,,,,,,,,,,,,,,,,,,,,,,,,,,,,,,,,,,,,,,,,,,,,,,,,,,,,,,,18375,2022-12-01_14h04.43.957,vts_reward_expectancy_bt_OFFLINE,2022.2.4,59.88073865394295,
0,1,0,0,0,0,0,1,circle,star,1,0,1,0,0,3,3,5,,,,,,,,,,,,,,,,,,,,,,,,,,,,,,,,,,,,,,,,245.31558340898482,245.31558340898482,245.31558340898482,245.31558340898482,245.31558340898482,245.31558340898482,245.31558340898482,245.31558340898482,245.31558340898482,245.31558340898482,a,5.8452986080083065,10,304,1,251.18874022900127,252.69037622900214,,,,,,,,,,,,,,,,,,,,,,,,,,,,,,,,,,,,,,,,,,,,,,,,,,,,,,,,,,,,,,,,,,,,,18375,2022-12-01_14h04.43.957,vts_reward_expectancy_bt_OFFLINE,2022.2.4,59.88073865394295,
0,0,0,1,0,1,0,0,star ,circle,1,0,1,0,0,4,4,10,,,,,,,,,,,,,,,,,,,,,,,,,,,,,,,,,,,,,,,,253.1908476719982,253.1908476719982,253.1908476719982,253.1908476719982,253.1908476719982,253.1908476719982,253.1908476719982,253.1908476719982,253.1908476719982,253.1908476719982,a,2.2978599310154095,10,314,1,255.51006789098028,257.0118012849707,,,,,,,,,,,,,,,,,,,,,,,,,,,,,,,,,,,,,,,,,,,,,,,,,,,,,,,,,,,,,,,,,,,,,18375,2022-12-01_14h04.43.957,vts_reward_expectancy_bt_OFFLINE,2022.2.4,59.88073865394295,
0,0,0,1,1,0,0,0,star,triangle,1,0,1,0,0,5,5,9,,,,,,,,,,,,,,,,,,,,,,,,,,,,,,,,,,,,,,,,257.51266725198366,257.51266725198366,257.51266725198366,257.51266725198366,257.51266725198366,257.51266725198366,257.51266725198366,257.51266725198366,257.51266725198366,257.51266725198366,a,1.208585198968649,1,315,1,258.7474409179995,260.248739897972,,,,,,,,,,,,,,,,,,,,,,,,,,,,,,,,,,,,,,,,,,,,,,,,,,,,,,,,,,,,,,,,,,,,,18375,2022-12-01_14h04.43.957,vts_reward_expectancy_bt_OFFLINE,2022.2.4,59.88073865394295,
0,0,1,0,0,1,0,0,hexagon,circle,1,0,1,0,0,6,6,7,,,,,,,,,,,,,,,,,,,,,,,,,,,,,,,,,,,,,,,,260.7493031679769,260.7493031679769,260.7493031679769,260.7493031679769,260.7493031679769,260.7493031679769,260.7493031679769,260.7493031679769,260.7493031679769,260.7493031679769,a,0.6282535390346311,10,325,1,261.3999103360111,262.901697652007,,,,,,,,,,,,,,,,,,,,,,,,,,,,,,,,,,,,,,,,,,,,,,,,,,,,,,,,,,,,,,,,,,,,,18375,2022-12-01_14h04.43.957,vts_reward_expectancy_bt_OFFLINE,2022.2.4,59.88073865394295,
1,0,0,0,0,0,1,0,triangle,hexagon,1,0,1,0,0,7,7,1,,,,,,,,,,,,,,,,,,,,,,,,,,,,,,,,,,,,,,,,263.40221889299573,263.40221889299573,263.40221889299573,263.40221889299573,263.40221889299573,263.40221889299573,263.40221889299573,263.40221889299573,263.40221889299573,263.40221889299573,l,1.5196899350266904,1,326,1,264.9539700860041,266.4555702540092,,,,,,,,,,,,,,,,,,,,,,,,,,,,,,,,,,,,,,,,,,,,,,,,,,,,,,,,,,,,,,,,,,,,,18375,2022-12-01_14h04.43.957,vts_reward_expectancy_bt_OFFLINE,2022.2.4,59.88073865394295,
1,0,0,0,0,1,0,0,triangle,circle,1,0,1,0,0,8,8,0,,,,,,,,,,,,,,,,,,,,,,,,,,,,,,,,,,,,,,,,266.95604212599574,266.95604212599574,266.95604212599574,266.95604212599574,266.95604212599574,266.95604212599574,266.95604212599574,266.95604212599574,266.95604212599574,266.95604212599574,a,3.260914209007751,10,336,1,270.24312222597655,271.74482220300706,,,,,,,,,,,,,,,,,,,,,,,,,,,,,,,,,,,,,,,,,,,,,,,,,,,,,,,,,,,,,,,,,,,,,18375,2022-12-01_14h04.43.957,vts_reward_expectancy_bt_OFFLINE,2022.2.4,59.88073865394295,
0,0,1,0,1,0,0,0,hexagon,triangle,1,0,1,0,0,9,9,6,,,,,,,,,,,,,,,,,,,,,,,,,,,,,,,,,,,,,,,,272.2452776010032,272.2452776010032,272.2452776010032,272.2452776010032,272.2452776010032,272.2452776010032,272.2452776010032,272.2452776010032,272.2452776010032,272.2452776010032,a,0.6442985369940288,10,346,1,272.9127279219683,274.4143426849623,,,,,,,,,,,,,,,,,,,,,,,,,,,,,,,,,,,,,,,,,,,,,,,,,,,,,,,,,,,,,,,,,,,,,18375,2022-12-01_14h04.43.957,vts_reward_expectancy_bt_OFFLINE,2022.2.4,59.88073865394295,
0,0,0,1,0,0,1,0,star,hexagon,1,0,1,0,0,10,10,11,,,,,,,,,,,,,,,,,,,,,,,,,,,,,,,,,,,,,,,,274.9154368439922,274.9154368439922,274.9154368439922,274.9154368439922,274.9154368439922,274.9154368439922,274.9154368439922,274.9154368439922,274.9154368439922,274.9154368439922,l,1.1349911060533486,10,356,1,276.08316224400187,277.5844272240065,,,,,,,,,,,,,,,,,,,,,,,,,,,,,,,,,,,,,,,,,,,,,,,,,,,,,,,,,,,,,,,,,,,,,18375,2022-12-01_14h04.43.957,vts_reward_expectancy_bt_OFFLINE,2022.2.4,59.88073865394295,
1,0,0,0,0,0,0,1,triangle,star,1,0,1,0,0,11,11,2,,,,,,,,,,,,,,,,,,,,,,,,,,,,,,,,,,,,,,,,278.0849693539785,278.0849693539785,278.0849693539785,278.0849693539785,278.0849693539785,278.0849693539785,278.0849693539785,278.0849693539785,278.0849693539785,278.0849693539785,a,1.54067765903892,1,357,1,279.6534842629917,281.15496880799765,,,,,,,,,,,,,,,,,,,,,,,,,,,,,,,,,,,,,,,,,,,,,,,,,,,,,,,,,,,,,,,,,,,,,18375,2022-12-01_14h04.43.957,vts_reward_expectancy_bt_OFFLINE,2022.2.4,59.88073865394295,
1,0,0,0,0,0,1,0,triangle,hexagon,1,0,1,0,1,0,12,1,,,,,,,,,,,,,,,,,,,,,,,,,,,,,,,,,,,,,,,,281.65561135596363,281.65561135596363,281.65561135596363,281.65561135596363,281.65561135596363,281.65561135596363,281.65561135596363,281.65561135596363,281.65561135596363,281.65561135596363,l,0.8262431020266376,10,367,1,282.5067098860163,284.00860241096234,,,,,,,,,,,,,,,,,,,,,,,,,,,,,,,,,,,,,,,,,,,,,,,,,,,,,,,,,,,,,,,,,,,,,18375,2022-12-01_14h04.43.957,vts_reward_expectancy_bt_OFFLINE,2022.2.4,59.88073865394295,
0,0,1,0,0,0,0,1,hexagon,star,1,0,1,0,1,1,13,8,,,,,,,,,,,,,,,,,,,,,,,,,,,,,,,,,,,,,,,,284.5087700819713,284.5087700819713,284.5087700819713,284.5087700819713,284.5087700819713,284.5087700819713,284.5087700819713,284.5087700819713,284.5087700819713,284.5087700819713,a,0.5491670520277694,10,377,1,285.0759574730182,286.5780705480138,,,,,,,,,,,,,,,,,,,,,,,,,,,,,,,,,,,,,,,,,,,,,,,,,,,,,,,,,,,,,,,,,,,,,18375,2022-12-01_14h04.43.957,vts_reward_expectancy_bt_OFFLINE,2022.2.4,59.88073865394295,
0,0,0,1,1,0,0,0,star,triangle,1,0,1,0,1,2,14,9,,,,,,,,,,,,,,,,,,,,,,,,,,,,,,,,,,,,,,,,287.0783014809713,287.0783014809713,287.0783014809713,287.0783014809713,287.0783014809713,287.0783014809713,287.0783014809713,287.0783014809713,287.0783014809713,287.0783014809713,a,1.4591604979941621,1,378,1,288.56343935697805,290.0650323620066,,,,,,,,,,,,,,,,,,,,,,,,,,,,,,,,,,,,,,,,,,,,,,,,,,,,,,,,,,,,,,,,,,,,,18375,2022-12-01_14h04.43.957,vts_reward_expectancy_bt_OFFLINE,2022.2.4,59.88073865394295,
0,0,0,1,0,1,0,0,star ,circle,1,0,1,0,1,3,15,10,,,,,,,,,,,,,,,,,,,,,,,,,,,,,,,,,,,,,,,,290.5655688520055,290.5655688520055,290.5655688520055,290.5655688520055,290.5655688520055,290.5655688520055,290.5655688520055,290.5655688520055,290.5655688520055,290.5655688520055,l,1.2028414980159141,10,388,1,291.8000687480089,293.3017792289611,,,,,,,,,,,,,,,,,,,,,,,,,,,,,,,,,,,,,,,,,,,,,,,,,,,,,,,,,,,,,,,,,,,,,18375,2022-12-01_14h04.43.957,vts_reward_expectancy_bt_OFFLINE,2022.2.4,59.88073865394295,
0,1,0,0,0,0,1,0,circle,hexagon,1,0,1,0,1,4,16,4,,,,,,,,,,,,,,,,,,,,,,,,,,,,,,,,,,,,,,,,293.80225146899465,293.80225146899465,293.80225146899465,293.80225146899465,293.80225146899465,293.80225146899465,293.80225146899465,293.80225146899465,293.80225146899465,293.80225146899465,l,1.086610186030157,1,389,1,294.92026894097216,296.4219954329892,,,,,,,,,,,,,,,,,,,,,,,,,,,,,,,,,,,,,,,,,,,,,,,,,,,,,,,,,,,,,,,,,,,,,18375,2022-12-01_14h04.43.957,vts_reward_expectancy_bt_OFFLINE,2022.2.4,59.88073865394295,
0,1,0,0,0,0,0,1,circle,star,1,0,1,0,1,5,17,5,,,,,,,,,,,,,,,,,,,,,,,,,,,,,,,,,,,,,,,,296.92264482198516,296.92264482198516,296.92264482198516,296.92264482198516,296.92264482198516,296.92264482198516,296.92264482198516,296.92264482198516,296.92264482198516,296.92264482198516,a,6.4467367909965105,10,399,1,303.39634655200643,304.8979371379828,,,,,,,,,,,,,,,,,,,,,,,,,,,,,,,,,,,,,,,,,,,,,,,,,,,,,,,,,,,,,,,,,,,,,18375,2022-12-01_14h04.43.957,vts_reward_expectancy_bt_OFFLINE,2022.2.4,59.88073865394295,
1,0,0,0,0,0,0,1,triangle,star,1,0,1,0,1,6,18,2,,,,,,,,,,,,,,,,,,,,,,,,,,,,,,,,,,,,,,,,305.398629297968,305.398629297968,305.398629297968,305.398629297968,305.398629297968,305.398629297968,305.398629297968,305.398629297968,305.398629297968,305.398629297968,a,2.953893219004385,1,400,1,308.38536954898154,309.8867993669701,,,,,,,,,,,,,,,,,,,,,,,,,,,,,,,,,,,,,,,,,,,,,,,,,,,,,,,,,,,,,,,,,,,,,18375,2022-12-01_14h04.43.957,vts_reward_expectancy_bt_OFFLINE,2022.2.4,59.88073865394295,
0,0,1,0,1,0,0,0,hexagon,triangle,1,0,1,0,1,7,19,6,,,,,,,,,,,,,,,,,,,,,,,,,,,,,,,,,,,,,,,,310.38728267897386,310.38728267897386,310.38728267897386,310.38728267897386,310.38728267897386,310.38728267897386,310.38728267897386,310.38728267897386,310.38728267897386,310.38728267897386,a,1.1743225270183757,10,410,1,311.5886932190042,313.09032711200416,,,,,,,,,,,,,,,,,,,,,,,,,,,,,,,,,,,,,,,,,,,,,,,,,,,,,,,,,,,,,,,,,,,,,18375,2022-12-01_14h04.43.957,vts_reward_expectancy_bt_OFFLINE,2022.2.4,59.88073865394295,
0,0,0,1,0,0,1,0,star,hexagon,1,0,1,0,1,8,20,11,,,,,,,,,,,,,,,,,,,,,,,,,,,,,,,,,,,,,,,,313.59089680196485,313.59089680196485,313.59089680196485,313.59089680196485,313.59089680196485,313.59089680196485,313.59089680196485,313.59089680196485,313.59089680196485,313.59089680196485,l,0.4510374909732491,10,420,1,314.0746748779784,315.57633874501335,,,,,,,,,,,,,,,,,,,,,,,,,,,,,,,,,,,,,,,,,,,,,,,,,,,,,,,,,,,,,,,,,,,,,18375,2022-12-01_14h04.43.957,vts_reward_expectancy_bt_OFFLINE,2022.2.4,59.88073865394295,
0,0,1,0,0,1,0,0,hexagon,circle,1,0,1,0,1,9,21,7,,,,,,,,,,,,,,,,,,,,,,,,,,,,,,,,,,,,,,,,316.07698890700703,316.07698890700703,316.07698890700703,316.07698890700703,316.07698890700703,316.07698890700703,316.07698890700703,316.07698890700703,316.07698890700703,316.07698890700703,a,0.48502013401594013,1,421,1,316.594235320983,318.095825183962,,,,,,,,,,,,,,,,,,,,,,,,,,,,,,,,,,,,,,,,,,,,,,,,,,,,,,,,,,,,,,,,,,,,,18375,2022-12-01_14h04.43.957,vts_reward_expectancy_bt_OFFLINE,2022.2.4,59.88073865394295,
0,1,0,0,1,0,0,0,circle,triangle,1,0,1,0,1,10,22,3,,,,,,,,,,,,,,,,,,,,,,,,,,,,,,,,,,,,,,,,318.5966035039746,318.5966035039746,318.5966035039746,318.5966035039746,318.5966035039746,318.5966035039746,318.5966035039746,318.5966035039746,318.5966035039746,318.5966035039746,a,1.2202334640314803,1,422,1,319.8478291800129,321.34960766596487,,,,,,,,,,,,,,,,,,,,,,,,,,,,,,,,,,,,,,,,,,,,,,,,,,,,,,,,,,,,,,,,,,,,,18375,2022-12-01_14h04.43.957,vts_reward_expectancy_bt_OFFLINE,2022.2.4,59.88073865394295,
1,0,0,0,0,1,0,0,triangle,circle,1,0,1,0,1,11,23,0,,,,,,,,,,,,,,,,,,,,,,,,,,,,,,,,,,,,,,,,321.85019931400893,321.85019931400893,321.85019931400893,321.85019931400893,321.85019931400893,321.85019931400893,321.85019931400893,321.85019931400893,321.85019931400893,321.85019931400893,a,2.8952073610271327,10,432,1,324.76987952401396,326.2715589280124,,,,,,,,,,,,,,,,,,,,,,,,,,,,,,,,,,,,,,,,,,,,,,,,,,,,,,,,,,,,,,,,,,,,,18375,2022-12-01_14h04.43.957,vts_reward_expectancy_bt_OFFLINE,2022.2.4,59.88073865394295,
0,1,0,0,0,0,1,0,circle,hexagon,1,0,1,0,2,0,24,4,,,,,,,,,,,,,,,,,,,,,,,,,,,,,,,,,,,,,,,,326.77239241596544,326.77239241596544,326.77239241596544,326.77239241596544,326.77239241596544,326.77239241596544,326.77239241596544,326.77239241596544,326.77239241596544,326.77239241596544,l,0.42015207902295515,10,442,1,327.221466959978,328.7243299499969,,,,,,,,,,,,,,,,,,,,,,,,,,,,,,,,,,,,,,,,,,,,,,,,,,,,,,,,,,,,,,,,,,,,,18375,2022-12-01_14h04.43.957,vts_reward_expectancy_bt_OFFLINE,2022.2.4,59.88073865394295,
0,1,0,0,1,0,0,0,circle,triangle,1,0,1,0,2,1,25,3,,,,,,,,,,,,,,,,,,,,,,,,,,,,,,,,,,,,,,,,329.22482112800935,329.22482112800935,329.22482112800935,329.22482112800935,329.22482112800935,329.22482112800935,329.22482112800935,329.22482112800935,329.22482112800935,329.22482112800935,a,1.2805149360210635,10,452,1,330.52648652897915,332.0278456470114,,,,,,,,,,,,,,,,,,,,,,,,,,,,,,,,,,,,,,,,,,,,,,,,,,,,,,,,,,,,,,,,,,,,,18375,2022-12-01_14h04.43.957,vts_reward_expectancy_bt_OFFLINE,2022.2.4,59.88073865394295,
1,0,0,0,0,1,0,0,triangle,circle,1,0,1,0,2,2,26,0,,,,,,,,,,,,,,,,,,,,,,,,,,,,,,,,,,,,,,,,332.52848798799096,332.52848798799096,332.52848798799096,332.52848798799096,332.52848798799096,332.52848798799096,332.52848798799096,332.52848798799096,332.52848798799096,332.52848798799096,l,1.4888898230274208,1,453,1,334.0468990759691,335.5484709239681,,,,,,,,,,,,,,,,,,,,,,,,,,,,,,,,,,,,,,,,,,,,,,,,,,,,,,,,,,,,,,,,,,,,,18375,2022-12-01_14h04.43.957,vts_reward_expectancy_bt_OFFLINE,2022.2.4,59.88073865394295,
0,0,0,1,1,0,0,0,star,triangle,1,0,1,0,2,3,27,9,,,,,,,,,,,,,,,,,,,,,,,,,,,,,,,,,,,,,,,,336.0492775560124,336.0492775560124,336.0492775560124,336.0492775560124,336.0492775560124,336.0492775560124,336.0492775560124,336.0492775560124,336.0492775560124,336.0492775560124,a,0.6244673460605554,1,454,1,336.6998559749918,338.201357397018,,,,,,,,,,,,,,,,,,,,,,,,,,,,,,,,,,,,,,,,,,,,,,,,,,,,,,,,,,,,,,,,,,,,,18375,2022-12-01_14h04.43.957,vts_reward_expectancy_bt_OFFLINE,2022.2.4,59.88073865394295,
0,0,1,0,0,1,0,0,hexagon,circle,1,0,1,0,2,4,28,7,,,,,,,,,,,,,,,,,,,,,,,,,,,,,,,,,,,,,,,,338.7020031079883,338.7020031079883,338.7020031079883,338.7020031079883,338.7020031079883,338.7020031079883,338.7020031079883,338.7020031079883,338.7020031079883,338.7020031079883,a,0.9556365330354311,10,464,1,339.686365563015,341.1879409760004,,,,,,,,,,,,,,,,,,,,,,,,,,,,,,,,,,,,,,,,,,,,,,,,,,,,,,,,,,,,,,,,,,,,,18375,2022-12-01_14h04.43.957,vts_reward_expectancy_bt_OFFLINE,2022.2.4,59.88073865394295,
0,0,1,0,1,0,0,0,hexagon,triangle,1,0,1,0,2,5,29,6,,,,,,,,,,,,,,,,,,,,,,,,,,,,,,,,,,,,,,,,341.6883849700098,341.6883849700098,341.6883849700098,341.6883849700098,341.6883849700098,341.6883849700098,341.6883849700098,341.6883849700098,341.6883849700098,341.6883849700098,a,3.5857431379845366,10,474,1,345.2924636109965,346.7942145210109,,,,,,,,,,,,,,,,,,,,,,,,,,,,,,,,,,,,,,,,,,,,,,,,,,,,,,,,,,,,,,,,,,,,,18375,2022-12-01_14h04.43.957,vts_reward_expectancy_bt_OFFLINE,2022.2.4,59.88073865394295,
0,0,0,1,0,0,1,0,star,hexagon,1,0,1,0,2,6,30,11,,,,,,,,,,,,,,,,,,,,,,,,,,,,,,,,,,,,,,,,347.2946437749779,347.2946437749779,347.2946437749779,347.2946437749779,347.2946437749779,347.2946437749779,347.2946437749779,347.2946437749779,347.2946437749779,347.2946437749779,l,1.0910704060224816,10,484,1,348.4127249449957,349.91422770597273,,,,,,,,,,,,,,,,,,,,,,,,,,,,,,,,,,,,,,,,,,,,,,,,,,,,,,,,,,,,,,,,,,,,,18375,2022-12-01_14h04.43.957,vts_reward_expectancy_bt_OFFLINE,2022.2.4,59.88073865394295,
0,0,0,1,0,1,0,0,star ,circle,1,0,1,0,2,7,31,10,,,,,,,,,,,,,,,,,,,,,,,,,,,,,,,,,,,,,,,,350.4149226640002,350.4149226640002,350.4149226640002,350.4149226640002,350.4149226640002,350.4149226640002,350.4149226640002,350.4149226640002,350.4149226640002,350.4149226640002,a,5.874637197004631,10,494,1,356.3213222490158,357.82299390796106,,,,,,,,,,,,,,,,,,,,,,,,,,,,,,,,,,,,,,,,,,,,,,,,,,,,,,,,,,,,,,,,,,,,,18375,2022-12-01_14h04.43.957,vts_reward_expectancy_bt_OFFLINE,2022.2.4,59.88073865394295,
0,0,1,0,0,0,0,1,hexagon,star,1,0,1,0,2,8,32,8,,,,,,,,,,,,,,,,,,,,,,,,,,,,,,,,,,,,,,,,358.3236485919915,358.3236485919915,358.3236485919915,358.3236485919915,358.3236485919915,358.3236485919915,358.3236485919915,358.3236485919915,358.3236485919915,358.3236485919915,a,0.597664695000276,10,504,1,358.94089267298114,360.4425458229962,,,,,,,,,,,,,,,,,,,,,,,,,,,,,,,,,,,,,,,,,,,,,,,,,,,,,,,,,,,,,,,,,,,,,18375,2022-12-01_14h04.43.957,vts_reward_expectancy_bt_OFFLINE,2022.2.4,59.88073865394295,
0,1,0,0,0,0,0,1,circle,star,1,0,1,0,2,9,33,5,,,,,,,,,,,,,,,,,,,,,,,,,,,,,,,,,,,,,,,,360.9432043429697,360.9432043429697,360.9432043429697,360.9432043429697,360.9432043429697,360.9432043429697,360.9432043429697,360.9432043429697,360.9432043429697,360.9432043429697,l,2.6748865950503387,1,505,1,363.6461271669832,365.1479469530168,,,,,,,,,,,,,,,,,,,,,,,,,,,,,,,,,,,,,,,,,,,,,,,,,,,,,,,,,,,,,,,,,,,,,18375,2022-12-01_14h04.43.957,vts_reward_expectancy_bt_OFFLINE,2022.2.4,59.88073865394295,
1,0,0,0,0,0,1,0,triangle,hexagon,1,0,1,0,2,10,34,1,,,,,,,,,,,,,,,,,,,,,,,,,,,,,,,,,,,,,,,,365.6485427689622,365.6485427689622,365.6485427689622,365.6485427689622,365.6485427689622,365.6485427689622,365.6485427689622,365.6485427689622,365.6485427689622,365.6485427689622,l,0.7287792540155351,10,515,1,366.3991088150069,367.90076086996123,,,,,,,,,,,,,,,,,,,,,,,,,,,,,,,,,,,,,,,,,,,,,,,,,,,,,,,,,,,,,,,,,,,,,18375,2022-12-01_14h04.43.957,vts_reward_expectancy_bt_OFFLINE,2022.2.4,59.88073865394295,
1,0,0,0,0,0,0,1,triangle,star,1,0,1,0,2,11,35,2,,,,,,,,,,,,,,,,,,,,,,,,,,,,,,,,,,,,,,,,368.4012143239961,368.4012143239961,368.4012143239961,368.4012143239961,368.4012143239961,368.4012143239961,368.4012143239961,368.4012143239961,368.4012143239961,368.4012143239961,l,1.2479958210024051,10,525,1,369.6693943910068,371.1711938849767,,,,,,,,,,,,,,,,,,,,,,,,,,,,,,,,,,,,,,,,,,,,,,,,,,,,,,,,,,,,,,,,,,,,,18375,2022-12-01_14h04.43.957,vts_reward_expectancy_bt_OFFLINE,2022.2.4,59.88073865394295,
0,0,0,1,0,0,1,0,star,hexagon,1,0,1,0,3,0,36,11,,,,,,,,,,,,,,,,,,,,,,,,,,,,,,,,,,,,,,,,371.6719123919611,371.6719123919611,371.6719123919611,371.6719123919611,371.6719123919611,371.6719123919611,371.6719123919611,371.6719123919611,371.6719123919611,371.6719123919611,l,0.8740064010489732,10,535,1,372.5728855319903,374.07437207800103,,,,,,,,,,,,,,,,,,,,,,,,,,,,,,,,,,,,,,,,,,,,,,,,,,,,,,,,,,,,,,,,,,,,,18375,2022-12-01_14h04.43.957,vts_reward_expectancy_bt_OFFLINE,2022.2.4,59.88073865394295,
0,1,0,0,1,0,0,0,circle,triangle,1,0,1,0,3,1,37,3,,,,,,,,,,,,,,,,,,,,,,,,,,,,,,,,,,,,,,,,374.57514402800007,374.57514402800007,374.57514402800007,374.57514402800007,374.57514402800007,374.57514402800007,374.57514402800007,374.57514402800007,374.57514402800007,374.57514402800007,a,2.3297875570715405,1,536,1,376.9274990449776,378.42901486798655,,,,,,,,,,,,,,,,,,,,,,,,,,,,,,,,,,,,,,,,,,,,,,,,,,,,,,,,,,,,,,,,,,,,,18375,2022-12-01_14h04.43.957,vts_reward_expectancy_bt_OFFLINE,2022.2.4,59.88073865394295,
1,0,0,0,0,0,0,1,triangle,star,1,0,1,0,3,2,38,2,,,,,,,,,,,,,,,,,,,,,,,,,,,,,,,,,,,,,,,,378.92963811097434,378.92963811097434,378.92963811097434,378.92963811097434,378.92963811097434,378.92963811097434,378.92963811097434,378.92963811097434,378.92963811097434,378.92963811097434,l,2.9925189340137877,1,537,1,381.9495719670085,383.4512587399804,,,,,,,,,,,,,,,,,,,,,,,,,,,,,,,,,,,,,,,,,,,,,,,,,,,,,,,,,,,,,,,,,,,,,18375,2022-12-01_14h04.43.957,vts_reward_expectancy_bt_OFFLINE,2022.2.4,59.88073865394295,
0,1,0,0,0,0,1,0,circle,hexagon,1,0,1,0,3,3,39,4,,,,,,,,,,,,,,,,,,,,,,,,,,,,,,,,,,,,,,,,383.95168682798976,383.95168682798976,383.95168682798976,383.95168682798976,383.95168682798976,383.95168682798976,383.95168682798976,383.95168682798976,383.95168682798976,383.95168682798976,l,0.6577627860242501,10,547,1,384.6359092610073,386.13765189400874,,,,,,,,,,,,,,,,,,,,,,,,,,,,,,,,,,,,,,,,,,,,,,,,,,,,,,,,,,,,,,,,,,,,,18375,2022-12-01_14h04.43.957,vts_reward_expectancy_bt_OFFLINE,2022.2.4,59.88073865394295,
0,0,0,1,0,1,0,0,star ,circle,1,0,1,0,3,4,40,10,,,,,,,,,,,,,,,,,,,,,,,,,,,,,,,,,,,,,,,,386.63817413296783,386.63817413296783,386.63817413296783,386.63817413296783,386.63817413296783,386.63817413296783,386.63817413296783,386.63817413296783,386.63817413296783,386.63817413296783,a,1.4192428680253215,10,557,1,388.08983496396104,389.591418150987,,,,,,,,,,,,,,,,,,,,,,,,,,,,,,,,,,,,,,,,,,,,,,,,,,,,,,,,,,,,,,,,,,,,,18375,2022-12-01_14h04.43.957,vts_reward_expectancy_bt_OFFLINE,2022.2.4,59.88073865394295,
0,0,0,1,1,0,0,0,star,triangle,1,0,1,0,3,5,41,9,,,,,,,,,,,,,,,,,,,,,,,,,,,,,,,,,,,,,,,,390.0918721589842,390.0918721589842,390.0918721589842,390.0918721589842,390.0918721589842,390.0918721589842,390.0918721589842,390.0918721589842,390.0918721589842,390.0918721589842,l,2.093660653976258,10,567,1,392.21089587698225,393.71263341396116,,,,,,,,,,,,,,,,,,,,,,,,,,,,,,,,,,,,,,,,,,,,,,,,,,,,,,,,,,,,,,,,,,,,,18375,2022-12-01_14h04.43.957,vts_reward_expectancy_bt_OFFLINE,2022.2.4,59.88073865394295,
0,1,0,0,0,0,0,1,circle,star,1,0,1,0,3,6,42,5,,,,,,,,,,,,,,,,,,,,,,,,,,,,,,,,,,,,,,,,394.2133829789818,394.2133829789818,394.2133829789818,394.2133829789818,394.2133829789818,394.2133829789818,394.2133829789818,394.2133829789818,394.2133829789818,394.2133829789818,a,2.452987815020606,1,568,1,396.6825407659635,398.1843184619793,,,,,,,,,,,,,,,,,,,,,,,,,,,,,,,,,,,,,,,,,,,,,,,,,,,,,,,,,,,,,,,,,,,,,18375,2022-12-01_14h04.43.957,vts_reward_expectancy_bt_OFFLINE,2022.2.4,59.88073865394295,
0,0,1,0,0,0,0,1,hexagon,star,1,0,1,0,3,7,43,8,,,,,,,,,,,,,,,,,,,,,,,,,,,,,,,,,,,,,,,,398.6851528919651,398.6851528919651,398.6851528919651,398.6851528919651,398.6851528919651,398.6851528919651,398.6851528919651,398.6851528919651,398.6851528919651,398.6851528919651,a,0.6607744710636325,10,578,1,399.3690664769965,400.8706202249741,,,,,,,,,,,,,,,,,,,,,,,,,,,,,,,,,,,,,,,,,,,,,,,,,,,,,,,,,,,,,,,,,,,,,18375,2022-12-01_14h04.43.957,vts_reward_expectancy_bt_OFFLINE,2022.2.4,59.88073865394295,
1,0,0,0,0,1,0,0,triangle,circle,1,0,1,0,3,8,44,0,,,,,,,,,,,,,,,,,,,,,,,,,,,,,,,,,,,,,,,,401.37137268699007,401.37137268699007,401.37137268699007,401.37137268699007,401.37137268699007,401.37137268699007,401.37137268699007,401.37137268699007,401.37137268699007,401.37137268699007,a,1.5980054500396363,10,588,1,402.9895300879725,404.49105863500154,,,,,,,,,,,,,,,,,,,,,,,,,,,,,,,,,,,,,,,,,,,,,,,,,,,,,,,,,,,,,,,,,,,,,18375,2022-12-01_14h04.43.957,vts_reward_expectancy_bt_OFFLINE,2022.2.4,59.88073865394295,
0,0,1,0,0,1,0,0,hexagon,circle,1,0,1,0,3,9,45,7,,,,,,,,,,,,,,,,,,,,,,,,,,,,,,,,,,,,,,,,404.9917718039942,404.9917718039942,404.9917718039942,404.9917718039942,404.9917718039942,404.9917718039942,404.9917718039942,404.9917718039942,404.9917718039942,404.9917718039942,a,0.7770617060014047,10,598,1,405.79255946096964,407.2943342360086,,,,,,,,,,,,,,,,,,,,,,,,,,,,,,,,,,,,,,,,,,,,,,,,,,,,,,,,,,,,,,,,,,,,,18375,2022-12-01_14h04.43.957,vts_reward_expectancy_bt_OFFLINE,2022.2.4,59.88073865394295,
1,0,0,0,0,0,1,0,triangle,hexagon,1,0,1,0,3,10,46,1,,,,,,,,,,,,,,,,,,,,,,,,,,,,,,,,,,,,,,,,407.7934983560117,407.7934983560117,407.7934983560117,407.7934983560117,407.7934983560117,407.7934983560117,407.7934983560117,407.7934983560117,407.7934983560117,407.7934983560117,l,0.5855009260121733,1,599,1,408.39553965296363,409.89723242796026,,,,,,,,,,,,,,,,,,,,,,,,,,,,,,,,,,,,,,,,,,,,,,,,,,,,,,,,,,,,,,,,,,,,,18375,2022-12-01_14h04.43.957,vts_reward_expectancy_bt_OFFLINE,2022.2.4,59.88073865394295,
0,0,1,0,1,0,0,0,hexagon,triangle,1,0,1,0,3,11,47,6,,,,,,,,,,,,,,,,,,,,,,,,,,,,,,,,,,,,,,,,410.3977033870178,410.3977033870178,410.3977033870178,410.3977033870178,410.3977033870178,410.3977033870178,410.3977033870178,410.3977033870178,410.3977033870178,410.3977033870178,a,0.9402144410414621,10,609,1,411.3653685019817,412.86720016400795,,,,,,,,,,,,,,,,,,,,,,,,,,,,,,,,,,,,,,,,,,,,,,,,,,,,,,,,,,,,,,,,,,,,,18375,2022-12-01_14h04.43.957,vts_reward_expectancy_bt_OFFLINE,2022.2.4,59.88073865394295,
1,0,0,0,0,0,0,1,triangle,star,2,0,2,0,0,0,0,2,,,,,,,,,,,,,,,,,,,,,,,,,,,,,,,,,,,,,,,,416.17781750601716,416.17781750601716,416.17781750601716,416.17781750601716,416.17781750601716,416.17781750601716,416.17781750601716,416.17781750601716,416.17781750601716,416.17781750601716,a,12.358793428051285,10,619,2,428.5680001800065,430.069381556008,,,,,,,,,,,,,,,,,,,,,,,,,,,,,,,,,,,,,,,,,,,,,,,,,,,,,,,,,,,,,,,,,,,,,18375,2022-12-01_14h04.43.957,vts_reward_expectancy_bt_OFFLINE,2022.2.4,59.88073865394295,
0,1,0,0,0,0,0,1,circle,star,2,0,2,0,0,1,1,5,,,,,,,,,,,,,,,,,,,,,,,,,,,,,,,,,,,,,,,,430.5701537129935,430.5701537129935,430.5701537129935,430.5701537129935,430.5701537129935,430.5701537129935,430.5701537129935,430.5701537129935,430.5701537129935,430.5701537129935,l,2.3273326809867285,10,629,2,432.9227452769992,434.42419211997185,,,,,,,,,,,,,,,,,,,,,,,,,,,,,,,,,,,,,,,,,,,,,,,,,,,,,,,,,,,,,,,,,,,,,18375,2022-12-01_14h04.43.957,vts_reward_expectancy_bt_OFFLINE,2022.2.4,59.88073865394295,
0,0,0,1,0,0,1,0,star,hexagon,2,0,2,0,0,2,2,11,,,,,,,,,,,,,,,,,,,,,,,,,,,,,,,,,,,,,,,,434.9248156590038,434.9248156590038,434.9248156590038,434.9248156590038,434.9248156590038,434.9248156590038,434.9248156590038,434.9248156590038,434.9248156590038,434.9248156590038,l,0.9084883900359273,10,639,2,435.85904482600745,437.3607117339852,,,,,,,,,,,,,,,,,,,,,,,,,,,,,,,,,,,,,,,,,,,,,,,,,,,,,,,,,,,,,,,,,,,,,18375,2022-12-01_14h04.43.957,vts_reward_expectancy_bt_OFFLINE,2022.2.4,59.88073865394295,
0,0,0,1,0,1,0,0,star ,circle,2,0,2,0,0,3,3,10,,,,,,,,,,,,,,,,,,,,,,,,,,,,,,,,,,,,,,,,437.8613983260002,437.8613983260002,437.8613983260002,437.8613983260002,437.8613983260002,437.8613983260002,437.8613983260002,437.8613983260002,437.8613983260002,437.8613983260002,l,2.5473373060231097,1,640,2,440.4308460559696,441.93239300401183,,,,,,,,,,,,,,,,,,,,,,,,,,,,,,,,,,,,,,,,,,,,,,,,,,,,,,,,,,,,,,,,,,,,,18375,2022-12-01_14h04.43.957,vts_reward_expectancy_bt_OFFLINE,2022.2.4,59.88073865394295,
0,1,0,0,1,0,0,0,circle,triangle,2,0,2,0,0,4,4,3,,,,,,,,,,,,,,,,,,,,,,,,,,,,,,,,,,,,,,,,442.4328705240041,442.4328705240041,442.4328705240041,442.4328705240041,442.4328705240041,442.4328705240041,442.4328705240041,442.4328705240041,442.4328705240041,442.4328705240041,a,2.7124367170617916,1,641,2,445.1694759039674,446.67099755699746,,,,,,,,,,,,,,,,,,,,,,,,,,,,,,,,,,,,,,,,,,,,,,,,,,,,,,,,,,,,,,,,,,,,,18375,2022-12-01_14h04.43.957,vts_reward_expectancy_bt_OFFLINE,2022.2.4,59.88073865394295,
0,0,1,0,0,0,0,1,hexagon,star,2,0,2,0,0,5,5,8,,,,,,,,,,,,,,,,,,,,,,,,,,,,,,,,,,,,,,,,447.17158790596295,447.17158790596295,447.17158790596295,447.17158790596295,447.17158790596295,447.17158790596295,447.17158790596295,447.17158790596295,447.17158790596295,447.17158790596295,a,1.3902715360745788,10,651,2,448.5897335659829,450.0913109619869,,,,,,,,,,,,,,,,,,,,,,,,,,,,,,,,,,,,,,,,,,,,,,,,,,,,,,,,,,,,,,,,,,,,,18375,2022-12-01_14h04.43.957,vts_reward_expectancy_bt_OFFLINE,2022.2.4,59.88073865394295,
0,0,1,0,0,1,0,0,hexagon,circle,2,0,2,0,0,6,6,7,,,,,,,,,,,,,,,,,,,,,,,,,,,,,,,,,,,,,,,,450.59200713800965,450.59200713800965,450.59200713800965,450.59200713800965,450.59200713800965,450.59200713800965,450.59200713800965,450.59200713800965,450.59200713800965,450.59200713800965,a,0.8252637280384079,10,661,2,451.4431307889754,452.9445966039784,,,,,,,,,,,,,,,,,,,,,,,,,,,,,,,,,,,,,,,,,,,,,,,,,,,,,,,,,,,,,,,,,,,,,18375,2022-12-01_14h04.43.957,vts_reward_expectancy_bt_OFFLINE,2022.2.4,59.88073865394295,
1,0,0,0,0,1,0,0,triangle,circle,2,0,2,0,0,7,7,0,,,,,,,,,,,,,,,,,,,,,,,,,,,,,,,,,,,,,,,,453.4450860400102,453.4450860400102,453.4450860400102,453.4450860400102,453.4450860400102,453.4450860400102,453.4450860400102,453.4450860400102,453.4450860400102,453.4450860400102,a,1.4282765440293588,10,671,2,454.8968972619623,456.3985053189681,,,,,,,,,,,,,,,,,,,,,,,,,,,,,,,,,,,,,,,,,,,,,,,,,,,,,,,,,,,,,,,,,,,,,18375,2022-12-01_14h04.43.957,vts_reward_expectancy_bt_OFFLINE,2022.2.4,59.88073865394295,
0,0,0,1,1,0,0,0,star,triangle,2,0,2,0,0,8,8,9,,,,,,,,,,,,,,,,,,,,,,,,,,,,,,,,,,,,,,,,456.89901953097433,456.89901953097433,456.89901953097433,456.89901953097433,456.89901953097433,456.89901953097433,456.89901953097433,456.89901953097433,456.89901953097433,456.89901953097433,a,2.0865754220285453,1,672,2,459.01827870396664,460.51974907598924,,,,,,,,,,,,,,,,,,,,,,,,,,,,,,,,,,,,,,,,,,,,,,,,,,,,,,,,,,,,,,,,,,,,,18375,2022-12-01_14h04.43.957,vts_reward_expectancy_bt_OFFLINE,2022.2.4,59.88073865394295,
0,0,1,0,1,0,0,0,hexagon,triangle,2,0,2,0,0,9,9,6,,,,,,,,,,,,,,,,,,,,,,,,,,,,,,,,,,,,,,,,461.0203730739886,461.0203730739886,461.0203730739886,461.0203730739886,461.0203730739886,461.0203730739886,461.0203730739886,461.0203730739886,461.0203730739886,461.0203730739886,a,0.628920482005924,10,682,2,461.67094822897343,463.1725983459619,,,,,,,,,,,,,,,,,,,,,,,,,,,,,,,,,,,,,,,,,,,,,,,,,,,,,,,,,,,,,,,,,,,,,18375,2022-12-01_14h04.43.957,vts_reward_expectancy_bt_OFFLINE,2022.2.4,59.88073865394295,
0,1,0,0,0,0,1,0,circle,hexagon,2,0,2,0,0,10,10,4,,,,,,,,,,,,,,,,,,,,,,,,,,,,,,,,,,,,,,,,463.6730815669871,463.6730815669871,463.6730815669871,463.6730815669871,463.6730815669871,463.6730815669871,463.6730815669871,463.6730815669871,463.6730815669871,463.6730815669871,l,0.7684497440350242,1,683,2,464.4741329450044,465.97565061599016,,,,,,,,,,,,,,,,,,,,,,,,,,,,,,,,,,,,,,,,,,,,,,,,,,,,,,,,,,,,,,,,,,,,,18375,2022-12-01_14h04.43.957,vts_reward_expectancy_bt_OFFLINE,2022.2.4,59.88073865394295,
1,0,0,0,0,0,1,0,triangle,hexagon,2,0,2,0,0,11,11,1,,,,,,,,,,,,,,,,,,,,,,,,,,,,,,,,,,,,,,,,466.4763116989634,466.4763116989634,466.4763116989634,466.4763116989634,466.4763116989634,466.4763116989634,466.4763116989634,466.4763116989634,466.4763116989634,466.4763116989634,l,1.9728087449911982,10,693,2,468.47848139097914,469.98019631998613,,,,,,,,,,,,,,,,,,,,,,,,,,,,,,,,,,,,,,,,,,,,,,,,,,,,,,,,,,,,,,,,,,,,,18375,2022-12-01_14h04.43.957,vts_reward_expectancy_bt_OFFLINE,2022.2.4,59.88073865394295,
0,0,1,0,1,0,0,0,hexagon,triangle,2,0,2,0,1,0,12,6,,,,,,,,,,,,,,,,,,,,,,,,,,,,,,,,,,,,,,,,470.4805690019857,470.4805690019857,470.4805690019857,470.4805690019857,470.4805690019857,470.4805690019857,470.4805690019857,470.4805690019857,470.4805690019857,470.4805690019857,a,1.1920828050351702,10,703,2,471.6988068399951,473.2002535999636,,,,,,,,,,,,,,,,,,,,,,,,,,,,,,,,,,,,,,,,,,,,,,,,,,,,,,,,,,,,,,,,,,,,,18375,2022-12-01_14h04.43.957,vts_reward_expectancy_bt_OFFLINE,2022.2.4,59.88073865394295,
0,0,1,0,0,0,0,1,hexagon,star,2,0,2,0,1,1,13,8,,,,,,,,,,,,,,,,,,,,,,,,,,,,,,,,,,,,,,,,473.7009791219607,473.7009791219607,473.7009791219607,473.7009791219607,473.7009791219607,473.7009791219607,473.7009791219607,473.7009791219607,473.7009791219607,473.7009791219607,a,0.547661908029113,10,713,2,474.2685113539919,475.7698691720143,,,,,,,,,,,,,,,,,,,,,,,,,,,,,,,,,,,,,,,,,,,,,,,,,,,,,,,,,,,,,,,,,,,,,18375,2022-12-01_14h04.43.957,vts_reward_expectancy_bt_OFFLINE,2022.2.4,59.88073865394295,
0,1,0,0,1,0,0,0,circle,triangle,2,0,2,0,1,2,14,3,,,,,,,,,,,,,,,,,,,,,,,,,,,,,,,,,,,,,,,,476.2703760089935,476.2703760089935,476.2703760089935,476.2703760089935,476.2703760089935,476.2703760089935,476.2703760089935,476.2703760089935,476.2703760089935,476.2703760089935,a,3.8204144480405375,10,723,2,480.10790163098136,481.6096539470018,,,,,,,,,,,,,,,,,,,,,,,,,,,,,,,,,,,,,,,,,,,,,,,,,,,,,,,,,,,,,,,,,,,,,18375,2022-12-01_14h04.43.957,vts_reward_expectancy_bt_OFFLINE,2022.2.4,59.88073865394295,
1,0,0,0,0,0,0,1,triangle,star,2,0,2,0,1,3,15,2,,,,,,,,,,,,,,,,,,,,,,,,,,,,,,,,,,,,,,,,482.11017910699593,482.11017910699593,482.11017910699593,482.11017910699593,482.11017910699593,482.11017910699593,482.11017910699593,482.11017910699593,482.11017910699593,482.11017910699593,a,2.0686379310209304,10,733,2,484.19572329096263,485.69736633700086,,,,,,,,,,,,,,,,,,,,,,,,,,,,,,,,,,,,,,,,,,,,,,,,,,,,,,,,,,,,,,,,,,,,,18375,2022-12-01_14h04.43.957,vts_reward_expectancy_bt_OFFLINE,2022.2.4,59.88073865394295,
0,0,0,1,1,0,0,0,star,triangle,2,0,2,0,1,4,16,9,,,,,,,,,,,,,,,,,,,,,,,,,,,,,,,,,,,,,,,,486.1979454800021,486.1979454800021,486.1979454800021,486.1979454800021,486.1979454800021,486.1979454800021,486.1979454800021,486.1979454800021,486.1979454800021,486.1979454800021,l,4.5318980470183305,10,743,2,490.75302636099514,492.25464841199573,,,,,,,,,,,,,,,,,,,,,,,,,,,,,,,,,,,,,,,,,,,,,,,,,,,,,,,,,,,,,,,,,,,,,18375,2022-12-01_14h04.43.957,vts_reward_expectancy_bt_OFFLINE,2022.2.4,59.88073865394295,
0,1,0,0,0,0,0,1,circle,star,2,0,2,0,1,5,17,5,,,,,,,,,,,,,,,,,,,,,,,,,,,,,,,,,,,,,,,,492.7553519019857,492.7553519019857,492.7553519019857,492.7553519019857,492.7553519019857,492.7553519019857,492.7553519019857,492.7553519019857,492.7553519019857,492.7553519019857,l,3.6301794049795717,1,744,2,496.40917424298823,497.91095122799743,,,,,,,,,,,,,,,,,,,,,,,,,,,,,,,,,,,,,,,,,,,,,,,,,,,,,,,,,,,,,,,,,,,,,18375,2022-12-01_14h04.43.957,vts_reward_expectancy_bt_OFFLINE,2022.2.4,59.88073865394295,
0,0,0,1,0,0,1,0,star,hexagon,2,0,2,0,1,6,18,11,,,,,,,,,,,,,,,,,,,,,,,,,,,,,,,,,,,,,,,,498.4113556559896,498.4113556559896,498.4113556559896,498.4113556559896,498.4113556559896,498.4113556559896,498.4113556559896,498.4113556559896,498.4113556559896,498.4113556559896,l,0.8458844409906305,10,754,2,499.27931687497767,500.780782094982,,,,,,,,,,,,,,,,,,,,,,,,,,,,,,,,,,,,,,,,,,,,,,,,,,,,,,,,,,,,,,,,,,,,,18375,2022-12-01_14h04.43.957,vts_reward_expectancy_bt_OFFLINE,2022.2.4,59.88073865394295,
1,0,0,0,0,1,0,0,triangle,circle,2,0,2,0,1,7,19,0,,,,,,,,,,,,,,,,,,,,,,,,,,,,,,,,,,,,,,,,501.28114673896926,501.28114673896926,501.28114673896926,501.28114673896926,501.28114673896926,501.28114673896926,501.28114673896926,501.28114673896926,501.28114673896926,501.28114673896926,a,3.2325721380184405,1,755,2,504.53479323000647,506.0366879570065,,,,,,,,,,,,,,,,,,,,,,,,,,,,,,,,,,,,,,,,,,,,,,,,,,,,,,,,,,,,,,,,,,,,,18375,2022-12-01_14h04.43.957,vts_reward_expectancy_bt_OFFLINE,2022.2.4,59.88073865394295,
0,0,1,0,0,1,0,0,hexagon,circle,2,0,2,0,1,8,20,7,,,,,,,,,,,,,,,,,,,,,,,,,,,,,,,,,,,,,,,,506.53707061498426,506.53707061498426,506.53707061498426,506.53707061498426,506.53707061498426,506.53707061498426,506.53707061498426,506.53707061498426,506.53707061498426,506.53707061498426,a,0.759932553046383,10,765,2,507.3212181300041,508.8229209340061,,,,,,,,,,,,,,,,,,,,,,,,,,,,,,,,,,,,,,,,,,,,,,,,,,,,,,,,,,,,,,,,,,,,,18375,2022-12-01_14h04.43.957,vts_reward_expectancy_bt_OFFLINE,2022.2.4,59.88073865394295,
0,0,0,1,0,1,0,0,star ,circle,2,0,2,0,1,9,21,10,,,,,,,,,,,,,,,,,,,,,,,,,,,,,,,,,,,,,,,,509.32344138401095,509.32344138401095,509.32344138401095,509.32344138401095,509.32344138401095,509.32344138401095,509.32344138401095,509.32344138401095,509.32344138401095,509.32344138401095,a,1.4612725509796292,10,775,2,510.8083743979805,512.3103063210147,,,,,,,,,,,,,,,,,,,,,,,,,,,,,,,,,,,,,,,,,,,,,,,,,,,,,,,,,,,,,,,,,,,,,18375,2022-12-01_14h04.43.957,vts_reward_expectancy_bt_OFFLINE,2022.2.4,59.88073865394295,
0,1,0,0,0,0,1,0,circle,hexagon,2,0,2,0,1,10,22,4,,,,,,,,,,,,,,,,,,,,,,,,,,,,,,,,,,,,,,,,512.8105414109887,512.8105414109887,512.8105414109887,512.8105414109887,512.8105414109887,512.8105414109887,512.8105414109887,512.8105414109887,512.8105414109887,512.8105414109887,l,0.8149811010225676,1,776,2,513.6452065439662,515.1466673999676,,,,,,,,,,,,,,,,,,,,,,,,,,,,,,,,,,,,,,,,,,,,,,,,,,,,,,,,,,,,,,,,,,,,,18375,2022-12-01_14h04.43.957,vts_reward_expectancy_bt_OFFLINE,2022.2.4,59.88073865394295,
1,0,0,0,0,0,1,0,triangle,hexagon,2,0,2,0,1,11,23,1,,,,,,,,,,,,,,,,,,,,,,,,,,,,,,,,,,,,,,,,515.6470979499863,515.6470979499863,515.6470979499863,515.6470979499863,515.6470979499863,515.6470979499863,515.6470979499863,515.6470979499863,515.6470979499863,515.6470979499863,l,1.0353133109747432,10,786,2,516.7150245849625,518.2165934880031,,,,,,,,,,,,,,,,,,,,,,,,,,,,,,,,,,,,,,,,,,,,,,,,,,,,,,,,,,,,,,,,,,,,,18375,2022-12-01_14h04.43.957,vts_reward_expectancy_bt_OFFLINE,2022.2.4,59.88073865394295,
0,0,1,0,0,1,0,0,hexagon,circle,2,0,2,0,2,0,24,7,,,,,,,,,,,,,,,,,,,,,,,,,,,,,,,,,,,,,,,,518.7170950240106,518.7170950240106,518.7170950240106,518.7170950240106,518.7170950240106,518.7170950240106,518.7170950240106,518.7170950240106,518.7170950240106,518.7170950240106,a,1.243677540041972,10,796,2,519.9852613579715,521.4870592450025,,,,,,,,,,,,,,,,,,,,,,,,,,,,,,,,,,,,,,,,,,,,,,,,,,,,,,,,,,,,,,,,,,,,,18375,2022-12-01_14h04.43.957,vts_reward_expectancy_bt_OFFLINE,2022.2.4,59.88073865394295,
0,0,0,1,1,0,0,0,star,triangle,2,0,2,0,2,1,25,9,,,,,,,,,,,,,,,,,,,,,,,,,,,,,,,,,,,,,,,,521.987681470986,521.987681470986,521.987681470986,521.987681470986,521.987681470986,521.987681470986,521.987681470986,521.987681470986,521.987681470986,521.987681470986,a,3.1098884050152265,1,797,2,525.1242958919611,526.6260837930022,,,,,,,,,,,,,,,,,,,,,,,,,,,,,,,,,,,,,,,,,,,,,,,,,,,,,,,,,,,,,,,,,,,,,18375,2022-12-01_14h04.43.957,vts_reward_expectancy_bt_OFFLINE,2022.2.4,59.88073865394295,
0,0,1,0,1,0,0,0,hexagon,triangle,2,0,2,0,2,2,26,6,,,,,,,,,,,,,,,,,,,,,,,,,,,,,,,,,,,,,,,,527.1265326639987,527.1265326639987,527.1265326639987,527.1265326639987,527.1265326639987,527.1265326639987,527.1265326639987,527.1265326639987,527.1265326639987,527.1265326639987,a,0.7469088160432875,1,798,2,527.8942403139663,529.3956495429738,,,,,,,,,,,,,,,,,,,,,,,,,,,,,,,,,,,,,,,,,,,,,,,,,,,,,,,,,,,,,,,,,,,,,18375,2022-12-01_14h04.43.957,vts_reward_expectancy_bt_OFFLINE,2022.2.4,59.88073865394295,
0,1,0,0,1,0,0,0,circle,triangle,2,0,2,0,2,3,27,3,,,,,,,,,,,,,,,,,,,,,,,,,,,,,,,,,,,,,,,,529.8961715800106,529.8961715800106,529.8961715800106,529.8961715800106,529.8961715800106,529.8961715800106,529.8961715800106,529.8961715800106,529.8961715800106,529.8961715800106,a,13.137683937035035,1,799,2,543.0606485829921,544.562371750013,,,,,,,,,,,,,,,,,,,,,,,,,,,,,,,,,,,,,,,,,,,,,,,,,,,,,,,,,,,,,,,,,,,,,18375,2022-12-01_14h04.43.957,vts_reward_expectancy_bt_OFFLINE,2022.2.4,59.88073865394295,
1,0,0,0,0,0,0,1,triangle,star,2,0,2,0,2,4,28,2,,,,,,,,,,,,,,,,,,,,,,,,,,,,,,,,,,,,,,,,545.0627381859813,545.0627381859813,545.0627381859813,545.0627381859813,545.0627381859813,545.0627381859813,545.0627381859813,545.0627381859813,545.0627381859813,545.0627381859813,a,3.7950543440529145,10,809,2,548.8837233249797,550.3854363349965,,,,,,,,,,,,,,,,,,,,,,,,,,,,,,,,,,,,,,,,,,,,,,,,,,,,,,,,,,,,,,,,,,,,,18375,2022-12-01_14h04.43.957,vts_reward_expectancy_bt_OFFLINE,2022.2.4,59.88073865394295,
0,1,0,0,0,0,1,0,circle,hexagon,2,0,2,0,2,5,29,4,,,,,,,,,,,,,,,,,,,,,,,,,,,,,,,,,,,,,,,,550.8860323959962,550.8860323959962,550.8860323959962,550.8860323959962,550.8860323959962,550.8860323959962,550.8860323959962,550.8860323959962,550.8860323959962,550.8860323959962,l,0.7561722670216113,10,819,2,551.6701944629895,553.1719462570036,,,,,,,,,,,,,,,,,,,,,,,,,,,,,,,,,,,,,,,,,,,,,,,,,,,,,,,,,,,,,,,,,,,,,18375,2022-12-01_14h04.43.957,vts_reward_expectancy_bt_OFFLINE,2022.2.4,59.88073865394295,
0,0,1,0,0,0,0,1,hexagon,star,2,0,2,0,2,6,30,8,,,,,,,,,,,,,,,,,,,,,,,,,,,,,,,,,,,,,,,,553.6724869029713,553.6724869029713,553.6724869029713,553.6724869029713,553.6724869029713,553.6724869029713,553.6724869029713,553.6724869029713,553.6724869029713,553.6724869029713,a,0.8486742070526816,10,829,2,554.5400173550006,556.0416262609651,,,,,,,,,,,,,,,,,,,,,,,,,,,,,,,,,,,,,,,,,,,,,,,,,,,,,,,,,,,,,,,,,,,,,18375,2022-12-01_14h04.43.957,vts_reward_expectancy_bt_OFFLINE,2022.2.4,59.88073865394295,
1,0,0,0,0,0,1,0,triangle,hexagon,2,0,2,0,2,7,31,1,,,,,,,,,,,,,,,,,,,,,,,,,,,,,,,,,,,,,,,,556.5421989189927,556.5421989189927,556.5421989189927,556.5421989189927,556.5421989189927,556.5421989189927,556.5421989189927,556.5421989189927,556.5421989189927,556.5421989189927,l,0.859298751980532,1,830,2,557.4264499709825,558.9281247750041,,,,,,,,,,,,,,,,,,,,,,,,,,,,,,,,,,,,,,,,,,,,,,,,,,,,,,,,,,,,,,,,,,,,,18375,2022-12-01_14h04.43.957,vts_reward_expectancy_bt_OFFLINE,2022.2.4,59.88073865394295,
1,0,0,0,0,1,0,0,triangle,circle,2,0,2,0,2,8,32,0,,,,,,,,,,,,,,,,,,,,,,,,,,,,,,,,,,,,,,,,559.4286447709892,559.4286447709892,559.4286447709892,559.4286447709892,559.4286447709892,559.4286447709892,559.4286447709892,559.4286447709892,559.4286447709892,559.4286447709892,a,1.3182518160319887,1,831,2,560.763361483987,562.2650422930019,,,,,,,,,,,,,,,,,,,,,,,,,,,,,,,,,,,,,,,,,,,,,,,,,,,,,,,,,,,,,,,,,,,,,18375,2022-12-01_14h04.43.957,vts_reward_expectancy_bt_OFFLINE,2022.2.4,59.88073865394295,
0,0,0,1,0,0,1,0,star,hexagon,2,0,2,0,2,9,33,11,,,,,,,,,,,,,,,,,,,,,,,,,,,,,,,,,,,,,,,,562.7656554770074,562.7656554770074,562.7656554770074,562.7656554770074,562.7656554770074,562.7656554770074,562.7656554770074,562.7656554770074,562.7656554770074,562.7656554770074,l,0.8032454730127938,10,841,2,563.5999867659993,565.1015097110067,,,,,,,,,,,,,,,,,,,,,,,,,,,,,,,,,,,,,,,,,,,,,,,,,,,,,,,,,,,,,,,,,,,,,18375,2022-12-01_14h04.43.957,vts_reward_expectancy_bt_OFFLINE,2022.2.4,59.88073865394295,
0,1,0,0,0,0,0,1,circle,star,2,0,2,0,2,10,34,5,,,,,,,,,,,,,,,,,,,,,,,,,,,,,,,,,,,,,,,,565.6020469130017,565.6020469130017,565.6020469130017,565.6020469130017,565.6020469130017,565.6020469130017,565.6020469130017,565.6020469130017,565.6020469130017,565.6020469130017,a,1.72746043902589,1,842,2,567.3541079559946,568.8558771919925,,,,,,,,,,,,,,,,,,,,,,,,,,,,,,,,,,,,,,,,,,,,,,,,,,,,,,,,,,,,,,,,,,,,,18375,2022-12-01_14h04.43.957,vts_reward_expectancy_bt_OFFLINE,2022.2.4,59.88073865394295,
0,0,0,1,0,1,0,0,star ,circle,2,0,2,0,2,11,35,10,,,,,,,,,,,,,,,,,,,,,,,,,,,,,,,,,,,,,,,,569.3562950639753,569.3562950639753,569.3562950639753,569.3562950639753,569.3562950639753,569.3562950639753,569.3562950639753,569.3562950639753,569.3562950639753,569.3562950639753,a,0.604659107979387,1,843,2,569.9906147790025,571.492129938968,,,,,,,,,,,,,,,,,,,,,,,,,,,,,,,,,,,,,,,,,,,,,,,,,,,,,,,,,,,,,,,,,,,,,18375,2022-12-01_14h04.43.957,vts_reward_expectancy_bt_OFFLINE,2022.2.4,59.88073865394295,
0,1,0,0,0,0,0,1,circle,star,2,0,2,0,3,0,36,5,,,,,,,,,,,,,,,,,,,,,,,,,,,,,,,,,,,,,,,,571.9926637359895,571.9926637359895,571.9926637359895,571.9926637359895,571.9926637359895,571.9926637359895,571.9926637359895,571.9926637359895,571.9926637359895,571.9926637359895,l,1.4247786269988865,1,844,2,573.4440724099986,574.9459981920081,,,,,,,,,,,,,,,,,,,,,,,,,,,,,,,,,,,,,,,,,,,,,,,,,,,,,,,,,,,,,,,,,,,,,18375,2022-12-01_14h04.43.957,vts_reward_expectancy_bt_OFFLINE,2022.2.4,59.88073865394295,
0,0,1,0,1,0,0,0,hexagon,triangle,2,0,2,0,3,1,37,6,,,,,,,,,,,,,,,,,,,,,,,,,,,,,,,,,,,,,,,,575.4463195119752,575.4463195119752,575.4463195119752,575.4463195119752,575.4463195119752,575.4463195119752,575.4463195119752,575.4463195119752,575.4463195119752,575.4463195119752,a,1.084632775047794,10,854,2,576.5477145579644,578.0492550909985,,,,,,,,,,,,,,,,,,,,,,,,,,,,,,,,,,,,,,,,,,,,,,,,,,,,,,,,,,,,,,,,,,,,,18375,2022-12-01_14h04.43.957,vts_reward_expectancy_bt_OFFLINE,2022.2.4,59.88073865394295,
0,0,1,0,0,0,0,1,hexagon,star,2,0,2,0,3,2,38,8,,,,,,,,,,,,,,,,,,,,,,,,,,,,,,,,,,,,,,,,578.5498065369902,578.5498065369902,578.5498065369902,578.5498065369902,578.5498065369902,578.5498065369902,578.5498065369902,578.5498065369902,578.5498065369902,578.5498065369902,a,1.0755353860440664,10,864,2,579.651073098008,581.1526160369976,,,,,,,,,,,,,,,,,,,,,,,,,,,,,,,,,,,,,,,,,,,,,,,,,,,,,,,,,,,,,,,,,,,,,18375,2022-12-01_14h04.43.957,vts_reward_expectancy_bt_OFFLINE,2022.2.4,59.88073865394295,
0,0,0,1,1,0,0,0,star,triangle,2,0,2,0,3,3,39,9,,,,,,,,,,,,,,,,,,,,,,,,,,,,,,,,,,,,,,,,581.6531891449704,581.6531891449704,581.6531891449704,581.6531891449704,581.6531891449704,581.6531891449704,581.6531891449704,581.6531891449704,581.6531891449704,581.6531891449704,a,2.4762603670242243,10,874,2,584.156075397972,585.6576511019957,,,,,,,,,,,,,,,,,,,,,,,,,,,,,,,,,,,,,,,,,,,,,,,,,,,,,,,,,,,,,,,,,,,,,18375,2022-12-01_14h04.43.957,vts_reward_expectancy_bt_OFFLINE,2022.2.4,59.88073865394295,
1,0,0,0,0,0,1,0,triangle,hexagon,2,0,2,0,3,4,40,1,,,,,,,,,,,,,,,,,,,,,,,,,,,,,,,,,,,,,,,,586.1582542230026,586.1582542230026,586.1582542230026,586.1582542230026,586.1582542230026,586.1582542230026,586.1582542230026,586.1582542230026,586.1582542230026,586.1582542230026,l,0.9074691620189697,10,884,2,587.0926086080144,588.59422554099,,,,,,,,,,,,,,,,,,,,,,,,,,,,,,,,,,,,,,,,,,,,,,,,,,,,,,,,,,,,,,,,,,,,,18375,2022-12-01_14h04.43.957,vts_reward_expectancy_bt_OFFLINE,2022.2.4,59.88073865394295,
0,0,0,1,0,1,0,0,star ,circle,2,0,2,0,3,5,41,10,,,,,,,,,,,,,,,,,,,,,,,,,,,,,,,,,,,,,,,,589.094933520013,589.094933520013,589.094933520013,589.094933520013,589.094933520013,589.094933520013,589.094933520013,589.094933520013,589.094933520013,589.094933520013,a,2.1301747640245594,10,894,2,591.2471637459821,592.7488340109703,,,,,,,,,,,,,,,,,,,,,,,,,,,,,,,,,,,,,,,,,,,,,,,,,,,,,,,,,,,,,,,,,,,,,18375,2022-12-01_14h04.43.957,vts_reward_expectancy_bt_OFFLINE,2022.2.4,59.88073865394295,
0,1,0,0,1,0,0,0,circle,triangle,2,0,2,0,3,6,42,3,,,,,,,,,,,,,,,,,,,,,,,,,,,,,,,,,,,,,,,,593.249531599984,593.249531599984,593.249531599984,593.249531599984,593.249531599984,593.249531599984,593.249531599984,593.249531599984,593.249531599984,593.249531599984,a,3.711953430029098,1,895,2,596.9867637879797,598.4885473370086,,,,,,,,,,,,,,,,,,,,,,,,,,,,,,,,,,,,,,,,,,,,,,,,,,,,,,,,,,,,,,,,,,,,,18375,2022-12-01_14h04.43.957,vts_reward_expectancy_bt_OFFLINE,2022.2.4,59.88073865394295,
0,0,1,0,0,1,0,0,hexagon,circle,2,0,2,0,3,7,43,7,,,,,,,,,,,,,,,,,,,,,,,,,,,,,,,,,,,,,,,,598.9890596549958,598.9890596549958,598.9890596549958,598.9890596549958,598.9890596549958,598.9890596549958,598.9890596549958,598.9890596549958,598.9890596549958,598.9890596549958,a,0.7241648429771885,10,905,2,599.7402444179752,601.2415611610049,,,,,,,,,,,,,,,,,,,,,,,,,,,,,,,,,,,,,,,,,,,,,,,,,,,,,,,,,,,,,,,,,,,,,18375,2022-12-01_14h04.43.957,vts_reward_expectancy_bt_OFFLINE,2022.2.4,59.88073865394295,
0,1,0,0,0,0,1,0,circle,hexagon,2,0,2,0,3,8,44,4,,,,,,,,,,,,,,,,,,,,,,,,,,,,,,,,,,,,,,,,601.7422497959924,601.7422497959924,601.7422497959924,601.7422497959924,601.7422497959924,601.7422497959924,601.7422497959924,601.7422497959924,601.7422497959924,601.7422497959924,l,0.8435248130117543,10,915,2,602.6097417550045,604.1114345949609,,,,,,,,,,,,,,,,,,,,,,,,,,,,,,,,,,,,,,,,,,,,,,,,,,,,,,,,,,,,,,,,,,,,,18375,2022-12-01_14h04.43.957,vts_reward_expectancy_bt_OFFLINE,2022.2.4,59.88073865394295,
0,0,0,1,0,0,1,0,star,hexagon,2,0,2,0,3,9,45,11,,,,,,,,,,,,,,,,,,,,,,,,,,,,,,,,,,,,,,,,604.6120490949834,604.6120490949834,604.6120490949834,604.6120490949834,604.6120490949834,604.6120490949834,604.6120490949834,604.6120490949834,604.6120490949834,604.6120490949834,l,1.061521266005002,10,925,2,605.6966939439881,607.1981895189965,,,,,,,,,,,,,,,,,,,,,,,,,,,,,,,,,,,,,,,,,,,,,,,,,,,,,,,,,,,,,,,,,,,,,18375,2022-12-01_14h04.43.957,vts_reward_expectancy_bt_OFFLINE,2022.2.4,59.88073865394295,
1,0,0,0,0,0,0,1,triangle,star,2,0,2,0,3,10,46,2,,,,,,,,,,,,,,,,,,,,,,,,,,,,,,,,,,,,,,,,607.6988160280162,607.6988160280162,607.6988160280162,607.6988160280162,607.6988160280162,607.6988160280162,607.6988160280162,607.6988160280162,607.6988160280162,607.6988160280162,a,2.7104365290142596,1,926,2,610.4352104619611,611.9365990359802,,,,,,,,,,,,,,,,,,,,,,,,,,,,,,,,,,,,,,,,,,,,,,,,,,,,,,,,,,,,,,,,,,,,,18375,2022-12-01_14h04.43.957,vts_reward_expectancy_bt_OFFLINE,2022.2.4,59.88073865394295,
1,0,0,0,0,1,0,0,triangle,circle,2,0,2,0,3,11,47,0,,,,,,,,,,,,,,,,,,,,,,,,,,,,,,,,,,,,,,,,612.4373166770092,612.4373166770092,612.4373166770092,612.4373166770092,612.4373166770092,612.4373166770092,612.4373166770092,612.4373166770092,612.4373166770092,612.4373166770092,l,4.852603389997967,1,927,2,617.3092824330088,618.8109477529651,,,,,,,,,,,,,,,,,,,,,,,,,,,,,,,,,,,,,,,,,,,,,,,,,,,,,,,,,,,,,,,,,,,,,18375,2022-12-01_14h04.43.957,vts_reward_expectancy_bt_OFFLINE,2022.2.4,59.88073865394295,
,,,,,,,,,,,,,,,,,,0,0,0,0,0,0,0,0,,,,,,,,,,,,,,,,,,,,,,,,,,,,,,,,,,,,,,,,,,,,,,,,658.104238127009,W,132,circle,0.0020171190262772143,652.710252874007,654.2164599369862,654.2164599369862,654.2164599369862,1,0,f,2.3538908089976758,0,656.602667218016,,,,,,,,,,,,,,,,,,,,,,,,,,,,,,,,,,,,,,,,,,,,,,,,,,,,,,,18375,2022-12-01_14h04.43.957,vts_reward_expectancy_bt_OFFLINE,2022.2.4,59.88073865394295,
,,,,,,,,,,,,,,,,,,0,0,0,0,1,0,1,0,,,,,,,,,,,,,,,,,,,,,,,,,,,,,,,,,,,,,,,,,,,,,,,,663.6437008219655,S,167,star,0.0017209200304932892,659.0823138930136,660.5902880880167,660.5902880880167,660.5902880880167,1,0,f,1.524020536977332,0,662.1420260829618,,,,,,,,,,,,,,,,,,,,,,,,,,,,,,,,,,,,,,,,,,,,,,,,,,,,,,,18375,2022-12-01_14h04.43.957,vts_reward_expectancy_bt_OFFLINE,2022.2.4,59.88073865394295,
,,,,,,,,,,,,,,,,,,0,0,0,0,2,0,2,0,,,,,,,,,,,,,,,,,,,,,,,,,,,,,,,,,,,,,,,,,,,,,,,,668.3489476469695,D,181,hexagon,0.0017131809727288783,664.6231615549768,666.1298214459675,666.1298214459675,666.1298214459675,1,0,d,0.6953505900455639,0,666.8470857520006,,,,,,,,,,,,,,,,,,,,,,,,,,,,,,,,,,,,,,,,,,,,,,,,,,,,,,,18375,2022-12-01_14h04.43.957,vts_reward_expectancy_bt_OFFLINE,2022.2.4,59.88073865394295,
,,,,,,,,,,,,,,,,,,0,0,0,0,3,0,3,0,,,,,,,,,,,,,,,,,,,,,,,,,,,,,,,,,,,,,,,,,,,,,,,,673.4377593990066,U,160,triangle,0.0017480880487710238,669.3270244339947,670.8350215589744,670.8350215589744,670.8350215589744,1,0,f,1.069530539039988,0,671.9361762040062,,,,,,,,,,,,,,,,,,,,,,,,,,,,,,,,,,,,,,,,,,,,,,,,,,,,,,,18375,2022-12-01_14h04.43.957,vts_reward_expectancy_bt_OFFLINE,2022.2.4,59.88073865394295,
,,,,,,,,,,,,,,,,,,0,0,0,0,4,0,4,0,,,,,,,,,,,,,,,,,,,,,,,,,,,,,,,,,,,,,,,,,,,,,,,,678.1596881609876,Y,139,triangle,0.0015458459965884686,674.4150707270019,675.9239751999849,675.9239751999849,675.9239751999849,1,0,f,0.7087350449874066,0,676.6581772149657,,,,,,,,,,,,,,,,,,,,,,,,,,,,,,,,,,,,,,,,,,,,,,,,,,,,,,,18375,2022-12-01_14h04.43.957,vts_reward_expectancy_bt_OFFLINE,2022.2.4,59.88073865394295,
,,,,,,,,,,,,,,,,,,0,0,0,0,5,0,5,0,,,,,,,,,,,,,,,,,,,,,,,,,,,,,,,,,,,,,,,,,,,,,,,,682.9316887859604,H,174,star,0.001490253023803234,679.1385259599774,680.6455933559919,680.6455933559919,680.6455933559919,1,0,d,0.7561717900680378,0,681.429833022994,,,,,,,,,,,,,,,,,,,,,,,,,,,,,,,,,,,,,,,,,,,,,,,,,,,,,,,18375,2022-12-01_14h04.43.957,vts_reward_expectancy_bt_OFFLINE,2022.2.4,59.88073865394295,
,,,,,,,,,,,,,,,,,,0,0,0,0,6,0,6,0,,,,,,,,,,,,,,,,,,,,,,,,,,,,,,,,,,,,,,,,,,,,,,,,688.5045821199892,B,125,circle,0.0015873709926381707,683.9105052700033,685.4176826769835,685.4176826769835,685.4176826769835,1,0,d,1.559177785005886,0,687.0028777109692,,,,,,,,,,,,,,,,,,,,,,,,,,,,,,,,,,,,,,,,,,,,,,,,,,,,,,,18375,2022-12-01_14h04.43.957,vts_reward_expectancy_bt_OFFLINE,2022.2.4,59.88073865394295,
,,,,,,,,,,,,,,,,,,0,0,0,0,7,0,7,0,,,,,,,,,,,,,,,,,,,,,,,,,,,,,,,,,,,,,,,,,,,,,,,,693.2432351019816,F,146,hexagon,0.0014103330322541296,689.482340453018,690.9905317209777,690.9905317209777,690.9905317209777,1,0,d,0.7312564780004323,0,691.7415513939923,,,,,,,,,,,,,,,,,,,,,,,,,,,,,,,,,,,,,,,,,,,,,,,,,,,,,,,18375,2022-12-01_14h04.43.957,vts_reward_expectancy_bt_OFFLINE,2022.2.4,59.88073865394295,
,,,,,,,,,,,,,,,,,,0,0,0,0,8,0,8,0,,,,,,,,,,,,,,,,,,,,,,,,,,,,,,,,,,,,,,,,,,,,,,,,697.8981320000021,W,132,circle,0.0012498069554567337,694.2198351169936,695.7292377370177,695.7292377370177,695.7292377370177,1,0,f,0.6392770010279492,0,696.3965005179634,,,,,,,,,,,,,,,,,,,,,,,,,,,,,,,,,,,,,,,,,,,,,,,,,,,,,,,18375,2022-12-01_14h04.43.957,vts_reward_expectancy_bt_OFFLINE,2022.2.4,59.88073865394295,
,,,,,,,,,,,,,,,,,,0,0,0,0,9,0,9,0,,,,,,,,,,,,,,,,,,,,,,,,,,,,,,,,,,,,,,,,,,,,,,,,703.187417795998,S,167,star,0.0017456500208936632,698.8745933509781,700.3842803909793,700.3842803909793,700.3842803909793,1,0,f,1.2812414420186542,0,701.6856967469794,,,,,,,,,,,,,,,,,,,,,,,,,,,,,,,,,,,,,,,,,,,,,,,,,,,,,,,18375,2022-12-01_14h04.43.957,vts_reward_expectancy_bt_OFFLINE,2022.2.4,59.88073865394295,
,,,,,,,,,,,,,,,,,,,,,,,,,,0,0,0,0,0,0,0,0,,,,,,,,,,,,,,,,,,,,,,,,,,,,,,,,,,,,,,,,730.4173786229803,F,174,hexagon,0.0014132640208117664,,,,,1,0,,,1,728.9158500639605,726.7243394959951,728.2317057040054,728.2317057040054,728.2317057040054,k,0.6570539960521273,,,,,,,,,,,,,,,,,,,,,,,,,,,,,,,,,,,,,,,,,,,,,,,,,18375,2022-12-01_14h04.43.957,vts_reward_expectancy_bt_OFFLINE,2022.2.4,59.88073865394295,
,,,,,,,,,,,,,,,,,,,,,,,,,,0,0,0,0,1,0,1,0,,,,,,,,,,,,,,,,,,,,,,,,,,,,,,,,,,,,,,,,735.0390241579735,W,181,circle,0.001429112977348268,,,,,1,0,,,1,733.5372994609643,731.3957301499904,732.9032788869808,732.9032788869808,732.9032788869808,k,0.6095405500382185,,,,,,,,,,,,,,,,,,,,,,,,,,,,,,,,,,,,,,,,,,,,,,,,,18375,2022-12-01_14h04.43.957,vts_reward_expectancy_bt_OFFLINE,2022.2.4,59.88073865394295,
,,,,,,,,,,,,,,,,,,,,,,,,,,0,0,0,0,2,0,2,0,,,,,,,,,,,,,,,,,,,,,,,,,,,,,,,,,,,,,,,,740.0946894160006,Y,167,star,0.0014334479928947985,,,,,1,0,,,1,738.5918253349955,736.0168923650053,737.5250867849682,737.5250867849682,737.5250867849682,k,1.0363954140339047,,,,,,,,,,,,,,,,,,,,,,,,,,,,,,,,,,,,,,,,,,,,,,,,,18375,2022-12-01_14h04.43.957,vts_reward_expectancy_bt_OFFLINE,2022.2.4,59.88073865394295,
,,,,,,,,,,,,,,,,,,,,,,,,,,0,0,0,0,3,0,3,0,,,,,,,,,,,,,,,,,,,,,,,,,,,,,,,,,,,,,,,,745.6175305509823,D,132,triangle,0.003056987014133483,,,,,1,0,,,1,744.1157574339886,741.071800847014,742.5808199589956,742.5808199589956,742.5808199589956,j,1.5079453639918938,,,,,,,,,,,,,,,,,,,,,,,,,,,,,,,,,,,,,,,,,,,,,,,,,18375,2022-12-01_14h04.43.957,vts_reward_expectancy_bt_OFFLINE,2022.2.4,59.88073865394295,
,,,,,,,,,,,,,,,,,,,,,,,,,,0,0,0,0,4,0,4,0,,,,,,,,,,,,,,,,,,,,,,,,,,,,,,,,,,,,,,,,750.9564673110144,S,146,star,0.0014991489588283002,,,,,1,0,,,1,749.454895962961,746.594570367015,748.1032747179852,748.1032747179852,748.1032747179852,j,1.3297212260076776,,,,,,,,,,,,,,,,,,,,,,,,,,,,,,,,,,,,,,,,,,,,,,,,,18375,2022-12-01_14h04.43.957,vts_reward_expectancy_bt_OFFLINE,2022.2.4,59.88073865394295,
,,,,,,,,,,,,,,,,,,,,,,,,,,0,0,0,0,5,0,5,0,,,,,,,,,,,,,,,,,,,,,,,,,,,,,,,,,,,,,,,,755.5617803870118,H,125,triangle,0.0017798569751903415,,,,,1,0,,,1,754.0601451529656,751.9341273889877,753.4427727169823,753.4427727169823,753.4427727169823,j,0.5899518760270439,,,,,,,,,,,,,,,,,,,,,,,,,,,,,,,,,,,,,,,,,,,,,,,,,18375,2022-12-01_14h04.43.957,vts_reward_expectancy_bt_OFFLINE,2022.2.4,59.88073865394295,
,,,,,,,,,,,,,,,,,,,,,,,,,,0,0,0,0,6,0,6,0,,,,,,,,,,,,,,,,,,,,,,,,,,,,,,,,,,,,,,,,761.8186579119647,U,160,circle,0.0012223480152897537,,,,,1,0,,,1,760.316921666963,756.5384779589949,758.0477245459915,758.0477245459915,758.0477245459915,k,2.249562683980912,,,,,,,,,,,,,,,,,,,,,,,,,,,,,,,,,,,,,,,,,,,,,,,,,18375,2022-12-01_14h04.43.957,vts_reward_expectancy_bt_OFFLINE,2022.2.4,59.88073865394295,
,,,,,,,,,,,,,,,,,,,,,,,,,,0,0,0,0,7,0,7,0,,,,,,,,,,,,,,,,,,,,,,,,,,,,,,,,,,,,,,,,766.6740228639683,B,139,hexagon,0.0016945370007306337,,,,,1,0,,,1,765.172234461992,762.7969750459888,764.3047961569973,764.3047961569973,764.3047961569973,j,0.8483171320403926,,,,,,,,,,,,,,,,,,,,,,,,,,,,,,,,,,,,,,,,,,,,,,,,,18375,2022-12-01_14h04.43.957,vts_reward_expectancy_bt_OFFLINE,2022.2.4,59.88073865394295,
,,,,,,,,,,,,,,,,,,,,,,,,,,0,0,0,0,8,0,8,0,,,,,,,,,,,,,,,,,,,,,,,,,,,,,,,,,,,,,,,,771.4293373199762,F,174,star,0.0010310509824194014,,,,,1,0,,,1,769.9276584549807,767.6517035299912,769.1601455949713,769.1601455949713,769.1601455949713,k,0.7378622080432251,,,,,,,,,,,,,,,,,,,,,,,,,,,,,,,,,,,,,,,,,,,,,,,,,18375,2022-12-01_14h04.43.957,vts_reward_expectancy_bt_OFFLINE,2022.2.4,59.88073865394295,
,,,,,,,,,,,,,,,,,,,,,,,,,,0,0,0,0,9,0,9,0,,,,,,,,,,,,,,,,,,,,,,,,,,,,,,,,,,,,,,,,776.2181135129649,W,181,circle,0.0017371929716318846,,,,,1,0,,,1,774.7162571179797,772.4063891510013,773.9152481600177,773.9152481600177,773.9152481600177,k,0.7817586840246804,,,,,,,,,,,,,,,,,,,,,,,,,,,,,,,,,,,,,,,,,,,,,,,,,18375,2022-12-01_14h04.43.957,vts_reward_expectancy_bt_OFFLINE,2022.2.4,59.88073865394295,
,,,,,,,,,,,,,,,,,,,,,,,,,,,,,,,,,,0,0,0,0,0,0,0,0,,,,,,,,,,,,,,,,,,,,,,,,,,,,0,927,,,812.6747706599999,S,167,circle,0.0025435429997742176,,,,,-1,0,,,2,,,,,,,,806.6644088790054,806.6644088790054,806.6644088790054,806.6644088790054,808.1696315009613,808.1696315009613,808.1696315009613,808.1696315009613,808.1696315009613,808.1696315009613,808.1696315009613,808.1696315009613,811.1731663719984,811.1731663719984,811.1731663719984,811.1731663719984,-1,no_choice,NA,None,vtsPrac,811.1731663719984,812.6747706599999,813.1752855899977,,,,,,,,,,,,,,,,,,,,,,,,,18375,2022-12-01_14h04.43.957,vts_reward_expectancy_bt_OFFLINE,2022.2.4,59.88073865394295,
,,,,,,,,,,,,,,,,,,,,,,,,,,,,,,,,,,0,0,0,0,1,0,1,0,,,,,,,,,,,,,,,,,,,,,,,,,,,,0,927,,,818.0640144969802,U,174,hexagon,0.00937991199316457,,,,,1,0,,,2,,,,,,,,813.6710643100087,813.6710643100087,813.6710643100087,813.6710643100087,815.1774447179632,815.1774447179632,815.1774447179632,815.1774447179632,815.1774447179632,815.1774447179632,815.1774447179632,815.1774447179632,,,,,switch,letter,lettSwt,f,vtsPrac,816.5626404989744,,,1.3524571430170909,,,,,,,,,,,,,,,,,,,,,,,,18375,2022-12-01_14h04.43.957,vts_reward_expectancy_bt_OFFLINE,2022.2.4,59.88073865394295,
,,,,,,,,,,,,,,,,,,,,,,,,,,,,,,,,,,0,0,0,0,2,0,2,0,,,,,,,,,,,,,,,,,,,,,,,,,,,,0,927,,,823.8537333040149,H,160,circle,0.0016487440443597734,,,,,1,0,,,2,,,,,,,,819.0433428729884,819.0433428729884,819.0433428729884,819.0433428729884,820.5501894059707,820.5501894059707,820.5501894059707,820.5501894059707,820.5501894059707,820.5501894059707,820.5501894059707,820.5501894059707,,,,,switch,number,numSwt,k,vtsPrac,822.3524059049669,,,1.770758539030794,,,,,,,,,,,,,,,,,,,,,,,,18375,2022-12-01_14h04.43.957,vts_reward_expectancy_bt_OFFLINE,2022.2.4,59.88073865394295,
,,,,,,,,,,,,,,,,,,,,,,,,,,,,,,,,,,0,0,0,0,3,0,3,0,,,,,,,,,,,,,,,,,,,,,,,,,,,,0,927,,,829.5433077589842,Y,132,triangle,0.0015863899607211351,,,,,1,0,,,2,,,,,,,,824.8331100880168,824.8331100880168,824.8331100880168,824.8331100880168,826.3399846499669,826.3399846499669,826.3399846499669,826.3399846499669,826.3399846499669,826.3399846499669,826.3399846499669,826.3399846499669,,,,,repeat,number,numRpt,j,vtsPrac,828.0416330680018,,,1.6693687930237502,,,,,,,,,,,,,,,,,,,,,,,,18375,2022-12-01_14h04.43.957,vts_reward_expectancy_bt_OFFLINE,2022.2.4,59.88073865394295,
,,,,,,,,,,,,,,,,,,,,,,,,,,,,,,,,,,0,0,0,0,4,0,4,0,,,,,,,,,,,,,,,,,,,,,,,,,,,,0,927,,,835.616707462992,S,167,hexagon,0.001741293992381543,,,,,1,0,,,2,,,,,,,,830.5205954010016,830.5205954010016,830.5205954010016,830.5205954010016,832.0295062569785,832.0295062569785,832.0295062569785,832.0295062569785,832.0295062569785,832.0295062569785,832.0295062569785,832.0295062569785,,,,,switch,letter,lettSwt,f,vtsPrac,834.1150853859726,,,2.059502913034521,,,,,,,,,,,,,,,,,,,,,,,,18375,2022-12-01_14h04.43.957,vts_reward_expectancy_bt_OFFLINE,2022.2.4,59.88073865394295,
,,,,,,,,,,,,,,,,,,,,,,,,,,,,,,,,,,0,0,0,0,5,0,5,0,,,,,,,,,,,,,,,,,,,,,,,,,,,,0,927,,,841.2730013260152,U,174,triangle,0.0013454530271701515,,,,,1,0,,,2,,,,,,,,836.5938136939658,836.5938136939658,836.5938136939658,836.5938136939658,838.1027550430153,838.1027550430153,838.1027550430153,838.1027550430153,838.1027550430153,838.1027550430153,838.1027550430153,838.1027550430153,,,,,repeat,letter,lettRpt,f,vtsPrac,839.7713537249947,,,1.6518512650509365,,,,,,,,,,,,,,,,,,,,,,,,18375,2022-12-01_14h04.43.957,vts_reward_expectancy_bt_OFFLINE,2022.2.4,59.88073865394295,
,,,,,,,,,,,,,,,,,,,,,,,,,,,,,,,,,,0,0,0,0,6,0,6,0,,,,,,,,,,,,,,,,,,,,,,,,,,,,0,927,,,846.76230540697,H,160,triangle,0.00117550598224625,,,,,1,0,,,2,,,,,,,,842.2499273829744,842.2499273829744,842.2499273829744,842.2499273829744,843.7590201019775,843.7590201019775,843.7590201019775,843.7590201019775,843.7590201019775,843.7590201019775,843.7590201019775,843.7590201019775,,,,,repeat,letter,lettRpt,d,vtsPrac,845.261458227993,,,1.4741938920342363,,,,,,,,,,,,,,,,,,,,,,,,18375,2022-12-01_14h04.43.957,vts_reward_expectancy_bt_OFFLINE,2022.2.4,59.88073865394295,
,,,,,,,,,,,,,,,,,,,,,,,,,,,,,,,,,,0,0,0,0,7,0,7,0,,,,,,,,,,,,,,,,,,,,,,,,,,,,0,927,,,851.8513232760015,Y,132,star,0.0016495779855176806,,,,,1,0,,,2,,,,,,,,847.7394719559816,847.7394719559816,847.7394719559816,847.7394719559816,849.2483696119743,849.2483696119743,849.2483696119743,849.2483696119743,849.2483696119743,849.2483696119743,849.2483696119743,849.2483696119743,,,,,repeat,letter,lettRpt,f,vtsPrac,850.3496773199877,,,1.0734492340125144,,,,,,,,,,,,,,,,,,,,,,,,18375,2022-12-01_14h04.43.957,vts_reward_expectancy_bt_OFFLINE,2022.2.4,59.88073865394295,
,,,,,,,,,,,,,,,,,,,,,,,,,,,,,,,,,,0,0,0,0,8,0,8,0,,,,,,,,,,,,,,,,,,,,,,,,,,,,0,927,,,857.4411734709865,H,125,star,0.0016119719948619604,,,,,1,0,,,2,,,,,,,,852.8285486269742,852.8285486269742,852.8285486269742,852.8285486269742,854.337522057991,854.337522057991,854.337522057991,854.337522057991,854.337522057991,854.337522057991,854.337522057991,854.337522057991,,,,,switch,number,numSwt,j,vtsPrac,855.9392098259996,,,1.57531026302604,,,,,,,,,,,,,,,,,,,,,,,,18375,2022-12-01_14h04.43.957,vts_reward_expectancy_bt_OFFLINE,2022.2.4,59.88073865394295,
,,,,,,,,,,,,,,,,,,,,,,,,,,,,,,,,,,0,0,0,0,9,0,9,0,,,,,,,,,,,,,,,,,,,,,,,,,,,,0,927,,,862.4965203559841,S,160,triangle,0.0016561210504733026,,,,,1,0,,,2,,,,,,,,858.4176596759935,858.4176596759935,858.4176596759935,858.4176596759935,859.925704734982,859.925704734982,859.925704734982,859.925704734982,859.925704734982,859.925704734982,859.925704734982,859.925704734982,,,,,repeat,number,numRpt,k,vtsPrac,860.9947535429965,,,1.0364554050029255,,,,,,,,,,,,,,,,,,,,,,,,18375,2022-12-01_14h04.43.957,vts_reward_expectancy_bt_OFFLINE,2022.2.4,59.88073865394295,
,,,,,,,,,,,,,,,,,,,,,,,,,,,,,,,,,,0,0,0,0,10,0,10,0,,,,,,,,,,,,,,,,,,,,,,,,,,,,0,927,,,867.4016842899728,B,139,circle,0.0017810449935495853,,,,,1,0,,,2,,,,,,,,863.4756240769639,863.4756240769639,863.4756240769639,863.4756240769639,864.982585582009,864.982585582009,864.982585582009,864.982585582009,864.982585582009,864.982585582009,864.982585582009,864.982585582009,,,,,repeat,number,numRpt,j,vtsPrac,865.9002048840048,867.4016842899728,,0.8988744260277599,,,,,,,,,,,,,,,,,,,,,,,,18375,2022-12-01_14h04.43.957,vts_reward_expectancy_bt_OFFLINE,2022.2.4,59.88073865394295,
,,,,,,,,,,,,,,,,,,,,,,,,,,,,,,,,,,0,0,0,0,11,0,11,0,,,,,,,,,,,,,,,,,,,,,,,,,,,,0,927,,,872.3907142219832,W,174,star,0.0004787889774888754,,,,,1,0,,,2,,,,,,,,868.380126583972,868.380126583972,868.380126583972,868.380126583972,869.8878981589805,869.8878981589805,869.8878981589805,869.8878981589805,869.8878981589805,869.8878981589805,869.8878981589805,869.8878981589805,,,,,repeat,number,numRpt,k,vtsPrac,870.88921961101,,,0.9767243270180188,,,,,,,,,,,,,,,,,,,,,,,,18375,2022-12-01_14h04.43.957,vts_reward_expectancy_bt_OFFLINE,2022.2.4,59.88073865394295,
,,,,,,,,,,,,,,,,,,,,,,,,,,,,,,,,,,0,0,0,0,12,0,12,0,,,,,,,,,,,,,,,,,,,,,,,,,,,,0,927,,,877.8131939430023,Y,160,hexagon,0.001713621022645384,,,,,1,0,,,2,,,,,,,,873.3684860789799,873.3684860789799,873.3684860789799,873.3684860789799,874.876658838999,874.876658838999,874.876658838999,874.876658838999,874.876658838999,874.876658838999,874.876658838999,874.876658838999,,,,,repeat,number,numRpt,k,vtsPrac,876.3115847459994,,,1.4129006330040284,,,,,,,,,,,,,,,,,,,,,,,,18375,2022-12-01_14h04.43.957,vts_reward_expectancy_bt_OFFLINE,2022.2.4,59.88073865394295,
,,,,,,,,,,,,,,,,,,,,,,,,,,,,,,,,,,0,0,0,0,13,0,13,0,,,,,,,,,,,,,,,,,,,,,,,,,,,,0,927,,,884.0533991089906,S,146,triangle,0.001539085991680622,,,,,1,0,,,2,,,,,,,,878.7905528349802,878.7905528349802,878.7905528349802,878.7905528349802,880.2994365629856,880.2994365629856,880.2994365629856,880.2994365629856,880.2994365629856,880.2994365629856,880.2994365629856,880.2994365629856,,,,,repeat,number,numRpt,j,vtsPrac,882.5518269789754,,,2.230145364010241,,,,,,,,,,,,,,,,,,,,,,,,18375,2022-12-01_14h04.43.957,vts_reward_expectancy_bt_OFFLINE,2022.2.4,59.88073865394295,
,,,,,,,,,,,,,,,,,,,,,,,,,,,,,,,,,,0,0,0,0,14,0,14,0,,,,,,,,,,,,,,,,,,,,,,,,,,,,0,927,,,888.9421942100162,U,181,triangle,0.001479863014537841,,,,,1,0,,,2,,,,,,,,885.0311375869787,885.0311375869787,885.0311375869787,885.0311375869787,886.5395300919772,886.5395300919772,886.5395300919772,886.5395300919772,886.5395300919772,886.5395300919772,886.5395300919772,886.5395300919772,,,,,switch,letter,lettSwt,f,vtsPrac,887.4408551949891,,,0.8689240940148011,,,,,,,,,,,,,,,,,,,,,,,,18375,2022-12-01_14h04.43.957,vts_reward_expectancy_bt_OFFLINE,2022.2.4,59.88073865394295,
,,,,,,,,,,,,,,,,,,,,,,,,,,,,,,,,,,0,0,0,0,15,0,15,0,,,,,,,,,,,,,,,,,,,,,,,,,,,,0,927,,,893.630733686965,W,167,star,0.0014585289754904807,,,,,1,0,,,2,,,,,,,,889.9211736110155,889.9211736110155,889.9211736110155,889.9211736110155,891.4283007389749,891.4283007389749,891.4283007389749,891.4283007389749,891.4283007389749,891.4283007389749,891.4283007389749,891.4283007389749,,,,,repeat,letter,lettRpt,f,vtsPrac,892.1290470699896,,,0.676439750008285,,,,,,,,,,,,,,,,,,,,,,,,18375,2022-12-01_14h04.43.957,vts_reward_expectancy_bt_OFFLINE,2022.2.4,59.88073865394295,
,,,,,,,,,,,,,,,,,,,,,,,,,,,,,,,,,,0,0,0,0,16,0,16,0,,,,,,,,,,,,,,,,,,,,,,,,,,,,0,927,,,898.436025455012,H,132,star,0.0015441889991052449,,,,,1,0,,,2,,,,,,,,894.6083215929684,894.6083215929684,894.6083215929684,894.6083215929684,896.1167784999707,896.1167784999707,896.1167784999707,896.1167784999707,896.1167784999707,896.1167784999707,896.1167784999707,896.1167784999707,,,,,repeat,letter,lettRpt,d,vtsPrac,896.9342540039797,,,0.7889740170212463,,,,,,,,,,,,,,,,,,,,,,,,18375,2022-12-01_14h04.43.957,vts_reward_expectancy_bt_OFFLINE,2022.2.4,59.88073865394295,
,,,,,,,,,,,,,,,,,,,,,,,,,,,,,,,,,,0,0,0,0,17,0,17,0,,,,,,,,,,,,,,,,,,,,,,,,,,,,0,927,,,903.3080457979813,D,146,hexagon,0.0017283320194110274,,,,,1,0,,,2,,,,,,,,899.4147330260021,899.4147330260021,899.4147330260021,899.4147330260021,900.9219836469856,900.9219836469856,900.9219836469856,900.9219836469856,900.9219836469856,900.9219836469856,900.9219836469856,900.9219836469856,,,,,repeat,letter,lettRpt,d,vtsPrac,901.8064764859737,903.3080457979813,903.8086071970174,0.8561256310204044,,,,,,,,,,,,,,,,,,,,,,,,18375,2022-12-01_14h04.43.957,vts_reward_expectancy_bt_OFFLINE,2022.2.4,59.88073865394295,
,,,,,,,,,,,,,,,,,,,,,,,,,,,,,,,,,,0,0,0,0,18,0,18,0,,,,,,,,,,,,,,,,,,,,,,,,,,,,0,927,,,908.0800879339804,F,139,circle,0.000431415974162519,,,,,1,0,,,2,,,,,,,,904.2868434989941,904.2868434989941,904.2868434989941,904.2868434989941,905.7941806699964,905.7941806699964,905.7941806699964,905.7941806699964,905.7941806699964,905.7941806699964,905.7941806699964,905.7941806699964,,,,,repeat,letter,lettRpt,d,vtsPrac,906.5783569950145,,,0.759125960059464,,,,,,,,,,,,,,,,,,,,,,,,18375,2022-12-01_14h04.43.957,vts_reward_expectancy_bt_OFFLINE,2022.2.4,59.88073865394295,
,,,,,,,,,,,,,,,,,,,,,,,,,,,,,,,,,,0,0,0,0,19,0,19,0,,,,,,,,,,,,,,,,,,,,,,,,,,,,0,927,,,912.8685153209954,U,181,star,0.0016055279993452132,,,,,1,0,,,2,,,,,,,,909.0574512460153,909.0574512460153,909.0574512460153,909.0574512460153,910.5661535349791,910.5661535349791,910.5661535349791,910.5661535349791,910.5661535349791,910.5661535349791,910.5661535349791,910.5661535349791,,,,,repeat,letter,lettRpt,f,vtsPrac,911.3670829290058,,,0.7792118070065044,,,,,,,,,,,,,,,,,,,,,,,,18375,2022-12-01_14h04.43.957,vts_reward_expectancy_bt_OFFLINE,2022.2.4,59.88073865394295,
,,,,,,,,,,,,,,,,,,,,,,,,,,,,,,,,,,0,0,0,0,20,0,20,0,,,,,,,,,,,,,,,,,,,,,,,,,,,,0,927,,,917.6405985410092,S,181,star,0.0014899540110491216,,,,,1,0,,,2,,,,,,,,913.8458684699726,913.8458684699726,913.8458684699726,913.8458684699726,915.3547227769741,915.3547227769741,915.3547227769741,915.3547227769741,915.3547227769741,915.3547227769741,915.3547227769741,915.3547227769741,,,,,repeat,letter,lettRpt,f,vtsPrac,916.138864655979,,,0.7586986420210451,,,,,,,,,,,,,,,,,,,,,,,,18375,2022-12-01_14h04.43.957,vts_reward_expectancy_bt_OFFLINE,2022.2.4,59.88073865394295,
,,,,,,,,,,,,,,,,,,,,,,,,,,,,,,,,,,0,0,0,0,21,0,21,0,,,,,,,,,,,,,,,,,,,,,,,,,,,,0,927,,,922.5792218460119,D,146,triangle,0.0015943850157782435,,,,,1,0,,,2,,,,,,,,918.61844474799,918.61844474799,918.61844474799,918.61844474799,920.1266664029681,920.1266664029681,920.1266664029681,920.1266664029681,920.1266664029681,920.1266664029681,920.1266664029681,920.1266664029681,,,,,switch,number,numSwt,j,vtsPrac,921.077677696012,,,0.9299715590314008,,,,,,,,,,,,,,,,,,,,,,,,18375,2022-12-01_14h04.43.957,vts_reward_expectancy_bt_OFFLINE,2022.2.4,59.88073865394295,
,,,,,,,,,,,,,,,,,,,,,,,,,,,,,,,,,,0,0,0,0,22,0,22,0,,,,,,,,,,,,,,,,,,,,,,,,,,,,0,927,,,927.2009647630039,B,174,star,0.0018285089754499495,,,,,1,0,,,2,,,,,,,,923.5565722410101,923.5565722410101,923.5565722410101,923.5565722410101,925.0653610620066,925.0653610620066,925.0653610620066,925.0653610620066,925.0653610620066,925.0653610620066,925.0653610620066,925.0653610620066,,,,,switch,letter,lettSwt,d,vtsPrac,925.6994027880137,,,0.6076267000171356,,,,,,,,,,,,,,,,,,,,,,,,18375,2022-12-01_14h04.43.957,vts_reward_expectancy_bt_OFFLINE,2022.2.4,59.88073865394295,
,,,,,,,,,,,,,,,,,,,,,,,,,,,,,,,,,,0,0,0,0,23,0,23,0,,,,,,,,,,,,,,,,,,,,,,,,,,,,0,927,,,932.0734237919678,U,160,triangle,0.0015447549521923065,,,,,1,0,,,2,,,,,,,,928.1778333309921,928.1778333309921,928.1778333309921,928.1778333309921,929.6871483770083,929.6871483770083,929.6871483770083,929.6871483770083,929.6871483770083,929.6871483770083,929.6871483770083,929.6871483770083,,,,,repeat,letter,lettRpt,f,vtsPrac,930.5715195669909,,,0.8676733660395257,,,,,,,,,,,,,,,,,,,,,,,,18375,2022-12-01_14h04.43.957,vts_reward_expectancy_bt_OFFLINE,2022.2.4,59.88073865394295,
,,,,,,,,,,,,,,,,,,,,,,,,,,,,,,,,,,0,0,0,0,24,0,24,0,,,,,,,,,,,,,,,,,,,,,,,,,,,,0,927,,,937.1786233969615,S,160,star,0.001309549028519541,,,,,1,0,,,2,,,,,,,,933.051132617984,933.051132617984,933.051132617984,933.051132617984,934.5592666339944,934.5592666339944,934.5592666339944,934.5592666339944,934.5592666339944,934.5592666339944,934.5592666339944,934.5592666339944,,,,,switch,number,numSwt,k,vtsPrac,935.677068858,,,1.0984217750374228,,,,,,,,,,,,,,,,,,,,,,,,18375,2022-12-01_14h04.43.957,vts_reward_expectancy_bt_OFFLINE,2022.2.4,59.88073865394295,
,,,,,,,,,,,,,,,,,,,,,,,,,,,,,,,,,,0,0,0,0,25,0,25,0,,,,,,,,,,,,,,,,,,,,,,,,,,,,0,927,,,943.0019169659936,U,174,hexagon,0.0012342439731583,,,,,1,0,,,2,,,,,,,,938.1553755119676,938.1553755119676,938.1553755119676,938.1553755119676,939.6648954079719,939.6648954079719,939.6648954079719,939.6648954079719,939.6648954079719,939.6648954079719,939.6648954079719,939.6648954079719,,,,,repeat,number,numRpt,k,vtsPrac,941.5002614519908,,,1.8162711590412073,,,,,,,,,,,,,,,,,,,,,,,,18375,2022-12-01_14h04.43.957,vts_reward_expectancy_bt_OFFLINE,2022.2.4,59.88073865394295,
,,,,,,,,,,,,,,,,,,,,,,,,,,,,,,,,,,0,0,0,0,26,0,26,0,,,,,,,,,,,,,,,,,,,,,,,,,,,,0,927,,,948.0573648489662,Y,181,hexagon,0.0010412110132165253,,,,,1,0,,,2,,,,,,,,943.9796150879702,943.9796150879702,943.9796150879702,943.9796150879702,945.4879297110019,945.4879297110019,945.4879297110019,945.4879297110019,945.4879297110019,945.4879297110019,945.4879297110019,945.4879297110019,,,,,switch,letter,lettSwt,f,vtsPrac,946.5558033210109,,,1.0507825210224837,,,,,,,,,,,,,,,,,,,,,,,,18375,2022-12-01_14h04.43.957,vts_reward_expectancy_bt_OFFLINE,2022.2.4,59.88073865394295,
,,,,,,,,,,,,,,,,,,,,,,,,,,,,,,,,,,0,0,0,0,27,0,27,0,,,,,,,,,,,,,,,,,,,,,,,,,,,,0,927,,,952.6292502100114,B,139,circle,0.0011493019992485642,,,,,1,0,,,2,,,,,,,,949.0353145609843,949.0353145609843,949.0353145609843,949.0353145609843,950.5434196419665,950.5434196419665,950.5434196419665,950.5434196419665,950.5434196419665,950.5434196419665,950.5434196419665,950.5434196419665,,,,,repeat,letter,lettRpt,d,vtsPrac,951.1275604249677,,,0.5623086109990254,,,,,,,,,,,,,,,,,,,,,,,,18375,2022-12-01_14h04.43.957,vts_reward_expectancy_bt_OFFLINE,2022.2.4,59.88073865394295,
,,,,,,,,,,,,,,,,,,,,,,,,,,,,,,,,,,0,0,0,0,28,0,28,0,,,,,,,,,,,,,,,,,,,,,,,,,,,,0,927,,,957.4845046499977,H,139,star,0.0016683380235917866,,,,,1,0,,,2,,,,,,,,953.6070596110076,953.6070596110076,953.6070596110076,953.6070596110076,955.1150697579724,955.1150697579724,955.1150697579724,955.1150697579724,955.1150697579724,955.1150697579724,955.1150697579724,955.1150697579724,,,,,repeat,letter,lettRpt,d,vtsPrac,955.9827526609879,,,0.8468381770071574,,,,,,,,,,,,,,,,,,,,,,,,18375,2022-12-01_14h04.43.957,vts_reward_expectancy_bt_OFFLINE,2022.2.4,59.88073865394295,
,,,,,,,,,,,,,,,,,,,,,,,,,,,,,,,,,,0,0,0,0,29,0,29,0,,,,,,,,,,,,,,,,,,,,,,,,,,,,0,927,,,962.1729707159684,D,181,triangle,0.0017684089834801853,,,,,1,0,,,2,,,,,,,,958.4622994309757,958.4622994309757,958.4622994309757,958.4622994309757,959.9706661489909,959.9706661489909,959.9706661489909,959.9706661489909,959.9706661489909,959.9706661489909,959.9706661489909,959.9706661489909,,,,,repeat,letter,lettRpt,d,vtsPrac,960.6712436709786,,,0.6709629040560685,,,,,,,,,,,,,,,,,,,,,,,,18375,2022-12-01_14h04.43.957,vts_reward_expectancy_bt_OFFLINE,2022.2.4,59.88073865394295,
,,,,,,,,,,,,,,,,,,,,,,,,,,,,,,,,,,0,0,0,0,30,0,30,0,,,,,,,,,,,,,,,,,,,,,,,,,,,,0,927,,,967.4621434970177,U,174,circle,0.0016638939850963652,,,,,1,0,,,2,,,,,,,,963.1509769510012,963.1509769510012,963.1509769510012,963.1509769510012,964.6590860050055,964.6590860050055,964.6590860050055,964.6590860050055,964.6590860050055,964.6590860050055,964.6590860050055,964.6590860050055,,,,,switch,number,numSwt,k,vtsPrac,965.9603779939935,,,1.2776234970078804,,,,,,,,,,,,,,,,,,,,,,,,18375,2022-12-01_14h04.43.957,vts_reward_expectancy_bt_OFFLINE,2022.2.4,59.88073865394295,
