LTriangleOpac,LCircleOpac,LHexagonOpac,LStarOpac,RTriangleOpac,RCircleOpac,RHexagonOpac,RStarOpac,LShape_ID,RShape_ID,training_blocks.thisRepN,training_blocks.thisTrialN,training_blocks.thisN,training_blocks.thisIndex,training.thisRepN,training.thisTrialN,training.thisN,training.thisIndex,task1_prac_redo.thisRepN,task1_prac_redo.thisTrialN,task1_prac_redo.thisN,task1_prac_redo.thisIndex,task1_prac_trials.thisRepN,task1_prac_trials.thisTrialN,task1_prac_trials.thisN,task1_prac_trials.thisIndex,task2_prac_redo.thisRepN,task2_prac_redo.thisTrialN,task2_prac_redo.thisN,task2_prac_redo.thisIndex,task2_praac_trials.thisRepN,task2_praac_trials.thisTrialN,task2_praac_trials.thisN,task2_praac_trials.thisIndex,vts_prac_redo.thisRepN,vts_prac_redo.thisTrialN,vts_prac_redo.thisN,vts_prac_redo.thisIndex,vts_practice_trials.thisRepN,vts_practice_trials.thisTrialN,vts_practice_trials.thisN,vts_practice_trials.thisIndex,trials_norew.thisRepN,trials_norew.thisTrialN,trials_norew.thisN,trials_norew.thisIndex,block.thisRepN,block.thisTrialN,block.thisN,block.thisIndex,trials_rew.thisRepN,trials_rew.thisTrialN,trials_rew.thisN,trials_rew.thisIndex,key_resp.started,key_resp.keys,key_resp.rt,left_circle.started,right_circle.started,left_triangle.started,right_triangle.started,left_star.started,right_star.started,left_hexagon.started,right_hexagon.started,training_fix.started,training_resp.started,training_resp.keys,training_resp.rt,points_trial,points_cumul,trainBlock,training_feedback_txt.started,training_feedback_txt.stopped,fix.started,fix.stopped,curr_topStim,curr_bottStim,curr_shape,ISI.started,tgt_fix_prac1.started,top_target_prac1.started,bott_target_prac1.started,target_resp_prac1.started,top_target_prac1.stopped,bott_target_prac1.stopped,target_resp_prac1.stopped,acc,E1,target_resp_prac1.keys,pracBlock,prac_fback_text.started,target_resp_prac1.rt,prac_fback_text.stopped,tgt_fix_prac2.started,top_target_prac2.started,bott_target_prac2.started,target_resp_prac2.started,target_resp_prac2.keys,target_resp_prac2.rt,star.started,hegagon.started,triangle.started,circle.started,top_target.started,tgt_fix.started,bot_target.started,target_resp.started,star.stopped,hegagon.stopped,triangle.stopped,circle.stopped,alt,task,condition,target_resp.keys,target_resp.rt,rewCond,vts_fback.started,vts_fback.stopped,blockNum,norew_fback.started,norew_fback.stopped,key_resp_2.keys,key_resp_2.rt,rewExpectancy,feedbk_text.started,feedbk_text.stopped,text_3.started,text_3.stopped,button.started,debrief.index,debrief.itemText,debrief.type,debrief.granularity,debrief.font,debrief.markerColor,debrief.response,debrief.rt,button.numClicks,button.timesOn,button.timesOff,participant,date,expName,psychopyVersion,frameRate,
,,,,,,,,,,,,,,,,,,,,,,,,,,,,,,,,,,,,,,,,,,,,,,,,,,,,,,13.165032807039097,space,28.128389606950805,,,,,,,,,,,,,,,,,,,,,,,,,,,,,,,,,,,,,,,,,,,,,,,,,,,,,,,,,,,,,,,,,,,,,,,,,,,,,,,,,,,,,,21144,2022-11-01_14h00.02.123,vts_reward_expectancy_bt_OFFLINE,2022.2.4,59.88166592810423,
0,0,0,1,0,1,0,0,star ,circle,0,0,0,0,0,0,0,10,,,,,,,,,,,,,,,,,,,,,,,,,,,,,,,,,,,,,,,,78.37455469102133,78.37455469102133,78.37455469102133,78.37455469102133,78.37455469102133,78.37455469102133,78.37455469102133,78.37455469102133,78.37455469102133,78.37455469102133,a,1.7180925540160388,0,0,0,80.11486686801072,81.61474591400474,81.61474591400474,82.11500053002965,,,,,,,,,,,,,,,,,,,,,,,,,,,,,,,,,,,,,,,,,,,,,,,,,,,,,,,,,,,,,,,,,,,21144,2022-11-01_14h00.02.123,vts_reward_expectancy_bt_OFFLINE,2022.2.4,59.88166592810423,
0,1,0,0,1,0,0,0,circle,triangle,0,0,0,0,0,1,1,3,,,,,,,,,,,,,,,,,,,,,,,,,,,,,,,,,,,,,,,,82.11500053002965,82.11500053002965,82.11500053002965,82.11500053002965,82.11500053002965,82.11500053002965,82.11500053002965,82.11500053002965,82.11500053002965,82.11500053002965,a,1.8574959499528632,1,1,0,84.00128018006217,85.50128731306177,85.50128731306177,86.00140899501275,,,,,,,,,,,,,,,,,,,,,,,,,,,,,,,,,,,,,,,,,,,,,,,,,,,,,,,,,,,,,,,,,,,21144,2022-11-01_14h00.02.123,vts_reward_expectancy_bt_OFFLINE,2022.2.4,59.88166592810423,
0,0,0,1,1,0,0,0,star,triangle,0,0,0,0,0,2,2,9,,,,,,,,,,,,,,,,,,,,,,,,,,,,,,,,,,,,,,,,86.00140899501275,86.00140899501275,86.00140899501275,86.00140899501275,86.00140899501275,86.00140899501275,86.00140899501275,86.00140899501275,86.00140899501275,86.00140899501275,l,1.2522581288358197,10,11,0,87.2852676929906,,88.78773161198478,,,,,,,,,,,,,,,,,,,,,,,,,,,,,,,,,,,,,,,,,,,,,,,,,,,,,,,,,,,,,,,,,,,,21144,2022-11-01_14h00.02.123,vts_reward_expectancy_bt_OFFLINE,2022.2.4,59.88166592810423,
0,0,1,0,0,1,0,0,hexagon,circle,0,0,0,0,0,3,3,7,,,,,,,,,,,,,,,,,,,,,,,,,,,,,,,,,,,,,,,,89.28764985897578,89.28764985897578,89.28764985897578,89.28764985897578,89.28764985897578,89.28764985897578,89.28764985897578,89.28764985897578,89.28764985897578,89.28764985897578,a,3.7969239689409733,10,21,0,93.10777929099277,94.60839968896471,94.60839968896471,,,,,,,,,,,,,,,,,,,,,,,,,,,,,,,,,,,,,,,,,,,,,,,,,,,,,,,,,,,,,,,,,,,,21144,2022-11-01_14h00.02.123,vts_reward_expectancy_bt_OFFLINE,2022.2.4,59.88166592810423,
0,0,1,0,1,0,0,0,hexagon,triangle,0,0,0,0,0,4,4,6,,,,,,,,,,,,,,,,,,,,,,,,,,,,,,,,,,,,,,,,95.10851782897953,95.10851782897953,95.10851782897953,95.10851782897953,95.10851782897953,95.10851782897953,95.10851782897953,95.10851782897953,95.10851782897953,95.10851782897953,l,0.6801447289763018,1,22,0,95.80877685802989,97.3091936269775,97.3091936269775,,,,,,,,,,,,,,,,,,,,,,,,,,,,,,,,,,,,,,,,,,,,,,,,,,,,,,,,,,,,,,,,,,,,21144,2022-11-01_14h00.02.123,vts_reward_expectancy_bt_OFFLINE,2022.2.4,59.88166592810423,
0,1,0,0,0,0,0,1,circle,star,0,0,0,0,0,5,5,5,,,,,,,,,,,,,,,,,,,,,,,,,,,,,,,,,,,,,,,,97.81202631106135,97.81202631106135,97.81202631106135,97.81202631106135,97.81202631106135,97.81202631106135,97.81202631106135,97.81202631106135,97.81202631106135,97.81202631106135,l,1.3937011008383706,10,32,0,99.22864909900818,100.72888677404262,100.72888677404262,101.22911221103277,,,,,,,,,,,,,,,,,,,,,,,,,,,,,,,,,,,,,,,,,,,,,,,,,,,,,,,,,,,,,,,,,,,21144,2022-11-01_14h00.02.123,vts_reward_expectancy_bt_OFFLINE,2022.2.4,59.88166592810423,
0,1,0,0,0,0,1,0,circle,hexagon,0,0,0,0,0,6,6,4,,,,,,,,,,,,,,,,,,,,,,,,,,,,,,,,,,,,,,,,101.22911221103277,101.22911221103277,101.22911221103277,101.22911221103277,101.22911221103277,101.22911221103277,101.22911221103277,101.22911221103277,101.22911221103277,101.22911221103277,a,1.2075293109519407,10,42,0,102.46295764006209,,103.96530006499961,,,,,,,,,,,,,,,,,,,,,,,,,,,,,,,,,,,,,,,,,,,,,,,,,,,,,,,,,,,,,,,,,,,,21144,2022-11-01_14h00.02.123,vts_reward_expectancy_bt_OFFLINE,2022.2.4,59.88166592810423,
1,0,0,0,0,1,0,0,triangle,circle,0,0,0,0,0,7,7,0,,,,,,,,,,,,,,,,,,,,,,,,,,,,,,,,,,,,,,,,104.46550460904837,104.46550460904837,104.46550460904837,104.46550460904837,104.46550460904837,104.46550460904837,104.46550460904837,104.46550460904837,104.46550460904837,104.46550460904837,a,2.6835583369247615,10,52,0,107.16653893701732,,108.668833450065,,,,,,,,,,,,,,,,,,,,,,,,,,,,,,,,,,,,,,,,,,,,,,,,,,,,,,,,,,,,,,,,,,,,21144,2022-11-01_14h00.02.123,vts_reward_expectancy_bt_OFFLINE,2022.2.4,59.88166592810423,
0,0,0,1,0,0,1,0,star,hexagon,0,0,0,0,0,8,8,11,,,,,,,,,,,,,,,,,,,,,,,,,,,,,,,,,,,,,,,,109.16897524602246,109.16897524602246,109.16897524602246,109.16897524602246,109.16897524602246,109.16897524602246,109.16897524602246,109.16897524602246,109.16897524602246,109.16897524602246,l,1.316221609013155,10,62,0,110.50302009901498,112.003556804033,112.003556804033,112.5035658290144,,,,,,,,,,,,,,,,,,,,,,,,,,,,,,,,,,,,,,,,,,,,,,,,,,,,,,,,,,,,,,,,,,,21144,2022-11-01_14h00.02.123,vts_reward_expectancy_bt_OFFLINE,2022.2.4,59.88166592810423,
1,0,0,0,0,0,0,1,triangle,star,0,0,0,0,0,9,9,2,,,,,,,,,,,,,,,,,,,,,,,,,,,,,,,,,,,,,,,,112.5035658290144,112.5035658290144,112.5035658290144,112.5035658290144,112.5035658290144,112.5035658290144,112.5035658290144,112.5035658290144,112.5035658290144,112.5035658290144,l,4.604982661898248,1,63,0,117.14046036999207,,118.64269193506334,,,,,,,,,,,,,,,,,,,,,,,,,,,,,,,,,,,,,,,,,,,,,,,,,,,,,,,,,,,,,,,,,,,,21144,2022-11-01_14h00.02.123,vts_reward_expectancy_bt_OFFLINE,2022.2.4,59.88166592810423,
0,0,1,0,0,0,0,1,hexagon,star,0,0,0,0,0,10,10,8,,,,,,,,,,,,,,,,,,,,,,,,,,,,,,,,,,,,,,,,119.14298437605612,119.14298437605612,119.14298437605612,119.14298437605612,119.14298437605612,119.14298437605612,119.14298437605612,119.14298437605612,119.14298437605612,119.14298437605612,l,1.141639498877339,1,64,0,120.31006903399248,121.81067092297599,121.81067092297599,,,,,,,,,,,,,,,,,,,,,,,,,,,,,,,,,,,,,,,,,,,,,,,,,,,,,,,,,,,,,,,,,,,,21144,2022-11-01_14h00.02.123,vts_reward_expectancy_bt_OFFLINE,2022.2.4,59.88166592810423,
1,0,0,0,0,0,1,0,triangle,hexagon,0,0,0,0,0,11,11,1,,,,,,,,,,,,,,,,,,,,,,,,,,,,,,,,,,,,,,,,122.31057605601382,122.31057605601382,122.31057605601382,122.31057605601382,122.31057605601382,122.31057605601382,122.31057605601382,122.31057605601382,122.31057605601382,122.31057605601382,l,1.270416388870217,1,65,0,123.61313427402638,125.11354245396797,125.11354245396797,,,,,,,,,,,,,,,,,,,,,,,,,,,,,,,,,,,,,,,,,,,,,,,,,,,,,,,,,,,,,,,,,,,,21144,2022-11-01_14h00.02.123,vts_reward_expectancy_bt_OFFLINE,2022.2.4,59.88166592810423,
0,0,1,0,0,0,0,1,hexagon,star,0,0,0,0,1,0,12,8,,,,,,,,,,,,,,,,,,,,,,,,,,,,,,,,,,,,,,,,125.61376838607248,125.61376838607248,125.61376838607248,125.61376838607248,125.61376838607248,125.61376838607248,125.61376838607248,125.61376838607248,125.61376838607248,125.61376838607248,l,1.455725398962386,10,75,0,127.09808590402827,,128.59996646398213,,,,,,,,,,,,,,,,,,,,,,,,,,,,,,,,,,,,,,,,,,,,,,,,,,,,,,,,,,,,,,,,,,,,21144,2022-11-01_14h00.02.123,vts_reward_expectancy_bt_OFFLINE,2022.2.4,59.88166592810423,
1,0,0,0,0,1,0,0,triangle,circle,0,0,0,0,1,1,13,0,,,,,,,,,,,,,,,,,,,,,,,,,,,,,,,,,,,,,,,,129.10021540801972,129.10021540801972,129.10021540801972,129.10021540801972,129.10021540801972,129.10021540801972,129.10021540801972,129.10021540801972,129.10021540801972,129.10021540801972,a,1.105298970011063,10,85,0,130.2340093770763,131.73454984801356,131.73454984801356,132.23483814997599,,,,,,,,,,,,,,,,,,,,,,,,,,,,,,,,,,,,,,,,,,,,,,,,,,,,,,,,,,,,,,,,,,,21144,2022-11-01_14h00.02.123,vts_reward_expectancy_bt_OFFLINE,2022.2.4,59.88166592810423,
0,0,0,1,0,1,0,0,star ,circle,0,0,0,0,1,2,14,10,,,,,,,,,,,,,,,,,,,,,,,,,,,,,,,,,,,,,,,,132.23483814997599,132.23483814997599,132.23483814997599,132.23483814997599,132.23483814997599,132.23483814997599,132.23483814997599,132.23483814997599,132.23483814997599,132.23483814997599,l,2.3306601408403367,1,86,0,134.58766282105353,136.08777257800102,136.08777257800102,136.58818459499162,,,,,,,,,,,,,,,,,,,,,,,,,,,,,,,,,,,,,,,,,,,,,,,,,,,,,,,,,,,,,,,,,,,21144,2022-11-01_14h00.02.123,vts_reward_expectancy_bt_OFFLINE,2022.2.4,59.88166592810423,
0,0,0,1,1,0,0,0,star,triangle,0,0,0,0,1,3,15,9,,,,,,,,,,,,,,,,,,,,,,,,,,,,,,,,,,,,,,,,136.58818459499162,136.58818459499162,136.58818459499162,136.58818459499162,136.58818459499162,136.58818459499162,136.58818459499162,136.58818459499162,136.58818459499162,136.58818459499162,a,0.6168807939393446,10,96,0,137.2223568620393,,138.72393684799317,,,,,,,,,,,,,,,,,,,,,,,,,,,,,,,,,,,,,,,,,,,,,,,,,,,,,,,,,,,,,,,,,,,,21144,2022-11-01_14h00.02.123,vts_reward_expectancy_bt_OFFLINE,2022.2.4,59.88166592810423,
0,1,0,0,0,0,0,1,circle,star,0,0,0,0,1,4,16,5,,,,,,,,,,,,,,,,,,,,,,,,,,,,,,,,,,,,,,,,139.22427685407456,139.22427685407456,139.22427685407456,139.22427685407456,139.22427685407456,139.22427685407456,139.22427685407456,139.22427685407456,139.22427685407456,139.22427685407456,a,1.2608552458696067,1,97,0,140.50817617797293,142.00874819105957,142.00874819105957,,,,,,,,,,,,,,,,,,,,,,,,,,,,,,,,,,,,,,,,,,,,,,,,,,,,,,,,,,,,,,,,,,,,21144,2022-11-01_14h00.02.123,vts_reward_expectancy_bt_OFFLINE,2022.2.4,59.88166592810423,
0,1,0,0,1,0,0,0,circle,triangle,0,0,0,0,1,5,17,3,,,,,,,,,,,,,,,,,,,,,,,,,,,,,,,,,,,,,,,,142.50866903807037,142.50866903807037,142.50866903807037,142.50866903807037,142.50866903807037,142.50866903807037,142.50866903807037,142.50866903807037,142.50866903807037,142.50866903807037,l,1.1124199219048023,10,107,0,143.64460552402306,,145.14492636697832,,,,,,,,,,,,,,,,,,,,,,,,,,,,,,,,,,,,,,,,,,,,,,,,,,,,,,,,,,,,,,,,,,,,21144,2022-11-01_14h00.02.123,vts_reward_expectancy_bt_OFFLINE,2022.2.4,59.88166592810423,
0,0,1,0,0,1,0,0,hexagon,circle,0,0,0,0,1,6,18,7,,,,,,,,,,,,,,,,,,,,,,,,,,,,,,,,,,,,,,,,145.6448935350636,145.6448935350636,145.6448935350636,145.6448935350636,145.6448935350636,145.6448935350636,145.6448935350636,145.6448935350636,145.6448935350636,145.6448935350636,l,2.5438798628747463,1,108,0,148.2146573039936,149.71492809196934,149.71492809196934,,,,,,,,,,,,,,,,,,,,,,,,,,,,,,,,,,,,,,,,,,,,,,,,,,,,,,,,,,,,,,,,,,,,21144,2022-11-01_14h00.02.123,vts_reward_expectancy_bt_OFFLINE,2022.2.4,59.88166592810423,
0,1,0,0,0,0,1,0,circle,hexagon,0,0,0,0,1,7,19,4,,,,,,,,,,,,,,,,,,,,,,,,,,,,,,,,,,,,,,,,150.21522920706775,150.21522920706775,150.21522920706775,150.21522920706775,150.21522920706775,150.21522920706775,150.21522920706775,150.21522920706775,150.21522920706775,150.21522920706775,l,2.5253942388808355,1,109,0,152.76621423498727,,154.2686434040079,,,,,,,,,,,,,,,,,,,,,,,,,,,,,,,,,,,,,,,,,,,,,,,,,,,,,,,,,,,,,,,,,,,,21144,2022-11-01_14h00.02.123,vts_reward_expectancy_bt_OFFLINE,2022.2.4,59.88166592810423,
0,0,1,0,1,0,0,0,hexagon,triangle,0,0,0,0,1,8,20,6,,,,,,,,,,,,,,,,,,,,,,,,,,,,,,,,,,,,,,,,154.76876844104845,154.76876844104845,154.76876844104845,154.76876844104845,154.76876844104845,154.76876844104845,154.76876844104845,154.76876844104845,154.76876844104845,154.76876844104845,a,2.772154311882332,1,110,0,157.569617632078,,159.0722255849978,,,,,,,,,,,,,,,,,,,,,,,,,,,,,,,,,,,,,,,,,,,,,,,,,,,,,,,,,,,,,,,,,,,,21144,2022-11-01_14h00.02.123,vts_reward_expectancy_bt_OFFLINE,2022.2.4,59.88166592810423,
1,0,0,0,0,0,1,0,triangle,hexagon,0,0,0,0,1,9,21,1,,,,,,,,,,,,,,,,,,,,,,,,,,,,,,,,,,,,,,,,159.57236968702637,159.57236968702637,159.57236968702637,159.57236968702637,159.57236968702637,159.57236968702637,159.57236968702637,159.57236968702637,159.57236968702637,159.57236968702637,a,1.073413289966993,10,120,0,160.67276372306515,162.17316694301553,162.17316694301553,162.6733399630757,,,,,,,,,,,,,,,,,,,,,,,,,,,,,,,,,,,,,,,,,,,,,,,,,,,,,,,,,,,,,,,,,,,21144,2022-11-01_14h00.02.123,vts_reward_expectancy_bt_OFFLINE,2022.2.4,59.88166592810423,
0,0,0,1,0,0,1,0,star,hexagon,0,0,0,0,1,10,22,11,,,,,,,,,,,,,,,,,,,,,,,,,,,,,,,,,,,,,,,,162.6733399630757,162.6733399630757,162.6733399630757,162.6733399630757,162.6733399630757,162.6733399630757,162.6733399630757,162.6733399630757,162.6733399630757,162.6733399630757,l,2.0592769449576735,1,121,0,164.7595553509891,166.25976854097098,166.25976854097098,166.75996788800694,,,,,,,,,,,,,,,,,,,,,,,,,,,,,,,,,,,,,,,,,,,,,,,,,,,,,,,,,,,,,,,,,,,21144,2022-11-01_14h00.02.123,vts_reward_expectancy_bt_OFFLINE,2022.2.4,59.88166592810423,
1,0,0,0,0,0,0,1,triangle,star,0,0,0,0,1,11,23,2,,,,,,,,,,,,,,,,,,,,,,,,,,,,,,,,,,,,,,,,166.75996788800694,166.75996788800694,166.75996788800694,166.75996788800694,166.75996788800694,166.75996788800694,166.75996788800694,166.75996788800694,166.75996788800694,166.75996788800694,l,1.221504935878329,10,131,0,168.01265317900106,169.51303289004136,169.51303289004136,170.01303021900821,,,,,,,,,,,,,,,,,,,,,,,,,,,,,,,,,,,,,,,,,,,,,,,,,,,,,,,,,,,,,,,,,,,21144,2022-11-01_14h00.02.123,vts_reward_expectancy_bt_OFFLINE,2022.2.4,59.88166592810423,
0,0,1,0,0,0,0,1,hexagon,star,0,0,0,0,2,0,24,8,,,,,,,,,,,,,,,,,,,,,,,,,,,,,,,,,,,,,,,,170.01303021900821,170.01303021900821,170.01303021900821,170.01303021900821,170.01303021900821,170.01303021900821,170.01303021900821,170.01303021900821,170.01303021900821,170.01303021900821,a,1.727682362892665,1,132,0,171.7638242749963,,173.2659277410712,,,,,,,,,,,,,,,,,,,,,,,,,,,,,,,,,,,,,,,,,,,,,,,,,,,,,,,,,,,,,,,,,,,,21144,2022-11-01_14h00.02.123,vts_reward_expectancy_bt_OFFLINE,2022.2.4,59.88166592810423,
0,0,1,0,1,0,0,0,hexagon,triangle,0,0,0,0,2,1,25,6,,,,,,,,,,,,,,,,,,,,,,,,,,,,,,,,,,,,,,,,173.76606867997907,173.76606867997907,173.76606867997907,173.76606867997907,173.76606867997907,173.76606867997907,173.76606867997907,173.76606867997907,173.76606867997907,173.76606867997907,a,1.0710264609660953,10,142,0,174.86683154199272,176.36729921400547,176.36729921400547,176.8674023390049,,,,,,,,,,,,,,,,,,,,,,,,,,,,,,,,,,,,,,,,,,,,,,,,,,,,,,,,,,,,,,,,,,,21144,2022-11-01_14h00.02.123,vts_reward_expectancy_bt_OFFLINE,2022.2.4,59.88166592810423,
1,0,0,0,0,1,0,0,triangle,circle,0,0,0,0,2,2,26,0,,,,,,,,,,,,,,,,,,,,,,,,,,,,,,,,,,,,,,,,176.8674023390049,176.8674023390049,176.8674023390049,176.8674023390049,176.8674023390049,176.8674023390049,176.8674023390049,176.8674023390049,176.8674023390049,176.8674023390049,a,1.738188156974502,10,152,0,178.63642283901572,180.13723592204042,180.13723592204042,,,,,,,,,,,,,,,,,,,,,,,,,,,,,,,,,,,,,,,,,,,,,,,,,,,,,,,,,,,,,,,,,,,,21144,2022-11-01_14h00.02.123,vts_reward_expectancy_bt_OFFLINE,2022.2.4,59.88166592810423,
0,0,0,1,0,0,1,0,star,hexagon,0,0,0,0,2,3,27,11,,,,,,,,,,,,,,,,,,,,,,,,,,,,,,,,,,,,,,,,180.6369927939959,180.6369927939959,180.6369927939959,180.6369927939959,180.6369927939959,180.6369927939959,180.6369927939959,180.6369927939959,180.6369927939959,180.6369927939959,l,3.0554828469175845,10,162,0,183.72335650899913,,185.22434491699096,,,,,,,,,,,,,,,,,,,,,,,,,,,,,,,,,,,,,,,,,,,,,,,,,,,,,,,,,,,,,,,,,,,,21144,2022-11-01_14h00.02.123,vts_reward_expectancy_bt_OFFLINE,2022.2.4,59.88166592810423,
0,1,0,0,0,0,0,1,circle,star,0,0,0,0,2,4,28,5,,,,,,,,,,,,,,,,,,,,,,,,,,,,,,,,,,,,,,,,185.7241969939787,185.7241969939787,185.7241969939787,185.7241969939787,185.7241969939787,185.7241969939787,185.7241969939787,185.7241969939787,185.7241969939787,185.7241969939787,l,1.0569229439133778,10,172,0,186.80766583106015,,188.31025845801923,,,,,,,,,,,,,,,,,,,,,,,,,,,,,,,,,,,,,,,,,,,,,,,,,,,,,,,,,,,,,,,,,,,,21144,2022-11-01_14h00.02.123,vts_reward_expectancy_bt_OFFLINE,2022.2.4,59.88166592810423,
0,0,0,1,1,0,0,0,star,triangle,0,0,0,0,2,5,29,9,,,,,,,,,,,,,,,,,,,,,,,,,,,,,,,,,,,,,,,,188.81039743800648,188.81039743800648,188.81039743800648,188.81039743800648,188.81039743800648,188.81039743800648,188.81039743800648,188.81039743800648,188.81039743800648,188.81039743800648,l,1.050655657891184,1,173,0,189.87813585996628,191.37817431706935,191.37817431706935,191.87821813905612,,,,,,,,,,,,,,,,,,,,,,,,,,,,,,,,,,,,,,,,,,,,,,,,,,,,,,,,,,,,,,,,,,,21144,2022-11-01_14h00.02.123,vts_reward_expectancy_bt_OFFLINE,2022.2.4,59.88166592810423,
0,1,0,0,1,0,0,0,circle,triangle,0,0,0,0,2,6,30,3,,,,,,,,,,,,,,,,,,,,,,,,,,,,,,,,,,,,,,,,191.87821813905612,191.87821813905612,191.87821813905612,191.87821813905612,191.87821813905612,191.87821813905612,191.87821813905612,191.87821813905612,191.87821813905612,191.87821813905612,l,1.3828144208528101,1,174,0,193.28065542096738,194.78105091897305,194.78105091897305,,,,,,,,,,,,,,,,,,,,,,,,,,,,,,,,,,,,,,,,,,,,,,,,,,,,,,,,,,,,,,,,,,,,21144,2022-11-01_14h00.02.123,vts_reward_expectancy_bt_OFFLINE,2022.2.4,59.88166592810423,
1,0,0,0,0,0,1,0,triangle,hexagon,0,0,0,0,2,7,31,1,,,,,,,,,,,,,,,,,,,,,,,,,,,,,,,,,,,,,,,,195.28134120907634,195.28134120907634,195.28134120907634,195.28134120907634,195.28134120907634,195.28134120907634,195.28134120907634,195.28134120907634,195.28134120907634,195.28134120907634,a,1.1872458750149235,10,184,0,196.49887248803861,,198.00076910399366,,,,,,,,,,,,,,,,,,,,,,,,,,,,,,,,,,,,,,,,,,,,,,,,,,,,,,,,,,,,,,,,,,,,21144,2022-11-01_14h00.02.123,vts_reward_expectancy_bt_OFFLINE,2022.2.4,59.88166592810423,
0,1,0,0,0,0,1,0,circle,hexagon,0,0,0,0,2,8,32,4,,,,,,,,,,,,,,,,,,,,,,,,,,,,,,,,,,,,,,,,198.50088964600582,198.50088964600582,198.50088964600582,198.50088964600582,198.50088964600582,198.50088964600582,198.50088964600582,198.50088964600582,198.50088964600582,198.50088964600582,a,1.136306467000395,1,185,0,199.66820221405942,201.16870722000021,201.16870722000021,,,,,,,,,,,,,,,,,,,,,,,,,,,,,,,,,,,,,,,,,,,,,,,,,,,,,,,,,,,,,,,,,,,,21144,2022-11-01_14h00.02.123,vts_reward_expectancy_bt_OFFLINE,2022.2.4,59.88166592810423,
0,0,0,1,0,1,0,0,star ,circle,0,0,0,0,2,9,33,10,,,,,,,,,,,,,,,,,,,,,,,,,,,,,,,,,,,,,,,,201.668690321967,201.668690321967,201.668690321967,201.668690321967,201.668690321967,201.668690321967,201.668690321967,201.668690321967,201.668690321967,201.668690321967,a,3.440377265913412,1,186,0,205.13846745504998,206.6392041860381,206.6392041860381,207.13926106400322,,,,,,,,,,,,,,,,,,,,,,,,,,,,,,,,,,,,,,,,,,,,,,,,,,,,,,,,,,,,,,,,,,,21144,2022-11-01_14h00.02.123,vts_reward_expectancy_bt_OFFLINE,2022.2.4,59.88166592810423,
0,0,1,0,0,1,0,0,hexagon,circle,0,0,0,0,2,10,34,7,,,,,,,,,,,,,,,,,,,,,,,,,,,,,,,,,,,,,,,,207.13926106400322,207.13926106400322,207.13926106400322,207.13926106400322,207.13926106400322,207.13926106400322,207.13926106400322,207.13926106400322,207.13926106400322,207.13926106400322,l,3.0495403689565137,10,196,0,210.20928554807324,211.70930287300143,211.70930287300143,,,,,,,,,,,,,,,,,,,,,,,,,,,,,,,,,,,,,,,,,,,,,,,,,,,,,,,,,,,,,,,,,,,,21144,2022-11-01_14h00.02.123,vts_reward_expectancy_bt_OFFLINE,2022.2.4,59.88166592810423,
1,0,0,0,0,0,0,1,triangle,star,0,0,0,0,2,11,35,2,,,,,,,,,,,,,,,,,,,,,,,,,,,,,,,,,,,,,,,,212.20953517605085,212.20953517605085,212.20953517605085,212.20953517605085,212.20953517605085,212.20953517605085,212.20953517605085,212.20953517605085,212.20953517605085,212.20953517605085,a,1.4602263228734955,10,206,0,213.69512435002252,215.19604372500908,215.19604372500908,,,,,,,,,,,,,,,,,,,,,,,,,,,,,,,,,,,,,,,,,,,,,,,,,,,,,,,,,,,,,,,,,,,,21144,2022-11-01_14h00.02.123,vts_reward_expectancy_bt_OFFLINE,2022.2.4,59.88166592810423,
0,1,0,0,1,0,0,0,circle,triangle,0,0,0,0,3,0,36,3,,,,,,,,,,,,,,,,,,,,,,,,,,,,,,,,,,,,,,,,215.69589127297513,215.69589127297513,215.69589127297513,215.69589127297513,215.69589127297513,215.69589127297513,215.69589127297513,215.69589127297513,215.69589127297513,215.69589127297513,a,1.3007286168867722,10,216,0,217.01292936201207,,218.51551234407816,,,,,,,,,,,,,,,,,,,,,,,,,,,,,,,,,,,,,,,,,,,,,,,,,,,,,,,,,,,,,,,,,,,,21144,2022-11-01_14h00.02.123,vts_reward_expectancy_bt_OFFLINE,2022.2.4,59.88166592810423,
0,0,1,0,0,0,0,1,hexagon,star,0,0,0,0,3,1,37,8,,,,,,,,,,,,,,,,,,,,,,,,,,,,,,,,,,,,,,,,219.0155477169901,219.0155477169901,219.0155477169901,219.0155477169901,219.0155477169901,219.0155477169901,219.0155477169901,219.0155477169901,219.0155477169901,219.0155477169901,l,1.3575114560080692,10,226,0,220.39949431002606,221.90011070505716,221.90011070505716,222.40031955996528,,,,,,,,,,,,,,,,,,,,,,,,,,,,,,,,,,,,,,,,,,,,,,,,,,,,,,,,,,,,,,,,,,,21144,2022-11-01_14h00.02.123,vts_reward_expectancy_bt_OFFLINE,2022.2.4,59.88166592810423,
0,1,0,0,0,0,0,1,circle,star,0,0,0,0,3,2,38,5,,,,,,,,,,,,,,,,,,,,,,,,,,,,,,,,,,,,,,,,222.40031955996528,222.40031955996528,222.40031955996528,222.40031955996528,222.40031955996528,222.40031955996528,222.40031955996528,222.40031955996528,222.40031955996528,222.40031955996528,a,1.0524979109177366,1,227,0,223.48576669301838,224.98638783406932,224.98638783406932,225.48615945107304,,,,,,,,,,,,,,,,,,,,,,,,,,,,,,,,,,,,,,,,,,,,,,,,,,,,,,,,,,,,,,,,,,,21144,2022-11-01_14h00.02.123,vts_reward_expectancy_bt_OFFLINE,2022.2.4,59.88166592810423,
1,0,0,0,0,0,0,1,triangle,star,0,0,0,0,3,3,39,2,,,,,,,,,,,,,,,,,,,,,,,,,,,,,,,,,,,,,,,,225.48615945107304,225.48615945107304,225.48615945107304,225.48615945107304,225.48615945107304,225.48615945107304,225.48615945107304,225.48615945107304,225.48615945107304,225.48615945107304,l,0.6865232149139047,10,237,0,226.2040464360034,227.703871077043,227.703871077043,,,,,,,,,,,,,,,,,,,,,,,,,,,,,,,,,,,,,,,,,,,,,,,,,,,,,,,,,,,,,,,,,,,,21144,2022-11-01_14h00.02.123,vts_reward_expectancy_bt_OFFLINE,2022.2.4,59.88166592810423,
0,1,0,0,0,0,1,0,circle,hexagon,0,0,0,0,3,4,40,4,,,,,,,,,,,,,,,,,,,,,,,,,,,,,,,,,,,,,,,,228.20603619003668,228.20603619003668,228.20603619003668,228.20603619003668,228.20603619003668,228.20603619003668,228.20603619003668,228.20603619003668,228.20603619003668,228.20603619003668,l,1.5352798318490386,10,247,0,229.77318923396524,231.27376128500327,231.27376128500327,231.77393999800552,,,,,,,,,,,,,,,,,,,,,,,,,,,,,,,,,,,,,,,,,,,,,,,,,,,,,,,,,,,,,,,,,,,21144,2022-11-01_14h00.02.123,vts_reward_expectancy_bt_OFFLINE,2022.2.4,59.88166592810423,
0,0,1,0,1,0,0,0,hexagon,triangle,0,0,0,0,3,5,41,6,,,,,,,,,,,,,,,,,,,,,,,,,,,,,,,,,,,,,,,,231.77393999800552,231.77393999800552,231.77393999800552,231.77393999800552,231.77393999800552,231.77393999800552,231.77393999800552,231.77393999800552,231.77393999800552,231.77393999800552,a,0.9354523519286886,1,248,0,232.74092386302073,,234.2435372309992,,,,,,,,,,,,,,,,,,,,,,,,,,,,,,,,,,,,,,,,,,,,,,,,,,,,,,,,,,,,,,,,,,,,21144,2022-11-01_14h00.02.123,vts_reward_expectancy_bt_OFFLINE,2022.2.4,59.88166592810423,
0,0,0,1,0,0,1,0,star,hexagon,0,0,0,0,3,6,42,11,,,,,,,,,,,,,,,,,,,,,,,,,,,,,,,,,,,,,,,,234.74360447807703,234.74360447807703,234.74360447807703,234.74360447807703,234.74360447807703,234.74360447807703,234.74360447807703,234.74360447807703,234.74360447807703,234.74360447807703,a,1.2133417358854786,10,258,0,235.97787185804918,237.4779136320576,237.4779136320576,,,,,,,,,,,,,,,,,,,,,,,,,,,,,,,,,,,,,,,,,,,,,,,,,,,,,,,,,,,,,,,,,,,,21144,2022-11-01_14h00.02.123,vts_reward_expectancy_bt_OFFLINE,2022.2.4,59.88166592810423,
1,0,0,0,0,1,0,0,triangle,circle,0,0,0,0,3,7,43,0,,,,,,,,,,,,,,,,,,,,,,,,,,,,,,,,,,,,,,,,237.98011805606075,237.98011805606075,237.98011805606075,237.98011805606075,237.98011805606075,237.98011805606075,237.98011805606075,237.98011805606075,237.98011805606075,237.98011805606075,a,1.2413335539167747,10,268,0,239.24702117498964,240.74755019403528,240.74755019403528,241.24769197206479,,,,,,,,,,,,,,,,,,,,,,,,,,,,,,,,,,,,,,,,,,,,,,,,,,,,,,,,,,,,,,,,,,,21144,2022-11-01_14h00.02.123,vts_reward_expectancy_bt_OFFLINE,2022.2.4,59.88166592810423,
0,0,0,1,1,0,0,0,star,triangle,0,0,0,0,3,8,44,9,,,,,,,,,,,,,,,,,,,,,,,,,,,,,,,,,,,,,,,,241.24769197206479,241.24769197206479,241.24769197206479,241.24769197206479,241.24769197206479,241.24769197206479,241.24769197206479,241.24769197206479,241.24769197206479,241.24769197206479,l,4.1973040628945455,10,278,0,245.4677373280283,246.96840994001832,246.96840994001832,,,,,,,,,,,,,,,,,,,,,,,,,,,,,,,,,,,,,,,,,,,,,,,,,,,,,,,,,,,,,,,,,,,,21144,2022-11-01_14h00.02.123,vts_reward_expectancy_bt_OFFLINE,2022.2.4,59.88166592810423,
1,0,0,0,0,0,1,0,triangle,hexagon,0,0,0,0,3,9,45,1,,,,,,,,,,,,,,,,,,,,,,,,,,,,,,,,,,,,,,,,247.4684221430216,247.4684221430216,247.4684221430216,247.4684221430216,247.4684221430216,247.4684221430216,247.4684221430216,247.4684221430216,247.4684221430216,247.4684221430216,a,1.0646942149614915,1,279,0,248.5544709940441,,250.054642386036,250.5547733909916,,,,,,,,,,,,,,,,,,,,,,,,,,,,,,,,,,,,,,,,,,,,,,,,,,,,,,,,,,,,,,,,,,,21144,2022-11-01_14h00.02.123,vts_reward_expectancy_bt_OFFLINE,2022.2.4,59.88166592810423,
0,0,0,1,0,1,0,0,star ,circle,0,0,0,0,3,10,46,10,,,,,,,,,,,,,,,,,,,,,,,,,,,,,,,,,,,,,,,,250.5547733909916,250.5547733909916,250.5547733909916,250.5547733909916,250.5547733909916,250.5547733909916,250.5547733909916,250.5547733909916,250.5547733909916,250.5547733909916,a,0.9225266879657283,1,280,0,251.50512020196766,,253.00751203496475,,,,,,,,,,,,,,,,,,,,,,,,,,,,,,,,,,,,,,,,,,,,,,,,,,,,,,,,,,,,,,,,,,,,21144,2022-11-01_14h00.02.123,vts_reward_expectancy_bt_OFFLINE,2022.2.4,59.88166592810423,
0,0,1,0,0,1,0,0,hexagon,circle,0,0,0,0,3,11,47,7,,,,,,,,,,,,,,,,,,,,,,,,,,,,,,,,,,,,,,,,253.50751025800128,253.50751025800128,253.50751025800128,253.50751025800128,253.50751025800128,253.50751025800128,253.50751025800128,253.50751025800128,253.50751025800128,253.50751025800128,l,2.3783077128464356,1,281,0,255.90847469307482,257.40905773697887,257.40905773697887,,,,,,,,,,,,,,,,,,,,,,,,,,,,,,,,,,,,,,,,,,,,,,,,,,,,,,,,,,,,,,,,,,,,21144,2022-11-01_14h00.02.123,vts_reward_expectancy_bt_OFFLINE,2022.2.4,59.88166592810423,
0,0,0,1,1,0,0,0,star,triangle,1,0,1,0,0,0,0,9,,,,,,,,,,,,,,,,,,,,,,,,,,,,,,,,,,,,,,,,265.37641469202936,265.37641469202936,265.37641469202936,265.37641469202936,265.37641469202936,265.37641469202936,265.37641469202936,265.37641469202936,265.37641469202936,265.37641469202936,l,1.9492921349592507,1,282,1,267.34954260406084,,268.8519933760399,,,,,,,,,,,,,,,,,,,,,,,,,,,,,,,,,,,,,,,,,,,,,,,,,,,,,,,,,,,,,,,,,,,,21144,2022-11-01_14h00.02.123,vts_reward_expectancy_bt_OFFLINE,2022.2.4,59.88166592810423,
1,0,0,0,0,0,0,1,triangle,star,1,0,1,0,0,1,1,2,,,,,,,,,,,,,,,,,,,,,,,,,,,,,,,,,,,,,,,,269.3521389410598,269.3521389410598,269.3521389410598,269.3521389410598,269.3521389410598,269.3521389410598,269.3521389410598,269.3521389410598,269.3521389410598,269.3521389410598,l,0.8290023398585618,1,283,1,270.20233411400113,271.70304389402736,271.70304389402736,272.2033872050233,,,,,,,,,,,,,,,,,,,,,,,,,,,,,,,,,,,,,,,,,,,,,,,,,,,,,,,,,,,,,,,,,,,21144,2022-11-01_14h00.02.123,vts_reward_expectancy_bt_OFFLINE,2022.2.4,59.88166592810423,
0,0,0,1,0,1,0,0,star ,circle,1,0,1,0,0,2,2,10,,,,,,,,,,,,,,,,,,,,,,,,,,,,,,,,,,,,,,,,272.2033872050233,272.2033872050233,272.2033872050233,272.2033872050233,272.2033872050233,272.2033872050233,272.2033872050233,272.2033872050233,272.2033872050233,272.2033872050233,a,2.033679929911159,1,284,1,274.2558833300136,275.75635721103754,275.75635721103754,276.25635782897007,,,,,,,,,,,,,,,,,,,,,,,,,,,,,,,,,,,,,,,,,,,,,,,,,,,,,,,,,,,,,,,,,,,21144,2022-11-01_14h00.02.123,vts_reward_expectancy_bt_OFFLINE,2022.2.4,59.88166592810423,
0,1,0,0,0,0,0,1,circle,star,1,0,1,0,0,3,3,5,,,,,,,,,,,,,,,,,,,,,,,,,,,,,,,,,,,,,,,,276.25635782897007,276.25635782897007,276.25635782897007,276.25635782897007,276.25635782897007,276.25635782897007,276.25635782897007,276.25635782897007,276.25635782897007,276.25635782897007,a,1.077449197997339,1,285,1,277.3569146289956,,278.8594189020805,,,,,,,,,,,,,,,,,,,,,,,,,,,,,,,,,,,,,,,,,,,,,,,,,,,,,,,,,,,,,,,,,,,,21144,2022-11-01_14h00.02.123,vts_reward_expectancy_bt_OFFLINE,2022.2.4,59.88166592810423,
0,0,0,1,0,0,1,0,star,hexagon,1,0,1,0,0,4,4,11,,,,,,,,,,,,,,,,,,,,,,,,,,,,,,,,,,,,,,,,279.3594539259793,279.3594539259793,279.3594539259793,279.3594539259793,279.3594539259793,279.3594539259793,279.3594539259793,279.3594539259793,279.3594539259793,279.3594539259793,l,0.7495310909580439,1,286,1,280.1263035819866,281.6269644490676,281.6269644490676,282.1270199910505,,,,,,,,,,,,,,,,,,,,,,,,,,,,,,,,,,,,,,,,,,,,,,,,,,,,,,,,,,,,,,,,,,,21144,2022-11-01_14h00.02.123,vts_reward_expectancy_bt_OFFLINE,2022.2.4,59.88166592810423,
0,0,1,0,1,0,0,0,hexagon,triangle,1,0,1,0,0,5,5,6,,,,,,,,,,,,,,,,,,,,,,,,,,,,,,,,,,,,,,,,282.1270199910505,282.1270199910505,282.1270199910505,282.1270199910505,282.1270199910505,282.1270199910505,282.1270199910505,282.1270199910505,282.1270199910505,282.1270199910505,a,0.7018853549379855,1,287,1,282.8606097040465,,284.36318423307966,,,,,,,,,,,,,,,,,,,,,,,,,,,,,,,,,,,,,,,,,,,,,,,,,,,,,,,,,,,,,,,,,,,,21144,2022-11-01_14h00.02.123,vts_reward_expectancy_bt_OFFLINE,2022.2.4,59.88166592810423,
1,0,0,0,0,0,1,0,triangle,hexagon,1,0,1,0,0,6,6,1,,,,,,,,,,,,,,,,,,,,,,,,,,,,,,,,,,,,,,,,284.8633673529839,284.8633673529839,284.8633673529839,284.8633673529839,284.8633673529839,284.8633673529839,284.8633673529839,284.8633673529839,284.8633673529839,284.8633673529839,l,1.8622430869145319,1,288,1,286.74748374905903,,288.2498705020407,,,,,,,,,,,,,,,,,,,,,,,,,,,,,,,,,,,,,,,,,,,,,,,,,,,,,,,,,,,,,,,,,,,,21144,2022-11-01_14h00.02.123,vts_reward_expectancy_bt_OFFLINE,2022.2.4,59.88166592810423,
1,0,0,0,0,1,0,0,triangle,circle,1,0,1,0,0,7,7,0,,,,,,,,,,,,,,,,,,,,,,,,,,,,,,,,,,,,,,,,288.7497696609935,288.7497696609935,288.7497696609935,288.7497696609935,288.7497696609935,288.7497696609935,288.7497696609935,288.7497696609935,288.7497696609935,288.7497696609935,l,1.439398331916891,1,289,1,290.2171009350568,291.7175505410414,291.7175505410414,292.2176902369829,,,,,,,,,,,,,,,,,,,,,,,,,,,,,,,,,,,,,,,,,,,,,,,,,,,,,,,,,,,,,,,,,,,21144,2022-11-01_14h00.02.123,vts_reward_expectancy_bt_OFFLINE,2022.2.4,59.88166592810423,
0,0,1,0,0,0,0,1,hexagon,star,1,0,1,0,0,8,8,8,,,,,,,,,,,,,,,,,,,,,,,,,,,,,,,,,,,,,,,,292.2176902369829,292.2176902369829,292.2176902369829,292.2176902369829,292.2176902369829,292.2176902369829,292.2176902369829,292.2176902369829,292.2176902369829,292.2176902369829,a,0.9715251310262829,10,299,1,293.2206767150201,294.7206324300496,294.7206324300496,,,,,,,,,,,,,,,,,,,,,,,,,,,,,,,,,,,,,,,,,,,,,,,,,,,,,,,,,,,,,,,,,,,,21144,2022-11-01_14h00.02.123,vts_reward_expectancy_bt_OFFLINE,2022.2.4,59.88166592810423,
0,1,0,0,1,0,0,0,circle,triangle,1,0,1,0,0,9,9,3,,,,,,,,,,,,,,,,,,,,,,,,,,,,,,,,,,,,,,,,295.2208692759741,295.2208692759741,295.2208692759741,295.2208692759741,295.2208692759741,295.2208692759741,295.2208692759741,295.2208692759741,295.2208692759741,295.2208692759741,a,0.6884840879356489,10,309,1,295.9375517300796,297.43834493204486,297.43834493204486,,,,,,,,,,,,,,,,,,,,,,,,,,,,,,,,,,,,,,,,,,,,,,,,,,,,,,,,,,,,,,,,,,,,21144,2022-11-01_14h00.02.123,vts_reward_expectancy_bt_OFFLINE,2022.2.4,59.88166592810423,
0,1,0,0,0,0,1,0,circle,hexagon,1,0,1,0,0,10,10,4,,,,,,,,,,,,,,,,,,,,,,,,,,,,,,,,,,,,,,,,297.94367633305956,297.94367633305956,297.94367633305956,297.94367633305956,297.94367633305956,297.94367633305956,297.94367633305956,297.94367633305956,297.94367633305956,297.94367633305956,l,1.829750727978535,1,310,1,299.7911987240659,301.29132048401516,301.29132048401516,301.79147136502434,,,,,,,,,,,,,,,,,,,,,,,,,,,,,,,,,,,,,,,,,,,,,,,,,,,,,,,,,,,,,,,,,,,21144,2022-11-01_14h00.02.123,vts_reward_expectancy_bt_OFFLINE,2022.2.4,59.88166592810423,
0,0,1,0,0,1,0,0,hexagon,circle,1,0,1,0,0,11,11,7,,,,,,,,,,,,,,,,,,,,,,,,,,,,,,,,,,,,,,,,301.79147136502434,301.79147136502434,301.79147136502434,301.79147136502434,301.79147136502434,301.79147136502434,301.79147136502434,301.79147136502434,301.79147136502434,301.79147136502434,l,0.8132930259453133,1,311,1,302.62485001806635,,304.12785245804116,,,,,,,,,,,,,,,,,,,,,,,,,,,,,,,,,,,,,,,,,,,,,,,,,,,,,,,,,,,,,,,,,,,,21144,2022-11-01_14h00.02.123,vts_reward_expectancy_bt_OFFLINE,2022.2.4,59.88166592810423,
0,1,0,0,1,0,0,0,circle,triangle,1,0,1,0,1,0,12,3,,,,,,,,,,,,,,,,,,,,,,,,,,,,,,,,,,,,,,,,304.6278328889748,304.6278328889748,304.6278328889748,304.6278328889748,304.6278328889748,304.6278328889748,304.6278328889748,304.6278328889748,304.6278328889748,304.6278328889748,a,0.5938406148925424,1,312,1,305.24466900201514,306.7454321930418,306.7454321930418,,,,,,,,,,,,,,,,,,,,,,,,,,,,,,,,,,,,,,,,,,,,,,,,,,,,,,,,,,,,,,,,,,,,21144,2022-11-01_14h00.02.123,vts_reward_expectancy_bt_OFFLINE,2022.2.4,59.88166592810423,
1,0,0,0,0,0,1,0,triangle,hexagon,1,0,1,0,1,1,13,1,,,,,,,,,,,,,,,,,,,,,,,,,,,,,,,,,,,,,,,,307.24550560105126,307.24550560105126,307.24550560105126,307.24550560105126,307.24550560105126,307.24550560105126,307.24550560105126,307.24550560105126,307.24550560105126,307.24550560105126,l,1.263562485924922,1,313,1,308.53088196506724,310.0315887450706,310.0315887450706,310.5316934339935,,,,,,,,,,,,,,,,,,,,,,,,,,,,,,,,,,,,,,,,,,,,,,,,,,,,,,,,,,,,,,,,,,,21144,2022-11-01_14h00.02.123,vts_reward_expectancy_bt_OFFLINE,2022.2.4,59.88166592810423,
0,0,1,0,1,0,0,0,hexagon,triangle,1,0,1,0,1,2,14,6,,,,,,,,,,,,,,,,,,,,,,,,,,,,,,,,,,,,,,,,310.5316934339935,310.5316934339935,310.5316934339935,310.5316934339935,310.5316934339935,310.5316934339935,310.5316934339935,310.5316934339935,310.5316934339935,310.5316934339935,a,3.0337129848776385,1,314,1,313.5846069280524,315.08516039699316,315.08516039699316,,,,,,,,,,,,,,,,,,,,,,,,,,,,,,,,,,,,,,,,,,,,,,,,,,,,,,,,,,,,,,,,,,,,21144,2022-11-01_14h00.02.123,vts_reward_expectancy_bt_OFFLINE,2022.2.4,59.88166592810423,
0,1,0,0,0,0,1,0,circle,hexagon,1,0,1,0,1,3,15,4,,,,,,,,,,,,,,,,,,,,,,,,,,,,,,,,,,,,,,,,315.5854476710083,315.5854476710083,315.5854476710083,315.5854476710083,315.5854476710083,315.5854476710083,315.5854476710083,315.5854476710083,315.5854476710083,315.5854476710083,a,3.820041868952103,1,315,1,319.4220291429665,320.92238902300596,320.92238902300596,321.4225230399752,,,,,,,,,,,,,,,,,,,,,,,,,,,,,,,,,,,,,,,,,,,,,,,,,,,,,,,,,,,,,,,,,,,21144,2022-11-01_14h00.02.123,vts_reward_expectancy_bt_OFFLINE,2022.2.4,59.88166592810423,
0,0,1,0,0,1,0,0,hexagon,circle,1,0,1,0,1,4,16,7,,,,,,,,,,,,,,,,,,,,,,,,,,,,,,,,,,,,,,,,321.4225230399752,321.4225230399752,321.4225230399752,321.4225230399752,321.4225230399752,321.4225230399752,321.4225230399752,321.4225230399752,321.4225230399752,321.4225230399752,l,1.2390380608849227,1,316,1,322.68947057798505,,324.19223747204524,,,,,,,,,,,,,,,,,,,,,,,,,,,,,,,,,,,,,,,,,,,,,,,,,,,,,,,,,,,,,,,,,,,,21144,2022-11-01_14h00.02.123,vts_reward_expectancy_bt_OFFLINE,2022.2.4,59.88166592810423,
0,1,0,0,0,0,0,1,circle,star,1,0,1,0,1,5,17,5,,,,,,,,,,,,,,,,,,,,,,,,,,,,,,,,,,,,,,,,324.6924560579937,324.6924560579937,324.6924560579937,324.6924560579937,324.6924560579937,324.6924560579937,324.6924560579937,324.6924560579937,324.6924560579937,324.6924560579937,l,0.8889096219791099,1,317,1,325.60912829602603,327.1099374110345,327.1099374110345,327.6099369460717,,,,,,,,,,,,,,,,,,,,,,,,,,,,,,,,,,,,,,,,,,,,,,,,,,,,,,,,,,,,,,,,,,,21144,2022-11-01_14h00.02.123,vts_reward_expectancy_bt_OFFLINE,2022.2.4,59.88166592810423,
1,0,0,0,0,1,0,0,triangle,circle,1,0,1,0,1,6,18,0,,,,,,,,,,,,,,,,,,,,,,,,,,,,,,,,,,,,,,,,327.6099369460717,327.6099369460717,327.6099369460717,327.6099369460717,327.6099369460717,327.6099369460717,327.6099369460717,327.6099369460717,327.6099369460717,327.6099369460717,a,1.3630636489251629,10,327,1,328.99653262097854,330.4963212100556,330.4963212100556,330.9963684550021,,,,,,,,,,,,,,,,,,,,,,,,,,,,,,,,,,,,,,,,,,,,,,,,,,,,,,,,,,,,,,,,,,,21144,2022-11-01_14h00.02.123,vts_reward_expectancy_bt_OFFLINE,2022.2.4,59.88166592810423,
0,0,0,1,1,0,0,0,star,triangle,1,0,1,0,1,7,19,9,,,,,,,,,,,,,,,,,,,,,,,,,,,,,,,,,,,,,,,,330.9963684550021,330.9963684550021,330.9963684550021,330.9963684550021,330.9963684550021,330.9963684550021,330.9963684550021,330.9963684550021,330.9963684550021,330.9963684550021,a,1.8807939030230045,10,337,1,332.89673272997607,,334.3996771470411,,,,,,,,,,,,,,,,,,,,,,,,,,,,,,,,,,,,,,,,,,,,,,,,,,,,,,,,,,,,,,,,,,,,21144,2022-11-01_14h00.02.123,vts_reward_expectancy_bt_OFFLINE,2022.2.4,59.88166592810423,
1,0,0,0,0,0,0,1,triangle,star,1,0,1,0,1,8,20,2,,,,,,,,,,,,,,,,,,,,,,,,,,,,,,,,,,,,,,,,334.8995137200691,334.8995137200691,334.8995137200691,334.8995137200691,334.8995137200691,334.8995137200691,334.8995137200691,334.8995137200691,334.8995137200691,334.8995137200691,l,2.977386317914352,1,338,1,337.901962716016,,339.4033029730199,,,,,,,,,,,,,,,,,,,,,,,,,,,,,,,,,,,,,,,,,,,,,,,,,,,,,,,,,,,,,,,,,,,,21144,2022-11-01_14h00.02.123,vts_reward_expectancy_bt_OFFLINE,2022.2.4,59.88166592810423,
0,0,0,1,0,1,0,0,star ,circle,1,0,1,0,1,9,21,10,,,,,,,,,,,,,,,,,,,,,,,,,,,,,,,,,,,,,,,,339.90346678707283,339.90346678707283,339.90346678707283,339.90346678707283,339.90346678707283,339.90346678707283,339.90346678707283,339.90346678707283,339.90346678707283,339.90346678707283,a,1.4773559739114717,1,339,1,341.40386916103307,342.9043161490699,342.9043161490699,,,,,,,,,,,,,,,,,,,,,,,,,,,,,,,,,,,,,,,,,,,,,,,,,,,,,,,,,,,,,,,,,,,,21144,2022-11-01_14h00.02.123,vts_reward_expectancy_bt_OFFLINE,2022.2.4,59.88166592810423,
0,0,0,1,0,0,1,0,star,hexagon,1,0,1,0,1,10,22,11,,,,,,,,,,,,,,,,,,,,,,,,,,,,,,,,,,,,,,,,343.40627967298497,343.40627967298497,343.40627967298497,343.40627967298497,343.40627967298497,343.40627967298497,343.40627967298497,343.40627967298497,343.40627967298497,343.40627967298497,a,1.4223452709848061,1,340,1,344.85697322001215,346.3576452990528,346.3576452990528,,,,,,,,,,,,,,,,,,,,,,,,,,,,,,,,,,,,,,,,,,,,,,,,,,,,,,,,,,,,,,,,,,,,21144,2022-11-01_14h00.02.123,vts_reward_expectancy_bt_OFFLINE,2022.2.4,59.88166592810423,
0,0,1,0,0,0,0,1,hexagon,star,1,0,1,0,1,11,23,8,,,,,,,,,,,,,,,,,,,,,,,,,,,,,,,,,,,,,,,,346.85768156603444,346.85768156603444,346.85768156603444,346.85768156603444,346.85768156603444,346.85768156603444,346.85768156603444,346.85768156603444,346.85768156603444,346.85768156603444,a,1.0515104508958757,1,341,1,347.9411745580146,,349.44389196601696,,,,,,,,,,,,,,,,,,,,,,,,,,,,,,,,,,,,,,,,,,,,,,,,,,,,,,,,,,,,,,,,,,,,21144,2022-11-01_14h00.02.123,vts_reward_expectancy_bt_OFFLINE,2022.2.4,59.88166592810423,
0,1,0,0,1,0,0,0,circle,triangle,1,0,1,0,2,0,24,3,,,,,,,,,,,,,,,,,,,,,,,,,,,,,,,,,,,,,,,,349.9438169699861,349.9438169699861,349.9438169699861,349.9438169699861,349.9438169699861,349.9438169699861,349.9438169699861,349.9438169699861,349.9438169699861,349.9438169699861,l,1.2054885239340365,10,351,1,351.17830120096914,352.67835601896513,352.67835601896513,,,,,,,,,,,,,,,,,,,,,,,,,,,,,,,,,,,,,,,,,,,,,,,,,,,,,,,,,,,,,,,,,,,,21144,2022-11-01_14h00.02.123,vts_reward_expectancy_bt_OFFLINE,2022.2.4,59.88166592810423,
0,1,0,0,0,0,0,1,circle,star,1,0,1,0,2,1,25,5,,,,,,,,,,,,,,,,,,,,,,,,,,,,,,,,,,,,,,,,353.1803613899974,353.1803613899974,353.1803613899974,353.1803613899974,353.1803613899974,353.1803613899974,353.1803613899974,353.1803613899974,353.1803613899974,353.1803613899974,l,1.7207140099490061,1,352,1,354.93180957296863,356.43141588696744,356.43141588696744,,,,,,,,,,,,,,,,,,,,,,,,,,,,,,,,,,,,,,,,,,,,,,,,,,,,,,,,,,,,,,,,,,,,21144,2022-11-01_14h00.02.123,vts_reward_expectancy_bt_OFFLINE,2022.2.4,59.88166592810423,
1,0,0,0,0,0,1,0,triangle,hexagon,1,0,1,0,2,2,26,1,,,,,,,,,,,,,,,,,,,,,,,,,,,,,,,,,,,,,,,,356.9316516109975,356.9316516109975,356.9316516109975,356.9316516109975,356.9316516109975,356.9316516109975,356.9316516109975,356.9316516109975,356.9316516109975,356.9316516109975,a,1.8810810649301857,10,362,1,358.83485301502515,360.33474457799457,360.33474457799457,360.8347652719822,,,,,,,,,,,,,,,,,,,,,,,,,,,,,,,,,,,,,,,,,,,,,,,,,,,,,,,,,,,,,,,,,,,21144,2022-11-01_14h00.02.123,vts_reward_expectancy_bt_OFFLINE,2022.2.4,59.88166592810423,
0,1,0,0,0,0,1,0,circle,hexagon,1,0,1,0,2,3,27,4,,,,,,,,,,,,,,,,,,,,,,,,,,,,,,,,,,,,,,,,360.8347652719822,360.8347652719822,360.8347652719822,360.8347652719822,360.8347652719822,360.8347652719822,360.8347652719822,360.8347652719822,360.8347652719822,360.8347652719822,a,1.442100136890076,10,372,1,362.30201952008065,,363.80453931202646,,,,,,,,,,,,,,,,,,,,,,,,,,,,,,,,,,,,,,,,,,,,,,,,,,,,,,,,,,,,,,,,,,,,21144,2022-11-01_14h00.02.123,vts_reward_expectancy_bt_OFFLINE,2022.2.4,59.88166592810423,
0,0,1,0,0,1,0,0,hexagon,circle,1,0,1,0,2,4,28,7,,,,,,,,,,,,,,,,,,,,,,,,,,,,,,,,,,,,,,,,364.30467805999797,364.30467805999797,364.30467805999797,364.30467805999797,364.30467805999797,364.30467805999797,364.30467805999797,364.30467805999797,364.30467805999797,364.30467805999797,l,1.4519686579005793,10,382,1,365.78824082307983,367.28912320302334,367.28912320302334,367.78909595205914,,,,,,,,,,,,,,,,,,,,,,,,,,,,,,,,,,,,,,,,,,,,,,,,,,,,,,,,,,,,,,,,,,,21144,2022-11-01_14h00.02.123,vts_reward_expectancy_bt_OFFLINE,2022.2.4,59.88166592810423,
0,0,1,0,0,0,0,1,hexagon,star,1,0,1,0,2,5,29,8,,,,,,,,,,,,,,,,,,,,,,,,,,,,,,,,,,,,,,,,367.78909595205914,367.78909595205914,367.78909595205914,367.78909595205914,367.78909595205914,367.78909595205914,367.78909595205914,367.78909595205914,367.78909595205914,367.78909595205914,a,1.352457259898074,1,383,1,369.15955154807307,370.65887522301637,370.65887522301637,371.15867400402203,,,,,,,,,,,,,,,,,,,,,,,,,,,,,,,,,,,,,,,,,,,,,,,,,,,,,,,,,,,,,,,,,,,21144,2022-11-01_14h00.02.123,vts_reward_expectancy_bt_OFFLINE,2022.2.4,59.88166592810423,
0,0,0,1,1,0,0,0,star,triangle,1,0,1,0,2,6,30,9,,,,,,,,,,,,,,,,,,,,,,,,,,,,,,,,,,,,,,,,371.15867400402203,371.15867400402203,371.15867400402203,371.15867400402203,371.15867400402203,371.15867400402203,371.15867400402203,371.15867400402203,371.15867400402203,371.15867400402203,a,0.9018886799458414,1,384,1,372.0926284310408,,373.5949470170308,,,,,,,,,,,,,,,,,,,,,,,,,,,,,,,,,,,,,,,,,,,,,,,,,,,,,,,,,,,,,,,,,,,,21144,2022-11-01_14h00.02.123,vts_reward_expectancy_bt_OFFLINE,2022.2.4,59.88166592810423,
0,0,0,1,0,1,0,0,star ,circle,1,0,1,0,2,7,31,10,,,,,,,,,,,,,,,,,,,,,,,,,,,,,,,,,,,,,,,,374.0951729629887,374.0951729629887,374.0951729629887,374.0951729629887,374.0951729629887,374.0951729629887,374.0951729629887,374.0951729629887,374.0951729629887,374.0951729629887,l,0.5106215259293094,1,385,1,374.6288272229722,376.1293872600654,376.1293872600654,376.6293992049759,,,,,,,,,,,,,,,,,,,,,,,,,,,,,,,,,,,,,,,,,,,,,,,,,,,,,,,,,,,,,,,,,,,21144,2022-11-01_14h00.02.123,vts_reward_expectancy_bt_OFFLINE,2022.2.4,59.88166592810423,
0,0,1,0,1,0,0,0,hexagon,triangle,1,0,1,0,2,8,32,6,,,,,,,,,,,,,,,,,,,,,,,,,,,,,,,,,,,,,,,,376.6293992049759,376.6293992049759,376.6293992049759,376.6293992049759,376.6293992049759,376.6293992049759,376.6293992049759,376.6293992049759,376.6293992049759,376.6293992049759,l,1.4550661619286984,10,395,1,378.11594758497085,379.6158675600309,379.6158675600309,,,,,,,,,,,,,,,,,,,,,,,,,,,,,,,,,,,,,,,,,,,,,,,,,,,,,,,,,,,,,,,,,,,,21144,2022-11-01_14h00.02.123,vts_reward_expectancy_bt_OFFLINE,2022.2.4,59.88166592810423,
1,0,0,0,0,1,0,0,triangle,circle,1,0,1,0,2,9,33,0,,,,,,,,,,,,,,,,,,,,,,,,,,,,,,,,,,,,,,,,380.1158550879918,380.1158550879918,380.1158550879918,380.1158550879918,380.1158550879918,380.1158550879918,380.1158550879918,380.1158550879918,380.1158550879918,380.1158550879918,l,1.249336463981308,1,396,1,381.38391135504935,382.8833395700203,382.8833395700203,,,,,,,,,,,,,,,,,,,,,,,,,,,,,,,,,,,,,,,,,,,,,,,,,,,,,,,,,,,,,,,,,,,,21144,2022-11-01_14h00.02.123,vts_reward_expectancy_bt_OFFLINE,2022.2.4,59.88166592810423,
1,0,0,0,0,0,0,1,triangle,star,1,0,1,0,2,10,34,2,,,,,,,,,,,,,,,,,,,,,,,,,,,,,,,,,,,,,,,,383.38552669400815,383.38552669400815,383.38552669400815,383.38552669400815,383.38552669400815,383.38552669400815,383.38552669400815,383.38552669400815,383.38552669400815,383.38552669400815,a,0.6431598889175802,10,406,1,384.05396427202504,385.55287754302844,385.55287754302844,386.05314192397054,,,,,,,,,,,,,,,,,,,,,,,,,,,,,,,,,,,,,,,,,,,,,,,,,,,,,,,,,,,,,,,,,,,21144,2022-11-01_14h00.02.123,vts_reward_expectancy_bt_OFFLINE,2022.2.4,59.88166592810423,
0,0,0,1,0,0,1,0,star,hexagon,1,0,1,0,2,11,35,11,,,,,,,,,,,,,,,,,,,,,,,,,,,,,,,,,,,,,,,,386.05314192397054,386.05314192397054,386.05314192397054,386.05314192397054,386.05314192397054,386.05314192397054,386.05314192397054,386.05314192397054,386.05314192397054,386.05314192397054,a,1.3838225608924404,1,407,1,387.45492871606257,,388.9560982780531,,,,,,,,,,,,,,,,,,,,,,,,,,,,,,,,,,,,,,,,,,,,,,,,,,,,,,,,,,,,,,,,,,,,21144,2022-11-01_14h00.02.123,vts_reward_expectancy_bt_OFFLINE,2022.2.4,59.88166592810423,
0,0,0,1,0,1,0,0,star ,circle,1,0,1,0,3,0,36,10,,,,,,,,,,,,,,,,,,,,,,,,,,,,,,,,,,,,,,,,389.45623094798066,389.45623094798066,389.45623094798066,389.45623094798066,389.45623094798066,389.45623094798066,389.45623094798066,389.45623094798066,389.45623094798066,389.45623094798066,l,1.0608715889975429,10,417,1,390.54101511999033,392.04053848504554,392.04053848504554,392.54062054597307,,,,,,,,,,,,,,,,,,,,,,,,,,,,,,,,,,,,,,,,,,,,,,,,,,,,,,,,,,,,,,,,,,,21144,2022-11-01_14h00.02.123,vts_reward_expectancy_bt_OFFLINE,2022.2.4,59.88166592810423,
1,0,0,0,0,0,1,0,triangle,hexagon,1,0,1,0,3,1,37,1,,,,,,,,,,,,,,,,,,,,,,,,,,,,,,,,,,,,,,,,392.54062054597307,392.54062054597307,392.54062054597307,392.54062054597307,392.54062054597307,392.54062054597307,392.54062054597307,392.54062054597307,392.54062054597307,392.54062054597307,a,3.640417244983837,1,418,1,396.21165087400004,397.7110923209693,397.7110923209693,,,,,,,,,,,,,,,,,,,,,,,,,,,,,,,,,,,,,,,,,,,,,,,,,,,,,,,,,,,,,,,,,,,,21144,2022-11-01_14h00.02.123,vts_reward_expectancy_bt_OFFLINE,2022.2.4,59.88166592810423,
0,0,1,0,0,1,0,0,hexagon,circle,1,0,1,0,3,2,38,7,,,,,,,,,,,,,,,,,,,,,,,,,,,,,,,,,,,,,,,,398.2131656979909,398.2131656979909,398.2131656979909,398.2131656979909,398.2131656979909,398.2131656979909,398.2131656979909,398.2131656979909,398.2131656979909,398.2131656979909,l,1.455565289943479,10,428,1,399.69804475002456,401.1974165029824,401.1974165029824,401.69751653796993,,,,,,,,,,,,,,,,,,,,,,,,,,,,,,,,,,,,,,,,,,,,,,,,,,,,,,,,,,,,,,,,,,,21144,2022-11-01_14h00.02.123,vts_reward_expectancy_bt_OFFLINE,2022.2.4,59.88166592810423,
0,0,0,1,1,0,0,0,star,triangle,1,0,1,0,3,3,39,9,,,,,,,,,,,,,,,,,,,,,,,,,,,,,,,,,,,,,,,,401.69751653796993,401.69751653796993,401.69751653796993,401.69751653796993,401.69751653796993,401.69751653796993,401.69751653796993,401.69751653796993,401.69751653796993,401.69751653796993,l,2.923508211853914,10,438,1,404.6504451549845,406.15107251901645,406.15107251901645,406.6513141549658,,,,,,,,,,,,,,,,,,,,,,,,,,,,,,,,,,,,,,,,,,,,,,,,,,,,,,,,,,,,,,,,,,,21144,2022-11-01_14h00.02.123,vts_reward_expectancy_bt_OFFLINE,2022.2.4,59.88166592810423,
0,1,0,0,0,0,0,1,circle,star,1,0,1,0,3,4,40,5,,,,,,,,,,,,,,,,,,,,,,,,,,,,,,,,,,,,,,,,406.6513141549658,406.6513141549658,406.6513141549658,406.6513141549658,406.6513141549658,406.6513141549658,406.6513141549658,406.6513141549658,406.6513141549658,406.6513141549658,l,1.370061046909541,1,439,1,408.0402945970418,,409.55421737907454,,,,,,,,,,,,,,,,,,,,,,,,,,,,,,,,,,,,,,,,,,,,,,,,,,,,,,,,,,,,,,,,,,,,21144,2022-11-01_14h00.02.123,vts_reward_expectancy_bt_OFFLINE,2022.2.4,59.88166592810423,
0,0,1,0,1,0,0,0,hexagon,triangle,1,0,1,0,3,5,41,6,,,,,,,,,,,,,,,,,,,,,,,,,,,,,,,,,,,,,,,,410.054295954993,410.054295954993,410.054295954993,410.054295954993,410.054295954993,410.054295954993,410.054295954993,410.054295954993,410.054295954993,410.054295954993,a,4.519110700930469,1,440,1,414.59121592203155,416.09159772703424,416.09159772703424,416.5918416400673,,,,,,,,,,,,,,,,,,,,,,,,,,,,,,,,,,,,,,,,,,,,,,,,,,,,,,,,,,,,,,,,,,,21144,2022-11-01_14h00.02.123,vts_reward_expectancy_bt_OFFLINE,2022.2.4,59.88166592810423,
0,0,1,0,0,0,0,1,hexagon,star,1,0,1,0,3,6,42,8,,,,,,,,,,,,,,,,,,,,,,,,,,,,,,,,,,,,,,,,416.5918416400673,416.5918416400673,416.5918416400673,416.5918416400673,416.5918416400673,416.5918416400673,416.5918416400673,416.5918416400673,416.5918416400673,416.5918416400673,l,1.637087763985619,1,441,1,418.26083060598467,419.76154909003526,419.76154909003526,420.2616356010549,,,,,,,,,,,,,,,,,,,,,,,,,,,,,,,,,,,,,,,,,,,,,,,,,,,,,,,,,,,,,,,,,,,21144,2022-11-01_14h00.02.123,vts_reward_expectancy_bt_OFFLINE,2022.2.4,59.88166592810423,
0,1,0,0,0,0,1,0,circle,hexagon,1,0,1,0,3,7,43,4,,,,,,,,,,,,,,,,,,,,,,,,,,,,,,,,,,,,,,,,420.2616356010549,420.2616356010549,420.2616356010549,420.2616356010549,420.2616356010549,420.2616356010549,420.2616356010549,420.2616356010549,420.2616356010549,420.2616356010549,a,1.3275126769440249,1,442,1,421.6122585160192,,423.11436193296686,,,,,,,,,,,,,,,,,,,,,,,,,,,,,,,,,,,,,,,,,,,,,,,,,,,,,,,,,,,,,,,,,,,,21144,2022-11-01_14h00.02.123,vts_reward_expectancy_bt_OFFLINE,2022.2.4,59.88166592810423,
0,0,0,1,0,0,1,0,star,hexagon,1,0,1,0,3,8,44,11,,,,,,,,,,,,,,,,,,,,,,,,,,,,,,,,,,,,,,,,423.6145671369741,423.6145671369741,423.6145671369741,423.6145671369741,423.6145671369741,423.6145671369741,423.6145671369741,423.6145671369741,423.6145671369741,423.6145671369741,a,2.2305233359802514,10,452,1,425.86667587503325,,427.36611133103725,427.86616847198457,,,,,,,,,,,,,,,,,,,,,,,,,,,,,,,,,,,,,,,,,,,,,,,,,,,,,,,,,,,,,,,,,,,21144,2022-11-01_14h00.02.123,vts_reward_expectancy_bt_OFFLINE,2022.2.4,59.88166592810423,
1,0,0,0,0,0,0,1,triangle,star,1,0,1,0,3,9,45,2,,,,,,,,,,,,,,,,,,,,,,,,,,,,,,,,,,,,,,,,427.86616847198457,427.86616847198457,427.86616847198457,427.86616847198457,427.86616847198457,427.86616847198457,427.86616847198457,427.86616847198457,427.86616847198457,427.86616847198457,l,2.4274602229706943,10,462,1,430.31927520700265,431.8195458840346,431.8195458840346,432.319736354053,,,,,,,,,,,,,,,,,,,,,,,,,,,,,,,,,,,,,,,,,,,,,,,,,,,,,,,,,,,,,,,,,,,21144,2022-11-01_14h00.02.123,vts_reward_expectancy_bt_OFFLINE,2022.2.4,59.88166592810423,
1,0,0,0,0,1,0,0,triangle,circle,1,0,1,0,3,10,46,0,,,,,,,,,,,,,,,,,,,,,,,,,,,,,,,,,,,,,,,,432.319736354053,432.319736354053,432.319736354053,432.319736354053,432.319736354053,432.319736354053,432.319736354053,432.319736354053,432.319736354053,432.319736354053,a,1.221291567897424,10,472,1,433.5717786679743,435.07249938696623,435.07249938696623,,,,,,,,,,,,,,,,,,,,,,,,,,,,,,,,,,,,,,,,,,,,,,,,,,,,,,,,,,,,,,,,,,,,21144,2022-11-01_14h00.02.123,vts_reward_expectancy_bt_OFFLINE,2022.2.4,59.88166592810423,
0,1,0,0,1,0,0,0,circle,triangle,1,0,1,0,3,11,47,3,,,,,,,,,,,,,,,,,,,,,,,,,,,,,,,,,,,,,,,,435.5725507760653,435.5725507760653,435.5725507760653,435.5725507760653,435.5725507760653,435.5725507760653,435.5725507760653,435.5725507760653,435.5725507760653,435.5725507760653,l,4.288443933008239,10,482,1,439.89268126303796,441.39318236208055,441.39318236208055,441.8986288330052,,,,,,,,,,,,,,,,,,,,,,,,,,,,,,,,,,,,,,,,,,,,,,,,,,,,,,,,,,,,,,,,,,,21144,2022-11-01_14h00.02.123,vts_reward_expectancy_bt_OFFLINE,2022.2.4,59.88166592810423,
1,0,0,0,0,0,0,1,triangle,star,2,0,2,0,0,0,0,2,,,,,,,,,,,,,,,,,,,,,,,,,,,,,,,,,,,,,,,,452.9122038789792,452.9122038789792,452.9122038789792,452.9122038789792,452.9122038789792,452.9122038789792,452.9122038789792,452.9122038789792,452.9122038789792,452.9122038789792,a,1.309123968007043,10,492,2,454.25342694704887,455.75416244205553,455.75416244205553,456.2540680289967,,,,,,,,,,,,,,,,,,,,,,,,,,,,,,,,,,,,,,,,,,,,,,,,,,,,,,,,,,,,,,,,,,,21144,2022-11-01_14h00.02.123,vts_reward_expectancy_bt_OFFLINE,2022.2.4,59.88166592810423,
0,0,0,1,0,0,1,0,star,hexagon,2,0,2,0,0,1,1,11,,,,,,,,,,,,,,,,,,,,,,,,,,,,,,,,,,,,,,,,456.2540680289967,456.2540680289967,456.2540680289967,456.2540680289967,456.2540680289967,456.2540680289967,456.2540680289967,456.2540680289967,456.2540680289967,456.2540680289967,a,1.503259590943344,1,493,2,457.78925338806584,,459.2906855730107,,,,,,,,,,,,,,,,,,,,,,,,,,,,,,,,,,,,,,,,,,,,,,,,,,,,,,,,,,,,,,,,,,,,21144,2022-11-01_14h00.02.123,vts_reward_expectancy_bt_OFFLINE,2022.2.4,59.88166592810423,
0,0,1,0,0,0,0,1,hexagon,star,2,0,2,0,0,2,2,8,,,,,,,,,,,,,,,,,,,,,,,,,,,,,,,,,,,,,,,,459.79057223605923,459.79057223605923,459.79057223605923,459.79057223605923,459.79057223605923,459.79057223605923,459.79057223605923,459.79057223605923,459.79057223605923,459.79057223605923,l,7.343001900007948,1,494,2,467.1616438840283,,468.6640684470767,,,,,,,,,,,,,,,,,,,,,,,,,,,,,,,,,,,,,,,,,,,,,,,,,,,,,,,,,,,,,,,,,,,,21144,2022-11-01_14h00.02.123,vts_reward_expectancy_bt_OFFLINE,2022.2.4,59.88166592810423,
0,1,0,0,1,0,0,0,circle,triangle,2,0,2,0,0,3,3,3,,,,,,,,,,,,,,,,,,,,,,,,,,,,,,,,,,,,,,,,469.1644412439782,469.1644412439782,469.1644412439782,469.1644412439782,469.1644412439782,469.1644412439782,469.1644412439782,469.1644412439782,469.1644412439782,469.1644412439782,l,1.5927954318467528,10,504,2,470.78266195300967,472.28225539799314,472.28225539799314,,,,,,,,,,,,,,,,,,,,,,,,,,,,,,,,,,,,,,,,,,,,,,,,,,,,,,,,,,,,,,,,,,,,21144,2022-11-01_14h00.02.123,vts_reward_expectancy_bt_OFFLINE,2022.2.4,59.88166592810423,
0,0,0,1,1,0,0,0,star,triangle,2,0,2,0,0,4,4,9,,,,,,,,,,,,,,,,,,,,,,,,,,,,,,,,,,,,,,,,472.78193983098026,472.78193983098026,472.78193983098026,472.78193983098026,472.78193983098026,472.78193983098026,472.78193983098026,472.78193983098026,472.78193983098026,472.78193983098026,a,3.6637895859312266,1,505,2,476.4702797840582,,477.98589011107106,,,,,,,,,,,,,,,,,,,,,,,,,,,,,,,,,,,,,,,,,,,,,,,,,,,,,,,,,,,,,,,,,,,,21144,2022-11-01_14h00.02.123,vts_reward_expectancy_bt_OFFLINE,2022.2.4,59.88166592810423,
0,0,0,1,0,1,0,0,star ,circle,2,0,2,0,0,5,5,10,,,,,,,,,,,,,,,,,,,,,,,,,,,,,,,,,,,,,,,,478.47128858207725,478.47128858207725,478.47128858207725,478.47128858207725,478.47128858207725,478.47128858207725,478.47128858207725,478.47128858207725,478.47128858207725,478.47128858207725,a,1.0302292659180239,1,506,2,479.5218420610763,481.02225347596686,481.02225347596686,481.5222382909851,,,,,,,,,,,,,,,,,,,,,,,,,,,,,,,,,,,,,,,,,,,,,,,,,,,,,,,,,,,,,,,,,,,21144,2022-11-01_14h00.02.123,vts_reward_expectancy_bt_OFFLINE,2022.2.4,59.88166592810423,
0,1,0,0,0,0,1,0,circle,hexagon,2,0,2,0,0,6,6,4,,,,,,,,,,,,,,,,,,,,,,,,,,,,,,,,,,,,,,,,481.5222382909851,481.5222382909851,481.5222382909851,481.5222382909851,481.5222382909851,481.5222382909851,481.5222382909851,481.5222382909851,481.5222382909851,481.5222382909851,a,1.1073463109787554,1,507,2,482.65602923801634,,484.1585666820174,,,,,,,,,,,,,,,,,,,,,,,,,,,,,,,,,,,,,,,,,,,,,,,,,,,,,,,,,,,,,,,,,,,,21144,2022-11-01_14h00.02.123,vts_reward_expectancy_bt_OFFLINE,2022.2.4,59.88166592810423,
0,0,1,0,0,1,0,0,hexagon,circle,2,0,2,0,0,7,7,7,,,,,,,,,,,,,,,,,,,,,,,,,,,,,,,,,,,,,,,,484.65868036600295,484.65868036600295,484.65868036600295,484.65868036600295,484.65868036600295,484.65868036600295,484.65868036600295,484.65868036600295,484.65868036600295,484.65868036600295,l,2.802716451929882,1,508,2,487.49308665201534,,488.99541509500705,,,,,,,,,,,,,,,,,,,,,,,,,,,,,,,,,,,,,,,,,,,,,,,,,,,,,,,,,,,,,,,,,,,,21144,2022-11-01_14h00.02.123,vts_reward_expectancy_bt_OFFLINE,2022.2.4,59.88166592810423,
0,1,0,0,0,0,0,1,circle,star,2,0,2,0,0,8,8,5,,,,,,,,,,,,,,,,,,,,,,,,,,,,,,,,,,,,,,,,489.4956598649733,489.4956598649733,489.4956598649733,489.4956598649733,489.4956598649733,489.4956598649733,489.4956598649733,489.4956598649733,489.4956598649733,489.4956598649733,l,1.1416153068421409,1,509,2,490.662766413996,492.16351512400433,492.16351512400433,,,,,,,,,,,,,,,,,,,,,,,,,,,,,,,,,,,,,,,,,,,,,,,,,,,,,,,,,,,,,,,,,,,,21144,2022-11-01_14h00.02.123,vts_reward_expectancy_bt_OFFLINE,2022.2.4,59.88166592810423,
0,0,1,0,1,0,0,0,hexagon,triangle,2,0,2,0,0,9,9,6,,,,,,,,,,,,,,,,,,,,,,,,,,,,,,,,,,,,,,,,492.66349905496463,492.66349905496463,492.66349905496463,492.66349905496463,492.66349905496463,492.66349905496463,492.66349905496463,492.66349905496463,492.66349905496463,492.66349905496463,a,4.637190071982332,1,510,2,497.3336619819747,,498.8360853990307,,,,,,,,,,,,,,,,,,,,,,,,,,,,,,,,,,,,,,,,,,,,,,,,,,,,,,,,,,,,,,,,,,,,21144,2022-11-01_14h00.02.123,vts_reward_expectancy_bt_OFFLINE,2022.2.4,59.88166592810423,
1,0,0,0,0,1,0,0,triangle,circle,2,0,2,0,0,10,10,0,,,,,,,,,,,,,,,,,,,,,,,,,,,,,,,,,,,,,,,,499.3361244769767,499.3361244769767,499.3361244769767,499.3361244769767,499.3361244769767,499.3361244769767,499.3361244769767,499.3361244769767,499.3361244769767,499.3361244769767,a,1.348406292963773,1,511,2,500.70339282404166,502.2041156080086,502.2041156080086,,,,,,,,,,,,,,,,,,,,,,,,,,,,,,,,,,,,,,,,,,,,,,,,,,,,,,,,,,,,,,,,,,,,21144,2022-11-01_14h00.02.123,vts_reward_expectancy_bt_OFFLINE,2022.2.4,59.88166592810423,
1,0,0,0,0,0,1,0,triangle,hexagon,2,0,2,0,0,11,11,1,,,,,,,,,,,,,,,,,,,,,,,,,,,,,,,,,,,,,,,,502.70413272699807,502.70413272699807,502.70413272699807,502.70413272699807,502.70413272699807,502.70413272699807,502.70413272699807,502.70413272699807,502.70413272699807,502.70413272699807,l,3.18154295894783,10,521,2,505.90835375501774,507.4076599549735,507.4076599549735,507.9077077789698,,,,,,,,,,,,,,,,,,,,,,,,,,,,,,,,,,,,,,,,,,,,,,,,,,,,,,,,,,,,,,,,,,,21144,2022-11-01_14h00.02.123,vts_reward_expectancy_bt_OFFLINE,2022.2.4,59.88166592810423,
0,1,0,0,1,0,0,0,circle,triangle,2,0,2,0,1,0,12,3,,,,,,,,,,,,,,,,,,,,,,,,,,,,,,,,,,,,,,,,507.9077077789698,507.9077077789698,507.9077077789698,507.9077077789698,507.9077077789698,507.9077077789698,507.9077077789698,507.9077077789698,507.9077077789698,507.9077077789698,l,1.4653395218774676,10,531,2,509.3935525449924,510.8939948080806,510.8939948080806,511.39405774406623,,,,,,,,,,,,,,,,,,,,,,,,,,,,,,,,,,,,,,,,,,,,,,,,,,,,,,,,,,,,,,,,,,,21144,2022-11-01_14h00.02.123,vts_reward_expectancy_bt_OFFLINE,2022.2.4,59.88166592810423,
0,0,1,0,0,1,0,0,hexagon,circle,2,0,2,0,1,1,13,7,,,,,,,,,,,,,,,,,,,,,,,,,,,,,,,,,,,,,,,,511.39405774406623,511.39405774406623,511.39405774406623,511.39405774406623,511.39405774406623,511.39405774406623,511.39405774406623,511.39405774406623,511.39405774406623,511.39405774406623,l,2.219474588986486,1,532,2,513.6319406260736,,515.1474639360094,,,,,,,,,,,,,,,,,,,,,,,,,,,,,,,,,,,,,,,,,,,,,,,,,,,,,,,,,,,,,,,,,,,,21144,2022-11-01_14h00.02.123,vts_reward_expectancy_bt_OFFLINE,2022.2.4,59.88166592810423,
0,0,0,1,1,0,0,0,star,triangle,2,0,2,0,1,2,14,9,,,,,,,,,,,,,,,,,,,,,,,,,,,,,,,,,,,,,,,,515.6475136399968,515.6475136399968,515.6475136399968,515.6475136399968,515.6475136399968,515.6475136399968,515.6475136399968,515.6475136399968,515.6475136399968,515.6475136399968,a,2.9336771609960124,10,542,2,518.6015108260326,,520.101088121999,,,,,,,,,,,,,,,,,,,,,,,,,,,,,,,,,,,,,,,,,,,,,,,,,,,,,,,,,,,,,,,,,,,,21144,2022-11-01_14h00.02.123,vts_reward_expectancy_bt_OFFLINE,2022.2.4,59.88166592810423,
0,1,0,0,0,0,1,0,circle,hexagon,2,0,2,0,1,3,15,4,,,,,,,,,,,,,,,,,,,,,,,,,,,,,,,,,,,,,,,,520.6012692180229,520.6012692180229,520.6012692180229,520.6012692180229,520.6012692180229,520.6012692180229,520.6012692180229,520.6012692180229,520.6012692180229,520.6012692180229,a,4.755966430995613,1,543,2,525.3897607839899,526.8886998950038,526.8886998950038,527.3889100659871,,,,,,,,,,,,,,,,,,,,,,,,,,,,,,,,,,,,,,,,,,,,,,,,,,,,,,,,,,,,,,,,,,,21144,2022-11-01_14h00.02.123,vts_reward_expectancy_bt_OFFLINE,2022.2.4,59.88166592810423,
1,0,0,0,0,0,1,0,triangle,hexagon,2,0,2,0,1,4,16,1,,,,,,,,,,,,,,,,,,,,,,,,,,,,,,,,,,,,,,,,527.3889100659871,527.3889100659871,527.3889100659871,527.3889100659871,527.3889100659871,527.3889100659871,527.3889100659871,527.3889100659871,527.3889100659871,527.3889100659871,l,2.5516810718690977,1,544,2,529.9582840370713,531.4586613060674,531.4586613060674,531.9589008420007,,,,,,,,,,,,,,,,,,,,,,,,,,,,,,,,,,,,,,,,,,,,,,,,,,,,,,,,,,,,,,,,,,,21144,2022-11-01_14h00.02.123,vts_reward_expectancy_bt_OFFLINE,2022.2.4,59.88166592810423,
0,0,1,0,0,0,0,1,hexagon,star,2,0,2,0,1,5,17,8,,,,,,,,,,,,,,,,,,,,,,,,,,,,,,,,,,,,,,,,531.9589008420007,531.9589008420007,531.9589008420007,531.9589008420007,531.9589008420007,531.9589008420007,531.9589008420007,531.9589008420007,531.9589008420007,531.9589008420007,a,5.286250184988603,10,554,2,537.2642815280706,,538.7648966250708,,,,,,,,,,,,,,,,,,,,,,,,,,,,,,,,,,,,,,,,,,,,,,,,,,,,,,,,,,,,,,,,,,,,21144,2022-11-01_14h00.02.123,vts_reward_expectancy_bt_OFFLINE,2022.2.4,59.88166592810423,
0,0,0,1,0,0,1,0,star,hexagon,2,0,2,0,1,6,18,11,,,,,,,,,,,,,,,,,,,,,,,,,,,,,,,,,,,,,,,,539.2650896080304,539.2650896080304,539.2650896080304,539.2650896080304,539.2650896080304,539.2650896080304,539.2650896080304,539.2650896080304,539.2650896080304,539.2650896080304,a,2.77945411298424,1,555,2,542.0679593610112,,543.5686577690067,,,,,,,,,,,,,,,,,,,,,,,,,,,,,,,,,,,,,,,,,,,,,,,,,,,,,,,,,,,,,,,,,,,,21144,2022-11-01_14h00.02.123,vts_reward_expectancy_bt_OFFLINE,2022.2.4,59.88166592810423,
1,0,0,0,0,0,0,1,triangle,star,2,0,2,0,1,7,19,2,,,,,,,,,,,,,,,,,,,,,,,,,,,,,,,,,,,,,,,,544.0688746609958,544.0688746609958,544.0688746609958,544.0688746609958,544.0688746609958,544.0688746609958,544.0688746609958,544.0688746609958,544.0688746609958,544.0688746609958,l,0.9041818409459665,10,565,2,545.0042401009705,,546.5196618520422,,,,,,,,,,,,,,,,,,,,,,,,,,,,,,,,,,,,,,,,,,,,,,,,,,,,,,,,,,,,,,,,,,,,21144,2022-11-01_14h00.02.123,vts_reward_expectancy_bt_OFFLINE,2022.2.4,59.88166592810423,
0,1,0,0,0,0,0,1,circle,star,2,0,2,0,1,8,20,5,,,,,,,,,,,,,,,,,,,,,,,,,,,,,,,,,,,,,,,,547.0199295930797,547.0199295930797,547.0199295930797,547.0199295930797,547.0199295930797,547.0199295930797,547.0199295930797,547.0199295930797,547.0199295930797,547.0199295930797,a,1.3447613179450855,1,566,2,548.3904993990436,,549.9062428299803,,,,,,,,,,,,,,,,,,,,,,,,,,,,,,,,,,,,,,,,,,,,,,,,,,,,,,,,,,,,,,,,,,,,21144,2022-11-01_14h00.02.123,vts_reward_expectancy_bt_OFFLINE,2022.2.4,59.88166592810423,
1,0,0,0,0,1,0,0,triangle,circle,2,0,2,0,1,9,21,0,,,,,,,,,,,,,,,,,,,,,,,,,,,,,,,,,,,,,,,,550.4063455209835,550.4063455209835,550.4063455209835,550.4063455209835,550.4063455209835,550.4063455209835,550.4063455209835,550.4063455209835,550.4063455209835,550.4063455209835,a,3.182461413904093,1,567,2,553.6092058080249,555.1099487310275,555.1099487310275,,,,,,,,,,,,,,,,,,,,,,,,,,,,,,,,,,,,,,,,,,,,,,,,,,,,,,,,,,,,,,,,,,,,21144,2022-11-01_14h00.02.123,vts_reward_expectancy_bt_OFFLINE,2022.2.4,59.88166592810423,
0,0,0,1,0,1,0,0,star ,circle,2,0,2,0,1,10,22,10,,,,,,,,,,,,,,,,,,,,,,,,,,,,,,,,,,,,,,,,555.6099176349817,555.6099176349817,555.6099176349817,555.6099176349817,555.6099176349817,555.6099176349817,555.6099176349817,555.6099176349817,555.6099176349817,555.6099176349817,a,1.467436870909296,1,568,2,557.0939546250738,,558.5961499590194,,,,,,,,,,,,,,,,,,,,,,,,,,,,,,,,,,,,,,,,,,,,,,,,,,,,,,,,,,,,,,,,,,,,21144,2022-11-01_14h00.02.123,vts_reward_expectancy_bt_OFFLINE,2022.2.4,59.88166592810423,
0,0,1,0,1,0,0,0,hexagon,triangle,2,0,2,0,1,11,23,6,,,,,,,,,,,,,,,,,,,,,,,,,,,,,,,,,,,,,,,,559.096502371016,559.096502371016,559.096502371016,559.096502371016,559.096502371016,559.096502371016,559.096502371016,559.096502371016,559.096502371016,559.096502371016,l,1.2285710378782824,1,569,2,560.3469110690057,561.8473643100588,561.8473643100588,562.3475741220172,,,,,,,,,,,,,,,,,,,,,,,,,,,,,,,,,,,,,,,,,,,,,,,,,,,,,,,,,,,,,,,,,,,21144,2022-11-01_14h00.02.123,vts_reward_expectancy_bt_OFFLINE,2022.2.4,59.88166592810423,
0,0,0,1,0,1,0,0,star ,circle,2,0,2,0,2,0,24,10,,,,,,,,,,,,,,,,,,,,,,,,,,,,,,,,,,,,,,,,562.3475741220172,562.3475741220172,562.3475741220172,562.3475741220172,562.3475741220172,562.3475741220172,562.3475741220172,562.3475741220172,562.3475741220172,562.3475741220172,l,1.63315685687121,10,579,2,564.001655237982,,565.5006770719774,,,,,,,,,,,,,,,,,,,,,,,,,,,,,,,,,,,,,,,,,,,,,,,,,,,,,,,,,,,,,,,,,,,,21144,2022-11-01_14h00.02.123,vts_reward_expectancy_bt_OFFLINE,2022.2.4,59.88166592810423,
1,0,0,0,0,0,1,0,triangle,hexagon,2,0,2,0,2,1,25,1,,,,,,,,,,,,,,,,,,,,,,,,,,,,,,,,,,,,,,,,566.000623430009,566.000623430009,566.000623430009,566.000623430009,566.000623430009,566.000623430009,566.000623430009,566.000623430009,566.000623430009,566.000623430009,l,2.0689517488935962,1,580,2,568.101228086045,,569.6039243310224,,,,,,,,,,,,,,,,,,,,,,,,,,,,,,,,,,,,,,,,,,,,,,,,,,,,,,,,,,,,,,,,,,,,21144,2022-11-01_14h00.02.123,vts_reward_expectancy_bt_OFFLINE,2022.2.4,59.88166592810423,
0,0,1,0,0,0,0,1,hexagon,star,2,0,2,0,2,2,26,8,,,,,,,,,,,,,,,,,,,,,,,,,,,,,,,,,,,,,,,,570.1039899160387,570.1039899160387,570.1039899160387,570.1039899160387,570.1039899160387,570.1039899160387,570.1039899160387,570.1039899160387,570.1039899160387,570.1039899160387,l,1.9496441798983142,1,581,2,572.0713363200193,,573.5735553300474,,,,,,,,,,,,,,,,,,,,,,,,,,,,,,,,,,,,,,,,,,,,,,,,,,,,,,,,,,,,,,,,,,,,21144,2022-11-01_14h00.02.123,vts_reward_expectancy_bt_OFFLINE,2022.2.4,59.88166592810423,
1,0,0,0,0,1,0,0,triangle,circle,2,0,2,0,2,3,27,0,,,,,,,,,,,,,,,,,,,,,,,,,,,,,,,,,,,,,,,,574.0739521899959,574.0739521899959,574.0739521899959,574.0739521899959,574.0739521899959,574.0739521899959,574.0739521899959,574.0739521899959,574.0739521899959,574.0739521899959,l,0.8194230848457664,1,582,2,574.9246856539976,576.425003523007,576.425003523007,576.9249796239892,,,,,,,,,,,,,,,,,,,,,,,,,,,,,,,,,,,,,,,,,,,,,,,,,,,,,,,,,,,,,,,,,,,21144,2022-11-01_14h00.02.123,vts_reward_expectancy_bt_OFFLINE,2022.2.4,59.88166592810423,
0,1,0,0,0,0,1,0,circle,hexagon,2,0,2,0,2,4,28,4,,,,,,,,,,,,,,,,,,,,,,,,,,,,,,,,,,,,,,,,576.9249796239892,576.9249796239892,576.9249796239892,576.9249796239892,576.9249796239892,576.9249796239892,576.9249796239892,576.9249796239892,576.9249796239892,576.9249796239892,a,1.2154993548756465,1,583,2,578.1640443890356,,579.6780337640084,,,,,,,,,,,,,,,,,,,,,,,,,,,,,,,,,,,,,,,,,,,,,,,,,,,,,,,,,,,,,,,,,,,,21144,2022-11-01_14h00.02.123,vts_reward_expectancy_bt_OFFLINE,2022.2.4,59.88166592810423,
1,0,0,0,0,0,0,1,triangle,star,2,0,2,0,2,5,29,2,,,,,,,,,,,,,,,,,,,,,,,,,,,,,,,,,,,,,,,,580.1782086059684,580.1782086059684,580.1782086059684,580.1782086059684,580.1782086059684,580.1782086059684,580.1782086059684,580.1782086059684,580.1782086059684,580.1782086059684,l,4.539295845897868,10,593,2,584.7498991109896,,586.2652864709962,,,,,,,,,,,,,,,,,,,,,,,,,,,,,,,,,,,,,,,,,,,,,,,,,,,,,,,,,,,,,,,,,,,,21144,2022-11-01_14h00.02.123,vts_reward_expectancy_bt_OFFLINE,2022.2.4,59.88166592810423,
0,0,1,0,1,0,0,0,hexagon,triangle,2,0,2,0,2,6,30,6,,,,,,,,,,,,,,,,,,,,,,,,,,,,,,,,,,,,,,,,586.7655522070127,586.7655522070127,586.7655522070127,586.7655522070127,586.7655522070127,586.7655522070127,586.7655522070127,586.7655522070127,586.7655522070127,586.7655522070127,a,2.359787362976931,1,594,2,589.1535233210307,,590.6689089350402,,,,,,,,,,,,,,,,,,,,,,,,,,,,,,,,,,,,,,,,,,,,,,,,,,,,,,,,,,,,,,,,,,,,21144,2022-11-01_14h00.02.123,vts_reward_expectancy_bt_OFFLINE,2022.2.4,59.88166592810423,
0,1,0,0,0,0,0,1,circle,star,2,0,2,0,2,7,31,5,,,,,,,,,,,,,,,,,,,,,,,,,,,,,,,,,,,,,,,,591.1690060370602,591.1690060370602,591.1690060370602,591.1690060370602,591.1690060370602,591.1690060370602,591.1690060370602,591.1690060370602,591.1690060370602,591.1690060370602,l,1.9715753549244255,10,604,2,593.162765296991,,594.671881432063,,,,,,,,,,,,,,,,,,,,,,,,,,,,,,,,,,,,,,,,,,,,,,,,,,,,,,,,,,,,,,,,,,,,21144,2022-11-01_14h00.02.123,vts_reward_expectancy_bt_OFFLINE,2022.2.4,59.88166592810423,
0,0,0,1,1,0,0,0,star,triangle,2,0,2,0,2,8,32,9,,,,,,,,,,,,,,,,,,,,,,,,,,,,,,,,,,,,,,,,595.1720129910391,595.1720129910391,595.1720129910391,595.1720129910391,595.1720129910391,595.1720129910391,595.1720129910391,595.1720129910391,595.1720129910391,595.1720129910391,l,2.1531881788978353,1,605,2,597.3577998330584,,598.8586041330127,,,,,,,,,,,,,,,,,,,,,,,,,,,,,,,,,,,,,,,,,,,,,,,,,,,,,,,,,,,,,,,,,,,,21144,2022-11-01_14h00.02.123,vts_reward_expectancy_bt_OFFLINE,2022.2.4,59.88166592810423,
0,0,0,1,0,0,1,0,star,hexagon,2,0,2,0,2,9,33,11,,,,,,,,,,,,,,,,,,,,,,,,,,,,,,,,,,,,,,,,599.3589454840403,599.3589454840403,599.3589454840403,599.3589454840403,599.3589454840403,599.3589454840403,599.3589454840403,599.3589454840403,599.3589454840403,599.3589454840403,a,0.9816502629546449,10,615,2,600.361249092035,,601.8766260310076,,,,,,,,,,,,,,,,,,,,,,,,,,,,,,,,,,,,,,,,,,,,,,,,,,,,,,,,,,,,,,,,,,,,21144,2022-11-01_14h00.02.123,vts_reward_expectancy_bt_OFFLINE,2022.2.4,59.88166592810423,
0,1,0,0,1,0,0,0,circle,triangle,2,0,2,0,2,10,34,3,,,,,,,,,,,,,,,,,,,,,,,,,,,,,,,,,,,,,,,,602.3768141400069,602.3768141400069,602.3768141400069,602.3768141400069,602.3768141400069,602.3768141400069,602.3768141400069,602.3768141400069,602.3768141400069,602.3768141400069,a,1.6998808898497373,10,625,2,604.0959360289853,605.5965970769757,605.5965970769757,,,,,,,,,,,,,,,,,,,,,,,,,,,,,,,,,,,,,,,,,,,,,,,,,,,,,,,,,,,,,,,,,,,,21144,2022-11-01_14h00.02.123,vts_reward_expectancy_bt_OFFLINE,2022.2.4,59.88166592810423,
0,0,1,0,0,1,0,0,hexagon,circle,2,0,2,0,2,11,35,7,,,,,,,,,,,,,,,,,,,,,,,,,,,,,,,,,,,,,,,,606.0966779589653,606.0966779589653,606.0966779589653,606.0966779589653,606.0966779589653,606.0966779589653,606.0966779589653,606.0966779589653,606.0966779589653,606.0966779589653,a,1.4442978688748553,1,626,2,607.5655547690112,,609.0660664279712,,,,,,,,,,,,,,,,,,,,,,,,,,,,,,,,,,,,,,,,,,,,,,,,,,,,,,,,,,,,,,,,,,,,21144,2022-11-01_14h00.02.123,vts_reward_expectancy_bt_OFFLINE,2022.2.4,59.88166592810423,
0,1,0,0,0,0,1,0,circle,hexagon,2,0,2,0,3,0,36,4,,,,,,,,,,,,,,,,,,,,,,,,,,,,,,,,,,,,,,,,609.5662278659875,609.5662278659875,609.5662278659875,609.5662278659875,609.5662278659875,609.5662278659875,609.5662278659875,609.5662278659875,609.5662278659875,609.5662278659875,a,2.1508221339900047,1,627,2,611.7336964530405,,613.2361356640467,,,,,,,,,,,,,,,,,,,,,,,,,,,,,,,,,,,,,,,,,,,,,,,,,,,,,,,,,,,,,,,,,,,,21144,2022-11-01_14h00.02.123,vts_reward_expectancy_bt_OFFLINE,2022.2.4,59.88166592810423,
0,0,1,0,0,1,0,0,hexagon,circle,2,0,2,0,3,1,37,7,,,,,,,,,,,,,,,,,,,,,,,,,,,,,,,,,,,,,,,,613.7363171200268,613.7363171200268,613.7363171200268,613.7363171200268,613.7363171200268,613.7363171200268,613.7363171200268,613.7363171200268,613.7363171200268,613.7363171200268,a,0.7646548829507083,10,637,2,614.5220682030777,,616.0371717510279,,,,,,,,,,,,,,,,,,,,,,,,,,,,,,,,,,,,,,,,,,,,,,,,,,,,,,,,,,,,,,,,,,,,21144,2022-11-01_14h00.02.123,vts_reward_expectancy_bt_OFFLINE,2022.2.4,59.88166592810423,
0,0,0,1,1,0,0,0,star,triangle,2,0,2,0,3,2,38,9,,,,,,,,,,,,,,,,,,,,,,,,,,,,,,,,,,,,,,,,616.5371500090696,616.5371500090696,616.5371500090696,616.5371500090696,616.5371500090696,616.5371500090696,616.5371500090696,616.5371500090696,616.5371500090696,616.5371500090696,l,1.2840876969275996,1,638,2,617.8540912870085,,619.3570056010503,,,,,,,,,,,,,,,,,,,,,,,,,,,,,,,,,,,,,,,,,,,,,,,,,,,,,,,,,,,,,,,,,,,,21144,2022-11-01_14h00.02.123,vts_reward_expectancy_bt_OFFLINE,2022.2.4,59.88166592810423,
0,0,1,0,1,0,0,0,hexagon,triangle,2,0,2,0,3,3,39,6,,,,,,,,,,,,,,,,,,,,,,,,,,,,,,,,,,,,,,,,619.8571076180087,619.8571076180087,619.8571076180087,619.8571076180087,619.8571076180087,619.8571076180087,619.8571076180087,619.8571076180087,619.8571076180087,619.8571076180087,l,1.89165575185325,1,639,2,621.7743135649944,,623.2769142580219,,,,,,,,,,,,,,,,,,,,,,,,,,,,,,,,,,,,,,,,,,,,,,,,,,,,,,,,,,,,,,,,,,,,21144,2022-11-01_14h00.02.123,vts_reward_expectancy_bt_OFFLINE,2022.2.4,59.88166592810423,
1,0,0,0,0,0,1,0,triangle,hexagon,2,0,2,0,3,4,40,1,,,,,,,,,,,,,,,,,,,,,,,,,,,,,,,,,,,,,,,,623.7767404459883,623.7767404459883,623.7767404459883,623.7767404459883,623.7767404459883,623.7767404459883,623.7767404459883,623.7767404459883,623.7767404459883,623.7767404459883,a,1.7806943479226902,10,649,2,625.579792308039,,627.0946771129966,,,,,,,,,,,,,,,,,,,,,,,,,,,,,,,,,,,,,,,,,,,,,,,,,,,,,,,,,,,,,,,,,,,,21144,2022-11-01_14h00.02.123,vts_reward_expectancy_bt_OFFLINE,2022.2.4,59.88166592810423,
0,0,1,0,0,0,0,1,hexagon,star,2,0,2,0,3,5,41,8,,,,,,,,,,,,,,,,,,,,,,,,,,,,,,,,,,,,,,,,627.5949154479895,627.5949154479895,627.5949154479895,627.5949154479895,627.5949154479895,627.5949154479895,627.5949154479895,627.5949154479895,627.5949154479895,627.5949154479895,l,1.8257083119824529,1,650,2,629.4493030040758,,630.964774440974,,,,,,,,,,,,,,,,,,,,,,,,,,,,,,,,,,,,,,,,,,,,,,,,,,,,,,,,,,,,,,,,,,,,21144,2022-11-01_14h00.02.123,vts_reward_expectancy_bt_OFFLINE,2022.2.4,59.88166592810423,
0,0,0,1,0,1,0,0,star ,circle,2,0,2,0,3,6,42,10,,,,,,,,,,,,,,,,,,,,,,,,,,,,,,,,,,,,,,,,631.4648202330573,631.4648202330573,631.4648202330573,631.4648202330573,631.4648202330573,631.4648202330573,631.4648202330573,631.4648202330573,631.4648202330573,631.4648202330573,l,1.3481619969243184,10,660,2,632.8339467269834,,634.3344226289773,,,,,,,,,,,,,,,,,,,,,,,,,,,,,,,,,,,,,,,,,,,,,,,,,,,,,,,,,,,,,,,,,,,,21144,2022-11-01_14h00.02.123,vts_reward_expectancy_bt_OFFLINE,2022.2.4,59.88166592810423,
0,1,0,0,0,0,0,1,circle,star,2,0,2,0,3,7,43,5,,,,,,,,,,,,,,,,,,,,,,,,,,,,,,,,,,,,,,,,634.8345653109718,634.8345653109718,634.8345653109718,634.8345653109718,634.8345653109718,634.8345653109718,634.8345653109718,634.8345653109718,634.8345653109718,634.8345653109718,a,2.0581953598884866,1,661,2,636.9205560400151,,638.4210178629728,,,,,,,,,,,,,,,,,,,,,,,,,,,,,,,,,,,,,,,,,,,,,,,,,,,,,,,,,,,,,,,,,,,,21144,2022-11-01_14h00.02.123,vts_reward_expectancy_bt_OFFLINE,2022.2.4,59.88166592810423,
1,0,0,0,0,1,0,0,triangle,circle,2,0,2,0,3,8,44,0,,,,,,,,,,,,,,,,,,,,,,,,,,,,,,,,,,,,,,,,638.9211026419653,638.9211026419653,638.9211026419653,638.9211026419653,638.9211026419653,638.9211026419653,638.9211026419653,638.9211026419653,638.9211026419653,638.9211026419653,a,6.772286932915449,1,662,2,645.7256109219743,647.2258610950084,647.2258610950084,647.7263564249733,,,,,,,,,,,,,,,,,,,,,,,,,,,,,,,,,,,,,,,,,,,,,,,,,,,,,,,,,,,,,,,,,,,21144,2022-11-01_14h00.02.123,vts_reward_expectancy_bt_OFFLINE,2022.2.4,59.88166592810423,
0,1,0,0,1,0,0,0,circle,triangle,2,0,2,0,3,9,45,3,,,,,,,,,,,,,,,,,,,,,,,,,,,,,,,,,,,,,,,,647.7263564249733,647.7263564249733,647.7263564249733,647.7263564249733,647.7263564249733,647.7263564249733,647.7263564249733,647.7263564249733,647.7263564249733,647.7263564249733,l,1.0306001579156145,1,663,2,648.7784443050623,650.2789210180053,650.2789210180053,650.7789733749814,,,,,,,,,,,,,,,,,,,,,,,,,,,,,,,,,,,,,,,,,,,,,,,,,,,,,,,,,,,,,,,,,,,21144,2022-11-01_14h00.02.123,vts_reward_expectancy_bt_OFFLINE,2022.2.4,59.88166592810423,
0,0,0,1,0,0,1,0,star,hexagon,2,0,2,0,3,10,46,11,,,,,,,,,,,,,,,,,,,,,,,,,,,,,,,,,,,,,,,,650.7789733749814,650.7789733749814,650.7789733749814,650.7789733749814,650.7789733749814,650.7789733749814,650.7789733749814,650.7789733749814,650.7789733749814,650.7789733749814,a,1.7625928949564695,10,673,2,652.5652596870204,,654.0655115359696,,,,,,,,,,,,,,,,,,,,,,,,,,,,,,,,,,,,,,,,,,,,,,,,,,,,,,,,,,,,,,,,,,,,21144,2022-11-01_14h00.02.123,vts_reward_expectancy_bt_OFFLINE,2022.2.4,59.88166592810423,
1,0,0,0,0,0,0,1,triangle,star,2,0,2,0,3,11,47,2,,,,,,,,,,,,,,,,,,,,,,,,,,,,,,,,,,,,,,,,654.5657041199738,654.5657041199738,654.5657041199738,654.5657041199738,654.5657041199738,654.5657041199738,654.5657041199738,654.5657041199738,654.5657041199738,654.5657041199738,l,1.606955470982939,10,683,2,656.199698704062,657.7000924790045,657.7000924790045,,,,,,,,,,,,,,,,,,,,,,,,,,,,,,,,,,,,,,,,,,,,,,,,,,,,,,,,,,,,,,,,,,,,21144,2022-11-01_14h00.02.123,vts_reward_expectancy_bt_OFFLINE,2022.2.4,59.88166592810423,
,,,,,,,,,,,,,,,,,,0,0,0,0,0,0,0,0,,,,,,,,,,,,,,,,,,,,,,,,,,,,,,,,,,,,,,,,,,,,,,,,,697.7626812000526,,132,F,triangle,0.0006745359860360622,691.7547089849832,693.2443643430015,693.2443643430015,693.2443643430015,696.2454820330022,696.2454820330022,696.2454820330022,0,0,None,0,696.2619865440065,,,,,,,,,,,,,,,,,,,,,,,,,,,,,,,,,,,,,,,,,,,,,,,,,,,21144,2022-11-01_14h00.02.123,vts_reward_expectancy_bt_OFFLINE,2022.2.4,59.88166592810423,
,,,,,,,,,,,,,,,,,,0,0,0,0,1,0,1,0,,,,,,,,,,,,,,,,,,,,,,,,,,,,,,,,,,,,,,,,,,,,,,,,,702.3826848940225,702.8827164730756,174,B,hexagon,0.00641094904858619,698.7599818180315,700.2487448550528,700.2487448550528,700.2487448550528,,,,1,1,f,0,700.8856834269827,0.6127411699853837,,,,,,,,,,,,,,,,,,,,,,,,,,,,,,,,,,,,,,,,,,,,,,,,,,21144,2022-11-01_14h00.02.123,vts_reward_expectancy_bt_OFFLINE,2022.2.4,59.88166592810423,
,,,,,,,,,,,,,,,,,,0,0,0,0,2,0,2,0,,,,,,,,,,,,,,,,,,,,,,,,,,,,,,,,,,,,,,,,,,,,,,,,,707.2531750770286,,139,H,circle,0.0006496199639514089,703.3796848200727,704.8688119730214,704.8688119730214,704.8688119730214,,,,1,0,d,0,705.7524204910733,0.8567933139856905,707.2531750770286,,,,,,,,,,,,,,,,,,,,,,,,,,,,,,,,,,,,,,,,,,,,,,,,,21144,2022-11-01_14h00.02.123,vts_reward_expectancy_bt_OFFLINE,2022.2.4,59.88166592810423,
,,,,,,,,,,,,,,,,,,0,0,0,0,3,0,3,0,,,,,,,,,,,,,,,,,,,,,,,,,,,,,,,,,,,,,,,,,,,,,,,,,712.0230445109773,712.52340382908,167,D,star,0.00036229798570275307,708.2489866859978,709.7389990499942,709.7389990499942,709.7389990499942,,,,1,0,f,0,710.522683612071,0.7625129808438942,712.0230445109773,,,,,,,,,,,,,,,,,,,,,,,,,,,,,,,,,,,,,,,,,,,,,,,,,21144,2022-11-01_14h00.02.123,vts_reward_expectancy_bt_OFFLINE,2022.2.4,59.88166592810423,
,,,,,,,,,,,,,,,,,,0,0,0,0,4,0,4,0,,,,,,,,,,,,,,,,,,,,,,,,,,,,,,,,,,,,,,,,,,,,,,,,,716.6433344070101,717.1436489310581,125,Y,circle,0.0002948959590867162,713.0187687670114,714.509238164057,714.509238164057,714.509238164057,,,,1,0,d,0,715.1431222870015,0.6081414258806035,716.6433344070101,,,,,,,,,,,,,,,,,,,,,,,,,,,,,,,,,,,,,,,,,,,,,,,,,21144,2022-11-01_14h00.02.123,vts_reward_expectancy_bt_OFFLINE,2022.2.4,59.88166592810423,
,,,,,,,,,,,,,,,,,,0,0,0,0,5,0,5,0,,,,,,,,,,,,,,,,,,,,,,,,,,,,,,,,,,,,,,,,,,,,,,,,,721.2469319850206,721.7470288469922,181,U,star,0.0005627550417557359,717.6399704749929,719.1294144829735,719.1294144829735,719.1294144829735,,,,1,0,f,0,719.7462983910227,0.5876528560183942,721.2469319850206,,,,,,,,,,,,,,,,,,,,,,,,,,,,,,,,,,,,,,,,,,,,,,,,,21144,2022-11-01_14h00.02.123,vts_reward_expectancy_bt_OFFLINE,2022.2.4,59.88166592810423,
,,,,,,,,,,,,,,,,,,0,0,0,0,6,0,6,0,,,,,,,,,,,,,,,,,,,,,,,,,,,,,,,,,,,,,,,,,,,,,,,,,725.8837853979785,726.3837594629731,160,W,hexagon,0.0005041069816797972,722.2433587390697,723.7327985030133,723.7327985030133,723.7327985030133,,,,1,0,f,0,724.383157814038,0.6249548678752035,725.8837853979785,,,,,,,,,,,,,,,,,,,,,,,,,,,,,,,,,,,,,,,,,,,,,,,,,21144,2022-11-01_14h00.02.123,vts_reward_expectancy_bt_OFFLINE,2022.2.4,59.88166592810423,
,,,,,,,,,,,,,,,,,,0,0,0,0,7,0,7,0,,,,,,,,,,,,,,,,,,,,,,,,,,,,,,,,,,,,,,,,,,,,,,,,,730.5707388999872,731.0708732149797,146,S,triangle,0.0005714920116588473,726.8796360760462,728.3696887650294,728.3696887650294,728.3696887650294,,,,1,0,d,0,729.0704383400735,0.6835997719317675,730.5707388999872,,,,,,,,,,,,,,,,,,,,,,,,,,,,,,,,,,,,,,,,,,,,,,,,,21144,2022-11-01_14h00.02.123,vts_reward_expectancy_bt_OFFLINE,2022.2.4,59.88166592810423,
,,,,,,,,,,,,,,,,,,0,0,0,0,8,0,8,0,,,,,,,,,,,,,,,,,,,,,,,,,,,,,,,,,,,,,,,,,,,,,,,,,735.2574698959943,735.7575660770526,132,F,circle,0.0001586159924045205,731.5657883210806,733.0546812170651,733.0546812170651,733.0546812170651,,,,1,0,d,0,733.7568857850274,0.6779917710227892,735.2574698959943,,,,,,,,,,,,,,,,,,,,,,,,,,,,,,,,,,,,,,,,,,,,,,,,,21144,2022-11-01_14h00.02.123,vts_reward_expectancy_bt_OFFLINE,2022.2.4,59.88166592810423,
,,,,,,,,,,,,,,,,,,0,0,0,0,9,0,9,0,,,,,,,,,,,,,,,,,,,,,,,,,,,,,,,,,,,,,,,,,,,,,,,,,739.8276714150561,740.3382461540168,174,B,star,0.0004263409646227956,736.2529760489706,737.741603618022,737.741603618022,737.741603618022,,,,1,0,f,0,738.3272408890771,0.5590942829148844,739.8276714150561,,,,,,,,,,,,,,,,,,,,,,,,,,,,,,,,,,,,,,,,,,,,,,,,,21144,2022-11-01_14h00.02.123,vts_reward_expectancy_bt_OFFLINE,2022.2.4,59.88166592810423,
,,,,,,,,,,,,,,,,,,,,,,,,,,0,0,0,0,0,0,0,0,,,,,,,,,,,,,,,,,,,,,,,,,,,,,,,,,,,,,,,,,771.0666656399844,,167,F,circle,0.0008901490364223719,,,,,,,,0,0,,1,769.5518691909965,,,766.4757498920662,767.9635518119903,767.9635518119903,767.9635518119903,k,1.5691933429334313,,,,,,,,,,,,,,,,,,,,,,,,,,,,,,,,,,,,,,,,,,,21144,2022-11-01_14h00.02.123,vts_reward_expectancy_bt_OFFLINE,2022.2.4,59.88166592810423,
,,,,,,,,,,,,,,,,,,,,,,,,,,0,0,0,0,1,0,1,0,,,,,,,,,,,,,,,,,,,,,,,,,,,,,,,,,,,,,,,,,775.886679540039,,160,Y,star,0.01629787392448634,,,,,,,,1,1,,1,774.3716040670406,,,772.0624117060797,773.5359774010722,773.5359774010722,773.5359774010722,k,0.8051863269647583,,,,,,,,,,,,,,,,,,,,,,,,,,,,,,,,,,,,,,,,,,,21144,2022-11-01_14h00.02.123,vts_reward_expectancy_bt_OFFLINE,2022.2.4,59.88166592810423,
,,,,,,,,,,,,,,,,,,,,,,,,,,0,0,0,0,2,0,2,0,,,,,,,,,,,,,,,,,,,,,,,,,,,,,,,,,,,,,,,,,780.4070645449683,780.9071182770422,139,B,hexagon,0.016937207081355155,,,,,,,,1,0,,1,778.9064872349845,,780.4070645449683,776.8833793600788,778.3560983010102,778.3560983010102,778.3560983010102,j,0.5285554028814659,,,,,,,,,,,,,,,,,,,,,,,,,,,,,,,,,,,,,,,,,,,21144,2022-11-01_14h00.02.123,vts_reward_expectancy_bt_OFFLINE,2022.2.4,59.88166592810423,
,,,,,,,,,,,,,,,,,,,,,,,,,,0,0,0,0,3,0,3,0,,,,,,,,,,,,,,,,,,,,,,,,,,,,,,,,,,,,,,,,,785.4106781280134,785.910627402016,146,S,triangle,0.000631995964795351,,,,,,,,1,0,,1,783.9098844960099,,785.4106781280134,781.4028374860063,782.8911295080325,782.8911295080325,782.8911295080325,k,0.986677432898432,,,,,,,,,,,,,,,,,,,,,,,,,,,,,,,,,,,,,,,,,,,21144,2022-11-01_14h00.02.123,vts_reward_expectancy_bt_OFFLINE,2022.2.4,59.88166592810423,
,,,,,,,,,,,,,,,,,,,,,,,,,,0,0,0,0,4,0,4,0,,,,,,,,,,,,,,,,,,,,,,,,,,,,,,,,,,,,,,,,,790.1475664260797,,132,W,circle,0.0005664241034537554,,,,,,,,1,0,,1,788.6469824800733,,790.1475664260797,786.4063462750055,787.8947516779881,787.8947516779881,787.8947516779881,k,0.7344012638786808,,,,,,,,,,,,,,,,,,,,,,,,,,,,,,,,,,,,,,,,,,,21144,2022-11-01_14h00.02.123,vts_reward_expectancy_bt_OFFLINE,2022.2.4,59.88166592810423,
,,,,,,,,,,,,,,,,,,,,,,,,,,0,0,0,0,5,0,5,0,,,,,,,,,,,,,,,,,,,,,,,,,,,,,,,,,,,,,,,,,794.8340723990696,795.3344103459967,181,U,triangle,0.0004175659269094467,,,,,,,,1,0,,1,793.3336879339768,,794.8340723990696,791.143102615024,792.6316787269898,792.6316787269898,792.6316787269898,k,0.6784721958683804,,,,,,,,,,,,,,,,,,,,,,,,,,,,,,,,,,,,,,,,,,,21144,2022-11-01_14h00.02.123,vts_reward_expectancy_bt_OFFLINE,2022.2.4,59.88166592810423,
,,,,,,,,,,,,,,,,,,,,,,,,,,0,0,0,0,6,0,6,0,,,,,,,,,,,,,,,,,,,,,,,,,,,,,,,,,,,,,,,,,799.7713541550329,,125,D,star,0.0005084170261397958,,,,,,,,1,0,,1,798.2685075129848,,,795.8301125060534,797.3186128920643,797.3186128920643,797.3186128920643,j,0.9180629919283092,,,,,,,,,,,,,,,,,,,,,,,,,,,,,,,,,,,,,,,,,,,21144,2022-11-01_14h00.02.123,vts_reward_expectancy_bt_OFFLINE,2022.2.4,59.88166592810423,
,,,,,,,,,,,,,,,,,,,,,,,,,,0,0,0,0,7,0,7,0,,,,,,,,,,,,,,,,,,,,,,,,,,,,,,,,,,,,,,,,,805.775146782049,,174,H,hexagon,0.0017257630825042725,,,,,,,,0,0,,1,804.2603264519712,,,800.7667864420218,802.255548910005,802.255548910005,802.255548910005,k,1.9730169659014791,,,,,,,,,,,,,,,,,,,,,,,,,,,,,,,,,,,,,,,,,,,21144,2022-11-01_14h00.02.123,vts_reward_expectancy_bt_OFFLINE,2022.2.4,59.88166592810423,
,,,,,,,,,,,,,,,,,,,,,,,,,,0,0,0,0,8,0,8,0,,,,,,,,,,,,,,,,,,,,,,,,,,,,,,,,,,,,,,,,,811.5789834220195,,167,F,hexagon,0.01688157196622342,,,,,,,,1,1,,1,810.0639512010384,,,806.7705918899737,808.2426743289689,808.2426743289689,808.2426743289689,j,1.793835139949806,,,,,,,,,,,,,,,,,,,,,,,,,,,,,,,,,,,,,,,,,,,21144,2022-11-01_14h00.02.123,vts_reward_expectancy_bt_OFFLINE,2022.2.4,59.88166592810423,
,,,,,,,,,,,,,,,,,,,,,,,,,,0,0,0,0,9,0,9,0,,,,,,,,,,,,,,,,,,,,,,,,,,,,,,,,,,,,,,,,,816.0994295880664,816.6029426800087,160,Y,triangle,0.0003847259795293212,,,,,,,,1,0,,1,814.5991110580508,,816.0994295880664,812.5580905820243,814.0487206809921,814.0487206809921,814.0487206809921,k,0.5238255759468302,,,,,,,,,,,,,,,,,,,,,,,,,,,,,,,,,,,,,,,,,,,21144,2022-11-01_14h00.02.123,vts_reward_expectancy_bt_OFFLINE,2022.2.4,59.88166592810423,
,,,,,,,,,,,,,,,,,,,,,,,,,,1,0,1,0,0,0,0,0,,,,,,,,,,,,,,,,,,,,,,,,,,,,,,,,,,,,,,,,,839.6336118290201,,181,H,star,0.002710898988880217,,,,,,,,1,0,,2,838.1318102220539,,,835.675409159041,837.1643593610497,837.1643593610497,837.1643593610497,j,0.9361711419187486,,,,,,,,,,,,,,,,,,,,,,,,,,,,,,,,,,,,,,,,,,,21144,2022-11-01_14h00.02.123,vts_reward_expectancy_bt_OFFLINE,2022.2.4,59.88166592810423,
,,,,,,,,,,,,,,,,,,,,,,,,,,1,0,1,0,1,0,1,0,,,,,,,,,,,,,,,,,,,,,,,,,,,,,,,,,,,,,,,,,844.2703790320083,,139,D,hexagon,0.001827640924602747,,,,,,,,1,0,,2,842.7689273790456,,,840.6282731649699,842.1178334819851,842.1178334819851,842.1178334819851,j,0.6237973559182137,,,,,,,,,,,,,,,,,,,,,,,,,,,,,,,,,,,,,,,,,,,21144,2022-11-01_14h00.02.123,vts_reward_expectancy_bt_OFFLINE,2022.2.4,59.88166592810423,
,,,,,,,,,,,,,,,,,,,,,,,,,,1,0,1,0,2,0,2,0,,,,,,,,,,,,,,,,,,,,,,,,,,,,,,,,,,,,,,,,,848.9238041540375,,146,W,triangle,0.001761780004017055,,,,,,,,1,0,,2,847.4234958400484,,,845.2657077210024,846.7546870149672,846.7546870149672,846.7546870149672,k,0.6504415379604325,,,,,,,,,,,,,,,,,,,,,,,,,,,,,,,,,,,,,,,,,,,21144,2022-11-01_14h00.02.123,vts_reward_expectancy_bt_OFFLINE,2022.2.4,59.88166592810423,
,,,,,,,,,,,,,,,,,,,,,,,,,,1,0,1,0,3,0,3,0,,,,,,,,,,,,,,,,,,,,,,,,,,,,,,,,,,,,,,,,,853.6940677170642,,125,U,circle,0.0006228549173101783,,,,,,,,1,0,,2,852.1926205790369,,,849.9189520190703,851.4080483709695,851.4080483709695,851.4080483709695,k,0.7647589908447117,,,,,,,,,,,,,,,,,,,,,,,,,,,,,,,,,,,,,,,,,,,21144,2022-11-01_14h00.02.123,vts_reward_expectancy_bt_OFFLINE,2022.2.4,59.88166592810423,
,,,,,,,,,,,,,,,,,,,,,,,,,,1,0,1,0,4,0,4,0,,,,,,,,,,,,,,,,,,,,,,,,,,,,,,,,,,,,,,,,,858.3977293510688,,132,S,circle,0.0016231420449912548,,,,,,,,1,0,,2,856.8955417530378,,,854.6891724690795,856.1784878600156,856.1784878600156,856.1784878600156,k,0.6980582429096103,,,,,,,,,,,,,,,,,,,,,,,,,,,,,,,,,,,,,,,,,,,21144,2022-11-01_14h00.02.123,vts_reward_expectancy_bt_OFFLINE,2022.2.4,59.88166592810423,
,,,,,,,,,,,,,,,,,,,,,,,,,,1,0,1,0,5,0,5,0,,,,,,,,,,,,,,,,,,,,,,,,,,,,,,,,,,,,,,,,,863.0490786730079,,167,Y,star,0.0019588819704949856,,,,,,,,1,0,,2,861.5488310700748,,863.0490786730079,859.3921262890799,860.8820434280206,860.8820434280206,860.8820434280206,k,0.6348308469168842,,,,,,,,,,,,,,,,,,,,,,,,,,,,,,,,,,,,,,,,,,,21144,2022-11-01_14h00.02.123,vts_reward_expectancy_bt_OFFLINE,2022.2.4,59.88166592810423,
,,,,,,,,,,,,,,,,,,,,,,,,,,1,0,1,0,6,0,6,0,,,,,,,,,,,,,,,,,,,,,,,,,,,,,,,,,,,,,,,,,867.9028893869836,,160,F,triangle,0.0010106679983437061,,,,,,,,1,0,,2,866.4027988000307,,867.9028893869836,864.0458725770004,865.5355848909821,865.5355848909821,865.5355848909821,j,0.8450927819358185,,,,,,,,,,,,,,,,,,,,,,,,,,,,,,,,,,,,,,,,,,,21144,2022-11-01_14h00.02.123,vts_reward_expectancy_bt_OFFLINE,2022.2.4,59.88166592810423,
,,,,,,,,,,,,,,,,,,,,,,,,,,1,0,1,0,7,0,7,0,,,,,,,,,,,,,,,,,,,,,,,,,,,,,,,,,,,,,,,,,872.740142810042,,174,B,hexagon,0.0018737779464572668,,,,,,,,1,0,,2,871.2397507759742,,872.740142810042,868.8994761360809,870.3892387910746,870.3892387910746,870.3892387910746,j,0.8321126489900053,,,,,,,,,,,,,,,,,,,,,,,,,,,,,,,,,,,,,,,,,,,21144,2022-11-01_14h00.02.123,vts_reward_expectancy_bt_OFFLINE,2022.2.4,59.88166592810423,
,,,,,,,,,,,,,,,,,,,,,,,,,,1,0,1,0,8,0,8,0,,,,,,,,,,,,,,,,,,,,,,,,,,,,,,,,,,,,,,,,,877.6098890500143,878.1102739240741,181,H,hexagon,0.00030768197029829025,,,,,,,,1,0,,2,876.1102753370069,,877.6098890500143,873.7355058860267,875.2259404719807,875.2259404719807,875.2259404719807,j,0.866984567954205,,,,,,,,,,,,,,,,,,,,,,,,,,,,,,,,,,,,,,,,,,,21144,2022-11-01_14h00.02.123,vts_reward_expectancy_bt_OFFLINE,2022.2.4,59.88166592810423,
,,,,,,,,,,,,,,,,,,,,,,,,,,1,0,1,0,9,0,9,0,,,,,,,,,,,,,,,,,,,,,,,,,,,,,,,,,,,,,,,,,882.7973014810123,883.3003704750445,139,D,triangle,0.00016460707411170006,,,,,,,,1,0,,2,881.2967705629999,,882.7973014810123,878.605941153015,880.0964626560453,880.0964626560453,880.0964626560453,j,1.1810403568670154,,,,,,,,,,,,,,,,,,,,,,,,,,,,,,,,,,,,,,,,,,,21144,2022-11-01_14h00.02.123,vts_reward_expectancy_bt_OFFLINE,2022.2.4,59.88166592810423,
,,,,,,,,,,,,,,,,,,,,,,,,,,,,,,,,,,0,0,0,0,0,0,0,0,,,,,,,,,,,,,,,,,,,,,,,,,,,,0,683,,,,940.2900543060387,,167,Y,circle,0.01745375304017216,,,,,,,,0,0,,3,,,,,,,,,,935.9669588860124,935.9669588860124,935.9669588860124,935.9669588860124,937.4369121390628,937.4369121390628,937.4369121390628,937.4369121390628,937.4702086129691,937.4702086129691,937.4702086129691,937.4702086129691,-1,number,NA,d,1.3124328119447455,vtsPrac,938.7759338209871,,,,,,,,,,,,,,,,,,,,,,,,21144,2022-11-01_14h00.02.123,vts_reward_expectancy_bt_OFFLINE,2022.2.4,59.88166592810423,
,,,,,,,,,,,,,,,,,,,,,,,,,,,,,,,,,,0,0,0,0,1,0,1,0,,,,,,,,,,,,,,,,,,,,,,,,,,,,0,683,,,,945.3768030940555,,174,W,triangle,0.0168791760224849,,,,,,,,1,1,,3,,,,,,,,,,941.2859446250368,941.2859446250368,941.2859446250368,941.2859446250368,942.7575226309709,942.7575226309709,942.7575226309709,942.7575226309709,942.7907571829855,942.7907571829855,942.7907571829855,942.7907571829855,repeat,number,numRpt,f,1.071518556913361,vtsPrac,943.86315070407,,,,,,,,,,,,,,,,,,,,,,,,21144,2022-11-01_14h00.02.123,vts_reward_expectancy_bt_OFFLINE,2022.2.4,59.88166592810423,
,,,,,,,,,,,,,,,,,,,,,,,,,,,,,,,,,,0,0,0,0,2,0,2,0,,,,,,,,,,,,,,,,,,,,,,,,,,,,0,683,,,,950.1469976020744,950.6474215460476,181,B,hexagon,0.0003670010482892394,,,,,,,,1,0,,3,,,,,,,,,,946.3565375250764,946.3565375250764,946.3565375250764,946.3565375250764,947.8445102950791,947.8445102950791,947.8445102950791,947.8445102950791,947.8611956350505,947.8611956350505,947.8611956350505,947.8611956350505,repeat,number,numRpt,f,0.7765509849414229,vtsPrac,948.6473594889976,950.1469976020744,,,,,,,,,,,,,,,,,,,,,,,21144,2022-11-01_14h00.02.123,vts_reward_expectancy_bt_OFFLINE,2022.2.4,59.88166592810423,
,,,,,,,,,,,,,,,,,,,,,,,,,,,,,,,,,,0,0,0,0,3,0,3,0,,,,,,,,,,,,,,,,,,,,,,,,,,,,0,683,,,,955.1340394150466,955.634393409011,139,F,triangle,0.0005159309366717935,,,,,,,,1,0,,3,,,,,,,,,,951.1435931740562,951.1435931740562,951.1435931740562,951.1435931740562,952.6314043670427,952.6314043670427,952.6314043670427,952.6314043670427,952.6480559180491,952.6480559180491,952.6480559180491,952.6480559180491,switch,letter,lettSwt,j,0.9816339669050649,vtsPrac,953.6343149649911,955.1340394150466,,,,,,,,,,,,,,,,,,,,,,,21144,2022-11-01_14h00.02.123,vts_reward_expectancy_bt_OFFLINE,2022.2.4,59.88166592810423,
,,,,,,,,,,,,,,,,,,,,,,,,,,,,,,,,,,0,0,0,0,4,0,4,0,,,,,,,,,,,,,,,,,,,,,,,,,,,,0,683,,,,959.871028198977,,167,Y,triangle,0.00043655303306877613,,,,,,,,1,0,,3,,,,,,,,,,956.1300467610126,956.1300467610126,956.1300467610126,956.1300467610126,957.6184422640363,957.6184422640363,957.6184422640363,957.6184422640363,957.635023409035,957.635023409035,957.635023409035,957.635023409035,repeat,letter,lettRpt,k,0.7226339329499751,vtsPrac,958.3691976410337,,,,,,,,,,,,,,,,,,,,,,,,21144,2022-11-01_14h00.02.123,vts_reward_expectancy_bt_OFFLINE,2022.2.4,59.88166592810423,
,,,,,,,,,,,,,,,,,,,,,,,,,,,,,,,,,,0,0,0,0,5,0,5,0,,,,,,,,,,,,,,,,,,,,,,,,,,,,0,683,,,,964.6746776329819,,174,W,hexagon,0.0022577160270884633,,,,,,,,1,0,,3,,,,,,,,,,960.8664794489741,960.8664794489741,960.8664794489741,960.8664794489741,962.3553625290515,962.3553625290515,962.3553625290515,962.3553625290515,962.3717064320808,962.3717064320808,962.3717064320808,962.3717064320808,switch,number,numSwt,f,0.7940466789295897,vtsPrac,963.1731457790593,,,,,,,,,,,,,,,,,,,,,,,,21144,2022-11-01_14h00.02.123,vts_reward_expectancy_bt_OFFLINE,2022.2.4,59.88166592810423,
,,,,,,,,,,,,,,,,,,,,,,,,,,,,,,,,,,0,0,0,0,6,0,6,0,,,,,,,,,,,,,,,,,,,,,,,,,,,,0,683,,,,969.9618197049713,,181,B,circle,0.001960307010449469,,,,,,,,1,0,,3,,,,,,,,,,965.669994276017,965.669994276017,965.669994276017,965.669994276017,967.1587749900063,967.1587749900063,967.1587749900063,967.1587749900063,967.1754585889867,967.1754585889867,967.1754585889867,967.1754585889867,switch,letter,lettSwt,j,1.2700572309549898,vtsPrac,968.4476420070278,,,,,,,,,,,,,,,,,,,,,,,,21144,2022-11-01_14h00.02.123,vts_reward_expectancy_bt_OFFLINE,2022.2.4,59.88166592810423,
,,,,,,,,,,,,,,,,,,,,,,,,,,,,,,,,,,0,0,0,0,7,0,7,0,,,,,,,,,,,,,,,,,,,,,,,,,,,,0,683,,,,974.7819950770354,,139,F,hexagon,0.013657771982252598,,,,,,,,1,0,,3,,,,,,,,,,970.9567618210567,970.9567618210567,970.9567618210567,970.9567618210567,972.4459662609734,972.4459662609734,972.4459662609734,972.4459662609734,972.462509848061,972.462509848061,972.462509848061,972.462509848061,switch,number,numSwt,d,0.815614104969427,vtsPrac,973.2800340959802,,,,,,,,,,,,,,,,,,,,,,,,21144,2022-11-01_14h00.02.123,vts_reward_expectancy_bt_OFFLINE,2022.2.4,59.88166592810423,
,,,,,,,,,,,,,,,,,,,,,,,,,,,,,,,,,,0,0,0,0,8,0,8,0,,,,,,,,,,,,,,,,,,,,,,,,,,,,0,683,,,,979.6687885620631,,174,W,circle,0.0021662950748577714,,,,,,,,1,0,,3,,,,,,,,,,975.7774261930026,975.7774261930026,975.7774261930026,975.7774261930026,977.2660904430086,977.2660904430086,977.2660904430086,977.2660904430086,977.2826936760684,977.2826936760684,977.2826936760684,977.2826936760684,repeat,number,numRpt,f,0.8824843998299912,vtsPrac,978.1669515200192,,,,,,,,,,,,,,,,,,,,,,,,21144,2022-11-01_14h00.02.123,vts_reward_expectancy_bt_OFFLINE,2022.2.4,59.88166592810423,
,,,,,,,,,,,,,,,,,,,,,,,,,,,,,,,,,,0,0,0,0,9,0,9,0,,,,,,,,,,,,,,,,,,,,,,,,,,,,0,683,,,,984.5221865490312,,160,S,hexagon,0.0019251009216532111,,,,,,,,1,0,,3,,,,,,,,,,980.664860232966,980.664860232966,980.664860232966,980.664860232966,982.1529637529748,982.1529637529748,982.1529637529748,982.1529637529748,982.169776119059,982.169776119059,982.169776119059,982.169776119059,repeat,number,numRpt,f,0.8355522039346397,vtsPrac,983.0209104240639,,,,,,,,,,,,,,,,,,,,,,,,21144,2022-11-01_14h00.02.123,vts_reward_expectancy_bt_OFFLINE,2022.2.4,59.88166592810423,
,,,,,,,,,,,,,,,,,,,,,,,,,,,,,,,,,,0,0,0,0,10,0,10,0,,,,,,,,,,,,,,,,,,,,,,,,,,,,0,683,,,,989.8428953459952,,181,H,hexagon,0.0018876580288633704,,,,,,,,1,0,,3,,,,,,,,,,985.5183153310791,985.5183153310791,985.5183153310791,985.5183153310791,987.0064918070566,987.0064918070566,987.0064918070566,987.0064918070566,987.0232485129964,987.0232485129964,987.0232485129964,987.0232485129964,switch,letter,lettSwt,j,1.311079201870598,vtsPrac,988.3408518220531,,,,,,,,,,,,,,,,,,,,,,,,21144,2022-11-01_14h00.02.123,vts_reward_expectancy_bt_OFFLINE,2022.2.4,59.88166592810423,
,,,,,,,,,,,,,,,,,,,,,,,,,,,,,,,,,,0,0,0,0,11,0,11,0,,,,,,,,,,,,,,,,,,,,,,,,,,,,0,683,,,,994.8297656970099,,146,F,star,0.0021937889978289604,,,,,,,,1,0,,3,,,,,,,,,,990.8383017240558,990.8383017240558,990.8383017240558,990.8383017240558,992.3269328729948,992.3269328729948,992.3269328729948,992.3269328729948,992.3436793379951,992.3436793379951,992.3436793379951,992.3436793379951,switch,number,numSwt,d,0.9821942879352719,vtsPrac,993.3277408380527,,,,,,,,,,,,,,,,,,,,,,,,21144,2022-11-01_14h00.02.123,vts_reward_expectancy_bt_OFFLINE,2022.2.4,59.88166592810423,
,,,,,,,,,,,,,,,,,,,,,,,,,,,,,,,,,,0,0,0,0,12,0,12,0,,,,,,,,,,,,,,,,,,,,,,,,,,,,0,683,,,,999.8667420010315,,174,F,hexagon,0.0023066389840096235,,,,,,,,1,0,,3,,,,,,,,,,995.8246754260035,995.8246754260035,995.8246754260035,995.8246754260035,997.3140397920506,997.3140397920506,997.3140397920506,997.3140397920506,997.3305077530676,997.3305077530676,997.3305077530676,997.3305077530676,switch,letter,lettSwt,j,1.018524776911363,vtsPrac,998.3642023750581,,,,,,,,,,,,,,,,,,,,,,,,21144,2022-11-01_14h00.02.123,vts_reward_expectancy_bt_OFFLINE,2022.2.4,59.88166592810423,
,,,,,,,,,,,,,,,,,,,,,,,,,,,,,,,,,,0,0,0,0,13,0,13,0,,,,,,,,,,,,,,,,,,,,,,,,,,,,0,683,,,,1005.8374797999859,,181,S,triangle,0.0006094459677115083,,,,,,,,0,0,,3,,,,,,,,,,1000.8623511890182,1000.8623511890182,1000.8623511890182,1000.8623511890182,1002.3508715169737,1002.3508715169737,1002.3508715169737,1002.3508715169737,1002.3675038280198,1002.3675038280198,1002.3675038280198,1002.3675038280198,repeat,letter,NA,j,1.9497774909250438,vtsPrac,1004.3225540959975,,,,,,,,,,,,,,,,,,,,,,,,21144,2022-11-01_14h00.02.123,vts_reward_expectancy_bt_OFFLINE,2022.2.4,59.88166592810423,
,,,,,,,,,,,,,,,,,,,,,,,,,,,,,,,,,,0,0,0,0,14,0,14,0,,,,,,,,,,,,,,,,,,,,,,,,,,,,0,683,,,,1010.6076807420468,,125,B,circle,0.017140379059128463,,,,,,,,1,1,,3,,,,,,,,,,1006.8331701969728,1006.8331701969728,1006.8331701969728,1006.8331701969728,1008.3048157970188,1008.3048157970188,1008.3048157970188,1008.3048157970188,1008.3380402390612,1008.3380402390612,1008.3380402390612,1008.3380402390612,repeat,letter,lettRpt,j,0.755813907017,vtsPrac,1009.1056860979879,,,,,,,,,,,,,,,,,,,,,,,,21144,2022-11-01_14h00.02.123,vts_reward_expectancy_bt_OFFLINE,2022.2.4,59.88166592810423,
,,,,,,,,,,,,,,,,,,,,,,,,,,,,,,,,,,0,0,0,0,15,0,15,0,,,,,,,,,,,,,,,,,,,,,,,,,,,,0,683,,,,1015.7277490419801,,146,U,triangle,0.0005220810417085886,,,,,,,,1,0,,3,,,,,,,,,,1011.5870372750796,1011.5870372750796,1011.5870372750796,1011.5870372750796,1013.0750345210545,1013.0750345210545,1013.0750345210545,1013.0750345210545,1013.0917311049998,1013.0917311049998,1013.0917311049998,1013.0917311049998,repeat,letter,lettRpt,k,1.1227263069013134,vtsPrac,1014.2279216169845,1015.7277490419801,,,,,,,,,,,,,,,,,,,,,,,21144,2022-11-01_14h00.02.123,vts_reward_expectancy_bt_OFFLINE,2022.2.4,59.88166592810423,
,,,,,,,,,,,,,,,,,,,,,,,,,,,,,,,,,,,,,,,,,,0,0,0,0,,,,,,,,,,,,,,,,,,,,,,,,0,683,,,,1054.5400653689867,,139,F,circle,0.0026017940836027265,,,,,,,,1,0,,,,,,,,,,,,1050.398710582056,1050.398710582056,1050.398710582056,1050.398710582056,1051.8870495950105,1051.8870495950105,1051.8870495950105,1051.8870495950105,1051.9036262050504,1051.9036262050504,1051.9036262050504,1051.9036262050504,switch,number,numSwt,d,1.1265591520350426,noRew,,,0,1053.040940321982,,,,,,,,,,,,,,,,,,,,,21144,2022-11-01_14h00.02.123,vts_reward_expectancy_bt_OFFLINE,2022.2.4,59.88166592810423,
,,,,,,,,,,,,,,,,,,,,,,,,,,,,,,,,,,,,,,,,,,1,0,1,0,,,,,,,,,,,,,,,,,,,,,,,,0,683,,,,1059.3764870850137,,167,S,star,0.0017723659984767437,,,,,,,,1,0,,,,,,,,,,,,1055.5349695270415,1055.5349695270415,1055.5349695270415,1055.5349695270415,1057.0239268459845,1057.0239268459845,1057.0239268459845,1057.0239268459845,1057.040673163021,1057.040673163021,1057.040673163021,1057.040673163021,repeat,number,numRpt,f,0.8206796458689496,noRew,,,0,1057.8755730739795,,,,,,,,,,,,,,,,,,,,,21144,2022-11-01_14h00.02.123,vts_reward_expectancy_bt_OFFLINE,2022.2.4,59.88166592810423,
,,,,,,,,,,,,,,,,,,,,,,,,,,,,,,,,,,,,,,,,,,2,0,2,0,,,,,,,,,,,,,,,,,,,,,,,,0,683,,,,1064.2471252870746,,125,W,triangle,0.0021317960927262902,,,,,,,,1,0,,,,,,,,,,,,1060.372541164048,1060.372541164048,1060.372541164048,1060.372541164048,1061.860785954981,1061.860785954981,1061.860785954981,1061.860785954981,1061.8776075469796,1061.8776075469796,1061.8776075469796,1061.8776075469796,switch,letter,lettSwt,k,0.8648178719449788,noRew,,,0,1062.745563202072,,,,,,,,,,,,,,,,,,,,,21144,2022-11-01_14h00.02.123,vts_reward_expectancy_bt_OFFLINE,2022.2.4,59.88166592810423,
