LTriangleOpac,LCircleOpac,LHexagonOpac,LStarOpac,RTriangleOpac,RCircleOpac,RHexagonOpac,RStarOpac,LShape_ID,RShape_ID,training_blocks.thisRepN,training_blocks.thisTrialN,training_blocks.thisN,training_blocks.thisIndex,training.thisRepN,training.thisTrialN,training.thisN,training.thisIndex,task1_prac_redo.thisRepN,task1_prac_redo.thisTrialN,task1_prac_redo.thisN,task1_prac_redo.thisIndex,task1_prac_trials.thisRepN,task1_prac_trials.thisTrialN,task1_prac_trials.thisN,task1_prac_trials.thisIndex,task2_prac_redo.thisRepN,task2_prac_redo.thisTrialN,task2_prac_redo.thisN,task2_prac_redo.thisIndex,task2_praac_trials.thisRepN,task2_praac_trials.thisTrialN,task2_praac_trials.thisN,task2_praac_trials.thisIndex,vts_prac_redo.thisRepN,vts_prac_redo.thisTrialN,vts_prac_redo.thisN,vts_prac_redo.thisIndex,vts_practice_trials.thisRepN,vts_practice_trials.thisTrialN,vts_practice_trials.thisN,vts_practice_trials.thisIndex,trials_norew.thisRepN,trials_norew.thisTrialN,trials_norew.thisN,trials_norew.thisIndex,block.thisRepN,block.thisTrialN,block.thisN,block.thisIndex,trials_rew.thisRepN,trials_rew.thisTrialN,trials_rew.thisN,trials_rew.thisIndex,key_resp.started,key_resp.keys,key_resp.rt,left_circle.started,right_circle.started,left_triangle.started,right_triangle.started,left_star.started,right_star.started,left_hexagon.started,right_hexagon.started,training_fix.started,training_resp.started,training_resp.keys,training_resp.rt,points_trial,points_cumul,trainBlock,training_feedback_txt.started,training_feedback_txt.stopped,fix.started,fix.stopped,curr_topStim,curr_bottStim,curr_shape,ISI.started,tgt_fix_prac1.started,top_target_prac1.started,bott_target_prac1.started,target_resp_prac1.started,acc,E1,target_resp_prac1.keys,target_resp_prac1.rt,pracBlock,prac_fback_text.started,prac_fback_text.stopped,tgt_fix_prac2.started,top_target_prac2.started,bott_target_prac2.started,target_resp_prac2.started,target_resp_prac2.keys,target_resp_prac2.rt,star.started,hegagon.started,triangle.started,circle.started,top_target.started,tgt_fix.started,bot_target.started,target_resp.started,star.stopped,hegagon.stopped,triangle.stopped,circle.stopped,alt,task,condition,target_resp.keys,target_resp.rt,rewCond,vts_fback.started,vts_fback.stopped,blockNum,norew_fback.started,norew_fback.stopped,key_resp_2.keys,key_resp_2.rt,top_target.stopped,tgt_fix.stopped,bot_target.stopped,target_resp.stopped,rewExpectancy,feedbk_text.started,feedbk_text.stopped,text_3.started,text_3.stopped,button.started,debrief.index,debrief.itemText,debrief.type,debrief.granularity,debrief.font,debrief.markerColor,debrief.response,debrief.rt,button.numClicks,button.timesOn,button.timesOff,participant,date,expName,psychopyVersion,frameRate,
,,,,,,,,,,,,,,,,,,,,,,,,,,,,,,,,,,,,,,,,,,,,,,,,,,,,,,13.346862399019301,space,21.076969587011263,,,,,,,,,,,,,,,,,,,,,,,,,,,,,,,,,,,,,,,,,,,,,,,,,,,,,,,,,,,,,,,,,,,,,,,,,,,,,,,,,,,,,,,21613,2022-10-31_13h51.30.563,vts_reward_expectancy_bt_OFFLINE,2022.2.4,59.892617206940045,
0,0,0,1,0,1,0,0,star ,circle,0,0,0,0,0,0,0,10,,,,,,,,,,,,,,,,,,,,,,,,,,,,,,,,,,,,,,,,97.7745516540017,97.7745516540017,97.7745516540017,97.7745516540017,97.7745516540017,97.7745516540017,97.7745516540017,97.7745516540017,97.7745516540017,97.7745516540017,a,1.8339862589491531,0,0,0,99.63162553001894,101.13088418601546,101.13088418601546,101.63107180100633,,,,,,,,,,,,,,,,,,,,,,,,,,,,,,,,,,,,,,,,,,,,,,,,,,,,,,,,,,,,,,,,,,,,21613,2022-10-31_13h51.30.563,vts_reward_expectancy_bt_OFFLINE,2022.2.4,59.892617206940045,
0,0,1,0,0,1,0,0,hexagon,circle,0,0,0,0,0,1,1,7,,,,,,,,,,,,,,,,,,,,,,,,,,,,,,,,,,,,,,,,101.63107180100633,101.63107180100633,101.63107180100633,101.63107180100633,101.63107180100633,101.63107180100633,101.63107180100633,101.63107180100633,101.63107180100633,101.63107180100633,a,0.8165266700088978,10,10,0,102.46793537598569,103.96715711301658,103.96715711301658,104.46728122601053,,,,,,,,,,,,,,,,,,,,,,,,,,,,,,,,,,,,,,,,,,,,,,,,,,,,,,,,,,,,,,,,,,,,21613,2022-10-31_13h51.30.563,vts_reward_expectancy_bt_OFFLINE,2022.2.4,59.892617206940045,
0,0,1,0,0,0,0,1,hexagon,star,0,0,0,0,0,2,2,8,,,,,,,,,,,,,,,,,,,,,,,,,,,,,,,,,,,,,,,,104.46728122601053,104.46728122601053,104.46728122601053,104.46728122601053,104.46728122601053,104.46728122601053,104.46728122601053,104.46728122601053,104.46728122601053,104.46728122601053,a,1.348853486997541,10,20,0,105.83456930803368,,107.33681097399676,,,,,,,,,,,,,,,,,,,,,,,,,,,,,,,,,,,,,,,,,,,,,,,,,,,,,,,,,,,,,,,,,,,,,21613,2022-10-31_13h51.30.563,vts_reward_expectancy_bt_OFFLINE,2022.2.4,59.892617206940045,
0,0,0,1,0,0,1,0,star,hexagon,0,0,0,0,0,3,3,11,,,,,,,,,,,,,,,,,,,,,,,,,,,,,,,,,,,,,,,,107.83688898500986,107.83688898500986,107.83688898500986,107.83688898500986,107.83688898500986,107.83688898500986,107.83688898500986,107.83688898500986,107.83688898500986,107.83688898500986,l,2.0908094219630584,10,30,0,109.95435577700846,111.45500504301162,111.45500504301162,,,,,,,,,,,,,,,,,,,,,,,,,,,,,,,,,,,,,,,,,,,,,,,,,,,,,,,,,,,,,,,,,,,,,21613,2022-10-31_13h51.30.563,vts_reward_expectancy_bt_OFFLINE,2022.2.4,59.892617206940045,
1,0,0,0,0,0,1,0,triangle,hexagon,0,0,0,0,0,4,4,1,,,,,,,,,,,,,,,,,,,,,,,,,,,,,,,,,,,,,,,,111.95714652299648,111.95714652299648,111.95714652299648,111.95714652299648,111.95714652299648,111.95714652299648,111.95714652299648,111.95714652299648,111.95714652299648,111.95714652299648,l,1.6745577430119738,10,40,0,113.65763066400541,115.15823305002414,115.15823305002414,115.65859009500127,,,,,,,,,,,,,,,,,,,,,,,,,,,,,,,,,,,,,,,,,,,,,,,,,,,,,,,,,,,,,,,,,,,,21613,2022-10-31_13h51.30.563,vts_reward_expectancy_bt_OFFLINE,2022.2.4,59.892617206940045,
0,1,0,0,0,0,1,0,circle,hexagon,0,0,0,0,0,5,5,4,,,,,,,,,,,,,,,,,,,,,,,,,,,,,,,,,,,,,,,,115.65859009500127,115.65859009500127,115.65859009500127,115.65859009500127,115.65859009500127,115.65859009500127,115.65859009500127,115.65859009500127,115.65859009500127,115.65859009500127,a,3.1656878059729934,10,50,0,118.84465250198264,120.3452281409991,120.3452281409991,120.8452702750219,,,,,,,,,,,,,,,,,,,,,,,,,,,,,,,,,,,,,,,,,,,,,,,,,,,,,,,,,,,,,,,,,,,,21613,2022-10-31_13h51.30.563,vts_reward_expectancy_bt_OFFLINE,2022.2.4,59.892617206940045,
0,0,1,0,1,0,0,0,hexagon,triangle,0,0,0,0,0,6,6,6,,,,,,,,,,,,,,,,,,,,,,,,,,,,,,,,,,,,,,,,120.8452702750219,120.8452702750219,120.8452702750219,120.8452702750219,120.8452702750219,120.8452702750219,120.8452702750219,120.8452702750219,120.8452702750219,120.8452702750219,a,1.4019689279375598,10,60,0,122.26445906999288,123.76501918397844,123.76501918397844,124.26522699999623,,,,,,,,,,,,,,,,,,,,,,,,,,,,,,,,,,,,,,,,,,,,,,,,,,,,,,,,,,,,,,,,,,,,21613,2022-10-31_13h51.30.563,vts_reward_expectancy_bt_OFFLINE,2022.2.4,59.892617206940045,
0,1,0,0,1,0,0,0,circle,triangle,0,0,0,0,0,7,7,3,,,,,,,,,,,,,,,,,,,,,,,,,,,,,,,,,,,,,,,,124.26522699999623,124.26522699999623,124.26522699999623,124.26522699999623,124.26522699999623,124.26522699999623,124.26522699999623,124.26522699999623,124.26522699999623,124.26522699999623,l,1.6305251939920709,10,70,0,125.91556631802814,,127.41795348300366,,,,,,,,,,,,,,,,,,,,,,,,,,,,,,,,,,,,,,,,,,,,,,,,,,,,,,,,,,,,,,,,,,,,,21613,2022-10-31_13h51.30.563,vts_reward_expectancy_bt_OFFLINE,2022.2.4,59.892617206940045,
1,0,0,0,0,1,0,0,triangle,circle,0,0,0,0,0,8,8,0,,,,,,,,,,,,,,,,,,,,,,,,,,,,,,,,,,,,,,,,127.91823297098745,127.91823297098745,127.91823297098745,127.91823297098745,127.91823297098745,127.91823297098745,127.91823297098745,127.91823297098745,127.91823297098745,127.91823297098745,l,1.609781840001233,10,80,0,129.55214972503018,131.0525505390251,131.0525505390251,131.55285159201594,,,,,,,,,,,,,,,,,,,,,,,,,,,,,,,,,,,,,,,,,,,,,,,,,,,,,,,,,,,,,,,,,,,,21613,2022-10-31_13h51.30.563,vts_reward_expectancy_bt_OFFLINE,2022.2.4,59.892617206940045,
0,0,0,1,1,0,0,0,star,triangle,0,0,0,0,0,9,9,9,,,,,,,,,,,,,,,,,,,,,,,,,,,,,,,,,,,,,,,,131.55285159201594,131.55285159201594,131.55285159201594,131.55285159201594,131.55285159201594,131.55285159201594,131.55285159201594,131.55285159201594,131.55285159201594,131.55285159201594,l,0.7588369389995933,1,81,0,132.33923874603352,133.83884311001748,133.83884311001748,134.33909057400888,,,,,,,,,,,,,,,,,,,,,,,,,,,,,,,,,,,,,,,,,,,,,,,,,,,,,,,,,,,,,,,,,,,,21613,2022-10-31_13h51.30.563,vts_reward_expectancy_bt_OFFLINE,2022.2.4,59.892617206940045,
1,0,0,0,0,0,0,1,triangle,star,0,0,0,0,0,10,10,2,,,,,,,,,,,,,,,,,,,,,,,,,,,,,,,,,,,,,,,,134.33909057400888,134.33909057400888,134.33909057400888,134.33909057400888,134.33909057400888,134.33909057400888,134.33909057400888,134.33909057400888,134.33909057400888,134.33909057400888,l,1.5721737149870023,10,91,0,135.94034027698217,,137.4419285050244,,,,,,,,,,,,,,,,,,,,,,,,,,,,,,,,,,,,,,,,,,,,,,,,,,,,,,,,,,,,,,,,,,,,,21613,2022-10-31_13h51.30.563,vts_reward_expectancy_bt_OFFLINE,2022.2.4,59.892617206940045,
0,1,0,0,0,0,0,1,circle,star,0,0,0,0,0,11,11,5,,,,,,,,,,,,,,,,,,,,,,,,,,,,,,,,,,,,,,,,137.9423392849858,137.9423392849858,137.9423392849858,137.9423392849858,137.9423392849858,137.9423392849858,137.9423392849858,137.9423392849858,137.9423392849858,137.9423392849858,a,1.0819015930173919,1,92,0,139.04372209799476,140.54301729699364,140.54301729699364,141.04359129001386,,,,,,,,,,,,,,,,,,,,,,,,,,,,,,,,,,,,,,,,,,,,,,,,,,,,,,,,,,,,,,,,,,,,21613,2022-10-31_13h51.30.563,vts_reward_expectancy_bt_OFFLINE,2022.2.4,59.892617206940045,
0,1,0,0,0,0,0,1,circle,star,0,0,0,0,1,0,12,5,,,,,,,,,,,,,,,,,,,,,,,,,,,,,,,,,,,,,,,,141.04359129001386,141.04359129001386,141.04359129001386,141.04359129001386,141.04359129001386,141.04359129001386,141.04359129001386,141.04359129001386,141.04359129001386,141.04359129001386,a,1.1635567109915428,1,93,0,142.2288385949796,143.72940652701072,143.72940652701072,144.22968001302797,,,,,,,,,,,,,,,,,,,,,,,,,,,,,,,,,,,,,,,,,,,,,,,,,,,,,,,,,,,,,,,,,,,,21613,2022-10-31_13h51.30.563,vts_reward_expectancy_bt_OFFLINE,2022.2.4,59.892617206940045,
1,0,0,0,0,0,0,1,triangle,star,0,0,0,0,1,1,13,2,,,,,,,,,,,,,,,,,,,,,,,,,,,,,,,,,,,,,,,,144.22968001302797,144.22968001302797,144.22968001302797,144.22968001302797,144.22968001302797,144.22968001302797,144.22968001302797,144.22968001302797,144.22968001302797,144.22968001302797,l,1.9303148509934545,10,103,0,146.18133076798404,,147.68273678101832,,,,,,,,,,,,,,,,,,,,,,,,,,,,,,,,,,,,,,,,,,,,,,,,,,,,,,,,,,,,,,,,,,,,,21613,2022-10-31_13h51.30.563,vts_reward_expectancy_bt_OFFLINE,2022.2.4,59.892617206940045,
1,0,0,0,0,0,1,0,triangle,hexagon,0,0,0,0,1,2,14,1,,,,,,,,,,,,,,,,,,,,,,,,,,,,,,,,,,,,,,,,148.18287109601079,148.18287109601079,148.18287109601079,148.18287109601079,148.18287109601079,148.18287109601079,148.18287109601079,148.18287109601079,148.18287109601079,148.18287109601079,l,1.4722914909943938,1,104,0,149.68385461100843,151.1839601349784,151.1839601349784,151.68198595702415,,,,,,,,,,,,,,,,,,,,,,,,,,,,,,,,,,,,,,,,,,,,,,,,,,,,,,,,,,,,,,,,,,,,21613,2022-10-31_13h51.30.563,vts_reward_expectancy_bt_OFFLINE,2022.2.4,59.892617206940045,
0,1,0,0,0,0,1,0,circle,hexagon,0,0,0,0,1,3,15,4,,,,,,,,,,,,,,,,,,,,,,,,,,,,,,,,,,,,,,,,151.68198595702415,151.68198595702415,151.68198595702415,151.68198595702415,151.68198595702415,151.68198595702415,151.68198595702415,151.68198595702415,151.68198595702415,151.68198595702415,l,0.6220047179376706,10,114,0,152.33633079199353,153.83668776397826,153.83668776397826,,,,,,,,,,,,,,,,,,,,,,,,,,,,,,,,,,,,,,,,,,,,,,,,,,,,,,,,,,,,,,,,,,,,,21613,2022-10-31_13h51.30.563,vts_reward_expectancy_bt_OFFLINE,2022.2.4,59.892617206940045,
0,1,0,0,1,0,0,0,circle,triangle,0,0,0,0,1,4,16,3,,,,,,,,,,,,,,,,,,,,,,,,,,,,,,,,,,,,,,,,154.3369297250174,154.3369297250174,154.3369297250174,154.3369297250174,154.3369297250174,154.3369297250174,154.3369297250174,154.3369297250174,154.3369297250174,154.3369297250174,l,0.799221551977098,1,115,0,155.15492977999384,156.65421119198436,156.65421119198436,,,,,,,,,,,,,,,,,,,,,,,,,,,,,,,,,,,,,,,,,,,,,,,,,,,,,,,,,,,,,,,,,,,,,21613,2022-10-31_13h51.30.563,vts_reward_expectancy_bt_OFFLINE,2022.2.4,59.892617206940045,
0,0,0,1,0,0,1,0,star,hexagon,0,0,0,0,1,5,17,11,,,,,,,,,,,,,,,,,,,,,,,,,,,,,,,,,,,,,,,,157.156660587003,157.156660587003,157.156660587003,157.156660587003,157.156660587003,157.156660587003,157.156660587003,157.156660587003,157.156660587003,157.156660587003,l,1.0508170889806934,10,125,0,158.24057866702788,159.74078083003405,159.74078083003405,160.24102302698884,,,,,,,,,,,,,,,,,,,,,,,,,,,,,,,,,,,,,,,,,,,,,,,,,,,,,,,,,,,,,,,,,,,,21613,2022-10-31_13h51.30.563,vts_reward_expectancy_bt_OFFLINE,2022.2.4,59.892617206940045,
0,0,1,0,0,0,0,1,hexagon,star,0,0,0,0,1,6,18,8,,,,,,,,,,,,,,,,,,,,,,,,,,,,,,,,,,,,,,,,160.24102302698884,160.24102302698884,160.24102302698884,160.24102302698884,160.24102302698884,160.24102302698884,160.24102302698884,160.24102302698884,160.24102302698884,160.24102302698884,a,0.2631573569960892,10,135,0,160.52414902299643,,162.02693695598282,,,,,,,,,,,,,,,,,,,,,,,,,,,,,,,,,,,,,,,,,,,,,,,,,,,,,,,,,,,,,,,,,,,,,21613,2022-10-31_13h51.30.563,vts_reward_expectancy_bt_OFFLINE,2022.2.4,59.892617206940045,
1,0,0,0,0,1,0,0,triangle,circle,0,0,0,0,1,7,19,0,,,,,,,,,,,,,,,,,,,,,,,,,,,,,,,,,,,,,,,,162.52688036399195,162.52688036399195,162.52688036399195,162.52688036399195,162.52688036399195,162.52688036399195,162.52688036399195,162.52688036399195,162.52688036399195,162.52688036399195,l,0.3771151509718038,1,136,0,162.92782208498102,164.42777868098347,164.42777868098347,164.9277899620356,,,,,,,,,,,,,,,,,,,,,,,,,,,,,,,,,,,,,,,,,,,,,,,,,,,,,,,,,,,,,,,,,,,,21613,2022-10-31_13h51.30.563,vts_reward_expectancy_bt_OFFLINE,2022.2.4,59.892617206940045,
0,0,0,1,1,0,0,0,star,triangle,0,0,0,0,1,8,20,9,,,,,,,,,,,,,,,,,,,,,,,,,,,,,,,,,,,,,,,,164.9277899620356,164.9277899620356,164.9277899620356,164.9277899620356,164.9277899620356,164.9277899620356,164.9277899620356,164.9277899620356,164.9277899620356,164.9277899620356,l,0.7682571319746785,1,137,0,165.72809535101987,,167.2306555340183,,,,,,,,,,,,,,,,,,,,,,,,,,,,,,,,,,,,,,,,,,,,,,,,,,,,,,,,,,,,,,,,,,,,,21613,2022-10-31_13h51.30.563,vts_reward_expectancy_bt_OFFLINE,2022.2.4,59.892617206940045,
0,0,1,0,1,0,0,0,hexagon,triangle,0,0,0,0,1,9,21,6,,,,,,,,,,,,,,,,,,,,,,,,,,,,,,,,,,,,,,,,167.73078904900467,167.73078904900467,167.73078904900467,167.73078904900467,167.73078904900467,167.73078904900467,167.73078904900467,167.73078904900467,167.73078904900467,167.73078904900467,l,0.3412398769869469,10,147,0,168.09852992399829,169.59804759698454,169.59804759698454,170.09803827101132,,,,,,,,,,,,,,,,,,,,,,,,,,,,,,,,,,,,,,,,,,,,,,,,,,,,,,,,,,,,,,,,,,,,21613,2022-10-31_13h51.30.563,vts_reward_expectancy_bt_OFFLINE,2022.2.4,59.892617206940045,
0,0,1,0,0,1,0,0,hexagon,circle,0,0,0,0,1,10,22,7,,,,,,,,,,,,,,,,,,,,,,,,,,,,,,,,,,,,,,,,170.09803827101132,170.09803827101132,170.09803827101132,170.09803827101132,170.09803827101132,170.09803827101132,170.09803827101132,170.09803827101132,170.09803827101132,170.09803827101132,l,1.8372488789609633,10,157,0,171.9672417329857,173.46795990498504,173.46795990498504,173.96792530099628,,,,,,,,,,,,,,,,,,,,,,,,,,,,,,,,,,,,,,,,,,,,,,,,,,,,,,,,,,,,,,,,,,,,21613,2022-10-31_13h51.30.563,vts_reward_expectancy_bt_OFFLINE,2022.2.4,59.892617206940045,
0,0,0,1,0,1,0,0,star ,circle,0,0,0,0,1,11,23,10,,,,,,,,,,,,,,,,,,,,,,,,,,,,,,,,,,,,,,,,173.96792530099628,173.96792530099628,173.96792530099628,173.96792530099628,173.96792530099628,173.96792530099628,173.96792530099628,173.96792530099628,173.96792530099628,173.96792530099628,l,0.6483645209809765,1,158,0,174.63620130100753,176.1354959110031,176.1354959110031,176.6356364079984,,,,,,,,,,,,,,,,,,,,,,,,,,,,,,,,,,,,,,,,,,,,,,,,,,,,,,,,,,,,,,,,,,,,21613,2022-10-31_13h51.30.563,vts_reward_expectancy_bt_OFFLINE,2022.2.4,59.892617206940045,
0,0,0,1,0,0,1,0,star,hexagon,0,0,0,0,2,0,24,11,,,,,,,,,,,,,,,,,,,,,,,,,,,,,,,,,,,,,,,,176.6356364079984,176.6356364079984,176.6356364079984,176.6356364079984,176.6356364079984,176.6356364079984,176.6356364079984,176.6356364079984,176.6356364079984,176.6356364079984,l,0.4124731699703261,10,168,0,177.07195024198154,178.57138492399827,178.57138492399827,179.07172007497866,,,,,,,,,,,,,,,,,,,,,,,,,,,,,,,,,,,,,,,,,,,,,,,,,,,,,,,,,,,,,,,,,,,,21613,2022-10-31_13h51.30.563,vts_reward_expectancy_bt_OFFLINE,2022.2.4,59.892617206940045,
1,0,0,0,0,1,0,0,triangle,circle,0,0,0,0,2,1,25,0,,,,,,,,,,,,,,,,,,,,,,,,,,,,,,,,,,,,,,,,179.07172007497866,179.07172007497866,179.07172007497866,179.07172007497866,179.07172007497866,179.07172007497866,179.07172007497866,179.07172007497866,179.07172007497866,179.07172007497866,l,1.7118160329991952,10,178,0,180.8055078550242,,182.30814306798857,,,,,,,,,,,,,,,,,,,,,,,,,,,,,,,,,,,,,,,,,,,,,,,,,,,,,,,,,,,,,,,,,,,,,21613,2022-10-31_13h51.30.563,vts_reward_expectancy_bt_OFFLINE,2022.2.4,59.892617206940045,
0,0,1,0,0,1,0,0,hexagon,circle,0,0,0,0,2,2,26,7,,,,,,,,,,,,,,,,,,,,,,,,,,,,,,,,,,,,,,,,182.8081915259827,182.8081915259827,182.8081915259827,182.8081915259827,182.8081915259827,182.8081915259827,182.8081915259827,182.8081915259827,182.8081915259827,182.8081915259827,l,1.207033781975042,1,179,0,184.04307576699648,185.54247958399355,185.54247958399355,186.04271828301717,,,,,,,,,,,,,,,,,,,,,,,,,,,,,,,,,,,,,,,,,,,,,,,,,,,,,,,,,,,,,,,,,,,,21613,2022-10-31_13h51.30.563,vts_reward_expectancy_bt_OFFLINE,2022.2.4,59.892617206940045,
0,0,0,1,0,1,0,0,star ,circle,0,0,0,0,2,3,27,10,,,,,,,,,,,,,,,,,,,,,,,,,,,,,,,,,,,,,,,,186.04271828301717,186.04271828301717,186.04271828301717,186.04271828301717,186.04271828301717,186.04271828301717,186.04271828301717,186.04271828301717,186.04271828301717,186.04271828301717,l,0.26925261795986444,10,189,0,186.34379976900527,,187.84533513401402,,,,,,,,,,,,,,,,,,,,,,,,,,,,,,,,,,,,,,,,,,,,,,,,,,,,,,,,,,,,,,,,,,,,,21613,2022-10-31_13h51.30.563,vts_reward_expectancy_bt_OFFLINE,2022.2.4,59.892617206940045,
0,1,0,0,1,0,0,0,circle,triangle,0,0,0,0,2,4,28,3,,,,,,,,,,,,,,,,,,,,,,,,,,,,,,,,,,,,,,,,188.34544922300847,188.34544922300847,188.34544922300847,188.34544922300847,188.34544922300847,188.34544922300847,188.34544922300847,188.34544922300847,188.34544922300847,188.34544922300847,a,1.0139824009966105,1,190,0,189.37993857602123,190.87966904701898,190.87966904701898,191.3798623990151,,,,,,,,,,,,,,,,,,,,,,,,,,,,,,,,,,,,,,,,,,,,,,,,,,,,,,,,,,,,,,,,,,,,21613,2022-10-31_13h51.30.563,vts_reward_expectancy_bt_OFFLINE,2022.2.4,59.892617206940045,
0,1,0,0,0,0,0,1,circle,star,0,0,0,0,2,5,29,5,,,,,,,,,,,,,,,,,,,,,,,,,,,,,,,,,,,,,,,,191.3798623990151,191.3798623990151,191.3798623990151,191.3798623990151,191.3798623990151,191.3798623990151,191.3798623990151,191.3798623990151,191.3798623990151,191.3798623990151,a,0.46742029895540327,1,191,0,191.86521703499602,193.36563816299895,193.36563816299895,193.86590724799316,,,,,,,,,,,,,,,,,,,,,,,,,,,,,,,,,,,,,,,,,,,,,,,,,,,,,,,,,,,,,,,,,,,,21613,2022-10-31_13h51.30.563,vts_reward_expectancy_bt_OFFLINE,2022.2.4,59.892617206940045,
0,0,1,0,1,0,0,0,hexagon,triangle,0,0,0,0,2,6,30,6,,,,,,,,,,,,,,,,,,,,,,,,,,,,,,,,,,,,,,,,193.86590724799316,193.86590724799316,193.86590724799316,193.86590724799316,193.86590724799316,193.86590724799316,193.86590724799316,193.86590724799316,193.86590724799316,193.86590724799316,a,0.6212662080070004,10,201,0,194.5175177049823,196.01684774103342,196.01684774103342,196.51677874597954,,,,,,,,,,,,,,,,,,,,,,,,,,,,,,,,,,,,,,,,,,,,,,,,,,,,,,,,,,,,,,,,,,,,21613,2022-10-31_13h51.30.563,vts_reward_expectancy_bt_OFFLINE,2022.2.4,59.892617206940045,
0,0,1,0,0,0,0,1,hexagon,star,0,0,0,0,2,7,31,8,,,,,,,,,,,,,,,,,,,,,,,,,,,,,,,,,,,,,,,,196.51677874597954,196.51677874597954,196.51677874597954,196.51677874597954,196.51677874597954,196.51677874597954,196.51677874597954,196.51677874597954,196.51677874597954,196.51677874597954,a,0.6755113739636727,10,211,0,197.21895569202024,198.71951315097976,198.71951315097976,199.21955928800162,,,,,,,,,,,,,,,,,,,,,,,,,,,,,,,,,,,,,,,,,,,,,,,,,,,,,,,,,,,,,,,,,,,,21613,2022-10-31_13h51.30.563,vts_reward_expectancy_bt_OFFLINE,2022.2.4,59.892617206940045,
0,1,0,0,0,0,1,0,circle,hexagon,0,0,0,0,2,8,32,4,,,,,,,,,,,,,,,,,,,,,,,,,,,,,,,,,,,,,,,,199.21955928800162,199.21955928800162,199.21955928800162,199.21955928800162,199.21955928800162,199.21955928800162,199.21955928800162,199.21955928800162,199.21955928800162,199.21955928800162,a,0.820501247944776,1,212,0,200.07107210502727,201.5706019559875,201.5706019559875,,,,,,,,,,,,,,,,,,,,,,,,,,,,,,,,,,,,,,,,,,,,,,,,,,,,,,,,,,,,,,,,,,,,,21613,2022-10-31_13h51.30.563,vts_reward_expectancy_bt_OFFLINE,2022.2.4,59.892617206940045,
1,0,0,0,0,0,1,0,triangle,hexagon,0,0,0,0,2,9,33,1,,,,,,,,,,,,,,,,,,,,,,,,,,,,,,,,,,,,,,,,202.0725544760353,202.0725544760353,202.0725544760353,202.0725544760353,202.0725544760353,202.0725544760353,202.0725544760353,202.0725544760353,202.0725544760353,202.0725544760353,a,0.46327201201347634,1,213,0,202.55602100602118,204.05640726699494,204.05640726699494,204.55658797197975,,,,,,,,,,,,,,,,,,,,,,,,,,,,,,,,,,,,,,,,,,,,,,,,,,,,,,,,,,,,,,,,,,,,21613,2022-10-31_13h51.30.563,vts_reward_expectancy_bt_OFFLINE,2022.2.4,59.892617206940045,
0,0,0,1,1,0,0,0,star,triangle,0,0,0,0,2,10,34,9,,,,,,,,,,,,,,,,,,,,,,,,,,,,,,,,,,,,,,,,204.55658797197975,204.55658797197975,204.55658797197975,204.55658797197975,204.55658797197975,204.55658797197975,204.55658797197975,204.55658797197975,204.55658797197975,204.55658797197975,l,0.47559920500498265,1,214,0,205.05698556202697,206.55733317899285,206.55733317899285,,,,,,,,,,,,,,,,,,,,,,,,,,,,,,,,,,,,,,,,,,,,,,,,,,,,,,,,,,,,,,,,,,,,,21613,2022-10-31_13h51.30.563,vts_reward_expectancy_bt_OFFLINE,2022.2.4,59.892617206940045,
1,0,0,0,0,0,0,1,triangle,star,0,0,0,0,2,11,35,2,,,,,,,,,,,,,,,,,,,,,,,,,,,,,,,,,,,,,,,,207.05959239898948,207.05959239898948,207.05959239898948,207.05959239898948,207.05959239898948,207.05959239898948,207.05959239898948,207.05959239898948,207.05959239898948,207.05959239898948,l,1.9239364900276996,10,224,0,209.0116282660165,210.51082664600108,210.51082664600108,211.01077612198424,,,,,,,,,,,,,,,,,,,,,,,,,,,,,,,,,,,,,,,,,,,,,,,,,,,,,,,,,,,,,,,,,,,,21613,2022-10-31_13h51.30.563,vts_reward_expectancy_bt_OFFLINE,2022.2.4,59.892617206940045,
0,0,0,1,0,0,1,0,star,hexagon,0,0,0,0,3,0,36,11,,,,,,,,,,,,,,,,,,,,,,,,,,,,,,,,,,,,,,,,211.01077612198424,211.01077612198424,211.01077612198424,211.01077612198424,211.01077612198424,211.01077612198424,211.01077612198424,211.01077612198424,211.01077612198424,211.01077612198424,l,3.092945822980255,10,234,0,214.130515575991,215.63113916898146,215.63113916898146,216.13134483702015,,,,,,,,,,,,,,,,,,,,,,,,,,,,,,,,,,,,,,,,,,,,,,,,,,,,,,,,,,,,,,,,,,,,21613,2022-10-31_13h51.30.563,vts_reward_expectancy_bt_OFFLINE,2022.2.4,59.892617206940045,
1,0,0,0,0,1,0,0,triangle,circle,0,0,0,0,3,1,37,0,,,,,,,,,,,,,,,,,,,,,,,,,,,,,,,,,,,,,,,,216.13134483702015,216.13134483702015,216.13134483702015,216.13134483702015,216.13134483702015,216.13134483702015,216.13134483702015,216.13134483702015,216.13134483702015,216.13134483702015,l,0.5001049179700203,1,235,0,216.64938539802097,,218.15052547003143,,,,,,,,,,,,,,,,,,,,,,,,,,,,,,,,,,,,,,,,,,,,,,,,,,,,,,,,,,,,,,,,,,,,,21613,2022-10-31_13h51.30.563,vts_reward_expectancy_bt_OFFLINE,2022.2.4,59.892617206940045,
0,0,0,1,0,1,0,0,star ,circle,0,0,0,0,3,2,38,10,,,,,,,,,,,,,,,,,,,,,,,,,,,,,,,,,,,,,,,,218.65076885500457,218.65076885500457,218.65076885500457,218.65076885500457,218.65076885500457,218.65076885500457,218.65076885500457,218.65076885500457,218.65076885500457,218.65076885500457,a,1.844485437963158,1,236,0,220.51813671801938,,222.0203295830288,,,,,,,,,,,,,,,,,,,,,,,,,,,,,,,,,,,,,,,,,,,,,,,,,,,,,,,,,,,,,,,,,,,,,21613,2022-10-31_13h51.30.563,vts_reward_expectancy_bt_OFFLINE,2022.2.4,59.892617206940045,
0,1,0,0,1,0,0,0,circle,triangle,0,0,0,0,3,3,39,3,,,,,,,,,,,,,,,,,,,,,,,,,,,,,,,,,,,,,,,,222.5207171390066,222.5207171390066,222.5207171390066,222.5207171390066,222.5207171390066,222.5207171390066,222.5207171390066,222.5207171390066,222.5207171390066,222.5207171390066,l,1.3586799959884956,1,237,0,223.90465846599545,225.40478140098276,225.40478140098276,225.90509330201894,,,,,,,,,,,,,,,,,,,,,,,,,,,,,,,,,,,,,,,,,,,,,,,,,,,,,,,,,,,,,,,,,,,,21613,2022-10-31_13h51.30.563,vts_reward_expectancy_bt_OFFLINE,2022.2.4,59.892617206940045,
0,1,0,0,0,0,1,0,circle,hexagon,0,0,0,0,3,4,40,4,,,,,,,,,,,,,,,,,,,,,,,,,,,,,,,,,,,,,,,,225.90509330201894,225.90509330201894,225.90509330201894,225.90509330201894,225.90509330201894,225.90509330201894,225.90509330201894,225.90509330201894,225.90509330201894,225.90509330201894,l,0.670593412942253,10,247,0,226.60640975099523,,228.10791994998,,,,,,,,,,,,,,,,,,,,,,,,,,,,,,,,,,,,,,,,,,,,,,,,,,,,,,,,,,,,,,,,,,,,,21613,2022-10-31_13h51.30.563,vts_reward_expectancy_bt_OFFLINE,2022.2.4,59.892617206940045,
1,0,0,0,0,0,1,0,triangle,hexagon,0,0,0,0,3,5,41,1,,,,,,,,,,,,,,,,,,,,,,,,,,,,,,,,,,,,,,,,228.60789445601404,228.60789445601404,228.60789445601404,228.60789445601404,228.60789445601404,228.60789445601404,228.60789445601404,228.60789445601404,228.60789445601404,228.60789445601404,l,0.49528115696739405,10,257,0,229.12505086802412,230.62544329703087,230.62544329703087,231.1255013900227,,,,,,,,,,,,,,,,,,,,,,,,,,,,,,,,,,,,,,,,,,,,,,,,,,,,,,,,,,,,,,,,,,,,21613,2022-10-31_13h51.30.563,vts_reward_expectancy_bt_OFFLINE,2022.2.4,59.892617206940045,
0,0,0,1,1,0,0,0,star,triangle,0,0,0,0,3,6,42,9,,,,,,,,,,,,,,,,,,,,,,,,,,,,,,,,,,,,,,,,231.1255013900227,231.1255013900227,231.1255013900227,231.1255013900227,231.1255013900227,231.1255013900227,231.1255013900227,231.1255013900227,231.1255013900227,231.1255013900227,l,0.6109350660117343,1,258,0,231.75599772803253,,233.26158006099286,,,,,,,,,,,,,,,,,,,,,,,,,,,,,,,,,,,,,,,,,,,,,,,,,,,,,,,,,,,,,,,,,,,,,21613,2022-10-31_13h51.30.563,vts_reward_expectancy_bt_OFFLINE,2022.2.4,59.892617206940045,
1,0,0,0,0,0,0,1,triangle,star,0,0,0,0,3,7,43,2,,,,,,,,,,,,,,,,,,,,,,,,,,,,,,,,,,,,,,,,233.76161363098072,233.76161363098072,233.76161363098072,233.76161363098072,233.76161363098072,233.76161363098072,233.76161363098072,233.76161363098072,233.76161363098072,233.76161363098072,l,0.6466905500274152,10,268,0,234.43027450999944,,235.94579540297855,,,,,,,,,,,,,,,,,,,,,,,,,,,,,,,,,,,,,,,,,,,,,,,,,,,,,,,,,,,,,,,,,,,,,21613,2022-10-31_13h51.30.563,vts_reward_expectancy_bt_OFFLINE,2022.2.4,59.892617206940045,
0,0,1,0,0,1,0,0,hexagon,circle,0,0,0,0,3,8,44,7,,,,,,,,,,,,,,,,,,,,,,,,,,,,,,,,,,,,,,,,236.44601618801244,236.44601618801244,236.44601618801244,236.44601618801244,236.44601618801244,236.44601618801244,236.44601618801244,236.44601618801244,236.44601618801244,236.44601618801244,l,0.1616712249815464,10,278,0,236.62921712099342,,238.13197377801407,,,,,,,,,,,,,,,,,,,,,,,,,,,,,,,,,,,,,,,,,,,,,,,,,,,,,,,,,,,,,,,,,,,,,21613,2022-10-31_13h51.30.563,vts_reward_expectancy_bt_OFFLINE,2022.2.4,59.892617206940045,
0,1,0,0,0,0,0,1,circle,star,0,0,0,0,3,9,45,5,,,,,,,,,,,,,,,,,,,,,,,,,,,,,,,,,,,,,,,,238.63201013603248,238.63201013603248,238.63201013603248,238.63201013603248,238.63201013603248,238.63201013603248,238.63201013603248,238.63201013603248,238.63201013603248,238.63201013603248,a,0.45525493496097624,1,279,0,239.11680070200237,240.6159593469929,240.6159593469929,241.1160854260088,,,,,,,,,,,,,,,,,,,,,,,,,,,,,,,,,,,,,,,,,,,,,,,,,,,,,,,,,,,,,,,,,,,,21613,2022-10-31_13h51.30.563,vts_reward_expectancy_bt_OFFLINE,2022.2.4,59.892617206940045,
0,0,1,0,1,0,0,0,hexagon,triangle,0,0,0,0,3,10,46,6,,,,,,,,,,,,,,,,,,,,,,,,,,,,,,,,,,,,,,,,241.1160854260088,241.1160854260088,241.1160854260088,241.1160854260088,241.1160854260088,241.1160854260088,241.1160854260088,241.1160854260088,241.1160854260088,241.1160854260088,l,0.6756240769755095,1,280,0,241.8180348050082,243.31888164702104,243.31888164702104,,,,,,,,,,,,,,,,,,,,,,,,,,,,,,,,,,,,,,,,,,,,,,,,,,,,,,,,,,,,,,,,,,,,,21613,2022-10-31_13h51.30.563,vts_reward_expectancy_bt_OFFLINE,2022.2.4,59.892617206940045,
0,0,1,0,0,0,0,1,hexagon,star,0,0,0,0,3,11,47,8,,,,,,,,,,,,,,,,,,,,,,,,,,,,,,,,,,,,,,,,243.81903064099606,243.81903064099606,243.81903064099606,243.81903064099606,243.81903064099606,243.81903064099606,243.81903064099606,243.81903064099606,243.81903064099606,243.81903064099606,l,0.6361027909442782,10,290,0,244.4873150900239,245.98644638201222,245.98644638201222,246.49241646402515,,,,,,,,,,,,,,,,,,,,,,,,,,,,,,,,,,,,,,,,,,,,,,,,,,,,,,,,,,,,,,,,,,,,21613,2022-10-31_13h51.30.563,vts_reward_expectancy_bt_OFFLINE,2022.2.4,59.892617206940045,
0,0,1,0,1,0,0,0,hexagon,triangle,1,0,1,0,0,0,0,6,,,,,,,,,,,,,,,,,,,,,,,,,,,,,,,,,,,,,,,,252.95368389901705,252.95368389901705,252.95368389901705,252.95368389901705,252.95368389901705,252.95368389901705,252.95368389901705,252.95368389901705,252.95368389901705,252.95368389901705,a,1.4702415479696356,10,300,1,254.44323343900032,255.94372381502762,255.94372381502762,256.4436514049885,,,,,,,,,,,,,,,,,,,,,,,,,,,,,,,,,,,,,,,,,,,,,,,,,,,,,,,,,,,,,,,,,,,,21613,2022-10-31_13h51.30.563,vts_reward_expectancy_bt_OFFLINE,2022.2.4,59.892617206940045,
0,0,0,1,1,0,0,0,star,triangle,1,0,1,0,0,1,1,9,,,,,,,,,,,,,,,,,,,,,,,,,,,,,,,,,,,,,,,,256.4436514049885,256.4436514049885,256.4436514049885,256.4436514049885,256.4436514049885,256.4436514049885,256.4436514049885,256.4436514049885,256.4436514049885,256.4436514049885,a,0.6205092699965462,10,310,1,257.0959232519963,258.5963358070003,258.5963358070003,259.0964158269926,,,,,,,,,,,,,,,,,,,,,,,,,,,,,,,,,,,,,,,,,,,,,,,,,,,,,,,,,,,,,,,,,,,,21613,2022-10-31_13h51.30.563,vts_reward_expectancy_bt_OFFLINE,2022.2.4,59.892617206940045,
0,0,1,0,0,0,0,1,hexagon,star,1,0,1,0,0,2,2,8,,,,,,,,,,,,,,,,,,,,,,,,,,,,,,,,,,,,,,,,259.0964158269926,259.0964158269926,259.0964158269926,259.0964158269926,259.0964158269926,259.0964158269926,259.0964158269926,259.0964158269926,259.0964158269926,259.0964158269926,l,0.8879197909845971,10,320,1,260.0139354970306,261.51432548399316,261.51432548399316,,,,,,,,,,,,,,,,,,,,,,,,,,,,,,,,,,,,,,,,,,,,,,,,,,,,,,,,,,,,,,,,,,,,,21613,2022-10-31_13h51.30.563,vts_reward_expectancy_bt_OFFLINE,2022.2.4,59.892617206940045,
0,0,0,1,0,0,1,0,star,hexagon,1,0,1,0,0,3,3,11,,,,,,,,,,,,,,,,,,,,,,,,,,,,,,,,,,,,,,,,262.0162278889911,262.0162278889911,262.0162278889911,262.0162278889911,262.0162278889911,262.0162278889911,262.0162278889911,262.0162278889911,262.0162278889911,262.0162278889911,l,0.9196419100044295,10,330,1,262.9667703580344,264.4669303660048,264.4669303660048,264.967220549006,,,,,,,,,,,,,,,,,,,,,,,,,,,,,,,,,,,,,,,,,,,,,,,,,,,,,,,,,,,,,,,,,,,,21613,2022-10-31_13h51.30.563,vts_reward_expectancy_bt_OFFLINE,2022.2.4,59.892617206940045,
1,0,0,0,0,0,0,1,triangle,star,1,0,1,0,0,4,4,2,,,,,,,,,,,,,,,,,,,,,,,,,,,,,,,,,,,,,,,,264.967220549006,264.967220549006,264.967220549006,264.967220549006,264.967220549006,264.967220549006,264.967220549006,264.967220549006,264.967220549006,264.967220549006,a,1.4098285379586741,1,331,1,266.4023455780116,,267.9034393270267,,,,,,,,,,,,,,,,,,,,,,,,,,,,,,,,,,,,,,,,,,,,,,,,,,,,,,,,,,,,,,,,,,,,,21613,2022-10-31_13h51.30.563,vts_reward_expectancy_bt_OFFLINE,2022.2.4,59.892617206940045,
0,0,0,1,0,1,0,0,star ,circle,1,0,1,0,0,5,5,10,,,,,,,,,,,,,,,,,,,,,,,,,,,,,,,,,,,,,,,,268.40383048699005,268.40383048699005,268.40383048699005,268.40383048699005,268.40383048699005,268.40383048699005,268.40383048699005,268.40383048699005,268.40383048699005,268.40383048699005,a,1.3163295929552987,1,332,1,269.7373520199908,271.2382005190011,271.2382005190011,271.73817273200257,,,,,,,,,,,,,,,,,,,,,,,,,,,,,,,,,,,,,,,,,,,,,,,,,,,,,,,,,,,,,,,,,,,,21613,2022-10-31_13h51.30.563,vts_reward_expectancy_bt_OFFLINE,2022.2.4,59.892617206940045,
0,0,1,0,0,1,0,0,hexagon,circle,1,0,1,0,0,6,6,7,,,,,,,,,,,,,,,,,,,,,,,,,,,,,,,,,,,,,,,,271.73817273200257,271.73817273200257,271.73817273200257,271.73817273200257,271.73817273200257,271.73817273200257,271.73817273200257,271.73817273200257,271.73817273200257,271.73817273200257,l,0.3731106999912299,1,333,1,272.14011790498625,273.6407111529843,273.6407111529843,274.1408329870319,,,,,,,,,,,,,,,,,,,,,,,,,,,,,,,,,,,,,,,,,,,,,,,,,,,,,,,,,,,,,,,,,,,,21613,2022-10-31_13h51.30.563,vts_reward_expectancy_bt_OFFLINE,2022.2.4,59.892617206940045,
1,0,0,0,0,0,1,0,triangle,hexagon,1,0,1,0,0,7,7,1,,,,,,,,,,,,,,,,,,,,,,,,,,,,,,,,,,,,,,,,274.1408329870319,274.1408329870319,274.1408329870319,274.1408329870319,274.1408329870319,274.1408329870319,274.1408329870319,274.1408329870319,274.1408329870319,274.1408329870319,l,0.6352756019332446,1,334,1,274.80758634302765,276.3083718040143,276.3083718040143,,,,,,,,,,,,,,,,,,,,,,,,,,,,,,,,,,,,,,,,,,,,,,,,,,,,,,,,,,,,,,,,,,,,,21613,2022-10-31_13h51.30.563,vts_reward_expectancy_bt_OFFLINE,2022.2.4,59.892617206940045,
0,1,0,0,0,0,0,1,circle,star,1,0,1,0,0,8,8,5,,,,,,,,,,,,,,,,,,,,,,,,,,,,,,,,,,,,,,,,276.8121066709864,276.8121066709864,276.8121066709864,276.8121066709864,276.8121066709864,276.8121066709864,276.8121066709864,276.8121066709864,276.8121066709864,276.8121066709864,l,0.6675052180071361,1,335,1,277.5104412260116,,279.01112250302685,,,,,,,,,,,,,,,,,,,,,,,,,,,,,,,,,,,,,,,,,,,,,,,,,,,,,,,,,,,,,,,,,,,,,21613,2022-10-31_13h51.30.563,vts_reward_expectancy_bt_OFFLINE,2022.2.4,59.892617206940045,
1,0,0,0,0,1,0,0,triangle,circle,1,0,1,0,0,9,9,0,,,,,,,,,,,,,,,,,,,,,,,,,,,,,,,,,,,,,,,,279.51137856801506,279.51137856801506,279.51137856801506,279.51137856801506,279.51137856801506,279.51137856801506,279.51137856801506,279.51137856801506,279.51137856801506,279.51137856801506,l,0.009125492942985147,1,336,1,279.5446834100294,281.04534932703245,281.04534932703245,281.5453242859803,,,,,,,,,,,,,,,,,,,,,,,,,,,,,,,,,,,,,,,,,,,,,,,,,,,,,,,,,,,,,,,,,,,,21613,2022-10-31_13h51.30.563,vts_reward_expectancy_bt_OFFLINE,2022.2.4,59.892617206940045,
0,1,0,0,1,0,0,0,circle,triangle,1,0,1,0,0,10,10,3,,,,,,,,,,,,,,,,,,,,,,,,,,,,,,,,,,,,,,,,281.5453242859803,281.5453242859803,281.5453242859803,281.5453242859803,281.5453242859803,281.5453242859803,281.5453242859803,281.5453242859803,281.5453242859803,281.5453242859803,a,0.06270495895296335,1,337,1,281.6288685420295,,283.13136360101635,,,,,,,,,,,,,,,,,,,,,,,,,,,,,,,,,,,,,,,,,,,,,,,,,,,,,,,,,,,,,,,,,,,,,21613,2022-10-31_13h51.30.563,vts_reward_expectancy_bt_OFFLINE,2022.2.4,59.892617206940045,
0,1,0,0,0,0,1,0,circle,hexagon,1,0,1,0,0,11,11,4,,,,,,,,,,,,,,,,,,,,,,,,,,,,,,,,,,,,,,,,283.63128295203205,283.63128295203205,283.63128295203205,283.63128295203205,283.63128295203205,283.63128295203205,283.63128295203205,283.63128295203205,283.63128295203205,283.63128295203205,l,0.23244778293883428,10,347,1,283.8830771240173,,285.3987781230244,,,,,,,,,,,,,,,,,,,,,,,,,,,,,,,,,,,,,,,,,,,,,,,,,,,,,,,,,,,,,,,,,,,,,21613,2022-10-31_13h51.30.563,vts_reward_expectancy_bt_OFFLINE,2022.2.4,59.892617206940045,
0,1,0,0,0,0,0,1,circle,star,1,0,1,0,1,0,12,5,,,,,,,,,,,,,,,,,,,,,,,,,,,,,,,,,,,,,,,,285.8988036729861,285.8988036729861,285.8988036729861,285.8988036729861,285.8988036729861,285.8988036729861,285.8988036729861,285.8988036729861,285.8988036729861,285.8988036729861,l,0.06112844997551292,10,357,1,285.98223234701436,,287.4845461960067,,,,,,,,,,,,,,,,,,,,,,,,,,,,,,,,,,,,,,,,,,,,,,,,,,,,,,,,,,,,,,,,,,,,,21613,2022-10-31_13h51.30.563,vts_reward_expectancy_bt_OFFLINE,2022.2.4,59.892617206940045,
0,1,0,0,1,0,0,0,circle,triangle,1,0,1,0,1,1,13,3,,,,,,,,,,,,,,,,,,,,,,,,,,,,,,,,,,,,,,,,287.9847341020359,287.9847341020359,287.9847341020359,287.9847341020359,287.9847341020359,287.9847341020359,287.9847341020359,287.9847341020359,287.9847341020359,287.9847341020359,l,0.21457138896221295,1,358,1,288.21962881000945,,289.73540912999306,,,,,,,,,,,,,,,,,,,,,,,,,,,,,,,,,,,,,,,,,,,,,,,,,,,,,,,,,,,,,,,,,,,,,21613,2022-10-31_13h51.30.563,vts_reward_expectancy_bt_OFFLINE,2022.2.4,59.892617206940045,
1,0,0,0,0,0,1,0,triangle,hexagon,1,0,1,0,1,2,14,1,,,,,,,,,,,,,,,,,,,,,,,,,,,,,,,,,,,,,,,,290.2354670710047,290.2354670710047,290.2354670710047,290.2354670710047,290.2354670710047,290.2354670710047,290.2354670710047,290.2354670710047,290.2354670710047,290.2354670710047,l,0.6679679210064933,10,368,1,290.93551525101066,,292.43802510999376,,,,,,,,,,,,,,,,,,,,,,,,,,,,,,,,,,,,,,,,,,,,,,,,,,,,,,,,,,,,,,,,,,,,,21613,2022-10-31_13h51.30.563,vts_reward_expectancy_bt_OFFLINE,2022.2.4,59.892617206940045,
1,0,0,0,0,0,0,1,triangle,star,1,0,1,0,1,3,15,2,,,,,,,,,,,,,,,,,,,,,,,,,,,,,,,,,,,,,,,,292.9383593419916,292.9383593419916,292.9383593419916,292.9383593419916,292.9383593419916,292.9383593419916,292.9383593419916,292.9383593419916,292.9383593419916,292.9383593419916,l,0.7967569909524173,10,378,1,293.7553596760263,295.2557275270228,295.2557275270228,295.75592951203,,,,,,,,,,,,,,,,,,,,,,,,,,,,,,,,,,,,,,,,,,,,,,,,,,,,,,,,,,,,,,,,,,,,21613,2022-10-31_13h51.30.563,vts_reward_expectancy_bt_OFFLINE,2022.2.4,59.892617206940045,
0,0,1,0,0,1,0,0,hexagon,circle,1,0,1,0,1,4,16,7,,,,,,,,,,,,,,,,,,,,,,,,,,,,,,,,,,,,,,,,295.75592951203,295.75592951203,295.75592951203,295.75592951203,295.75592951203,295.75592951203,295.75592951203,295.75592951203,295.75592951203,295.75592951203,l,0.3720364839537069,10,388,1,296.1559766290011,,297.6583361289813,,,,,,,,,,,,,,,,,,,,,,,,,,,,,,,,,,,,,,,,,,,,,,,,,,,,,,,,,,,,,,,,,,,,,21613,2022-10-31_13h51.30.563,vts_reward_expectancy_bt_OFFLINE,2022.2.4,59.892617206940045,
1,0,0,0,0,1,0,0,triangle,circle,1,0,1,0,1,5,17,0,,,,,,,,,,,,,,,,,,,,,,,,,,,,,,,,,,,,,,,,298.15893090702593,298.15893090702593,298.15893090702593,298.15893090702593,298.15893090702593,298.15893090702593,298.15893090702593,298.15893090702593,298.15893090702593,298.15893090702593,l,0.3765603589708917,10,398,1,298.558915887028,300.05934597499436,300.05934597499436,300.5595986240078,,,,,,,,,,,,,,,,,,,,,,,,,,,,,,,,,,,,,,,,,,,,,,,,,,,,,,,,,,,,,,,,,,,,21613,2022-10-31_13h51.30.563,vts_reward_expectancy_bt_OFFLINE,2022.2.4,59.892617206940045,
0,0,0,1,0,1,0,0,star ,circle,1,0,1,0,1,6,18,10,,,,,,,,,,,,,,,,,,,,,,,,,,,,,,,,,,,,,,,,300.5595986240078,300.5595986240078,300.5595986240078,300.5595986240078,300.5595986240078,300.5595986240078,300.5595986240078,300.5595986240078,300.5595986240078,300.5595986240078,l,0.40834624698618427,1,399,1,300.99433396500535,,302.49553141603246,,,,,,,,,,,,,,,,,,,,,,,,,,,,,,,,,,,,,,,,,,,,,,,,,,,,,,,,,,,,,,,,,,,,,21613,2022-10-31_13h51.30.563,vts_reward_expectancy_bt_OFFLINE,2022.2.4,59.892617206940045,
0,0,1,0,1,0,0,0,hexagon,triangle,1,0,1,0,1,7,19,6,,,,,,,,,,,,,,,,,,,,,,,,,,,,,,,,,,,,,,,,302.9956512200297,302.9956512200297,302.9956512200297,302.9956512200297,302.9956512200297,302.9956512200297,302.9956512200297,302.9956512200297,302.9956512200297,302.9956512200297,a,0.6603735579992644,10,409,1,303.6806459840154,305.1797045590356,305.1797045590356,305.68002907797927,,,,,,,,,,,,,,,,,,,,,,,,,,,,,,,,,,,,,,,,,,,,,,,,,,,,,,,,,,,,,,,,,,,,21613,2022-10-31_13h51.30.563,vts_reward_expectancy_bt_OFFLINE,2022.2.4,59.892617206940045,
0,0,1,0,0,0,0,1,hexagon,star,1,0,1,0,1,8,20,8,,,,,,,,,,,,,,,,,,,,,,,,,,,,,,,,,,,,,,,,305.68002907797927,305.68002907797927,305.68002907797927,305.68002907797927,305.68002907797927,305.68002907797927,305.68002907797927,305.68002907797927,305.68002907797927,305.68002907797927,l,0.6553262189845555,1,410,1,306.3647061550291,,307.8660541389836,,,,,,,,,,,,,,,,,,,,,,,,,,,,,,,,,,,,,,,,,,,,,,,,,,,,,,,,,,,,,,,,,,,,,21613,2022-10-31_13h51.30.563,vts_reward_expectancy_bt_OFFLINE,2022.2.4,59.892617206940045,
0,0,0,1,1,0,0,0,star,triangle,1,0,1,0,1,9,21,9,,,,,,,,,,,,,,,,,,,,,,,,,,,,,,,,,,,,,,,,308.3662020540214,308.3662020540214,308.3662020540214,308.3662020540214,308.3662020540214,308.3662020540214,308.3662020540214,308.3662020540214,308.3662020540214,308.3662020540214,l,1.1698493779986165,1,411,1,309.5667247750098,311.06713026500074,311.06713026500074,,,,,,,,,,,,,,,,,,,,,,,,,,,,,,,,,,,,,,,,,,,,,,,,,,,,,,,,,,,,,,,,,,,,,21613,2022-10-31_13h51.30.563,vts_reward_expectancy_bt_OFFLINE,2022.2.4,59.892617206940045,
0,1,0,0,0,0,1,0,circle,hexagon,1,0,1,0,1,10,22,4,,,,,,,,,,,,,,,,,,,,,,,,,,,,,,,,,,,,,,,,311.56747761700535,311.56747761700535,311.56747761700535,311.56747761700535,311.56747761700535,311.56747761700535,311.56747761700535,311.56747761700535,311.56747761700535,311.56747761700535,a,0.6083865020191297,1,412,1,312.20257821900304,313.70308828598354,313.70308828598354,,,,,,,,,,,,,,,,,,,,,,,,,,,,,,,,,,,,,,,,,,,,,,,,,,,,,,,,,,,,,,,,,,,,,21613,2022-10-31_13h51.30.563,vts_reward_expectancy_bt_OFFLINE,2022.2.4,59.892617206940045,
0,0,0,1,0,0,1,0,star,hexagon,1,0,1,0,1,11,23,11,,,,,,,,,,,,,,,,,,,,,,,,,,,,,,,,,,,,,,,,314.2032050630078,314.2032050630078,314.2032050630078,314.2032050630078,314.2032050630078,314.2032050630078,314.2032050630078,314.2032050630078,314.2032050630078,314.2032050630078,l,1.0840737829566933,1,413,1,315.30380135501036,316.8020031119813,316.8020031119813,,,,,,,,,,,,,,,,,,,,,,,,,,,,,,,,,,,,,,,,,,,,,,,,,,,,,,,,,,,,,,,,,,,,,21613,2022-10-31_13h51.30.563,vts_reward_expectancy_bt_OFFLINE,2022.2.4,59.892617206940045,
0,1,0,0,0,0,0,1,circle,star,1,0,1,0,2,0,24,5,,,,,,,,,,,,,,,,,,,,,,,,,,,,,,,,,,,,,,,,317.30623390799155,317.30623390799155,317.30623390799155,317.30623390799155,317.30623390799155,317.30623390799155,317.30623390799155,317.30623390799155,317.30623390799155,317.30623390799155,l,0.7892935279523954,10,423,1,318.12516948900884,,319.6405086030136,,,,,,,,,,,,,,,,,,,,,,,,,,,,,,,,,,,,,,,,,,,,,,,,,,,,,,,,,,,,,,,,,,,,,21613,2022-10-31_13h51.30.563,vts_reward_expectancy_bt_OFFLINE,2022.2.4,59.892617206940045,
1,0,0,0,0,0,0,1,triangle,star,1,0,1,0,2,1,25,2,,,,,,,,,,,,,,,,,,,,,,,,,,,,,,,,,,,,,,,,320.14050618500914,320.14050618500914,320.14050618500914,320.14050618500914,320.14050618500914,320.14050618500914,320.14050618500914,320.14050618500914,320.14050618500914,320.14050618500914,l,0.5707088499912061,10,433,1,320.7407014850178,,322.24332776799565,,,,,,,,,,,,,,,,,,,,,,,,,,,,,,,,,,,,,,,,,,,,,,,,,,,,,,,,,,,,,,,,,,,,,21613,2022-10-31_13h51.30.563,vts_reward_expectancy_bt_OFFLINE,2022.2.4,59.892617206940045,
0,0,0,1,0,1,0,0,star ,circle,1,0,1,0,2,2,26,10,,,,,,,,,,,,,,,,,,,,,,,,,,,,,,,,,,,,,,,,322.7432704149978,322.7432704149978,322.7432704149978,322.7432704149978,322.7432704149978,322.7432704149978,322.7432704149978,322.7432704149978,322.7432704149978,322.7432704149978,a,0.9763970929780044,10,443,1,323.7439453349798,325.24424626503605,325.24424626503605,325.7446139680105,,,,,,,,,,,,,,,,,,,,,,,,,,,,,,,,,,,,,,,,,,,,,,,,,,,,,,,,,,,,,,,,,,,,21613,2022-10-31_13h51.30.563,vts_reward_expectancy_bt_OFFLINE,2022.2.4,59.892617206940045,
0,0,0,1,0,0,1,0,star,hexagon,1,0,1,0,2,3,27,11,,,,,,,,,,,,,,,,,,,,,,,,,,,,,,,,,,,,,,,,325.7446139680105,325.7446139680105,325.7446139680105,325.7446139680105,325.7446139680105,325.7446139680105,325.7446139680105,325.7446139680105,325.7446139680105,325.7446139680105,l,0.7670657989801839,1,444,1,326.529985080997,,328.0306269330322,,,,,,,,,,,,,,,,,,,,,,,,,,,,,,,,,,,,,,,,,,,,,,,,,,,,,,,,,,,,,,,,,,,,,21613,2022-10-31_13h51.30.563,vts_reward_expectancy_bt_OFFLINE,2022.2.4,59.892617206940045,
0,0,1,0,0,0,0,1,hexagon,star,1,0,1,0,2,4,28,8,,,,,,,,,,,,,,,,,,,,,,,,,,,,,,,,,,,,,,,,328.530892476032,328.530892476032,328.530892476032,328.530892476032,328.530892476032,328.530892476032,328.530892476032,328.530892476032,328.530892476032,328.530892476032,l,0.6362608359777369,10,454,1,329.1992293940275,330.6981602680171,330.6981602680171,331.19833317701705,,,,,,,,,,,,,,,,,,,,,,,,,,,,,,,,,,,,,,,,,,,,,,,,,,,,,,,,,,,,,,,,,,,,21613,2022-10-31_13h51.30.563,vts_reward_expectancy_bt_OFFLINE,2022.2.4,59.892617206940045,
0,0,0,1,1,0,0,0,star,triangle,1,0,1,0,2,5,29,9,,,,,,,,,,,,,,,,,,,,,,,,,,,,,,,,,,,,,,,,331.19833317701705,331.19833317701705,331.19833317701705,331.19833317701705,331.19833317701705,331.19833317701705,331.19833317701705,331.19833317701705,331.19833317701705,331.19833317701705,a,0.6734162899665534,10,464,1,331.90060207399074,333.40089932997944,333.40089932997944,,,,,,,,,,,,,,,,,,,,,,,,,,,,,,,,,,,,,,,,,,,,,,,,,,,,,,,,,,,,,,,,,,,,,21613,2022-10-31_13h51.30.563,vts_reward_expectancy_bt_OFFLINE,2022.2.4,59.892617206940045,
0,0,1,0,1,0,0,0,hexagon,triangle,1,0,1,0,2,6,30,6,,,,,,,,,,,,,,,,,,,,,,,,,,,,,,,,,,,,,,,,333.901163247996,333.901163247996,333.901163247996,333.901163247996,333.901163247996,333.901163247996,333.901163247996,333.901163247996,333.901163247996,333.901163247996,a,0.7707272469415329,10,474,1,334.70167868898716,336.2020137750078,336.2020137750078,,,,,,,,,,,,,,,,,,,,,,,,,,,,,,,,,,,,,,,,,,,,,,,,,,,,,,,,,,,,,,,,,,,,,21613,2022-10-31_13h51.30.563,vts_reward_expectancy_bt_OFFLINE,2022.2.4,59.892617206940045,
0,0,1,0,0,1,0,0,hexagon,circle,1,0,1,0,2,7,31,7,,,,,,,,,,,,,,,,,,,,,,,,,,,,,,,,,,,,,,,,336.7019236960332,336.7019236960332,336.7019236960332,336.7019236960332,336.7019236960332,336.7019236960332,336.7019236960332,336.7019236960332,336.7019236960332,336.7019236960332,a,0.5860651369439438,10,484,1,337.3205969189876,338.82140450301813,338.82140450301813,339.32168804103276,,,,,,,,,,,,,,,,,,,,,,,,,,,,,,,,,,,,,,,,,,,,,,,,,,,,,,,,,,,,,,,,,,,,21613,2022-10-31_13h51.30.563,vts_reward_expectancy_bt_OFFLINE,2022.2.4,59.892617206940045,
0,1,0,0,1,0,0,0,circle,triangle,1,0,1,0,2,8,32,3,,,,,,,,,,,,,,,,,,,,,,,,,,,,,,,,,,,,,,,,339.32168804103276,339.32168804103276,339.32168804103276,339.32168804103276,339.32168804103276,339.32168804103276,339.32168804103276,339.32168804103276,339.32168804103276,339.32168804103276,l,0.8141529679414816,1,485,1,340.1565616989974,341.65581462701084,341.65581462701084,,,,,,,,,,,,,,,,,,,,,,,,,,,,,,,,,,,,,,,,,,,,,,,,,,,,,,,,,,,,,,,,,,,,,21613,2022-10-31_13h51.30.563,vts_reward_expectancy_bt_OFFLINE,2022.2.4,59.892617206940045,
0,1,0,0,0,0,1,0,circle,hexagon,1,0,1,0,2,9,33,4,,,,,,,,,,,,,,,,,,,,,,,,,,,,,,,,,,,,,,,,342.1579184739967,342.1579184739967,342.1579184739967,342.1579184739967,342.1579184739967,342.1579184739967,342.1579184739967,342.1579184739967,342.1579184739967,342.1579184739967,l,0.6580647189402953,1,486,1,342.8413470379892,344.3418213960249,344.3418213960249,344.84198785899207,,,,,,,,,,,,,,,,,,,,,,,,,,,,,,,,,,,,,,,,,,,,,,,,,,,,,,,,,,,,,,,,,,,,21613,2022-10-31_13h51.30.563,vts_reward_expectancy_bt_OFFLINE,2022.2.4,59.892617206940045,
1,0,0,0,0,0,1,0,triangle,hexagon,1,0,1,0,2,10,34,1,,,,,,,,,,,,,,,,,,,,,,,,,,,,,,,,,,,,,,,,344.84198785899207,344.84198785899207,344.84198785899207,344.84198785899207,344.84198785899207,344.84198785899207,344.84198785899207,344.84198785899207,344.84198785899207,344.84198785899207,l,1.2057445109821856,10,496,1,346.07763029198395,,347.57821434002835,,,,,,,,,,,,,,,,,,,,,,,,,,,,,,,,,,,,,,,,,,,,,,,,,,,,,,,,,,,,,,,,,,,,,21613,2022-10-31_13h51.30.563,vts_reward_expectancy_bt_OFFLINE,2022.2.4,59.892617206940045,
1,0,0,0,0,1,0,0,triangle,circle,1,0,1,0,2,11,35,0,,,,,,,,,,,,,,,,,,,,,,,,,,,,,,,,,,,,,,,,348.07825278502423,348.07825278502423,348.07825278502423,348.07825278502423,348.07825278502423,348.07825278502423,348.07825278502423,348.07825278502423,348.07825278502423,348.07825278502423,l,0.9698067049612291,10,506,1,349.0789473329787,350.5793385769939,350.5793385769939,,,,,,,,,,,,,,,,,,,,,,,,,,,,,,,,,,,,,,,,,,,,,,,,,,,,,,,,,,,,,,,,,,,,,21613,2022-10-31_13h51.30.563,vts_reward_expectancy_bt_OFFLINE,2022.2.4,59.892617206940045,
0,1,0,0,0,0,0,1,circle,star,1,0,1,0,3,0,36,5,,,,,,,,,,,,,,,,,,,,,,,,,,,,,,,,,,,,,,,,351.07978174102027,351.07978174102027,351.07978174102027,351.07978174102027,351.07978174102027,351.07978174102027,351.07978174102027,351.07978174102027,351.07978174102027,351.07978174102027,a,0.6881643239757977,1,507,1,351.79799101297976,,353.29873208800564,,,,,,,,,,,,,,,,,,,,,,,,,,,,,,,,,,,,,,,,,,,,,,,,,,,,,,,,,,,,,,,,,,,,,21613,2022-10-31_13h51.30.563,vts_reward_expectancy_bt_OFFLINE,2022.2.4,59.892617206940045,
0,1,0,0,1,0,0,0,circle,triangle,1,0,1,0,3,1,37,3,,,,,,,,,,,,,,,,,,,,,,,,,,,,,,,,,,,,,,,,353.79924415098503,353.79924415098503,353.79924415098503,353.79924415098503,353.79924415098503,353.79924415098503,353.79924415098503,353.79924415098503,353.79924415098503,353.79924415098503,a,0.648724605969619,10,517,1,354.4675449330243,355.9664293950191,355.9664293950191,356.46660581900505,,,,,,,,,,,,,,,,,,,,,,,,,,,,,,,,,,,,,,,,,,,,,,,,,,,,,,,,,,,,,,,,,,,,21613,2022-10-31_13h51.30.563,vts_reward_expectancy_bt_OFFLINE,2022.2.4,59.892617206940045,
0,0,0,1,1,0,0,0,star,triangle,1,0,1,0,3,2,38,9,,,,,,,,,,,,,,,,,,,,,,,,,,,,,,,,,,,,,,,,356.46660581900505,356.46660581900505,356.46660581900505,356.46660581900505,356.46660581900505,356.46660581900505,356.46660581900505,356.46660581900505,356.46660581900505,356.46660581900505,l,0.3408838359755464,1,518,1,356.83285305503523,,358.3356800440233,,,,,,,,,,,,,,,,,,,,,,,,,,,,,,,,,,,,,,,,,,,,,,,,,,,,,,,,,,,,,,,,,,,,,21613,2022-10-31_13h51.30.563,vts_reward_expectancy_bt_OFFLINE,2022.2.4,59.892617206940045,
0,1,0,0,0,0,1,0,circle,hexagon,1,0,1,0,3,3,39,4,,,,,,,,,,,,,,,,,,,,,,,,,,,,,,,,,,,,,,,,358.8360958030098,358.8360958030098,358.8360958030098,358.8360958030098,358.8360958030098,358.8360958030098,358.8360958030098,358.8360958030098,358.8360958030098,358.8360958030098,a,0.49240852397633716,1,519,1,359.35271334601566,360.853345156007,360.853345156007,361.3535975610139,,,,,,,,,,,,,,,,,,,,,,,,,,,,,,,,,,,,,,,,,,,,,,,,,,,,,,,,,,,,,,,,,,,,21613,2022-10-31_13h51.30.563,vts_reward_expectancy_bt_OFFLINE,2022.2.4,59.892617206940045,
1,0,0,0,0,1,0,0,triangle,circle,1,0,1,0,3,4,40,0,,,,,,,,,,,,,,,,,,,,,,,,,,,,,,,,,,,,,,,,361.3535975610139,361.3535975610139,361.3535975610139,361.3535975610139,361.3535975610139,361.3535975610139,361.3535975610139,361.3535975610139,361.3535975610139,361.3535975610139,a,0.2619299259968102,1,520,1,361.63706124800956,,363.1393374860054,,,,,,,,,,,,,,,,,,,,,,,,,,,,,,,,,,,,,,,,,,,,,,,,,,,,,,,,,,,,,,,,,,,,,21613,2022-10-31_13h51.30.563,vts_reward_expectancy_bt_OFFLINE,2022.2.4,59.892617206940045,
0,0,1,0,1,0,0,0,hexagon,triangle,1,0,1,0,3,5,41,6,,,,,,,,,,,,,,,,,,,,,,,,,,,,,,,,,,,,,,,,363.63970412901836,363.63970412901836,363.63970412901836,363.63970412901836,363.63970412901836,363.63970412901836,363.63970412901836,363.63970412901836,363.63970412901836,363.63970412901836,a,0.23278780694818124,1,521,1,363.8895912140142,365.39035608101403,365.39035608101403,365.8903487219941,,,,,,,,,,,,,,,,,,,,,,,,,,,,,,,,,,,,,,,,,,,,,,,,,,,,,,,,,,,,,,,,,,,,21613,2022-10-31_13h51.30.563,vts_reward_expectancy_bt_OFFLINE,2022.2.4,59.892617206940045,
0,0,0,1,0,1,0,0,star ,circle,1,0,1,0,3,6,42,10,,,,,,,,,,,,,,,,,,,,,,,,,,,,,,,,,,,,,,,,365.8903487219941,365.8903487219941,365.8903487219941,365.8903487219941,365.8903487219941,365.8903487219941,365.8903487219941,365.8903487219941,365.8903487219941,365.8903487219941,l,0.18896421400131658,1,522,1,366.10738187201787,,367.60948099102825,,,,,,,,,,,,,,,,,,,,,,,,,,,,,,,,,,,,,,,,,,,,,,,,,,,,,,,,,,,,,,,,,,,,,21613,2022-10-31_13h51.30.563,vts_reward_expectancy_bt_OFFLINE,2022.2.4,59.892617206940045,
1,0,0,0,0,0,0,1,triangle,star,1,0,1,0,3,7,43,2,,,,,,,,,,,,,,,,,,,,,,,,,,,,,,,,,,,,,,,,368.10972713300725,368.10972713300725,368.10972713300725,368.10972713300725,368.10972713300725,368.10972713300725,368.10972713300725,368.10972713300725,368.10972713300725,368.10972713300725,l,0.273552207974717,1,523,1,368.40987612103345,369.91015604900895,369.91015604900895,370.4105152870179,,,,,,,,,,,,,,,,,,,,,,,,,,,,,,,,,,,,,,,,,,,,,,,,,,,,,,,,,,,,,,,,,,,,21613,2022-10-31_13h51.30.563,vts_reward_expectancy_bt_OFFLINE,2022.2.4,59.892617206940045,
0,0,1,0,0,1,0,0,hexagon,circle,1,0,1,0,3,8,44,7,,,,,,,,,,,,,,,,,,,,,,,,,,,,,,,,,,,,,,,,370.4105152870179,370.4105152870179,370.4105152870179,370.4105152870179,370.4105152870179,370.4105152870179,370.4105152870179,370.4105152870179,370.4105152870179,370.4105152870179,a,0.4527257919544354,10,533,1,370.8972336620209,,372.39622883399716,,,,,,,,,,,,,,,,,,,,,,,,,,,,,,,,,,,,,,,,,,,,,,,,,,,,,,,,,,,,,,,,,,,,,21613,2022-10-31_13h51.30.563,vts_reward_expectancy_bt_OFFLINE,2022.2.4,59.892617206940045,
1,0,0,0,0,0,1,0,triangle,hexagon,1,0,1,0,3,9,45,1,,,,,,,,,,,,,,,,,,,,,,,,,,,,,,,,,,,,,,,,372.89667357498547,372.89667357498547,372.89667357498547,372.89667357498547,372.89667357498547,372.89667357498547,372.89667357498547,372.89667357498547,372.89667357498547,372.89667357498547,l,0.6790976849733852,1,534,1,373.5985712700058,,375.114081724023,,,,,,,,,,,,,,,,,,,,,,,,,,,,,,,,,,,,,,,,,,,,,,,,,,,,,,,,,,,,,,,,,,,,,21613,2022-10-31_13h51.30.563,vts_reward_expectancy_bt_OFFLINE,2022.2.4,59.892617206940045,
0,0,0,1,0,0,1,0,star,hexagon,1,0,1,0,3,10,46,11,,,,,,,,,,,,,,,,,,,,,,,,,,,,,,,,,,,,,,,,375.6141209070338,375.6141209070338,375.6141209070338,375.6141209070338,375.6141209070338,375.6141209070338,375.6141209070338,375.6141209070338,375.6141209070338,375.6141209070338,a,0.48116275295615196,10,544,1,376.11650147498585,,377.61668664001627,,,,,,,,,,,,,,,,,,,,,,,,,,,,,,,,,,,,,,,,,,,,,,,,,,,,,,,,,,,,,,,,,,,,,21613,2022-10-31_13h51.30.563,vts_reward_expectancy_bt_OFFLINE,2022.2.4,59.892617206940045,
0,0,1,0,0,0,0,1,hexagon,star,1,0,1,0,3,11,47,8,,,,,,,,,,,,,,,,,,,,,,,,,,,,,,,,,,,,,,,,378.11693885101704,378.11693885101704,378.11693885101704,378.11693885101704,378.11693885101704,378.11693885101704,378.11693885101704,378.11693885101704,378.11693885101704,378.11693885101704,l,0.7303563070017844,10,554,1,378.8674349100329,380.36756110499846,380.36756110499846,380.8744397640112,,,,,,,,,,,,,,,,,,,,,,,,,,,,,,,,,,,,,,,,,,,,,,,,,,,,,,,,,,,,,,,,,,,,21613,2022-10-31_13h51.30.563,vts_reward_expectancy_bt_OFFLINE,2022.2.4,59.892617206940045,
0,1,0,0,0,0,1,0,circle,hexagon,2,0,2,0,0,0,0,4,,,,,,,,,,,,,,,,,,,,,,,,,,,,,,,,,,,,,,,,414.73800426599337,414.73800426599337,414.73800426599337,414.73800426599337,414.73800426599337,414.73800426599337,414.73800426599337,414.73800426599337,414.73800426599337,414.73800426599337,a,2.7257461809786037,1,555,2,417.49623459903523,418.99632669298444,418.99632669298444,419.4965187020134,,,,,,,,,,,,,,,,,,,,,,,,,,,,,,,,,,,,,,,,,,,,,,,,,,,,,,,,,,,,,,,,,,,,21613,2022-10-31_13h51.30.563,vts_reward_expectancy_bt_OFFLINE,2022.2.4,59.892617206940045,
1,0,0,0,0,0,1,0,triangle,hexagon,2,0,2,0,0,1,1,1,,,,,,,,,,,,,,,,,,,,,,,,,,,,,,,,,,,,,,,,419.4965187020134,419.4965187020134,419.4965187020134,419.4965187020134,419.4965187020134,419.4965187020134,419.4965187020134,419.4965187020134,419.4965187020134,419.4965187020134,a,0.5109687699587084,1,556,2,420.0301790260128,421.5305998190306,421.5305998190306,,,,,,,,,,,,,,,,,,,,,,,,,,,,,,,,,,,,,,,,,,,,,,,,,,,,,,,,,,,,,,,,,,,,,21613,2022-10-31_13h51.30.563,vts_reward_expectancy_bt_OFFLINE,2022.2.4,59.892617206940045,
0,0,1,0,0,1,0,0,hexagon,circle,2,0,2,0,0,2,2,7,,,,,,,,,,,,,,,,,,,,,,,,,,,,,,,,,,,,,,,,422.0325518460013,422.0325518460013,422.0325518460013,422.0325518460013,422.0325518460013,422.0325518460013,422.0325518460013,422.0325518460013,422.0325518460013,422.0325518460013,l,1.678873207012657,1,557,2,423.73331385297934,425.2337382850237,425.2337382850237,425.73380303400336,,,,,,,,,,,,,,,,,,,,,,,,,,,,,,,,,,,,,,,,,,,,,,,,,,,,,,,,,,,,,,,,,,,,21613,2022-10-31_13h51.30.563,vts_reward_expectancy_bt_OFFLINE,2022.2.4,59.892617206940045,
1,0,0,0,0,1,0,0,triangle,circle,2,0,2,0,0,3,3,0,,,,,,,,,,,,,,,,,,,,,,,,,,,,,,,,,,,,,,,,425.73380303400336,425.73380303400336,425.73380303400336,425.73380303400336,425.73380303400336,425.73380303400336,425.73380303400336,425.73380303400336,425.73380303400336,425.73380303400336,l,0.4655085949343629,10,567,2,426.2195869489806,,427.7197031090036,,,,,,,,,,,,,,,,,,,,,,,,,,,,,,,,,,,,,,,,,,,,,,,,,,,,,,,,,,,,,,,,,,,,,21613,2022-10-31_13h51.30.563,vts_reward_expectancy_bt_OFFLINE,2022.2.4,59.892617206940045,
0,1,0,0,1,0,0,0,circle,triangle,2,0,2,0,0,4,4,3,,,,,,,,,,,,,,,,,,,,,,,,,,,,,,,,,,,,,,,,428.22002515400527,428.22002515400527,428.22002515400527,428.22002515400527,428.22002515400527,428.22002515400527,428.22002515400527,428.22002515400527,428.22002515400527,428.22002515400527,l,0.4599668859736994,10,577,2,428.7035754789831,430.20411269098986,430.20411269098986,,,,,,,,,,,,,,,,,,,,,,,,,,,,,,,,,,,,,,,,,,,,,,,,,,,,,,,,,,,,,,,,,,,,,21613,2022-10-31_13h51.30.563,vts_reward_expectancy_bt_OFFLINE,2022.2.4,59.892617206940045,
0,0,1,0,1,0,0,0,hexagon,triangle,2,0,2,0,0,5,5,6,,,,,,,,,,,,,,,,,,,,,,,,,,,,,,,,,,,,,,,,430.704086060985,430.704086060985,430.704086060985,430.704086060985,430.704086060985,430.704086060985,430.704086060985,430.704086060985,430.704086060985,430.704086060985,l,0.39925301395123824,1,578,2,431.1231103420141,,432.6232334499946,,,,,,,,,,,,,,,,,,,,,,,,,,,,,,,,,,,,,,,,,,,,,,,,,,,,,,,,,,,,,,,,,,,,,21613,2022-10-31_13h51.30.563,vts_reward_expectancy_bt_OFFLINE,2022.2.4,59.892617206940045,
0,0,0,1,1,0,0,0,star,triangle,2,0,2,0,0,6,6,9,,,,,,,,,,,,,,,,,,,,,,,,,,,,,,,,,,,,,,,,433.12334320199443,433.12334320199443,433.12334320199443,433.12334320199443,433.12334320199443,433.12334320199443,433.12334320199443,433.12334320199443,433.12334320199443,433.12334320199443,l,0.5163624120177701,1,579,2,433.65740994299995,435.15761500102235,435.15761500102235,435.6579870490241,,,,,,,,,,,,,,,,,,,,,,,,,,,,,,,,,,,,,,,,,,,,,,,,,,,,,,,,,,,,,,,,,,,,21613,2022-10-31_13h51.30.563,vts_reward_expectancy_bt_OFFLINE,2022.2.4,59.892617206940045,
1,0,0,0,0,0,0,1,triangle,star,2,0,2,0,0,7,7,2,,,,,,,,,,,,,,,,,,,,,,,,,,,,,,,,,,,,,,,,435.6579870490241,435.6579870490241,435.6579870490241,435.6579870490241,435.6579870490241,435.6579870490241,435.6579870490241,435.6579870490241,435.6579870490241,435.6579870490241,a,0.29438426496926695,1,580,2,435.9750420229975,,437.47700711601647,,,,,,,,,,,,,,,,,,,,,,,,,,,,,,,,,,,,,,,,,,,,,,,,,,,,,,,,,,,,,,,,,,,,,21613,2022-10-31_13h51.30.563,vts_reward_expectancy_bt_OFFLINE,2022.2.4,59.892617206940045,
0,0,0,1,0,0,1,0,star,hexagon,2,0,2,0,0,8,8,11,,,,,,,,,,,,,,,,,,,,,,,,,,,,,,,,,,,,,,,,437.97740600799443,437.97740600799443,437.97740600799443,437.97740600799443,437.97740600799443,437.97740600799443,437.97740600799443,437.97740600799443,437.97740600799443,437.97740600799443,a,0.8862206430057995,10,590,2,438.8967040560092,,440.41134792001685,,,,,,,,,,,,,,,,,,,,,,,,,,,,,,,,,,,,,,,,,,,,,,,,,,,,,,,,,,,,,,,,,,,,,21613,2022-10-31_13h51.30.563,vts_reward_expectancy_bt_OFFLINE,2022.2.4,59.892617206940045,
0,0,1,0,0,0,0,1,hexagon,star,2,0,2,0,0,9,9,8,,,,,,,,,,,,,,,,,,,,,,,,,,,,,,,,,,,,,,,,440.9115804400062,440.9115804400062,440.9115804400062,440.9115804400062,440.9115804400062,440.9115804400062,440.9115804400062,440.9115804400062,440.9115804400062,440.9115804400062,l,0.6004184830235317,10,600,2,441.52933959901566,,443.0310180010274,,,,,,,,,,,,,,,,,,,,,,,,,,,,,,,,,,,,,,,,,,,,,,,,,,,,,,,,,,,,,,,,,,,,,21613,2022-10-31_13h51.30.563,vts_reward_expectancy_bt_OFFLINE,2022.2.4,59.892617206940045,
0,0,0,1,0,1,0,0,star ,circle,2,0,2,0,0,10,10,10,,,,,,,,,,,,,,,,,,,,,,,,,,,,,,,,,,,,,,,,443.53122748300666,443.53122748300666,443.53122748300666,443.53122748300666,443.53122748300666,443.53122748300666,443.53122748300666,443.53122748300666,443.53122748300666,443.53122748300666,a,1.1646459669573233,10,610,2,444.7148485709913,446.21533858100884,446.21533858100884,446.71569711202756,,,,,,,,,,,,,,,,,,,,,,,,,,,,,,,,,,,,,,,,,,,,,,,,,,,,,,,,,,,,,,,,,,,,21613,2022-10-31_13h51.30.563,vts_reward_expectancy_bt_OFFLINE,2022.2.4,59.892617206940045,
0,1,0,0,0,0,0,1,circle,star,2,0,2,0,0,11,11,5,,,,,,,,,,,,,,,,,,,,,,,,,,,,,,,,,,,,,,,,446.71569711202756,446.71569711202756,446.71569711202756,446.71569711202756,446.71569711202756,446.71569711202756,446.71569711202756,446.71569711202756,446.71569711202756,446.71569711202756,l,1.0437872880138457,10,620,2,447.78485660400474,449.28495838702656,449.28495838702656,449.7851476650103,,,,,,,,,,,,,,,,,,,,,,,,,,,,,,,,,,,,,,,,,,,,,,,,,,,,,,,,,,,,,,,,,,,,21613,2022-10-31_13h51.30.563,vts_reward_expectancy_bt_OFFLINE,2022.2.4,59.892617206940045,
0,1,0,0,0,0,1,0,circle,hexagon,2,0,2,0,1,0,12,4,,,,,,,,,,,,,,,,,,,,,,,,,,,,,,,,,,,,,,,,449.7851476650103,449.7851476650103,449.7851476650103,449.7851476650103,449.7851476650103,449.7851476650103,449.7851476650103,449.7851476650103,449.7851476650103,449.7851476650103,l,0.7183761950000189,10,630,2,450.5353066790267,,452.03764311398845,,,,,,,,,,,,,,,,,,,,,,,,,,,,,,,,,,,,,,,,,,,,,,,,,,,,,,,,,,,,,,,,,,,,,21613,2022-10-31_13h51.30.563,vts_reward_expectancy_bt_OFFLINE,2022.2.4,59.892617206940045,
0,1,0,0,1,0,0,0,circle,triangle,2,0,2,0,1,1,13,3,,,,,,,,,,,,,,,,,,,,,,,,,,,,,,,,,,,,,,,,452.53779293003026,452.53779293003026,452.53779293003026,452.53779293003026,452.53779293003026,452.53779293003026,452.53779293003026,452.53779293003026,452.53779293003026,452.53779293003026,l,0.8533971309661865,1,631,2,453.4239591950318,,454.9386817130144,,,,,,,,,,,,,,,,,,,,,,,,,,,,,,,,,,,,,,,,,,,,,,,,,,,,,,,,,,,,,,,,,,,,,21613,2022-10-31_13h51.30.563,vts_reward_expectancy_bt_OFFLINE,2022.2.4,59.892617206940045,
0,0,0,1,0,0,1,0,star,hexagon,2,0,2,0,1,2,14,11,,,,,,,,,,,,,,,,,,,,,,,,,,,,,,,,,,,,,,,,455.43913059902843,455.43913059902843,455.43913059902843,455.43913059902843,455.43913059902843,455.43913059902843,455.43913059902843,455.43913059902843,455.43913059902843,455.43913059902843,a,1.0402008889941499,10,641,2,456.50834019097965,,458.0083446500357,,,,,,,,,,,,,,,,,,,,,,,,,,,,,,,,,,,,,,,,,,,,,,,,,,,,,,,,,,,,,,,,,,,,,21613,2022-10-31_13h51.30.563,vts_reward_expectancy_bt_OFFLINE,2022.2.4,59.892617206940045,
0,0,1,0,0,0,0,1,hexagon,star,2,0,2,0,1,3,15,8,,,,,,,,,,,,,,,,,,,,,,,,,,,,,,,,,,,,,,,,458.5085117639974,458.5085117639974,458.5085117639974,458.5085117639974,458.5085117639974,458.5085117639974,458.5085117639974,458.5085117639974,458.5085117639974,458.5085117639974,l,0.5476218449766748,1,642,2,459.07783062098315,,460.59242940100376,,,,,,,,,,,,,,,,,,,,,,,,,,,,,,,,,,,,,,,,,,,,,,,,,,,,,,,,,,,,,,,,,,,,,21613,2022-10-31_13h51.30.563,vts_reward_expectancy_bt_OFFLINE,2022.2.4,59.892617206940045,
0,0,0,1,1,0,0,0,star,triangle,2,0,2,0,1,4,16,9,,,,,,,,,,,,,,,,,,,,,,,,,,,,,,,,,,,,,,,,461.0927349529811,461.0927349529811,461.0927349529811,461.0927349529811,461.0927349529811,461.0927349529811,461.0927349529811,461.0927349529811,461.0927349529811,461.0927349529811,a,0.6272693559294567,10,652,2,461.74533741001505,,463.2453047800227,,,,,,,,,,,,,,,,,,,,,,,,,,,,,,,,,,,,,,,,,,,,,,,,,,,,,,,,,,,,,,,,,,,,,21613,2022-10-31_13h51.30.563,vts_reward_expectancy_bt_OFFLINE,2022.2.4,59.892617206940045,
0,1,0,0,0,0,0,1,circle,star,2,0,2,0,1,5,17,5,,,,,,,,,,,,,,,,,,,,,,,,,,,,,,,,,,,,,,,,463.745767735003,463.745767735003,463.745767735003,463.745767735003,463.745767735003,463.745767735003,463.745767735003,463.745767735003,463.745767735003,463.745767735003,l,0.5900904659647495,10,662,2,464.36256377899554,465.863226432004,465.863226432004,466.3633471450303,,,,,,,,,,,,,,,,,,,,,,,,,,,,,,,,,,,,,,,,,,,,,,,,,,,,,,,,,,,,,,,,,,,,21613,2022-10-31_13h51.30.563,vts_reward_expectancy_bt_OFFLINE,2022.2.4,59.892617206940045,
1,0,0,0,0,1,0,0,triangle,circle,2,0,2,0,1,6,18,0,,,,,,,,,,,,,,,,,,,,,,,,,,,,,,,,,,,,,,,,466.3633471450303,466.3633471450303,466.3633471450303,466.3633471450303,466.3633471450303,466.3633471450303,466.3633471450303,466.3633471450303,466.3633471450303,466.3633471450303,l,0.5958577129640616,1,663,2,466.98434119299054,,468.49920194398146,,,,,,,,,,,,,,,,,,,,,,,,,,,,,,,,,,,,,,,,,,,,,,,,,,,,,,,,,,,,,,,,,,,,,21613,2022-10-31_13h51.30.563,vts_reward_expectancy_bt_OFFLINE,2022.2.4,59.892617206940045,
1,0,0,0,0,0,1,0,triangle,hexagon,2,0,2,0,1,7,19,1,,,,,,,,,,,,,,,,,,,,,,,,,,,,,,,,,,,,,,,,468.9993638099986,468.9993638099986,468.9993638099986,468.9993638099986,468.9993638099986,468.9993638099986,468.9993638099986,468.9993638099986,468.9993638099986,468.9993638099986,l,0.5041793310083449,10,673,2,469.5352178470348,,471.0501807720284,,,,,,,,,,,,,,,,,,,,,,,,,,,,,,,,,,,,,,,,,,,,,,,,,,,,,,,,,,,,,,,,,,,,,21613,2022-10-31_13h51.30.563,vts_reward_expectancy_bt_OFFLINE,2022.2.4,59.892617206940045,
0,0,0,1,0,1,0,0,star ,circle,2,0,2,0,1,8,20,10,,,,,,,,,,,,,,,,,,,,,,,,,,,,,,,,,,,,,,,,471.55017457401846,471.55017457401846,471.55017457401846,471.55017457401846,471.55017457401846,471.55017457401846,471.55017457401846,471.55017457401846,471.55017457401846,471.55017457401846,a,0.6972409840091132,10,683,2,472.26970175403403,473.76965257601114,473.76965257601114,,,,,,,,,,,,,,,,,,,,,,,,,,,,,,,,,,,,,,,,,,,,,,,,,,,,,,,,,,,,,,,,,,,,,21613,2022-10-31_13h51.30.563,vts_reward_expectancy_bt_OFFLINE,2022.2.4,59.892617206940045,
0,0,1,0,0,1,0,0,hexagon,circle,2,0,2,0,1,9,21,7,,,,,,,,,,,,,,,,,,,,,,,,,,,,,,,,,,,,,,,,474.26982757798396,474.26982757798396,474.26982757798396,474.26982757798396,474.26982757798396,474.26982757798396,474.26982757798396,474.26982757798396,474.26982757798396,474.26982757798396,a,0.6014168559922837,10,693,2,474.9033129159943,476.40401125198696,476.40401125198696,476.9041800000123,,,,,,,,,,,,,,,,,,,,,,,,,,,,,,,,,,,,,,,,,,,,,,,,,,,,,,,,,,,,,,,,,,,,21613,2022-10-31_13h51.30.563,vts_reward_expectancy_bt_OFFLINE,2022.2.4,59.892617206940045,
1,0,0,0,0,0,0,1,triangle,star,2,0,2,0,1,10,22,2,,,,,,,,,,,,,,,,,,,,,,,,,,,,,,,,,,,,,,,,476.9041800000123,476.9041800000123,476.9041800000123,476.9041800000123,476.9041800000123,476.9041800000123,476.9041800000123,476.9041800000123,476.9041800000123,476.9041800000123,l,0.5758920999942347,10,703,2,477.5067271509906,479.0067399999825,479.0067399999825,479.50702880800236,,,,,,,,,,,,,,,,,,,,,,,,,,,,,,,,,,,,,,,,,,,,,,,,,,,,,,,,,,,,,,,,,,,,21613,2022-10-31_13h51.30.563,vts_reward_expectancy_bt_OFFLINE,2022.2.4,59.892617206940045,
0,0,1,0,1,0,0,0,hexagon,triangle,2,0,2,0,1,11,23,6,,,,,,,,,,,,,,,,,,,,,,,,,,,,,,,,,,,,,,,,479.50702880800236,479.50702880800236,479.50702880800236,479.50702880800236,479.50702880800236,479.50702880800236,479.50702880800236,479.50702880800236,479.50702880800236,479.50702880800236,a,0.5801823169458658,10,713,2,480.10729104903294,481.6074087070301,481.6074087070301,,,,,,,,,,,,,,,,,,,,,,,,,,,,,,,,,,,,,,,,,,,,,,,,,,,,,,,,,,,,,,,,,,,,,21613,2022-10-31_13h51.30.563,vts_reward_expectancy_bt_OFFLINE,2022.2.4,59.892617206940045,
1,0,0,0,0,1,0,0,triangle,circle,2,0,2,0,2,0,24,0,,,,,,,,,,,,,,,,,,,,,,,,,,,,,,,,,,,,,,,,482.10970252298284,482.10970252298284,482.10970252298284,482.10970252298284,482.10970252298284,482.10970252298284,482.10970252298284,482.10970252298284,482.10970252298284,482.10970252298284,l,0.4346846079570241,1,714,2,482.57661197398556,484.0768860059907,484.0768860059907,484.5771648589871,,,,,,,,,,,,,,,,,,,,,,,,,,,,,,,,,,,,,,,,,,,,,,,,,,,,,,,,,,,,,,,,,,,,21613,2022-10-31_13h51.30.563,vts_reward_expectancy_bt_OFFLINE,2022.2.4,59.892617206940045,
0,0,1,0,1,0,0,0,hexagon,triangle,2,0,2,0,2,1,25,6,,,,,,,,,,,,,,,,,,,,,,,,,,,,,,,,,,,,,,,,484.5771648589871,484.5771648589871,484.5771648589871,484.5771648589871,484.5771648589871,484.5771648589871,484.5771648589871,484.5771648589871,484.5771648589871,484.5771648589871,a,0.534276777994819,10,724,2,485.14437406603247,486.64458942599595,486.64458942599595,,,,,,,,,,,,,,,,,,,,,,,,,,,,,,,,,,,,,,,,,,,,,,,,,,,,,,,,,,,,,,,,,,,,,21613,2022-10-31_13h51.30.563,vts_reward_expectancy_bt_OFFLINE,2022.2.4,59.892617206940045,
0,1,0,0,0,0,0,1,circle,star,2,0,2,0,2,2,26,5,,,,,,,,,,,,,,,,,,,,,,,,,,,,,,,,,,,,,,,,487.1465723569854,487.1465723569854,487.1465723569854,487.1465723569854,487.1465723569854,487.1465723569854,487.1465723569854,487.1465723569854,487.1465723569854,487.1465723569854,a,0.4849482159479521,1,725,2,487.6642277369974,489.1639652089798,489.1639652089798,489.66420449101133,,,,,,,,,,,,,,,,,,,,,,,,,,,,,,,,,,,,,,,,,,,,,,,,,,,,,,,,,,,,,,,,,,,,21613,2022-10-31_13h51.30.563,vts_reward_expectancy_bt_OFFLINE,2022.2.4,59.892617206940045,
0,1,0,0,0,0,1,0,circle,hexagon,2,0,2,0,2,3,27,4,,,,,,,,,,,,,,,,,,,,,,,,,,,,,,,,,,,,,,,,489.66420449101133,489.66420449101133,489.66420449101133,489.66420449101133,489.66420449101133,489.66420449101133,489.66420449101133,489.66420449101133,489.66420449101133,489.66420449101133,l,0.4875869879615493,10,735,2,490.18344165798044,,491.6983032129938,,,,,,,,,,,,,,,,,,,,,,,,,,,,,,,,,,,,,,,,,,,,,,,,,,,,,,,,,,,,,,,,,,,,,21613,2022-10-31_13h51.30.563,vts_reward_expectancy_bt_OFFLINE,2022.2.4,59.892617206940045,
0,0,1,0,0,1,0,0,hexagon,circle,2,0,2,0,2,4,28,7,,,,,,,,,,,,,,,,,,,,,,,,,,,,,,,,,,,,,,,,492.1836015449953,492.1836015449953,492.1836015449953,492.1836015449953,492.1836015449953,492.1836015449953,492.1836015449953,492.1836015449953,492.1836015449953,492.1836015449953,l,0.3442955969949253,10,745,2,492.5507511200267,494.0510396619793,494.0510396619793,494.5510869899881,,,,,,,,,,,,,,,,,,,,,,,,,,,,,,,,,,,,,,,,,,,,,,,,,,,,,,,,,,,,,,,,,,,,21613,2022-10-31_13h51.30.563,vts_reward_expectancy_bt_OFFLINE,2022.2.4,59.892617206940045,
0,0,0,1,0,1,0,0,star ,circle,2,0,2,0,2,5,29,10,,,,,,,,,,,,,,,,,,,,,,,,,,,,,,,,,,,,,,,,494.5510869899881,494.5510869899881,494.5510869899881,494.5510869899881,494.5510869899881,494.5510869899881,494.5510869899881,494.5510869899881,494.5510869899881,494.5510869899881,l,0.3850204419577494,10,755,2,494.96796347602503,496.46834373503225,496.46834373503225,,,,,,,,,,,,,,,,,,,,,,,,,,,,,,,,,,,,,,,,,,,,,,,,,,,,,,,,,,,,,,,,,,,,,21613,2022-10-31_13h51.30.563,vts_reward_expectancy_bt_OFFLINE,2022.2.4,59.892617206940045,
1,0,0,0,0,0,0,1,triangle,star,2,0,2,0,2,6,30,2,,,,,,,,,,,,,,,,,,,,,,,,,,,,,,,,,,,,,,,,496.9717141140136,496.9717141140136,496.9717141140136,496.9717141140136,496.9717141140136,496.9717141140136,496.9717141140136,496.9717141140136,496.9717141140136,496.9717141140136,l,0.37210006901295856,10,765,2,497.37118032202125,498.8711467559915,498.8711467559915,499.3713270800072,,,,,,,,,,,,,,,,,,,,,,,,,,,,,,,,,,,,,,,,,,,,,,,,,,,,,,,,,,,,,,,,,,,,21613,2022-10-31_13h51.30.563,vts_reward_expectancy_bt_OFFLINE,2022.2.4,59.892617206940045,
0,0,0,1,1,0,0,0,star,triangle,2,0,2,0,2,7,31,9,,,,,,,,,,,,,,,,,,,,,,,,,,,,,,,,,,,,,,,,499.3713270800072,499.3713270800072,499.3713270800072,499.3713270800072,499.3713270800072,499.3713270800072,499.3713270800072,499.3713270800072,499.3713270800072,499.3713270800072,l,0.604422181029804,1,766,2,500.0074955089949,,501.52223975700326,,,,,,,,,,,,,,,,,,,,,,,,,,,,,,,,,,,,,,,,,,,,,,,,,,,,,,,,,,,,,,,,,,,,,21613,2022-10-31_13h51.30.563,vts_reward_expectancy_bt_OFFLINE,2022.2.4,59.892617206940045,
0,0,0,1,0,0,1,0,star,hexagon,2,0,2,0,2,8,32,11,,,,,,,,,,,,,,,,,,,,,,,,,,,,,,,,,,,,,,,,502.00768452102784,502.00768452102784,502.00768452102784,502.00768452102784,502.00768452102784,502.00768452102784,502.00768452102784,502.00768452102784,502.00768452102784,502.00768452102784,l,0.3595448230043985,1,767,2,502.391170634015,503.89142255403567,503.89142255403567,504.3915730040171,,,,,,,,,,,,,,,,,,,,,,,,,,,,,,,,,,,,,,,,,,,,,,,,,,,,,,,,,,,,,,,,,,,,21613,2022-10-31_13h51.30.563,vts_reward_expectancy_bt_OFFLINE,2022.2.4,59.892617206940045,
0,1,0,0,1,0,0,0,circle,triangle,2,0,2,0,2,9,33,3,,,,,,,,,,,,,,,,,,,,,,,,,,,,,,,,,,,,,,,,504.3915730040171,504.3915730040171,504.3915730040171,504.3915730040171,504.3915730040171,504.3915730040171,504.3915730040171,504.3915730040171,504.3915730040171,504.3915730040171,a,0.3041049569728784,1,768,2,504.7255831360235,506.2258102929918,506.2258102929918,506.72580593498424,,,,,,,,,,,,,,,,,,,,,,,,,,,,,,,,,,,,,,,,,,,,,,,,,,,,,,,,,,,,,,,,,,,,21613,2022-10-31_13h51.30.563,vts_reward_expectancy_bt_OFFLINE,2022.2.4,59.892617206940045,
0,0,1,0,0,0,0,1,hexagon,star,2,0,2,0,2,10,34,8,,,,,,,,,,,,,,,,,,,,,,,,,,,,,,,,,,,,,,,,506.72580593498424,506.72580593498424,506.72580593498424,506.72580593498424,506.72580593498424,506.72580593498424,506.72580593498424,506.72580593498424,506.72580593498424,506.72580593498424,a,0.22535145696019754,10,778,2,506.9693949299981,,508.4784670040244,,,,,,,,,,,,,,,,,,,,,,,,,,,,,,,,,,,,,,,,,,,,,,,,,,,,,,,,,,,,,,,,,,,,,21613,2022-10-31_13h51.30.563,vts_reward_expectancy_bt_OFFLINE,2022.2.4,59.892617206940045,
1,0,0,0,0,0,1,0,triangle,hexagon,2,0,2,0,2,11,35,1,,,,,,,,,,,,,,,,,,,,,,,,,,,,,,,,,,,,,,,,508.97835750400554,508.97835750400554,508.97835750400554,508.97835750400554,508.97835750400554,508.97835750400554,508.97835750400554,508.97835750400554,508.97835750400554,508.97835750400554,a,0.48601142899133265,1,779,2,509.49569883500226,510.9959345459938,510.9959345459938,511.49616189900553,,,,,,,,,,,,,,,,,,,,,,,,,,,,,,,,,,,,,,,,,,,,,,,,,,,,,,,,,,,,,,,,,,,,21613,2022-10-31_13h51.30.563,vts_reward_expectancy_bt_OFFLINE,2022.2.4,59.892617206940045,
0,1,0,0,1,0,0,0,circle,triangle,2,0,2,0,3,0,36,3,,,,,,,,,,,,,,,,,,,,,,,,,,,,,,,,,,,,,,,,511.49616189900553,511.49616189900553,511.49616189900553,511.49616189900553,511.49616189900553,511.49616189900553,511.49616189900553,511.49616189900553,511.49616189900553,511.49616189900553,a,0.6320943119935691,1,780,2,512.1483741429984,513.648598817992,513.648598817992,514.1485828220029,,,,,,,,,,,,,,,,,,,,,,,,,,,,,,,,,,,,,,,,,,,,,,,,,,,,,,,,,,,,,,,,,,,,21613,2022-10-31_13h51.30.563,vts_reward_expectancy_bt_OFFLINE,2022.2.4,59.892617206940045,
0,1,0,0,0,0,1,0,circle,hexagon,2,0,2,0,3,1,37,4,,,,,,,,,,,,,,,,,,,,,,,,,,,,,,,,,,,,,,,,514.1485828220029,514.1485828220029,514.1485828220029,514.1485828220029,514.1485828220029,514.1485828220029,514.1485828220029,514.1485828220029,514.1485828220029,514.1485828220029,l,0.36340226302854717,1,781,2,514.5330162930186,516.0331294949865,516.0331294949865,516.5327036450035,,,,,,,,,,,,,,,,,,,,,,,,,,,,,,,,,,,,,,,,,,,,,,,,,,,,,,,,,,,,,,,,,,,,21613,2022-10-31_13h51.30.563,vts_reward_expectancy_bt_OFFLINE,2022.2.4,59.892617206940045,
1,0,0,0,0,0,1,0,triangle,hexagon,2,0,2,0,3,2,38,1,,,,,,,,,,,,,,,,,,,,,,,,,,,,,,,,,,,,,,,,516.5327036450035,516.5327036450035,516.5327036450035,516.5327036450035,516.5327036450035,516.5327036450035,516.5327036450035,516.5327036450035,516.5327036450035,516.5327036450035,l,0.21852376399328932,1,782,2,516.7830788739957,518.2855087650241,518.2855087650241,518.785889848019,,,,,,,,,,,,,,,,,,,,,,,,,,,,,,,,,,,,,,,,,,,,,,,,,,,,,,,,,,,,,,,,,,,,21613,2022-10-31_13h51.30.563,vts_reward_expectancy_bt_OFFLINE,2022.2.4,59.892617206940045,
0,0,1,0,1,0,0,0,hexagon,triangle,2,0,2,0,3,3,39,6,,,,,,,,,,,,,,,,,,,,,,,,,,,,,,,,,,,,,,,,518.785889848019,518.785889848019,518.785889848019,518.785889848019,518.785889848019,518.785889848019,518.785889848019,518.785889848019,518.785889848019,518.785889848019,l,0.2781873840140179,1,783,2,519.0865733710234,520.5863504890003,520.5863504890003,521.0864985429798,,,,,,,,,,,,,,,,,,,,,,,,,,,,,,,,,,,,,,,,,,,,,,,,,,,,,,,,,,,,,,,,,,,,21613,2022-10-31_13h51.30.563,vts_reward_expectancy_bt_OFFLINE,2022.2.4,59.892617206940045,
1,0,0,0,0,0,0,1,triangle,star,2,0,2,0,3,4,40,2,,,,,,,,,,,,,,,,,,,,,,,,,,,,,,,,,,,,,,,,521.0864985429798,521.0864985429798,521.0864985429798,521.0864985429798,521.0864985429798,521.0864985429798,521.0864985429798,521.0864985429798,521.0864985429798,521.0864985429798,a,0.2567963440087624,1,784,2,521.3703447930166,,522.8723576529883,,,,,,,,,,,,,,,,,,,,,,,,,,,,,,,,,,,,,,,,,,,,,,,,,,,,,,,,,,,,,,,,,,,,,21613,2022-10-31_13h51.30.563,vts_reward_expectancy_bt_OFFLINE,2022.2.4,59.892617206940045,
0,1,0,0,0,0,0,1,circle,star,2,0,2,0,3,5,41,5,,,,,,,,,,,,,,,,,,,,,,,,,,,,,,,,,,,,,,,,523.3725374430069,523.3725374430069,523.3725374430069,523.3725374430069,523.3725374430069,523.3725374430069,523.3725374430069,523.3725374430069,523.3725374430069,523.3725374430069,l,0.7387816169648431,1,785,2,524.1400710890302,525.6400519019808,525.6400519019808,526.1401711609797,,,,,,,,,,,,,,,,,,,,,,,,,,,,,,,,,,,,,,,,,,,,,,,,,,,,,,,,,,,,,,,,,,,,21613,2022-10-31_13h51.30.563,vts_reward_expectancy_bt_OFFLINE,2022.2.4,59.892617206940045,
0,0,1,0,0,0,0,1,hexagon,star,2,0,2,0,3,6,42,8,,,,,,,,,,,,,,,,,,,,,,,,,,,,,,,,,,,,,,,,526.1401711609797,526.1401711609797,526.1401711609797,526.1401711609797,526.1401711609797,526.1401711609797,526.1401711609797,526.1401711609797,526.1401711609797,526.1401711609797,l,0.5476664999732748,10,795,2,526.7095872929785,,528.2093448090018,,,,,,,,,,,,,,,,,,,,,,,,,,,,,,,,,,,,,,,,,,,,,,,,,,,,,,,,,,,,,,,,,,,,,21613,2022-10-31_13h51.30.563,vts_reward_expectancy_bt_OFFLINE,2022.2.4,59.892617206940045,
0,0,1,0,0,1,0,0,hexagon,circle,2,0,2,0,3,7,43,7,,,,,,,,,,,,,,,,,,,,,,,,,,,,,,,,,,,,,,,,528.7095931579825,528.7095931579825,528.7095931579825,528.7095931579825,528.7095931579825,528.7095931579825,528.7095931579825,528.7095931579825,528.7095931579825,528.7095931579825,a,0.6581866119522601,10,805,2,529.3936746370164,530.8937608349952,530.8937608349952,,,,,,,,,,,,,,,,,,,,,,,,,,,,,,,,,,,,,,,,,,,,,,,,,,,,,,,,,,,,,,,,,,,,,21613,2022-10-31_13h51.30.563,vts_reward_expectancy_bt_OFFLINE,2022.2.4,59.892617206940045,
0,0,0,1,1,0,0,0,star,triangle,2,0,2,0,3,8,44,9,,,,,,,,,,,,,,,,,,,,,,,,,,,,,,,,,,,,,,,,531.3938551350147,531.3938551350147,531.3938551350147,531.3938551350147,531.3938551350147,531.3938551350147,531.3938551350147,531.3938551350147,531.3938551350147,531.3938551350147,a,0.8613695229869336,10,815,2,532.2799165220349,533.7799280210165,533.7799280210165,534.2802264519851,,,,,,,,,,,,,,,,,,,,,,,,,,,,,,,,,,,,,,,,,,,,,,,,,,,,,,,,,,,,,,,,,,,,21613,2022-10-31_13h51.30.563,vts_reward_expectancy_bt_OFFLINE,2022.2.4,59.892617206940045,
1,0,0,0,0,1,0,0,triangle,circle,2,0,2,0,3,9,45,0,,,,,,,,,,,,,,,,,,,,,,,,,,,,,,,,,,,,,,,,534.2802264519851,534.2802264519851,534.2802264519851,534.2802264519851,534.2802264519851,534.2802264519851,534.2802264519851,534.2802264519851,534.2802264519851,534.2802264519851,a,0.6394936139695346,1,816,2,534.9498699050164,,536.4642960799974,,,,,,,,,,,,,,,,,,,,,,,,,,,,,,,,,,,,,,,,,,,,,,,,,,,,,,,,,,,,,,,,,,,,,21613,2022-10-31_13h51.30.563,vts_reward_expectancy_bt_OFFLINE,2022.2.4,59.892617206940045,
0,0,0,1,0,0,1,0,star,hexagon,2,0,2,0,3,10,46,11,,,,,,,,,,,,,,,,,,,,,,,,,,,,,,,,,,,,,,,,536.9620358960237,536.9620358960237,536.9620358960237,536.9620358960237,536.9620358960237,536.9620358960237,536.9620358960237,536.9620358960237,536.9620358960237,536.9620358960237,l,0.5020983970025554,10,826,2,537.4856203420204,,539.000365748012,,,,,,,,,,,,,,,,,,,,,,,,,,,,,,,,,,,,,,,,,,,,,,,,,,,,,,,,,,,,,,,,,,,,,21613,2022-10-31_13h51.30.563,vts_reward_expectancy_bt_OFFLINE,2022.2.4,59.892617206940045,
0,0,0,1,0,1,0,0,star ,circle,2,0,2,0,3,11,47,10,,,,,,,,,,,,,,,,,,,,,,,,,,,,,,,,,,,,,,,,539.4838725730078,539.4838725730078,539.4838725730078,539.4838725730078,539.4838725730078,539.4838725730078,539.4838725730078,539.4838725730078,539.4838725730078,539.4838725730078,l,0.48367120599141344,1,827,2,540.0013534629834,541.5012991970289,541.5012991970289,,,,,,,,,,,,,,,,,,,,,,,,,,,,,,,,,,,,,,,,,,,,,,,,,,,,,,,,,,,,,,,,,,,,,21613,2022-10-31_13h51.30.563,vts_reward_expectancy_bt_OFFLINE,2022.2.4,59.892617206940045,
,,,,,,,,,,,,,,,,,,0,0,0,0,0,0,0,0,,,,,,,,,,,,,,,,,,,,,,,,,,,,,,,,,,,,,,,,,,,,,,,,,599.9442505320185,,S,132,star,0.0008081629639491439,594.6536251489888,596.1409979049931,596.1409979049931,596.1409979049931,0,0,d,2.2669371349620633,0,598.4304914370296,,,,,,,,,,,,,,,,,,,,,,,,,,,,,,,,,,,,,,,,,,,,,,,,,,,,,,21613,2022-10-31_13h51.30.563,vts_reward_expectancy_bt_OFFLINE,2022.2.4,59.892617206940045,
,,,,,,,,,,,,,,,,,,0,0,0,0,1,0,1,0,,,,,,,,,,,,,,,,,,,,,,,,,,,,,,,,,,,,,,,,,,,,,,,,,605.0145786810317,,W,174,hexagon,0.016766300948802382,600.9404551390326,602.4137754400144,602.4137754400144,602.4137754400144,1,1,f,1.0578106740140356,0,603.5009285620181,,,,,,,,,,,,,,,,,,,,,,,,,,,,,,,,,,,,,,,,,,,,,,,,,,,,,,21613,2022-10-31_13h51.30.563,vts_reward_expectancy_bt_OFFLINE,2022.2.4,59.892617206940045,
,,,,,,,,,,,,,,,,,,0,0,0,0,2,0,2,0,,,,,,,,,,,,,,,,,,,,,,,,,,,,,,,,,,,,,,,,,,,,,,,,,610.1683158979868,610.6685957069858,D,125,circle,0.016613740008324385,606.0105394980055,607.4840973030077,607.4840973030077,607.4840973030077,1,0,d,1.1555072849732824,0,608.6682277140208,610.1683158979868,,,,,,,,,,,,,,,,,,,,,,,,,,,,,,,,,,,,,,,,,,,,,,,,,,,,,21613,2022-10-31_13h51.30.563,vts_reward_expectancy_bt_OFFLINE,2022.2.4,59.892617206940045,
,,,,,,,,,,,,,,,,,,0,0,0,0,3,0,3,0,,,,,,,,,,,,,,,,,,,,,,,,,,,,,,,,,,,,,,,,,,,,,,,,,615.0217093530227,615.5220778530347,B,146,triangle,0.0004805009812116623,611.1646437200252,612.6544449449866,612.6544449449866,612.6544449449866,1,0,d,0.8489858209504746,0,613.5221064750222,615.0217093530227,,,,,,,,,,,,,,,,,,,,,,,,,,,,,,,,,,,,,,,,,,,,,,,,,,,,,21613,2022-10-31_13h51.30.563,vts_reward_expectancy_bt_OFFLINE,2022.2.4,59.892617206940045,
,,,,,,,,,,,,,,,,,,0,0,0,0,4,0,4,0,,,,,,,,,,,,,,,,,,,,,,,,,,,,,,,,,,,,,,,,,,,,,,,,,619.5587237909785,620.0589266410097,U,167,circle,0.0005614639958366752,616.0184984499938,617.5079882270074,617.5079882270074,617.5079882270074,1,0,f,0.5323324810015038,0,618.0588842750294,619.5587237909785,,,,,,,,,,,,,,,,,,,,,,,,,,,,,,,,,,,,,,,,,,,,,,,,,,,,,21613,2022-10-31_13h51.30.563,vts_reward_expectancy_bt_OFFLINE,2022.2.4,59.892617206940045,
,,,,,,,,,,,,,,,,,,0,0,0,0,5,0,5,0,,,,,,,,,,,,,,,,,,,,,,,,,,,,,,,,,,,,,,,,,,,,,,,,,624.1955502100172,,F,181,star,0.0004112870083190501,620.5551283719833,622.0478795600357,622.0478795600357,622.0478795600357,1,0,d,0.6162824039929546,0,622.6959005530225,624.1955502100172,,,,,,,,,,,,,,,,,,,,,,,,,,,,,,,,,,,,,,,,,,,,,,,,,,,,,21613,2022-10-31_13h51.30.563,vts_reward_expectancy_bt_OFFLINE,2022.2.4,59.892617206940045,
,,,,,,,,,,,,,,,,,,0,0,0,0,6,0,6,0,,,,,,,,,,,,,,,,,,,,,,,,,,,,,,,,,,,,,,,,,,,,,,,,,628.5989057419938,629.0991426340188,Y,160,hexagon,0.0004816429573111236,625.1911761119845,626.6798566100188,626.6798566100188,626.6798566100188,1,0,f,0.39230538898846135,0,627.0997065330157,628.5989057419938,,,,,,,,,,,,,,,,,,,,,,,,,,,,,,,,,,,,,,,,,,,,,,,,,,,,,21613,2022-10-31_13h51.30.563,vts_reward_expectancy_bt_OFFLINE,2022.2.4,59.892617206940045,
,,,,,,,,,,,,,,,,,,0,0,0,0,7,0,7,0,,,,,,,,,,,,,,,,,,,,,,,,,,,,,,,,,,,,,,,,,,,,,,,,,633.3524364790064,,H,139,triangle,0.00033013796200975776,629.5956011679955,631.0832731020055,631.0832731020055,631.0832731020055,1,0,d,0.7480796140152961,0,631.8506191379856,,,,,,,,,,,,,,,,,,,,,,,,,,,,,,,,,,,,,,,,,,,,,,,,,,,,,,21613,2022-10-31_13h51.30.563,vts_reward_expectancy_bt_OFFLINE,2022.2.4,59.892617206940045,
,,,,,,,,,,,,,,,,,,0,0,0,0,8,0,8,0,,,,,,,,,,,,,,,,,,,,,,,,,,,,,,,,,,,,,,,,,,,,,,,,,637.9226528370054,,S,132,star,0.002222082985099405,634.347625932016,635.8367592010181,635.8367592010181,635.8367592010181,0,0,d,0.5631528960075229,0,636.4236978539848,,,,,,,,,,,,,,,,,,,,,,,,,,,,,,,,,,,,,,,,,,,,,,,,,,,,,,21613,2022-10-31_13h51.30.563,vts_reward_expectancy_bt_OFFLINE,2022.2.4,59.892617206940045,
,,,,,,,,,,,,,,,,,,0,0,0,0,9,0,9,0,,,,,,,,,,,,,,,,,,,,,,,,,,,,,,,,,,,,,,,,,,,,,,,,,642.5760627019918,,W,174,hexagon,0.0021746380371041596,638.9181376000051,640.4068783359835,640.4068783359835,640.4068783359835,1,1,f,0.6491326849791221,0,641.0769809840131,,,,,,,,,,,,,,,,,,,,,,,,,,,,,,,,,,,,,,,,,,,,,,,,,,,,,,21613,2022-10-31_13h51.30.563,vts_reward_expectancy_bt_OFFLINE,2022.2.4,59.892617206940045,
,,,,,,,,,,,,,,,,,,1,0,1,0,0,0,0,0,,,,,,,,,,,,,,,,,,,,,,,,,,,,,,,,,,,,,,,,,,,,,,,,,665.4419417090248,665.9420752319857,W,167,star,0.0007944509852677584,661.7678016159916,663.2576914780075,663.2576914780075,663.2576914780075,1,0,f,0.6541574359871447,1,663.9422967869905,665.4419417090248,,,,,,,,,,,,,,,,,,,,,,,,,,,,,,,,,,,,,,,,,,,,,,,,,,,,,21613,2022-10-31_13h51.30.563,vts_reward_expectancy_bt_OFFLINE,2022.2.4,59.892617206940045,
,,,,,,,,,,,,,,,,,,1,0,1,0,1,0,1,0,,,,,,,,,,,,,,,,,,,,,,,,,,,,,,,,,,,,,,,,,,,,,,,,,670.5455418750062,,F,174,hexagon,0.00023756898008286953,666.4381138199824,667.9275829379912,667.9275829379912,667.9275829379912,1,0,d,1.0877138520008884,1,669.0458087630104,670.5455418750062,,,,,,,,,,,,,,,,,,,,,,,,,,,,,,,,,,,,,,,,,,,,,,,,,,,,,21613,2022-10-31_13h51.30.563,vts_reward_expectancy_bt_OFFLINE,2022.2.4,59.892617206940045,
,,,,,,,,,,,,,,,,,,1,0,1,0,2,0,2,0,,,,,,,,,,,,,,,,,,,,,,,,,,,,,,,,,,,,,,,,,,,,,,,,,675.2992071339977,675.7992084309808,B,132,triangle,0.00038498599315062165,671.5419284820091,673.0313365680049,673.0313365680049,673.0313365680049,1,0,d,0.744010193971917,1,673.7993750559981,675.2992071339977,,,,,,,,,,,,,,,,,,,,,,,,,,,,,,,,,,,,,,,,,,,,,,,,,,,,,21613,2022-10-31_13h51.30.563,vts_reward_expectancy_bt_OFFLINE,2022.2.4,59.892617206940045,
,,,,,,,,,,,,,,,,,,1,0,1,0,3,0,3,0,,,,,,,,,,,,,,,,,,,,,,,,,,,,,,,,,,,,,,,,,,,,,,,,,679.9691167260171,680.4691445850185,D,160,circle,0.0005064730066806078,676.295497070998,677.7847901859786,677.7847901859786,677.7847901859786,1,0,d,0.663369765970856,1,678.4695807439857,679.9691167260171,,,,,,,,,,,,,,,,,,,,,,,,,,,,,,,,,,,,,,,,,,,,,,,,,,,,,21613,2022-10-31_13h51.30.563,vts_reward_expectancy_bt_OFFLINE,2022.2.4,59.892617206940045,
,,,,,,,,,,,,,,,,,,1,0,1,0,4,0,4,0,,,,,,,,,,,,,,,,,,,,,,,,,,,,,,,,,,,,,,,,,,,,,,,,,684.8226272760076,685.3226881920127,Y,125,triangle,0.00047210894990712404,680.9651413559914,682.4552401530091,682.4552401530091,682.4552401530091,1,0,f,0.8400688179535791,1,683.3231526560267,684.8226272760076,,,,,,,,,,,,,,,,,,,,,,,,,,,,,,,,,,,,,,,,,,,,,,,,,,,,,21613,2022-10-31_13h51.30.563,vts_reward_expectancy_bt_OFFLINE,2022.2.4,59.892617206940045,
,,,,,,,,,,,,,,,,,,1,0,1,0,5,0,5,0,,,,,,,,,,,,,,,,,,,,,,,,,,,,,,,,,,,,,,,,,,,,,,,,,689.9930693240021,690.4933061249903,S,146,hexagon,0.0005572900408878922,685.8188616490224,687.3088802699931,687.3088802699931,687.3088802699931,1,0,f,1.1543150210054591,1,688.4939063710044,689.9930693240021,,,,,,,,,,,,,,,,,,,,,,,,,,,,,,,,,,,,,,,,,,,,,,,,,,,,,21613,2022-10-31_13h51.30.563,vts_reward_expectancy_bt_OFFLINE,2022.2.4,59.892617206940045,
,,,,,,,,,,,,,,,,,,1,0,1,0,6,0,6,0,,,,,,,,,,,,,,,,,,,,,,,,,,,,,,,,,,,,,,,,,,,,,,,,,694.7299931939924,695.2301700210082,H,181,circle,0.00017855700571089983,690.9895754419849,692.4791958120186,692.4791958120186,692.4791958120186,1,0,d,0.7285783969564363,1,693.2306155380211,694.7299931939924,,,,,,,,,,,,,,,,,,,,,,,,,,,,,,,,,,,,,,,,,,,,,,,,,,,,,21613,2022-10-31_13h51.30.563,vts_reward_expectancy_bt_OFFLINE,2022.2.4,59.892617206940045,
,,,,,,,,,,,,,,,,,,1,0,1,0,7,0,7,0,,,,,,,,,,,,,,,,,,,,,,,,,,,,,,,,,,,,,,,,,,,,,,,,,699.7501557089854,700.2505580650177,U,139,star,0.00029484002152457833,695.7268628809834,697.2160659480141,697.2160659480141,697.2160659480141,1,0,f,1.0077809199574403,1,698.2507163889823,699.7501557089854,,,,,,,,,,,,,,,,,,,,,,,,,,,,,,,,,,,,,,,,,,,,,,,,,,,,,21613,2022-10-31_13h51.30.563,vts_reward_expectancy_bt_OFFLINE,2022.2.4,59.892617206940045,
,,,,,,,,,,,,,,,,,,1,0,1,0,8,0,8,0,,,,,,,,,,,,,,,,,,,,,,,,,,,,,,,,,,,,,,,,,,,,,,,,,704.2705552119878,704.7705869440106,W,167,hexagon,0.000480332993902266,700.7465257180156,702.236496758007,702.236496758007,702.236496758007,1,0,f,0.5148778269649483,1,702.7706839719904,704.2705552119878,,,,,,,,,,,,,,,,,,,,,,,,,,,,,,,,,,,,,,,,,,,,,,,,,,,,,21613,2022-10-31_13h51.30.563,vts_reward_expectancy_bt_OFFLINE,2022.2.4,59.892617206940045,
,,,,,,,,,,,,,,,,,,1,0,1,0,9,0,9,0,,,,,,,,,,,,,,,,,,,,,,,,,,,,,,,,,,,,,,,,,,,,,,,,,709.7243308100151,710.2349576110137,F,174,star,0.0004606849979609251,705.2663825859781,706.7547544959816,706.7547544959816,706.7547544959816,1,0,d,1.444853194989264,1,708.2246455730055,709.7243308100151,,,,,,,,,,,,,,,,,,,,,,,,,,,,,,,,,,,,,,,,,,,,,,,,,,,,,21613,2022-10-31_13h51.30.563,vts_reward_expectancy_bt_OFFLINE,2022.2.4,59.892617206940045,
,,,,,,,,,,,,,,,,,,,,,,,,,,0,0,0,0,0,0,0,0,,,,,,,,,,,,,,,,,,,,,,,,,,,,,,,,,,,,,,,,,732.1580911410274,,D,167,circle,0.002245857031084597,,,,,1,0,,,2,730.657158697024,,728.2328135640128,729.7221226150286,729.7221226150286,729.7221226150286,k,0.9094888789695688,,,,,,,,,,,,,,,,,,,,,,,,,,,,,,,,,,,,,,,,,,,,,,,21613,2022-10-31_13h51.30.563,vts_reward_expectancy_bt_OFFLINE,2022.2.4,59.892617206940045,
,,,,,,,,,,,,,,,,,,,,,,,,,,0,0,0,0,1,0,1,0,,,,,,,,,,,,,,,,,,,,,,,,,,,,,,,,,,,,,,,,,737.5951744540362,,Y,174,triangle,0.0018543030018918216,,,,,1,0,,,2,736.094117672008,,733.1534233610146,734.6424282090156,734.6424282090156,734.6424282090156,k,1.4213066679658368,,,,,,,,,,,,,,,,,,,,,,,,,,,,,,,,,,,,,,,,,,,,,,,21613,2022-10-31_13h51.30.563,vts_reward_expectancy_bt_OFFLINE,2022.2.4,59.892617206940045,
,,,,,,,,,,,,,,,,,,,,,,,,,,0,0,0,0,2,0,2,0,,,,,,,,,,,,,,,,,,,,,,,,,,,,,,,,,,,,,,,,,742.2320417520241,,U,181,hexagon,0.0018398779793642461,,,,,1,0,,,2,740.7308727860218,,738.5905358960154,740.0793473289814,740.0793473289814,740.0793473289814,k,0.6325338509632275,,,,,,,,,,,,,,,,,,,,,,,,,,,,,,,,,,,,,,,,,,,,,,,21613,2022-10-31_13h51.30.563,vts_reward_expectancy_bt_OFFLINE,2022.2.4,59.892617206940045,
,,,,,,,,,,,,,,,,,,,,,,,,,,0,0,0,0,3,0,3,0,,,,,,,,,,,,,,,,,,,,,,,,,,,,,,,,,,,,,,,,,746.9670154579799,,B,146,star,0.0019949739798903465,,,,,1,0,,,2,745.4675318520167,746.9670154579799,743.2273528620135,744.7163489080267,744.7163489080267,744.7163489080267,j,0.7312307799584232,,,,,,,,,,,,,,,,,,,,,,,,,,,,,,,,,,,,,,,,,,,,,,,21613,2022-10-31_13h51.30.563,vts_reward_expectancy_bt_OFFLINE,2022.2.4,59.892617206940045,
,,,,,,,,,,,,,,,,,,,,,,,,,,0,0,0,0,4,0,4,0,,,,,,,,,,,,,,,,,,,,,,,,,,,,,,,,,,,,,,,,,751.8375033540069,,S,139,circle,0.0018115019774995744,,,,,1,0,,,2,750.3216999139986,,747.9640210649814,749.4534250430297,749.4534250430297,749.4534250430297,j,0.8431968149961904,,,,,,,,,,,,,,,,,,,,,,,,,,,,,,,,,,,,,,,,,,,,,,,21613,2022-10-31_13h51.30.563,vts_reward_expectancy_bt_OFFLINE,2022.2.4,59.892617206940045,
,,,,,,,,,,,,,,,,,,,,,,,,,,0,0,0,0,5,0,5,0,,,,,,,,,,,,,,,,,,,,,,,,,,,,,,,,,,,,,,,,,756.4408589130035,756.9410528570297,F,125,triangle,0.001892256026621908,,,,,1,0,,,2,754.9415241280221,756.4408589130035,752.8179238450248,754.3068363000057,754.3068363000057,754.3068363000057,j,0.6052792359841987,,,,,,,,,,,,,,,,,,,,,,,,,,,,,,,,,,,,,,,,,,,,,,,21613,2022-10-31_13h51.30.563,vts_reward_expectancy_bt_OFFLINE,2022.2.4,59.892617206940045,
,,,,,,,,,,,,,,,,,,,,,,,,,,0,0,0,0,6,0,6,0,,,,,,,,,,,,,,,,,,,,,,,,,,,,,,,,,,,,,,,,,761.2943098620162,761.7946632230305,H,160,hexagon,0.0004607429727911949,,,,,1,0,,,2,759.7950581240002,761.2943098620162,757.4376762270113,758.9270925300079,758.9270925300079,758.9270925300079,k,0.8412204809719697,,,,,,,,,,,,,,,,,,,,,,,,,,,,,,,,,,,,,,,,,,,,,,,21613,2022-10-31_13h51.30.563,vts_reward_expectancy_bt_OFFLINE,2022.2.4,59.892617206940045,
,,,,,,,,,,,,,,,,,,,,,,,,,,0,0,0,0,7,0,7,0,,,,,,,,,,,,,,,,,,,,,,,,,,,,,,,,,,,,,,,,,766.0311003660318,766.5313440790051,W,132,star,0.00047379801981151104,,,,,1,0,,,2,764.5319151050062,766.0311003660318,762.2902523620287,763.7803416509996,763.7803416509996,763.7803416509996,j,0.7237285629380494,,,,,,,,,,,,,,,,,,,,,,,,,,,,,,,,,,,,,,,,,,,,,,,21613,2022-10-31_13h51.30.563,vts_reward_expectancy_bt_OFFLINE,2022.2.4,59.892617206940045,
,,,,,,,,,,,,,,,,,,,,,,,,,,0,0,0,0,8,0,8,0,,,,,,,,,,,,,,,,,,,,,,,,,,,,,,,,,,,,,,,,,770.7183021969977,771.218483100005,D,167,triangle,0.00024678901536390185,,,,,1,0,,,2,769.2188812050154,770.7183021969977,767.0277559169917,768.5173463340034,768.5173463340034,768.5173463340034,k,0.6746989919920452,,,,,,,,,,,,,,,,,,,,,,,,,,,,,,,,,,,,,,,,,,,,,,,21613,2022-10-31_13h51.30.563,vts_reward_expectancy_bt_OFFLINE,2022.2.4,59.892617206940045,
,,,,,,,,,,,,,,,,,,,,,,,,,,0,0,0,0,9,0,9,0,,,,,,,,,,,,,,,,,,,,,,,,,,,,,,,,,,,,,,,,,775.8050419780193,,Y,174,star,0.0003107980010099709,,,,,1,0,,,2,774.2899140680092,,771.7143160820124,773.2042689460213,773.2042689460213,773.2042689460213,k,1.0672343939659186,,,,,,,,,,,,,,,,,,,,,,,,,,,,,,,,,,,,,,,,,,,,,,,21613,2022-10-31_13h51.30.563,vts_reward_expectancy_bt_OFFLINE,2022.2.4,59.892617206940045,
,,,,,,,,,,,,,,,,,,,,,,,,,,,,,,,,,,0,0,0,0,0,0,0,0,,,,,,,,,,,,,,,,,,,,,,,,,,,,0,827,,,,863.8699502429808,,Y,160,star,0.0024384180433116853,,,,,1,0,,,3,,,,,,,,,858.6129629100324,858.6129629100324,858.6129629100324,858.6129629100324,860.1001124859904,860.1001124859904,860.1001124859904,860.1001124859904,860.1165928210248,860.1165928210248,860.1165928210248,860.1165928210248,-1,letter,NA,f,2.235393789014779,vtsPrac,862.3566856349935,,,,,,,,,,,,,,,,,,,,,,,,,,,,21613,2022-10-31_13h51.30.563,vts_reward_expectancy_bt_OFFLINE,2022.2.4,59.892617206940045,
,,,,,,,,,,,,,,,,,,,,,,,,,,,,,,,,,,0,0,0,0,1,0,1,0,,,,,,,,,,,,,,,,,,,,,,,,,,,,0,827,,,,868.8900308650336,869.390513639024,B,125,circle,0.01701950596179813,,,,,1,0,,,3,,,,,,,,,864.8666250599781,864.8666250599781,864.8666250599781,864.8666250599781,866.3376098690205,866.3376098690205,866.3376098690205,866.3376098690205,866.3707621580106,866.3707621580106,866.3707621580106,866.3707621580106,repeat,letter,lettRpt,d,1.0227778279804625,vtsPrac,867.3912532430259,868.8900308650336,,,,,,,,,,,,,,,,,,,,,,,,,,,21613,2022-10-31_13h51.30.563,vts_reward_expectancy_bt_OFFLINE,2022.2.4,59.892617206940045,
,,,,,,,,,,,,,,,,,,,,,,,,,,,,,,,,,,0,0,0,0,2,0,2,0,,,,,,,,,,,,,,,,,,,,,,,,,,,,0,827,,,,873.4437414240092,,D,167,star,0.0005227960064075887,,,,,1,0,,,3,,,,,,,,,869.8869670529966,869.8869670529966,869.8869670529966,869.8869670529966,871.3745390989934,871.3745390989934,871.3745390989934,871.3745390989934,871.3911763260257,871.3911763260257,871.3911763260257,871.3911763260257,switch,number,numSwt,k,0.5448359060101211,vtsPrac,871.9425716539845,,,,,,,,,,,,,,,,,,,,,,,,,,,,21613,2022-10-31_13h51.30.563,vts_reward_expectancy_bt_OFFLINE,2022.2.4,59.892617206940045,
,,,,,,,,,,,,,,,,,,,,,,,,,,,,,,,,,,0,0,0,0,3,0,3,0,,,,,,,,,,,,,,,,,,,,,,,,,,,,0,827,,,,878.4640103679849,,W,132,triangle,0.0017351579735986888,,,,,1,0,,,3,,,,,,,,,874.4401546799927,874.4401546799927,874.4401546799927,874.4401546799927,875.9281530390144,875.9281530390144,875.9281530390144,875.9281530390144,875.944694596983,875.944694596983,875.944694596983,875.944694596983,switch,letter,lettSwt,f,1.0077907519880682,vtsPrac,876.9625793229789,,,,,,,,,,,,,,,,,,,,,,,,,,,,21613,2022-10-31_13h51.30.563,vts_reward_expectancy_bt_OFFLINE,2022.2.4,59.892617206940045,
,,,,,,,,,,,,,,,,,,,,,,,,,,,,,,,,,,0,0,0,0,4,0,4,0,,,,,,,,,,,,,,,,,,,,,,,,,,,,0,827,,,,883.4174936949858,,Y,160,triangle,0.0021961949532851577,,,,,1,0,,,3,,,,,,,,,879.4595800039824,879.4595800039824,879.4595800039824,879.4595800039824,880.9481740280171,880.9481740280171,880.9481740280171,880.9481740280171,880.9650250889827,880.9650250889827,880.9650250889827,880.9650250889827,switch,number,numSwt,k,0.9391150579904206,vtsPrac,881.9165725919884,,,,,,,,,,,,,,,,,,,,,,,,,,,,21613,2022-10-31_13h51.30.563,vts_reward_expectancy_bt_OFFLINE,2022.2.4,59.892617206940045,
,,,,,,,,,,,,,,,,,,,,,,,,,,,,,,,,,,0,0,0,0,5,0,5,0,,,,,,,,,,,,,,,,,,,,,,,,,,,,0,827,,,,888.171204689017,,B,125,circle,0.0020769420079886913,,,,,1,0,,,3,,,,,,,,,884.41357207502,884.41357207502,884.41357207502,884.41357207502,885.9017347589834,885.9017347589834,885.9017347589834,885.9017347589834,885.9185240480001,885.9185240480001,885.9185240480001,885.9185240480001,repeat,number,numRpt,j,0.7375698979594745,vtsPrac,886.6701478580362,,,,,,,,,,,,,,,,,,,,,,,,,,,,21613,2022-10-31_13h51.30.563,vts_reward_expectancy_bt_OFFLINE,2022.2.4,59.892617206940045,
,,,,,,,,,,,,,,,,,,,,,,,,,,,,,,,,,,0,0,0,0,6,0,6,0,,,,,,,,,,,,,,,,,,,,,,,,,,,,0,827,,,,892.9579479310196,,D,167,circle,0.0018603990320116282,,,,,1,0,,,3,,,,,,,,,889.1670570130227,889.1670570130227,889.1670570130227,889.1670570130227,890.6555293590063,890.6555293590063,890.6555293590063,890.6555293590063,890.672115792986,890.672115792986,890.672115792986,890.672115792986,repeat,number,numRpt,k,0.7836752419825643,vtsPrac,891.4576053600176,,,,,,,,,,,,,,,,,,,,,,,,,,,,21613,2022-10-31_13h51.30.563,vts_reward_expectancy_bt_OFFLINE,2022.2.4,59.892617206940045,
,,,,,,,,,,,,,,,,,,,,,,,,,,,,,,,,,,0,0,0,0,7,0,7,0,,,,,,,,,,,,,,,,,,,,,,,,,,,,0,827,,,,897.5113770900061,,W,132,star,0.0015414920053444803,,,,,1,0,,,3,,,,,,,,,893.9537346360157,893.9537346360157,893.9537346360157,893.9537346360157,895.442466018023,895.442466018023,895.442466018023,895.442466018023,895.4589469390339,895.4589469390339,895.4589469390339,895.4589469390339,switch,letter,lettSwt,f,0.5488004539511167,vtsPrac,896.0103546230239,,,,,,,,,,,,,,,,,,,,,,,,,,,,21613,2022-10-31_13h51.30.563,vts_reward_expectancy_bt_OFFLINE,2022.2.4,59.892617206940045,
,,,,,,,,,,,,,,,,,,,,,,,,,,,,,,,,,,0,0,0,0,8,0,8,0,,,,,,,,,,,,,,,,,,,,,,,,,,,,0,827,,,,902.331652213994,,H,160,star,0.0021266419789753854,,,,,1,0,,,3,,,,,,,,,898.5074458289891,898.5074458289891,898.5074458289891,898.5074458289891,899.9958026100066,899.9958026100066,899.9958026100066,899.9958026100066,900.012606349017,900.012606349017,900.012606349017,900.012606349017,repeat,letter,lettRpt,d,0.8119604609673843,vtsPrac,900.8307491160231,,,,,,,,,,,,,,,,,,,,,,,,,,,,21613,2022-10-31_13h51.30.563,vts_reward_expectancy_bt_OFFLINE,2022.2.4,59.892617206940045,
,,,,,,,,,,,,,,,,,,,,,,,,,,,,,,,,,,0,0,0,0,9,0,9,0,,,,,,,,,,,,,,,,,,,,,,,,,,,,0,827,,,,906.850082029996,,Y,139,hexagon,0.0019899659673683345,,,,,1,0,,,3,,,,,,,,,903.3273375629797,903.3273375629797,903.3273375629797,903.3273375629797,904.8161840609973,904.8161840609973,904.8161840609973,904.8161840609973,904.8328539470094,904.8328539470094,904.8328539470094,904.8328539470094,switch,number,numSwt,j,0.5040472580003552,vtsPrac,905.3509068160201,906.850082029996,,,,,,,,,,,,,,,,,,,,,,,,,,,21613,2022-10-31_13h51.30.563,vts_reward_expectancy_bt_OFFLINE,2022.2.4,59.892617206940045,
,,,,,,,,,,,,,,,,,,,,,,,,,,,,,,,,,,0,0,0,0,10,0,10,0,,,,,,,,,,,,,,,,,,,,,,,,,,,,0,827,,,,911.5035840750206,912.0037266450236,S,174,circle,0.0021921340376138687,,,,,1,0,,,3,,,,,,,,,907.847650582029,907.847650582029,907.847650582029,907.847650582029,909.3363333130255,909.3363333130255,909.3363333130255,909.3363333130255,909.3529604659998,909.3529604659998,909.3529604659998,909.3529604659998,switch,letter,lettSwt,f,0.6476017189561389,vtsPrac,910.0042340130312,911.5035840750206,,,,,,,,,,,,,,,,,,,,,,,,,,,21613,2022-10-31_13h51.30.563,vts_reward_expectancy_bt_OFFLINE,2022.2.4,59.892617206940045,
,,,,,,,,,,,,,,,,,,,,,,,,,,,,,,,,,,0,0,0,0,11,0,11,0,,,,,,,,,,,,,,,,,,,,,,,,,,,,0,827,,,,916.3572286210256,916.8575152370031,U,125,star,0.0006197259644977748,,,,,1,0,,,3,,,,,,,,,912.5002887900337,912.5002887900337,912.5002887900337,912.5002887900337,913.9897876110044,913.9897876110044,913.9897876110044,913.9897876110044,914.0063458619989,914.0063458619989,914.0063458619989,914.0063458619989,repeat,letter,lettRpt,f,0.8428511539823376,vtsPrac,914.8582297069952,916.3572286210256,,,,,,,,,,,,,,,,,,,,,,,,,,,21613,2022-10-31_13h51.30.563,vts_reward_expectancy_bt_OFFLINE,2022.2.4,59.892617206940045,
,,,,,,,,,,,,,,,,,,,,,,,,,,,,,,,,,,0,0,0,0,12,0,12,0,,,,,,,,,,,,,,,,,,,,,,,,,,,,0,827,,,,921.0106469900347,,S,125,circle,0.0002890119794756174,,,,,1,0,,,3,,,,,,,,,917.3533519969787,917.3533519969787,917.3533519969787,917.3533519969787,918.8436537620146,918.8436537620146,918.8436537620146,918.8436537620146,918.8599984750035,918.8599984750035,918.8599984750035,918.8599984750035,repeat,letter,lettRpt,f,0.6201394649688154,vtsPrac,919.4951044829795,,,,,,,,,,,,,,,,,,,,,,,,,,,,21613,2022-10-31_13h51.30.563,vts_reward_expectancy_bt_OFFLINE,2022.2.4,59.892617206940045,
,,,,,,,,,,,,,,,,,,,,,,,,,,,,,,,,,,0,0,0,0,13,0,13,0,,,,,,,,,,,,,,,,,,,,,,,,,,,,0,827,,,,925.564285630011,926.0642106030136,U,181,triangle,0.01663295301841572,,,,,1,0,,,3,,,,,,,,,922.0067527330248,922.0067527330248,922.0067527330248,922.0067527330248,923.4801476129796,923.4801476129796,923.4801476129796,923.4801476129796,923.5136037790217,923.5136037790217,923.5136037790217,923.5136037790217,switch,number,numSwt,k,0.5514991929521784,vtsPrac,924.0637834980153,925.564285630011,,,,,,,,,,,,,,,,,,,,,,,,,,,21613,2022-10-31_13h51.30.563,vts_reward_expectancy_bt_OFFLINE,2022.2.4,59.892617206940045,
,,,,,,,,,,,,,,,,,,,,,,,,,,,,,,,,,,0,0,0,0,14,0,14,0,,,,,,,,,,,,,,,,,,,,,,,,,,,,0,827,,,,930.1343606149894,930.6346079880022,W,160,star,0.01501663401722908,,,,,1,0,,,3,,,,,,,,,926.576362880005,926.576362880005,926.576362880005,926.576362880005,928.0503295289818,928.0503295289818,928.0503295289818,928.0503295289818,928.0835146430181,928.0835146430181,928.0835146430181,928.0835146430181,repeat,number,numRpt,k,0.5578434959752485,vtsPrac,928.6350800190121,930.1343606149894,,,,,,,,,,,,,,,,,,,,,,,,,,,21613,2022-10-31_13h51.30.563,vts_reward_expectancy_bt_OFFLINE,2022.2.4,59.892617206940045,
,,,,,,,,,,,,,,,,,,,,,,,,,,,,,,,,,,0,0,0,0,15,0,15,0,,,,,,,,,,,,,,,,,,,,,,,,,,,,0,827,,,,934.7880294030183,935.2994894069852,D,146,hexagon,0.00037937797605991364,,,,,1,0,,,3,,,,,,,,,931.1307156429975,931.1307156429975,931.1307156429975,931.1307156429975,932.6202931880252,932.6202931880252,932.6202931880252,932.6202931880252,932.6370607230347,932.6370607230347,932.6370607230347,932.6370607230347,repeat,number,numRpt,j,0.6433311420259997,vtsPrac,933.2887218520045,934.7880294030183,,,,,,,,,,,,,,,,,,,,,,,,,,,21613,2022-10-31_13h51.30.563,vts_reward_expectancy_bt_OFFLINE,2022.2.4,59.892617206940045,
,,,,,,,,,,,,,,,,,,,,,,,,,,,,,,,,,,,,,,,,,,0,0,0,0,,,,,,,,,,,,,,,,,,,,,,,,0,827,,,,958.0219510269817,,W,160,hexagon,0.002630868984851986,,,,,1,0,,,,,,,,,,,,953.0306917600101,953.0306917600101,953.0306917600101,953.0306917600101,954.5189102260047,954.5189102260047,954.5189102260047,954.5189102260047,954.5356808209908,954.5356808209908,954.5356808209908,954.5356808209908,switch,letter,lettSwt,f,1.9769417840288952,noRew,,,0,956.5228950169985,,,,,,,,,,,,,,,,,,,,,,,,,21613,2022-10-31_13h51.30.563,vts_reward_expectancy_bt_OFFLINE,2022.2.4,59.892617206940045,
