LTriangleOpac,LCircleOpac,LHexagonOpac,LStarOpac,RTriangleOpac,RCircleOpac,RHexagonOpac,RStarOpac,LShape_ID,RShape_ID,training_blocks.thisRepN,training_blocks.thisTrialN,training_blocks.thisN,training_blocks.thisIndex,training.thisRepN,training.thisTrialN,training.thisN,training.thisIndex,task1_prac_redo.thisRepN,task1_prac_redo.thisTrialN,task1_prac_redo.thisN,task1_prac_redo.thisIndex,task1_prac_trials.thisRepN,task1_prac_trials.thisTrialN,task1_prac_trials.thisN,task1_prac_trials.thisIndex,task2_prac_redo.thisRepN,task2_prac_redo.thisTrialN,task2_prac_redo.thisN,task2_prac_redo.thisIndex,task2_praac_trials.thisRepN,task2_praac_trials.thisTrialN,task2_praac_trials.thisN,task2_praac_trials.thisIndex,vts_prac_redo.thisRepN,vts_prac_redo.thisTrialN,vts_prac_redo.thisN,vts_prac_redo.thisIndex,vts_practice_trials.thisRepN,vts_practice_trials.thisTrialN,vts_practice_trials.thisN,vts_practice_trials.thisIndex,trials_norew.thisRepN,trials_norew.thisTrialN,trials_norew.thisN,trials_norew.thisIndex,block.thisRepN,block.thisTrialN,block.thisN,block.thisIndex,trials_rew.thisRepN,trials_rew.thisTrialN,trials_rew.thisN,trials_rew.thisIndex,key_resp.started,key_resp.keys,key_resp.rt,left_circle.started,right_circle.started,left_triangle.started,right_triangle.started,left_star.started,right_star.started,left_hexagon.started,right_hexagon.started,training_fix.started,training_resp.started,training_resp.keys,training_resp.rt,points_trial,points_cumul,trainBlock,training_feedback_txt.started,fix.started,training_feedback_txt.stopped,curr_topStim,curr_bottStim,curr_shape,ISI.started,tgt_fix_prac1.started,top_target_prac1.started,bott_target_prac1.started,target_resp_prac1.started,acc,E1,target_resp_prac1.keys,target_resp_prac1.rt,pracBlock,prac_fback_text.started,prac_fback_text.stopped,tgt_fix_prac2.started,top_target_prac2.started,bott_target_prac2.started,target_resp_prac2.started,target_resp_prac2.keys,target_resp_prac2.rt,top_target_prac2.stopped,tgt_fix_prac2.stopped,bott_target_prac2.stopped,target_resp_prac2.stopped,fix.stopped,star.started,hegagon.started,triangle.started,circle.started,star.stopped,hegagon.stopped,triangle.stopped,circle.stopped,top_target.started,tgt_fix.started,bot_target.started,target_resp.started,top_target.stopped,tgt_fix.stopped,bot_target.stopped,target_resp.stopped,alt,task,condition,target_resp.keys,rewCond,vts_fback.started,vts_fback.stopped,target_resp.rt,blockNum,norew_fback.started,norew_fback.stopped,key_resp_2.keys,key_resp_2.rt,rewExpectancy,feedbk_text.started,feedbk_text.stopped,text_3.started,debrief.started,text_3.stopped,button.started,participant,date,expName,psychopyVersion,frameRate,
,,,,,,,,,,,,,,,,,,,,,,,,,,,,,,,,,,,,,,,,,,,,,,,,,,,,,,206.51259852398653,space,21.51745482601109,,,,,,,,,,,,,,,,,,,,,,,,,,,,,,,,,,,,,,,,,,,,,,,,,,,,,,,,,,,,,,,,,,,,,,,,,,,,,,,,,22349,2022-11-11_14h55.54.570,vts_reward_expectancy_bt_OFFLINE,2022.2.4,59.92196243070936,
0,0,0,1,1,0,0,0,star,triangle,0,0,0,0,0,0,0,9,,,,,,,,,,,,,,,,,,,,,,,,,,,,,,,,,,,,,,,,284.0026678490103,284.0026678490103,284.0026678490103,284.0026678490103,284.0026678490103,284.0026678490103,284.0026678490103,284.0026678490103,284.0026678490103,284.0026678490103,a,2.76647499401588,1,1,0,286.7861535240081,288.28789438700187,,,,,,,,,,,,,,,,,,,,,,,,,,,,,,,,,,,,,,,,,,,,,,,,,,,,,,,,,,,,,,,,22349,2022-11-11_14h55.54.570,vts_reward_expectancy_bt_OFFLINE,2022.2.4,59.92196243070936,
0,1,0,0,1,0,0,0,circle,triangle,0,0,0,0,0,1,1,3,,,,,,,,,,,,,,,,,,,,,,,,,,,,,,,,,,,,,,,,288.7884559929953,288.7884559929953,288.7884559929953,288.7884559929953,288.7884559929953,288.7884559929953,288.7884559929953,288.7884559929953,288.7884559929953,288.7884559929953,l,1.3432085220119916,10,11,0,290.1566589270078,291.65822517999914,,,,,,,,,,,,,,,,,,,,,,,,,,,,,,,,,,,,,,,,,,,,,,,,,,,,,,,,,,,,,,,,22349,2022-11-11_14h55.54.570,vts_reward_expectancy_bt_OFFLINE,2022.2.4,59.92196243070936,
1,0,0,0,0,0,1,0,triangle,hexagon,0,0,0,0,0,2,2,1,,,,,,,,,,,,,,,,,,,,,,,,,,,,,,,,,,,,,,,,292.15882925500046,292.15882925500046,292.15882925500046,292.15882925500046,292.15882925500046,292.15882925500046,292.15882925500046,292.15882925500046,292.15882925500046,292.15882925500046,l,2.271120510005858,1,12,0,294.46129021199886,295.96298220800236,,,,,,,,,,,,,,,,,,,,,,,,,,,,,,,,,,,,,,,,,,,,,,,,,,,,,,,,,,,,,,,,22349,2022-11-11_14h55.54.570,vts_reward_expectancy_bt_OFFLINE,2022.2.4,59.92196243070936,
0,0,0,1,0,0,1,0,star,hexagon,0,0,0,0,0,3,3,11,,,,,,,,,,,,,,,,,,,,,,,,,,,,,,,,,,,,,,,,296.4635584699863,296.4635584699863,296.4635584699863,296.4635584699863,296.4635584699863,296.4635584699863,296.4635584699863,296.4635584699863,296.4635584699863,296.4635584699863,l,8.418679559981683,10,22,0,304.9061781830096,306.4079308559885,,,,,,,,,,,,,,,,,,,,,,,,,,,,,,,,,,,,,,,,,,,,,,,,,,,,,,,,,,,,,,,,22349,2022-11-11_14h55.54.570,vts_reward_expectancy_bt_OFFLINE,2022.2.4,59.92196243070936,
0,1,0,0,0,0,0,1,circle,star,0,0,0,0,0,4,4,5,,,,,,,,,,,,,,,,,,,,,,,,,,,,,,,,,,,,,,,,306.90859124000417,306.90859124000417,306.90859124000417,306.90859124000417,306.90859124000417,306.90859124000417,306.90859124000417,306.90859124000417,306.90859124000417,306.90859124000417,a,2.3034324850013945,1,23,0,309.24431300300057,310.7459448449954,,,,,,,,,,,,,,,,,,,,,,,,,,,,,,,,,,,,,,,,,,,,,,,,,,,,,,,,,,,,,,,,22349,2022-11-11_14h55.54.570,vts_reward_expectancy_bt_OFFLINE,2022.2.4,59.92196243070936,
0,0,0,1,0,1,0,0,star ,circle,0,0,0,0,0,5,5,10,,,,,,,,,,,,,,,,,,,,,,,,,,,,,,,,,,,,,,,,311.2464636549994,311.2464636549994,311.2464636549994,311.2464636549994,311.2464636549994,311.2464636549994,311.2464636549994,311.2464636549994,311.2464636549994,311.2464636549994,a,2.1958099259936716,1,24,0,313.4656810919987,314.9672659430071,,,,,,,,,,,,,,,,,,,,,,,,,,,,,,,,,,,,,,,,,,,,,,,,,,,,,,,,,,,,,,,,22349,2022-11-11_14h55.54.570,vts_reward_expectancy_bt_OFFLINE,2022.2.4,59.92196243070936,
0,0,1,0,0,1,0,0,hexagon,circle,0,0,0,0,0,6,6,7,,,,,,,,,,,,,,,,,,,,,,,,,,,,,,,,,,,,,,,,315.46784129799926,315.46784129799926,315.46784129799926,315.46784129799926,315.46784129799926,315.46784129799926,315.46784129799926,315.46784129799926,315.46784129799926,315.46784129799926,l,2.993288091995055,1,25,0,318.48791067200364,319.98949225299293,,,,,,,,,,,,,,,,,,,,,,,,,,,,,,,,,,,,,,,,,,,,,,,,,,,,,,,,,,,,,,,,22349,2022-11-11_14h55.54.570,vts_reward_expectancy_bt_OFFLINE,2022.2.4,59.92196243070936,
1,0,0,0,0,0,0,1,triangle,star,0,0,0,0,0,7,7,2,,,,,,,,,,,,,,,,,,,,,,,,,,,,,,,,,,,,,,,,320.49014157798956,320.49014157798956,320.49014157798956,320.49014157798956,320.49014157798956,320.49014157798956,320.49014157798956,320.49014157798956,320.49014157798956,320.49014157798956,a,1.2888823579996824,10,35,0,321.808044623991,323.30984057998285,,,,,,,,,,,,,,,,,,,,,,,,,,,,,,,,,,,,,,,,,,,,,,,,,,,,,,,,,,,,,,,,22349,2022-11-11_14h55.54.570,vts_reward_expectancy_bt_OFFLINE,2022.2.4,59.92196243070936,
0,1,0,0,0,0,1,0,circle,hexagon,0,0,0,0,0,8,8,4,,,,,,,,,,,,,,,,,,,,,,,,,,,,,,,,,,,,,,,,323.81014488998335,323.81014488998335,323.81014488998335,323.81014488998335,323.81014488998335,323.81014488998335,323.81014488998335,323.81014488998335,323.81014488998335,323.81014488998335,l,1.02860616001999,10,45,0,324.86121736699715,326.36330096400343,,,,,,,,,,,,,,,,,,,,,,,,,,,,,,,,,,,,,,,,,,,,,,,,,,,,,,,,,,,,,,,,22349,2022-11-11_14h55.54.570,vts_reward_expectancy_bt_OFFLINE,2022.2.4,59.92196243070936,
0,0,1,0,1,0,0,0,hexagon,triangle,0,0,0,0,0,9,9,6,,,,,,,,,,,,,,,,,,,,,,,,,,,,,,,,,,,,,,,,326.8638877499907,326.8638877499907,326.8638877499907,326.8638877499907,326.8638877499907,326.8638877499907,326.8638877499907,326.8638877499907,326.8638877499907,326.8638877499907,a,1.001531799993245,1,46,0,327.89816005300963,329.3998889469949,,,,,,,,,,,,,,,,,,,,,,,,,,,,,,,,,,,,,,,,,,,,,,,,,,,,,,,,,,,,,,,,22349,2022-11-11_14h55.54.570,vts_reward_expectancy_bt_OFFLINE,2022.2.4,59.92196243070936,
0,0,1,0,0,0,0,1,hexagon,star,0,0,0,0,0,10,10,8,,,,,,,,,,,,,,,,,,,,,,,,,,,,,,,,,,,,,,,,329.900495984999,329.900495984999,329.900495984999,329.900495984999,329.900495984999,329.900495984999,329.900495984999,329.900495984999,329.900495984999,329.900495984999,l,2.5891387430019677,1,47,0,332.5198868289881,334.02153598400764,,,,,,,,,,,,,,,,,,,,,,,,,,,,,,,,,,,,,,,,,,,,,,,,,,,,,,,,,,,,,,,,22349,2022-11-11_14h55.54.570,vts_reward_expectancy_bt_OFFLINE,2022.2.4,59.92196243070936,
1,0,0,0,0,1,0,0,triangle,circle,0,0,0,0,0,11,11,0,,,,,,,,,,,,,,,,,,,,,,,,,,,,,,,,,,,,,,,,334.5222796309972,334.5222796309972,334.5222796309972,334.5222796309972,334.5222796309972,334.5222796309972,334.5222796309972,334.5222796309972,334.5222796309972,334.5222796309972,a,1.3527305040042847,1,48,0,335.9072346559842,337.40879451698856,,,,,,,,,,,,,,,,,,,,,,,,,,,,,,,,,,,,,,,,,,,,,,,,,,,,,,,,,,,,,,,,22349,2022-11-11_14h55.54.570,vts_reward_expectancy_bt_OFFLINE,2022.2.4,59.92196243070936,
0,0,0,1,1,0,0,0,star,triangle,0,0,0,0,1,0,12,9,,,,,,,,,,,,,,,,,,,,,,,,,,,,,,,,,,,,,,,,337.90940506299376,337.90940506299376,337.90940506299376,337.90940506299376,337.90940506299376,337.90940506299376,337.90940506299376,337.90940506299376,337.90940506299376,337.90940506299376,l,2.433346632984467,1,49,0,340.36216708199936,341.86359031300526,,,,,,,,,,,,,,,,,,,,,,,,,,,,,,,,,,,,,,,,,,,,,,,,,,,,,,,,,,,,,,,,22349,2022-11-11_14h55.54.570,vts_reward_expectancy_bt_OFFLINE,2022.2.4,59.92196243070936,
0,1,0,0,1,0,0,0,circle,triangle,0,0,0,0,1,1,13,3,,,,,,,,,,,,,,,,,,,,,,,,,,,,,,,,,,,,,,,,342.364220568008,342.364220568008,342.364220568008,342.364220568008,342.364220568008,342.364220568008,342.364220568008,342.364220568008,342.364220568008,342.364220568008,l,1.9709562379866838,10,59,0,344.3663409919827,345.86804006100283,,,,,,,,,,,,,,,,,,,,,,,,,,,,,,,,,,,,,,,,,,,,,,,,,,,,,,,,,,,,,,,,22349,2022-11-11_14h55.54.570,vts_reward_expectancy_bt_OFFLINE,2022.2.4,59.92196243070936,
0,0,1,0,0,1,0,0,hexagon,circle,0,0,0,0,1,2,14,7,,,,,,,,,,,,,,,,,,,,,,,,,,,,,,,,,,,,,,,,346.3686139950005,346.3686139950005,346.3686139950005,346.3686139950005,346.3686139950005,346.3686139950005,346.3686139950005,346.3686139950005,346.3686139950005,346.3686139950005,a,2.018631099985214,10,69,0,348.4041519089951,349.90570961200865,,,,,,,,,,,,,,,,,,,,,,,,,,,,,,,,,,,,,,,,,,,,,,,,,,,,,,,,,,,,,,,,22349,2022-11-11_14h55.54.570,vts_reward_expectancy_bt_OFFLINE,2022.2.4,59.92196243070936,
1,0,0,0,0,0,0,1,triangle,star,0,0,0,0,1,3,15,2,,,,,,,,,,,,,,,,,,,,,,,,,,,,,,,,,,,,,,,,350.4064225080074,350.4064225080074,350.4064225080074,350.4064225080074,350.4064225080074,350.4064225080074,350.4064225080074,350.4064225080074,350.4064225080074,350.4064225080074,a,2.2430354449898005,10,79,0,352.67547255099635,354.1771558430046,,,,,,,,,,,,,,,,,,,,,,,,,,,,,,,,,,,,,,,,,,,,,,,,,,,,,,,,,,,,,,,,22349,2022-11-11_14h55.54.570,vts_reward_expectancy_bt_OFFLINE,2022.2.4,59.92196243070936,
0,1,0,0,0,0,0,1,circle,star,0,0,0,0,1,4,16,5,,,,,,,,,,,,,,,,,,,,,,,,,,,,,,,,,,,,,,,,354.677611608,354.677611608,354.677611608,354.677611608,354.677611608,354.677611608,354.677611608,354.677611608,354.677611608,354.677611608,a,2.3486760439991485,1,80,0,357.04709214300965,358.54888154100627,,,,,,,,,,,,,,,,,,,,,,,,,,,,,,,,,,,,,,,,,,,,,,,,,,,,,,,,,,,,,,,,22349,2022-11-11_14h55.54.570,vts_reward_expectancy_bt_OFFLINE,2022.2.4,59.92196243070936,
0,0,1,0,1,0,0,0,hexagon,triangle,0,0,0,0,1,5,17,6,,,,,,,,,,,,,,,,,,,,,,,,,,,,,,,,,,,,,,,,359.049221157009,359.049221157009,359.049221157009,359.049221157009,359.049221157009,359.049221157009,359.049221157009,359.049221157009,359.049221157009,359.049221157009,l,2.826340891973814,1,81,0,361.9022849909961,363.4039964840049,,,,,,,,,,,,,,,,,,,,,,,,,,,,,,,,,,,,,,,,,,,,,,,,,,,,,,,,,,,,,,,,22349,2022-11-11_14h55.54.570,vts_reward_expectancy_bt_OFFLINE,2022.2.4,59.92196243070936,
1,0,0,0,0,0,1,0,triangle,hexagon,0,0,0,0,1,6,18,1,,,,,,,,,,,,,,,,,,,,,,,,,,,,,,,,,,,,,,,,363.9046423670079,363.9046423670079,363.9046423670079,363.9046423670079,363.9046423670079,363.9046423670079,363.9046423670079,363.9046423670079,363.9046423670079,363.9046423670079,a,1.3793741679983214,10,91,0,365.3062709890073,366.8078206869832,,,,,,,,,,,,,,,,,,,,,,,,,,,,,,,,,,,,,,,,,,,,,,,,,,,,,,,,,,,,,,,,22349,2022-11-11_14h55.54.570,vts_reward_expectancy_bt_OFFLINE,2022.2.4,59.92196243070936,
1,0,0,0,0,1,0,0,triangle,circle,0,0,0,0,1,7,19,0,,,,,,,,,,,,,,,,,,,,,,,,,,,,,,,,,,,,,,,,367.30827542298357,367.30827542298357,367.30827542298357,367.30827542298357,367.30827542298357,367.30827542298357,367.30827542298357,367.30827542298357,367.30827542298357,367.30827542298357,a,2.128207614994608,10,101,0,369.4606923520041,370.9621778279834,,,,,,,,,,,,,,,,,,,,,,,,,,,,,,,,,,,,,,,,,,,,,,,,,,,,,,,,,,,,,,,,22349,2022-11-11_14h55.54.570,vts_reward_expectancy_bt_OFFLINE,2022.2.4,59.92196243070936,
0,1,0,0,0,0,1,0,circle,hexagon,0,0,0,0,1,8,20,4,,,,,,,,,,,,,,,,,,,,,,,,,,,,,,,,,,,,,,,,371.46305216499604,371.46305216499604,371.46305216499604,371.46305216499604,371.46305216499604,371.46305216499604,371.46305216499604,371.46305216499604,371.46305216499604,371.46305216499604,a,2.4959855749912094,10,111,0,373.98248677299125,375.4840308119892,,,,,,,,,,,,,,,,,,,,,,,,,,,,,,,,,,,,,,,,,,,,,,,,,,,,,,,,,,,,,,,,22349,2022-11-11_14h55.54.570,vts_reward_expectancy_bt_OFFLINE,2022.2.4,59.92196243070936,
0,0,0,1,0,1,0,0,star ,circle,0,0,0,0,1,9,21,10,,,,,,,,,,,,,,,,,,,,,,,,,,,,,,,,,,,,,,,,375.98462835498503,375.98462835498503,375.98462835498503,375.98462835498503,375.98462835498503,375.98462835498503,375.98462835498503,375.98462835498503,375.98462835498503,375.98462835498503,a,1.8676703950040974,10,121,0,377.87013939899043,379.37174064299325,,,,,,,,,,,,,,,,,,,,,,,,,,,,,,,,,,,,,,,,,,,,,,,,,,,,,,,,,,,,,,,,22349,2022-11-11_14h55.54.570,vts_reward_expectancy_bt_OFFLINE,2022.2.4,59.92196243070936,
0,0,0,1,0,0,1,0,star,hexagon,0,0,0,0,1,10,22,11,,,,,,,,,,,,,,,,,,,,,,,,,,,,,,,,,,,,,,,,379.8723295890086,379.8723295890086,379.8723295890086,379.8723295890086,379.8723295890086,379.8723295890086,379.8723295890086,379.8723295890086,379.8723295890086,379.8723295890086,l,1.095332541008247,10,131,0,380.9905339239922,382.49186288999044,,,,,,,,,,,,,,,,,,,,,,,,,,,,,,,,,,,,,,,,,,,,,,,,,,,,,,,,,,,,,,,,22349,2022-11-11_14h55.54.570,vts_reward_expectancy_bt_OFFLINE,2022.2.4,59.92196243070936,
0,0,1,0,0,0,0,1,hexagon,star,0,0,0,0,1,11,23,8,,,,,,,,,,,,,,,,,,,,,,,,,,,,,,,,,,,,,,,,382.992286763998,382.992286763998,382.992286763998,382.992286763998,382.992286763998,382.992286763998,382.992286763998,382.992286763998,382.992286763998,382.992286763998,l,2.576262957009021,1,132,0,385.5950752919889,387.0969329350046,,,,,,,,,,,,,,,,,,,,,,,,,,,,,,,,,,,,,,,,,,,,,,,,,,,,,,,,,,,,,,,,22349,2022-11-11_14h55.54.570,vts_reward_expectancy_bt_OFFLINE,2022.2.4,59.92196243070936,
1,0,0,0,0,0,1,0,triangle,hexagon,0,0,0,0,2,0,24,1,,,,,,,,,,,,,,,,,,,,,,,,,,,,,,,,,,,,,,,,387.5973955949885,387.5973955949885,387.5973955949885,387.5973955949885,387.5973955949885,387.5973955949885,387.5973955949885,387.5973955949885,387.5973955949885,387.5973955949885,l,0.9523197289963719,10,142,0,388.582012681989,390.0834217219963,,,,,,,,,,,,,,,,,,,,,,,,,,,,,,,,,,,,,,,,,,,,,,,,,,,,,,,,,,,,,,,,22349,2022-11-11_14h55.54.570,vts_reward_expectancy_bt_OFFLINE,2022.2.4,59.92196243070936,
0,0,1,0,0,0,0,1,hexagon,star,0,0,0,0,2,1,25,8,,,,,,,,,,,,,,,,,,,,,,,,,,,,,,,,,,,,,,,,390.5839769919985,390.5839769919985,390.5839769919985,390.5839769919985,390.5839769919985,390.5839769919985,390.5839769919985,390.5839769919985,390.5839769919985,390.5839769919985,a,1.5342691449914128,1,143,0,392.13570379299927,393.63724447600543,,,,,,,,,,,,,,,,,,,,,,,,,,,,,,,,,,,,,,,,,,,,,,,,,,,,,,,,,,,,,,,,22349,2022-11-11_14h55.54.570,vts_reward_expectancy_bt_OFFLINE,2022.2.4,59.92196243070936,
0,0,0,1,1,0,0,0,star,triangle,0,0,0,0,2,2,26,9,,,,,,,,,,,,,,,,,,,,,,,,,,,,,,,,,,,,,,,,394.1379775250098,394.1379775250098,394.1379775250098,394.1379775250098,394.1379775250098,394.1379775250098,394.1379775250098,394.1379775250098,394.1379775250098,394.1379775250098,l,2.6706396309891716,10,153,0,396.84091258299304,398.34256093998556,,,,,,,,,,,,,,,,,,,,,,,,,,,,,,,,,,,,,,,,,,,,,,,,,,,,,,,,,,,,,,,,22349,2022-11-11_14h55.54.570,vts_reward_expectancy_bt_OFFLINE,2022.2.4,59.92196243070936,
0,0,0,1,0,1,0,0,star ,circle,0,0,0,0,2,3,27,10,,,,,,,,,,,,,,,,,,,,,,,,,,,,,,,,,,,,,,,,398.843240674003,398.843240674003,398.843240674003,398.843240674003,398.843240674003,398.843240674003,398.843240674003,398.843240674003,398.843240674003,398.843240674003,l,1.2509981179900933,1,154,0,400.1112200960051,401.61276271700626,,,,,,,,,,,,,,,,,,,,,,,,,,,,,,,,,,,,,,,,,,,,,,,,,,,,,,,,,,,,,,,,22349,2022-11-11_14h55.54.570,vts_reward_expectancy_bt_OFFLINE,2022.2.4,59.92196243070936,
0,0,1,0,1,0,0,0,hexagon,triangle,0,0,0,0,2,4,28,6,,,,,,,,,,,,,,,,,,,,,,,,,,,,,,,,,,,,,,,,402.11369299099897,402.11369299099897,402.11369299099897,402.11369299099897,402.11369299099897,402.11369299099897,402.11369299099897,402.11369299099897,402.11369299099897,402.11369299099897,a,0.7685794679855462,10,164,0,402.91427548299544,404.41597995898337,,,,,,,,,,,,,,,,,,,,,,,,,,,,,,,,,,,,,,,,,,,,,,,,,,,,,,,,,,,,,,,,22349,2022-11-11_14h55.54.570,vts_reward_expectancy_bt_OFFLINE,2022.2.4,59.92196243070936,
0,0,0,1,0,0,1,0,star,hexagon,0,0,0,0,2,5,29,11,,,,,,,,,,,,,,,,,,,,,,,,,,,,,,,,,,,,,,,,404.9166517010017,404.9166517010017,404.9166517010017,404.9166517010017,404.9166517010017,404.9166517010017,404.9166517010017,404.9166517010017,404.9166517010017,404.9166517010017,l,0.7112361410108861,10,174,0,405.6505915989983,407.1523593410093,,,,,,,,,,,,,,,,,,,,,,,,,,,,,,,,,,,,,,,,,,,,,,,,,,,,,,,,,,,,,,,,22349,2022-11-11_14h55.54.570,vts_reward_expectancy_bt_OFFLINE,2022.2.4,59.92196243070936,
1,0,0,0,0,0,0,1,triangle,star,0,0,0,0,2,6,30,2,,,,,,,,,,,,,,,,,,,,,,,,,,,,,,,,,,,,,,,,407.65336660598405,407.65336660598405,407.65336660598405,407.65336660598405,407.65336660598405,407.65336660598405,407.65336660598405,407.65336660598405,407.65336660598405,407.65336660598405,a,0.6178748589882161,10,184,0,408.30352715199115,409.80524957500165,,,,,,,,,,,,,,,,,,,,,,,,,,,,,,,,,,,,,,,,,,,,,,,,,,,,,,,,,,,,,,,,22349,2022-11-11_14h55.54.570,vts_reward_expectancy_bt_OFFLINE,2022.2.4,59.92196243070936,
0,1,0,0,0,0,1,0,circle,hexagon,0,0,0,0,2,7,31,4,,,,,,,,,,,,,,,,,,,,,,,,,,,,,,,,,,,,,,,,410.3058301160054,410.3058301160054,410.3058301160054,410.3058301160054,410.3058301160054,410.3058301160054,410.3058301160054,410.3058301160054,410.3058301160054,410.3058301160054,l,1.3627980760065839,10,194,0,411.6907789289835,413.1923882300034,,,,,,,,,,,,,,,,,,,,,,,,,,,,,,,,,,,,,,,,,,,,,,,,,,,,,,,,,,,,,,,,22349,2022-11-11_14h55.54.570,vts_reward_expectancy_bt_OFFLINE,2022.2.4,59.92196243070936,
0,1,0,0,0,0,0,1,circle,star,0,0,0,0,2,8,32,5,,,,,,,,,,,,,,,,,,,,,,,,,,,,,,,,,,,,,,,,413.69286750399624,413.69286750399624,413.69286750399624,413.69286750399624,413.69286750399624,413.69286750399624,413.69286750399624,413.69286750399624,413.69286750399624,413.69286750399624,a,0.6887518700095825,1,195,0,414.4102625589876,415.9120243259822,,,,,,,,,,,,,,,,,,,,,,,,,,,,,,,,,,,,,,,,,,,,,,,,,,,,,,,,,,,,,,,,22349,2022-11-11_14h55.54.570,vts_reward_expectancy_bt_OFFLINE,2022.2.4,59.92196243070936,
1,0,0,0,0,1,0,0,triangle,circle,0,0,0,0,2,9,33,0,,,,,,,,,,,,,,,,,,,,,,,,,,,,,,,,,,,,,,,,416.4125457209884,416.4125457209884,416.4125457209884,416.4125457209884,416.4125457209884,416.4125457209884,416.4125457209884,416.4125457209884,416.4125457209884,416.4125457209884,a,1.961743072984973,10,205,0,418.3980997620092,419.8999754849938,,,,,,,,,,,,,,,,,,,,,,,,,,,,,,,,,,,,,,,,,,,,,,,,,,,,,,,,,,,,,,,,22349,2022-11-11_14h55.54.570,vts_reward_expectancy_bt_OFFLINE,2022.2.4,59.92196243070936,
0,1,0,0,1,0,0,0,circle,triangle,0,0,0,0,2,10,34,3,,,,,,,,,,,,,,,,,,,,,,,,,,,,,,,,,,,,,,,,420.4001555409923,420.4001555409923,420.4001555409923,420.4001555409923,420.4001555409923,420.4001555409923,420.4001555409923,420.4001555409923,420.4001555409923,420.4001555409923,a,1.8678681640012655,1,206,0,422.285741951986,423.7872870019928,,,,,,,,,,,,,,,,,,,,,,,,,,,,,,,,,,,,,,,,,,,,,,,,,,,,,,,,,,,,,,,,22349,2022-11-11_14h55.54.570,vts_reward_expectancy_bt_OFFLINE,2022.2.4,59.92196243070936,
0,0,1,0,0,1,0,0,hexagon,circle,0,0,0,0,2,11,35,7,,,,,,,,,,,,,,,,,,,,,,,,,,,,,,,,,,,,,,,,424.2879717529868,424.2879717529868,424.2879717529868,424.2879717529868,424.2879717529868,424.2879717529868,424.2879717529868,424.2879717529868,424.2879717529868,424.2879717529868,l,0.6448698199819773,1,207,0,424.9555384439882,426.4570890410105,,,,,,,,,,,,,,,,,,,,,,,,,,,,,,,,,,,,,,,,,,,,,,,,,,,,,,,,,,,,,,,,22349,2022-11-11_14h55.54.570,vts_reward_expectancy_bt_OFFLINE,2022.2.4,59.92196243070936,
0,1,0,0,0,0,0,1,circle,star,0,0,0,0,3,0,36,5,,,,,,,,,,,,,,,,,,,,,,,,,,,,,,,,,,,,,,,,426.95745187898865,426.95745187898865,426.95745187898865,426.95745187898865,426.95745187898865,426.95745187898865,426.95745187898865,426.95745187898865,426.95745187898865,426.95745187898865,a,0.5635036239982583,10,217,0,427.54153304800275,429.0432087839872,,,,,,,,,,,,,,,,,,,,,,,,,,,,,,,,,,,,,,,,,,,,,,,,,,,,,,,,,,,,,,,,22349,2022-11-11_14h55.54.570,vts_reward_expectancy_bt_OFFLINE,2022.2.4,59.92196243070936,
1,0,0,0,0,0,0,1,triangle,star,0,0,0,0,3,1,37,2,,,,,,,,,,,,,,,,,,,,,,,,,,,,,,,,,,,,,,,,429.5442117470084,429.5442117470084,429.5442117470084,429.5442117470084,429.5442117470084,429.5442117470084,429.5442117470084,429.5442117470084,429.5442117470084,429.5442117470084,a,1.5673866359866224,10,227,0,431.12894299198524,432.63042857000255,,,,,,,,,,,,,,,,,,,,,,,,,,,,,,,,,,,,,,,,,,,,,,,,,,,,,,,,,,,,,,,,22349,2022-11-11_14h55.54.570,vts_reward_expectancy_bt_OFFLINE,2022.2.4,59.92196243070936,
0,0,0,1,1,0,0,0,star,triangle,0,0,0,0,3,2,38,9,,,,,,,,,,,,,,,,,,,,,,,,,,,,,,,,,,,,,,,,433.1309789750085,433.1309789750085,433.1309789750085,433.1309789750085,433.1309789750085,433.1309789750085,433.1309789750085,433.1309789750085,433.1309789750085,433.1309789750085,l,0.8252087710134219,10,237,0,433.98204837201047,435.4840343859978,,,,,,,,,,,,,,,,,,,,,,,,,,,,,,,,,,,,,,,,,,,,,,,,,,,,,,,,,,,,,,,,22349,2022-11-11_14h55.54.570,vts_reward_expectancy_bt_OFFLINE,2022.2.4,59.92196243070936,
0,1,0,0,0,0,1,0,circle,hexagon,0,0,0,0,3,3,39,4,,,,,,,,,,,,,,,,,,,,,,,,,,,,,,,,,,,,,,,,435.98412202700274,435.98412202700274,435.98412202700274,435.98412202700274,435.98412202700274,435.98412202700274,435.98412202700274,435.98412202700274,435.98412202700274,435.98412202700274,a,2.8539717770181596,10,247,0,438.8705894440063,440.3722743320104,,,,,,,,,,,,,,,,,,,,,,,,,,,,,,,,,,,,,,,,,,,,,,,,,,,,,,,,,,,,,,,,22349,2022-11-11_14h55.54.570,vts_reward_expectancy_bt_OFFLINE,2022.2.4,59.92196243070936,
0,1,0,0,1,0,0,0,circle,triangle,0,0,0,0,3,4,40,3,,,,,,,,,,,,,,,,,,,,,,,,,,,,,,,,,,,,,,,,440.8728583409975,440.8728583409975,440.8728583409975,440.8728583409975,440.8728583409975,440.8728583409975,440.8728583409975,440.8728583409975,440.8728583409975,440.8728583409975,l,0.7443956330243964,10,257,0,441.6401829159877,443.1419194919872,,,,,,,,,,,,,,,,,,,,,,,,,,,,,,,,,,,,,,,,,,,,,,,,,,,,,,,,,,,,,,,,22349,2022-11-11_14h55.54.570,vts_reward_expectancy_bt_OFFLINE,2022.2.4,59.92196243070936,
0,0,1,0,1,0,0,0,hexagon,triangle,0,0,0,0,3,5,41,6,,,,,,,,,,,,,,,,,,,,,,,,,,,,,,,,,,,,,,,,443.6424277240003,443.6424277240003,443.6424277240003,443.6424277240003,443.6424277240003,443.6424277240003,443.6424277240003,443.6424277240003,443.6424277240003,443.6424277240003,l,0.47361806401750073,1,258,0,444.14290698600234,445.6445592629898,,,,,,,,,,,,,,,,,,,,,,,,,,,,,,,,,,,,,,,,,,,,,,,,,,,,,,,,,,,,,,,,22349,2022-11-11_14h55.54.570,vts_reward_expectancy_bt_OFFLINE,2022.2.4,59.92196243070936,
0,0,0,1,0,1,0,0,star ,circle,0,0,0,0,3,6,42,10,,,,,,,,,,,,,,,,,,,,,,,,,,,,,,,,,,,,,,,,446.1454176119878,446.1454176119878,446.1454176119878,446.1454176119878,446.1454176119878,446.1454176119878,446.1454176119878,446.1454176119878,446.1454176119878,446.1454176119878,l,4.21438273700187,1,259,0,450.38324026498594,451.8849700290011,,,,,,,,,,,,,,,,,,,,,,,,,,,,,,,,,,,,,,,,,,,,,,,,,,,,,,,,,,,,,,,,22349,2022-11-11_14h55.54.570,vts_reward_expectancy_bt_OFFLINE,2022.2.4,59.92196243070936,
0,0,1,0,0,0,0,1,hexagon,star,0,0,0,0,3,7,43,8,,,,,,,,,,,,,,,,,,,,,,,,,,,,,,,,,,,,,,,,452.3855010099942,452.3855010099942,452.3855010099942,452.3855010099942,452.3855010099942,452.3855010099942,452.3855010099942,452.3855010099942,452.3855010099942,452.3855010099942,a,1.225265984016005,1,260,0,453.637029607984,455.1385159979982,,,,,,,,,,,,,,,,,,,,,,,,,,,,,,,,,,,,,,,,,,,,,,,,,,,,,,,,,,,,,,,,22349,2022-11-11_14h55.54.570,vts_reward_expectancy_bt_OFFLINE,2022.2.4,59.92196243070936,
1,0,0,0,0,1,0,0,triangle,circle,0,0,0,0,3,8,44,0,,,,,,,,,,,,,,,,,,,,,,,,,,,,,,,,,,,,,,,,455.6392561419925,455.6392561419925,455.6392561419925,455.6392561419925,455.6392561419925,455.6392561419925,455.6392561419925,455.6392561419925,455.6392561419925,455.6392561419925,a,2.5852434870030265,10,270,0,458.2420096269925,459.7436238549999,,,,,,,,,,,,,,,,,,,,,,,,,,,,,,,,,,,,,,,,,,,,,,,,,,,,,,,,,,,,,,,,22349,2022-11-11_14h55.54.570,vts_reward_expectancy_bt_OFFLINE,2022.2.4,59.92196243070936,
0,0,1,0,0,1,0,0,hexagon,circle,0,0,0,0,3,9,45,7,,,,,,,,,,,,,,,,,,,,,,,,,,,,,,,,,,,,,,,,460.24421110900585,460.24421110900585,460.24421110900585,460.24421110900585,460.24421110900585,460.24421110900585,460.24421110900585,460.24421110900585,460.24421110900585,460.24421110900585,a,0.9370939009822905,10,280,0,461.2124605719873,462.7135372420016,,,,,,,,,,,,,,,,,,,,,,,,,,,,,,,,,,,,,,,,,,,,,,,,,,,,,,,,,,,,,,,,22349,2022-11-11_14h55.54.570,vts_reward_expectancy_bt_OFFLINE,2022.2.4,59.92196243070936,
0,0,0,1,0,0,1,0,star,hexagon,0,0,0,0,3,10,46,11,,,,,,,,,,,,,,,,,,,,,,,,,,,,,,,,,,,,,,,,463.2140318299935,463.2140318299935,463.2140318299935,463.2140318299935,463.2140318299935,463.2140318299935,463.2140318299935,463.2140318299935,463.2140318299935,463.2140318299935,a,1.0740190589858685,1,281,0,464.31545787499635,465.81686871600687,,,,,,,,,,,,,,,,,,,,,,,,,,,,,,,,,,,,,,,,,,,,,,,,,,,,,,,,,,,,,,,,22349,2022-11-11_14h55.54.570,vts_reward_expectancy_bt_OFFLINE,2022.2.4,59.92196243070936,
1,0,0,0,0,0,1,0,triangle,hexagon,0,0,0,0,3,11,47,1,,,,,,,,,,,,,,,,,,,,,,,,,,,,,,,,,,,,,,,,466.317562332988,466.317562332988,466.317562332988,466.317562332988,466.317562332988,466.317562332988,466.317562332988,466.317562332988,466.317562332988,466.317562332988,l,0.5903901860001497,10,291,0,466.9349504490092,468.43666352599394,,,,,,,,,,,,,,,,,,,,,,,,,,,,,,,,,,,,,,,,,,,,,,,,,,,,,,,,,,,,,,,,22349,2022-11-11_14h55.54.570,vts_reward_expectancy_bt_OFFLINE,2022.2.4,59.92196243070936,
1,0,0,0,0,1,0,0,triangle,circle,1,0,1,0,0,0,0,0,,,,,,,,,,,,,,,,,,,,,,,,,,,,,,,,,,,,,,,,477.1521405270032,477.1521405270032,477.1521405270032,477.1521405270032,477.1521405270032,477.1521405270032,477.1521405270032,477.1521405270032,477.1521405270032,477.1521405270032,a,1.8839320570114069,10,301,1,479.0650304139999,480.5671159630001,,,,,,,,,,,,,,,,,,,,,,,,,,,,,,,,,,,,,,,,,,,,,,,,,,,,,,,,,,,,,,,,22349,2022-11-11_14h55.54.570,vts_reward_expectancy_bt_OFFLINE,2022.2.4,59.92196243070936,
0,1,0,0,1,0,0,0,circle,triangle,1,0,1,0,0,1,1,3,,,,,,,,,,,,,,,,,,,,,,,,,,,,,,,,,,,,,,,,481.0672409219842,481.0672409219842,481.0672409219842,481.0672409219842,481.0672409219842,481.0672409219842,481.0672409219842,481.0672409219842,481.0672409219842,481.0672409219842,l,1.0971969869860914,10,311,1,482.18514377300744,483.68667133600684,,,,,,,,,,,,,,,,,,,,,,,,,,,,,,,,,,,,,,,,,,,,,,,,,,,,,,,,,,,,,,,,22349,2022-11-11_14h55.54.570,vts_reward_expectancy_bt_OFFLINE,2022.2.4,59.92196243070936,
0,0,1,0,0,0,0,1,hexagon,star,1,0,1,0,0,2,2,8,,,,,,,,,,,,,,,,,,,,,,,,,,,,,,,,,,,,,,,,484.18722335400525,484.18722335400525,484.18722335400525,484.18722335400525,484.18722335400525,484.18722335400525,484.18722335400525,484.18722335400525,484.18722335400525,484.18722335400525,a,1.329554216004908,10,321,1,485.5391803930106,487.0403304309875,,,,,,,,,,,,,,,,,,,,,,,,,,,,,,,,,,,,,,,,,,,,,,,,,,,,,,,,,,,,,,,,22349,2022-11-11_14h55.54.570,vts_reward_expectancy_bt_OFFLINE,2022.2.4,59.92196243070936,
0,0,1,0,1,0,0,0,hexagon,triangle,1,0,1,0,0,3,3,6,,,,,,,,,,,,,,,,,,,,,,,,,,,,,,,,,,,,,,,,487.54082824499346,487.54082824499346,487.54082824499346,487.54082824499346,487.54082824499346,487.54082824499346,487.54082824499346,487.54082824499346,487.54082824499346,487.54082824499346,l,1.7561140389880165,10,331,1,489.3261590109905,490.8279749369831,,,,,,,,,,,,,,,,,,,,,,,,,,,,,,,,,,,,,,,,,,,,,,,,,,,,,,,,,,,,,,,,22349,2022-11-11_14h55.54.570,vts_reward_expectancy_bt_OFFLINE,2022.2.4,59.92196243070936,
0,0,1,0,0,1,0,0,hexagon,circle,1,0,1,0,0,4,4,7,,,,,,,,,,,,,,,,,,,,,,,,,,,,,,,,,,,,,,,,491.3284932989918,491.3284932989918,491.3284932989918,491.3284932989918,491.3284932989918,491.3284932989918,491.3284932989918,491.3284932989918,491.3284932989918,491.3284932989918,a,1.4344069479848258,10,341,1,492.7797806329909,494.2817705649941,,,,,,,,,,,,,,,,,,,,,,,,,,,,,,,,,,,,,,,,,,,,,,,,,,,,,,,,,,,,,,,,22349,2022-11-11_14h55.54.570,vts_reward_expectancy_bt_OFFLINE,2022.2.4,59.92196243070936,
0,0,0,1,0,0,1,0,star,hexagon,1,0,1,0,0,5,5,11,,,,,,,,,,,,,,,,,,,,,,,,,,,,,,,,,,,,,,,,494.78250379199744,494.78250379199744,494.78250379199744,494.78250379199744,494.78250379199744,494.78250379199744,494.78250379199744,494.78250379199744,494.78250379199744,494.78250379199744,l,0.882807023008354,10,351,1,495.68319401599,497.18505640298827,,,,,,,,,,,,,,,,,,,,,,,,,,,,,,,,,,,,,,,,,,,,,,,,,,,,,,,,,,,,,,,,22349,2022-11-11_14h55.54.570,vts_reward_expectancy_bt_OFFLINE,2022.2.4,59.92196243070936,
0,0,0,1,0,1,0,0,star ,circle,1,0,1,0,0,6,6,10,,,,,,,,,,,,,,,,,,,,,,,,,,,,,,,,,,,,,,,,497.6856354390038,497.6856354390038,497.6856354390038,497.6856354390038,497.6856354390038,497.6856354390038,497.6856354390038,497.6856354390038,497.6856354390038,497.6856354390038,l,1.286007384012919,10,361,1,499.00411638399237,500.50523111000075,,,,,,,,,,,,,,,,,,,,,,,,,,,,,,,,,,,,,,,,,,,,,,,,,,,,,,,,,,,,,,,,22349,2022-11-11_14h55.54.570,vts_reward_expectancy_bt_OFFLINE,2022.2.4,59.92196243070936,
0,1,0,0,0,0,1,0,circle,hexagon,1,0,1,0,0,7,7,4,,,,,,,,,,,,,,,,,,,,,,,,,,,,,,,,,,,,,,,,501.006051415985,501.006051415985,501.006051415985,501.006051415985,501.006051415985,501.006051415985,501.006051415985,501.006051415985,501.006051415985,501.006051415985,l,2.926743710995652,10,371,1,503.95899969901075,505.4606340159953,,,,,,,,,,,,,,,,,,,,,,,,,,,,,,,,,,,,,,,,,,,,,,,,,,,,,,,,,,,,,,,,22349,2022-11-11_14h55.54.570,vts_reward_expectancy_bt_OFFLINE,2022.2.4,59.92196243070936,
0,1,0,0,0,0,0,1,circle,star,1,0,1,0,0,8,8,5,,,,,,,,,,,,,,,,,,,,,,,,,,,,,,,,,,,,,,,,505.96109400698333,505.96109400698333,505.96109400698333,505.96109400698333,505.96109400698333,505.96109400698333,505.96109400698333,505.96109400698333,505.96109400698333,505.96109400698333,a,1.088012066000374,10,381,1,507.07902785300394,508.58071786598885,,,,,,,,,,,,,,,,,,,,,,,,,,,,,,,,,,,,,,,,,,,,,,,,,,,,,,,,,,,,,,,,22349,2022-11-11_14h55.54.570,vts_reward_expectancy_bt_OFFLINE,2022.2.4,59.92196243070936,
1,0,0,0,0,0,1,0,triangle,hexagon,1,0,1,0,0,9,9,1,,,,,,,,,,,,,,,,,,,,,,,,,,,,,,,,,,,,,,,,509.08125124601065,509.08125124601065,509.08125124601065,509.08125124601065,509.08125124601065,509.08125124601065,509.08125124601065,509.08125124601065,509.08125124601065,509.08125124601065,l,0.9947723049845081,1,382,1,510.09895434000646,511.6008681629901,,,,,,,,,,,,,,,,,,,,,,,,,,,,,,,,,,,,,,,,,,,,,,,,,,,,,,,,,,,,,,,,22349,2022-11-11_14h55.54.570,vts_reward_expectancy_bt_OFFLINE,2022.2.4,59.92196243070936,
1,0,0,0,0,0,0,1,triangle,star,1,0,1,0,0,10,10,2,,,,,,,,,,,,,,,,,,,,,,,,,,,,,,,,,,,,,,,,512.1014197990007,512.1014197990007,512.1014197990007,512.1014197990007,512.1014197990007,512.1014197990007,512.1014197990007,512.1014197990007,512.1014197990007,512.1014197990007,a,2.0024353199987672,10,392,1,514.1203783689998,515.6220919019834,515.6220919019834,,,,,,,,,,,,,,,,,,,,,,,,,,,,,,,,,,,,,,,,,,,,,,,,,,,,,,,,,,,,,,,22349,2022-11-11_14h55.54.570,vts_reward_expectancy_bt_OFFLINE,2022.2.4,59.92196243070936,
0,0,0,1,1,0,0,0,star,triangle,1,0,1,0,0,11,11,9,,,,,,,,,,,,,,,,,,,,,,,,,,,,,,,,,,,,,,,,516.1228138669976,516.1228138669976,516.1228138669976,516.1228138669976,516.1228138669976,516.1228138669976,516.1228138669976,516.1228138669976,516.1228138669976,516.1228138669976,l,1.942184482992161,10,402,1,518.0917746039922,519.5933352349966,,,,,,,,,,,,,,,,,,,,,,,,,,,,,,,,,,,,,,,,,,,,,,,,,,,,,,,,,,,,,,,,22349,2022-11-11_14h55.54.570,vts_reward_expectancy_bt_OFFLINE,2022.2.4,59.92196243070936,
0,0,0,1,1,0,0,0,star,triangle,1,0,1,0,1,0,12,9,,,,,,,,,,,,,,,,,,,,,,,,,,,,,,,,,,,,,,,,520.0934725260013,520.0934725260013,520.0934725260013,520.0934725260013,520.0934725260013,520.0934725260013,520.0934725260013,520.0934725260013,520.0934725260013,520.0934725260013,l,1.5250415810151026,10,412,1,521.645175401005,523.1468910530093,,,,,,,,,,,,,,,,,,,,,,,,,,,,,,,,,,,,,,,,,,,,,,,,,,,,,,,,,,,,,,,,22349,2022-11-11_14h55.54.570,vts_reward_expectancy_bt_OFFLINE,2022.2.4,59.92196243070936,
0,0,0,1,0,0,1,0,star,hexagon,1,0,1,0,1,1,13,11,,,,,,,,,,,,,,,,,,,,,,,,,,,,,,,,,,,,,,,,523.6474821619922,523.6474821619922,523.6474821619922,523.6474821619922,523.6474821619922,523.6474821619922,523.6474821619922,523.6474821619922,523.6474821619922,523.6474821619922,l,3.698375321982894,1,413,1,527.3682995679846,528.8699666519824,,,,,,,,,,,,,,,,,,,,,,,,,,,,,,,,,,,,,,,,,,,,,,,,,,,,,,,,,,,,,,,,22349,2022-11-11_14h55.54.570,vts_reward_expectancy_bt_OFFLINE,2022.2.4,59.92196243070936,
1,0,0,0,0,1,0,0,triangle,circle,1,0,1,0,1,2,14,0,,,,,,,,,,,,,,,,,,,,,,,,,,,,,,,,,,,,,,,,529.3703888790042,529.3703888790042,529.3703888790042,529.3703888790042,529.3703888790042,529.3703888790042,529.3703888790042,529.3703888790042,529.3703888790042,529.3703888790042,l,3.982328452024376,1,414,1,533.3749258919852,534.8765958279837,,,,,,,,,,,,,,,,,,,,,,,,,,,,,,,,,,,,,,,,,,,,,,,,,,,,,,,,,,,,,,,,22349,2022-11-11_14h55.54.570,vts_reward_expectancy_bt_OFFLINE,2022.2.4,59.92196243070936,
0,1,0,0,0,0,0,1,circle,star,1,0,1,0,1,3,15,5,,,,,,,,,,,,,,,,,,,,,,,,,,,,,,,,,,,,,,,,535.3772359479917,535.3772359479917,535.3772359479917,535.3772359479917,535.3772359479917,535.3772359479917,535.3772359479917,535.3772359479917,535.3772359479917,535.3772359479917,a,2.668084064993309,1,415,1,538.0636332659924,539.565024571988,,,,,,,,,,,,,,,,,,,,,,,,,,,,,,,,,,,,,,,,,,,,,,,,,,,,,,,,,,,,,,,,22349,2022-11-11_14h55.54.570,vts_reward_expectancy_bt_OFFLINE,2022.2.4,59.92196243070936,
0,0,1,0,1,0,0,0,hexagon,triangle,1,0,1,0,1,4,16,6,,,,,,,,,,,,,,,,,,,,,,,,,,,,,,,,,,,,,,,,540.0656144859968,540.0656144859968,540.0656144859968,540.0656144859968,540.0656144859968,540.0656144859968,540.0656144859968,540.0656144859968,540.0656144859968,540.0656144859968,a,1.9380763059889432,10,425,1,542.0342340079951,543.5361491410004,,,,,,,,,,,,,,,,,,,,,,,,,,,,,,,,,,,,,,,,,,,,,,,,,,,,,,,,,,,,,,,,22349,2022-11-11_14h55.54.570,vts_reward_expectancy_bt_OFFLINE,2022.2.4,59.92196243070936,
0,0,0,1,0,1,0,0,star ,circle,1,0,1,0,1,5,17,10,,,,,,,,,,,,,,,,,,,,,,,,,,,,,,,,,,,,,,,,544.036447261984,544.036447261984,544.036447261984,544.036447261984,544.036447261984,544.036447261984,544.036447261984,544.036447261984,544.036447261984,544.036447261984,l,1.5686936739948578,1,426,1,545.6382567010005,547.1400608599943,,,,,,,,,,,,,,,,,,,,,,,,,,,,,,,,,,,,,,,,,,,,,,,,,,,,,,,,,,,,,,,,22349,2022-11-11_14h55.54.570,vts_reward_expectancy_bt_OFFLINE,2022.2.4,59.92196243070936,
0,0,1,0,0,0,0,1,hexagon,star,1,0,1,0,1,6,18,8,,,,,,,,,,,,,,,,,,,,,,,,,,,,,,,,,,,,,,,,547.6406238010095,547.6406238010095,547.6406238010095,547.6406238010095,547.6406238010095,547.6406238010095,547.6406238010095,547.6406238010095,547.6406238010095,547.6406238010095,l,1.2039503720006905,1,427,1,548.8752475509827,550.3770578640106,,,,,,,,,,,,,,,,,,,,,,,,,,,,,,,,,,,,,,,,,,,,,,,,,,,,,,,,,,,,,,,,22349,2022-11-11_14h55.54.570,vts_reward_expectancy_bt_OFFLINE,2022.2.4,59.92196243070936,
0,1,0,0,0,0,1,0,circle,hexagon,1,0,1,0,1,7,19,4,,,,,,,,,,,,,,,,,,,,,,,,,,,,,,,,,,,,,,,,550.8776254289842,550.8776254289842,550.8776254289842,550.8776254289842,550.8776254289842,550.8776254289842,550.8776254289842,550.8776254289842,550.8776254289842,550.8776254289842,l,1.568218042026274,10,437,1,552.4626581569901,553.9641208979883,,,,,,,,,,,,,,,,,,,,,,,,,,,,,,,,,,,,,,,,,,,,,,,,,,,,,,,,,,,,,,,,22349,2022-11-11_14h55.54.570,vts_reward_expectancy_bt_OFFLINE,2022.2.4,59.92196243070936,
1,0,0,0,0,0,1,0,triangle,hexagon,1,0,1,0,1,8,20,1,,,,,,,,,,,,,,,,,,,,,,,,,,,,,,,,,,,,,,,,554.4647803620028,554.4647803620028,554.4647803620028,554.4647803620028,554.4647803620028,554.4647803620028,554.4647803620028,554.4647803620028,554.4647803620028,554.4647803620028,l,4.303864545014221,1,438,1,558.786175346002,560.2879621610045,,,,,,,,,,,,,,,,,,,,,,,,,,,,,,,,,,,,,,,,,,,,,,,,,,,,,,,,,,,,,,,,22349,2022-11-11_14h55.54.570,vts_reward_expectancy_bt_OFFLINE,2022.2.4,59.92196243070936,
0,0,1,0,0,1,0,0,hexagon,circle,1,0,1,0,1,9,21,7,,,,,,,,,,,,,,,,,,,,,,,,,,,,,,,,,,,,,,,,560.7885389569856,560.7885389569856,560.7885389569856,560.7885389569856,560.7885389569856,560.7885389569856,560.7885389569856,560.7885389569856,560.7885389569856,560.7885389569856,a,2.095833016006509,10,448,1,562.9073457109916,564.4091933199961,,,,,,,,,,,,,,,,,,,,,,,,,,,,,,,,,,,,,,,,,,,,,,,,,,,,,,,,,,,,,,,,22349,2022-11-11_14h55.54.570,vts_reward_expectancy_bt_OFFLINE,2022.2.4,59.92196243070936,
0,1,0,0,1,0,0,0,circle,triangle,1,0,1,0,1,10,22,3,,,,,,,,,,,,,,,,,,,,,,,,,,,,,,,,,,,,,,,,564.9095461010002,564.9095461010002,564.9095461010002,564.9095461010002,564.9095461010002,564.9095461010002,564.9095461010002,564.9095461010002,564.9095461010002,564.9095461010002,l,0.49476019901339896,10,458,1,565.4268659479858,566.9285742869833,,,,,,,,,,,,,,,,,,,,,,,,,,,,,,,,,,,,,,,,,,,,,,,,,,,,,,,,,,,,,,,,22349,2022-11-11_14h55.54.570,vts_reward_expectancy_bt_OFFLINE,2022.2.4,59.92196243070936,
1,0,0,0,0,0,0,1,triangle,star,1,0,1,0,1,11,23,2,,,,,,,,,,,,,,,,,,,,,,,,,,,,,,,,,,,,,,,,567.4293383389886,567.4293383389886,567.4293383389886,567.4293383389886,567.4293383389886,567.4293383389886,567.4293383389886,567.4293383389886,567.4293383389886,567.4293383389886,a,0.5075334839930292,10,468,1,567.9630107629928,569.464798512985,,,,,,,,,,,,,,,,,,,,,,,,,,,,,,,,,,,,,,,,,,,,,,,,,,,,,,,,,,,,,,,,22349,2022-11-11_14h55.54.570,vts_reward_expectancy_bt_OFFLINE,2022.2.4,59.92196243070936,
0,0,0,1,0,0,1,0,star,hexagon,1,0,1,0,2,0,24,11,,,,,,,,,,,,,,,,,,,,,,,,,,,,,,,,,,,,,,,,569.9653598509904,569.9653598509904,569.9653598509904,569.9653598509904,569.9653598509904,569.9653598509904,569.9653598509904,569.9653598509904,569.9653598509904,569.9653598509904,l,0.39061560400296,1,469,1,570.3826144399936,571.8843326579954,,,,,,,,,,,,,,,,,,,,,,,,,,,,,,,,,,,,,,,,,,,,,,,,,,,,,,,,,,,,,,,,22349,2022-11-11_14h55.54.570,vts_reward_expectancy_bt_OFFLINE,2022.2.4,59.92196243070936,
0,1,0,0,0,0,1,0,circle,hexagon,1,0,1,0,2,1,25,4,,,,,,,,,,,,,,,,,,,,,,,,,,,,,,,,,,,,,,,,572.3844201549946,572.3844201549946,572.3844201549946,572.3844201549946,572.3844201549946,572.3844201549946,572.3844201549946,572.3844201549946,572.3844201549946,572.3844201549946,a,0.4012360989872832,1,470,1,572.8182859109947,574.3198950249935,,,,,,,,,,,,,,,,,,,,,,,,,,,,,,,,,,,,,,,,,,,,,,,,,,,,,,,,,,,,,,,,22349,2022-11-11_14h55.54.570,vts_reward_expectancy_bt_OFFLINE,2022.2.4,59.92196243070936,
0,1,0,0,0,0,0,1,circle,star,1,0,1,0,2,2,26,5,,,,,,,,,,,,,,,,,,,,,,,,,,,,,,,,,,,,,,,,574.8206429139827,574.8206429139827,574.8206429139827,574.8206429139827,574.8206429139827,574.8206429139827,574.8206429139827,574.8206429139827,574.8206429139827,574.8206429139827,l,0.95808961201692,1,471,1,575.8048326999997,577.3066350590088,,,,,,,,,,,,,,,,,,,,,,,,,,,,,,,,,,,,,,,,,,,,,,,,,,,,,,,,,,,,,,,,22349,2022-11-11_14h55.54.570,vts_reward_expectancy_bt_OFFLINE,2022.2.4,59.92196243070936,
0,0,1,0,0,1,0,0,hexagon,circle,1,0,1,0,2,3,27,7,,,,,,,,,,,,,,,,,,,,,,,,,,,,,,,,,,,,,,,,577.8072609140072,577.8072609140072,577.8072609140072,577.8072609140072,577.8072609140072,577.8072609140072,577.8072609140072,577.8072609140072,577.8072609140072,577.8072609140072,a,0.4352600900165271,10,481,1,578.274504216999,579.7760988299851,,,,,,,,,,,,,,,,,,,,,,,,,,,,,,,,,,,,,,,,,,,,,,,,,,,,,,,,,,,,,,,,22349,2022-11-11_14h55.54.570,vts_reward_expectancy_bt_OFFLINE,2022.2.4,59.92196243070936,
0,1,0,0,1,0,0,0,circle,triangle,1,0,1,0,2,4,28,3,,,,,,,,,,,,,,,,,,,,,,,,,,,,,,,,,,,,,,,,580.2768143489957,580.2768143489957,580.2768143489957,580.2768143489957,580.2768143489957,580.2768143489957,580.2768143489957,580.2768143489957,580.2768143489957,580.2768143489957,l,0.32759691300452687,10,491,1,580.6270528169989,582.1288036059996,,,,,,,,,,,,,,,,,,,,,,,,,,,,,,,,,,,,,,,,,,,,,,,,,,,,,,,,,,,,,,,,22349,2022-11-11_14h55.54.570,vts_reward_expectancy_bt_OFFLINE,2022.2.4,59.92196243070936,
0,0,0,1,1,0,0,0,star,triangle,1,0,1,0,2,5,29,9,,,,,,,,,,,,,,,,,,,,,,,,,,,,,,,,,,,,,,,,582.6292100099963,582.6292100099963,582.6292100099963,582.6292100099963,582.6292100099963,582.6292100099963,582.6292100099963,582.6292100099963,582.6292100099963,582.6292100099963,a,0.3603020419832319,1,492,1,583.01280308899,584.5148517529888,,,,,,,,,,,,,,,,,,,,,,,,,,,,,,,,,,,,,,,,,,,,,,,,,,,,,,,,,,,,,,,,22349,2022-11-11_14h55.54.570,vts_reward_expectancy_bt_OFFLINE,2022.2.4,59.92196243070936,
0,0,0,1,0,1,0,0,star ,circle,1,0,1,0,2,6,30,10,,,,,,,,,,,,,,,,,,,,,,,,,,,,,,,,,,,,,,,,585.015302344982,585.015302344982,585.015302344982,585.015302344982,585.015302344982,585.015302344982,585.015302344982,585.015302344982,585.015302344982,585.015302344982,l,0.49367750200326554,1,493,1,585.5324789079896,587.0342924229917,,,,,,,,,,,,,,,,,,,,,,,,,,,,,,,,,,,,,,,,,,,,,,,,,,,,,,,,,,,,,,,,22349,2022-11-11_14h55.54.570,vts_reward_expectancy_bt_OFFLINE,2022.2.4,59.92196243070936,
1,0,0,0,0,0,1,0,triangle,hexagon,1,0,1,0,2,7,31,1,,,,,,,,,,,,,,,,,,,,,,,,,,,,,,,,,,,,,,,,587.5346497659921,587.5346497659921,587.5346497659921,587.5346497659921,587.5346497659921,587.5346497659921,587.5346497659921,587.5346497659921,587.5346497659921,587.5346497659921,a,0.4941450540209189,10,503,1,588.0520179209998,589.5539478319988,,,,,,,,,,,,,,,,,,,,,,,,,,,,,,,,,,,,,,,,,,,,,,,,,,,,,,,,,,,,,,,,22349,2022-11-11_14h55.54.570,vts_reward_expectancy_bt_OFFLINE,2022.2.4,59.92196243070936,
1,0,0,0,0,0,0,1,triangle,star,1,0,1,0,2,8,32,2,,,,,,,,,,,,,,,,,,,,,,,,,,,,,,,,,,,,,,,,590.0541177959822,590.0541177959822,590.0541177959822,590.0541177959822,590.0541177959822,590.0541177959822,590.0541177959822,590.0541177959822,590.0541177959822,590.0541177959822,a,0.5967457030201331,1,504,1,590.6715437640087,592.1729043090018,,,,,,,,,,,,,,,,,,,,,,,,,,,,,,,,,,,,,,,,,,,,,,,,,,,,,,,,,,,,,,,,22349,2022-11-11_14h55.54.570,vts_reward_expectancy_bt_OFFLINE,2022.2.4,59.92196243070936,
0,0,1,0,1,0,0,0,hexagon,triangle,1,0,1,0,2,9,33,6,,,,,,,,,,,,,,,,,,,,,,,,,,,,,,,,,,,,,,,,592.6740999269823,592.6740999269823,592.6740999269823,592.6740999269823,592.6740999269823,592.6740999269823,592.6740999269823,592.6740999269823,592.6740999269823,592.6740999269823,a,1.8589830640121363,10,514,1,594.5591616200109,596.0612211590051,,,,,,,,,,,,,,,,,,,,,,,,,,,,,,,,,,,,,,,,,,,,,,,,,,,,,,,,,,,,,,,,22349,2022-11-11_14h55.54.570,vts_reward_expectancy_bt_OFFLINE,2022.2.4,59.92196243070936,
0,0,1,0,0,0,0,1,hexagon,star,1,0,1,0,2,10,34,8,,,,,,,,,,,,,,,,,,,,,,,,,,,,,,,,,,,,,,,,596.5613596620096,596.5613596620096,596.5613596620096,596.5613596620096,596.5613596620096,596.5613596620096,596.5613596620096,596.5613596620096,596.5613596620096,596.5613596620096,a,0.9185878369899001,10,524,1,597.5123240760004,599.0140102320001,,,,,,,,,,,,,,,,,,,,,,,,,,,,,,,,,,,,,,,,,,,,,,,,,,,,,,,,,,,,,,,,22349,2022-11-11_14h55.54.570,vts_reward_expectancy_bt_OFFLINE,2022.2.4,59.92196243070936,
1,0,0,0,0,1,0,0,triangle,circle,1,0,1,0,2,11,35,0,,,,,,,,,,,,,,,,,,,,,,,,,,,,,,,,,,,,,,,,599.5144750849868,599.5144750849868,599.5144750849868,599.5144750849868,599.5144750849868,599.5144750849868,599.5144750849868,599.5144750849868,599.5144750849868,599.5144750849868,l,0.497267331025796,1,525,1,600.0318173039996,601.5335791209945,,,,,,,,,,,,,,,,,,,,,,,,,,,,,,,,,,,,,,,,,,,,,,,,,,,,,,,,,,,,,,,,22349,2022-11-11_14h55.54.570,vts_reward_expectancy_bt_OFFLINE,2022.2.4,59.92196243070936,
1,0,0,0,0,0,0,1,triangle,star,1,0,1,0,3,0,36,2,,,,,,,,,,,,,,,,,,,,,,,,,,,,,,,,,,,,,,,,602.0339523899893,602.0339523899893,602.0339523899893,602.0339523899893,602.0339523899893,602.0339523899893,602.0339523899893,602.0339523899893,602.0339523899893,602.0339523899893,a,0.552743667998584,10,535,1,602.6178369910049,604.1195716880029,,,,,,,,,,,,,,,,,,,,,,,,,,,,,,,,,,,,,,,,,,,,,,,,,,,,,,,,,,,,,,,,22349,2022-11-11_14h55.54.570,vts_reward_expectancy_bt_OFFLINE,2022.2.4,59.92196243070936,
0,1,0,0,0,0,1,0,circle,hexagon,1,0,1,0,3,1,37,4,,,,,,,,,,,,,,,,,,,,,,,,,,,,,,,,,,,,,,,,604.6201720529934,604.6201720529934,604.6201720529934,604.6201720529934,604.6201720529934,604.6201720529934,604.6201720529934,604.6201720529934,604.6201720529934,604.6201720529934,l,1.5340420839784201,10,545,1,606.1718976899865,607.6734796240053,,,,,,,,,,,,,,,,,,,,,,,,,,,,,,,,,,,,,,,,,,,,,,,,,,,,,,,,,,,,,,,,22349,2022-11-11_14h55.54.570,vts_reward_expectancy_bt_OFFLINE,2022.2.4,59.92196243070936,
0,0,1,0,0,0,0,1,hexagon,star,1,0,1,0,3,2,38,8,,,,,,,,,,,,,,,,,,,,,,,,,,,,,,,,,,,,,,,,608.1741736370022,608.1741736370022,608.1741736370022,608.1741736370022,608.1741736370022,608.1741736370022,608.1741736370022,608.1741736370022,608.1741736370022,608.1741736370022,a,0.7587086319981609,1,546,1,608.9582347619871,610.4598691489955,,,,,,,,,,,,,,,,,,,,,,,,,,,,,,,,,,,,,,,,,,,,,,,,,,,,,,,,,,,,,,,,22349,2022-11-11_14h55.54.570,vts_reward_expectancy_bt_OFFLINE,2022.2.4,59.92196243070936,
0,0,1,0,0,1,0,0,hexagon,circle,1,0,1,0,3,3,39,7,,,,,,,,,,,,,,,,,,,,,,,,,,,,,,,,,,,,,,,,610.9604051269998,610.9604051269998,610.9604051269998,610.9604051269998,610.9604051269998,610.9604051269998,610.9604051269998,610.9604051269998,610.9604051269998,610.9604051269998,l,1.9434867600211874,10,556,1,612.9291705520009,614.4309073780023,,,,,,,,,,,,,,,,,,,,,,,,,,,,,,,,,,,,,,,,,,,,,,,,,,,,,,,,,,,,,,,,22349,2022-11-11_14h55.54.570,vts_reward_expectancy_bt_OFFLINE,2022.2.4,59.92196243070936,
0,1,0,0,1,0,0,0,circle,triangle,1,0,1,0,3,4,40,3,,,,,,,,,,,,,,,,,,,,,,,,,,,,,,,,,,,,,,,,614.9317220149969,614.9317220149969,614.9317220149969,614.9317220149969,614.9317220149969,614.9317220149969,614.9317220149969,614.9317220149969,614.9317220149969,614.9317220149969,a,1.4497747569985222,1,557,1,616.3997126439936,617.9016808349988,,,,,,,,,,,,,,,,,,,,,,,,,,,,,,,,,,,,,,,,,,,,,,,,,,,,,,,,,,,,,,,,22349,2022-11-11_14h55.54.570,vts_reward_expectancy_bt_OFFLINE,2022.2.4,59.92196243070936,
0,0,0,1,0,1,0,0,star ,circle,1,0,1,0,3,5,41,10,,,,,,,,,,,,,,,,,,,,,,,,,,,,,,,,,,,,,,,,618.4022541279846,618.4022541279846,618.4022541279846,618.4022541279846,618.4022541279846,618.4022541279846,618.4022541279846,618.4022541279846,618.4022541279846,618.4022541279846,l,1.7597329260024708,1,558,1,620.1875210040016,621.6891119990032,,,,,,,,,,,,,,,,,,,,,,,,,,,,,,,,,,,,,,,,,,,,,,,,,,,,,,,,,,,,,,,,22349,2022-11-11_14h55.54.570,vts_reward_expectancy_bt_OFFLINE,2022.2.4,59.92196243070936,
0,0,1,0,1,0,0,0,hexagon,triangle,1,0,1,0,3,6,42,6,,,,,,,,,,,,,,,,,,,,,,,,,,,,,,,,,,,,,,,,622.1894106570107,622.1894106570107,622.1894106570107,622.1894106570107,622.1894106570107,622.1894106570107,622.1894106570107,622.1894106570107,622.1894106570107,622.1894106570107,a,1.244994303007843,1,559,1,623.4575212220079,624.9592268749839,,,,,,,,,,,,,,,,,,,,,,,,,,,,,,,,,,,,,,,,,,,,,,,,,,,,,,,,,,,,,,,,22349,2022-11-11_14h55.54.570,vts_reward_expectancy_bt_OFFLINE,2022.2.4,59.92196243070936,
0,1,0,0,0,0,0,1,circle,star,1,0,1,0,3,7,43,5,,,,,,,,,,,,,,,,,,,,,,,,,,,,,,,,,,,,,,,,625.460148801998,625.460148801998,625.460148801998,625.460148801998,625.460148801998,625.460148801998,625.460148801998,625.460148801998,625.460148801998,625.460148801998,l,1.821092326019425,1,560,1,627.3116743449937,628.8133981830033,,,,,,,,,,,,,,,,,,,,,,,,,,,,,,,,,,,,,,,,,,,,,,,,,,,,,,,,,,,,,,,,22349,2022-11-11_14h55.54.570,vts_reward_expectancy_bt_OFFLINE,2022.2.4,59.92196243070936,
0,0,0,1,0,0,1,0,star,hexagon,1,0,1,0,3,8,44,11,,,,,,,,,,,,,,,,,,,,,,,,,,,,,,,,,,,,,,,,629.3143091899983,629.3143091899983,629.3143091899983,629.3143091899983,629.3143091899983,629.3143091899983,629.3143091899983,629.3143091899983,629.3143091899983,629.3143091899983,l,1.218566905008629,10,570,1,630.5652323669929,632.0669672180084,,,,,,,,,,,,,,,,,,,,,,,,,,,,,,,,,,,,,,,,,,,,,,,,,,,,,,,,,,,,,,,,22349,2022-11-11_14h55.54.570,vts_reward_expectancy_bt_OFFLINE,2022.2.4,59.92196243070936,
1,0,0,0,0,1,0,0,triangle,circle,1,0,1,0,3,9,45,0,,,,,,,,,,,,,,,,,,,,,,,,,,,,,,,,,,,,,,,,632.5678110180015,632.5678110180015,632.5678110180015,632.5678110180015,632.5678110180015,632.5678110180015,632.5678110180015,632.5678110180015,632.5678110180015,632.5678110180015,l,1.1503092320053838,10,580,1,633.7357820759935,635.2373681629833,,,,,,,,,,,,,,,,,,,,,,,,,,,,,,,,,,,,,,,,,,,,,,,,,,,,,,,,,,,,,,,,22349,2022-11-11_14h55.54.570,vts_reward_expectancy_bt_OFFLINE,2022.2.4,59.92196243070936,
0,0,0,1,1,0,0,0,star,triangle,1,0,1,0,3,10,46,9,,,,,,,,,,,,,,,,,,,,,,,,,,,,,,,,,,,,,,,,635.7376340159972,635.7376340159972,635.7376340159972,635.7376340159972,635.7376340159972,635.7376340159972,635.7376340159972,635.7376340159972,635.7376340159972,635.7376340159972,l,0.45401556900469586,1,581,1,636.2216052660078,637.7232398510096,,,,,,,,,,,,,,,,,,,,,,,,,,,,,,,,,,,,,,,,,,,,,,,,,,,,,,,,,,,,,,,,22349,2022-11-11_14h55.54.570,vts_reward_expectancy_bt_OFFLINE,2022.2.4,59.92196243070936,
1,0,0,0,0,0,1,0,triangle,hexagon,1,0,1,0,3,11,47,1,,,,,,,,,,,,,,,,,,,,,,,,,,,,,,,,,,,,,,,,638.2239038249827,638.2239038249827,638.2239038249827,638.2239038249827,638.2239038249827,638.2239038249827,638.2239038249827,638.2239038249827,638.2239038249827,638.2239038249827,a,0.41040597000392154,1,582,1,638.657968612999,640.1595356480102,,,,,,,,,,,,,,,,,,,,,,,,,,,,,,,,,,,,,,,,,,,,,,,,,,,,,,,,,,,,,,,,22349,2022-11-11_14h55.54.570,vts_reward_expectancy_bt_OFFLINE,2022.2.4,59.92196243070936,
0,1,0,0,1,0,0,0,circle,triangle,2,0,2,0,0,0,0,3,,,,,,,,,,,,,,,,,,,,,,,,,,,,,,,,,,,,,,,,644.0721386320074,644.0721386320074,644.0721386320074,644.0721386320074,644.0721386320074,644.0721386320074,644.0721386320074,644.0721386320074,644.0721386320074,644.0721386320074,a,1.2222213060013019,10,592,2,645.3150641210086,646.8169204430014,,,,,,,,,,,,,,,,,,,,,,,,,,,,,,,,,,,,,,,,,,,,,,,,,,,,,,,,,,,,,,,,22349,2022-11-11_14h55.54.570,vts_reward_expectancy_bt_OFFLINE,2022.2.4,59.92196243070936,
1,0,0,0,0,0,0,1,triangle,star,2,0,2,0,0,1,1,2,,,,,,,,,,,,,,,,,,,,,,,,,,,,,,,,,,,,,,,,647.3171499260061,647.3171499260061,647.3171499260061,647.3171499260061,647.3171499260061,647.3171499260061,647.3171499260061,647.3171499260061,647.3171499260061,647.3171499260061,a,0.41801263301749714,10,602,2,647.7677538490098,649.2696699640073,,,,,,,,,,,,,,,,,,,,,,,,,,,,,,,,,,,,,,,,,,,,,,,,,,,,,,,,,,,,,,,,22349,2022-11-11_14h55.54.570,vts_reward_expectancy_bt_OFFLINE,2022.2.4,59.92196243070936,
0,0,1,0,0,1,0,0,hexagon,circle,2,0,2,0,0,2,2,7,,,,,,,,,,,,,,,,,,,,,,,,,,,,,,,,,,,,,,,,649.7698888239975,649.7698888239975,649.7698888239975,649.7698888239975,649.7698888239975,649.7698888239975,649.7698888239975,649.7698888239975,649.7698888239975,649.7698888239975,a,1.6100733840139583,1,603,2,651.4054284679878,652.9069835580012,,,,,,,,,,,,,,,,,,,,,,,,,,,,,,,,,,,,,,,,,,,,,,,,,,,,,,,,,,,,,,,,22349,2022-11-11_14h55.54.570,vts_reward_expectancy_bt_OFFLINE,2022.2.4,59.92196243070936,
1,0,0,0,0,0,1,0,triangle,hexagon,2,0,2,0,0,3,3,1,,,,,,,,,,,,,,,,,,,,,,,,,,,,,,,,,,,,,,,,653.4071197320009,653.4071197320009,653.4071197320009,653.4071197320009,653.4071197320009,653.4071197320009,653.4071197320009,653.4071197320009,653.4071197320009,653.4071197320009,l,3.046359225001652,1,604,2,656.4772960279952,657.9790357589955,,,,,,,,,,,,,,,,,,,,,,,,,,,,,,,,,,,,,,,,,,,,,,,,,,,,,,,,,,,,,,,,22349,2022-11-11_14h55.54.570,vts_reward_expectancy_bt_OFFLINE,2022.2.4,59.92196243070936,
0,0,1,0,0,0,0,1,hexagon,star,2,0,2,0,0,4,4,8,,,,,,,,,,,,,,,,,,,,,,,,,,,,,,,,,,,,,,,,658.4794180190074,658.4794180190074,658.4794180190074,658.4794180190074,658.4794180190074,658.4794180190074,658.4794180190074,658.4794180190074,658.4794180190074,658.4794180190074,a,0.4841029469971545,10,614,2,658.9799769159872,660.4815979170089,,,,,,,,,,,,,,,,,,,,,,,,,,,,,,,,,,,,,,,,,,,,,,,,,,,,,,,,,,,,,,,,22349,2022-11-11_14h55.54.570,vts_reward_expectancy_bt_OFFLINE,2022.2.4,59.92196243070936,
0,0,0,1,0,1,0,0,star ,circle,2,0,2,0,0,5,5,10,,,,,,,,,,,,,,,,,,,,,,,,,,,,,,,,,,,,,,,,660.9822808319877,660.9822808319877,660.9822808319877,660.9822808319877,660.9822808319877,660.9822808319877,660.9822808319877,660.9822808319877,660.9822808319877,660.9822808319877,l,0.3097503580211196,1,615,2,661.3159018830047,662.8175403040077,662.8175403040077,,,,,,,,,,,,,,,,,,,,,,,,,,,,,,,,,,,,,,,,,,,,,,,,,,,,,,,,,,,,,,,22349,2022-11-11_14h55.54.570,vts_reward_expectancy_bt_OFFLINE,2022.2.4,59.92196243070936,
1,0,0,0,0,1,0,0,triangle,circle,2,0,2,0,0,6,6,0,,,,,,,,,,,,,,,,,,,,,,,,,,,,,,,,,,,,,,,,663.3182230129896,663.3182230129896,663.3182230129896,663.3182230129896,663.3182230129896,663.3182230129896,663.3182230129896,663.3182230129896,663.3182230129896,663.3182230129896,a,0.5506237040099222,10,625,2,663.8856996939867,665.3871151350031,,,,,,,,,,,,,,,,,,,,,,,,,,,,,,,,,,,,,,,,,,,,,,,,,,,,,,,,,,,,,,,,22349,2022-11-11_14h55.54.570,vts_reward_expectancy_bt_OFFLINE,2022.2.4,59.92196243070936,
0,0,1,0,1,0,0,0,hexagon,triangle,2,0,2,0,0,7,7,6,,,,,,,,,,,,,,,,,,,,,,,,,,,,,,,,,,,,,,,,665.8880213529919,665.8880213529919,665.8880213529919,665.8880213529919,665.8880213529919,665.8880213529919,665.8880213529919,665.8880213529919,665.8880213529919,665.8880213529919,l,1.3338509280001745,10,635,2,667.2390236299834,668.7406935429899,,,,,,,,,,,,,,,,,,,,,,,,,,,,,,,,,,,,,,,,,,,,,,,,,,,,,,,,,,,,,,,,22349,2022-11-11_14h55.54.570,vts_reward_expectancy_bt_OFFLINE,2022.2.4,59.92196243070936,
0,0,0,1,0,0,1,0,star,hexagon,2,0,2,0,0,8,8,11,,,,,,,,,,,,,,,,,,,,,,,,,,,,,,,,,,,,,,,,669.2413929250033,669.2413929250033,669.2413929250033,669.2413929250033,669.2413929250033,669.2413929250033,669.2413929250033,669.2413929250033,669.2413929250033,669.2413929250033,l,0.590128743002424,10,645,2,669.8587502659939,671.3602333290037,,,,,,,,,,,,,,,,,,,,,,,,,,,,,,,,,,,,,,,,,,,,,,,,,,,,,,,,,,,,,,,,22349,2022-11-11_14h55.54.570,vts_reward_expectancy_bt_OFFLINE,2022.2.4,59.92196243070936,
0,0,0,1,1,0,0,0,star,triangle,2,0,2,0,0,9,9,9,,,,,,,,,,,,,,,,,,,,,,,,,,,,,,,,,,,,,,,,671.8607996229839,671.8607996229839,671.8607996229839,671.8607996229839,671.8607996229839,671.8607996229839,671.8607996229839,671.8607996229839,671.8607996229839,671.8607996229839,l,0.8735732930072118,10,655,2,672.7617063100042,674.2635510909895,,,,,,,,,,,,,,,,,,,,,,,,,,,,,,,,,,,,,,,,,,,,,,,,,,,,,,,,,,,,,,,,22349,2022-11-11_14h55.54.570,vts_reward_expectancy_bt_OFFLINE,2022.2.4,59.92196243070936,
0,1,0,0,0,0,1,0,circle,hexagon,2,0,2,0,0,10,10,4,,,,,,,,,,,,,,,,,,,,,,,,,,,,,,,,,,,,,,,,674.7640342249942,674.7640342249942,674.7640342249942,674.7640342249942,674.7640342249942,674.7640342249942,674.7640342249942,674.7640342249942,674.7640342249942,674.7640342249942,a,1.3674590309965424,1,656,2,676.148939398001,677.6509327210078,,,,,,,,,,,,,,,,,,,,,,,,,,,,,,,,,,,,,,,,,,,,,,,,,,,,,,,,,,,,,,,,22349,2022-11-11_14h55.54.570,vts_reward_expectancy_bt_OFFLINE,2022.2.4,59.92196243070936,
0,1,0,0,0,0,0,1,circle,star,2,0,2,0,0,11,11,5,,,,,,,,,,,,,,,,,,,,,,,,,,,,,,,,,,,,,,,,678.151292036986,678.151292036986,678.151292036986,678.151292036986,678.151292036986,678.151292036986,678.151292036986,678.151292036986,678.151292036986,678.151292036986,a,0.9842338320158888,1,657,2,679.1525900590059,680.6540687209927,,,,,,,,,,,,,,,,,,,,,,,,,,,,,,,,,,,,,,,,,,,,,,,,,,,,,,,,,,,,,,,,22349,2022-11-11_14h55.54.570,vts_reward_expectancy_bt_OFFLINE,2022.2.4,59.92196243070936,
0,0,1,0,0,0,0,1,hexagon,star,2,0,2,0,1,0,12,8,,,,,,,,,,,,,,,,,,,,,,,,,,,,,,,,,,,,,,,,681.1547209059936,681.1547209059936,681.1547209059936,681.1547209059936,681.1547209059936,681.1547209059936,681.1547209059936,681.1547209059936,681.1547209059936,681.1547209059936,a,1.6143532370042522,10,667,2,682.7898175209993,684.2912053100008,,,,,,,,,,,,,,,,,,,,,,,,,,,,,,,,,,,,,,,,,,,,,,,,,,,,,,,,,,,,,,,,22349,2022-11-11_14h55.54.570,vts_reward_expectancy_bt_OFFLINE,2022.2.4,59.92196243070936,
0,1,0,0,1,0,0,0,circle,triangle,2,0,2,0,1,1,13,3,,,,,,,,,,,,,,,,,,,,,,,,,,,,,,,,,,,,,,,,684.7922356569907,684.7922356569907,684.7922356569907,684.7922356569907,684.7922356569907,684.7922356569907,684.7922356569907,684.7922356569907,684.7922356569907,684.7922356569907,l,1.024493960023392,10,677,2,685.8430598900013,687.3446931270009,,,,,,,,,,,,,,,,,,,,,,,,,,,,,,,,,,,,,,,,,,,,,,,,,,,,,,,,,,,,,,,,22349,2022-11-11_14h55.54.570,vts_reward_expectancy_bt_OFFLINE,2022.2.4,59.92196243070936,
0,0,0,1,0,1,0,0,star ,circle,2,0,2,0,1,2,14,10,,,,,,,,,,,,,,,,,,,,,,,,,,,,,,,,,,,,,,,,687.8452229500108,687.8452229500108,687.8452229500108,687.8452229500108,687.8452229500108,687.8452229500108,687.8452229500108,687.8452229500108,687.8452229500108,687.8452229500108,a,1.2021118239790667,10,687,2,689.0800266379956,690.5816494750034,,,,,,,,,,,,,,,,,,,,,,,,,,,,,,,,,,,,,,,,,,,,,,,,,,,,,,,,,,,,,,,,22349,2022-11-11_14h55.54.570,vts_reward_expectancy_bt_OFFLINE,2022.2.4,59.92196243070936,
0,1,0,0,0,0,0,1,circle,star,2,0,2,0,1,3,15,5,,,,,,,,,,,,,,,,,,,,,,,,,,,,,,,,,,,,,,,,691.0821682570095,691.0821682570095,691.0821682570095,691.0821682570095,691.0821682570095,691.0821682570095,691.0821682570095,691.0821682570095,691.0821682570095,691.0821682570095,l,0.900996242009569,1,688,2,692.0001980399829,693.5016378999862,,,,,,,,,,,,,,,,,,,,,,,,,,,,,,,,,,,,,,,,,,,,,,,,,,,,,,,,,,,,,,,,22349,2022-11-11_14h55.54.570,vts_reward_expectancy_bt_OFFLINE,2022.2.4,59.92196243070936,
0,0,1,0,0,1,0,0,hexagon,circle,2,0,2,0,1,4,16,7,,,,,,,,,,,,,,,,,,,,,,,,,,,,,,,,,,,,,,,,694.002303457004,694.002303457004,694.002303457004,694.002303457004,694.002303457004,694.002303457004,694.002303457004,694.002303457004,694.002303457004,694.002303457004,a,0.8166040029900614,10,698,2,694.8368607120065,696.3381250539969,,,,,,,,,,,,,,,,,,,,,,,,,,,,,,,,,,,,,,,,,,,,,,,,,,,,,,,,,,,,,,,,22349,2022-11-11_14h55.54.570,vts_reward_expectancy_bt_OFFLINE,2022.2.4,59.92196243070936,
1,0,0,0,0,1,0,0,triangle,circle,2,0,2,0,1,5,17,0,,,,,,,,,,,,,,,,,,,,,,,,,,,,,,,,,,,,,,,,696.8386011660041,696.8386011660041,696.8386011660041,696.8386011660041,696.8386011660041,696.8386011660041,696.8386011660041,696.8386011660041,696.8386011660041,696.8386011660041,a,0.9505960289970972,1,699,2,697.8063605979842,699.3081766979885,,,,,,,,,,,,,,,,,,,,,,,,,,,,,,,,,,,,,,,,,,,,,,,,,,,,,,,,,,,,,,,,22349,2022-11-11_14h55.54.570,vts_reward_expectancy_bt_OFFLINE,2022.2.4,59.92196243070936,
1,0,0,0,0,0,1,0,triangle,hexagon,2,0,2,0,1,6,18,1,,,,,,,,,,,,,,,,,,,,,,,,,,,,,,,,,,,,,,,,699.8085837760009,699.8085837760009,699.8085837760009,699.8085837760009,699.8085837760009,699.8085837760009,699.8085837760009,699.8085837760009,699.8085837760009,699.8085837760009,a,1.2085792809957638,10,709,2,701.0430326159985,702.5447709340078,,,,,,,,,,,,,,,,,,,,,,,,,,,,,,,,,,,,,,,,,,,,,,,,,,,,,,,,,,,,,,,,22349,2022-11-11_14h55.54.570,vts_reward_expectancy_bt_OFFLINE,2022.2.4,59.92196243070936,
0,0,0,1,0,0,1,0,star,hexagon,2,0,2,0,1,7,19,11,,,,,,,,,,,,,,,,,,,,,,,,,,,,,,,,,,,,,,,,703.044479122007,703.044479122007,703.044479122007,703.044479122007,703.044479122007,703.044479122007,703.044479122007,703.044479122007,703.044479122007,703.044479122007,l,0.6505857349839061,10,719,2,703.7127151050081,705.2143833519949,,,,,,,,,,,,,,,,,,,,,,,,,,,,,,,,,,,,,,,,,,,,,,,,,,,,,,,,,,,,,,,,22349,2022-11-11_14h55.54.570,vts_reward_expectancy_bt_OFFLINE,2022.2.4,59.92196243070936,
0,1,0,0,0,0,1,0,circle,hexagon,2,0,2,0,1,8,20,4,,,,,,,,,,,,,,,,,,,,,,,,,,,,,,,,,,,,,,,,705.7151155839965,705.7151155839965,705.7151155839965,705.7151155839965,705.7151155839965,705.7151155839965,705.7151155839965,705.7151155839965,705.7151155839965,705.7151155839965,l,0.7584766920190305,10,729,2,706.4995132120093,708.0007355599955,,,,,,,,,,,,,,,,,,,,,,,,,,,,,,,,,,,,,,,,,,,,,,,,,,,,,,,,,,,,,,,,22349,2022-11-11_14h55.54.570,vts_reward_expectancy_bt_OFFLINE,2022.2.4,59.92196243070936,
1,0,0,0,0,0,0,1,triangle,star,2,0,2,0,1,9,21,2,,,,,,,,,,,,,,,,,,,,,,,,,,,,,,,,,,,,,,,,708.5012528369843,708.5012528369843,708.5012528369843,708.5012528369843,708.5012528369843,708.5012528369843,708.5012528369843,708.5012528369843,708.5012528369843,708.5012528369843,a,0.5361225460073911,10,739,2,709.0687306720065,710.5702698410023,710.5702698410023,,,,,,,,,,,,,,,,,,,,,,,,,,,,,,,,,,,,,,,,,,,,,,,,,,,,,,,,,,,,,,,22349,2022-11-11_14h55.54.570,vts_reward_expectancy_bt_OFFLINE,2022.2.4,59.92196243070936,
0,0,0,1,1,0,0,0,star,triangle,2,0,2,0,1,10,22,9,,,,,,,,,,,,,,,,,,,,,,,,,,,,,,,,,,,,,,,,711.0709170709888,711.0709170709888,711.0709170709888,711.0709170709888,711.0709170709888,711.0709170709888,711.0709170709888,711.0709170709888,711.0709170709888,711.0709170709888,l,0.5329276459815446,10,749,2,711.6214040250052,713.1229804070026,,,,,,,,,,,,,,,,,,,,,,,,,,,,,,,,,,,,,,,,,,,,,,,,,,,,,,,,,,,,,,,,22349,2022-11-11_14h55.54.570,vts_reward_expectancy_bt_OFFLINE,2022.2.4,59.92196243070936,
0,0,1,0,1,0,0,0,hexagon,triangle,2,0,2,0,1,11,23,6,,,,,,,,,,,,,,,,,,,,,,,,,,,,,,,,,,,,,,,,713.6239558160014,713.6239558160014,713.6239558160014,713.6239558160014,713.6239558160014,713.6239558160014,713.6239558160014,713.6239558160014,713.6239558160014,713.6239558160014,a,0.3413930360111408,10,759,2,713.9907777629851,715.492921291996,,,,,,,,,,,,,,,,,,,,,,,,,,,,,,,,,,,,,,,,,,,,,,,,,,,,,,,,,,,,,,,,22349,2022-11-11_14h55.54.570,vts_reward_expectancy_bt_OFFLINE,2022.2.4,59.92196243070936,
0,0,0,1,1,0,0,0,star,triangle,2,0,2,0,2,0,24,9,,,,,,,,,,,,,,,,,,,,,,,,,,,,,,,,,,,,,,,,715.9930654299969,715.9930654299969,715.9930654299969,715.9930654299969,715.9930654299969,715.9930654299969,715.9930654299969,715.9930654299969,715.9930654299969,715.9930654299969,l,0.257277682016138,10,769,2,716.2766541489982,717.7781589739898,,,,,,,,,,,,,,,,,,,,,,,,,,,,,,,,,,,,,,,,,,,,,,,,,,,,,,,,,,,,,,,,22349,2022-11-11_14h55.54.570,vts_reward_expectancy_bt_OFFLINE,2022.2.4,59.92196243070936,
1,0,0,0,0,0,0,1,triangle,star,2,0,2,0,2,1,25,2,,,,,,,,,,,,,,,,,,,,,,,,,,,,,,,,,,,,,,,,718.2790205639903,718.2790205639903,718.2790205639903,718.2790205639903,718.2790205639903,718.2790205639903,718.2790205639903,718.2790205639903,718.2790205639903,718.2790205639903,a,0.4235227709868923,10,779,2,718.7293510480085,720.2310138090106,,,,,,,,,,,,,,,,,,,,,,,,,,,,,,,,,,,,,,,,,,,,,,,,,,,,,,,,,,,,,,,,22349,2022-11-11_14h55.54.570,vts_reward_expectancy_bt_OFFLINE,2022.2.4,59.92196243070936,
0,0,0,1,0,0,1,0,star,hexagon,2,0,2,0,2,2,26,11,,,,,,,,,,,,,,,,,,,,,,,,,,,,,,,,,,,,,,,,720.7316024400061,720.7316024400061,720.7316024400061,720.7316024400061,720.7316024400061,720.7316024400061,720.7316024400061,720.7316024400061,720.7316024400061,720.7316024400061,l,0.4129053349897731,10,789,2,721.1653877930075,722.6670278600068,,,,,,,,,,,,,,,,,,,,,,,,,,,,,,,,,,,,,,,,,,,,,,,,,,,,,,,,,,,,,,,,22349,2022-11-11_14h55.54.570,vts_reward_expectancy_bt_OFFLINE,2022.2.4,59.92196243070936,
0,0,0,1,0,1,0,0,star ,circle,2,0,2,0,2,3,27,10,,,,,,,,,,,,,,,,,,,,,,,,,,,,,,,,,,,,,,,,723.1675387329888,723.1675387329888,723.1675387329888,723.1675387329888,723.1675387329888,723.1675387329888,723.1675387329888,723.1675387329888,723.1675387329888,723.1675387329888,a,0.541548328998033,10,799,2,723.734832237009,725.2364994729869,,,,,,,,,,,,,,,,,,,,,,,,,,,,,,,,,,,,,,,,,,,,,,,,,,,,,,,,,,,,,,,,22349,2022-11-11_14h55.54.570,vts_reward_expectancy_bt_OFFLINE,2022.2.4,59.92196243070936,
1,0,0,0,0,1,0,0,triangle,circle,2,0,2,0,2,4,28,0,,,,,,,,,,,,,,,,,,,,,,,,,,,,,,,,,,,,,,,,725.7373385319952,725.7373385319952,725.7373385319952,725.7373385319952,725.7373385319952,725.7373385319952,725.7373385319952,725.7373385319952,725.7373385319952,725.7373385319952,l,1.8974498620082159,1,800,2,727.6559206079983,729.1575147839903,,,,,,,,,,,,,,,,,,,,,,,,,,,,,,,,,,,,,,,,,,,,,,,,,,,,,,,,,,,,,,,,22349,2022-11-11_14h55.54.570,vts_reward_expectancy_bt_OFFLINE,2022.2.4,59.92196243070936,
0,1,0,0,0,0,0,1,circle,star,2,0,2,0,2,5,29,5,,,,,,,,,,,,,,,,,,,,,,,,,,,,,,,,,,,,,,,,729.6584531519911,729.6584531519911,729.6584531519911,729.6584531519911,729.6584531519911,729.6584531519911,729.6584531519911,729.6584531519911,729.6584531519911,729.6584531519911,a,0.3274723000067752,1,801,2,730.0085979919822,731.5100455670035,,,,,,,,,,,,,,,,,,,,,,,,,,,,,,,,,,,,,,,,,,,,,,,,,,,,,,,,,,,,,,,,22349,2022-11-11_14h55.54.570,vts_reward_expectancy_bt_OFFLINE,2022.2.4,59.92196243070936,
0,0,1,0,0,0,0,1,hexagon,star,2,0,2,0,2,6,30,8,,,,,,,,,,,,,,,,,,,,,,,,,,,,,,,,,,,,,,,,732.0106571069919,732.0106571069919,732.0106571069919,732.0106571069919,732.0106571069919,732.0106571069919,732.0106571069919,732.0106571069919,732.0106571069919,732.0106571069919,l,0.5181584310194012,1,802,2,732.561430886999,734.0632192970079,,,,,,,,,,,,,,,,,,,,,,,,,,,,,,,,,,,,,,,,,,,,,,,,,,,,,,,,,,,,,,,,22349,2022-11-11_14h55.54.570,vts_reward_expectancy_bt_OFFLINE,2022.2.4,59.92196243070936,
0,1,0,0,0,0,1,0,circle,hexagon,2,0,2,0,2,7,31,4,,,,,,,,,,,,,,,,,,,,,,,,,,,,,,,,,,,,,,,,734.5633579730056,734.5633579730056,734.5633579730056,734.5633579730056,734.5633579730056,734.5633579730056,734.5633579730056,734.5633579730056,734.5633579730056,734.5633579730056,a,0.5189127610065043,10,812,2,735.1136420039984,736.6156069469871,,,,,,,,,,,,,,,,,,,,,,,,,,,,,,,,,,,,,,,,,,,,,,,,,,,,,,,,,,,,,,,,22349,2022-11-11_14h55.54.570,vts_reward_expectancy_bt_OFFLINE,2022.2.4,59.92196243070936,
0,0,1,0,0,1,0,0,hexagon,circle,2,0,2,0,2,8,32,7,,,,,,,,,,,,,,,,,,,,,,,,,,,,,,,,,,,,,,,,737.1162497769983,737.1162497769983,737.1162497769983,737.1162497769983,737.1162497769983,737.1162497769983,737.1162497769983,737.1162497769983,737.1162497769983,737.1162497769983,l,0.981430071988143,1,813,2,738.1173644759983,739.6190555770008,,,,,,,,,,,,,,,,,,,,,,,,,,,,,,,,,,,,,,,,,,,,,,,,,,,,,,,,,,,,,,,,22349,2022-11-11_14h55.54.570,vts_reward_expectancy_bt_OFFLINE,2022.2.4,59.92196243070936,
0,1,0,0,1,0,0,0,circle,triangle,2,0,2,0,2,9,33,3,,,,,,,,,,,,,,,,,,,,,,,,,,,,,,,,,,,,,,,,740.1194204080093,740.1194204080093,740.1194204080093,740.1194204080093,740.1194204080093,740.1194204080093,740.1194204080093,740.1194204080093,740.1194204080093,740.1194204080093,a,3.716208973986795,1,814,2,743.856979573,745.3585837009887,,,,,,,,,,,,,,,,,,,,,,,,,,,,,,,,,,,,,,,,,,,,,,,,,,,,,,,,,,,,,,,,22349,2022-11-11_14h55.54.570,vts_reward_expectancy_bt_OFFLINE,2022.2.4,59.92196243070936,
1,0,0,0,0,0,1,0,triangle,hexagon,2,0,2,0,2,10,34,1,,,,,,,,,,,,,,,,,,,,,,,,,,,,,,,,,,,,,,,,745.8594788860064,745.8594788860064,745.8594788860064,745.8594788860064,745.8594788860064,745.8594788860064,745.8594788860064,745.8594788860064,745.8594788860064,745.8594788860064,a,0.7209848850034177,10,824,2,746.6099772680027,748.111752458004,,,,,,,,,,,,,,,,,,,,,,,,,,,,,,,,,,,,,,,,,,,,,,,,,,,,,,,,,,,,,,,,22349,2022-11-11_14h55.54.570,vts_reward_expectancy_bt_OFFLINE,2022.2.4,59.92196243070936,
0,0,1,0,1,0,0,0,hexagon,triangle,2,0,2,0,2,11,35,6,,,,,,,,,,,,,,,,,,,,,,,,,,,,,,,,,,,,,,,,748.6122194159834,748.6122194159834,748.6122194159834,748.6122194159834,748.6122194159834,748.6122194159834,748.6122194159834,748.6122194159834,748.6122194159834,748.6122194159834,l,0.5102271400101017,1,825,2,749.1462117059855,750.6478490149893,,,,,,,,,,,,,,,,,,,,,,,,,,,,,,,,,,,,,,,,,,,,,,,,,,,,,,,,,,,,,,,,22349,2022-11-11_14h55.54.570,vts_reward_expectancy_bt_OFFLINE,2022.2.4,59.92196243070936,
0,0,0,1,0,0,1,0,star,hexagon,2,0,2,0,3,0,36,11,,,,,,,,,,,,,,,,,,,,,,,,,,,,,,,,,,,,,,,,751.1485809060105,751.1485809060105,751.1485809060105,751.1485809060105,751.1485809060105,751.1485809060105,751.1485809060105,751.1485809060105,751.1485809060105,751.1485809060105,l,0.641040481015807,10,835,2,751.8158512689988,753.3175715009857,,,,,,,,,,,,,,,,,,,,,,,,,,,,,,,,,,,,,,,,,,,,,,,,,,,,,,,,,,,,,,,,22349,2022-11-11_14h55.54.570,vts_reward_expectancy_bt_OFFLINE,2022.2.4,59.92196243070936,
0,1,0,0,0,0,1,0,circle,hexagon,2,0,2,0,3,1,37,4,,,,,,,,,,,,,,,,,,,,,,,,,,,,,,,,,,,,,,,,753.8180297219951,753.8180297219951,753.8180297219951,753.8180297219951,753.8180297219951,753.8180297219951,753.8180297219951,753.8180297219951,753.8180297219951,753.8180297219951,l,0.9749410070071463,1,836,2,754.8190928190015,756.3206287070061,,,,,,,,,,,,,,,,,,,,,,,,,,,,,,,,,,,,,,,,,,,,,,,,,,,,,,,,,,,,,,,,22349,2022-11-11_14h55.54.570,vts_reward_expectancy_bt_OFFLINE,2022.2.4,59.92196243070936,
0,0,1,0,0,1,0,0,hexagon,circle,2,0,2,0,3,2,38,7,,,,,,,,,,,,,,,,,,,,,,,,,,,,,,,,,,,,,,,,756.821681270987,756.821681270987,756.821681270987,756.821681270987,756.821681270987,756.821681270987,756.821681270987,756.821681270987,756.821681270987,756.821681270987,l,0.9185687380086165,1,837,2,757.7723916569958,759.2744872650073,,,,,,,,,,,,,,,,,,,,,,,,,,,,,,,,,,,,,,,,,,,,,,,,,,,,,,,,,,,,,,,,22349,2022-11-11_14h55.54.570,vts_reward_expectancy_bt_OFFLINE,2022.2.4,59.92196243070936,
1,0,0,0,0,0,1,0,triangle,hexagon,2,0,2,0,3,3,39,1,,,,,,,,,,,,,,,,,,,,,,,,,,,,,,,,,,,,,,,,759.7747158489947,759.7747158489947,759.7747158489947,759.7747158489947,759.7747158489947,759.7747158489947,759.7747158489947,759.7747158489947,759.7747158489947,759.7747158489947,a,0.3854143120115623,10,847,2,760.1917525079916,761.693287786009,761.693287786009,,,,,,,,,,,,,,,,,,,,,,,,,,,,,,,,,,,,,,,,,,,,,,,,,,,,,,,,,,,,,,,22349,2022-11-11_14h55.54.570,vts_reward_expectancy_bt_OFFLINE,2022.2.4,59.92196243070936,
1,0,0,0,0,1,0,0,triangle,circle,2,0,2,0,3,4,40,0,,,,,,,,,,,,,,,,,,,,,,,,,,,,,,,,,,,,,,,,762.194019121991,762.194019121991,762.194019121991,762.194019121991,762.194019121991,762.194019121991,762.194019121991,762.194019121991,762.194019121991,762.194019121991,a,0.7776420229929499,10,857,2,762.9946445039823,764.496451701998,,,,,,,,,,,,,,,,,,,,,,,,,,,,,,,,,,,,,,,,,,,,,,,,,,,,,,,,,,,,,,,,22349,2022-11-11_14h55.54.570,vts_reward_expectancy_bt_OFFLINE,2022.2.4,59.92196243070936,
0,1,0,0,0,0,0,1,circle,star,2,0,2,0,3,5,41,5,,,,,,,,,,,,,,,,,,,,,,,,,,,,,,,,,,,,,,,,764.9968215019908,764.9968215019908,764.9968215019908,764.9968215019908,764.9968215019908,764.9968215019908,764.9968215019908,764.9968215019908,764.9968215019908,764.9968215019908,a,0.5407248069823254,1,858,2,765.5643673559825,767.0657774279825,,,,,,,,,,,,,,,,,,,,,,,,,,,,,,,,,,,,,,,,,,,,,,,,,,,,,,,,,,,,,,,,22349,2022-11-11_14h55.54.570,vts_reward_expectancy_bt_OFFLINE,2022.2.4,59.92196243070936,
0,0,0,1,1,0,0,0,star,triangle,2,0,2,0,3,6,42,9,,,,,,,,,,,,,,,,,,,,,,,,,,,,,,,,,,,,,,,,767.5667946699832,767.5667946699832,767.5667946699832,767.5667946699832,767.5667946699832,767.5667946699832,767.5667946699832,767.5667946699832,767.5667946699832,767.5667946699832,l,0.5691033830225933,10,868,2,768.1672746019904,769.6687883379927,,,,,,,,,,,,,,,,,,,,,,,,,,,,,,,,,,,,,,,,,,,,,,,,,,,,,,,,,,,,,,,,22349,2022-11-11_14h55.54.570,vts_reward_expectancy_bt_OFFLINE,2022.2.4,59.92196243070936,
0,1,0,0,1,0,0,0,circle,triangle,2,0,2,0,3,7,43,3,,,,,,,,,,,,,,,,,,,,,,,,,,,,,,,,,,,,,,,,770.169255965011,770.169255965011,770.169255965011,770.169255965011,770.169255965011,770.169255965011,770.169255965011,770.169255965011,770.169255965011,770.169255965011,l,0.5872836449998431,10,878,2,770.7865046160005,772.288372081006,,,,,,,,,,,,,,,,,,,,,,,,,,,,,,,,,,,,,,,,,,,,,,,,,,,,,,,,,,,,,,,,22349,2022-11-11_14h55.54.570,vts_reward_expectancy_bt_OFFLINE,2022.2.4,59.92196243070936,
0,0,1,0,1,0,0,0,hexagon,triangle,2,0,2,0,3,8,44,6,,,,,,,,,,,,,,,,,,,,,,,,,,,,,,,,,,,,,,,,772.7890081850055,772.7890081850055,772.7890081850055,772.7890081850055,772.7890081850055,772.7890081850055,772.7890081850055,772.7890081850055,772.7890081850055,772.7890081850055,l,0.4892244540096726,10,888,2,773.3063818819937,774.8077539129881,,,,,,,,,,,,,,,,,,,,,,,,,,,,,,,,,,,,,,,,,,,,,,,,,,,,,,,,,,,,,,,,22349,2022-11-11_14h55.54.570,vts_reward_expectancy_bt_OFFLINE,2022.2.4,59.92196243070936,
0,0,1,0,0,0,0,1,hexagon,star,2,0,2,0,3,9,45,8,,,,,,,,,,,,,,,,,,,,,,,,,,,,,,,,,,,,,,,,775.3085775559884,775.3085775559884,775.3085775559884,775.3085775559884,775.3085775559884,775.3085775559884,775.3085775559884,775.3085775559884,775.3085775559884,775.3085775559884,a,0.557267338008387,10,898,2,775.8926259950094,777.3944301700103,,,,,,,,,,,,,,,,,,,,,,,,,,,,,,,,,,,,,,,,,,,,,,,,,,,,,,,,,,,,,,,,22349,2022-11-11_14h55.54.570,vts_reward_expectancy_bt_OFFLINE,2022.2.4,59.92196243070936,
0,0,0,1,0,1,0,0,star ,circle,2,0,2,0,3,10,46,10,,,,,,,,,,,,,,,,,,,,,,,,,,,,,,,,,,,,,,,,777.8948046499863,777.8948046499863,777.8948046499863,777.8948046499863,777.8948046499863,777.8948046499863,777.8948046499863,777.8948046499863,777.8948046499863,777.8948046499863,l,0.5132863059989177,1,899,2,778.4284645940061,779.9302353230014,,,,,,,,,,,,,,,,,,,,,,,,,,,,,,,,,,,,,,,,,,,,,,,,,,,,,,,,,,,,,,,,22349,2022-11-11_14h55.54.570,vts_reward_expectancy_bt_OFFLINE,2022.2.4,59.92196243070936,
1,0,0,0,0,0,0,1,triangle,star,2,0,2,0,3,11,47,2,,,,,,,,,,,,,,,,,,,,,,,,,,,,,,,,,,,,,,,,780.4306713879923,780.4306713879923,780.4306713879923,780.4306713879923,780.4306713879923,780.4306713879923,780.4306713879923,780.4306713879923,780.4306713879923,780.4306713879923,a,0.5084229670173954,10,909,2,780.9648238639929,782.4662177159917,,,,,,,,,,,,,,,,,,,,,,,,,,,,,,,,,,,,,,,,,,,,,,,,,,,,,,,,,,,,,,,,22349,2022-11-11_14h55.54.570,vts_reward_expectancy_bt_OFFLINE,2022.2.4,59.92196243070936,
,,,,,,,,,,,,,,,,,,0,0,0,0,0,0,0,0,,,,,,,,,,,,,,,,,,,,,,,,,,,,,,,,,,,,,,,,,,,,,,,,847.3379553959821,,181,U,hexagon,0.0022749039926566184,841.7965940430004,843.3003286370076,843.3003286370076,843.3003286370076,1,0,f,2.5080975890159607,0,845.8375026769936,847.3379553959821,,,,,,,,,,,,,,,,,,,,,,,,,,,,,,,,,,,,,,,,,,,,,,,,22349,2022-11-11_14h55.54.570,vts_reward_expectancy_bt_OFFLINE,2022.2.4,59.92196243070936,
,,,,,,,,,,,,,,,,,,0,0,0,0,1,0,1,0,,,,,,,,,,,,,,,,,,,,,,,,,,,,,,,,,,,,,,,,,,,,,,,,852.1764645059884,,139,D,circle,0.0010049219999928027,848.3173041609989,849.8239454200084,849.8239454200084,849.8239454200084,1,0,d,0.8227609689929523,0,850.6747653819912,,,,,,,,,,,,,,,,,,,,,,,,,,,,,,,,,,,,,,,,,,,,,,,,,22349,2022-11-11_14h55.54.570,vts_reward_expectancy_bt_OFFLINE,2022.2.4,59.92196243070936,
,,,,,,,,,,,,,,,,,,0,0,0,0,2,0,2,0,,,,,,,,,,,,,,,,,,,,,,,,,,,,,,,,,,,,,,,,,,,,,,,,857.7994546449918,,167,W,triangle,0.001029415027005598,853.1600932549918,854.6626107089978,854.6626107089978,854.6626107089978,1,0,f,1.608188590995269,0,856.2978959860047,,,,,,,,,,,,,,,,,,,,,,,,,,,,,,,,,,,,,,,,,,,,,,,,,22349,2022-11-11_14h55.54.570,vts_reward_expectancy_bt_OFFLINE,2022.2.4,59.92196243070936,
,,,,,,,,,,,,,,,,,,0,0,0,0,3,0,3,0,,,,,,,,,,,,,,,,,,,,,,,,,,,,,,,,,,,,,,,,,,,,,,,,862.6884854600066,,146,S,star,0.0019202689873054624,858.7810242009873,860.2854773729923,860.2854773729923,860.2854773729923,1,0,d,0.8792800619849004,0,861.1864388189861,,,,,,,,,,,,,,,,,,,,,,,,,,,,,,,,,,,,,,,,,,,,,,,,,22349,2022-11-11_14h55.54.570,vts_reward_expectancy_bt_OFFLINE,2022.2.4,59.92196243070936,
,,,,,,,,,,,,,,,,,,0,0,0,0,4,0,4,0,,,,,,,,,,,,,,,,,,,,,,,,,,,,,,,,,,,,,,,,,,,,,,,,867.5603662540088,,125,B,hexagon,0.0016863569908309728,863.6688269200095,865.1744811329991,865.1744811329991,865.1744811329991,1,0,d,0.8616704460000619,0,866.0587217439897,,,,,,,,,,,,,,,,,,,,,,,,,,,,,,,,,,,,,,,,,,,,,,,,,22349,2022-11-11_14h55.54.570,vts_reward_expectancy_bt_OFFLINE,2022.2.4,59.92196243070936,
,,,,,,,,,,,,,,,,,,0,0,0,0,5,0,5,0,,,,,,,,,,,,,,,,,,,,,,,,,,,,,,,,,,,,,,,,,,,,,,,,872.1985176820017,,174,F,triangle,0.0024709629942663014,868.5398595249862,870.0462743869866,870.0462743869866,870.0462743869866,1,0,f,0.6260972940071952,0,870.6967103180068,,,,,,,,,,,,,,,,,,,,,,,,,,,,,,,,,,,,,,,,,,,,,,,,,22349,2022-11-11_14h55.54.570,vts_reward_expectancy_bt_OFFLINE,2022.2.4,59.92196243070936,
,,,,,,,,,,,,,,,,,,0,0,0,0,6,0,6,0,,,,,,,,,,,,,,,,,,,,,,,,,,,,,,,,,,,,,,,,,,,,,,,,876.8537901579984,,160,H,star,0.0015151429979596287,873.1774262420076,874.6846923099947,874.6846923099947,874.6846923099947,0,0,d,0.6437745929870289,0,875.3523981269973,,,,,,,,,,,,,,,,,,,,,,,,,,,,,,,,,,,,,,,,,,,,,,,,,22349,2022-11-11_14h55.54.570,vts_reward_expectancy_bt_OFFLINE,2022.2.4,59.92196243070936,
,,,,,,,,,,,,,,,,,,0,0,0,0,7,0,7,0,,,,,,,,,,,,,,,,,,,,,,,,,,,,,,,,,,,,,,,,,,,,,,,,881.6591857610038,,132,Y,circle,0.0008925049914978445,877.8339783209958,879.3399716659915,879.3399716659915,879.3399716659915,1,1,d,0.7927389889955521,0,880.1576687849883,,,,,,,,,,,,,,,,,,,,,,,,,,,,,,,,,,,,,,,,,,,,,,,,,22349,2022-11-11_14h55.54.570,vts_reward_expectancy_bt_OFFLINE,2022.2.4,59.92196243070936,
,,,,,,,,,,,,,,,,,,0,0,0,0,8,0,8,0,,,,,,,,,,,,,,,,,,,,,,,,,,,,,,,,,,,,,,,,,,,,,,,,886.3142180609866,,181,U,hexagon,0.001607121987035498,882.6388604899985,884.1454155519896,884.1454155519896,884.1454155519896,1,0,f,0.6348840190039482,0,884.8126586659928,,,,,,,,,,,,,,,,,,,,,,,,,,,,,,,,,,,,,,,,,,,,,,,,,22349,2022-11-11_14h55.54.570,vts_reward_expectancy_bt_OFFLINE,2022.2.4,59.92196243070936,
,,,,,,,,,,,,,,,,,,0,0,0,0,9,0,9,0,,,,,,,,,,,,,,,,,,,,,,,,,,,,,,,,,,,,,,,,,,,,,,,,890.9693745379918,,139,D,circle,0.0016563629906158894,887.2938341629924,888.8001055190107,888.8001055190107,888.8001055190107,1,0,d,0.6492832800140604,0,889.4676244090078,,,,,,,,,,,,,,,,,,,,,,,,,,,,,,,,,,,,,,,,,,,,,,,,,22349,2022-11-11_14h55.54.570,vts_reward_expectancy_bt_OFFLINE,2022.2.4,59.92196243070936,
,,,,,,,,,,,,,,,,,,,,,,,,,,0,0,0,0,0,0,0,0,,,,,,,,,,,,,,,,,,,,,,,,,,,,,,,,,,,,,,,,921.1521637699916,,139,Y,triangle,0.002282264002133161,,,,,1,0,,,1,919.6507864430023,,916.2431282780017,917.7488514609868,917.7488514609868,917.7488514609868,k,1.8736541600083,,,,,,,,,,,,,,,,,,,,,,,,,,,,,,,,,,,,,,,,,,22349,2022-11-11_14h55.54.570,vts_reward_expectancy_bt_OFFLINE,2022.2.4,59.92196243070936,
,,,,,,,,,,,,,,,,,,,,,,,,,,0,0,0,0,1,0,1,0,,,,,,,,,,,,,,,,,,,,,,,,,,,,,,,,,,,,,,,,927.2091108479945,,167,H,hexagon,0.0009590179834049195,,,,,1,0,,,1,925.7074476279959,,922.1319134509831,923.6385149319831,923.6385149319831,923.6385149319831,j,2.0366770710097626,,,,,,,,,,,,,,,,,,,,,,,,,,,,,,,,,,,,,,,,,,22349,2022-11-11_14h55.54.570,vts_reward_expectancy_bt_OFFLINE,2022.2.4,59.92196243070936,
,,,,,,,,,,,,,,,,,,,,,,,,,,0,0,0,0,2,0,2,0,,,,,,,,,,,,,,,,,,,,,,,,,,,,,,,,,,,,,,,,932.7651118520007,,132,F,circle,0.0015567929949611425,,,,,1,0,,,1,931.2638906979992,,928.1884734919877,929.6952469570097,929.6952469570097,929.6952469570097,j,1.5481415189860854,,,,,,,,,,,,,,,,,,,,,,,,,,,,,,,,,,,,,,,,,,22349,2022-11-11_14h55.54.570,vts_reward_expectancy_bt_OFFLINE,2022.2.4,59.92196243070936,
,,,,,,,,,,,,,,,,,,,,,,,,,,0,0,0,0,3,0,3,0,,,,,,,,,,,,,,,,,,,,,,,,,,,,,,,,,,,,,,,,939.7564968520019,,181,S,star,0.0014510790060739964,,,,,0,0,,,1,938.2548902269918,939.7564968520019,933.7442052660044,935.2513182949915,935.2513182949915,935.2513182949915,None,,938.2548902269918,938.2548902269918,938.2548902269918,938.2548902269918,940.2570967549982,,,,,,,,,,,,,,,,,,,,,,,,,,,,,,,,,,,,,22349,2022-11-11_14h55.54.570,vts_reward_expectancy_bt_OFFLINE,2022.2.4,59.92196243070936,
,,,,,,,,,,,,,,,,,,,,,,,,,,0,0,0,0,4,0,4,0,,,,,,,,,,,,,,,,,,,,,,,,,,,,,,,,,,,,,,,,945.7800461919978,,146,W,circle,0.008859389985445887,,,,,1,1,,,1,944.2780361269834,,940.7516118790081,942.2592445350019,942.2592445350019,942.2592445350019,k,2.0015669919957872,,,,,,,,,,,,,,,,,,,,,,,,,,,,,,,,,,,,,,,,,,22349,2022-11-11_14h55.54.570,vts_reward_expectancy_bt_OFFLINE,2022.2.4,59.92196243070936,
,,,,,,,,,,,,,,,,,,,,,,,,,,0,0,0,0,5,0,5,0,,,,,,,,,,,,,,,,,,,,,,,,,,,,,,,,,,,,,,,,952.6209894579952,,174,U,star,0.0017674859846010804,,,,,1,0,,,1,951.1188039970002,,946.7588054570078,948.2658802219958,948.2658802219958,948.2658802219958,k,2.8228007170255296,,,,,,,,,,,,,,,,,,,,,,,,,,,,,,,,,,,,,,,,,,22349,2022-11-11_14h55.54.570,vts_reward_expectancy_bt_OFFLINE,2022.2.4,59.92196243070936,
,,,,,,,,,,,,,,,,,,,,,,,,,,0,0,0,0,6,0,6,0,,,,,,,,,,,,,,,,,,,,,,,,,,,,,,,,,,,,,,,,957.4093392459909,,125,B,triangle,0.0017259269952774048,,,,,1,0,,,1,955.9080061200075,,953.6003186109883,955.1069041230076,955.1069041230076,955.1069041230076,j,0.7738059730036184,,,,,,,,,,,,,,,,,,,,,,,,,,,,,,,,,,,,,,,,,,22349,2022-11-11_14h55.54.570,vts_reward_expectancy_bt_OFFLINE,2022.2.4,59.92196243070936,
,,,,,,,,,,,,,,,,,,,,,,,,,,0,0,0,0,7,0,7,0,,,,,,,,,,,,,,,,,,,,,,,,,,,,,,,,,,,,,,,,962.2312477729865,,160,D,hexagon,0.0008544839802198112,,,,,1,0,,,1,960.7296931649907,,958.3869044449821,959.8954836089979,959.8954836089979,959.8954836089979,j,0.8017047240282409,,,,,,,,,,,,,,,,,,,,,,,,,,,,,,,,,,,,,,,,,,22349,2022-11-11_14h55.54.570,vts_reward_expectancy_bt_OFFLINE,2022.2.4,59.92196243070936,
,,,,,,,,,,,,,,,,,,,,,,,,,,0,0,0,0,8,0,8,0,,,,,,,,,,,,,,,,,,,,,,,,,,,,,,,,,,,,,,,,967.3871084959828,,139,Y,hexagon,0.0018473819945938885,,,,,1,0,,,1,965.8851781580015,,963.2108359109843,964.7176024070068,964.7176024070068,964.7176024070068,k,1.1437692590116058,,,,,,,,,,,,,,,,,,,,,,,,,,,,,,,,,,,,,,,,,,22349,2022-11-11_14h55.54.570,vts_reward_expectancy_bt_OFFLINE,2022.2.4,59.92196243070936,
,,,,,,,,,,,,,,,,,,,,,,,,,,0,0,0,0,9,0,9,0,,,,,,,,,,,,,,,,,,,,,,,,,,,,,,,,,,,,,,,,972.7925032429921,,167,H,triangle,0.0012348529999144375,,,,,1,0,,,1,971.2910364269919,,968.3679447339964,969.8729646099964,969.8729646099964,969.8729646099964,j,1.400914484023815,,,,,,,,,,,,,,,,,,,,,,,,,,,,,,,,,,,,,,,,,,22349,2022-11-11_14h55.54.570,vts_reward_expectancy_bt_OFFLINE,2022.2.4,59.92196243070936,
,,,,,,,,,,,,,,,,,,,,,,,,,,,,,,,,,,0,0,0,0,0,0,0,0,,,,,,,,,,,,,,,,,,,,,,,,,,,,0,909,,,1026.3522918160015,,146,B,hexagon,0.0022621400130447,,,,,-1,0,,,2,,,,,,,,,,,,,1026.8525566530006,1020.3439206449839,1020.3439206449839,1020.3439206449839,1020.3439206449839,1021.8470610679942,1021.8470610679942,1021.8470610679942,1021.8470610679942,1021.8470610679942,1021.8470610679942,1021.8470610679942,1021.8470610679942,1024.8512114129844,1024.8512114129844,1024.8512114129844,1024.8512114129844,-1,no_choice,NA,None,vtsPrac,1024.8512114129844,1026.3522918160015,,,,,,,,,,,,,,22349,2022-11-11_14h55.54.570,vts_reward_expectancy_bt_OFFLINE,2022.2.4,59.92196243070936,
,,,,,,,,,,,,,,,,,,,,,,,,,,,,,,,,,,0,0,0,0,1,0,1,0,,,,,,,,,,,,,,,,,,,,,,,,,,,,0,909,,,1033.359990063007,,160,F,triangle,0.008812704007141292,,,,,-1,0,,,2,,,,,,,,,,,,,,1027.3485144219885,1027.3485144219885,1027.3485144219885,1027.3485144219885,1028.8548466280045,1028.8548466280045,1028.8548466280045,1028.8548466280045,1028.8548466280045,1028.8548466280045,1028.8548466280045,1028.8548466280045,1031.858167442988,1031.858167442988,1031.858167442988,1031.858167442988,repeat,no_choice,NA,None,vtsPrac,1031.858167442988,1033.359990063007,,,,,,,,,,,,,,22349,2022-11-11_14h55.54.570,vts_reward_expectancy_bt_OFFLINE,2022.2.4,59.92196243070936,
,,,,,,,,,,,,,,,,,,,,,,,,,,,,,,,,,,0,0,0,0,2,0,2,0,,,,,,,,,,,,,,,,,,,,,,,,,,,,0,909,,,1040.351119539002,,181,W,star,0.0006227600097190589,,,,,-1,0,,,2,,,,,,,,,,,,,1040.8516283869976,1034.3394357009965,1034.3394357009965,1034.3394357009965,1034.3394357009965,1035.8460803930066,1035.8460803930066,1035.8460803930066,1035.8460803930066,1035.8460803930066,1035.8460803930066,1035.8460803930066,1035.8460803930066,1038.849412777985,1038.849412777985,1038.849412777985,1038.849412777985,repeat,no_choice,NA,None,vtsPrac,1038.849412777985,1040.351119539002,,,,,,,,,,,,,,22349,2022-11-11_14h55.54.570,vts_reward_expectancy_bt_OFFLINE,2022.2.4,59.92196243070936,
,,,,,,,,,,,,,,,,,,,,,,,,,,,,,,,,,,0,0,0,0,3,0,3,0,,,,,,,,,,,,,,,,,,,,,,,,,,,,0,909,,,1044.705659645988,,174,U,hexagon,0.007858800003305078,,,,,0,0,,,2,,,,,,,,,,,,,,1041.3482396059844,1041.3482396059844,1041.3482396059844,1041.3482396059844,1042.85348297999,1042.85348297999,1042.85348297999,1042.85348297999,1042.85348297999,1042.85348297999,1042.85348297999,1042.85348297999,,,,,switch,number,NA,d,vtsPrac,1043.2042370959825,,0.3193053819995839,,,,,,,,,,,,,22349,2022-11-11_14h55.54.570,vts_reward_expectancy_bt_OFFLINE,2022.2.4,59.92196243070936,
,,,,,,,,,,,,,,,,,,,,,,,,,,,,,,,,,,0,0,0,0,4,0,4,0,,,,,,,,,,,,,,,,,,,,,,,,,,,,0,909,,,1050.9455921869958,,146,B,star,0.0012438049889169633,,,,,1,1,,,2,,,,,,,,,,,,,,1045.684723571001,1045.684723571001,1045.684723571001,1045.684723571001,1047.1914763230016,1047.1914763230016,1047.1914763230016,1047.1914763230016,1047.1914763230016,1047.1914763230016,1047.1914763230016,1047.1914763230016,,,,,repeat,number,numRpt,d,vtsPrac,1049.4446087009856,,2.2359884539910126,,,,,,,,,,,,,22349,2022-11-11_14h55.54.570,vts_reward_expectancy_bt_OFFLINE,2022.2.4,59.92196243070936,
,,,,,,,,,,,,,,,,,,,,,,,,,,,,,,,,,,0,0,0,0,5,0,5,0,,,,,,,,,,,,,,,,,,,,,,,,,,,,0,909,,,1056.2015002919943,,160,F,triangle,0.0008491830085404217,,,,,1,0,,,2,,,,,,,,,,,,,,1051.9251803639927,1051.9251803639927,1051.9251803639927,1051.9251803639927,1053.4316861639963,1053.4316861639963,1053.4316861639963,1053.4316861639963,1053.4316861639963,1053.4316861639963,1053.4316861639963,1053.4316861639963,,,,,repeat,number,numRpt,f,vtsPrac,1054.6999411190045,,1.251115685008699,,,,,,,,,,,,,22349,2022-11-11_14h55.54.570,vts_reward_expectancy_bt_OFFLINE,2022.2.4,59.92196243070936,
,,,,,,,,,,,,,,,,,,,,,,,,,,,,,,,,,,0,0,0,0,6,0,6,0,,,,,,,,,,,,,,,,,,,,,,,,,,,,0,909,,,1061.1236392149876,,181,W,triangle,0.0016203109989874065,,,,,1,0,,,2,,,,,,,,,,,,,,1057.1815671259828,1057.1815671259828,1057.1815671259828,1057.1815671259828,1058.687778497988,1058.687778497988,1058.687778497988,1058.687778497988,1058.687778497988,1058.687778497988,1058.687778497988,1058.687778497988,,,,,repeat,number,numRpt,f,vtsPrac,1059.6218960809929,,0.9100332709786016,,,,,,,,,,,,,22349,2022-11-11_14h55.54.570,vts_reward_expectancy_bt_OFFLINE,2022.2.4,59.92196243070936,
,,,,,,,,,,,,,,,,,,,,,,,,,,,,,,,,,,0,0,0,0,7,0,7,0,,,,,,,,,,,,,,,,,,,,,,,,,,,,0,909,,,1065.9125437650073,,174,U,hexagon,0.0013640480174217373,,,,,1,0,,,2,,,,,,,,,,,,,,1062.1049260259897,1062.1049260259897,1062.1049260259897,1062.1049260259897,1063.6099250479892,1063.6099250479892,1063.6099250479892,1063.6099250479892,1063.6099250479892,1063.6099250479892,1063.6099250479892,1063.6099250479892,,,,,switch,letter,lettSwt,k,vtsPrac,1064.4105517900025,,0.7826222960138693,,,,,,,,,,,,,22349,2022-11-11_14h55.54.570,vts_reward_expectancy_bt_OFFLINE,2022.2.4,59.92196243070936,
,,,,,,,,,,,,,,,,,,,,,,,,,,,,,,,,,,0,0,0,0,8,0,8,0,,,,,,,,,,,,,,,,,,,,,,,,,,,,0,909,,,1070.6507912800007,,125,S,star,0.0016401010216213763,,,,,1,0,,,2,,,,,,,,,,,,,,1066.895806251996,1066.895806251996,1066.895806251996,1066.895806251996,1068.3983763080032,1068.3983763080032,1068.3983763080032,1068.3983763080032,1068.3983763080032,1068.3983763080032,1068.3983763080032,1068.3983763080032,,,,,switch,number,numSwt,d,vtsPrac,1069.1491371929878,,0.7286107509862632,,,,,,,,,,,,,22349,2022-11-11_14h55.54.570,vts_reward_expectancy_bt_OFFLINE,2022.2.4,59.92196243070936,
,,,,,,,,,,,,,,,,,,,,,,,,,,,,,,,,,,0,0,0,0,9,0,9,0,,,,,,,,,,,,,,,,,,,,,,,,,,,,0,909,,,1075.3394455859961,,139,D,triangle,0.0014158450067043304,,,,,1,0,,,2,,,,,,,,,,,,,,1071.632322866004,1071.632322866004,1071.632322866004,1071.632322866004,1073.1369793140038,1073.1369793140038,1073.1369793140038,1073.1369793140038,1073.1369793140038,1073.1369793140038,1073.1369793140038,1073.1369793140038,,,,,switch,letter,lettSwt,j,vtsPrac,1073.837667966989,1075.3394455859961,0.6706722500093747,,,,,,,,,,,,,22349,2022-11-11_14h55.54.570,vts_reward_expectancy_bt_OFFLINE,2022.2.4,59.92196243070936,
,,,,,,,,,,,,,,,,,,,,,,,,,,,,,,,,,,0,0,0,0,10,0,10,0,,,,,,,,,,,,,,,,,,,,,,,,,,,,0,909,,,1080.4284035270102,,181,Y,hexagon,0.0007379660091828555,,,,,1,0,,,2,,,,,,,,,,,,,,1076.3190144010005,1076.3190144010005,1076.3190144010005,1076.3190144010005,1077.825497932994,1077.825497932994,1077.825497932994,1077.825497932994,1077.825497932994,1077.825497932994,1077.825497932994,1077.825497932994,,,,,repeat,letter,lettRpt,k,vtsPrac,1078.926986535982,,1.0781120239989832,,,,,,,,,,,,,22349,2022-11-11_14h55.54.570,vts_reward_expectancy_bt_OFFLINE,2022.2.4,59.92196243070936,
,,,,,,,,,,,,,,,,,,,,,,,,,,,,,,,,,,0,0,0,0,11,0,11,0,,,,,,,,,,,,,,,,,,,,,,,,,,,,0,909,,,1085.4675650009885,,174,F,star,0.0014387329865712672,,,,,1,0,,,2,,,,,,,,,,,,,,1081.4078558989859,1081.4078558989859,1081.4078558989859,1081.4078558989859,1082.9147572139918,1082.9147572139918,1082.9147572139918,1082.9147572139918,1082.9147572139918,1082.9147572139918,1082.9147572139918,1082.9147572139918,,,,,repeat,letter,lettRpt,j,vtsPrac,1083.9656910249905,,1.0292345590132754,,,,,,,,,,,,,22349,2022-11-11_14h55.54.570,vts_reward_expectancy_bt_OFFLINE,2022.2.4,59.92196243070936,
,,,,,,,,,,,,,,,,,,,,,,,,,,,,,,,,,,0,0,0,0,12,0,12,0,,,,,,,,,,,,,,,,,,,,,,,,,,,,0,909,,,1090.5894480290008,,125,D,triangle,0.0017681260069366544,,,,,1,0,,,2,,,,,,,,,,,,,,1086.4463871560001,1086.4463871560001,1086.4463871560001,1086.4463871560001,1087.95322493001,1087.95322493001,1087.95322493001,1087.95322493001,1087.95322493001,1087.95322493001,1087.95322493001,1087.95322493001,,,,,switch,number,numSwt,d,vtsPrac,1089.0878231539973,,1.1091259579989128,,,,,,,,,,,,,22349,2022-11-11_14h55.54.570,vts_reward_expectancy_bt_OFFLINE,2022.2.4,59.92196243070936,
,,,,,,,,,,,,,,,,,,,,,,,,,,,,,,,,,,0,0,0,0,13,0,13,0,,,,,,,,,,,,,,,,,,,,,,,,,,,,0,909,,,1095.494710236002,,146,H,circle,0.0012669900024775416,,,,,0,0,,,2,,,,,,,,,,,,,,1091.5701551430102,1091.5701551430102,1091.5701551430102,1091.5701551430102,1093.075462015986,1093.075462015986,1093.075462015986,1093.075462015986,1093.075462015986,1093.075462015986,1093.075462015986,1093.075462015986,,,,,repeat,number,NA,f,vtsPrac,1093.9932832139893,,0.8929745249915868,,,,,,,,,,,,,22349,2022-11-11_14h55.54.570,vts_reward_expectancy_bt_OFFLINE,2022.2.4,59.92196243070936,
,,,,,,,,,,,,,,,,,,,,,,,,,,,,,,,,,,0,0,0,0,14,0,14,0,,,,,,,,,,,,,,,,,,,,,,,,,,,,0,909,,,1100.9841406249907,,160,U,star,0.001259095995919779,,,,,1,1,,,2,,,,,,,,,,,,,,1096.4752711119945,1096.4752711119945,1096.4752711119945,1096.4752711119945,1097.980869566003,1097.980869566003,1097.980869566003,1097.980869566003,1097.980869566003,1097.980869566003,1097.980869566003,1097.980869566003,,,,,switch,letter,lettSwt,k,vtsPrac,1099.482888797007,1100.9841406249907,1.4772992829966825,,,,,,,,,,,,,22349,2022-11-11_14h55.54.570,vts_reward_expectancy_bt_OFFLINE,2022.2.4,59.92196243070936,
,,,,,,,,,,,,,,,,,,,,,,,,,,,,,,,,,,0,0,0,0,15,0,15,0,,,,,,,,,,,,,,,,,,,,,,,,,,,,0,909,,,1106.0568897420017,,132,Y,circle,0.001139305008109659,,,,,1,0,,,2,,,,,,,,,,,,,,1101.963379680994,1101.963379680994,1101.963379680994,1101.963379680994,1103.4701571890037,1103.4701571890037,1103.4701571890037,1103.4701571890037,1103.4701571890037,1103.4701571890037,1103.4701571890037,1103.4701571890037,,,,,switch,number,numSwt,d,vtsPrac,1104.554875700007,,1.0518898490117863,,,,,,,,,,,,,22349,2022-11-11_14h55.54.570,vts_reward_expectancy_bt_OFFLINE,2022.2.4,59.92196243070936,
,,,,,,,,,,,,,,,,,,,,,,,,,,,,,,,,,,0,0,0,0,16,0,16,0,,,,,,,,,,,,,,,,,,,,,,,,,,,,0,909,,,1111.2454264039989,,146,S,hexagon,0.001362935989163816,,,,,1,0,,,2,,,,,,,,,,,,,,1107.0359392600076,1107.0359392600076,1107.0359392600076,1107.0359392600076,1108.5425947690092,1108.5425947690092,1108.5425947690092,1108.5425947690092,1108.5425947690092,1108.5425947690092,1108.5425947690092,1108.5425947690092,,,,,switch,letter,lettSwt,k,vtsPrac,1109.7438160770107,,1.1755029560008552,,,,,,,,,,,,,22349,2022-11-11_14h55.54.570,vts_reward_expectancy_bt_OFFLINE,2022.2.4,59.92196243070936,
,,,,,,,,,,,,,,,,,,,,,,,,,,,,,,,,,,0,0,0,0,17,0,17,0,,,,,,,,,,,,,,,,,,,,,,,,,,,,0,909,,,1116.45160149,,125,H,star,0.0009759629901964217,,,,,1,0,,,2,,,,,,,,,,,,,,1112.2252148859843,1112.2252148859843,1112.2252148859843,1112.2252148859843,1113.7315712049895,1113.7315712049895,1113.7315712049895,1113.7315712049895,1113.7315712049895,1113.7315712049895,1113.7315712049895,1113.7315712049895,,,,,repeat,letter,lettRpt,j,vtsPrac,1114.949526573997,1116.45160149,1.1849756439914927,,,,,,,,,,,,,22349,2022-11-11_14h55.54.570,vts_reward_expectancy_bt_OFFLINE,2022.2.4,59.92196243070936,
,,,,,,,,,,,,,,,,,,,,,,,,,,,,,,,,,,0,0,0,0,18,0,18,0,,,,,,,,,,,,,,,,,,,,,,,,,,,,0,909,,,1121.6906322840077,,139,W,hexagon,0.001464226981624961,,,,,1,0,,,2,,,,,,,,,,,,,,1117.4308455970022,1117.4308455970022,1117.4308455970022,1117.4308455970022,1118.937572683004,1118.937572683004,1118.937572683004,1118.937572683004,1118.937572683004,1118.937572683004,1118.937572683004,1118.937572683004,,,,,switch,number,numSwt,d,vtsPrac,1120.1889497969823,,1.2213789920206182,,,,,,,,,,,,,22349,2022-11-11_14h55.54.570,vts_reward_expectancy_bt_OFFLINE,2022.2.4,59.92196243070936,
,,,,,,,,,,,,,,,,,,,,,,,,,,,,,,,,,,0,0,0,0,19,0,19,0,,,,,,,,,,,,,,,,,,,,,,,,,,,,0,909,,,1126.979796694999,,174,Y,circle,0.001923676987644285,,,,,1,0,,,2,,,,,,,,,,,,,,1122.6718648579845,1122.6718648579845,1122.6718648579845,1122.6718648579845,1124.1769755829882,1124.1769755829882,1124.1769755829882,1124.1769755829882,1124.1769755829882,1124.1769755829882,1124.1769755829882,1124.1769755829882,,,,,repeat,number,numRpt,f,vtsPrac,1125.478223512997,,1.2690953420242295,,,,,,,,,,,,,22349,2022-11-11_14h55.54.570,vts_reward_expectancy_bt_OFFLINE,2022.2.4,59.92196243070936,
,,,,,,,,,,,,,,,,,,,,,,,,,,,,,,,,,,0,0,0,0,20,0,20,0,,,,,,,,,,,,,,,,,,,,,,,,,,,,0,909,,,1131.6848004519998,,125,D,circle,0.001828064996516332,,,,,1,0,,,2,,,,,,,,,,,,,,1127.9610827380093,1127.9610827380093,1127.9610827380093,1127.9610827380093,1129.4657993569854,1129.4657993569854,1129.4657993569854,1129.4657993569854,1129.4657993569854,1129.4657993569854,1129.4657993569854,1129.4657993569854,,,,,repeat,number,numRpt,d,vtsPrac,1130.1831609270012,,0.6940645299910102,,,,,,,,,,,,,22349,2022-11-11_14h55.54.570,vts_reward_expectancy_bt_OFFLINE,2022.2.4,59.92196243070936,
,,,,,,,,,,,,,,,,,,,,,,,,,,,,,,,,,,0,0,0,0,21,0,21,0,,,,,,,,,,,,,,,,,,,,,,,,,,,,0,909,,,1136.87395935299,,146,S,triangle,0.0015536049904767424,,,,,1,0,,,2,,,,,,,,,,,,,,1132.6661111300054,1132.6661111300054,1132.6661111300054,1132.6661111300054,1134.170853085001,1134.170853085001,1134.170853085001,1134.170853085001,1134.170853085001,1134.170853085001,1134.170853085001,1134.170853085001,,,,,repeat,number,numRpt,d,vtsPrac,1135.3723752000078,,1.1767803049879149,,,,,,,,,,,,,22349,2022-11-11_14h55.54.570,vts_reward_expectancy_bt_OFFLINE,2022.2.4,59.92196243070936,
,,,,,,,,,,,,,,,,,,,,,,,,,,,,,,,,,,0,0,0,0,22,0,22,0,,,,,,,,,,,,,,,,,,,,,,,,,,,,0,909,,,1141.5958017949888,,181,U,triangle,0.0015126750222407281,,,,,1,0,,,2,,,,,,,,,,,,,,1137.8535393119964,1137.8535393119964,1137.8535393119964,1137.8535393119964,1139.3601292670064,1139.3601292670064,1139.3601292670064,1139.3601292670064,1139.3601292670064,1139.3601292670064,1139.3601292670064,1139.3601292670064,,,,,repeat,number,numRpt,f,vtsPrac,1140.0940319490037,,0.7117586669919547,,,,,,,,,,,,,22349,2022-11-11_14h55.54.570,vts_reward_expectancy_bt_OFFLINE,2022.2.4,59.92196243070936,
,,,,,,,,,,,,,,,,,,,,,,,,,,,,,,,,,,0,0,0,0,23,0,23,0,,,,,,,,,,,,,,,,,,,,,,,,,,,,0,909,,,1146.4180471639847,,174,W,circle,0.0013682749995496124,,,,,1,0,,,2,,,,,,,,,,,,,1146.9183516060002,1142.5749474299955,1142.5749474299955,1142.5749474299955,1142.5749474299955,1144.0817887239973,1144.0817887239973,1144.0817887239973,1144.0817887239973,1144.0817887239973,1144.0817887239973,1144.0817887239973,1144.0817887239973,,,,,switch,letter,lettSwt,k,vtsPrac,1144.9160046190082,,0.8173404519911855,,,,,,,,,,,,,22349,2022-11-11_14h55.54.570,vts_reward_expectancy_bt_OFFLINE,2022.2.4,59.92196243070936,
,,,,,,,,,,,,,,,,,,,,,,,,,,,,,,,,,,0,0,0,0,24,0,24,0,,,,,,,,,,,,,,,,,,,,,,,,,,,,0,909,,,1151.173134518991,,174,U,circle,0.0012131620023865253,,,,,1,0,,,2,,,,,,,,,,,,,,1147.39915230099,1147.39915230099,1147.39915230099,1147.39915230099,1148.903723563999,1148.903723563999,1148.903723563999,1148.903723563999,1148.903723563999,1148.903723563999,1148.903723563999,1148.903723563999,,,,,repeat,letter,lettRpt,k,vtsPrac,1149.6714079869853,,0.743179513985524,,,,,,,,,,,,,22349,2022-11-11_14h55.54.570,vts_reward_expectancy_bt_OFFLINE,2022.2.4,59.92196243070936,
,,,,,,,,,,,,,,,,,,,,,,,,,,,,,,,,,,0,0,0,0,25,0,25,0,,,,,,,,,,,,,,,,,,,,,,,,,,,,0,909,,,1155.7447260470071,,146,B,hexagon,0.0016416240250691772,,,,,1,0,,,2,,,,,,,,,,,,,,1152.1546878709923,1152.1546878709923,1152.1546878709923,1152.1546878709923,1153.6591161550023,1153.6591161550023,1153.6591161550023,1153.6591161550023,1153.6591161550023,1153.6591161550023,1153.6591161550023,1153.6591161550023,,,,,repeat,letter,lettRpt,j,vtsPrac,1154.2428965989966,,0.5541039319941774,,,,,,,,,,,,,22349,2022-11-11_14h55.54.570,vts_reward_expectancy_bt_OFFLINE,2022.2.4,59.92196243070936,
,,,,,,,,,,,,,,,,,,,,,,,,,,,,,,,,,,0,0,0,0,26,0,26,0,,,,,,,,,,,,,,,,,,,,,,,,,,,,0,909,,,1160.533090929006,,139,F,hexagon,0.001551230001496151,,,,,1,0,,,2,,,,,,,,,,,,,,1156.7241566999874,1156.7241566999874,1156.7241566999874,1156.7241566999874,1158.2308712629892,1158.2308712629892,1158.2308712629892,1158.2308712629892,1158.2308712629892,1158.2308712629892,1158.2308712629892,1158.2308712629892,,,,,repeat,letter,lettRpt,j,vtsPrac,1159.0315469529887,,0.7750691680121236,,,,,,,,,,,,,22349,2022-11-11_14h55.54.570,vts_reward_expectancy_bt_OFFLINE,2022.2.4,59.92196243070936,
,,,,,,,,,,,,,,,,,,,,,,,,,,,,,,,,,,0,0,0,0,27,0,27,0,,,,,,,,,,,,,,,,,,,,,,,,,,,,0,909,,,1165.355386287003,,160,S,star,0.0016960359935183078,,,,,1,0,,,2,,,,,,,,,,,,,,1161.5143949860067,1161.5143949860067,1161.5143949860067,1161.5143949860067,1163.0193202249939,1163.0193202249939,1163.0193202249939,1163.0193202249939,1163.0193202249939,1163.0193202249939,1163.0193202249939,1163.0193202249939,,,,,switch,number,numSwt,f,vtsPrac,1163.8537195489916,,0.8140989219828043,,,,,,,,,,,,,22349,2022-11-11_14h55.54.570,vts_reward_expectancy_bt_OFFLINE,2022.2.4,59.92196243070936,
,,,,,,,,,,,,,,,,,,,,,,,,,,,,,,,,,,0,0,0,0,28,0,28,0,,,,,,,,,,,,,,,,,,,,,,,,,,,,0,909,,,1170.2939550520096,,139,D,hexagon,0.0013052819995209575,,,,,1,0,,,2,,,,,,,,,,,,,,1166.334565733996,1166.334565733996,1166.334565733996,1166.334565733996,1167.8411335730052,1167.8411335730052,1167.8411335730052,1167.8411335730052,1167.8411335730052,1167.8411335730052,1167.8411335730052,1167.8411335730052,,,,,switch,letter,lettSwt,j,vtsPrac,1168.7922009629838,1170.2939550520096,0.9188461610174272,,,,,,,,,,,,,22349,2022-11-11_14h55.54.570,vts_reward_expectancy_bt_OFFLINE,2022.2.4,59.92196243070936,
,,,,,,,,,,,,,,,,,,,,,,,,,,,,,,,,,,0,0,0,0,29,0,29,0,,,,,,,,,,,,,,,,,,,,,,,,,,,,0,909,,,1175.6999837659823,,181,S,circle,0.0006679170182906091,,,,,1,0,,,2,,,,,,,,,,,,,,1171.275071584998,1171.275071584998,1171.275071584998,1171.275071584998,1172.7798880409973,1172.7798880409973,1172.7798880409973,1172.7798880409973,1172.7798880409973,1172.7798880409973,1172.7798880409973,1172.7798880409973,,,,,repeat,letter,lettRpt,k,vtsPrac,1174.1984684859926,,1.3913885860238224,,,,,,,,,,,,,22349,2022-11-11_14h55.54.570,vts_reward_expectancy_bt_OFFLINE,2022.2.4,59.92196243070936,
,,,,,,,,,,,,,,,,,,,,,,,,,,,,,,,,,,0,0,0,0,30,0,30,0,,,,,,,,,,,,,,,,,,,,,,,,,,,,0,909,,,1181.0227014269913,,167,U,triangle,0.001898243004688993,,,,,1,0,,,2,,,,,,,,,,,,,,1176.678859593987,1176.678859593987,1176.678859593987,1176.678859593987,1178.1859139789885,1178.1859139789885,1178.1859139789885,1178.1859139789885,1178.1859139789885,1178.1859139789885,1178.1859139789885,1178.1859139789885,,,,,switch,number,numSwt,f,vtsPrac,1179.5209652670019,,1.307918790000258,,,,,,,,,,,,,22349,2022-11-11_14h55.54.570,vts_reward_expectancy_bt_OFFLINE,2022.2.4,59.92196243070936,
,,,,,,,,,,,,,,,,,,,,,,,,,,,,,,,,,,0,0,0,0,31,0,31,0,,,,,,,,,,,,,,,,,,,,,,,,,,,,0,909,,,1185.6775871670106,,174,B,star,0.001883555989479646,,,,,1,0,,,2,,,,,,,,,,,,,,1182.0019489869883,1182.0019489869883,1182.0019489869883,1182.0019489869883,1183.5089383519953,1183.5089383519953,1183.5089383519953,1183.5089383519953,1183.5089383519953,1183.5089383519953,1183.5089383519953,1183.5089383519953,,,,,repeat,number,numRpt,f,vtsPrac,1184.1761733699823,,0.6412602360069286,,,,,,,,,,,,,22349,2022-11-11_14h55.54.570,vts_reward_expectancy_bt_OFFLINE,2022.2.4,59.92196243070936,
,,,,,,,,,,,,,,,,,,,,,,,,,,,,,,,,,,,,,,,,,,0,0,0,0,,,,,,,,,,,,,,,,,,,,,,,,0,909,,,1225.7885646380018,,146,F,circle,0.0023353459837380797,,,,,1,0,,,,,,,,,,,,,,,,,1222.1299506739888,1222.1299506739888,1222.1299506739888,1222.1299506739888,1223.636131598003,1223.636131598003,1223.636131598003,1223.636131598003,1223.636131598003,1223.636131598003,1223.636131598003,1223.636131598003,,,,,repeat,number,numRpt,d,noRew,,,0.6227100789838005,0,1224.2869682580058,,,,,,,,,,,22349,2022-11-11_14h55.54.570,vts_reward_expectancy_bt_OFFLINE,2022.2.4,59.92196243070936,
