LTriangleOpac,LCircleOpac,LHexagonOpac,LStarOpac,RTriangleOpac,RCircleOpac,RHexagonOpac,RStarOpac,LShape_ID,RShape_ID,training_blocks.thisRepN,training_blocks.thisTrialN,training_blocks.thisN,training_blocks.thisIndex,training.thisRepN,training.thisTrialN,training.thisN,training.thisIndex,task1_prac_redo.thisRepN,task1_prac_redo.thisTrialN,task1_prac_redo.thisN,task1_prac_redo.thisIndex,task1_prac_trials.thisRepN,task1_prac_trials.thisTrialN,task1_prac_trials.thisN,task1_prac_trials.thisIndex,task2_prac_redo.thisRepN,task2_prac_redo.thisTrialN,task2_prac_redo.thisN,task2_prac_redo.thisIndex,task2_praac_trials.thisRepN,task2_praac_trials.thisTrialN,task2_praac_trials.thisN,task2_praac_trials.thisIndex,vts_prac_redo.thisRepN,vts_prac_redo.thisTrialN,vts_prac_redo.thisN,vts_prac_redo.thisIndex,vts_practice_trials.thisRepN,vts_practice_trials.thisTrialN,vts_practice_trials.thisN,vts_practice_trials.thisIndex,trials_norew.thisRepN,trials_norew.thisTrialN,trials_norew.thisN,trials_norew.thisIndex,block.thisRepN,block.thisTrialN,block.thisN,block.thisIndex,trials_rew.thisRepN,trials_rew.thisTrialN,trials_rew.thisN,trials_rew.thisIndex,key_resp.started,key_resp.keys,key_resp.rt,left_circle.started,right_circle.started,left_triangle.started,right_triangle.started,left_star.started,right_star.started,left_hexagon.started,right_hexagon.started,training_fix.started,training_resp.started,training_resp.keys,training_resp.rt,points_trial,points_cumul,trainBlock,training_feedback_txt.started,fix.started,training_feedback_txt.stopped,fix.stopped,curr_topStim,curr_bottStim,curr_shape,ISI.started,tgt_fix_prac1.started,top_target_prac1.started,bott_target_prac1.started,target_resp_prac1.started,top_target_prac1.stopped,tgt_fix_prac1.stopped,bott_target_prac1.stopped,target_resp_prac1.stopped,acc,E1,target_resp_prac1.keys,pracBlock,prac_fback_text.started,prac_fback_text.stopped,target_resp_prac1.rt,tgt_fix_prac2.started,top_target_prac2.started,bott_target_prac2.started,target_resp_prac2.started,target_resp_prac2.keys,target_resp_prac2.rt,star.started,hegagon.started,triangle.started,circle.started,top_target.started,tgt_fix.started,bot_target.started,target_resp.started,star.stopped,hegagon.stopped,triangle.stopped,circle.stopped,alt,task,condition,target_resp.keys,target_resp.rt,rewCond,vts_fback.started,vts_fback.stopped,blockNum,norew_fback.started,norew_fback.stopped,key_resp_2.keys,key_resp_2.rt,rewExpectancy,feedbk_text.started,feedbk_text.stopped,text_3.started,debrief.started,text_3.stopped,button.started,debrief.index,debrief.itemText,debrief.type,debrief.granularity,debrief.font,debrief.markerColor,debrief.response,debrief.rt,button.numClicks,button.timesOn,button.timesOff,participant,date,expName,psychopyVersion,frameRate,
,,,,,,,,,,,,,,,,,,,,,,,,,,,,,,,,,,,,,,,,,,,,,,,,,,,,,,928.105072453036,space,37.40008319995832,,,,,,,,,,,,,,,,,,,,,,,,,,,,,,,,,,,,,,,,,,,,,,,,,,,,,,,,,,,,,,,,,,,,,,,,,,,,,,,,,,,,,,,,22944,2022-11-03_11h17.52.609,vts_reward_expectancy_bt_OFFLINE,2022.2.4,60.245978051680225,
0,0,0,1,0,0,1,0,star,hexagon,0,0,0,0,0,0,0,11,,,,,,,,,,,,,,,,,,,,,,,,,,,,,,,,,,,,,,,,988.5720028129872,988.5720028129872,988.5720028129872,988.5720028129872,988.5720028129872,988.5720028129872,988.5720028129872,988.5720028129872,988.5720028129872,988.5720028129872,a,1.5383518299786374,1,1,0,990.1401601230027,991.6418192420388,,,,,,,,,,,,,,,,,,,,,,,,,,,,,,,,,,,,,,,,,,,,,,,,,,,,,,,,,,,,,,,,,,,,,,,22944,2022-11-03_11h17.52.609,vts_reward_expectancy_bt_OFFLINE,2022.2.4,60.245978051680225,
0,1,0,0,0,0,1,0,circle,hexagon,0,0,0,0,0,1,1,4,,,,,,,,,,,,,,,,,,,,,,,,,,,,,,,,,,,,,,,,992.1423724250635,992.1423724250635,992.1423724250635,992.1423724250635,992.1423724250635,992.1423724250635,992.1423724250635,992.1423724250635,992.1423724250635,992.1423724250635,a,2.11009055795148,1,2,0,994.2782627460547,995.7798096510815,,,,,,,,,,,,,,,,,,,,,,,,,,,,,,,,,,,,,,,,,,,,,,,,,,,,,,,,,,,,,,,,,,,,,,,22944,2022-11-03_11h17.52.609,vts_reward_expectancy_bt_OFFLINE,2022.2.4,60.245978051680225,
0,0,1,0,1,0,0,0,hexagon,triangle,0,0,0,0,0,2,2,6,,,,,,,,,,,,,,,,,,,,,,,,,,,,,,,,,,,,,,,,996.2805546360323,996.2805546360323,996.2805546360323,996.2805546360323,996.2805546360323,996.2805546360323,996.2805546360323,996.2805546360323,996.2805546360323,996.2805546360323,l,1.480990724870935,1,3,0,997.7819667049916,999.2835862979991,,,,,,,,,,,,,,,,,,,,,,,,,,,,,,,,,,,,,,,,,,,,,,,,,,,,,,,,,,,,,,,,,,,,,,,22944,2022-11-03_11h17.52.609,vts_reward_expectancy_bt_OFFLINE,2022.2.4,60.245978051680225,
0,0,1,0,0,0,0,1,hexagon,star,0,0,0,0,0,3,3,8,,,,,,,,,,,,,,,,,,,,,,,,,,,,,,,,,,,,,,,,999.7840469049988,999.7840469049988,999.7840469049988,999.7840469049988,999.7840469049988,999.7840469049988,999.7840469049988,999.7840469049988,999.7840469049988,999.7840469049988,a,1.9709851728985086,10,13,0,1001.7864900280256,1003.2880820609862,,,,,,,,,,,,,,,,,,,,,,,,,,,,,,,,,,,,,,,,,,,,,,,,,,,,,,,,,,,,,,,,,,,,,,,22944,2022-11-03_11h17.52.609,vts_reward_expectancy_bt_OFFLINE,2022.2.4,60.245978051680225,
1,0,0,0,0,0,0,1,triangle,star,0,0,0,0,0,4,4,2,,,,,,,,,,,,,,,,,,,,,,,,,,,,,,,,,,,,,,,,1003.7886681410018,1003.7886681410018,1003.7886681410018,1003.7886681410018,1003.7886681410018,1003.7886681410018,1003.7886681410018,1003.7886681410018,1003.7886681410018,1003.7886681410018,l,2.0054713720455766,10,23,0,1005.8243978020037,1007.3257277130615,,,,,,,,,,,,,,,,,,,,,,,,,,,,,,,,,,,,,,,,,,,,,,,,,,,,,,,,,,,,,,,,,,,,,,,22944,2022-11-03_11h17.52.609,vts_reward_expectancy_bt_OFFLINE,2022.2.4,60.245978051680225,
0,1,0,0,0,0,0,1,circle,star,0,0,0,0,0,5,5,5,,,,,,,,,,,,,,,,,,,,,,,,,,,,,,,,,,,,,,,,1007.8263438510476,1007.8263438510476,1007.8263438510476,1007.8263438510476,1007.8263438510476,1007.8263438510476,1007.8263438510476,1007.8263438510476,1007.8263438510476,1007.8263438510476,a,3.154555458924733,10,33,0,1011.0131753970636,1012.5147600399796,,,,,,,,,,,,,,,,,,,,,,,,,,,,,,,,,,,,,,,,,,,,,,,,,,,,,,,,,,,,,,,,,,,,,,,22944,2022-11-03_11h17.52.609,vts_reward_expectancy_bt_OFFLINE,2022.2.4,60.245978051680225,
0,0,0,1,0,1,0,0,star ,circle,0,0,0,0,0,6,6,10,,,,,,,,,,,,,,,,,,,,,,,,,,,,,,,,,,,,,,,,1013.0153366860468,1013.0153366860468,1013.0153366860468,1013.0153366860468,1013.0153366860468,1013.0153366860468,1013.0153366860468,1013.0153366860468,1013.0153366860468,1013.0153366860468,l,5.3138905769446865,10,43,0,1018.3546110310126,1019.8563690350857,,,,,,,,,,,,,,,,,,,,,,,,,,,,,,,,,,,,,,,,,,,,,,,,,,,,,,,,,,,,,,,,,,,,,,,22944,2022-11-03_11h17.52.609,vts_reward_expectancy_bt_OFFLINE,2022.2.4,60.245978051680225,
1,0,0,0,0,1,0,0,triangle,circle,0,0,0,0,0,7,7,0,,,,,,,,,,,,,,,,,,,,,,,,,,,,,,,,,,,,,,,,1020.3568663980113,1020.3568663980113,1020.3568663980113,1020.3568663980113,1020.3568663980113,1020.3568663980113,1020.3568663980113,1020.3568663980113,1020.3568663980113,1020.3568663980113,l,2.729992337990552,10,53,0,1023.1099830280291,1024.6115997980814,,,,,,,,,,,,,,,,,,,,,,,,,,,,,,,,,,,,,,,,,,,,,,,,,,,,,,,,,,,,,,,,,,,,,,,22944,2022-11-03_11h17.52.609,vts_reward_expectancy_bt_OFFLINE,2022.2.4,60.245978051680225,
0,0,0,1,1,0,0,0,star,triangle,0,0,0,0,0,8,8,9,,,,,,,,,,,,,,,,,,,,,,,,,,,,,,,,,,,,,,,,1025.1121452280786,1025.1121452280786,1025.1121452280786,1025.1121452280786,1025.1121452280786,1025.1121452280786,1025.1121452280786,1025.1121452280786,1025.1121452280786,1025.1121452280786,l,4.153320943936706,10,63,0,1029.2833444420248,1030.7850013980642,,,,,,,,,,,,,,,,,,,,,,,,,,,,,,,,,,,,,,,,,,,,,,,,,,,,,,,,,,,,,,,,,,,,,,,22944,2022-11-03_11h17.52.609,vts_reward_expectancy_bt_OFFLINE,2022.2.4,60.245978051680225,
1,0,0,0,0,0,1,0,triangle,hexagon,0,0,0,0,0,9,9,1,,,,,,,,,,,,,,,,,,,,,,,,,,,,,,,,,,,,,,,,1031.285654693027,1031.285654693027,1031.285654693027,1031.285654693027,1031.285654693027,1031.285654693027,1031.285654693027,1031.285654693027,1031.285654693027,1031.285654693027,a,3.491228765924461,1,64,0,1034.8061650620075,1036.307898405008,,,,,,,,,,,,,,,,,,,,,,,,,,,,,,,,,,,,,,,,,,,,,,,,,,,,,,,,,,,,,,,,,,,,,,,22944,2022-11-03_11h17.52.609,vts_reward_expectancy_bt_OFFLINE,2022.2.4,60.245978051680225,
0,1,0,0,1,0,0,0,circle,triangle,0,0,0,0,0,10,10,3,,,,,,,,,,,,,,,,,,,,,,,,,,,,,,,,,,,,,,,,1036.8083971700398,1036.8083971700398,1036.8083971700398,1036.8083971700398,1036.8083971700398,1036.8083971700398,1036.8083971700398,1036.8083971700398,1036.8083971700398,1036.8083971700398,a,2.142839779960923,10,74,0,1038.9774449750548,1040.4791910650674,,,,,,,,,,,,,,,,,,,,,,,,,,,,,,,,,,,,,,,,,,,,,,,,,,,,,,,,,,,,,,,,,,,,,,,22944,2022-11-03_11h17.52.609,vts_reward_expectancy_bt_OFFLINE,2022.2.4,60.245978051680225,
0,0,1,0,0,1,0,0,hexagon,circle,0,0,0,0,0,11,11,7,,,,,,,,,,,,,,,,,,,,,,,,,,,,,,,,,,,,,,,,1040.9796885730466,1040.9796885730466,1040.9796885730466,1040.9796885730466,1040.9796885730466,1040.9796885730466,1040.9796885730466,1040.9796885730466,1040.9796885730466,1040.9796885730466,l,1.9307474059751257,10,84,0,1042.9319865650032,1044.433672187035,,,,,,,,,,,,,,,,,,,,,,,,,,,,,,,,,,,,,,,,,,,,,,,,,,,,,,,,,,,,,,,,,,,,,,,22944,2022-11-03_11h17.52.609,vts_reward_expectancy_bt_OFFLINE,2022.2.4,60.245978051680225,
0,0,0,1,0,1,0,0,star ,circle,0,0,0,0,1,0,12,10,,,,,,,,,,,,,,,,,,,,,,,,,,,,,,,,,,,,,,,,1044.9341761200922,1044.9341761200922,1044.9341761200922,1044.9341761200922,1044.9341761200922,1044.9341761200922,1044.9341761200922,1044.9341761200922,1044.9341761200922,1044.9341761200922,l,1.2515733409672976,1,85,0,1046.2021227030782,1047.703848571051,1047.703848571051,,,,,,,,,,,,,,,,,,,,,,,,,,,,,,,,,,,,,,,,,,,,,,,,,,,,,,,,,,,,,,,,,,,,,,22944,2022-11-03_11h17.52.609,vts_reward_expectancy_bt_OFFLINE,2022.2.4,60.245978051680225,
1,0,0,0,0,1,0,0,triangle,circle,0,0,0,0,1,1,13,0,,,,,,,,,,,,,,,,,,,,,,,,,,,,,,,,,,,,,,,,1048.2042780370684,1048.2042780370684,1048.2042780370684,1048.2042780370684,1048.2042780370684,1048.2042780370684,1048.2042780370684,1048.2042780370684,1048.2042780370684,1048.2042780370684,l,1.7717935759574175,1,86,0,1050.0063255050918,1051.5078537870431,,,,,,,,,,,,,,,,,,,,,,,,,,,,,,,,,,,,,,,,,,,,,,,,,,,,,,,,,,,,,,,,,,,,,,,22944,2022-11-03_11h17.52.609,vts_reward_expectancy_bt_OFFLINE,2022.2.4,60.245978051680225,
0,1,0,0,0,0,1,0,circle,hexagon,0,0,0,0,1,2,14,4,,,,,,,,,,,,,,,,,,,,,,,,,,,,,,,,,,,,,,,,1052.0083763770526,1052.0083763770526,1052.0083763770526,1052.0083763770526,1052.0083763770526,1052.0083763770526,1052.0083763770526,1052.0083763770526,1052.0083763770526,1052.0083763770526,a,2.1438365399371833,10,96,0,1054.1777353680227,1055.6791640820447,,,,,,,,,,,,,,,,,,,,,,,,,,,,,,,,,,,,,,,,,,,,,,,,,,,,,,,,,,,,,,,,,,,,,,,22944,2022-11-03_11h17.52.609,vts_reward_expectancy_bt_OFFLINE,2022.2.4,60.245978051680225,
0,1,0,0,0,0,0,1,circle,star,0,0,0,0,1,3,15,5,,,,,,,,,,,,,,,,,,,,,,,,,,,,,,,,,,,,,,,,1056.179931582068,1056.179931582068,1056.179931582068,1056.179931582068,1056.179931582068,1056.179931582068,1056.179931582068,1056.179931582068,1056.179931582068,1056.179931582068,l,3.011173350038007,10,106,0,1059.2165200180607,1060.7180709850509,,,,,,,,,,,,,,,,,,,,,,,,,,,,,,,,,,,,,,,,,,,,,,,,,,,,,,,,,,,,,,,,,,,,,,,22944,2022-11-03_11h17.52.609,vts_reward_expectancy_bt_OFFLINE,2022.2.4,60.245978051680225,
0,1,0,0,1,0,0,0,circle,triangle,0,0,0,0,1,4,16,3,,,,,,,,,,,,,,,,,,,,,,,,,,,,,,,,,,,,,,,,1061.218620312051,1061.218620312051,1061.218620312051,1061.218620312051,1061.218620312051,1061.218620312051,1061.218620312051,1061.218620312051,1061.218620312051,1061.218620312051,a,1.9334511138731614,1,107,0,1063.1708790049888,1064.672387222061,1064.672387222061,,,,,,,,,,,,,,,,,,,,,,,,,,,,,,,,,,,,,,,,,,,,,,,,,,,,,,,,,,,,,,,,,,,,,,22944,2022-11-03_11h17.52.609,vts_reward_expectancy_bt_OFFLINE,2022.2.4,60.245978051680225,
0,0,0,1,1,0,0,0,star,triangle,0,0,0,0,1,5,17,9,,,,,,,,,,,,,,,,,,,,,,,,,,,,,,,,,,,,,,,,1065.173102571047,1065.173102571047,1065.173102571047,1065.173102571047,1065.173102571047,1065.173102571047,1065.173102571047,1065.173102571047,1065.173102571047,1065.173102571047,a,1.3422527549555525,10,117,0,1066.5409841700457,1068.0429631570587,,,,,,,,,,,,,,,,,,,,,,,,,,,,,,,,,,,,,,,,,,,,,,,,,,,,,,,,,,,,,,,,,,,,,,,22944,2022-11-03_11h17.52.609,vts_reward_expectancy_bt_OFFLINE,2022.2.4,60.245978051680225,
0,0,1,0,0,0,0,1,hexagon,star,0,0,0,0,1,6,18,8,,,,,,,,,,,,,,,,,,,,,,,,,,,,,,,,,,,,,,,,1068.543361457996,1068.543361457996,1068.543361457996,1068.543361457996,1068.543361457996,1068.543361457996,1068.543361457996,1068.543361457996,1068.543361457996,1068.543361457996,l,3.65517831989564,1,118,0,1072.2307377370307,1073.7325191349955,,,,,,,,,,,,,,,,,,,,,,,,,,,,,,,,,,,,,,,,,,,,,,,,,,,,,,,,,,,,,,,,,,,,,,,22944,2022-11-03_11h17.52.609,vts_reward_expectancy_bt_OFFLINE,2022.2.4,60.245978051680225,
1,0,0,0,0,0,1,0,triangle,hexagon,0,0,0,0,1,7,19,1,,,,,,,,,,,,,,,,,,,,,,,,,,,,,,,,,,,,,,,,1074.2330563269788,1074.2330563269788,1074.2330563269788,1074.2330563269788,1074.2330563269788,1074.2330563269788,1074.2330563269788,1074.2330563269788,1074.2330563269788,1074.2330563269788,l,9.41771510685794,1,119,0,1083.6769031180302,1085.1783132679993,,,,,,,,,,,,,,,,,,,,,,,,,,,,,,,,,,,,,,,,,,,,,,,,,,,,,,,,,,,,,,,,,,,,,,,22944,2022-11-03_11h17.52.609,vts_reward_expectancy_bt_OFFLINE,2022.2.4,60.245978051680225,
0,0,0,1,0,0,1,0,star,hexagon,0,0,0,0,1,8,20,11,,,,,,,,,,,,,,,,,,,,,,,,,,,,,,,,,,,,,,,,1085.6789595810696,1085.6789595810696,1085.6789595810696,1085.6789595810696,1085.6789595810696,1085.6789595810696,1085.6789595810696,1085.6789595810696,1085.6789595810696,1085.6789595810696,a,1.4359338349895552,1,120,0,1087.147149919998,1088.6490523060784,,,,,,,,,,,,,,,,,,,,,,,,,,,,,,,,,,,,,,,,,,,,,,,,,,,,,,,,,,,,,,,,,,,,,,,22944,2022-11-03_11h17.52.609,vts_reward_expectancy_bt_OFFLINE,2022.2.4,60.245978051680225,
1,0,0,0,0,0,0,1,triangle,star,0,0,0,0,1,9,21,2,,,,,,,,,,,,,,,,,,,,,,,,,,,,,,,,,,,,,,,,1089.1493384880014,1089.1493384880014,1089.1493384880014,1089.1493384880014,1089.1493384880014,1089.1493384880014,1089.1493384880014,1089.1493384880014,1089.1493384880014,1089.1493384880014,l,1.5334573748987168,1,121,0,1090.701322715031,1092.202762571047,,,,,,,,,,,,,,,,,,,,,,,,,,,,,,,,,,,,,,,,,,,,,,,,,,,,,,,,,,,,,,,,,,,,,,,22944,2022-11-03_11h17.52.609,vts_reward_expectancy_bt_OFFLINE,2022.2.4,60.245978051680225,
0,0,1,0,0,1,0,0,hexagon,circle,0,0,0,0,1,10,22,7,,,,,,,,,,,,,,,,,,,,,,,,,,,,,,,,,,,,,,,,1092.7034368950408,1092.7034368950408,1092.7034368950408,1092.7034368950408,1092.7034368950408,1092.7034368950408,1092.7034368950408,1092.7034368950408,1092.7034368950408,1092.7034368950408,l,0.8472417569719255,1,122,0,1093.5709970049793,1095.0726305510616,,,,,,,,,,,,,,,,,,,,,,,,,,,,,,,,,,,,,,,,,,,,,,,,,,,,,,,,,,,,,,,,,,,,,,,22944,2022-11-03_11h17.52.609,vts_reward_expectancy_bt_OFFLINE,2022.2.4,60.245978051680225,
0,0,1,0,1,0,0,0,hexagon,triangle,0,0,0,0,1,11,23,6,,,,,,,,,,,,,,,,,,,,,,,,,,,,,,,,,,,,,,,,1095.573135041981,1095.573135041981,1095.573135041981,1095.573135041981,1095.573135041981,1095.573135041981,1095.573135041981,1095.573135041981,1095.573135041981,1095.573135041981,a,1.8700811689486727,1,123,0,1097.4752790260827,1098.9770311859902,,,,,,,,,,,,,,,,,,,,,,,,,,,,,,,,,,,,,,,,,,,,,,,,,,,,,,,,,,,,,,,,,,,,,,,22944,2022-11-03_11h17.52.609,vts_reward_expectancy_bt_OFFLINE,2022.2.4,60.245978051680225,
0,0,0,1,0,0,1,0,star,hexagon,0,0,0,0,2,0,24,11,,,,,,,,,,,,,,,,,,,,,,,,,,,,,,,,,,,,,,,,1099.4773639619816,1099.4773639619816,1099.4773639619816,1099.4773639619816,1099.4773639619816,1099.4773639619816,1099.4773639619816,1099.4773639619816,1099.4773639619816,1099.4773639619816,a,1.0372060448862612,1,124,0,1100.5452152980724,1102.0471424850402,,,,,,,,,,,,,,,,,,,,,,,,,,,,,,,,,,,,,,,,,,,,,,,,,,,,,,,,,,,,,,,,,,,,,,,22944,2022-11-03_11h17.52.609,vts_reward_expectancy_bt_OFFLINE,2022.2.4,60.245978051680225,
0,1,0,0,0,0,0,1,circle,star,0,0,0,0,2,1,25,5,,,,,,,,,,,,,,,,,,,,,,,,,,,,,,,,,,,,,,,,1102.5477845279966,1102.5477845279966,1102.5477845279966,1102.5477845279966,1102.5477845279966,1102.5477845279966,1102.5477845279966,1102.5477845279966,1102.5477845279966,1102.5477845279966,l,2.164051881991327,10,134,0,1104.733309542993,1106.2349736529868,,,,,,,,,,,,,,,,,,,,,,,,,,,,,,,,,,,,,,,,,,,,,,,,,,,,,,,,,,,,,,,,,,,,,,,22944,2022-11-03_11h17.52.609,vts_reward_expectancy_bt_OFFLINE,2022.2.4,60.245978051680225,
0,1,0,0,1,0,0,0,circle,triangle,0,0,0,0,2,2,26,3,,,,,,,,,,,,,,,,,,,,,,,,,,,,,,,,,,,,,,,,1106.7354565360583,1106.7354565360583,1106.7354565360583,1106.7354565360583,1106.7354565360583,1106.7354565360583,1106.7354565360583,1106.7354565360583,1106.7354565360583,1106.7354565360583,l,1.845937693840824,10,144,0,1108.6041721720248,1110.1059446880827,1110.1059446880827,,,,,,,,,,,,,,,,,,,,,,,,,,,,,,,,,,,,,,,,,,,,,,,,,,,,,,,,,,,,,,,,,,,,,,22944,2022-11-03_11h17.52.609,vts_reward_expectancy_bt_OFFLINE,2022.2.4,60.245978051680225,
0,0,1,0,0,0,0,1,hexagon,star,0,0,0,0,2,3,27,8,,,,,,,,,,,,,,,,,,,,,,,,,,,,,,,,,,,,,,,,1110.6064296200639,1110.6064296200639,1110.6064296200639,1110.6064296200639,1110.6064296200639,1110.6064296200639,1110.6064296200639,1110.6064296200639,1110.6064296200639,1110.6064296200639,a,1.3519357899203897,10,154,0,1111.9747481860686,1113.4763950570486,1113.4763950570486,,,,,,,,,,,,,,,,,,,,,,,,,,,,,,,,,,,,,,,,,,,,,,,,,,,,,,,,,,,,,,,,,,,,,,22944,2022-11-03_11h17.52.609,vts_reward_expectancy_bt_OFFLINE,2022.2.4,60.245978051680225,
1,0,0,0,0,0,0,1,triangle,star,0,0,0,0,2,4,28,2,,,,,,,,,,,,,,,,,,,,,,,,,,,,,,,,,,,,,,,,1113.9767758860253,1113.9767758860253,1113.9767758860253,1113.9767758860253,1113.9767758860253,1113.9767758860253,1113.9767758860253,1113.9767758860253,1113.9767758860253,1113.9767758860253,l,2.053313851938583,1,155,0,1116.0623994510388,1117.5641055080341,,,,,,,,,,,,,,,,,,,,,,,,,,,,,,,,,,,,,,,,,,,,,,,,,,,,,,,,,,,,,,,,,,,,,,,22944,2022-11-03_11h17.52.609,vts_reward_expectancy_bt_OFFLINE,2022.2.4,60.245978051680225,
1,0,0,0,0,0,1,0,triangle,hexagon,0,0,0,0,2,5,29,1,,,,,,,,,,,,,,,,,,,,,,,,,,,,,,,,,,,,,,,,1118.0649220930645,1118.0649220930645,1118.0649220930645,1118.0649220930645,1118.0649220930645,1118.0649220930645,1118.0649220930645,1118.0649220930645,1118.0649220930645,1118.0649220930645,a,1.9931575298542157,10,165,0,1120.08364616998,1121.5851809650194,,,,,,,,,,,,,,,,,,,,,,,,,,,,,,,,,,,,,,,,,,,,,,,,,,,,,,,,,,,,,,,,,,,,,,,22944,2022-11-03_11h17.52.609,vts_reward_expectancy_bt_OFFLINE,2022.2.4,60.245978051680225,
0,0,1,0,1,0,0,0,hexagon,triangle,0,0,0,0,2,6,30,6,,,,,,,,,,,,,,,,,,,,,,,,,,,,,,,,,,,,,,,,1122.085943127051,1122.085943127051,1122.085943127051,1122.085943127051,1122.085943127051,1122.085943127051,1122.085943127051,1122.085943127051,1122.085943127051,1122.085943127051,a,1.7420389929320663,1,166,0,1123.8544586000498,1125.3561471879948,,,,,,,,,,,,,,,,,,,,,,,,,,,,,,,,,,,,,,,,,,,,,,,,,,,,,,,,,,,,,,,,,,,,,,,22944,2022-11-03_11h17.52.609,vts_reward_expectancy_bt_OFFLINE,2022.2.4,60.245978051680225,
0,0,1,0,0,1,0,0,hexagon,circle,0,0,0,0,2,7,31,7,,,,,,,,,,,,,,,,,,,,,,,,,,,,,,,,,,,,,,,,1125.8566765630385,1125.8566765630385,1125.8566765630385,1125.8566765630385,1125.8566765630385,1125.8566765630385,1125.8566765630385,1125.8566765630385,1125.8566765630385,1125.8566765630385,a,2.2562946119578555,1,167,0,1128.1424522050656,1129.644198531052,,,,,,,,,,,,,,,,,,,,,,,,,,,,,,,,,,,,,,,,,,,,,,,,,,,,,,,,,,,,,,,,,,,,,,,22944,2022-11-03_11h17.52.609,vts_reward_expectancy_bt_OFFLINE,2022.2.4,60.245978051680225,
0,0,0,1,1,0,0,0,star,triangle,0,0,0,0,2,8,32,9,,,,,,,,,,,,,,,,,,,,,,,,,,,,,,,,,,,,,,,,1130.144581397064,1130.144581397064,1130.144581397064,1130.144581397064,1130.144581397064,1130.144581397064,1130.144581397064,1130.144581397064,1130.144581397064,1130.144581397064,l,2.23355006496422,1,168,0,1132.397352782078,1133.898810210987,,,,,,,,,,,,,,,,,,,,,,,,,,,,,,,,,,,,,,,,,,,,,,,,,,,,,,,,,,,,,,,,,,,,,,,22944,2022-11-03_11h17.52.609,vts_reward_expectancy_bt_OFFLINE,2022.2.4,60.245978051680225,
0,1,0,0,0,0,1,0,circle,hexagon,0,0,0,0,2,9,33,4,,,,,,,,,,,,,,,,,,,,,,,,,,,,,,,,,,,,,,,,1134.3993126350688,1134.3993126350688,1134.3993126350688,1134.3993126350688,1134.3993126350688,1134.3993126350688,1134.3993126350688,1134.3993126350688,1134.3993126350688,1134.3993126350688,a,1.3191919279051945,1,169,0,1135.7509503900073,1137.2524870979832,,,,,,,,,,,,,,,,,,,,,,,,,,,,,,,,,,,,,,,,,,,,,,,,,,,,,,,,,,,,,,,,,,,,,,,22944,2022-11-03_11h17.52.609,vts_reward_expectancy_bt_OFFLINE,2022.2.4,60.245978051680225,
0,0,0,1,0,1,0,0,star ,circle,0,0,0,0,2,10,34,10,,,,,,,,,,,,,,,,,,,,,,,,,,,,,,,,,,,,,,,,1137.7529834010638,1137.7529834010638,1137.7529834010638,1137.7529834010638,1137.7529834010638,1137.7529834010638,1137.7529834010638,1137.7529834010638,1137.7529834010638,1137.7529834010638,a,3.782483352930285,1,170,0,1141.557344462024,1143.0588948180666,,,,,,,,,,,,,,,,,,,,,,,,,,,,,,,,,,,,,,,,,,,,,,,,,,,,,,,,,,,,,,,,,,,,,,,22944,2022-11-03_11h17.52.609,vts_reward_expectancy_bt_OFFLINE,2022.2.4,60.245978051680225,
1,0,0,0,0,1,0,0,triangle,circle,0,0,0,0,2,11,35,0,,,,,,,,,,,,,,,,,,,,,,,,,,,,,,,,,,,,,,,,1143.5595737780677,1143.5595737780677,1143.5595737780677,1143.5595737780677,1143.5595737780677,1143.5595737780677,1143.5595737780677,1143.5595737780677,1143.5595737780677,1143.5595737780677,a,2.353318530949764,10,180,0,1145.9453614850063,1147.4469774010358,,,,,,,,,,,,,,,,,,,,,,,,,,,,,,,,,,,,,,,,,,,,,,,,,,,,,,,,,,,,,,,,,,,,,,,22944,2022-11-03_11h17.52.609,vts_reward_expectancy_bt_OFFLINE,2022.2.4,60.245978051680225,
0,0,0,1,0,0,1,0,star,hexagon,0,0,0,0,3,0,36,11,,,,,,,,,,,,,,,,,,,,,,,,,,,,,,,,,,,,,,,,1147.9477115450427,1147.9477115450427,1147.9477115450427,1147.9477115450427,1147.9477115450427,1147.9477115450427,1147.9477115450427,1147.9477115450427,1147.9477115450427,1147.9477115450427,a,10.43033987598028,1,181,0,1158.4092567830812,1159.9108184550423,,,,,,,,,,,,,,,,,,,,,,,,,,,,,,,,,,,,,,,,,,,,,,,,,,,,,,,,,,,,,,,,,,,,,,,22944,2022-11-03_11h17.52.609,vts_reward_expectancy_bt_OFFLINE,2022.2.4,60.245978051680225,
0,0,1,0,1,0,0,0,hexagon,triangle,0,0,0,0,3,1,37,6,,,,,,,,,,,,,,,,,,,,,,,,,,,,,,,,,,,,,,,,1160.4114621160552,1160.4114621160552,1160.4114621160552,1160.4114621160552,1160.4114621160552,1160.4114621160552,1160.4114621160552,1160.4114621160552,1160.4114621160552,1160.4114621160552,l,2.6244700838578865,10,191,0,1163.0644215580542,1164.566187143093,,,,,,,,,,,,,,,,,,,,,,,,,,,,,,,,,,,,,,,,,,,,,,,,,,,,,,,,,,,,,,,,,,,,,,,22944,2022-11-03_11h17.52.609,vts_reward_expectancy_bt_OFFLINE,2022.2.4,60.245978051680225,
1,0,0,0,0,1,0,0,triangle,circle,0,0,0,0,3,2,38,0,,,,,,,,,,,,,,,,,,,,,,,,,,,,,,,,,,,,,,,,1165.066696607042,1165.066696607042,1165.066696607042,1165.066696607042,1165.066696607042,1165.066696607042,1165.066696607042,1165.066696607042,1165.066696607042,1165.066696607042,a,2.030594019917771,10,201,0,1167.1190670230426,1168.6203179970616,,,,,,,,,,,,,,,,,,,,,,,,,,,,,,,,,,,,,,,,,,,,,,,,,,,,,,,,,,,,,,,,,,,,,,,22944,2022-11-03_11h17.52.609,vts_reward_expectancy_bt_OFFLINE,2022.2.4,60.245978051680225,
0,1,0,0,1,0,0,0,circle,triangle,0,0,0,0,3,3,39,3,,,,,,,,,,,,,,,,,,,,,,,,,,,,,,,,,,,,,,,,1169.1209147829795,1169.1209147829795,1169.1209147829795,1169.1209147829795,1169.1209147829795,1169.1209147829795,1169.1209147829795,1169.1209147829795,1169.1209147829795,1169.1209147829795,l,1.4090629869606346,10,211,0,1170.5558303480502,1172.0574465420796,,,,,,,,,,,,,,,,,,,,,,,,,,,,,,,,,,,,,,,,,,,,,,,,,,,,,,,,,,,,,,,,,,,,,,,22944,2022-11-03_11h17.52.609,vts_reward_expectancy_bt_OFFLINE,2022.2.4,60.245978051680225,
0,1,0,0,0,0,1,0,circle,hexagon,0,0,0,0,3,4,40,4,,,,,,,,,,,,,,,,,,,,,,,,,,,,,,,,,,,,,,,,1172.5582495010458,1172.5582495010458,1172.5582495010458,1172.5582495010458,1172.5582495010458,1172.5582495010458,1172.5582495010458,1172.5582495010458,1172.5582495010458,1172.5582495010458,l,1.2225494278827682,1,212,0,1173.8096548580797,1175.3112568650395,,,,,,,,,,,,,,,,,,,,,,,,,,,,,,,,,,,,,,,,,,,,,,,,,,,,,,,,,,,,,,,,,,,,,,,22944,2022-11-03_11h17.52.609,vts_reward_expectancy_bt_OFFLINE,2022.2.4,60.245978051680225,
0,1,0,0,0,0,0,1,circle,star,0,0,0,0,3,5,41,5,,,,,,,,,,,,,,,,,,,,,,,,,,,,,,,,,,,,,,,,1175.8118046030868,1175.8118046030868,1175.8118046030868,1175.8118046030868,1175.8118046030868,1175.8118046030868,1175.8118046030868,1175.8118046030868,1175.8118046030868,1175.8118046030868,l,1.3684884799877182,1,213,0,1177.196740181069,1178.6981330600102,1178.6981330600102,,,,,,,,,,,,,,,,,,,,,,,,,,,,,,,,,,,,,,,,,,,,,,,,,,,,,,,,,,,,,,,,,,,,,,22944,2022-11-03_11h17.52.609,vts_reward_expectancy_bt_OFFLINE,2022.2.4,60.245978051680225,
0,0,0,1,1,0,0,0,star,triangle,0,0,0,0,3,6,42,9,,,,,,,,,,,,,,,,,,,,,,,,,,,,,,,,,,,,,,,,1179.1987555850064,1179.1987555850064,1179.1987555850064,1179.1987555850064,1179.1987555850064,1179.1987555850064,1179.1987555850064,1179.1987555850064,1179.1987555850064,1179.1987555850064,l,2.0867032799869776,1,214,0,1181.3178496829933,1182.8196587670827,,,,,,,,,,,,,,,,,,,,,,,,,,,,,,,,,,,,,,,,,,,,,,,,,,,,,,,,,,,,,,,,,,,,,,,22944,2022-11-03_11h17.52.609,vts_reward_expectancy_bt_OFFLINE,2022.2.4,60.245978051680225,
0,0,0,1,0,1,0,0,star ,circle,0,0,0,0,3,7,43,10,,,,,,,,,,,,,,,,,,,,,,,,,,,,,,,,,,,,,,,,1183.319951153011,1183.319951153011,1183.319951153011,1183.319951153011,1183.319951153011,1183.319951153011,1183.319951153011,1183.319951153011,1183.319951153011,1183.319951153011,a,1.9144539579283446,1,215,0,1185.2555594220757,1186.7571351460647,,,,,,,,,,,,,,,,,,,,,,,,,,,,,,,,,,,,,,,,,,,,,,,,,,,,,,,,,,,,,,,,,,,,,,,22944,2022-11-03_11h17.52.609,vts_reward_expectancy_bt_OFFLINE,2022.2.4,60.245978051680225,
1,0,0,0,0,0,0,1,triangle,star,0,0,0,0,3,8,44,2,,,,,,,,,,,,,,,,,,,,,,,,,,,,,,,,,,,,,,,,1187.2577767299954,1187.2577767299954,1187.2577767299954,1187.2577767299954,1187.2577767299954,1187.2577767299954,1187.2577767299954,1187.2577767299954,1187.2577767299954,1187.2577767299954,a,3.6907559318933636,10,225,0,1190.978296271991,1192.4801993520232,,,,,,,,,,,,,,,,,,,,,,,,,,,,,,,,,,,,,,,,,,,,,,,,,,,,,,,,,,,,,,,,,,,,,,,22944,2022-11-03_11h17.52.609,vts_reward_expectancy_bt_OFFLINE,2022.2.4,60.245978051680225,
0,0,1,0,0,1,0,0,hexagon,circle,0,0,0,0,3,9,45,7,,,,,,,,,,,,,,,,,,,,,,,,,,,,,,,,,,,,,,,,1192.9806801649975,1192.9806801649975,1192.9806801649975,1192.9806801649975,1192.9806801649975,1192.9806801649975,1192.9806801649975,1192.9806801649975,1192.9806801649975,1192.9806801649975,l,1.4216702239355072,10,235,0,1194.4324181620032,1195.9340635800036,,,,,,,,,,,,,,,,,,,,,,,,,,,,,,,,,,,,,,,,,,,,,,,,,,,,,,,,,,,,,,,,,,,,,,,22944,2022-11-03_11h17.52.609,vts_reward_expectancy_bt_OFFLINE,2022.2.4,60.245978051680225,
0,0,1,0,0,0,0,1,hexagon,star,0,0,0,0,3,10,46,8,,,,,,,,,,,,,,,,,,,,,,,,,,,,,,,,,,,,,,,,1196.4346889849985,1196.4346889849985,1196.4346889849985,1196.4346889849985,1196.4346889849985,1196.4346889849985,1196.4346889849985,1196.4346889849985,1196.4346889849985,1196.4346889849985,l,1.4909510320285335,1,236,0,1197.9534499750007,1199.4544212770415,,,,,,,,,,,,,,,,,,,,,,,,,,,,,,,,,,,,,,,,,,,,,,,,,,,,,,,,,,,,,,,,,,,,,,,22944,2022-11-03_11h17.52.609,vts_reward_expectancy_bt_OFFLINE,2022.2.4,60.245978051680225,
1,0,0,0,0,0,1,0,triangle,hexagon,0,0,0,0,3,11,47,1,,,,,,,,,,,,,,,,,,,,,,,,,,,,,,,,,,,,,,,,1199.9548978020903,1199.9548978020903,1199.9548978020903,1199.9548978020903,1199.9548978020903,1199.9548978020903,1199.9548978020903,1199.9548978020903,1199.9548978020903,1199.9548978020903,a,1.8859769558766857,10,246,0,1201.8738945510704,1203.3754471730208,,,,,,,,,,,,,,,,,,,,,,,,,,,,,,,,,,,,,,,,,,,,,,,,,,,,,,,,,,,,,,,,,,,,,,,22944,2022-11-03_11h17.52.609,vts_reward_expectancy_bt_OFFLINE,2022.2.4,60.245978051680225,
0,0,1,0,0,0,0,1,hexagon,star,1,0,1,0,0,0,0,8,,,,,,,,,,,,,,,,,,,,,,,,,,,,,,,,,,,,,,,,1224.5490215159953,1224.5490215159953,1224.5490215159953,1224.5490215159953,1224.5490215159953,1224.5490215159953,1224.5490215159953,1224.5490215159953,1224.5490215159953,1224.5490215159953,l,5.430269000935368,10,256,1,1230.0050622870913,1231.5066063510021,1231.5066063510021,,,,,,,,,,,,,,,,,,,,,,,,,,,,,,,,,,,,,,,,,,,,,,,,,,,,,,,,,,,,,,,,,,,,,,22944,2022-11-03_11h17.52.609,vts_reward_expectancy_bt_OFFLINE,2022.2.4,60.245978051680225,
1,0,0,0,0,1,0,0,triangle,circle,1,0,1,0,0,1,1,0,,,,,,,,,,,,,,,,,,,,,,,,,,,,,,,,,,,,,,,,1232.0071008449886,1232.0071008449886,1232.0071008449886,1232.0071008449886,1232.0071008449886,1232.0071008449886,1232.0071008449886,1232.0071008449886,1232.0071008449886,1232.0071008449886,a,2.0668521858751774,10,266,1,1234.0926926450338,1235.5945202320581,1235.5945202320581,,,,,,,,,,,,,,,,,,,,,,,,,,,,,,,,,,,,,,,,,,,,,,,,,,,,,,,,,,,,,,,,,,,,,,22944,2022-11-03_11h17.52.609,vts_reward_expectancy_bt_OFFLINE,2022.2.4,60.245978051680225,
0,0,0,1,1,0,0,0,star,triangle,1,0,1,0,0,2,2,9,,,,,,,,,,,,,,,,,,,,,,,,,,,,,,,,,,,,,,,,1236.0948026319966,1236.0948026319966,1236.0948026319966,1236.0948026319966,1236.0948026319966,1236.0948026319966,1236.0948026319966,1236.0948026319966,1236.0948026319966,1236.0948026319966,l,1.4003426139242947,1,267,1,1237.513064673054,1239.0147203260567,,,,,,,,,,,,,,,,,,,,,,,,,,,,,,,,,,,,,,,,,,,,,,,,,,,,,,,,,,,,,,,,,,,,,,,22944,2022-11-03_11h17.52.609,vts_reward_expectancy_bt_OFFLINE,2022.2.4,60.245978051680225,
0,0,1,0,0,1,0,0,hexagon,circle,1,0,1,0,0,3,3,7,,,,,,,,,,,,,,,,,,,,,,,,,,,,,,,,,,,,,,,,1239.515280693071,1239.515280693071,1239.515280693071,1239.515280693071,1239.515280693071,1239.515280693071,1239.515280693071,1239.515280693071,1239.515280693071,1239.515280693071,l,1.1281656578648835,10,277,1,1240.6667368150083,1242.168256515055,,,,,,,,,,,,,,,,,,,,,,,,,,,,,,,,,,,,,,,,,,,,,,,,,,,,,,,,,,,,,,,,,,,,,,,22944,2022-11-03_11h17.52.609,vts_reward_expectancy_bt_OFFLINE,2022.2.4,60.245978051680225,
0,1,0,0,0,0,1,0,circle,hexagon,1,0,1,0,0,4,4,4,,,,,,,,,,,,,,,,,,,,,,,,,,,,,,,,,,,,,,,,1242.6689352809917,1242.6689352809917,1242.6689352809917,1242.6689352809917,1242.6689352809917,1242.6689352809917,1242.6689352809917,1242.6689352809917,1242.6689352809917,1242.6689352809917,a,1.3520299668889493,10,287,1,1244.0535559270065,1245.5554425680311,,,,,,,,,,,,,,,,,,,,,,,,,,,,,,,,,,,,,,,,,,,,,,,,,,,,,,,,,,,,,,,,,,,,,,,22944,2022-11-03_11h17.52.609,vts_reward_expectancy_bt_OFFLINE,2022.2.4,60.245978051680225,
0,0,1,0,1,0,0,0,hexagon,triangle,1,0,1,0,0,5,5,6,,,,,,,,,,,,,,,,,,,,,,,,,,,,,,,,,,,,,,,,1246.0559438160853,1246.0559438160853,1246.0559438160853,1246.0559438160853,1246.0559438160853,1246.0559438160853,1246.0559438160853,1246.0559438160853,1246.0559438160853,1246.0559438160853,l,1.158766042906791,1,288,1,1247.2406011770945,1248.7420272669988,,,,,,,,,,,,,,,,,,,,,,,,,,,,,,,,,,,,,,,,,,,,,,,,,,,,,,,,,,,,,,,,,,,,,,,22944,2022-11-03_11h17.52.609,vts_reward_expectancy_bt_OFFLINE,2022.2.4,60.245978051680225,
0,0,0,1,0,0,1,0,star,hexagon,1,0,1,0,0,6,6,11,,,,,,,,,,,,,,,,,,,,,,,,,,,,,,,,,,,,,,,,1249.2426831379998,1249.2426831379998,1249.2426831379998,1249.2426831379998,1249.2426831379998,1249.2426831379998,1249.2426831379998,1249.2426831379998,1249.2426831379998,1249.2426831379998,a,0.9190178179414943,1,289,1,1250.1938879609806,1251.695284037036,,,,,,,,,,,,,,,,,,,,,,,,,,,,,,,,,,,,,,,,,,,,,,,,,,,,,,,,,,,,,,,,,,,,,,,22944,2022-11-03_11h17.52.609,vts_reward_expectancy_bt_OFFLINE,2022.2.4,60.245978051680225,
0,0,0,1,0,1,0,0,star ,circle,1,0,1,0,0,7,7,10,,,,,,,,,,,,,,,,,,,,,,,,,,,,,,,,,,,,,,,,1252.1959879720816,1252.1959879720816,1252.1959879720816,1252.1959879720816,1252.1959879720816,1252.1959879720816,1252.1959879720816,1252.1959879720816,1252.1959879720816,1252.1959879720816,l,3.029236946022138,10,299,1,1255.2495382530615,1256.7509298430523,,,,,,,,,,,,,,,,,,,,,,,,,,,,,,,,,,,,,,,,,,,,,,,,,,,,,,,,,,,,,,,,,,,,,,,22944,2022-11-03_11h17.52.609,vts_reward_expectancy_bt_OFFLINE,2022.2.4,60.245978051680225,
0,1,0,0,0,0,0,1,circle,star,1,0,1,0,0,8,8,5,,,,,,,,,,,,,,,,,,,,,,,,,,,,,,,,,,,,,,,,1257.25144498609,1257.25144498609,1257.25144498609,1257.25144498609,1257.25144498609,1257.25144498609,1257.25144498609,1257.25144498609,1257.25144498609,1257.25144498609,a,1.292268309975043,10,309,1,1258.5697255950654,1260.0714039620943,,,,,,,,,,,,,,,,,,,,,,,,,,,,,,,,,,,,,,,,,,,,,,,,,,,,,,,,,,,,,,,,,,,,,,,22944,2022-11-03_11h17.52.609,vts_reward_expectancy_bt_OFFLINE,2022.2.4,60.245978051680225,
0,1,0,0,1,0,0,0,circle,triangle,1,0,1,0,0,9,9,3,,,,,,,,,,,,,,,,,,,,,,,,,,,,,,,,,,,,,,,,1260.5720699410886,1260.5720699410886,1260.5720699410886,1260.5720699410886,1260.5720699410886,1260.5720699410886,1260.5720699410886,1260.5720699410886,1260.5720699410886,1260.5720699410886,l,1.5607635619817302,1,310,1,1262.1568590609822,1263.6587452100357,,,,,,,,,,,,,,,,,,,,,,,,,,,,,,,,,,,,,,,,,,,,,,,,,,,,,,,,,,,,,,,,,,,,,,,22944,2022-11-03_11h17.52.609,vts_reward_expectancy_bt_OFFLINE,2022.2.4,60.245978051680225,
1,0,0,0,0,0,0,1,triangle,star,1,0,1,0,0,10,10,2,,,,,,,,,,,,,,,,,,,,,,,,,,,,,,,,,,,,,,,,1264.159412928042,1264.159412928042,1264.159412928042,1264.159412928042,1264.159412928042,1264.159412928042,1264.159412928042,1264.159412928042,1264.159412928042,1264.159412928042,l,2.1594747869530693,10,320,1,1266.3448821820784,1267.8467192869866,,,,,,,,,,,,,,,,,,,,,,,,,,,,,,,,,,,,,,,,,,,,,,,,,,,,,,,,,,,,,,,,,,,,,,,22944,2022-11-03_11h17.52.609,vts_reward_expectancy_bt_OFFLINE,2022.2.4,60.245978051680225,
1,0,0,0,0,0,1,0,triangle,hexagon,1,0,1,0,0,11,11,1,,,,,,,,,,,,,,,,,,,,,,,,,,,,,,,,,,,,,,,,1268.347056072089,1268.347056072089,1268.347056072089,1268.347056072089,1268.347056072089,1268.347056072089,1268.347056072089,1268.347056072089,1268.347056072089,1268.347056072089,l,1.6175219749566168,10,330,1,1269.9823309080675,1271.4840610100655,,,,,,,,,,,,,,,,,,,,,,,,,,,,,,,,,,,,,,,,,,,,,,,,,,,,,,,,,,,,,,,,,,,,,,,22944,2022-11-03_11h17.52.609,vts_reward_expectancy_bt_OFFLINE,2022.2.4,60.245978051680225,
1,0,0,0,0,1,0,0,triangle,circle,1,0,1,0,1,0,12,0,,,,,,,,,,,,,,,,,,,,,,,,,,,,,,,,,,,,,,,,1271.9847302810522,1271.9847302810522,1271.9847302810522,1271.9847302810522,1271.9847302810522,1271.9847302810522,1271.9847302810522,1271.9847302810522,1271.9847302810522,1271.9847302810522,l,1.1072971359826624,1,331,1,1273.1191963370657,1274.620930360048,,,,,,,,,,,,,,,,,,,,,,,,,,,,,,,,,,,,,,,,,,,,,,,,,,,,,,,,,,,,,,,,,,,,,,,22944,2022-11-03_11h17.52.609,vts_reward_expectancy_bt_OFFLINE,2022.2.4,60.245978051680225,
0,0,1,0,0,1,0,0,hexagon,circle,1,0,1,0,1,1,13,7,,,,,,,,,,,,,,,,,,,,,,,,,,,,,,,,,,,,,,,,1275.1212325610686,1275.1212325610686,1275.1212325610686,1275.1212325610686,1275.1212325610686,1275.1212325610686,1275.1212325610686,1275.1212325610686,1275.1212325610686,1275.1212325610686,a,1.2438108780188486,1,332,1,1276.3895198460668,1277.890962620033,,,,,,,,,,,,,,,,,,,,,,,,,,,,,,,,,,,,,,,,,,,,,,,,,,,,,,,,,,,,,,,,,,,,,,,22944,2022-11-03_11h17.52.609,vts_reward_expectancy_bt_OFFLINE,2022.2.4,60.245978051680225,
0,0,0,1,1,0,0,0,star,triangle,1,0,1,0,1,2,14,9,,,,,,,,,,,,,,,,,,,,,,,,,,,,,,,,,,,,,,,,1278.3916342160664,1278.3916342160664,1278.3916342160664,1278.3916342160664,1278.3916342160664,1278.3916342160664,1278.3916342160664,1278.3916342160664,1278.3916342160664,1278.3916342160664,a,0.7183509089518338,10,342,1,1279.1422744680895,1280.643825205043,,,,,,,,,,,,,,,,,,,,,,,,,,,,,,,,,,,,,,,,,,,,,,,,,,,,,,,,,,,,,,,,,,,,,,,22944,2022-11-03_11h17.52.609,vts_reward_expectancy_bt_OFFLINE,2022.2.4,60.245978051680225,
0,0,1,0,1,0,0,0,hexagon,triangle,1,0,1,0,1,3,15,6,,,,,,,,,,,,,,,,,,,,,,,,,,,,,,,,,,,,,,,,1281.1444367900258,1281.1444367900258,1281.1444367900258,1281.1444367900258,1281.1444367900258,1281.1444367900258,1281.1444367900258,1281.1444367900258,1281.1444367900258,1281.1444367900258,a,1.487314568948932,1,343,1,1282.6628165800357,1284.1646476649912,,,,,,,,,,,,,,,,,,,,,,,,,,,,,,,,,,,,,,,,,,,,,,,,,,,,,,,,,,,,,,,,,,,,,,,22944,2022-11-03_11h17.52.609,vts_reward_expectancy_bt_OFFLINE,2022.2.4,60.245978051680225,
0,0,0,1,0,1,0,0,star ,circle,1,0,1,0,1,4,16,10,,,,,,,,,,,,,,,,,,,,,,,,,,,,,,,,,,,,,,,,1284.6651351220207,1284.6651351220207,1284.6651351220207,1284.6651351220207,1284.6651351220207,1284.6651351220207,1284.6651351220207,1284.6651351220207,1284.6651351220207,1284.6651351220207,a,1.6458007119363174,1,344,1,1286.3335781730711,1287.83537036099,,,,,,,,,,,,,,,,,,,,,,,,,,,,,,,,,,,,,,,,,,,,,,,,,,,,,,,,,,,,,,,,,,,,,,,22944,2022-11-03_11h17.52.609,vts_reward_expectancy_bt_OFFLINE,2022.2.4,60.245978051680225,
1,0,0,0,0,0,1,0,triangle,hexagon,1,0,1,0,1,5,17,1,,,,,,,,,,,,,,,,,,,,,,,,,,,,,,,,,,,,,,,,1288.3360255050939,1288.3360255050939,1288.3360255050939,1288.3360255050939,1288.3360255050939,1288.3360255050939,1288.3360255050939,1288.3360255050939,1288.3360255050939,1288.3360255050939,l,2.803222588961944,10,354,1,1291.1558133730432,1292.6572365330067,1292.6572365330067,,,,,,,,,,,,,,,,,,,,,,,,,,,,,,,,,,,,,,,,,,,,,,,,,,,,,,,,,,,,,,,,,,,,,,22944,2022-11-03_11h17.52.609,vts_reward_expectancy_bt_OFFLINE,2022.2.4,60.245978051680225,
0,0,0,1,0,0,1,0,star,hexagon,1,0,1,0,1,6,18,11,,,,,,,,,,,,,,,,,,,,,,,,,,,,,,,,,,,,,,,,1293.1579548730515,1293.1579548730515,1293.1579548730515,1293.1579548730515,1293.1579548730515,1293.1579548730515,1293.1579548730515,1293.1579548730515,1293.1579548730515,1293.1579548730515,a,3.088275413028896,1,355,1,1296.278081196011,1297.7796726080123,,,,,,,,,,,,,,,,,,,,,,,,,,,,,,,,,,,,,,,,,,,,,,,,,,,,,,,,,,,,,,,,,,,,,,,22944,2022-11-03_11h17.52.609,vts_reward_expectancy_bt_OFFLINE,2022.2.4,60.245978051680225,
1,0,0,0,0,0,0,1,triangle,star,1,0,1,0,1,7,19,2,,,,,,,,,,,,,,,,,,,,,,,,,,,,,,,,,,,,,,,,1298.2803076960845,1298.2803076960845,1298.2803076960845,1298.2803076960845,1298.2803076960845,1298.2803076960845,1298.2803076960845,1298.2803076960845,1298.2803076960845,1298.2803076960845,l,1.7696142479544505,1,356,1,1300.0822916850448,1301.5838906930294,,,,,,,,,,,,,,,,,,,,,,,,,,,,,,,,,,,,,,,,,,,,,,,,,,,,,,,,,,,,,,,,,,,,,,,22944,2022-11-03_11h17.52.609,vts_reward_expectancy_bt_OFFLINE,2022.2.4,60.245978051680225,
0,1,0,0,0,0,1,0,circle,hexagon,1,0,1,0,1,8,20,4,,,,,,,,,,,,,,,,,,,,,,,,,,,,,,,,,,,,,,,,1302.0845278070774,1302.0845278070774,1302.0845278070774,1302.0845278070774,1302.0845278070774,1302.0845278070774,1302.0845278070774,1302.0845278070774,1302.0845278070774,1302.0845278070774,l,1.3945356919430196,10,366,1,1303.5025242799893,1305.00427876506,,,,,,,,,,,,,,,,,,,,,,,,,,,,,,,,,,,,,,,,,,,,,,,,,,,,,,,,,,,,,,,,,,,,,,,22944,2022-11-03_11h17.52.609,vts_reward_expectancy_bt_OFFLINE,2022.2.4,60.245978051680225,
0,1,0,0,0,0,0,1,circle,star,1,0,1,0,1,9,21,5,,,,,,,,,,,,,,,,,,,,,,,,,,,,,,,,,,,,,,,,1305.5047924470855,1305.5047924470855,1305.5047924470855,1305.5047924470855,1305.5047924470855,1305.5047924470855,1305.5047924470855,1305.5047924470855,1305.5047924470855,1305.5047924470855,a,2.6552260539028794,10,376,1,1308.1910224970197,1309.6930123070488,,,,,,,,,,,,,,,,,,,,,,,,,,,,,,,,,,,,,,,,,,,,,,,,,,,,,,,,,,,,,,,,,,,,,,,22944,2022-11-03_11h17.52.609,vts_reward_expectancy_bt_OFFLINE,2022.2.4,60.245978051680225,
0,1,0,0,1,0,0,0,circle,triangle,1,0,1,0,1,10,22,3,,,,,,,,,,,,,,,,,,,,,,,,,,,,,,,,,,,,,,,,1310.1933260820806,1310.1933260820806,1310.1933260820806,1310.1933260820806,1310.1933260820806,1310.1933260820806,1310.1933260820806,1310.1933260820806,1310.1933260820806,1310.1933260820806,a,1.9600083889672533,10,386,1,1312.1789703230606,1313.680595487007,,,,,,,,,,,,,,,,,,,,,,,,,,,,,,,,,,,,,,,,,,,,,,,,,,,,,,,,,,,,,,,,,,,,,,,22944,2022-11-03_11h17.52.609,vts_reward_expectancy_bt_OFFLINE,2022.2.4,60.245978051680225,
0,0,1,0,0,0,0,1,hexagon,star,1,0,1,0,1,11,23,8,,,,,,,,,,,,,,,,,,,,,,,,,,,,,,,,,,,,,,,,1314.1812162660062,1314.1812162660062,1314.1812162660062,1314.1812162660062,1314.1812162660062,1314.1812162660062,1314.1812162660062,1314.1812162660062,1314.1812162660062,1314.1812162660062,a,1.4850811020005494,10,396,1,1315.682746960083,1317.1843102020212,1317.1843102020212,1317.6848898680182,,,,,,,,,,,,,,,,,,,,,,,,,,,,,,,,,,,,,,,,,,,,,,,,,,,,,,,,,,,,,,,,,,,,,22944,2022-11-03_11h17.52.609,vts_reward_expectancy_bt_OFFLINE,2022.2.4,60.245978051680225,
0,1,0,0,0,0,1,0,circle,hexagon,1,0,1,0,2,0,24,4,,,,,,,,,,,,,,,,,,,,,,,,,,,,,,,,,,,,,,,,1317.6848898680182,1317.6848898680182,1317.6848898680182,1317.6848898680182,1317.6848898680182,1317.6848898680182,1317.6848898680182,1317.6848898680182,1317.6848898680182,1317.6848898680182,l,5.213353336905129,10,406,1,1322.92407821503,1324.4257155969972,,,,,,,,,,,,,,,,,,,,,,,,,,,,,,,,,,,,,,,,,,,,,,,,,,,,,,,,,,,,,,,,,,,,,,,22944,2022-11-03_11h17.52.609,vts_reward_expectancy_bt_OFFLINE,2022.2.4,60.245978051680225,
1,0,0,0,0,0,1,0,triangle,hexagon,1,0,1,0,2,1,25,1,,,,,,,,,,,,,,,,,,,,,,,,,,,,,,,,,,,,,,,,1324.9263796859886,1324.9263796859886,1324.9263796859886,1324.9263796859886,1324.9263796859886,1324.9263796859886,1324.9263796859886,1324.9263796859886,1324.9263796859886,1324.9263796859886,a,3.744131376966834,1,407,1,1328.6969807950081,1330.198667166056,,,,,,,,,,,,,,,,,,,,,,,,,,,,,,,,,,,,,,,,,,,,,,,,,,,,,,,,,,,,,,,,,,,,,,,22944,2022-11-03_11h17.52.609,vts_reward_expectancy_bt_OFFLINE,2022.2.4,60.245978051680225,
1,0,0,0,0,1,0,0,triangle,circle,1,0,1,0,2,2,26,0,,,,,,,,,,,,,,,,,,,,,,,,,,,,,,,,,,,,,,,,1330.6994174050633,1330.6994174050633,1330.6994174050633,1330.6994174050633,1330.6994174050633,1330.6994174050633,1330.6994174050633,1330.6994174050633,1330.6994174050633,1330.6994174050633,l,2.3030534719582647,1,408,1,1333.0351415800396,1334.5367695570458,,,,,,,,,,,,,,,,,,,,,,,,,,,,,,,,,,,,,,,,,,,,,,,,,,,,,,,,,,,,,,,,,,,,,,,22944,2022-11-03_11h17.52.609,vts_reward_expectancy_bt_OFFLINE,2022.2.4,60.245978051680225,
0,1,0,0,1,0,0,0,circle,triangle,1,0,1,0,2,3,27,3,,,,,,,,,,,,,,,,,,,,,,,,,,,,,,,,,,,,,,,,1335.0373960200232,1335.0373960200232,1335.0373960200232,1335.0373960200232,1335.0373960200232,1335.0373960200232,1335.0373960200232,1335.0373960200232,1335.0373960200232,1335.0373960200232,l,1.903315409901552,10,418,1,1336.9730698630447,1338.4745527220657,,,,,,,,,,,,,,,,,,,,,,,,,,,,,,,,,,,,,,,,,,,,,,,,,,,,,,,,,,,,,,,,,,,,,,,22944,2022-11-03_11h17.52.609,vts_reward_expectancy_bt_OFFLINE,2022.2.4,60.245978051680225,
1,0,0,0,0,0,0,1,triangle,star,1,0,1,0,2,4,28,2,,,,,,,,,,,,,,,,,,,,,,,,,,,,,,,,,,,,,,,,1338.97519812698,1338.97519812698,1338.97519812698,1338.97519812698,1338.97519812698,1338.97519812698,1338.97519812698,1338.97519812698,1338.97519812698,1338.97519812698,l,1.4418735649669543,10,428,1,1340.443533311016,1341.9451732020825,,,,,,,,,,,,,,,,,,,,,,,,,,,,,,,,,,,,,,,,,,,,,,,,,,,,,,,,,,,,,,,,,,,,,,,22944,2022-11-03_11h17.52.609,vts_reward_expectancy_bt_OFFLINE,2022.2.4,60.245978051680225,
0,0,1,0,0,1,0,0,hexagon,circle,1,0,1,0,2,5,29,7,,,,,,,,,,,,,,,,,,,,,,,,,,,,,,,,,,,,,,,,1342.4455787229817,1342.4455787229817,1342.4455787229817,1342.4455787229817,1342.4455787229817,1342.4455787229817,1342.4455787229817,1342.4455787229817,1342.4455787229817,1342.4455787229817,a,1.210155028034933,10,438,1,1343.6804652150022,1345.1817959810141,1345.1817959810141,,,,,,,,,,,,,,,,,,,,,,,,,,,,,,,,,,,,,,,,,,,,,,,,,,,,,,,,,,,,,,,,,,,,,,22944,2022-11-03_11h17.52.609,vts_reward_expectancy_bt_OFFLINE,2022.2.4,60.245978051680225,
0,0,0,1,0,1,0,0,star ,circle,1,0,1,0,2,6,30,10,,,,,,,,,,,,,,,,,,,,,,,,,,,,,,,,,,,,,,,,1345.682374982047,1345.682374982047,1345.682374982047,1345.682374982047,1345.682374982047,1345.682374982047,1345.682374982047,1345.682374982047,1345.682374982047,1345.682374982047,a,1.6971929129213095,10,448,1,1347.4011750050122,1348.9028770769946,,,,,,,,,,,,,,,,,,,,,,,,,,,,,,,,,,,,,,,,,,,,,,,,,,,,,,,,,,,,,,,,,,,,,,,22944,2022-11-03_11h17.52.609,vts_reward_expectancy_bt_OFFLINE,2022.2.4,60.245978051680225,
0,0,0,1,0,0,1,0,star,hexagon,1,0,1,0,2,7,31,11,,,,,,,,,,,,,,,,,,,,,,,,,,,,,,,,,,,,,,,,1349.4032029360533,1349.4032029360533,1349.4032029360533,1349.4032029360533,1349.4032029360533,1349.4032029360533,1349.4032029360533,1349.4032029360533,1349.4032029360533,1349.4032029360533,a,6.561077169957571,10,458,1,1355.9936913230922,1357.4955081380904,1357.4955081380904,,,,,,,,,,,,,,,,,,,,,,,,,,,,,,,,,,,,,,,,,,,,,,,,,,,,,,,,,,,,,,,,,,,,,,22944,2022-11-03_11h17.52.609,vts_reward_expectancy_bt_OFFLINE,2022.2.4,60.245978051680225,
0,0,0,1,1,0,0,0,star,triangle,1,0,1,0,2,8,32,9,,,,,,,,,,,,,,,,,,,,,,,,,,,,,,,,,,,,,,,,1357.99600062205,1357.99600062205,1357.99600062205,1357.99600062205,1357.99600062205,1357.99600062205,1357.99600062205,1357.99600062205,1357.99600062205,1357.99600062205,a,4.022453754907474,10,468,1,1362.0505609210813,1363.552142127999,,,,,,,,,,,,,,,,,,,,,,,,,,,,,,,,,,,,,,,,,,,,,,,,,,,,,,,,,,,,,,,,,,,,,,,22944,2022-11-03_11h17.52.609,vts_reward_expectancy_bt_OFFLINE,2022.2.4,60.245978051680225,
0,0,1,0,1,0,0,0,hexagon,triangle,1,0,1,0,2,9,33,6,,,,,,,,,,,,,,,,,,,,,,,,,,,,,,,,,,,,,,,,1364.0526895310031,1364.0526895310031,1364.0526895310031,1364.0526895310031,1364.0526895310031,1364.0526895310031,1364.0526895310031,1364.0526895310031,1364.0526895310031,1364.0526895310031,a,5.750172024942003,1,469,1,1369.825669800979,1371.3275785599835,,,,,,,,,,,,,,,,,,,,,,,,,,,,,,,,,,,,,,,,,,,,,,,,,,,,,,,,,,,,,,,,,,,,,,,22944,2022-11-03_11h17.52.609,vts_reward_expectancy_bt_OFFLINE,2022.2.4,60.245978051680225,
0,1,0,0,0,0,0,1,circle,star,1,0,1,0,2,10,34,5,,,,,,,,,,,,,,,,,,,,,,,,,,,,,,,,,,,,,,,,1371.827923491015,1371.827923491015,1371.827923491015,1371.827923491015,1371.827923491015,1371.827923491015,1371.827923491015,1371.827923491015,1371.827923491015,1371.827923491015,l,2.5318445269949734,1,470,1,1374.3807597610867,1375.882461475092,,,,,,,,,,,,,,,,,,,,,,,,,,,,,,,,,,,,,,,,,,,,,,,,,,,,,,,,,,,,,,,,,,,,,,,22944,2022-11-03_11h17.52.609,vts_reward_expectancy_bt_OFFLINE,2022.2.4,60.245978051680225,
0,0,1,0,0,0,0,1,hexagon,star,1,0,1,0,2,11,35,8,,,,,,,,,,,,,,,,,,,,,,,,,,,,,,,,,,,,,,,,1376.3829486150062,1376.3829486150062,1376.3829486150062,1376.3829486150062,1376.3829486150062,1376.3829486150062,1376.3829486150062,1376.3829486150062,1376.3829486150062,1376.3829486150062,l,3.018445142894052,1,471,1,1379.4197892120574,1380.9214161370182,,,,,,,,,,,,,,,,,,,,,,,,,,,,,,,,,,,,,,,,,,,,,,,,,,,,,,,,,,,,,,,,,,,,,,,22944,2022-11-03_11h17.52.609,vts_reward_expectancy_bt_OFFLINE,2022.2.4,60.245978051680225,
1,0,0,0,0,0,1,0,triangle,hexagon,1,0,1,0,3,0,36,1,,,,,,,,,,,,,,,,,,,,,,,,,,,,,,,,,,,,,,,,1381.4218695809832,1381.4218695809832,1381.4218695809832,1381.4218695809832,1381.4218695809832,1381.4218695809832,1381.4218695809832,1381.4218695809832,1381.4218695809832,1381.4218695809832,l,2.3439648560015485,10,481,1,1383.7911266119918,1385.292730055051,,,,,,,,,,,,,,,,,,,,,,,,,,,,,,,,,,,,,,,,,,,,,,,,,,,,,,,,,,,,,,,,,,,,,,,22944,2022-11-03_11h17.52.609,vts_reward_expectancy_bt_OFFLINE,2022.2.4,60.245978051680225,
0,0,0,1,0,1,0,0,star ,circle,1,0,1,0,3,1,37,10,,,,,,,,,,,,,,,,,,,,,,,,,,,,,,,,,,,,,,,,1385.7932311310433,1385.7932311310433,1385.7932311310433,1385.7932311310433,1385.7932311310433,1385.7932311310433,1385.7932311310433,1385.7932311310433,1385.7932311310433,1385.7932311310433,a,4.756576366955414,10,491,1,1390.5818850509822,1392.0836457050173,,,,,,,,,,,,,,,,,,,,,,,,,,,,,,,,,,,,,,,,,,,,,,,,,,,,,,,,,,,,,,,,,,,,,,,22944,2022-11-03_11h17.52.609,vts_reward_expectancy_bt_OFFLINE,2022.2.4,60.245978051680225,
0,0,1,0,0,1,0,0,hexagon,circle,1,0,1,0,3,2,38,7,,,,,,,,,,,,,,,,,,,,,,,,,,,,,,,,,,,,,,,,1392.5843509760452,1392.5843509760452,1392.5843509760452,1392.5843509760452,1392.5843509760452,1392.5843509760452,1392.5843509760452,1392.5843509760452,1392.5843509760452,1392.5843509760452,a,2.172509790980257,1,492,1,1394.7868262580596,1396.2884171010228,,,,,,,,,,,,,,,,,,,,,,,,,,,,,,,,,,,,,,,,,,,,,,,,,,,,,,,,,,,,,,,,,,,,,,,22944,2022-11-03_11h17.52.609,vts_reward_expectancy_bt_OFFLINE,2022.2.4,60.245978051680225,
1,0,0,0,0,0,0,1,triangle,star,1,0,1,0,3,3,39,2,,,,,,,,,,,,,,,,,,,,,,,,,,,,,,,,,,,,,,,,1396.788869371987,1396.788869371987,1396.788869371987,1396.788869371987,1396.788869371987,1396.788869371987,1396.788869371987,1396.788869371987,1396.788869371987,1396.788869371987,l,1.9738909089937806,10,502,1,1398.791146896081,1400.2926475229906,,,,,,,,,,,,,,,,,,,,,,,,,,,,,,,,,,,,,,,,,,,,,,,,,,,,,,,,,,,,,,,,,,,,,,,22944,2022-11-03_11h17.52.609,vts_reward_expectancy_bt_OFFLINE,2022.2.4,60.245978051680225,
0,1,0,0,0,0,1,0,circle,hexagon,1,0,1,0,3,4,40,4,,,,,,,,,,,,,,,,,,,,,,,,,,,,,,,,,,,,,,,,1400.7932487149956,1400.7932487149956,1400.7932487149956,1400.7932487149956,1400.7932487149956,1400.7932487149956,1400.7932487149956,1400.7932487149956,1400.7932487149956,1400.7932487149956,a,2.086976123857312,1,503,1,1402.9122429870768,1404.4140436510788,,,,,,,,,,,,,,,,,,,,,,,,,,,,,,,,,,,,,,,,,,,,,,,,,,,,,,,,,,,,,,,,,,,,,,,22944,2022-11-03_11h17.52.609,vts_reward_expectancy_bt_OFFLINE,2022.2.4,60.245978051680225,
0,0,0,1,0,0,1,0,star,hexagon,1,0,1,0,3,5,41,11,,,,,,,,,,,,,,,,,,,,,,,,,,,,,,,,,,,,,,,,1404.9144904060522,1404.9144904060522,1404.9144904060522,1404.9144904060522,1404.9144904060522,1404.9144904060522,1404.9144904060522,1404.9144904060522,1404.9144904060522,1404.9144904060522,l,1.4757823289837688,1,504,1,1406.4167829430662,1407.9176863060566,1407.9176863060566,,,,,,,,,,,,,,,,,,,,,,,,,,,,,,,,,,,,,,,,,,,,,,,,,,,,,,,,,,,,,,,,,,,,,,22944,2022-11-03_11h17.52.609,vts_reward_expectancy_bt_OFFLINE,2022.2.4,60.245978051680225,
0,1,0,0,1,0,0,0,circle,triangle,1,0,1,0,3,6,42,3,,,,,,,,,,,,,,,,,,,,,,,,,,,,,,,,,,,,,,,,1408.418482588022,1408.418482588022,1408.418482588022,1408.418482588022,1408.418482588022,1408.418482588022,1408.418482588022,1408.418482588022,1408.418482588022,1408.418482588022,a,4.497557559981942,10,514,1,1412.9399869280169,1414.441408977029,,,,,,,,,,,,,,,,,,,,,,,,,,,,,,,,,,,,,,,,,,,,,,,,,,,,,,,,,,,,,,,,,,,,,,,22944,2022-11-03_11h17.52.609,vts_reward_expectancy_bt_OFFLINE,2022.2.4,60.245978051680225,
0,0,1,0,1,0,0,0,hexagon,triangle,1,0,1,0,3,7,43,6,,,,,,,,,,,,,,,,,,,,,,,,,,,,,,,,,,,,,,,,1414.9421097850427,1414.9421097850427,1414.9421097850427,1414.9421097850427,1414.9421097850427,1414.9421097850427,1414.9421097850427,1414.9421097850427,1414.9421097850427,1414.9421097850427,a,6.727619261946529,1,515,1,1421.6997380700195,1423.2013217420317,,,,,,,,,,,,,,,,,,,,,,,,,,,,,,,,,,,,,,,,,,,,,,,,,,,,,,,,,,,,,,,,,,,,,,,22944,2022-11-03_11h17.52.609,vts_reward_expectancy_bt_OFFLINE,2022.2.4,60.245978051680225,
0,1,0,0,0,0,0,1,circle,star,1,0,1,0,3,8,44,5,,,,,,,,,,,,,,,,,,,,,,,,,,,,,,,,,,,,,,,,1423.701761153061,1423.701761153061,1423.701761153061,1423.701761153061,1423.701761153061,1423.701761153061,1423.701761153061,1423.701761153061,1423.701761153061,1423.701761153061,l,2.333868690999225,10,525,1,1426.0546649530297,1427.5561329399934,,,,,,,,,,,,,,,,,,,,,,,,,,,,,,,,,,,,,,,,,,,,,,,,,,,,,,,,,,,,,,,,,,,,,,,22944,2022-11-03_11h17.52.609,vts_reward_expectancy_bt_OFFLINE,2022.2.4,60.245978051680225,
1,0,0,0,0,1,0,0,triangle,circle,1,0,1,0,3,9,45,0,,,,,,,,,,,,,,,,,,,,,,,,,,,,,,,,,,,,,,,,1428.056732882047,1428.056732882047,1428.056732882047,1428.056732882047,1428.056732882047,1428.056732882047,1428.056732882047,1428.056732882047,1428.056732882047,1428.056732882047,l,5.1459561279043555,1,526,1,1433.2290149109904,1434.7306752370205,,,,,,,,,,,,,,,,,,,,,,,,,,,,,,,,,,,,,,,,,,,,,,,,,,,,,,,,,,,,,,,,,,,,,,,22944,2022-11-03_11h17.52.609,vts_reward_expectancy_bt_OFFLINE,2022.2.4,60.245978051680225,
0,0,1,0,0,0,0,1,hexagon,star,1,0,1,0,3,10,46,8,,,,,,,,,,,,,,,,,,,,,,,,,,,,,,,,,,,,,,,,1435.2313171629794,1435.2313171629794,1435.2313171629794,1435.2313171629794,1435.2313171629794,1435.2313171629794,1435.2313171629794,1435.2313171629794,1435.2313171629794,1435.2313171629794,l,4.822638459969312,10,536,1,1440.0866217250004,1441.5881978879916,,,,,,,,,,,,,,,,,,,,,,,,,,,,,,,,,,,,,,,,,,,,,,,,,,,,,,,,,,,,,,,,,,,,,,,22944,2022-11-03_11h17.52.609,vts_reward_expectancy_bt_OFFLINE,2022.2.4,60.245978051680225,
0,0,0,1,1,0,0,0,star,triangle,1,0,1,0,3,11,47,9,,,,,,,,,,,,,,,,,,,,,,,,,,,,,,,,,,,,,,,,1442.0888051550137,1442.0888051550137,1442.0888051550137,1442.0888051550137,1442.0888051550137,1442.0888051550137,1442.0888051550137,1442.0888051550137,1442.0888051550137,1442.0888051550137,a,5.761646825936623,1,537,1,1447.8787422630703,1449.3800128630828,1449.3800128630828,,,,,,,,,,,,,,,,,,,,,,,,,,,,,,,,,,,,,,,,,,,,,,,,,,,,,,,,,,,,,,,,,,,,,,22944,2022-11-03_11h17.52.609,vts_reward_expectancy_bt_OFFLINE,2022.2.4,60.245978051680225,
0,0,1,0,0,1,0,0,hexagon,circle,2,0,2,0,0,0,0,7,,,,,,,,,,,,,,,,,,,,,,,,,,,,,,,,,,,,,,,,1453.4012579300907,1453.4012579300907,1453.4012579300907,1453.4012579300907,1453.4012579300907,1453.4012579300907,1453.4012579300907,1453.4012579300907,1453.4012579300907,1453.4012579300907,a,3.8321523348568007,10,547,2,1457.2556029970292,1458.7572426929837,,,,,,,,,,,,,,,,,,,,,,,,,,,,,,,,,,,,,,,,,,,,,,,,,,,,,,,,,,,,,,,,,,,,,,,22944,2022-11-03_11h17.52.609,vts_reward_expectancy_bt_OFFLINE,2022.2.4,60.245978051680225,
1,0,0,0,0,0,0,1,triangle,star,2,0,2,0,0,1,1,2,,,,,,,,,,,,,,,,,,,,,,,,,,,,,,,,,,,,,,,,1459.257686626981,1459.257686626981,1459.257686626981,1459.257686626981,1459.257686626981,1459.257686626981,1459.257686626981,1459.257686626981,1459.257686626981,1459.257686626981,l,1.3955882468726486,1,548,2,1460.676095603034,1462.1775926750852,,,,,,,,,,,,,,,,,,,,,,,,,,,,,,,,,,,,,,,,,,,,,,,,,,,,,,,,,,,,,,,,,,,,,,,22944,2022-11-03_11h17.52.609,vts_reward_expectancy_bt_OFFLINE,2022.2.4,60.245978051680225,
0,1,0,0,0,0,1,0,circle,hexagon,2,0,2,0,0,2,2,4,,,,,,,,,,,,,,,,,,,,,,,,,,,,,,,,,,,,,,,,1462.6782673849957,1462.6782673849957,1462.6782673849957,1462.6782673849957,1462.6782673849957,1462.6782673849957,1462.6782673849957,1462.6782673849957,1462.6782673849957,1462.6782673849957,l,1.6662311209365726,10,558,2,1464.3634423860349,1465.8650622910354,,,,,,,,,,,,,,,,,,,,,,,,,,,,,,,,,,,,,,,,,,,,,,,,,,,,,,,,,,,,,,,,,,,,,,,22944,2022-11-03_11h17.52.609,vts_reward_expectancy_bt_OFFLINE,2022.2.4,60.245978051680225,
0,0,1,0,0,0,0,1,hexagon,star,2,0,2,0,0,3,3,8,,,,,,,,,,,,,,,,,,,,,,,,,,,,,,,,,,,,,,,,1466.3656365250936,1466.3656365250936,1466.3656365250936,1466.3656365250936,1466.3656365250936,1466.3656365250936,1466.3656365250936,1466.3656365250936,1466.3656365250936,1466.3656365250936,l,5.200659669935703,10,568,2,1471.5879320310196,1473.0895723720314,,,,,,,,,,,,,,,,,,,,,,,,,,,,,,,,,,,,,,,,,,,,,,,,,,,,,,,,,,,,,,,,,,,,,,,22944,2022-11-03_11h17.52.609,vts_reward_expectancy_bt_OFFLINE,2022.2.4,60.245978051680225,
0,1,0,0,1,0,0,0,circle,triangle,2,0,2,0,0,4,4,3,,,,,,,,,,,,,,,,,,,,,,,,,,,,,,,,,,,,,,,,1473.5903093500528,1473.5903093500528,1473.5903093500528,1473.5903093500528,1473.5903093500528,1473.5903093500528,1473.5903093500528,1473.5903093500528,1473.5903093500528,1473.5903093500528,l,1.4977947879815474,1,569,2,1475.1085648100125,1476.6101306380006,,,,,,,,,,,,,,,,,,,,,,,,,,,,,,,,,,,,,,,,,,,,,,,,,,,,,,,,,,,,,,,,,,,,,,,22944,2022-11-03_11h17.52.609,vts_reward_expectancy_bt_OFFLINE,2022.2.4,60.245978051680225,
1,0,0,0,0,1,0,0,triangle,circle,2,0,2,0,0,5,5,0,,,,,,,,,,,,,,,,,,,,,,,,,,,,,,,,,,,,,,,,1477.110757144983,1477.110757144983,1477.110757144983,1477.110757144983,1477.110757144983,1477.110757144983,1477.110757144983,1477.110757144983,1477.110757144983,1477.110757144983,a,1.015926145017147,10,579,2,1478.1452131050173,1479.6472008309793,,,,,,,,,,,,,,,,,,,,,,,,,,,,,,,,,,,,,,,,,,,,,,,,,,,,,,,,,,,,,,,,,,,,,,,22944,2022-11-03_11h17.52.609,vts_reward_expectancy_bt_OFFLINE,2022.2.4,60.245978051680225,
0,1,0,0,0,0,0,1,circle,star,2,0,2,0,0,6,6,5,,,,,,,,,,,,,,,,,,,,,,,,,,,,,,,,,,,,,,,,1480.147541548009,1480.147541548009,1480.147541548009,1480.147541548009,1480.147541548009,1480.147541548009,1480.147541548009,1480.147541548009,1480.147541548009,1480.147541548009,a,2.2871399698778987,1,580,2,1482.466615236015,1483.9685228070011,,,,,,,,,,,,,,,,,,,,,,,,,,,,,,,,,,,,,,,,,,,,,,,,,,,,,,,,,,,,,,,,,,,,,,,22944,2022-11-03_11h17.52.609,vts_reward_expectancy_bt_OFFLINE,2022.2.4,60.245978051680225,
0,0,0,1,0,0,1,0,star,hexagon,2,0,2,0,0,7,7,11,,,,,,,,,,,,,,,,,,,,,,,,,,,,,,,,,,,,,,,,1484.4690777610522,1484.4690777610522,1484.4690777610522,1484.4690777610522,1484.4690777610522,1484.4690777610522,1484.4690777610522,1484.4690777610522,1484.4690777610522,1484.4690777610522,l,1.4192975709447637,1,581,2,1485.9205310860416,1487.4223600700498,,,,,,,,,,,,,,,,,,,,,,,,,,,,,,,,,,,,,,,,,,,,,,,,,,,,,,,,,,,,,,,,,,,,,,,22944,2022-11-03_11h17.52.609,vts_reward_expectancy_bt_OFFLINE,2022.2.4,60.245978051680225,
0,0,0,1,1,0,0,0,star,triangle,2,0,2,0,0,8,8,9,,,,,,,,,,,,,,,,,,,,,,,,,,,,,,,,,,,,,,,,1487.9227557050763,1487.9227557050763,1487.9227557050763,1487.9227557050763,1487.9227557050763,1487.9227557050763,1487.9227557050763,1487.9227557050763,1487.9227557050763,1487.9227557050763,l,1.7131436408963054,10,591,2,1489.6745381730143,1491.1598128150217,,,,,,,,,,,,,,,,,,,,,,,,,,,,,,,,,,,,,,,,,,,,,,,,,,,,,,,,,,,,,,,,,,,,,,,22944,2022-11-03_11h17.52.609,vts_reward_expectancy_bt_OFFLINE,2022.2.4,60.245978051680225,
0,0,0,1,0,1,0,0,star ,circle,2,0,2,0,0,9,9,10,,,,,,,,,,,,,,,,,,,,,,,,,,,,,,,,,,,,,,,,1491.6601035980275,1491.6601035980275,1491.6601035980275,1491.6601035980275,1491.6601035980275,1491.6601035980275,1491.6601035980275,1491.6601035980275,1491.6601035980275,1491.6601035980275,a,2.9481995878741145,10,601,2,1494.6300491680158,1496.1319726160727,,,,,,,,,,,,,,,,,,,,,,,,,,,,,,,,,,,,,,,,,,,,,,,,,,,,,,,,,,,,,,,,,,,,,,,22944,2022-11-03_11h17.52.609,vts_reward_expectancy_bt_OFFLINE,2022.2.4,60.245978051680225,
1,0,0,0,0,0,1,0,triangle,hexagon,2,0,2,0,0,10,10,1,,,,,,,,,,,,,,,,,,,,,,,,,,,,,,,,,,,,,,,,1496.6322254480328,1496.6322254480328,1496.6322254480328,1496.6322254480328,1496.6322254480328,1496.6322254480328,1496.6322254480328,1496.6322254480328,1496.6322254480328,1496.6322254480328,a,1.2044896979350597,10,611,2,1497.8668875620933,1499.3686841230374,,,,,,,,,,,,,,,,,,,,,,,,,,,,,,,,,,,,,,,,,,,,,,,,,,,,,,,,,,,,,,,,,,,,,,,22944,2022-11-03_11h17.52.609,vts_reward_expectancy_bt_OFFLINE,2022.2.4,60.245978051680225,
0,0,1,0,1,0,0,0,hexagon,triangle,2,0,2,0,0,11,11,6,,,,,,,,,,,,,,,,,,,,,,,,,,,,,,,,,,,,,,,,1499.8693990680622,1499.8693990680622,1499.8693990680622,1499.8693990680622,1499.8693990680622,1499.8693990680622,1499.8693990680622,1499.8693990680622,1499.8693990680622,1499.8693990680622,l,1.1519487759796903,10,621,2,1501.053924991982,1502.5557018329855,,,,,,,,,,,,,,,,,,,,,,,,,,,,,,,,,,,,,,,,,,,,,,,,,,,,,,,,,,,,,,,,,,,,,,,22944,2022-11-03_11h17.52.609,vts_reward_expectancy_bt_OFFLINE,2022.2.4,60.245978051680225,
1,0,0,0,0,0,0,1,triangle,star,2,0,2,0,1,0,12,2,,,,,,,,,,,,,,,,,,,,,,,,,,,,,,,,,,,,,,,,1503.0560277010081,1503.0560277010081,1503.0560277010081,1503.0560277010081,1503.0560277010081,1503.0560277010081,1503.0560277010081,1503.0560277010081,1503.0560277010081,1503.0560277010081,a,1.2854611580260098,10,631,2,1504.3741442570463,1505.8757356780116,,,,,,,,,,,,,,,,,,,,,,,,,,,,,,,,,,,,,,,,,,,,,,,,,,,,,,,,,,,,,,,,,,,,,,,22944,2022-11-03_11h17.52.609,vts_reward_expectancy_bt_OFFLINE,2022.2.4,60.245978051680225,
0,0,1,0,1,0,0,0,hexagon,triangle,2,0,2,0,1,1,13,6,,,,,,,,,,,,,,,,,,,,,,,,,,,,,,,,,,,,,,,,1506.3763827220537,1506.3763827220537,1506.3763827220537,1506.3763827220537,1506.3763827220537,1506.3763827220537,1506.3763827220537,1506.3763827220537,1506.3763827220537,1506.3763827220537,l,0.7084461729973555,10,641,2,1507.1104707550257,1508.6123896900099,,,,,,,,,,,,,,,,,,,,,,,,,,,,,,,,,,,,,,,,,,,,,,,,,,,,,,,,,,,,,,,,,,,,,,,22944,2022-11-03_11h17.52.609,vts_reward_expectancy_bt_OFFLINE,2022.2.4,60.245978051680225,
0,1,0,0,0,0,1,0,circle,hexagon,2,0,2,0,1,2,14,4,,,,,,,,,,,,,,,,,,,,,,,,,,,,,,,,,,,,,,,,1509.1130148509983,1509.1130148509983,1509.1130148509983,1509.1130148509983,1509.1130148509983,1509.1130148509983,1509.1130148509983,1509.1130148509983,1509.1130148509983,1509.1130148509983,l,1.6068003049585968,1,642,2,1510.7479373960523,1512.2496730460552,,,,,,,,,,,,,,,,,,,,,,,,,,,,,,,,,,,,,,,,,,,,,,,,,,,,,,,,,,,,,,,,,,,,,,,22944,2022-11-03_11h17.52.609,vts_reward_expectancy_bt_OFFLINE,2022.2.4,60.245978051680225,
0,0,1,0,0,0,0,1,hexagon,star,2,0,2,0,1,3,15,8,,,,,,,,,,,,,,,,,,,,,,,,,,,,,,,,,,,,,,,,1512.7500913450494,1512.7500913450494,1512.7500913450494,1512.7500913450494,1512.7500913450494,1512.7500913450494,1512.7500913450494,1512.7500913450494,1512.7500913450494,1512.7500913450494,l,0.8713972870027646,1,643,2,1513.6510525660124,1515.1526813270757,1515.1526813270757,,,,,,,,,,,,,,,,,,,,,,,,,,,,,,,,,,,,,,,,,,,,,,,,,,,,,,,,,,,,,,,,,,,,,,22944,2022-11-03_11h17.52.609,vts_reward_expectancy_bt_OFFLINE,2022.2.4,60.245978051680225,
0,0,0,1,0,1,0,0,star ,circle,2,0,2,0,1,4,16,10,,,,,,,,,,,,,,,,,,,,,,,,,,,,,,,,,,,,,,,,1515.6532954709837,1515.6532954709837,1515.6532954709837,1515.6532954709837,1515.6532954709837,1515.6532954709837,1515.6532954709837,1515.6532954709837,1515.6532954709837,1515.6532954709837,a,2.773128925007768,1,644,2,1518.4563826080412,1519.9581581450766,,,,,,,,,,,,,,,,,,,,,,,,,,,,,,,,,,,,,,,,,,,,,,,,,,,,,,,,,,,,,,,,,,,,,,,22944,2022-11-03_11h17.52.609,vts_reward_expectancy_bt_OFFLINE,2022.2.4,60.245978051680225,
0,0,0,1,0,0,1,0,star,hexagon,2,0,2,0,1,5,17,11,,,,,,,,,,,,,,,,,,,,,,,,,,,,,,,,,,,,,,,,1520.4587818520376,1520.4587818520376,1520.4587818520376,1520.4587818520376,1520.4587818520376,1520.4587818520376,1520.4587818520376,1520.4587818520376,1520.4587818520376,1520.4587818520376,a,1.5452328289393336,10,654,2,1522.0270572910085,1523.5288265220588,,,,,,,,,,,,,,,,,,,,,,,,,,,,,,,,,,,,,,,,,,,,,,,,,,,,,,,,,,,,,,,,,,,,,,,22944,2022-11-03_11h17.52.609,vts_reward_expectancy_bt_OFFLINE,2022.2.4,60.245978051680225,
0,1,0,0,0,0,0,1,circle,star,2,0,2,0,1,6,18,5,,,,,,,,,,,,,,,,,,,,,,,,,,,,,,,,,,,,,,,,1524.0291300220415,1524.0291300220415,1524.0291300220415,1524.0291300220415,1524.0291300220415,1524.0291300220415,1524.0291300220415,1524.0291300220415,1524.0291300220415,1524.0291300220415,l,7.728860710980371,10,664,2,1531.787670832011,1533.2894846299896,,,,,,,,,,,,,,,,,,,,,,,,,,,,,,,,,,,,,,,,,,,,,,,,,,,,,,,,,,,,,,,,,,,,,,,22944,2022-11-03_11h17.52.609,vts_reward_expectancy_bt_OFFLINE,2022.2.4,60.245978051680225,
0,0,0,1,1,0,0,0,star,triangle,2,0,2,0,1,7,19,9,,,,,,,,,,,,,,,,,,,,,,,,,,,,,,,,,,,,,,,,1533.7899815749843,1533.7899815749843,1533.7899815749843,1533.7899815749843,1533.7899815749843,1533.7899815749843,1533.7899815749843,1533.7899815749843,1533.7899815749843,1533.7899815749843,l,1.3681210939539596,1,665,2,1535.1753921380732,1536.6764182160841,1536.6764182160841,,,,,,,,,,,,,,,,,,,,,,,,,,,,,,,,,,,,,,,,,,,,,,,,,,,,,,,,,,,,,,,,,,,,,,22944,2022-11-03_11h17.52.609,vts_reward_expectancy_bt_OFFLINE,2022.2.4,60.245978051680225,
1,0,0,0,0,0,1,0,triangle,hexagon,2,0,2,0,1,8,20,1,,,,,,,,,,,,,,,,,,,,,,,,,,,,,,,,,,,,,,,,1537.1770741969813,1537.1770741969813,1537.1770741969813,1537.1770741969813,1537.1770741969813,1537.1770741969813,1537.1770741969813,1537.1770741969813,1537.1770741969813,1537.1770741969813,l,1.7826696470146999,10,675,2,1538.9792019900633,1540.480643875082,,,,,,,,,,,,,,,,,,,,,,,,,,,,,,,,,,,,,,,,,,,,,,,,,,,,,,,,,,,,,,,,,,,,,,,22944,2022-11-03_11h17.52.609,vts_reward_expectancy_bt_OFFLINE,2022.2.4,60.245978051680225,
1,0,0,0,0,1,0,0,triangle,circle,2,0,2,0,1,9,21,0,,,,,,,,,,,,,,,,,,,,,,,,,,,,,,,,,,,,,,,,1540.981102471007,1540.981102471007,1540.981102471007,1540.981102471007,1540.981102471007,1540.981102471007,1540.981102471007,1540.981102471007,1540.981102471007,1540.981102471007,a,1.52137611201033,10,685,2,1542.5328695520293,1544.0344664150616,,,,,,,,,,,,,,,,,,,,,,,,,,,,,,,,,,,,,,,,,,,,,,,,,,,,,,,,,,,,,,,,,,,,,,,22944,2022-11-03_11h17.52.609,vts_reward_expectancy_bt_OFFLINE,2022.2.4,60.245978051680225,
0,1,0,0,1,0,0,0,circle,triangle,2,0,2,0,1,10,22,3,,,,,,,,,,,,,,,,,,,,,,,,,,,,,,,,,,,,,,,,1544.5351859770017,1544.5351859770017,1544.5351859770017,1544.5351859770017,1544.5351859770017,1544.5351859770017,1544.5351859770017,1544.5351859770017,1544.5351859770017,1544.5351859770017,a,1.0280177139211446,1,686,2,1545.5867271220777,1547.087871153024,,,,,,,,,,,,,,,,,,,,,,,,,,,,,,,,,,,,,,,,,,,,,,,,,,,,,,,,,,,,,,,,,,,,,,,22944,2022-11-03_11h17.52.609,vts_reward_expectancy_bt_OFFLINE,2022.2.4,60.245978051680225,
0,0,1,0,0,1,0,0,hexagon,circle,2,0,2,0,1,11,23,7,,,,,,,,,,,,,,,,,,,,,,,,,,,,,,,,,,,,,,,,1547.5884562780848,1547.5884562780848,1547.5884562780848,1547.5884562780848,1547.5884562780848,1547.5884562780848,1547.5884562780848,1547.5884562780848,1547.5884562780848,1547.5884562780848,l,4.072385154897347,10,696,2,1551.6929960279958,1553.194671217003,,,,,,,,,,,,,,,,,,,,,,,,,,,,,,,,,,,,,,,,,,,,,,,,,,,,,,,,,,,,,,,,,,,,,,,22944,2022-11-03_11h17.52.609,vts_reward_expectancy_bt_OFFLINE,2022.2.4,60.245978051680225,
0,0,1,0,0,0,0,1,hexagon,star,2,0,2,0,2,0,24,8,,,,,,,,,,,,,,,,,,,,,,,,,,,,,,,,,,,,,,,,1553.6953102800762,1553.6953102800762,1553.6953102800762,1553.6953102800762,1553.6953102800762,1553.6953102800762,1553.6953102800762,1553.6953102800762,1553.6953102800762,1553.6953102800762,l,2.084753994946368,10,706,2,1555.797550138086,1557.2994363310281,1557.2994363310281,1557.7997908759862,,,,,,,,,,,,,,,,,,,,,,,,,,,,,,,,,,,,,,,,,,,,,,,,,,,,,,,,,,,,,,,,,,,,,22944,2022-11-03_11h17.52.609,vts_reward_expectancy_bt_OFFLINE,2022.2.4,60.245978051680225,
0,1,0,0,1,0,0,0,circle,triangle,2,0,2,0,2,1,25,3,,,,,,,,,,,,,,,,,,,,,,,,,,,,,,,,,,,,,,,,1557.7997908759862,1557.7997908759862,1557.7997908759862,1557.7997908759862,1557.7997908759862,1557.7997908759862,1557.7997908759862,1557.7997908759862,1557.7997908759862,1557.7997908759862,a,1.1753221820108593,10,716,2,1559.001134757069,1560.502818337991,,,,,,,,,,,,,,,,,,,,,,,,,,,,,,,,,,,,,,,,,,,,,,,,,,,,,,,,,,,,,,,,,,,,,,,22944,2022-11-03_11h17.52.609,vts_reward_expectancy_bt_OFFLINE,2022.2.4,60.245978051680225,
1,0,0,0,0,0,0,1,triangle,star,2,0,2,0,2,2,26,2,,,,,,,,,,,,,,,,,,,,,,,,,,,,,,,,,,,,,,,,1561.0034432060784,1561.0034432060784,1561.0034432060784,1561.0034432060784,1561.0034432060784,1561.0034432060784,1561.0034432060784,1561.0034432060784,1561.0034432060784,1561.0034432060784,l,1.3247181898914278,1,717,2,1562.3549548330484,1563.856511190068,,,,,,,,,,,,,,,,,,,,,,,,,,,,,,,,,,,,,,,,,,,,,,,,,,,,,,,,,,,,,,,,,,,,,,,22944,2022-11-03_11h17.52.609,vts_reward_expectancy_bt_OFFLINE,2022.2.4,60.245978051680225,
0,0,1,0,1,0,0,0,hexagon,triangle,2,0,2,0,2,3,27,6,,,,,,,,,,,,,,,,,,,,,,,,,,,,,,,,,,,,,,,,1564.3569356520893,1564.3569356520893,1564.3569356520893,1564.3569356520893,1564.3569356520893,1564.3569356520893,1564.3569356520893,1564.3569356520893,1564.3569356520893,1564.3569356520893,l,2.0092861348530278,1,718,2,1566.3927679500775,1567.8941977430368,,,,,,,,,,,,,,,,,,,,,,,,,,,,,,,,,,,,,,,,,,,,,,,,,,,,,,,,,,,,,,,,,,,,,,,22944,2022-11-03_11h17.52.609,vts_reward_expectancy_bt_OFFLINE,2022.2.4,60.245978051680225,
0,0,0,1,1,0,0,0,star,triangle,2,0,2,0,2,4,28,9,,,,,,,,,,,,,,,,,,,,,,,,,,,,,,,,,,,,,,,,1568.3948613620596,1568.3948613620596,1568.3948613620596,1568.3948613620596,1568.3948613620596,1568.3948613620596,1568.3948613620596,1568.3948613620596,1568.3948613620596,1568.3948613620596,a,0.8518314929679036,10,728,2,1569.2791934349807,1570.7808556570671,,,,,,,,,,,,,,,,,,,,,,,,,,,,,,,,,,,,,,,,,,,,,,,,,,,,,,,,,,,,,,,,,,,,,,,22944,2022-11-03_11h17.52.609,vts_reward_expectancy_bt_OFFLINE,2022.2.4,60.245978051680225,
0,0,1,0,0,1,0,0,hexagon,circle,2,0,2,0,2,5,29,7,,,,,,,,,,,,,,,,,,,,,,,,,,,,,,,,,,,,,,,,1571.2813519560732,1571.2813519560732,1571.2813519560732,1571.2813519560732,1571.2813519560732,1571.2813519560732,1571.2813519560732,1571.2813519560732,1571.2813519560732,1571.2813519560732,l,0.7882603039033711,1,729,2,1572.099146098015,1573.6005308200838,,,,,,,,,,,,,,,,,,,,,,,,,,,,,,,,,,,,,,,,,,,,,,,,,,,,,,,,,,,,,,,,,,,,,,,22944,2022-11-03_11h17.52.609,vts_reward_expectancy_bt_OFFLINE,2022.2.4,60.245978051680225,
0,1,0,0,0,0,0,1,circle,star,2,0,2,0,2,6,30,5,,,,,,,,,,,,,,,,,,,,,,,,,,,,,,,,,,,,,,,,1574.1012377870502,1574.1012377870502,1574.1012377870502,1574.1012377870502,1574.1012377870502,1574.1012377870502,1574.1012377870502,1574.1012377870502,1574.1012377870502,1574.1012377870502,l,0.9614287748700008,10,739,2,1575.0857027260354,1576.5871740330476,,,,,,,,,,,,,,,,,,,,,,,,,,,,,,,,,,,,,,,,,,,,,,,,,,,,,,,,,,,,,,,,,,,,,,,22944,2022-11-03_11h17.52.609,vts_reward_expectancy_bt_OFFLINE,2022.2.4,60.245978051680225,
0,0,0,1,0,0,1,0,star,hexagon,2,0,2,0,2,7,31,11,,,,,,,,,,,,,,,,,,,,,,,,,,,,,,,,,,,,,,,,1577.0878089560429,1577.0878089560429,1577.0878089560429,1577.0878089560429,1577.0878089560429,1577.0878089560429,1577.0878089560429,1577.0878089560429,1577.0878089560429,1577.0878089560429,a,1.338307349011302,10,749,2,1578.4557680970756,1579.957477826043,,,,,,,,,,,,,,,,,,,,,,,,,,,,,,,,,,,,,,,,,,,,,,,,,,,,,,,,,,,,,,,,,,,,,,,22944,2022-11-03_11h17.52.609,vts_reward_expectancy_bt_OFFLINE,2022.2.4,60.245978051680225,
1,0,0,0,0,0,1,0,triangle,hexagon,2,0,2,0,2,8,32,1,,,,,,,,,,,,,,,,,,,,,,,,,,,,,,,,,,,,,,,,1580.458253532066,1580.458253532066,1580.458253532066,1580.458253532066,1580.458253532066,1580.458253532066,1580.458253532066,1580.458253532066,1580.458253532066,1580.458253532066,l,1.3545565488748252,1,750,2,1581.8430224700132,1583.3445895850891,,,,,,,,,,,,,,,,,,,,,,,,,,,,,,,,,,,,,,,,,,,,,,,,,,,,,,,,,,,,,,,,,,,,,,,22944,2022-11-03_11h17.52.609,vts_reward_expectancy_bt_OFFLINE,2022.2.4,60.245978051680225,
0,1,0,0,0,0,1,0,circle,hexagon,2,0,2,0,2,9,33,4,,,,,,,,,,,,,,,,,,,,,,,,,,,,,,,,,,,,,,,,1583.8452155070845,1583.8452155070845,1583.8452155070845,1583.8452155070845,1583.8452155070845,1583.8452155070845,1583.8452155070845,1583.8452155070845,1583.8452155070845,1583.8452155070845,l,1.1522919749841094,10,760,2,1585.0298706110334,1586.5317091310862,,,,,,,,,,,,,,,,,,,,,,,,,,,,,,,,,,,,,,,,,,,,,,,,,,,,,,,,,,,,,,,,,,,,,,,22944,2022-11-03_11h17.52.609,vts_reward_expectancy_bt_OFFLINE,2022.2.4,60.245978051680225,
1,0,0,0,0,1,0,0,triangle,circle,2,0,2,0,2,10,34,0,,,,,,,,,,,,,,,,,,,,,,,,,,,,,,,,,,,,,,,,1587.0322919019964,1587.0322919019964,1587.0322919019964,1587.0322919019964,1587.0322919019964,1587.0322919019964,1587.0322919019964,1587.0322919019964,1587.0322919019964,1587.0322919019964,a,6.898473434848711,10,770,2,1593.9734184680274,1595.4580050359946,,,,,,,,,,,,,,,,,,,,,,,,,,,,,,,,,,,,,,,,,,,,,,,,,,,,,,,,,,,,,,,,,,,,,,,22944,2022-11-03_11h17.52.609,vts_reward_expectancy_bt_OFFLINE,2022.2.4,60.245978051680225,
0,0,0,1,0,1,0,0,star ,circle,2,0,2,0,2,11,35,10,,,,,,,,,,,,,,,,,,,,,,,,,,,,,,,,,,,,,,,,1595.9586215360323,1595.9586215360323,1595.9586215360323,1595.9586215360323,1595.9586215360323,1595.9586215360323,1595.9586215360323,1595.9586215360323,1595.9586215360323,1595.9586215360323,a,3.157707419944927,10,780,2,1599.1456071360735,1600.6471999980276,,,,,,,,,,,,,,,,,,,,,,,,,,,,,,,,,,,,,,,,,,,,,,,,,,,,,,,,,,,,,,,,,,,,,,,22944,2022-11-03_11h17.52.609,vts_reward_expectancy_bt_OFFLINE,2022.2.4,60.245978051680225,
0,0,1,0,0,0,0,1,hexagon,star,2,0,2,0,3,0,36,8,,,,,,,,,,,,,,,,,,,,,,,,,,,,,,,,,,,,,,,,1601.1476777530042,1601.1476777530042,1601.1476777530042,1601.1476777530042,1601.1476777530042,1601.1476777530042,1601.1476777530042,1601.1476777530042,1601.1476777530042,1601.1476777530042,l,2.6168400519527495,1,781,2,1603.7840808019973,1605.2855723910034,,,,,,,,,,,,,,,,,,,,,,,,,,,,,,,,,,,,,,,,,,,,,,,,,,,,,,,,,,,,,,,,,,,,,,,22944,2022-11-03_11h17.52.609,vts_reward_expectancy_bt_OFFLINE,2022.2.4,60.245978051680225,
1,0,0,0,0,0,0,1,triangle,star,2,0,2,0,3,1,37,2,,,,,,,,,,,,,,,,,,,,,,,,,,,,,,,,,,,,,,,,1605.7860971250338,1605.7860971250338,1605.7860971250338,1605.7860971250338,1605.7860971250338,1605.7860971250338,1605.7860971250338,1605.7860971250338,1605.7860971250338,1605.7860971250338,l,1.8597521400079131,1,782,2,1607.6714495910564,1609.1731790410122,,,,,,,,,,,,,,,,,,,,,,,,,,,,,,,,,,,,,,,,,,,,,,,,,,,,,,,,,,,,,,,,,,,,,,,22944,2022-11-03_11h17.52.609,vts_reward_expectancy_bt_OFFLINE,2022.2.4,60.245978051680225,
0,0,0,1,1,0,0,0,star,triangle,2,0,2,0,3,2,38,9,,,,,,,,,,,,,,,,,,,,,,,,,,,,,,,,,,,,,,,,1609.6736532560317,1609.6736532560317,1609.6736532560317,1609.6736532560317,1609.6736532560317,1609.6736532560317,1609.6736532560317,1609.6736532560317,1609.6736532560317,1609.6736532560317,l,2.010087576927617,10,792,2,1611.709820627002,1613.210849596071,,,,,,,,,,,,,,,,,,,,,,,,,,,,,,,,,,,,,,,,,,,,,,,,,,,,,,,,,,,,,,,,,,,,,,,22944,2022-11-03_11h17.52.609,vts_reward_expectancy_bt_OFFLINE,2022.2.4,60.245978051680225,
0,1,0,0,1,0,0,0,circle,triangle,2,0,2,0,3,3,39,3,,,,,,,,,,,,,,,,,,,,,,,,,,,,,,,,,,,,,,,,1613.711411002092,1613.711411002092,1613.711411002092,1613.711411002092,1613.711411002092,1613.711411002092,1613.711411002092,1613.711411002092,1613.711411002092,1613.711411002092,l,1.3923734950367361,10,802,2,1615.1464740610681,1616.6480124030495,,,,,,,,,,,,,,,,,,,,,,,,,,,,,,,,,,,,,,,,,,,,,,,,,,,,,,,,,,,,,,,,,,,,,,,22944,2022-11-03_11h17.52.609,vts_reward_expectancy_bt_OFFLINE,2022.2.4,60.245978051680225,
1,0,0,0,0,1,0,0,triangle,circle,2,0,2,0,3,4,40,0,,,,,,,,,,,,,,,,,,,,,,,,,,,,,,,,,,,,,,,,1617.131828068057,1617.131828068057,1617.131828068057,1617.131828068057,1617.131828068057,1617.131828068057,1617.131828068057,1617.131828068057,1617.131828068057,1617.131828068057,l,0.729365863953717,1,803,2,1617.8994110060157,1619.3844747820403,,,,,,,,,,,,,,,,,,,,,,,,,,,,,,,,,,,,,,,,,,,,,,,,,,,,,,,,,,,,,,,,,,,,,,,22944,2022-11-03_11h17.52.609,vts_reward_expectancy_bt_OFFLINE,2022.2.4,60.245978051680225,
0,1,0,0,0,0,1,0,circle,hexagon,2,0,2,0,3,5,41,4,,,,,,,,,,,,,,,,,,,,,,,,,,,,,,,,,,,,,,,,1619.8848218850326,1619.8848218850326,1619.8848218850326,1619.8848218850326,1619.8848218850326,1619.8848218850326,1619.8848218850326,1619.8848218850326,1619.8848218850326,1619.8848218850326,l,4.873206979944371,1,804,2,1624.7905908450484,1626.2921055880142,,,,,,,,,,,,,,,,,,,,,,,,,,,,,,,,,,,,,,,,,,,,,,,,,,,,,,,,,,,,,,,,,,,,,,,22944,2022-11-03_11h17.52.609,vts_reward_expectancy_bt_OFFLINE,2022.2.4,60.245978051680225,
0,0,1,0,1,0,0,0,hexagon,triangle,2,0,2,0,3,6,42,6,,,,,,,,,,,,,,,,,,,,,,,,,,,,,,,,,,,,,,,,1626.792676301091,1626.792676301091,1626.792676301091,1626.792676301091,1626.792676301091,1626.792676301091,1626.792676301091,1626.792676301091,1626.792676301091,1626.792676301091,a,1.3859282578341663,10,814,2,1628.2107457850361,1629.7124593810877,,,,,,,,,,,,,,,,,,,,,,,,,,,,,,,,,,,,,,,,,,,,,,,,,,,,,,,,,,,,,,,,,,,,,,,22944,2022-11-03_11h17.52.609,vts_reward_expectancy_bt_OFFLINE,2022.2.4,60.245978051680225,
1,0,0,0,0,0,1,0,triangle,hexagon,2,0,2,0,3,7,43,1,,,,,,,,,,,,,,,,,,,,,,,,,,,,,,,,,,,,,,,,1630.2128911350155,1630.2128911350155,1630.2128911350155,1630.2128911350155,1630.2128911350155,1630.2128911350155,1630.2128911350155,1630.2128911350155,1630.2128911350155,1630.2128911350155,a,1.7119035449577495,1,815,2,1631.9485967000946,1633.4500027920585,,,,,,,,,,,,,,,,,,,,,,,,,,,,,,,,,,,,,,,,,,,,,,,,,,,,,,,,,,,,,,,,,,,,,,,22944,2022-11-03_11h17.52.609,vts_reward_expectancy_bt_OFFLINE,2022.2.4,60.245978051680225,
0,1,0,0,0,0,0,1,circle,star,2,0,2,0,3,8,44,5,,,,,,,,,,,,,,,,,,,,,,,,,,,,,,,,,,,,,,,,1633.9502433880698,1633.9502433880698,1633.9502433880698,1633.9502433880698,1633.9502433880698,1633.9502433880698,1633.9502433880698,1633.9502433880698,1633.9502433880698,1633.9502433880698,a,1.091433850931935,1,816,2,1635.0682804570533,1636.5701209569816,,,,,,,,,,,,,,,,,,,,,,,,,,,,,,,,,,,,,,,,,,,,,,,,,,,,,,,,,,,,,,,,,,,,,,,22944,2022-11-03_11h17.52.609,vts_reward_expectancy_bt_OFFLINE,2022.2.4,60.245978051680225,
0,0,1,0,0,1,0,0,hexagon,circle,2,0,2,0,3,9,45,7,,,,,,,,,,,,,,,,,,,,,,,,,,,,,,,,,,,,,,,,1637.07051426603,1637.07051426603,1637.07051426603,1637.07051426603,1637.07051426603,1637.07051426603,1637.07051426603,1637.07051426603,1637.07051426603,1637.07051426603,a,8.410639693960547,1,817,2,1645.5132963750511,1647.0148206470767,,,,,,,,,,,,,,,,,,,,,,,,,,,,,,,,,,,,,,,,,,,,,,,,,,,,,,,,,,,,,,,,,,,,,,,22944,2022-11-03_11h17.52.609,vts_reward_expectancy_bt_OFFLINE,2022.2.4,60.245978051680225,
0,0,0,1,0,0,1,0,star,hexagon,2,0,2,0,3,10,46,11,,,,,,,,,,,,,,,,,,,,,,,,,,,,,,,,,,,,,,,,1647.5155877380166,1647.5155877380166,1647.5155877380166,1647.5155877380166,1647.5155877380166,1647.5155877380166,1647.5155877380166,1647.5155877380166,1647.5155877380166,1647.5155877380166,a,2.1629841199610382,10,827,2,1649.7016289880266,1651.202858028002,,,,,,,,,,,,,,,,,,,,,,,,,,,,,,,,,,,,,,,,,,,,,,,,,,,,,,,,,,,,,,,,,,,,,,,22944,2022-11-03_11h17.52.609,vts_reward_expectancy_bt_OFFLINE,2022.2.4,60.245978051680225,
0,0,0,1,0,1,0,0,star ,circle,2,0,2,0,3,11,47,10,,,,,,,,,,,,,,,,,,,,,,,,,,,,,,,,,,,,,,,,1651.7034896879923,1651.7034896879923,1651.7034896879923,1651.7034896879923,1651.7034896879923,1651.7034896879923,1651.7034896879923,1651.7034896879923,1651.7034896879923,1651.7034896879923,a,1.1255928579485044,10,837,2,1652.8544836860383,1654.3564174650237,,,,,,,,,,,,,,,,,,,,,,,,,,,,,,,,,,,,,,,,,,,,,,,,,,,,,,,,,,,,,,,,,,,,,,,22944,2022-11-03_11h17.52.609,vts_reward_expectancy_bt_OFFLINE,2022.2.4,60.245978051680225,
,,,,,,,,,,,,,,,,,,0,0,0,0,0,0,0,0,,,,,,,,,,,,,,,,,,,,,,,,,,,,,,,,,,,,,,,,,,,,,,,,1683.171596433036,,1683.6718489150517,S,146,triangle,0.0020740749314427376,1677.1665324850474,1678.6665028110147,1678.6665028110147,1678.6665028110147,1681.669874023064,1681.669874023064,1681.669874023064,1681.669874023064,0,0,None,0,1681.669874023064,1683.171596433036,,,,,,,,,,,,,,,,,,,,,,,,,,,,,,,,,,,,,,,,,,,,,,,,,,,22944,2022-11-03_11h17.52.609,vts_reward_expectancy_bt_OFFLINE,2022.2.4,60.245978051680225,
,,,,,,,,,,,,,,,,,,0,0,0,0,1,0,1,0,,,,,,,,,,,,,,,,,,,,,,,,,,,,,,,,,,,,,,,,,,,,,,,,1688.5940903470619,,,U,174,star,0.008863230934366584,1684.1726383600617,1685.6742141610011,1685.6742141610011,1685.6742141610011,,,,,1,1,f,0,1687.1094343130244,,1.3917955419747159,,,,,,,,,,,,,,,,,,,,,,,,,,,,,,,,,,,,,,,,,,,,,,,,,,22944,2022-11-03_11h17.52.609,vts_reward_expectancy_bt_OFFLINE,2022.2.4,60.245978051680225,
,,,,,,,,,,,,,,,,,,0,0,0,0,2,0,2,0,,,,,,,,,,,,,,,,,,,,,,,,,,,,,,,,,,,,,,,,,,,,,,,,1693.132359605981,,,H,139,circle,0.0011927069863304496,1689.5797152019804,1691.0803118710173,1691.0803118710173,1691.0803118710173,,,,,1,0,d,0,1691.6308617210016,,0.5183501349529251,,,,,,,,,,,,,,,,,,,,,,,,,,,,,,,,,,,,,,,,,,,,,,,,,,22944,2022-11-03_11h17.52.609,vts_reward_expectancy_bt_OFFLINE,2022.2.4,60.245978051680225,
,,,,,,,,,,,,,,,,,,0,0,0,0,3,0,3,0,,,,,,,,,,,,,,,,,,,,,,,,,,,,,,,,,,,,,,,,,,,,,,,,1697.8378447330324,,,D,125,hexagon,0.001250780071131885,1694.2000885510352,1695.6186609680299,1695.6186609680299,1695.6186609680299,,,,,1,0,d,0,1696.3358397220727,,0.6845682729035616,,,,,,,,,,,,,,,,,,,,,,,,,,,,,,,,,,,,,,,,,,,,,,,,,,22944,2022-11-03_11h17.52.609,vts_reward_expectancy_bt_OFFLINE,2022.2.4,60.245978051680225,
,,,,,,,,,,,,,,,,,,0,0,0,0,4,0,4,0,,,,,,,,,,,,,,,,,,,,,,,,,,,,,,,,,,,,,,,,,,,,,,,,1702.6096700429916,,,B,181,triangle,0.0013388540828600526,1698.8219243630301,1700.323796415003,1700.323796415003,1700.323796415003,,,,,1,0,d,0,1701.1078354410129,,0.7592861838638783,,,,,,,,,,,,,,,,,,,,,,,,,,,,,,,,,,,,,,,,,,,,,,,,,,22944,2022-11-03_11h17.52.609,vts_reward_expectancy_bt_OFFLINE,2022.2.4,60.245978051680225,
,,,,,,,,,,,,,,,,,,0,0,0,0,5,0,5,0,,,,,,,,,,,,,,,,,,,,,,,,,,,,,,,,,,,,,,,,,,,,,,,,1707.264625419979,,,Y,167,hexagon,0.0012277099303901196,1703.5940813560737,1705.0955970219802,1705.0955970219802,1705.0955970219802,,,,,1,0,f,0,1705.7629616680788,,0.6447640329133719,,,,,,,,,,,,,,,,,,,,,,,,,,,,,,,,,,,,,,,,,,,,,,,,,,22944,2022-11-03_11h17.52.609,vts_reward_expectancy_bt_OFFLINE,2022.2.4,60.245978051680225,
,,,,,,,,,,,,,,,,,,0,0,0,0,6,0,6,0,,,,,,,,,,,,,,,,,,,,,,,,,,,,,,,,,,,,,,,,,,,,,,,,1711.886376198032,,,W,132,circle,0.001130491029471159,1708.2490181770409,1709.7509909070795,1709.7509909070795,1709.7509909070795,,,,,1,0,f,0,1710.3848976449808,,0.6146751838969067,,,,,,,,,,,,,,,,,,,,,,,,,,,,,,,,,,,,,,,,,,,,,,,,,,22944,2022-11-03_11h17.52.609,vts_reward_expectancy_bt_OFFLINE,2022.2.4,60.245978051680225,
,,,,,,,,,,,,,,,,,,0,0,0,0,7,0,7,0,,,,,,,,,,,,,,,,,,,,,,,,,,,,,,,,,,,,,,,,,,,,,,,,1716.6082233770285,,,F,160,star,0.0013286679750308394,1712.870749577065,1714.372476152028,1714.372476152028,1714.372476152028,,,,,1,0,d,0,1715.1066841779975,,0.7069441078929231,,,,,,,,,,,,,,,,,,,,,,,,,,,,,,,,,,,,,,,,,,,,,,,,,,22944,2022-11-03_11h17.52.609,vts_reward_expectancy_bt_OFFLINE,2022.2.4,60.245978051680225,
,,,,,,,,,,,,,,,,,,0,0,0,0,8,0,8,0,,,,,,,,,,,,,,,,,,,,,,,,,,,,,,,,,,,,,,,,,,,,,,,,1721.3297842449974,,,S,146,circle,0.0011581529397517443,1717.5927747529931,1719.0944443059852,1719.0944443059852,1719.0944443059852,,,,,1,0,f,0,1719.8281235350296,1721.3297842449974,0.7093730709748343,,,,,,,,,,,,,,,,,,,,,,,,,,,,,,,,,,,,,,,,,,,,,,,,,,22944,2022-11-03_11h17.52.609,vts_reward_expectancy_bt_OFFLINE,2022.2.4,60.245978051680225,
,,,,,,,,,,,,,,,,,,0,0,0,0,9,0,9,0,,,,,,,,,,,,,,,,,,,,,,,,,,,,,,,,,,,,,,,,,,,,,,,,1725.9854045850225,,,U,174,star,0.001264255028218031,1722.3147061719792,1723.8163960850798,1723.8163960850798,1723.8163960850798,,,,,1,0,f,0,1724.4839458160568,,0.6350666348589584,,,,,,,,,,,,,,,,,,,,,,,,,,,,,,,,,,,,,,,,,,,,,,,,,,22944,2022-11-03_11h17.52.609,vts_reward_expectancy_bt_OFFLINE,2022.2.4,60.245978051680225,
,,,,,,,,,,,,,,,,,,,,,,,,,,0,0,0,0,0,0,0,0,,,,,,,,,,,,,,,,,,,,,,,,,,,,,,,,,,,,,,,,1757.2196973470272,,,U,160,hexagon,0.0017571250209584832,,,,,,,,,1,0,,1,1755.7182146030245,,,1753.4655619580299,1754.9672332950868,1754.9672332950868,1754.9672332950868,k,0.727371682994999,,,,,,,,,,,,,,,,,,,,,,,,,,,,,,,,,,,,,,,,,,,,22944,2022-11-03_11h17.52.609,vts_reward_expectancy_bt_OFFLINE,2022.2.4,60.245978051680225,
,,,,,,,,,,,,,,,,,,,,,,,,,,0,0,0,0,1,0,1,0,,,,,,,,,,,,,,,,,,,,,,,,,,,,,,,,,,,,,,,,1761.708311798051,,,D,146,star,0.0013464760268107057,,,,,,,,,1,0,,1,1760.206449991092,,,1758.2042638320709,1759.7058005360886,1759.7058005360886,1759.7058005360886,j,0.4680888729635626,,,,,,,,,,,,,,,,,,,,,,,,,,,,,,,,,,,,,,,,,,,,22944,2022-11-03_11h17.52.609,vts_reward_expectancy_bt_OFFLINE,2022.2.4,60.245978051680225,
,,,,,,,,,,,,,,,,,,,,,,,,,,0,0,0,0,2,0,2,0,,,,,,,,,,,,,,,,,,,,,,,,,,,,,,,,,,,,,,,,1766.263088567066,,,S,167,triangle,0.0013766029151156545,,,,,,,,,1,0,,1,1764.7616475530667,,,1762.6925407319795,1764.1942737359786,1764.1942737359786,1764.1942737359786,k,0.5460837329737842,,,,,,,,,,,,,,,,,,,,,,,,,,,,,,,,,,,,,,,,,,,,22944,2022-11-03_11h17.52.609,vts_reward_expectancy_bt_OFFLINE,2022.2.4,60.245978051680225,
,,,,,,,,,,,,,,,,,,,,,,,,,,0,0,0,0,3,0,3,0,,,,,,,,,,,,,,,,,,,,,,,,,,,,,,,,,,,,,,,,1771.001625480014,,,F,132,circle,0.0013083729427307844,,,,,,,,,1,0,,1,1769.4999825110426,,,1767.2476698780665,1768.749101102003,1768.749101102003,1768.749101102003,j,0.727379699004814,,,,,,,,,,,,,,,,,,,,,,,,,,,,,,,,,,,,,,,,,,,,22944,2022-11-03_11h17.52.609,vts_reward_expectancy_bt_OFFLINE,2022.2.4,60.245978051680225,
,,,,,,,,,,,,,,,,,,,,,,,,,,0,0,0,0,4,0,4,0,,,,,,,,,,,,,,,,,,,,,,,,,,,,,,,,,,,,,,,,1775.4567607410718,,,H,174,circle,0.0014878800138831139,,,,,,,,,0,0,,1,1773.9558465080336,,,1771.9866885429947,1773.48773665505,1773.48773665505,1773.48773665505,j,0.4443338830024004,,,,,,,,,,,,,,,,,,,,,,,,,,,,,,,,,,,,,,,,,,,,22944,2022-11-03_11h17.52.609,vts_reward_expectancy_bt_OFFLINE,2022.2.4,60.245978051680225,
,,,,,,,,,,,,,,,,,,,,,,,,,,0,0,0,0,5,0,5,0,,,,,,,,,,,,,,,,,,,,,,,,,,,,,,,,,,,,,,,,1780.0618480850244,,,B,125,triangle,0.0011483479756861925,,,,,,,,,1,1,,1,1778.5613375200192,,,1776.441007490037,1777.9426800230285,1777.9426800230285,1777.9426800230285,j,0.5914315648842603,,,,,,,,,,,,,,,,,,,,,,,,,,,,,,,,,,,,,,,,,,,,22944,2022-11-03_11h17.52.609,vts_reward_expectancy_bt_OFFLINE,2022.2.4,60.245978051680225,
,,,,,,,,,,,,,,,,,,,,,,,,,,0,0,0,0,6,0,6,0,,,,,,,,,,,,,,,,,,,,,,,,,,,,,,,,,,,,,,,,1784.6667913100682,,,Y,181,hexagon,0.0011832650052383542,,,,,,,,,1,0,,1,1783.1653761570342,1784.6667913100682,,1781.046073412057,1782.5478787170723,1782.5478787170723,1782.5478787170723,k,0.6004877539817244,,,,,,,,,,,,,,,,,,,,,,,,,,,,,,,,,,,,,,,,,,,,22944,2022-11-03_11h17.52.609,vts_reward_expectancy_bt_OFFLINE,2022.2.4,60.245978051680225,
,,,,,,,,,,,,,,,,,,,,,,,,,,0,0,0,0,7,0,7,0,,,,,,,,,,,,,,,,,,,,,,,,,,,,,,,,,,,,,,,,1789.4386519030668,,,W,139,star,0.0008737200405448675,,,,,,,,,1,0,,1,1787.9369666250423,,,1785.6511032930575,1787.15277478809,1787.15277478809,1787.15277478809,j,0.7527810819447041,,,,,,,,,,,,,,,,,,,,,,,,,,,,,,,,,,,,,,,,,,,,22944,2022-11-03_11h17.52.609,vts_reward_expectancy_bt_OFFLINE,2022.2.4,60.245978051680225,
,,,,,,,,,,,,,,,,,,,,,,,,,,0,0,0,0,8,0,8,0,,,,,,,,,,,,,,,,,,,,,,,,,,,,,,,,,,,,,,,,1793.9935574419796,,,U,160,circle,0.0014068230520933867,,,,,,,,,1,0,,1,1792.4919779649936,,,1790.4229720510775,1791.9247145180125,1791.9247145180125,1791.9247145180125,k,0.5372366450028494,,,,,,,,,,,,,,,,,,,,,,,,,,,,,,,,,,,,,,,,,,,,22944,2022-11-03_11h17.52.609,vts_reward_expectancy_bt_OFFLINE,2022.2.4,60.245978051680225,
,,,,,,,,,,,,,,,,,,,,,,,,,,0,0,0,0,9,0,9,0,,,,,,,,,,,,,,,,,,,,,,,,,,,,,,,,,,,,,,,,1798.5820192979882,,,D,146,triangle,0.0010550119914114475,,,,,,,,,1,0,,1,1797.0803336499957,,,1794.9781003830722,1796.479695313028,1796.479695313028,1796.479695313028,j,0.5734954399522394,,,,,,,,,,,,,,,,,,,,,,,,,,,,,,,,,,,,,,,,,,,,22944,2022-11-03_11h17.52.609,vts_reward_expectancy_bt_OFFLINE,2022.2.4,60.245978051680225,
,,,,,,,,,,,,,,,,,,,,,,,,,,,,,,,,,,0,0,0,0,0,0,0,0,,,,,,,,,,,,,,,,,,,,,,,,,,,,0,837,,,1858.5818074169802,,,W,146,star,0.0020992939826101065,,,,,,,,,1,0,,2,,,,,,,,,,1853.0423566850368,1853.0423566850368,1853.0423566850368,1853.0423566850368,1854.5271944330307,1854.5271944330307,1854.5271944330307,1854.5271944330307,1854.5440776069881,1854.5440776069881,1854.5440776069881,1854.5440776069881,-1,letter,NA,f,2.526299271034077,vtsPrac,1857.0966177980881,,,,,,,,,,,,,,,,,,,,,,,,,22944,2022-11-03_11h17.52.609,vts_reward_expectancy_bt_OFFLINE,2022.2.4,60.245978051680225,
,,,,,,,,,,,,,,,,,,,,,,,,,,,,,,,,,,0,0,0,0,1,0,1,0,,,,,,,,,,,,,,,,,,,,,,,,,,,,0,837,,,1863.286805575015,,,F,167,circle,0.0010355429258197546,,,,,,,,,1,0,,2,,,,,,,,,,1859.5661223750794,1859.5661223750794,1859.5661223750794,1859.5661223750794,1861.0676144100726,1861.0676144100726,1861.0676144100726,1861.0676144100726,1861.0676144100726,1861.0676144100726,1861.0676144100726,1861.0676144100726,switch,number,numSwt,k,0.6880321899661794,vtsPrac,1861.7851469410816,,,,,,,,,,,,,,,,,,,,,,,,,22944,2022-11-03_11h17.52.609,vts_reward_expectancy_bt_OFFLINE,2022.2.4,60.245978051680225,
,,,,,,,,,,,,,,,,,,,,,,,,,,,,,,,,,,0,0,0,0,2,0,2,0,,,,,,,,,,,,,,,,,,,,,,,,,,,,0,837,,,1867.7585832950426,,,D,139,triangle,0.0013497379841282964,,,,,,,,,1,0,,2,,,,,,,,,,1864.271856641979,1864.271856641979,1864.271856641979,1864.271856641979,1865.7730932630366,1865.7730932630366,1865.7730932630366,1865.7730932630366,1865.7730932630366,1865.7730932630366,1865.7730932630366,1865.7730932630366,repeat,number,numRpt,j,0.45097792497836053,vtsPrac,1866.2568009430543,,,,,,,,,,,,,,,,,,,,,,,,,22944,2022-11-03_11h17.52.609,vts_reward_expectancy_bt_OFFLINE,2022.2.4,60.245978051680225,
,,,,,,,,,,,,,,,,,,,,,,,,,,,,,,,,,,0,0,0,0,3,0,3,0,,,,,,,,,,,,,,,,,,,,,,,,,,,,0,837,,,1872.4968804250238,,,S,174,circle,0.001475512981414795,,,,,,,,,1,0,,2,,,,,,,,,,1868.7428659320576,1868.7428659320576,1868.7428659320576,1868.7428659320576,1870.244391296059,1870.244391296059,1870.244391296059,1870.244391296059,1870.244391296059,1870.244391296059,1870.244391296059,1870.244391296059,switch,letter,lettSwt,f,0.7252525199437514,vtsPrac,1870.995202803053,,,,,,,,,,,,,,,,,,,,,,,,,22944,2022-11-03_11h17.52.609,vts_reward_expectancy_bt_OFFLINE,2022.2.4,60.245978051680225,
,,,,,,,,,,,,,,,,,,,,,,,,,,,,,,,,,,0,0,0,0,4,0,4,0,,,,,,,,,,,,,,,,,,,,,,,,,,,,0,837,,,1877.21896634507,,,W,146,star,0.0010689799673855305,,,,,,,,,1,0,,2,,,,,,,,,,1873.4813754659845,1873.4813754659845,1873.4813754659845,1873.4813754659845,1874.983070048038,1874.983070048038,1874.983070048038,1874.983070048038,1874.983070048038,1874.983070048038,1874.983070048038,1874.983070048038,switch,number,numSwt,j,0.7126024599419907,vtsPrac,1875.7174415000482,,,,,,,,,,,,,,,,,,,,,,,,,22944,2022-11-03_11h17.52.609,vts_reward_expectancy_bt_OFFLINE,2022.2.4,60.245978051680225,
,,,,,,,,,,,,,,,,,,,,,,,,,,,,,,,,,,0,0,0,0,5,0,5,0,,,,,,,,,,,,,,,,,,,,,,,,,,,,0,837,,,1881.8408254830865,,,F,167,circle,0.0014148299815133214,,,,,,,,,1,0,,2,,,,,,,,,,1878.2031682750676,1878.2031682750676,1878.2031682750676,1878.2031682750676,1879.7046663460787,1879.7046663460787,1879.7046663460787,1879.7046663460787,1879.7046663460787,1879.7046663460787,1879.7046663460787,1879.7046663460787,switch,letter,lettSwt,d,0.603100853972137,vtsPrac,1880.338857357041,1881.8408254830865,,,,,,,,,,,,,,,,,,,,,,,,22944,2022-11-03_11h17.52.609,vts_reward_expectancy_bt_OFFLINE,2022.2.4,60.245978051680225,
,,,,,,,,,,,,,,,,,,,,,,,,,,,,,,,,,,0,0,0,0,6,0,6,0,,,,,,,,,,,,,,,,,,,,,,,,,,,,0,837,,,1886.4457190020476,,,D,139,hexagon,0.0010736009571701288,,,,,,,,,1,0,,2,,,,,,,,,,1882.8250684820814,1882.8250684820814,1882.8250684820814,1882.8250684820814,1884.3268021070398,1884.3268021070398,1884.3268021070398,1884.3268021070398,1884.3268021070398,1884.3268021070398,1884.3268021070398,1884.3268021070398,repeat,letter,lettRpt,d,0.5845143449259922,vtsPrac,1884.9440953430021,,,,,,,,,,,,,,,,,,,,,,,,,22944,2022-11-03_11h17.52.609,vts_reward_expectancy_bt_OFFLINE,2022.2.4,60.245978051680225,
,,,,,,,,,,,,,,,,,,,,,,,,,,,,,,,,,,0,0,0,0,7,0,7,0,,,,,,,,,,,,,,,,,,,,,,,,,,,,0,837,,,1890.9172494960949,,,S,174,circle,0.0010529750725254416,,,,,,,,,1,0,,2,,,,,,,,,,1887.430078638019,1887.430078638019,1887.430078638019,1887.430078638019,1888.9318405750673,1888.9318405750673,1888.9318405750673,1888.9318405750673,1888.9318405750673,1888.9318405750673,1888.9318405750673,1888.9318405750673,switch,number,numSwt,k,0.45645879895891994,vtsPrac,1889.4155692660715,,,,,,,,,,,,,,,,,,,,,,,,,22944,2022-11-03_11h17.52.609,vts_reward_expectancy_bt_OFFLINE,2022.2.4,60.245978051680225,
,,,,,,,,,,,,,,,,,,,,,,,,,,,,,,,,,,0,0,0,0,8,0,8,0,,,,,,,,,,,,,,,,,,,,,,,,,,,,0,837,,,1895.589123931015,,,S,132,circle,0.0013753930106759071,,,,,,,,,1,0,,2,,,,,,,,,,1891.902332735015,1891.902332735015,1891.902332735015,1891.902332735015,1893.4034409950254,1893.4034409950254,1893.4034409950254,1893.4034409950254,1893.4034409950254,1893.4034409950254,1893.4034409950254,1893.4034409950254,repeat,number,numRpt,j,0.6663567560026422,vtsPrac,1894.0876078479923,,,,,,,,,,,,,,,,,,,,,,,,,22944,2022-11-03_11h17.52.609,vts_reward_expectancy_bt_OFFLINE,2022.2.4,60.245978051680225,
,,,,,,,,,,,,,,,,,,,,,,,,,,,,,,,,,,0,0,0,0,9,0,9,0,,,,,,,,,,,,,,,,,,,,,,,,,,,,0,837,,,1900.1942204720108,,,B,160,hexagon,0.0012547390069812536,,,,,,,,,1,0,,2,,,,,,,,,,1896.5746227820637,1896.5746227820637,1896.5746227820637,1896.5746227820637,1898.0752783810021,1898.0752783810021,1898.0752783810021,1898.0752783810021,1898.0752783810021,1898.0752783810021,1898.0752783810021,1898.0752783810021,switch,letter,lettSwt,d,0.5943704849341884,vtsPrac,1898.6925294960383,,,,,,,,,,,,,,,,,,,,,,,,,22944,2022-11-03_11h17.52.609,vts_reward_expectancy_bt_OFFLINE,2022.2.4,60.245978051680225,
,,,,,,,,,,,,,,,,,,,,,,,,,,,,,,,,,,0,0,0,0,10,0,10,0,,,,,,,,,,,,,,,,,,,,,,,,,,,,0,837,,,1904.8493552950677,,,Y,167,hexagon,0.001026454963721335,,,,,,,,,1,0,,2,,,,,,,,,,1901.1788843800314,1901.1788843800314,1901.1788843800314,1901.1788843800314,1902.6802759109996,1902.6802759109996,1902.6802759109996,1902.6802759109996,1902.6802759109996,1902.6802759109996,1902.6802759109996,1902.6802759109996,repeat,letter,lettRpt,f,0.648167343926616,vtsPrac,1903.347603250062,,,,,,,,,,,,,,,,,,,,,,,,,22944,2022-11-03_11h17.52.609,vts_reward_expectancy_bt_OFFLINE,2022.2.4,60.245978051680225,
,,,,,,,,,,,,,,,,,,,,,,,,,,,,,,,,,,0,0,0,0,11,0,11,0,,,,,,,,,,,,,,,,,,,,,,,,,,,,0,837,,,1909.554743466084,,,D,174,star,0.001354048028588295,,,,,,,,,1,0,,2,,,,,,,,,,1905.833706342033,1905.833706342033,1905.833706342033,1905.833706342033,1907.3355614499887,1907.3355614499887,1907.3355614499887,1907.3355614499887,1907.3355614499887,1907.3355614499887,1907.3355614499887,1907.3355614499887,repeat,letter,lettRpt,d,0.6847886700415984,vtsPrac,1908.0529293570435,,,,,,,,,,,,,,,,,,,,,,,,,22944,2022-11-03_11h17.52.609,vts_reward_expectancy_bt_OFFLINE,2022.2.4,60.245978051680225,
,,,,,,,,,,,,,,,,,,,,,,,,,,,,,,,,,,0,0,0,0,12,0,12,0,,,,,,,,,,,,,,,,,,,,,,,,,,,,0,837,,,1914.2429147399962,,,H,132,star,0.0012115789577364922,,,,,,,,,1,0,,2,,,,,,,,,,1910.5392169520492,1910.5392169520492,1910.5392169520492,1910.5392169520492,1912.040541335009,1912.040541335009,1912.040541335009,1912.040541335009,1912.040541335009,1912.040541335009,1912.040541335009,1912.040541335009,switch,number,numSwt,j,0.6699610539944842,vtsPrac,1912.7414265710395,1914.2429147399962,,,,,,,,,,,,,,,,,,,,,,,,22944,2022-11-03_11h17.52.609,vts_reward_expectancy_bt_OFFLINE,2022.2.4,60.245978051680225,
,,,,,,,,,,,,,,,,,,,,,,,,,,,,,,,,,,0,0,0,0,13,0,13,0,,,,,,,,,,,,,,,,,,,,,,,,,,,,0,837,,,1918.8647595370421,,1919.36545075709,U,181,hexagon,0.0012066200142726302,,,,,,,,,1,0,,2,,,,,,,,,,1915.2277789360378,1915.2277789360378,1915.2277789360378,1915.2277789360378,1916.7289740550332,1916.7289740550332,1916.7289740550332,1916.7289740550332,1916.7289740550332,1916.7289740550332,1916.7289740550332,1916.7289740550332,repeat,number,numRpt,k,0.6179025189485401,vtsPrac,1917.3630327599822,1918.8647595370421,,,,,,,,,,,,,,,,,,,,,,,,22944,2022-11-03_11h17.52.609,vts_reward_expectancy_bt_OFFLINE,2022.2.4,60.245978051680225,
,,,,,,,,,,,,,,,,,,,,,,,,,,,,,,,,,,0,0,0,0,14,0,14,0,,,,,,,,,,,,,,,,,,,,,,,,,,,,0,837,,,1924.0539441100555,,,S,125,circle,0.0008150010835379362,,,,,,,,,1,0,,2,,,,,,,,,,1919.8496880750172,1919.8496880750172,1919.8496880750172,1919.8496880750172,1921.3508218580391,1921.3508218580391,1921.3508218580391,1921.3508218580391,1921.3508218580391,1921.3508218580391,1921.3508218580391,1921.3508218580391,repeat,number,numRpt,j,1.1824993839254603,vtsPrac,1922.552086046082,,,,,,,,,,,,,,,,,,,,,,,,,22944,2022-11-03_11h17.52.609,vts_reward_expectancy_bt_OFFLINE,2022.2.4,60.245978051680225,
,,,,,,,,,,,,,,,,,,,,,,,,,,,,,,,,,,0,0,0,0,15,0,15,0,,,,,,,,,,,,,,,,,,,,,,,,,,,,0,837,,,1928.6922763020266,,,W,146,triangle,0.0012286599958315492,,,,,,,,,1,0,,2,,,,,,,,,,1925.0384596330114,1925.0384596330114,1925.0384596330114,1925.0384596330114,1926.5400060400134,1926.5400060400134,1926.5400060400134,1926.5400060400134,1926.5400060400134,1926.5400060400134,1926.5400060400134,1926.5400060400134,repeat,number,numRpt,j,0.6280371929751709,vtsPrac,1927.1906908249948,,,,,,,,,,,,,,,,,,,,,,,,,22944,2022-11-03_11h17.52.609,vts_reward_expectancy_bt_OFFLINE,2022.2.4,60.245978051680225,
,,,,,,,,,,,,,,,,,,,,,,,,,,,,,,,,,,0,0,0,0,16,0,16,0,,,,,,,,,,,,,,,,,,,,,,,,,,,,0,837,,,1934.081575482036,,,Y,174,star,0.0012500920565798879,,,,,,,,,1,0,,2,,,,,,,,,,1929.6766930620652,1929.6766930620652,1929.6766930620652,1929.6766930620652,1931.1784010250121,1931.1784010250121,1931.1784010250121,1931.1784010250121,1931.1784010250121,1931.1784010250121,1931.1784010250121,1931.1784010250121,switch,letter,lettSwt,f,1.368868452962488,vtsPrac,1932.5798380650813,,,,,,,,,,,,,,,,,,,,,,,,,22944,2022-11-03_11h17.52.609,vts_reward_expectancy_bt_OFFLINE,2022.2.4,60.245978051680225,
,,,,,,,,,,,,,,,,,,,,,,,,,,,,,,,,,,0,0,0,0,17,0,17,0,,,,,,,,,,,,,,,,,,,,,,,,,,,,0,837,,,1939.3708460860653,,,H,167,triangle,0.001409868011251092,,,,,,,,,1,0,,2,,,,,,,,,,1935.0662542569917,1935.0662542569917,1935.0662542569917,1935.0662542569917,1936.5676902260166,1936.5676902260166,1936.5676902260166,1936.5676902260166,1936.5676902260166,1936.5676902260166,1936.5676902260166,1936.5676902260166,switch,number,numSwt,k,1.2771042028907686,vtsPrac,1937.8692122830544,,,,,,,,,,,,,,,,,,,,,,,,,22944,2022-11-03_11h17.52.609,vts_reward_expectancy_bt_OFFLINE,2022.2.4,60.245978051680225,
,,,,,,,,,,,,,,,,,,,,,,,,,,,,,,,,,,0,0,0,0,18,0,18,0,,,,,,,,,,,,,,,,,,,,,,,,,,,,0,837,,,1943.8257585950196,,,B,139,circle,0.001197340083308518,,,,,,,,,1,0,,2,,,,,,,,,,1940.3553172620013,1940.3553172620013,1940.3553172620013,1940.3553172620013,1941.8568506300217,1941.8568506300217,1941.8568506300217,1941.8568506300217,1941.8568506300217,1941.8568506300217,1941.8568506300217,1941.8568506300217,switch,letter,lettSwt,d,0.4439060629811138,vtsPrac,1942.323954547057,,,,,,,,,,,,,,,,,,,,,,,,,22944,2022-11-03_11h17.52.609,vts_reward_expectancy_bt_OFFLINE,2022.2.4,60.245978051680225,
,,,,,,,,,,,,,,,,,,,,,,,,,,,,,,,,,,0,0,0,0,19,0,19,0,,,,,,,,,,,,,,,,,,,,,,,,,,,,0,837,,,1948.380608915002,,,S,160,triangle,0.0014001280069351196,,,,,,,,,1,0,,2,,,,,,,,,,1944.8102415670874,1944.8102415670874,1944.8102415670874,1944.8102415670874,1946.3120054850588,1946.3120054850588,1946.3120054850588,1946.3120054850588,1946.3120054850588,1946.3120054850588,1946.3120054850588,1946.3120054850588,repeat,letter,lettRpt,f,0.545486754970625,vtsPrac,1946.8790864560287,,,,,,,,,,,,,,,,,,,,,,,,,22944,2022-11-03_11h17.52.609,vts_reward_expectancy_bt_OFFLINE,2022.2.4,60.245978051680225,
,,,,,,,,,,,,,,,,,,,,,,,,,,,,,,,,,,0,0,0,0,20,0,20,0,,,,,,,,,,,,,,,,,,,,,,,,,,,,0,837,,,1952.9357948349789,,,Y,146,circle,0.0011640939628705382,,,,,,,,,1,0,,2,,,,,,,,,,1949.365175073035,1949.365175073035,1949.365175073035,1949.365175073035,1950.86666801502,1950.86666801502,1950.86666801502,1950.86666801502,1950.86666801502,1950.86666801502,1950.86666801502,1950.86666801502,repeat,letter,lettRpt,f,0.5351373850135133,vtsPrac,1951.4338836009847,,,,,,,,,,,,,,,,,,,,,,,,,22944,2022-11-03_11h17.52.609,vts_reward_expectancy_bt_OFFLINE,2022.2.4,60.245978051680225,
,,,,,,,,,,,,,,,,,,,,,,,,,,,,,,,,,,0,0,0,0,21,0,21,0,,,,,,,,,,,,,,,,,,,,,,,,,,,,0,837,,,1957.6743150909897,,,S,181,hexagon,0.0009601929923519492,,,,,,,,,1,0,,2,,,,,,,,,,1953.9202752630226,1953.9202752630226,1953.9202752630226,1953.9202752630226,1955.4219256660435,1955.4219256660435,1955.4219256660435,1955.4219256660435,1955.4219256660435,1955.4219256660435,1955.4219256660435,1955.4219256660435,switch,number,numSwt,k,0.7284261828754097,vtsPrac,1956.1725954780122,1957.6743150909897,,,,,,,,,,,,,,,,,,,,,,,,22944,2022-11-03_11h17.52.609,vts_reward_expectancy_bt_OFFLINE,2022.2.4,60.245978051680225,
,,,,,,,,,,,,,,,,,,,,,,,,,,,,,,,,,,0,0,0,0,22,0,22,0,,,,,,,,,,,,,,,,,,,,,,,,,,,,0,837,,,1962.3293728020508,,,D,139,hexagon,0.0011815200559794903,,,,,,,,,1,0,,2,,,,,,,,,,1958.6586350330617,1958.6586350330617,1958.6586350330617,1958.6586350330617,1960.160496405093,1960.160496405093,1960.160496405093,1960.160496405093,1960.160496405093,1960.160496405093,1960.160496405093,1960.160496405093,switch,letter,lettSwt,d,0.6359519769903272,vtsPrac,1960.8277622050373,,,,,,,,,,,,,,,,,,,,,,,,,22944,2022-11-03_11h17.52.609,vts_reward_expectancy_bt_OFFLINE,2022.2.4,60.245978051680225,
,,,,,,,,,,,,,,,,,,,,,,,,,,,,,,,,,,0,0,0,0,23,0,23,0,,,,,,,,,,,,,,,,,,,,,,,,,,,,0,837,,,1967.7521412760252,,,U,132,circle,0.0013755019754171371,,,,,,,,,0,0,,2,,,,,,,,,,1963.3139328230172,1963.3139328230172,1963.3139328230172,1963.3139328230172,1964.8156063510105,1964.8156063510105,1964.8156063510105,1964.8156063510105,1964.8156063510105,1964.8156063510105,1964.8156063510105,1964.8156063510105,repeat,letter,NA,d,1.4159432029118761,vtsPrac,1966.2674998410512,,,,,,,,,,,,,,,,,,,,,,,,,22944,2022-11-03_11h17.52.609,vts_reward_expectancy_bt_OFFLINE,2022.2.4,60.245978051680225,
,,,,,,,,,,,,,,,,,,,,,,,,,,,,,,,,,,0,0,0,0,24,0,24,0,,,,,,,,,,,,,,,,,,,,,,,,,,,,0,837,,,1972.6907577880193,,,S,174,triangle,0.0012223749654367566,,,,,,,,,1,1,,2,,,,,,,,,,1968.7364069980104,1968.7364069980104,1968.7364069980104,1968.7364069980104,1970.238254077034,1970.238254077034,1970.238254077034,1970.238254077034,1970.238254077034,1970.238254077034,1970.238254077034,1970.238254077034,repeat,letter,lettRpt,f,0.9199286819202825,vtsPrac,1971.1890585679794,,,,,,,,,,,,,,,,,,,,,,,,,22944,2022-11-03_11h17.52.609,vts_reward_expectancy_bt_OFFLINE,2022.2.4,60.245978051680225,
,,,,,,,,,,,,,,,,,,,,,,,,,,,,,,,,,,0,0,0,0,25,0,25,0,,,,,,,,,,,,,,,,,,,,,,,,,,,,0,837,,,1977.346024101018,,,W,181,hexagon,0.0011319839395582676,,,,,,,,,1,0,,2,,,,,,,,,,1973.6752979430603,1973.6752979430603,1973.6752979430603,1973.6752979430603,1975.1767946300097,1975.1767946300097,1975.1767946300097,1975.1767946300097,1975.1767946300097,1975.1767946300097,1975.1767946300097,1975.1767946300097,repeat,letter,lettRpt,f,0.6402655498823151,vtsPrac,1975.8442754400894,,,,,,,,,,,,,,,,,,,,,,,,,22944,2022-11-03_11h17.52.609,vts_reward_expectancy_bt_OFFLINE,2022.2.4,60.245978051680225,
,,,,,,,,,,,,,,,,,,,,,,,,,,,,,,,,,,0,0,0,0,26,0,26,0,,,,,,,,,,,,,,,,,,,,,,,,,,,,0,837,,,1982.0178209660808,,,Y,139,star,0.0013258690014481544,,,,,,,,,1,0,,2,,,,,,,,,,1978.330373175093,1978.330373175093,1978.330373175093,1978.330373175093,1979.832185717998,1979.832185717998,1979.832185717998,1979.832185717998,1979.832185717998,1979.832185717998,1979.832185717998,1979.832185717998,switch,number,numSwt,j,0.6660871759522706,vtsPrac,1980.5161718520103,1982.0178209660808,,,,,,,,,,,,,,,,,,,,,,,,22944,2022-11-03_11h17.52.609,vts_reward_expectancy_bt_OFFLINE,2022.2.4,60.245978051680225,
