LTriangleOpac,LCircleOpac,LHexagonOpac,LStarOpac,RTriangleOpac,RCircleOpac,RHexagonOpac,RStarOpac,LShape_ID,RShape_ID,training_blocks.thisRepN,training_blocks.thisTrialN,training_blocks.thisN,training_blocks.thisIndex,training.thisRepN,training.thisTrialN,training.thisN,training.thisIndex,task1_prac_redo.thisRepN,task1_prac_redo.thisTrialN,task1_prac_redo.thisN,task1_prac_redo.thisIndex,task1_prac_trials.thisRepN,task1_prac_trials.thisTrialN,task1_prac_trials.thisN,task1_prac_trials.thisIndex,task2_prac_redo.thisRepN,task2_prac_redo.thisTrialN,task2_prac_redo.thisN,task2_prac_redo.thisIndex,task2_praac_trials.thisRepN,task2_praac_trials.thisTrialN,task2_praac_trials.thisN,task2_praac_trials.thisIndex,vts_prac_redo.thisRepN,vts_prac_redo.thisTrialN,vts_prac_redo.thisN,vts_prac_redo.thisIndex,vts_practice_trials.thisRepN,vts_practice_trials.thisTrialN,vts_practice_trials.thisN,vts_practice_trials.thisIndex,trials_norew.thisRepN,trials_norew.thisTrialN,trials_norew.thisN,trials_norew.thisIndex,block.thisRepN,block.thisTrialN,block.thisN,block.thisIndex,trials_rew.thisRepN,trials_rew.thisTrialN,trials_rew.thisN,trials_rew.thisIndex,key_resp.started,key_resp.keys,key_resp.rt,left_circle.started,right_circle.started,left_triangle.started,right_triangle.started,left_star.started,right_star.started,left_hexagon.started,right_hexagon.started,training_fix.started,training_resp.started,training_resp.keys,training_resp.rt,points_trial,points_cumul,trainBlock,training_feedback_txt.started,training_feedback_txt.stopped,fix.started,fix.stopped,curr_topStim,curr_bottStim,curr_shape,ISI.started,tgt_fix_prac1.started,top_target_prac1.started,bott_target_prac1.started,target_resp_prac1.started,acc,E1,target_resp_prac1.keys,target_resp_prac1.rt,pracBlock,prac_fback_text.started,top_target_prac1.stopped,tgt_fix_prac1.stopped,bott_target_prac1.stopped,target_resp_prac1.stopped,prac_fback_text.stopped,tgt_fix_prac2.started,top_target_prac2.started,bott_target_prac2.started,target_resp_prac2.started,target_resp_prac2.keys,target_resp_prac2.rt,top_target_prac2.stopped,tgt_fix_prac2.stopped,bott_target_prac2.stopped,target_resp_prac2.stopped,star.started,hegagon.started,triangle.started,circle.started,top_target.started,tgt_fix.started,bot_target.started,target_resp.started,star.stopped,hegagon.stopped,triangle.stopped,circle.stopped,alt,task,condition,target_resp.keys,target_resp.rt,rewCond,vts_fback.started,vts_fback.stopped,blockNum,norew_fback.started,norew_fback.stopped,top_target.stopped,tgt_fix.stopped,bot_target.stopped,target_resp.stopped,key_resp_2.keys,key_resp_2.rt,rewExpectancy,feedbk_text.started,feedbk_text.stopped,text_3.started,debrief.started,text_3.stopped,button.started,debrief.index,debrief.itemText,debrief.type,debrief.granularity,debrief.font,debrief.markerColor,debrief.response,debrief.rt,button.numClicks,button.timesOn,button.timesOff,participant,date,expName,psychopyVersion,frameRate,
,,,,,,,,,,,,,,,,,,,,,,,,,,,,,,,,,,,,,,,,,,,,,,,,,,,,,,14.371676411945373,space,12.086358141852543,,,,,,,,,,,,,,,,,,,,,,,,,,,,,,,,,,,,,,,,,,,,,,,,,,,,,,,,,,,,,,,,,,,,,,,,,,,,,,,,,,,,,,,,,,,,,,,,25686,2022-11-16_10h23.12.397,vts_reward_expectancy_bt_OFFLINE,2022.2.4,59.927772656638915,
0,0,0,1,1,0,0,0,star,triangle,0,0,0,0,0,0,0,9,,,,,,,,,,,,,,,,,,,,,,,,,,,,,,,,,,,,,,,,55.78397899493575,55.78397899493575,55.78397899493575,55.78397899493575,55.78397899493575,55.78397899493575,55.78397899493575,55.78397899493575,55.78397899493575,55.78397899493575,a,2.3440197508316487,10,10,0,58.15366111602634,59.65488600498065,59.65488600498065,,,,,,,,,,,,,,,,,,,,,,,,,,,,,,,,,,,,,,,,,,,,,,,,,,,,,,,,,,,,,,,,,,,,,,,,,,,,,,25686,2022-11-16_10h23.12.397,vts_reward_expectancy_bt_OFFLINE,2022.2.4,59.927772656638915,
0,0,1,0,0,1,0,0,hexagon,circle,0,0,0,0,0,1,1,7,,,,,,,,,,,,,,,,,,,,,,,,,,,,,,,,,,,,,,,,60.155187624972314,60.155187624972314,60.155187624972314,60.155187624972314,60.155187624972314,60.155187624972314,60.155187624972314,60.155187624972314,60.155187624972314,60.155187624972314,l,1.7197456089779735,1,11,0,61.90721298591234,,63.40884381206706,,,,,,,,,,,,,,,,,,,,,,,,,,,,,,,,,,,,,,,,,,,,,,,,,,,,,,,,,,,,,,,,,,,,,,,,,,,,,,25686,2022-11-16_10h23.12.397,vts_reward_expectancy_bt_OFFLINE,2022.2.4,59.927772656638915,
0,0,1,0,1,0,0,0,hexagon,triangle,0,0,0,0,0,2,2,6,,,,,,,,,,,,,,,,,,,,,,,,,,,,,,,,,,,,,,,,63.90935298404656,63.90935298404656,63.90935298404656,63.90935298404656,63.90935298404656,63.90935298404656,63.90935298404656,63.90935298404656,63.90935298404656,63.90935298404656,a,1.5527992909774184,1,12,0,65.49462582101114,,66.99610583111644,,,,,,,,,,,,,,,,,,,,,,,,,,,,,,,,,,,,,,,,,,,,,,,,,,,,,,,,,,,,,,,,,,,,,,,,,,,,,,25686,2022-11-16_10h23.12.397,vts_reward_expectancy_bt_OFFLINE,2022.2.4,59.927772656638915,
0,1,0,0,1,0,0,0,circle,triangle,0,0,0,0,0,3,3,3,,,,,,,,,,,,,,,,,,,,,,,,,,,,,,,,,,,,,,,,67.4967648149468,67.4967648149468,67.4967648149468,67.4967648149468,67.4967648149468,67.4967648149468,67.4967648149468,67.4967648149468,67.4967648149468,67.4967648149468,a,1.1949160639196634,1,13,0,68.7147227160167,,70.21641774708405,,,,,,,,,,,,,,,,,,,,,,,,,,,,,,,,,,,,,,,,,,,,,,,,,,,,,,,,,,,,,,,,,,,,,,,,,,,,,,25686,2022-11-16_10h23.12.397,vts_reward_expectancy_bt_OFFLINE,2022.2.4,59.927772656638915,
1,0,0,0,0,1,0,0,triangle,circle,0,0,0,0,0,4,4,0,,,,,,,,,,,,,,,,,,,,,,,,,,,,,,,,,,,,,,,,70.7168391160667,70.7168391160667,70.7168391160667,70.7168391160667,70.7168391160667,70.7168391160667,70.7168391160667,70.7168391160667,70.7168391160667,70.7168391160667,a,1.6868917818646878,10,23,0,72.43561787111685,,73.93718198011629,,,,,,,,,,,,,,,,,,,,,,,,,,,,,,,,,,,,,,,,,,,,,,,,,,,,,,,,,,,,,,,,,,,,,,,,,,,,,,25686,2022-11-16_10h23.12.397,vts_reward_expectancy_bt_OFFLINE,2022.2.4,59.927772656638915,
0,1,0,0,0,0,1,0,circle,hexagon,0,0,0,0,0,5,5,4,,,,,,,,,,,,,,,,,,,,,,,,,,,,,,,,,,,,,,,,74.43768568709493,74.43768568709493,74.43768568709493,74.43768568709493,74.43768568709493,74.43768568709493,74.43768568709493,74.43768568709493,74.43768568709493,74.43768568709493,l,1.0043925968930125,1,24,0,75.47226175502874,,76.97400038107298,,,,,,,,,,,,,,,,,,,,,,,,,,,,,,,,,,,,,,,,,,,,,,,,,,,,,,,,,,,,,,,,,,,,,,,,,,,,,,25686,2022-11-16_10h23.12.397,vts_reward_expectancy_bt_OFFLINE,2022.2.4,59.927772656638915,
0,0,0,1,0,1,0,0,star ,circle,0,0,0,0,0,6,6,10,,,,,,,,,,,,,,,,,,,,,,,,,,,,,,,,,,,,,,,,77.47431380394846,77.47431380394846,77.47431380394846,77.47431380394846,77.47431380394846,77.47431380394846,77.47431380394846,77.47431380394846,77.47431380394846,77.47431380394846,a,0.8592816069722176,1,25,0,78.3587704889942,,79.86034073890187,,,,,,,,,,,,,,,,,,,,,,,,,,,,,,,,,,,,,,,,,,,,,,,,,,,,,,,,,,,,,,,,,,,,,,,,,,,,,,25686,2022-11-16_10h23.12.397,vts_reward_expectancy_bt_OFFLINE,2022.2.4,59.927772656638915,
0,1,0,0,0,0,0,1,circle,star,0,0,0,0,0,7,7,5,,,,,,,,,,,,,,,,,,,,,,,,,,,,,,,,,,,,,,,,80.36099654389545,80.36099654389545,80.36099654389545,80.36099654389545,80.36099654389545,80.36099654389545,80.36099654389545,80.36099654389545,80.36099654389545,80.36099654389545,l,1.4261836509685963,1,26,0,81.8127232089173,,83.31427547405474,,,,,,,,,,,,,,,,,,,,,,,,,,,,,,,,,,,,,,,,,,,,,,,,,,,,,,,,,,,,,,,,,,,,,,,,,,,,,,25686,2022-11-16_10h23.12.397,vts_reward_expectancy_bt_OFFLINE,2022.2.4,59.927772656638915,
1,0,0,0,0,0,1,0,triangle,hexagon,0,0,0,0,0,8,8,1,,,,,,,,,,,,,,,,,,,,,,,,,,,,,,,,,,,,,,,,83.81462348997593,83.81462348997593,83.81462348997593,83.81462348997593,83.81462348997593,83.81462348997593,83.81462348997593,83.81462348997593,83.81462348997593,83.81462348997593,a,1.5954799680039287,10,36,0,85.43318233708851,,86.93503471510485,,,,,,,,,,,,,,,,,,,,,,,,,,,,,,,,,,,,,,,,,,,,,,,,,,,,,,,,,,,,,,,,,,,,,,,,,,,,,,25686,2022-11-16_10h23.12.397,vts_reward_expectancy_bt_OFFLINE,2022.2.4,59.927772656638915,
0,0,1,0,0,0,0,1,hexagon,star,0,0,0,0,0,9,9,8,,,,,,,,,,,,,,,,,,,,,,,,,,,,,,,,,,,,,,,,87.43542020604946,87.43542020604946,87.43542020604946,87.43542020604946,87.43542020604946,87.43542020604946,87.43542020604946,87.43542020604946,87.43542020604946,87.43542020604946,a,1.47541060205549,10,46,0,88.93707524705678,,90.43879491090775,,,,,,,,,,,,,,,,,,,,,,,,,,,,,,,,,,,,,,,,,,,,,,,,,,,,,,,,,,,,,,,,,,,,,,,,,,,,,,25686,2022-11-16_10h23.12.397,vts_reward_expectancy_bt_OFFLINE,2022.2.4,59.927772656638915,
1,0,0,0,0,0,0,1,triangle,star,0,0,0,0,0,10,10,2,,,,,,,,,,,,,,,,,,,,,,,,,,,,,,,,,,,,,,,,90.93920175894164,90.93920175894164,90.93920175894164,90.93920175894164,90.93920175894164,90.93920175894164,90.93920175894164,90.93920175894164,90.93920175894164,90.93920175894164,a,2.289838877040893,10,56,0,93.25861135404557,,94.76009754091501,,,,,,,,,,,,,,,,,,,,,,,,,,,,,,,,,,,,,,,,,,,,,,,,,,,,,,,,,,,,,,,,,,,,,,,,,,,,,,25686,2022-11-16_10h23.12.397,vts_reward_expectancy_bt_OFFLINE,2022.2.4,59.927772656638915,
0,0,0,1,0,0,1,0,star,hexagon,0,0,0,0,0,11,11,11,,,,,,,,,,,,,,,,,,,,,,,,,,,,,,,,,,,,,,,,95.2608919821214,95.2608919821214,95.2608919821214,95.2608919821214,95.2608919821214,95.2608919821214,95.2608919821214,95.2608919821214,95.2608919821214,95.2608919821214,l,1.0625607629772276,10,66,0,96.3452359191142,,97.84697867091745,,,,,,,,,,,,,,,,,,,,,,,,,,,,,,,,,,,,,,,,,,,,,,,,,,,,,,,,,,,,,,,,,,,,,,,,,,,,,,25686,2022-11-16_10h23.12.397,vts_reward_expectancy_bt_OFFLINE,2022.2.4,59.927772656638915,
0,1,0,0,1,0,0,0,circle,triangle,0,0,0,0,1,0,12,3,,,,,,,,,,,,,,,,,,,,,,,,,,,,,,,,,,,,,,,,98.34756863908842,98.34756863908842,98.34756863908842,98.34756863908842,98.34756863908842,98.34756863908842,98.34756863908842,98.34756863908842,98.34756863908842,98.34756863908842,a,1.6552774580195546,1,67,0,100.03268040600233,,101.53436719696037,,,,,,,,,,,,,,,,,,,,,,,,,,,,,,,,,,,,,,,,,,,,,,,,,,,,,,,,,,,,,,,,,,,,,,,,,,,,,,25686,2022-11-16_10h23.12.397,vts_reward_expectancy_bt_OFFLINE,2022.2.4,59.927772656638915,
1,0,0,0,0,1,0,0,triangle,circle,0,0,0,0,1,1,13,0,,,,,,,,,,,,,,,,,,,,,,,,,,,,,,,,,,,,,,,,102.0349803220015,102.0349803220015,102.0349803220015,102.0349803220015,102.0349803220015,102.0349803220015,102.0349803220015,102.0349803220015,102.0349803220015,102.0349803220015,a,2.1094512820709497,10,77,0,104.17064248607494,,105.67209510598332,,,,,,,,,,,,,,,,,,,,,,,,,,,,,,,,,,,,,,,,,,,,,,,,,,,,,,,,,,,,,,,,,,,,,,,,,,,,,,25686,2022-11-16_10h23.12.397,vts_reward_expectancy_bt_OFFLINE,2022.2.4,59.927772656638915,
0,0,1,0,0,1,0,0,hexagon,circle,0,0,0,0,1,2,14,7,,,,,,,,,,,,,,,,,,,,,,,,,,,,,,,,,,,,,,,,106.17260983190499,106.17260983190499,106.17260983190499,106.17260983190499,106.17260983190499,106.17260983190499,106.17260983190499,106.17260983190499,106.17260983190499,106.17260983190499,a,1.5136022369842976,10,87,0,107.707759344019,,109.2091818510089,,,,,,,,,,,,,,,,,,,,,,,,,,,,,,,,,,,,,,,,,,,,,,,,,,,,,,,,,,,,,,,,,,,,,,,,,,,,,,25686,2022-11-16_10h23.12.397,vts_reward_expectancy_bt_OFFLINE,2022.2.4,59.927772656638915,
1,0,0,0,0,0,1,0,triangle,hexagon,0,0,0,0,1,3,15,1,,,,,,,,,,,,,,,,,,,,,,,,,,,,,,,,,,,,,,,,109.70991964591667,109.70991964591667,109.70991964591667,109.70991964591667,109.70991964591667,109.70991964591667,109.70991964591667,109.70991964591667,109.70991964591667,109.70991964591667,l,1.0035289619117975,1,88,0,110.74437564890832,,112.24605925590731,,,,,,,,,,,,,,,,,,,,,,,,,,,,,,,,,,,,,,,,,,,,,,,,,,,,,,,,,,,,,,,,,,,,,,,,,,,,,,25686,2022-11-16_10h23.12.397,vts_reward_expectancy_bt_OFFLINE,2022.2.4,59.927772656638915,
0,0,1,0,1,0,0,0,hexagon,triangle,0,0,0,0,1,4,16,6,,,,,,,,,,,,,,,,,,,,,,,,,,,,,,,,,,,,,,,,112.74657530197874,112.74657530197874,112.74657530197874,112.74657530197874,112.74657530197874,112.74657530197874,112.74657530197874,112.74657530197874,112.74657530197874,112.74657530197874,a,1.5553253539837897,1,89,0,114.33160508493893,,115.83324194094166,,,,,,,,,,,,,,,,,,,,,,,,,,,,,,,,,,,,,,,,,,,,,,,,,,,,,,,,,,,,,,,,,,,,,,,,,,,,,,25686,2022-11-16_10h23.12.397,vts_reward_expectancy_bt_OFFLINE,2022.2.4,59.927772656638915,
1,0,0,0,0,0,0,1,triangle,star,0,0,0,0,1,5,17,2,,,,,,,,,,,,,,,,,,,,,,,,,,,,,,,,,,,,,,,,116.33392647001892,116.33392647001892,116.33392647001892,116.33392647001892,116.33392647001892,116.33392647001892,116.33392647001892,116.33392647001892,116.33392647001892,116.33392647001892,a,1.197555558057502,1,90,0,117.55184162501246,119.05344812409021,119.05344812409021,,,,,,,,,,,,,,,,,,,,,,,,,,,,,,,,,,,,,,,,,,,,,,,,,,,,,,,,,,,,,,,,,,,,,,,,,,,,,,25686,2022-11-16_10h23.12.397,vts_reward_expectancy_bt_OFFLINE,2022.2.4,59.927772656638915,
0,1,0,0,0,0,0,1,circle,star,0,0,0,0,1,6,18,5,,,,,,,,,,,,,,,,,,,,,,,,,,,,,,,,,,,,,,,,119.55415353504941,119.55415353504941,119.55415353504941,119.55415353504941,119.55415353504941,119.55415353504941,119.55415353504941,119.55415353504941,119.55415353504941,119.55415353504941,a,1.4097185959108174,1,91,0,120.98909428110346,,122.4907577810809,,,,,,,,,,,,,,,,,,,,,,,,,,,,,,,,,,,,,,,,,,,,,,,,,,,,,,,,,,,,,,,,,,,,,,,,,,,,,,25686,2022-11-16_10h23.12.397,vts_reward_expectancy_bt_OFFLINE,2022.2.4,59.927772656638915,
0,1,0,0,0,0,1,0,circle,hexagon,0,0,0,0,1,7,19,4,,,,,,,,,,,,,,,,,,,,,,,,,,,,,,,,,,,,,,,,122.99134493409656,122.99134493409656,122.99134493409656,122.99134493409656,122.99134493409656,122.99134493409656,122.99134493409656,122.99134493409656,122.99134493409656,122.99134493409656,l,1.5373597869183868,1,92,0,124.55969887995161,126.06134100002237,126.06134100002237,,,,,,,,,,,,,,,,,,,,,,,,,,,,,,,,,,,,,,,,,,,,,,,,,,,,,,,,,,,,,,,,,,,,,,,,,,,,,,25686,2022-11-16_10h23.12.397,vts_reward_expectancy_bt_OFFLINE,2022.2.4,59.927772656638915,
0,0,0,1,1,0,0,0,star,triangle,0,0,0,0,1,8,20,9,,,,,,,,,,,,,,,,,,,,,,,,,,,,,,,,,,,,,,,,126.56205203104764,126.56205203104764,126.56205203104764,126.56205203104764,126.56205203104764,126.56205203104764,126.56205203104764,126.56205203104764,126.56205203104764,126.56205203104764,a,2.1303835709113628,10,102,0,128.71445806208067,,130.2160499470774,,,,,,,,,,,,,,,,,,,,,,,,,,,,,,,,,,,,,,,,,,,,,,,,,,,,,,,,,,,,,,,,,,,,,,,,,,,,,,25686,2022-11-16_10h23.12.397,vts_reward_expectancy_bt_OFFLINE,2022.2.4,59.927772656638915,
0,0,0,1,0,0,1,0,star,hexagon,0,0,0,0,1,9,21,11,,,,,,,,,,,,,,,,,,,,,,,,,,,,,,,,,,,,,,,,130.71642791409977,130.71642791409977,130.71642791409977,130.71642791409977,130.71642791409977,130.71642791409977,130.71642791409977,130.71642791409977,130.71642791409977,130.71642791409977,l,1.0023512309417129,1,103,0,131.75112060597166,,133.25257070106454,,,,,,,,,,,,,,,,,,,,,,,,,,,,,,,,,,,,,,,,,,,,,,,,,,,,,,,,,,,,,,,,,,,,,,,,,,,,,,25686,2022-11-16_10h23.12.397,vts_reward_expectancy_bt_OFFLINE,2022.2.4,59.927772656638915,
0,0,0,1,0,1,0,0,star ,circle,0,0,0,0,1,10,22,10,,,,,,,,,,,,,,,,,,,,,,,,,,,,,,,,,,,,,,,,133.7532058521174,133.7532058521174,133.7532058521174,133.7532058521174,133.7532058521174,133.7532058521174,133.7532058521174,133.7532058521174,133.7532058521174,133.7532058521174,a,2.656386762857437,1,104,0,136.4394935669843,,137.9412530339323,,,,,,,,,,,,,,,,,,,,,,,,,,,,,,,,,,,,,,,,,,,,,,,,,,,,,,,,,,,,,,,,,,,,,,,,,,,,,,25686,2022-11-16_10h23.12.397,vts_reward_expectancy_bt_OFFLINE,2022.2.4,59.927772656638915,
0,0,1,0,0,0,0,1,hexagon,star,0,0,0,0,1,11,23,8,,,,,,,,,,,,,,,,,,,,,,,,,,,,,,,,,,,,,,,,138.4417040150147,138.4417040150147,138.4417040150147,138.4417040150147,138.4417040150147,138.4417040150147,138.4417040150147,138.4417040150147,138.4417040150147,138.4417040150147,a,1.219814867945388,10,114,0,139.69311498501338,,141.1947829159908,,,,,,,,,,,,,,,,,,,,,,,,,,,,,,,,,,,,,,,,,,,,,,,,,,,,,,,,,,,,,,,,,,,,,,,,,,,,,,25686,2022-11-16_10h23.12.397,vts_reward_expectancy_bt_OFFLINE,2022.2.4,59.927772656638915,
0,0,0,1,0,1,0,0,star ,circle,0,0,0,0,2,0,24,10,,,,,,,,,,,,,,,,,,,,,,,,,,,,,,,,,,,,,,,,141.69520595110953,141.69520595110953,141.69520595110953,141.69520595110953,141.69520595110953,141.69520595110953,141.69520595110953,141.69520595110953,141.69520595110953,141.69520595110953,l,2.1407862650230527,1,115,0,143.86437137890607,,145.36594867589884,,,,,,,,,,,,,,,,,,,,,,,,,,,,,,,,,,,,,,,,,,,,,,,,,,,,,,,,,,,,,,,,,,,,,,,,,,,,,,25686,2022-11-16_10h23.12.397,vts_reward_expectancy_bt_OFFLINE,2022.2.4,59.927772656638915,
1,0,0,0,0,0,0,1,triangle,star,0,0,0,0,2,1,25,2,,,,,,,,,,,,,,,,,,,,,,,,,,,,,,,,,,,,,,,,145.86657772609033,145.86657772609033,145.86657772609033,145.86657772609033,145.86657772609033,145.86657772609033,145.86657772609033,145.86657772609033,145.86657772609033,145.86657772609033,l,1.8189675000030547,1,116,0,147.70181171502918,149.2035346410703,149.2035346410703,,,,,,,,,,,,,,,,,,,,,,,,,,,,,,,,,,,,,,,,,,,,,,,,,,,,,,,,,,,,,,,,,,,,,,,,,,,,,,25686,2022-11-16_10h23.12.397,vts_reward_expectancy_bt_OFFLINE,2022.2.4,59.927772656638915,
0,0,1,0,0,0,0,1,hexagon,star,0,0,0,0,2,2,26,8,,,,,,,,,,,,,,,,,,,,,,,,,,,,,,,,,,,,,,,,149.7039807990659,149.7039807990659,149.7039807990659,149.7039807990659,149.7039807990659,149.7039807990659,149.7039807990659,149.7039807990659,149.7039807990659,149.7039807990659,a,3.390914667863399,10,126,0,153.12473740591668,,154.6263989659492,,,,,,,,,,,,,,,,,,,,,,,,,,,,,,,,,,,,,,,,,,,,,,,,,,,,,,,,,,,,,,,,,,,,,,,,,,,,,,25686,2022-11-16_10h23.12.397,vts_reward_expectancy_bt_OFFLINE,2022.2.4,59.927772656638915,
0,1,0,0,1,0,0,0,circle,triangle,0,0,0,0,2,3,27,3,,,,,,,,,,,,,,,,,,,,,,,,,,,,,,,,,,,,,,,,155.12689553690143,155.12689553690143,155.12689553690143,155.12689553690143,155.12689553690143,155.12689553690143,155.12689553690143,155.12689553690143,155.12689553690143,155.12689553690143,l,1.387930248863995,1,127,0,156.5450785360299,,158.0469078340102,,,,,,,,,,,,,,,,,,,,,,,,,,,,,,,,,,,,,,,,,,,,,,,,,,,,,,,,,,,,,,,,,,,,,,,,,,,,,,25686,2022-11-16_10h23.12.397,vts_reward_expectancy_bt_OFFLINE,2022.2.4,59.927772656638915,
0,0,0,1,0,0,1,0,star,hexagon,0,0,0,0,2,4,28,11,,,,,,,,,,,,,,,,,,,,,,,,,,,,,,,,,,,,,,,,158.54731798404828,158.54731798404828,158.54731798404828,158.54731798404828,158.54731798404828,158.54731798404828,158.54731798404828,158.54731798404828,158.54731798404828,158.54731798404828,a,3.020561615936458,1,128,0,161.6005672160536,,163.10221856902353,,,,,,,,,,,,,,,,,,,,,,,,,,,,,,,,,,,,,,,,,,,,,,,,,,,,,,,,,,,,,,,,,,,,,,,,,,,,,,25686,2022-11-16_10h23.12.397,vts_reward_expectancy_bt_OFFLINE,2022.2.4,59.927772656638915,
1,0,0,0,0,0,1,0,triangle,hexagon,0,0,0,0,2,5,29,1,,,,,,,,,,,,,,,,,,,,,,,,,,,,,,,,,,,,,,,,163.60297992499545,163.60297992499545,163.60297992499545,163.60297992499545,163.60297992499545,163.60297992499545,163.60297992499545,163.60297992499545,163.60297992499545,163.60297992499545,l,2.0825686699245125,1,129,0,165.70497034606524,,167.20665741199628,,,,,,,,,,,,,,,,,,,,,,,,,,,,,,,,,,,,,,,,,,,,,,,,,,,,,,,,,,,,,,,,,,,,,,,,,,,,,,25686,2022-11-16_10h23.12.397,vts_reward_expectancy_bt_OFFLINE,2022.2.4,59.927772656638915,
0,1,0,0,0,0,0,1,circle,star,0,0,0,0,2,6,30,5,,,,,,,,,,,,,,,,,,,,,,,,,,,,,,,,,,,,,,,,167.70720879593864,167.70720879593864,167.70720879593864,167.70720879593864,167.70720879593864,167.70720879593864,167.70720879593864,167.70720879593864,167.70720879593864,167.70720879593864,a,1.3305939240381122,10,139,0,169.05870133894496,,170.56052389903925,,,,,,,,,,,,,,,,,,,,,,,,,,,,,,,,,,,,,,,,,,,,,,,,,,,,,,,,,,,,,,,,,,,,,,,,,,,,,,25686,2022-11-16_10h23.12.397,vts_reward_expectancy_bt_OFFLINE,2022.2.4,59.927772656638915,
0,0,1,0,0,1,0,0,hexagon,circle,0,0,0,0,2,7,31,7,,,,,,,,,,,,,,,,,,,,,,,,,,,,,,,,,,,,,,,,171.0610258539673,171.0610258539673,171.0610258539673,171.0610258539673,171.0610258539673,171.0610258539673,171.0610258539673,171.0610258539673,171.0610258539673,171.0610258539673,l,4.053046362940222,1,140,0,175.13221478904597,,176.63386992691085,,,,,,,,,,,,,,,,,,,,,,,,,,,,,,,,,,,,,,,,,,,,,,,,,,,,,,,,,,,,,,,,,,,,,,,,,,,,,,25686,2022-11-16_10h23.12.397,vts_reward_expectancy_bt_OFFLINE,2022.2.4,59.927772656638915,
0,1,0,0,0,0,1,0,circle,hexagon,0,0,0,0,2,8,32,4,,,,,,,,,,,,,,,,,,,,,,,,,,,,,,,,,,,,,,,,177.13454029895365,177.13454029895365,177.13454029895365,177.13454029895365,177.13454029895365,177.13454029895365,177.13454029895365,177.13454029895365,177.13454029895365,177.13454029895365,l,1.3093348459806293,10,150,0,178.4691100839991,,179.9708460769616,,,,,,,,,,,,,,,,,,,,,,,,,,,,,,,,,,,,,,,,,,,,,,,,,,,,,,,,,,,,,,,,,,,,,,,,,,,,,,25686,2022-11-16_10h23.12.397,vts_reward_expectancy_bt_OFFLINE,2022.2.4,59.927772656638915,
0,0,1,0,1,0,0,0,hexagon,triangle,0,0,0,0,2,9,33,6,,,,,,,,,,,,,,,,,,,,,,,,,,,,,,,,,,,,,,,,180.4713400050532,180.4713400050532,180.4713400050532,180.4713400050532,180.4713400050532,180.4713400050532,180.4713400050532,180.4713400050532,180.4713400050532,180.4713400050532,a,1.269161175005138,1,151,0,181.77284820005298,,183.27461615391076,,,,,,,,,,,,,,,,,,,,,,,,,,,,,,,,,,,,,,,,,,,,,,,,,,,,,,,,,,,,,,,,,,,,,,,,,,,,,,25686,2022-11-16_10h23.12.397,vts_reward_expectancy_bt_OFFLINE,2022.2.4,59.927772656638915,
0,0,0,1,1,0,0,0,star,triangle,0,0,0,0,2,10,34,9,,,,,,,,,,,,,,,,,,,,,,,,,,,,,,,,,,,,,,,,183.77505422011018,183.77505422011018,183.77505422011018,183.77505422011018,183.77505422011018,183.77505422011018,183.77505422011018,183.77505422011018,183.77505422011018,183.77505422011018,l,1.0257139259483665,10,161,0,184.8262782949023,,186.3277978769038,,,,,,,,,,,,,,,,,,,,,,,,,,,,,,,,,,,,,,,,,,,,,,,,,,,,,,,,,,,,,,,,,,,,,,,,,,,,,,25686,2022-11-16_10h23.12.397,vts_reward_expectancy_bt_OFFLINE,2022.2.4,59.927772656638915,
1,0,0,0,0,1,0,0,triangle,circle,0,0,0,0,2,11,35,0,,,,,,,,,,,,,,,,,,,,,,,,,,,,,,,,,,,,,,,,186.82830413104966,186.82830413104966,186.82830413104966,186.82830413104966,186.82830413104966,186.82830413104966,186.82830413104966,186.82830413104966,186.82830413104966,186.82830413104966,l,2.2465305258519948,1,162,0,189.0974421959836,,190.59917310997844,,,,,,,,,,,,,,,,,,,,,,,,,,,,,,,,,,,,,,,,,,,,,,,,,,,,,,,,,,,,,,,,,,,,,,,,,,,,,,25686,2022-11-16_10h23.12.397,vts_reward_expectancy_bt_OFFLINE,2022.2.4,59.927772656638915,
1,0,0,0,0,0,1,0,triangle,hexagon,0,0,0,0,3,0,36,1,,,,,,,,,,,,,,,,,,,,,,,,,,,,,,,,,,,,,,,,191.09991544205695,191.09991544205695,191.09991544205695,191.09991544205695,191.09991544205695,191.09991544205695,191.09991544205695,191.09991544205695,191.09991544205695,191.09991544205695,l,1.755283101927489,1,163,0,192.88504961598665,,194.38681906904094,,,,,,,,,,,,,,,,,,,,,,,,,,,,,,,,,,,,,,,,,,,,,,,,,,,,,,,,,,,,,,,,,,,,,,,,,,,,,,25686,2022-11-16_10h23.12.397,vts_reward_expectancy_bt_OFFLINE,2022.2.4,59.927772656638915,
0,0,1,0,1,0,0,0,hexagon,triangle,0,0,0,0,3,1,37,6,,,,,,,,,,,,,,,,,,,,,,,,,,,,,,,,,,,,,,,,194.88716311892495,194.88716311892495,194.88716311892495,194.88716311892495,194.88716311892495,194.88716311892495,194.88716311892495,194.88716311892495,194.88716311892495,194.88716311892495,a,1.4217722350731492,1,164,0,196.33900693408214,,197.8406952349469,,,,,,,,,,,,,,,,,,,,,,,,,,,,,,,,,,,,,,,,,,,,,,,,,,,,,,,,,,,,,,,,,,,,,,,,,,,,,,25686,2022-11-16_10h23.12.397,vts_reward_expectancy_bt_OFFLINE,2022.2.4,59.927772656638915,
0,0,1,0,0,0,0,1,hexagon,star,0,0,0,0,3,2,38,8,,,,,,,,,,,,,,,,,,,,,,,,,,,,,,,,,,,,,,,,198.3410738951061,198.3410738951061,198.3410738951061,198.3410738951061,198.3410738951061,198.3410738951061,198.3410738951061,198.3410738951061,198.3410738951061,198.3410738951061,a,1.1762301677372307,1,165,0,199.54262565611862,,201.04406992695294,,,,,,,,,,,,,,,,,,,,,,,,,,,,,,,,,,,,,,,,,,,,,,,,,,,,,,,,,,,,,,,,,,,,,,,,,,,,,,25686,2022-11-16_10h23.12.397,vts_reward_expectancy_bt_OFFLINE,2022.2.4,59.927772656638915,
1,0,0,0,0,0,0,1,triangle,star,0,0,0,0,3,3,39,2,,,,,,,,,,,,,,,,,,,,,,,,,,,,,,,,,,,,,,,,201.54451551404782,201.54451551404782,201.54451551404782,201.54451551404782,201.54451551404782,201.54451551404782,201.54451551404782,201.54451551404782,201.54451551404782,201.54451551404782,a,1.223317062947899,10,175,0,202.7959632310085,,204.297777750995,,,,,,,,,,,,,,,,,,,,,,,,,,,,,,,,,,,,,,,,,,,,,,,,,,,,,,,,,,,,,,,,,,,,,,,,,,,,,,25686,2022-11-16_10h23.12.397,vts_reward_expectancy_bt_OFFLINE,2022.2.4,59.927772656638915,
0,1,0,0,0,0,0,1,circle,star,0,0,0,0,3,4,40,5,,,,,,,,,,,,,,,,,,,,,,,,,,,,,,,,,,,,,,,,204.79815759602934,204.79815759602934,204.79815759602934,204.79815759602934,204.79815759602934,204.79815759602934,204.79815759602934,204.79815759602934,204.79815759602934,204.79815759602934,l,1.3016078330110759,1,176,0,206.11619955091737,207.61798517405987,207.61798517405987,,,,,,,,,,,,,,,,,,,,,,,,,,,,,,,,,,,,,,,,,,,,,,,,,,,,,,,,,,,,,,,,,,,,,,,,,,,,,,25686,2022-11-16_10h23.12.397,vts_reward_expectancy_bt_OFFLINE,2022.2.4,59.927772656638915,
0,1,0,0,0,0,1,0,circle,hexagon,0,0,0,0,3,5,41,4,,,,,,,,,,,,,,,,,,,,,,,,,,,,,,,,,,,,,,,,208.11858766409568,208.11858766409568,208.11858766409568,208.11858766409568,208.11858766409568,208.11858766409568,208.11858766409568,208.11858766409568,208.11858766409568,208.11858766409568,a,1.0186256810557097,10,186,0,209.16975014703348,,210.671324016992,,,,,,,,,,,,,,,,,,,,,,,,,,,,,,,,,,,,,,,,,,,,,,,,,,,,,,,,,,,,,,,,,,,,,,,,,,,,,,25686,2022-11-16_10h23.12.397,vts_reward_expectancy_bt_OFFLINE,2022.2.4,59.927772656638915,
0,0,1,0,0,1,0,0,hexagon,circle,0,0,0,0,3,6,42,7,,,,,,,,,,,,,,,,,,,,,,,,,,,,,,,,,,,,,,,,211.17210943205282,211.17210943205282,211.17210943205282,211.17210943205282,211.17210943205282,211.17210943205282,211.17210943205282,211.17210943205282,211.17210943205282,211.17210943205282,l,1.2367385239340365,1,187,0,212.4401019900106,,213.94171090004966,,,,,,,,,,,,,,,,,,,,,,,,,,,,,,,,,,,,,,,,,,,,,,,,,,,,,,,,,,,,,,,,,,,,,,,,,,,,,,25686,2022-11-16_10h23.12.397,vts_reward_expectancy_bt_OFFLINE,2022.2.4,59.927772656638915,
0,0,0,1,0,0,1,0,star,hexagon,0,0,0,0,3,7,43,11,,,,,,,,,,,,,,,,,,,,,,,,,,,,,,,,,,,,,,,,214.44218876911327,214.44218876911327,214.44218876911327,214.44218876911327,214.44218876911327,214.44218876911327,214.44218876911327,214.44218876911327,214.44218876911327,214.44218876911327,a,1.3760614979546517,10,197,0,215.8439482250251,,217.34552935906686,,,,,,,,,,,,,,,,,,,,,,,,,,,,,,,,,,,,,,,,,,,,,,,,,,,,,,,,,,,,,,,,,,,,,,,,,,,,,,25686,2022-11-16_10h23.12.397,vts_reward_expectancy_bt_OFFLINE,2022.2.4,59.927772656638915,
0,1,0,0,1,0,0,0,circle,triangle,0,0,0,0,3,8,44,3,,,,,,,,,,,,,,,,,,,,,,,,,,,,,,,,,,,,,,,,217.84611229994334,217.84611229994334,217.84611229994334,217.84611229994334,217.84611229994334,217.84611229994334,217.84611229994334,217.84611229994334,217.84611229994334,217.84611229994334,a,0.9870962088461965,1,198,0,218.86373768397607,,220.36549780890346,,,,,,,,,,,,,,,,,,,,,,,,,,,,,,,,,,,,,,,,,,,,,,,,,,,,,,,,,,,,,,,,,,,,,,,,,,,,,,25686,2022-11-16_10h23.12.397,vts_reward_expectancy_bt_OFFLINE,2022.2.4,59.927772656638915,
0,0,0,1,0,1,0,0,star ,circle,0,0,0,0,3,9,45,10,,,,,,,,,,,,,,,,,,,,,,,,,,,,,,,,,,,,,,,,220.86610666895285,220.86610666895285,220.86610666895285,220.86610666895285,220.86610666895285,220.86610666895285,220.86610666895285,220.86610666895285,220.86610666895285,220.86610666895285,a,1.917979515856132,1,199,0,222.80141677102074,224.30314322398044,224.30314322398044,,,,,,,,,,,,,,,,,,,,,,,,,,,,,,,,,,,,,,,,,,,,,,,,,,,,,,,,,,,,,,,,,,,,,,,,,,,,,,25686,2022-11-16_10h23.12.397,vts_reward_expectancy_bt_OFFLINE,2022.2.4,59.927772656638915,
1,0,0,0,0,1,0,0,triangle,circle,0,0,0,0,3,10,46,0,,,,,,,,,,,,,,,,,,,,,,,,,,,,,,,,,,,,,,,,224.80379137094133,224.80379137094133,224.80379137094133,224.80379137094133,224.80379137094133,224.80379137094133,224.80379137094133,224.80379137094133,224.80379137094133,224.80379137094133,a,2.176453618798405,1,200,0,227.00602822192013,,228.50795856001787,,,,,,,,,,,,,,,,,,,,,,,,,,,,,,,,,,,,,,,,,,,,,,,,,,,,,,,,,,,,,,,,,,,,,,,,,,,,,,25686,2022-11-16_10h23.12.397,vts_reward_expectancy_bt_OFFLINE,2022.2.4,59.927772656638915,
0,0,0,1,1,0,0,0,star,triangle,0,0,0,0,3,11,47,9,,,,,,,,,,,,,,,,,,,,,,,,,,,,,,,,,,,,,,,,229.00815477711149,229.00815477711149,229.00815477711149,229.00815477711149,229.00815477711149,229.00815477711149,229.00815477711149,229.00815477711149,229.00815477711149,229.00815477711149,l,1.312710007885471,10,210,0,230.3430237721186,,231.84465716895647,,,,,,,,,,,,,,,,,,,,,,,,,,,,,,,,,,,,,,,,,,,,,,,,,,,,,,,,,,,,,,,,,,,,,,,,,,,,,,25686,2022-11-16_10h23.12.397,vts_reward_expectancy_bt_OFFLINE,2022.2.4,59.927772656638915,
0,1,0,0,1,0,0,0,circle,triangle,1,0,1,0,0,0,0,3,,,,,,,,,,,,,,,,,,,,,,,,,,,,,,,,,,,,,,,,237.51788211404346,237.51788211404346,237.51788211404346,237.51788211404346,237.51788211404346,237.51788211404346,237.51788211404346,237.51788211404346,237.51788211404346,237.51788211404346,l,3.5588125160429627,10,220,1,241.10488644102588,242.60651628603227,242.60651628603227,,,,,,,,,,,,,,,,,,,,,,,,,,,,,,,,,,,,,,,,,,,,,,,,,,,,,,,,,,,,,,,,,,,,,,,,,,,,,,25686,2022-11-16_10h23.12.397,vts_reward_expectancy_bt_OFFLINE,2022.2.4,59.927772656638915,
0,0,0,1,1,0,0,0,star,triangle,1,0,1,0,0,1,1,9,,,,,,,,,,,,,,,,,,,,,,,,,,,,,,,,,,,,,,,,243.1070239751134,243.1070239751134,243.1070239751134,243.1070239751134,243.1070239751134,243.1070239751134,243.1070239751134,243.1070239751134,243.1070239751134,243.1070239751134,a,1.5133726098574698,10,230,1,244.64211309095845,,246.14383567590266,,,,,,,,,,,,,,,,,,,,,,,,,,,,,,,,,,,,,,,,,,,,,,,,,,,,,,,,,,,,,,,,,,,,,,,,,,,,,,25686,2022-11-16_10h23.12.397,vts_reward_expectancy_bt_OFFLINE,2022.2.4,59.927772656638915,
0,0,1,0,0,0,0,1,hexagon,star,1,0,1,0,0,2,2,8,,,,,,,,,,,,,,,,,,,,,,,,,,,,,,,,,,,,,,,,246.64456109097227,246.64456109097227,246.64456109097227,246.64456109097227,246.64456109097227,246.64456109097227,246.64456109097227,246.64456109097227,246.64456109097227,246.64456109097227,l,3.4548103518318385,10,240,1,250.13158959895372,,251.633319248911,,,,,,,,,,,,,,,,,,,,,,,,,,,,,,,,,,,,,,,,,,,,,,,,,,,,,,,,,,,,,,,,,,,,,,,,,,,,,,25686,2022-11-16_10h23.12.397,vts_reward_expectancy_bt_OFFLINE,2022.2.4,59.927772656638915,
1,0,0,0,0,1,0,0,triangle,circle,1,0,1,0,0,3,3,0,,,,,,,,,,,,,,,,,,,,,,,,,,,,,,,,,,,,,,,,252.13377503096126,252.13377503096126,252.13377503096126,252.13377503096126,252.13377503096126,252.13377503096126,252.13377503096126,252.13377503096126,252.13377503096126,252.13377503096126,l,2.5450837260577828,1,241,1,254.7034589610994,,256.20497717591934,,,,,,,,,,,,,,,,,,,,,,,,,,,,,,,,,,,,,,,,,,,,,,,,,,,,,,,,,,,,,,,,,,,,,,,,,,,,,,25686,2022-11-16_10h23.12.397,vts_reward_expectancy_bt_OFFLINE,2022.2.4,59.927772656638915,
0,1,0,0,0,0,1,0,circle,hexagon,1,0,1,0,0,4,4,4,,,,,,,,,,,,,,,,,,,,,,,,,,,,,,,,,,,,,,,,256.7054685319308,256.7054685319308,256.7054685319308,256.7054685319308,256.7054685319308,256.7054685319308,256.7054685319308,256.7054685319308,256.7054685319308,256.7054685319308,l,1.5619264389388263,1,242,1,258.29067541402765,,259.79221070208587,,,,,,,,,,,,,,,,,,,,,,,,,,,,,,,,,,,,,,,,,,,,,,,,,,,,,,,,,,,,,,,,,,,,,,,,,,,,,,25686,2022-11-16_10h23.12.397,vts_reward_expectancy_bt_OFFLINE,2022.2.4,59.927772656638915,
1,0,0,0,0,0,1,0,triangle,hexagon,1,0,1,0,0,5,5,1,,,,,,,,,,,,,,,,,,,,,,,,,,,,,,,,,,,,,,,,260.29286249005236,260.29286249005236,260.29286249005236,260.29286249005236,260.29286249005236,260.29286249005236,260.29286249005236,260.29286249005236,260.29286249005236,260.29286249005236,a,1.3385174528229982,1,243,1,261.6611351289321,,263.162563634105,,,,,,,,,,,,,,,,,,,,,,,,,,,,,,,,,,,,,,,,,,,,,,,,,,,,,,,,,,,,,,,,,,,,,,,,,,,,,,25686,2022-11-16_10h23.12.397,vts_reward_expectancy_bt_OFFLINE,2022.2.4,59.927772656638915,
0,0,1,0,1,0,0,0,hexagon,triangle,1,0,1,0,0,6,6,6,,,,,,,,,,,,,,,,,,,,,,,,,,,,,,,,,,,,,,,,263.66304630902596,263.66304630902596,263.66304630902596,263.66304630902596,263.66304630902596,263.66304630902596,263.66304630902596,263.66304630902596,263.66304630902596,263.66304630902596,l,1.5804367249365896,10,253,1,265.2649106949102,,266.7665773059707,,,,,,,,,,,,,,,,,,,,,,,,,,,,,,,,,,,,,,,,,,,,,,,,,,,,,,,,,,,,,,,,,,,,,,,,,,,,,,25686,2022-11-16_10h23.12.397,vts_reward_expectancy_bt_OFFLINE,2022.2.4,59.927772656638915,
0,1,0,0,0,0,0,1,circle,star,1,0,1,0,0,7,7,5,,,,,,,,,,,,,,,,,,,,,,,,,,,,,,,,,,,,,,,,267.2671454111114,267.2671454111114,267.2671454111114,267.2671454111114,267.2671454111114,267.2671454111114,267.2671454111114,267.2671454111114,267.2671454111114,267.2671454111114,a,1.7018691459670663,10,263,1,268.98578940005973,270.48736638505943,270.48736638505943,,,,,,,,,,,,,,,,,,,,,,,,,,,,,,,,,,,,,,,,,,,,,,,,,,,,,,,,,,,,,,,,,,,,,,,,,,,,,,25686,2022-11-16_10h23.12.397,vts_reward_expectancy_bt_OFFLINE,2022.2.4,59.927772656638915,
0,0,0,1,0,1,0,0,star ,circle,1,0,1,0,0,8,8,10,,,,,,,,,,,,,,,,,,,,,,,,,,,,,,,,,,,,,,,,270.98813081602566,270.98813081602566,270.98813081602566,270.98813081602566,270.98813081602566,270.98813081602566,270.98813081602566,270.98813081602566,270.98813081602566,270.98813081602566,l,1.8716744158882648,1,264,1,272.8900519669987,,274.3917420839425,,,,,,,,,,,,,,,,,,,,,,,,,,,,,,,,,,,,,,,,,,,,,,,,,,,,,,,,,,,,,,,,,,,,,,,,,,,,,,25686,2022-11-16_10h23.12.397,vts_reward_expectancy_bt_OFFLINE,2022.2.4,59.927772656638915,
0,0,0,1,0,0,1,0,star,hexagon,1,0,1,0,0,9,9,11,,,,,,,,,,,,,,,,,,,,,,,,,,,,,,,,,,,,,,,,274.89213886205107,274.89213886205107,274.89213886205107,274.89213886205107,274.89213886205107,274.89213886205107,274.89213886205107,274.89213886205107,274.89213886205107,274.89213886205107,l,1.4893736210651696,10,274,1,276.4105162669439,,277.9123309699353,,,,,,,,,,,,,,,,,,,,,,,,,,,,,,,,,,,,,,,,,,,,,,,,,,,,,,,,,,,,,,,,,,,,,,,,,,,,,,25686,2022-11-16_10h23.12.397,vts_reward_expectancy_bt_OFFLINE,2022.2.4,59.927772656638915,
1,0,0,0,0,0,0,1,triangle,star,1,0,1,0,0,10,10,2,,,,,,,,,,,,,,,,,,,,,,,,,,,,,,,,,,,,,,,,278.4127665939741,278.4127665939741,278.4127665939741,278.4127665939741,278.4127665939741,278.4127665939741,278.4127665939741,278.4127665939741,278.4127665939741,278.4127665939741,a,1.737645871937275,1,275,1,280.1815873910673,,281.6830916290637,,,,,,,,,,,,,,,,,,,,,,,,,,,,,,,,,,,,,,,,,,,,,,,,,,,,,,,,,,,,,,,,,,,,,,,,,,,,,,25686,2022-11-16_10h23.12.397,vts_reward_expectancy_bt_OFFLINE,2022.2.4,59.927772656638915,
0,0,1,0,0,1,0,0,hexagon,circle,1,0,1,0,0,11,11,7,,,,,,,,,,,,,,,,,,,,,,,,,,,,,,,,,,,,,,,,282.1838089940138,282.1838089940138,282.1838089940138,282.1838089940138,282.1838089940138,282.1838089940138,282.1838089940138,282.1838089940138,282.1838089940138,282.1838089940138,l,2.5578816898632795,1,276,1,284.7697172209155,,286.27155357506126,,,,,,,,,,,,,,,,,,,,,,,,,,,,,,,,,,,,,,,,,,,,,,,,,,,,,,,,,,,,,,,,,,,,,,,,,,,,,,25686,2022-11-16_10h23.12.397,vts_reward_expectancy_bt_OFFLINE,2022.2.4,59.927772656638915,
0,0,1,0,0,0,0,1,hexagon,star,1,0,1,0,1,0,12,8,,,,,,,,,,,,,,,,,,,,,,,,,,,,,,,,,,,,,,,,286.7720408150926,286.7720408150926,286.7720408150926,286.7720408150926,286.7720408150926,286.7720408150926,286.7720408150926,286.7720408150926,286.7720408150926,286.7720408150926,a,1.905913864960894,1,277,1,288.70755492988974,,290.2092662570067,,,,,,,,,,,,,,,,,,,,,,,,,,,,,,,,,,,,,,,,,,,,,,,,,,,,,,,,,,,,,,,,,,,,,,,,,,,,,,25686,2022-11-16_10h23.12.397,vts_reward_expectancy_bt_OFFLINE,2022.2.4,59.927772656638915,
0,0,0,1,1,0,0,0,star,triangle,1,0,1,0,1,1,13,9,,,,,,,,,,,,,,,,,,,,,,,,,,,,,,,,,,,,,,,,290.7098882740829,290.7098882740829,290.7098882740829,290.7098882740829,290.7098882740829,290.7098882740829,290.7098882740829,290.7098882740829,290.7098882740829,290.7098882740829,l,4.392563151894137,10,287,1,295.1312611089088,296.63299953890964,296.63299953890964,,,,,,,,,,,,,,,,,,,,,,,,,,,,,,,,,,,,,,,,,,,,,,,,,,,,,,,,,,,,,,,,,,,,,,,,,,,,,,25686,2022-11-16_10h23.12.397,vts_reward_expectancy_bt_OFFLINE,2022.2.4,59.927772656638915,
0,0,1,0,1,0,0,0,hexagon,triangle,1,0,1,0,1,2,14,6,,,,,,,,,,,,,,,,,,,,,,,,,,,,,,,,,,,,,,,,297.13348063104786,297.13348063104786,297.13348063104786,297.13348063104786,297.13348063104786,297.13348063104786,297.13348063104786,297.13348063104786,297.13348063104786,297.13348063104786,a,1.85268510482274,1,288,1,299.0189819089137,,300.5207426089328,,,,,,,,,,,,,,,,,,,,,,,,,,,,,,,,,,,,,,,,,,,,,,,,,,,,,,,,,,,,,,,,,,,,,,,,,,,,,,25686,2022-11-16_10h23.12.397,vts_reward_expectancy_bt_OFFLINE,2022.2.4,59.927772656638915,
0,0,0,1,0,1,0,0,star ,circle,1,0,1,0,1,3,15,10,,,,,,,,,,,,,,,,,,,,,,,,,,,,,,,,,,,,,,,,301.0210472070612,301.0210472070612,301.0210472070612,301.0210472070612,301.0210472070612,301.0210472070612,301.0210472070612,301.0210472070612,301.0210472070612,301.0210472070612,a,6.965394461993128,1,289,1,308.01216245489195,,309.51374267903157,,,,,,,,,,,,,,,,,,,,,,,,,,,,,,,,,,,,,,,,,,,,,,,,,,,,,,,,,,,,,,,,,,,,,,,,,,,,,,25686,2022-11-16_10h23.12.397,vts_reward_expectancy_bt_OFFLINE,2022.2.4,59.927772656638915,
1,0,0,0,0,0,0,1,triangle,star,1,0,1,0,1,4,16,2,,,,,,,,,,,,,,,,,,,,,,,,,,,,,,,,,,,,,,,,310.0142578140367,310.0142578140367,310.0142578140367,310.0142578140367,310.0142578140367,310.0142578140367,310.0142578140367,310.0142578140367,310.0142578140367,310.0142578140367,a,3.912653093924746,10,299,1,313.9519465439953,,315.45375096891075,,,,,,,,,,,,,,,,,,,,,,,,,,,,,,,,,,,,,,,,,,,,,,,,,,,,,,,,,,,,,,,,,,,,,,,,,,,,,,25686,2022-11-16_10h23.12.397,vts_reward_expectancy_bt_OFFLINE,2022.2.4,59.927772656638915,
0,0,1,0,0,1,0,0,hexagon,circle,1,0,1,0,1,5,17,7,,,,,,,,,,,,,,,,,,,,,,,,,,,,,,,,,,,,,,,,315.95420293090865,315.95420293090865,315.95420293090865,315.95420293090865,315.95420293090865,315.95420293090865,315.95420293090865,315.95420293090865,315.95420293090865,315.95420293090865,l,1.7283732190262526,10,309,1,317.7060536700301,,319.2077238711063,,,,,,,,,,,,,,,,,,,,,,,,,,,,,,,,,,,,,,,,,,,,,,,,,,,,,,,,,,,,,,,,,,,,,,,,,,,,,,25686,2022-11-16_10h23.12.397,vts_reward_expectancy_bt_OFFLINE,2022.2.4,59.927772656638915,
0,0,0,1,0,0,1,0,star,hexagon,1,0,1,0,1,6,18,11,,,,,,,,,,,,,,,,,,,,,,,,,,,,,,,,,,,,,,,,319.7082752799615,319.7082752799615,319.7082752799615,319.7082752799615,319.7082752799615,319.7082752799615,319.7082752799615,319.7082752799615,319.7082752799615,319.7082752799615,a,1.2158423780929297,10,319,1,320.9429060500115,,322.4447746309452,,,,,,,,,,,,,,,,,,,,,,,,,,,,,,,,,,,,,,,,,,,,,,,,,,,,,,,,,,,,,,,,,,,,,,,,,,,,,,25686,2022-11-16_10h23.12.397,vts_reward_expectancy_bt_OFFLINE,2022.2.4,59.927772656638915,
1,0,0,0,0,0,1,0,triangle,hexagon,1,0,1,0,1,7,19,1,,,,,,,,,,,,,,,,,,,,,,,,,,,,,,,,,,,,,,,,322.945252886042,322.945252886042,322.945252886042,322.945252886042,322.945252886042,322.945252886042,322.945252886042,322.945252886042,322.945252886042,322.945252886042,a,1.8367759329266846,10,329,1,324.81417805398814,,326.3156146509573,,,,,,,,,,,,,,,,,,,,,,,,,,,,,,,,,,,,,,,,,,,,,,,,,,,,,,,,,,,,,,,,,,,,,,,,,,,,,,25686,2022-11-16_10h23.12.397,vts_reward_expectancy_bt_OFFLINE,2022.2.4,59.927772656638915,
0,1,0,0,0,0,1,0,circle,hexagon,1,0,1,0,1,8,20,4,,,,,,,,,,,,,,,,,,,,,,,,,,,,,,,,,,,,,,,,326.8162053360138,326.8162053360138,326.8162053360138,326.8162053360138,326.8162053360138,326.8162053360138,326.8162053360138,326.8162053360138,326.8162053360138,326.8162053360138,l,1.3192654598969966,10,339,1,328.16792719392106,,329.66933725005947,,,,,,,,,,,,,,,,,,,,,,,,,,,,,,,,,,,,,,,,,,,,,,,,,,,,,,,,,,,,,,,,,,,,,,,,,,,,,,25686,2022-11-16_10h23.12.397,vts_reward_expectancy_bt_OFFLINE,2022.2.4,59.927772656638915,
1,0,0,0,0,1,0,0,triangle,circle,1,0,1,0,1,9,21,0,,,,,,,,,,,,,,,,,,,,,,,,,,,,,,,,,,,,,,,,330.16991774202324,330.16991774202324,330.16991774202324,330.16991774202324,330.16991774202324,330.16991774202324,330.16991774202324,330.16991774202324,330.16991774202324,330.16991774202324,l,3.489424091996625,10,349,1,333.6904954321217,,335.19219130207784,,,,,,,,,,,,,,,,,,,,,,,,,,,,,,,,,,,,,,,,,,,,,,,,,,,,,,,,,,,,,,,,,,,,,,,,,,,,,,25686,2022-11-16_10h23.12.397,vts_reward_expectancy_bt_OFFLINE,2022.2.4,59.927772656638915,
0,1,0,0,1,0,0,0,circle,triangle,1,0,1,0,1,10,22,3,,,,,,,,,,,,,,,,,,,,,,,,,,,,,,,,,,,,,,,,335.69260583398864,335.69260583398864,335.69260583398864,335.69260583398864,335.69260583398864,335.69260583398864,335.69260583398864,335.69260583398864,335.69260583398864,335.69260583398864,l,10.828841909766197,10,359,1,346.5378440520726,348.0394678269513,348.0394678269513,348.54008111706935,,,,,,,,,,,,,,,,,,,,,,,,,,,,,,,,,,,,,,,,,,,,,,,,,,,,,,,,,,,,,,,,,,,,,,,,,,,,,25686,2022-11-16_10h23.12.397,vts_reward_expectancy_bt_OFFLINE,2022.2.4,59.927772656638915,
0,1,0,0,0,0,0,1,circle,star,1,0,1,0,1,11,23,5,,,,,,,,,,,,,,,,,,,,,,,,,,,,,,,,,,,,,,,,348.54008111706935,348.54008111706935,348.54008111706935,348.54008111706935,348.54008111706935,348.54008111706935,348.54008111706935,348.54008111706935,348.54008111706935,348.54008111706935,l,10.670208901865408,10,369,1,359.2351784799248,,360.73686661198735,,,,,,,,,,,,,,,,,,,,,,,,,,,,,,,,,,,,,,,,,,,,,,,,,,,,,,,,,,,,,,,,,,,,,,,,,,,,,,25686,2022-11-16_10h23.12.397,vts_reward_expectancy_bt_OFFLINE,2022.2.4,59.927772656638915,
0,0,0,1,0,0,1,0,star,hexagon,1,0,1,0,2,0,24,11,,,,,,,,,,,,,,,,,,,,,,,,,,,,,,,,,,,,,,,,361.23744227108546,361.23744227108546,361.23744227108546,361.23744227108546,361.23744227108546,361.23744227108546,361.23744227108546,361.23744227108546,361.23744227108546,361.23744227108546,l,1.505814699921757,1,370,1,362.7727102250792,,364.2743113769684,,,,,,,,,,,,,,,,,,,,,,,,,,,,,,,,,,,,,,,,,,,,,,,,,,,,,,,,,,,,,,,,,,,,,,,,,,,,,,25686,2022-11-16_10h23.12.397,vts_reward_expectancy_bt_OFFLINE,2022.2.4,59.927772656638915,
0,0,1,0,1,0,0,0,hexagon,triangle,1,0,1,0,2,1,25,6,,,,,,,,,,,,,,,,,,,,,,,,,,,,,,,,,,,,,,,,364.7746363119222,364.7746363119222,364.7746363119222,364.7746363119222,364.7746363119222,364.7746363119222,364.7746363119222,364.7746363119222,364.7746363119222,364.7746363119222,l,2.35622724192217,1,371,1,367.1606495939195,,368.6623950020876,,,,,,,,,,,,,,,,,,,,,,,,,,,,,,,,,,,,,,,,,,,,,,,,,,,,,,,,,,,,,,,,,,,,,,,,,,,,,,25686,2022-11-16_10h23.12.397,vts_reward_expectancy_bt_OFFLINE,2022.2.4,59.927772656638915,
0,1,0,0,1,0,0,0,circle,triangle,1,0,1,0,2,2,26,3,,,,,,,,,,,,,,,,,,,,,,,,,,,,,,,,,,,,,,,,369.1628420460038,369.1628420460038,369.1628420460038,369.1628420460038,369.1628420460038,369.1628420460038,369.1628420460038,369.1628420460038,369.1628420460038,369.1628420460038,l,7.249548380030319,10,381,1,376.43750707199797,,377.93923370097764,,,,,,,,,,,,,,,,,,,,,,,,,,,,,,,,,,,,,,,,,,,,,,,,,,,,,,,,,,,,,,,,,,,,,,,,,,,,,,25686,2022-11-16_10h23.12.397,vts_reward_expectancy_bt_OFFLINE,2022.2.4,59.927772656638915,
1,0,0,0,0,0,1,0,triangle,hexagon,1,0,1,0,2,3,27,1,,,,,,,,,,,,,,,,,,,,,,,,,,,,,,,,,,,,,,,,378.4396980321035,378.4396980321035,378.4396980321035,378.4396980321035,378.4396980321035,378.4396980321035,378.4396980321035,378.4396980321035,378.4396980321035,378.4396980321035,a,1.9337188838981092,10,391,1,380.3921884109732,381.8937201069202,381.8937201069202,,,,,,,,,,,,,,,,,,,,,,,,,,,,,,,,,,,,,,,,,,,,,,,,,,,,,,,,,,,,,,,,,,,,,,,,,,,,,,25686,2022-11-16_10h23.12.397,vts_reward_expectancy_bt_OFFLINE,2022.2.4,59.927772656638915,
0,0,1,0,0,1,0,0,hexagon,circle,1,0,1,0,2,4,28,7,,,,,,,,,,,,,,,,,,,,,,,,,,,,,,,,,,,,,,,,382.394315070007,382.394315070007,382.394315070007,382.394315070007,382.394315070007,382.394315070007,382.394315070007,382.394315070007,382.394315070007,382.394315070007,a,6.641789024928585,1,392,1,389.068051304901,,390.56986331706867,,,,,,,,,,,,,,,,,,,,,,,,,,,,,,,,,,,,,,,,,,,,,,,,,,,,,,,,,,,,,,,,,,,,,,,,,,,,,,25686,2022-11-16_10h23.12.397,vts_reward_expectancy_bt_OFFLINE,2022.2.4,59.927772656638915,
0,0,0,1,1,0,0,0,star,triangle,1,0,1,0,2,5,29,9,,,,,,,,,,,,,,,,,,,,,,,,,,,,,,,,,,,,,,,,391.0705064039212,391.0705064039212,391.0705064039212,391.0705064039212,391.0705064039212,391.0705064039212,391.0705064039212,391.0705064039212,391.0705064039212,391.0705064039212,l,1.7927212798967957,1,393,1,392.8892241290305,,394.3907670599874,,,,,,,,,,,,,,,,,,,,,,,,,,,,,,,,,,,,,,,,,,,,,,,,,,,,,,,,,,,,,,,,,,,,,,,,,,,,,,25686,2022-11-16_10h23.12.397,vts_reward_expectancy_bt_OFFLINE,2022.2.4,59.927772656638915,
1,0,0,0,0,0,0,1,triangle,star,1,0,1,0,2,6,30,2,,,,,,,,,,,,,,,,,,,,,,,,,,,,,,,,,,,,,,,,394.89145399001427,394.89145399001427,394.89145399001427,394.89145399001427,394.89145399001427,394.89145399001427,394.89145399001427,394.89145399001427,394.89145399001427,394.89145399001427,a,3.0106801497749984,10,403,1,397.9278941398952,,399.4295721659437,,,,,,,,,,,,,,,,,,,,,,,,,,,,,,,,,,,,,,,,,,,,,,,,,,,,,,,,,,,,,,,,,,,,,,,,,,,,,,25686,2022-11-16_10h23.12.397,vts_reward_expectancy_bt_OFFLINE,2022.2.4,59.927772656638915,
0,0,1,0,0,0,0,1,hexagon,star,1,0,1,0,2,7,31,8,,,,,,,,,,,,,,,,,,,,,,,,,,,,,,,,,,,,,,,,399.930424954975,399.930424954975,399.930424954975,399.930424954975,399.930424954975,399.930424954975,399.930424954975,399.930424954975,399.930424954975,399.930424954975,l,1.6185951770748943,10,413,1,401.5664625118952,403.06715547596104,403.06715547596104,403.5677283219993,,,,,,,,,,,,,,,,,,,,,,,,,,,,,,,,,,,,,,,,,,,,,,,,,,,,,,,,,,,,,,,,,,,,,,,,,,,,,25686,2022-11-16_10h23.12.397,vts_reward_expectancy_bt_OFFLINE,2022.2.4,59.927772656638915,
0,1,0,0,0,0,0,1,circle,star,1,0,1,0,2,8,32,5,,,,,,,,,,,,,,,,,,,,,,,,,,,,,,,,,,,,,,,,403.5677283219993,403.5677283219993,403.5677283219993,403.5677283219993,403.5677283219993,403.5677283219993,403.5677283219993,403.5677283219993,403.5677283219993,403.5677283219993,a,1.7148286399897188,1,414,1,405.3031534710899,406.8044304389041,406.8044304389041,,,,,,,,,,,,,,,,,,,,,,,,,,,,,,,,,,,,,,,,,,,,,,,,,,,,,,,,,,,,,,,,,,,,,,,,,,,,,,25686,2022-11-16_10h23.12.397,vts_reward_expectancy_bt_OFFLINE,2022.2.4,59.927772656638915,
0,0,0,1,0,1,0,0,star ,circle,1,0,1,0,2,9,33,10,,,,,,,,,,,,,,,,,,,,,,,,,,,,,,,,,,,,,,,,407.30489392904565,407.30489392904565,407.30489392904565,407.30489392904565,407.30489392904565,407.30489392904565,407.30489392904565,407.30489392904565,407.30489392904565,407.30489392904565,a,1.6556425879243761,1,415,1,408.99039038689807,,410.4917511988897,,,,,,,,,,,,,,,,,,,,,,,,,,,,,,,,,,,,,,,,,,,,,,,,,,,,,,,,,,,,,,,,,,,,,,,,,,,,,,25686,2022-11-16_10h23.12.397,vts_reward_expectancy_bt_OFFLINE,2022.2.4,59.927772656638915,
1,0,0,0,0,1,0,0,triangle,circle,1,0,1,0,2,10,34,0,,,,,,,,,,,,,,,,,,,,,,,,,,,,,,,,,,,,,,,,410.9923809869215,410.9923809869215,410.9923809869215,410.9923809869215,410.9923809869215,410.9923809869215,410.9923809869215,410.9923809869215,410.9923809869215,410.9923809869215,l,2.503566452069208,1,416,1,413.5284237889573,,415.03009363403544,,,,,,,,,,,,,,,,,,,,,,,,,,,,,,,,,,,,,,,,,,,,,,,,,,,,,,,,,,,,,,,,,,,,,,,,,,,,,,25686,2022-11-16_10h23.12.397,vts_reward_expectancy_bt_OFFLINE,2022.2.4,59.927772656638915,
0,1,0,0,0,0,1,0,circle,hexagon,1,0,1,0,2,11,35,4,,,,,,,,,,,,,,,,,,,,,,,,,,,,,,,,,,,,,,,,415.53082232689485,415.53082232689485,415.53082232689485,415.53082232689485,415.53082232689485,415.53082232689485,415.53082232689485,415.53082232689485,415.53082232689485,415.53082232689485,l,4.331789033021778,10,426,1,419.8856114670634,,421.3874206619803,,,,,,,,,,,,,,,,,,,,,,,,,,,,,,,,,,,,,,,,,,,,,,,,,,,,,,,,,,,,,,,,,,,,,,,,,,,,,,25686,2022-11-16_10h23.12.397,vts_reward_expectancy_bt_OFFLINE,2022.2.4,59.927772656638915,
0,0,0,1,1,0,0,0,star,triangle,1,0,1,0,3,0,36,9,,,,,,,,,,,,,,,,,,,,,,,,,,,,,,,,,,,,,,,,421.8877828109544,421.8877828109544,421.8877828109544,421.8877828109544,421.8877828109544,421.8877828109544,421.8877828109544,421.8877828109544,421.8877828109544,421.8877828109544,a,3.805363474879414,10,436,1,425.72515626391396,,427.22685446892865,,,,,,,,,,,,,,,,,,,,,,,,,,,,,,,,,,,,,,,,,,,,,,,,,,,,,,,,,,,,,,,,,,,,,,,,,,,,,,25686,2022-11-16_10h23.12.397,vts_reward_expectancy_bt_OFFLINE,2022.2.4,59.927772656638915,
0,1,0,0,0,0,1,0,circle,hexagon,1,0,1,0,3,1,37,4,,,,,,,,,,,,,,,,,,,,,,,,,,,,,,,,,,,,,,,,427.7275311809499,427.7275311809499,427.7275311809499,427.7275311809499,427.7275311809499,427.7275311809499,427.7275311809499,427.7275311809499,427.7275311809499,427.7275311809499,l,1.7337854427751154,10,446,1,429.47935155499727,,430.98116116505116,,,,,,,,,,,,,,,,,,,,,,,,,,,,,,,,,,,,,,,,,,,,,,,,,,,,,,,,,,,,,,,,,,,,,,,,,,,,,,25686,2022-11-16_10h23.12.397,vts_reward_expectancy_bt_OFFLINE,2022.2.4,59.927772656638915,
1,0,0,0,0,0,0,1,triangle,star,1,0,1,0,3,2,38,2,,,,,,,,,,,,,,,,,,,,,,,,,,,,,,,,,,,,,,,,431.48170754592866,431.48170754592866,431.48170754592866,431.48170754592866,431.48170754592866,431.48170754592866,431.48170754592866,431.48170754592866,431.48170754592866,431.48170754592866,l,7.587192738894373,1,447,1,439.0899594470393,,440.59145220997743,,,,,,,,,,,,,,,,,,,,,,,,,,,,,,,,,,,,,,,,,,,,,,,,,,,,,,,,,,,,,,,,,,,,,,,,,,,,,,25686,2022-11-16_10h23.12.397,vts_reward_expectancy_bt_OFFLINE,2022.2.4,59.927772656638915,
0,0,0,1,0,0,1,0,star,hexagon,1,0,1,0,3,3,39,11,,,,,,,,,,,,,,,,,,,,,,,,,,,,,,,,,,,,,,,,441.0921982200816,441.0921982200816,441.0921982200816,441.0921982200816,441.0921982200816,441.0921982200816,441.0921982200816,441.0921982200816,441.0921982200816,441.0921982200816,l,2.262765440857038,10,457,1,443.37809222890064,,444.8797285701148,,,,,,,,,,,,,,,,,,,,,,,,,,,,,,,,,,,,,,,,,,,,,,,,,,,,,,,,,,,,,,,,,,,,,,,,,,,,,,25686,2022-11-16_10h23.12.397,vts_reward_expectancy_bt_OFFLINE,2022.2.4,59.927772656638915,
0,0,1,0,1,0,0,0,hexagon,triangle,1,0,1,0,3,4,40,6,,,,,,,,,,,,,,,,,,,,,,,,,,,,,,,,,,,,,,,,445.3803582258988,445.3803582258988,445.3803582258988,445.3803582258988,445.3803582258988,445.3803582258988,445.3803582258988,445.3803582258988,445.3803582258988,445.3803582258988,l,2.19347423594445,10,467,1,447.5993765210733,449.1013100850396,449.1013100850396,,,,,,,,,,,,,,,,,,,,,,,,,,,,,,,,,,,,,,,,,,,,,,,,,,,,,,,,,,,,,,,,,,,,,,,,,,,,,,25686,2022-11-16_10h23.12.397,vts_reward_expectancy_bt_OFFLINE,2022.2.4,59.927772656638915,
0,1,0,0,1,0,0,0,circle,triangle,1,0,1,0,3,5,41,3,,,,,,,,,,,,,,,,,,,,,,,,,,,,,,,,,,,,,,,,449.60186001611874,449.60186001611874,449.60186001611874,449.60186001611874,449.60186001611874,449.60186001611874,449.60186001611874,449.60186001611874,449.60186001611874,449.60186001611874,l,2.7643697869498283,10,477,1,452.38794955099,,453.8896562019363,,,,,,,,,,,,,,,,,,,,,,,,,,,,,,,,,,,,,,,,,,,,,,,,,,,,,,,,,,,,,,,,,,,,,,,,,,,,,,25686,2022-11-16_10h23.12.397,vts_reward_expectancy_bt_OFFLINE,2022.2.4,59.927772656638915,
0,1,0,0,0,0,0,1,circle,star,1,0,1,0,3,6,42,5,,,,,,,,,,,,,,,,,,,,,,,,,,,,,,,,,,,,,,,,454.3901223121211,454.3901223121211,454.3901223121211,454.3901223121211,454.3901223121211,454.3901223121211,454.3901223121211,454.3901223121211,454.3901223121211,454.3901223121211,a,1.9607594548724592,10,487,1,456.3756887600757,,457.8774941749871,,,,,,,,,,,,,,,,,,,,,,,,,,,,,,,,,,,,,,,,,,,,,,,,,,,,,,,,,,,,,,,,,,,,,,,,,,,,,,25686,2022-11-16_10h23.12.397,vts_reward_expectancy_bt_OFFLINE,2022.2.4,59.927772656638915,
0,0,0,1,0,1,0,0,star ,circle,1,0,1,0,3,7,43,10,,,,,,,,,,,,,,,,,,,,,,,,,,,,,,,,,,,,,,,,458.378167741932,458.378167741932,458.378167741932,458.378167741932,458.378167741932,458.378167741932,458.378167741932,458.378167741932,458.378167741932,458.378167741932,a,1.3803818598389626,10,497,1,459.779518780997,,461.28109002904966,,,,,,,,,,,,,,,,,,,,,,,,,,,,,,,,,,,,,,,,,,,,,,,,,,,,,,,,,,,,,,,,,,,,,,,,,,,,,,25686,2022-11-16_10h23.12.397,vts_reward_expectancy_bt_OFFLINE,2022.2.4,59.927772656638915,
1,0,0,0,0,1,0,0,triangle,circle,1,0,1,0,3,8,44,0,,,,,,,,,,,,,,,,,,,,,,,,,,,,,,,,,,,,,,,,461.7817075839266,461.7817075839266,461.7817075839266,461.7817075839266,461.7817075839266,461.7817075839266,461.7817075839266,461.7817075839266,461.7817075839266,461.7817075839266,l,3.4216019639279693,10,507,1,465.2356506350916,,466.7372130469885,,,,,,,,,,,,,,,,,,,,,,,,,,,,,,,,,,,,,,,,,,,,,,,,,,,,,,,,,,,,,,,,,,,,,,,,,,,,,,25686,2022-11-16_10h23.12.397,vts_reward_expectancy_bt_OFFLINE,2022.2.4,59.927772656638915,
1,0,0,0,0,0,1,0,triangle,hexagon,1,0,1,0,3,9,45,1,,,,,,,,,,,,,,,,,,,,,,,,,,,,,,,,,,,,,,,,467.23790235002525,467.23790235002525,467.23790235002525,467.23790235002525,467.23790235002525,467.23790235002525,467.23790235002525,467.23790235002525,467.23790235002525,467.23790235002525,a,3.175590187078342,1,508,1,470.4413148649037,,471.9429707049858,,,,,,,,,,,,,,,,,,,,,,,,,,,,,,,,,,,,,,,,,,,,,,,,,,,,,,,,,,,,,,,,,,,,,,,,,,,,,,25686,2022-11-16_10h23.12.397,vts_reward_expectancy_bt_OFFLINE,2022.2.4,59.927772656638915,
0,0,1,0,0,0,0,1,hexagon,star,1,0,1,0,3,10,46,8,,,,,,,,,,,,,,,,,,,,,,,,,,,,,,,,,,,,,,,,472.44368965597823,472.44368965597823,472.44368965597823,472.44368965597823,472.44368965597823,472.44368965597823,472.44368965597823,472.44368965597823,472.44368965597823,472.44368965597823,l,1.4019195698201656,10,518,1,473.8783074889798,,475.3801162899472,,,,,,,,,,,,,,,,,,,,,,,,,,,,,,,,,,,,,,,,,,,,,,,,,,,,,,,,,,,,,,,,,,,,,,,,,,,,,,25686,2022-11-16_10h23.12.397,vts_reward_expectancy_bt_OFFLINE,2022.2.4,59.927772656638915,
0,0,1,0,0,1,0,0,hexagon,circle,1,0,1,0,3,11,47,7,,,,,,,,,,,,,,,,,,,,,,,,,,,,,,,,,,,,,,,,475.88081350992434,475.88081350992434,475.88081350992434,475.88081350992434,475.88081350992434,475.88081350992434,475.88081350992434,475.88081350992434,475.88081350992434,475.88081350992434,l,2.362884388770908,10,528,1,478.26658289902844,,479.76824375102296,,,,,,,,,,,,,,,,,,,,,,,,,,,,,,,,,,,,,,,,,,,,,,,,,,,,,,,,,,,,,,,,,,,,,,,,,,,,,,25686,2022-11-16_10h23.12.397,vts_reward_expectancy_bt_OFFLINE,2022.2.4,59.927772656638915,
0,1,0,0,0,0,1,0,circle,hexagon,2,0,2,0,0,0,0,4,,,,,,,,,,,,,,,,,,,,,,,,,,,,,,,,,,,,,,,,483.0386855700053,483.0386855700053,483.0386855700053,483.0386855700053,483.0386855700053,483.0386855700053,483.0386855700053,483.0386855700053,483.0386855700053,483.0386855700053,l,2.4864262850023806,10,538,2,485.5580993019976,,487.0597185359802,,,,,,,,,,,,,,,,,,,,,,,,,,,,,,,,,,,,,,,,,,,,,,,,,,,,,,,,,,,,,,,,,,,,,,,,,,,,,,25686,2022-11-16_10h23.12.397,vts_reward_expectancy_bt_OFFLINE,2022.2.4,59.927772656638915,
1,0,0,0,0,0,1,0,triangle,hexagon,2,0,2,0,0,1,1,1,,,,,,,,,,,,,,,,,,,,,,,,,,,,,,,,,,,,,,,,487.5602593419608,487.5602593419608,487.5602593419608,487.5602593419608,487.5602593419608,487.5602593419608,487.5602593419608,487.5602593419608,487.5602593419608,487.5602593419608,l,2.1702350908890367,10,548,2,489.76249719411135,,491.2643975899555,,,,,,,,,,,,,,,,,,,,,,,,,,,,,,,,,,,,,,,,,,,,,,,,,,,,,,,,,,,,,,,,,,,,,,,,,,,,,,25686,2022-11-16_10h23.12.397,vts_reward_expectancy_bt_OFFLINE,2022.2.4,59.927772656638915,
0,0,1,0,0,1,0,0,hexagon,circle,2,0,2,0,0,2,2,7,,,,,,,,,,,,,,,,,,,,,,,,,,,,,,,,,,,,,,,,491.76477012899704,491.76477012899704,491.76477012899704,491.76477012899704,491.76477012899704,491.76477012899704,491.76477012899704,491.76477012899704,491.76477012899704,491.76477012899704,l,1.8700674299616367,1,549,2,493.6669100311119,495.1685751150362,495.1685751150362,,,,,,,,,,,,,,,,,,,,,,,,,,,,,,,,,,,,,,,,,,,,,,,,,,,,,,,,,,,,,,,,,,,,,,,,,,,,,,25686,2022-11-16_10h23.12.397,vts_reward_expectancy_bt_OFFLINE,2022.2.4,59.927772656638915,
0,0,0,1,0,0,1,0,star,hexagon,2,0,2,0,0,3,3,11,,,,,,,,,,,,,,,,,,,,,,,,,,,,,,,,,,,,,,,,495.66910188202746,495.66910188202746,495.66910188202746,495.66910188202746,495.66910188202746,495.66910188202746,495.66910188202746,495.66910188202746,495.66910188202746,495.66910188202746,a,1.9150012040045112,10,559,2,497.60506214690395,,499.10618301690556,,,,,,,,,,,,,,,,,,,,,,,,,,,,,,,,,,,,,,,,,,,,,,,,,,,,,,,,,,,,,,,,,,,,,,,,,,,,,,25686,2022-11-16_10h23.12.397,vts_reward_expectancy_bt_OFFLINE,2022.2.4,59.927772656638915,
0,0,1,0,0,0,0,1,hexagon,star,2,0,2,0,0,4,4,8,,,,,,,,,,,,,,,,,,,,,,,,,,,,,,,,,,,,,,,,499.6067597400397,499.6067597400397,499.6067597400397,499.6067597400397,499.6067597400397,499.6067597400397,499.6067597400397,499.6067597400397,499.6067597400397,499.6067597400397,a,4.716852097772062,10,569,2,504.3454796059523,,505.846983195981,,,,,,,,,,,,,,,,,,,,,,,,,,,,,,,,,,,,,,,,,,,,,,,,,,,,,,,,,,,,,,,,,,,,,,,,,,,,,,25686,2022-11-16_10h23.12.397,vts_reward_expectancy_bt_OFFLINE,2022.2.4,59.927772656638915,
0,0,0,1,0,1,0,0,star ,circle,2,0,2,0,0,5,5,10,,,,,,,,,,,,,,,,,,,,,,,,,,,,,,,,,,,,,,,,506.34767759102397,506.34767759102397,506.34767759102397,506.34767759102397,506.34767759102397,506.34767759102397,506.34767759102397,506.34767759102397,506.34767759102397,506.34767759102397,l,2.7563510318286717,10,579,2,509.1339535668958,510.63552955398336,510.63552955398336,,,,,,,,,,,,,,,,,,,,,,,,,,,,,,,,,,,,,,,,,,,,,,,,,,,,,,,,,,,,,,,,,,,,,,,,,,,,,,25686,2022-11-16_10h23.12.397,vts_reward_expectancy_bt_OFFLINE,2022.2.4,59.927772656638915,
0,1,0,0,1,0,0,0,circle,triangle,2,0,2,0,0,6,6,3,,,,,,,,,,,,,,,,,,,,,,,,,,,,,,,,,,,,,,,,511.13616732507944,511.13616732507944,511.13616732507944,511.13616732507944,511.13616732507944,511.13616732507944,511.13616732507944,511.13616732507944,511.13616732507944,511.13616732507944,l,5.306031829910353,10,589,2,516.4587859311141,517.9605221990496,517.9605221990496,,,,,,,,,,,,,,,,,,,,,,,,,,,,,,,,,,,,,,,,,,,,,,,,,,,,,,,,,,,,,,,,,,,,,,,,,,,,,,25686,2022-11-16_10h23.12.397,vts_reward_expectancy_bt_OFFLINE,2022.2.4,59.927772656638915,
0,1,0,0,0,0,0,1,circle,star,2,0,2,0,0,7,7,5,,,,,,,,,,,,,,,,,,,,,,,,,,,,,,,,,,,,,,,,518.4609831708949,518.4609831708949,518.4609831708949,518.4609831708949,518.4609831708949,518.4609831708949,518.4609831708949,518.4609831708949,518.4609831708949,518.4609831708949,a,2.3687630218919367,10,599,2,520.8468616649043,522.3485027109273,522.3485027109273,,,,,,,,,,,,,,,,,,,,,,,,,,,,,,,,,,,,,,,,,,,,,,,,,,,,,,,,,,,,,,,,,,,,,,,,,,,,,,25686,2022-11-16_10h23.12.397,vts_reward_expectancy_bt_OFFLINE,2022.2.4,59.927772656638915,
1,0,0,0,0,1,0,0,triangle,circle,2,0,2,0,0,8,8,0,,,,,,,,,,,,,,,,,,,,,,,,,,,,,,,,,,,,,,,,522.8491620449349,522.8491620449349,522.8491620449349,522.8491620449349,522.8491620449349,522.8491620449349,522.8491620449349,522.8491620449349,522.8491620449349,522.8491620449349,l,1.9173755401279777,10,609,2,524.7845447810832,526.2862920940388,526.2862920940388,,,,,,,,,,,,,,,,,,,,,,,,,,,,,,,,,,,,,,,,,,,,,,,,,,,,,,,,,,,,,,,,,,,,,,,,,,,,,,25686,2022-11-16_10h23.12.397,vts_reward_expectancy_bt_OFFLINE,2022.2.4,59.927772656638915,
1,0,0,0,0,0,0,1,triangle,star,2,0,2,0,0,9,9,2,,,,,,,,,,,,,,,,,,,,,,,,,,,,,,,,,,,,,,,,526.786656019045,526.786656019045,526.786656019045,526.786656019045,526.786656019045,526.786656019045,526.786656019045,526.786656019045,526.786656019045,526.786656019045,l,1.5224308958277106,1,610,2,528.3391462659929,,529.8401551139541,,,,,,,,,,,,,,,,,,,,,,,,,,,,,,,,,,,,,,,,,,,,,,,,,,,,,,,,,,,,,,,,,,,,,,,,,,,,,,25686,2022-11-16_10h23.12.397,vts_reward_expectancy_bt_OFFLINE,2022.2.4,59.927772656638915,
0,0,0,1,1,0,0,0,star,triangle,2,0,2,0,0,10,10,9,,,,,,,,,,,,,,,,,,,,,,,,,,,,,,,,,,,,,,,,530.3408479189966,530.3408479189966,530.3408479189966,530.3408479189966,530.3408479189966,530.3408479189966,530.3408479189966,530.3408479189966,530.3408479189966,530.3408479189966,a,1.8518512027803808,10,620,2,532.210101824021,533.7112645660527,533.7112645660527,,,,,,,,,,,,,,,,,,,,,,,,,,,,,,,,,,,,,,,,,,,,,,,,,,,,,,,,,,,,,,,,,,,,,,,,,,,,,,25686,2022-11-16_10h23.12.397,vts_reward_expectancy_bt_OFFLINE,2022.2.4,59.927772656638915,
0,0,1,0,1,0,0,0,hexagon,triangle,2,0,2,0,0,11,11,6,,,,,,,,,,,,,,,,,,,,,,,,,,,,,,,,,,,,,,,,534.2117672199383,534.2117672199383,534.2117672199383,534.2117672199383,534.2117672199383,534.2117672199383,534.2117672199383,534.2117672199383,534.2117672199383,534.2117672199383,l,1.7030738010071218,1,621,2,535.9468818719033,,537.4485628791153,,,,,,,,,,,,,,,,,,,,,,,,,,,,,,,,,,,,,,,,,,,,,,,,,,,,,,,,,,,,,,,,,,,,,,,,,,,,,,25686,2022-11-16_10h23.12.397,vts_reward_expectancy_bt_OFFLINE,2022.2.4,59.927772656638915,
0,0,0,1,1,0,0,0,star,triangle,2,0,2,0,1,0,12,9,,,,,,,,,,,,,,,,,,,,,,,,,,,,,,,,,,,,,,,,537.9492618949153,537.9492618949153,537.9492618949153,537.9492618949153,537.9492618949153,537.9492618949153,537.9492618949153,537.9492618949153,537.9492618949153,537.9492618949153,l,2.3769632109906524,1,622,2,540.3517292039469,,541.8535211400595,,,,,,,,,,,,,,,,,,,,,,,,,,,,,,,,,,,,,,,,,,,,,,,,,,,,,,,,,,,,,,,,,,,,,,,,,,,,,,25686,2022-11-16_10h23.12.397,vts_reward_expectancy_bt_OFFLINE,2022.2.4,59.927772656638915,
1,0,0,0,0,0,1,0,triangle,hexagon,2,0,2,0,1,1,13,1,,,,,,,,,,,,,,,,,,,,,,,,,,,,,,,,,,,,,,,,542.354256846942,542.354256846942,542.354256846942,542.354256846942,542.354256846942,542.354256846942,542.354256846942,542.354256846942,542.354256846942,542.354256846942,a,1.9768823250196874,10,632,2,544.3563103410415,,545.8578902210575,,,,,,,,,,,,,,,,,,,,,,,,,,,,,,,,,,,,,,,,,,,,,,,,,,,,,,,,,,,,,,,,,,,,,,,,,,,,,,25686,2022-11-16_10h23.12.397,vts_reward_expectancy_bt_OFFLINE,2022.2.4,59.927772656638915,
0,0,1,0,1,0,0,0,hexagon,triangle,2,0,2,0,1,2,14,6,,,,,,,,,,,,,,,,,,,,,,,,,,,,,,,,,,,,,,,,546.3584449740592,546.3584449740592,546.3584449740592,546.3584449740592,546.3584449740592,546.3584449740592,546.3584449740592,546.3584449740592,546.3584449740592,546.3584449740592,l,2.1369431579951197,10,642,2,548.5274862360675,,550.0293185668997,,,,,,,,,,,,,,,,,,,,,,,,,,,,,,,,,,,,,,,,,,,,,,,,,,,,,,,,,,,,,,,,,,,,,,,,,,,,,,25686,2022-11-16_10h23.12.397,vts_reward_expectancy_bt_OFFLINE,2022.2.4,59.927772656638915,
0,0,0,1,0,1,0,0,star ,circle,2,0,2,0,1,3,15,10,,,,,,,,,,,,,,,,,,,,,,,,,,,,,,,,,,,,,,,,550.5296411849558,550.5296411849558,550.5296411849558,550.5296411849558,550.5296411849558,550.5296411849558,550.5296411849558,550.5296411849558,550.5296411849558,550.5296411849558,l,1.912726473994553,1,643,2,552.4653037399985,,553.9667920770589,,,,,,,,,,,,,,,,,,,,,,,,,,,,,,,,,,,,,,,,,,,,,,,,,,,,,,,,,,,,,,,,,,,,,,,,,,,,,,25686,2022-11-16_10h23.12.397,vts_reward_expectancy_bt_OFFLINE,2022.2.4,59.927772656638915,
0,1,0,0,0,0,0,1,circle,star,2,0,2,0,1,4,16,5,,,,,,,,,,,,,,,,,,,,,,,,,,,,,,,,,,,,,,,,554.4673856999725,554.4673856999725,554.4673856999725,554.4673856999725,554.4673856999725,554.4673856999725,554.4673856999725,554.4673856999725,554.4673856999725,554.4673856999725,a,3.1389810191467404,1,644,2,557.6373309099581,559.1390248960815,559.1390248960815,,,,,,,,,,,,,,,,,,,,,,,,,,,,,,,,,,,,,,,,,,,,,,,,,,,,,,,,,,,,,,,,,,,,,,,,,,,,,,25686,2022-11-16_10h23.12.397,vts_reward_expectancy_bt_OFFLINE,2022.2.4,59.927772656638915,
0,1,0,0,1,0,0,0,circle,triangle,2,0,2,0,1,5,17,3,,,,,,,,,,,,,,,,,,,,,,,,,,,,,,,,,,,,,,,,559.6397801260464,559.6397801260464,559.6397801260464,559.6397801260464,559.6397801260464,559.6397801260464,559.6397801260464,559.6397801260464,559.6397801260464,559.6397801260464,l,1.4205768450628966,10,654,2,561.091104127001,562.5930296690203,562.5930296690203,563.0936348319519,,,,,,,,,,,,,,,,,,,,,,,,,,,,,,,,,,,,,,,,,,,,,,,,,,,,,,,,,,,,,,,,,,,,,,,,,,,,,25686,2022-11-16_10h23.12.397,vts_reward_expectancy_bt_OFFLINE,2022.2.4,59.927772656638915,
1,0,0,0,0,0,0,1,triangle,star,2,0,2,0,1,6,18,2,,,,,,,,,,,,,,,,,,,,,,,,,,,,,,,,,,,,,,,,563.0936348319519,563.0936348319519,563.0936348319519,563.0936348319519,563.0936348319519,563.0936348319519,563.0936348319519,563.0936348319519,563.0936348319519,563.0936348319519,l,10.119362907018512,1,655,2,573.2382336459123,,574.7396760149859,,,,,,,,,,,,,,,,,,,,,,,,,,,,,,,,,,,,,,,,,,,,,,,,,,,,,,,,,,,,,,,,,,,,,,,,,,,,,,25686,2022-11-16_10h23.12.397,vts_reward_expectancy_bt_OFFLINE,2022.2.4,59.927772656638915,
0,0,0,1,0,0,1,0,star,hexagon,2,0,2,0,1,7,19,11,,,,,,,,,,,,,,,,,,,,,,,,,,,,,,,,,,,,,,,,575.2401596449781,575.2401596449781,575.2401596449781,575.2401596449781,575.2401596449781,575.2401596449781,575.2401596449781,575.2401596449781,575.2401596449781,575.2401596449781,l,2.1698106708936393,1,656,2,577.4425390199758,,578.9441659990698,,,,,,,,,,,,,,,,,,,,,,,,,,,,,,,,,,,,,,,,,,,,,,,,,,,,,,,,,,,,,,,,,,,,,,,,,,,,,,25686,2022-11-16_10h23.12.397,vts_reward_expectancy_bt_OFFLINE,2022.2.4,59.927772656638915,
0,0,1,0,0,0,0,1,hexagon,star,2,0,2,0,1,8,20,8,,,,,,,,,,,,,,,,,,,,,,,,,,,,,,,,,,,,,,,,579.4448754240293,579.4448754240293,579.4448754240293,579.4448754240293,579.4448754240293,579.4448754240293,579.4448754240293,579.4448754240293,579.4448754240293,579.4448754240293,l,1.1141043400857598,10,666,2,580.580152018927,582.0810795689467,582.0810795689467,,,,,,,,,,,,,,,,,,,,,,,,,,,,,,,,,,,,,,,,,,,,,,,,,,,,,,,,,,,,,,,,,,,,,,,,,,,,,,25686,2022-11-16_10h23.12.397,vts_reward_expectancy_bt_OFFLINE,2022.2.4,59.927772656638915,
0,1,0,0,0,0,1,0,circle,hexagon,2,0,2,0,1,9,21,4,,,,,,,,,,,,,,,,,,,,,,,,,,,,,,,,,,,,,,,,582.5816097799689,582.5816097799689,582.5816097799689,582.5816097799689,582.5816097799689,582.5816097799689,582.5816097799689,582.5816097799689,582.5816097799689,582.5816097799689,a,1.172543317079544,10,676,2,583.7830639909953,,585.2846614650916,,,,,,,,,,,,,,,,,,,,,,,,,,,,,,,,,,,,,,,,,,,,,,,,,,,,,,,,,,,,,,,,,,,,,,,,,,,,,,25686,2022-11-16_10h23.12.397,vts_reward_expectancy_bt_OFFLINE,2022.2.4,59.927772656638915,
1,0,0,0,0,1,0,0,triangle,circle,2,0,2,0,1,10,22,0,,,,,,,,,,,,,,,,,,,,,,,,,,,,,,,,,,,,,,,,585.7852575948928,585.7852575948928,585.7852575948928,585.7852575948928,585.7852575948928,585.7852575948928,585.7852575948928,585.7852575948928,585.7852575948928,585.7852575948928,l,1.7707422089297324,10,686,2,587.5872621149756,,589.0888290810399,,,,,,,,,,,,,,,,,,,,,,,,,,,,,,,,,,,,,,,,,,,,,,,,,,,,,,,,,,,,,,,,,,,,,,,,,,,,,,25686,2022-11-16_10h23.12.397,vts_reward_expectancy_bt_OFFLINE,2022.2.4,59.927772656638915,
0,0,1,0,0,1,0,0,hexagon,circle,2,0,2,0,1,11,23,7,,,,,,,,,,,,,,,,,,,,,,,,,,,,,,,,,,,,,,,,589.5893387610558,589.5893387610558,589.5893387610558,589.5893387610558,589.5893387610558,589.5893387610558,589.5893387610558,589.5893387610558,589.5893387610558,589.5893387610558,l,2.512469390872866,10,696,2,592.1254565820564,,593.6274155611172,,,,,,,,,,,,,,,,,,,,,,,,,,,,,,,,,,,,,,,,,,,,,,,,,,,,,,,,,,,,,,,,,,,,,,,,,,,,,,25686,2022-11-16_10h23.12.397,vts_reward_expectancy_bt_OFFLINE,2022.2.4,59.927772656638915,
1,0,0,0,0,0,0,1,triangle,star,2,0,2,0,2,0,24,2,,,,,,,,,,,,,,,,,,,,,,,,,,,,,,,,,,,,,,,,594.1276521910913,594.1276521910913,594.1276521910913,594.1276521910913,594.1276521910913,594.1276521910913,594.1276521910913,594.1276521910913,594.1276521910913,594.1276521910913,a,1.8004223890602589,10,706,2,595.9465142560657,597.4480902359355,597.4480902359355,,,,,,,,,,,,,,,,,,,,,,,,,,,,,,,,,,,,,,,,,,,,,,,,,,,,,,,,,,,,,,,,,,,,,,,,,,,,,,25686,2022-11-16_10h23.12.397,vts_reward_expectancy_bt_OFFLINE,2022.2.4,59.927772656638915,
1,0,0,0,0,0,1,0,triangle,hexagon,2,0,2,0,2,1,25,1,,,,,,,,,,,,,,,,,,,,,,,,,,,,,,,,,,,,,,,,597.9486704920419,597.9486704920419,597.9486704920419,597.9486704920419,597.9486704920419,597.9486704920419,597.9486704920419,597.9486704920419,597.9486704920419,597.9486704920419,a,1.6021250498015434,10,716,2,599.5670054750517,601.0687668689061,601.0687668689061,601.5692925499752,,,,,,,,,,,,,,,,,,,,,,,,,,,,,,,,,,,,,,,,,,,,,,,,,,,,,,,,,,,,,,,,,,,,,,,,,,,,,25686,2022-11-16_10h23.12.397,vts_reward_expectancy_bt_OFFLINE,2022.2.4,59.927772656638915,
0,0,0,1,1,0,0,0,star,triangle,2,0,2,0,2,2,26,9,,,,,,,,,,,,,,,,,,,,,,,,,,,,,,,,,,,,,,,,601.5692925499752,601.5692925499752,601.5692925499752,601.5692925499752,601.5692925499752,601.5692925499752,601.5692925499752,601.5692925499752,601.5692925499752,601.5692925499752,a,2.244883550796658,10,726,2,603.8385565720964,,605.3401291449554,,,,,,,,,,,,,,,,,,,,,,,,,,,,,,,,,,,,,,,,,,,,,,,,,,,,,,,,,,,,,,,,,,,,,,,,,,,,,,25686,2022-11-16_10h23.12.397,vts_reward_expectancy_bt_OFFLINE,2022.2.4,59.927772656638915,
0,0,1,0,0,0,0,1,hexagon,star,2,0,2,0,2,3,27,8,,,,,,,,,,,,,,,,,,,,,,,,,,,,,,,,,,,,,,,,605.8405225859024,605.8405225859024,605.8405225859024,605.8405225859024,605.8405225859024,605.8405225859024,605.8405225859024,605.8405225859024,605.8405225859024,605.8405225859024,l,6.896564805880189,1,727,2,612.7650413389783,,614.2667640149593,,,,,,,,,,,,,,,,,,,,,,,,,,,,,,,,,,,,,,,,,,,,,,,,,,,,,,,,,,,,,,,,,,,,,,,,,,,,,,25686,2022-11-16_10h23.12.397,vts_reward_expectancy_bt_OFFLINE,2022.2.4,59.927772656638915,
0,0,1,0,1,0,0,0,hexagon,triangle,2,0,2,0,2,4,28,6,,,,,,,,,,,,,,,,,,,,,,,,,,,,,,,,,,,,,,,,614.7672324921004,614.7672324921004,614.7672324921004,614.7672324921004,614.7672324921004,614.7672324921004,614.7672324921004,614.7672324921004,614.7672324921004,614.7672324921004,a,2.345325286965817,10,737,2,617.136556380894,,618.6381665840745,,,,,,,,,,,,,,,,,,,,,,,,,,,,,,,,,,,,,,,,,,,,,,,,,,,,,,,,,,,,,,,,,,,,,,,,,,,,,,25686,2022-11-16_10h23.12.397,vts_reward_expectancy_bt_OFFLINE,2022.2.4,59.927772656638915,
0,1,0,0,0,0,0,1,circle,star,2,0,2,0,2,5,29,5,,,,,,,,,,,,,,,,,,,,,,,,,,,,,,,,,,,,,,,,619.1386569361202,619.1386569361202,619.1386569361202,619.1386569361202,619.1386569361202,619.1386569361202,619.1386569361202,619.1386569361202,619.1386569361202,619.1386569361202,l,2.0127906079869717,1,738,2,621.1745483519044,,622.6760207109619,,,,,,,,,,,,,,,,,,,,,,,,,,,,,,,,,,,,,,,,,,,,,,,,,,,,,,,,,,,,,,,,,,,,,,,,,,,,,,25686,2022-11-16_10h23.12.397,vts_reward_expectancy_bt_OFFLINE,2022.2.4,59.927772656638915,
0,0,0,1,0,0,1,0,star,hexagon,2,0,2,0,2,6,30,11,,,,,,,,,,,,,,,,,,,,,,,,,,,,,,,,,,,,,,,,623.1765166961122,623.1765166961122,623.1765166961122,623.1765166961122,623.1765166961122,623.1765166961122,623.1765166961122,623.1765166961122,623.1765166961122,623.1765166961122,a,1.82222672784701,1,739,2,625.0285068759695,,626.5302586490288,,,,,,,,,,,,,,,,,,,,,,,,,,,,,,,,,,,,,,,,,,,,,,,,,,,,,,,,,,,,,,,,,,,,,,,,,,,,,,25686,2022-11-16_10h23.12.397,vts_reward_expectancy_bt_OFFLINE,2022.2.4,59.927772656638915,
0,0,0,1,0,1,0,0,star ,circle,2,0,2,0,2,7,31,10,,,,,,,,,,,,,,,,,,,,,,,,,,,,,,,,,,,,,,,,627.0308127570897,627.0308127570897,627.0308127570897,627.0308127570897,627.0308127570897,627.0308127570897,627.0308127570897,627.0308127570897,627.0308127570897,627.0308127570897,a,1.8045446460600942,1,740,2,628.8662065090612,,630.3679017389659,,,,,,,,,,,,,,,,,,,,,,,,,,,,,,,,,,,,,,,,,,,,,,,,,,,,,,,,,,,,,,,,,,,,,,,,,,,,,,25686,2022-11-16_10h23.12.397,vts_reward_expectancy_bt_OFFLINE,2022.2.4,59.927772656638915,
0,1,0,0,0,0,1,0,circle,hexagon,2,0,2,0,2,8,32,4,,,,,,,,,,,,,,,,,,,,,,,,,,,,,,,,,,,,,,,,630.8682339899242,630.8682339899242,630.8682339899242,630.8682339899242,630.8682339899242,630.8682339899242,630.8682339899242,630.8682339899242,630.8682339899242,630.8682339899242,a,1.6696795388124883,10,750,2,632.5703851410653,,634.0719391671009,,,,,,,,,,,,,,,,,,,,,,,,,,,,,,,,,,,,,,,,,,,,,,,,,,,,,,,,,,,,,,,,,,,,,,,,,,,,,,25686,2022-11-16_10h23.12.397,vts_reward_expectancy_bt_OFFLINE,2022.2.4,59.927772656638915,
1,0,0,0,0,1,0,0,triangle,circle,2,0,2,0,2,9,33,0,,,,,,,,,,,,,,,,,,,,,,,,,,,,,,,,,,,,,,,,634.5723335400689,634.5723335400689,634.5723335400689,634.5723335400689,634.5723335400689,634.5723335400689,634.5723335400689,634.5723335400689,634.5723335400689,634.5723335400689,l,2.1946362119633704,1,751,2,636.792093011085,638.2931611209642,638.2931611209642,,,,,,,,,,,,,,,,,,,,,,,,,,,,,,,,,,,,,,,,,,,,,,,,,,,,,,,,,,,,,,,,,,,,,,,,,,,,,,25686,2022-11-16_10h23.12.397,vts_reward_expectancy_bt_OFFLINE,2022.2.4,59.927772656638915,
0,0,1,0,0,1,0,0,hexagon,circle,2,0,2,0,2,10,34,7,,,,,,,,,,,,,,,,,,,,,,,,,,,,,,,,,,,,,,,,638.7937461740803,638.7937461740803,638.7937461740803,638.7937461740803,638.7937461740803,638.7937461740803,638.7937461740803,638.7937461740803,638.7937461740803,638.7937461740803,l,5.535099104978144,10,761,2,644.3503223590087,,645.8514965940267,,,,,,,,,,,,,,,,,,,,,,,,,,,,,,,,,,,,,,,,,,,,,,,,,,,,,,,,,,,,,,,,,,,,,,,,,,,,,,25686,2022-11-16_10h23.12.397,vts_reward_expectancy_bt_OFFLINE,2022.2.4,59.927772656638915,
0,1,0,0,1,0,0,0,circle,triangle,2,0,2,0,2,11,35,3,,,,,,,,,,,,,,,,,,,,,,,,,,,,,,,,,,,,,,,,646.3520429609343,646.3520429609343,646.3520429609343,646.3520429609343,646.3520429609343,646.3520429609343,646.3520429609343,646.3520429609343,646.3520429609343,646.3520429609343,l,2.813450148096308,10,771,2,649.1886352750007,,650.6901079090312,,,,,,,,,,,,,,,,,,,,,,,,,,,,,,,,,,,,,,,,,,,,,,,,,,,,,,,,,,,,,,,,,,,,,,,,,,,,,,25686,2022-11-16_10h23.12.397,vts_reward_expectancy_bt_OFFLINE,2022.2.4,59.927772656638915,
1,0,0,0,0,0,0,1,triangle,star,2,0,2,0,3,0,36,2,,,,,,,,,,,,,,,,,,,,,,,,,,,,,,,,,,,,,,,,651.190593858948,651.190593858948,651.190593858948,651.190593858948,651.190593858948,651.190593858948,651.190593858948,651.190593858948,651.190593858948,651.190593858948,l,2.723073388915509,10,781,2,653.9439125161152,,655.4454056920949,,,,,,,,,,,,,,,,,,,,,,,,,,,,,,,,,,,,,,,,,,,,,,,,,,,,,,,,,,,,,,,,,,,,,,,,,,,,,,25686,2022-11-16_10h23.12.397,vts_reward_expectancy_bt_OFFLINE,2022.2.4,59.927772656638915,
0,1,0,0,0,0,1,0,circle,hexagon,2,0,2,0,3,1,37,4,,,,,,,,,,,,,,,,,,,,,,,,,,,,,,,,,,,,,,,,655.946015706053,655.946015706053,655.946015706053,655.946015706053,655.946015706053,655.946015706053,655.946015706053,655.946015706053,655.946015706053,655.946015706053,l,3.3012397207785398,1,782,2,659.2669783988968,,660.7678813110106,,,,,,,,,,,,,,,,,,,,,,,,,,,,,,,,,,,,,,,,,,,,,,,,,,,,,,,,,,,,,,,,,,,,,,,,,,,,,,25686,2022-11-16_10h23.12.397,vts_reward_expectancy_bt_OFFLINE,2022.2.4,59.927772656638915,
0,0,1,0,1,0,0,0,hexagon,triangle,2,0,2,0,3,2,38,6,,,,,,,,,,,,,,,,,,,,,,,,,,,,,,,,,,,,,,,,661.2685184110887,661.2685184110887,661.2685184110887,661.2685184110887,661.2685184110887,661.2685184110887,661.2685184110887,661.2685184110887,661.2685184110887,661.2685184110887,l,2.6368309760000557,10,792,2,663.9380841860548,,665.4399117860012,,,,,,,,,,,,,,,,,,,,,,,,,,,,,,,,,,,,,,,,,,,,,,,,,,,,,,,,,,,,,,,,,,,,,,,,,,,,,,25686,2022-11-16_10h23.12.397,vts_reward_expectancy_bt_OFFLINE,2022.2.4,59.927772656638915,
0,1,0,0,1,0,0,0,circle,triangle,2,0,2,0,3,3,39,3,,,,,,,,,,,,,,,,,,,,,,,,,,,,,,,,,,,,,,,,665.9405641939957,665.9405641939957,665.9405641939957,665.9405641939957,665.9405641939957,665.9405641939957,665.9405641939957,665.9405641939957,665.9405641939957,665.9405641939957,l,2.25296770199202,1,793,2,668.2264735440258,,669.7277381669264,,,,,,,,,,,,,,,,,,,,,,,,,,,,,,,,,,,,,,,,,,,,,,,,,,,,,,,,,,,,,,,,,,,,,,,,,,,,,,25686,2022-11-16_10h23.12.397,vts_reward_expectancy_bt_OFFLINE,2022.2.4,59.927772656638915,
0,1,0,0,0,0,0,1,circle,star,2,0,2,0,3,4,40,5,,,,,,,,,,,,,,,,,,,,,,,,,,,,,,,,,,,,,,,,670.228405765025,670.228405765025,670.228405765025,670.228405765025,670.228405765025,670.228405765025,670.228405765025,670.228405765025,670.228405765025,670.228405765025,l,2.4196561449207366,10,803,2,672.6660822341219,674.1659856259357,674.1659856259357,674.666568512097,,,,,,,,,,,,,,,,,,,,,,,,,,,,,,,,,,,,,,,,,,,,,,,,,,,,,,,,,,,,,,,,,,,,,,,,,,,,,25686,2022-11-16_10h23.12.397,vts_reward_expectancy_bt_OFFLINE,2022.2.4,59.927772656638915,
1,0,0,0,0,1,0,0,triangle,circle,2,0,2,0,3,5,41,0,,,,,,,,,,,,,,,,,,,,,,,,,,,,,,,,,,,,,,,,674.666568512097,674.666568512097,674.666568512097,674.666568512097,674.666568512097,674.666568512097,674.666568512097,674.666568512097,674.666568512097,674.666568512097,a,1.8053322199266404,1,804,2,676.5020051370375,,678.0037683919072,,,,,,,,,,,,,,,,,,,,,,,,,,,,,,,,,,,,,,,,,,,,,,,,,,,,,,,,,,,,,,,,,,,,,,,,,,,,,,25686,2022-11-16_10h23.12.397,vts_reward_expectancy_bt_OFFLINE,2022.2.4,59.927772656638915,
0,0,0,1,0,1,0,0,star ,circle,2,0,2,0,3,6,42,10,,,,,,,,,,,,,,,,,,,,,,,,,,,,,,,,,,,,,,,,678.504416099051,678.504416099051,678.504416099051,678.504416099051,678.504416099051,678.504416099051,678.504416099051,678.504416099051,678.504416099051,678.504416099051,a,10.231221036985517,1,805,2,688.7654321249574,690.2671464320738,690.2671464320738,,,,,,,,,,,,,,,,,,,,,,,,,,,,,,,,,,,,,,,,,,,,,,,,,,,,,,,,,,,,,,,,,,,,,,,,,,,,,,25686,2022-11-16_10h23.12.397,vts_reward_expectancy_bt_OFFLINE,2022.2.4,59.927772656638915,
0,0,1,0,0,1,0,0,hexagon,circle,2,0,2,0,3,7,43,7,,,,,,,,,,,,,,,,,,,,,,,,,,,,,,,,,,,,,,,,690.7674818849191,690.7674818849191,690.7674818849191,690.7674818849191,690.7674818849191,690.7674818849191,690.7674818849191,690.7674818849191,690.7674818849191,690.7674818849191,a,2.2436827409546822,1,806,2,693.0370507750195,,694.5386718190275,,,,,,,,,,,,,,,,,,,,,,,,,,,,,,,,,,,,,,,,,,,,,,,,,,,,,,,,,,,,,,,,,,,,,,,,,,,,,,25686,2022-11-16_10h23.12.397,vts_reward_expectancy_bt_OFFLINE,2022.2.4,59.927772656638915,
1,0,0,0,0,0,1,0,triangle,hexagon,2,0,2,0,3,8,44,1,,,,,,,,,,,,,,,,,,,,,,,,,,,,,,,,,,,,,,,,695.0391448310111,695.0391448310111,695.0391448310111,695.0391448310111,695.0391448310111,695.0391448310111,695.0391448310111,695.0391448310111,695.0391448310111,695.0391448310111,l,1.4811470019631088,1,807,2,696.5408874000423,,698.0425225840881,,,,,,,,,,,,,,,,,,,,,,,,,,,,,,,,,,,,,,,,,,,,,,,,,,,,,,,,,,,,,,,,,,,,,,,,,,,,,,25686,2022-11-16_10h23.12.397,vts_reward_expectancy_bt_OFFLINE,2022.2.4,59.927772656638915,
0,0,1,0,0,0,0,1,hexagon,star,2,0,2,0,3,9,45,8,,,,,,,,,,,,,,,,,,,,,,,,,,,,,,,,,,,,,,,,698.5429656519555,698.5429656519555,698.5429656519555,698.5429656519555,698.5429656519555,698.5429656519555,698.5429656519555,698.5429656519555,698.5429656519555,698.5429656519555,l,1.769489617086947,10,817,2,700.3451184490696,701.846629204927,701.846629204927,,,,,,,,,,,,,,,,,,,,,,,,,,,,,,,,,,,,,,,,,,,,,,,,,,,,,,,,,,,,,,,,,,,,,,,,,,,,,,25686,2022-11-16_10h23.12.397,vts_reward_expectancy_bt_OFFLINE,2022.2.4,59.927772656638915,
0,0,0,1,1,0,0,0,star,triangle,2,0,2,0,3,10,46,9,,,,,,,,,,,,,,,,,,,,,,,,,,,,,,,,,,,,,,,,702.3472074489109,702.3472074489109,702.3472074489109,702.3472074489109,702.3472074489109,702.3472074489109,702.3472074489109,702.3472074489109,702.3472074489109,702.3472074489109,a,2.577435355866328,10,827,2,704.950084787095,,706.4515316840261,,,,,,,,,,,,,,,,,,,,,,,,,,,,,,,,,,,,,,,,,,,,,,,,,,,,,,,,,,,,,,,,,,,,,,,,,,,,,,25686,2022-11-16_10h23.12.397,vts_reward_expectancy_bt_OFFLINE,2022.2.4,59.927772656638915,
0,0,0,1,0,0,1,0,star,hexagon,2,0,2,0,3,11,47,11,,,,,,,,,,,,,,,,,,,,,,,,,,,,,,,,,,,,,,,,706.9520733649842,706.9520733649842,706.9520733649842,706.9520733649842,706.9520733649842,706.9520733649842,706.9520733649842,706.9520733649842,706.9520733649842,706.9520733649842,l,2.9908170050475746,10,837,2,709.9723340710625,711.47401313507,711.47401313507,711.9911465009209,,,,,,,,,,,,,,,,,,,,,,,,,,,,,,,,,,,,,,,,,,,,,,,,,,,,,,,,,,,,,,,,,,,,,,,,,,,,,25686,2022-11-16_10h23.12.397,vts_reward_expectancy_bt_OFFLINE,2022.2.4,59.927772656638915,
,,,,,,,,,,,,,,,,,,0,0,0,0,0,0,0,0,,,,,,,,,,,,,,,,,,,,,,,,,,,,,,,,,,,,,,,,,,,,,,,,,746.3457224050071,,W,167,circle,0.0020155052188783884,740.6894502509385,742.1744151809253,742.1744151809253,742.1744151809253,1,0,f,2.63728542602621,0,744.8451443458907,,,,,,,,,,,,,,,,,,,,,,,,,,,,,,,,,,,,,,,,,,,,,,,,,,,,,,,,,,,,,,,25686,2022-11-16_10h23.12.397,vts_reward_expectancy_bt_OFFLINE,2022.2.4,59.927772656638915,
,,,,,,,,,,,,,,,,,,0,0,0,0,1,0,1,0,,,,,,,,,,,,,,,,,,,,,,,,,,,,,,,,,,,,,,,,,,,,,,,,,751.084214531118,,D,160,triangle,0.001317113172262907,747.3305176850408,748.8317227859516,748.8317227859516,748.8317227859516,1,0,d,0.7257973330561072,0,749.5824961909093,,,,,,,,,,,,,,,,,,,,,,,,,,,,,,,,,,,,,,,,,,,,,,,,,,,,,,,,,,,,,,,25686,2022-11-16_10h23.12.397,vts_reward_expectancy_bt_OFFLINE,2022.2.4,59.927772656638915,
,,,,,,,,,,,,,,,,,,0,0,0,0,2,0,2,0,,,,,,,,,,,,,,,,,,,,,,,,,,,,,,,,,,,,,,,,,,,,,,,,,755.7392872690689,,B,139,star,0.001636104891076684,752.0854258590844,753.5704039440025,753.5704039440025,753.5704039440025,1,0,d,0.6347260070033371,0,754.2376168160699,,,,,,,,,,,,,,,,,,,,,,,,,,,,,,,,,,,,,,,,,,,,,,,,,,,,,,,,,,,,,,,25686,2022-11-16_10h23.12.397,vts_reward_expectancy_bt_OFFLINE,2022.2.4,59.927772656638915,
,,,,,,,,,,,,,,,,,,0,0,0,0,3,0,3,0,,,,,,,,,,,,,,,,,,,,,,,,,,,,,,,,,,,,,,,,,,,,,,,,,761.4289176240563,,Y,146,hexagon,0.0010654758661985397,756.7241961939726,758.2254884641152,758.2254884641152,758.2254884641152,1,0,f,1.6707160049118102,0,759.9273516989779,,,,,,,,,,,,,,,,,,,,,,,,,,,,,,,,,,,,,,,,,,,,,,,,,,,,,,,,,,,,,,,25686,2022-11-16_10h23.12.397,vts_reward_expectancy_bt_OFFLINE,2022.2.4,59.927772656638915,
,,,,,,,,,,,,,,,,,,0,0,0,0,4,0,4,0,,,,,,,,,,,,,,,,,,,,,,,,,,,,,,,,,,,,,,,,,,,,,,,,,767.7192370020784,,F,132,star,0.0012059630826115608,762.4137711040676,763.9150342720095,763.9150342720095,763.9150342720095,1,0,d,2.2711593159474432,0,766.2176416809671,,,,,,,,,,,,,,,,,,,,,,,,,,,,,,,,,,,,,,,,,,,,,,,,,,,,,,,,,,,,,,,25686,2022-11-16_10h23.12.397,vts_reward_expectancy_bt_OFFLINE,2022.2.4,59.927772656638915,
,,,,,,,,,,,,,,,,,,0,0,0,0,5,0,5,0,,,,,,,,,,,,,,,,,,,,,,,,,,,,,,,,,,,,,,,,,,,,,,,,,774.7104179919697,775.2106732660905,U,181,hexagon,0.0014741688501089811,768.703676159028,770.2053359609563,770.2053359609563,770.2053359609563,0,0,None,,0,773.208960327087,773.208960327087,773.208960327087,773.208960327087,773.208960327087,774.7104179919697,,,,,,,,,,,,,,,,,,,,,,,,,,,,,,,,,,,,,,,,,,,,,,,,,,,,,,,,,,25686,2022-11-16_10h23.12.397,vts_reward_expectancy_bt_OFFLINE,2022.2.4,59.927772656638915,
,,,,,,,,,,,,,,,,,,0,0,0,0,6,0,6,0,,,,,,,,,,,,,,,,,,,,,,,,,,,,,,,,,,,,,,,,,,,,,,,,,780.5332768359222,,H,125,circle,0.008292604004964232,775.7112388210371,777.2131251250394,777.2131251250394,777.2131251250394,1,1,d,1.800063295988366,0,779.0331201399677,,,,,,,,,,,,,,,,,,,,,,,,,,,,,,,,,,,,,,,,,,,,,,,,,,,,,,,,,,,,,,,25686,2022-11-16_10h23.12.397,vts_reward_expectancy_bt_OFFLINE,2022.2.4,59.927772656638915,
,,,,,,,,,,,,,,,,,,0,0,0,0,7,0,7,0,,,,,,,,,,,,,,,,,,,,,,,,,,,,,,,,,,,,,,,,,,,,,,,,,785.9559709690511,,S,174,triangle,0.0011864430271089077,781.5176293090917,783.0193518910091,783.0193518910091,783.0193518910091,1,0,f,1.416219901992008,0,784.4543965689372,,,,,,,,,,,,,,,,,,,,,,,,,,,,,,,,,,,,,,,,,,,,,,,,,,,,,,,,,,,,,,,25686,2022-11-16_10h23.12.397,vts_reward_expectancy_bt_OFFLINE,2022.2.4,59.927772656638915,
,,,,,,,,,,,,,,,,,,0,0,0,0,8,0,8,0,,,,,,,,,,,,,,,,,,,,,,,,,,,,,,,,,,,,,,,,,,,,,,,,,790.8949148471002,,W,167,star,0.0011119421105831861,786.9404067110736,788.4420881289989,788.4420881289989,788.4420881289989,1,0,f,0.9199380439240485,0,789.3931111099664,,,,,,,,,,,,,,,,,,,,,,,,,,,,,,,,,,,,,,,,,,,,,,,,,,,,,,,,,,,,,,,25686,2022-11-16_10h23.12.397,vts_reward_expectancy_bt_OFFLINE,2022.2.4,59.927772656638915,
,,,,,,,,,,,,,,,,,,0,0,0,0,9,0,9,0,,,,,,,,,,,,,,,,,,,,,,,,,,,,,,,,,,,,,,,,,,,,,,,,,795.6666548789944,,D,160,circle,0.0013377659488469362,791.8793002651073,793.3811204039957,793.3811204039957,793.3811204039957,1,0,d,0.7516536079347134,0,794.165231144987,,,,,,,,,,,,,,,,,,,,,,,,,,,,,,,,,,,,,,,,,,,,,,,,,,,,,,,,,,,,,,,25686,2022-11-16_10h23.12.397,vts_reward_expectancy_bt_OFFLINE,2022.2.4,59.927772656638915,
,,,,,,,,,,,,,,,,,,,,,,,,,,0,0,0,0,0,0,0,0,,,,,,,,,,,,,,,,,,,,,,,,,,,,,,,,,,,,,,,,,817.4741385150701,,Y,167,circle,0.0012287881691008806,,,,,1,0,,,1,815.9725838720333,,,,,,812.569359051995,814.0705181139056,814.0705181139056,814.0705181139056,k,1.8772074670996517,,,,,,,,,,,,,,,,,,,,,,,,,,,,,,,,,,,,,,,,,,,,,,,,,,,,25686,2022-11-16_10h23.12.397,vts_reward_expectancy_bt_OFFLINE,2022.2.4,59.927772656638915,
,,,,,,,,,,,,,,,,,,,,,,,,,,0,0,0,0,1,0,1,0,,,,,,,,,,,,,,,,,,,,,,,,,,,,,,,,,,,,,,,,,822.6131517349277,,B,139,triangle,0.0012502691242843866,,,,,1,0,,,1,821.1116349489894,,,,,,818.4584311810322,819.9601258640178,819.9601258640178,819.9601258640178,j,1.1187479319050908,,,,,,,,,,,,,,,,,,,,,,,,,,,,,,,,,,,,,,,,,,,,,,,,,,,,25686,2022-11-16_10h23.12.397,vts_reward_expectancy_bt_OFFLINE,2022.2.4,59.927772656638915,
,,,,,,,,,,,,,,,,,,,,,,,,,,0,0,0,0,2,0,2,0,,,,,,,,,,,,,,,,,,,,,,,,,,,,,,,,,,,,,,,,,827.8357682570349,,F,181,star,0.0012894170358777046,,,,,1,0,,,1,826.3338129559997,,,,,,823.5975560510997,825.0992937069386,825.0992937069386,825.0992937069386,k,1.2020492521114647,,,,,,,,,,,,,,,,,,,,,,,,,,,,,,,,,,,,,,,,,,,,,,,,,,,,25686,2022-11-16_10h23.12.397,vts_reward_expectancy_bt_OFFLINE,2022.2.4,59.927772656638915,
,,,,,,,,,,,,,,,,,,,,,,,,,,0,0,0,0,3,0,3,0,,,,,,,,,,,,,,,,,,,,,,,,,,,,,,,,,,,,,,,,,832.6407908240799,,H,132,hexagon,0.001168681075796485,,,,,1,0,,,1,831.1391906870995,,,,,,828.8201133708935,830.3216953410301,830.3216953410301,830.3216953410301,j,0.7918757458683103,,,,,,,,,,,,,,,,,,,,,,,,,,,,,,,,,,,,,,,,,,,,,,,,,,,,25686,2022-11-16_10h23.12.397,vts_reward_expectancy_bt_OFFLINE,2022.2.4,59.927772656638915,
,,,,,,,,,,,,,,,,,,,,,,,,,,0,0,0,0,4,0,4,0,,,,,,,,,,,,,,,,,,,,,,,,,,,,,,,,,,,,,,,,,839.6318832940888,840.1327237260994,S,160,circle,0.0011904879938811064,,,,,0,0,,,1,838.1303320641164,,,,,839.6318832940888,833.625412666006,835.1271074810065,835.1271074810065,835.1271074810065,None,,838.1303320641164,838.1303320641164,838.1303320641164,838.1303320641164,,,,,,,,,,,,,,,,,,,,,,,,,,,,,,,,,,,,,,,,,,,,,,,,25686,2022-11-16_10h23.12.397,vts_reward_expectancy_bt_OFFLINE,2022.2.4,59.927772656638915,
,,,,,,,,,,,,,,,,,,,,,,,,,,0,0,0,0,5,0,5,0,,,,,,,,,,,,,,,,,,,,,,,,,,,,,,,,,,,,,,,,,844.5874320149887,,D,125,star,0.008602884830906987,,,,,1,1,,,1,843.0858363350853,,,,,,840.633088276023,842.1346391499974,842.1346391499974,842.1346391499974,j,0.9182041808962822,,,,,,,,,,,,,,,,,,,,,,,,,,,,,,,,,,,,,,,,,,,,,,,,,,,,25686,2022-11-16_10h23.12.397,vts_reward_expectancy_bt_OFFLINE,2022.2.4,59.927772656638915,
,,,,,,,,,,,,,,,,,,,,,,,,,,0,0,0,0,6,0,6,0,,,,,,,,,,,,,,,,,,,,,,,,,,,,,,,,,,,,,,,,,849.7930892859586,,U,146,triangle,0.0012066708877682686,,,,,1,0,,,1,848.2914514839649,,,,,,845.5717148310505,847.073408768978,847.073408768978,847.073408768978,j,1.1992723429575562,,,,,,,,,,,,,,,,,,,,,,,,,,,,,,,,,,,,,,,,,,,,,,,,,,,,25686,2022-11-16_10h23.12.397,vts_reward_expectancy_bt_OFFLINE,2022.2.4,59.927772656638915,
,,,,,,,,,,,,,,,,,,,,,,,,,,0,0,0,0,7,0,7,0,,,,,,,,,,,,,,,,,,,,,,,,,,,,,,,,,,,,,,,,,854.7152607259341,,W,174,hexagon,0.0010407899972051382,,,,,1,0,,,1,853.2134008640423,,,,,,850.7775551560335,852.2791346521117,852.2791346521117,852.2791346521117,k,0.9085711759980768,,,,,,,,,,,,,,,,,,,,,,,,,,,,,,,,,,,,,,,,,,,,,,,,,,,,25686,2022-11-16_10h23.12.397,vts_reward_expectancy_bt_OFFLINE,2022.2.4,59.927772656638915,
,,,,,,,,,,,,,,,,,,,,,,,,,,0,0,0,0,8,0,8,0,,,,,,,,,,,,,,,,,,,,,,,,,,,,,,,,,,,,,,,,,859.5205087200738,,Y,167,triangle,0.001370093086734414,,,,,1,0,,,1,858.0188809600659,,,,,,855.6998014510609,857.2011934439652,857.2011934439652,857.2011934439652,k,0.7917404267936945,,,,,,,,,,,,,,,,,,,,,,,,,,,,,,,,,,,,,,,,,,,,,,,,,,,,25686,2022-11-16_10h23.12.397,vts_reward_expectancy_bt_OFFLINE,2022.2.4,59.927772656638915,
,,,,,,,,,,,,,,,,,,,,,,,,,,0,0,0,0,9,0,9,0,,,,,,,,,,,,,,,,,,,,,,,,,,,,,,,,,,,,,,,,,864.7931689710822,,B,139,hexagon,0.0012007509358227253,,,,,1,0,,,1,863.2914396750275,,,,,,860.505110159982,862.0066225240007,862.0066225240007,862.0066225240007,j,1.2523443889804184,,,,,,,,,,,,,,,,,,,,,,,,,,,,,,,,,,,,,,,,,,,,,,,,,,,,25686,2022-11-16_10h23.12.397,vts_reward_expectancy_bt_OFFLINE,2022.2.4,59.927772656638915,
,,,,,,,,,,,,,,,,,,,,,,,,,,,,,,,,,,0,0,0,0,0,0,0,0,,,,,,,,,,,,,,,,,,,,,,,,,,,,0,837,,,,901.0330730800051,,H,139,star,0.002107776002958417,,,,,1,0,,,2,,,,,,,,,,,,,,,,,896.5283195199445,896.5283195199445,896.5283195199445,896.5283195199445,898.0130374270957,898.0130374270957,898.0130374270957,898.0130374270957,898.0297613469884,898.0297613469884,898.0297613469884,898.0297613469884,-1,number,NA,j,1.4719191209878772,vtsPrac,899.5315597169101,,,,,,,,,,,,,,,,,,,,,,,,,,,,,25686,2022-11-16_10h23.12.397,vts_reward_expectancy_bt_OFFLINE,2022.2.4,59.927772656638915,
,,,,,,,,,,,,,,,,,,,,,,,,,,,,,,,,,,0,0,0,0,1,0,1,0,,,,,,,,,,,,,,,,,,,,,,,,,,,,0,837,,,,906.2054387871176,,U,132,triangle,0.0011453970801085234,,,,,1,0,,,2,,,,,,,,,,,,,,,,,902.0012710599694,902.0012710599694,902.0012710599694,902.0012710599694,903.5023300340399,903.5023300340399,903.5023300340399,903.5023300340399,903.5023300340399,903.5023300340399,903.5023300340399,903.5023300340399,repeat,number,numRpt,j,1.1819694698788226,vtsPrac,904.7038754820824,,,,,,,,,,,,,,,,,,,,,,,,,,,,,25686,2022-11-16_10h23.12.397,vts_reward_expectancy_bt_OFFLINE,2022.2.4,59.927772656638915,
,,,,,,,,,,,,,,,,,,,,,,,,,,,,,,,,,,0,0,0,0,2,0,2,0,,,,,,,,,,,,,,,,,,,,,,,,,,,,0,837,,,,911.7783390560653,,S,146,star,0.0011392650194466114,,,,,1,0,,,2,,,,,,,,,,,,,,,,,907.1914027810562,907.1914027810562,907.1914027810562,907.1914027810562,908.6915776059031,908.6915776059031,908.6915776059031,908.6915776059031,908.6915776059031,908.6915776059031,908.6915776059031,908.6915776059031,repeat,number,numRpt,j,1.5608425920363516,vtsPrac,910.2764520191122,,,,,,,,,,,,,,,,,,,,,,,,,,,,,25686,2022-11-16_10h23.12.397,vts_reward_expectancy_bt_OFFLINE,2022.2.4,59.927772656638915,
,,,,,,,,,,,,,,,,,,,,,,,,,,,,,,,,,,0,0,0,0,3,0,3,0,,,,,,,,,,,,,,,,,,,,,,,,,,,,0,837,,,,916.600164799951,,B,181,triangle,0.0013422758784145117,,,,,1,0,,,2,,,,,,,,,,,,,,,,,912.7632081350312,912.7632081350312,912.7632081350312,912.7632081350312,914.2642551909667,914.2642551909667,914.2642551909667,914.2642551909667,914.2642551909667,914.2642551909667,914.2642551909667,914.2642551909667,switch,letter,lettSwt,d,0.8030503198970109,vtsPrac,915.0985533210915,,,,,,,,,,,,,,,,,,,,,,,,,,,,,25686,2022-11-16_10h23.12.397,vts_reward_expectancy_bt_OFFLINE,2022.2.4,59.927772656638915,
,,,,,,,,,,,,,,,,,,,,,,,,,,,,,,,,,,0,0,0,0,4,0,4,0,,,,,,,,,,,,,,,,,,,,,,,,,,,,0,837,,,,921.605769288959,922.1061849659309,H,139,circle,0.0012459228746592999,,,,,1,0,,,2,,,,,,,,,,,,,,,,,917.5845687240362,917.5845687240362,917.5845687240362,917.5845687240362,919.0862525710836,919.0862525710836,919.0862525710836,919.0862525710836,919.0862525710836,919.0862525710836,919.0862525710836,919.0862525710836,switch,number,numSwt,j,1.0013878839090466,vtsPrac,920.1044070369098,921.605769288959,,,,,,,,,,,,,,,,,,,,,,,,,,,,25686,2022-11-16_10h23.12.397,vts_reward_expectancy_bt_OFFLINE,2022.2.4,59.927772656638915,
,,,,,,,,,,,,,,,,,,,,,,,,,,,,,,,,,,0,0,0,0,5,0,5,0,,,,,,,,,,,,,,,,,,,,,,,,,,,,0,837,,,,926.5279361759312,,U,132,star,0.0007064428646117449,,,,,1,0,,,2,,,,,,,,,,,,,,,,,922.5901147769764,922.5901147769764,922.5901147769764,922.5901147769764,924.0916532271076,924.0916532271076,924.0916532271076,924.0916532271076,924.0916532271076,924.0916532271076,924.0916532271076,924.0916532271076,switch,letter,lettSwt,f,0.9016902218572795,vtsPrac,925.026317296084,,,,,,,,,,,,,,,,,,,,,,,,,,,,,25686,2022-11-16_10h23.12.397,vts_reward_expectancy_bt_OFFLINE,2022.2.4,59.927772656638915,
,,,,,,,,,,,,,,,,,,,,,,,,,,,,,,,,,,0,0,0,0,6,0,6,0,,,,,,,,,,,,,,,,,,,,,,,,,,,,0,837,,,,931.533289751038,,S,146,circle,0.0014995560050010681,,,,,1,0,,,2,,,,,,,,,,,,,,,,,927.512180092046,927.512180092046,927.512180092046,927.512180092046,929.0138425650075,929.0138425650075,929.0138425650075,929.0138425650075,929.0138425650075,929.0138425650075,929.0138425650075,929.0138425650075,repeat,letter,lettRpt,f,0.9852286959066987,vtsPrac,930.031899940921,,,,,,,,,,,,,,,,,,,,,,,,,,,,,25686,2022-11-16_10h23.12.397,vts_reward_expectancy_bt_OFFLINE,2022.2.4,59.927772656638915,
,,,,,,,,,,,,,,,,,,,,,,,,,,,,,,,,,,0,0,0,0,7,0,7,0,,,,,,,,,,,,,,,,,,,,,,,,,,,,0,837,,,,936.5388267610688,,B,181,star,0.0012067810166627169,,,,,1,0,,,2,,,,,,,,,,,,,,,,,932.5178595650941,932.5178595650941,932.5178595650941,932.5178595650941,934.0194617819507,934.0194617819507,934.0194617819507,934.0194617819507,934.0194617819507,934.0194617819507,934.0194617819507,934.0194617819507,switch,number,numSwt,k,0.9855607859790325,vtsPrac,935.0371022950858,936.5388267610688,,,,,,,,,,,,,,,,,,,,,,,,,,,,25686,2022-11-16_10h23.12.397,vts_reward_expectancy_bt_OFFLINE,2022.2.4,59.927772656638915,
,,,,,,,,,,,,,,,,,,,,,,,,,,,,,,,,,,0,0,0,0,8,0,8,0,,,,,,,,,,,,,,,,,,,,,,,,,,,,0,837,,,,941.4109579820652,,B,139,star,0.0010087941773235798,,,,,1,0,,,2,,,,,,,,,,,,,,,,,937.523249160964,937.523249160964,937.523249160964,937.523249160964,939.0248002670705,939.0248002670705,939.0248002670705,939.0248002670705,939.0248002670705,939.0248002670705,939.0248002670705,939.0248002670705,repeat,number,numRpt,j,0.8621346231084317,vtsPrac,939.9091549690347,,,,,,,,,,,,,,,,,,,,,,,,,,,,,25686,2022-11-16_10h23.12.397,vts_reward_expectancy_bt_OFFLINE,2022.2.4,59.927772656638915,
,,,,,,,,,,,,,,,,,,,,,,,,,,,,,,,,,,0,0,0,0,9,0,9,0,,,,,,,,,,,,,,,,,,,,,,,,,,,,0,837,,,,946.1329097619746,946.6334290120285,W,125,triangle,0.001318030059337616,,,,,1,0,,,2,,,,,,,,,,,,,,,,,942.3965943269432,942.3965943269432,942.3965943269432,942.3965943269432,943.8969129449688,943.8969129449688,943.8969129449688,943.8969129449688,943.8969129449688,943.8969129449688,943.8969129449688,943.8969129449688,switch,letter,lettSwt,f,0.7176977819763124,vtsPrac,944.6309738440905,946.1329097619746,,,,,,,,,,,,,,,,,,,,,,,,,,,,25686,2022-11-16_10h23.12.397,vts_reward_expectancy_bt_OFFLINE,2022.2.4,59.927772656638915,
,,,,,,,,,,,,,,,,,,,,,,,,,,,,,,,,,,0,0,0,0,10,0,10,0,,,,,,,,,,,,,,,,,,,,,,,,,,,,0,837,,,,951.6386412810534,,D,160,triangle,0.0009281930979341269,,,,,1,0,,,2,,,,,,,,,,,,,,,,,947.1188033870421,947.1188033870421,947.1188033870421,947.1188033870421,948.618815110065,948.618815110065,948.618815110065,948.618815110065,948.618815110065,948.618815110065,948.618815110065,948.618815110065,switch,number,numSwt,k,1.4948972631245852,vtsPrac,950.1370723401196,,,,,,,,,,,,,,,,,,,,,,,,,,,,,25686,2022-11-16_10h23.12.397,vts_reward_expectancy_bt_OFFLINE,2022.2.4,59.927772656638915,
,,,,,,,,,,,,,,,,,,,,,,,,,,,,,,,,,,0,0,0,0,11,0,11,0,,,,,,,,,,,,,,,,,,,,,,,,,,,,0,837,,,,957.5954961969983,,H,167,star,0.0012268039863556623,,,,,1,0,,,2,,,,,,,,,,,,,,,,,952.6232900090981,952.6232900090981,952.6232900090981,952.6232900090981,954.1250648240093,954.1250648240093,954.1250648240093,954.1250648240093,954.1250648240093,954.1250648240093,954.1250648240093,954.1250648240093,switch,letter,lettSwt,d,1.9419757761061192,vtsPrac,956.0938949240372,,,,,,,,,,,,,,,,,,,,,,,,,,,,,25686,2022-11-16_10h23.12.397,vts_reward_expectancy_bt_OFFLINE,2022.2.4,59.927772656638915,
,,,,,,,,,,,,,,,,,,,,,,,,,,,,,,,,,,0,0,0,0,12,0,12,0,,,,,,,,,,,,,,,,,,,,,,,,,,,,0,837,,,,962.3505688249134,,W,125,circle,0.0013367400970309973,,,,,1,0,,,2,,,,,,,,,,,,,,,,,958.5800303909928,958.5800303909928,958.5800303909928,958.5800303909928,960.0813606490847,960.0813606490847,960.0813606490847,960.0813606490847,960.0813606490847,960.0813606490847,960.0813606490847,960.0813606490847,repeat,letter,lettRpt,f,0.7431574820075184,vtsPrac,960.848958957009,,,,,,,,,,,,,,,,,,,,,,,,,,,,,25686,2022-11-16_10h23.12.397,vts_reward_expectancy_bt_OFFLINE,2022.2.4,59.927772656638915,
,,,,,,,,,,,,,,,,,,,,,,,,,,,,,,,,,,0,0,0,0,13,0,13,0,,,,,,,,,,,,,,,,,,,,,,,,,,,,0,837,,,,967.3897129439283,,B,146,hexagon,0.0011742089409381151,,,,,1,0,,,2,,,,,,,,,,,,,,,,,963.3351990210358,963.3351990210358,963.3351990210358,963.3351990210358,964.8367827599868,964.8367827599868,964.8367827599868,964.8367827599868,964.8367827599868,964.8367827599868,964.8367827599868,964.8367827599868,repeat,letter,lettRpt,d,1.0191206249874085,vtsPrac,965.887725359993,967.3897129439283,,,,,,,,,,,,,,,,,,,,,,,,,,,,25686,2022-11-16_10h23.12.397,vts_reward_expectancy_bt_OFFLINE,2022.2.4,59.927772656638915,
,,,,,,,,,,,,,,,,,,,,,,,,,,,,,,,,,,0,0,0,0,14,0,14,0,,,,,,,,,,,,,,,,,,,,,,,,,,,,0,837,,,,972.3117722859606,,Y,132,triangle,0.0008078741375356913,,,,,1,0,,,2,,,,,,,,,,,,,,,,,968.3740462320857,968.3740462320857,968.3740462320857,968.3740462320857,969.8756341990083,969.8756341990083,969.8756341990083,969.8756341990083,969.8756341990083,969.8756341990083,969.8756341990083,969.8756341990083,repeat,letter,lettRpt,f,0.9083417030051351,vtsPrac,970.8101294389926,,,,,,,,,,,,,,,,,,,,,,,,,,,,,25686,2022-11-16_10h23.12.397,vts_reward_expectancy_bt_OFFLINE,2022.2.4,59.927772656638915,
,,,,,,,,,,,,,,,,,,,,,,,,,,,,,,,,,,0,0,0,0,15,0,15,0,,,,,,,,,,,,,,,,,,,,,,,,,,,,0,837,,,,977.8512917510234,,F,181,circle,0.0012510609813034534,,,,,1,0,,,2,,,,,,,,,,,,,,,,,973.2961333459243,973.2961333459243,973.2961333459243,973.2961333459243,974.7977132489905,974.7977132489905,974.7977132489905,974.7977132489905,974.7977132489905,974.7977132489905,974.7977132489905,974.7977132489905,switch,number,numSwt,k,1.5306194529403,vtsPrac,976.3494362919591,,,,,,,,,,,,,,,,,,,,,,,,,,,,,25686,2022-11-16_10h23.12.397,vts_reward_expectancy_bt_OFFLINE,2022.2.4,59.927772656638915,
,,,,,,,,,,,,,,,,,,,,,,,,,,,,,,,,,,0,0,0,0,16,0,16,0,,,,,,,,,,,,,,,,,,,,,,,,,,,,0,837,,,,982.8567138069775,,F,160,star,0.001018183073028922,,,,,1,0,,,2,,,,,,,,,,,,,,,,,978.8354632749688,978.8354632749688,978.8354632749688,978.8354632749688,980.3371280340943,980.3371280340943,980.3371280340943,980.3371280340943,980.3371280340943,980.3371280340943,980.3371280340943,980.3371280340943,switch,letter,lettSwt,d,0.9867986671160907,vtsPrac,981.3550905410666,982.8567138069775,,,,,,,,,,,,,,,,,,,,,,,,,,,,25686,2022-11-16_10h23.12.397,vts_reward_expectancy_bt_OFFLINE,2022.2.4,59.927772656638915,
,,,,,,,,,,,,,,,,,,,,,,,,,,,,,,,,,,0,0,0,0,17,0,17,0,,,,,,,,,,,,,,,,,,,,,,,,,,,,0,837,,,,987.7620248119347,,B,132,triangle,0.0010905470699071884,,,,,1,0,,,2,,,,,,,,,,,,,,,,,983.8410409849603,983.8410409849603,983.8410409849603,983.8410409849603,985.3425915259868,985.3425915259868,985.3425915259868,985.3425915259868,985.3425915259868,985.3425915259868,985.3425915259868,985.3425915259868,switch,number,numSwt,j,0.8978447190020233,vtsPrac,986.2602741669398,987.7620248119347,,,,,,,,,,,,,,,,,,,,,,,,,,,,25686,2022-11-16_10h23.12.397,vts_reward_expectancy_bt_OFFLINE,2022.2.4,59.927772656638915,
,,,,,,,,,,,,,,,,,,,,,,,,,,,,,,,,,,0,0,0,0,18,0,18,0,,,,,,,,,,,,,,,,,,,,,,,,,,,,0,837,,,,992.7341261210386,,U,146,triangle,0.0007523731328547001,,,,,1,0,,,2,,,,,,,,,,,,,,,,,988.7466055369005,988.7466055369005,988.7466055369005,988.7466055369005,990.2482209920418,990.2482209920418,990.2482209920418,990.2482209920418,990.2482209920418,990.2482209920418,990.2482209920418,990.2482209920418,repeat,number,numRpt,j,0.9666961217299104,vtsPrac,991.2325751809403,992.7341261210386,,,,,,,,,,,,,,,,,,,,,,,,,,,,25686,2022-11-16_10h23.12.397,vts_reward_expectancy_bt_OFFLINE,2022.2.4,59.927772656638915,
,,,,,,,,,,,,,,,,,,,,,,,,,,,,,,,,,,0,0,0,0,19,0,19,0,,,,,,,,,,,,,,,,,,,,,,,,,,,,0,837,,,,997.9565972369164,,D,139,star,0.0009834910742938519,,,,,1,0,,,2,,,,,,,,,,,,,,,,,993.7184883661103,993.7184883661103,993.7184883661103,993.7184883661103,995.2202092870139,995.2202092870139,995.2202092870139,995.2202092870139,995.2202092870139,995.2202092870139,995.2202092870139,995.2202092870139,switch,letter,lettSwt,d,1.213746702997014,vtsPrac,996.455057085026,,,,,,,,,,,,,,,,,,,,,,,,,,,,,25686,2022-11-16_10h23.12.397,vts_reward_expectancy_bt_OFFLINE,2022.2.4,59.927772656638915,
,,,,,,,,,,,,,,,,,,,,,,,,,,,,,,,,,,0,0,0,0,20,0,20,0,,,,,,,,,,,,,,,,,,,,,,,,,,,,0,837,,,,1003.629573241109,,W,139,hexagon,0.0013185120187699795,,,,,1,0,,,2,,,,,,,,,,,,,,,,,998.9410002850927,998.9410002850927,998.9410002850927,998.9410002850927,1000.4428463159129,1000.4428463159129,1000.4428463159129,1000.4428463159129,1000.4428463159129,1000.4428463159129,1000.4428463159129,1000.4428463159129,switch,number,numSwt,j,1.6618233448825777,vtsPrac,1002.1278351570945,,,,,,,,,,,,,,,,,,,,,,,,,,,,,25686,2022-11-16_10h23.12.397,vts_reward_expectancy_bt_OFFLINE,2022.2.4,59.927772656638915,
,,,,,,,,,,,,,,,,,,,,,,,,,,,,,,,,,,0,0,0,0,21,0,21,0,,,,,,,,,,,,,,,,,,,,,,,,,,,,0,837,,,,1008.8020326010883,,H,146,circle,0.00114275305531919,,,,,1,0,,,2,,,,,,,,,,,,,,,,,1004.6139982310124,1004.6139982310124,1004.6139982310124,1004.6139982310124,1006.1157914958894,1006.1157914958894,1006.1157914958894,1006.1157914958894,1006.1157914958894,1006.1157914958894,1006.1157914958894,1006.1157914958894,switch,letter,lettSwt,d,1.1520681260153651,vtsPrac,1007.3004437449854,1008.8020326010883,,,,,,,,,,,,,,,,,,,,,,,,,,,,25686,2022-11-16_10h23.12.397,vts_reward_expectancy_bt_OFFLINE,2022.2.4,59.927772656638915,
,,,,,,,,,,,,,,,,,,,,,,,,,,,,,,,,,,0,0,0,0,22,0,22,0,,,,,,,,,,,,,,,,,,,,,,,,,,,,0,837,,,,1013.6406431200448,,U,132,triangle,0.0008847231511026621,,,,,1,0,,,2,,,,,,,,,,,,,,,,,1009.7862744899467,1009.7862744899467,1009.7862744899467,1009.7862744899467,1011.2879675119184,1011.2879675119184,1011.2879675119184,1011.2879675119184,1011.2879675119184,1011.2879675119184,1011.2879675119184,1011.2879675119184,switch,number,numSwt,j,0.8183373338542879,vtsPrac,1012.1389270289801,,,,,,,,,,,,,,,,,,,,,,,,,,,,,25686,2022-11-16_10h23.12.397,vts_reward_expectancy_bt_OFFLINE,2022.2.4,59.927772656638915,
,,,,,,,,,,,,,,,,,,,,,,,,,,,,,,,,,,0,0,0,0,23,0,23,0,,,,,,,,,,,,,,,,,,,,,,,,,,,,0,837,,,,1018.5127766439691,,F,167,star,0.0012219860218465328,,,,,1,0,,,2,,,,,,,,,,,,,,,,,1014.6250053110998,1014.6250053110998,1014.6250053110998,1014.6250053110998,1016.1266443540808,1016.1266443540808,1016.1266443540808,1016.1266443540808,1016.1266443540808,1016.1266443540808,1016.1266443540808,1016.1266443540808,switch,letter,lettSwt,d,0.8617633651010692,vtsPrac,1017.0109769150149,1018.5127766439691,,,,,,,,,,,,,,,,,,,,,,,,,,,,25686,2022-11-16_10h23.12.397,vts_reward_expectancy_bt_OFFLINE,2022.2.4,59.927772656638915,
,,,,,,,,,,,,,,,,,,,,,,,,,,,,,,,,,,0,0,0,0,24,0,24,0,,,,,,,,,,,,,,,,,,,,,,,,,,,,0,837,,,,1023.9019015759695,,F,181,star,0.0008195750415325165,,,,,1,0,,,2,,,,,,,,,,,,,,,,,1019.4972555700224,1019.4972555700224,1019.4972555700224,1019.4972555700224,1020.9986942810938,1020.9986942810938,1020.9986942810938,1020.9986942810938,1020.9986942810938,1020.9986942810938,1020.9986942810938,1020.9986942810938,switch,number,numSwt,k,1.3791066908743232,vtsPrac,1022.4003971959464,1023.9019015759695,,,,,,,,,,,,,,,,,,,,,,,,,,,,25686,2022-11-16_10h23.12.397,vts_reward_expectancy_bt_OFFLINE,2022.2.4,59.927772656638915,
