LTriangleOpac,LCircleOpac,LHexagonOpac,LStarOpac,RTriangleOpac,RCircleOpac,RHexagonOpac,RStarOpac,LShape_ID,RShape_ID,training_blocks.thisRepN,training_blocks.thisTrialN,training_blocks.thisN,training_blocks.thisIndex,training.thisRepN,training.thisTrialN,training.thisN,training.thisIndex,task1_prac_redo.thisRepN,task1_prac_redo.thisTrialN,task1_prac_redo.thisN,task1_prac_redo.thisIndex,task1_prac_trials.thisRepN,task1_prac_trials.thisTrialN,task1_prac_trials.thisN,task1_prac_trials.thisIndex,task2_prac_redo.thisRepN,task2_prac_redo.thisTrialN,task2_prac_redo.thisN,task2_prac_redo.thisIndex,task2_praac_trials.thisRepN,task2_praac_trials.thisTrialN,task2_praac_trials.thisN,task2_praac_trials.thisIndex,vts_prac_redo.thisRepN,vts_prac_redo.thisTrialN,vts_prac_redo.thisN,vts_prac_redo.thisIndex,vts_practice_trials.thisRepN,vts_practice_trials.thisTrialN,vts_practice_trials.thisN,vts_practice_trials.thisIndex,trials_norew.thisRepN,trials_norew.thisTrialN,trials_norew.thisN,trials_norew.thisIndex,block.thisRepN,block.thisTrialN,block.thisN,block.thisIndex,trials_rew.thisRepN,trials_rew.thisTrialN,trials_rew.thisN,trials_rew.thisIndex,key_resp.started,key_resp.keys,key_resp.rt,left_circle.started,right_circle.started,left_triangle.started,right_triangle.started,left_star.started,right_star.started,left_hexagon.started,right_hexagon.started,training_fix.started,training_resp.started,training_resp.keys,training_resp.rt,points_trial,points_cumul,trainBlock,training_feedback_txt.started,fix.started,training_feedback_txt.stopped,fix.stopped,curr_topStim,curr_bottStim,curr_shape,ISI.started,tgt_fix_prac1.started,top_target_prac1.started,bott_target_prac1.started,target_resp_prac1.started,acc,E1,target_resp_prac1.keys,target_resp_prac1.rt,pracBlock,prac_fback_text.started,tgt_fix_prac2.started,top_target_prac2.started,bott_target_prac2.started,target_resp_prac2.started,target_resp_prac2.keys,target_resp_prac2.rt,star.started,hegagon.started,triangle.started,circle.started,star.stopped,hegagon.stopped,triangle.stopped,circle.stopped,top_target.started,tgt_fix.started,bot_target.started,target_resp.started,alt,task,condition,target_resp.keys,target_resp.rt,rewCond,vts_fback.started,vts_fback.stopped,blockNum,norew_fback.started,norew_fback.stopped,top_target.stopped,tgt_fix.stopped,bot_target.stopped,target_resp.stopped,key_resp_2.keys,key_resp_2.rt,rewExpectancy,feedbk_text.started,feedbk_text.stopped,text_3.started,debrief.started,text_3.stopped,button.started,debrief.index,debrief.itemText,debrief.type,debrief.granularity,debrief.font,debrief.markerColor,debrief.response,debrief.rt,button.numClicks,button.timesOn,button.timesOff,participant,date,expName,psychopyVersion,frameRate,
,,,,,,,,,,,,,,,,,,,,,,,,,,,,,,,,,,,,,,,,,,,,,,,,,,,,,,1357.5729349050089,space,26.75020767498063,,,,,,,,,,,,,,,,,,,,,,,,,,,,,,,,,,,,,,,,,,,,,,,,,,,,,,,,,,,,,,,,,,,,,,,,,,,,,,,,,,,,,,,25738,2022-11-15_10h21.35.732,vts_reward_expectancy_bt_OFFLINE,2022.2.4,59.89784661745677,
0,0,1,0,0,1,0,0,hexagon,circle,0,0,0,0,0,0,0,7,,,,,,,,,,,,,,,,,,,,,,,,,,,,,,,,,,,,,,,,1421.0912343950185,1421.0912343950185,1421.0912343950185,1421.0912343950185,1421.0912343950185,1421.0912343950185,1421.0912343950185,1421.0912343950185,1421.0912343950185,1421.0912343950185,a,1.257970860984642,1,1,0,1422.3676679200144,1423.8692038180016,,,,,,,,,,,,,,,,,,,,,,,,,,,,,,,,,,,,,,,,,,,,,,,,,,,,,,,,,,,,,,,,,,,,,,25738,2022-11-15_10h21.35.732,vts_reward_expectancy_bt_OFFLINE,2022.2.4,59.89784661745677,
0,1,0,0,0,0,0,1,circle,star,0,0,0,0,0,1,1,5,,,,,,,,,,,,,,,,,,,,,,,,,,,,,,,,,,,,,,,,1424.3697523890005,1424.3697523890005,1424.3697523890005,1424.3697523890005,1424.3697523890005,1424.3697523890005,1424.3697523890005,1424.3697523890005,1424.3697523890005,1424.3697523890005,l,0.7914866149949376,10,11,0,1425.187334457005,1426.6891113860183,,,,,,,,,,,,,,,,,,,,,,,,,,,,,,,,,,,,,,,,,,,,,,,,,,,,,,,,,,,,,,,,,,,,,,25738,2022-11-15_10h21.35.732,vts_reward_expectancy_bt_OFFLINE,2022.2.4,59.89784661745677,
0,0,0,1,0,1,0,0,star ,circle,0,0,0,0,0,2,2,10,,,,,,,,,,,,,,,,,,,,,,,,,,,,,,,,,,,,,,,,1427.1895050580206,1427.1895050580206,1427.1895050580206,1427.1895050580206,1427.1895050580206,1427.1895050580206,1427.1895050580206,1427.1895050580206,1427.1895050580206,1427.1895050580206,a,0.8634578180208337,10,21,0,1428.073745103,1429.5754833850078,,,,,,,,,,,,,,,,,,,,,,,,,,,,,,,,,,,,,,,,,,,,,,,,,,,,,,,,,,,,,,,,,,,,,,25738,2022-11-15_10h21.35.732,vts_reward_expectancy_bt_OFFLINE,2022.2.4,59.89784661745677,
0,0,0,1,1,0,0,0,star,triangle,0,0,0,0,0,3,3,9,,,,,,,,,,,,,,,,,,,,,,,,,,,,,,,,,,,,,,,,1430.0761382760247,1430.0761382760247,1430.0761382760247,1430.0761382760247,1430.0761382760247,1430.0761382760247,1430.0761382760247,1430.0761382760247,1430.0761382760247,1430.0761382760247,a,0.6202305649931077,1,22,0,1430.7268459650222,1432.2282839290274,,,,,,,,,,,,,,,,,,,,,,,,,,,,,,,,,,,,,,,,,,,,,,,,,,,,,,,,,,,,,,,,,,,,,,25738,2022-11-15_10h21.35.732,vts_reward_expectancy_bt_OFFLINE,2022.2.4,59.89784661745677,
1,0,0,0,0,1,0,0,triangle,circle,0,0,0,0,0,4,4,0,,,,,,,,,,,,,,,,,,,,,,,,,,,,,,,,,,,,,,,,1432.7289744010195,1432.7289744010195,1432.7289744010195,1432.7289744010195,1432.7289744010195,1432.7289744010195,1432.7289744010195,1432.7289744010195,1432.7289744010195,1432.7289744010195,a,1.0056620010000188,1,23,0,1433.7632916510047,1435.2650016750267,,,,,,,,,,,,,,,,,,,,,,,,,,,,,,,,,,,,,,,,,,,,,,,,,,,,,,,,,,,,,,,,,,,,,,25738,2022-11-15_10h21.35.732,vts_reward_expectancy_bt_OFFLINE,2022.2.4,59.89784661745677,
0,1,0,0,0,0,1,0,circle,hexagon,0,0,0,0,0,5,5,4,,,,,,,,,,,,,,,,,,,,,,,,,,,,,,,,,,,,,,,,1435.7655015850032,1435.7655015850032,1435.7655015850032,1435.7655015850032,1435.7655015850032,1435.7655015850032,1435.7655015850032,1435.7655015850032,1435.7655015850032,1435.7655015850032,a,0.8376706290000584,10,33,0,1436.6331153940118,1438.1348619810014,,,,,,,,,,,,,,,,,,,,,,,,,,,,,,,,,,,,,,,,,,,,,,,,,,,,,,,,,,,,,,,,,,,,,,25738,2022-11-15_10h21.35.732,vts_reward_expectancy_bt_OFFLINE,2022.2.4,59.89784661745677,
1,0,0,0,0,0,0,1,triangle,star,0,0,0,0,0,6,6,2,,,,,,,,,,,,,,,,,,,,,,,,,,,,,,,,,,,,,,,,1438.6354148480168,1438.6354148480168,1438.6354148480168,1438.6354148480168,1438.6354148480168,1438.6354148480168,1438.6354148480168,1438.6354148480168,1438.6354148480168,1438.6354148480168,l,1.1737985880172346,10,43,0,1439.836793675,1441.3381572620128,,,,,,,,,,,,,,,,,,,,,,,,,,,,,,,,,,,,,,,,,,,,,,,,,,,,,,,,,,,,,,,,,,,,,,25738,2022-11-15_10h21.35.732,vts_reward_expectancy_bt_OFFLINE,2022.2.4,59.89784661745677,
1,0,0,0,0,0,1,0,triangle,hexagon,0,0,0,0,0,7,7,1,,,,,,,,,,,,,,,,,,,,,,,,,,,,,,,,,,,,,,,,1441.8390474930056,1441.8390474930056,1441.8390474930056,1441.8390474930056,1441.8390474930056,1441.8390474930056,1441.8390474930056,1441.8390474930056,1441.8390474930056,1441.8390474930056,l,0.9532657650124747,10,53,0,1442.8234618200222,1444.32522194201,,,,,,,,,,,,,,,,,,,,,,,,,,,,,,,,,,,,,,,,,,,,,,,,,,,,,,,,,,,,,,,,,,,,,,25738,2022-11-15_10h21.35.732,vts_reward_expectancy_bt_OFFLINE,2022.2.4,59.89784661745677,
0,0,0,1,0,0,1,0,star,hexagon,0,0,0,0,0,8,8,11,,,,,,,,,,,,,,,,,,,,,,,,,,,,,,,,,,,,,,,,1444.8255232640076,1444.8255232640076,1444.8255232640076,1444.8255232640076,1444.8255232640076,1444.8255232640076,1444.8255232640076,1444.8255232640076,1444.8255232640076,1444.8255232640076,a,0.7576705210085493,1,54,0,1445.6097832850064,1447.1115698680223,,,,,,,,,,,,,,,,,,,,,,,,,,,,,,,,,,,,,,,,,,,,,,,,,,,,,,,,,,,,,,,,,,,,,,25738,2022-11-15_10h21.35.732,vts_reward_expectancy_bt_OFFLINE,2022.2.4,59.89784661745677,
0,0,1,0,1,0,0,0,hexagon,triangle,0,0,0,0,0,9,9,6,,,,,,,,,,,,,,,,,,,,,,,,,,,,,,,,,,,,,,,,1447.6120167860063,1447.6120167860063,1447.6120167860063,1447.6120167860063,1447.6120167860063,1447.6120167860063,1447.6120167860063,1447.6120167860063,1447.6120167860063,1447.6120167860063,a,0.9522229360009078,1,55,0,1448.5966949520225,1450.0982226430206,,,,,,,,,,,,,,,,,,,,,,,,,,,,,,,,,,,,,,,,,,,,,,,,,,,,,,,,,,,,,,,,,,,,,,25738,2022-11-15_10h21.35.732,vts_reward_expectancy_bt_OFFLINE,2022.2.4,59.89784661745677,
0,0,1,0,0,0,0,1,hexagon,star,0,0,0,0,0,10,10,8,,,,,,,,,,,,,,,,,,,,,,,,,,,,,,,,,,,,,,,,1450.5989311350277,1450.5989311350277,1450.5989311350277,1450.5989311350277,1450.5989311350277,1450.5989311350277,1450.5989311350277,1450.5989311350277,1450.5989311350277,1450.5989311350277,l,1.0688526119920425,1,56,0,1451.6998457220034,1453.2016996540187,,,,,,,,,,,,,,,,,,,,,,,,,,,,,,,,,,,,,,,,,,,,,,,,,,,,,,,,,,,,,,,,,,,,,,25738,2022-11-15_10h21.35.732,vts_reward_expectancy_bt_OFFLINE,2022.2.4,59.89784661745677,
0,1,0,0,1,0,0,0,circle,triangle,0,0,0,0,0,11,11,3,,,,,,,,,,,,,,,,,,,,,,,,,,,,,,,,,,,,,,,,1453.7020466780232,1453.7020466780232,1453.7020466780232,1453.7020466780232,1453.7020466780232,1453.7020466780232,1453.7020466780232,1453.7020466780232,1453.7020466780232,1453.7020466780232,a,1.0024247670080513,10,66,0,1454.7364673100237,1456.2383974520199,,,,,,,,,,,,,,,,,,,,,,,,,,,,,,,,,,,,,,,,,,,,,,,,,,,,,,,,,,,,,,,,,,,,,,25738,2022-11-15_10h21.35.732,vts_reward_expectancy_bt_OFFLINE,2022.2.4,59.89784661745677,
0,0,1,0,0,0,0,1,hexagon,star,0,0,0,0,1,0,12,8,,,,,,,,,,,,,,,,,,,,,,,,,,,,,,,,,,,,,,,,1456.7387325770105,1456.7387325770105,1456.7387325770105,1456.7387325770105,1456.7387325770105,1456.7387325770105,1456.7387325770105,1456.7387325770105,1456.7387325770105,1456.7387325770105,l,1.7470481600030325,1,67,0,1458.5073180180043,1460.0089353380026,,,,,,,,,,,,,,,,,,,,,,,,,,,,,,,,,,,,,,,,,,,,,,,,,,,,,,,,,,,,,,,,,,,,,,25738,2022-11-15_10h21.35.732,vts_reward_expectancy_bt_OFFLINE,2022.2.4,59.89784661745677,
0,0,0,1,1,0,0,0,star,triangle,0,0,0,0,1,1,13,9,,,,,,,,,,,,,,,,,,,,,,,,,,,,,,,,,,,,,,,,1460.5094421280082,1460.5094421280082,1460.5094421280082,1460.5094421280082,1460.5094421280082,1460.5094421280082,1460.5094421280082,1460.5094421280082,1460.5094421280082,1460.5094421280082,l,1.0356999459909275,10,77,0,1461.577216234,1463.0789624680183,,,,,,,,,,,,,,,,,,,,,,,,,,,,,,,,,,,,,,,,,,,,,,,,,,,,,,,,,,,,,,,,,,,,,,25738,2022-11-15_10h21.35.732,vts_reward_expectancy_bt_OFFLINE,2022.2.4,59.89784661745677,
0,1,0,0,0,0,0,1,circle,star,0,0,0,0,1,2,14,5,,,,,,,,,,,,,,,,,,,,,,,,,,,,,,,,,,,,,,,,1463.5794347760093,1463.5794347760093,1463.5794347760093,1463.5794347760093,1463.5794347760093,1463.5794347760093,1463.5794347760093,1463.5794347760093,1463.5794347760093,1463.5794347760093,a,0.9700131040008273,10,87,0,1464.5807025649992,1466.0821762160049,,,,,,,,,,,,,,,,,,,,,,,,,,,,,,,,,,,,,,,,,,,,,,,,,,,,,,,,,,,,,,,,,,,,,,25738,2022-11-15_10h21.35.732,vts_reward_expectancy_bt_OFFLINE,2022.2.4,59.89784661745677,
0,1,0,0,0,0,1,0,circle,hexagon,0,0,0,0,1,3,15,4,,,,,,,,,,,,,,,,,,,,,,,,,,,,,,,,,,,,,,,,1466.5828727200278,1466.5828727200278,1466.5828727200278,1466.5828727200278,1466.5828727200278,1466.5828727200278,1466.5828727200278,1466.5828727200278,1466.5828727200278,1466.5828727200278,a,1.8471387540048454,1,88,0,1468.451883510017,1469.9533783240186,,,,,,,,,,,,,,,,,,,,,,,,,,,,,,,,,,,,,,,,,,,,,,,,,,,,,,,,,,,,,,,,,,,,,,25738,2022-11-15_10h21.35.732,vts_reward_expectancy_bt_OFFLINE,2022.2.4,59.89784661745677,
0,0,1,0,1,0,0,0,hexagon,triangle,0,0,0,0,1,4,16,6,,,,,,,,,,,,,,,,,,,,,,,,,,,,,,,,,,,,,,,,1470.453876560001,1470.453876560001,1470.453876560001,1470.453876560001,1470.453876560001,1470.453876560001,1470.453876560001,1470.453876560001,1470.453876560001,1470.453876560001,a,0.7775230080005713,1,89,0,1471.254810220009,1472.7565132080053,,,,,,,,,,,,,,,,,,,,,,,,,,,,,,,,,,,,,,,,,,,,,,,,,,,,,,,,,,,,,,,,,,,,,,25738,2022-11-15_10h21.35.732,vts_reward_expectancy_bt_OFFLINE,2022.2.4,59.89784661745677,
0,1,0,0,1,0,0,0,circle,triangle,0,0,0,0,1,5,17,3,,,,,,,,,,,,,,,,,,,,,,,,,,,,,,,,,,,,,,,,1473.257033846021,1473.257033846021,1473.257033846021,1473.257033846021,1473.257033846021,1473.257033846021,1473.257033846021,1473.257033846021,1473.257033846021,1473.257033846021,l,2.1256816529785283,10,99,0,1475.4097423510102,1476.9110558899993,,,,,,,,,,,,,,,,,,,,,,,,,,,,,,,,,,,,,,,,,,,,,,,,,,,,,,,,,,,,,,,,,,,,,,25738,2022-11-15_10h21.35.732,vts_reward_expectancy_bt_OFFLINE,2022.2.4,59.89784661745677,
0,0,1,0,0,1,0,0,hexagon,circle,0,0,0,0,1,6,18,7,,,,,,,,,,,,,,,,,,,,,,,,,,,,,,,,,,,,,,,,1477.4116672690143,1477.4116672690143,1477.4116672690143,1477.4116672690143,1477.4116672690143,1477.4116672690143,1477.4116672690143,1477.4116672690143,1477.4116672690143,1477.4116672690143,a,1.2795838250021916,10,109,0,1478.7129564870265,1480.214655252028,,,,,,,,,,,,,,,,,,,,,,,,,,,,,,,,,,,,,,,,,,,,,,,,,,,,,,,,,,,,,,,,,,,,,,25738,2022-11-15_10h21.35.732,vts_reward_expectancy_bt_OFFLINE,2022.2.4,59.89784661745677,
0,0,0,1,0,0,1,0,star,hexagon,0,0,0,0,1,7,19,11,,,,,,,,,,,,,,,,,,,,,,,,,,,,,,,,,,,,,,,,1480.715283018013,1480.715283018013,1480.715283018013,1480.715283018013,1480.715283018013,1480.715283018013,1480.715283018013,1480.715283018013,1480.715283018013,1480.715283018013,l,1.2717598700255621,1,110,0,1482.0166573050083,1483.5182651120122,,,,,,,,,,,,,,,,,,,,,,,,,,,,,,,,,,,,,,,,,,,,,,,,,,,,,,,,,,,,,,,,,,,,,,25738,2022-11-15_10h21.35.732,vts_reward_expectancy_bt_OFFLINE,2022.2.4,59.89784661745677,
1,0,0,0,0,1,0,0,triangle,circle,0,0,0,0,1,8,20,0,,,,,,,,,,,,,,,,,,,,,,,,,,,,,,,,,,,,,,,,1484.0188402280037,1484.0188402280037,1484.0188402280037,1484.0188402280037,1484.0188402280037,1484.0188402280037,1484.0188402280037,1484.0188402280037,1484.0188402280037,1484.0188402280037,a,3.930516780994367,1,111,0,1487.9731883290224,1489.4749086280062,,,,,,,,,,,,,,,,,,,,,,,,,,,,,,,,,,,,,,,,,,,,,,,,,,,,,,,,,,,,,,,,,,,,,,25738,2022-11-15_10h21.35.732,vts_reward_expectancy_bt_OFFLINE,2022.2.4,59.89784661745677,
1,0,0,0,0,0,0,1,triangle,star,0,0,0,0,1,9,21,2,,,,,,,,,,,,,,,,,,,,,,,,,,,,,,,,,,,,,,,,1489.9756558049994,1489.9756558049994,1489.9756558049994,1489.9756558049994,1489.9756558049994,1489.9756558049994,1489.9756558049994,1489.9756558049994,1489.9756558049994,1489.9756558049994,l,1.269762862008065,1,112,0,1491.2768267500214,1492.778484866023,,,,,,,,,,,,,,,,,,,,,,,,,,,,,,,,,,,,,,,,,,,,,,,,,,,,,,,,,,,,,,,,,,,,,,25738,2022-11-15_10h21.35.732,vts_reward_expectancy_bt_OFFLINE,2022.2.4,59.89784661745677,
0,0,0,1,0,1,0,0,star ,circle,0,0,0,0,1,10,22,10,,,,,,,,,,,,,,,,,,,,,,,,,,,,,,,,,,,,,,,,1493.2794241760275,1493.2794241760275,1493.2794241760275,1493.2794241760275,1493.2794241760275,1493.2794241760275,1493.2794241760275,1493.2794241760275,1493.2794241760275,1493.2794241760275,a,1.3316966379934456,1,113,0,1494.6304769670242,1496.1322015980259,,,,,,,,,,,,,,,,,,,,,,,,,,,,,,,,,,,,,,,,,,,,,,,,,,,,,,,,,,,,,,,,,,,,,,25738,2022-11-15_10h21.35.732,vts_reward_expectancy_bt_OFFLINE,2022.2.4,59.89784661745677,
1,0,0,0,0,0,1,0,triangle,hexagon,0,0,0,0,1,11,23,1,,,,,,,,,,,,,,,,,,,,,,,,,,,,,,,,,,,,,,,,1496.6327443750051,1496.6327443750051,1496.6327443750051,1496.6327443750051,1496.6327443750051,1496.6327443750051,1496.6327443750051,1496.6327443750051,1496.6327443750051,1496.6327443750051,a,1.0368271170009393,10,123,0,1497.70066911701,1499.202578152006,,,,,,,,,,,,,,,,,,,,,,,,,,,,,,,,,,,,,,,,,,,,,,,,,,,,,,,,,,,,,,,,,,,,,,25738,2022-11-15_10h21.35.732,vts_reward_expectancy_bt_OFFLINE,2022.2.4,59.89784661745677,
1,0,0,0,0,1,0,0,triangle,circle,0,0,0,0,2,0,24,0,,,,,,,,,,,,,,,,,,,,,,,,,,,,,,,,,,,,,,,,1499.7030406900158,1499.7030406900158,1499.7030406900158,1499.7030406900158,1499.7030406900158,1499.7030406900158,1499.7030406900158,1499.7030406900158,1499.7030406900158,1499.7030406900158,a,1.0170569730107673,1,124,0,1500.737592119025,1502.2390130380227,,,,,,,,,,,,,,,,,,,,,,,,,,,,,,,,,,,,,,,,,,,,,,,,,,,,,,,,,,,,,,,,,,,,,,25738,2022-11-15_10h21.35.732,vts_reward_expectancy_bt_OFFLINE,2022.2.4,59.89784661745677,
0,0,0,1,0,0,1,0,star,hexagon,0,0,0,0,2,1,25,11,,,,,,,,,,,,,,,,,,,,,,,,,,,,,,,,,,,,,,,,1502.7396545120282,1502.7396545120282,1502.7396545120282,1502.7396545120282,1502.7396545120282,1502.7396545120282,1502.7396545120282,1502.7396545120282,1502.7396545120282,1502.7396545120282,a,2.1415018029802013,1,125,0,1504.9085384580249,1506.4102226720133,,,,,,,,,,,,,,,,,,,,,,,,,,,,,,,,,,,,,,,,,,,,,,,,,,,,,,,,,,,,,,,,,,,,,,25738,2022-11-15_10h21.35.732,vts_reward_expectancy_bt_OFFLINE,2022.2.4,59.89784661745677,
0,0,1,0,1,0,0,0,hexagon,triangle,0,0,0,0,2,2,26,6,,,,,,,,,,,,,,,,,,,,,,,,,,,,,,,,,,,,,,,,1506.9109828630171,1506.9109828630171,1506.9109828630171,1506.9109828630171,1506.9109828630171,1506.9109828630171,1506.9109828630171,1506.9109828630171,1506.9109828630171,1506.9109828630171,a,0.7853197180083953,1,126,0,1507.7283833090041,1509.230047118006,,,,,,,,,,,,,,,,,,,,,,,,,,,,,,,,,,,,,,,,,,,,,,,,,,,,,,,,,,,,,,,,,,,,,,25738,2022-11-15_10h21.35.732,vts_reward_expectancy_bt_OFFLINE,2022.2.4,59.89784661745677,
1,0,0,0,0,0,0,1,triangle,star,0,0,0,0,2,3,27,2,,,,,,,,,,,,,,,,,,,,,,,,,,,,,,,,,,,,,,,,1509.7305165860162,1509.7305165860162,1509.7305165860162,1509.7305165860162,1509.7305165860162,1509.7305165860162,1509.7305165860162,1509.7305165860162,1509.7305165860162,1509.7305165860162,a,0.5190789199841674,1,127,0,1510.281191623013,1511.7829342560144,,,,,,,,,,,,,,,,,,,,,,,,,,,,,,,,,,,,,,,,,,,,,,,,,,,,,,,,,,,,,,,,,,,,,,25738,2022-11-15_10h21.35.732,vts_reward_expectancy_bt_OFFLINE,2022.2.4,59.89784661745677,
0,0,1,0,0,1,0,0,hexagon,circle,0,0,0,0,2,4,28,7,,,,,,,,,,,,,,,,,,,,,,,,,,,,,,,,,,,,,,,,1512.2835134530033,1512.2835134530033,1512.2835134530033,1512.2835134530033,1512.2835134530033,1512.2835134530033,1512.2835134530033,1512.2835134530033,1512.2835134530033,1512.2835134530033,l,1.5863495590165257,10,137,0,1513.9018393020087,1515.403560983017,,,,,,,,,,,,,,,,,,,,,,,,,,,,,,,,,,,,,,,,,,,,,,,,,,,,,,,,,,,,,,,,,,,,,,25738,2022-11-15_10h21.35.732,vts_reward_expectancy_bt_OFFLINE,2022.2.4,59.89784661745677,
0,0,1,0,0,0,0,1,hexagon,star,0,0,0,0,2,5,29,8,,,,,,,,,,,,,,,,,,,,,,,,,,,,,,,,,,,,,,,,1515.9043625760241,1515.9043625760241,1515.9043625760241,1515.9043625760241,1515.9043625760241,1515.9043625760241,1515.9043625760241,1515.9043625760241,1515.9043625760241,1515.9043625760241,l,1.2735746889957227,1,138,0,1517.2054392140126,1518.7072112650203,,,,,,,,,,,,,,,,,,,,,,,,,,,,,,,,,,,,,,,,,,,,,,,,,,,,,,,,,,,,,,,,,,,,,,25738,2022-11-15_10h21.35.732,vts_reward_expectancy_bt_OFFLINE,2022.2.4,59.89784661745677,
0,0,0,1,0,1,0,0,star ,circle,0,0,0,0,2,6,30,10,,,,,,,,,,,,,,,,,,,,,,,,,,,,,,,,,,,,,,,,1519.2077889610082,1519.2077889610082,1519.2077889610082,1519.2077889610082,1519.2077889610082,1519.2077889610082,1519.2077889610082,1519.2077889610082,1519.2077889610082,1519.2077889610082,l,0.7598640029900707,10,148,0,1519.9919386530237,1521.493451429007,,,,,,,,,,,,,,,,,,,,,,,,,,,,,,,,,,,,,,,,,,,,,,,,,,,,,,,,,,,,,,,,,,,,,,25738,2022-11-15_10h21.35.732,vts_reward_expectancy_bt_OFFLINE,2022.2.4,59.89784661745677,
0,1,0,0,0,0,0,1,circle,star,0,0,0,0,2,7,31,5,,,,,,,,,,,,,,,,,,,,,,,,,,,,,,,,,,,,,,,,1521.9941464450094,1521.9941464450094,1521.9941464450094,1521.9941464450094,1521.9941464450094,1521.9941464450094,1521.9941464450094,1521.9941464450094,1521.9941464450094,1521.9941464450094,a,0.685827147011878,10,158,0,1522.711566924001,1524.2133335650142,,,,,,,,,,,,,,,,,,,,,,,,,,,,,,,,,,,,,,,,,,,,,,,,,,,,,,,,,,,,,,,,,,,,,,25738,2022-11-15_10h21.35.732,vts_reward_expectancy_bt_OFFLINE,2022.2.4,59.89784661745677,
0,1,0,0,1,0,0,0,circle,triangle,0,0,0,0,2,8,32,3,,,,,,,,,,,,,,,,,,,,,,,,,,,,,,,,,,,,,,,,1524.714074381016,1524.714074381016,1524.714074381016,1524.714074381016,1524.714074381016,1524.714074381016,1524.714074381016,1524.714074381016,1524.714074381016,1524.714074381016,l,1.115697225992335,10,168,0,1525.8483920120052,1527.3502525460208,1527.3502525460208,1527.8509013370203,,,,,,,,,,,,,,,,,,,,,,,,,,,,,,,,,,,,,,,,,,,,,,,,,,,,,,,,,,,,,,,,,,,,25738,2022-11-15_10h21.35.732,vts_reward_expectancy_bt_OFFLINE,2022.2.4,59.89784661745677,
0,1,0,0,0,0,1,0,circle,hexagon,0,0,0,0,2,9,33,4,,,,,,,,,,,,,,,,,,,,,,,,,,,,,,,,,,,,,,,,1527.8509013370203,1527.8509013370203,1527.8509013370203,1527.8509013370203,1527.8509013370203,1527.8509013370203,1527.8509013370203,1527.8509013370203,1527.8509013370203,1527.8509013370203,l,1.051568608992966,1,169,0,1528.9185043790203,1530.4200101110036,1530.4200101110036,,,,,,,,,,,,,,,,,,,,,,,,,,,,,,,,,,,,,,,,,,,,,,,,,,,,,,,,,,,,,,,,,,,,,25738,2022-11-15_10h21.35.732,vts_reward_expectancy_bt_OFFLINE,2022.2.4,59.89784661745677,
0,0,0,1,1,0,0,0,star,triangle,0,0,0,0,2,10,34,9,,,,,,,,,,,,,,,,,,,,,,,,,,,,,,,,,,,,,,,,1530.9205460420053,1530.9205460420053,1530.9205460420053,1530.9205460420053,1530.9205460420053,1530.9205460420053,1530.9205460420053,1530.9205460420053,1530.9205460420053,1530.9205460420053,l,0.8166370480030309,1,170,0,1531.7547501770023,1533.2563471630274,1533.2563471630274,,,,,,,,,,,,,,,,,,,,,,,,,,,,,,,,,,,,,,,,,,,,,,,,,,,,,,,,,,,,,,,,,,,,,25738,2022-11-15_10h21.35.732,vts_reward_expectancy_bt_OFFLINE,2022.2.4,59.89784661745677,
1,0,0,0,0,0,1,0,triangle,hexagon,0,0,0,0,2,11,35,1,,,,,,,,,,,,,,,,,,,,,,,,,,,,,,,,,,,,,,,,1533.7569626920158,1533.7569626920158,1533.7569626920158,1533.7569626920158,1533.7569626920158,1533.7569626920158,1533.7569626920158,1533.7569626920158,1533.7569626920158,1533.7569626920158,l,2.4122140489926096,1,171,0,1536.19303029601,1537.694671293022,,,,,,,,,,,,,,,,,,,,,,,,,,,,,,,,,,,,,,,,,,,,,,,,,,,,,,,,,,,,,,,,,,,,,,25738,2022-11-15_10h21.35.732,vts_reward_expectancy_bt_OFFLINE,2022.2.4,59.89784661745677,
1,0,0,0,0,0,1,0,triangle,hexagon,0,0,0,0,3,0,36,1,,,,,,,,,,,,,,,,,,,,,,,,,,,,,,,,,,,,,,,,1538.1953002590162,1538.1953002590162,1538.1953002590162,1538.1953002590162,1538.1953002590162,1538.1953002590162,1538.1953002590162,1538.1953002590162,1538.1953002590162,1538.1953002590162,a,1.3496654120099265,10,181,0,1539.563596853026,1541.0651279790036,,,,,,,,,,,,,,,,,,,,,,,,,,,,,,,,,,,,,,,,,,,,,,,,,,,,,,,,,,,,,,,,,,,,,,25738,2022-11-15_10h21.35.732,vts_reward_expectancy_bt_OFFLINE,2022.2.4,59.89784661745677,
0,1,0,0,1,0,0,0,circle,triangle,0,0,0,0,3,1,37,3,,,,,,,,,,,,,,,,,,,,,,,,,,,,,,,,,,,,,,,,1541.565672215016,1541.565672215016,1541.565672215016,1541.565672215016,1541.565672215016,1541.565672215016,1541.565672215016,1541.565672215016,1541.565672215016,1541.565672215016,l,0.969921843992779,10,191,0,1542.5668297790107,1544.068663485028,,,,,,,,,,,,,,,,,,,,,,,,,,,,,,,,,,,,,,,,,,,,,,,,,,,,,,,,,,,,,,,,,,,,,,25738,2022-11-15_10h21.35.732,vts_reward_expectancy_bt_OFFLINE,2022.2.4,59.89784661745677,
0,0,0,1,1,0,0,0,star,triangle,0,0,0,0,3,2,38,9,,,,,,,,,,,,,,,,,,,,,,,,,,,,,,,,,,,,,,,,1544.5690126500267,1544.5690126500267,1544.5690126500267,1544.5690126500267,1544.5690126500267,1544.5690126500267,1544.5690126500267,1544.5690126500267,1544.5690126500267,1544.5690126500267,l,1.1078317710198462,10,201,0,1545.7035912110005,1547.2052920420247,,,,,,,,,,,,,,,,,,,,,,,,,,,,,,,,,,,,,,,,,,,,,,,,,,,,,,,,,,,,,,,,,,,,,,25738,2022-11-15_10h21.35.732,vts_reward_expectancy_bt_OFFLINE,2022.2.4,59.89784661745677,
0,0,0,1,0,0,1,0,star,hexagon,0,0,0,0,3,3,39,11,,,,,,,,,,,,,,,,,,,,,,,,,,,,,,,,,,,,,,,,1547.705786786013,1547.705786786013,1547.705786786013,1547.705786786013,1547.705786786013,1547.705786786013,1547.705786786013,1547.705786786013,1547.705786786013,1547.705786786013,l,1.1638711399864405,1,202,0,1548.8906430610223,1550.392249772005,,,,,,,,,,,,,,,,,,,,,,,,,,,,,,,,,,,,,,,,,,,,,,,,,,,,,,,,,,,,,,,,,,,,,,25738,2022-11-15_10h21.35.732,vts_reward_expectancy_bt_OFFLINE,2022.2.4,59.89784661745677,
0,0,1,0,0,0,0,1,hexagon,star,0,0,0,0,3,4,40,8,,,,,,,,,,,,,,,,,,,,,,,,,,,,,,,,,,,,,,,,1550.8925112810102,1550.8925112810102,1550.8925112810102,1550.8925112810102,1550.8925112810102,1550.8925112810102,1550.8925112810102,1550.8925112810102,1550.8925112810102,1550.8925112810102,l,1.0844478030048776,1,203,0,1551.9938273820153,1553.4956295610173,,,,,,,,,,,,,,,,,,,,,,,,,,,,,,,,,,,,,,,,,,,,,,,,,,,,,,,,,,,,,,,,,,,,,,25738,2022-11-15_10h21.35.732,vts_reward_expectancy_bt_OFFLINE,2022.2.4,59.89784661745677,
0,1,0,0,0,0,0,1,circle,star,0,0,0,0,3,5,41,5,,,,,,,,,,,,,,,,,,,,,,,,,,,,,,,,,,,,,,,,1553.9959844780096,1553.9959844780096,1553.9959844780096,1553.9959844780096,1553.9959844780096,1553.9959844780096,1553.9959844780096,1553.9959844780096,1553.9959844780096,1553.9959844780096,l,1.8275645120011177,1,204,0,1555.8481345880136,1557.3498656710144,,,,,,,,,,,,,,,,,,,,,,,,,,,,,,,,,,,,,,,,,,,,,,,,,,,,,,,,,,,,,,,,,,,,,,25738,2022-11-15_10h21.35.732,vts_reward_expectancy_bt_OFFLINE,2022.2.4,59.89784661745677,
1,0,0,0,0,1,0,0,triangle,circle,0,0,0,0,3,6,42,0,,,,,,,,,,,,,,,,,,,,,,,,,,,,,,,,,,,,,,,,1557.8503107540018,1557.8503107540018,1557.8503107540018,1557.8503107540018,1557.8503107540018,1557.8503107540018,1557.8503107540018,1557.8503107540018,1557.8503107540018,1557.8503107540018,a,0.9650653800053988,1,205,0,1558.8346985500248,1560.336416279024,,,,,,,,,,,,,,,,,,,,,,,,,,,,,,,,,,,,,,,,,,,,,,,,,,,,,,,,,,,,,,,,,,,,,,25738,2022-11-15_10h21.35.732,vts_reward_expectancy_bt_OFFLINE,2022.2.4,59.89784661745677,
0,0,0,1,0,1,0,0,star ,circle,0,0,0,0,3,7,43,10,,,,,,,,,,,,,,,,,,,,,,,,,,,,,,,,,,,,,,,,1560.8369171680242,1560.8369171680242,1560.8369171680242,1560.8369171680242,1560.8369171680242,1560.8369171680242,1560.8369171680242,1560.8369171680242,1560.8369171680242,1560.8369171680242,a,1.0725364329991862,1,206,0,1561.938218957017,1563.4398994380026,,,,,,,,,,,,,,,,,,,,,,,,,,,,,,,,,,,,,,,,,,,,,,,,,,,,,,,,,,,,,,,,,,,,,,25738,2022-11-15_10h21.35.732,vts_reward_expectancy_bt_OFFLINE,2022.2.4,59.89784661745677,
0,1,0,0,0,0,1,0,circle,hexagon,0,0,0,0,3,8,44,4,,,,,,,,,,,,,,,,,,,,,,,,,,,,,,,,,,,,,,,,1563.9404807420215,1563.9404807420215,1563.9404807420215,1563.9404807420215,1563.9404807420215,1563.9404807420215,1563.9404807420215,1563.9404807420215,1563.9404807420215,1563.9404807420215,l,1.107116886996664,1,207,0,1565.074953088013,1566.576666983019,,,,,,,,,,,,,,,,,,,,,,,,,,,,,,,,,,,,,,,,,,,,,,,,,,,,,,,,,,,,,,,,,,,,,,25738,2022-11-15_10h21.35.732,vts_reward_expectancy_bt_OFFLINE,2022.2.4,59.89784661745677,
0,0,1,0,0,1,0,0,hexagon,circle,0,0,0,0,3,9,45,7,,,,,,,,,,,,,,,,,,,,,,,,,,,,,,,,,,,,,,,,1567.0770277320116,1567.0770277320116,1567.0770277320116,1567.0770277320116,1567.0770277320116,1567.0770277320116,1567.0770277320116,1567.0770277320116,1567.0770277320116,1567.0770277320116,l,1.0083698210073635,10,217,0,1568.111550556001,1569.6131960900093,,,,,,,,,,,,,,,,,,,,,,,,,,,,,,,,,,,,,,,,,,,,,,,,,,,,,,,,,,,,,,,,,,,,,,25738,2022-11-15_10h21.35.732,vts_reward_expectancy_bt_OFFLINE,2022.2.4,59.89784661745677,
1,0,0,0,0,0,0,1,triangle,star,0,0,0,0,3,10,46,2,,,,,,,,,,,,,,,,,,,,,,,,,,,,,,,,,,,,,,,,1570.1138062710233,1570.1138062710233,1570.1138062710233,1570.1138062710233,1570.1138062710233,1570.1138062710233,1570.1138062710233,1570.1138062710233,1570.1138062710233,1570.1138062710233,a,1.6744841389881913,10,227,0,1571.8158614960266,1573.3174274420016,,,,,,,,,,,,,,,,,,,,,,,,,,,,,,,,,,,,,,,,,,,,,,,,,,,,,,,,,,,,,,,,,,,,,,25738,2022-11-15_10h21.35.732,vts_reward_expectancy_bt_OFFLINE,2022.2.4,59.89784661745677,
0,0,1,0,1,0,0,0,hexagon,triangle,0,0,0,0,3,11,47,6,,,,,,,,,,,,,,,,,,,,,,,,,,,,,,,,,,,,,,,,1573.8181201910193,1573.8181201910193,1573.8181201910193,1573.8181201910193,1573.8181201910193,1573.8181201910193,1573.8181201910193,1573.8181201910193,1573.8181201910193,1573.8181201910193,a,1.4694399269938003,1,228,0,1575.3195222240174,1576.821176566009,,,,,,,,,,,,,,,,,,,,,,,,,,,,,,,,,,,,,,,,,,,,,,,,,,,,,,,,,,,,,,,,,,,,,,25738,2022-11-15_10h21.35.732,vts_reward_expectancy_bt_OFFLINE,2022.2.4,59.89784661745677,
1,0,0,0,0,1,0,0,triangle,circle,1,0,1,0,0,0,0,0,,,,,,,,,,,,,,,,,,,,,,,,,,,,,,,,,,,,,,,,1587.471724892006,1587.471724892006,1587.471724892006,1587.471724892006,1587.471724892006,1587.471724892006,1587.471724892006,1587.471724892006,1587.471724892006,1587.471724892006,a,1.0343979469907936,10,238,1,1588.5340248300054,1590.035639772017,,,,,,,,,,,,,,,,,,,,,,,,,,,,,,,,,,,,,,,,,,,,,,,,,,,,,,,,,,,,,,,,,,,,,,25738,2022-11-15_10h21.35.732,vts_reward_expectancy_bt_OFFLINE,2022.2.4,59.89784661745677,
0,0,1,0,1,0,0,0,hexagon,triangle,1,0,1,0,0,1,1,6,,,,,,,,,,,,,,,,,,,,,,,,,,,,,,,,,,,,,,,,1590.5365523640066,1590.5365523640066,1590.5365523640066,1590.5365523640066,1590.5365523640066,1590.5365523640066,1590.5365523640066,1590.5365523640066,1590.5365523640066,1590.5365523640066,l,0.8158518889977131,10,248,1,1591.3705796770228,1592.8723044980143,,,,,,,,,,,,,,,,,,,,,,,,,,,,,,,,,,,,,,,,,,,,,,,,,,,,,,,,,,,,,,,,,,,,,,25738,2022-11-15_10h21.35.732,vts_reward_expectancy_bt_OFFLINE,2022.2.4,59.89784661745677,
0,1,0,0,1,0,0,0,circle,triangle,1,0,1,0,0,2,2,3,,,,,,,,,,,,,,,,,,,,,,,,,,,,,,,,,,,,,,,,1593.3728793180198,1593.3728793180198,1593.3728793180198,1593.3728793180198,1593.3728793180198,1593.3728793180198,1593.3728793180198,1593.3728793180198,1593.3728793180198,1593.3728793180198,l,1.308374026993988,1,249,1,1594.7078743910242,1596.2092469640193,,,,,,,,,,,,,,,,,,,,,,,,,,,,,,,,,,,,,,,,,,,,,,,,,,,,,,,,,,,,,,,,,,,,,,25738,2022-11-15_10h21.35.732,vts_reward_expectancy_bt_OFFLINE,2022.2.4,59.89784661745677,
1,0,0,0,0,0,1,0,triangle,hexagon,1,0,1,0,0,3,3,1,,,,,,,,,,,,,,,,,,,,,,,,,,,,,,,,,,,,,,,,1596.7098802820256,1596.7098802820256,1596.7098802820256,1596.7098802820256,1596.7098802820256,1596.7098802820256,1596.7098802820256,1596.7098802820256,1596.7098802820256,1596.7098802820256,l,1.6418033150257543,1,250,1,1598.3782835120219,1599.8799598560145,,,,,,,,,,,,,,,,,,,,,,,,,,,,,,,,,,,,,,,,,,,,,,,,,,,,,,,,,,,,,,,,,,,,,,25738,2022-11-15_10h21.35.732,vts_reward_expectancy_bt_OFFLINE,2022.2.4,59.89784661745677,
0,1,0,0,0,0,0,1,circle,star,1,0,1,0,0,4,4,5,,,,,,,,,,,,,,,,,,,,,,,,,,,,,,,,,,,,,,,,1600.3804271110275,1600.3804271110275,1600.3804271110275,1600.3804271110275,1600.3804271110275,1600.3804271110275,1600.3804271110275,1600.3804271110275,1600.3804271110275,1600.3804271110275,l,1.0287822750105988,1,251,1,1601.4315866190009,1602.9333511410223,,,,,,,,,,,,,,,,,,,,,,,,,,,,,,,,,,,,,,,,,,,,,,,,,,,,,,,,,,,,,,,,,,,,,,25738,2022-11-15_10h21.35.732,vts_reward_expectancy_bt_OFFLINE,2022.2.4,59.89784661745677,
0,0,1,0,0,0,0,1,hexagon,star,1,0,1,0,0,5,5,8,,,,,,,,,,,,,,,,,,,,,,,,,,,,,,,,,,,,,,,,1603.4342917020258,1603.4342917020258,1603.4342917020258,1603.4342917020258,1603.4342917020258,1603.4342917020258,1603.4342917020258,1603.4342917020258,1603.4342917020258,1603.4342917020258,a,1.3186883110029157,10,261,1,1604.7855737730279,1606.2869741440227,,,,,,,,,,,,,,,,,,,,,,,,,,,,,,,,,,,,,,,,,,,,,,,,,,,,,,,,,,,,,,,,,,,,,,25738,2022-11-15_10h21.35.732,vts_reward_expectancy_bt_OFFLINE,2022.2.4,59.89784661745677,
0,0,0,1,0,1,0,0,star ,circle,1,0,1,0,0,6,6,10,,,,,,,,,,,,,,,,,,,,,,,,,,,,,,,,,,,,,,,,1606.7879271970014,1606.7879271970014,1606.7879271970014,1606.7879271970014,1606.7879271970014,1606.7879271970014,1606.7879271970014,1606.7879271970014,1606.7879271970014,1606.7879271970014,a,1.135303577000741,10,271,1,1607.9555286790128,1609.457157981,,,,,,,,,,,,,,,,,,,,,,,,,,,,,,,,,,,,,,,,,,,,,,,,,,,,,,,,,,,,,,,,,,,,,,25738,2022-11-15_10h21.35.732,vts_reward_expectancy_bt_OFFLINE,2022.2.4,59.89784661745677,
0,0,1,0,0,1,0,0,hexagon,circle,1,0,1,0,0,7,7,7,,,,,,,,,,,,,,,,,,,,,,,,,,,,,,,,,,,,,,,,1609.957630918012,1609.957630918012,1609.957630918012,1609.957630918012,1609.957630918012,1609.957630918012,1609.957630918012,1609.957630918012,1609.957630918012,1609.957630918012,a,2.003526429005433,1,272,1,1611.9933191310265,1613.4948993020225,,,,,,,,,,,,,,,,,,,,,,,,,,,,,,,,,,,,,,,,,,,,,,,,,,,,,,,,,,,,,,,,,,,,,,25738,2022-11-15_10h21.35.732,vts_reward_expectancy_bt_OFFLINE,2022.2.4,59.89784661745677,
0,0,0,1,1,0,0,0,star,triangle,1,0,1,0,0,8,8,9,,,,,,,,,,,,,,,,,,,,,,,,,,,,,,,,,,,,,,,,1613.9954495310085,1613.9954495310085,1613.9954495310085,1613.9954495310085,1613.9954495310085,1613.9954495310085,1613.9954495310085,1613.9954495310085,1613.9954495310085,1613.9954495310085,a,2.1299295049975626,1,273,1,1616.147862605023,1617.6496963100217,,,,,,,,,,,,,,,,,,,,,,,,,,,,,,,,,,,,,,,,,,,,,,,,,,,,,,,,,,,,,,,,,,,,,,25738,2022-11-15_10h21.35.732,vts_reward_expectancy_bt_OFFLINE,2022.2.4,59.89784661745677,
0,0,0,1,0,0,1,0,star,hexagon,1,0,1,0,0,9,9,11,,,,,,,,,,,,,,,,,,,,,,,,,,,,,,,,,,,,,,,,1618.150476661016,1618.150476661016,1618.150476661016,1618.150476661016,1618.150476661016,1618.150476661016,1618.150476661016,1618.150476661016,1618.150476661016,1618.150476661016,a,1.3036438570125028,1,274,1,1619.4848246080219,1620.9869350120134,,,,,,,,,,,,,,,,,,,,,,,,,,,,,,,,,,,,,,,,,,,,,,,,,,,,,,,,,,,,,,,,,,,,,,25738,2022-11-15_10h21.35.732,vts_reward_expectancy_bt_OFFLINE,2022.2.4,59.89784661745677,
1,0,0,0,0,0,0,1,triangle,star,1,0,1,0,0,10,10,2,,,,,,,,,,,,,,,,,,,,,,,,,,,,,,,,,,,,,,,,1621.487322615023,1621.487322615023,1621.487322615023,1621.487322615023,1621.487322615023,1621.487322615023,1621.487322615023,1621.487322615023,1621.487322615023,1621.487322615023,a,2.197652726987144,1,275,1,1623.7061314849998,1625.207824631012,,,,,,,,,,,,,,,,,,,,,,,,,,,,,,,,,,,,,,,,,,,,,,,,,,,,,,,,,,,,,,,,,,,,,,25738,2022-11-15_10h21.35.732,vts_reward_expectancy_bt_OFFLINE,2022.2.4,59.89784661745677,
0,1,0,0,0,0,1,0,circle,hexagon,1,0,1,0,0,11,11,4,,,,,,,,,,,,,,,,,,,,,,,,,,,,,,,,,,,,,,,,1625.708435323002,1625.708435323002,1625.708435323002,1625.708435323002,1625.708435323002,1625.708435323002,1625.708435323002,1625.708435323002,1625.708435323002,1625.708435323002,l,5.48180545901414,10,285,1,1631.2145705120056,1632.716163351026,,,,,,,,,,,,,,,,,,,,,,,,,,,,,,,,,,,,,,,,,,,,,,,,,,,,,,,,,,,,,,,,,,,,,,25738,2022-11-15_10h21.35.732,vts_reward_expectancy_bt_OFFLINE,2022.2.4,59.89784661745677,
1,0,0,0,0,0,0,1,triangle,star,1,0,1,0,1,0,12,2,,,,,,,,,,,,,,,,,,,,,,,,,,,,,,,,,,,,,,,,1633.216919633007,1633.216919633007,1633.216919633007,1633.216919633007,1633.216919633007,1633.216919633007,1633.216919633007,1633.216919633007,1633.216919633007,1633.216919633007,l,1.1107904580130707,1,286,1,1634.3514488250075,1635.8529742310056,,,,,,,,,,,,,,,,,,,,,,,,,,,,,,,,,,,,,,,,,,,,,,,,,,,,,,,,,,,,,,,,,,,,,,25738,2022-11-15_10h21.35.732,vts_reward_expectancy_bt_OFFLINE,2022.2.4,59.89784661745677,
1,0,0,0,0,1,0,0,triangle,circle,1,0,1,0,1,1,13,0,,,,,,,,,,,,,,,,,,,,,,,,,,,,,,,,,,,,,,,,1636.353624232026,1636.353624232026,1636.353624232026,1636.353624232026,1636.353624232026,1636.353624232026,1636.353624232026,1636.353624232026,1636.353624232026,1636.353624232026,a,1.2932136860035826,10,296,1,1637.6720444480015,1639.173397444014,,,,,,,,,,,,,,,,,,,,,,,,,,,,,,,,,,,,,,,,,,,,,,,,,,,,,,,,,,,,,,,,,,,,,,25738,2022-11-15_10h21.35.732,vts_reward_expectancy_bt_OFFLINE,2022.2.4,59.89784661745677,
0,1,0,0,0,0,0,1,circle,star,1,0,1,0,1,2,14,5,,,,,,,,,,,,,,,,,,,,,,,,,,,,,,,,,,,,,,,,1639.6739861450042,1639.6739861450042,1639.6739861450042,1639.6739861450042,1639.6739861450042,1639.6739861450042,1639.6739861450042,1639.6739861450042,1639.6739861450042,1639.6739861450042,a,1.5612323509994894,1,297,1,1641.2579080470023,1642.7607373210194,,,,,,,,,,,,,,,,,,,,,,,,,,,,,,,,,,,,,,,,,,,,,,,,,,,,,,,,,,,,,,,,,,,,,,25738,2022-11-15_10h21.35.732,vts_reward_expectancy_bt_OFFLINE,2022.2.4,59.89784661745677,
0,0,1,0,1,0,0,0,hexagon,triangle,1,0,1,0,1,3,15,6,,,,,,,,,,,,,,,,,,,,,,,,,,,,,,,,,,,,,,,,1643.2612790700223,1643.2612790700223,1643.2612790700223,1643.2612790700223,1643.2612790700223,1643.2612790700223,1643.2612790700223,1643.2612790700223,1643.2612790700223,1643.2612790700223,a,0.9571176790050231,10,307,1,1644.2459691149998,1645.7472832080093,,,,,,,,,,,,,,,,,,,,,,,,,,,,,,,,,,,,,,,,,,,,,,,,,,,,,,,,,,,,,,,,,,,,,,25738,2022-11-15_10h21.35.732,vts_reward_expectancy_bt_OFFLINE,2022.2.4,59.89784661745677,
0,0,0,1,0,1,0,0,star ,circle,1,0,1,0,1,4,16,10,,,,,,,,,,,,,,,,,,,,,,,,,,,,,,,,,,,,,,,,1646.2480562430283,1646.2480562430283,1646.2480562430283,1646.2480562430283,1646.2480562430283,1646.2480562430283,1646.2480562430283,1646.2480562430283,1646.2480562430283,1646.2480562430283,a,1.0402482229983434,10,317,1,1647.3157546300208,1648.817574560002,,,,,,,,,,,,,,,,,,,,,,,,,,,,,,,,,,,,,,,,,,,,,,,,,,,,,,,,,,,,,,,,,,,,,,25738,2022-11-15_10h21.35.732,vts_reward_expectancy_bt_OFFLINE,2022.2.4,59.89784661745677,
0,0,1,0,0,0,0,1,hexagon,star,1,0,1,0,1,5,17,8,,,,,,,,,,,,,,,,,,,,,,,,,,,,,,,,,,,,,,,,1649.3178796190186,1649.3178796190186,1649.3178796190186,1649.3178796190186,1649.3178796190186,1649.3178796190186,1649.3178796190186,1649.3178796190186,1649.3178796190186,1649.3178796190186,a,1.479965339996852,1,318,1,1650.8195347830188,1652.3213484610023,,,,,,,,,,,,,,,,,,,,,,,,,,,,,,,,,,,,,,,,,,,,,,,,,,,,,,,,,,,,,,,,,,,,,,25738,2022-11-15_10h21.35.732,vts_reward_expectancy_bt_OFFLINE,2022.2.4,59.89784661745677,
0,0,1,0,0,1,0,0,hexagon,circle,1,0,1,0,1,6,18,7,,,,,,,,,,,,,,,,,,,,,,,,,,,,,,,,,,,,,,,,1652.822014638019,1652.822014638019,1652.822014638019,1652.822014638019,1652.822014638019,1652.822014638019,1652.822014638019,1652.822014638019,1652.822014638019,1652.822014638019,a,0.8570163850090466,1,319,1,1653.7061750660068,1655.2077225460089,,,,,,,,,,,,,,,,,,,,,,,,,,,,,,,,,,,,,,,,,,,,,,,,,,,,,,,,,,,,,,,,,,,,,,25738,2022-11-15_10h21.35.732,vts_reward_expectancy_bt_OFFLINE,2022.2.4,59.89784661745677,
0,0,0,1,1,0,0,0,star,triangle,1,0,1,0,1,7,19,9,,,,,,,,,,,,,,,,,,,,,,,,,,,,,,,,,,,,,,,,1655.708474938001,1655.708474938001,1655.708474938001,1655.708474938001,1655.708474938001,1655.708474938001,1655.708474938001,1655.708474938001,1655.708474938001,1655.708474938001,l,1.5821745409921277,10,329,1,1657.3100514290272,1658.8116368860065,,,,,,,,,,,,,,,,,,,,,,,,,,,,,,,,,,,,,,,,,,,,,,,,,,,,,,,,,,,,,,,,,,,,,,25738,2022-11-15_10h21.35.732,vts_reward_expectancy_bt_OFFLINE,2022.2.4,59.89784661745677,
1,0,0,0,0,0,1,0,triangle,hexagon,1,0,1,0,1,8,20,1,,,,,,,,,,,,,,,,,,,,,,,,,,,,,,,,,,,,,,,,1659.3120476950135,1659.3120476950135,1659.3120476950135,1659.3120476950135,1659.3120476950135,1659.3120476950135,1659.3120476950135,1659.3120476950135,1659.3120476950135,1659.3120476950135,a,0.8122973120189272,10,339,1,1660.1463148390176,1661.648069567018,,,,,,,,,,,,,,,,,,,,,,,,,,,,,,,,,,,,,,,,,,,,,,,,,,,,,,,,,,,,,,,,,,,,,,25738,2022-11-15_10h21.35.732,vts_reward_expectancy_bt_OFFLINE,2022.2.4,59.89784661745677,
0,1,0,0,1,0,0,0,circle,triangle,1,0,1,0,1,9,21,3,,,,,,,,,,,,,,,,,,,,,,,,,,,,,,,,,,,,,,,,1662.148835756001,1662.148835756001,1662.148835756001,1662.148835756001,1662.148835756001,1662.148835756001,1662.148835756001,1662.148835756001,1662.148835756001,1662.148835756001,l,1.0697178910195362,10,349,1,1663.2501618420065,1664.7520299050084,,,,,,,,,,,,,,,,,,,,,,,,,,,,,,,,,,,,,,,,,,,,,,,,,,,,,,,,,,,,,,,,,,,,,,25738,2022-11-15_10h21.35.732,vts_reward_expectancy_bt_OFFLINE,2022.2.4,59.89784661745677,
0,1,0,0,0,0,1,0,circle,hexagon,1,0,1,0,1,10,22,4,,,,,,,,,,,,,,,,,,,,,,,,,,,,,,,,,,,,,,,,1665.2520004440157,1665.2520004440157,1665.2520004440157,1665.2520004440157,1665.2520004440157,1665.2520004440157,1665.2520004440157,1665.2520004440157,1665.2520004440157,1665.2520004440157,l,1.2189719849848188,10,359,1,1666.503550086025,1668.0052492400282,,,,,,,,,,,,,,,,,,,,,,,,,,,,,,,,,,,,,,,,,,,,,,,,,,,,,,,,,,,,,,,,,,,,,,25738,2022-11-15_10h21.35.732,vts_reward_expectancy_bt_OFFLINE,2022.2.4,59.89784661745677,
0,0,0,1,0,0,1,0,star,hexagon,1,0,1,0,1,11,23,11,,,,,,,,,,,,,,,,,,,,,,,,,,,,,,,,,,,,,,,,1668.5057467690203,1668.5057467690203,1668.5057467690203,1668.5057467690203,1668.5057467690203,1668.5057467690203,1668.5057467690203,1668.5057467690203,1668.5057467690203,1668.5057467690203,l,0.8566951789835002,10,369,1,1669.3901242690044,1670.891709499003,,,,,,,,,,,,,,,,,,,,,,,,,,,,,,,,,,,,,,,,,,,,,,,,,,,,,,,,,,,,,,,,,,,,,,25738,2022-11-15_10h21.35.732,vts_reward_expectancy_bt_OFFLINE,2022.2.4,59.89784661745677,
0,1,0,0,0,0,1,0,circle,hexagon,1,0,1,0,2,0,24,4,,,,,,,,,,,,,,,,,,,,,,,,,,,,,,,,,,,,,,,,1671.3922847570211,1671.3922847570211,1671.3922847570211,1671.3922847570211,1671.3922847570211,1671.3922847570211,1671.3922847570211,1671.3922847570211,1671.3922847570211,1671.3922847570211,l,1.018967808020534,10,379,1,1672.4433298310032,1673.9449049100222,,,,,,,,,,,,,,,,,,,,,,,,,,,,,,,,,,,,,,,,,,,,,,,,,,,,,,,,,,,,,,,,,,,,,,25738,2022-11-15_10h21.35.732,vts_reward_expectancy_bt_OFFLINE,2022.2.4,59.89784661745677,
1,0,0,0,0,1,0,0,triangle,circle,1,0,1,0,2,1,25,0,,,,,,,,,,,,,,,,,,,,,,,,,,,,,,,,,,,,,,,,1674.445500161004,1674.445500161004,1674.445500161004,1674.445500161004,1674.445500161004,1674.445500161004,1674.445500161004,1674.445500161004,1674.445500161004,1674.445500161004,a,0.7211044409777969,10,389,1,1675.1964092190028,1676.6980385980278,,,,,,,,,,,,,,,,,,,,,,,,,,,,,,,,,,,,,,,,,,,,,,,,,,,,,,,,,,,,,,,,,,,,,,25738,2022-11-15_10h21.35.732,vts_reward_expectancy_bt_OFFLINE,2022.2.4,59.89784661745677,
1,0,0,0,0,0,1,0,triangle,hexagon,1,0,1,0,2,2,26,1,,,,,,,,,,,,,,,,,,,,,,,,,,,,,,,,,,,,,,,,1677.1984835580224,1677.1984835580224,1677.1984835580224,1677.1984835580224,1677.1984835580224,1677.1984835580224,1677.1984835580224,1677.1984835580224,1677.1984835580224,1677.1984835580224,a,0.7688269529899117,10,399,1,1677.9995458660123,1679.5012052690145,,,,,,,,,,,,,,,,,,,,,,,,,,,,,,,,,,,,,,,,,,,,,,,,,,,,,,,,,,,,,,,,,,,,,,25738,2022-11-15_10h21.35.732,vts_reward_expectancy_bt_OFFLINE,2022.2.4,59.89784661745677,
0,0,1,0,1,0,0,0,hexagon,triangle,1,0,1,0,2,3,27,6,,,,,,,,,,,,,,,,,,,,,,,,,,,,,,,,,,,,,,,,1680.0015503300237,1680.0015503300237,1680.0015503300237,1680.0015503300237,1680.0015503300237,1680.0015503300237,1680.0015503300237,1680.0015503300237,1680.0015503300237,1680.0015503300237,l,1.2074106520158239,10,409,1,1681.2364968570182,1682.7378753080266,,,,,,,,,,,,,,,,,,,,,,,,,,,,,,,,,,,,,,,,,,,,,,,,,,,,,,,,,,,,,,,,,,,,,,25738,2022-11-15_10h21.35.732,vts_reward_expectancy_bt_OFFLINE,2022.2.4,59.89784661745677,
0,0,0,1,0,0,1,0,star,hexagon,1,0,1,0,2,4,28,11,,,,,,,,,,,,,,,,,,,,,,,,,,,,,,,,,,,,,,,,1683.2384469370008,1683.2384469370008,1683.2384469370008,1683.2384469370008,1683.2384469370008,1683.2384469370008,1683.2384469370008,1683.2384469370008,1683.2384469370008,1683.2384469370008,a,0.9070654190145433,10,419,1,1684.17292665501,1685.6746194070147,,,,,,,,,,,,,,,,,,,,,,,,,,,,,,,,,,,,,,,,,,,,,,,,,,,,,,,,,,,,,,,,,,,,,,25738,2022-11-15_10h21.35.732,vts_reward_expectancy_bt_OFFLINE,2022.2.4,59.89784661745677,
0,1,0,0,0,0,0,1,circle,star,1,0,1,0,2,5,29,5,,,,,,,,,,,,,,,,,,,,,,,,,,,,,,,,,,,,,,,,1686.1750374590047,1686.1750374590047,1686.1750374590047,1686.1750374590047,1686.1750374590047,1686.1750374590047,1686.1750374590047,1686.1750374590047,1686.1750374590047,1686.1750374590047,l,1.3898683419974986,10,429,1,1687.5935301160207,1689.0950990200217,,,,,,,,,,,,,,,,,,,,,,,,,,,,,,,,,,,,,,,,,,,,,,,,,,,,,,,,,,,,,,,,,,,,,,25738,2022-11-15_10h21.35.732,vts_reward_expectancy_bt_OFFLINE,2022.2.4,59.89784661745677,
0,1,0,0,1,0,0,0,circle,triangle,1,0,1,0,2,6,30,3,,,,,,,,,,,,,,,,,,,,,,,,,,,,,,,,,,,,,,,,1689.595790486026,1689.595790486026,1689.595790486026,1689.595790486026,1689.595790486026,1689.595790486026,1689.595790486026,1689.595790486026,1689.595790486026,1689.595790486026,l,0.9395417119958438,10,439,1,1690.5633263420023,1692.0649902480072,,,,,,,,,,,,,,,,,,,,,,,,,,,,,,,,,,,,,,,,,,,,,,,,,,,,,,,,,,,,,,,,,,,,,,25738,2022-11-15_10h21.35.732,vts_reward_expectancy_bt_OFFLINE,2022.2.4,59.89784661745677,
1,0,0,0,0,0,0,1,triangle,star,1,0,1,0,2,7,31,2,,,,,,,,,,,,,,,,,,,,,,,,,,,,,,,,,,,,,,,,1692.5654261660238,1692.5654261660238,1692.5654261660238,1692.5654261660238,1692.5654261660238,1692.5654261660238,1692.5654261660238,1692.5654261660238,1692.5654261660238,1692.5654261660238,a,0.7147692440194078,1,440,1,1693.2996823180001,1694.8013202650181,,,,,,,,,,,,,,,,,,,,,,,,,,,,,,,,,,,,,,,,,,,,,,,,,,,,,,,,,,,,,,,,,,,,,,25738,2022-11-15_10h21.35.732,vts_reward_expectancy_bt_OFFLINE,2022.2.4,59.89784661745677,
0,0,0,1,1,0,0,0,star,triangle,1,0,1,0,2,8,32,9,,,,,,,,,,,,,,,,,,,,,,,,,,,,,,,,,,,,,,,,1695.301909064001,1695.301909064001,1695.301909064001,1695.301909064001,1695.301909064001,1695.301909064001,1695.301909064001,1695.301909064001,1695.301909064001,1695.301909064001,a,1.1525021010020282,1,441,1,1696.4865003779996,1697.9882565760054,,,,,,,,,,,,,,,,,,,,,,,,,,,,,,,,,,,,,,,,,,,,,,,,,,,,,,,,,,,,,,,,,,,,,,25738,2022-11-15_10h21.35.732,vts_reward_expectancy_bt_OFFLINE,2022.2.4,59.89784661745677,
0,0,0,1,0,1,0,0,star ,circle,1,0,1,0,2,9,33,10,,,,,,,,,,,,,,,,,,,,,,,,,,,,,,,,,,,,,,,,1698.4889931550133,1698.4889931550133,1698.4889931550133,1698.4889931550133,1698.4889931550133,1698.4889931550133,1698.4889931550133,1698.4889931550133,1698.4889931550133,1698.4889931550133,l,2.0916262860118877,1,442,1,1700.6078766960127,1702.1093695870077,,,,,,,,,,,,,,,,,,,,,,,,,,,,,,,,,,,,,,,,,,,,,,,,,,,,,,,,,,,,,,,,,,,,,,25738,2022-11-15_10h21.35.732,vts_reward_expectancy_bt_OFFLINE,2022.2.4,59.89784661745677,
0,0,1,0,0,0,0,1,hexagon,star,1,0,1,0,2,10,34,8,,,,,,,,,,,,,,,,,,,,,,,,,,,,,,,,,,,,,,,,1702.610054444027,1702.610054444027,1702.610054444027,1702.610054444027,1702.610054444027,1702.610054444027,1702.610054444027,1702.610054444027,1702.610054444027,1702.610054444027,l,0.7390291600022465,1,443,1,1703.3775881820184,1704.879203242017,,,,,,,,,,,,,,,,,,,,,,,,,,,,,,,,,,,,,,,,,,,,,,,,,,,,,,,,,,,,,,,,,,,,,,25738,2022-11-15_10h21.35.732,vts_reward_expectancy_bt_OFFLINE,2022.2.4,59.89784661745677,
0,0,1,0,0,1,0,0,hexagon,circle,1,0,1,0,2,11,35,7,,,,,,,,,,,,,,,,,,,,,,,,,,,,,,,,,,,,,,,,1705.379679255013,1705.379679255013,1705.379679255013,1705.379679255013,1705.379679255013,1705.379679255013,1705.379679255013,1705.379679255013,1705.379679255013,1705.379679255013,a,1.3544234390137717,10,453,1,1706.7645554020128,1708.2665088170033,,,,,,,,,,,,,,,,,,,,,,,,,,,,,,,,,,,,,,,,,,,,,,,,,,,,,,,,,,,,,,,,,,,,,,25738,2022-11-15_10h21.35.732,vts_reward_expectancy_bt_OFFLINE,2022.2.4,59.89784661745677,
0,0,1,0,0,1,0,0,hexagon,circle,1,0,1,0,3,0,36,7,,,,,,,,,,,,,,,,,,,,,,,,,,,,,,,,,,,,,,,,1708.7670871070004,1708.7670871070004,1708.7670871070004,1708.7670871070004,1708.7670871070004,1708.7670871070004,1708.7670871070004,1708.7670871070004,1708.7670871070004,1708.7670871070004,a,0.8371159029775299,10,463,1,1709.6343086320267,1711.1360456560215,,,,,,,,,,,,,,,,,,,,,,,,,,,,,,,,,,,,,,,,,,,,,,,,,,,,,,,,,,,,,,,,,,,,,,25738,2022-11-15_10h21.35.732,vts_reward_expectancy_bt_OFFLINE,2022.2.4,59.89784661745677,
0,0,0,1,0,0,1,0,star,hexagon,1,0,1,0,3,1,37,11,,,,,,,,,,,,,,,,,,,,,,,,,,,,,,,,,,,,,,,,1711.636761066009,1711.636761066009,1711.636761066009,1711.636761066009,1711.636761066009,1711.636761066009,1711.636761066009,1711.636761066009,1711.636761066009,1711.636761066009,l,0.8145906759891659,1,464,1,1712.470851118007,1713.9725722440053,,,,,,,,,,,,,,,,,,,,,,,,,,,,,,,,,,,,,,,,,,,,,,,,,,,,,,,,,,,,,,,,,,,,,,25738,2022-11-15_10h21.35.732,vts_reward_expectancy_bt_OFFLINE,2022.2.4,59.89784661745677,
1,0,0,0,0,0,0,1,triangle,star,1,0,1,0,3,2,38,2,,,,,,,,,,,,,,,,,,,,,,,,,,,,,,,,,,,,,,,,1714.4731420630123,1714.4731420630123,1714.4731420630123,1714.4731420630123,1714.4731420630123,1714.4731420630123,1714.4731420630123,1714.4731420630123,1714.4731420630123,1714.4731420630123,a,1.1501444579917006,1,465,1,1715.6413364740147,1717.142785584001,1717.142785584001,,,,,,,,,,,,,,,,,,,,,,,,,,,,,,,,,,,,,,,,,,,,,,,,,,,,,,,,,,,,,,,,,,,,,25738,2022-11-15_10h21.35.732,vts_reward_expectancy_bt_OFFLINE,2022.2.4,59.89784661745677,
1,0,0,0,0,1,0,0,triangle,circle,1,0,1,0,3,3,39,0,,,,,,,,,,,,,,,,,,,,,,,,,,,,,,,,,,,,,,,,1717.6432629320188,1717.6432629320188,1717.6432629320188,1717.6432629320188,1717.6432629320188,1717.6432629320188,1717.6432629320188,1717.6432629320188,1717.6432629320188,1717.6432629320188,l,0.7133754690003116,1,466,1,1718.3774812870251,1719.8791828250105,,,,,,,,,,,,,,,,,,,,,,,,,,,,,,,,,,,,,,,,,,,,,,,,,,,,,,,,,,,,,,,,,,,,,,25738,2022-11-15_10h21.35.732,vts_reward_expectancy_bt_OFFLINE,2022.2.4,59.89784661745677,
0,1,0,0,0,0,1,0,circle,hexagon,1,0,1,0,3,4,40,4,,,,,,,,,,,,,,,,,,,,,,,,,,,,,,,,,,,,,,,,1720.3796307590092,1720.3796307590092,1720.3796307590092,1720.3796307590092,1720.3796307590092,1720.3796307590092,1720.3796307590092,1720.3796307590092,1720.3796307590092,1720.3796307590092,a,1.9031790530134458,10,476,1,1722.315154490003,1723.8165927049995,,,,,,,,,,,,,,,,,,,,,,,,,,,,,,,,,,,,,,,,,,,,,,,,,,,,,,,,,,,,,,,,,,,,,,25738,2022-11-15_10h21.35.732,vts_reward_expectancy_bt_OFFLINE,2022.2.4,59.89784661745677,
1,0,0,0,0,0,1,0,triangle,hexagon,1,0,1,0,3,5,41,1,,,,,,,,,,,,,,,,,,,,,,,,,,,,,,,,,,,,,,,,1724.3172649210028,1724.3172649210028,1724.3172649210028,1724.3172649210028,1724.3172649210028,1724.3172649210028,1724.3172649210028,1724.3172649210028,1724.3172649210028,1724.3172649210028,a,0.6678316190082114,10,486,1,1725.0012721270032,1726.5030822890112,,,,,,,,,,,,,,,,,,,,,,,,,,,,,,,,,,,,,,,,,,,,,,,,,,,,,,,,,,,,,,,,,,,,,,25738,2022-11-15_10h21.35.732,vts_reward_expectancy_bt_OFFLINE,2022.2.4,59.89784661745677,
0,0,1,0,1,0,0,0,hexagon,triangle,1,0,1,0,3,6,42,6,,,,,,,,,,,,,,,,,,,,,,,,,,,,,,,,,,,,,,,,1727.0036448940227,1727.0036448940227,1727.0036448940227,1727.0036448940227,1727.0036448940227,1727.0036448940227,1727.0036448940227,1727.0036448940227,1727.0036448940227,1727.0036448940227,l,0.6686070449941326,1,487,1,1727.7043213070137,1729.2059269890015,,,,,,,,,,,,,,,,,,,,,,,,,,,,,,,,,,,,,,,,,,,,,,,,,,,,,,,,,,,,,,,,,,,,,,25738,2022-11-15_10h21.35.732,vts_reward_expectancy_bt_OFFLINE,2022.2.4,59.89784661745677,
0,0,0,1,0,1,0,0,star ,circle,1,0,1,0,3,7,43,10,,,,,,,,,,,,,,,,,,,,,,,,,,,,,,,,,,,,,,,,1729.7064371750166,1729.7064371750166,1729.7064371750166,1729.7064371750166,1729.7064371750166,1729.7064371750166,1729.7064371750166,1729.7064371750166,1729.7064371750166,1729.7064371750166,a,0.7908371450030245,1,488,1,1730.5240224980225,1732.0256917620136,,,,,,,,,,,,,,,,,,,,,,,,,,,,,,,,,,,,,,,,,,,,,,,,,,,,,,,,,,,,,,,,,,,,,,25738,2022-11-15_10h21.35.732,vts_reward_expectancy_bt_OFFLINE,2022.2.4,59.89784661745677,
0,0,0,1,1,0,0,0,star,triangle,1,0,1,0,3,8,44,9,,,,,,,,,,,,,,,,,,,,,,,,,,,,,,,,,,,,,,,,1732.5262656190025,1732.5262656190025,1732.5262656190025,1732.5262656190025,1732.5262656190025,1732.5262656190025,1732.5262656190025,1732.5262656190025,1732.5262656190025,1732.5262656190025,l,0.714719392999541,10,498,1,1733.2605326500197,1734.7621686100028,,,,,,,,,,,,,,,,,,,,,,,,,,,,,,,,,,,,,,,,,,,,,,,,,,,,,,,,,,,,,,,,,,,,,,25738,2022-11-15_10h21.35.732,vts_reward_expectancy_bt_OFFLINE,2022.2.4,59.89784661745677,
0,1,0,0,0,0,0,1,circle,star,1,0,1,0,3,9,45,5,,,,,,,,,,,,,,,,,,,,,,,,,,,,,,,,,,,,,,,,1735.2625453460205,1735.2625453460205,1735.2625453460205,1735.2625453460205,1735.2625453460205,1735.2625453460205,1735.2625453460205,1735.2625453460205,1735.2625453460205,1735.2625453460205,l,1.2294159450102597,10,508,1,1736.5140990940272,1738.015766985016,,,,,,,,,,,,,,,,,,,,,,,,,,,,,,,,,,,,,,,,,,,,,,,,,,,,,,,,,,,,,,,,,,,,,,25738,2022-11-15_10h21.35.732,vts_reward_expectancy_bt_OFFLINE,2022.2.4,59.89784661745677,
0,0,1,0,0,0,0,1,hexagon,star,1,0,1,0,3,10,46,8,,,,,,,,,,,,,,,,,,,,,,,,,,,,,,,,,,,,,,,,1738.5162880280113,1738.5162880280113,1738.5162880280113,1738.5162880280113,1738.5162880280113,1738.5162880280113,1738.5162880280113,1738.5162880280113,1738.5162880280113,1738.5162880280113,a,1.1831817140046041,10,518,1,1739.7175805080042,1741.219199638028,,,,,,,,,,,,,,,,,,,,,,,,,,,,,,,,,,,,,,,,,,,,,,,,,,,,,,,,,,,,,,,,,,,,,,25738,2022-11-15_10h21.35.732,vts_reward_expectancy_bt_OFFLINE,2022.2.4,59.89784661745677,
0,1,0,0,1,0,0,0,circle,triangle,1,0,1,0,3,11,47,3,,,,,,,,,,,,,,,,,,,,,,,,,,,,,,,,,,,,,,,,1741.7200029410014,1741.7200029410014,1741.7200029410014,1741.7200029410014,1741.7200029410014,1741.7200029410014,1741.7200029410014,1741.7200029410014,1741.7200029410014,1741.7200029410014,l,1.8260081500047818,1,519,1,1743.5718284989998,1745.0736425050127,,,,,,,,,,,,,,,,,,,,,,,,,,,,,,,,,,,,,,,,,,,,,,,,,,,,,,,,,,,,,,,,,,,,,,25738,2022-11-15_10h21.35.732,vts_reward_expectancy_bt_OFFLINE,2022.2.4,59.89784661745677,
0,0,0,1,1,0,0,0,star,triangle,2,0,2,0,0,0,0,9,,,,,,,,,,,,,,,,,,,,,,,,,,,,,,,,,,,,,,,,1760.9133784540172,1760.9133784540172,1760.9133784540172,1760.9133784540172,1760.9133784540172,1760.9133784540172,1760.9133784540172,1760.9133784540172,1760.9133784540172,1760.9133784540172,l,0.8239970410068054,10,529,2,1761.7587299010193,1763.2602890940034,,,,,,,,,,,,,,,,,,,,,,,,,,,,,,,,,,,,,,,,,,,,,,,,,,,,,,,,,,,,,,,,,,,,,,25738,2022-11-15_10h21.35.732,vts_reward_expectancy_bt_OFFLINE,2022.2.4,59.89784661745677,
1,0,0,0,0,1,0,0,triangle,circle,2,0,2,0,0,1,1,0,,,,,,,,,,,,,,,,,,,,,,,,,,,,,,,,,,,,,,,,1763.7609738419997,1763.7609738419997,1763.7609738419997,1763.7609738419997,1763.7609738419997,1763.7609738419997,1763.7609738419997,1763.7609738419997,1763.7609738419997,1763.7609738419997,l,1.2857188710186165,1,530,2,1765.0788892300043,1766.5808488230105,,,,,,,,,,,,,,,,,,,,,,,,,,,,,,,,,,,,,,,,,,,,,,,,,,,,,,,,,,,,,,,,,,,,,,25738,2022-11-15_10h21.35.732,vts_reward_expectancy_bt_OFFLINE,2022.2.4,59.89784661745677,
0,0,1,0,0,0,0,1,hexagon,star,2,0,2,0,0,2,2,8,,,,,,,,,,,,,,,,,,,,,,,,,,,,,,,,,,,,,,,,1767.0812463930051,1767.0812463930051,1767.0812463930051,1767.0812463930051,1767.0812463930051,1767.0812463930051,1767.0812463930051,1767.0812463930051,1767.0812463930051,1767.0812463930051,l,1.1590947580116335,1,531,2,1768.2658558399999,1769.767400015,,,,,,,,,,,,,,,,,,,,,,,,,,,,,,,,,,,,,,,,,,,,,,,,,,,,,,,,,,,,,,,,,,,,,,25738,2022-11-15_10h21.35.732,vts_reward_expectancy_bt_OFFLINE,2022.2.4,59.89784661745677,
1,0,0,0,0,0,0,1,triangle,star,2,0,2,0,0,3,3,2,,,,,,,,,,,,,,,,,,,,,,,,,,,,,,,,,,,,,,,,1770.267901640007,1770.267901640007,1770.267901640007,1770.267901640007,1770.267901640007,1770.267901640007,1770.267901640007,1770.267901640007,1770.267901640007,1770.267901640007,l,0.7857201400038321,10,541,2,1771.0856290200027,1772.5871000730258,,,,,,,,,,,,,,,,,,,,,,,,,,,,,,,,,,,,,,,,,,,,,,,,,,,,,,,,,,,,,,,,,,,,,,25738,2022-11-15_10h21.35.732,vts_reward_expectancy_bt_OFFLINE,2022.2.4,59.89784661745677,
0,0,0,1,0,1,0,0,star ,circle,2,0,2,0,0,4,4,10,,,,,,,,,,,,,,,,,,,,,,,,,,,,,,,,,,,,,,,,1773.0879448550113,1773.0879448550113,1773.0879448550113,1773.0879448550113,1773.0879448550113,1773.0879448550113,1773.0879448550113,1773.0879448550113,1773.0879448550113,1773.0879448550113,a,1.0598539230122697,10,551,2,1774.1722035700222,1775.6738053860026,,,,,,,,,,,,,,,,,,,,,,,,,,,,,,,,,,,,,,,,,,,,,,,,,,,,,,,,,,,,,,,,,,,,,,25738,2022-11-15_10h21.35.732,vts_reward_expectancy_bt_OFFLINE,2022.2.4,59.89784661745677,
1,0,0,0,0,0,1,0,triangle,hexagon,2,0,2,0,0,5,5,1,,,,,,,,,,,,,,,,,,,,,,,,,,,,,,,,,,,,,,,,1776.1744327990164,1776.1744327990164,1776.1744327990164,1776.1744327990164,1776.1744327990164,1776.1744327990164,1776.1744327990164,1776.1744327990164,1776.1744327990164,1776.1744327990164,l,0.9434987279819325,1,552,2,1777.1424200860201,1778.6437752250058,,,,,,,,,,,,,,,,,,,,,,,,,,,,,,,,,,,,,,,,,,,,,,,,,,,,,,,,,,,,,,,,,,,,,,25738,2022-11-15_10h21.35.732,vts_reward_expectancy_bt_OFFLINE,2022.2.4,59.89784661745677,
0,0,1,0,0,1,0,0,hexagon,circle,2,0,2,0,0,6,6,7,,,,,,,,,,,,,,,,,,,,,,,,,,,,,,,,,,,,,,,,1779.144670714013,1779.144670714013,1779.144670714013,1779.144670714013,1779.144670714013,1779.144670714013,1779.144670714013,1779.144670714013,1779.144670714013,1779.144670714013,l,1.36926632799441,1,553,2,1780.546104398003,1782.0476376890147,,,,,,,,,,,,,,,,,,,,,,,,,,,,,,,,,,,,,,,,,,,,,,,,,,,,,,,,,,,,,,,,,,,,,,25738,2022-11-15_10h21.35.732,vts_reward_expectancy_bt_OFFLINE,2022.2.4,59.89784661745677,
0,1,0,0,0,0,1,0,circle,hexagon,2,0,2,0,0,7,7,4,,,,,,,,,,,,,,,,,,,,,,,,,,,,,,,,,,,,,,,,1782.5483235450229,1782.5483235450229,1782.5483235450229,1782.5483235450229,1782.5483235450229,1782.5483235450229,1782.5483235450229,1782.5483235450229,1782.5483235450229,1782.5483235450229,a,0.735577359009767,1,554,2,1783.3157610660128,1784.8172777090222,,,,,,,,,,,,,,,,,,,,,,,,,,,,,,,,,,,,,,,,,,,,,,,,,,,,,,,,,,,,,,,,,,,,,,25738,2022-11-15_10h21.35.732,vts_reward_expectancy_bt_OFFLINE,2022.2.4,59.89784661745677,
0,0,1,0,1,0,0,0,hexagon,triangle,2,0,2,0,0,8,8,6,,,,,,,,,,,,,,,,,,,,,,,,,,,,,,,,,,,,,,,,1785.318151280022,1785.318151280022,1785.318151280022,1785.318151280022,1785.318151280022,1785.318151280022,1785.318151280022,1785.318151280022,1785.318151280022,1785.318151280022,l,0.5743163500155788,1,555,2,1785.9186531940068,1787.4200907150225,,,,,,,,,,,,,,,,,,,,,,,,,,,,,,,,,,,,,,,,,,,,,,,,,,,,,,,,,,,,,,,,,,,,,,25738,2022-11-15_10h21.35.732,vts_reward_expectancy_bt_OFFLINE,2022.2.4,59.89784661745677,
0,1,0,0,0,0,0,1,circle,star,2,0,2,0,0,9,9,5,,,,,,,,,,,,,,,,,,,,,,,,,,,,,,,,,,,,,,,,1787.9206552410033,1787.9206552410033,1787.9206552410033,1787.9206552410033,1787.9206552410033,1787.9206552410033,1787.9206552410033,1787.9206552410033,1787.9206552410033,1787.9206552410033,l,0.8625368450011592,10,565,2,1788.805107897002,1790.3066517870175,,,,,,,,,,,,,,,,,,,,,,,,,,,,,,,,,,,,,,,,,,,,,,,,,,,,,,,,,,,,,,,,,,,,,,25738,2022-11-15_10h21.35.732,vts_reward_expectancy_bt_OFFLINE,2022.2.4,59.89784661745677,
0,0,0,1,0,0,1,0,star,hexagon,2,0,2,0,0,10,10,11,,,,,,,,,,,,,,,,,,,,,,,,,,,,,,,,,,,,,,,,1790.8071735030098,1790.8071735030098,1790.8071735030098,1790.8071735030098,1790.8071735030098,1790.8071735030098,1790.8071735030098,1790.8071735030098,1790.8071735030098,1790.8071735030098,l,0.9239509420003742,10,575,2,1791.7582651410194,1793.2599162000115,,,,,,,,,,,,,,,,,,,,,,,,,,,,,,,,,,,,,,,,,,,,,,,,,,,,,,,,,,,,,,,,,,,,,,25738,2022-11-15_10h21.35.732,vts_reward_expectancy_bt_OFFLINE,2022.2.4,59.89784661745677,
0,1,0,0,1,0,0,0,circle,triangle,2,0,2,0,0,11,11,3,,,,,,,,,,,,,,,,,,,,,,,,,,,,,,,,,,,,,,,,1793.7607662000228,1793.7607662000228,1793.7607662000228,1793.7607662000228,1793.7607662000228,1793.7607662000228,1793.7607662000228,1793.7607662000228,1793.7607662000228,1793.7607662000228,l,0.7946506600128487,10,585,2,1794.578423250001,1796.0796046130126,,,,,,,,,,,,,,,,,,,,,,,,,,,,,,,,,,,,,,,,,,,,,,,,,,,,,,,,,,,,,,,,,,,,,,25738,2022-11-15_10h21.35.732,vts_reward_expectancy_bt_OFFLINE,2022.2.4,59.89784661745677,
0,0,1,0,0,1,0,0,hexagon,circle,2,0,2,0,1,0,12,7,,,,,,,,,,,,,,,,,,,,,,,,,,,,,,,,,,,,,,,,1796.5804433840094,1796.5804433840094,1796.5804433840094,1796.5804433840094,1796.5804433840094,1796.5804433840094,1796.5804433840094,1796.5804433840094,1796.5804433840094,1796.5804433840094,l,1.169720662990585,10,595,2,1797.7815745810221,1799.283135551028,,,,,,,,,,,,,,,,,,,,,,,,,,,,,,,,,,,,,,,,,,,,,,,,,,,,,,,,,,,,,,,,,,,,,,25738,2022-11-15_10h21.35.732,vts_reward_expectancy_bt_OFFLINE,2022.2.4,59.89784661745677,
0,0,0,1,0,1,0,0,star ,circle,2,0,2,0,1,1,13,10,,,,,,,,,,,,,,,,,,,,,,,,,,,,,,,,,,,,,,,,1799.783762158011,1799.783762158011,1799.783762158011,1799.783762158011,1799.783762158011,1799.783762158011,1799.783762158011,1799.783762158011,1799.783762158011,1799.783762158011,a,2.0391058759996668,10,605,2,1801.8527221020195,1803.354517002008,,,,,,,,,,,,,,,,,,,,,,,,,,,,,,,,,,,,,,,,,,,,,,,,,,,,,,,,,,,,,,,,,,,,,,25738,2022-11-15_10h21.35.732,vts_reward_expectancy_bt_OFFLINE,2022.2.4,59.89784661745677,
0,0,0,1,0,0,1,0,star,hexagon,2,0,2,0,1,2,14,11,,,,,,,,,,,,,,,,,,,,,,,,,,,,,,,,,,,,,,,,1803.8550703040091,1803.8550703040091,1803.8550703040091,1803.8550703040091,1803.8550703040091,1803.8550703040091,1803.8550703040091,1803.8550703040091,1803.8550703040091,1803.8550703040091,a,0.8586773959978018,1,606,2,1804.7394906450063,1806.2410827810236,,,,,,,,,,,,,,,,,,,,,,,,,,,,,,,,,,,,,,,,,,,,,,,,,,,,,,,,,,,,,,,,,,,,,,25738,2022-11-15_10h21.35.732,vts_reward_expectancy_bt_OFFLINE,2022.2.4,59.89784661745677,
0,1,0,0,1,0,0,0,circle,triangle,2,0,2,0,1,3,15,3,,,,,,,,,,,,,,,,,,,,,,,,,,,,,,,,,,,,,,,,1806.7417891140212,1806.7417891140212,1806.7417891140212,1806.7417891140212,1806.7417891140212,1806.7417891140212,1806.7417891140212,1806.7417891140212,1806.7417891140212,1806.7417891140212,a,1.6281690020114183,1,607,2,1808.393245136016,1809.8948338699993,,,,,,,,,,,,,,,,,,,,,,,,,,,,,,,,,,,,,,,,,,,,,,,,,,,,,,,,,,,,,,,,,,,,,,25738,2022-11-15_10h21.35.732,vts_reward_expectancy_bt_OFFLINE,2022.2.4,59.89784661745677,
1,0,0,0,0,0,1,0,triangle,hexagon,2,0,2,0,1,4,16,1,,,,,,,,,,,,,,,,,,,,,,,,,,,,,,,,,,,,,,,,1810.395492577023,1810.395492577023,1810.395492577023,1810.395492577023,1810.395492577023,1810.395492577023,1810.395492577023,1810.395492577023,1810.395492577023,1810.395492577023,a,1.0356734459928703,10,617,2,1811.4634813020239,1812.9650528940256,,,,,,,,,,,,,,,,,,,,,,,,,,,,,,,,,,,,,,,,,,,,,,,,,,,,,,,,,,,,,,,,,,,,,,25738,2022-11-15_10h21.35.732,vts_reward_expectancy_bt_OFFLINE,2022.2.4,59.89784661745677,
0,1,0,0,0,0,1,0,circle,hexagon,2,0,2,0,1,5,17,4,,,,,,,,,,,,,,,,,,,,,,,,,,,,,,,,,,,,,,,,1813.465932495019,1813.465932495019,1813.465932495019,1813.465932495019,1813.465932495019,1813.465932495019,1813.465932495019,1813.465932495019,1813.465932495019,1813.465932495019,l,0.8574023680121172,1,618,2,1814.350110006024,1815.851486374013,,,,,,,,,,,,,,,,,,,,,,,,,,,,,,,,,,,,,,,,,,,,,,,,,,,,,,,,,,,,,,,,,,,,,,25738,2022-11-15_10h21.35.732,vts_reward_expectancy_bt_OFFLINE,2022.2.4,59.89784661745677,
0,0,1,0,1,0,0,0,hexagon,triangle,2,0,2,0,1,6,18,6,,,,,,,,,,,,,,,,,,,,,,,,,,,,,,,,,,,,,,,,1816.352222069021,1816.352222069021,1816.352222069021,1816.352222069021,1816.352222069021,1816.352222069021,1816.352222069021,1816.352222069021,1816.352222069021,1816.352222069021,a,1.0740329890104476,1,619,2,1817.4533373940212,1818.9550362790178,,,,,,,,,,,,,,,,,,,,,,,,,,,,,,,,,,,,,,,,,,,,,,,,,,,,,,,,,,,,,,,,,,,,,,25738,2022-11-15_10h21.35.732,vts_reward_expectancy_bt_OFFLINE,2022.2.4,59.89784661745677,
1,0,0,0,0,1,0,0,triangle,circle,2,0,2,0,1,7,19,0,,,,,,,,,,,,,,,,,,,,,,,,,,,,,,,,,,,,,,,,1819.455647875002,1819.455647875002,1819.455647875002,1819.455647875002,1819.455647875002,1819.455647875002,1819.455647875002,1819.455647875002,1819.455647875002,1819.455647875002,a,0.5028189620061312,1,620,2,1819.9894984100247,1821.4910700340115,,,,,,,,,,,,,,,,,,,,,,,,,,,,,,,,,,,,,,,,,,,,,,,,,,,,,,,,,,,,,,,,,,,,,,25738,2022-11-15_10h21.35.732,vts_reward_expectancy_bt_OFFLINE,2022.2.4,59.89784661745677,
0,1,0,0,0,0,0,1,circle,star,2,0,2,0,1,8,20,5,,,,,,,,,,,,,,,,,,,,,,,,,,,,,,,,,,,,,,,,1821.9916355150053,1821.9916355150053,1821.9916355150053,1821.9916355150053,1821.9916355150053,1821.9916355150053,1821.9916355150053,1821.9916355150053,1821.9916355150053,1821.9916355150053,l,1.1749782770057209,1,621,2,1823.1927693250182,1824.69470266602,,,,,,,,,,,,,,,,,,,,,,,,,,,,,,,,,,,,,,,,,,,,,,,,,,,,,,,,,,,,,,,,,,,,,,25738,2022-11-15_10h21.35.732,vts_reward_expectancy_bt_OFFLINE,2022.2.4,59.89784661745677,
0,0,0,1,1,0,0,0,star,triangle,2,0,2,0,1,9,21,9,,,,,,,,,,,,,,,,,,,,,,,,,,,,,,,,,,,,,,,,1825.19510597302,1825.19510597302,1825.19510597302,1825.19510597302,1825.19510597302,1825.19510597302,1825.19510597302,1825.19510597302,1825.19510597302,1825.19510597302,l,1.1423383509973064,10,631,2,1826.3631057810271,1827.8646826900076,,,,,,,,,,,,,,,,,,,,,,,,,,,,,,,,,,,,,,,,,,,,,,,,,,,,,,,,,,,,,,,,,,,,,,25738,2022-11-15_10h21.35.732,vts_reward_expectancy_bt_OFFLINE,2022.2.4,59.89784661745677,
0,0,1,0,0,0,0,1,hexagon,star,2,0,2,0,1,10,22,8,,,,,,,,,,,,,,,,,,,,,,,,,,,,,,,,,,,,,,,,1828.365256791003,1828.365256791003,1828.365256791003,1828.365256791003,1828.365256791003,1828.365256791003,1828.365256791003,1828.365256791003,1828.365256791003,1828.365256791003,l,1.0200404440111015,10,641,2,1829.416462402005,1830.9181740190252,,,,,,,,,,,,,,,,,,,,,,,,,,,,,,,,,,,,,,,,,,,,,,,,,,,,,,,,,,,,,,,,,,,,,,25738,2022-11-15_10h21.35.732,vts_reward_expectancy_bt_OFFLINE,2022.2.4,59.89784661745677,
1,0,0,0,0,0,0,1,triangle,star,2,0,2,0,1,11,23,2,,,,,,,,,,,,,,,,,,,,,,,,,,,,,,,,,,,,,,,,1831.4187390000152,1831.4187390000152,1831.4187390000152,1831.4187390000152,1831.4187390000152,1831.4187390000152,1831.4187390000152,1831.4187390000152,1831.4187390000152,1831.4187390000152,a,1.0270046020159498,1,642,2,1832.4699726830004,1833.9715518000012,,,,,,,,,,,,,,,,,,,,,,,,,,,,,,,,,,,,,,,,,,,,,,,,,,,,,,,,,,,,,,,,,,,,,,25738,2022-11-15_10h21.35.732,vts_reward_expectancy_bt_OFFLINE,2022.2.4,59.89784661745677,
0,0,1,0,0,1,0,0,hexagon,circle,2,0,2,0,2,0,24,7,,,,,,,,,,,,,,,,,,,,,,,,,,,,,,,,,,,,,,,,1834.4722749600187,1834.4722749600187,1834.4722749600187,1834.4722749600187,1834.4722749600187,1834.4722749600187,1834.4722749600187,1834.4722749600187,1834.4722749600187,1834.4722749600187,l,0.6183802869927604,10,652,2,1835.122838287003,1836.624739869003,,,,,,,,,,,,,,,,,,,,,,,,,,,,,,,,,,,,,,,,,,,,,,,,,,,,,,,,,,,,,,,,,,,,,,25738,2022-11-15_10h21.35.732,vts_reward_expectancy_bt_OFFLINE,2022.2.4,59.89784661745677,
0,0,0,1,1,0,0,0,star,triangle,2,0,2,0,2,1,25,9,,,,,,,,,,,,,,,,,,,,,,,,,,,,,,,,,,,,,,,,1837.1250811110076,1837.1250811110076,1837.1250811110076,1837.1250811110076,1837.1250811110076,1837.1250811110076,1837.1250811110076,1837.1250811110076,1837.1250811110076,1837.1250811110076,l,0.7893308500060812,1,653,2,1837.942607184028,1839.4445551330282,,,,,,,,,,,,,,,,,,,,,,,,,,,,,,,,,,,,,,,,,,,,,,,,,,,,,,,,,,,,,,,,,,,,,,25738,2022-11-15_10h21.35.732,vts_reward_expectancy_bt_OFFLINE,2022.2.4,59.89784661745677,
0,0,1,0,1,0,0,0,hexagon,triangle,2,0,2,0,2,2,26,6,,,,,,,,,,,,,,,,,,,,,,,,,,,,,,,,,,,,,,,,1839.9447762100026,1839.9447762100026,1839.9447762100026,1839.9447762100026,1839.9447762100026,1839.9447762100026,1839.9447762100026,1839.9447762100026,1839.9447762100026,1839.9447762100026,l,1.9063384409819264,1,654,2,1841.8803938420024,1843.3818679100077,,,,,,,,,,,,,,,,,,,,,,,,,,,,,,,,,,,,,,,,,,,,,,,,,,,,,,,,,,,,,,,,,,,,,,25738,2022-11-15_10h21.35.732,vts_reward_expectancy_bt_OFFLINE,2022.2.4,59.89784661745677,
0,0,0,1,0,1,0,0,star ,circle,2,0,2,0,2,3,27,10,,,,,,,,,,,,,,,,,,,,,,,,,,,,,,,,,,,,,,,,1843.8826790670282,1843.8826790670282,1843.8826790670282,1843.8826790670282,1843.8826790670282,1843.8826790670282,1843.8826790670282,1843.8826790670282,1843.8826790670282,1843.8826790670282,l,0.8267185850127134,10,664,2,1844.7334416340163,1846.235267356009,,,,,,,,,,,,,,,,,,,,,,,,,,,,,,,,,,,,,,,,,,,,,,,,,,,,,,,,,,,,,,,,,,,,,,25738,2022-11-15_10h21.35.732,vts_reward_expectancy_bt_OFFLINE,2022.2.4,59.89784661745677,
0,1,0,0,0,0,1,0,circle,hexagon,2,0,2,0,2,4,28,4,,,,,,,,,,,,,,,,,,,,,,,,,,,,,,,,,,,,,,,,1846.7355848540028,1846.7355848540028,1846.7355848540028,1846.7355848540028,1846.7355848540028,1846.7355848540028,1846.7355848540028,1846.7355848540028,1846.7355848540028,1846.7355848540028,l,2.136806139984401,1,665,2,1848.9048644530121,1850.4064056630014,,,,,,,,,,,,,,,,,,,,,,,,,,,,,,,,,,,,,,,,,,,,,,,,,,,,,,,,,,,,,,,,,,,,,,25738,2022-11-15_10h21.35.732,vts_reward_expectancy_bt_OFFLINE,2022.2.4,59.89784661745677,
1,0,0,0,0,0,1,0,triangle,hexagon,2,0,2,0,2,5,29,1,,,,,,,,,,,,,,,,,,,,,,,,,,,,,,,,,,,,,,,,1850.9071741480147,1850.9071741480147,1850.9071741480147,1850.9071741480147,1850.9071741480147,1850.9071741480147,1850.9071741480147,1850.9071741480147,1850.9071741480147,1850.9071741480147,l,1.2374494789983146,10,675,2,1852.1751582350116,1853.6765843419998,,,,,,,,,,,,,,,,,,,,,,,,,,,,,,,,,,,,,,,,,,,,,,,,,,,,,,,,,,,,,,,,,,,,,,25738,2022-11-15_10h21.35.732,vts_reward_expectancy_bt_OFFLINE,2022.2.4,59.89784661745677,
1,0,0,0,0,0,0,1,triangle,star,2,0,2,0,2,6,30,2,,,,,,,,,,,,,,,,,,,,,,,,,,,,,,,,,,,,,,,,1854.1772222820146,1854.1772222820146,1854.1772222820146,1854.1772222820146,1854.1772222820146,1854.1772222820146,1854.1772222820146,1854.1772222820146,1854.1772222820146,1854.1772222820146,a,0.9518369500001427,10,685,2,1855.161670431,1856.6633532870037,,,,,,,,,,,,,,,,,,,,,,,,,,,,,,,,,,,,,,,,,,,,,,,,,,,,,,,,,,,,,,,,,,,,,,25738,2022-11-15_10h21.35.732,vts_reward_expectancy_bt_OFFLINE,2022.2.4,59.89784661745677,
1,0,0,0,0,1,0,0,triangle,circle,2,0,2,0,2,7,31,0,,,,,,,,,,,,,,,,,,,,,,,,,,,,,,,,,,,,,,,,1857.1640245610033,1857.1640245610033,1857.1640245610033,1857.1640245610033,1857.1640245610033,1857.1640245610033,1857.1640245610033,1857.1640245610033,1857.1640245610033,1857.1640245610033,a,1.8674309040070511,10,695,2,1859.0491679480183,1860.5510042070237,1860.5510042070237,,,,,,,,,,,,,,,,,,,,,,,,,,,,,,,,,,,,,,,,,,,,,,,,,,,,,,,,,,,,,,,,,,,,,25738,2022-11-15_10h21.35.732,vts_reward_expectancy_bt_OFFLINE,2022.2.4,59.89784661745677,
0,0,0,1,0,0,1,0,star,hexagon,2,0,2,0,2,8,32,11,,,,,,,,,,,,,,,,,,,,,,,,,,,,,,,,,,,,,,,,1861.0513665930193,1861.0513665930193,1861.0513665930193,1861.0513665930193,1861.0513665930193,1861.0513665930193,1861.0513665930193,1861.0513665930193,1861.0513665930193,1861.0513665930193,a,0.9938238799804822,10,705,2,1862.0691786350217,1863.570950053021,,,,,,,,,,,,,,,,,,,,,,,,,,,,,,,,,,,,,,,,,,,,,,,,,,,,,,,,,,,,,,,,,,,,,,25738,2022-11-15_10h21.35.732,vts_reward_expectancy_bt_OFFLINE,2022.2.4,59.89784661745677,
0,0,1,0,0,0,0,1,hexagon,star,2,0,2,0,2,9,33,8,,,,,,,,,,,,,,,,,,,,,,,,,,,,,,,,,,,,,,,,1864.0714788000041,1864.0714788000041,1864.0714788000041,1864.0714788000041,1864.0714788000041,1864.0714788000041,1864.0714788000041,1864.0714788000041,1864.0714788000041,1864.0714788000041,l,0.6854229309828952,1,706,2,1864.788885012007,1866.2904977690196,,,,,,,,,,,,,,,,,,,,,,,,,,,,,,,,,,,,,,,,,,,,,,,,,,,,,,,,,,,,,,,,,,,,,,25738,2022-11-15_10h21.35.732,vts_reward_expectancy_bt_OFFLINE,2022.2.4,59.89784661745677,
0,1,0,0,0,0,0,1,circle,star,2,0,2,0,2,10,34,5,,,,,,,,,,,,,,,,,,,,,,,,,,,,,,,,,,,,,,,,1866.7911737790273,1866.7911737790273,1866.7911737790273,1866.7911737790273,1866.7911737790273,1866.7911737790273,1866.7911737790273,1866.7911737790273,1866.7911737790273,1866.7911737790273,a,1.8248011390096508,10,716,2,1868.6433469470066,1870.1447540300142,,,,,,,,,,,,,,,,,,,,,,,,,,,,,,,,,,,,,,,,,,,,,,,,,,,,,,,,,,,,,,,,,,,,,,25738,2022-11-15_10h21.35.732,vts_reward_expectancy_bt_OFFLINE,2022.2.4,59.89784661745677,
0,1,0,0,1,0,0,0,circle,triangle,2,0,2,0,2,11,35,3,,,,,,,,,,,,,,,,,,,,,,,,,,,,,,,,,,,,,,,,1870.6453582690156,1870.6453582690156,1870.6453582690156,1870.6453582690156,1870.6453582690156,1870.6453582690156,1870.6453582690156,1870.6453582690156,1870.6453582690156,1870.6453582690156,a,0.6482564000179991,10,726,2,1871.312694770022,1872.814384082012,1872.814384082012,,,,,,,,,,,,,,,,,,,,,,,,,,,,,,,,,,,,,,,,,,,,,,,,,,,,,,,,,,,,,,,,,,,,,25738,2022-11-15_10h21.35.732,vts_reward_expectancy_bt_OFFLINE,2022.2.4,59.89784661745677,
0,1,0,0,0,0,1,0,circle,hexagon,2,0,2,0,3,0,36,4,,,,,,,,,,,,,,,,,,,,,,,,,,,,,,,,,,,,,,,,1873.3151584670122,1873.3151584670122,1873.3151584670122,1873.3151584670122,1873.3151584670122,1873.3151584670122,1873.3151584670122,1873.3151584670122,1873.3151584670122,1873.3151584670122,l,1.5108232290076558,10,736,2,1874.8501686820237,1876.3519108740147,,,,,,,,,,,,,,,,,,,,,,,,,,,,,,,,,,,,,,,,,,,,,,,,,,,,,,,,,,,,,,,,,,,,,,25738,2022-11-15_10h21.35.732,vts_reward_expectancy_bt_OFFLINE,2022.2.4,59.89784661745677,
1,0,0,0,0,0,1,0,triangle,hexagon,2,0,2,0,3,1,37,1,,,,,,,,,,,,,,,,,,,,,,,,,,,,,,,,,,,,,,,,1876.8523168890097,1876.8523168890097,1876.8523168890097,1876.8523168890097,1876.8523168890097,1876.8523168890097,1876.8523168890097,1876.8523168890097,1876.8523168890097,1876.8523168890097,a,0.7079774200101383,1,737,2,1877.5862214360095,1879.0879602290224,,,,,,,,,,,,,,,,,,,,,,,,,,,,,,,,,,,,,,,,,,,,,,,,,,,,,,,,,,,,,,,,,,,,,,25738,2022-11-15_10h21.35.732,vts_reward_expectancy_bt_OFFLINE,2022.2.4,59.89784661745677,
0,1,0,0,1,0,0,0,circle,triangle,2,0,2,0,3,2,38,3,,,,,,,,,,,,,,,,,,,,,,,,,,,,,,,,,,,,,,,,1879.5884042580146,1879.5884042580146,1879.5884042580146,1879.5884042580146,1879.5884042580146,1879.5884042580146,1879.5884042580146,1879.5884042580146,1879.5884042580146,1879.5884042580146,l,0.7947176550223958,10,747,2,1880.4060432730184,1881.9077290070127,,,,,,,,,,,,,,,,,,,,,,,,,,,,,,,,,,,,,,,,,,,,,,,,,,,,,,,,,,,,,,,,,,,,,,25738,2022-11-15_10h21.35.732,vts_reward_expectancy_bt_OFFLINE,2022.2.4,59.89784661745677,
1,0,0,0,0,0,0,1,triangle,star,2,0,2,0,3,3,39,2,,,,,,,,,,,,,,,,,,,,,,,,,,,,,,,,,,,,,,,,1882.4082870350103,1882.4082870350103,1882.4082870350103,1882.4082870350103,1882.4082870350103,1882.4082870350103,1882.4082870350103,1882.4082870350103,1882.4082870350103,1882.4082870350103,a,1.1938748249958735,10,757,2,1883.6262363520218,1885.1279842680087,,,,,,,,,,,,,,,,,,,,,,,,,,,,,,,,,,,,,,,,,,,,,,,,,,,,,,,,,,,,,,,,,,,,,,25738,2022-11-15_10h21.35.732,vts_reward_expectancy_bt_OFFLINE,2022.2.4,59.89784661745677,
0,0,1,0,0,1,0,0,hexagon,circle,2,0,2,0,3,4,40,7,,,,,,,,,,,,,,,,,,,,,,,,,,,,,,,,,,,,,,,,1885.6285743180197,1885.6285743180197,1885.6285743180197,1885.6285743180197,1885.6285743180197,1885.6285743180197,1885.6285743180197,1885.6285743180197,1885.6285743180197,1885.6285743180197,l,1.12462772600702,1,758,2,1886.7797629440029,1888.2816794430255,,,,,,,,,,,,,,,,,,,,,,,,,,,,,,,,,,,,,,,,,,,,,,,,,,,,,,,,,,,,,,,,,,,,,,25738,2022-11-15_10h21.35.732,vts_reward_expectancy_bt_OFFLINE,2022.2.4,59.89784661745677,
0,0,1,0,0,0,0,1,hexagon,star,2,0,2,0,3,5,41,8,,,,,,,,,,,,,,,,,,,,,,,,,,,,,,,,,,,,,,,,1888.7820183920267,1888.7820183920267,1888.7820183920267,1888.7820183920267,1888.7820183920267,1888.7820183920267,1888.7820183920267,1888.7820183920267,1888.7820183920267,1888.7820183920267,a,1.2539359469956253,10,768,2,1890.0667004220013,1891.568688919011,,,,,,,,,,,,,,,,,,,,,,,,,,,,,,,,,,,,,,,,,,,,,,,,,,,,,,,,,,,,,,,,,,,,,,25738,2022-11-15_10h21.35.732,vts_reward_expectancy_bt_OFFLINE,2022.2.4,59.89784661745677,
0,1,0,0,0,0,0,1,circle,star,2,0,2,0,3,6,42,5,,,,,,,,,,,,,,,,,,,,,,,,,,,,,,,,,,,,,,,,1892.0691505630093,1892.0691505630093,1892.0691505630093,1892.0691505630093,1892.0691505630093,1892.0691505630093,1892.0691505630093,1892.0691505630093,1892.0691505630093,1892.0691505630093,a,0.8141197910008486,1,769,2,1892.9041076910216,1894.404933385027,1894.404933385027,,,,,,,,,,,,,,,,,,,,,,,,,,,,,,,,,,,,,,,,,,,,,,,,,,,,,,,,,,,,,,,,,,,,,25738,2022-11-15_10h21.35.732,vts_reward_expectancy_bt_OFFLINE,2022.2.4,59.89784661745677,
0,0,1,0,1,0,0,0,hexagon,triangle,2,0,2,0,3,7,43,6,,,,,,,,,,,,,,,,,,,,,,,,,,,,,,,,,,,,,,,,1894.9054303050216,1894.9054303050216,1894.9054303050216,1894.9054303050216,1894.9054303050216,1894.9054303050216,1894.9054303050216,1894.9054303050216,1894.9054303050216,1894.9054303050216,a,0.8024325709848199,1,770,2,1895.739922675013,1897.2414517900033,,,,,,,,,,,,,,,,,,,,,,,,,,,,,,,,,,,,,,,,,,,,,,,,,,,,,,,,,,,,,,,,,,,,,,25738,2022-11-15_10h21.35.732,vts_reward_expectancy_bt_OFFLINE,2022.2.4,59.89784661745677,
0,0,0,1,1,0,0,0,star,triangle,2,0,2,0,3,8,44,9,,,,,,,,,,,,,,,,,,,,,,,,,,,,,,,,,,,,,,,,1897.7420330610184,1897.7420330610184,1897.7420330610184,1897.7420330610184,1897.7420330610184,1897.7420330610184,1897.7420330610184,1897.7420330610184,1897.7420330610184,1897.7420330610184,l,0.969375903980108,1,771,2,1898.743270514009,1900.2448473340191,,,,,,,,,,,,,,,,,,,,,,,,,,,,,,,,,,,,,,,,,,,,,,,,,,,,,,,,,,,,,,,,,,,,,,25738,2022-11-15_10h21.35.732,vts_reward_expectancy_bt_OFFLINE,2022.2.4,59.89784661745677,
1,0,0,0,0,1,0,0,triangle,circle,2,0,2,0,3,9,45,0,,,,,,,,,,,,,,,,,,,,,,,,,,,,,,,,,,,,,,,,1900.7453600200242,1900.7453600200242,1900.7453600200242,1900.7453600200242,1900.7453600200242,1900.7453600200242,1900.7453600200242,1900.7453600200242,1900.7453600200242,1900.7453600200242,l,0.6533508890133817,10,781,2,1901.429296605027,1902.930883751018,,,,,,,,,,,,,,,,,,,,,,,,,,,,,,,,,,,,,,,,,,,,,,,,,,,,,,,,,,,,,,,,,,,,,,25738,2022-11-15_10h21.35.732,vts_reward_expectancy_bt_OFFLINE,2022.2.4,59.89784661745677,
0,0,0,1,0,0,1,0,star,hexagon,2,0,2,0,3,10,46,11,,,,,,,,,,,,,,,,,,,,,,,,,,,,,,,,,,,,,,,,1903.4313931570214,1903.4313931570214,1903.4313931570214,1903.4313931570214,1903.4313931570214,1903.4313931570214,1903.4313931570214,1903.4313931570214,1903.4313931570214,1903.4313931570214,a,1.0858432699751575,1,782,2,1904.5493688010029,1906.0508843860007,,,,,,,,,,,,,,,,,,,,,,,,,,,,,,,,,,,,,,,,,,,,,,,,,,,,,,,,,,,,,,,,,,,,,,25738,2022-11-15_10h21.35.732,vts_reward_expectancy_bt_OFFLINE,2022.2.4,59.89784661745677,
0,0,0,1,0,1,0,0,star ,circle,2,0,2,0,3,11,47,10,,,,,,,,,,,,,,,,,,,,,,,,,,,,,,,,,,,,,,,,1906.5515171940206,1906.5515171940206,1906.5515171940206,1906.5515171940206,1906.5515171940206,1906.5515171940206,1906.5515171940206,1906.5515171940206,1906.5515171940206,1906.5515171940206,a,0.9126797160133719,1,783,2,1907.4862708530272,1908.987634220015,,,,,,,,,,,,,,,,,,,,,,,,,,,,,,,,,,,,,,,,,,,,,,,,,,,,,,,,,,,,,,,,,,,,,,25738,2022-11-15_10h21.35.732,vts_reward_expectancy_bt_OFFLINE,2022.2.4,59.89784661745677,
,,,,,,,,,,,,,,,,,,0,0,0,0,0,0,0,0,,,,,,,,,,,,,,,,,,,,,,,,,,,,,,,,,,,,,,,,,,,,,,,,2001.8232911790255,,,Y,139,triangle,0.0018155400175601244,1997.3644383470237,1998.8699285280018,1998.8699285280018,1998.8699285280018,1,0,f,1.4195198550005443,0,2000.3216153120156,,,,,,,,,,,,,,,,,,,,,,,,,,,,,,,,,,,,,,,,,,,,,,,,,,,,,,25738,2022-11-15_10h21.35.732,vts_reward_expectancy_bt_OFFLINE,2022.2.4,59.89784661745677,
,,,,,,,,,,,,,,,,,,0,0,0,0,1,0,1,0,,,,,,,,,,,,,,,,,,,,,,,,,,,,,,,,,,,,,,,,,,,,,,,,2006.4451707110275,,,D,132,star,0.001614668988622725,2002.8017781210074,2004.3094029140193,2004.3094029140193,2004.3094029140193,1,0,d,0.6065450930036604,0,2004.943747694022,,,,,,,,,,,,,,,,,,,,,,,,,,,,,,,,,,,,,,,,,,,,,,,,,,,,,,25738,2022-11-15_10h21.35.732,vts_reward_expectancy_bt_OFFLINE,2022.2.4,59.89784661745677,
,,,,,,,,,,,,,,,,,,0,0,0,0,2,0,2,0,,,,,,,,,,,,,,,,,,,,,,,,,,,,,,,,,,,,,,,,,,,,,,,,2011.1001153670077,,,B,167,hexagon,0.0016582270036451519,2007.424518549,2008.9311911650002,2008.9311911650002,2008.9311911650002,1,0,d,0.6392332120158244,0,2009.5983926910267,,,,,,,,,,,,,,,,,,,,,,,,,,,,,,,,,,,,,,,,,,,,,,,,,,,,,,25738,2022-11-15_10h21.35.732,vts_reward_expectancy_bt_OFFLINE,2022.2.4,59.89784661745677,
,,,,,,,,,,,,,,,,,,0,0,0,0,3,0,3,0,,,,,,,,,,,,,,,,,,,,,,,,,,,,,,,,,,,,,,,,,,,,,,,,2015.6553609390103,,,W,146,circle,0.0017054649943020195,2012.07839095901,2013.5864496270078,2013.5864496270078,2013.5864496270078,1,0,f,0.542092057003174,0,2014.1536902960215,,,,,,,,,,,,,,,,,,,,,,,,,,,,,,,,,,,,,,,,,,,,,,,,,,,,,,25738,2022-11-15_10h21.35.732,vts_reward_expectancy_bt_OFFLINE,2022.2.4,59.89784661745677,
,,,,,,,,,,,,,,,,,,0,0,0,0,4,0,4,0,,,,,,,,,,,,,,,,,,,,,,,,,,,,,,,,,,,,,,,,,,,,,,,,2020.4441099640098,,,H,181,triangle,0.0016168779984582216,2016.6340675800166,2018.1413908560062,2018.1413908560062,2018.1413908560062,1,0,d,0.768932039005449,0,2018.9422585420252,,,,,,,,,,,,,,,,,,,,,,,,,,,,,,,,,,,,,,,,,,,,,,,,,,,,,,25738,2022-11-15_10h21.35.732,vts_reward_expectancy_bt_OFFLINE,2022.2.4,59.89784661745677,
,,,,,,,,,,,,,,,,,,0,0,0,0,5,0,5,0,,,,,,,,,,,,,,,,,,,,,,,,,,,,,,,,,,,,,,,,,,,,,,,,2025.3826164780185,,,U,160,star,0.0014176639961078763,2021.421933458012,2022.92990301401,2022.92990301401,2022.92990301401,1,0,f,0.9288847459829412,0,2023.8809904220107,,,,,,,,,,,,,,,,,,,,,,,,,,,,,,,,,,,,,,,,,,,,,,,,,,,,,,25738,2022-11-15_10h21.35.732,vts_reward_expectancy_bt_OFFLINE,2022.2.4,59.89784661745677,
,,,,,,,,,,,,,,,,,,0,0,0,0,6,0,6,0,,,,,,,,,,,,,,,,,,,,,,,,,,,,,,,,,,,,,,,,,,,,,,,,2030.1213212740258,,,S,125,circle,0.00186240000766702,2026.361162496003,2027.8687726300268,2027.8687726300268,2027.8687726300268,0,0,d,0.7266733399883378,0,2028.619717546011,,,,,,,,,,,,,,,,,,,,,,,,,,,,,,,,,,,,,,,,,,,,,,,,,,,,,,25738,2022-11-15_10h21.35.732,vts_reward_expectancy_bt_OFFLINE,2022.2.4,59.89784661745677,
,,,,,,,,,,,,,,,,,,0,0,0,0,7,0,7,0,,,,,,,,,,,,,,,,,,,,,,,,,,,,,,,,,,,,,,,,,,,,,,,,2034.9431619460229,,,F,174,hexagon,0.0012274059990886599,2031.0990182860114,2032.6073338290153,2032.6073338290153,2032.6073338290153,1,1,d,0.8151424070238136,0,2033.4415443160105,,,,,,,,,,,,,,,,,,,,,,,,,,,,,,,,,,,,,,,,,,,,,,,,,,,,,,25738,2022-11-15_10h21.35.732,vts_reward_expectancy_bt_OFFLINE,2022.2.4,59.89784661745677,
,,,,,,,,,,,,,,,,,,0,0,0,0,8,0,8,0,,,,,,,,,,,,,,,,,,,,,,,,,,,,,,,,,,,,,,,,,,,,,,,,2039.798679473024,,,Y,139,hexagon,0.000952782022068277,2035.9203685120156,2037.4293314430106,2037.4293314430106,2037.4293314430106,1,0,f,0.8420894260052592,0,2038.2969270250178,,,,,,,,,,,,,,,,,,,,,,,,,,,,,,,,,,,,,,,,,,,,,,,,,,,,,,25738,2022-11-15_10h21.35.732,vts_reward_expectancy_bt_OFFLINE,2022.2.4,59.89784661745677,
,,,,,,,,,,,,,,,,,,0,0,0,0,9,0,9,0,,,,,,,,,,,,,,,,,,,,,,,,,,,,,,,,,,,,,,,,,,,,,,,,2044.453849350015,,,D,132,triangle,0.0013861070037819445,2040.7754747010185,2042.2851587990008,2042.2851587990008,2042.2851587990008,1,0,d,0.6346136350184679,0,2042.9524440760142,,,,,,,,,,,,,,,,,,,,,,,,,,,,,,,,,,,,,,,,,,,,,,,,,,,,,,25738,2022-11-15_10h21.35.732,vts_reward_expectancy_bt_OFFLINE,2022.2.4,59.89784661745677,
,,,,,,,,,,,,,,,,,,,,,,,,,,0,0,0,0,0,0,0,0,,,,,,,,,,,,,,,,,,,,,,,,,,,,,,,,,,,,,,,,2069.481348761008,,,B,132,star,0.0020172009826637805,,,,,1,0,,,1,2067.9797179290035,2065.087160739,2066.594825519016,2066.594825519016,2066.594825519016,j,1.3540641040017363,,,,,,,,,,,,,,,,,,,,,,,,,,,,,,,,,,,,,,,,,,,,,,,,25738,2022-11-15_10h21.35.732,vts_reward_expectancy_bt_OFFLINE,2022.2.4,59.89784661745677,
,,,,,,,,,,,,,,,,,,,,,,,,,,0,0,0,0,1,0,1,0,,,,,,,,,,,,,,,,,,,,,,,,,,,,,,,,,,,,,,,,2074.0864256690256,,,W,181,triangle,0.0015815979859326035,,,,,1,0,,,1,2072.5848046140163,2070.4594941530086,2071.9674355600146,2071.9674355600146,2071.9674355600146,k,0.5847552699851803,,,,,,,,,,,,,,,,,,,,,,,,,,,,,,,,,,,,,,,,,,,,,,,,25738,2022-11-15_10h21.35.732,vts_reward_expectancy_bt_OFFLINE,2022.2.4,59.89784661745677,
,,,,,,,,,,,,,,,,,,,,,,,,,,0,0,0,0,2,0,2,0,,,,,,,,,,,,,,,,,,,,,,,,,,,,,,,,,,,,,,,,2078.8082499710144,,,H,125,circle,0.002119626005878672,,,,,1,0,,,1,2077.3066136030247,2075.0632818980084,2076.572388256027,2076.572388256027,2076.572388256027,j,0.7156498370168265,,,,,,,,,,,,,,,,,,,,,,,,,,,,,,,,,,,,,,,,,,,,,,,,25738,2022-11-15_10h21.35.732,vts_reward_expectancy_bt_OFFLINE,2022.2.4,59.89784661745677,
,,,,,,,,,,,,,,,,,,,,,,,,,,0,0,0,0,3,0,3,0,,,,,,,,,,,,,,,,,,,,,,,,,,,,,,,,,,,,,,,,2083.9972696610203,,,F,139,hexagon,0.0010470569832250476,,,,,1,0,,,1,2082.495723839005,2079.785979362001,2081.2944041550218,2081.2944041550218,2081.2944041550218,j,1.1694585350051057,,,,,,,,,,,,,,,,,,,,,,,,,,,,,,,,,,,,,,,,,,,,,,,,25738,2022-11-15_10h21.35.732,vts_reward_expectancy_bt_OFFLINE,2022.2.4,59.89784661745677,
,,,,,,,,,,,,,,,,,,,,,,,,,,0,0,0,0,4,0,4,0,,,,,,,,,,,,,,,,,,,,,,,,,,,,,,,,,,,,,,,,2088.802733309014,,,D,160,triangle,0.0019428569939918816,,,,,1,0,,,1,2087.3010656120023,2084.975694598019,2086.4833503900154,2086.4833503900154,2086.4833503900154,k,0.7935777429956943,,,,,,,,,,,,,,,,,,,,,,,,,,,,,,,,,,,,,,,,,,,,,,,,25738,2022-11-15_10h21.35.732,vts_reward_expectancy_bt_OFFLINE,2022.2.4,59.89784661745677,
,,,,,,,,,,,,,,,,,,,,,,,,,,0,0,0,0,5,0,5,0,,,,,,,,,,,,,,,,,,,,,,,,,,,,,,,,,,,,,,,,2093.824752504006,,,U,167,circle,0.0012067260104231536,,,,,1,0,,,1,2092.3234177600243,2089.7803217400215,2091.2885919620167,2091.2885919620167,2091.2885919620167,k,1.0063833379826974,,,,,,,,,,,,,,,,,,,,,,,,,,,,,,,,,,,,,,,,,,,,,,,,25738,2022-11-15_10h21.35.732,vts_reward_expectancy_bt_OFFLINE,2022.2.4,59.89784661745677,
,,,,,,,,,,,,,,,,,,,,,,,,,,0,0,0,0,6,0,6,0,,,,,,,,,,,,,,,,,,,,,,,,,,,,,,,,,,,,,,,,2098.4966921380255,,,S,146,star,0.001816481992136687,,,,,1,0,,,1,2096.995430435025,2094.8033895140106,2096.310987031,2096.310987031,2096.310987031,j,0.6525492490036413,,,,,,,,,,,,,,,,,,,,,,,,,,,,,,,,,,,,,,,,,,,,,,,,25738,2022-11-15_10h21.35.732,vts_reward_expectancy_bt_OFFLINE,2022.2.4,59.89784661745677,
,,,,,,,,,,,,,,,,,,,,,,,,,,0,0,0,0,7,0,7,0,,,,,,,,,,,,,,,,,,,,,,,,,,,,,,,,,,,,,,,,2103.168545185006,,,Y,174,hexagon,0.0016911670099943876,,,,,1,0,,,1,2101.6666943180026,2099.4741082390246,2100.9825741200184,2100.9825741200184,2100.9825741200184,k,0.6614185560029,,,,,,,,,,,,,,,,,,,,,,,,,,,,,,,,,,,,,,,,,,,,,,,,25738,2022-11-15_10h21.35.732,vts_reward_expectancy_bt_OFFLINE,2022.2.4,59.89784661745677,
,,,,,,,,,,,,,,,,,,,,,,,,,,0,0,0,0,8,0,8,0,,,,,,,,,,,,,,,,,,,,,,,,,,,,,,,,,,,,,,,,2108.140836000006,,,B,132,triangle,0.0017566359892953187,,,,,1,0,,,1,2106.6389490650035,2104.1445755360182,2105.6544412340154,2105.6544412340154,2105.6544412340154,j,0.9520498289784882,,,,,,,,,,,,,,,,,,,,,,,,,,,,,,,,,,,,,,,,,,,,,,,,25738,2022-11-15_10h21.35.732,vts_reward_expectancy_bt_OFFLINE,2022.2.4,59.89784661745677,
,,,,,,,,,,,,,,,,,,,,,,,,,,0,0,0,0,9,0,9,0,,,,,,,,,,,,,,,,,,,,,,,,,,,,,,,,,,,,,,,,2113.7634792250174,,,W,181,star,0.001612985011888668,,,,,1,0,,,1,2112.2618402650114,2109.118013242027,2110.6267695420247,2110.6267695420247,2110.6267695420247,k,1.6158333260100335,,,,,,,,,,,,,,,,,,,,,,,,,,,,,,,,,,,,,,,,,,,,,,,,25738,2022-11-15_10h21.35.732,vts_reward_expectancy_bt_OFFLINE,2022.2.4,59.89784661745677,
,,,,,,,,,,,,,,,,,,,,,,,,,,,,,,,,,,0,0,0,0,0,0,0,0,,,,,,,,,,,,,,,,,,,,,,,,,,,,0,783,,,2163.8186076350103,,,Y,125,triangle,0.0019663679995574057,,,,,1,0,,,2,,,,,,,,2159.259152960003,2159.259152960003,2159.259152960003,2159.259152960003,2160.7652780800126,2160.7652780800126,2160.7652780800126,2160.7652780800126,2160.7652780800126,2160.7652780800126,2160.7652780800126,2160.7652780800126,-1,letter,NA,f,1.529902801004937,vtsPrac,2162.317223016027,,,,,,,,,,,,,,,,,,,,,,,,,,,,,25738,2022-11-15_10h21.35.732,vts_reward_expectancy_bt_OFFLINE,2022.2.4,59.89784661745677,
,,,,,,,,,,,,,,,,,,,,,,,,,,,,,,,,,,0,0,0,0,1,0,1,0,,,,,,,,,,,,,,,,,,,,,,,,,,,,0,783,,,2169.041157779022,,,H,167,star,0.0013935700117144734,,,,,1,0,,,2,,,,,,,,2164.7982665490126,2164.7982665490126,2164.7982665490126,2164.7982665490126,2166.3046331620135,2166.3046331620135,2166.3046331620135,2166.3046331620135,2166.3046331620135,2166.3046331620135,2166.3046331620135,2166.3046331620135,repeat,letter,lettRpt,d,1.2101226090162527,vtsPrac,2167.539497346006,,,,,,,,,,,,,,,,,,,,,,,,,,,,,25738,2022-11-15_10h21.35.732,vts_reward_expectancy_bt_OFFLINE,2022.2.4,59.89784661745677,
,,,,,,,,,,,,,,,,,,,,,,,,,,,,,,,,,,0,0,0,0,2,0,2,0,,,,,,,,,,,,,,,,,,,,,,,,,,,,0,783,,,2174.313746515021,,,U,146,star,0.0018357220105826855,,,,,1,0,,,2,,,,,,,,2170.0194111810124,2170.0194111810124,2170.0194111810124,2170.0194111810124,2171.5272767580173,2171.5272767580173,2171.5272767580173,2171.5272767580173,2171.5272767580173,2171.5272767580173,2171.5272767580173,2171.5272767580173,switch,number,numSwt,j,1.2525137040065601,vtsPrac,2172.811903575028,,,,,,,,,,,,,,,,,,,,,,,,,,,,,25738,2022-11-15_10h21.35.732,vts_reward_expectancy_bt_OFFLINE,2022.2.4,59.89784661745677,
,,,,,,,,,,,,,,,,,,,,,,,,,,,,,,,,,,0,0,0,0,3,0,3,0,,,,,,,,,,,,,,,,,,,,,,,,,,,,0,783,,,2179.168968681013,,,B,132,hexagon,0.00165510197984986,,,,,1,0,,,2,,,,,,,,2175.2927491140144,2175.2927491140144,2175.2927491140144,2175.2927491140144,2176.799583263026,2176.799583263026,2176.799583263026,2176.799583263026,2176.799583263026,2176.799583263026,2176.799583263026,2176.799583263026,repeat,number,numRpt,j,0.8407263190019876,vtsPrac,2177.66734875401,,,,,,,,,,,,,,,,,,,,,,,,,,,,,25738,2022-11-15_10h21.35.732,vts_reward_expectancy_bt_OFFLINE,2022.2.4,59.89784661745677,
,,,,,,,,,,,,,,,,,,,,,,,,,,,,,,,,,,0,0,0,0,4,0,4,0,,,,,,,,,,,,,,,,,,,,,,,,,,,,0,783,,,2183.7910624040233,,,Y,125,star,0.001204322004923597,,,,,1,0,,,2,,,,,,,,2180.145817198005,2180.145817198005,2180.145817198005,2180.145817198005,2181.6553095460113,2181.6553095460113,2181.6553095460113,2181.6553095460113,2181.6553095460113,2181.6553095460113,2181.6553095460113,2181.6553095460113,repeat,number,numRpt,j,0.6084599310124759,vtsPrac,2182.2891065380245,,,,,,,,,,,,,,,,,,,,,,,,,,,,,25738,2022-11-15_10h21.35.732,vts_reward_expectancy_bt_OFFLINE,2022.2.4,59.89784661745677,
,,,,,,,,,,,,,,,,,,,,,,,,,,,,,,,,,,0,0,0,0,5,0,5,0,,,,,,,,,,,,,,,,,,,,,,,,,,,,0,783,,,2188.5627049260074,,,H,167,triangle,0.0016231570043601096,,,,,1,0,,,2,,,,,,,,2184.768530109024,2184.768530109024,2184.768530109024,2184.768530109024,2186.2769121710153,2186.2769121710153,2186.2769121710153,2186.2769121710153,2186.2769121710153,2186.2769121710153,2186.2769121710153,2186.2769121710153,repeat,number,numRpt,k,0.7566606890177354,vtsPrac,2187.0613669720187,,,,,,,,,,,,,,,,,,,,,,,,,,,,,25738,2022-11-15_10h21.35.732,vts_reward_expectancy_bt_OFFLINE,2022.2.4,59.89784661745677,
,,,,,,,,,,,,,,,,,,,,,,,,,,,,,,,,,,0,0,0,0,6,0,6,0,,,,,,,,,,,,,,,,,,,,,,,,,,,,0,783,,,2193.552004609024,,,U,146,triangle,0.0015252059965860099,,,,,1,0,,,2,,,,,,,,2189.540422173013,2189.540422173013,2189.540422173013,2189.540422173013,2191.048799121025,2191.048799121025,2191.048799121025,2191.048799121025,2191.048799121025,2191.048799121025,2191.048799121025,2191.048799121025,repeat,number,numRpt,j,0.9687293870083522,vtsPrac,2192.0498249350057,,,,,,,,,,,,,,,,,,,,,,,,,,,,,25738,2022-11-15_10h21.35.732,vts_reward_expectancy_bt_OFFLINE,2022.2.4,59.89784661745677,
,,,,,,,,,,,,,,,,,,,,,,,,,,,,,,,,,,0,0,0,0,7,0,7,0,,,,,,,,,,,,,,,,,,,,,,,,,,,,0,783,,,2198.0732780940016,,,B,132,circle,0.0016181720129679888,,,,,1,0,,,2,,,,,,,,2194.528879332007,2194.528879332007,2194.528879332007,2194.528879332007,2196.037564059021,2196.037564059021,2196.037564059021,2196.037564059021,2196.037564059021,2196.037564059021,2196.037564059021,2196.037564059021,switch,letter,lettSwt,d,0.5149889909953345,vtsPrac,2196.5715574440255,,,,,,,,,,,,,,,,,,,,,,,,,,,,,25738,2022-11-15_10h21.35.732,vts_reward_expectancy_bt_OFFLINE,2022.2.4,59.89784661745677,
,,,,,,,,,,,,,,,,,,,,,,,,,,,,,,,,,,0,0,0,0,8,0,8,0,,,,,,,,,,,,,,,,,,,,,,,,,,,,0,783,,,2202.6448876930226,,,H,139,star,0.0011198110005352646,,,,,1,0,,,2,,,,,,,,2199.0506584780233,2199.0506584780233,2199.0506584780233,2199.0506584780233,2200.5593671300157,2200.5593671300157,2200.5593671300157,2200.5593671300157,2200.5593671300157,2200.5593671300157,2200.5593671300157,2200.5593671300157,repeat,letter,lettRpt,d,0.551254363002954,vtsPrac,2201.143176327023,,,,,,,,,,,,,,,,,,,,,,,,,,,,,25738,2022-11-15_10h21.35.732,vts_reward_expectancy_bt_OFFLINE,2022.2.4,59.89784661745677,
,,,,,,,,,,,,,,,,,,,,,,,,,,,,,,,,,,0,0,0,0,9,0,9,0,,,,,,,,,,,,,,,,,,,,,,,,,,,,0,783,,,2207.500418667012,,,W,174,circle,0.0013737159897573292,,,,,1,0,,,2,,,,,,,,2203.6233122160193,2203.6233122160193,2203.6233122160193,2203.6233122160193,2205.1308830270136,2205.1308830270136,2205.1308830270136,2205.1308830270136,2205.1308830270136,2205.1308830270136,2205.1308830270136,2205.1308830270136,switch,number,numSwt,k,0.8496712729975116,vtsPrac,2205.9985426780186,2207.500418667012,,,,,,,,,,,,,,,,,,,,,,,,,,,,25738,2022-11-15_10h21.35.732,vts_reward_expectancy_bt_OFFLINE,2022.2.4,59.89784661745677,
,,,,,,,,,,,,,,,,,,,,,,,,,,,,,,,,,,0,0,0,0,10,0,10,0,,,,,,,,,,,,,,,,,,,,,,,,,,,,0,783,,,2212.1719845730113,,,S,146,circle,0.001106791984057054,,,,,1,0,,,2,,,,,,,,2208.477675384027,2208.477675384027,2208.477675384027,2208.477675384027,2209.9862800010014,2209.9862800010014,2209.9862800010014,2209.9862800010014,2209.9862800010014,2209.9862800010014,2209.9862800010014,2209.9862800010014,repeat,number,numRpt,j,0.6525565099727828,vtsPrac,2210.6703936289996,,,,,,,,,,,,,,,,,,,,,,,,,,,,,25738,2022-11-15_10h21.35.732,vts_reward_expectancy_bt_OFFLINE,2022.2.4,59.89784661745677,
,,,,,,,,,,,,,,,,,,,,,,,,,,,,,,,,,,0,0,0,0,11,0,11,0,,,,,,,,,,,,,,,,,,,,,,,,,,,,0,783,,,2216.810540590028,,,B,125,star,0.0017446739948354661,,,,,1,0,,,2,,,,,,,,2213.1485872930207,2213.1485872930207,2213.1485872930207,2213.1485872930207,2214.658080700028,2214.658080700028,2214.658080700028,2214.658080700028,2214.658080700028,2214.658080700028,2214.658080700028,2214.658080700028,switch,letter,lettSwt,d,0.6252267730014864,vtsPrac,2215.3088239480276,,,,,,,,,,,,,,,,,,,,,,,,,,,,,25738,2022-11-15_10h21.35.732,vts_reward_expectancy_bt_OFFLINE,2022.2.4,59.89784661745677,
,,,,,,,,,,,,,,,,,,,,,,,,,,,,,,,,,,0,0,0,0,12,0,12,0,,,,,,,,,,,,,,,,,,,,,,,,,,,,0,783,,,2221.465587419021,,,S,146,star,0.001391782017890364,,,,,1,0,,,2,,,,,,,,2217.788139433018,2217.788139433018,2217.788139433018,2217.788139433018,2219.2964836530155,2219.2964836530155,2219.2964836530155,2219.2964836530155,2219.2964836530155,2219.2964836530155,2219.2964836530155,2219.2964836530155,switch,number,numSwt,j,0.6354399189876858,vtsPrac,2219.9640667130006,,,,,,,,,,,,,,,,,,,,,,,,,,,,,25738,2022-11-15_10h21.35.732,vts_reward_expectancy_bt_OFFLINE,2022.2.4,59.89784661745677,
,,,,,,,,,,,,,,,,,,,,,,,,,,,,,,,,,,0,0,0,0,13,0,13,0,,,,,,,,,,,,,,,,,,,,,,,,,,,,0,783,,,2226.0872983680165,,,D,139,hexagon,0.0015781120164319873,,,,,1,0,,,2,,,,,,,,2222.4432848620054,2222.4432848620054,2222.4432848620054,2222.4432848620054,2223.9516377320106,2223.9516377320106,2223.9516377320106,2223.9516377320106,2223.9516377320106,2223.9516377320106,2223.9516377320106,2223.9516377320106,switch,letter,lettSwt,d,0.6143792110087816,vtsPrac,2224.585617621022,,,,,,,,,,,,,,,,,,,,,,,,,,,,,25738,2022-11-15_10h21.35.732,vts_reward_expectancy_bt_OFFLINE,2022.2.4,59.89784661745677,
,,,,,,,,,,,,,,,,,,,,,,,,,,,,,,,,,,0,0,0,0,14,0,14,0,,,,,,,,,,,,,,,,,,,,,,,,,,,,0,783,,,2230.8425110720273,,,U,174,triangle,0.0013300800055731088,,,,,1,0,,,2,,,,,,,,2227.0646586180083,2227.0646586180083,2227.0646586180083,2227.0646586180083,2228.5733557210187,2228.5733557210187,2228.5733557210187,2228.5733557210187,2228.5733557210187,2228.5733557210187,2228.5733557210187,2228.5733557210187,switch,number,numSwt,k,0.7394883229862899,vtsPrac,2229.340955637017,,,,,,,,,,,,,,,,,,,,,,,,,,,,,25738,2022-11-15_10h21.35.732,vts_reward_expectancy_bt_OFFLINE,2022.2.4,59.89784661745677,
,,,,,,,,,,,,,,,,,,,,,,,,,,,,,,,,,,0,0,0,0,15,0,15,0,,,,,,,,,,,,,,,,,,,,,,,,,,,,0,783,,,2235.7317792680115,,,F,160,circle,0.0016649890167172998,,,,,1,0,,,2,,,,,,,,2231.821323539014,2231.821323539014,2231.821323539014,2231.821323539014,2233.3288469870167,2233.3288469870167,2233.3288469870167,2233.3288469870167,2233.3288469870167,2233.3288469870167,2233.3288469870167,2233.3288469870167,repeat,number,numRpt,k,0.8685409849858843,vtsPrac,2234.2298171520233,,,,,,,,,,,,,,,,,,,,,,,,,,,,,25738,2022-11-15_10h21.35.732,vts_reward_expectancy_bt_OFFLINE,2022.2.4,59.89784661745677,
,,,,,,,,,,,,,,,,,,,,,,,,,,,,,,,,,,0,0,0,0,16,0,16,0,,,,,,,,,,,,,,,,,,,,,,,,,,,,0,783,,,2240.286198003014,,,F,125,hexagon,0.0016020769835449755,,,,,1,0,,,2,,,,,,,,2236.7079351170105,2236.7079351170105,2236.7079351170105,2236.7079351170105,2238.2174076590163,2238.2174076590163,2238.2174076590163,2238.2174076590163,2238.2174076590163,2238.2174076590163,2238.2174076590163,2238.2174076590163,switch,letter,lettSwt,d,0.5353974000026938,vtsPrac,2238.7846916880226,,,,,,,,,,,,,,,,,,,,,,,,,,,,,25738,2022-11-15_10h21.35.732,vts_reward_expectancy_bt_OFFLINE,2022.2.4,59.89784661745677,
,,,,,,,,,,,,,,,,,,,,,,,,,,,,,,,,,,0,0,0,0,17,0,17,0,,,,,,,,,,,,,,,,,,,,,,,,,,,,0,783,,,2245.1917315680184,,,W,181,star,0.0016715090023353696,,,,,1,0,,,2,,,,,,,,2241.2648955550103,2241.2648955550103,2241.2648955550103,2241.2648955550103,2242.772487058013,2242.772487058013,2242.772487058013,2242.772487058013,2242.772487058013,2242.772487058013,2242.772487058013,2242.772487058013,switch,number,numSwt,k,0.895298649003962,vtsPrac,2243.6901201460278,,,,,,,,,,,,,,,,,,,,,,,,,,,,,25738,2022-11-15_10h21.35.732,vts_reward_expectancy_bt_OFFLINE,2022.2.4,59.89784661745677,
,,,,,,,,,,,,,,,,,,,,,,,,,,,,,,,,,,0,0,0,0,18,0,18,0,,,,,,,,,,,,,,,,,,,,,,,,,,,,0,783,,,2250.030612454022,,,U,174,triangle,0.0015057759883347899,,,,,1,0,,,2,,,,,,,,2246.169084340014,2246.169084340014,2246.169084340014,2246.169084340014,2247.678234920022,2247.678234920022,2247.678234920022,2247.678234920022,2247.678234920022,2247.678234920022,2247.678234920022,2247.678234920022,switch,letter,lettSwt,f,0.818914715986466,vtsPrac,2248.5288750550244,,,,,,,,,,,,,,,,,,,,,,,,,,,,,25738,2022-11-15_10h21.35.732,vts_reward_expectancy_bt_OFFLINE,2022.2.4,59.89784661745677,
,,,,,,,,,,,,,,,,,,,,,,,,,,,,,,,,,,0,0,0,0,19,0,19,0,,,,,,,,,,,,,,,,,,,,,,,,,,,,0,783,,,2254.752327774011,,,S,146,hexagon,0.0013984109973534942,,,,,1,0,,,2,,,,,,,,2251.007698341011,2251.007698341011,2251.007698341011,2251.007698341011,2252.5169626640272,2252.5169626640272,2252.5169626640272,2252.5169626640272,2252.5169626640272,2252.5169626640272,2252.5169626640272,2252.5169626640272,repeat,letter,lettRpt,f,0.7029291560174897,vtsPrac,2253.250607741007,,,,,,,,,,,,,,,,,,,,,,,,,,,,,25738,2022-11-15_10h21.35.732,vts_reward_expectancy_bt_OFFLINE,2022.2.4,59.89784661745677,
,,,,,,,,,,,,,,,,,,,,,,,,,,,,,,,,,,0,0,0,0,20,0,20,0,,,,,,,,,,,,,,,,,,,,,,,,,,,,0,783,,,2259.8916168990254,,,D,125,star,0.001696503983112052,,,,,1,0,,,2,,,,,,,,2255.730268411018,2255.730268411018,2255.730268411018,2255.730268411018,2257.2385952620243,2257.2385952620243,2257.2385952620243,2257.2385952620243,2257.2385952620243,2257.2385952620243,2257.2385952620243,2257.2385952620243,repeat,letter,lettRpt,d,1.1241974119911902,vtsPrac,2258.389808784006,,,,,,,,,,,,,,,,,,,,,,,,,,,,,25738,2022-11-15_10h21.35.732,vts_reward_expectancy_bt_OFFLINE,2022.2.4,59.89784661745677,
,,,,,,,,,,,,,,,,,,,,,,,,,,,,,,,,,,0,0,0,0,21,0,21,0,,,,,,,,,,,,,,,,,,,,,,,,,,,,0,783,,,2264.7467312440276,,,U,146,hexagon,0.0019369370129425079,,,,,1,0,,,2,,,,,,,,2260.8683052970155,2260.8683052970155,2260.8683052970155,2260.8683052970155,2262.3775180800003,2262.3775180800003,2262.3775180800003,2262.3775180800003,2262.3775180800003,2262.3775180800003,2262.3775180800003,2262.3775180800003,repeat,letter,lettRpt,f,0.8351492730143946,vtsPrac,2263.2452800470055,,,,,,,,,,,,,,,,,,,,,,,,,,,,,25738,2022-11-15_10h21.35.732,vts_reward_expectancy_bt_OFFLINE,2022.2.4,59.89784661745677,
,,,,,,,,,,,,,,,,,,,,,,,,,,,,,,,,,,0,0,0,0,22,0,22,0,,,,,,,,,,,,,,,,,,,,,,,,,,,,0,783,,,2269.502147095016,,,F,160,star,0.0018103740003425628,,,,,1,0,,,2,,,,,,,,2265.724552279018,2265.724552279018,2265.724552279018,2265.724552279018,2267.232797024015,2267.232797024015,2267.232797024015,2267.232797024015,2267.232797024015,2267.232797024015,2267.232797024015,2267.232797024015,switch,number,numSwt,k,0.7357605390134268,vtsPrac,2268.000366490014,,,,,,,,,,,,,,,,,,,,,,,,,,,,,25738,2022-11-15_10h21.35.732,vts_reward_expectancy_bt_OFFLINE,2022.2.4,59.89784661745677,
,,,,,,,,,,,,,,,,,,,,,,,,,,,,,,,,,,0,0,0,0,23,0,23,0,,,,,,,,,,,,,,,,,,,,,,,,,,,,0,783,,,2274.1405373510206,,,B,167,hexagon,0.0014024839911144227,,,,,1,0,,,2,,,,,,,,2270.479789413017,2270.479789413017,2270.479789413017,2270.479789413017,2271.988042955025,2271.988042955025,2271.988042955025,2271.988042955025,2271.988042955025,2271.988042955025,2271.988042955025,2271.988042955025,repeat,number,numRpt,k,0.6181991579942405,vtsPrac,2272.6388567760005,,,,,,,,,,,,,,,,,,,,,,,,,,,,,25738,2022-11-15_10h21.35.732,vts_reward_expectancy_bt_OFFLINE,2022.2.4,59.89784661745677,
,,,,,,,,,,,,,,,,,,,,,,,,,,,,,,,,,,0,0,0,0,24,0,24,0,,,,,,,,,,,,,,,,,,,,,,,,,,,,0,783,,,2278.912346660014,,,H,167,hexagon,0.001595046982401982,,,,,1,0,,,2,,,,,,,,2275.1181876340124,2275.1181876340124,2275.1181876340124,2275.1181876340124,2276.6264455280034,2276.6264455280034,2276.6264455280034,2276.6264455280034,2276.6264455280034,2276.6264455280034,2276.6264455280034,2276.6264455280034,repeat,number,numRpt,k,0.7598685470002238,vtsPrac,2277.4106008410163,,,,,,,,,,,,,,,,,,,,,,,,,,,,,25738,2022-11-15_10h21.35.732,vts_reward_expectancy_bt_OFFLINE,2022.2.4,59.89784661745677,
,,,,,,,,,,,,,,,,,,,,,,,,,,,,,,,,,,0,0,0,0,25,0,25,0,,,,,,,,,,,,,,,,,,,,,,,,,,,,0,783,,,2283.701156260009,,,U,139,circle,0.0014396640181075782,,,,,1,0,,,2,,,,,,,,2279.8898839990143,2279.8898839990143,2279.8898839990143,2279.8898839990143,2281.398498782015,2281.398498782015,2281.398498782015,2281.398498782015,2281.398498782015,2281.398498782015,2281.398498782015,2281.398498782015,repeat,number,numRpt,j,0.7794079839950427,vtsPrac,2282.1991795270005,,,,,,,,,,,,,,,,,,,,,,,,,,,,,25738,2022-11-15_10h21.35.732,vts_reward_expectancy_bt_OFFLINE,2022.2.4,59.89784661745677,
,,,,,,,,,,,,,,,,,,,,,,,,,,,,,,,,,,0,0,0,0,26,0,26,0,,,,,,,,,,,,,,,,,,,,,,,,,,,,0,783,,,2288.306036443013,,,Y,146,hexagon,0.0016213640046771616,,,,,1,0,,,2,,,,,,,,2284.6774870780064,2284.6774870780064,2284.6774870780064,2284.6774870780064,2286.1871698170144,2286.1871698170144,2286.1871698170144,2286.1871698170144,2286.1871698170144,2286.1871698170144,2286.1871698170144,2286.1871698170144,repeat,number,numRpt,j,0.591963107988704,vtsPrac,2286.8042928020004,,,,,,,,,,,,,,,,,,,,,,,,,,,,,25738,2022-11-15_10h21.35.732,vts_reward_expectancy_bt_OFFLINE,2022.2.4,59.89784661745677,
,,,,,,,,,,,,,,,,,,,,,,,,,,,,,,,,,,0,0,0,0,27,0,27,0,,,,,,,,,,,,,,,,,,,,,,,,,,,,0,783,,,2293.2281745240034,,,D,125,triangle,0.0015080519951879978,,,,,1,0,,,2,,,,,,,,2289.282739903021,2289.282739903021,2289.282739903021,2289.282739903021,2290.7919706560206,2290.7919706560206,2290.7919706560206,2290.7919706560206,2290.7919706560206,2290.7919706560206,2290.7919706560206,2290.7919706560206,switch,letter,lettSwt,d,0.9051757620181888,vtsPrac,2291.726333973027,,,,,,,,,,,,,,,,,,,,,,,,,,,,,25738,2022-11-15_10h21.35.732,vts_reward_expectancy_bt_OFFLINE,2022.2.4,59.89784661745677,
,,,,,,,,,,,,,,,,,,,,,,,,,,,,,,,,,,0,0,0,0,28,0,28,0,,,,,,,,,,,,,,,,,,,,,,,,,,,,0,783,,,2297.9167317980027,,,D,132,star,0.0015130579995457083,,,,,1,0,,,2,,,,,,,,2294.204002643004,2294.204002643004,2294.204002643004,2294.204002643004,2295.7140043630206,2295.7140043630206,2295.7140043630206,2295.7140043630206,2295.7140043630206,2295.7140043630206,2295.7140043630206,2295.7140043630206,repeat,letter,lettRpt,d,0.6728205379913561,vtsPrac,2296.414810868009,,,,,,,,,,,,,,,,,,,,,,,,,,,,,25738,2022-11-15_10h21.35.732,vts_reward_expectancy_bt_OFFLINE,2022.2.4,59.89784661745677,
