LTriangleOpac,LCircleOpac,LHexagonOpac,LStarOpac,RTriangleOpac,RCircleOpac,RHexagonOpac,RStarOpac,LShape_ID,RShape_ID,training_blocks.thisRepN,training_blocks.thisTrialN,training_blocks.thisN,training_blocks.thisIndex,training.thisRepN,training.thisTrialN,training.thisN,training.thisIndex,task1_prac_redo.thisRepN,task1_prac_redo.thisTrialN,task1_prac_redo.thisN,task1_prac_redo.thisIndex,task1_prac_trials.thisRepN,task1_prac_trials.thisTrialN,task1_prac_trials.thisN,task1_prac_trials.thisIndex,task2_prac_redo.thisRepN,task2_prac_redo.thisTrialN,task2_prac_redo.thisN,task2_prac_redo.thisIndex,task2_praac_trials.thisRepN,task2_praac_trials.thisTrialN,task2_praac_trials.thisN,task2_praac_trials.thisIndex,vts_prac_redo.thisRepN,vts_prac_redo.thisTrialN,vts_prac_redo.thisN,vts_prac_redo.thisIndex,vts_practice_trials.thisRepN,vts_practice_trials.thisTrialN,vts_practice_trials.thisN,vts_practice_trials.thisIndex,trials_norew.thisRepN,trials_norew.thisTrialN,trials_norew.thisN,trials_norew.thisIndex,block.thisRepN,block.thisTrialN,block.thisN,block.thisIndex,trials_rew.thisRepN,trials_rew.thisTrialN,trials_rew.thisN,trials_rew.thisIndex,key_resp.started,key_resp.keys,key_resp.rt,left_circle.started,right_circle.started,left_triangle.started,right_triangle.started,left_star.started,right_star.started,left_hexagon.started,right_hexagon.started,training_fix.started,training_resp.started,training_resp.keys,training_resp.rt,points_trial,points_cumul,trainBlock,training_feedback_txt.started,fix.started,training_feedback_txt.stopped,curr_topStim,curr_bottStim,curr_shape,ISI.started,tgt_fix_prac1.started,top_target_prac1.started,bott_target_prac1.started,target_resp_prac1.started,top_target_prac1.stopped,tgt_fix_prac1.stopped,bott_target_prac1.stopped,target_resp_prac1.stopped,acc,E1,target_resp_prac1.keys,pracBlock,prac_fback_text.started,prac_fback_text.stopped,fix.stopped,target_resp_prac1.rt,tgt_fix_prac2.started,top_target_prac2.started,bott_target_prac2.started,target_resp_prac2.started,target_resp_prac2.keys,target_resp_prac2.rt,star.started,hegagon.started,triangle.started,circle.started,star.stopped,hegagon.stopped,triangle.stopped,circle.stopped,top_target.started,tgt_fix.started,bot_target.started,target_resp.started,alt,task,condition,target_resp.keys,target_resp.rt,rewCond,vts_fback.started,blockNum,norew_fback.started,key_resp_2.keys,key_resp_2.rt,rewExpectancy,feedbk_text.started,feedbk_text.stopped,top_target.stopped,tgt_fix.stopped,bot_target.stopped,target_resp.stopped,text_3.started,debrief.started,text_3.stopped,button.started,debrief.index,debrief.itemText,debrief.type,debrief.granularity,debrief.font,debrief.markerColor,debrief.response,debrief.rt,button.numClicks,button.timesOn,button.timesOff,participant,date,expName,psychopyVersion,frameRate,
,,,,,,,,,,,,,,,,,,,,,,,,,,,,,,,,,,,,,,,,,,,,,,,,,,,,,,434.3404633970058,space,22.405849174014293,,,,,,,,,,,,,,,,,,,,,,,,,,,,,,,,,,,,,,,,,,,,,,,,,,,,,,,,,,,,,,,,,,,,,,,,,,,,,,,,,,,,,,,,,,26157,2022-11-16_14h35.06.854,vts_reward_expectancy_bt_OFFLINE,2022.2.4,60.276964085877346,
0,0,0,1,0,0,1,0,star,hexagon,0,0,0,0,0,0,0,11,,,,,,,,,,,,,,,,,,,,,,,,,,,,,,,,,,,,,,,,486.72390430400264,486.72390430400264,486.72390430400264,486.72390430400264,486.72390430400264,486.72390430400264,486.72390430400264,486.72390430400264,486.72390430400264,486.72390430400264,a,2.83794726699125,1,1,0,489.5941466749937,491.0957500509976,,,,,,,,,,,,,,,,,,,,,,,,,,,,,,,,,,,,,,,,,,,,,,,,,,,,,,,,,,,,,,,,,,,,,,,,,26157,2022-11-16_14h35.06.854,vts_reward_expectancy_bt_OFFLINE,2022.2.4,60.276964085877346,
0,1,0,0,1,0,0,0,circle,triangle,0,0,0,0,0,1,1,3,,,,,,,,,,,,,,,,,,,,,,,,,,,,,,,,,,,,,,,,491.5963055600005,491.5963055600005,491.5963055600005,491.5963055600005,491.5963055600005,491.5963055600005,491.5963055600005,491.5963055600005,491.5963055600005,491.5963055600005,l,2.4672908160137013,10,11,0,494.082238019997,495.5840529339912,,,,,,,,,,,,,,,,,,,,,,,,,,,,,,,,,,,,,,,,,,,,,,,,,,,,,,,,,,,,,,,,,,,,,,,,,26157,2022-11-16_14h35.06.854,vts_reward_expectancy_bt_OFFLINE,2022.2.4,60.276964085877346,
0,0,1,0,0,1,0,0,hexagon,circle,0,0,0,0,0,2,2,7,,,,,,,,,,,,,,,,,,,,,,,,,,,,,,,,,,,,,,,,496.0845530729857,496.0845530729857,496.0845530729857,496.0845530729857,496.0845530729857,496.0845530729857,496.0845530729857,496.0845530729857,496.0845530729857,496.0845530729857,a,1.105847744998755,1,12,0,497.21911115798866,498.72072054899763,,,,,,,,,,,,,,,,,,,,,,,,,,,,,,,,,,,,,,,,,,,,,,,,,,,,,,,,,,,,,,,,,,,,,,,,,26157,2022-11-16_14h35.06.854,vts_reward_expectancy_bt_OFFLINE,2022.2.4,60.276964085877346,
0,0,1,0,0,0,0,1,hexagon,star,0,0,0,0,0,3,3,8,,,,,,,,,,,,,,,,,,,,,,,,,,,,,,,,,,,,,,,,499.22134911600733,499.22134911600733,499.22134911600733,499.22134911600733,499.22134911600733,499.22134911600733,499.22134911600733,499.22134911600733,499.22134911600733,499.22134911600733,a,2.4027142930135597,10,22,0,501.64061868799035,503.142310138006,,,,,,,,,,,,,,,,,,,,,,,,,,,,,,,,,,,,,,,,,,,,,,,,,,,,,,,,,,,,,,,,,,,,,,,,,26157,2022-11-16_14h35.06.854,vts_reward_expectancy_bt_OFFLINE,2022.2.4,60.276964085877346,
0,1,0,0,0,0,1,0,circle,hexagon,0,0,0,0,0,4,4,4,,,,,,,,,,,,,,,,,,,,,,,,,,,,,,,,,,,,,,,,503.6428215839842,503.6428215839842,503.6428215839842,503.6428215839842,503.6428215839842,503.6428215839842,503.6428215839842,503.6428215839842,503.6428215839842,503.6428215839842,a,1.0520191630057525,10,32,0,504.7273809610051,506.2292528300022,,,,,,,,,,,,,,,,,,,,,,,,,,,,,,,,,,,,,,,,,,,,,,,,,,,,,,,,,,,,,,,,,,,,,,,,,26157,2022-11-16_14h35.06.854,vts_reward_expectancy_bt_OFFLINE,2022.2.4,60.276964085877346,
1,0,0,0,0,1,0,0,triangle,circle,0,0,0,0,0,5,5,0,,,,,,,,,,,,,,,,,,,,,,,,,,,,,,,,,,,,,,,,506.7296053280006,506.7296053280006,506.7296053280006,506.7296053280006,506.7296053280006,506.7296053280006,506.7296053280006,506.7296053280006,506.7296053280006,506.7296053280006,l,1.3742428450204898,1,33,0,508.130962130992,509.6329412799969,,,,,,,,,,,,,,,,,,,,,,,,,,,,,,,,,,,,,,,,,,,,,,,,,,,,,,,,,,,,,,,,,,,,,,,,,26157,2022-11-16_14h35.06.854,vts_reward_expectancy_bt_OFFLINE,2022.2.4,60.276964085877346,
0,0,0,1,1,0,0,0,star,triangle,0,0,0,0,0,6,6,9,,,,,,,,,,,,,,,,,,,,,,,,,,,,,,,,,,,,,,,,510.1333654980117,510.1333654980117,510.1333654980117,510.1333654980117,510.1333654980117,510.1333654980117,510.1333654980117,510.1333654980117,510.1333654980117,510.1333654980117,l,1.32138563200715,1,34,0,511.484869168984,512.9865146359953,,,,,,,,,,,,,,,,,,,,,,,,,,,,,,,,,,,,,,,,,,,,,,,,,,,,,,,,,,,,,,,,,,,,,,,,,26157,2022-11-16_14h35.06.854,vts_reward_expectancy_bt_OFFLINE,2022.2.4,60.276964085877346,
0,1,0,0,0,0,0,1,circle,star,0,0,0,0,0,7,7,5,,,,,,,,,,,,,,,,,,,,,,,,,,,,,,,,,,,,,,,,513.4871830199845,513.4871830199845,513.4871830199845,513.4871830199845,513.4871830199845,513.4871830199845,513.4871830199845,513.4871830199845,513.4871830199845,513.4871830199845,a,1.4346926030120812,1,35,0,514.9386632259993,516.4403955680027,,,,,,,,,,,,,,,,,,,,,,,,,,,,,,,,,,,,,,,,,,,,,,,,,,,,,,,,,,,,,,,,,,,,,,,,,26157,2022-11-16_14h35.06.854,vts_reward_expectancy_bt_OFFLINE,2022.2.4,60.276964085877346,
1,0,0,0,0,0,1,0,triangle,hexagon,0,0,0,0,0,8,8,1,,,,,,,,,,,,,,,,,,,,,,,,,,,,,,,,,,,,,,,,516.9409698300005,516.9409698300005,516.9409698300005,516.9409698300005,516.9409698300005,516.9409698300005,516.9409698300005,516.9409698300005,516.9409698300005,516.9409698300005,a,2.2323283860168885,10,45,0,519.1934065530077,520.6951971100061,,,,,,,,,,,,,,,,,,,,,,,,,,,,,,,,,,,,,,,,,,,,,,,,,,,,,,,,,,,,,,,,,,,,,,,,,26157,2022-11-16_14h35.06.854,vts_reward_expectancy_bt_OFFLINE,2022.2.4,60.276964085877346,
0,0,0,1,0,1,0,0,star ,circle,0,0,0,0,0,9,9,10,,,,,,,,,,,,,,,,,,,,,,,,,,,,,,,,,,,,,,,,521.1955361379951,521.1955361379951,521.1955361379951,521.1955361379951,521.1955361379951,521.1955361379951,521.1955361379951,521.1955361379951,521.1955361379951,521.1955361379951,l,1.1611637930036522,1,46,0,522.3802023690077,523.8819744689972,,,,,,,,,,,,,,,,,,,,,,,,,,,,,,,,,,,,,,,,,,,,,,,,,,,,,,,,,,,,,,,,,,,,,,,,,26157,2022-11-16_14h35.06.854,vts_reward_expectancy_bt_OFFLINE,2022.2.4,60.276964085877346,
1,0,0,0,0,0,0,1,triangle,star,0,0,0,0,0,10,10,2,,,,,,,,,,,,,,,,,,,,,,,,,,,,,,,,,,,,,,,,524.3824398420111,524.3824398420111,524.3824398420111,524.3824398420111,524.3824398420111,524.3824398420111,524.3824398420111,524.3824398420111,524.3824398420111,524.3824398420111,a,0.9909593389893416,10,56,0,525.4000953079958,526.901854700991,,,,,,,,,,,,,,,,,,,,,,,,,,,,,,,,,,,,,,,,,,,,,,,,,,,,,,,,,,,,,,,,,,,,,,,,,26157,2022-11-16_14h35.06.854,vts_reward_expectancy_bt_OFFLINE,2022.2.4,60.276964085877346,
0,0,1,0,1,0,0,0,hexagon,triangle,0,0,0,0,0,11,11,6,,,,,,,,,,,,,,,,,,,,,,,,,,,,,,,,,,,,,,,,527.4023405429907,527.4023405429907,527.4023405429907,527.4023405429907,527.4023405429907,527.4023405429907,527.4023405429907,527.4023405429907,527.4023405429907,527.4023405429907,a,0.8383657170052174,10,66,0,528.2700192779885,529.7716528220044,,,,,,,,,,,,,,,,,,,,,,,,,,,,,,,,,,,,,,,,,,,,,,,,,,,,,,,,,,,,,,,,,,,,,,,,,26157,2022-11-16_14h35.06.854,vts_reward_expectancy_bt_OFFLINE,2022.2.4,60.276964085877346,
0,1,0,0,0,0,0,1,circle,star,0,0,0,0,1,0,12,5,,,,,,,,,,,,,,,,,,,,,,,,,,,,,,,,,,,,,,,,530.2722861609946,530.2722861609946,530.2722861609946,530.2722861609946,530.2722861609946,530.2722861609946,530.2722861609946,530.2722861609946,530.2722861609946,530.2722861609946,a,0.917609550000634,10,76,0,531.2065971959964,532.7082387249975,,,,,,,,,,,,,,,,,,,,,,,,,,,,,,,,,,,,,,,,,,,,,,,,,,,,,,,,,,,,,,,,,,,,,,,,,26157,2022-11-16_14h35.06.854,vts_reward_expectancy_bt_OFFLINE,2022.2.4,60.276964085877346,
0,0,0,1,1,0,0,0,star,triangle,0,0,0,0,1,1,13,9,,,,,,,,,,,,,,,,,,,,,,,,,,,,,,,,,,,,,,,,533.2088630369981,533.2088630369981,533.2088630369981,533.2088630369981,533.2088630369981,533.2088630369981,533.2088630369981,533.2088630369981,533.2088630369981,533.2088630369981,a,1.8945410010055639,1,77,0,535.1274931689841,536.6293359289994,,,,,,,,,,,,,,,,,,,,,,,,,,,,,,,,,,,,,,,,,,,,,,,,,,,,,,,,,,,,,,,,,,,,,,,,,26157,2022-11-16_14h35.06.854,vts_reward_expectancy_bt_OFFLINE,2022.2.4,60.276964085877346,
1,0,0,0,0,0,0,1,triangle,star,0,0,0,0,1,2,14,2,,,,,,,,,,,,,,,,,,,,,,,,,,,,,,,,,,,,,,,,537.1298209140077,537.1298209140077,537.1298209140077,537.1298209140077,537.1298209140077,537.1298209140077,537.1298209140077,537.1298209140077,537.1298209140077,537.1298209140077,l,1.8885213710018434,1,78,0,539.0485880129854,540.5502926729969,,,,,,,,,,,,,,,,,,,,,,,,,,,,,,,,,,,,,,,,,,,,,,,,,,,,,,,,,,,,,,,,,,,,,,,,,26157,2022-11-16_14h35.06.854,vts_reward_expectancy_bt_OFFLINE,2022.2.4,60.276964085877346,
0,0,0,1,0,1,0,0,star ,circle,0,0,0,0,1,3,15,10,,,,,,,,,,,,,,,,,,,,,,,,,,,,,,,,,,,,,,,,541.0508775409835,541.0508775409835,541.0508775409835,541.0508775409835,541.0508775409835,541.0508775409835,541.0508775409835,541.0508775409835,541.0508775409835,541.0508775409835,l,1.2979089159925934,10,88,0,542.3690543549892,543.8706631640089,,,,,,,,,,,,,,,,,,,,,,,,,,,,,,,,,,,,,,,,,,,,,,,,,,,,,,,,,,,,,,,,,,,,,,,,,26157,2022-11-16_14h35.06.854,vts_reward_expectancy_bt_OFFLINE,2022.2.4,60.276964085877346,
0,1,0,0,0,0,1,0,circle,hexagon,0,0,0,0,1,4,16,4,,,,,,,,,,,,,,,,,,,,,,,,,,,,,,,,,,,,,,,,544.3711745179899,544.3711745179899,544.3711745179899,544.3711745179899,544.3711745179899,544.3711745179899,544.3711745179899,544.3711745179899,544.3711745179899,544.3711745179899,a,0.7015093180234544,1,89,0,545.1052859319898,546.6069730029849,,,,,,,,,,,,,,,,,,,,,,,,,,,,,,,,,,,,,,,,,,,,,,,,,,,,,,,,,,,,,,,,,,,,,,,,,26157,2022-11-16_14h35.06.854,vts_reward_expectancy_bt_OFFLINE,2022.2.4,60.276964085877346,
0,0,1,0,1,0,0,0,hexagon,triangle,0,0,0,0,1,5,17,6,,,,,,,,,,,,,,,,,,,,,,,,,,,,,,,,,,,,,,,,547.1075721539964,547.1075721539964,547.1075721539964,547.1075721539964,547.1075721539964,547.1075721539964,547.1075721539964,547.1075721539964,547.1075721539964,547.1075721539964,a,2.1152661060041282,10,99,0,549.2430343930027,550.7447221429902,,,,,,,,,,,,,,,,,,,,,,,,,,,,,,,,,,,,,,,,,,,,,,,,,,,,,,,,,,,,,,,,,,,,,,,,,26157,2022-11-16_14h35.06.854,vts_reward_expectancy_bt_OFFLINE,2022.2.4,60.276964085877346,
0,0,0,1,0,0,1,0,star,hexagon,0,0,0,0,1,6,18,11,,,,,,,,,,,,,,,,,,,,,,,,,,,,,,,,,,,,,,,,551.2452460890054,551.2452460890054,551.2452460890054,551.2452460890054,551.2452460890054,551.2452460890054,551.2452460890054,551.2452460890054,551.2452460890054,551.2452460890054,l,1.1045692990301177,10,109,0,552.3798461859988,553.881549245998,,,,,,,,,,,,,,,,,,,,,,,,,,,,,,,,,,,,,,,,,,,,,,,,,,,,,,,,,,,,,,,,,,,,,,,,,26157,2022-11-16_14h35.06.854,vts_reward_expectancy_bt_OFFLINE,2022.2.4,60.276964085877346,
1,0,0,0,0,0,1,0,triangle,hexagon,0,0,0,0,1,7,19,1,,,,,,,,,,,,,,,,,,,,,,,,,,,,,,,,,,,,,,,,554.3820574780111,554.3820574780111,554.3820574780111,554.3820574780111,554.3820574780111,554.3820574780111,554.3820574780111,554.3820574780111,554.3820574780111,554.3820574780111,l,1.2191376660193782,10,119,0,555.6334348399832,557.1351076310093,,,,,,,,,,,,,,,,,,,,,,,,,,,,,,,,,,,,,,,,,,,,,,,,,,,,,,,,,,,,,,,,,,,,,,,,,26157,2022-11-16_14h35.06.854,vts_reward_expectancy_bt_OFFLINE,2022.2.4,60.276964085877346,
1,0,0,0,0,1,0,0,triangle,circle,0,0,0,0,1,8,20,0,,,,,,,,,,,,,,,,,,,,,,,,,,,,,,,,,,,,,,,,557.6357615870074,557.6357615870074,557.6357615870074,557.6357615870074,557.6357615870074,557.6357615870074,557.6357615870074,557.6357615870074,557.6357615870074,557.6357615870074,a,1.3293193540011998,1,120,0,558.9872429530078,560.4890484740026,,,,,,,,,,,,,,,,,,,,,,,,,,,,,,,,,,,,,,,,,,,,,,,,,,,,,,,,,,,,,,,,,,,,,,,,,26157,2022-11-16_14h35.06.854,vts_reward_expectancy_bt_OFFLINE,2022.2.4,60.276964085877346,
0,0,1,0,0,0,0,1,hexagon,star,0,0,0,0,1,9,21,8,,,,,,,,,,,,,,,,,,,,,,,,,,,,,,,,,,,,,,,,560.9895193289849,560.9895193289849,560.9895193289849,560.9895193289849,560.9895193289849,560.9895193289849,560.9895193289849,560.9895193289849,560.9895193289849,560.9895193289849,a,1.0355242980003823,10,130,0,562.0573848839849,563.5590029279992,,,,,,,,,,,,,,,,,,,,,,,,,,,,,,,,,,,,,,,,,,,,,,,,,,,,,,,,,,,,,,,,,,,,,,,,,26157,2022-11-16_14h35.06.854,vts_reward_expectancy_bt_OFFLINE,2022.2.4,60.276964085877346,
0,0,1,0,0,1,0,0,hexagon,circle,0,0,0,0,1,10,22,7,,,,,,,,,,,,,,,,,,,,,,,,,,,,,,,,,,,,,,,,564.0595754100068,564.0595754100068,564.0595754100068,564.0595754100068,564.0595754100068,564.0595754100068,564.0595754100068,564.0595754100068,564.0595754100068,564.0595754100068,l,0.9474096769990865,10,140,0,565.0271845280076,566.5289245489985,,,,,,,,,,,,,,,,,,,,,,,,,,,,,,,,,,,,,,,,,,,,,,,,,,,,,,,,,,,,,,,,,,,,,,,,,26157,2022-11-16_14h35.06.854,vts_reward_expectancy_bt_OFFLINE,2022.2.4,60.276964085877346,
0,1,0,0,1,0,0,0,circle,triangle,0,0,0,0,1,11,23,3,,,,,,,,,,,,,,,,,,,,,,,,,,,,,,,,,,,,,,,,567.0294330629986,567.0294330629986,567.0294330629986,567.0294330629986,567.0294330629986,567.0294330629986,567.0294330629986,567.0294330629986,567.0294330629986,567.0294330629986,a,1.3639358390064444,1,141,0,568.4144554150116,569.9160963390023,,,,,,,,,,,,,,,,,,,,,,,,,,,,,,,,,,,,,,,,,,,,,,,,,,,,,,,,,,,,,,,,,,,,,,,,,26157,2022-11-16_14h35.06.854,vts_reward_expectancy_bt_OFFLINE,2022.2.4,60.276964085877346,
0,1,0,0,0,0,0,1,circle,star,0,0,0,0,2,0,24,5,,,,,,,,,,,,,,,,,,,,,,,,,,,,,,,,,,,,,,,,570.4166371249885,570.4166371249885,570.4166371249885,570.4166371249885,570.4166371249885,570.4166371249885,570.4166371249885,570.4166371249885,570.4166371249885,570.4166371249885,l,1.1268770419992507,10,151,0,571.5678139310039,573.0693768780038,,,,,,,,,,,,,,,,,,,,,,,,,,,,,,,,,,,,,,,,,,,,,,,,,,,,,,,,,,,,,,,,,,,,,,,,,26157,2022-11-16_14h35.06.854,vts_reward_expectancy_bt_OFFLINE,2022.2.4,60.276964085877346,
0,0,1,0,0,0,0,1,hexagon,star,0,0,0,0,2,1,25,8,,,,,,,,,,,,,,,,,,,,,,,,,,,,,,,,,,,,,,,,573.5689154769934,573.5689154769934,573.5689154769934,573.5689154769934,573.5689154769934,573.5689154769934,573.5689154769934,573.5689154769934,573.5689154769934,573.5689154769934,l,1.0245295870117843,1,152,0,574.6210806079907,576.1227678979922,,,,,,,,,,,,,,,,,,,,,,,,,,,,,,,,,,,,,,,,,,,,,,,,,,,,,,,,,,,,,,,,,,,,,,,,,26157,2022-11-16_14h35.06.854,vts_reward_expectancy_bt_OFFLINE,2022.2.4,60.276964085877346,
0,0,0,1,1,0,0,0,star,triangle,0,0,0,0,2,2,26,9,,,,,,,,,,,,,,,,,,,,,,,,,,,,,,,,,,,,,,,,576.6233297709841,576.6233297709841,576.6233297709841,576.6233297709841,576.6233297709841,576.6233297709841,576.6233297709841,576.6233297709841,576.6233297709841,576.6233297709841,a,1.388846525020199,1,153,0,578.0415832959989,579.5432808480109,,,,,,,,,,,,,,,,,,,,,,,,,,,,,,,,,,,,,,,,,,,,,,,,,,,,,,,,,,,,,,,,,,,,,,,,,26157,2022-11-16_14h35.06.854,vts_reward_expectancy_bt_OFFLINE,2022.2.4,60.276964085877346,
0,0,1,0,0,1,0,0,hexagon,circle,0,0,0,0,2,3,27,7,,,,,,,,,,,,,,,,,,,,,,,,,,,,,,,,,,,,,,,,580.0441499640001,580.0441499640001,580.0441499640001,580.0441499640001,580.0441499640001,580.0441499640001,580.0441499640001,580.0441499640001,580.0441499640001,580.0441499640001,l,0.8712604070024099,10,163,0,580.9447681779857,582.4465705429902,,,,,,,,,,,,,,,,,,,,,,,,,,,,,,,,,,,,,,,,,,,,,,,,,,,,,,,,,,,,,,,,,,,,,,,,,26157,2022-11-16_14h35.06.854,vts_reward_expectancy_bt_OFFLINE,2022.2.4,60.276964085877346,
0,0,0,1,0,1,0,0,star ,circle,0,0,0,0,2,4,28,10,,,,,,,,,,,,,,,,,,,,,,,,,,,,,,,,,,,,,,,,582.946950832993,582.946950832993,582.946950832993,582.946950832993,582.946950832993,582.946950832993,582.946950832993,582.946950832993,582.946950832993,582.946950832993,l,0.4877823900023941,1,164,0,583.464232592989,584.9659322109947,,,,,,,,,,,,,,,,,,,,,,,,,,,,,,,,,,,,,,,,,,,,,,,,,,,,,,,,,,,,,,,,,,,,,,,,,26157,2022-11-16_14h35.06.854,vts_reward_expectancy_bt_OFFLINE,2022.2.4,60.276964085877346,
0,1,0,0,0,0,1,0,circle,hexagon,0,0,0,0,2,5,29,4,,,,,,,,,,,,,,,,,,,,,,,,,,,,,,,,,,,,,,,,585.4664174309873,585.4664174309873,585.4664174309873,585.4664174309873,585.4664174309873,585.4664174309873,585.4664174309873,585.4664174309873,585.4664174309873,585.4664174309873,a,0.7477280080202036,10,174,0,586.2338846880011,587.7356024080073,,,,,,,,,,,,,,,,,,,,,,,,,,,,,,,,,,,,,,,,,,,,,,,,,,,,,,,,,,,,,,,,,,,,,,,,,26157,2022-11-16_14h35.06.854,vts_reward_expectancy_bt_OFFLINE,2022.2.4,60.276964085877346,
0,1,0,0,1,0,0,0,circle,triangle,0,0,0,0,2,6,30,3,,,,,,,,,,,,,,,,,,,,,,,,,,,,,,,,,,,,,,,,588.2362847389886,588.2362847389886,588.2362847389886,588.2362847389886,588.2362847389886,588.2362847389886,588.2362847389886,588.2362847389886,588.2362847389886,588.2362847389886,a,0.6781131510215346,1,175,0,588.936995127995,590.438567389996,,,,,,,,,,,,,,,,,,,,,,,,,,,,,,,,,,,,,,,,,,,,,,,,,,,,,,,,,,,,,,,,,,,,,,,,,26157,2022-11-16_14h35.06.854,vts_reward_expectancy_bt_OFFLINE,2022.2.4,60.276964085877346,
0,0,0,1,0,0,1,0,star,hexagon,0,0,0,0,2,7,31,11,,,,,,,,,,,,,,,,,,,,,,,,,,,,,,,,,,,,,,,,590.9391577249917,590.9391577249917,590.9391577249917,590.9391577249917,590.9391577249917,590.9391577249917,590.9391577249917,590.9391577249917,590.9391577249917,590.9391577249917,a,0.9570899239915889,1,176,0,591.9236201010062,593.4252563549962,593.4252563549962,,,,,,,,,,,,,,,,,,,,,,,,,,,,,,,,,,,,,,,,,,,,,,,,,,,,,,,,,,,,,,,,,,,,,,,,26157,2022-11-16_14h35.06.854,vts_reward_expectancy_bt_OFFLINE,2022.2.4,60.276964085877346,
1,0,0,0,0,0,0,1,triangle,star,0,0,0,0,2,8,32,2,,,,,,,,,,,,,,,,,,,,,,,,,,,,,,,,,,,,,,,,593.9257721680042,593.9257721680042,593.9257721680042,593.9257721680042,593.9257721680042,593.9257721680042,593.9257721680042,593.9257721680042,593.9257721680042,593.9257721680042,l,1.130872409004951,1,177,0,595.0770201050036,596.5786764259974,,,,,,,,,,,,,,,,,,,,,,,,,,,,,,,,,,,,,,,,,,,,,,,,,,,,,,,,,,,,,,,,,,,,,,,,,26157,2022-11-16_14h35.06.854,vts_reward_expectancy_bt_OFFLINE,2022.2.4,60.276964085877346,
1,0,0,0,0,0,1,0,triangle,hexagon,0,0,0,0,2,9,33,1,,,,,,,,,,,,,,,,,,,,,,,,,,,,,,,,,,,,,,,,597.0794048729877,597.0794048729877,597.0794048729877,597.0794048729877,597.0794048729877,597.0794048729877,597.0794048729877,597.0794048729877,597.0794048729877,597.0794048729877,l,1.3308496419922449,10,187,0,598.430654611002,599.9324635049852,,,,,,,,,,,,,,,,,,,,,,,,,,,,,,,,,,,,,,,,,,,,,,,,,,,,,,,,,,,,,,,,,,,,,,,,,26157,2022-11-16_14h35.06.854,vts_reward_expectancy_bt_OFFLINE,2022.2.4,60.276964085877346,
0,0,1,0,1,0,0,0,hexagon,triangle,0,0,0,0,2,10,34,6,,,,,,,,,,,,,,,,,,,,,,,,,,,,,,,,,,,,,,,,600.4327558359946,600.4327558359946,600.4327558359946,600.4327558359946,600.4327558359946,600.4327558359946,600.4327558359946,600.4327558359946,600.4327558359946,600.4327558359946,a,0.8790206600097008,10,197,0,601.3339295240003,602.835564745008,,,,,,,,,,,,,,,,,,,,,,,,,,,,,,,,,,,,,,,,,,,,,,,,,,,,,,,,,,,,,,,,,,,,,,,,,26157,2022-11-16_14h35.06.854,vts_reward_expectancy_bt_OFFLINE,2022.2.4,60.276964085877346,
1,0,0,0,0,1,0,0,triangle,circle,0,0,0,0,2,11,35,0,,,,,,,,,,,,,,,,,,,,,,,,,,,,,,,,,,,,,,,,603.3363030150067,603.3363030150067,603.3363030150067,603.3363030150067,603.3363030150067,603.3363030150067,603.3363030150067,603.3363030150067,603.3363030150067,603.3363030150067,a,0.9240358670067508,10,207,0,604.2873955130053,605.7888882280095,,,,,,,,,,,,,,,,,,,,,,,,,,,,,,,,,,,,,,,,,,,,,,,,,,,,,,,,,,,,,,,,,,,,,,,,,26157,2022-11-16_14h35.06.854,vts_reward_expectancy_bt_OFFLINE,2022.2.4,60.276964085877346,
0,1,0,0,0,0,0,1,circle,star,0,0,0,0,3,0,36,5,,,,,,,,,,,,,,,,,,,,,,,,,,,,,,,,,,,,,,,,606.2895260619989,606.2895260619989,606.2895260619989,606.2895260619989,606.2895260619989,606.2895260619989,606.2895260619989,606.2895260619989,606.2895260619989,606.2895260619989,l,1.1092456559999846,1,208,0,607.4240713760082,608.9256759459968,,,,,,,,,,,,,,,,,,,,,,,,,,,,,,,,,,,,,,,,,,,,,,,,,,,,,,,,,,,,,,,,,,,,,,,,,26157,2022-11-16_14h35.06.854,vts_reward_expectancy_bt_OFFLINE,2022.2.4,60.276964085877346,
0,0,1,0,1,0,0,0,hexagon,triangle,0,0,0,0,3,1,37,6,,,,,,,,,,,,,,,,,,,,,,,,,,,,,,,,,,,,,,,,609.4263527560106,609.4263527560106,609.4263527560106,609.4263527560106,609.4263527560106,609.4263527560106,609.4263527560106,609.4263527560106,609.4263527560106,609.4263527560106,l,1.088504940009443,1,209,0,610.544162309001,612.0458204270108,,,,,,,,,,,,,,,,,,,,,,,,,,,,,,,,,,,,,,,,,,,,,,,,,,,,,,,,,,,,,,,,,,,,,,,,,26157,2022-11-16_14h35.06.854,vts_reward_expectancy_bt_OFFLINE,2022.2.4,60.276964085877346,
0,0,0,1,0,0,1,0,star,hexagon,0,0,0,0,3,2,38,11,,,,,,,,,,,,,,,,,,,,,,,,,,,,,,,,,,,,,,,,612.5463792429946,612.5463792429946,612.5463792429946,612.5463792429946,612.5463792429946,612.5463792429946,612.5463792429946,612.5463792429946,612.5463792429946,612.5463792429946,a,1.872408899012953,10,219,0,614.4483799040026,615.9501433929836,,,,,,,,,,,,,,,,,,,,,,,,,,,,,,,,,,,,,,,,,,,,,,,,,,,,,,,,,,,,,,,,,,,,,,,,,26157,2022-11-16_14h35.06.854,vts_reward_expectancy_bt_OFFLINE,2022.2.4,60.276964085877346,
0,0,0,1,1,0,0,0,star,triangle,0,0,0,0,3,3,39,9,,,,,,,,,,,,,,,,,,,,,,,,,,,,,,,,,,,,,,,,616.4505495970079,616.4505495970079,616.4505495970079,616.4505495970079,616.4505495970079,616.4505495970079,616.4505495970079,616.4505495970079,616.4505495970079,616.4505495970079,a,0.9603716470010113,1,220,0,617.4350372059853,618.9366883329931,,,,,,,,,,,,,,,,,,,,,,,,,,,,,,,,,,,,,,,,,,,,,,,,,,,,,,,,,,,,,,,,,,,,,,,,,26157,2022-11-16_14h35.06.854,vts_reward_expectancy_bt_OFFLINE,2022.2.4,60.276964085877346,
0,0,1,0,0,1,0,0,hexagon,circle,0,0,0,0,3,4,40,7,,,,,,,,,,,,,,,,,,,,,,,,,,,,,,,,,,,,,,,,619.4373254299862,619.4373254299862,619.4373254299862,619.4373254299862,619.4373254299862,619.4373254299862,619.4373254299862,619.4373254299862,619.4373254299862,619.4373254299862,l,0.6851950399868656,1,221,0,620.1546541599964,621.6564387179969,,,,,,,,,,,,,,,,,,,,,,,,,,,,,,,,,,,,,,,,,,,,,,,,,,,,,,,,,,,,,,,,,,,,,,,,,26157,2022-11-16_14h35.06.854,vts_reward_expectancy_bt_OFFLINE,2022.2.4,60.276964085877346,
1,0,0,0,0,0,0,1,triangle,star,0,0,0,0,3,5,41,2,,,,,,,,,,,,,,,,,,,,,,,,,,,,,,,,,,,,,,,,622.1570123540005,622.1570123540005,622.1570123540005,622.1570123540005,622.1570123540005,622.1570123540005,622.1570123540005,622.1570123540005,622.1570123540005,622.1570123540005,l,1.4081946620135568,1,222,0,623.5919562499912,625.093489389983,,,,,,,,,,,,,,,,,,,,,,,,,,,,,,,,,,,,,,,,,,,,,,,,,,,,,,,,,,,,,,,,,,,,,,,,,26157,2022-11-16_14h35.06.854,vts_reward_expectancy_bt_OFFLINE,2022.2.4,60.276964085877346,
0,1,0,0,1,0,0,0,circle,triangle,0,0,0,0,3,6,42,3,,,,,,,,,,,,,,,,,,,,,,,,,,,,,,,,,,,,,,,,625.594042126002,625.594042126002,625.594042126002,625.594042126002,625.594042126002,625.594042126002,625.594042126002,625.594042126002,625.594042126002,625.594042126002,a,1.2348809239920229,1,223,0,626.8453452780086,628.3470901850087,,,,,,,,,,,,,,,,,,,,,,,,,,,,,,,,,,,,,,,,,,,,,,,,,,,,,,,,,,,,,,,,,,,,,,,,,26157,2022-11-16_14h35.06.854,vts_reward_expectancy_bt_OFFLINE,2022.2.4,60.276964085877346,
0,0,0,1,0,1,0,0,star ,circle,0,0,0,0,3,7,43,10,,,,,,,,,,,,,,,,,,,,,,,,,,,,,,,,,,,,,,,,628.8477008519985,628.8477008519985,628.8477008519985,628.8477008519985,628.8477008519985,628.8477008519985,628.8477008519985,628.8477008519985,628.8477008519985,628.8477008519985,l,0.7694598280068021,1,224,0,629.6486794670054,631.150248630991,,,,,,,,,,,,,,,,,,,,,,,,,,,,,,,,,,,,,,,,,,,,,,,,,,,,,,,,,,,,,,,,,,,,,,,,,26157,2022-11-16_14h35.06.854,vts_reward_expectancy_bt_OFFLINE,2022.2.4,60.276964085877346,
0,0,1,0,0,0,0,1,hexagon,star,0,0,0,0,3,8,44,8,,,,,,,,,,,,,,,,,,,,,,,,,,,,,,,,,,,,,,,,631.6507150270045,631.6507150270045,631.6507150270045,631.6507150270045,631.6507150270045,631.6507150270045,631.6507150270045,631.6507150270045,631.6507150270045,631.6507150270045,l,1.5110048490168992,1,225,0,633.1858809929981,634.6874119940039,,,,,,,,,,,,,,,,,,,,,,,,,,,,,,,,,,,,,,,,,,,,,,,,,,,,,,,,,,,,,,,,,,,,,,,,,26157,2022-11-16_14h35.06.854,vts_reward_expectancy_bt_OFFLINE,2022.2.4,60.276964085877346,
1,0,0,0,0,1,0,0,triangle,circle,0,0,0,0,3,9,45,0,,,,,,,,,,,,,,,,,,,,,,,,,,,,,,,,,,,,,,,,635.1880277429882,635.1880277429882,635.1880277429882,635.1880277429882,635.1880277429882,635.1880277429882,635.1880277429882,635.1880277429882,635.1880277429882,635.1880277429882,l,0.7528113420121372,1,226,0,635.9721763620037,637.4738046379935,,,,,,,,,,,,,,,,,,,,,,,,,,,,,,,,,,,,,,,,,,,,,,,,,,,,,,,,,,,,,,,,,,,,,,,,,26157,2022-11-16_14h35.06.854,vts_reward_expectancy_bt_OFFLINE,2022.2.4,60.276964085877346,
0,1,0,0,0,0,1,0,circle,hexagon,0,0,0,0,3,10,46,4,,,,,,,,,,,,,,,,,,,,,,,,,,,,,,,,,,,,,,,,637.9743750419875,637.9743750419875,637.9743750419875,637.9743750419875,637.9743750419875,637.9743750419875,637.9743750419875,637.9743750419875,637.9743750419875,637.9743750419875,a,0.9365981880109757,1,227,0,638.9421573810105,640.4438374440069,,,,,,,,,,,,,,,,,,,,,,,,,,,,,,,,,,,,,,,,,,,,,,,,,,,,,,,,,,,,,,,,,,,,,,,,,26157,2022-11-16_14h35.06.854,vts_reward_expectancy_bt_OFFLINE,2022.2.4,60.276964085877346,
1,0,0,0,0,0,1,0,triangle,hexagon,0,0,0,0,3,11,47,1,,,,,,,,,,,,,,,,,,,,,,,,,,,,,,,,,,,,,,,,640.9445089100045,640.9445089100045,640.9445089100045,640.9445089100045,640.9445089100045,640.9445089100045,640.9445089100045,640.9445089100045,640.9445089100045,640.9445089100045,a,1.2516610700113233,1,228,0,642.2291604249913,643.730683103,,,,,,,,,,,,,,,,,,,,,,,,,,,,,,,,,,,,,,,,,,,,,,,,,,,,,,,,,,,,,,,,,,,,,,,,,26157,2022-11-16_14h35.06.854,vts_reward_expectancy_bt_OFFLINE,2022.2.4,60.276964085877346,
1,0,0,0,0,0,1,0,triangle,hexagon,1,0,1,0,0,0,0,1,,,,,,,,,,,,,,,,,,,,,,,,,,,,,,,,,,,,,,,,650.4457648599928,650.4457648599928,650.4457648599928,650.4457648599928,650.4457648599928,650.4457648599928,650.4457648599928,650.4457648599928,650.4457648599928,650.4457648599928,l,1.3924377280054614,10,238,1,651.8564726499899,653.3581883590086,,,,,,,,,,,,,,,,,,,,,,,,,,,,,,,,,,,,,,,,,,,,,,,,,,,,,,,,,,,,,,,,,,,,,,,,,26157,2022-11-16_14h35.06.854,vts_reward_expectancy_bt_OFFLINE,2022.2.4,60.276964085877346,
0,0,0,1,0,0,1,0,star,hexagon,1,0,1,0,0,1,1,11,,,,,,,,,,,,,,,,,,,,,,,,,,,,,,,,,,,,,,,,653.858704082988,653.858704082988,653.858704082988,653.858704082988,653.858704082988,653.858704082988,653.858704082988,653.858704082988,653.858704082988,653.858704082988,a,1.0605843300290871,1,239,1,654.943055234995,656.4447737330047,,,,,,,,,,,,,,,,,,,,,,,,,,,,,,,,,,,,,,,,,,,,,,,,,,,,,,,,,,,,,,,,,,,,,,,,,26157,2022-11-16_14h35.06.854,vts_reward_expectancy_bt_OFFLINE,2022.2.4,60.276964085877346,
0,0,0,1,0,1,0,0,star ,circle,1,0,1,0,0,2,2,10,,,,,,,,,,,,,,,,,,,,,,,,,,,,,,,,,,,,,,,,656.9452811559895,656.9452811559895,656.9452811559895,656.9452811559895,656.9452811559895,656.9452811559895,656.9452811559895,656.9452811559895,656.9452811559895,656.9452811559895,l,0.7766664449882228,1,240,1,657.7462592079828,659.2481056700053,,,,,,,,,,,,,,,,,,,,,,,,,,,,,,,,,,,,,,,,,,,,,,,,,,,,,,,,,,,,,,,,,,,,,,,,,26157,2022-11-16_14h35.06.854,vts_reward_expectancy_bt_OFFLINE,2022.2.4,60.276964085877346,
0,1,0,0,0,0,1,0,circle,hexagon,1,0,1,0,0,3,3,4,,,,,,,,,,,,,,,,,,,,,,,,,,,,,,,,,,,,,,,,659.7485084240034,659.7485084240034,659.7485084240034,659.7485084240034,659.7485084240034,659.7485084240034,659.7485084240034,659.7485084240034,659.7485084240034,659.7485084240034,a,1.0894452100037597,1,241,1,660.866233785986,662.3678691920068,,,,,,,,,,,,,,,,,,,,,,,,,,,,,,,,,,,,,,,,,,,,,,,,,,,,,,,,,,,,,,,,,,,,,,,,,26157,2022-11-16_14h35.06.854,vts_reward_expectancy_bt_OFFLINE,2022.2.4,60.276964085877346,
0,0,0,1,1,0,0,0,star,triangle,1,0,1,0,0,4,4,9,,,,,,,,,,,,,,,,,,,,,,,,,,,,,,,,,,,,,,,,662.8686325319868,662.8686325319868,662.8686325319868,662.8686325319868,662.8686325319868,662.8686325319868,662.8686325319868,662.8686325319868,662.8686325319868,662.8686325319868,a,0.9397662980190944,1,242,1,663.8362856629828,665.3379744119884,,,,,,,,,,,,,,,,,,,,,,,,,,,,,,,,,,,,,,,,,,,,,,,,,,,,,,,,,,,,,,,,,,,,,,,,,26157,2022-11-16_14h35.06.854,vts_reward_expectancy_bt_OFFLINE,2022.2.4,60.276964085877346,
0,0,1,0,0,1,0,0,hexagon,circle,1,0,1,0,0,5,5,7,,,,,,,,,,,,,,,,,,,,,,,,,,,,,,,,,,,,,,,,665.8385323249968,665.8385323249968,665.8385323249968,665.8385323249968,665.8385323249968,665.8385323249968,665.8385323249968,665.8385323249968,665.8385323249968,665.8385323249968,a,2.08659568298026,10,252,1,667.9575049229898,669.4590837169962,,,,,,,,,,,,,,,,,,,,,,,,,,,,,,,,,,,,,,,,,,,,,,,,,,,,,,,,,,,,,,,,,,,,,,,,,26157,2022-11-16_14h35.06.854,vts_reward_expectancy_bt_OFFLINE,2022.2.4,60.276964085877346,
1,0,0,0,0,1,0,0,triangle,circle,1,0,1,0,0,6,6,0,,,,,,,,,,,,,,,,,,,,,,,,,,,,,,,,,,,,,,,,669.9596002300095,669.9596002300095,669.9596002300095,669.9596002300095,669.9596002300095,669.9596002300095,669.9596002300095,669.9596002300095,669.9596002300095,669.9596002300095,a,1.5210583920124918,10,262,1,671.5114880680048,673.0130593619833,,,,,,,,,,,,,,,,,,,,,,,,,,,,,,,,,,,,,,,,,,,,,,,,,,,,,,,,,,,,,,,,,,,,,,,,,26157,2022-11-16_14h35.06.854,vts_reward_expectancy_bt_OFFLINE,2022.2.4,60.276964085877346,
0,1,0,0,0,0,0,1,circle,star,1,0,1,0,0,7,7,5,,,,,,,,,,,,,,,,,,,,,,,,,,,,,,,,,,,,,,,,673.5135646710114,673.5135646710114,673.5135646710114,673.5135646710114,673.5135646710114,673.5135646710114,673.5135646710114,673.5135646710114,673.5135646710114,673.5135646710114,a,3.6141986770089716,1,263,1,677.1510146159853,678.6526081979973,,,,,,,,,,,,,,,,,,,,,,,,,,,,,,,,,,,,,,,,,,,,,,,,,,,,,,,,,,,,,,,,,,,,,,,,,26157,2022-11-16_14h35.06.854,vts_reward_expectancy_bt_OFFLINE,2022.2.4,60.276964085877346,
0,1,0,0,1,0,0,0,circle,triangle,1,0,1,0,0,8,8,3,,,,,,,,,,,,,,,,,,,,,,,,,,,,,,,,,,,,,,,,679.1531310139981,679.1531310139981,679.1531310139981,679.1531310139981,679.1531310139981,679.1531310139981,679.1531310139981,679.1531310139981,679.1531310139981,679.1531310139981,l,1.3279148040164728,10,273,1,680.5045844140113,682.0065503680089,,,,,,,,,,,,,,,,,,,,,,,,,,,,,,,,,,,,,,,,,,,,,,,,,,,,,,,,,,,,,,,,,,,,,,,,,26157,2022-11-16_14h35.06.854,vts_reward_expectancy_bt_OFFLINE,2022.2.4,60.276964085877346,
1,0,0,0,0,0,0,1,triangle,star,1,0,1,0,0,9,9,2,,,,,,,,,,,,,,,,,,,,,,,,,,,,,,,,,,,,,,,,682.5069961539994,682.5069961539994,682.5069961539994,682.5069961539994,682.5069961539994,682.5069961539994,682.5069961539994,682.5069961539994,682.5069961539994,682.5069961539994,a,0.7855608690297231,10,283,1,683.324426125997,684.8260670299933,,,,,,,,,,,,,,,,,,,,,,,,,,,,,,,,,,,,,,,,,,,,,,,,,,,,,,,,,,,,,,,,,,,,,,,,,26157,2022-11-16_14h35.06.854,vts_reward_expectancy_bt_OFFLINE,2022.2.4,60.276964085877346,
0,0,1,0,1,0,0,0,hexagon,triangle,1,0,1,0,0,10,10,6,,,,,,,,,,,,,,,,,,,,,,,,,,,,,,,,,,,,,,,,685.3265440689865,685.3265440689865,685.3265440689865,685.3265440689865,685.3265440689865,685.3265440689865,685.3265440689865,685.3265440689865,685.3265440689865,685.3265440689865,l,0.7582698210026138,1,284,1,686.1109778649989,687.6124724510009,,,,,,,,,,,,,,,,,,,,,,,,,,,,,,,,,,,,,,,,,,,,,,,,,,,,,,,,,,,,,,,,,,,,,,,,,26157,2022-11-16_14h35.06.854,vts_reward_expectancy_bt_OFFLINE,2022.2.4,60.276964085877346,
0,0,1,0,0,0,0,1,hexagon,star,1,0,1,0,0,11,11,8,,,,,,,,,,,,,,,,,,,,,,,,,,,,,,,,,,,,,,,,688.113076595997,688.113076595997,688.113076595997,688.113076595997,688.113076595997,688.113076595997,688.113076595997,688.113076595997,688.113076595997,688.113076595997,a,2.4485522339819,10,294,1,690.582625977986,692.0840396400017,,,,,,,,,,,,,,,,,,,,,,,,,,,,,,,,,,,,,,,,,,,,,,,,,,,,,,,,,,,,,,,,,,,,,,,,,26157,2022-11-16_14h35.06.854,vts_reward_expectancy_bt_OFFLINE,2022.2.4,60.276964085877346,
0,1,0,0,1,0,0,0,circle,triangle,1,0,1,0,1,0,12,3,,,,,,,,,,,,,,,,,,,,,,,,,,,,,,,,,,,,,,,,692.5845332609897,692.5845332609897,692.5845332609897,692.5845332609897,692.5845332609897,692.5845332609897,692.5845332609897,692.5845332609897,692.5845332609897,692.5845332609897,a,1.3523080900195055,1,295,1,693.969594877999,695.4711931849888,,,,,,,,,,,,,,,,,,,,,,,,,,,,,,,,,,,,,,,,,,,,,,,,,,,,,,,,,,,,,,,,,,,,,,,,,26157,2022-11-16_14h35.06.854,vts_reward_expectancy_bt_OFFLINE,2022.2.4,60.276964085877346,
0,1,0,0,0,0,1,0,circle,hexagon,1,0,1,0,1,1,13,4,,,,,,,,,,,,,,,,,,,,,,,,,,,,,,,,,,,,,,,,695.971671509993,695.971671509993,695.971671509993,695.971671509993,695.971671509993,695.971671509993,695.971671509993,695.971671509993,695.971671509993,695.971671509993,l,0.7330395359895192,1,296,1,696.7224948820076,698.2241423339874,,,,,,,,,,,,,,,,,,,,,,,,,,,,,,,,,,,,,,,,,,,,,,,,,,,,,,,,,,,,,,,,,,,,,,,,,26157,2022-11-16_14h35.06.854,vts_reward_expectancy_bt_OFFLINE,2022.2.4,60.276964085877346,
0,0,0,1,0,0,1,0,star,hexagon,1,0,1,0,1,2,14,11,,,,,,,,,,,,,,,,,,,,,,,,,,,,,,,,,,,,,,,,698.7248334969918,698.7248334969918,698.7248334969918,698.7248334969918,698.7248334969918,698.7248334969918,698.7248334969918,698.7248334969918,698.7248334969918,698.7248334969918,a,0.993723191000754,1,297,1,699.742478664004,701.2440907910059,,,,,,,,,,,,,,,,,,,,,,,,,,,,,,,,,,,,,,,,,,,,,,,,,,,,,,,,,,,,,,,,,,,,,,,,,26157,2022-11-16_14h35.06.854,vts_reward_expectancy_bt_OFFLINE,2022.2.4,60.276964085877346,
1,0,0,0,0,0,0,1,triangle,star,1,0,1,0,1,3,15,2,,,,,,,,,,,,,,,,,,,,,,,,,,,,,,,,,,,,,,,,701.7447872659832,701.7447872659832,701.7447872659832,701.7447872659832,701.7447872659832,701.7447872659832,701.7447872659832,701.7447872659832,701.7447872659832,701.7447872659832,l,0.5401766750146635,10,307,1,702.3119462449977,703.8136814250029,,,,,,,,,,,,,,,,,,,,,,,,,,,,,,,,,,,,,,,,,,,,,,,,,,,,,,,,,,,,,,,,,,,,,,,,,26157,2022-11-16_14h35.06.854,vts_reward_expectancy_bt_OFFLINE,2022.2.4,60.276964085877346,
0,0,1,0,0,1,0,0,hexagon,circle,1,0,1,0,1,4,16,7,,,,,,,,,,,,,,,,,,,,,,,,,,,,,,,,,,,,,,,,704.3144038569881,704.3144038569881,704.3144038569881,704.3144038569881,704.3144038569881,704.3144038569881,704.3144038569881,704.3144038569881,704.3144038569881,704.3144038569881,a,0.7158221749996301,10,317,1,705.0484612889995,706.5500622190011,,,,,,,,,,,,,,,,,,,,,,,,,,,,,,,,,,,,,,,,,,,,,,,,,,,,,,,,,,,,,,,,,,,,,,,,,26157,2022-11-16_14h35.06.854,vts_reward_expectancy_bt_OFFLINE,2022.2.4,60.276964085877346,
0,0,0,1,0,1,0,0,star ,circle,1,0,1,0,1,5,17,10,,,,,,,,,,,,,,,,,,,,,,,,,,,,,,,,,,,,,,,,707.0508044489834,707.0508044489834,707.0508044489834,707.0508044489834,707.0508044489834,707.0508044489834,707.0508044489834,707.0508044489834,707.0508044489834,707.0508044489834,l,1.297627543011913,1,318,1,708.3686719159887,709.8704516589933,,,,,,,,,,,,,,,,,,,,,,,,,,,,,,,,,,,,,,,,,,,,,,,,,,,,,,,,,,,,,,,,,,,,,,,,,26157,2022-11-16_14h35.06.854,vts_reward_expectancy_bt_OFFLINE,2022.2.4,60.276964085877346,
0,0,1,0,1,0,0,0,hexagon,triangle,1,0,1,0,1,6,18,6,,,,,,,,,,,,,,,,,,,,,,,,,,,,,,,,,,,,,,,,710.3709602500021,710.3709602500021,710.3709602500021,710.3709602500021,710.3709602500021,710.3709602500021,710.3709602500021,710.3709602500021,710.3709602500021,710.3709602500021,a,2.0264227830048185,10,328,1,712.4230750580027,713.9248036950012,,,,,,,,,,,,,,,,,,,,,,,,,,,,,,,,,,,,,,,,,,,,,,,,,,,,,,,,,,,,,,,,,,,,,,,,,26157,2022-11-16_14h35.06.854,vts_reward_expectancy_bt_OFFLINE,2022.2.4,60.276964085877346,
0,0,0,1,1,0,0,0,star,triangle,1,0,1,0,1,7,19,9,,,,,,,,,,,,,,,,,,,,,,,,,,,,,,,,,,,,,,,,714.42542997899,714.42542997899,714.42542997899,714.42542997899,714.42542997899,714.42542997899,714.42542997899,714.42542997899,714.42542997899,714.42542997899,l,0.8862766160164028,10,338,1,715.3428035189863,716.8447827339987,,,,,,,,,,,,,,,,,,,,,,,,,,,,,,,,,,,,,,,,,,,,,,,,,,,,,,,,,,,,,,,,,,,,,,,,,26157,2022-11-16_14h35.06.854,vts_reward_expectancy_bt_OFFLINE,2022.2.4,60.276964085877346,
1,0,0,0,0,0,1,0,triangle,hexagon,1,0,1,0,1,8,20,1,,,,,,,,,,,,,,,,,,,,,,,,,,,,,,,,,,,,,,,,717.3453147539985,717.3453147539985,717.3453147539985,717.3453147539985,717.3453147539985,717.3453147539985,717.3453147539985,717.3453147539985,717.3453147539985,717.3453147539985,l,0.8910314670065418,10,348,1,718.2629838660068,719.7647321679979,,,,,,,,,,,,,,,,,,,,,,,,,,,,,,,,,,,,,,,,,,,,,,,,,,,,,,,,,,,,,,,,,,,,,,,,,26157,2022-11-16_14h35.06.854,vts_reward_expectancy_bt_OFFLINE,2022.2.4,60.276964085877346,
1,0,0,0,0,1,0,0,triangle,circle,1,0,1,0,1,9,21,0,,,,,,,,,,,,,,,,,,,,,,,,,,,,,,,,,,,,,,,,720.2651242800057,720.2651242800057,720.2651242800057,720.2651242800057,720.2651242800057,720.2651242800057,720.2651242800057,720.2651242800057,720.2651242800057,720.2651242800057,l,0.8287573270208668,1,349,1,721.1161114269926,722.6177500429912,,,,,,,,,,,,,,,,,,,,,,,,,,,,,,,,,,,,,,,,,,,,,,,,,,,,,,,,,,,,,,,,,,,,,,,,,26157,2022-11-16_14h35.06.854,vts_reward_expectancy_bt_OFFLINE,2022.2.4,60.276964085877346,
0,0,1,0,0,0,0,1,hexagon,star,1,0,1,0,1,10,22,8,,,,,,,,,,,,,,,,,,,,,,,,,,,,,,,,,,,,,,,,723.1182758510113,723.1182758510113,723.1182758510113,723.1182758510113,723.1182758510113,723.1182758510113,723.1182758510113,723.1182758510113,723.1182758510113,723.1182758510113,a,0.6996478700020816,10,359,1,723.8357806039858,725.3375719669857,,,,,,,,,,,,,,,,,,,,,,,,,,,,,,,,,,,,,,,,,,,,,,,,,,,,,,,,,,,,,,,,,,,,,,,,,26157,2022-11-16_14h35.06.854,vts_reward_expectancy_bt_OFFLINE,2022.2.4,60.276964085877346,
0,1,0,0,0,0,0,1,circle,star,1,0,1,0,1,11,23,5,,,,,,,,,,,,,,,,,,,,,,,,,,,,,,,,,,,,,,,,725.8379832229984,725.8379832229984,725.8379832229984,725.8379832229984,725.8379832229984,725.8379832229984,725.8379832229984,725.8379832229984,725.8379832229984,725.8379832229984,l,0.8594043160264846,1,360,1,726.7222433270072,728.2239483160083,,,,,,,,,,,,,,,,,,,,,,,,,,,,,,,,,,,,,,,,,,,,,,,,,,,,,,,,,,,,,,,,,,,,,,,,,26157,2022-11-16_14h35.06.854,vts_reward_expectancy_bt_OFFLINE,2022.2.4,60.276964085877346,
0,1,0,0,1,0,0,0,circle,triangle,1,0,1,0,2,0,24,3,,,,,,,,,,,,,,,,,,,,,,,,,,,,,,,,,,,,,,,,728.7245497390104,728.7245497390104,728.7245497390104,728.7245497390104,728.7245497390104,728.7245497390104,728.7245497390104,728.7245497390104,728.7245497390104,728.7245497390104,l,1.4839805439987686,10,370,1,730.2261477840075,731.7279898920096,,,,,,,,,,,,,,,,,,,,,,,,,,,,,,,,,,,,,,,,,,,,,,,,,,,,,,,,,,,,,,,,,,,,,,,,,26157,2022-11-16_14h35.06.854,vts_reward_expectancy_bt_OFFLINE,2022.2.4,60.276964085877346,
0,0,0,1,0,0,1,0,star,hexagon,1,0,1,0,2,1,25,11,,,,,,,,,,,,,,,,,,,,,,,,,,,,,,,,,,,,,,,,732.2282885919849,732.2282885919849,732.2282885919849,732.2282885919849,732.2282885919849,732.2282885919849,732.2282885919849,732.2282885919849,732.2282885919849,732.2282885919849,a,1.803449115017429,1,371,1,734.0638097749907,735.565440462,,,,,,,,,,,,,,,,,,,,,,,,,,,,,,,,,,,,,,,,,,,,,,,,,,,,,,,,,,,,,,,,,,,,,,,,,26157,2022-11-16_14h35.06.854,vts_reward_expectancy_bt_OFFLINE,2022.2.4,60.276964085877346,
0,0,0,1,0,1,0,0,star ,circle,1,0,1,0,2,2,26,10,,,,,,,,,,,,,,,,,,,,,,,,,,,,,,,,,,,,,,,,736.0658939999994,736.0658939999994,736.0658939999994,736.0658939999994,736.0658939999994,736.0658939999994,736.0658939999994,736.0658939999994,736.0658939999994,736.0658939999994,l,1.0838577679824084,1,372,1,737.1671496519994,738.6688496709976,,,,,,,,,,,,,,,,,,,,,,,,,,,,,,,,,,,,,,,,,,,,,,,,,,,,,,,,,,,,,,,,,,,,,,,,,26157,2022-11-16_14h35.06.854,vts_reward_expectancy_bt_OFFLINE,2022.2.4,60.276964085877346,
0,0,1,0,0,1,0,0,hexagon,circle,1,0,1,0,2,3,27,7,,,,,,,,,,,,,,,,,,,,,,,,,,,,,,,,,,,,,,,,739.169298895984,739.169298895984,739.169298895984,739.169298895984,739.169298895984,739.169298895984,739.169298895984,739.169298895984,739.169298895984,739.169298895984,l,0.7137979160179384,1,373,1,739.9035216599877,741.4052049329912,,,,,,,,,,,,,,,,,,,,,,,,,,,,,,,,,,,,,,,,,,,,,,,,,,,,,,,,,,,,,,,,,,,,,,,,,26157,2022-11-16_14h35.06.854,vts_reward_expectancy_bt_OFFLINE,2022.2.4,60.276964085877346,
0,0,1,0,1,0,0,0,hexagon,triangle,1,0,1,0,2,4,28,6,,,,,,,,,,,,,,,,,,,,,,,,,,,,,,,,,,,,,,,,741.9056912880042,741.9056912880042,741.9056912880042,741.9056912880042,741.9056912880042,741.9056912880042,741.9056912880042,741.9056912880042,741.9056912880042,741.9056912880042,l,0.23843895402387716,10,383,1,742.1725786369934,743.6743125309877,,,,,,,,,,,,,,,,,,,,,,,,,,,,,,,,,,,,,,,,,,,,,,,,,,,,,,,,,,,,,,,,,,,,,,,,,26157,2022-11-16_14h35.06.854,vts_reward_expectancy_bt_OFFLINE,2022.2.4,60.276964085877346,
0,0,0,1,1,0,0,0,star,triangle,1,0,1,0,2,5,29,9,,,,,,,,,,,,,,,,,,,,,,,,,,,,,,,,,,,,,,,,744.1747399249871,744.1747399249871,744.1747399249871,744.1747399249871,744.1747399249871,744.1747399249871,744.1747399249871,744.1747399249871,744.1747399249871,744.1747399249871,l,0.6689495620084926,10,393,1,744.8755689249956,746.3773487450089,,,,,,,,,,,,,,,,,,,,,,,,,,,,,,,,,,,,,,,,,,,,,,,,,,,,,,,,,,,,,,,,,,,,,,,,,26157,2022-11-16_14h35.06.854,vts_reward_expectancy_bt_OFFLINE,2022.2.4,60.276964085877346,
0,1,0,0,0,0,0,1,circle,star,1,0,1,0,2,6,30,5,,,,,,,,,,,,,,,,,,,,,,,,,,,,,,,,,,,,,,,,746.8778081320052,746.8778081320052,746.8778081320052,746.8778081320052,746.8778081320052,746.8778081320052,746.8778081320052,746.8778081320052,746.8778081320052,746.8778081320052,a,2.0378592450288124,1,394,1,748.9467887580104,750.4486043929937,,,,,,,,,,,,,,,,,,,,,,,,,,,,,,,,,,,,,,,,,,,,,,,,,,,,,,,,,,,,,,,,,,,,,,,,,26157,2022-11-16_14h35.06.854,vts_reward_expectancy_bt_OFFLINE,2022.2.4,60.276964085877346,
0,1,0,0,0,0,1,0,circle,hexagon,1,0,1,0,2,7,31,4,,,,,,,,,,,,,,,,,,,,,,,,,,,,,,,,,,,,,,,,750.948991237994,750.948991237994,750.948991237994,750.948991237994,750.948991237994,750.948991237994,750.948991237994,750.948991237994,750.948991237994,750.948991237994,l,0.9162821280187927,10,404,1,751.8834294189874,753.384990519,,,,,,,,,,,,,,,,,,,,,,,,,,,,,,,,,,,,,,,,,,,,,,,,,,,,,,,,,,,,,,,,,,,,,,,,,26157,2022-11-16_14h35.06.854,vts_reward_expectancy_bt_OFFLINE,2022.2.4,60.276964085877346,
0,0,1,0,0,0,0,1,hexagon,star,1,0,1,0,2,8,32,8,,,,,,,,,,,,,,,,,,,,,,,,,,,,,,,,,,,,,,,,753.8856004329864,753.8856004329864,753.8856004329864,753.8856004329864,753.8856004329864,753.8856004329864,753.8856004329864,753.8856004329864,753.8856004329864,753.8856004329864,a,1.9613747079856694,10,414,1,755.8710925850028,757.3729228310112,,,,,,,,,,,,,,,,,,,,,,,,,,,,,,,,,,,,,,,,,,,,,,,,,,,,,,,,,,,,,,,,,,,,,,,,,26157,2022-11-16_14h35.06.854,vts_reward_expectancy_bt_OFFLINE,2022.2.4,60.276964085877346,
1,0,0,0,0,0,0,1,triangle,star,1,0,1,0,2,9,33,2,,,,,,,,,,,,,,,,,,,,,,,,,,,,,,,,,,,,,,,,757.8734450209886,757.8734450209886,757.8734450209886,757.8734450209886,757.8734450209886,757.8734450209886,757.8734450209886,757.8734450209886,757.8734450209886,757.8734450209886,l,0.9438846570265014,10,424,1,758.8409853749909,760.3428644000087,,,,,,,,,,,,,,,,,,,,,,,,,,,,,,,,,,,,,,,,,,,,,,,,,,,,,,,,,,,,,,,,,,,,,,,,,26157,2022-11-16_14h35.06.854,vts_reward_expectancy_bt_OFFLINE,2022.2.4,60.276964085877346,
1,0,0,0,0,0,1,0,triangle,hexagon,1,0,1,0,2,10,34,1,,,,,,,,,,,,,,,,,,,,,,,,,,,,,,,,,,,,,,,,760.8434406759916,760.8434406759916,760.8434406759916,760.8434406759916,760.8434406759916,760.8434406759916,760.8434406759916,760.8434406759916,760.8434406759916,760.8434406759916,a,1.0780251440010034,10,434,1,761.9444668350043,763.4461830499931,,,,,,,,,,,,,,,,,,,,,,,,,,,,,,,,,,,,,,,,,,,,,,,,,,,,,,,,,,,,,,,,,,,,,,,,,26157,2022-11-16_14h35.06.854,vts_reward_expectancy_bt_OFFLINE,2022.2.4,60.276964085877346,
1,0,0,0,0,1,0,0,triangle,circle,1,0,1,0,2,11,35,0,,,,,,,,,,,,,,,,,,,,,,,,,,,,,,,,,,,,,,,,763.9468042239896,763.9468042239896,763.9468042239896,763.9468042239896,763.9468042239896,763.9468042239896,763.9468042239896,763.9468042239896,763.9468042239896,763.9468042239896,a,1.8684265800111461,10,444,1,765.8321246269916,767.3339092620008,,,,,,,,,,,,,,,,,,,,,,,,,,,,,,,,,,,,,,,,,,,,,,,,,,,,,,,,,,,,,,,,,,,,,,,,,26157,2022-11-16_14h35.06.854,vts_reward_expectancy_bt_OFFLINE,2022.2.4,60.276964085877346,
0,0,1,0,1,0,0,0,hexagon,triangle,1,0,1,0,3,0,36,6,,,,,,,,,,,,,,,,,,,,,,,,,,,,,,,,,,,,,,,,767.8343516000023,767.8343516000023,767.8343516000023,767.8343516000023,767.8343516000023,767.8343516000023,767.8343516000023,767.8343516000023,767.8343516000023,767.8343516000023,l,1.0857048750040121,1,445,1,768.9521894869977,770.4538069329865,,,,,,,,,,,,,,,,,,,,,,,,,,,,,,,,,,,,,,,,,,,,,,,,,,,,,,,,,,,,,,,,,,,,,,,,,26157,2022-11-16_14h35.06.854,vts_reward_expectancy_bt_OFFLINE,2022.2.4,60.276964085877346,
0,1,0,0,1,0,0,0,circle,triangle,1,0,1,0,3,1,37,3,,,,,,,,,,,,,,,,,,,,,,,,,,,,,,,,,,,,,,,,770.9545661149896,770.9545661149896,770.9545661149896,770.9545661149896,770.9545661149896,770.9545661149896,770.9545661149896,770.9545661149896,770.9545661149896,770.9545661149896,l,0.7546385860187002,10,455,1,771.7385041659873,773.2402398129925,,,,,,,,,,,,,,,,,,,,,,,,,,,,,,,,,,,,,,,,,,,,,,,,,,,,,,,,,,,,,,,,,,,,,,,,,26157,2022-11-16_14h35.06.854,vts_reward_expectancy_bt_OFFLINE,2022.2.4,60.276964085877346,
0,1,0,0,0,0,1,0,circle,hexagon,1,0,1,0,3,2,38,4,,,,,,,,,,,,,,,,,,,,,,,,,,,,,,,,,,,,,,,,773.7407434250053,773.7407434250053,773.7407434250053,773.7407434250053,773.7407434250053,773.7407434250053,773.7407434250053,773.7407434250053,773.7407434250053,773.7407434250053,l,1.3887638520100154,1,456,1,775.15916487301,776.6606236340012,,,,,,,,,,,,,,,,,,,,,,,,,,,,,,,,,,,,,,,,,,,,,,,,,,,,,,,,,,,,,,,,,,,,,,,,,26157,2022-11-16_14h35.06.854,vts_reward_expectancy_bt_OFFLINE,2022.2.4,60.276964085877346,
0,0,0,1,0,0,1,0,star,hexagon,1,0,1,0,3,3,39,11,,,,,,,,,,,,,,,,,,,,,,,,,,,,,,,,,,,,,,,,777.1613458440115,777.1613458440115,777.1613458440115,777.1613458440115,777.1613458440115,777.1613458440115,777.1613458440115,777.1613458440115,777.1613458440115,777.1613458440115,l,1.1643419299798552,10,466,1,778.3461483760038,779.8475687699975,,,,,,,,,,,,,,,,,,,,,,,,,,,,,,,,,,,,,,,,,,,,,,,,,,,,,,,,,,,,,,,,,,,,,,,,,26157,2022-11-16_14h35.06.854,vts_reward_expectancy_bt_OFFLINE,2022.2.4,60.276964085877346,
0,0,0,1,1,0,0,0,star,triangle,1,0,1,0,3,4,40,9,,,,,,,,,,,,,,,,,,,,,,,,,,,,,,,,,,,,,,,,780.3481545519899,780.3481545519899,780.3481545519899,780.3481545519899,780.3481545519899,780.3481545519899,780.3481545519899,780.3481545519899,780.3481545519899,780.3481545519899,l,0.7899863680067938,10,476,1,781.1656897799985,782.6673982829961,,,,,,,,,,,,,,,,,,,,,,,,,,,,,,,,,,,,,,,,,,,,,,,,,,,,,,,,,,,,,,,,,,,,,,,,,26157,2022-11-16_14h35.06.854,vts_reward_expectancy_bt_OFFLINE,2022.2.4,60.276964085877346,
0,1,0,0,0,0,0,1,circle,star,1,0,1,0,3,5,41,5,,,,,,,,,,,,,,,,,,,,,,,,,,,,,,,,,,,,,,,,783.1680605250003,783.1680605250003,783.1680605250003,783.1680605250003,783.1680605250003,783.1680605250003,783.1680605250003,783.1680605250003,783.1680605250003,783.1680605250003,a,0.8940396019897889,1,477,1,784.085488776007,785.5873238490021,,,,,,,,,,,,,,,,,,,,,,,,,,,,,,,,,,,,,,,,,,,,,,,,,,,,,,,,,,,,,,,,,,,,,,,,,26157,2022-11-16_14h35.06.854,vts_reward_expectancy_bt_OFFLINE,2022.2.4,60.276964085877346,
1,0,0,0,0,0,1,0,triangle,hexagon,1,0,1,0,3,6,42,1,,,,,,,,,,,,,,,,,,,,,,,,,,,,,,,,,,,,,,,,786.0878525580047,786.0878525580047,786.0878525580047,786.0878525580047,786.0878525580047,786.0878525580047,786.0878525580047,786.0878525580047,786.0878525580047,786.0878525580047,a,0.6301302770152688,1,478,1,786.7384901699843,788.2402200250071,,,,,,,,,,,,,,,,,,,,,,,,,,,,,,,,,,,,,,,,,,,,,,,,,,,,,,,,,,,,,,,,,,,,,,,,,26157,2022-11-16_14h35.06.854,vts_reward_expectancy_bt_OFFLINE,2022.2.4,60.276964085877346,
0,0,0,1,0,1,0,0,star ,circle,1,0,1,0,3,7,43,10,,,,,,,,,,,,,,,,,,,,,,,,,,,,,,,,,,,,,,,,788.7407644180057,788.7407644180057,788.7407644180057,788.7407644180057,788.7407644180057,788.7407644180057,788.7407644180057,788.7407644180057,788.7407644180057,788.7407644180057,l,1.7788911040115636,1,479,1,790.5427694320097,792.0443268780073,,,,,,,,,,,,,,,,,,,,,,,,,,,,,,,,,,,,,,,,,,,,,,,,,,,,,,,,,,,,,,,,,,,,,,,,,26157,2022-11-16_14h35.06.854,vts_reward_expectancy_bt_OFFLINE,2022.2.4,60.276964085877346,
1,0,0,0,0,1,0,0,triangle,circle,1,0,1,0,3,8,44,0,,,,,,,,,,,,,,,,,,,,,,,,,,,,,,,,,,,,,,,,792.5447692470043,792.5447692470043,792.5447692470043,792.5447692470043,792.5447692470043,792.5447692470043,792.5447692470043,792.5447692470043,792.5447692470043,792.5447692470043,a,1.2605031889979728,10,489,1,793.8295691729872,795.3313605019939,,,,,,,,,,,,,,,,,,,,,,,,,,,,,,,,,,,,,,,,,,,,,,,,,,,,,,,,,,,,,,,,,,,,,,,,,26157,2022-11-16_14h35.06.854,vts_reward_expectancy_bt_OFFLINE,2022.2.4,60.276964085877346,
0,0,1,0,0,0,0,1,hexagon,star,1,0,1,0,3,9,45,8,,,,,,,,,,,,,,,,,,,,,,,,,,,,,,,,,,,,,,,,795.8318393479858,795.8318393479858,795.8318393479858,795.8318393479858,795.8318393479858,795.8318393479858,795.8318393479858,795.8318393479858,795.8318393479858,795.8318393479858,a,1.5054976269893814,10,499,1,797.3669515970105,798.8685995120031,,,,,,,,,,,,,,,,,,,,,,,,,,,,,,,,,,,,,,,,,,,,,,,,,,,,,,,,,,,,,,,,,,,,,,,,,26157,2022-11-16_14h35.06.854,vts_reward_expectancy_bt_OFFLINE,2022.2.4,60.276964085877346,
0,0,1,0,0,1,0,0,hexagon,circle,1,0,1,0,3,10,46,7,,,,,,,,,,,,,,,,,,,,,,,,,,,,,,,,,,,,,,,,799.3683900540054,799.3683900540054,799.3683900540054,799.3683900540054,799.3683900540054,799.3683900540054,799.3683900540054,799.3683900540054,799.3683900540054,799.3683900540054,a,1.0749544930295087,10,509,1,800.4703303280112,801.9719099479844,,,,,,,,,,,,,,,,,,,,,,,,,,,,,,,,,,,,,,,,,,,,,,,,,,,,,,,,,,,,,,,,,,,,,,,,,26157,2022-11-16_14h35.06.854,vts_reward_expectancy_bt_OFFLINE,2022.2.4,60.276964085877346,
1,0,0,0,0,0,0,1,triangle,star,1,0,1,0,3,11,47,2,,,,,,,,,,,,,,,,,,,,,,,,,,,,,,,,,,,,,,,,802.47278611199,802.47278611199,802.47278611199,802.47278611199,802.47278611199,802.47278611199,802.47278611199,802.47278611199,802.47278611199,802.47278611199,l,1.0308198000129778,1,510,1,803.5238373100001,805.0252909660048,,,,,,,,,,,,,,,,,,,,,,,,,,,,,,,,,,,,,,,,,,,,,,,,,,,,,,,,,,,,,,,,,,,,,,,,,26157,2022-11-16_14h35.06.854,vts_reward_expectancy_bt_OFFLINE,2022.2.4,60.276964085877346,
0,1,0,0,0,0,1,0,circle,hexagon,2,0,2,0,0,0,0,4,,,,,,,,,,,,,,,,,,,,,,,,,,,,,,,,,,,,,,,,813.2720005319861,813.2720005319861,813.2720005319861,813.2720005319861,813.2720005319861,813.2720005319861,813.2720005319861,813.2720005319861,813.2720005319861,813.2720005319861,l,1.94309072199394,1,511,2,815.2367053290072,816.738295194984,,,,,,,,,,,,,,,,,,,,,,,,,,,,,,,,,,,,,,,,,,,,,,,,,,,,,,,,,,,,,,,,,,,,,,,,,26157,2022-11-16_14h35.06.854,vts_reward_expectancy_bt_OFFLINE,2022.2.4,60.276964085877346,
1,0,0,0,0,0,0,1,triangle,star,2,0,2,0,0,1,1,2,,,,,,,,,,,,,,,,,,,,,,,,,,,,,,,,,,,,,,,,817.2388853429875,817.2388853429875,817.2388853429875,817.2388853429875,817.2388853429875,817.2388853429875,817.2388853429875,817.2388853429875,817.2388853429875,817.2388853429875,a,0.4967104140087031,10,521,2,817.7560715510044,819.2576876780076,,,,,,,,,,,,,,,,,,,,,,,,,,,,,,,,,,,,,,,,,,,,,,,,,,,,,,,,,,,,,,,,,,,,,,,,,26157,2022-11-16_14h35.06.854,vts_reward_expectancy_bt_OFFLINE,2022.2.4,60.276964085877346,
0,1,0,0,0,0,0,1,circle,star,2,0,2,0,0,2,2,5,,,,,,,,,,,,,,,,,,,,,,,,,,,,,,,,,,,,,,,,819.7584126149886,819.7584126149886,819.7584126149886,819.7584126149886,819.7584126149886,819.7584126149886,819.7584126149886,819.7584126149886,819.7584126149886,819.7584126149886,l,0.7671525079931598,1,522,2,820.542573638988,822.0441593109863,,,,,,,,,,,,,,,,,,,,,,,,,,,,,,,,,,,,,,,,,,,,,,,,,,,,,,,,,,,,,,,,,,,,,,,,,26157,2022-11-16_14h35.06.854,vts_reward_expectancy_bt_OFFLINE,2022.2.4,60.276964085877346,
0,0,1,0,0,0,0,1,hexagon,star,2,0,2,0,0,3,3,8,,,,,,,,,,,,,,,,,,,,,,,,,,,,,,,,,,,,,,,,822.5446879749943,822.5446879749943,822.5446879749943,822.5446879749943,822.5446879749943,822.5446879749943,822.5446879749943,822.5446879749943,822.5446879749943,822.5446879749943,a,0.8840077530185226,1,523,2,823.4457260780036,824.9472530639905,,,,,,,,,,,,,,,,,,,,,,,,,,,,,,,,,,,,,,,,,,,,,,,,,,,,,,,,,,,,,,,,,,,,,,,,,26157,2022-11-16_14h35.06.854,vts_reward_expectancy_bt_OFFLINE,2022.2.4,60.276964085877346,
0,0,0,1,1,0,0,0,star,triangle,2,0,2,0,0,4,4,9,,,,,,,,,,,,,,,,,,,,,,,,,,,,,,,,,,,,,,,,825.447939982987,825.447939982987,825.447939982987,825.447939982987,825.447939982987,825.447939982987,825.447939982987,825.447939982987,825.447939982987,825.447939982987,l,0.567559949005954,10,533,2,826.048491730995,827.5500908439863,,,,,,,,,,,,,,,,,,,,,,,,,,,,,,,,,,,,,,,,,,,,,,,,,,,,,,,,,,,,,,,,,,,,,,,,,26157,2022-11-16_14h35.06.854,vts_reward_expectancy_bt_OFFLINE,2022.2.4,60.276964085877346,
0,0,1,0,0,1,0,0,hexagon,circle,2,0,2,0,0,5,5,7,,,,,,,,,,,,,,,,,,,,,,,,,,,,,,,,,,,,,,,,828.0506177679927,828.0506177679927,828.0506177679927,828.0506177679927,828.0506177679927,828.0506177679927,828.0506177679927,828.0506177679927,828.0506177679927,828.0506177679927,l,0.6652503290097229,1,534,2,828.7348001149949,830.236445380986,,,,,,,,,,,,,,,,,,,,,,,,,,,,,,,,,,,,,,,,,,,,,,,,,,,,,,,,,,,,,,,,,,,,,,,,,26157,2022-11-16_14h35.06.854,vts_reward_expectancy_bt_OFFLINE,2022.2.4,60.276964085877346,
0,0,0,1,0,1,0,0,star ,circle,2,0,2,0,0,6,6,10,,,,,,,,,,,,,,,,,,,,,,,,,,,,,,,,,,,,,,,,830.7370035380009,830.7370035380009,830.7370035380009,830.7370035380009,830.7370035380009,830.7370035380009,830.7370035380009,830.7370035380009,830.7370035380009,830.7370035380009,a,0.6782891319890041,1,535,2,831.437820947991,832.9396016680112,,,,,,,,,,,,,,,,,,,,,,,,,,,,,,,,,,,,,,,,,,,,,,,,,,,,,,,,,,,,,,,,,,,,,,,,,26157,2022-11-16_14h35.06.854,vts_reward_expectancy_bt_OFFLINE,2022.2.4,60.276964085877346,
1,0,0,0,0,1,0,0,triangle,circle,2,0,2,0,0,7,7,0,,,,,,,,,,,,,,,,,,,,,,,,,,,,,,,,,,,,,,,,833.4402097529965,833.4402097529965,833.4402097529965,833.4402097529965,833.4402097529965,833.4402097529965,833.4402097529965,833.4402097529965,833.4402097529965,833.4402097529965,a,1.743774164991919,10,545,2,835.2087594429904,836.7101480599958,,,,,,,,,,,,,,,,,,,,,,,,,,,,,,,,,,,,,,,,,,,,,,,,,,,,,,,,,,,,,,,,,,,,,,,,,26157,2022-11-16_14h35.06.854,vts_reward_expectancy_bt_OFFLINE,2022.2.4,60.276964085877346,
0,1,0,0,1,0,0,0,circle,triangle,2,0,2,0,0,8,8,3,,,,,,,,,,,,,,,,,,,,,,,,,,,,,,,,,,,,,,,,837.2108309459873,837.2108309459873,837.2108309459873,837.2108309459873,837.2108309459873,837.2108309459873,837.2108309459873,837.2108309459873,837.2108309459873,837.2108309459873,l,0.4267177610017825,1,546,2,837.6612782120064,839.1629516420071,,,,,,,,,,,,,,,,,,,,,,,,,,,,,,,,,,,,,,,,,,,,,,,,,,,,,,,,,,,,,,,,,,,,,,,,,26157,2022-11-16_14h35.06.854,vts_reward_expectancy_bt_OFFLINE,2022.2.4,60.276964085877346,
1,0,0,0,0,0,1,0,triangle,hexagon,2,0,2,0,0,9,9,1,,,,,,,,,,,,,,,,,,,,,,,,,,,,,,,,,,,,,,,,839.6635088619951,839.6635088619951,839.6635088619951,839.6635088619951,839.6635088619951,839.6635088619951,839.6635088619951,839.6635088619951,839.6635088619951,839.6635088619951,a,0.436186594015453,10,556,2,840.1309093599848,841.6323800100072,,,,,,,,,,,,,,,,,,,,,,,,,,,,,,,,,,,,,,,,,,,,,,,,,,,,,,,,,,,,,,,,,,,,,,,,,26157,2022-11-16_14h35.06.854,vts_reward_expectancy_bt_OFFLINE,2022.2.4,60.276964085877346,
0,0,1,0,1,0,0,0,hexagon,triangle,2,0,2,0,0,10,10,6,,,,,,,,,,,,,,,,,,,,,,,,,,,,,,,,,,,,,,,,842.1328889630095,842.1328889630095,842.1328889630095,842.1328889630095,842.1328889630095,842.1328889630095,842.1328889630095,842.1328889630095,842.1328889630095,842.1328889630095,l,0.3745761289901566,10,566,2,842.5334690760064,844.0350217899831,,,,,,,,,,,,,,,,,,,,,,,,,,,,,,,,,,,,,,,,,,,,,,,,,,,,,,,,,,,,,,,,,,,,,,,,,26157,2022-11-16_14h35.06.854,vts_reward_expectancy_bt_OFFLINE,2022.2.4,60.276964085877346,
0,0,0,1,0,0,1,0,star,hexagon,2,0,2,0,0,11,11,11,,,,,,,,,,,,,,,,,,,,,,,,,,,,,,,,,,,,,,,,844.5355614709842,844.5355614709842,844.5355614709842,844.5355614709842,844.5355614709842,844.5355614709842,844.5355614709842,844.5355614709842,844.5355614709842,844.5355614709842,l,1.7089578760205768,10,576,2,846.2709320840077,847.7724887469958,,,,,,,,,,,,,,,,,,,,,,,,,,,,,,,,,,,,,,,,,,,,,,,,,,,,,,,,,,,,,,,,,,,,,,,,,26157,2022-11-16_14h35.06.854,vts_reward_expectancy_bt_OFFLINE,2022.2.4,60.276964085877346,
0,0,1,0,0,1,0,0,hexagon,circle,2,0,2,0,1,0,12,7,,,,,,,,,,,,,,,,,,,,,,,,,,,,,,,,,,,,,,,,848.2729942139995,848.2729942139995,848.2729942139995,848.2729942139995,848.2729942139995,848.2729942139995,848.2729942139995,848.2729942139995,848.2729942139995,848.2729942139995,a,0.9628021950193215,10,586,2,849.2576050859934,850.7591001089895,,,,,,,,,,,,,,,,,,,,,,,,,,,,,,,,,,,,,,,,,,,,,,,,,,,,,,,,,,,,,,,,,,,,,,,,,26157,2022-11-16_14h35.06.854,vts_reward_expectancy_bt_OFFLINE,2022.2.4,60.276964085877346,
0,1,0,0,1,0,0,0,circle,triangle,2,0,2,0,1,1,13,3,,,,,,,,,,,,,,,,,,,,,,,,,,,,,,,,,,,,,,,,851.2596398059977,851.2596398059977,851.2596398059977,851.2596398059977,851.2596398059977,851.2596398059977,851.2596398059977,851.2596398059977,851.2596398059977,851.2596398059977,l,2.0487802200077567,10,596,2,853.3285813629918,854.8304971350008,,,,,,,,,,,,,,,,,,,,,,,,,,,,,,,,,,,,,,,,,,,,,,,,,,,,,,,,,,,,,,,,,,,,,,,,,26157,2022-11-16_14h35.06.854,vts_reward_expectancy_bt_OFFLINE,2022.2.4,60.276964085877346,
0,1,0,0,0,0,1,0,circle,hexagon,2,0,2,0,1,2,14,4,,,,,,,,,,,,,,,,,,,,,,,,,,,,,,,,,,,,,,,,855.3307888550044,855.3307888550044,855.3307888550044,855.3307888550044,855.3307888550044,855.3307888550044,855.3307888550044,855.3307888550044,855.3307888550044,855.3307888550044,l,0.654765043000225,1,597,2,856.0151751329831,857.5165664849919,,,,,,,,,,,,,,,,,,,,,,,,,,,,,,,,,,,,,,,,,,,,,,,,,,,,,,,,,,,,,,,,,,,,,,,,,26157,2022-11-16_14h35.06.854,vts_reward_expectancy_bt_OFFLINE,2022.2.4,60.276964085877346,
0,0,1,0,0,0,0,1,hexagon,star,2,0,2,0,1,3,15,8,,,,,,,,,,,,,,,,,,,,,,,,,,,,,,,,,,,,,,,,858.0170903909893,858.0170903909893,858.0170903909893,858.0170903909893,858.0170903909893,858.0170903909893,858.0170903909893,858.0170903909893,858.0170903909893,858.0170903909893,a,1.636091700027464,1,598,2,859.6856126679922,861.1874437769875,,,,,,,,,,,,,,,,,,,,,,,,,,,,,,,,,,,,,,,,,,,,,,,,,,,,,,,,,,,,,,,,,,,,,,,,,26157,2022-11-16_14h35.06.854,vts_reward_expectancy_bt_OFFLINE,2022.2.4,60.276964085877346,
0,0,0,1,0,0,1,0,star,hexagon,2,0,2,0,1,4,16,11,,,,,,,,,,,,,,,,,,,,,,,,,,,,,,,,,,,,,,,,861.6878333780041,861.6878333780041,861.6878333780041,861.6878333780041,861.6878333780041,861.6878333780041,861.6878333780041,861.6878333780041,861.6878333780041,861.6878333780041,l,2.9603351120022126,10,608,2,864.6743137830053,866.1760594949883,,,,,,,,,,,,,,,,,,,,,,,,,,,,,,,,,,,,,,,,,,,,,,,,,,,,,,,,,,,,,,,,,,,,,,,,,26157,2022-11-16_14h35.06.854,vts_reward_expectancy_bt_OFFLINE,2022.2.4,60.276964085877346,
0,0,0,1,0,1,0,0,star ,circle,2,0,2,0,1,5,17,10,,,,,,,,,,,,,,,,,,,,,,,,,,,,,,,,,,,,,,,,866.6765053989948,866.6765053989948,866.6765053989948,866.6765053989948,866.6765053989948,866.6765053989948,866.6765053989948,866.6765053989948,866.6765053989948,866.6765053989948,a,0.9874631060229149,10,618,2,867.6943247980089,869.1959125770081,,,,,,,,,,,,,,,,,,,,,,,,,,,,,,,,,,,,,,,,,,,,,,,,,,,,,,,,,,,,,,,,,,,,,,,,,26157,2022-11-16_14h35.06.854,vts_reward_expectancy_bt_OFFLINE,2022.2.4,60.276964085877346,
0,1,0,0,0,0,0,1,circle,star,2,0,2,0,1,6,18,5,,,,,,,,,,,,,,,,,,,,,,,,,,,,,,,,,,,,,,,,869.6967376440007,869.6967376440007,869.6967376440007,869.6967376440007,869.6967376440007,869.6967376440007,869.6967376440007,869.6967376440007,869.6967376440007,869.6967376440007,l,0.8240881480160169,1,619,2,870.5476718349964,872.0492950530024,,,,,,,,,,,,,,,,,,,,,,,,,,,,,,,,,,,,,,,,,,,,,,,,,,,,,,,,,,,,,,,,,,,,,,,,,26157,2022-11-16_14h35.06.854,vts_reward_expectancy_bt_OFFLINE,2022.2.4,60.276964085877346,
0,0,0,1,1,0,0,0,star,triangle,2,0,2,0,1,7,19,9,,,,,,,,,,,,,,,,,,,,,,,,,,,,,,,,,,,,,,,,872.54965897699,872.54965897699,872.54965897699,872.54965897699,872.54965897699,872.54965897699,872.54965897699,872.54965897699,872.54965897699,872.54965897699,l,0.8520020360010676,10,629,2,873.434268801997,874.9358365070075,,,,,,,,,,,,,,,,,,,,,,,,,,,,,,,,,,,,,,,,,,,,,,,,,,,,,,,,,,,,,,,,,,,,,,,,,26157,2022-11-16_14h35.06.854,vts_reward_expectancy_bt_OFFLINE,2022.2.4,60.276964085877346,
1,0,0,0,0,0,1,0,triangle,hexagon,2,0,2,0,1,8,20,1,,,,,,,,,,,,,,,,,,,,,,,,,,,,,,,,,,,,,,,,875.436429533991,875.436429533991,875.436429533991,875.436429533991,875.436429533991,875.436429533991,875.436429533991,875.436429533991,875.436429533991,875.436429533991,a,1.0923264140146784,10,639,2,876.554236986005,878.0559244309843,,,,,,,,,,,,,,,,,,,,,,,,,,,,,,,,,,,,,,,,,,,,,,,,,,,,,,,,,,,,,,,,,,,,,,,,,26157,2022-11-16_14h35.06.854,vts_reward_expectancy_bt_OFFLINE,2022.2.4,60.276964085877346,
0,0,1,0,1,0,0,0,hexagon,triangle,2,0,2,0,1,9,21,6,,,,,,,,,,,,,,,,,,,,,,,,,,,,,,,,,,,,,,,,878.5563279319904,878.5563279319904,878.5563279319904,878.5563279319904,878.5563279319904,878.5563279319904,878.5563279319904,878.5563279319904,878.5563279319904,878.5563279319904,l,0.5840094660234172,10,649,2,879.1570148149913,880.6586714290024,,,,,,,,,,,,,,,,,,,,,,,,,,,,,,,,,,,,,,,,,,,,,,,,,,,,,,,,,,,,,,,,,,,,,,,,,26157,2022-11-16_14h35.06.854,vts_reward_expectancy_bt_OFFLINE,2022.2.4,60.276964085877346,
1,0,0,0,0,1,0,0,triangle,circle,2,0,2,0,1,10,22,0,,,,,,,,,,,,,,,,,,,,,,,,,,,,,,,,,,,,,,,,881.1591885389935,881.1591885389935,881.1591885389935,881.1591885389935,881.1591885389935,881.1591885389935,881.1591885389935,881.1591885389935,881.1591885389935,881.1591885389935,a,2.8294652800250333,10,659,2,884.0122883050062,885.5140861439868,,,,,,,,,,,,,,,,,,,,,,,,,,,,,,,,,,,,,,,,,,,,,,,,,,,,,,,,,,,,,,,,,,,,,,,,,26157,2022-11-16_14h35.06.854,vts_reward_expectancy_bt_OFFLINE,2022.2.4,60.276964085877346,
1,0,0,0,0,0,0,1,triangle,star,2,0,2,0,1,11,23,2,,,,,,,,,,,,,,,,,,,,,,,,,,,,,,,,,,,,,,,,886.0145889569831,886.0145889569831,886.0145889569831,886.0145889569831,886.0145889569831,886.0145889569831,886.0145889569831,886.0145889569831,886.0145889569831,886.0145889569831,a,0.8419951340183616,1,660,2,886.8822538999957,888.3840470770083,,,,,,,,,,,,,,,,,,,,,,,,,,,,,,,,,,,,,,,,,,,,,,,,,,,,,,,,,,,,,,,,,,,,,,,,,26157,2022-11-16_14h35.06.854,vts_reward_expectancy_bt_OFFLINE,2022.2.4,60.276964085877346,
1,0,0,0,0,0,1,0,triangle,hexagon,2,0,2,0,2,0,24,1,,,,,,,,,,,,,,,,,,,,,,,,,,,,,,,,,,,,,,,,888.8844954280066,888.8844954280066,888.8844954280066,888.8844954280066,888.8844954280066,888.8844954280066,888.8844954280066,888.8844954280066,888.8844954280066,888.8844954280066,l,0.6281656030041631,1,661,2,889.5352421510033,891.0368563229858,,,,,,,,,,,,,,,,,,,,,,,,,,,,,,,,,,,,,,,,,,,,,,,,,,,,,,,,,,,,,,,,,,,,,,,,,26157,2022-11-16_14h35.06.854,vts_reward_expectancy_bt_OFFLINE,2022.2.4,60.276964085877346,
0,0,0,1,0,0,1,0,star,hexagon,2,0,2,0,2,1,25,11,,,,,,,,,,,,,,,,,,,,,,,,,,,,,,,,,,,,,,,,891.5373391410103,891.5373391410103,891.5373391410103,891.5373391410103,891.5373391410103,891.5373391410103,891.5373391410103,891.5373391410103,891.5373391410103,891.5373391410103,l,1.395503591018496,10,671,2,892.9557361149928,894.4573447690054,,,,,,,,,,,,,,,,,,,,,,,,,,,,,,,,,,,,,,,,,,,,,,,,,,,,,,,,,,,,,,,,,,,,,,,,,26157,2022-11-16_14h35.06.854,vts_reward_expectancy_bt_OFFLINE,2022.2.4,60.276964085877346,
0,0,0,1,0,1,0,0,star ,circle,2,0,2,0,2,2,26,10,,,,,,,,,,,,,,,,,,,,,,,,,,,,,,,,,,,,,,,,894.9579406839912,894.9579406839912,894.9579406839912,894.9579406839912,894.9579406839912,894.9579406839912,894.9579406839912,894.9579406839912,894.9579406839912,894.9579406839912,a,1.6198229909932707,10,681,2,896.609736154991,898.1113574549963,,,,,,,,,,,,,,,,,,,,,,,,,,,,,,,,,,,,,,,,,,,,,,,,,,,,,,,,,,,,,,,,,,,,,,,,,26157,2022-11-16_14h35.06.854,vts_reward_expectancy_bt_OFFLINE,2022.2.4,60.276964085877346,
1,0,0,0,0,1,0,0,triangle,circle,2,0,2,0,2,3,27,0,,,,,,,,,,,,,,,,,,,,,,,,,,,,,,,,,,,,,,,,898.6118221879879,898.6118221879879,898.6118221879879,898.6118221879879,898.6118221879879,898.6118221879879,898.6118221879879,898.6118221879879,898.6118221879879,898.6118221879879,a,0.8685420679976232,10,691,2,899.5130111059989,901.0144499700109,,,,,,,,,,,,,,,,,,,,,,,,,,,,,,,,,,,,,,,,,,,,,,,,,,,,,,,,,,,,,,,,,,,,,,,,,26157,2022-11-16_14h35.06.854,vts_reward_expectancy_bt_OFFLINE,2022.2.4,60.276964085877346,
0,0,0,1,1,0,0,0,star,triangle,2,0,2,0,2,4,28,9,,,,,,,,,,,,,,,,,,,,,,,,,,,,,,,,,,,,,,,,901.515023562999,901.515023562999,901.515023562999,901.515023562999,901.515023562999,901.515023562999,901.515023562999,901.515023562999,901.515023562999,901.515023562999,l,0.777220963005675,10,701,2,902.3159022910113,903.817557376984,,,,,,,,,,,,,,,,,,,,,,,,,,,,,,,,,,,,,,,,,,,,,,,,,,,,,,,,,,,,,,,,,,,,,,,,,26157,2022-11-16_14h35.06.854,vts_reward_expectancy_bt_OFFLINE,2022.2.4,60.276964085877346,
0,0,1,0,0,0,0,1,hexagon,star,2,0,2,0,2,5,29,8,,,,,,,,,,,,,,,,,,,,,,,,,,,,,,,,,,,,,,,,904.3181175570062,904.3181175570062,904.3181175570062,904.3181175570062,904.3181175570062,904.3181175570062,904.3181175570062,904.3181175570062,904.3181175570062,904.3181175570062,a,1.8449660369951744,1,702,2,906.1868640100001,907.6886039359961,,,,,,,,,,,,,,,,,,,,,,,,,,,,,,,,,,,,,,,,,,,,,,,,,,,,,,,,,,,,,,,,,,,,,,,,,26157,2022-11-16_14h35.06.854,vts_reward_expectancy_bt_OFFLINE,2022.2.4,60.276964085877346,
0,1,0,0,0,0,1,0,circle,hexagon,2,0,2,0,2,6,30,4,,,,,,,,,,,,,,,,,,,,,,,,,,,,,,,,,,,,,,,,908.1890172880085,908.1890172880085,908.1890172880085,908.1890172880085,908.1890172880085,908.1890172880085,908.1890172880085,908.1890172880085,908.1890172880085,908.1890172880085,a,1.438040302018635,1,703,2,909.6571905610035,911.1590056369896,,,,,,,,,,,,,,,,,,,,,,,,,,,,,,,,,,,,,,,,,,,,,,,,,,,,,,,,,,,,,,,,,,,,,,,,,26157,2022-11-16_14h35.06.854,vts_reward_expectancy_bt_OFFLINE,2022.2.4,60.276964085877346,
0,1,0,0,1,0,0,0,circle,triangle,2,0,2,0,2,7,31,3,,,,,,,,,,,,,,,,,,,,,,,,,,,,,,,,,,,,,,,,911.6595304479997,911.6595304479997,911.6595304479997,911.6595304479997,911.6595304479997,911.6595304479997,911.6595304479997,911.6595304479997,911.6595304479997,911.6595304479997,l,0.6796768920321483,10,713,2,912.3604026009853,913.8619916710013,,,,,,,,,,,,,,,,,,,,,,,,,,,,,,,,,,,,,,,,,,,,,,,,,,,,,,,,,,,,,,,,,,,,,,,,,26157,2022-11-16_14h35.06.854,vts_reward_expectancy_bt_OFFLINE,2022.2.4,60.276964085877346,
0,0,1,0,1,0,0,0,hexagon,triangle,2,0,2,0,2,8,32,6,,,,,,,,,,,,,,,,,,,,,,,,,,,,,,,,,,,,,,,,914.3626322739874,914.3626322739874,914.3626322739874,914.3626322739874,914.3626322739874,914.3626322739874,914.3626322739874,914.3626322739874,914.3626322739874,914.3626322739874,a,0.9470120600017253,10,723,2,915.3302899400005,916.8320741259959,,,,,,,,,,,,,,,,,,,,,,,,,,,,,,,,,,,,,,,,,,,,,,,,,,,,,,,,,,,,,,,,,,,,,,,,,26157,2022-11-16_14h35.06.854,vts_reward_expectancy_bt_OFFLINE,2022.2.4,60.276964085877346,
1,0,0,0,0,0,0,1,triangle,star,2,0,2,0,2,9,33,2,,,,,,,,,,,,,,,,,,,,,,,,,,,,,,,,,,,,,,,,917.3324498999864,917.3324498999864,917.3324498999864,917.3324498999864,917.3324498999864,917.3324498999864,917.3324498999864,917.3324498999864,917.3324498999864,917.3324498999864,a,1.0821506530337501,1,724,2,918.433754608006,919.9355780039914,,,,,,,,,,,,,,,,,,,,,,,,,,,,,,,,,,,,,,,,,,,,,,,,,,,,,,,,,,,,,,,,,,,,,,,,,26157,2022-11-16_14h35.06.854,vts_reward_expectancy_bt_OFFLINE,2022.2.4,60.276964085877346,
0,1,0,0,0,0,0,1,circle,star,2,0,2,0,2,10,34,5,,,,,,,,,,,,,,,,,,,,,,,,,,,,,,,,,,,,,,,,920.4360053499986,920.4360053499986,920.4360053499986,920.4360053499986,920.4360053499986,920.4360053499986,920.4360053499986,920.4360053499986,920.4360053499986,920.4360053499986,l,2.072897219011793,1,725,2,922.5382048949832,924.0400169439963,,,,,,,,,,,,,,,,,,,,,,,,,,,,,,,,,,,,,,,,,,,,,,,,,,,,,,,,,,,,,,,,,,,,,,,,,26157,2022-11-16_14h35.06.854,vts_reward_expectancy_bt_OFFLINE,2022.2.4,60.276964085877346,
0,0,1,0,0,1,0,0,hexagon,circle,2,0,2,0,2,11,35,7,,,,,,,,,,,,,,,,,,,,,,,,,,,,,,,,,,,,,,,,924.5404919800058,924.5404919800058,924.5404919800058,924.5404919800058,924.5404919800058,924.5404919800058,924.5404919800058,924.5404919800058,924.5404919800058,924.5404919800058,a,0.8033108160307165,10,735,2,925.3747595669993,926.8764526089944,,,,,,,,,,,,,,,,,,,,,,,,,,,,,,,,,,,,,,,,,,,,,,,,,,,,,,,,,,,,,,,,,,,,,,,,,26157,2022-11-16_14h35.06.854,vts_reward_expectancy_bt_OFFLINE,2022.2.4,60.276964085877346,
0,0,0,1,0,0,1,0,star,hexagon,2,0,2,0,3,0,36,11,,,,,,,,,,,,,,,,,,,,,,,,,,,,,,,,,,,,,,,,927.3769106089894,927.3769106089894,927.3769106089894,927.3769106089894,927.3769106089894,927.3769106089894,927.3769106089894,927.3769106089894,927.3769106089894,927.3769106089894,a,0.8023058230173774,10,745,2,928.211172018986,929.7128509269969,,,,,,,,,,,,,,,,,,,,,,,,,,,,,,,,,,,,,,,,,,,,,,,,,,,,,,,,,,,,,,,,,,,,,,,,,26157,2022-11-16_14h35.06.854,vts_reward_expectancy_bt_OFFLINE,2022.2.4,60.276964085877346,
1,0,0,0,0,1,0,0,triangle,circle,2,0,2,0,3,1,37,0,,,,,,,,,,,,,,,,,,,,,,,,,,,,,,,,,,,,,,,,930.213388203003,930.213388203003,930.213388203003,930.213388203003,930.213388203003,930.213388203003,930.213388203003,930.213388203003,930.213388203003,930.213388203003,a,0.6432078010111582,1,746,2,930.8807487390004,932.3825120489928,,,,,,,,,,,,,,,,,,,,,,,,,,,,,,,,,,,,,,,,,,,,,,,,,,,,,,,,,,,,,,,,,,,,,,,,,26157,2022-11-16_14h35.06.854,vts_reward_expectancy_bt_OFFLINE,2022.2.4,60.276964085877346,
1,0,0,0,0,0,0,1,triangle,star,2,0,2,0,3,2,38,2,,,,,,,,,,,,,,,,,,,,,,,,,,,,,,,,,,,,,,,,932.8829889209883,932.8829889209883,932.8829889209883,932.8829889209883,932.8829889209883,932.8829889209883,932.8829889209883,932.8829889209883,932.8829889209883,932.8829889209883,a,1.1472106320143212,10,756,2,934.0510555439978,935.5525806219957,,,,,,,,,,,,,,,,,,,,,,,,,,,,,,,,,,,,,,,,,,,,,,,,,,,,,,,,,,,,,,,,,,,,,,,,,26157,2022-11-16_14h35.06.854,vts_reward_expectancy_bt_OFFLINE,2022.2.4,60.276964085877346,
0,1,0,0,0,0,1,0,circle,hexagon,2,0,2,0,3,3,39,4,,,,,,,,,,,,,,,,,,,,,,,,,,,,,,,,,,,,,,,,936.0529792779998,936.0529792779998,936.0529792779998,936.0529792779998,936.0529792779998,936.0529792779998,936.0529792779998,936.0529792779998,936.0529792779998,936.0529792779998,a,1.5671434569812845,1,757,2,937.6381700269994,939.1400679709914,,,,,,,,,,,,,,,,,,,,,,,,,,,,,,,,,,,,,,,,,,,,,,,,,,,,,,,,,,,,,,,,,,,,,,,,,26157,2022-11-16_14h35.06.854,vts_reward_expectancy_bt_OFFLINE,2022.2.4,60.276964085877346,
0,1,0,0,1,0,0,0,circle,triangle,2,0,2,0,3,4,40,3,,,,,,,,,,,,,,,,,,,,,,,,,,,,,,,,,,,,,,,,939.6405421579839,939.6405421579839,939.6405421579839,939.6405421579839,939.6405421579839,939.6405421579839,939.6405421579839,939.6405421579839,939.6405421579839,939.6405421579839,l,0.6210637569893152,10,767,2,940.2911924970103,941.7928234550054,,,,,,,,,,,,,,,,,,,,,,,,,,,,,,,,,,,,,,,,,,,,,,,,,,,,,,,,,,,,,,,,,,,,,,,,,26157,2022-11-16_14h35.06.854,vts_reward_expectancy_bt_OFFLINE,2022.2.4,60.276964085877346,
1,0,0,0,0,0,1,0,triangle,hexagon,2,0,2,0,3,5,41,1,,,,,,,,,,,,,,,,,,,,,,,,,,,,,,,,,,,,,,,,942.2935251620074,942.2935251620074,942.2935251620074,942.2935251620074,942.2935251620074,942.2935251620074,942.2935251620074,942.2935251620074,942.2935251620074,942.2935251620074,a,0.8715673160040751,10,777,2,943.1943610550079,944.696158968989,,,,,,,,,,,,,,,,,,,,,,,,,,,,,,,,,,,,,,,,,,,,,,,,,,,,,,,,,,,,,,,,,,,,,,,,,26157,2022-11-16_14h35.06.854,vts_reward_expectancy_bt_OFFLINE,2022.2.4,60.276964085877346,
0,1,0,0,0,0,0,1,circle,star,2,0,2,0,3,6,42,5,,,,,,,,,,,,,,,,,,,,,,,,,,,,,,,,,,,,,,,,945.1966787139827,945.1966787139827,945.1966787139827,945.1966787139827,945.1966787139827,945.1966787139827,945.1966787139827,945.1966787139827,945.1966787139827,945.1966787139827,a,1.3333429580088705,10,787,2,946.5482801879989,948.0497494039882,,,,,,,,,,,,,,,,,,,,,,,,,,,,,,,,,,,,,,,,,,,,,,,,,,,,,,,,,,,,,,,,,,,,,,,,,26157,2022-11-16_14h35.06.854,vts_reward_expectancy_bt_OFFLINE,2022.2.4,60.276964085877346,
0,0,0,1,1,0,0,0,star,triangle,2,0,2,0,3,7,43,9,,,,,,,,,,,,,,,,,,,,,,,,,,,,,,,,,,,,,,,,948.550434136996,948.550434136996,948.550434136996,948.550434136996,948.550434136996,948.550434136996,948.550434136996,948.550434136996,948.550434136996,948.550434136996,l,0.677964864007663,10,797,2,949.2511163649906,950.7528169729922,,,,,,,,,,,,,,,,,,,,,,,,,,,,,,,,,,,,,,,,,,,,,,,,,,,,,,,,,,,,,,,,,,,,,,,,,26157,2022-11-16_14h35.06.854,vts_reward_expectancy_bt_OFFLINE,2022.2.4,60.276964085877346,
0,0,0,1,0,1,0,0,star ,circle,2,0,2,0,3,8,44,10,,,,,,,,,,,,,,,,,,,,,,,,,,,,,,,,,,,,,,,,951.2532142589916,951.2532142589916,951.2532142589916,951.2532142589916,951.2532142589916,951.2532142589916,951.2532142589916,951.2532142589916,951.2532142589916,951.2532142589916,a,0.2705493390094489,10,807,2,951.5536283859983,953.0552659700043,,,,,,,,,,,,,,,,,,,,,,,,,,,,,,,,,,,,,,,,,,,,,,,,,,,,,,,,,,,,,,,,,,,,,,,,,26157,2022-11-16_14h35.06.854,vts_reward_expectancy_bt_OFFLINE,2022.2.4,60.276964085877346,
0,0,1,0,0,0,0,1,hexagon,star,2,0,2,0,3,9,45,8,,,,,,,,,,,,,,,,,,,,,,,,,,,,,,,,,,,,,,,,953.5558305849845,953.5558305849845,953.5558305849845,953.5558305849845,953.5558305849845,953.5558305849845,953.5558305849845,953.5558305849845,953.5558305849845,953.5558305849845,l,0.5565334449929651,1,808,2,954.1399194560072,955.6413829480007,,,,,,,,,,,,,,,,,,,,,,,,,,,,,,,,,,,,,,,,,,,,,,,,,,,,,,,,,,,,,,,,,,,,,,,,,26157,2022-11-16_14h35.06.854,vts_reward_expectancy_bt_OFFLINE,2022.2.4,60.276964085877346,
0,0,1,0,0,1,0,0,hexagon,circle,2,0,2,0,3,10,46,7,,,,,,,,,,,,,,,,,,,,,,,,,,,,,,,,,,,,,,,,956.1419881150068,956.1419881150068,956.1419881150068,956.1419881150068,956.1419881150068,956.1419881150068,956.1419881150068,956.1419881150068,956.1419881150068,956.1419881150068,a,1.0523502320284024,1,809,2,957.226627283002,958.72820227599,,,,,,,,,,,,,,,,,,,,,,,,,,,,,,,,,,,,,,,,,,,,,,,,,,,,,,,,,,,,,,,,,,,,,,,,,26157,2022-11-16_14h35.06.854,vts_reward_expectancy_bt_OFFLINE,2022.2.4,60.276964085877346,
0,0,1,0,1,0,0,0,hexagon,triangle,2,0,2,0,3,11,47,6,,,,,,,,,,,,,,,,,,,,,,,,,,,,,,,,,,,,,,,,959.2288329130097,959.2288329130097,959.2288329130097,959.2288329130097,959.2288329130097,959.2288329130097,959.2288329130097,959.2288329130097,959.2288329130097,959.2288329130097,l,1.1166281469922978,10,819,2,960.3634222130058,961.8651611029927,,,,,,,,,,,,,,,,,,,,,,,,,,,,,,,,,,,,,,,,,,,,,,,,,,,,,,,,,,,,,,,,,,,,,,,,,26157,2022-11-16_14h35.06.854,vts_reward_expectancy_bt_OFFLINE,2022.2.4,60.276964085877346,
,,,,,,,,,,,,,,,,,,0,0,0,0,0,0,0,0,,,,,,,,,,,,,,,,,,,,,,,,,,,,,,,,,,,,,,,,,,,,,,,,1004.3119141889911,,139,F,hexagon,0.0022947499819565564,998.3032326459943,999.807003902999,999.807003902999,999.807003902999,1002.8101442029874,1002.8101442029874,1002.8101442029874,1002.8101442029874,0,0,None,0,1002.8101442029874,1004.3119141889911,1004.8125134459988,,,,,,,,,,,,,,,,,,,,,,,,,,,,,,,,,,,,,,,,,,,,,,,,,,,,,26157,2022-11-16_14h35.06.854,vts_reward_expectancy_bt_OFFLINE,2022.2.4,60.276964085877346,
,,,,,,,,,,,,,,,,,,0,0,0,0,1,0,1,0,,,,,,,,,,,,,,,,,,,,,,,,,,,,,,,,,,,,,,,,,,,,,,,,1009.2840904979967,,160,Y,star,0.009585672989487648,1005.307733477006,1006.8145665070042,1006.8145665070042,1006.8145665070042,,,,,1,1,f,0,1007.7832750249945,,,0.9507451899989974,,,,,,,,,,,,,,,,,,,,,,,,,,,,,,,,,,,,,,,,,,,,,,,,,,,,26157,2022-11-16_14h35.06.854,vts_reward_expectancy_bt_OFFLINE,2022.2.4,60.276964085877346,
,,,,,,,,,,,,,,,,,,0,0,0,0,2,0,2,0,,,,,,,,,,,,,,,,,,,,,,,,,,,,,,,,,,,,,,,,,,,,,,,,1014.0394397010095,,132,H,triangle,0.0016202059923671186,1010.2664304859936,1011.7702770319884,1011.7702770319884,1011.7702770319884,,,,,1,0,d,0,1012.53792144201,,,0.7421593779872637,,,,,,,,,,,,,,,,,,,,,,,,,,,,,,,,,,,,,,,,,,,,,,,,,,,,26157,2022-11-16_14h35.06.854,vts_reward_expectancy_bt_OFFLINE,2022.2.4,60.276964085877346,
,,,,,,,,,,,,,,,,,,0,0,0,0,3,0,3,0,,,,,,,,,,,,,,,,,,,,,,,,,,,,,,,,,,,,,,,,,,,,,,,,1018.6944075580104,,167,B,circle,0.0016242419951595366,1015.0188071590092,1016.5254130089888,1016.5254130089888,1016.5254130089888,,,,,1,0,f,0,1017.1926675270079,,,0.6447993259935174,,,,,,,,,,,,,,,,,,,,,,,,,,,,,,,,,,,,,,,,,,,,,,,,,,,,26157,2022-11-16_14h35.06.854,vts_reward_expectancy_bt_OFFLINE,2022.2.4,60.276964085877346,
,,,,,,,,,,,,,,,,,,0,0,0,0,4,0,4,0,,,,,,,,,,,,,,,,,,,,,,,,,,,,,,,,,,,,,,,,,,,,,,,,1023.482886902988,,181,W,circle,0.001714204001473263,1019.6768438599829,1021.1804840700061,1021.1804840700061,1021.1804840700061,,,,,1,0,f,0,1021.9813336099905,,,0.7828347940230742,,,,,,,,,,,,,,,,,,,,,,,,,,,,,,,,,,,,,,,,,,,,,,,,,,,,26157,2022-11-16_14h35.06.854,vts_reward_expectancy_bt_OFFLINE,2022.2.4,60.276964085877346,
,,,,,,,,,,,,,,,,,,0,0,0,0,5,0,5,0,,,,,,,,,,,,,,,,,,,,,,,,,,,,,,,,,,,,,,,,,,,,,,,,1028.48853495199,,146,S,hexagon,0.001828408014262095,1024.4646250219957,1025.9691627619904,1025.9691627619904,1025.9691627619904,,,,,1,0,d,0,1026.9867204150069,,,0.9881111690192483,,,,,,,,,,,,,,,,,,,,,,,,,,,,,,,,,,,,,,,,,,,,,,,,,,,,26157,2022-11-16_14h35.06.854,vts_reward_expectancy_bt_OFFLINE,2022.2.4,60.276964085877346,
,,,,,,,,,,,,,,,,,,0,0,0,0,6,0,6,0,,,,,,,,,,,,,,,,,,,,,,,,,,,,,,,,,,,,,,,,,,,,,,,,1033.1936355849903,,174,U,star,0.001791258022421971,1029.4698206569883,1030.974556333007,1030.974556333007,1030.974556333007,,,,,1,0,f,0,1031.692282434,1033.1936355849903,,0.685577675991226,,,,,,,,,,,,,,,,,,,,,,,,,,,,,,,,,,,,,,,,,,,,,,,,,,,,26157,2022-11-16_14h35.06.854,vts_reward_expectancy_bt_OFFLINE,2022.2.4,60.276964085877346,
,,,,,,,,,,,,,,,,,,0,0,0,0,7,0,7,0,,,,,,,,,,,,,,,,,,,,,,,,,,,,,,,,,,,,,,,,,,,,,,,,1037.832231104985,,125,D,triangle,0.0016096380131784827,1034.1758464899904,1035.6796804979967,1035.6796804979967,1035.6796804979967,,,,,1,0,d,0,1036.330522409,,,0.6273386930115521,,,,,,,,,,,,,,,,,,,,,,,,,,,,,,,,,,,,,,,,,,,,,,,,,,,,26157,2022-11-16_14h35.06.854,vts_reward_expectancy_bt_OFFLINE,2022.2.4,60.276964085877346,
,,,,,,,,,,,,,,,,,,0,0,0,0,8,0,8,0,,,,,,,,,,,,,,,,,,,,,,,,,,,,,,,,,,,,,,,,,,,,,,,,1042.4205521100084,,139,F,hexagon,0.0014741630002390593,1038.810482203,1040.318087349995,1040.318087349995,1040.318087349995,,,,,1,0,d,0,1040.9189161899849,,,0.5782400750031229,,,,,,,,,,,,,,,,,,,,,,,,,,,,,,,,,,,,,,,,,,,,,,,,,,,,26157,2022-11-16_14h35.06.854,vts_reward_expectancy_bt_OFFLINE,2022.2.4,60.276964085877346,
,,,,,,,,,,,,,,,,,,0,0,0,0,9,0,9,0,,,,,,,,,,,,,,,,,,,,,,,,,,,,,,,,,,,,,,,,,,,,,,,,1047.2758928250114,,160,Y,circle,0.001634445012314245,1043.3996420729964,1044.9065803079866,1044.9065803079866,1044.9065803079866,,,,,1,0,f,0,1045.774301677011,,,0.8395303350116592,,,,,,,,,,,,,,,,,,,,,,,,,,,,,,,,,,,,,,,,,,,,,,,,,,,,26157,2022-11-16_14h35.06.854,vts_reward_expectancy_bt_OFFLINE,2022.2.4,60.276964085877346,
,,,,,,,,,,,,,,,,,,,,,,,,,,0,0,0,0,0,0,0,0,,,,,,,,,,,,,,,,,,,,,,,,,,,,,,,,,,,,,,,,1078.2599889609846,,132,Y,triangle,0.0022846939973533154,,,,,,,,,1,0,,1,1076.7583870610106,,,,1073.8194209469948,1075.3235194789886,1075.3235194789886,1075.3235194789886,k,1.41752669098787,,,,,,,,,,,,,,,,,,,,,,,,,,,,,,,,,,,,,,,,,,,,,,26157,2022-11-16_14h35.06.854,vts_reward_expectancy_bt_OFFLINE,2022.2.4,60.276964085877346,
,,,,,,,,,,,,,,,,,,,,,,,,,,0,0,0,0,1,0,1,0,,,,,,,,,,,,,,,,,,,,,,,,,,,,,,,,,,,,,,,,1083.0987584739923,,139,B,circle,0.0014822819794062525,,,,,,,,,1,0,,1,1081.597159247991,,,,1079.2384755270032,1080.7460602049832,1080.7460602049832,1080.7460602049832,j,0.820056287018815,,,,,,,,,,,,,,,,,,,,,,,,,,,,,,,,,,,,,,,,,,,,,,26157,2022-11-16_14h35.06.854,vts_reward_expectancy_bt_OFFLINE,2022.2.4,60.276964085877346,
,,,,,,,,,,,,,,,,,,,,,,,,,,0,0,0,0,2,0,2,0,,,,,,,,,,,,,,,,,,,,,,,,,,,,,,,,,,,,,,,,1087.803959899,,181,S,star,0.001429082010872662,,,,,,,,,1,0,,1,1086.3016736579884,,,,1084.0782688010077,1085.583960952994,1085.583960952994,1085.583960952994,k,0.6966543960152194,,,,,,,,,,,,,,,,,,,,,,,,,,,,,,,,,,,,,,,,,,,,,,26157,2022-11-16_14h35.06.854,vts_reward_expectancy_bt_OFFLINE,2022.2.4,60.276964085877346,
,,,,,,,,,,,,,,,,,,,,,,,,,,0,0,0,0,3,0,3,0,,,,,,,,,,,,,,,,,,,,,,,,,,,,,,,,,,,,,,,,1092.3756147469976,,125,H,hexagon,0.0019878210150636733,,,,,,,,,1,0,,1,1090.8741262950061,,,,1088.7856379619916,1090.2898993559938,1090.2898993559938,1090.2898993559938,j,0.5577155070204753,,,,,,,,,,,,,,,,,,,,,,,,,,,,,,,,,,,,,,,,,,,,,,26157,2022-11-16_14h35.06.854,vts_reward_expectancy_bt_OFFLINE,2022.2.4,60.276964085877346,
,,,,,,,,,,,,,,,,,,,,,,,,,,0,0,0,0,4,0,4,0,,,,,,,,,,,,,,,,,,,,,,,,,,,,,,,,,,,,,,,,1097.047445778997,,174,W,circle,0.0015572980046272278,,,,,,,,,1,0,,1,1095.5457897529996,,,,1093.3552586759906,1094.8617497929954,1094.8617497929954,1094.8617497929954,k,0.6673661039967556,,,,,,,,,,,,,,,,,,,,,,,,,,,,,,,,,,,,,,,,,,,,,,26157,2022-11-16_14h35.06.854,vts_reward_expectancy_bt_OFFLINE,2022.2.4,60.276964085877346,
,,,,,,,,,,,,,,,,,,,,,,,,,,0,0,0,0,5,0,5,0,,,,,,,,,,,,,,,,,,,,,,,,,,,,,,,,,,,,,,,,1101.6191418349918,,167,D,triangle,0.0012712780153378844,,,,,,,,,1,0,,1,1100.1175106669834,,,,1098.0287750290008,1099.5334129609982,1099.5334129609982,1099.5334129609982,j,0.5520118020067457,,,,,,,,,,,,,,,,,,,,,,,,,,,,,,,,,,,,,,,,,,,,,,26157,2022-11-16_14h35.06.854,vts_reward_expectancy_bt_OFFLINE,2022.2.4,60.276964085877346,
,,,,,,,,,,,,,,,,,,,,,,,,,,0,0,0,0,6,0,6,0,,,,,,,,,,,,,,,,,,,,,,,,,,,,,,,,,,,,,,,,1106.2910228929832,,160,U,hexagon,0.0016681489942129701,,,,,,,,,1,0,,1,1104.789261133992,,,,1102.5976920289977,1104.105375610001,1104.105375610001,1104.105375610001,k,0.6589947520114947,,,,,,,,,,,,,,,,,,,,,,,,,,,,,,,,,,,,,,,,,,,,,,26157,2022-11-16_14h35.06.854,vts_reward_expectancy_bt_OFFLINE,2022.2.4,60.276964085877346,
,,,,,,,,,,,,,,,,,,,,,,,,,,0,0,0,0,7,0,7,0,,,,,,,,,,,,,,,,,,,,,,,,,,,,,,,,,,,,,,,,1111.2798178299854,,146,F,star,0.0013485399831552058,,,,,,,,,1,0,,1,1109.7782642089878,,,,1107.2702135859872,1108.7770742999855,1108.7770742999855,1108.7770742999855,j,0.9720853230101056,,,,,,,,,,,,,,,,,,,,,,,,,,,,,,,,,,,,,,,,,,,,,,26157,2022-11-16_14h35.06.854,vts_reward_expectancy_bt_OFFLINE,2022.2.4,60.276964085877346,
,,,,,,,,,,,,,,,,,,,,,,,,,,0,0,0,0,8,0,8,0,,,,,,,,,,,,,,,,,,,,,,,,,,,,,,,,,,,,,,,,1115.7014442000072,,132,Y,star,0.001807956025004387,,,,,,,,,1,0,,1,1114.1996260960004,,,,1112.2593097430072,1113.7659728349827,1113.7659728349827,1113.7659728349827,k,0.41666668202378787,,,,,,,,,,,,,,,,,,,,,,,,,,,,,,,,,,,,,,,,,,,,,,26157,2022-11-16_14h35.06.854,vts_reward_expectancy_bt_OFFLINE,2022.2.4,60.276964085877346,
,,,,,,,,,,,,,,,,,,,,,,,,,,0,0,0,0,9,0,9,0,,,,,,,,,,,,,,,,,,,,,,,,,,,,,,,,,,,,,,,,1120.0895190779993,,139,B,circle,0.0016823179903440177,,,,,,,,,1,0,,1,1118.587795697007,,,,1116.6802132760058,1118.187386865,1118.187386865,1118.187386865,j,0.36940770302317105,,,,,,,,,,,,,,,,,,,,,,,,,,,,,,,,,,,,,,,,,,,,,,26157,2022-11-16_14h35.06.854,vts_reward_expectancy_bt_OFFLINE,2022.2.4,60.276964085877346,
,,,,,,,,,,,,,,,,,,,,,,,,,,,,,,,,,,0,0,0,0,0,0,0,0,,,,,,,,,,,,,,,,,,,,,,,,,,,,0,819,,,1165.189235953003,,181,B,hexagon,0.0020625799952540547,,,,,,,,,1,0,,2,,,,,,,,,,,1161.0163034670113,1161.0163034670113,1161.0163034670113,1161.0163034670113,1162.5196373529907,1162.5196373529907,1162.5196373529907,1162.5196373529907,1162.5196373529907,1162.5196373529907,1162.5196373529907,1162.5196373529907,-1,number,NA,f,1.1407522980298381,vtsPrac,1163.6889433609904,,,,,,,,,,,,,,,,,,,,,,,,,,,26157,2022-11-16_14h35.06.854,vts_reward_expectancy_bt_OFFLINE,2022.2.4,60.276964085877346,
,,,,,,,,,,,,,,,,,,,,,,,,,,,,,,,,,,0,0,0,0,1,0,1,0,,,,,,,,,,,,,,,,,,,,,,,,,,,,0,819,,,1170.0445474750013,,146,F,circle,0.0014469599991571158,,,,,,,,,1,0,,2,,,,,,,,,,,1166.1720871109865,1166.1720871109865,1166.1720871109865,1166.1720871109865,1167.6751968599856,1167.6751968599856,1167.6751968599856,1167.6751968599856,1167.6751968599856,1167.6751968599856,1167.6751968599856,1167.6751968599856,repeat,number,numRpt,d,0.8447818680142518,vtsPrac,1168.5429652890016,,,,,,,,,,,,,,,,,,,,,,,,,,,26157,2022-11-16_14h35.06.854,vts_reward_expectancy_bt_OFFLINE,2022.2.4,60.276964085877346,
,,,,,,,,,,,,,,,,,,,,,,,,,,,,,,,,,,0,0,0,0,2,0,2,0,,,,,,,,,,,,,,,,,,,,,,,,,,,,0,819,,,1174.6829854740063,,139,D,star,0.0015705879777669907,,,,,,,,,1,0,,2,,,,,,,,,,,1171.0273052249977,1171.0273052249977,1171.0273052249977,1171.0273052249977,1172.5306070669903,1172.5306070669903,1172.5306070669903,1172.5306070669903,1172.5306070669903,1172.5306070669903,1172.5306070669903,1172.5306070669903,switch,letter,lettSwt,j,0.6245827080274466,vtsPrac,1173.1811986200046,,,,,,,,,,,,,,,,,,,,,,,,,,,26157,2022-11-16_14h35.06.854,vts_reward_expectancy_bt_OFFLINE,2022.2.4,60.276964085877346,
,,,,,,,,,,,,,,,,,,,,,,,,,,,,,,,,,,0,0,0,0,3,0,3,0,,,,,,,,,,,,,,,,,,,,,,,,,,,,0,819,,,1179.471747501986,,167,W,hexagon,0.0015691310109104961,,,,,,,,,1,0,,2,,,,,,,,,,,1175.6646640500112,1175.6646640500112,1175.6646640500112,1175.6646640500112,1177.1691360579862,1177.1691360579862,1177.1691360579862,1177.1691360579862,1177.1691360579862,1177.1691360579862,1177.1691360579862,1177.1691360579862,switch,number,numSwt,f,0.7782318140089046,vtsPrac,1177.9700461860048,,,,,,,,,,,,,,,,,,,,,,,,,,,26157,2022-11-16_14h35.06.854,vts_reward_expectancy_bt_OFFLINE,2022.2.4,60.276964085877346,
,,,,,,,,,,,,,,,,,,,,,,,,,,,,,,,,,,0,0,0,0,4,0,4,0,,,,,,,,,,,,,,,,,,,,,,,,,,,,0,819,,,1184.043454181985,,181,B,hexagon,0.0017723290075082332,,,,,,,,,1,0,,2,,,,,,,,,,,1180.450789769995,1180.450789769995,1180.450789769995,1180.450789769995,1181.9578918050101,1181.9578918050101,1181.9578918050101,1181.9578918050101,1181.9578918050101,1181.9578918050101,1181.9578918050101,1181.9578918050101,switch,letter,lettSwt,j,0.5571691940131132,vtsPrac,1182.5416716159962,,,,,,,,,,,,,,,,,,,,,,,,,,,26157,2022-11-16_14h35.06.854,vts_reward_expectancy_bt_OFFLINE,2022.2.4,60.276964085877346,
,,,,,,,,,,,,,,,,,,,,,,,,,,,,,,,,,,0,0,0,0,5,0,5,0,,,,,,,,,,,,,,,,,,,,,,,,,,,,0,819,,,1188.7153194719867,,146,F,circle,0.001570987020386383,,,,,,,,,1,0,,2,,,,,,,,,,,1185.0229946550098,1185.0229946550098,1185.0229946550098,1185.0229946550098,1186.5295525259862,1186.5295525259862,1186.5295525259862,1186.5295525259862,1186.5295525259862,1186.5295525259862,1186.5295525259862,1186.5295525259862,repeat,letter,lettRpt,j,0.6673357030085754,vtsPrac,1187.2136869239912,,,,,,,,,,,,,,,,,,,,,,,,,,,26157,2022-11-16_14h35.06.854,vts_reward_expectancy_bt_OFFLINE,2022.2.4,60.276964085877346,
,,,,,,,,,,,,,,,,,,,,,,,,,,,,,,,,,,0,0,0,0,6,0,6,0,,,,,,,,,,,,,,,,,,,,,,,,,,,,0,819,,,1193.3871038020006,,139,D,star,0.001452950993552804,,,,,,,,,1,0,,2,,,,,,,,,,,1189.6947844070091,1189.6947844070091,1189.6947844070091,1189.6947844070091,1191.2012861080002,1191.2012861080002,1191.2012861080002,1191.2012861080002,1191.2012861080002,1191.2012861080002,1191.2012861080002,1191.2012861080002,repeat,letter,lettRpt,j,0.6517064580111764,vtsPrac,1191.8853841999953,,,,,,,,,,,,,,,,,,,,,,,,,,,26157,2022-11-16_14h35.06.854,vts_reward_expectancy_bt_OFFLINE,2022.2.4,60.276964085877346,
,,,,,,,,,,,,,,,,,,,,,,,,,,,,,,,,,,0,0,0,0,7,0,7,0,,,,,,,,,,,,,,,,,,,,,,,,,,,,0,819,,,1198.2591723180085,,167,W,triangle,0.0016018309979699552,,,,,,,,,1,0,,2,,,,,,,,,,,1194.3669119589904,1194.3669119589904,1194.3669119589904,1194.3669119589904,1195.873187107005,1195.873187107005,1195.873187107005,1195.873187107005,1195.873187107005,1195.873187107005,1195.873187107005,1195.873187107005,switch,number,numSwt,f,0.8637054399878252,vtsPrac,1196.757387724996,,,,,,,,,,,,,,,,,,,,,,,,,,,26157,2022-11-16_14h35.06.854,vts_reward_expectancy_bt_OFFLINE,2022.2.4,60.276964085877346,
,,,,,,,,,,,,,,,,,,,,,,,,,,,,,,,,,,0,0,0,0,8,0,8,0,,,,,,,,,,,,,,,,,,,,,,,,,,,,0,819,,,1202.8808566119988,,174,S,hexagon,0.0016087480180431157,,,,,,,,,1,0,,2,,,,,,,,,,,1199.2413992880029,1199.2413992880029,1199.2413992880029,1199.2413992880029,1200.745134708006,1200.745134708006,1200.745134708006,1200.745134708006,1200.745134708006,1200.745134708006,1200.745134708006,1200.745134708006,repeat,number,numRpt,f,0.6159008030081168,vtsPrac,1201.3793326579907,,,,,,,,,,,,,,,,,,,,,,,,,,,26157,2022-11-16_14h35.06.854,vts_reward_expectancy_bt_OFFLINE,2022.2.4,60.276964085877346,
,,,,,,,,,,,,,,,,,,,,,,,,,,,,,,,,,,0,0,0,0,9,0,9,0,,,,,,,,,,,,,,,,,,,,,,,,,,,,0,819,,,1207.4357447029906,,146,B,star,0.0017456180066801608,,,,,,,,,1,0,,2,,,,,,,,,,,1203.8603154099837,1203.8603154099837,1203.8603154099837,1203.8603154099837,1205.3667552960105,1205.3667552960105,1205.3667552960105,1205.3667552960105,1205.3667552960105,1205.3667552960105,1205.3667552960105,1205.3667552960105,switch,letter,lettSwt,j,0.539469312003348,vtsPrac,1205.9341129949898,,,,,,,,,,,,,,,,,,,,,,,,,,,26157,2022-11-16_14h35.06.854,vts_reward_expectancy_bt_OFFLINE,2022.2.4,60.276964085877346,
,,,,,,,,,,,,,,,,,,,,,,,,,,,,,,,,,,0,0,0,0,10,0,10,0,,,,,,,,,,,,,,,,,,,,,,,,,,,,0,819,,,1212.4914178839826,,181,H,star,0.001678384025581181,,,,,,,,,1,0,,2,,,,,,,,,,,1208.4171320429887,1208.4171320429887,1208.4171320429887,1208.4171320429887,1209.922029228008,1209.922029228008,1209.922029228008,1209.922029228008,1209.922029228008,1209.922029228008,1209.922029228008,1209.922029228008,repeat,letter,lettRpt,j,1.0463186819979455,vtsPrac,1210.9898268739926,,,,,,,,,,,,,,,,,,,,,,,,,,,26157,2022-11-16_14h35.06.854,vts_reward_expectancy_bt_OFFLINE,2022.2.4,60.276964085877346,
,,,,,,,,,,,,,,,,,,,,,,,,,,,,,,,,,,0,0,0,0,11,0,11,0,,,,,,,,,,,,,,,,,,,,,,,,,,,,0,819,,,1217.280175072985,,139,D,circle,0.0017104870057664812,,,,,,,,,1,0,,2,,,,,,,,,,,1213.4732962950075,1213.4732962950075,1213.4732962950075,1213.4732962950075,1214.977486557007,1214.977486557007,1214.977486557007,1214.977486557007,1214.977486557007,1214.977486557007,1214.977486557007,1214.977486557007,repeat,letter,lettRpt,j,0.7841055970056914,vtsPrac,1215.7784681229969,,,,,,,,,,,,,,,,,,,,,,,,,,,26157,2022-11-16_14h35.06.854,vts_reward_expectancy_bt_OFFLINE,2022.2.4,60.276964085877346,
,,,,,,,,,,,,,,,,,,,,,,,,,,,,,,,,,,0,0,0,0,12,0,12,0,,,,,,,,,,,,,,,,,,,,,,,,,,,,0,819,,,1221.901940840995,,160,B,triangle,0.0014267090009525418,,,,,,,,,1,0,,2,,,,,,,,,,,1218.262536625989,1218.262536625989,1218.262536625989,1218.262536625989,1219.7662445759925,1219.7662445759925,1219.7662445759925,1219.7662445759925,1219.7662445759925,1219.7662445759925,1219.7662445759925,1219.7662445759925,switch,number,numSwt,f,0.6074557449901477,vtsPrac,1220.400342590001,,,,,,,,,,,,,,,,,,,,,,,,,,,26157,2022-11-16_14h35.06.854,vts_reward_expectancy_bt_OFFLINE,2022.2.4,60.276964085877346,
,,,,,,,,,,,,,,,,,,,,,,,,,,,,,,,,,,0,0,0,0,13,0,13,0,,,,,,,,,,,,,,,,,,,,,,,,,,,,0,819,,,1226.4902847360063,,139,D,star,0.0019538440101314336,,,,,,,,,1,0,,2,,,,,,,,,,,1222.8832286499965,1222.8832286499965,1222.8832286499965,1222.8832286499965,1224.3879435629933,1224.3879435629933,1224.3879435629933,1224.3879435629933,1224.3879435629933,1224.3879435629933,1224.3879435629933,1224.3879435629933,repeat,number,numRpt,d,0.5759781519882381,vtsPrac,1224.9886160629976,,,,,,,,,,,,,,,,,,,,,,,,,,,26157,2022-11-16_14h35.06.854,vts_reward_expectancy_bt_OFFLINE,2022.2.4,60.276964085877346,
,,,,,,,,,,,,,,,,,,,,,,,,,,,,,,,,,,0,0,0,0,14,0,14,0,,,,,,,,,,,,,,,,,,,,,,,,,,,,0,819,,,1231.395685873984,,125,F,circle,0.0015767000149935484,,,,,,,,,1,0,,2,,,,,,,,,,,1227.4730789430032,1227.4730789430032,1227.4730789430032,1227.4730789430032,1228.976290246006,1228.976290246006,1228.976290246006,1228.976290246006,1228.976290246006,1228.976290246006,1228.976290246006,1228.976290246006,repeat,number,numRpt,d,0.8925275020301342,vtsPrac,1229.893861769,,,,,,,,,,,,,,,,,,,,,,,,,,,26157,2022-11-16_14h35.06.854,vts_reward_expectancy_bt_OFFLINE,2022.2.4,60.276964085877346,
,,,,,,,,,,,,,,,,,,,,,,,,,,,,,,,,,,0,0,0,0,15,0,15,0,,,,,,,,,,,,,,,,,,,,,,,,,,,,0,819,,,1236.1175922240072,,132,W,hexagon,0.0015659720229450613,,,,,,,,,1,0,,2,,,,,,,,,,,1232.3752732189896,1232.3752732189896,1232.3752732189896,1232.3752732189896,1233.881613800011,1233.881613800011,1233.881613800011,1233.881613800011,1233.881613800011,1233.881613800011,1233.881613800011,1233.881613800011,repeat,number,numRpt,d,0.7114750280161388,vtsPrac,1234.6157588890055,,,,,,,,,,,,,,,,,,,,,,,,,,,26157,2022-11-16_14h35.06.854,vts_reward_expectancy_bt_OFFLINE,2022.2.4,60.276964085877346,
,,,,,,,,,,,,,,,,,,,,,,,,,,,,,,,,,,0,0,0,0,16,0,16,0,,,,,,,,,,,,,,,,,,,,,,,,,,,,0,819,,,1240.9394673260103,,139,W,circle,0.00157476298045367,,,,,,,,,1,0,,2,,,,,,,,,,,1237.0967067200108,1237.0967067200108,1237.0967067200108,1237.0967067200108,1238.6034626360051,1238.6034626360051,1238.6034626360051,1238.6034626360051,1238.6034626360051,1238.6034626360051,1238.6034626360051,1238.6034626360051,repeat,number,numRpt,d,0.8172912980080582,vtsPrac,1239.4377750999993,,,,,,,,,,,,,,,,,,,,,,,,,,,26157,2022-11-16_14h35.06.854,vts_reward_expectancy_bt_OFFLINE,2022.2.4,60.276964085877346,
,,,,,,,,,,,,,,,,,,,,,,,,,,,,,,,,,,0,0,0,0,17,0,17,0,,,,,,,,,,,,,,,,,,,,,,,,,,,,0,819,,,1245.5612700250058,,160,B,triangle,0.0016691670170985162,,,,,,,,,1,0,,2,,,,,,,,,,,1241.9186869609985,1241.9186869609985,1241.9186869609985,1241.9186869609985,1243.4255220849882,1243.4255220849882,1243.4255220849882,1243.4255220849882,1243.4255220849882,1243.4255220849882,1243.4255220849882,1243.4255220849882,repeat,number,numRpt,f,0.6075963380280882,vtsPrac,1244.0597033700033,,,,,,,,,,,,,,,,,,,,,,,,,,,26157,2022-11-16_14h35.06.854,vts_reward_expectancy_bt_OFFLINE,2022.2.4,60.276964085877346,
,,,,,,,,,,,,,,,,,,,,,,,,,,,,,,,,,,0,0,0,0,18,0,18,0,,,,,,,,,,,,,,,,,,,,,,,,,,,,0,819,,,1250.1996327099914,,132,F,circle,0.0014702249900437891,,,,,,,,,1,0,,2,,,,,,,,,,,1246.5424586409936,1246.5424586409936,1246.5424586409936,1246.5424586409936,1248.0472503789933,1248.0472503789933,1248.0472503789933,1248.0472503789933,1248.0472503789933,1248.0472503789933,1248.0472503789933,1248.0472503789933,switch,letter,lettSwt,j,0.6332405399880372,vtsPrac,1248.6978636409913,,,,,,,,,,,,,,,,,,,,,,,,,,,26157,2022-11-16_14h35.06.854,vts_reward_expectancy_bt_OFFLINE,2022.2.4,60.276964085877346,
,,,,,,,,,,,,,,,,,,,,,,,,,,,,,,,,,,0,0,0,0,19,0,19,0,,,,,,,,,,,,,,,,,,,,,,,,,,,,0,819,,,1254.82126805,,174,H,star,0.0019093680020887405,,,,,,,,,1,0,,2,,,,,,,,,,,1251.1788779950002,1251.1788779950002,1251.1788779950002,1251.1788779950002,1252.685839985992,1252.685839985992,1252.685839985992,1252.685839985992,1252.685839985992,1252.685839985992,1252.685839985992,1252.685839985992,repeat,letter,lettRpt,j,0.6062199700099882,vtsPrac,1253.319564200996,,,,,,,,,,,,,,,,,,,,,,,,,,,26157,2022-11-16_14h35.06.854,vts_reward_expectancy_bt_OFFLINE,2022.2.4,60.276964085877346,
,,,,,,,,,,,,,,,,,,,,,,,,,,,,,,,,,,0,0,0,0,20,0,20,0,,,,,,,,,,,,,,,,,,,,,,,,,,,,0,819,,,1259.8270329750085,,181,W,hexagon,0.0016845210047904402,,,,,,,,,1,0,,2,,,,,,,,,,,1255.8025222310098,1255.8025222310098,1255.8025222310098,1255.8025222310098,1257.3074854830047,1257.3074854830047,1257.3074854830047,1257.3074854830047,1257.3074854830047,1257.3074854830047,1257.3074854830047,1257.3074854830047,repeat,letter,lettRpt,k,0.9901975250104442,vtsPrac,1258.3252846680116,,,,,,,,,,,,,,,,,,,,,,,,,,,26157,2022-11-16_14h35.06.854,vts_reward_expectancy_bt_OFFLINE,2022.2.4,60.276964085877346,
,,,,,,,,,,,,,,,,,,,,,,,,,,,,,,,,,,0,0,0,0,21,0,21,0,,,,,,,,,,,,,,,,,,,,,,,,,,,,0,819,,,1264.5822723739839,,132,H,star,0.0016846400103531778,,,,,,,,,1,0,,2,,,,,,,,,,,1260.808216489997,1260.808216489997,1260.808216489997,1260.808216489997,1262.3131393549847,1262.3131393549847,1262.3131393549847,1262.3131393549847,1262.3131393549847,1262.3131393549847,1262.3131393549847,1262.3131393549847,switch,number,numSwt,d,0.7442629520082846,vtsPrac,1263.0808048550098,,,,,,,,,,,,,,,,,,,,,,,,,,,26157,2022-11-16_14h35.06.854,vts_reward_expectancy_bt_OFFLINE,2022.2.4,60.276964085877346,
,,,,,,,,,,,,,,,,,,,,,,,,,,,,,,,,,,0,0,0,0,22,0,22,0,,,,,,,,,,,,,,,,,,,,,,,,,,,,0,819,,,1269.2373890980089,,174,D,star,0.0013769280049018562,,,,,,,,,1,0,,2,,,,,,,,,,,1265.5617770009849,1265.5617770009849,1265.5617770009849,1265.5617770009849,1267.06847917501,1267.06847917501,1267.06847917501,1267.06847917501,1267.06847917501,1267.06847917501,1267.06847917501,1267.06847917501,switch,letter,lettSwt,j,0.6347650160023477,vtsPrac,1267.735811016988,,,,,,,,,,,,,,,,,,,,,,,,,,,26157,2022-11-16_14h35.06.854,vts_reward_expectancy_bt_OFFLINE,2022.2.4,60.276964085877346,
,,,,,,,,,,,,,,,,,,,,,,,,,,,,,,,,,,0,0,0,0,23,0,23,0,,,,,,,,,,,,,,,,,,,,,,,,,,,,0,819,,,1273.875948675006,,160,Y,circle,0.0015626690001226962,,,,,,,,,1,0,,2,,,,,,,,,,,1270.2172138339956,1270.2172138339956,1270.2172138339956,1270.2172138339956,1271.723355278984,1271.723355278984,1271.723355278984,1271.723355278984,1271.723355278984,1271.723355278984,1271.723355278984,1271.723355278984,switch,number,numSwt,f,0.6259189780103043,vtsPrac,1272.374116927007,,,,,,,,,,,,,,,,,,,,,,,,,,,26157,2022-11-16_14h35.06.854,vts_reward_expectancy_bt_OFFLINE,2022.2.4,60.276964085877346,
,,,,,,,,,,,,,,,,,,,,,,,,,,,,,,,,,,0,0,0,0,24,0,24,0,,,,,,,,,,,,,,,,,,,,,,,,,,,,0,819,,,1278.5308714850107,,139,F,star,0.00155768301920034,,,,,,,,,1,0,,2,,,,,,,,,,,1274.8551264140115,1274.8551264140115,1274.8551264140115,1274.8551264140115,1276.361975723994,1276.361975723994,1276.361975723994,1276.361975723994,1276.361975723994,1276.361975723994,1276.361975723994,1276.361975723994,repeat,number,numRpt,d,0.6459931939898524,vtsPrac,1277.0293383079988,,,,,,,,,,,,,,,,,,,,,,,,,,,26157,2022-11-16_14h35.06.854,vts_reward_expectancy_bt_OFFLINE,2022.2.4,60.276964085877346,
,,,,,,,,,,,,,,,,,,,,,,,,,,,,,,,,,,0,0,0,0,25,0,25,0,,,,,,,,,,,,,,,,,,,,,,,,,,,,0,819,,,1283.035886511003,,181,Y,hexagon,0.0017484679992776364,,,,,,,,,1,0,,2,,,,,,,,,,,1279.5121679909935,1279.5121679909935,1279.5121679909935,1279.5121679909935,1281.0170678730065,1281.0170678730065,1281.0170678730065,1281.0170678730065,1281.0170678730065,1281.0170678730065,1281.0170678730065,1281.0170678730065,switch,letter,lettSwt,k,0.49013506300980225,vtsPrac,1281.534333254007,,,,,,,,,,,,,,,,,,,,,,,,,,,26157,2022-11-16_14h35.06.854,vts_reward_expectancy_bt_OFFLINE,2022.2.4,60.276964085877346,
,,,,,,,,,,,,,,,,,,,,,,,,,,,,,,,,,,0,0,0,0,26,0,26,0,,,,,,,,,,,,,,,,,,,,,,,,,,,,0,819,,,1287.5408793679962,,132,W,star,0.0014778269978705794,,,,,,,,,1,0,,2,,,,,,,,,,,1284.0149163739989,1284.0149163739989,1284.0149163739989,1284.0149163739989,1285.5220289689896,1285.5220289689896,1285.5220289689896,1285.5220289689896,1285.5220289689896,1285.5220289689896,1285.5220289689896,1285.5220289689896,repeat,letter,lettRpt,k,0.4851963740075007,vtsPrac,1286.0391340969945,,,,,,,,,,,,,,,,,,,,,,,,,,,26157,2022-11-16_14h35.06.854,vts_reward_expectancy_bt_OFFLINE,2022.2.4,60.276964085877346,
,,,,,,,,,,,,,,,,,,,,,,,,,,,,,,,,,,0,0,0,0,27,0,27,0,,,,,,,,,,,,,,,,,,,,,,,,,,,,0,819,,,1292.2127626989968,,160,U,circle,0.0017896380159072578,,,,,,,,,1,0,,2,,,,,,,,,,,1288.5225223829912,1288.5225223829912,1288.5225223829912,1288.5225223829912,1290.027048635995,1290.027048635995,1290.027048635995,1290.027048635995,1290.027048635995,1290.027048635995,1290.027048635995,1290.027048635995,switch,number,numSwt,f,0.6612718900141772,vtsPrac,1290.7113109680067,,,,,,,,,,,,,,,,,,,,,,,,,,,26157,2022-11-16_14h35.06.854,vts_reward_expectancy_bt_OFFLINE,2022.2.4,60.276964085877346,
,,,,,,,,,,,,,,,,,,,,,,,,,,,,,,,,,,0,0,0,0,28,0,28,0,,,,,,,,,,,,,,,,,,,,,,,,,,,,0,819,,,1296.967925860983,,181,U,circle,0.0016506990068592131,,,,,,,,,1,0,,2,,,,,,,,,,,1293.190753561008,1293.190753561008,1293.190753561008,1293.190753561008,1294.6988159389875,1294.6988159389875,1294.6988159389875,1294.6988159389875,1294.6988159389875,1294.6988159389875,1294.6988159389875,1294.6988159389875,repeat,number,numRpt,f,0.7485674830095377,vtsPrac,1295.4662851640023,,,,,,,,,,,,,,,,,,,,,,,,,,,26157,2022-11-16_14h35.06.854,vts_reward_expectancy_bt_OFFLINE,2022.2.4,60.276964085877346,
,,,,,,,,,,,,,,,,,,,,,,,,,,,,,,,,,,0,0,0,0,29,0,29,0,,,,,,,,,,,,,,,,,,,,,,,,,,,,0,819,,,1301.5898462629993,,146,Y,triangle,0.001903800992295146,,,,,,,,,1,0,,2,,,,,,,,,,,1297.9496692079992,1297.9496692079992,1297.9496692079992,1297.9496692079992,1299.4541133169841,1299.4541133169841,1299.4541133169841,1299.4541133169841,1299.4541133169841,1299.4541133169841,1299.4541133169841,1299.4541133169841,repeat,number,numRpt,d,0.6063119080208708,vtsPrac,1300.0880285489839,,,,,,,,,,,,,,,,,,,,,,,,,,,26157,2022-11-16_14h35.06.854,vts_reward_expectancy_bt_OFFLINE,2022.2.4,60.276964085877346,
