LTriangleOpac,LCircleOpac,LHexagonOpac,LStarOpac,RTriangleOpac,RCircleOpac,RHexagonOpac,RStarOpac,LShape_ID,RShape_ID,training_blocks.thisRepN,training_blocks.thisTrialN,training_blocks.thisN,training_blocks.thisIndex,training.thisRepN,training.thisTrialN,training.thisN,training.thisIndex,task1_prac_redo.thisRepN,task1_prac_redo.thisTrialN,task1_prac_redo.thisN,task1_prac_redo.thisIndex,task1_prac_trials.thisRepN,task1_prac_trials.thisTrialN,task1_prac_trials.thisN,task1_prac_trials.thisIndex,task2_prac_redo.thisRepN,task2_prac_redo.thisTrialN,task2_prac_redo.thisN,task2_prac_redo.thisIndex,task2_praac_trials.thisRepN,task2_praac_trials.thisTrialN,task2_praac_trials.thisN,task2_praac_trials.thisIndex,vts_prac_redo.thisRepN,vts_prac_redo.thisTrialN,vts_prac_redo.thisN,vts_prac_redo.thisIndex,vts_practice_trials.thisRepN,vts_practice_trials.thisTrialN,vts_practice_trials.thisN,vts_practice_trials.thisIndex,trials_norew.thisRepN,trials_norew.thisTrialN,trials_norew.thisN,trials_norew.thisIndex,block.thisRepN,block.thisTrialN,block.thisN,block.thisIndex,trials_rew.thisRepN,trials_rew.thisTrialN,trials_rew.thisN,trials_rew.thisIndex,key_resp.started,key_resp.keys,key_resp.rt,left_circle.started,right_circle.started,left_triangle.started,right_triangle.started,left_star.started,right_star.started,left_hexagon.started,right_hexagon.started,training_fix.started,training_resp.started,training_resp.keys,training_resp.rt,points_trial,points_cumul,trainBlock,training_feedback_txt.started,fix.started,training_feedback_txt.stopped,curr_topStim,curr_bottStim,curr_shape,ISI.started,tgt_fix_prac1.started,top_target_prac1.started,bott_target_prac1.started,target_resp_prac1.started,acc,E1,target_resp_prac1.keys,target_resp_prac1.rt,pracBlock,prac_fback_text.started,tgt_fix_prac2.started,top_target_prac2.started,bott_target_prac2.started,target_resp_prac2.started,target_resp_prac2.keys,target_resp_prac2.rt,prac_fback_text.stopped,star.started,hegagon.started,triangle.started,circle.started,top_target.started,tgt_fix.started,bot_target.started,target_resp.started,star.stopped,hegagon.stopped,triangle.stopped,circle.stopped,top_target.stopped,tgt_fix.stopped,bot_target.stopped,target_resp.stopped,alt,task,condition,target_resp.keys,rewCond,vts_fback.started,target_resp.rt,vts_fback.stopped,blockNum,norew_fback.started,norew_fback.stopped,fix.stopped,key_resp_2.keys,key_resp_2.rt,rewExpectancy,feedbk_text.started,feedbk_text.stopped,text_3.started,text_3.stopped,button.started,debrief.index,debrief.itemText,debrief.type,debrief.granularity,debrief.font,debrief.markerColor,debrief.response,debrief.rt,button.numClicks,button.timesOn,button.timesOff,participant,date,expName,psychopyVersion,frameRate,
,,,,,,,,,,,,,,,,,,,,,,,,,,,,,,,,,,,,,,,,,,,,,,,,,,,,,,17.70825933094602,space,30.033675333019346,,,,,,,,,,,,,,,,,,,,,,,,,,,,,,,,,,,,,,,,,,,,,,,,,,,,,,,,,,,,,,,,,,,,,,,,,,,,,,,,,,,,,,,29032,2022-11-02_10h24.58.904,vts_reward_expectancy_bt_OFFLINE,2022.2.4,59.96677914269869,
1,0,0,0,0,1,0,0,triangle,circle,0,0,0,0,0,0,0,0,,,,,,,,,,,,,,,,,,,,,,,,,,,,,,,,,,,,,,,,74.58741242089309,74.58741242089309,74.58741242089309,74.58741242089309,74.58741242089309,74.58741242089309,74.58741242089309,74.58741242089309,74.58741242089309,74.58741242089309,a,1.4641854570945725,10,10,0,76.07294573797844,77.57390862889588,,,,,,,,,,,,,,,,,,,,,,,,,,,,,,,,,,,,,,,,,,,,,,,,,,,,,,,,,,,,,,,,,,,,,,29032,2022-11-02_10h24.58.904,vts_reward_expectancy_bt_OFFLINE,2022.2.4,59.96677914269869,
1,0,0,0,0,0,1,0,triangle,hexagon,0,0,0,0,0,1,1,1,,,,,,,,,,,,,,,,,,,,,,,,,,,,,,,,,,,,,,,,78.07430474599823,78.07430474599823,78.07430474599823,78.07430474599823,78.07430474599823,78.07430474599823,78.07430474599823,78.07430474599823,78.07430474599823,78.07430474599823,a,0.9129522300790995,10,20,0,79.00883711595088,80.51035251293797,,,,,,,,,,,,,,,,,,,,,,,,,,,,,,,,,,,,,,,,,,,,,,,,,,,,,,,,,,,,,,,,,,,,,,29032,2022-11-02_10h24.58.904,vts_reward_expectancy_bt_OFFLINE,2022.2.4,59.96677914269869,
0,0,1,0,0,1,0,0,hexagon,circle,0,0,0,0,0,2,2,7,,,,,,,,,,,,,,,,,,,,,,,,,,,,,,,,,,,,,,,,81.01097519299947,81.01097519299947,81.01097519299947,81.01097519299947,81.01097519299947,81.01097519299947,81.01097519299947,81.01097519299947,81.01097519299947,81.01097519299947,l,1.826689972076565,10,30,0,82.86318690993357,84.36458761093672,84.36458761093672,,,,,,,,,,,,,,,,,,,,,,,,,,,,,,,,,,,,,,,,,,,,,,,,,,,,,,,,,,,,,,,,,,,,,29032,2022-11-02_10h24.58.904,vts_reward_expectancy_bt_OFFLINE,2022.2.4,59.96677914269869,
0,1,0,0,0,0,0,1,circle,star,0,0,0,0,0,3,3,5,,,,,,,,,,,,,,,,,,,,,,,,,,,,,,,,,,,,,,,,84.86510741896927,84.86510741896927,84.86510741896927,84.86510741896927,84.86510741896927,84.86510741896927,84.86510741896927,84.86510741896927,84.86510741896927,84.86510741896927,a,1.5789938980014995,1,31,0,86.46668527892325,87.96855024294928,,,,,,,,,,,,,,,,,,,,,,,,,,,,,,,,,,,,,,,,,,,,,,,,,,,,,,,,,,,,,,,,,,,,,,29032,2022-11-02_10h24.58.904,vts_reward_expectancy_bt_OFFLINE,2022.2.4,59.96677914269869,
0,1,0,0,1,0,0,0,circle,triangle,0,0,0,0,0,4,4,3,,,,,,,,,,,,,,,,,,,,,,,,,,,,,,,,,,,,,,,,88.46914449799806,88.46914449799806,88.46914449799806,88.46914449799806,88.46914449799806,88.46914449799806,88.46914449799806,88.46914449799806,88.46914449799806,88.46914449799806,l,1.253985979128629,10,41,0,89.75390680495184,91.25563284999225,,,,,,,,,,,,,,,,,,,,,,,,,,,,,,,,,,,,,,,,,,,,,,,,,,,,,,,,,,,,,,,,,,,,,,29032,2022-11-02_10h24.58.904,vts_reward_expectancy_bt_OFFLINE,2022.2.4,59.96677914269869,
1,0,0,0,0,0,0,1,triangle,star,0,0,0,0,0,5,5,2,,,,,,,,,,,,,,,,,,,,,,,,,,,,,,,,,,,,,,,,91.75625415495597,91.75625415495597,91.75625415495597,91.75625415495597,91.75625415495597,91.75625415495597,91.75625415495597,91.75625415495597,91.75625415495597,91.75625415495597,a,0.7680667671374977,10,51,0,92.55720812396612,94.05859241995495,,,,,,,,,,,,,,,,,,,,,,,,,,,,,,,,,,,,,,,,,,,,,,,,,,,,,,,,,,,,,,,,,,,,,,29032,2022-11-02_10h24.58.904,vts_reward_expectancy_bt_OFFLINE,2022.2.4,59.96677914269869,
0,0,0,1,0,0,1,0,star,hexagon,0,0,0,0,0,6,6,11,,,,,,,,,,,,,,,,,,,,,,,,,,,,,,,,,,,,,,,,94.55907349090558,94.55907349090558,94.55907349090558,94.55907349090558,94.55907349090558,94.55907349090558,94.55907349090558,94.55907349090558,94.55907349090558,94.55907349090558,a,0.8853200981393456,1,52,0,95.4769685609499,96.97847157390788,,,,,,,,,,,,,,,,,,,,,,,,,,,,,,,,,,,,,,,,,,,,,,,,,,,,,,,,,,,,,,,,,,,,,,29032,2022-11-02_10h24.58.904,vts_reward_expectancy_bt_OFFLINE,2022.2.4,59.96677914269869,
0,0,0,1,1,0,0,0,star,triangle,0,0,0,0,0,7,7,9,,,,,,,,,,,,,,,,,,,,,,,,,,,,,,,,,,,,,,,,97.47894542990252,97.47894542990252,97.47894542990252,97.47894542990252,97.47894542990252,97.47894542990252,97.47894542990252,97.47894542990252,97.47894542990252,97.47894542990252,l,1.2452757791616023,1,53,0,98.74717501294799,100.248890748946,,,,,,,,,,,,,,,,,,,,,,,,,,,,,,,,,,,,,,,,,,,,,,,,,,,,,,,,,,,,,,,,,,,,,,29032,2022-11-02_10h24.58.904,vts_reward_expectancy_bt_OFFLINE,2022.2.4,59.96677914269869,
0,0,0,1,0,1,0,0,star ,circle,0,0,0,0,0,8,8,10,,,,,,,,,,,,,,,,,,,,,,,,,,,,,,,,,,,,,,,,100.74956556293182,100.74956556293182,100.74956556293182,100.74956556293182,100.74956556293182,100.74956556293182,100.74956556293182,100.74956556293182,100.74956556293182,100.74956556293182,a,1.6860770271159708,1,54,0,102.46805451088585,103.96963786997367,,,,,,,,,,,,,,,,,,,,,,,,,,,,,,,,,,,,,,,,,,,,,,,,,,,,,,,,,,,,,,,,,,,,,,29032,2022-11-02_10h24.58.904,vts_reward_expectancy_bt_OFFLINE,2022.2.4,59.96677914269869,
0,1,0,0,0,0,1,0,circle,hexagon,0,0,0,0,0,9,9,4,,,,,,,,,,,,,,,,,,,,,,,,,,,,,,,,,,,,,,,,104.47030080796685,104.47030080796685,104.47030080796685,104.47030080796685,104.47030080796685,104.47030080796685,104.47030080796685,104.47030080796685,104.47030080796685,104.47030080796685,l,1.159124972182326,10,64,0,105.65491135395132,107.15644446399529,,,,,,,,,,,,,,,,,,,,,,,,,,,,,,,,,,,,,,,,,,,,,,,,,,,,,,,,,,,,,,,,,,,,,,29032,2022-11-02_10h24.58.904,vts_reward_expectancy_bt_OFFLINE,2022.2.4,59.96677914269869,
0,0,1,0,1,0,0,0,hexagon,triangle,0,0,0,0,0,10,10,6,,,,,,,,,,,,,,,,,,,,,,,,,,,,,,,,,,,,,,,,107.65712448593695,107.65712448593695,107.65712448593695,107.65712448593695,107.65712448593695,107.65712448593695,107.65712448593695,107.65712448593695,107.65712448593695,107.65712448593695,l,1.370323863113299,1,65,0,109.05840122094378,110.56026487995405,,,,,,,,,,,,,,,,,,,,,,,,,,,,,,,,,,,,,,,,,,,,,,,,,,,,,,,,,,,,,,,,,,,,,,29032,2022-11-02_10h24.58.904,vts_reward_expectancy_bt_OFFLINE,2022.2.4,59.96677914269869,
0,0,1,0,0,0,0,1,hexagon,star,0,0,0,0,0,11,11,8,,,,,,,,,,,,,,,,,,,,,,,,,,,,,,,,,,,,,,,,111.06074290291872,111.06074290291872,111.06074290291872,111.06074290291872,111.06074290291872,111.06074290291872,111.06074290291872,111.06074290291872,111.06074290291872,111.06074290291872,a,0.8863013450754806,1,66,0,111.97830605495255,113.48022445093375,,,,,,,,,,,,,,,,,,,,,,,,,,,,,,,,,,,,,,,,,,,,,,,,,,,,,,,,,,,,,,,,,,,,,,29032,2022-11-02_10h24.58.904,vts_reward_expectancy_bt_OFFLINE,2022.2.4,59.96677914269869,
0,0,0,1,0,0,1,0,star,hexagon,0,0,0,0,1,0,12,11,,,,,,,,,,,,,,,,,,,,,,,,,,,,,,,,,,,,,,,,113.9806309309788,113.9806309309788,113.9806309309788,113.9806309309788,113.9806309309788,113.9806309309788,113.9806309309788,113.9806309309788,113.9806309309788,113.9806309309788,l,1.1275683981366456,1,67,0,115.1319115809165,116.6336912579136,,,,,,,,,,,,,,,,,,,,,,,,,,,,,,,,,,,,,,,,,,,,,,,,,,,,,,,,,,,,,,,,,,,,,,29032,2022-11-02_10h24.58.904,vts_reward_expectancy_bt_OFFLINE,2022.2.4,59.96677914269869,
0,1,0,0,0,0,0,1,circle,star,0,0,0,0,1,1,13,5,,,,,,,,,,,,,,,,,,,,,,,,,,,,,,,,,,,,,,,,117.13403485098388,117.13403485098388,117.13403485098388,117.13403485098388,117.13403485098388,117.13403485098388,117.13403485098388,117.13403485098388,117.13403485098388,117.13403485098388,a,1.261112495092675,10,77,0,118.41897361597512,119.92051948490553,,,,,,,,,,,,,,,,,,,,,,,,,,,,,,,,,,,,,,,,,,,,,,,,,,,,,,,,,,,,,,,,,,,,,,29032,2022-11-02_10h24.58.904,vts_reward_expectancy_bt_OFFLINE,2022.2.4,59.96677914269869,
1,0,0,0,0,1,0,0,triangle,circle,0,0,0,0,1,2,14,0,,,,,,,,,,,,,,,,,,,,,,,,,,,,,,,,,,,,,,,,120.42108737397939,120.42108737397939,120.42108737397939,120.42108737397939,120.42108737397939,120.42108737397939,120.42108737397939,120.42108737397939,120.42108737397939,120.42108737397939,a,1.278570393100381,1,78,0,121.72242250398267,123.22423944494221,,,,,,,,,,,,,,,,,,,,,,,,,,,,,,,,,,,,,,,,,,,,,,,,,,,,,,,,,,,,,,,,,,,,,,29032,2022-11-02_10h24.58.904,vts_reward_expectancy_bt_OFFLINE,2022.2.4,59.96677914269869,
1,0,0,0,0,0,0,1,triangle,star,0,0,0,0,1,3,15,2,,,,,,,,,,,,,,,,,,,,,,,,,,,,,,,,,,,,,,,,123.72491619794164,123.72491619794164,123.72491619794164,123.72491619794164,123.72491619794164,123.72491619794164,123.72491619794164,123.72491619794164,123.72491619794164,123.72491619794164,a,0.5680568719981238,10,88,0,124.3253358489601,125.82723201089539,,,,,,,,,,,,,,,,,,,,,,,,,,,,,,,,,,,,,,,,,,,,,,,,,,,,,,,,,,,,,,,,,,,,,,29032,2022-11-02_10h24.58.904,vts_reward_expectancy_bt_OFFLINE,2022.2.4,59.96677914269869,
0,1,0,0,0,0,1,0,circle,hexagon,0,0,0,0,1,4,16,4,,,,,,,,,,,,,,,,,,,,,,,,,,,,,,,,,,,,,,,,126.32748768094461,126.32748768094461,126.32748768094461,126.32748768094461,126.32748768094461,126.32748768094461,126.32748768094461,126.32748768094461,126.32748768094461,126.32748768094461,l,1.7557970790658146,10,98,0,128.1128190458985,129.61449478997383,,,,,,,,,,,,,,,,,,,,,,,,,,,,,,,,,,,,,,,,,,,,,,,,,,,,,,,,,,,,,,,,,,,,,,29032,2022-11-02_10h24.58.904,vts_reward_expectancy_bt_OFFLINE,2022.2.4,59.96677914269869,
0,0,1,0,1,0,0,0,hexagon,triangle,0,0,0,0,1,5,17,6,,,,,,,,,,,,,,,,,,,,,,,,,,,,,,,,,,,,,,,,130.11513985996135,130.11513985996135,130.11513985996135,130.11513985996135,130.11513985996135,130.11513985996135,130.11513985996135,130.11513985996135,130.11513985996135,130.11513985996135,l,1.241522157099098,10,108,0,131.38318796595559,132.88487080298364,,,,,,,,,,,,,,,,,,,,,,,,,,,,,,,,,,,,,,,,,,,,,,,,,,,,,,,,,,,,,,,,,,,,,,29032,2022-11-02_10h24.58.904,vts_reward_expectancy_bt_OFFLINE,2022.2.4,59.96677914269869,
0,0,1,0,0,1,0,0,hexagon,circle,0,0,0,0,1,6,18,7,,,,,,,,,,,,,,,,,,,,,,,,,,,,,,,,,,,,,,,,133.38545514596626,133.38545514596626,133.38545514596626,133.38545514596626,133.38545514596626,133.38545514596626,133.38545514596626,133.38545514596626,133.38545514596626,133.38545514596626,a,0.9150031231110916,10,118,0,134.31993763288483,135.82133943296503,,,,,,,,,,,,,,,,,,,,,,,,,,,,,,,,,,,,,,,,,,,,,,,,,,,,,,,,,,,,,,,,,,,,,,29032,2022-11-02_10h24.58.904,vts_reward_expectancy_bt_OFFLINE,2022.2.4,59.96677914269869,
0,1,0,0,1,0,0,0,circle,triangle,0,0,0,0,1,7,19,3,,,,,,,,,,,,,,,,,,,,,,,,,,,,,,,,,,,,,,,,136.32201195589732,136.32201195589732,136.32201195589732,136.32201195589732,136.32201195589732,136.32201195589732,136.32201195589732,136.32201195589732,136.32201195589732,136.32201195589732,l,0.9697053751442581,10,128,0,137.3231756829191,138.82496308290865,,,,,,,,,,,,,,,,,,,,,,,,,,,,,,,,,,,,,,,,,,,,,,,,,,,,,,,,,,,,,,,,,,,,,,29032,2022-11-02_10h24.58.904,vts_reward_expectancy_bt_OFFLINE,2022.2.4,59.96677914269869,
1,0,0,0,0,0,1,0,triangle,hexagon,0,0,0,0,1,8,20,1,,,,,,,,,,,,,,,,,,,,,,,,,,,,,,,,,,,,,,,,139.32530941499863,139.32530941499863,139.32530941499863,139.32530941499863,139.32530941499863,139.32530941499863,139.32530941499863,139.32530941499863,139.32530941499863,139.32530941499863,a,0.7583203541580588,10,138,0,140.10948363889474,141.6110431929119,,,,,,,,,,,,,,,,,,,,,,,,,,,,,,,,,,,,,,,,,,,,,,,,,,,,,,,,,,,,,,,,,,,,,,29032,2022-11-02_10h24.58.904,vts_reward_expectancy_bt_OFFLINE,2022.2.4,59.96677914269869,
0,0,1,0,0,0,0,1,hexagon,star,0,0,0,0,1,9,21,8,,,,,,,,,,,,,,,,,,,,,,,,,,,,,,,,,,,,,,,,142.1116476599127,142.1116476599127,142.1116476599127,142.1116476599127,142.1116476599127,142.1116476599127,142.1116476599127,142.1116476599127,142.1116476599127,142.1116476599127,a,1.1086943660629913,1,139,0,143.2461729629431,144.74783932592254,,,,,,,,,,,,,,,,,,,,,,,,,,,,,,,,,,,,,,,,,,,,,,,,,,,,,,,,,,,,,,,,,,,,,,29032,2022-11-02_10h24.58.904,vts_reward_expectancy_bt_OFFLINE,2022.2.4,59.96677914269869,
0,0,0,1,0,1,0,0,star ,circle,0,0,0,0,1,10,22,10,,,,,,,,,,,,,,,,,,,,,,,,,,,,,,,,,,,,,,,,145.24851760093588,145.24851760093588,145.24851760093588,145.24851760093588,145.24851760093588,145.24851760093588,145.24851760093588,145.24851760093588,145.24851760093588,145.24851760093588,l,1.5632720370776951,1,140,0,146.83372700598557,148.3351906129392,,,,,,,,,,,,,,,,,,,,,,,,,,,,,,,,,,,,,,,,,,,,,,,,,,,,,,,,,,,,,,,,,,,,,,29032,2022-11-02_10h24.58.904,vts_reward_expectancy_bt_OFFLINE,2022.2.4,59.96677914269869,
0,0,0,1,1,0,0,0,star,triangle,0,0,0,0,1,11,23,9,,,,,,,,,,,,,,,,,,,,,,,,,,,,,,,,,,,,,,,,148.83590074593667,148.83590074593667,148.83590074593667,148.83590074593667,148.83590074593667,148.83590074593667,148.83590074593667,148.83590074593667,148.83590074593667,148.83590074593667,l,1.0490390449995175,10,150,0,149.90347148897126,151.40522265294567,,,,,,,,,,,,,,,,,,,,,,,,,,,,,,,,,,,,,,,,,,,,,,,,,,,,,,,,,,,,,,,,,,,,,,29032,2022-11-02_10h24.58.904,vts_reward_expectancy_bt_OFFLINE,2022.2.4,59.96677914269869,
0,0,0,1,1,0,0,0,star,triangle,0,0,0,0,2,0,24,9,,,,,,,,,,,,,,,,,,,,,,,,,,,,,,,,,,,,,,,,151.90594624099322,151.90594624099322,151.90594624099322,151.90594624099322,151.90594624099322,151.90594624099322,151.90594624099322,151.90594624099322,151.90594624099322,151.90594624099322,l,0.9459067489951849,10,160,0,152.87338924896903,154.37511919089593,,,,,,,,,,,,,,,,,,,,,,,,,,,,,,,,,,,,,,,,,,,,,,,,,,,,,,,,,,,,,,,,,,,,,,29032,2022-11-02_10h24.58.904,vts_reward_expectancy_bt_OFFLINE,2022.2.4,59.96677914269869,
1,0,0,0,0,0,0,1,triangle,star,0,0,0,0,2,1,25,2,,,,,,,,,,,,,,,,,,,,,,,,,,,,,,,,,,,,,,,,154.8756574789295,154.8756574789295,154.8756574789295,154.8756574789295,154.8756574789295,154.8756574789295,154.8756574789295,154.8756574789295,154.8756574789295,154.8756574789295,a,1.4718011780641973,10,170,0,156.3773064299021,157.87901141797192,,,,,,,,,,,,,,,,,,,,,,,,,,,,,,,,,,,,,,,,,,,,,,,,,,,,,,,,,,,,,,,,,,,,,,29032,2022-11-02_10h24.58.904,vts_reward_expectancy_bt_OFFLINE,2022.2.4,59.96677914269869,
1,0,0,0,0,1,0,0,triangle,circle,0,0,0,0,2,2,26,0,,,,,,,,,,,,,,,,,,,,,,,,,,,,,,,,,,,,,,,,158.3794904339593,158.3794904339593,158.3794904339593,158.3794904339593,158.3794904339593,158.3794904339593,158.3794904339593,158.3794904339593,158.3794904339593,158.3794904339593,a,0.8650739591103047,10,180,0,159.26409343990963,160.76571645890363,,,,,,,,,,,,,,,,,,,,,,,,,,,,,,,,,,,,,,,,,,,,,,,,,,,,,,,,,,,,,,,,,,,,,,29032,2022-11-02_10h24.58.904,vts_reward_expectancy_bt_OFFLINE,2022.2.4,59.96677914269869,
0,1,0,0,1,0,0,0,circle,triangle,0,0,0,0,2,3,27,3,,,,,,,,,,,,,,,,,,,,,,,,,,,,,,,,,,,,,,,,161.26619466894772,161.26619466894772,161.26619466894772,161.26619466894772,161.26619466894772,161.26619466894772,161.26619466894772,161.26619466894772,161.26619466894772,161.26619466894772,l,0.7529153131181374,10,190,0,162.05028505297378,163.55212365998887,,,,,,,,,,,,,,,,,,,,,,,,,,,,,,,,,,,,,,,,,,,,,,,,,,,,,,,,,,,,,,,,,,,,,,29032,2022-11-02_10h24.58.904,vts_reward_expectancy_bt_OFFLINE,2022.2.4,59.96677914269869,
0,0,0,1,0,1,0,0,star ,circle,0,0,0,0,2,4,28,10,,,,,,,,,,,,,,,,,,,,,,,,,,,,,,,,,,,,,,,,164.05249859497417,164.05249859497417,164.05249859497417,164.05249859497417,164.05249859497417,164.05249859497417,164.05249859497417,164.05249859497417,164.05249859497417,164.05249859497417,a,2.3761988220503554,10,200,0,166.4552123809699,167.95684471994173,,,,,,,,,,,,,,,,,,,,,,,,,,,,,,,,,,,,,,,,,,,,,,,,,,,,,,,,,,,,,,,,,,,,,,29032,2022-11-02_10h24.58.904,vts_reward_expectancy_bt_OFFLINE,2022.2.4,59.96677914269869,
0,0,1,0,1,0,0,0,hexagon,triangle,0,0,0,0,2,5,29,6,,,,,,,,,,,,,,,,,,,,,,,,,,,,,,,,,,,,,,,,168.45756831089966,168.45756831089966,168.45756831089966,168.45756831089966,168.45756831089966,168.45756831089966,168.45756831089966,168.45756831089966,168.45756831089966,168.45756831089966,l,1.8598652181681246,1,201,0,170.34284818789456,171.8446602029726,,,,,,,,,,,,,,,,,,,,,,,,,,,,,,,,,,,,,,,,,,,,,,,,,,,,,,,,,,,,,,,,,,,,,,29032,2022-11-02_10h24.58.904,vts_reward_expectancy_bt_OFFLINE,2022.2.4,59.96677914269869,
0,1,0,0,0,0,0,1,circle,star,0,0,0,0,2,6,30,5,,,,,,,,,,,,,,,,,,,,,,,,,,,,,,,,,,,,,,,,172.345079428982,172.345079428982,172.345079428982,172.345079428982,172.345079428982,172.345079428982,172.345079428982,172.345079428982,172.345079428982,172.345079428982,l,1.25238291407004,10,211,0,173.62976098491345,175.13142321491614,,,,,,,,,,,,,,,,,,,,,,,,,,,,,,,,,,,,,,,,,,,,,,,,,,,,,,,,,,,,,,,,,,,,,,29032,2022-11-02_10h24.58.904,vts_reward_expectancy_bt_OFFLINE,2022.2.4,59.96677914269869,
1,0,0,0,0,0,1,0,triangle,hexagon,0,0,0,0,2,7,31,1,,,,,,,,,,,,,,,,,,,,,,,,,,,,,,,,,,,,,,,,175.6318500849884,175.6318500849884,175.6318500849884,175.6318500849884,175.6318500849884,175.6318500849884,175.6318500849884,175.6318500849884,175.6318500849884,175.6318500849884,a,1.068366160034202,1,212,0,176.71655695291702,178.21841678489,178.21841678489,,,,,,,,,,,,,,,,,,,,,,,,,,,,,,,,,,,,,,,,,,,,,,,,,,,,,,,,,,,,,,,,,,,,,29032,2022-11-02_10h24.58.904,vts_reward_expectancy_bt_OFFLINE,2022.2.4,59.96677914269869,
0,0,0,1,0,0,1,0,star,hexagon,0,0,0,0,2,8,32,11,,,,,,,,,,,,,,,,,,,,,,,,,,,,,,,,,,,,,,,,178.7189022549428,178.7189022549428,178.7189022549428,178.7189022549428,178.7189022549428,178.7189022549428,178.7189022549428,178.7189022549428,178.7189022549428,178.7189022549428,l,1.5416038651019335,1,213,0,180.28720637294464,181.78879733989015,,,,,,,,,,,,,,,,,,,,,,,,,,,,,,,,,,,,,,,,,,,,,,,,,,,,,,,,,,,,,,,,,,,,,,29032,2022-11-02_10h24.58.904,vts_reward_expectancy_bt_OFFLINE,2022.2.4,59.96677914269869,
0,0,1,0,0,1,0,0,hexagon,circle,0,0,0,0,2,9,33,7,,,,,,,,,,,,,,,,,,,,,,,,,,,,,,,,,,,,,,,,182.2892589198891,182.2892589198891,182.2892589198891,182.2892589198891,182.2892589198891,182.2892589198891,182.2892589198891,182.2892589198891,182.2892589198891,182.2892589198891,a,1.178608906106092,10,223,0,183.49059006094467,184.99213619495276,,,,,,,,,,,,,,,,,,,,,,,,,,,,,,,,,,,,,,,,,,,,,,,,,,,,,,,,,,,,,,,,,,,,,,29032,2022-11-02_10h24.58.904,vts_reward_expectancy_bt_OFFLINE,2022.2.4,59.96677914269869,
0,1,0,0,0,0,1,0,circle,hexagon,0,0,0,0,2,10,34,4,,,,,,,,,,,,,,,,,,,,,,,,,,,,,,,,,,,,,,,,185.49296875088476,185.49296875088476,185.49296875088476,185.49296875088476,185.49296875088476,185.49296875088476,185.49296875088476,185.49296875088476,185.49296875088476,185.49296875088476,l,1.2463197940960526,10,233,0,186.7608414409915,188.26258121989667,,,,,,,,,,,,,,,,,,,,,,,,,,,,,,,,,,,,,,,,,,,,,,,,,,,,,,,,,,,,,,,,,,,,,,29032,2022-11-02_10h24.58.904,vts_reward_expectancy_bt_OFFLINE,2022.2.4,59.96677914269869,
0,0,1,0,0,0,0,1,hexagon,star,0,0,0,0,2,11,35,8,,,,,,,,,,,,,,,,,,,,,,,,,,,,,,,,,,,,,,,,188.7632152439328,188.7632152439328,188.7632152439328,188.7632152439328,188.7632152439328,188.7632152439328,188.7632152439328,188.7632152439328,188.7632152439328,188.7632152439328,a,2.353393496130593,1,234,0,191.1491120288847,192.65087898494676,,,,,,,,,,,,,,,,,,,,,,,,,,,,,,,,,,,,,,,,,,,,,,,,,,,,,,,,,,,,,,,,,,,,,,29032,2022-11-02_10h24.58.904,vts_reward_expectancy_bt_OFFLINE,2022.2.4,59.96677914269869,
0,1,0,0,1,0,0,0,circle,triangle,0,0,0,0,3,0,36,3,,,,,,,,,,,,,,,,,,,,,,,,,,,,,,,,,,,,,,,,193.15122931892984,193.15122931892984,193.15122931892984,193.15122931892984,193.15122931892984,193.15122931892984,193.15122931892984,193.15122931892984,193.15122931892984,193.15122931892984,l,0.78051576402504,1,235,0,193.95205713890027,195.4539002109086,,,,,,,,,,,,,,,,,,,,,,,,,,,,,,,,,,,,,,,,,,,,,,,,,,,,,,,,,,,,,,,,,,,,,,29032,2022-11-02_10h24.58.904,vts_reward_expectancy_bt_OFFLINE,2022.2.4,59.96677914269869,
0,0,0,1,0,0,1,0,star,hexagon,0,0,0,0,3,1,37,11,,,,,,,,,,,,,,,,,,,,,,,,,,,,,,,,,,,,,,,,195.9543200909393,195.9543200909393,195.9543200909393,195.9543200909393,195.9543200909393,195.9543200909393,195.9543200909393,195.9543200909393,195.9543200909393,195.9543200909393,a,1.5619603880913928,1,236,0,197.5395478788996,199.0412374229636,,,,,,,,,,,,,,,,,,,,,,,,,,,,,,,,,,,,,,,,,,,,,,,,,,,,,,,,,,,,,,,,,,,,,,29032,2022-11-02_10h24.58.904,vts_reward_expectancy_bt_OFFLINE,2022.2.4,59.96677914269869,
0,0,1,0,0,1,0,0,hexagon,circle,0,0,0,0,3,2,38,7,,,,,,,,,,,,,,,,,,,,,,,,,,,,,,,,,,,,,,,,199.54189816094004,199.54189816094004,199.54189816094004,199.54189816094004,199.54189816094004,199.54189816094004,199.54189816094004,199.54189816094004,199.54189816094004,199.54189816094004,a,1.1187650221399963,1,237,0,200.6928855779115,202.19458494288847,,,,,,,,,,,,,,,,,,,,,,,,,,,,,,,,,,,,,,,,,,,,,,,,,,,,,,,,,,,,,,,,,,,,,,29032,2022-11-02_10h24.58.904,vts_reward_expectancy_bt_OFFLINE,2022.2.4,59.96677914269869,
0,0,0,1,0,1,0,0,star ,circle,0,0,0,0,3,3,39,10,,,,,,,,,,,,,,,,,,,,,,,,,,,,,,,,,,,,,,,,202.69511587091256,202.69511587091256,202.69511587091256,202.69511587091256,202.69511587091256,202.69511587091256,202.69511587091256,202.69511587091256,202.69511587091256,202.69511587091256,a,1.6930755720240995,1,238,0,204.41365310293622,205.9155190748861,,,,,,,,,,,,,,,,,,,,,,,,,,,,,,,,,,,,,,,,,,,,,,,,,,,,,,,,,,,,,,,,,,,,,,29032,2022-11-02_10h24.58.904,vts_reward_expectancy_bt_OFFLINE,2022.2.4,59.96677914269869,
1,0,0,0,0,0,1,0,triangle,hexagon,0,0,0,0,3,4,40,1,,,,,,,,,,,,,,,,,,,,,,,,,,,,,,,,,,,,,,,,206.41590234299656,206.41590234299656,206.41590234299656,206.41590234299656,206.41590234299656,206.41590234299656,206.41590234299656,206.41590234299656,206.41590234299656,206.41590234299656,a,0.7081510510761291,10,248,0,207.15015876293182,208.65177904395387,,,,,,,,,,,,,,,,,,,,,,,,,,,,,,,,,,,,,,,,,,,,,,,,,,,,,,,,,,,,,,,,,,,,,,29032,2022-11-02_10h24.58.904,vts_reward_expectancy_bt_OFFLINE,2022.2.4,59.96677914269869,
0,1,0,0,0,0,0,1,circle,star,0,0,0,0,3,5,41,5,,,,,,,,,,,,,,,,,,,,,,,,,,,,,,,,,,,,,,,,209.15217195893638,209.15217195893638,209.15217195893638,209.15217195893638,209.15217195893638,209.15217195893638,209.15217195893638,209.15217195893638,209.15217195893638,209.15217195893638,l,1.7477672600653023,1,249,0,210.92106161592528,212.4224676298909,,,,,,,,,,,,,,,,,,,,,,,,,,,,,,,,,,,,,,,,,,,,,,,,,,,,,,,,,,,,,,,,,,,,,,29032,2022-11-02_10h24.58.904,vts_reward_expectancy_bt_OFFLINE,2022.2.4,59.96677914269869,
1,0,0,0,0,1,0,0,triangle,circle,0,0,0,0,3,6,42,0,,,,,,,,,,,,,,,,,,,,,,,,,,,,,,,,,,,,,,,,212.92323333094828,212.92323333094828,212.92323333094828,212.92323333094828,212.92323333094828,212.92323333094828,212.92323333094828,212.92323333094828,212.92323333094828,212.92323333094828,a,0.7519437451846898,1,250,0,213.70716289093252,215.20878132490907,,,,,,,,,,,,,,,,,,,,,,,,,,,,,,,,,,,,,,,,,,,,,,,,,,,,,,,,,,,,,,,,,,,,,,29032,2022-11-02_10h24.58.904,vts_reward_expectancy_bt_OFFLINE,2022.2.4,59.96677914269869,
0,1,0,0,0,0,1,0,circle,hexagon,0,0,0,0,3,7,43,4,,,,,,,,,,,,,,,,,,,,,,,,,,,,,,,,,,,,,,,,215.70938649890013,215.70938649890013,215.70938649890013,215.70938649890013,215.70938649890013,215.70938649890013,215.70938649890013,215.70938649890013,215.70938649890013,215.70938649890013,l,1.142610343056731,10,260,0,216.87740422796924,218.37910377490334,,,,,,,,,,,,,,,,,,,,,,,,,,,,,,,,,,,,,,,,,,,,,,,,,,,,,,,,,,,,,,,,,,,,,,29032,2022-11-02_10h24.58.904,vts_reward_expectancy_bt_OFFLINE,2022.2.4,59.96677914269869,
0,0,1,0,0,0,0,1,hexagon,star,0,0,0,0,3,8,44,8,,,,,,,,,,,,,,,,,,,,,,,,,,,,,,,,,,,,,,,,218.8798666659277,218.8798666659277,218.8798666659277,218.8798666659277,218.8798666659277,218.8798666659277,218.8798666659277,218.8798666659277,218.8798666659277,218.8798666659277,a,2.1317454881500453,1,261,0,221.0322143129306,222.5337199359201,,,,,,,,,,,,,,,,,,,,,,,,,,,,,,,,,,,,,,,,,,,,,,,,,,,,,,,,,,,,,,,,,,,,,,29032,2022-11-02_10h24.58.904,vts_reward_expectancy_bt_OFFLINE,2022.2.4,59.96677914269869,
1,0,0,0,0,0,0,1,triangle,star,0,0,0,0,3,9,45,2,,,,,,,,,,,,,,,,,,,,,,,,,,,,,,,,,,,,,,,,223.03445907495916,223.03445907495916,223.03445907495916,223.03445907495916,223.03445907495916,223.03445907495916,223.03445907495916,223.03445907495916,223.03445907495916,223.03445907495916,a,1.089702328084968,1,262,0,224.15208414394874,225.6537088128971,,,,,,,,,,,,,,,,,,,,,,,,,,,,,,,,,,,,,,,,,,,,,,,,,,,,,,,,,,,,,,,,,,,,,,29032,2022-11-02_10h24.58.904,vts_reward_expectancy_bt_OFFLINE,2022.2.4,59.96677914269869,
0,0,1,0,1,0,0,0,hexagon,triangle,0,0,0,0,3,10,46,6,,,,,,,,,,,,,,,,,,,,,,,,,,,,,,,,,,,,,,,,226.15422229398973,226.15422229398973,226.15422229398973,226.15422229398973,226.15422229398973,226.15422229398973,226.15422229398973,226.15422229398973,226.15422229398973,226.15422229398973,l,1.3140589551767334,10,272,0,227.4890591929434,228.9907696429873,,,,,,,,,,,,,,,,,,,,,,,,,,,,,,,,,,,,,,,,,,,,,,,,,,,,,,,,,,,,,,,,,,,,,,29032,2022-11-02_10h24.58.904,vts_reward_expectancy_bt_OFFLINE,2022.2.4,59.96677914269869,
0,0,0,1,1,0,0,0,star,triangle,0,0,0,0,3,11,47,9,,,,,,,,,,,,,,,,,,,,,,,,,,,,,,,,,,,,,,,,229.4914038629504,229.4914038629504,229.4914038629504,229.4914038629504,229.4914038629504,229.4914038629504,229.4914038629504,229.4914038629504,229.4914038629504,229.4914038629504,l,1.6565915240207687,10,282,0,231.17673696088605,232.6782867439324,,,,,,,,,,,,,,,,,,,,,,,,,,,,,,,,,,,,,,,,,,,,,,,,,,,,,,,,,,,,,,,,,,,,,,29032,2022-11-02_10h24.58.904,vts_reward_expectancy_bt_OFFLINE,2022.2.4,59.96677914269869,
0,1,0,0,0,0,0,1,circle,star,1,0,1,0,0,0,0,5,,,,,,,,,,,,,,,,,,,,,,,,,,,,,,,,,,,,,,,,246.89389048796147,246.89389048796147,246.89389048796147,246.89389048796147,246.89389048796147,246.89389048796147,246.89389048796147,246.89389048796147,246.89389048796147,246.89389048796147,l,2.781432501040399,1,283,1,249.69688010390382,251.19859796599485,,,,,,,,,,,,,,,,,,,,,,,,,,,,,,,,,,,,,,,,,,,,,,,,,,,,,,,,,,,,,,,,,,,,,,29032,2022-11-02_10h24.58.904,vts_reward_expectancy_bt_OFFLINE,2022.2.4,59.96677914269869,
1,0,0,0,0,0,0,1,triangle,star,1,0,1,0,0,1,1,2,,,,,,,,,,,,,,,,,,,,,,,,,,,,,,,,,,,,,,,,251.69929210597184,251.69929210597184,251.69929210597184,251.69929210597184,251.69929210597184,251.69929210597184,251.69929210597184,251.69929210597184,251.69929210597184,251.69929210597184,a,0.8580283391056582,10,293,1,252.58352421491873,254.08529962890316,,,,,,,,,,,,,,,,,,,,,,,,,,,,,,,,,,,,,,,,,,,,,,,,,,,,,,,,,,,,,,,,,,,,,,29032,2022-11-02_10h24.58.904,vts_reward_expectancy_bt_OFFLINE,2022.2.4,59.96677914269869,
0,0,0,1,0,0,1,0,star,hexagon,1,0,1,0,0,2,2,11,,,,,,,,,,,,,,,,,,,,,,,,,,,,,,,,,,,,,,,,254.58575771295,254.58575771295,254.58575771295,254.58575771295,254.58575771295,254.58575771295,254.58575771295,254.58575771295,254.58575771295,254.58575771295,l,0.9782876301323995,10,303,1,255.58690463297535,257.08863666898105,,,,,,,,,,,,,,,,,,,,,,,,,,,,,,,,,,,,,,,,,,,,,,,,,,,,,,,,,,,,,,,,,,,,,,29032,2022-11-02_10h24.58.904,vts_reward_expectancy_bt_OFFLINE,2022.2.4,59.96677914269869,
1,0,0,0,0,0,1,0,triangle,hexagon,1,0,1,0,0,3,3,1,,,,,,,,,,,,,,,,,,,,,,,,,,,,,,,,,,,,,,,,257.58924774092156,257.58924774092156,257.58924774092156,257.58924774092156,257.58924774092156,257.58924774092156,257.58924774092156,257.58924774092156,257.58924774092156,257.58924774092156,a,1.135171010158956,1,304,1,258.75698244094383,260.2586415129481,,,,,,,,,,,,,,,,,,,,,,,,,,,,,,,,,,,,,,,,,,,,,,,,,,,,,,,,,,,,,,,,,,,,,,29032,2022-11-02_10h24.58.904,vts_reward_expectancy_bt_OFFLINE,2022.2.4,59.96677914269869,
0,0,1,0,1,0,0,0,hexagon,triangle,1,0,1,0,0,4,4,6,,,,,,,,,,,,,,,,,,,,,,,,,,,,,,,,,,,,,,,,260.7594963629963,260.7594963629963,260.7594963629963,260.7594963629963,260.7594963629963,260.7594963629963,260.7594963629963,260.7594963629963,260.7594963629963,260.7594963629963,l,0.9576582240406424,1,305,1,261.74360472499393,263.2452240008861,,,,,,,,,,,,,,,,,,,,,,,,,,,,,,,,,,,,,,,,,,,,,,,,,,,,,,,,,,,,,,,,,,,,,,29032,2022-11-02_10h24.58.904,vts_reward_expectancy_bt_OFFLINE,2022.2.4,59.96677914269869,
0,0,1,0,0,0,0,1,hexagon,star,1,0,1,0,0,5,5,8,,,,,,,,,,,,,,,,,,,,,,,,,,,,,,,,,,,,,,,,263.7456305499654,263.7456305499654,263.7456305499654,263.7456305499654,263.7456305499654,263.7456305499654,263.7456305499654,263.7456305499654,263.7456305499654,263.7456305499654,a,1.3219184740446508,1,306,1,265.09723423293326,266.59886319888756,,,,,,,,,,,,,,,,,,,,,,,,,,,,,,,,,,,,,,,,,,,,,,,,,,,,,,,,,,,,,,,,,,,,,,29032,2022-11-02_10h24.58.904,vts_reward_expectancy_bt_OFFLINE,2022.2.4,59.96677914269869,
1,0,0,0,0,1,0,0,triangle,circle,1,0,1,0,0,6,6,0,,,,,,,,,,,,,,,,,,,,,,,,,,,,,,,,,,,,,,,,267.09936916595325,267.09936916595325,267.09936916595325,267.09936916595325,267.09936916595325,267.09936916595325,267.09936916595325,267.09936916595325,267.09936916595325,267.09936916595325,a,0.8718662480823696,1,307,1,268.00041693099774,269.50208892289083,,,,,,,,,,,,,,,,,,,,,,,,,,,,,,,,,,,,,,,,,,,,,,,,,,,,,,,,,,,,,,,,,,,,,,29032,2022-11-02_10h24.58.904,vts_reward_expectancy_bt_OFFLINE,2022.2.4,59.96677914269869,
0,1,0,0,0,0,1,0,circle,hexagon,1,0,1,0,0,7,7,4,,,,,,,,,,,,,,,,,,,,,,,,,,,,,,,,,,,,,,,,270.00279862992465,270.00279862992465,270.00279862992465,270.00279862992465,270.00279862992465,270.00279862992465,270.00279862992465,270.00279862992465,270.00279862992465,270.00279862992465,l,0.912813276052475,1,308,1,270.93694413395133,272.4386196898995,,,,,,,,,,,,,,,,,,,,,,,,,,,,,,,,,,,,,,,,,,,,,,,,,,,,,,,,,,,,,,,,,,,,,,29032,2022-11-02_10h24.58.904,vts_reward_expectancy_bt_OFFLINE,2022.2.4,59.96677914269869,
0,0,0,1,1,0,0,0,star,triangle,1,0,1,0,0,8,8,9,,,,,,,,,,,,,,,,,,,,,,,,,,,,,,,,,,,,,,,,272.9392284229398,272.9392284229398,272.9392284229398,272.9392284229398,272.9392284229398,272.9392284229398,272.9392284229398,272.9392284229398,272.9392284229398,272.9392284229398,l,0.6651740410597995,1,309,1,273.6233559899265,275.12515089591034,,,,,,,,,,,,,,,,,,,,,,,,,,,,,,,,,,,,,,,,,,,,,,,,,,,,,,,,,,,,,,,,,,,,,,29032,2022-11-02_10h24.58.904,vts_reward_expectancy_bt_OFFLINE,2022.2.4,59.96677914269869,
0,0,1,0,0,1,0,0,hexagon,circle,1,0,1,0,0,9,9,7,,,,,,,,,,,,,,,,,,,,,,,,,,,,,,,,,,,,,,,,275.6256532429252,275.6256532429252,275.6256532429252,275.6256532429252,275.6256532429252,275.6256532429252,275.6256532429252,275.6256532429252,275.6256532429252,275.6256532429252,l,2.026418960071169,1,310,1,277.6778917729389,279.17938845499884,279.17938845499884,,,,,,,,,,,,,,,,,,,,,,,,,,,,,,,,,,,,,,,,,,,,,,,,,,,,,,,,,,,,,,,,,,,,,29032,2022-11-02_10h24.58.904,vts_reward_expectancy_bt_OFFLINE,2022.2.4,59.96677914269869,
0,1,0,0,1,0,0,0,circle,triangle,1,0,1,0,0,10,10,3,,,,,,,,,,,,,,,,,,,,,,,,,,,,,,,,,,,,,,,,279.6802983779926,279.6802983779926,279.6802983779926,279.6802983779926,279.6802983779926,279.6802983779926,279.6802983779926,279.6802983779926,279.6802983779926,279.6802983779926,l,0.7562084092060104,1,311,1,280.46428880491294,281.9658581849653,,,,,,,,,,,,,,,,,,,,,,,,,,,,,,,,,,,,,,,,,,,,,,,,,,,,,,,,,,,,,,,,,,,,,,29032,2022-11-02_10h24.58.904,vts_reward_expectancy_bt_OFFLINE,2022.2.4,59.96677914269869,
0,0,0,1,0,1,0,0,star ,circle,1,0,1,0,0,11,11,10,,,,,,,,,,,,,,,,,,,,,,,,,,,,,,,,,,,,,,,,282.4665188379586,282.4665188379586,282.4665188379586,282.4665188379586,282.4665188379586,282.4665188379586,282.4665188379586,282.4665188379586,282.4665188379586,282.4665188379586,l,1.1525077301776037,1,312,1,283.6513762099203,285.15277912991587,,,,,,,,,,,,,,,,,,,,,,,,,,,,,,,,,,,,,,,,,,,,,,,,,,,,,,,,,,,,,,,,,,,,,,29032,2022-11-02_10h24.58.904,vts_reward_expectancy_bt_OFFLINE,2022.2.4,59.96677914269869,
1,0,0,0,0,1,0,0,triangle,circle,1,0,1,0,1,0,12,0,,,,,,,,,,,,,,,,,,,,,,,,,,,,,,,,,,,,,,,,285.65328695997596,285.65328695997596,285.65328695997596,285.65328695997596,285.65328695997596,285.65328695997596,285.65328695997596,285.65328695997596,285.65328695997596,285.65328695997596,a,0.5025974181480706,10,322,1,286.18715310294647,287.68881096399855,,,,,,,,,,,,,,,,,,,,,,,,,,,,,,,,,,,,,,,,,,,,,,,,,,,,,,,,,,,,,,,,,,,,,,29032,2022-11-02_10h24.58.904,vts_reward_expectancy_bt_OFFLINE,2022.2.4,59.96677914269869,
0,0,0,1,1,0,0,0,star,triangle,1,0,1,0,1,1,13,9,,,,,,,,,,,,,,,,,,,,,,,,,,,,,,,,,,,,,,,,288.1894316439284,288.1894316439284,288.1894316439284,288.1894316439284,288.1894316439284,288.1894316439284,288.1894316439284,288.1894316439284,288.1894316439284,288.1894316439284,l,0.6624722561100498,1,323,1,288.87347545998637,290.3751839939505,,,,,,,,,,,,,,,,,,,,,,,,,,,,,,,,,,,,,,,,,,,,,,,,,,,,,,,,,,,,,,,,,,,,,,29032,2022-11-02_10h24.58.904,vts_reward_expectancy_bt_OFFLINE,2022.2.4,59.96677914269869,
1,0,0,0,0,0,0,1,triangle,star,1,0,1,0,1,2,14,2,,,,,,,,,,,,,,,,,,,,,,,,,,,,,,,,,,,,,,,,290.87567751295865,290.87567751295865,290.87567751295865,290.87567751295865,290.87567751295865,290.87567751295865,290.87567751295865,290.87567751295865,290.87567751295865,290.87567751295865,a,0.7364192990353331,10,333,1,291.64334954996593,293.14497539098375,,,,,,,,,,,,,,,,,,,,,,,,,,,,,,,,,,,,,,,,,,,,,,,,,,,,,,,,,,,,,,,,,,,,,,29032,2022-11-02_10h24.58.904,vts_reward_expectancy_bt_OFFLINE,2022.2.4,59.96677914269869,
0,0,0,1,0,0,1,0,star,hexagon,1,0,1,0,1,3,15,11,,,,,,,,,,,,,,,,,,,,,,,,,,,,,,,,,,,,,,,,293.64542016992345,293.64542016992345,293.64542016992345,293.64542016992345,293.64542016992345,293.64542016992345,293.64542016992345,293.64542016992345,293.64542016992345,293.64542016992345,l,1.8707104731583968,1,334,1,295.5476046849508,297.04915764089674,,,,,,,,,,,,,,,,,,,,,,,,,,,,,,,,,,,,,,,,,,,,,,,,,,,,,,,,,,,,,,,,,,,,,,29032,2022-11-02_10h24.58.904,vts_reward_expectancy_bt_OFFLINE,2022.2.4,59.96677914269869,
0,0,1,0,1,0,0,0,hexagon,triangle,1,0,1,0,1,4,16,6,,,,,,,,,,,,,,,,,,,,,,,,,,,,,,,,,,,,,,,,297.5498736409936,297.5498736409936,297.5498736409936,297.5498736409936,297.5498736409936,297.5498736409936,297.5498736409936,297.5498736409936,297.5498736409936,297.5498736409936,a,1.293817262048833,10,344,1,298.86800820892677,300.36948937899433,,,,,,,,,,,,,,,,,,,,,,,,,,,,,,,,,,,,,,,,,,,,,,,,,,,,,,,,,,,,,,,,,,,,,,29032,2022-11-02_10h24.58.904,vts_reward_expectancy_bt_OFFLINE,2022.2.4,59.96677914269869,
0,0,1,0,0,1,0,0,hexagon,circle,1,0,1,0,1,5,17,7,,,,,,,,,,,,,,,,,,,,,,,,,,,,,,,,,,,,,,,,300.87005880393554,300.87005880393554,300.87005880393554,300.87005880393554,300.87005880393554,300.87005880393554,300.87005880393554,300.87005880393554,300.87005880393554,300.87005880393554,a,1.4776433231309056,1,345,1,302.3718023028923,303.8735663329717,,,,,,,,,,,,,,,,,,,,,,,,,,,,,,,,,,,,,,,,,,,,,,,,,,,,,,,,,,,,,,,,,,,,,,29032,2022-11-02_10h24.58.904,vts_reward_expectancy_bt_OFFLINE,2022.2.4,59.96677914269869,
0,1,0,0,0,0,1,0,circle,hexagon,1,0,1,0,1,6,18,4,,,,,,,,,,,,,,,,,,,,,,,,,,,,,,,,,,,,,,,,304.37397653097287,304.37397653097287,304.37397653097287,304.37397653097287,304.37397653097287,304.37397653097287,304.37397653097287,304.37397653097287,304.37397653097287,304.37397653097287,l,1.3587757791392505,1,346,1,305.75879206799436,307.26050207891967,,,,,,,,,,,,,,,,,,,,,,,,,,,,,,,,,,,,,,,,,,,,,,,,,,,,,,,,,,,,,,,,,,,,,,29032,2022-11-02_10h24.58.904,vts_reward_expectancy_bt_OFFLINE,2022.2.4,59.96677914269869,
0,0,0,1,0,1,0,0,star ,circle,1,0,1,0,1,7,19,10,,,,,,,,,,,,,,,,,,,,,,,,,,,,,,,,,,,,,,,,307.7610235309694,307.7610235309694,307.7610235309694,307.7610235309694,307.7610235309694,307.7610235309694,307.7610235309694,307.7610235309694,307.7610235309694,307.7610235309694,l,1.2755937760230154,1,347,1,309.06248269591015,310.5640215439489,,,,,,,,,,,,,,,,,,,,,,,,,,,,,,,,,,,,,,,,,,,,,,,,,,,,,,,,,,,,,,,,,,,,,,29032,2022-11-02_10h24.58.904,vts_reward_expectancy_bt_OFFLINE,2022.2.4,59.96677914269869,
1,0,0,0,0,0,1,0,triangle,hexagon,1,0,1,0,1,8,20,1,,,,,,,,,,,,,,,,,,,,,,,,,,,,,,,,,,,,,,,,311.0647287329193,311.0647287329193,311.0647287329193,311.0647287329193,311.0647287329193,311.0647287329193,311.0647287329193,311.0647287329193,311.0647287329193,311.0647287329193,a,0.48403734306339175,10,357,1,311.5651601899881,313.06689747294877,313.06689747294877,,,,,,,,,,,,,,,,,,,,,,,,,,,,,,,,,,,,,,,,,,,,,,,,,,,,,,,,,,,,,,,,,,,,,29032,2022-11-02_10h24.58.904,vts_reward_expectancy_bt_OFFLINE,2022.2.4,59.96677914269869,
0,1,0,0,0,0,0,1,circle,star,1,0,1,0,1,9,21,5,,,,,,,,,,,,,,,,,,,,,,,,,,,,,,,,,,,,,,,,313.56737017293926,313.56737017293926,313.56737017293926,313.56737017293926,313.56737017293926,313.56737017293926,313.56737017293926,313.56737017293926,313.56737017293926,313.56737017293926,a,1.0122824060963467,10,367,1,314.60197232989594,316.1034424249083,,,,,,,,,,,,,,,,,,,,,,,,,,,,,,,,,,,,,,,,,,,,,,,,,,,,,,,,,,,,,,,,,,,,,,29032,2022-11-02_10h24.58.904,vts_reward_expectancy_bt_OFFLINE,2022.2.4,59.96677914269869,
0,0,1,0,0,0,0,1,hexagon,star,1,0,1,0,1,10,22,8,,,,,,,,,,,,,,,,,,,,,,,,,,,,,,,,,,,,,,,,316.6040298929438,316.6040298929438,316.6040298929438,316.6040298929438,316.6040298929438,316.6040298929438,316.6040298929438,316.6040298929438,316.6040298929438,316.6040298929438,a,1.0633045610738918,1,368,1,317.68824967893306,319.1903009079397,,,,,,,,,,,,,,,,,,,,,,,,,,,,,,,,,,,,,,,,,,,,,,,,,,,,,,,,,,,,,,,,,,,,,,29032,2022-11-02_10h24.58.904,vts_reward_expectancy_bt_OFFLINE,2022.2.4,59.96677914269869,
0,1,0,0,1,0,0,0,circle,triangle,1,0,1,0,1,11,23,3,,,,,,,,,,,,,,,,,,,,,,,,,,,,,,,,,,,,,,,,319.69113499391824,319.69113499391824,319.69113499391824,319.69113499391824,319.69113499391824,319.69113499391824,319.69113499391824,319.69113499391824,319.69113499391824,319.69113499391824,l,1.6021805261261761,10,378,1,321.3259996299166,322.82775455596857,,,,,,,,,,,,,,,,,,,,,,,,,,,,,,,,,,,,,,,,,,,,,,,,,,,,,,,,,,,,,,,,,,,,,,29032,2022-11-02_10h24.58.904,vts_reward_expectancy_bt_OFFLINE,2022.2.4,59.96677914269869,
1,0,0,0,0,0,0,1,triangle,star,1,0,1,0,2,0,24,2,,,,,,,,,,,,,,,,,,,,,,,,,,,,,,,,,,,,,,,,323.3283643448958,323.3283643448958,323.3283643448958,323.3283643448958,323.3283643448958,323.3283643448958,323.3283643448958,323.3283643448958,323.3283643448958,323.3283643448958,a,0.9085460380883887,1,379,1,324.2627432108857,325.76416311995126,,,,,,,,,,,,,,,,,,,,,,,,,,,,,,,,,,,,,,,,,,,,,,,,,,,,,,,,,,,,,,,,,,,,,,29032,2022-11-02_10h24.58.904,vts_reward_expectancy_bt_OFFLINE,2022.2.4,59.96677914269869,
0,0,0,1,0,1,0,0,star ,circle,1,0,1,0,2,1,25,10,,,,,,,,,,,,,,,,,,,,,,,,,,,,,,,,,,,,,,,,326.26487495098263,326.26487495098263,326.26487495098263,326.26487495098263,326.26487495098263,326.26487495098263,326.26487495098263,326.26487495098263,326.26487495098263,326.26487495098263,a,1.6190194671507925,1,380,1,327.91676470590755,329.4183386309305,,,,,,,,,,,,,,,,,,,,,,,,,,,,,,,,,,,,,,,,,,,,,,,,,,,,,,,,,,,,,,,,,,,,,,29032,2022-11-02_10h24.58.904,vts_reward_expectancy_bt_OFFLINE,2022.2.4,59.96677914269869,
0,0,1,0,1,0,0,0,hexagon,triangle,1,0,1,0,2,2,26,6,,,,,,,,,,,,,,,,,,,,,,,,,,,,,,,,,,,,,,,,329.91891515499447,329.91891515499447,329.91891515499447,329.91891515499447,329.91891515499447,329.91891515499447,329.91891515499447,329.91891515499447,329.91891515499447,329.91891515499447,l,1.988192956079729,10,390,1,331.9376375809079,333.4394929909613,,,,,,,,,,,,,,,,,,,,,,,,,,,,,,,,,,,,,,,,,,,,,,,,,,,,,,,,,,,,,,,,,,,,,,29032,2022-11-02_10h24.58.904,vts_reward_expectancy_bt_OFFLINE,2022.2.4,59.96677914269869,
0,0,1,0,0,1,0,0,hexagon,circle,1,0,1,0,2,3,27,7,,,,,,,,,,,,,,,,,,,,,,,,,,,,,,,,,,,,,,,,333.9397920439951,333.9397920439951,333.9397920439951,333.9397920439951,333.9397920439951,333.9397920439951,333.9397920439951,333.9397920439951,333.9397920439951,333.9397920439951,a,0.8342719040811062,1,391,1,334.8077961698873,336.3091136479052,,,,,,,,,,,,,,,,,,,,,,,,,,,,,,,,,,,,,,,,,,,,,,,,,,,,,,,,,,,,,,,,,,,,,,29032,2022-11-02_10h24.58.904,vts_reward_expectancy_bt_OFFLINE,2022.2.4,59.96677914269869,
1,0,0,0,0,0,1,0,triangle,hexagon,1,0,1,0,2,4,28,1,,,,,,,,,,,,,,,,,,,,,,,,,,,,,,,,,,,,,,,,336.80948222998995,336.80948222998995,336.80948222998995,336.80948222998995,336.80948222998995,336.80948222998995,336.80948222998995,336.80948222998995,336.80948222998995,336.80948222998995,a,0.7058632221305743,1,392,1,337.5604019999737,339.0622415939579,,,,,,,,,,,,,,,,,,,,,,,,,,,,,,,,,,,,,,,,,,,,,,,,,,,,,,,,,,,,,,,,,,,,,,29032,2022-11-02_10h24.58.904,vts_reward_expectancy_bt_OFFLINE,2022.2.4,59.96677914269869,
0,1,0,0,0,0,0,1,circle,star,1,0,1,0,2,5,29,5,,,,,,,,,,,,,,,,,,,,,,,,,,,,,,,,,,,,,,,,339.56269784399774,339.56269784399774,339.56269784399774,339.56269784399774,339.56269784399774,339.56269784399774,339.56269784399774,339.56269784399774,339.56269784399774,339.56269784399774,l,0.8893511650385335,1,393,1,340.48068707995117,341.98206545889843,,,,,,,,,,,,,,,,,,,,,,,,,,,,,,,,,,,,,,,,,,,,,,,,,,,,,,,,,,,,,,,,,,,,,,29032,2022-11-02_10h24.58.904,vts_reward_expectancy_bt_OFFLINE,2022.2.4,59.96677914269869,
0,0,1,0,0,0,0,1,hexagon,star,1,0,1,0,2,6,30,8,,,,,,,,,,,,,,,,,,,,,,,,,,,,,,,,,,,,,,,,342.4825844439911,342.4825844439911,342.4825844439911,342.4825844439911,342.4825844439911,342.4825844439911,342.4825844439911,342.4825844439911,342.4825844439911,342.4825844439911,a,0.777115527074784,10,403,1,343.2836947529577,344.7852105649654,,,,,,,,,,,,,,,,,,,,,,,,,,,,,,,,,,,,,,,,,,,,,,,,,,,,,,,,,,,,,,,,,,,,,,29032,2022-11-02_10h24.58.904,vts_reward_expectancy_bt_OFFLINE,2022.2.4,59.96677914269869,
0,0,0,1,1,0,0,0,star,triangle,1,0,1,0,2,7,31,9,,,,,,,,,,,,,,,,,,,,,,,,,,,,,,,,,,,,,,,,345.28600050800014,345.28600050800014,345.28600050800014,345.28600050800014,345.28600050800014,345.28600050800014,345.28600050800014,345.28600050800014,345.28600050800014,345.28600050800014,l,0.7098478440893814,10,413,1,346.02024700294714,347.5217072459636,,,,,,,,,,,,,,,,,,,,,,,,,,,,,,,,,,,,,,,,,,,,,,,,,,,,,,,,,,,,,,,,,,,,,,29032,2022-11-02_10h24.58.904,vts_reward_expectancy_bt_OFFLINE,2022.2.4,59.96677914269869,
0,1,0,0,0,0,1,0,circle,hexagon,1,0,1,0,2,8,32,4,,,,,,,,,,,,,,,,,,,,,,,,,,,,,,,,,,,,,,,,348.0223017609678,348.0223017609678,348.0223017609678,348.0223017609678,348.0223017609678,348.0223017609678,348.0223017609678,348.0223017609678,348.0223017609678,348.0223017609678,l,1.335545820184052,1,414,1,349.3902611429803,350.8918393779313,,,,,,,,,,,,,,,,,,,,,,,,,,,,,,,,,,,,,,,,,,,,,,,,,,,,,,,,,,,,,,,,,,,,,,29032,2022-11-02_10h24.58.904,vts_reward_expectancy_bt_OFFLINE,2022.2.4,59.96677914269869,
1,0,0,0,0,1,0,0,triangle,circle,1,0,1,0,2,9,33,0,,,,,,,,,,,,,,,,,,,,,,,,,,,,,,,,,,,,,,,,351.3925951399142,351.3925951399142,351.3925951399142,351.3925951399142,351.3925951399142,351.3925951399142,351.3925951399142,351.3925951399142,351.3925951399142,351.3925951399142,a,0.7010154641466215,1,415,1,352.109913699911,353.6117556989193,353.6117556989193,,,,,,,,,,,,,,,,,,,,,,,,,,,,,,,,,,,,,,,,,,,,,,,,,,,,,,,,,,,,,,,,,,,,,29032,2022-11-02_10h24.58.904,vts_reward_expectancy_bt_OFFLINE,2022.2.4,59.96677914269869,
0,0,0,1,0,0,1,0,star,hexagon,1,0,1,0,2,10,34,11,,,,,,,,,,,,,,,,,,,,,,,,,,,,,,,,,,,,,,,,354.11225205496885,354.11225205496885,354.11225205496885,354.11225205496885,354.11225205496885,354.11225205496885,354.11225205496885,354.11225205496885,354.11225205496885,354.11225205496885,a,1.5878302931087092,10,425,1,355.7306301689241,357.2323073409498,,,,,,,,,,,,,,,,,,,,,,,,,,,,,,,,,,,,,,,,,,,,,,,,,,,,,,,,,,,,,,,,,,,,,,29032,2022-11-02_10h24.58.904,vts_reward_expectancy_bt_OFFLINE,2022.2.4,59.96677914269869,
0,1,0,0,1,0,0,0,circle,triangle,1,0,1,0,2,11,35,3,,,,,,,,,,,,,,,,,,,,,,,,,,,,,,,,,,,,,,,,357.73281297297217,357.73281297297217,357.73281297297217,357.73281297297217,357.73281297297217,357.73281297297217,357.73281297297217,357.73281297297217,357.73281297297217,357.73281297297217,l,0.8168256391072646,10,435,1,358.56705802399665,360.06870263791643,,,,,,,,,,,,,,,,,,,,,,,,,,,,,,,,,,,,,,,,,,,,,,,,,,,,,,,,,,,,,,,,,,,,,,29032,2022-11-02_10h24.58.904,vts_reward_expectancy_bt_OFFLINE,2022.2.4,59.96677914269869,
0,0,0,1,0,0,1,0,star,hexagon,1,0,1,0,3,0,36,11,,,,,,,,,,,,,,,,,,,,,,,,,,,,,,,,,,,,,,,,360.56922419997863,360.56922419997863,360.56922419997863,360.56922419997863,360.56922419997863,360.56922419997863,360.56922419997863,360.56922419997863,360.56922419997863,360.56922419997863,a,1.4762043380178511,10,445,1,362.07083296589553,363.572565259994,,,,,,,,,,,,,,,,,,,,,,,,,,,,,,,,,,,,,,,,,,,,,,,,,,,,,,,,,,,,,,,,,,,,,,29032,2022-11-02_10h24.58.904,vts_reward_expectancy_bt_OFFLINE,2022.2.4,59.96677914269869,
0,1,0,0,0,0,0,1,circle,star,1,0,1,0,3,1,37,5,,,,,,,,,,,,,,,,,,,,,,,,,,,,,,,,,,,,,,,,364.0733321548905,364.0733321548905,364.0733321548905,364.0733321548905,364.0733321548905,364.0733321548905,364.0733321548905,364.0733321548905,364.0733321548905,364.0733321548905,l,0.9466731550637633,10,455,1,365.0409347829409,366.54268190590665,,,,,,,,,,,,,,,,,,,,,,,,,,,,,,,,,,,,,,,,,,,,,,,,,,,,,,,,,,,,,,,,,,,,,,29032,2022-11-02_10h24.58.904,vts_reward_expectancy_bt_OFFLINE,2022.2.4,59.96677914269869,
0,0,1,0,1,0,0,0,hexagon,triangle,1,0,1,0,3,2,38,6,,,,,,,,,,,,,,,,,,,,,,,,,,,,,,,,,,,,,,,,367.0431564699393,367.0431564699393,367.0431564699393,367.0431564699393,367.0431564699393,367.0431564699393,367.0431564699393,367.0431564699393,367.0431564699393,367.0431564699393,l,0.8343846420757473,10,465,1,367.89420595089905,369.3957731749397,369.3957731749397,,,,,,,,,,,,,,,,,,,,,,,,,,,,,,,,,,,,,,,,,,,,,,,,,,,,,,,,,,,,,,,,,,,,,29032,2022-11-02_10h24.58.904,vts_reward_expectancy_bt_OFFLINE,2022.2.4,59.96677914269869,
0,0,1,0,0,1,0,0,hexagon,circle,1,0,1,0,3,3,39,7,,,,,,,,,,,,,,,,,,,,,,,,,,,,,,,,,,,,,,,,369.89626089297235,369.89626089297235,369.89626089297235,369.89626089297235,369.89626089297235,369.89626089297235,369.89626089297235,369.89626089297235,369.89626089297235,369.89626089297235,a,0.8849231520434842,1,466,1,370.81423325289506,372.3158171409741,,,,,,,,,,,,,,,,,,,,,,,,,,,,,,,,,,,,,,,,,,,,,,,,,,,,,,,,,,,,,,,,,,,,,,29032,2022-11-02_10h24.58.904,vts_reward_expectancy_bt_OFFLINE,2022.2.4,59.96677914269869,
0,0,0,1,0,1,0,0,star ,circle,1,0,1,0,3,4,40,10,,,,,,,,,,,,,,,,,,,,,,,,,,,,,,,,,,,,,,,,372.8161921129795,372.8161921129795,372.8161921129795,372.8161921129795,372.8161921129795,372.8161921129795,372.8161921129795,372.8161921129795,372.8161921129795,372.8161921129795,a,1.1174052871065214,1,467,1,373.9507555658929,375.45252166490536,375.45252166490536,,,,,,,,,,,,,,,,,,,,,,,,,,,,,,,,,,,,,,,,,,,,,,,,,,,,,,,,,,,,,,,,,,,,,29032,2022-11-02_10h24.58.904,vts_reward_expectancy_bt_OFFLINE,2022.2.4,59.96677914269869,
0,0,1,0,0,0,0,1,hexagon,star,1,0,1,0,3,5,41,8,,,,,,,,,,,,,,,,,,,,,,,,,,,,,,,,,,,,,,,,375.95286912098527,375.95286912098527,375.95286912098527,375.95286912098527,375.95286912098527,375.95286912098527,375.95286912098527,375.95286912098527,375.95286912098527,375.95286912098527,a,0.9002841369947419,10,477,1,376.87050556892063,378.3720476779854,378.3720476779854,,,,,,,,,,,,,,,,,,,,,,,,,,,,,,,,,,,,,,,,,,,,,,,,,,,,,,,,,,,,,,,,,,,,,29032,2022-11-02_10h24.58.904,vts_reward_expectancy_bt_OFFLINE,2022.2.4,59.96677914269869,
1,0,0,0,0,1,0,0,triangle,circle,1,0,1,0,3,6,42,0,,,,,,,,,,,,,,,,,,,,,,,,,,,,,,,,,,,,,,,,378.8729530290002,378.8729530290002,378.8729530290002,378.8729530290002,378.8729530290002,378.8729530290002,378.8729530290002,378.8729530290002,378.8729530290002,378.8729530290002,l,0.4681677271146327,10,487,1,379.3732024959754,380.87511546490714,,,,,,,,,,,,,,,,,,,,,,,,,,,,,,,,,,,,,,,,,,,,,,,,,,,,,,,,,,,,,,,,,,,,,,29032,2022-11-02_10h24.58.904,vts_reward_expectancy_bt_OFFLINE,2022.2.4,59.96677914269869,
1,0,0,0,0,0,1,0,triangle,hexagon,1,0,1,0,3,7,43,1,,,,,,,,,,,,,,,,,,,,,,,,,,,,,,,,,,,,,,,,381.375686810934,381.375686810934,381.375686810934,381.375686810934,381.375686810934,381.375686810934,381.375686810934,381.375686810934,381.375686810934,381.375686810934,a,0.7727351190987974,1,488,1,382.17642530589364,383.6782301629428,,,,,,,,,,,,,,,,,,,,,,,,,,,,,,,,,,,,,,,,,,,,,,,,,,,,,,,,,,,,,,,,,,,,,,29032,2022-11-02_10h24.58.904,vts_reward_expectancy_bt_OFFLINE,2022.2.4,59.96677914269869,
0,1,0,0,1,0,0,0,circle,triangle,1,0,1,0,3,8,44,3,,,,,,,,,,,,,,,,,,,,,,,,,,,,,,,,,,,,,,,,384.1786650309805,384.1786650309805,384.1786650309805,384.1786650309805,384.1786650309805,384.1786650309805,384.1786650309805,384.1786650309805,384.1786650309805,384.1786650309805,l,0.7212246680865064,1,489,1,384.9294157329714,386.43104007293005,,,,,,,,,,,,,,,,,,,,,,,,,,,,,,,,,,,,,,,,,,,,,,,,,,,,,,,,,,,,,,,,,,,,,,29032,2022-11-02_10h24.58.904,vts_reward_expectancy_bt_OFFLINE,2022.2.4,59.96677914269869,
0,0,0,1,1,0,0,0,star,triangle,1,0,1,0,3,9,45,9,,,,,,,,,,,,,,,,,,,,,,,,,,,,,,,,,,,,,,,,386.93176060088445,386.93176060088445,386.93176060088445,386.93176060088445,386.93176060088445,386.93176060088445,386.93176060088445,386.93176060088445,386.93176060088445,386.93176060088445,l,1.288362541119568,1,490,1,388.2498834779253,389.75173093599733,,,,,,,,,,,,,,,,,,,,,,,,,,,,,,,,,,,,,,,,,,,,,,,,,,,,,,,,,,,,,,,,,,,,,,29032,2022-11-02_10h24.58.904,vts_reward_expectancy_bt_OFFLINE,2022.2.4,59.96677914269869,
0,1,0,0,0,0,1,0,circle,hexagon,1,0,1,0,3,10,46,4,,,,,,,,,,,,,,,,,,,,,,,,,,,,,,,,,,,,,,,,390.2522802728927,390.2522802728927,390.2522802728927,390.2522802728927,390.2522802728927,390.2522802728927,390.2522802728927,390.2522802728927,390.2522802728927,390.2522802728927,a,0.8871954140486196,10,500,1,391.16974159597885,392.6714047999121,,,,,,,,,,,,,,,,,,,,,,,,,,,,,,,,,,,,,,,,,,,,,,,,,,,,,,,,,,,,,,,,,,,,,,29032,2022-11-02_10h24.58.904,vts_reward_expectancy_bt_OFFLINE,2022.2.4,59.96677914269869,
1,0,0,0,0,0,0,1,triangle,star,1,0,1,0,3,11,47,2,,,,,,,,,,,,,,,,,,,,,,,,,,,,,,,,,,,,,,,,393.17191728798207,393.17191728798207,393.17191728798207,393.17191728798207,393.17191728798207,393.17191728798207,393.17191728798207,393.17191728798207,393.17191728798207,393.17191728798207,l,0.6247175101889297,1,501,1,393.8229055359261,395.32442559092306,,,,,,,,,,,,,,,,,,,,,,,,,,,,,,,,,,,,,,,,,,,,,,,,,,,,,,,,,,,,,,,,,,,,,,29032,2022-11-02_10h24.58.904,vts_reward_expectancy_bt_OFFLINE,2022.2.4,59.96677914269869,
0,0,0,1,0,1,0,0,star ,circle,2,0,2,0,0,0,0,10,,,,,,,,,,,,,,,,,,,,,,,,,,,,,,,,,,,,,,,,413.56121390790213,413.56121390790213,413.56121390790213,413.56121390790213,413.56121390790213,413.56121390790213,413.56121390790213,413.56121390790213,413.56121390790213,413.56121390790213,l,3.6512825491372496,10,511,2,417.2316982059274,418.7334736099001,,,,,,,,,,,,,,,,,,,,,,,,,,,,,,,,,,,,,,,,,,,,,,,,,,,,,,,,,,,,,,,,,,,,,,29032,2022-11-02_10h24.58.904,vts_reward_expectancy_bt_OFFLINE,2022.2.4,59.96677914269869,
1,0,0,0,0,0,1,0,triangle,hexagon,2,0,2,0,0,1,1,1,,,,,,,,,,,,,,,,,,,,,,,,,,,,,,,,,,,,,,,,419.23424365988467,419.23424365988467,419.23424365988467,419.23424365988467,419.23424365988467,419.23424365988467,419.23424365988467,419.23424365988467,419.23424365988467,419.23424365988467,a,1.2583543130895123,10,521,2,420.5188383409986,422.02068627788685,,,,,,,,,,,,,,,,,,,,,,,,,,,,,,,,,,,,,,,,,,,,,,,,,,,,,,,,,,,,,,,,,,,,,,29032,2022-11-02_10h24.58.904,vts_reward_expectancy_bt_OFFLINE,2022.2.4,59.96677914269869,
0,1,0,0,1,0,0,0,circle,triangle,2,0,2,0,0,2,2,3,,,,,,,,,,,,,,,,,,,,,,,,,,,,,,,,,,,,,,,,422.5211441349238,422.5211441349238,422.5211441349238,422.5211441349238,422.5211441349238,422.5211441349238,422.5211441349238,422.5211441349238,422.5211441349238,422.5211441349238,l,1.2840792670613155,1,522,2,423.82246126793325,425.3243768638931,,,,,,,,,,,,,,,,,,,,,,,,,,,,,,,,,,,,,,,,,,,,,,,,,,,,,,,,,,,,,,,,,,,,,,29032,2022-11-02_10h24.58.904,vts_reward_expectancy_bt_OFFLINE,2022.2.4,59.96677914269869,
0,1,0,0,0,0,1,0,circle,hexagon,2,0,2,0,0,3,3,4,,,,,,,,,,,,,,,,,,,,,,,,,,,,,,,,,,,,,,,,425.8248822588939,425.8248822588939,425.8248822588939,425.8248822588939,425.8248822588939,425.8248822588939,425.8248822588939,425.8248822588939,425.8248822588939,425.8248822588939,a,0.6349505920661613,1,523,2,426.4920250789728,427.9937617488904,,,,,,,,,,,,,,,,,,,,,,,,,,,,,,,,,,,,,,,,,,,,,,,,,,,,,,,,,,,,,,,,,,,,,,29032,2022-11-02_10h24.58.904,vts_reward_expectancy_bt_OFFLINE,2022.2.4,59.96677914269869,
0,0,1,0,0,1,0,0,hexagon,circle,2,0,2,0,0,4,4,7,,,,,,,,,,,,,,,,,,,,,,,,,,,,,,,,,,,,,,,,428.49422988295555,428.49422988295555,428.49422988295555,428.49422988295555,428.49422988295555,428.49422988295555,428.49422988295555,428.49422988295555,428.49422988295555,428.49422988295555,a,2.773406669148244,10,533,2,431.29717884294223,432.79903767595533,,,,,,,,,,,,,,,,,,,,,,,,,,,,,,,,,,,,,,,,,,,,,,,,,,,,,,,,,,,,,,,,,,,,,,29032,2022-11-02_10h24.58.904,vts_reward_expectancy_bt_OFFLINE,2022.2.4,59.96677914269869,
1,0,0,0,0,0,0,1,triangle,star,2,0,2,0,0,5,5,2,,,,,,,,,,,,,,,,,,,,,,,,,,,,,,,,,,,,,,,,433.2994496799074,433.2994496799074,433.2994496799074,433.2994496799074,433.2994496799074,433.2994496799074,433.2994496799074,433.2994496799074,433.2994496799074,433.2994496799074,a,0.7366704901214689,10,543,2,434.06708730291575,435.5686905939365,,,,,,,,,,,,,,,,,,,,,,,,,,,,,,,,,,,,,,,,,,,,,,,,,,,,,,,,,,,,,,,,,,,,,,29032,2022-11-02_10h24.58.904,vts_reward_expectancy_bt_OFFLINE,2022.2.4,59.96677914269869,
0,0,1,0,0,0,0,1,hexagon,star,2,0,2,0,0,6,6,8,,,,,,,,,,,,,,,,,,,,,,,,,,,,,,,,,,,,,,,,436.06925628497265,436.06925628497265,436.06925628497265,436.06925628497265,436.06925628497265,436.06925628497265,436.06925628497265,436.06925628497265,436.06925628497265,436.06925628497265,l,1.1100042801117525,1,544,2,437.2040549799567,438.70560322899837,,,,,,,,,,,,,,,,,,,,,,,,,,,,,,,,,,,,,,,,,,,,,,,,,,,,,,,,,,,,,,,,,,,,,,29032,2022-11-02_10h24.58.904,vts_reward_expectancy_bt_OFFLINE,2022.2.4,59.96677914269869,
0,0,1,0,1,0,0,0,hexagon,triangle,2,0,2,0,0,7,7,6,,,,,,,,,,,,,,,,,,,,,,,,,,,,,,,,,,,,,,,,439.20607718999963,439.20607718999963,439.20607718999963,439.20607718999963,439.20607718999963,439.20607718999963,439.20607718999963,439.20607718999963,439.20607718999963,439.20607718999963,l,0.8935810290277004,10,554,2,440.1237983999308,441.6255336299073,,,,,,,,,,,,,,,,,,,,,,,,,,,,,,,,,,,,,,,,,,,,,,,,,,,,,,,,,,,,,,,,,,,,,,29032,2022-11-02_10h24.58.904,vts_reward_expectancy_bt_OFFLINE,2022.2.4,59.96677914269869,
0,0,0,1,0,0,1,0,star,hexagon,2,0,2,0,0,8,8,11,,,,,,,,,,,,,,,,,,,,,,,,,,,,,,,,,,,,,,,,442.1261702339398,442.1261702339398,442.1261702339398,442.1261702339398,442.1261702339398,442.1261702339398,442.1261702339398,442.1261702339398,442.1261702339398,442.1261702339398,l,1.1183178430655971,10,564,2,443.2772063759621,444.77909522491973,,,,,,,,,,,,,,,,,,,,,,,,,,,,,,,,,,,,,,,,,,,,,,,,,,,,,,,,,,,,,,,,,,,,,,29032,2022-11-02_10h24.58.904,vts_reward_expectancy_bt_OFFLINE,2022.2.4,59.96677914269869,
1,0,0,0,0,1,0,0,triangle,circle,2,0,2,0,0,9,9,0,,,,,,,,,,,,,,,,,,,,,,,,,,,,,,,,,,,,,,,,445.2795000629267,445.2795000629267,445.2795000629267,445.2795000629267,445.2795000629267,445.2795000629267,445.2795000629267,445.2795000629267,445.2795000629267,445.2795000629267,a,2.469467934104614,10,574,2,447.7656431628857,449.26719700789545,449.26719700789545,,,,,,,,,,,,,,,,,,,,,,,,,,,,,,,,,,,,,,,,,,,,,,,,,,,,,,,,,,,,,,,,,,,,,29032,2022-11-02_10h24.58.904,vts_reward_expectancy_bt_OFFLINE,2022.2.4,59.96677914269869,
0,0,0,1,1,0,0,0,star,triangle,2,0,2,0,0,10,10,9,,,,,,,,,,,,,,,,,,,,,,,,,,,,,,,,,,,,,,,,449.7676534659695,449.7676534659695,449.7676534659695,449.7676534659695,449.7676534659695,449.7676534659695,449.7676534659695,449.7676534659695,449.7676534659695,449.7676534659695,l,1.3252432971494272,10,584,2,451.1192509289831,452.6209367599804,,,,,,,,,,,,,,,,,,,,,,,,,,,,,,,,,,,,,,,,,,,,,,,,,,,,,,,,,,,,,,,,,,,,,,29032,2022-11-02_10h24.58.904,vts_reward_expectancy_bt_OFFLINE,2022.2.4,59.96677914269869,
0,1,0,0,0,0,0,1,circle,star,2,0,2,0,0,11,11,5,,,,,,,,,,,,,,,,,,,,,,,,,,,,,,,,,,,,,,,,453.1215291758999,453.1215291758999,453.1215291758999,453.1215291758999,453.1215291758999,453.1215291758999,453.1215291758999,453.1215291758999,453.1215291758999,453.1215291758999,a,1.468357473029755,1,585,2,454.60699125297833,456.10791918996256,456.10791918996256,,,,,,,,,,,,,,,,,,,,,,,,,,,,,,,,,,,,,,,,,,,,,,,,,,,,,,,,,,,,,,,,,,,,,29032,2022-11-02_10h24.58.904,vts_reward_expectancy_bt_OFFLINE,2022.2.4,59.96677914269869,
1,0,0,0,0,1,0,0,triangle,circle,2,0,2,0,1,0,12,0,,,,,,,,,,,,,,,,,,,,,,,,,,,,,,,,,,,,,,,,456.608570489916,456.608570489916,456.608570489916,456.608570489916,456.608570489916,456.608570489916,456.608570489916,456.608570489916,456.608570489916,456.608570489916,a,1.4759797072038054,10,595,2,458.11020992998965,459.6120634159306,,,,,,,,,,,,,,,,,,,,,,,,,,,,,,,,,,,,,,,,,,,,,,,,,,,,,,,,,,,,,,,,,,,,,,29032,2022-11-02_10h24.58.904,vts_reward_expectancy_bt_OFFLINE,2022.2.4,59.96677914269869,
0,1,0,0,0,0,0,1,circle,star,2,0,2,0,1,1,13,5,,,,,,,,,,,,,,,,,,,,,,,,,,,,,,,,,,,,,,,,460.1124774259515,460.1124774259515,460.1124774259515,460.1124774259515,460.1124774259515,460.1124774259515,460.1124774259515,460.1124774259515,460.1124774259515,460.1124774259515,a,1.4272275511175394,10,605,2,461.56433340895455,463.0659184139222,,,,,,,,,,,,,,,,,,,,,,,,,,,,,,,,,,,,,,,,,,,,,,,,,,,,,,,,,,,,,,,,,,,,,,29032,2022-11-02_10h24.58.904,vts_reward_expectancy_bt_OFFLINE,2022.2.4,59.96677914269869,
0,0,1,0,0,1,0,0,hexagon,circle,2,0,2,0,1,2,14,7,,,,,,,,,,,,,,,,,,,,,,,,,,,,,,,,,,,,,,,,463.56628306990024,463.56628306990024,463.56628306990024,463.56628306990024,463.56628306990024,463.56628306990024,463.56628306990024,463.56628306990024,463.56628306990024,463.56628306990024,a,3.421657125116326,1,606,2,467.02041646593716,468.52182385895867,,,,,,,,,,,,,,,,,,,,,,,,,,,,,,,,,,,,,,,,,,,,,,,,,,,,,,,,,,,,,,,,,,,,,,29032,2022-11-02_10h24.58.904,vts_reward_expectancy_bt_OFFLINE,2022.2.4,59.96677914269869,
1,0,0,0,0,0,0,1,triangle,star,2,0,2,0,1,3,15,2,,,,,,,,,,,,,,,,,,,,,,,,,,,,,,,,,,,,,,,,469.02225750591606,469.02225750591606,469.02225750591606,469.02225750591606,469.02225750591606,469.02225750591606,469.02225750591606,469.02225750591606,469.02225750591606,469.02225750591606,a,0.7902418650919572,10,616,2,469.8399960839888,471.34171820397023,,,,,,,,,,,,,,,,,,,,,,,,,,,,,,,,,,,,,,,,,,,,,,,,,,,,,,,,,,,,,,,,,,,,,,29032,2022-11-02_10h24.58.904,vts_reward_expectancy_bt_OFFLINE,2022.2.4,59.96677914269869,
1,0,0,0,0,0,1,0,triangle,hexagon,2,0,2,0,1,4,16,1,,,,,,,,,,,,,,,,,,,,,,,,,,,,,,,,,,,,,,,,471.8421028679004,471.8421028679004,471.8421028679004,471.8421028679004,471.8421028679004,471.8421028679004,471.8421028679004,471.8421028679004,471.8421028679004,471.8421028679004,a,1.619284172076732,10,626,2,473.49404902989045,474.99571692897007,,,,,,,,,,,,,,,,,,,,,,,,,,,,,,,,,,,,,,,,,,,,,,,,,,,,,,,,,,,,,,,,,,,,,,29032,2022-11-02_10h24.58.904,vts_reward_expectancy_bt_OFFLINE,2022.2.4,59.96677914269869,
0,0,1,0,0,0,0,1,hexagon,star,2,0,2,0,1,5,17,8,,,,,,,,,,,,,,,,,,,,,,,,,,,,,,,,,,,,,,,,475.4961008289829,475.4961008289829,475.4961008289829,475.4961008289829,475.4961008289829,475.4961008289829,475.4961008289829,475.4961008289829,475.4961008289829,475.4961008289829,l,1.8197551370831206,1,627,2,477.3479712329572,478.8499766649911,,,,,,,,,,,,,,,,,,,,,,,,,,,,,,,,,,,,,,,,,,,,,,,,,,,,,,,,,,,,,,,,,,,,,,29032,2022-11-02_10h24.58.904,vts_reward_expectancy_bt_OFFLINE,2022.2.4,59.96677914269869,
0,0,0,1,1,0,0,0,star,triangle,2,0,2,0,1,6,18,9,,,,,,,,,,,,,,,,,,,,,,,,,,,,,,,,,,,,,,,,479.3503493729513,479.3503493729513,479.3503493729513,479.3503493729513,479.3503493729513,479.3503493729513,479.3503493729513,479.3503493729513,479.3503493729513,479.3503493729513,l,1.2617162161041051,10,637,2,480.6354116809089,482.136844110908,,,,,,,,,,,,,,,,,,,,,,,,,,,,,,,,,,,,,,,,,,,,,,,,,,,,,,,,,,,,,,,,,,,,,,29032,2022-11-02_10h24.58.904,vts_reward_expectancy_bt_OFFLINE,2022.2.4,59.96677914269869,
0,0,0,1,0,1,0,0,star ,circle,2,0,2,0,1,7,19,10,,,,,,,,,,,,,,,,,,,,,,,,,,,,,,,,,,,,,,,,482.63746844790876,482.63746844790876,482.63746844790876,482.63746844790876,482.63746844790876,482.63746844790876,482.63746844790876,482.63746844790876,482.63746844790876,482.63746844790876,l,0.901979718124494,10,647,2,483.5716724799713,485.07320445298683,,,,,,,,,,,,,,,,,,,,,,,,,,,,,,,,,,,,,,,,,,,,,,,,,,,,,,,,,,,,,,,,,,,,,,29032,2022-11-02_10h24.58.904,vts_reward_expectancy_bt_OFFLINE,2022.2.4,59.96677914269869,
0,1,0,0,0,0,1,0,circle,hexagon,2,0,2,0,1,8,20,4,,,,,,,,,,,,,,,,,,,,,,,,,,,,,,,,,,,,,,,,485.5739313289523,485.5739313289523,485.5739313289523,485.5739313289523,485.5739313289523,485.5739313289523,485.5739313289523,485.5739313289523,485.5739313289523,485.5739313289523,l,0.6457079311367124,10,657,2,486.24111937498674,487.7431162109133,,,,,,,,,,,,,,,,,,,,,,,,,,,,,,,,,,,,,,,,,,,,,,,,,,,,,,,,,,,,,,,,,,,,,,29032,2022-11-02_10h24.58.904,vts_reward_expectancy_bt_OFFLINE,2022.2.4,59.96677914269869,
0,0,0,1,0,0,1,0,star,hexagon,2,0,2,0,1,9,21,11,,,,,,,,,,,,,,,,,,,,,,,,,,,,,,,,,,,,,,,,488.2435707609402,488.2435707609402,488.2435707609402,488.2435707609402,488.2435707609402,488.2435707609402,488.2435707609402,488.2435707609402,488.2435707609402,488.2435707609402,l,0.8805206370307133,1,658,2,489.1442890659673,490.64623712096363,,,,,,,,,,,,,,,,,,,,,,,,,,,,,,,,,,,,,,,,,,,,,,,,,,,,,,,,,,,,,,,,,,,,,,29032,2022-11-02_10h24.58.904,vts_reward_expectancy_bt_OFFLINE,2022.2.4,59.96677914269869,
0,0,1,0,1,0,0,0,hexagon,triangle,2,0,2,0,1,10,22,6,,,,,,,,,,,,,,,,,,,,,,,,,,,,,,,,,,,,,,,,491.1465947529068,491.1465947529068,491.1465947529068,491.1465947529068,491.1465947529068,491.1465947529068,491.1465947529068,491.1465947529068,491.1465947529068,491.1465947529068,l,2.6106211801525205,10,668,2,493.7830274379812,495.28463579597883,,,,,,,,,,,,,,,,,,,,,,,,,,,,,,,,,,,,,,,,,,,,,,,,,,,,,,,,,,,,,,,,,,,,,,29032,2022-11-02_10h24.58.904,vts_reward_expectancy_bt_OFFLINE,2022.2.4,59.96677914269869,
0,1,0,0,1,0,0,0,circle,triangle,2,0,2,0,1,11,23,3,,,,,,,,,,,,,,,,,,,,,,,,,,,,,,,,,,,,,,,,495.78503393090796,495.78503393090796,495.78503393090796,495.78503393090796,495.78503393090796,495.78503393090796,495.78503393090796,495.78503393090796,495.78503393090796,495.78503393090796,a,1.859821131103672,1,669,2,497.6705203439342,499.1721936799586,,,,,,,,,,,,,,,,,,,,,,,,,,,,,,,,,,,,,,,,,,,,,,,,,,,,,,,,,,,,,,,,,,,,,,29032,2022-11-02_10h24.58.904,vts_reward_expectancy_bt_OFFLINE,2022.2.4,59.96677914269869,
0,0,0,1,1,0,0,0,star,triangle,2,0,2,0,2,0,24,9,,,,,,,,,,,,,,,,,,,,,,,,,,,,,,,,,,,,,,,,499.6729181458941,499.6729181458941,499.6729181458941,499.6729181458941,499.6729181458941,499.6729181458941,499.6729181458941,499.6729181458941,499.6729181458941,499.6729181458941,l,0.7081410030368716,10,679,2,500.4068149909144,501.90852168388665,,,,,,,,,,,,,,,,,,,,,,,,,,,,,,,,,,,,,,,,,,,,,,,,,,,,,,,,,,,,,,,,,,,,,,29032,2022-11-02_10h24.58.904,vts_reward_expectancy_bt_OFFLINE,2022.2.4,59.96677914269869,
0,0,1,0,0,1,0,0,hexagon,circle,2,0,2,0,2,1,25,7,,,,,,,,,,,,,,,,,,,,,,,,,,,,,,,,,,,,,,,,502.4091045348905,502.4091045348905,502.4091045348905,502.4091045348905,502.4091045348905,502.4091045348905,502.4091045348905,502.4091045348905,502.4091045348905,502.4091045348905,a,0.8519435981288552,10,689,2,503.2935428129276,504.794972413918,,,,,,,,,,,,,,,,,,,,,,,,,,,,,,,,,,,,,,,,,,,,,,,,,,,,,,,,,,,,,,,,,,,,,,29032,2022-11-02_10h24.58.904,vts_reward_expectancy_bt_OFFLINE,2022.2.4,59.96677914269869,
1,0,0,0,0,1,0,0,triangle,circle,2,0,2,0,2,2,26,0,,,,,,,,,,,,,,,,,,,,,,,,,,,,,,,,,,,,,,,,505.2957478049211,505.2957478049211,505.2957478049211,505.2957478049211,505.2957478049211,505.2957478049211,505.2957478049211,505.2957478049211,505.2957478049211,505.2957478049211,a,0.8114352180855349,10,699,2,506.1299035429256,507.63160307891667,,,,,,,,,,,,,,,,,,,,,,,,,,,,,,,,,,,,,,,,,,,,,,,,,,,,,,,,,,,,,,,,,,,,,,29032,2022-11-02_10h24.58.904,vts_reward_expectancy_bt_OFFLINE,2022.2.4,59.96677914269869,
0,0,1,0,0,0,0,1,hexagon,star,2,0,2,0,2,3,27,8,,,,,,,,,,,,,,,,,,,,,,,,,,,,,,,,,,,,,,,,508.1320831628982,508.1320831628982,508.1320831628982,508.1320831628982,508.1320831628982,508.1320831628982,508.1320831628982,508.1320831628982,508.1320831628982,508.1320831628982,a,1.7122119691921398,10,709,2,509.86713034892455,511.3688173099654,,,,,,,,,,,,,,,,,,,,,,,,,,,,,,,,,,,,,,,,,,,,,,,,,,,,,,,,,,,,,,,,,,,,,,29032,2022-11-02_10h24.58.904,vts_reward_expectancy_bt_OFFLINE,2022.2.4,59.96677914269869,
1,0,0,0,0,0,0,1,triangle,star,2,0,2,0,2,4,28,2,,,,,,,,,,,,,,,,,,,,,,,,,,,,,,,,,,,,,,,,511.86939513497055,511.86939513497055,511.86939513497055,511.86939513497055,511.86939513497055,511.86939513497055,511.86939513497055,511.86939513497055,511.86939513497055,511.86939513497055,a,0.7186779850162566,10,719,2,512.620565004996,514.1221850449219,,,,,,,,,,,,,,,,,,,,,,,,,,,,,,,,,,,,,,,,,,,,,,,,,,,,,,,,,,,,,,,,,,,,,,29032,2022-11-02_10h24.58.904,vts_reward_expectancy_bt_OFFLINE,2022.2.4,59.96677914269869,
0,0,0,1,0,1,0,0,star ,circle,2,0,2,0,2,5,29,10,,,,,,,,,,,,,,,,,,,,,,,,,,,,,,,,,,,,,,,,514.6226289429469,514.6226289429469,514.6226289429469,514.6226289429469,514.6226289429469,514.6226289429469,514.6226289429469,514.6226289429469,514.6226289429469,514.6226289429469,l,2.9644324460532516,1,720,2,517.6093872649362,519.1111056408845,,,,,,,,,,,,,,,,,,,,,,,,,,,,,,,,,,,,,,,,,,,,,,,,,,,,,,,,,,,,,,,,,,,,,,29032,2022-11-02_10h24.58.904,vts_reward_expectancy_bt_OFFLINE,2022.2.4,59.96677914269869,
0,1,0,0,1,0,0,0,circle,triangle,2,0,2,0,2,6,30,3,,,,,,,,,,,,,,,,,,,,,,,,,,,,,,,,,,,,,,,,519.6115936139831,519.6115936139831,519.6115936139831,519.6115936139831,519.6115936139831,519.6115936139831,519.6115936139831,519.6115936139831,519.6115936139831,519.6115936139831,l,0.768673297134228,1,721,2,520.4123909529299,521.9139992899727,521.9139992899727,,,,,,,,,,,,,,,,,,,,,,,,,,,,,,,,,,,,,,,,,,,,,,,,,,,,,,,,,,,,,,,,,,,,,29032,2022-11-02_10h24.58.904,vts_reward_expectancy_bt_OFFLINE,2022.2.4,59.96677914269869,
1,0,0,0,0,0,1,0,triangle,hexagon,2,0,2,0,2,7,31,1,,,,,,,,,,,,,,,,,,,,,,,,,,,,,,,,,,,,,,,,522.4146526108962,522.4146526108962,522.4146526108962,522.4146526108962,522.4146526108962,522.4146526108962,522.4146526108962,522.4146526108962,522.4146526108962,522.4146526108962,a,0.5741643670480698,10,731,2,523.0152978849364,524.5168061729055,,,,,,,,,,,,,,,,,,,,,,,,,,,,,,,,,,,,,,,,,,,,,,,,,,,,,,,,,,,,,,,,,,,,,,29032,2022-11-02_10h24.58.904,vts_reward_expectancy_bt_OFFLINE,2022.2.4,59.96677914269869,
0,0,0,1,0,0,1,0,star,hexagon,2,0,2,0,2,8,32,11,,,,,,,,,,,,,,,,,,,,,,,,,,,,,,,,,,,,,,,,525.0175049749669,525.0175049749669,525.0175049749669,525.0175049749669,525.0175049749669,525.0175049749669,525.0175049749669,525.0175049749669,525.0175049749669,525.0175049749669,l,1.178208563127555,1,732,2,526.2188904689392,527.7205422209809,,,,,,,,,,,,,,,,,,,,,,,,,,,,,,,,,,,,,,,,,,,,,,,,,,,,,,,,,,,,,,,,,,,,,,29032,2022-11-02_10h24.58.904,vts_reward_expectancy_bt_OFFLINE,2022.2.4,59.96677914269869,
0,1,0,0,0,0,0,1,circle,star,2,0,2,0,2,9,33,5,,,,,,,,,,,,,,,,,,,,,,,,,,,,,,,,,,,,,,,,528.221004602965,528.221004602965,528.221004602965,528.221004602965,528.221004602965,528.221004602965,528.221004602965,528.221004602965,528.221004602965,528.221004602965,l,4.1288136361399665,10,742,2,532.3754111879971,533.8770994889783,,,,,,,,,,,,,,,,,,,,,,,,,,,,,,,,,,,,,,,,,,,,,,,,,,,,,,,,,,,,,,,,,,,,,,29032,2022-11-02_10h24.58.904,vts_reward_expectancy_bt_OFFLINE,2022.2.4,59.96677914269869,
0,0,1,0,1,0,0,0,hexagon,triangle,2,0,2,0,2,10,34,6,,,,,,,,,,,,,,,,,,,,,,,,,,,,,,,,,,,,,,,,534.3776764489012,534.3776764489012,534.3776764489012,534.3776764489012,534.3776764489012,534.3776764489012,534.3776764489012,534.3776764489012,534.3776764489012,534.3776764489012,l,0.499159345170483,1,743,2,534.8947834749706,536.3965255479561,,,,,,,,,,,,,,,,,,,,,,,,,,,,,,,,,,,,,,,,,,,,,,,,,,,,,,,,,,,,,,,,,,,,,,29032,2022-11-02_10h24.58.904,vts_reward_expectancy_bt_OFFLINE,2022.2.4,59.96677914269869,
0,1,0,0,0,0,1,0,circle,hexagon,2,0,2,0,2,11,35,4,,,,,,,,,,,,,,,,,,,,,,,,,,,,,,,,,,,,,,,,536.8969364559744,536.8969364559744,536.8969364559744,536.8969364559744,536.8969364559744,536.8969364559744,536.8969364559744,536.8969364559744,536.8969364559744,536.8969364559744,l,1.8843746171332896,1,744,2,538.7994650129694,540.3010037349304,,,,,,,,,,,,,,,,,,,,,,,,,,,,,,,,,,,,,,,,,,,,,,,,,,,,,,,,,,,,,,,,,,,,,,29032,2022-11-02_10h24.58.904,vts_reward_expectancy_bt_OFFLINE,2022.2.4,59.96677914269869,
0,0,1,0,1,0,0,0,hexagon,triangle,2,0,2,0,3,0,36,6,,,,,,,,,,,,,,,,,,,,,,,,,,,,,,,,,,,,,,,,540.8014502479928,540.8014502479928,540.8014502479928,540.8014502479928,540.8014502479928,540.8014502479928,540.8014502479928,540.8014502479928,540.8014502479928,540.8014502479928,l,0.7856537811458111,1,745,2,541.619043408893,543.1206802999368,,,,,,,,,,,,,,,,,,,,,,,,,,,,,,,,,,,,,,,,,,,,,,,,,,,,,,,,,,,,,,,,,,,,,,29032,2022-11-02_10h24.58.904,vts_reward_expectancy_bt_OFFLINE,2022.2.4,59.96677914269869,
0,1,0,0,1,0,0,0,circle,triangle,2,0,2,0,3,1,37,3,,,,,,,,,,,,,,,,,,,,,,,,,,,,,,,,,,,,,,,,543.6212543339934,543.6212543339934,543.6212543339934,543.6212543339934,543.6212543339934,543.6212543339934,543.6212543339934,543.6212543339934,543.6212543339934,543.6212543339934,l,1.1684479180257767,10,755,2,544.8227975039044,546.3242127508856,,,,,,,,,,,,,,,,,,,,,,,,,,,,,,,,,,,,,,,,,,,,,,,,,,,,,,,,,,,,,,,,,,,,,,29032,2022-11-02_10h24.58.904,vts_reward_expectancy_bt_OFFLINE,2022.2.4,59.96677914269869,
1,0,0,0,0,0,0,1,triangle,star,2,0,2,0,3,2,38,2,,,,,,,,,,,,,,,,,,,,,,,,,,,,,,,,,,,,,,,,546.8249079209054,546.8249079209054,546.8249079209054,546.8249079209054,546.8249079209054,546.8249079209054,546.8249079209054,546.8249079209054,546.8249079209054,546.8249079209054,a,1.6919707701308653,1,756,2,548.5436084358953,550.0451216849033,,,,,,,,,,,,,,,,,,,,,,,,,,,,,,,,,,,,,,,,,,,,,,,,,,,,,,,,,,,,,,,,,,,,,,29032,2022-11-02_10h24.58.904,vts_reward_expectancy_bt_OFFLINE,2022.2.4,59.96677914269869,
0,1,0,0,0,0,0,1,circle,star,2,0,2,0,3,3,39,5,,,,,,,,,,,,,,,,,,,,,,,,,,,,,,,,,,,,,,,,550.5454230309697,550.5454230309697,550.5454230309697,550.5454230309697,550.5454230309697,550.5454230309697,550.5454230309697,550.5454230309697,550.5454230309697,550.5454230309697,a,0.898665372049436,1,757,2,551.4633357709972,552.9648954909062,,,,,,,,,,,,,,,,,,,,,,,,,,,,,,,,,,,,,,,,,,,,,,,,,,,,,,,,,,,,,,,,,,,,,,29032,2022-11-02_10h24.58.904,vts_reward_expectancy_bt_OFFLINE,2022.2.4,59.96677914269869,
0,0,1,0,0,1,0,0,hexagon,circle,2,0,2,0,3,4,40,7,,,,,,,,,,,,,,,,,,,,,,,,,,,,,,,,,,,,,,,,553.4654241629178,553.4654241629178,553.4654241629178,553.4654241629178,553.4654241629178,553.4654241629178,553.4654241629178,553.4654241629178,553.4654241629178,553.4654241629178,a,4.250347754103132,10,767,2,557.7369042589562,559.2387174979085,,,,,,,,,,,,,,,,,,,,,,,,,,,,,,,,,,,,,,,,,,,,,,,,,,,,,,,,,,,,,,,,,,,,,,29032,2022-11-02_10h24.58.904,vts_reward_expectancy_bt_OFFLINE,2022.2.4,59.96677914269869,
1,0,0,0,0,0,1,0,triangle,hexagon,2,0,2,0,3,5,41,1,,,,,,,,,,,,,,,,,,,,,,,,,,,,,,,,,,,,,,,,559.7390709599713,559.7390709599713,559.7390709599713,559.7390709599713,559.7390709599713,559.7390709599713,559.7390709599713,559.7390709599713,559.7390709599713,559.7390709599713,l,1.3525913550984114,10,777,2,561.1241075989092,562.6258228599327,,,,,,,,,,,,,,,,,,,,,,,,,,,,,,,,,,,,,,,,,,,,,,,,,,,,,,,,,,,,,,,,,,,,,,29032,2022-11-02_10h24.58.904,vts_reward_expectancy_bt_OFFLINE,2022.2.4,59.96677914269869,
0,0,0,1,0,0,1,0,star,hexagon,2,0,2,0,3,6,42,11,,,,,,,,,,,,,,,,,,,,,,,,,,,,,,,,,,,,,,,,563.1263764729956,563.1263764729956,563.1263764729956,563.1263764729956,563.1263764729956,563.1263764729956,563.1263764729956,563.1263764729956,563.1263764729956,563.1263764729956,l,1.1424222801579162,1,778,2,564.2941369529581,565.7957179689547,,,,,,,,,,,,,,,,,,,,,,,,,,,,,,,,,,,,,,,,,,,,,,,,,,,,,,,,,,,,,,,,,,,,,,29032,2022-11-02_10h24.58.904,vts_reward_expectancy_bt_OFFLINE,2022.2.4,59.96677914269869,
1,0,0,0,0,1,0,0,triangle,circle,2,0,2,0,3,7,43,0,,,,,,,,,,,,,,,,,,,,,,,,,,,,,,,,,,,,,,,,566.2961870339932,566.2961870339932,566.2961870339932,566.2961870339932,566.2961870339932,566.2961870339932,566.2961870339932,566.2961870339932,566.2961870339932,566.2961870339932,a,0.5871791701065376,1,779,2,566.9134769389639,568.4153788589174,,,,,,,,,,,,,,,,,,,,,,,,,,,,,,,,,,,,,,,,,,,,,,,,,,,,,,,,,,,,,,,,,,,,,,29032,2022-11-02_10h24.58.904,vts_reward_expectancy_bt_OFFLINE,2022.2.4,59.96677914269869,
0,0,0,1,0,1,0,0,star ,circle,2,0,2,0,3,8,44,10,,,,,,,,,,,,,,,,,,,,,,,,,,,,,,,,,,,,,,,,568.9157585329376,568.9157585329376,568.9157585329376,568.9157585329376,568.9157585329376,568.9157585329376,568.9157585329376,568.9157585329376,568.9157585329376,568.9157585329376,l,4.32162728800904,1,780,2,573.2539961609291,574.7554894309724,574.7554894309724,,,,,,,,,,,,,,,,,,,,,,,,,,,,,,,,,,,,,,,,,,,,,,,,,,,,,,,,,,,,,,,,,,,,,29032,2022-11-02_10h24.58.904,vts_reward_expectancy_bt_OFFLINE,2022.2.4,59.96677914269869,
0,0,0,1,1,0,0,0,star,triangle,2,0,2,0,3,9,45,9,,,,,,,,,,,,,,,,,,,,,,,,,,,,,,,,,,,,,,,,575.2561034079408,575.2561034079408,575.2561034079408,575.2561034079408,575.2561034079408,575.2561034079408,575.2561034079408,575.2561034079408,575.2561034079408,575.2561034079408,l,0.6433934271335602,10,790,2,575.9239557399414,577.4251956628868,,,,,,,,,,,,,,,,,,,,,,,,,,,,,,,,,,,,,,,,,,,,,,,,,,,,,,,,,,,,,,,,,,,,,,29032,2022-11-02_10h24.58.904,vts_reward_expectancy_bt_OFFLINE,2022.2.4,59.96677914269869,
0,1,0,0,0,0,1,0,circle,hexagon,2,0,2,0,3,10,46,4,,,,,,,,,,,,,,,,,,,,,,,,,,,,,,,,,,,,,,,,577.9258764859987,577.9258764859987,577.9258764859987,577.9258764859987,577.9258764859987,577.9258764859987,577.9258764859987,577.9258764859987,577.9258764859987,577.9258764859987,a,0.6133197321323678,10,800,2,578.5597298449138,580.0613640879747,,,,,,,,,,,,,,,,,,,,,,,,,,,,,,,,,,,,,,,,,,,,,,,,,,,,,,,,,,,,,,,,,,,,,,29032,2022-11-02_10h24.58.904,vts_reward_expectancy_bt_OFFLINE,2022.2.4,59.96677914269869,
0,0,1,0,0,0,0,1,hexagon,star,2,0,2,0,3,11,47,8,,,,,,,,,,,,,,,,,,,,,,,,,,,,,,,,,,,,,,,,580.5619720929535,580.5619720929535,580.5619720929535,580.5619720929535,580.5619720929535,580.5619720929535,580.5619720929535,580.5619720929535,580.5619720929535,580.5619720929535,a,0.6580267751123756,1,801,2,581.2463404389564,582.7478162799962,,,,,,,,,,,,,,,,,,,,,,,,,,,,,,,,,,,,,,,,,,,,,,,,,,,,,,,,,,,,,,,,,,,,,,29032,2022-11-02_10h24.58.904,vts_reward_expectancy_bt_OFFLINE,2022.2.4,59.96677914269869,
,,,,,,,,,,,,,,,,,,0,0,0,0,0,0,0,0,,,,,,,,,,,,,,,,,,,,,,,,,,,,,,,,,,,,,,,,,,,,,,,,683.1586592548992,,S,139,triangle,0.0021804230054840446,678.1699071649928,679.6548982049571,679.6548982049571,679.6548982049571,1,0,f,1.9730464180465788,0,681.6738964288961,,,,,,,,,,,,,,,,,,,,,,,,,,,,,,,,,,,,,,,,,,,,,,,,,,,,,,,29032,2022-11-02_10h24.58.904,vts_reward_expectancy_bt_OFFLINE,2022.2.4,59.96677914269869,
,,,,,,,,,,,,,,,,,,0,0,0,0,1,0,1,0,,,,,,,,,,,,,,,,,,,,,,,,,,,,,,,,,,,,,,,,,,,,,,,,688.4144702889025,,F,181,hexagon,0.0009970050305128098,684.1429172039498,685.6445856379578,685.6445856379578,685.6445856379578,1,0,d,1.24714333913289,0,686.9128624659497,,,,,,,,,,,,,,,,,,,,,,,,,,,,,,,,,,,,,,,,,,,,,,,,,,,,,,,29032,2022-11-02_10h24.58.904,vts_reward_expectancy_bt_OFFLINE,2022.2.4,59.96677914269869,
,,,,,,,,,,,,,,,,,,0,0,0,0,2,0,2,0,,,,,,,,,,,,,,,,,,,,,,,,,,,,,,,,,,,,,,,,,,,,,,,,693.0526470429031,,D,146,star,0.0013370690867304802,689.4154634109,690.9004663228989,690.9004663228989,690.9004663228989,1,0,d,0.6316613401286304,0,691.5511300549842,,,,,,,,,,,,,,,,,,,,,,,,,,,,,,,,,,,,,,,,,,,,,,,,,,,,,,,29032,2022-11-02_10h24.58.904,vts_reward_expectancy_bt_OFFLINE,2022.2.4,59.96677914269869,
,,,,,,,,,,,,,,,,,,0,0,0,0,3,0,3,0,,,,,,,,,,,,,,,,,,,,,,,,,,,,,,,,,,,,,,,,,,,,,,,,697.7912037359783,,W,174,circle,0.001427645911462605,694.0379208349623,695.5388543929439,695.5388543929439,695.5388543929439,1,0,f,0.7282474971143529,0,696.2896651339252,,,,,,,,,,,,,,,,,,,,,,,,,,,,,,,,,,,,,,,,,,,,,,,,,,,,,,,29032,2022-11-02_10h24.58.904,vts_reward_expectancy_bt_OFFLINE,2022.2.4,59.96677914269869,
,,,,,,,,,,,,,,,,,,0,0,0,0,4,0,4,0,,,,,,,,,,,,,,,,,,,,,,,,,,,,,,,,,,,,,,,,,,,,,,,,702.5300090329256,,B,132,hexagon,0.0013681850396096706,698.7757516799029,700.2774418059271,700.2774418059271,700.2774418059271,1,0,d,0.7256531610619277,0,701.0282093998976,,,,,,,,,,,,,,,,,,,,,,,,,,,,,,,,,,,,,,,,,,,,,,,,,,,,,,,29032,2022-11-02_10h24.58.904,vts_reward_expectancy_bt_OFFLINE,2022.2.4,59.96677914269869,
,,,,,,,,,,,,,,,,,,0,0,0,0,5,0,5,0,,,,,,,,,,,,,,,,,,,,,,,,,,,,,,,,,,,,,,,,,,,,,,,,708.419764653896,,H,167,star,0.0015862060245126486,703.5145162759582,705.0161024489207,705.0161024489207,705.0161024489207,1,0,d,1.8752142791636288,0,706.9184099549893,,,,,,,,,,,,,,,,,,,,,,,,,,,,,,,,,,,,,,,,,,,,,,,,,,,,,,,29032,2022-11-02_10h24.58.904,vts_reward_expectancy_bt_OFFLINE,2022.2.4,59.96677914269869,
,,,,,,,,,,,,,,,,,,0,0,0,0,6,0,6,0,,,,,,,,,,,,,,,,,,,,,,,,,,,,,,,,,,,,,,,,,,,,,,,,714.4599614839535,,Y,160,triangle,0.0012496160343289375,709.4042225109879,710.9058460129891,710.9058460129891,710.9058460129891,1,0,f,2.0194499511271715,0,712.9580465839244,,,,,,,,,,,,,,,,,,,,,,,,,,,,,,,,,,,,,,,,,,,,,,,,,,,,,,,29032,2022-11-02_10h24.58.904,vts_reward_expectancy_bt_OFFLINE,2022.2.4,59.96677914269869,
,,,,,,,,,,,,,,,,,,0,0,0,0,7,0,7,0,,,,,,,,,,,,,,,,,,,,,,,,,,,,,,,,,,,,,,,,,,,,,,,,719.2819075389998,,U,125,circle,0.0015291159506887197,715.4441593989031,716.9460181079339,716.9460181079339,716.9460181079339,1,0,f,0.801778425113298,0,717.780278924969,,,,,,,,,,,,,,,,,,,,,,,,,,,,,,,,,,,,,,,,,,,,,,,,,,,,,,,29032,2022-11-02_10h24.58.904,vts_reward_expectancy_bt_OFFLINE,2022.2.4,59.96677914269869,
,,,,,,,,,,,,,,,,,,0,0,0,0,8,0,8,0,,,,,,,,,,,,,,,,,,,,,,,,,,,,,,,,,,,,,,,,,,,,,,,,724.637535369955,,S,139,triangle,0.0014576100511476398,720.2663435089635,721.7680370099843,721.7680370099843,721.7680370099843,1,0,f,1.3411209121113643,0,723.1360555998981,,,,,,,,,,,,,,,,,,,,,,,,,,,,,,,,,,,,,,,,,,,,,,,,,,,,,,,29032,2022-11-02_10h24.58.904,vts_reward_expectancy_bt_OFFLINE,2022.2.4,59.96677914269869,
,,,,,,,,,,,,,,,,,,0,0,0,0,9,0,9,0,,,,,,,,,,,,,,,,,,,,,,,,,,,,,,,,,,,,,,,,,,,,,,,,729.4095075828955,,F,181,hexagon,0.0011194879189133644,725.6221002188977,727.1237404189305,727.1237404189305,727.1237404189305,1,0,d,0.7600238381419331,0,727.9079958079383,,,,,,,,,,,,,,,,,,,,,,,,,,,,,,,,,,,,,,,,,,,,,,,,,,,,,,,29032,2022-11-02_10h24.58.904,vts_reward_expectancy_bt_OFFLINE,2022.2.4,59.96677914269869,
,,,,,,,,,,,,,,,,,,,,,,,,,,0,0,0,0,0,0,0,0,,,,,,,,,,,,,,,,,,,,,,,,,,,,,,,,,,,,,,,,757.1736588109052,,S,146,star,0.0017669589724391699,,,,,0,0,,,1,755.6887686459813,753.0521734378999,754.5540827979567,754.5540827979567,754.5540827979567,k,1.098009095992893,,,,,,,,,,,,,,,,,,,,,,,,,,,,,,,,,,,,,,,,,,,,,,,,,29032,2022-11-02_10h24.58.904,vts_reward_expectancy_bt_OFFLINE,2022.2.4,59.96677914269869,
,,,,,,,,,,,,,,,,,,,,,,,,,,0,0,0,0,1,0,1,0,,,,,,,,,,,,,,,,,,,,,,,,,,,,,,,,,,,,,,,,762.062385640922,,F,139,circle,0.0010867429664358497,,,,,1,1,,,1,760.561236372916,758.1579973299522,759.6595398139907,759.6595398139907,759.6595398139907,j,0.8736967920558527,,,,,,,,,,,,,,,,,,,,,,,,,,,,,,,,,,,,,,,,,,,,,,,,,29032,2022-11-02_10h24.58.904,vts_reward_expectancy_bt_OFFLINE,2022.2.4,59.96677914269869,
,,,,,,,,,,,,,,,,,,,,,,,,,,0,0,0,0,2,0,2,0,,,,,,,,,,,,,,,,,,,,,,,,,,,,,,,,,,,,,,,,766.7340700878995,,U,132,hexagon,0.001278865966014564,,,,,1,0,,,1,765.232459692983,763.0467178298859,764.5485235349042,764.5485235349042,764.5485235349042,j,0.6565336511703208,,,,,,,,,,,,,,,,,,,,,,,,,,,,,,,,,,,,,,,,,,,,,,,,,29032,2022-11-02_10h24.58.904,vts_reward_expectancy_bt_OFFLINE,2022.2.4,59.96677914269869,
,,,,,,,,,,,,,,,,,,,,,,,,,,0,0,0,0,3,0,3,0,,,,,,,,,,,,,,,,,,,,,,,,,,,,,,,,,,,,,,,,771.28921643598,,H,174,triangle,0.0013495120219886303,,,,,1,0,,,1,769.7875887239352,767.7183835639153,769.2200434439583,769.2200434439583,769.2200434439583,k,0.543485120171681,,,,,,,,,,,,,,,,,,,,,,,,,,,,,,,,,,,,,,,,,,,,,,,,,29032,2022-11-02_10h24.58.904,vts_reward_expectancy_bt_OFFLINE,2022.2.4,59.96677914269869,
,,,,,,,,,,,,,,,,,,,,,,,,,,0,0,0,0,4,0,4,0,,,,,,,,,,,,,,,,,,,,,,,,,,,,,,,,,,,,,,,,775.9443563109962,,Y,181,circle,0.0013254339573904872,,,,,1,0,,,1,774.4425632989733,772.2736156939063,773.7753718849272,773.7753718849272,773.7753718849272,k,0.6438631360651925,,,,,,,,,,,,,,,,,,,,,,,,,,,,,,,,,,,,,,,,,,,,,,,,,29032,2022-11-02_10h24.58.904,vts_reward_expectancy_bt_OFFLINE,2022.2.4,59.96677914269869,
,,,,,,,,,,,,,,,,,,,,,,,,,,0,0,0,0,5,0,5,0,,,,,,,,,,,,,,,,,,,,,,,,,,,,,,,,,,,,,,,,780.782819592976,,B,167,hexagon,0.0014471859904006124,,,,,1,0,,,1,779.2812091138912,776.9285403379472,778.4304139759624,778.4304139759624,778.4304139759624,k,0.8292483311379328,,,,,,,,,,,,,,,,,,,,,,,,,,,,,,,,,,,,,,,,,,,,,,,,,29032,2022-11-02_10h24.58.904,vts_reward_expectancy_bt_OFFLINE,2022.2.4,59.96677914269869,
,,,,,,,,,,,,,,,,,,,,,,,,,,0,0,0,0,6,0,6,0,,,,,,,,,,,,,,,,,,,,,,,,,,,,,,,,,,,,,,,,785.4548724779161,,W,125,triangle,0.001184626016765833,,,,,1,0,,,1,783.953122697887,781.7672996959882,783.26891986595,783.26891986595,783.26891986595,j,0.6553340061800554,,,,,,,,,,,,,,,,,,,,,,,,,,,,,,,,,,,,,,,,,,,,,,,,,29032,2022-11-02_10h24.58.904,vts_reward_expectancy_bt_OFFLINE,2022.2.4,59.96677914269869,
,,,,,,,,,,,,,,,,,,,,,,,,,,0,0,0,0,7,0,7,0,,,,,,,,,,,,,,,,,,,,,,,,,,,,,,,,,,,,,,,,790.8441012249095,,D,160,star,0.0012563209747895598,,,,,1,0,,,1,789.3424516209634,786.4393724330002,787.940948753967,787.940948753967,787.940948753967,k,1.3847427611472085,790.8441012249095,,,,,,,,,,,,,,,,,,,,,,,,,,,,,,,,,,,,,,,,,,,,,,,,29032,2022-11-02_10h24.58.904,vts_reward_expectancy_bt_OFFLINE,2022.2.4,59.96677914269869,
,,,,,,,,,,,,,,,,,,,,,,,,,,0,0,0,0,8,0,8,0,,,,,,,,,,,,,,,,,,,,,,,,,,,,,,,,,,,,,,,,795.8330102629261,,S,146,circle,0.0006333390483632684,,,,,1,0,,,1,794.3311411909526,791.8284232459264,793.3300229829038,793.3300229829038,793.3300229829038,j,0.9691114231245592,,,,,,,,,,,,,,,,,,,,,,,,,,,,,,,,,,,,,,,,,,,,,,,,,29032,2022-11-02_10h24.58.904,vts_reward_expectancy_bt_OFFLINE,2022.2.4,59.96677914269869,
,,,,,,,,,,,,,,,,,,,,,,,,,,0,0,0,0,9,0,9,0,,,,,,,,,,,,,,,,,,,,,,,,,,,,,,,,,,,,,,,,800.5880996380001,,F,139,triangle,0.0015075239352881908,,,,,1,0,,,1,799.0864555659937,796.8175803839695,798.3189610409318,798.3189610409318,798.3189610409318,j,0.7413792221341282,,,,,,,,,,,,,,,,,,,,,,,,,,,,,,,,,,,,,,,,,,,,,,,,,29032,2022-11-02_10h24.58.904,vts_reward_expectancy_bt_OFFLINE,2022.2.4,59.96677914269869,
,,,,,,,,,,,,,,,,,,,,,,,,,,,,,,,,,,0,0,0,0,0,0,0,0,,,,,,,,,,,,,,,,,,,,,,,,,,,,0,801,,,828.1517716409871,,D,132,triangle,0.0020988170290365815,,,,,-1,0,,,2,,,,,,,,,822.1453599749366,822.1453599749366,822.1453599749366,822.1453599749366,823.6300075209001,823.6300075209001,823.6300075209001,823.6300075209001,823.6470316299237,823.6470316299237,823.6470316299237,823.6470316299237,826.6500211909879,826.6500211909879,826.6500211909879,826.6500211909879,-1,no_choice,NA,None,vtsPrac,826.6500211909879,,,,,,,,,,,,,,,,,,,,,,,,,,29032,2022-11-02_10h24.58.904,vts_reward_expectancy_bt_OFFLINE,2022.2.4,59.96677914269869,
,,,,,,,,,,,,,,,,,,,,,,,,,,,,,,,,,,0,0,0,0,1,0,1,0,,,,,,,,,,,,,,,,,,,,,,,,,,,,0,801,,,833.3574278039159,,H,181,circle,0.00950147898402065,,,,,1,0,,,2,,,,,,,,,829.1366242479999,829.1366242479999,829.1366242479999,829.1366242479999,830.6378897849936,830.6378897849936,830.6378897849936,830.6378897849936,830.6378897849936,830.6378897849936,830.6378897849936,830.6378897849936,,,,,switch,letter,lettSwt,d,vtsPrac,831.8728129849769,1.1910887730773538,,,,,,,,,,,,,,,,,,,,,,,,,29032,2022-11-02_10h24.58.904,vts_reward_expectancy_bt_OFFLINE,2022.2.4,59.96677914269869,
,,,,,,,,,,,,,,,,,,,,,,,,,,,,,,,,,,0,0,0,0,2,0,2,0,,,,,,,,,,,,,,,,,,,,,,,,,,,,0,801,,,838.8137376839295,,S,125,hexagon,0.0012950829695910215,,,,,1,0,,,2,,,,,,,,,834.3436362539651,834.3436362539651,834.3436362539651,834.3436362539651,835.843567580916,835.843567580916,835.843567580916,835.843567580916,835.843567580916,835.843567580916,835.843567580916,835.843567580916,,,,,repeat,letter,lettRpt,f,vtsPrac,837.3121087139007,1.4412881911266595,,,,,,,,,,,,,,,,,,,,,,,,,29032,2022-11-02_10h24.58.904,vts_reward_expectancy_bt_OFFLINE,2022.2.4,59.96677914269869,
,,,,,,,,,,,,,,,,,,,,,,,,,,,,,,,,,,0,0,0,0,3,0,3,0,,,,,,,,,,,,,,,,,,,,,,,,,,,,0,801,,,843.4853284459095,,F,139,circle,0.0011891040485352278,,,,,1,0,,,2,,,,,,,,,839.798626367934,839.798626367934,839.798626367934,839.798626367934,841.2996440229472,841.2996440229472,841.2996440229472,841.2996440229472,841.2996440229472,841.2996440229472,841.2996440229472,841.2996440229472,,,,,switch,number,numSwt,j,vtsPrac,841.983916788944,0.6647324011428282,,,,,,,,,,,,,,,,,,,,,,,,,29032,2022-11-02_10h24.58.904,vts_reward_expectancy_bt_OFFLINE,2022.2.4,59.96677914269869,
,,,,,,,,,,,,,,,,,,,,,,,,,,,,,,,,,,0,0,0,0,4,0,4,0,,,,,,,,,,,,,,,,,,,,,,,,,,,,0,801,,,847.9403142048977,,D,132,hexagon,0.0011503769783303142,,,,,1,0,,,2,,,,,,,,,844.4698168049799,844.4698168049799,844.4698168049799,844.4698168049799,845.9714516039239,845.9714516039239,845.9714516039239,845.9714516039239,845.9714516039239,845.9714516039239,845.9714516039239,845.9714516039239,,,,,repeat,number,numRpt,j,vtsPrac,846.4387018129928,0.4402061360888183,847.9403142048977,,,,,,,,,,,,,,,,,,,,,,,,29032,2022-11-02_10h24.58.904,vts_reward_expectancy_bt_OFFLINE,2022.2.4,59.96677914269869,
,,,,,,,,,,,,,,,,,,,,,,,,,,,,,,,,,,0,0,0,0,5,0,5,0,,,,,,,,,,,,,,,,,,,,,,,,,,,,0,801,,,852.7958509029122,,H,181,star,0.000981368008069694,,,,,1,0,,,2,,,,,,,,,848.9248913089978,848.9248913089978,848.9248913089978,848.9248913089978,850.4266295059351,850.4266295059351,850.4266295059351,850.4266295059351,850.4266295059351,850.4266295059351,850.4266295059351,850.4266295059351,,,,,switch,letter,lettSwt,d,vtsPrac,851.2940593248932,0.8406251920387149,,,,,,,,,,,,,,,,,,,,,,,,,29032,2022-11-02_10h24.58.904,vts_reward_expectancy_bt_OFFLINE,2022.2.4,59.96677914269869,
,,,,,,,,,,,,,,,,,,,,,,,,,,,,,,,,,,0,0,0,0,6,0,6,0,,,,,,,,,,,,,,,,,,,,,,,,,,,,0,801,,,857.6679550379049,,S,125,star,0.0015169500838965178,,,,,1,0,,,2,,,,,,,,,853.7803603779757,853.7803603779757,853.7803603779757,853.7803603779757,855.2817797228927,855.2817797228927,855.2817797228927,855.2817797228927,855.2817797228927,855.2817797228927,855.2817797228927,855.2817797228927,,,,,switch,number,numSwt,j,vtsPrac,856.1663411499467,0.8680740720592439,857.6679550379049,,,,,,,,,,,,,,,,,,,,,,,,29032,2022-11-02_10h24.58.904,vts_reward_expectancy_bt_OFFLINE,2022.2.4,59.96677914269869,
,,,,,,,,,,,,,,,,,,,,,,,,,,,,,,,,,,0,0,0,0,7,0,7,0,,,,,,,,,,,,,,,,,,,,,,,,,,,,0,801,,,863.8246461359086,,F,139,circle,0.00068928103428334,,,,,0,0,,,2,,,,,,,,,858.6521933958866,858.6521933958866,858.6521933958866,858.6521933958866,860.1539717989508,860.1539717989508,860.1539717989508,860.1539717989508,860.1539717989508,860.1539717989508,860.1539717989508,860.1539717989508,,,,,repeat,number,NA,k,vtsPrac,862.3229545089416,2.13786812312901,,,,,,,,,,,,,,,,,,,,,,,,,29032,2022-11-02_10h24.58.904,vts_reward_expectancy_bt_OFFLINE,2022.2.4,59.96677914269869,
,,,,,,,,,,,,,,,,,,,,,,,,,,,,,,,,,,0,0,0,0,8,0,8,0,,,,,,,,,,,,,,,,,,,,,,,,,,,,0,801,,,869.3640824209433,,F,132,hexagon,0.0015455220127478242,,,,,1,1,,,2,,,,,,,,,864.8090641909512,864.8090641909512,864.8090641909512,864.8090641909512,866.310431070975,866.310431070975,866.310431070975,866.310431070975,866.310431070975,866.310431070975,866.310431070975,866.310431070975,,,,,switch,letter,lettSwt,d,vtsPrac,867.8622874899302,1.5190416120458394,,,,,,,,,,,,,,,,,,,,,,,,,29032,2022-11-02_10h24.58.904,vts_reward_expectancy_bt_OFFLINE,2022.2.4,59.96677914269869,
,,,,,,,,,,,,,,,,,,,,,,,,,,,,,,,,,,0,0,0,0,9,0,9,0,,,,,,,,,,,,,,,,,,,,,,,,,,,,0,801,,,874.5363534649368,,H,167,triangle,0.001016858033835888,,,,,1,0,,,2,,,,,,,,,870.3651723499643,870.3651723499643,870.3651723499643,870.3651723499643,871.8500089839799,871.8500089839799,871.8500089839799,871.8500089839799,871.8669558339752,871.8669558339752,871.8669558339752,871.8669558339752,,,,,switch,number,numSwt,k,vtsPrac,873.034927280969,1.121340865152888,,,,,,,,,,,,,,,,,,,,,,,,,29032,2022-11-02_10h24.58.904,vts_reward_expectancy_bt_OFFLINE,2022.2.4,59.96677914269869,
,,,,,,,,,,,,,,,,,,,,,,,,,,,,,,,,,,0,0,0,0,10,0,10,0,,,,,,,,,,,,,,,,,,,,,,,,,,,,0,801,,,879.2910226539243,,S,139,hexagon,0.01524110499303788,,,,,1,0,,,2,,,,,,,,,875.520748764975,875.520748764975,875.520748764975,875.520748764975,877.0061639630003,877.0061639630003,877.0061639630003,877.0061639630003,877.0225470929872,877.0225470929872,877.0225470929872,877.0225470929872,,,,,switch,letter,lettSwt,f,vtsPrac,877.7895848829066,0.7580036470899358,879.2910226539243,,,,,,,,,,,,,,,,,,,,,,,,29032,2022-11-02_10h24.58.904,vts_reward_expectancy_bt_OFFLINE,2022.2.4,59.96677914269869,
,,,,,,,,,,,,,,,,,,,,,,,,,,,,,,,,,,0,0,0,0,11,0,11,0,,,,,,,,,,,,,,,,,,,,,,,,,,,,0,801,,,884.0300717139617,,B,181,circle,0.0009880170691758394,,,,,1,0,,,2,,,,,,,,,880.2757914559916,880.2757914559916,880.2757914559916,880.2757914559916,881.7775221959455,881.7775221959455,881.7775221959455,881.7775221959455,881.7775221959455,881.7775221959455,881.7775221959455,881.7775221959455,,,,,repeat,letter,lettRpt,d,vtsPrac,882.5285242499085,0.7236094091786072,,,,,,,,,,,,,,,,,,,,,,,,,29032,2022-11-02_10h24.58.904,vts_reward_expectancy_bt_OFFLINE,2022.2.4,59.96677914269869,
,,,,,,,,,,,,,,,,,,,,,,,,,,,,,,,,,,0,0,0,0,12,0,12,0,,,,,,,,,,,,,,,,,,,,,,,,,,,,0,801,,,889.5863122059964,,F,167,hexagon,0.001179995946586132,,,,,0,0,,,2,,,,,,,,,885.0145981028909,885.0145981028909,885.0145981028909,885.0145981028909,886.5163674559444,886.5163674559444,886.5163674559444,886.5163674559444,886.5163674559444,886.5163674559444,886.5163674559444,886.5163674559444,,,,,repeat,letter,NA,f,vtsPrac,888.0857451709453,1.542786353151314,,,,,,,,,,,,,,,,,,,,,,,,,29032,2022-11-02_10h24.58.904,vts_reward_expectancy_bt_OFFLINE,2022.2.4,59.96677914269869,
,,,,,,,,,,,,,,,,,,,,,,,,,,,,,,,,,,0,0,0,0,13,0,13,0,,,,,,,,,,,,,,,,,,,,,,,,,,,,0,801,,,894.8923104689457,,H,125,star,0.0012479990255087614,,,,,1,1,,,2,,,,,,,,,890.570572755998,890.570572755998,890.570572755998,890.570572755998,892.0722568898927,892.0722568898927,892.0722568898927,892.0722568898927,892.0722568898927,892.0722568898927,892.0722568898927,892.0722568898927,,,,,switch,number,numSwt,j,vtsPrac,893.390530813951,1.2852989981183782,,,,,,,,,,,,,,,,,,,,,,,,,29032,2022-11-02_10h24.58.904,vts_reward_expectancy_bt_OFFLINE,2022.2.4,59.96677914269869,
,,,,,,,,,,,,,,,,,,,,,,,,,,,,,,,,,,0,0,0,0,14,0,14,0,,,,,,,,,,,,,,,,,,,,,,,,,,,,0,801,,,899.5806813559029,,S,160,circle,0.0012176939053460956,,,,,1,0,,,2,,,,,,,,,895.8766571829328,895.8766571829328,895.8766571829328,895.8766571829328,897.3783286449034,897.3783286449034,897.3783286449034,897.3783286449034,897.3783286449034,897.3783286449034,897.3783286449034,897.3783286449034,,,,,repeat,number,numRpt,k,vtsPrac,898.0790734559996,0.6740959481103346,,,,,,,,,,,,,,,,,,,,,,,,,29032,2022-11-02_10h24.58.904,vts_reward_expectancy_bt_OFFLINE,2022.2.4,59.96677914269869,
,,,,,,,,,,,,,,,,,,,,,,,,,,,,,,,,,,0,0,0,0,15,0,15,0,,,,,,,,,,,,,,,,,,,,,,,,,,,,0,801,,,904.5528942329111,,D,181,hexagon,0.001270317006856203,,,,,1,0,,,2,,,,,,,,,900.5649674449814,900.5649674449814,900.5649674449814,900.5649674449814,902.066706300946,902.066706300946,902.066706300946,902.066706300946,902.066706300946,902.066706300946,902.066706300946,902.066706300946,,,,,repeat,number,numRpt,k,vtsPrac,903.0512406108901,0.95230933802668,,,,,,,,,,,,,,,,,,,,,,,,,29032,2022-11-02_10h24.58.904,vts_reward_expectancy_bt_OFFLINE,2022.2.4,59.96677914269869,
,,,,,,,,,,,,,,,,,,,,,,,,,,,,,,,,,,,,,,,,,,0,0,0,0,,,,,,,,,,,,,,,,,,,,,,,,0,801,,,939.5580918029882,,Y,125,triangle,0.0021479009883478284,,,,,1,0,,,,,,,,,,,,935.6038570659002,935.6038570659002,935.6038570659002,935.6038570659002,937.1055304099573,937.1055304099573,937.1055304099573,937.1055304099573,937.1055304099573,937.1055304099573,937.1055304099573,937.1055304099573,,,,,repeat,number,numRpt,j,noRew,,0.9233782851370052,,0,938.0583145879209,939.5580918029882,940.0584942389978,,,,,,,,,,,,,,,,,,,,29032,2022-11-02_10h24.58.904,vts_reward_expectancy_bt_OFFLINE,2022.2.4,59.96677914269869,
,,,,,,,,,,,,,,,,,,,,,,,,,,,,,,,,,,,,,,,,,,1,0,1,0,,,,,,,,,,,,,,,,,,,,,,,,0,801,,,944.5470976149663,,U,146,hexagon,0.0011911159381270409,,,,,1,0,,,,,,,,,,,,940.5437774478924,940.5437774478924,940.5437774478924,940.5437774478924,942.0440224038903,942.0440224038903,942.0440224038903,942.0440224038903,942.0440224038903,942.0440224038903,942.0440224038903,942.0440224038903,,,,,repeat,number,numRpt,j,noRew,,0.9751227350207046,,0,943.0450678409543,,,,,,,,,,,,,,,,,,,,,,29032,2022-11-02_10h24.58.904,vts_reward_expectancy_bt_OFFLINE,2022.2.4,59.96677914269869,
,,,,,,,,,,,,,,,,,,,,,,,,,,,,,,,,,,,,,,,,,,2,0,2,0,,,,,,,,,,,,,,,,,,,,,,,,0,801,,,949.6692792639369,,S,181,triangle,0.0011405569966882467,,,,,0,0,,,,,,,,,,,,945.5315042799339,945.5315042799339,945.5315042799339,945.5315042799339,947.0330398759106,947.0330398759106,947.0330398759106,947.0330398759106,947.0330398759106,947.0330398759106,947.0330398759106,947.0330398759106,,,,,switch,letter,NA,d,noRew,,1.114405237021856,,0,948.1689467709512,,,,,,,,,,,,,,,,,,,,,,29032,2022-11-02_10h24.58.904,vts_reward_expectancy_bt_OFFLINE,2022.2.4,59.96677914269869,
,,,,,,,,,,,,,,,,,,,,,,,,,,,,,,,,,,,,,,,,,,3,0,3,0,,,,,,,,,,,,,,,,,,,,,,,,0,801,,,954.741585120908,,D,160,hexagon,0.0013010590337216854,,,,,1,1,,,,,,,,,,,,950.6537376139313,950.6537376139313,950.6537376139313,950.6537376139313,952.1553546629148,952.1553546629148,952.1553546629148,952.1553546629148,952.1553546629148,952.1553546629148,952.1553546629148,952.1553546629148,,,,,switch,number,numSwt,k,noRew,,1.057084200088866,,0,953.2412950439611,954.741585120908,,,,,,,,,,,,,,,,,,,,,29032,2022-11-02_10h24.58.904,vts_reward_expectancy_bt_OFFLINE,2022.2.4,59.96677914269869,
,,,,,,,,,,,,,,,,,,,,,,,,,,,,,,,,,,,,,,,,,,4,0,4,0,,,,,,,,,,,,,,,,,,,,,,,,0,801,,,960.4644663429353,,Y,125,hexagon,0.001243105041794479,,,,,1,0,,,,,,,,,,,,955.7259908859851,955.7259908859851,955.7259908859851,955.7259908859851,957.2275386709953,957.2275386709953,957.2275386709953,957.2275386709953,957.2275386709953,957.2275386709953,957.2275386709953,957.2275386709953,,,,,switch,letter,lettSwt,f,noRew,,1.712667276035063,,0,958.9626754779601,,,,,,,,,,,,,,,,,,,,,,29032,2022-11-02_10h24.58.904,vts_reward_expectancy_bt_OFFLINE,2022.2.4,59.96677914269869,
,,,,,,,,,,,,,,,,,,,,,,,,,,,,,,,,,,,,,,,,,,5,0,5,0,,,,,,,,,,,,,,,,,,,,,,,,0,801,,,965.1195722409757,,U,146,triangle,0.0014756000600755215,,,,,1,0,,,,,,,,,,,,961.4492550329305,961.4492550329305,961.4492550329305,961.4492550329305,962.9505978729576,962.9505978729576,962.9505978729576,962.9505978729576,962.9505978729576,962.9505978729576,962.9505978729576,962.9505978729576,,,,,repeat,letter,lettRpt,f,noRew,,0.6377251680241898,,0,963.6180748029146,,,,,,,,,,,,,,,,,,,,,,29032,2022-11-02_10h24.58.904,vts_reward_expectancy_bt_OFFLINE,2022.2.4,59.96677914269869,
,,,,,,,,,,,,,,,,,,,,,,,,,,,,,,,,,,,,,,,,,,6,0,6,0,,,,,,,,,,,,,,,,,,,,,,,,0,801,,,970.3088803399587,,S,181,triangle,0.001051084022037685,,,,,0,0,,,,,,,,,,,,966.1040478479117,966.1040478479117,966.1040478479117,966.1040478479117,967.6058523189276,967.6058523189276,967.6058523189276,967.6058523189276,967.6058523189276,967.6058523189276,967.6058523189276,967.6058523189276,,,,,repeat,letter,NA,d,noRew,,1.174190649180673,,0,968.8085250529693,970.3088803399587,,,,,,,,,,,,,,,,,,,,,29032,2022-11-02_10h24.58.904,vts_reward_expectancy_bt_OFFLINE,2022.2.4,59.96677914269869,
,,,,,,,,,,,,,,,,,,,,,,,,,,,,,,,,,,,,,,,,,,7,0,7,0,,,,,,,,,,,,,,,,,,,,,,,,0,801,,,975.4311233659973,,D,160,star,0.001232414972037077,,,,,1,1,,,,,,,,,,,,971.2933276708936,971.2933276708936,971.2933276708936,971.2933276708936,972.7947875079699,972.7947875079699,972.7947875079699,972.7947875079699,972.7947875079699,972.7947875079699,972.7947875079699,972.7947875079699,,,,,switch,number,numSwt,k,noRew,,1.105139231076464,,0,973.9311547939433,,,,,,,,,,,,,,,,,,,,,,29032,2022-11-02_10h24.58.904,vts_reward_expectancy_bt_OFFLINE,2022.2.4,59.96677914269869,
,,,,,,,,,,,,,,,,,,,,,,,,,,,,,,,,,,,,,,,,,,8,0,8,0,,,,,,,,,,,,,,,,,,,,,,,,0,801,,,980.3198951089289,,U,139,hexagon,0.0011959690600633621,,,,,1,0,,,,,,,,,,,,976.415547646,976.415547646,976.415547646,976.415547646,977.9171869829297,977.9171869829297,977.9171869829297,977.9171869829297,977.9171869829297,977.9171869829297,977.9171869829297,977.9171869829297,,,,,switch,letter,lettSwt,f,noRew,,0.8698920911410823,,0,978.8182956489036,,,,,,,,,,,,,,,,,,,,,,29032,2022-11-02_10h24.58.904,vts_reward_expectancy_bt_OFFLINE,2022.2.4,59.96677914269869,
,,,,,,,,,,,,,,,,,,,,,,,,,,,,,,,,,,,,,,,,,,9,0,9,0,,,,,,,,,,,,,,,,,,,,,,,,0,801,,,985.4756250829669,,H,181,circle,0.0012920820154249668,,,,,1,0,,,,,,,,,,,,981.304217429948,981.304217429948,981.304217429948,981.304217429948,982.8057960129809,982.8057960129809,982.8057960129809,982.8057960129809,982.8057960129809,982.8057960129809,982.8057960129809,982.8057960129809,,,,,repeat,letter,lettRpt,d,noRew,,1.1422785550821573,,0,983.9738926339196,985.4756250829669,,,,,,,,,,,,,,,,,,,,,29032,2022-11-02_10h24.58.904,vts_reward_expectancy_bt_OFFLINE,2022.2.4,59.96677914269869,
,,,,,,,,,,,,,,,,,,,,,,,,,,,,,,,,,,,,,,,,,,10,0,10,0,,,,,,,,,,,,,,,,,,,,,,,,0,801,,,990.3473980329,,D,174,circle,0.0011617479613050818,,,,,1,0,,,,,,,,,,,,986.4597329299431,986.4597329299431,986.4597329299431,986.4597329299431,987.9614026829368,987.9614026829368,987.9614026829368,987.9614026829368,987.9614026829368,987.9614026829368,987.9614026829368,987.9614026829368,,,,,repeat,letter,lettRpt,d,noRew,,0.8585110740968958,,0,988.8458694029832,,,,,,,,,,,,,,,,,,,,,,29032,2022-11-02_10h24.58.904,vts_reward_expectancy_bt_OFFLINE,2022.2.4,59.96677914269869,
,,,,,,,,,,,,,,,,,,,,,,,,,,,,,,,,,,,,,,,,,,11,0,11,0,,,,,,,,,,,,,,,,,,,,,,,,0,801,,,995.1196052299347,,B,132,triangle,0.0011977999238297343,,,,,1,0,,,,,,,,,,,,991.3321917599533,991.3321917599533,991.3321917599533,991.3321917599533,992.8336676409235,992.8336676409235,992.8336676409235,992.8336676409235,992.8336676409235,992.8336676409235,992.8336676409235,992.8336676409235,,,,,switch,number,numSwt,j,noRew,,0.7625643651699647,,0,993.6177349429345,995.1196052299347,,,,,,,,,,,,,,,,,,,,,29032,2022-11-02_10h24.58.904,vts_reward_expectancy_bt_OFFLINE,2022.2.4,59.96677914269869,
,,,,,,,,,,,,,,,,,,,,,,,,,,,,,,,,,,,,,,,,,,12,0,12,0,,,,,,,,,,,,,,,,,,,,,,,,0,801,,,1001.7598974739667,,S,132,triangle,0.0011019599623978138,,,,,1,0,,,,,,,,,,,,996.1038412839407,996.1038412839407,996.1038412839407,996.1038412839407,997.605474343989,997.605474343989,997.605474343989,997.605474343989,997.605474343989,997.605474343989,997.605474343989,997.605474343989,,,,,switch,letter,lettSwt,f,noRew,,2.6216398030519485,,0,1000.2582593848929,,,,,,,,,,,,,,,,,,,,,,29032,2022-11-02_10h24.58.904,vts_reward_expectancy_bt_OFFLINE,2022.2.4,59.96677914269869,
,,,,,,,,,,,,,,,,,,,,,,,,,,,,,,,,,,,,,,,,,,13,0,13,0,,,,,,,,,,,,,,,,,,,,,,,,0,801,,,1007.3495874359505,,Y,160,circle,0.001252327929250896,,,,,1,0,,,,,,,,,,,,1002.7444721609354,1002.7444721609354,1002.7444721609354,1002.7444721609354,1004.246039382997,1004.246039382997,1004.246039382997,1004.246039382997,1004.246039382997,1004.246039382997,1004.246039382997,1004.246039382997,,,,,switch,number,numSwt,k,noRew,,1.5747485150350258,,0,1005.8479648379143,1007.3495874359505,,,,,,,,,,,,,,,,,,,,,29032,2022-11-02_10h24.58.904,vts_reward_expectancy_bt_OFFLINE,2022.2.4,59.96677914269869,
