LTriangleOpac,LCircleOpac,LHexagonOpac,LStarOpac,RTriangleOpac,RCircleOpac,RHexagonOpac,RStarOpac,LShape_ID,RShape_ID,training_blocks.thisRepN,training_blocks.thisTrialN,training_blocks.thisN,training_blocks.thisIndex,training.thisRepN,training.thisTrialN,training.thisN,training.thisIndex,task1_prac_redo.thisRepN,task1_prac_redo.thisTrialN,task1_prac_redo.thisN,task1_prac_redo.thisIndex,task1_prac_trials.thisRepN,task1_prac_trials.thisTrialN,task1_prac_trials.thisN,task1_prac_trials.thisIndex,task2_prac_redo.thisRepN,task2_prac_redo.thisTrialN,task2_prac_redo.thisN,task2_prac_redo.thisIndex,task2_praac_trials.thisRepN,task2_praac_trials.thisTrialN,task2_praac_trials.thisN,task2_praac_trials.thisIndex,vts_prac_redo.thisRepN,vts_prac_redo.thisTrialN,vts_prac_redo.thisN,vts_prac_redo.thisIndex,vts_practice_trials.thisRepN,vts_practice_trials.thisTrialN,vts_practice_trials.thisN,vts_practice_trials.thisIndex,trials_norew.thisRepN,trials_norew.thisTrialN,trials_norew.thisN,trials_norew.thisIndex,block.thisRepN,block.thisTrialN,block.thisN,block.thisIndex,trials_rew.thisRepN,trials_rew.thisTrialN,trials_rew.thisN,trials_rew.thisIndex,key_resp.started,key_resp.keys,key_resp.rt,left_circle.started,right_circle.started,left_triangle.started,right_triangle.started,left_star.started,right_star.started,left_hexagon.started,right_hexagon.started,training_fix.started,training_resp.started,training_resp.keys,training_resp.rt,points_trial,points_cumul,trainBlock,training_feedback_txt.started,training_feedback_txt.stopped,fix.started,fix.stopped,curr_topStim,curr_bottStim,curr_shape,ISI.started,tgt_fix_prac1.started,top_target_prac1.started,bott_target_prac1.started,target_resp_prac1.started,acc,E1,target_resp_prac1.keys,target_resp_prac1.rt,pracBlock,prac_fback_text.started,prac_fback_text.stopped,tgt_fix_prac2.started,top_target_prac2.started,bott_target_prac2.started,target_resp_prac2.started,target_resp_prac2.keys,target_resp_prac2.rt,star.started,hegagon.started,triangle.started,circle.started,top_target.started,tgt_fix.started,bot_target.started,target_resp.started,star.stopped,hegagon.stopped,triangle.stopped,circle.stopped,top_target.stopped,tgt_fix.stopped,bot_target.stopped,target_resp.stopped,alt,task,condition,target_resp.keys,rewCond,vts_fback.started,target_resp.rt,vts_fback.stopped,blockNum,norew_fback.started,norew_fback.stopped,key_resp_2.keys,key_resp_2.rt,rewExpectancy,feedbk_text.started,feedbk_text.stopped,text_3.started,debrief.started,text_3.stopped,button.started,debrief.index,debrief.itemText,debrief.type,debrief.granularity,debrief.font,debrief.markerColor,debrief.response,debrief.rt,button.numClicks,button.timesOn,button.timesOff,participant,date,expName,psychopyVersion,frameRate,
,,,,,,,,,,,,,,,,,,,,,,,,,,,,,,,,,,,,,,,,,,,,,,,,,,,,,,11.932181086973287,space,1.849754250026308,,,,,,,,,,,,,,,,,,,,,,,,,,,,,,,,,,,,,,,,,,,,,,,,,,,,,,,,,,,,,,,,,,,,,,,,,,,,,,,,,,,,,,,,30821,2022-11-04_09h04.43.869,vts_reward_expectancy_bt_OFFLINE,2022.2.4,59.99473102564513,
1,0,0,0,0,0,1,0,triangle,hexagon,0,0,0,0,0,0,0,1,,,,,,,,,,,,,,,,,,,,,,,,,,,,,,,,,,,,,,,,23.84056584991049,23.84056584991049,23.84056584991049,23.84056584991049,23.84056584991049,23.84056584991049,23.84056584991049,23.84056584991049,23.84056584991049,23.84056584991049,l,98.68731178203598,1,1,0,122.55458487698343,124.0540951580042,124.0540951580042,124.55429093190469,,,,,,,,,,,,,,,,,,,,,,,,,,,,,,,,,,,,,,,,,,,,,,,,,,,,,,,,,,,,,,,,,,,,,30821,2022-11-04_09h04.43.869,vts_reward_expectancy_bt_OFFLINE,2022.2.4,59.99473102564513,
0,1,0,0,0,0,0,1,circle,star,0,0,0,0,0,1,1,5,,,,,,,,,,,,,,,,,,,,,,,,,,,,,,,,,,,,,,,,124.55429093190469,124.55429093190469,124.55429093190469,124.55429093190469,124.55429093190469,124.55429093190469,124.55429093190469,124.55429093190469,124.55429093190469,124.55429093190469,a,1.2583450820529833,1,2,0,125.83987381891347,127.34036787890363,127.34036787890363,127.84087328298483,,,,,,,,,,,,,,,,,,,,,,,,,,,,,,,,,,,,,,,,,,,,,,,,,,,,,,,,,,,,,,,,,,,,,30821,2022-11-04_09h04.43.869,vts_reward_expectancy_bt_OFFLINE,2022.2.4,59.99473102564513,
1,0,0,0,0,0,0,1,triangle,star,0,0,0,0,0,2,2,2,,,,,,,,,,,,,,,,,,,,,,,,,,,,,,,,,,,,,,,,127.84087328298483,127.84087328298483,127.84087328298483,127.84087328298483,127.84087328298483,127.84087328298483,127.84087328298483,127.84087328298483,127.84087328298483,127.84087328298483,a,2.5281518670963123,10,12,0,130.39432037901133,131.89377200894523,131.89377200894523,132.39410283998586,,,,,,,,,,,,,,,,,,,,,,,,,,,,,,,,,,,,,,,,,,,,,,,,,,,,,,,,,,,,,,,,,,,,,30821,2022-11-04_09h04.43.869,vts_reward_expectancy_bt_OFFLINE,2022.2.4,59.99473102564513,
0,0,1,0,0,1,0,0,hexagon,circle,0,0,0,0,0,3,3,7,,,,,,,,,,,,,,,,,,,,,,,,,,,,,,,,,,,,,,,,132.39410283998586,132.39410283998586,132.39410283998586,132.39410283998586,132.39410283998586,132.39410283998586,132.39410283998586,132.39410283998586,132.39410283998586,132.39410283998586,a,1.147579504060559,1,13,0,133.56123227498028,135.0618711319985,135.0618711319985,,,,,,,,,,,,,,,,,,,,,,,,,,,,,,,,,,,,,,,,,,,,,,,,,,,,,,,,,,,,,,,,,,,,,,30821,2022-11-04_09h04.43.869,vts_reward_expectancy_bt_OFFLINE,2022.2.4,59.99473102564513,
0,0,1,0,0,0,0,1,hexagon,star,0,0,0,0,0,4,4,8,,,,,,,,,,,,,,,,,,,,,,,,,,,,,,,,,,,,,,,,135.563645608956,135.563645608956,135.563645608956,135.563645608956,135.563645608956,135.563645608956,135.563645608956,135.563645608956,135.563645608956,135.563645608956,a,0.7682591191260144,1,14,0,136.36407045391388,137.8645722999936,137.8645722999936,138.36484205396846,,,,,,,,,,,,,,,,,,,,,,,,,,,,,,,,,,,,,,,,,,,,,,,,,,,,,,,,,,,,,,,,,,,,,30821,2022-11-04_09h04.43.869,vts_reward_expectancy_bt_OFFLINE,2022.2.4,59.99473102564513,
0,0,1,0,1,0,0,0,hexagon,triangle,0,0,0,0,0,5,5,6,,,,,,,,,,,,,,,,,,,,,,,,,,,,,,,,,,,,,,,,138.36484205396846,138.36484205396846,138.36484205396846,138.36484205396846,138.36484205396846,138.36484205396846,138.36484205396846,138.36484205396846,138.36484205396846,138.36484205396846,l,0.6566460070898756,10,24,0,139.048493198934,,140.55092331499327,,,,,,,,,,,,,,,,,,,,,,,,,,,,,,,,,,,,,,,,,,,,,,,,,,,,,,,,,,,,,,,,,,,,,,30821,2022-11-04_09h04.43.869,vts_reward_expectancy_bt_OFFLINE,2022.2.4,59.99473102564513,
0,0,0,1,0,0,1,0,star,hexagon,0,0,0,0,0,6,6,11,,,,,,,,,,,,,,,,,,,,,,,,,,,,,,,,,,,,,,,,141.0507421719376,141.0507421719376,141.0507421719376,141.0507421719376,141.0507421719376,141.0507421719376,141.0507421719376,141.0507421719376,141.0507421719376,141.0507421719376,l,1.9188465760089457,1,25,0,143.00167384301312,144.50207785097882,144.50207785097882,,,,,,,,,,,,,,,,,,,,,,,,,,,,,,,,,,,,,,,,,,,,,,,,,,,,,,,,,,,,,,,,,,,,,,30821,2022-11-04_09h04.43.869,vts_reward_expectancy_bt_OFFLINE,2022.2.4,59.99473102564513,
0,1,0,0,1,0,0,0,circle,triangle,0,0,0,0,0,7,7,3,,,,,,,,,,,,,,,,,,,,,,,,,,,,,,,,,,,,,,,,145.00231602892745,145.00231602892745,145.00231602892745,145.00231602892745,145.00231602892745,145.00231602892745,145.00231602892745,145.00231602892745,145.00231602892745,145.00231602892745,a,0.9829198780935258,10,35,0,146.00496761500835,147.50509950798005,147.50509950798005,148.00541868491564,,,,,,,,,,,,,,,,,,,,,,,,,,,,,,,,,,,,,,,,,,,,,,,,,,,,,,,,,,,,,,,,,,,,,30821,2022-11-04_09h04.43.869,vts_reward_expectancy_bt_OFFLINE,2022.2.4,59.99473102564513,
0,0,0,1,1,0,0,0,star,triangle,0,0,0,0,0,8,8,9,,,,,,,,,,,,,,,,,,,,,,,,,,,,,,,,,,,,,,,,148.00541868491564,148.00541868491564,148.00541868491564,148.00541868491564,148.00541868491564,148.00541868491564,148.00541868491564,148.00541868491564,148.00541868491564,148.00541868491564,l,1.0616209589643404,10,45,0,149.08895888598636,,150.59130469092634,,,,,,,,,,,,,,,,,,,,,,,,,,,,,,,,,,,,,,,,,,,,,,,,,,,,,,,,,,,,,,,,,,,,,,30821,2022-11-04_09h04.43.869,vts_reward_expectancy_bt_OFFLINE,2022.2.4,59.99473102564513,
0,0,0,1,0,1,0,0,star ,circle,0,0,0,0,0,9,9,10,,,,,,,,,,,,,,,,,,,,,,,,,,,,,,,,,,,,,,,,151.09152939298656,151.09152939298656,151.09152939298656,151.09152939298656,151.09152939298656,151.09152939298656,151.09152939298656,151.09152939298656,151.09152939298656,151.09152939298656,a,0.5412906520068645,10,55,0,151.6584076049039,153.15885930100922,153.15885930100922,,,,,,,,,,,,,,,,,,,,,,,,,,,,,,,,,,,,,,,,,,,,,,,,,,,,,,,,,,,,,,,,,,,,,,30821,2022-11-04_09h04.43.869,vts_reward_expectancy_bt_OFFLINE,2022.2.4,59.99473102564513,
1,0,0,0,0,1,0,0,triangle,circle,0,0,0,0,0,10,10,0,,,,,,,,,,,,,,,,,,,,,,,,,,,,,,,,,,,,,,,,153.65921126492321,153.65921126492321,153.65921126492321,153.65921126492321,153.65921126492321,153.65921126492321,153.65921126492321,153.65921126492321,153.65921126492321,153.65921126492321,l,1.0441955660935491,1,56,0,154.7267557369778,,156.22866534197237,,,,,,,,,,,,,,,,,,,,,,,,,,,,,,,,,,,,,,,,,,,,,,,,,,,,,,,,,,,,,,,,,,,,,,30821,2022-11-04_09h04.43.869,vts_reward_expectancy_bt_OFFLINE,2022.2.4,59.99473102564513,
0,1,0,0,0,0,1,0,circle,hexagon,0,0,0,0,0,11,11,4,,,,,,,,,,,,,,,,,,,,,,,,,,,,,,,,,,,,,,,,156.72893445694353,156.72893445694353,156.72893445694353,156.72893445694353,156.72893445694353,156.72893445694353,156.72893445694353,156.72893445694353,156.72893445694353,156.72893445694353,a,1.1926135750254616,1,57,0,157.94598870398477,159.44632579491008,159.44632579491008,159.94655934697948,,,,,,,,,,,,,,,,,,,,,,,,,,,,,,,,,,,,,,,,,,,,,,,,,,,,,,,,,,,,,,,,,,,,,30821,2022-11-04_09h04.43.869,vts_reward_expectancy_bt_OFFLINE,2022.2.4,59.99473102564513,
0,0,1,0,0,0,0,1,hexagon,star,0,0,0,0,1,0,12,8,,,,,,,,,,,,,,,,,,,,,,,,,,,,,,,,,,,,,,,,159.94655934697948,159.94655934697948,159.94655934697948,159.94655934697948,159.94655934697948,159.94655934697948,159.94655934697948,159.94655934697948,159.94655934697948,159.94655934697948,a,1.1476378460647538,1,58,0,161.1155101750046,162.61626028397586,162.61626028397586,163.11597016092855,,,,,,,,,,,,,,,,,,,,,,,,,,,,,,,,,,,,,,,,,,,,,,,,,,,,,,,,,,,,,,,,,,,,,30821,2022-11-04_09h04.43.869,vts_reward_expectancy_bt_OFFLINE,2022.2.4,59.99473102564513,
0,0,0,1,1,0,0,0,star,triangle,0,0,0,0,1,1,13,9,,,,,,,,,,,,,,,,,,,,,,,,,,,,,,,,,,,,,,,,163.11597016092855,163.11597016092855,163.11597016092855,163.11597016092855,163.11597016092855,163.11597016092855,163.11597016092855,163.11597016092855,163.11597016092855,163.11597016092855,a,0.3628065960947424,1,59,0,163.49950257199816,165.00030221499037,165.00030221499037,,,,,,,,,,,,,,,,,,,,,,,,,,,,,,,,,,,,,,,,,,,,,,,,,,,,,,,,,,,,,,,,,,,,,,30821,2022-11-04_09h04.43.869,vts_reward_expectancy_bt_OFFLINE,2022.2.4,59.99473102564513,
1,0,0,0,0,0,0,1,triangle,star,0,0,0,0,1,2,14,2,,,,,,,,,,,,,,,,,,,,,,,,,,,,,,,,,,,,,,,,165.5022278180113,165.5022278180113,165.5022278180113,165.5022278180113,165.5022278180113,165.5022278180113,165.5022278180113,165.5022278180113,165.5022278180113,165.5022278180113,l,0.7553286061156541,1,60,0,166.28583922691178,167.7864048879128,167.7864048879128,168.2865782600129,,,,,,,,,,,,,,,,,,,,,,,,,,,,,,,,,,,,,,,,,,,,,,,,,,,,,,,,,,,,,,,,,,,,,30821,2022-11-04_09h04.43.869,vts_reward_expectancy_bt_OFFLINE,2022.2.4,59.99473102564513,
0,0,1,0,1,0,0,0,hexagon,triangle,0,0,0,0,1,3,15,6,,,,,,,,,,,,,,,,,,,,,,,,,,,,,,,,,,,,,,,,168.2865782600129,168.2865782600129,168.2865782600129,168.2865782600129,168.2865782600129,168.2865782600129,168.2865782600129,168.2865782600129,168.2865782600129,168.2865782600129,a,0.7055093221133575,1,61,0,169.02021265798248,,170.52248997194692,,,,,,,,,,,,,,,,,,,,,,,,,,,,,,,,,,,,,,,,,,,,,,,,,,,,,,,,,,,,,,,,,,,,,,30821,2022-11-04_09h04.43.869,vts_reward_expectancy_bt_OFFLINE,2022.2.4,59.99473102564513,
1,0,0,0,0,0,1,0,triangle,hexagon,0,0,0,0,1,4,16,1,,,,,,,,,,,,,,,,,,,,,,,,,,,,,,,,,,,,,,,,171.02280565793626,171.02280565793626,171.02280565793626,171.02280565793626,171.02280565793626,171.02280565793626,171.02280565793626,171.02280565793626,171.02280565793626,171.02280565793626,l,0.3093556520761922,1,62,0,171.35621567990165,172.85686665493995,172.85686665493995,173.3569273269968,,,,,,,,,,,,,,,,,,,,,,,,,,,,,,,,,,,,,,,,,,,,,,,,,,,,,,,,,,,,,,,,,,,,,30821,2022-11-04_09h04.43.869,vts_reward_expectancy_bt_OFFLINE,2022.2.4,59.99473102564513,
0,1,0,0,0,0,1,0,circle,hexagon,0,0,0,0,1,5,17,4,,,,,,,,,,,,,,,,,,,,,,,,,,,,,,,,,,,,,,,,173.3569273269968,173.3569273269968,173.3569273269968,173.3569273269968,173.3569273269968,173.3569273269968,173.3569273269968,173.3569273269968,173.3569273269968,173.3569273269968,a,0.4720415921183303,10,72,0,173.85748795594554,,175.35956000292208,,,,,,,,,,,,,,,,,,,,,,,,,,,,,,,,,,,,,,,,,,,,,,,,,,,,,,,,,,,,,,,,,,,,,,30821,2022-11-04_09h04.43.869,vts_reward_expectancy_bt_OFFLINE,2022.2.4,59.99473102564513,
0,0,1,0,0,1,0,0,hexagon,circle,0,0,0,0,1,6,18,7,,,,,,,,,,,,,,,,,,,,,,,,,,,,,,,,,,,,,,,,175.85976268793456,175.85976268793456,175.85976268793456,175.85976268793456,175.85976268793456,175.85976268793456,175.85976268793456,175.85976268793456,175.85976268793456,175.85976268793456,a,0.9631551409838721,1,73,0,176.84373316995334,178.34389964293223,178.34389964293223,,,,,,,,,,,,,,,,,,,,,,,,,,,,,,,,,,,,,,,,,,,,,,,,,,,,,,,,,,,,,,,,,,,,,,30821,2022-11-04_09h04.43.869,vts_reward_expectancy_bt_OFFLINE,2022.2.4,59.99473102564513,
0,0,0,1,0,0,1,0,star,hexagon,0,0,0,0,1,7,19,11,,,,,,,,,,,,,,,,,,,,,,,,,,,,,,,,,,,,,,,,178.84405703900848,178.84405703900848,178.84405703900848,178.84405703900848,178.84405703900848,178.84405703900848,178.84405703900848,178.84405703900848,178.84405703900848,178.84405703900848,l,0.6213688960997388,1,74,0,179.49420422292314,,180.9966892109951,,,,,,,,,,,,,,,,,,,,,,,,,,,,,,,,,,,,,,,,,,,,,,,,,,,,,,,,,,,,,,,,,,,,,,30821,2022-11-04_09h04.43.869,vts_reward_expectancy_bt_OFFLINE,2022.2.4,59.99473102564513,
0,1,0,0,0,0,0,1,circle,star,0,0,0,0,1,8,20,5,,,,,,,,,,,,,,,,,,,,,,,,,,,,,,,,,,,,,,,,181.49682765698526,181.49682765698526,181.49682765698526,181.49682765698526,181.49682765698526,181.49682765698526,181.49682765698526,181.49682765698526,181.49682765698526,181.49682765698526,a,0.4669164210790768,10,84,0,181.9809784349054,183.4807944719214,183.4807944719214,183.98102202196606,,,,,,,,,,,,,,,,,,,,,,,,,,,,,,,,,,,,,,,,,,,,,,,,,,,,,,,,,,,,,,,,,,,,,30821,2022-11-04_09h04.43.869,vts_reward_expectancy_bt_OFFLINE,2022.2.4,59.99473102564513,
1,0,0,0,0,1,0,0,triangle,circle,0,0,0,0,1,9,21,0,,,,,,,,,,,,,,,,,,,,,,,,,,,,,,,,,,,,,,,,183.98102202196606,183.98102202196606,183.98102202196606,183.98102202196606,183.98102202196606,183.98102202196606,183.98102202196606,183.98102202196606,183.98102202196606,183.98102202196606,l,0.502757006091997,10,94,0,184.5146252999548,,186.01692685193848,,,,,,,,,,,,,,,,,,,,,,,,,,,,,,,,,,,,,,,,,,,,,,,,,,,,,,,,,,,,,,,,,,,,,,30821,2022-11-04_09h04.43.869,vts_reward_expectancy_bt_OFFLINE,2022.2.4,59.99473102564513,
0,1,0,0,1,0,0,0,circle,triangle,0,0,0,0,1,10,22,3,,,,,,,,,,,,,,,,,,,,,,,,,,,,,,,,,,,,,,,,186.51723411795683,186.51723411795683,186.51723411795683,186.51723411795683,186.51723411795683,186.51723411795683,186.51723411795683,186.51723411795683,186.51723411795683,186.51723411795683,a,4.626647976110689,10,104,0,191.1705299859168,192.67107622895855,192.67107622895855,,,,,,,,,,,,,,,,,,,,,,,,,,,,,,,,,,,,,,,,,,,,,,,,,,,,,,,,,,,,,,,,,,,,,,30821,2022-11-04_09h04.43.869,vts_reward_expectancy_bt_OFFLINE,2022.2.4,59.99473102564513,
0,0,0,1,0,1,0,0,star ,circle,0,0,0,0,1,11,23,10,,,,,,,,,,,,,,,,,,,,,,,,,,,,,,,,,,,,,,,,193.1713473049458,193.1713473049458,193.1713473049458,193.1713473049458,193.1713473049458,193.1713473049458,193.1713473049458,193.1713473049458,193.1713473049458,193.1713473049458,l,0.0644108570413664,1,105,0,193.2552239599172,194.75533607695252,194.75533607695252,,,,,,,,,,,,,,,,,,,,,,,,,,,,,,,,,,,,,,,,,,,,,,,,,,,,,,,,,,,,,,,,,,,,,,30821,2022-11-04_09h04.43.869,vts_reward_expectancy_bt_OFFLINE,2022.2.4,59.99473102564513,
0,0,1,0,1,0,0,0,hexagon,triangle,0,0,0,0,2,0,24,6,,,,,,,,,,,,,,,,,,,,,,,,,,,,,,,,,,,,,,,,195.2555491969688,195.2555491969688,195.2555491969688,195.2555491969688,195.2555491969688,195.2555491969688,195.2555491969688,195.2555491969688,195.2555491969688,195.2555491969688,l,0.2762671890668571,10,115,0,195.55797900096513,197.0580932769226,197.0580932769226,197.55823677789886,,,,,,,,,,,,,,,,,,,,,,,,,,,,,,,,,,,,,,,,,,,,,,,,,,,,,,,,,,,,,,,,,,,,,30821,2022-11-04_09h04.43.869,vts_reward_expectancy_bt_OFFLINE,2022.2.4,59.99473102564513,
0,0,0,1,0,0,1,0,star,hexagon,0,0,0,0,2,1,25,11,,,,,,,,,,,,,,,,,,,,,,,,,,,,,,,,,,,,,,,,197.55823677789886,197.55823677789886,197.55823677789886,197.55823677789886,197.55823677789886,197.55823677789886,197.55823677789886,197.55823677789886,197.55823677789886,197.55823677789886,l,0.5720960091566667,1,116,0,198.15833624301013,199.65905560494866,199.65905560494866,,,,,,,,,,,,,,,,,,,,,,,,,,,,,,,,,,,,,,,,,,,,,,,,,,,,,,,,,,,,,,,,,,,,,,30821,2022-11-04_09h04.43.869,vts_reward_expectancy_bt_OFFLINE,2022.2.4,59.99473102564513,
0,0,1,0,0,1,0,0,hexagon,circle,0,0,0,0,2,2,26,7,,,,,,,,,,,,,,,,,,,,,,,,,,,,,,,,,,,,,,,,200.15910123090725,200.15910123090725,200.15910123090725,200.15910123090725,200.15910123090725,200.15910123090725,200.15910123090725,200.15910123090725,200.15910123090725,200.15910123090725,a,0.20995994901750237,10,126,0,200.39464936801232,201.8949578559259,201.8949578559259,202.39516052498948,,,,,,,,,,,,,,,,,,,,,,,,,,,,,,,,,,,,,,,,,,,,,,,,,,,,,,,,,,,,,,,,,,,,,30821,2022-11-04_09h04.43.869,vts_reward_expectancy_bt_OFFLINE,2022.2.4,59.99473102564513,
1,0,0,0,0,0,1,0,triangle,hexagon,0,0,0,0,2,3,27,1,,,,,,,,,,,,,,,,,,,,,,,,,,,,,,,,,,,,,,,,202.39516052498948,202.39516052498948,202.39516052498948,202.39516052498948,202.39516052498948,202.39516052498948,202.39516052498948,202.39516052498948,202.39516052498948,202.39516052498948,a,0.3824337280821055,10,136,0,202.7950903949095,204.29577480594162,204.29577480594162,204.79579114390071,,,,,,,,,,,,,,,,,,,,,,,,,,,,,,,,,,,,,,,,,,,,,,,,,,,,,,,,,,,,,,,,,,,,,30821,2022-11-04_09h04.43.869,vts_reward_expectancy_bt_OFFLINE,2022.2.4,59.99473102564513,
0,0,1,0,0,0,0,1,hexagon,star,0,0,0,0,2,4,28,8,,,,,,,,,,,,,,,,,,,,,,,,,,,,,,,,,,,,,,,,204.79579114390071,204.79579114390071,204.79579114390071,204.79579114390071,204.79579114390071,204.79579114390071,204.79579114390071,204.79579114390071,204.79579114390071,204.79579114390071,a,0.34411518508568406,1,137,0,205.1634499169886,,206.66535825794563,,,,,,,,,,,,,,,,,,,,,,,,,,,,,,,,,,,,,,,,,,,,,,,,,,,,,,,,,,,,,,,,,,,,,,30821,2022-11-04_09h04.43.869,vts_reward_expectancy_bt_OFFLINE,2022.2.4,59.99473102564513,
0,1,0,0,1,0,0,0,circle,triangle,0,0,0,0,2,5,29,3,,,,,,,,,,,,,,,,,,,,,,,,,,,,,,,,,,,,,,,,207.16532026894856,207.16532026894856,207.16532026894856,207.16532026894856,207.16532026894856,207.16532026894856,207.16532026894856,207.16532026894856,207.16532026894856,207.16532026894856,l,0.4607813630718738,1,138,0,207.64884146500845,209.1493495629402,209.1493495629402,209.6493052939186,,,,,,,,,,,,,,,,,,,,,,,,,,,,,,,,,,,,,,,,,,,,,,,,,,,,,,,,,,,,,,,,,,,,,30821,2022-11-04_09h04.43.869,vts_reward_expectancy_bt_OFFLINE,2022.2.4,59.99473102564513,
0,1,0,0,0,0,0,1,circle,star,0,0,0,0,2,6,30,5,,,,,,,,,,,,,,,,,,,,,,,,,,,,,,,,,,,,,,,,209.6493052939186,209.6493052939186,209.6493052939186,209.6493052939186,209.6493052939186,209.6493052939186,209.6493052939186,209.6493052939186,209.6493052939186,209.6493052939186,a,0.36085262696724385,10,148,0,210.0335469909478,,211.53558180399705,,,,,,,,,,,,,,,,,,,,,,,,,,,,,,,,,,,,,,,,,,,,,,,,,,,,,,,,,,,,,,,,,,,,,,30821,2022-11-04_09h04.43.869,vts_reward_expectancy_bt_OFFLINE,2022.2.4,59.99473102564513,
1,0,0,0,0,1,0,0,triangle,circle,0,0,0,0,2,7,31,0,,,,,,,,,,,,,,,,,,,,,,,,,,,,,,,,,,,,,,,,212.03571877791546,212.03571877791546,212.03571877791546,212.03571877791546,212.03571877791546,212.03571877791546,212.03571877791546,212.03571877791546,212.03571877791546,212.03571877791546,a,0.2700056601315737,10,158,0,212.33557782694697,213.83610881399363,213.83610881399363,214.3365351909306,,,,,,,,,,,,,,,,,,,,,,,,,,,,,,,,,,,,,,,,,,,,,,,,,,,,,,,,,,,,,,,,,,,,,30821,2022-11-04_09h04.43.869,vts_reward_expectancy_bt_OFFLINE,2022.2.4,59.99473102564513,
0,0,0,1,0,1,0,0,star ,circle,0,0,0,0,2,8,32,10,,,,,,,,,,,,,,,,,,,,,,,,,,,,,,,,,,,,,,,,214.3365351909306,214.3365351909306,214.3365351909306,214.3365351909306,214.3365351909306,214.3365351909306,214.3365351909306,214.3365351909306,214.3365351909306,214.3365351909306,l,0.3538684310624376,10,168,0,214.71989921596833,,216.22221369296312,,,,,,,,,,,,,,,,,,,,,,,,,,,,,,,,,,,,,,,,,,,,,,,,,,,,,,,,,,,,,,,,,,,,,,30821,2022-11-04_09h04.43.869,vts_reward_expectancy_bt_OFFLINE,2022.2.4,59.99473102564513,
1,0,0,0,0,0,0,1,triangle,star,0,0,0,0,2,9,33,2,,,,,,,,,,,,,,,,,,,,,,,,,,,,,,,,,,,,,,,,216.72240800294094,216.72240800294094,216.72240800294094,216.72240800294094,216.72240800294094,216.72240800294094,216.72240800294094,216.72240800294094,216.72240800294094,216.72240800294094,l,0.24155300401616842,1,169,0,216.98963529395405,218.4898862829432,218.4898862829432,218.989840499009,,,,,,,,,,,,,,,,,,,,,,,,,,,,,,,,,,,,,,,,,,,,,,,,,,,,,,,,,,,,,,,,,,,,,30821,2022-11-04_09h04.43.869,vts_reward_expectancy_bt_OFFLINE,2022.2.4,59.99473102564513,
0,1,0,0,0,0,1,0,circle,hexagon,0,0,0,0,2,10,34,4,,,,,,,,,,,,,,,,,,,,,,,,,,,,,,,,,,,,,,,,218.989840499009,218.989840499009,218.989840499009,218.989840499009,218.989840499009,218.989840499009,218.989840499009,218.989840499009,218.989840499009,218.989840499009,a,0.3244744890835136,10,179,0,219.3408236959949,,220.84238628891762,,,,,,,,,,,,,,,,,,,,,,,,,,,,,,,,,,,,,,,,,,,,,,,,,,,,,,,,,,,,,,,,,,,,,,30821,2022-11-04_09h04.43.869,vts_reward_expectancy_bt_OFFLINE,2022.2.4,59.99473102564513,
0,0,0,1,1,0,0,0,star,triangle,0,0,0,0,2,11,35,9,,,,,,,,,,,,,,,,,,,,,,,,,,,,,,,,,,,,,,,,221.34262078395113,221.34262078395113,221.34262078395113,221.34262078395113,221.34262078395113,221.34262078395113,221.34262078395113,221.34262078395113,221.34262078395113,221.34262078395113,a,0.424537290004082,1,180,0,221.79326209693681,223.29333802696783,223.29333802696783,223.79333118500654,,,,,,,,,,,,,,,,,,,,,,,,,,,,,,,,,,,,,,,,,,,,,,,,,,,,,,,,,,,,,,,,,,,,,30821,2022-11-04_09h04.43.869,vts_reward_expectancy_bt_OFFLINE,2022.2.4,59.99473102564513,
0,0,1,0,1,0,0,0,hexagon,triangle,0,0,0,0,3,0,36,6,,,,,,,,,,,,,,,,,,,,,,,,,,,,,,,,,,,,,,,,223.79333118500654,223.79333118500654,223.79333118500654,223.79333118500654,223.79333118500654,223.79333118500654,223.79333118500654,223.79333118500654,223.79333118500654,223.79333118500654,l,0.23485607712063938,10,190,0,224.06007486698218,,225.56257148098666,,,,,,,,,,,,,,,,,,,,,,,,,,,,,,,,,,,,,,,,,,,,,,,,,,,,,,,,,,,,,,,,,,,,,,30821,2022-11-04_09h04.43.869,vts_reward_expectancy_bt_OFFLINE,2022.2.4,59.99473102564513,
0,0,1,0,0,1,0,0,hexagon,circle,0,0,0,0,3,1,37,7,,,,,,,,,,,,,,,,,,,,,,,,,,,,,,,,,,,,,,,,226.06281218701042,226.06281218701042,226.06281218701042,226.06281218701042,226.06281218701042,226.06281218701042,226.06281218701042,226.06281218701042,226.06281218701042,226.06281218701042,l,0.3966003080131486,10,200,0,226.47945859190077,227.98022134695202,227.98022134695202,228.48043959692586,,,,,,,,,,,,,,,,,,,,,,,,,,,,,,,,,,,,,,,,,,,,,,,,,,,,,,,,,,,,,,,,,,,,,30821,2022-11-04_09h04.43.869,vts_reward_expectancy_bt_OFFLINE,2022.2.4,59.99473102564513,
1,0,0,0,0,1,0,0,triangle,circle,0,0,0,0,3,2,38,0,,,,,,,,,,,,,,,,,,,,,,,,,,,,,,,,,,,,,,,,228.48043959692586,228.48043959692586,228.48043959692586,228.48043959692586,228.48043959692586,228.48043959692586,228.48043959692586,228.48043959692586,228.48043959692586,228.48043959692586,a,0.341434485046193,10,210,0,228.84708910796326,,230.35260839294642,,,,,,,,,,,,,,,,,,,,,,,,,,,,,,,,,,,,,,,,,,,,,,,,,,,,,,,,,,,,,,,,,,,,,,30821,2022-11-04_09h04.43.869,vts_reward_expectancy_bt_OFFLINE,2022.2.4,59.99473102564513,
0,0,1,0,0,0,0,1,hexagon,star,0,0,0,0,3,3,39,8,,,,,,,,,,,,,,,,,,,,,,,,,,,,,,,,,,,,,,,,230.84964192891493,230.84964192891493,230.84964192891493,230.84964192891493,230.84964192891493,230.84964192891493,230.84964192891493,230.84964192891493,230.84964192891493,230.84964192891493,l,0.21047148411162198,1,211,0,231.0836871599313,232.58371155697387,232.58371155697387,233.08389697095845,,,,,,,,,,,,,,,,,,,,,,,,,,,,,,,,,,,,,,,,,,,,,,,,,,,,,,,,,,,,,,,,,,,,,30821,2022-11-04_09h04.43.869,vts_reward_expectancy_bt_OFFLINE,2022.2.4,59.99473102564513,
1,0,0,0,0,0,0,1,triangle,star,0,0,0,0,3,4,40,2,,,,,,,,,,,,,,,,,,,,,,,,,,,,,,,,,,,,,,,,233.08389697095845,233.08389697095845,233.08389697095845,233.08389697095845,233.08389697095845,233.08389697095845,233.08389697095845,233.08389697095845,233.08389697095845,233.08389697095845,l,0.33841875207144767,10,221,0,233.45143576094415,234.95135687093716,234.95135687093716,,,,,,,,,,,,,,,,,,,,,,,,,,,,,,,,,,,,,,,,,,,,,,,,,,,,,,,,,,,,,,,,,,,,,,30821,2022-11-04_09h04.43.869,vts_reward_expectancy_bt_OFFLINE,2022.2.4,59.99473102564513,
1,0,0,0,0,0,1,0,triangle,hexagon,0,0,0,0,3,5,41,1,,,,,,,,,,,,,,,,,,,,,,,,,,,,,,,,,,,,,,,,235.45308116998058,235.45308116998058,235.45308116998058,235.45308116998058,235.45308116998058,235.45308116998058,235.45308116998058,235.45308116998058,235.45308116998058,235.45308116998058,a,0.44501606409903616,1,222,0,235.92052404792048,237.42051443795208,237.42051443795208,237.92102448700462,,,,,,,,,,,,,,,,,,,,,,,,,,,,,,,,,,,,,,,,,,,,,,,,,,,,,,,,,,,,,,,,,,,,,30821,2022-11-04_09h04.43.869,vts_reward_expectancy_bt_OFFLINE,2022.2.4,59.99473102564513,
0,1,0,0,0,0,0,1,circle,star,0,0,0,0,3,6,42,5,,,,,,,,,,,,,,,,,,,,,,,,,,,,,,,,,,,,,,,,237.92102448700462,237.92102448700462,237.92102448700462,237.92102448700462,237.92102448700462,237.92102448700462,237.92102448700462,237.92102448700462,237.92102448700462,237.92102448700462,l,0.3063054031226784,10,232,0,238.2549769539619,239.75471844291314,239.75471844291314,240.25488827901427,,,,,,,,,,,,,,,,,,,,,,,,,,,,,,,,,,,,,,,,,,,,,,,,,,,,,,,,,,,,,,,,,,,,,30821,2022-11-04_09h04.43.869,vts_reward_expectancy_bt_OFFLINE,2022.2.4,59.99473102564513,
0,0,0,1,0,1,0,0,star ,circle,0,0,0,0,3,7,43,10,,,,,,,,,,,,,,,,,,,,,,,,,,,,,,,,,,,,,,,,240.25488827901427,240.25488827901427,240.25488827901427,240.25488827901427,240.25488827901427,240.25488827901427,240.25488827901427,240.25488827901427,240.25488827901427,240.25488827901427,l,0.3351316280895844,10,242,0,240.6069509339286,242.10746877500787,242.10746877500787,242.60744816891383,,,,,,,,,,,,,,,,,,,,,,,,,,,,,,,,,,,,,,,,,,,,,,,,,,,,,,,,,,,,,,,,,,,,,30821,2022-11-04_09h04.43.869,vts_reward_expectancy_bt_OFFLINE,2022.2.4,59.99473102564513,
0,1,0,0,1,0,0,0,circle,triangle,0,0,0,0,3,8,44,3,,,,,,,,,,,,,,,,,,,,,,,,,,,,,,,,,,,,,,,,242.60744816891383,242.60744816891383,242.60744816891383,242.60744816891383,242.60744816891383,242.60744816891383,242.60744816891383,242.60744816891383,242.60744816891383,242.60744816891383,a,0.2316265170229599,1,243,0,242.85893449292053,244.35818904801272,244.35818904801272,244.8584308619611,,,,,,,,,,,,,,,,,,,,,,,,,,,,,,,,,,,,,,,,,,,,,,,,,,,,,,,,,,,,,,,,,,,,,30821,2022-11-04_09h04.43.869,vts_reward_expectancy_bt_OFFLINE,2022.2.4,59.99473102564513,
0,0,0,1,1,0,0,0,star,triangle,0,0,0,0,3,9,45,9,,,,,,,,,,,,,,,,,,,,,,,,,,,,,,,,,,,,,,,,244.8584308619611,244.8584308619611,244.8584308619611,244.8584308619611,244.8584308619611,244.8584308619611,244.8584308619611,244.8584308619611,244.8584308619611,244.8584308619611,l,0.2982653310755268,10,253,0,245.17545032990165,,246.67754666600376,,,,,,,,,,,,,,,,,,,,,,,,,,,,,,,,,,,,,,,,,,,,,,,,,,,,,,,,,,,,,,,,,,,,,,30821,2022-11-04_09h04.43.869,vts_reward_expectancy_bt_OFFLINE,2022.2.4,59.99473102564513,
0,0,0,1,0,0,1,0,star,hexagon,0,0,0,0,3,10,46,11,,,,,,,,,,,,,,,,,,,,,,,,,,,,,,,,,,,,,,,,247.17775182100013,247.17775182100013,247.17775182100013,247.17775182100013,247.17775182100013,247.17775182100013,247.17775182100013,247.17775182100013,247.17775182100013,247.17775182100013,l,0.34282156405970454,1,254,0,247.54549055290408,249.04509165498894,249.04509165498894,249.5453582019545,,,,,,,,,,,,,,,,,,,,,,,,,,,,,,,,,,,,,,,,,,,,,,,,,,,,,,,,,,,,,,,,,,,,,30821,2022-11-04_09h04.43.869,vts_reward_expectancy_bt_OFFLINE,2022.2.4,59.99473102564513,
0,1,0,0,0,0,1,0,circle,hexagon,0,0,0,0,3,11,47,4,,,,,,,,,,,,,,,,,,,,,,,,,,,,,,,,,,,,,,,,249.5453582019545,249.5453582019545,249.5453582019545,249.5453582019545,249.5453582019545,249.5453582019545,249.5453582019545,249.5453582019545,249.5453582019545,249.5453582019545,a,0.8547408250160515,10,264,0,250.43155297194608,251.93127287493553,251.93127287493553,252.43805762799457,,,,,,,,,,,,,,,,,,,,,,,,,,,,,,,,,,,,,,,,,,,,,,,,,,,,,,,,,,,,,,,,,,,,,30821,2022-11-04_09h04.43.869,vts_reward_expectancy_bt_OFFLINE,2022.2.4,59.99473102564513,
0,0,1,0,1,0,0,0,hexagon,triangle,1,0,1,0,0,0,0,6,,,,,,,,,,,,,,,,,,,,,,,,,,,,,,,,,,,,,,,,259.7468562119175,259.7468562119175,259.7468562119175,259.7468562119175,259.7468562119175,259.7468562119175,259.7468562119175,259.7468562119175,259.7468562119175,259.7468562119175,a,0.4410561559488997,10,274,1,260.2195324919885,,261.7220621010056,,,,,,,,,,,,,,,,,,,,,,,,,,,,,,,,,,,,,,,,,,,,,,,,,,,,,,,,,,,,,,,,,,,,,,30821,2022-11-04_09h04.43.869,vts_reward_expectancy_bt_OFFLINE,2022.2.4,59.99473102564513,
1,0,0,0,0,0,1,0,triangle,hexagon,1,0,1,0,0,1,1,1,,,,,,,,,,,,,,,,,,,,,,,,,,,,,,,,,,,,,,,,262.22206440893933,262.22206440893933,262.22206440893933,262.22206440893933,262.22206440893933,262.22206440893933,262.22206440893933,262.22206440893933,262.22206440893933,262.22206440893933,a,0.6539252920774743,10,284,1,262.9055644099135,264.40710127796046,264.40710127796046,264.90634211490396,,,,,,,,,,,,,,,,,,,,,,,,,,,,,,,,,,,,,,,,,,,,,,,,,,,,,,,,,,,,,,,,,,,,,30821,2022-11-04_09h04.43.869,vts_reward_expectancy_bt_OFFLINE,2022.2.4,59.99473102564513,
1,0,0,0,0,0,0,1,triangle,star,1,0,1,0,0,2,2,2,,,,,,,,,,,,,,,,,,,,,,,,,,,,,,,,,,,,,,,,264.90634211490396,264.90634211490396,264.90634211490396,264.90634211490396,264.90634211490396,264.90634211490396,264.90634211490396,264.90634211490396,264.90634211490396,264.90634211490396,a,0.15261082211509347,10,294,1,265.08950540598016,,266.5922461109003,,,,,,,,,,,,,,,,,,,,,,,,,,,,,,,,,,,,,,,,,,,,,,,,,,,,,,,,,,,,,,,,,,,,,,30821,2022-11-04_09h04.43.869,vts_reward_expectancy_bt_OFFLINE,2022.2.4,59.99473102564513,
0,0,0,1,0,0,1,0,star,hexagon,1,0,1,0,0,3,3,11,,,,,,,,,,,,,,,,,,,,,,,,,,,,,,,,,,,,,,,,267.0923590780003,267.0923590780003,267.0923590780003,267.0923590780003,267.0923590780003,267.0923590780003,267.0923590780003,267.0923590780003,267.0923590780003,267.0923590780003,l,0.25120092602446675,1,295,1,267.37551884597633,268.8762908609351,268.8762908609351,269.3764146649046,,,,,,,,,,,,,,,,,,,,,,,,,,,,,,,,,,,,,,,,,,,,,,,,,,,,,,,,,,,,,,,,,,,,,30821,2022-11-04_09h04.43.869,vts_reward_expectancy_bt_OFFLINE,2022.2.4,59.99473102564513,
0,1,0,0,0,0,0,1,circle,star,1,0,1,0,0,4,4,5,,,,,,,,,,,,,,,,,,,,,,,,,,,,,,,,,,,,,,,,269.3764146649046,269.3764146649046,269.3764146649046,269.3764146649046,269.3764146649046,269.3764146649046,269.3764146649046,269.3764146649046,269.3764146649046,269.3764146649046,l,0.28484663204289973,1,296,1,269.69330381101463,,271.1953850709833,,,,,,,,,,,,,,,,,,,,,,,,,,,,,,,,,,,,,,,,,,,,,,,,,,,,,,,,,,,,,,,,,,,,,,30821,2022-11-04_09h04.43.869,vts_reward_expectancy_bt_OFFLINE,2022.2.4,59.99473102564513,
0,0,1,0,0,0,0,1,hexagon,star,1,0,1,0,0,5,5,8,,,,,,,,,,,,,,,,,,,,,,,,,,,,,,,,,,,,,,,,271.69575075397734,271.69575075397734,271.69575075397734,271.69575075397734,271.69575075397734,271.69575075397734,271.69575075397734,271.69575075397734,271.69575075397734,271.69575075397734,l,0.28210861107800156,1,297,1,271.99601390992757,273.49633603997063,273.49633603997063,273.99660508392844,,,,,,,,,,,,,,,,,,,,,,,,,,,,,,,,,,,,,,,,,,,,,,,,,,,,,,,,,,,,,,,,,,,,,30821,2022-11-04_09h04.43.869,vts_reward_expectancy_bt_OFFLINE,2022.2.4,59.99473102564513,
1,0,0,0,0,1,0,0,triangle,circle,1,0,1,0,0,6,6,0,,,,,,,,,,,,,,,,,,,,,,,,,,,,,,,,,,,,,,,,273.99660508392844,273.99660508392844,273.99660508392844,273.99660508392844,273.99660508392844,273.99660508392844,273.99660508392844,273.99660508392844,273.99660508392844,273.99660508392844,a,0.18603647407144308,10,307,1,274.2141468889313,,275.71563864301424,,,,,,,,,,,,,,,,,,,,,,,,,,,,,,,,,,,,,,,,,,,,,,,,,,,,,,,,,,,,,,,,,,,,,,30821,2022-11-04_09h04.43.869,vts_reward_expectancy_bt_OFFLINE,2022.2.4,59.99473102564513,
0,0,1,0,0,1,0,0,hexagon,circle,1,0,1,0,0,7,7,7,,,,,,,,,,,,,,,,,,,,,,,,,,,,,,,,,,,,,,,,276.21568559098523,276.21568559098523,276.21568559098523,276.21568559098523,276.21568559098523,276.21568559098523,276.21568559098523,276.21568559098523,276.21568559098523,276.21568559098523,a,0.3417569651501253,1,308,1,276.5837503679795,278.08324323093984,278.08324323093984,278.5832617379492,,,,,,,,,,,,,,,,,,,,,,,,,,,,,,,,,,,,,,,,,,,,,,,,,,,,,,,,,,,,,,,,,,,,,30821,2022-11-04_09h04.43.869,vts_reward_expectancy_bt_OFFLINE,2022.2.4,59.99473102564513,
0,0,0,1,1,0,0,0,star,triangle,1,0,1,0,0,8,8,9,,,,,,,,,,,,,,,,,,,,,,,,,,,,,,,,,,,,,,,,278.5832617379492,278.5832617379492,278.5832617379492,278.5832617379492,278.5832617379492,278.5832617379492,278.5832617379492,278.5832617379492,278.5832617379492,278.5832617379492,a,0.9888521591201425,1,309,1,279.60029849095736,,281.10275589791127,,,,,,,,,,,,,,,,,,,,,,,,,,,,,,,,,,,,,,,,,,,,,,,,,,,,,,,,,,,,,,,,,,,,,,30821,2022-11-04_09h04.43.869,vts_reward_expectancy_bt_OFFLINE,2022.2.4,59.99473102564513,
0,1,0,0,1,0,0,0,circle,triangle,1,0,1,0,0,9,9,3,,,,,,,,,,,,,,,,,,,,,,,,,,,,,,,,,,,,,,,,281.6030377219431,281.6030377219431,281.6030377219431,281.6030377219431,281.6030377219431,281.6030377219431,281.6030377219431,281.6030377219431,281.6030377219431,281.6030377219431,l,0.5450034850509837,10,319,1,282.1711841239594,283.67018441390246,283.67018441390246,284.17045710096136,,,,,,,,,,,,,,,,,,,,,,,,,,,,,,,,,,,,,,,,,,,,,,,,,,,,,,,,,,,,,,,,,,,,,30821,2022-11-04_09h04.43.869,vts_reward_expectancy_bt_OFFLINE,2022.2.4,59.99473102564513,
0,1,0,0,0,0,1,0,circle,hexagon,1,0,1,0,0,10,10,4,,,,,,,,,,,,,,,,,,,,,,,,,,,,,,,,,,,,,,,,284.17045710096136,284.17045710096136,284.17045710096136,284.17045710096136,284.17045710096136,284.17045710096136,284.17045710096136,284.17045710096136,284.17045710096136,284.17045710096136,a,0.45280823309440166,10,329,1,284.6540095380042,,286.15654506289866,,,,,,,,,,,,,,,,,,,,,,,,,,,,,,,,,,,,,,,,,,,,,,,,,,,,,,,,,,,,,,,,,,,,,,30821,2022-11-04_09h04.43.869,vts_reward_expectancy_bt_OFFLINE,2022.2.4,59.99473102564513,
0,0,0,1,0,1,0,0,star ,circle,1,0,1,0,0,11,11,10,,,,,,,,,,,,,,,,,,,,,,,,,,,,,,,,,,,,,,,,286.6567395039601,286.6567395039601,286.6567395039601,286.6567395039601,286.6567395039601,286.6567395039601,286.6567395039601,286.6567395039601,286.6567395039601,286.6567395039601,a,0.6901319840690121,10,339,1,287.37337342090905,288.8741239219671,288.8741239219671,289.3740910629276,,,,,,,,,,,,,,,,,,,,,,,,,,,,,,,,,,,,,,,,,,,,,,,,,,,,,,,,,,,,,,,,,,,,,30821,2022-11-04_09h04.43.869,vts_reward_expectancy_bt_OFFLINE,2022.2.4,59.99473102564513,
0,0,0,1,0,1,0,0,star ,circle,1,0,1,0,1,0,12,10,,,,,,,,,,,,,,,,,,,,,,,,,,,,,,,,,,,,,,,,289.3740910629276,289.3740910629276,289.3740910629276,289.3740910629276,289.3740910629276,289.3740910629276,289.3740910629276,289.3740910629276,289.3740910629276,289.3740910629276,l,0.4468615670921281,10,349,1,289.8409863410052,,291.3433582279831,,,,,,,,,,,,,,,,,,,,,,,,,,,,,,,,,,,,,,,,,,,,,,,,,,,,,,,,,,,,,,,,,,,,,,30821,2022-11-04_09h04.43.869,vts_reward_expectancy_bt_OFFLINE,2022.2.4,59.99473102564513,
0,1,0,0,0,0,1,0,circle,hexagon,1,0,1,0,1,1,13,4,,,,,,,,,,,,,,,,,,,,,,,,,,,,,,,,,,,,,,,,291.84380153298844,291.84380153298844,291.84380153298844,291.84380153298844,291.84380153298844,291.84380153298844,291.84380153298844,291.84380153298844,291.84380153298844,291.84380153298844,l,0.5655409680912271,1,350,1,292.4282036119839,293.9277550029801,293.9277550029801,294.42798867390957,,,,,,,,,,,,,,,,,,,,,,,,,,,,,,,,,,,,,,,,,,,,,,,,,,,,,,,,,,,,,,,,,,,,,30821,2022-11-04_09h04.43.869,vts_reward_expectancy_bt_OFFLINE,2022.2.4,59.99473102564513,
0,0,1,0,0,0,0,1,hexagon,star,1,0,1,0,1,2,14,8,,,,,,,,,,,,,,,,,,,,,,,,,,,,,,,,,,,,,,,,294.42798867390957,294.42798867390957,294.42798867390957,294.42798867390957,294.42798867390957,294.42798867390957,294.42798867390957,294.42798867390957,294.42798867390957,294.42798867390957,a,0.8608573040692136,1,351,1,295.31136322091334,,296.8139632899547,,,,,,,,,,,,,,,,,,,,,,,,,,,,,,,,,,,,,,,,,,,,,,,,,,,,,,,,,,,,,,,,,,,,,,30821,2022-11-04_09h04.43.869,vts_reward_expectancy_bt_OFFLINE,2022.2.4,59.99473102564513,
0,0,0,1,1,0,0,0,star,triangle,1,0,1,0,1,3,15,9,,,,,,,,,,,,,,,,,,,,,,,,,,,,,,,,,,,,,,,,297.314094480942,297.314094480942,297.314094480942,297.314094480942,297.314094480942,297.314094480942,297.314094480942,297.314094480942,297.314094480942,297.314094480942,a,0.8327422080328688,10,361,1,298.1653605219908,299.66484517394565,299.66484517394565,,,,,,,,,,,,,,,,,,,,,,,,,,,,,,,,,,,,,,,,,,,,,,,,,,,,,,,,,,,,,,,,,,,,,,30821,2022-11-04_09h04.43.869,vts_reward_expectancy_bt_OFFLINE,2022.2.4,59.99473102564513,
0,0,1,0,1,0,0,0,hexagon,triangle,1,0,1,0,1,4,16,6,,,,,,,,,,,,,,,,,,,,,,,,,,,,,,,,,,,,,,,,300.1653145638993,300.1653145638993,300.1653145638993,300.1653145638993,300.1653145638993,300.1653145638993,300.1653145638993,300.1653145638993,300.1653145638993,300.1653145638993,l,1.0416861650301144,10,371,1,301.2339482399402,302.734809327987,302.734809327987,303.23469494795427,,,,,,,,,,,,,,,,,,,,,,,,,,,,,,,,,,,,,,,,,,,,,,,,,,,,,,,,,,,,,,,,,,,,,30821,2022-11-04_09h04.43.869,vts_reward_expectancy_bt_OFFLINE,2022.2.4,59.99473102564513,
0,1,0,0,1,0,0,0,circle,triangle,1,0,1,0,1,5,17,3,,,,,,,,,,,,,,,,,,,,,,,,,,,,,,,,,,,,,,,,303.23469494795427,303.23469494795427,303.23469494795427,303.23469494795427,303.23469494795427,303.23469494795427,303.23469494795427,303.23469494795427,303.23469494795427,303.23469494795427,l,0.4468336320715025,10,381,1,303.7014617349487,305.2023986109998,305.2023986109998,,,,,,,,,,,,,,,,,,,,,,,,,,,,,,,,,,,,,,,,,,,,,,,,,,,,,,,,,,,,,,,,,,,,,,30821,2022-11-04_09h04.43.869,vts_reward_expectancy_bt_OFFLINE,2022.2.4,59.99473102564513,
1,0,0,0,0,0,0,1,triangle,star,1,0,1,0,1,6,18,2,,,,,,,,,,,,,,,,,,,,,,,,,,,,,,,,,,,,,,,,305.70398170594126,305.70398170594126,305.70398170594126,305.70398170594126,305.70398170594126,305.70398170594126,305.70398170594126,305.70398170594126,305.70398170594126,305.70398170594126,a,0.8351143480977044,10,391,1,306.5710801889654,308.071664485964,308.071664485964,308.5717814229429,,,,,,,,,,,,,,,,,,,,,,,,,,,,,,,,,,,,,,,,,,,,,,,,,,,,,,,,,,,,,,,,,,,,,30821,2022-11-04_09h04.43.869,vts_reward_expectancy_bt_OFFLINE,2022.2.4,59.99473102564513,
0,0,0,1,0,0,1,0,star,hexagon,1,0,1,0,1,7,19,11,,,,,,,,,,,,,,,,,,,,,,,,,,,,,,,,,,,,,,,,308.5717814229429,308.5717814229429,308.5717814229429,308.5717814229429,308.5717814229429,308.5717814229429,308.5717814229429,308.5717814229429,308.5717814229429,308.5717814229429,a,0.4651768751209602,1,392,1,309.0565556359943,,310.55774390499573,,,,,,,,,,,,,,,,,,,,,,,,,,,,,,,,,,,,,,,,,,,,,,,,,,,,,,,,,,,,,,,,,,,,,,30821,2022-11-04_09h04.43.869,vts_reward_expectancy_bt_OFFLINE,2022.2.4,59.99473102564513,
0,1,0,0,0,0,0,1,circle,star,1,0,1,0,1,8,20,5,,,,,,,,,,,,,,,,,,,,,,,,,,,,,,,,,,,,,,,,311.0580563109834,311.0580563109834,311.0580563109834,311.0580563109834,311.0580563109834,311.0580563109834,311.0580563109834,311.0580563109834,311.0580563109834,311.0580563109834,a,0.4770020090509206,10,402,1,311.55927446100395,313.0587441819953,313.0587441819953,313.55879054393154,,,,,,,,,,,,,,,,,,,,,,,,,,,,,,,,,,,,,,,,,,,,,,,,,,,,,,,,,,,,,,,,,,,,,30821,2022-11-04_09h04.43.869,vts_reward_expectancy_bt_OFFLINE,2022.2.4,59.99473102564513,
1,0,0,0,0,1,0,0,triangle,circle,1,0,1,0,1,9,21,0,,,,,,,,,,,,,,,,,,,,,,,,,,,,,,,,,,,,,,,,313.55879054393154,313.55879054393154,313.55879054393154,313.55879054393154,313.55879054393154,313.55879054393154,313.55879054393154,313.55879054393154,313.55879054393154,313.55879054393154,a,0.6081891381181777,10,412,1,314.19225412397645,,315.69477446901146,,,,,,,,,,,,,,,,,,,,,,,,,,,,,,,,,,,,,,,,,,,,,,,,,,,,,,,,,,,,,,,,,,,,,,30821,2022-11-04_09h04.43.869,vts_reward_expectancy_bt_OFFLINE,2022.2.4,59.99473102564513,
1,0,0,0,0,0,1,0,triangle,hexagon,1,0,1,0,1,10,22,1,,,,,,,,,,,,,,,,,,,,,,,,,,,,,,,,,,,,,,,,316.1949255299987,316.1949255299987,316.1949255299987,316.1949255299987,316.1949255299987,316.1949255299987,316.1949255299987,316.1949255299987,316.1949255299987,316.1949255299987,a,0.7853060000343248,10,422,1,317.0118543719873,318.5126251989277,318.5126251989277,319.0127086219145,,,,,,,,,,,,,,,,,,,,,,,,,,,,,,,,,,,,,,,,,,,,,,,,,,,,,,,,,,,,,,,,,,,,,30821,2022-11-04_09h04.43.869,vts_reward_expectancy_bt_OFFLINE,2022.2.4,59.99473102564513,
0,0,1,0,0,1,0,0,hexagon,circle,1,0,1,0,1,11,23,7,,,,,,,,,,,,,,,,,,,,,,,,,,,,,,,,,,,,,,,,319.0127086219145,319.0127086219145,319.0127086219145,319.0127086219145,319.0127086219145,319.0127086219145,319.0127086219145,319.0127086219145,319.0127086219145,319.0127086219145,l,0.487182414974086,1,423,1,319.5304705669405,,321.0317295489367,,,,,,,,,,,,,,,,,,,,,,,,,,,,,,,,,,,,,,,,,,,,,,,,,,,,,,,,,,,,,,,,,,,,,,30821,2022-11-04_09h04.43.869,vts_reward_expectancy_bt_OFFLINE,2022.2.4,59.99473102564513,
0,0,1,0,0,0,0,1,hexagon,star,1,0,1,0,2,0,24,8,,,,,,,,,,,,,,,,,,,,,,,,,,,,,,,,,,,,,,,,321.53204222396016,321.53204222396016,321.53204222396016,321.53204222396016,321.53204222396016,321.53204222396016,321.53204222396016,321.53204222396016,321.53204222396016,321.53204222396016,a,0.2857237111311406,1,424,1,321.8489764049882,323.3493108629482,323.3493108629482,323.84943695599213,,,,,,,,,,,,,,,,,,,,,,,,,,,,,,,,,,,,,,,,,,,,,,,,,,,,,,,,,,,,,,,,,,,,,30821,2022-11-04_09h04.43.869,vts_reward_expectancy_bt_OFFLINE,2022.2.4,59.99473102564513,
1,0,0,0,0,1,0,0,triangle,circle,1,0,1,0,2,1,25,0,,,,,,,,,,,,,,,,,,,,,,,,,,,,,,,,,,,,,,,,323.84943695599213,323.84943695599213,323.84943695599213,323.84943695599213,323.84943695599213,323.84943695599213,323.84943695599213,323.84943695599213,323.84943695599213,323.84943695599213,l,0.420453958096914,10,434,1,324.3007703339681,,325.8020196259022,,,,,,,,,,,,,,,,,,,,,,,,,,,,,,,,,,,,,,,,,,,,,,,,,,,,,,,,,,,,,,,,,,,,,,30821,2022-11-04_09h04.43.869,vts_reward_expectancy_bt_OFFLINE,2022.2.4,59.99473102564513,
0,1,0,0,0,0,0,1,circle,star,1,0,1,0,2,2,26,5,,,,,,,,,,,,,,,,,,,,,,,,,,,,,,,,,,,,,,,,326.30232592090033,326.30232592090033,326.30232592090033,326.30232592090033,326.30232592090033,326.30232592090033,326.30232592090033,326.30232592090033,326.30232592090033,326.30232592090033,l,0.3191696520661935,10,444,1,326.6523727820022,328.1529405389447,328.1529405389447,328.65298738190904,,,,,,,,,,,,,,,,,,,,,,,,,,,,,,,,,,,,,,,,,,,,,,,,,,,,,,,,,,,,,,,,,,,,,30821,2022-11-04_09h04.43.869,vts_reward_expectancy_bt_OFFLINE,2022.2.4,59.99473102564513,
0,1,0,0,1,0,0,0,circle,triangle,1,0,1,0,2,3,27,3,,,,,,,,,,,,,,,,,,,,,,,,,,,,,,,,,,,,,,,,328.65298738190904,328.65298738190904,328.65298738190904,328.65298738190904,328.65298738190904,328.65298738190904,328.65298738190904,328.65298738190904,328.65298738190904,328.65298738190904,a,0.5106514821527526,10,454,1,329.18659056397155,,330.6889095179504,,,,,,,,,,,,,,,,,,,,,,,,,,,,,,,,,,,,,,,,,,,,,,,,,,,,,,,,,,,,,,,,,,,,,,30821,2022-11-04_09h04.43.869,vts_reward_expectancy_bt_OFFLINE,2022.2.4,59.99473102564513,
1,0,0,0,0,0,0,1,triangle,star,1,0,1,0,2,4,28,2,,,,,,,,,,,,,,,,,,,,,,,,,,,,,,,,,,,,,,,,331.1890064639738,331.1890064639738,331.1890064639738,331.1890064639738,331.1890064639738,331.1890064639738,331.1890064639738,331.1890064639738,331.1890064639738,331.1890064639738,l,0.49469863704871386,1,455,1,331.70733382191975,333.20671385596506,333.20671385596506,333.70683019200806,,,,,,,,,,,,,,,,,,,,,,,,,,,,,,,,,,,,,,,,,,,,,,,,,,,,,,,,,,,,,,,,,,,,,30821,2022-11-04_09h04.43.869,vts_reward_expectancy_bt_OFFLINE,2022.2.4,59.99473102564513,
0,0,1,0,0,1,0,0,hexagon,circle,1,0,1,0,2,5,29,7,,,,,,,,,,,,,,,,,,,,,,,,,,,,,,,,,,,,,,,,333.70683019200806,333.70683019200806,333.70683019200806,333.70683019200806,333.70683019200806,333.70683019200806,333.70683019200806,333.70683019200806,333.70683019200806,333.70683019200806,l,0.42958041513338685,10,465,1,334.15782417496666,,335.65915236098226,,,,,,,,,,,,,,,,,,,,,,,,,,,,,,,,,,,,,,,,,,,,,,,,,,,,,,,,,,,,,,,,,,,,,,30821,2022-11-04_09h04.43.869,vts_reward_expectancy_bt_OFFLINE,2022.2.4,59.99473102564513,
0,0,0,1,1,0,0,0,star,triangle,1,0,1,0,2,6,30,9,,,,,,,,,,,,,,,,,,,,,,,,,,,,,,,,,,,,,,,,336.15958647895604,336.15958647895604,336.15958647895604,336.15958647895604,336.15958647895604,336.15958647895604,336.15958647895604,336.15958647895604,336.15958647895604,336.15958647895604,a,0.6205790210515261,1,466,1,336.8109757389175,338.31032698997296,338.31032698997296,338.81041037198156,,,,,,,,,,,,,,,,,,,,,,,,,,,,,,,,,,,,,,,,,,,,,,,,,,,,,,,,,,,,,,,,,,,,,30821,2022-11-04_09h04.43.869,vts_reward_expectancy_bt_OFFLINE,2022.2.4,59.99473102564513,
1,0,0,0,0,0,1,0,triangle,hexagon,1,0,1,0,2,7,31,1,,,,,,,,,,,,,,,,,,,,,,,,,,,,,,,,,,,,,,,,338.81041037198156,338.81041037198156,338.81041037198156,338.81041037198156,338.81041037198156,338.81041037198156,338.81041037198156,338.81041037198156,338.81041037198156,338.81041037198156,a,0.8504642830230296,10,476,1,339.6788124089362,,341.17983600799926,,,,,,,,,,,,,,,,,,,,,,,,,,,,,,,,,,,,,,,,,,,,,,,,,,,,,,,,,,,,,,,,,,,,,,30821,2022-11-04_09h04.43.869,vts_reward_expectancy_bt_OFFLINE,2022.2.4,59.99473102564513,
0,0,1,0,1,0,0,0,hexagon,triangle,1,0,1,0,2,8,32,6,,,,,,,,,,,,,,,,,,,,,,,,,,,,,,,,,,,,,,,,341.6799819479929,341.6799819479929,341.6799819479929,341.6799819479929,341.6799819479929,341.6799819479929,341.6799819479929,341.6799819479929,341.6799819479929,341.6799819479929,a,1.2545943200821057,10,486,1,342.9636824519839,344.46431783400476,344.46431783400476,,,,,,,,,,,,,,,,,,,,,,,,,,,,,,,,,,,,,,,,,,,,,,,,,,,,,,,,,,,,,,,,,,,,,,30821,2022-11-04_09h04.43.869,vts_reward_expectancy_bt_OFFLINE,2022.2.4,59.99473102564513,
0,0,0,1,0,0,1,0,star,hexagon,1,0,1,0,2,9,33,11,,,,,,,,,,,,,,,,,,,,,,,,,,,,,,,,,,,,,,,,344.96436227101367,344.96436227101367,344.96436227101367,344.96436227101367,344.96436227101367,344.96436227101367,344.96436227101367,344.96436227101367,344.96436227101367,344.96436227101367,l,1.1201620681677014,10,496,1,346.11673229094595,347.6173866339959,347.6173866339959,348.1174979949137,,,,,,,,,,,,,,,,,,,,,,,,,,,,,,,,,,,,,,,,,,,,,,,,,,,,,,,,,,,,,,,,,,,,,30821,2022-11-04_09h04.43.869,vts_reward_expectancy_bt_OFFLINE,2022.2.4,59.99473102564513,
0,1,0,0,0,0,1,0,circle,hexagon,1,0,1,0,2,10,34,4,,,,,,,,,,,,,,,,,,,,,,,,,,,,,,,,,,,,,,,,348.1174979949137,348.1174979949137,348.1174979949137,348.1174979949137,348.1174979949137,348.1174979949137,348.1174979949137,348.1174979949137,348.1174979949137,348.1174979949137,l,0.5205073971301317,10,506,1,348.6676763909636,350.1684274569852,350.1684274569852,,,,,,,,,,,,,,,,,,,,,,,,,,,,,,,,,,,,,,,,,,,,,,,,,,,,,,,,,,,,,,,,,,,,,,30821,2022-11-04_09h04.43.869,vts_reward_expectancy_bt_OFFLINE,2022.2.4,59.99473102564513,
0,0,0,1,0,1,0,0,star ,circle,1,0,1,0,2,11,35,10,,,,,,,,,,,,,,,,,,,,,,,,,,,,,,,,,,,,,,,,350.67042095190845,350.67042095190845,350.67042095190845,350.67042095190845,350.67042095190845,350.67042095190845,350.67042095190845,350.67042095190845,350.67042095190845,350.67042095190845,l,0.9829385940684006,10,516,1,351.6707637149375,353.1711800809717,353.1711800809717,353.67135615600273,,,,,,,,,,,,,,,,,,,,,,,,,,,,,,,,,,,,,,,,,,,,,,,,,,,,,,,,,,,,,,,,,,,,,30821,2022-11-04_09h04.43.869,vts_reward_expectancy_bt_OFFLINE,2022.2.4,59.99473102564513,
1,0,0,0,0,0,0,1,triangle,star,1,0,1,0,3,0,36,2,,,,,,,,,,,,,,,,,,,,,,,,,,,,,,,,,,,,,,,,353.67135615600273,353.67135615600273,353.67135615600273,353.67135615600273,353.67135615600273,353.67135615600273,353.67135615600273,353.67135615600273,353.67135615600273,353.67135615600273,a,0.5476855300366879,10,526,1,354.2381664419081,,355.74051040399354,,,,,,,,,,,,,,,,,,,,,,,,,,,,,,,,,,,,,,,,,,,,,,,,,,,,,,,,,,,,,,,,,,,,,,30821,2022-11-04_09h04.43.869,vts_reward_expectancy_bt_OFFLINE,2022.2.4,59.99473102564513,
0,0,1,0,0,0,0,1,hexagon,star,1,0,1,0,3,1,37,8,,,,,,,,,,,,,,,,,,,,,,,,,,,,,,,,,,,,,,,,356.2406890419079,356.2406890419079,356.2406890419079,356.2406890419079,356.2406890419079,356.2406890419079,356.2406890419079,356.2406890419079,356.2406890419079,356.2406890419079,l,0.4986418990883976,1,527,1,356.7589031069074,358.2580824389588,358.2580824389588,358.7582787829451,,,,,,,,,,,,,,,,,,,,,,,,,,,,,,,,,,,,,,,,,,,,,,,,,,,,,,,,,,,,,,,,,,,,,30821,2022-11-04_09h04.43.869,vts_reward_expectancy_bt_OFFLINE,2022.2.4,59.99473102564513,
0,0,1,0,1,0,0,0,hexagon,triangle,1,0,1,0,3,2,38,6,,,,,,,,,,,,,,,,,,,,,,,,,,,,,,,,,,,,,,,,358.7582787829451,358.7582787829451,358.7582787829451,358.7582787829451,358.7582787829451,358.7582787829451,358.7582787829451,358.7582787829451,358.7582787829451,358.7582787829451,a,0.6015986871207133,1,528,1,359.39206799899694,,360.89425113098696,,,,,,,,,,,,,,,,,,,,,,,,,,,,,,,,,,,,,,,,,,,,,,,,,,,,,,,,,,,,,,,,,,,,,,30821,2022-11-04_09h04.43.869,vts_reward_expectancy_bt_OFFLINE,2022.2.4,59.99473102564513,
0,0,1,0,0,1,0,0,hexagon,circle,1,0,1,0,3,3,39,7,,,,,,,,,,,,,,,,,,,,,,,,,,,,,,,,,,,,,,,,361.39453313394915,361.39453313394915,361.39453313394915,361.39453313394915,361.39453313394915,361.39453313394915,361.39453313394915,361.39453313394915,361.39453313394915,361.39453313394915,l,0.6773187321377918,1,529,1,362.0947680209065,363.5951597909443,363.5951597909443,364.0953769409098,,,,,,,,,,,,,,,,,,,,,,,,,,,,,,,,,,,,,,,,,,,,,,,,,,,,,,,,,,,,,,,,,,,,,30821,2022-11-04_09h04.43.869,vts_reward_expectancy_bt_OFFLINE,2022.2.4,59.99473102564513,
1,0,0,0,0,1,0,0,triangle,circle,1,0,1,0,3,4,40,0,,,,,,,,,,,,,,,,,,,,,,,,,,,,,,,,,,,,,,,,364.0953769409098,364.0953769409098,364.0953769409098,364.0953769409098,364.0953769409098,364.0953769409098,364.0953769409098,364.0953769409098,364.0953769409098,364.0953769409098,a,0.6647010770393535,10,539,1,364.7805396729382,,366.28134804498404,,,,,,,,,,,,,,,,,,,,,,,,,,,,,,,,,,,,,,,,,,,,,,,,,,,,,,,,,,,,,,,,,,,,,,30821,2022-11-04_09h04.43.869,vts_reward_expectancy_bt_OFFLINE,2022.2.4,59.99473102564513,
0,1,0,0,0,0,0,1,circle,star,1,0,1,0,3,5,41,5,,,,,,,,,,,,,,,,,,,,,,,,,,,,,,,,,,,,,,,,366.7816888949601,366.7816888949601,366.7816888949601,366.7816888949601,366.7816888949601,366.7816888949601,366.7816888949601,366.7816888949601,366.7816888949601,366.7816888949601,a,0.7346352740423754,10,549,1,367.5485034099547,369.0489792319713,369.0489792319713,369.5490965489298,,,,,,,,,,,,,,,,,,,,,,,,,,,,,,,,,,,,,,,,,,,,,,,,,,,,,,,,,,,,,,,,,,,,,30821,2022-11-04_09h04.43.869,vts_reward_expectancy_bt_OFFLINE,2022.2.4,59.99473102564513,
0,0,0,1,0,0,1,0,star,hexagon,1,0,1,0,3,6,42,11,,,,,,,,,,,,,,,,,,,,,,,,,,,,,,,,,,,,,,,,369.5490965489298,369.5490965489298,369.5490965489298,369.5490965489298,369.5490965489298,369.5490965489298,369.5490965489298,369.5490965489298,369.5490965489298,369.5490965489298,a,0.5331092120613903,10,559,1,370.09933785093017,,371.60188446496613,,,,,,,,,,,,,,,,,,,,,,,,,,,,,,,,,,,,,,,,,,,,,,,,,,,,,,,,,,,,,,,,,,,,,,30821,2022-11-04_09h04.43.869,vts_reward_expectancy_bt_OFFLINE,2022.2.4,59.99473102564513,
0,0,0,1,1,0,0,0,star,triangle,1,0,1,0,3,7,43,9,,,,,,,,,,,,,,,,,,,,,,,,,,,,,,,,,,,,,,,,372.10208109696396,372.10208109696396,372.10208109696396,372.10208109696396,372.10208109696396,372.10208109696396,372.10208109696396,372.10208109696396,372.10208109696396,372.10208109696396,l,0.8820765920681879,10,569,1,373.00221765600145,374.5029346150113,374.5029346150113,375.0031072029378,,,,,,,,,,,,,,,,,,,,,,,,,,,,,,,,,,,,,,,,,,,,,,,,,,,,,,,,,,,,,,,,,,,,,30821,2022-11-04_09h04.43.869,vts_reward_expectancy_bt_OFFLINE,2022.2.4,59.99473102564513,
0,0,0,1,0,1,0,0,star ,circle,1,0,1,0,3,8,44,10,,,,,,,,,,,,,,,,,,,,,,,,,,,,,,,,,,,,,,,,375.0031072029378,375.0031072029378,375.0031072029378,375.0031072029378,375.0031072029378,375.0031072029378,375.0031072029378,375.0031072029378,375.0031072029378,375.0031072029378,a,0.60294461005833,10,579,1,375.63816842390224,377.13897924497724,377.13897924497724,,,,,,,,,,,,,,,,,,,,,,,,,,,,,,,,,,,,,,,,,,,,,,,,,,,,,,,,,,,,,,,,,,,,,,30821,2022-11-04_09h04.43.869,vts_reward_expectancy_bt_OFFLINE,2022.2.4,59.99473102564513,
0,1,0,0,0,0,1,0,circle,hexagon,1,0,1,0,3,9,45,4,,,,,,,,,,,,,,,,,,,,,,,,,,,,,,,,,,,,,,,,377.6391176189063,377.6391176189063,377.6391176189063,377.6391176189063,377.6391176189063,377.6391176189063,377.6391176189063,377.6391176189063,377.6391176189063,377.6391176189063,a,0.67843635706231,10,589,1,378.3391596209258,379.83991080499254,379.83991080499254,380.33981942699756,,,,,,,,,,,,,,,,,,,,,,,,,,,,,,,,,,,,,,,,,,,,,,,,,,,,,,,,,,,,,,,,,,,,,30821,2022-11-04_09h04.43.869,vts_reward_expectancy_bt_OFFLINE,2022.2.4,59.99473102564513,
0,1,0,0,1,0,0,0,circle,triangle,1,0,1,0,3,10,46,3,,,,,,,,,,,,,,,,,,,,,,,,,,,,,,,,,,,,,,,,380.33981942699756,380.33981942699756,380.33981942699756,380.33981942699756,380.33981942699756,380.33981942699756,380.33981942699756,380.33981942699756,380.33981942699756,380.33981942699756,l,0.4302899860776961,10,599,1,380.7919923799345,382.29276333295275,382.29276333295275,,,,,,,,,,,,,,,,,,,,,,,,,,,,,,,,,,,,,,,,,,,,,,,,,,,,,,,,,,,,,,,,,,,,,,30821,2022-11-04_09h04.43.869,vts_reward_expectancy_bt_OFFLINE,2022.2.4,59.99473102564513,
1,0,0,0,0,0,1,0,triangle,hexagon,1,0,1,0,3,11,47,1,,,,,,,,,,,,,,,,,,,,,,,,,,,,,,,,,,,,,,,,382.79296729399357,382.79296729399357,382.79296729399357,382.79296729399357,382.79296729399357,382.79296729399357,382.79296729399357,382.79296729399357,382.79296729399357,382.79296729399357,a,0.7779336400562897,10,609,1,383.5930491499603,385.09374943200964,385.09374943200964,,,,,,,,,,,,,,,,,,,,,,,,,,,,,,,,,,,,,,,,,,,,,,,,,,,,,,,,,,,,,,,,,,,,,,30821,2022-11-04_09h04.43.869,vts_reward_expectancy_bt_OFFLINE,2022.2.4,59.99473102564513,
0,0,0,1,1,0,0,0,star,triangle,2,0,2,0,0,0,0,9,,,,,,,,,,,,,,,,,,,,,,,,,,,,,,,,,,,,,,,,389.6585411799606,389.6585411799606,389.6585411799606,389.6585411799606,389.6585411799606,389.6585411799606,389.6585411799606,389.6585411799606,389.6585411799606,389.6585411799606,a,1.1573764000786468,1,610,2,390.83433451200835,392.33331703499425,392.33331703499425,392.83329626196064,,,,,,,,,,,,,,,,,,,,,,,,,,,,,,,,,,,,,,,,,,,,,,,,,,,,,,,,,,,,,,,,,,,,,30821,2022-11-04_09h04.43.869,vts_reward_expectancy_bt_OFFLINE,2022.2.4,59.99473102564513,
0,1,0,0,0,0,1,0,circle,hexagon,2,0,2,0,0,1,1,4,,,,,,,,,,,,,,,,,,,,,,,,,,,,,,,,,,,,,,,,392.83329626196064,392.83329626196064,392.83329626196064,392.83329626196064,392.83329626196064,392.83329626196064,392.83329626196064,392.83329626196064,392.83329626196064,392.83329626196064,a,0.5258039380423725,10,620,2,393.38524998992216,,394.9009785889648,,,,,,,,,,,,,,,,,,,,,,,,,,,,,,,,,,,,,,,,,,,,,,,,,,,,,,,,,,,,,,,,,,,,,,30821,2022-11-04_09h04.43.869,vts_reward_expectancy_bt_OFFLINE,2022.2.4,59.99473102564513,
0,0,1,0,1,0,0,0,hexagon,triangle,2,0,2,0,0,2,2,6,,,,,,,,,,,,,,,,,,,,,,,,,,,,,,,,,,,,,,,,395.3843263119925,395.3843263119925,395.3843263119925,395.3843263119925,395.3843263119925,395.3843263119925,395.3843263119925,395.3843263119925,395.3843263119925,395.3843263119925,a,0.9790172671200708,10,630,2,396.3864594239276,397.88711645500734,397.88711645500734,398.38721070589963,,,,,,,,,,,,,,,,,,,,,,,,,,,,,,,,,,,,,,,,,,,,,,,,,,,,,,,,,,,,,,,,,,,,,30821,2022-11-04_09h04.43.869,vts_reward_expectancy_bt_OFFLINE,2022.2.4,59.99473102564513,
1,0,0,0,0,0,0,1,triangle,star,2,0,2,0,0,3,3,2,,,,,,,,,,,,,,,,,,,,,,,,,,,,,,,,,,,,,,,,398.38721070589963,398.38721070589963,398.38721070589963,398.38721070589963,398.38721070589963,398.38721070589963,398.38721070589963,398.38721070589963,398.38721070589963,398.38721070589963,a,0.8780022170394659,10,640,2,399.28766023600474,,400.78999155794736,,,,,,,,,,,,,,,,,,,,,,,,,,,,,,,,,,,,,,,,,,,,,,,,,,,,,,,,,,,,,,,,,,,,,,30821,2022-11-04_09h04.43.869,vts_reward_expectancy_bt_OFFLINE,2022.2.4,59.99473102564513,
0,0,1,0,0,1,0,0,hexagon,circle,2,0,2,0,0,4,4,7,,,,,,,,,,,,,,,,,,,,,,,,,,,,,,,,,,,,,,,,401.29003262799233,401.29003262799233,401.29003262799233,401.29003262799233,401.29003262799233,401.29003262799233,401.29003262799233,401.29003262799233,401.29003262799233,401.29003262799233,a,0.8776335610309616,1,641,2,402.1924270140007,,403.70772984891664,,,,,,,,,,,,,,,,,,,,,,,,,,,,,,,,,,,,,,,,,,,,,,,,,,,,,,,,,,,,,,,,,,,,,,30821,2022-11-04_09h04.43.869,vts_reward_expectancy_bt_OFFLINE,2022.2.4,59.99473102564513,
1,0,0,0,0,0,1,0,triangle,hexagon,2,0,2,0,0,5,5,1,,,,,,,,,,,,,,,,,,,,,,,,,,,,,,,,,,,,,,,,404.20798708091024,404.20798708091024,404.20798708091024,404.20798708091024,404.20798708091024,404.20798708091024,404.20798708091024,404.20798708091024,404.20798708091024,404.20798708091024,a,0.9527201079763472,10,651,2,405.1915162409423,,406.6938862099778,,,,,,,,,,,,,,,,,,,,,,,,,,,,,,,,,,,,,,,,,,,,,,,,,,,,,,,,,,,,,,,,,,,,,,30821,2022-11-04_09h04.43.869,vts_reward_expectancy_bt_OFFLINE,2022.2.4,59.99473102564513,
0,0,0,1,0,1,0,0,star ,circle,2,0,2,0,0,6,6,10,,,,,,,,,,,,,,,,,,,,,,,,,,,,,,,,,,,,,,,,407.194091059966,407.194091059966,407.194091059966,407.194091059966,407.194091059966,407.194091059966,407.194091059966,407.194091059966,407.194091059966,407.194091059966,a,0.7565053070429713,10,661,2,407.9777857719455,409.47813750698697,409.47813750698697,409.9785225399537,,,,,,,,,,,,,,,,,,,,,,,,,,,,,,,,,,,,,,,,,,,,,,,,,,,,,,,,,,,,,,,,,,,,,30821,2022-11-04_09h04.43.869,vts_reward_expectancy_bt_OFFLINE,2022.2.4,59.99473102564513,
0,0,1,0,0,0,0,1,hexagon,star,2,0,2,0,0,7,7,8,,,,,,,,,,,,,,,,,,,,,,,,,,,,,,,,,,,,,,,,409.9785225399537,409.9785225399537,409.9785225399537,409.9785225399537,409.9785225399537,409.9785225399537,409.9785225399537,409.9785225399537,409.9785225399537,409.9785225399537,a,0.8753691450692713,1,662,2,410.88188446394634,412.3812100579962,412.3812100579962,,,,,,,,,,,,,,,,,,,,,,,,,,,,,,,,,,,,,,,,,,,,,,,,,,,,,,,,,,,,,,,,,,,,,,30821,2022-11-04_09h04.43.869,vts_reward_expectancy_bt_OFFLINE,2022.2.4,59.99473102564513,
0,1,0,0,0,0,0,1,circle,star,2,0,2,0,0,8,8,5,,,,,,,,,,,,,,,,,,,,,,,,,,,,,,,,,,,,,,,,412.88147005892824,412.88147005892824,412.88147005892824,412.88147005892824,412.88147005892824,412.88147005892824,412.88147005892824,412.88147005892824,412.88147005892824,412.88147005892824,l,0.3792098640697077,1,663,2,413.2814365339,414.78207667695824,414.78207667695824,,,,,,,,,,,,,,,,,,,,,,,,,,,,,,,,,,,,,,,,,,,,,,,,,,,,,,,,,,,,,,,,,,,,,,30821,2022-11-04_09h04.43.869,vts_reward_expectancy_bt_OFFLINE,2022.2.4,59.99473102564513,
0,0,0,1,0,0,1,0,star,hexagon,2,0,2,0,0,9,9,11,,,,,,,,,,,,,,,,,,,,,,,,,,,,,,,,,,,,,,,,415.2822338239057,415.2822338239057,415.2822338239057,415.2822338239057,415.2822338239057,415.2822338239057,415.2822338239057,415.2822338239057,415.2822338239057,415.2822338239057,l,0.520964568015188,1,664,2,415.83425099996384,417.3346002269536,417.3346002269536,417.8351592560066,,,,,,,,,,,,,,,,,,,,,,,,,,,,,,,,,,,,,,,,,,,,,,,,,,,,,,,,,,,,,,,,,,,,,30821,2022-11-04_09h04.43.869,vts_reward_expectancy_bt_OFFLINE,2022.2.4,59.99473102564513,
0,1,0,0,1,0,0,0,circle,triangle,2,0,2,0,0,10,10,3,,,,,,,,,,,,,,,,,,,,,,,,,,,,,,,,,,,,,,,,417.8351592560066,417.8351592560066,417.8351592560066,417.8351592560066,417.8351592560066,417.8351592560066,417.8351592560066,417.8351592560066,417.8351592560066,417.8351592560066,l,0.8037437340244651,10,674,2,418.67016473796684,420.16917228593957,420.16917228593957,,,,,,,,,,,,,,,,,,,,,,,,,,,,,,,,,,,,,,,,,,,,,,,,,,,,,,,,,,,,,,,,,,,,,,30821,2022-11-04_09h04.43.869,vts_reward_expectancy_bt_OFFLINE,2022.2.4,59.99473102564513,
1,0,0,0,0,1,0,0,triangle,circle,2,0,2,0,0,11,11,0,,,,,,,,,,,,,,,,,,,,,,,,,,,,,,,,,,,,,,,,420.67120168497786,420.67120168497786,420.67120168497786,420.67120168497786,420.67120168497786,420.67120168497786,420.67120168497786,420.67120168497786,420.67120168497786,420.67120168497786,a,0.5102389779640362,1,675,2,421.2063858489273,,422.72192939696833,,,,,,,,,,,,,,,,,,,,,,,,,,,,,,,,,,,,,,,,,,,,,,,,,,,,,,,,,,,,,,,,,,,,,,30821,2022-11-04_09h04.43.869,vts_reward_expectancy_bt_OFFLINE,2022.2.4,59.99473102564513,
0,0,1,0,0,1,0,0,hexagon,circle,2,0,2,0,1,0,12,7,,,,,,,,,,,,,,,,,,,,,,,,,,,,,,,,,,,,,,,,423.2219930739375,423.2219930739375,423.2219930739375,423.2219930739375,423.2219930739375,423.2219930739375,423.2219930739375,423.2219930739375,423.2219930739375,423.2219930739375,a,1.896953035145998,10,685,2,425.1410397409927,,426.6417715079151,,,,,,,,,,,,,,,,,,,,,,,,,,,,,,,,,,,,,,,,,,,,,,,,,,,,,,,,,,,,,,,,,,,,,,30821,2022-11-04_09h04.43.869,vts_reward_expectancy_bt_OFFLINE,2022.2.4,59.99473102564513,
0,0,0,1,0,0,1,0,star,hexagon,2,0,2,0,1,1,13,11,,,,,,,,,,,,,,,,,,,,,,,,,,,,,,,,,,,,,,,,427.1420953019988,427.1420953019988,427.1420953019988,427.1420953019988,427.1420953019988,427.1420953019988,427.1420953019988,427.1420953019988,427.1420953019988,427.1420953019988,l,0.5644583649700508,1,686,2,427.72745781496633,,429.2429772079922,,,,,,,,,,,,,,,,,,,,,,,,,,,,,,,,,,,,,,,,,,,,,,,,,,,,,,,,,,,,,,,,,,,,,,30821,2022-11-04_09h04.43.869,vts_reward_expectancy_bt_OFFLINE,2022.2.4,59.99473102564513,
1,0,0,0,0,1,0,0,triangle,circle,2,0,2,0,1,2,14,0,,,,,,,,,,,,,,,,,,,,,,,,,,,,,,,,,,,,,,,,429.7262397359591,429.7262397359591,429.7262397359591,429.7262397359591,429.7262397359591,429.7262397359591,429.7262397359591,429.7262397359591,429.7262397359591,429.7262397359591,a,0.7823386390227824,10,696,2,430.5305456549395,,432.0456518610008,,,,,,,,,,,,,,,,,,,,,,,,,,,,,,,,,,,,,,,,,,,,,,,,,,,,,,,,,,,,,,,,,,,,,,30821,2022-11-04_09h04.43.869,vts_reward_expectancy_bt_OFFLINE,2022.2.4,59.99473102564513,
0,1,0,0,0,0,0,1,circle,star,2,0,2,0,1,3,15,5,,,,,,,,,,,,,,,,,,,,,,,,,,,,,,,,,,,,,,,,432.54575368296355,432.54575368296355,432.54575368296355,432.54575368296355,432.54575368296355,432.54575368296355,432.54575368296355,432.54575368296355,432.54575368296355,432.54575368296355,a,1.483772802981548,1,697,2,434.04818034893833,,435.54873031401075,,,,,,,,,,,,,,,,,,,,,,,,,,,,,,,,,,,,,,,,,,,,,,,,,,,,,,,,,,,,,,,,,,,,,,30821,2022-11-04_09h04.43.869,vts_reward_expectancy_bt_OFFLINE,2022.2.4,59.99473102564513,
0,0,0,1,0,1,0,0,star ,circle,2,0,2,0,1,4,16,10,,,,,,,,,,,,,,,,,,,,,,,,,,,,,,,,,,,,,,,,436.0488697789842,436.0488697789842,436.0488697789842,436.0488697789842,436.0488697789842,436.0488697789842,436.0488697789842,436.0488697789842,436.0488697789842,436.0488697789842,a,3.8976476889802143,1,698,2,439.96699239593,,441.4693347509019,,,,,,,,,,,,,,,,,,,,,,,,,,,,,,,,,,,,,,,,,,,,,,,,,,,,,,,,,,,,,,,,,,,,,,30821,2022-11-04_09h04.43.869,vts_reward_expectancy_bt_OFFLINE,2022.2.4,59.99473102564513,
0,0,1,0,0,0,0,1,hexagon,star,2,0,2,0,1,5,17,8,,,,,,,,,,,,,,,,,,,,,,,,,,,,,,,,,,,,,,,,441.9696536879055,441.9696536879055,441.9696536879055,441.9696536879055,441.9696536879055,441.9696536879055,441.9696536879055,441.9696536879055,441.9696536879055,441.9696536879055,a,0.4080546270124614,1,699,2,442.4030727579957,443.903473644983,443.903473644983,444.4044952299446,,,,,,,,,,,,,,,,,,,,,,,,,,,,,,,,,,,,,,,,,,,,,,,,,,,,,,,,,,,,,,,,,,,,,30821,2022-11-04_09h04.43.869,vts_reward_expectancy_bt_OFFLINE,2022.2.4,59.99473102564513,
0,1,0,0,0,0,1,0,circle,hexagon,2,0,2,0,1,6,18,4,,,,,,,,,,,,,,,,,,,,,,,,,,,,,,,,,,,,,,,,444.4044952299446,444.4044952299446,444.4044952299446,444.4044952299446,444.4044952299446,444.4044952299446,444.4044952299446,444.4044952299446,444.4044952299446,444.4044952299446,l,0.559776465059258,1,700,2,444.9871841369895,,446.48986671993043,,,,,,,,,,,,,,,,,,,,,,,,,,,,,,,,,,,,,,,,,,,,,,,,,,,,,,,,,,,,,,,,,,,,,,30821,2022-11-04_09h04.43.869,vts_reward_expectancy_bt_OFFLINE,2022.2.4,59.99473102564513,
0,0,0,1,1,0,0,0,star,triangle,2,0,2,0,1,7,19,9,,,,,,,,,,,,,,,,,,,,,,,,,,,,,,,,,,,,,,,,446.9898898949614,446.9898898949614,446.9898898949614,446.9898898949614,446.9898898949614,446.9898898949614,446.9898898949614,446.9898898949614,446.9898898949614,446.9898898949614,a,0.33682241407223046,1,701,2,447.3565295540029,448.8569144589128,448.8569144589128,449.3574261099566,,,,,,,,,,,,,,,,,,,,,,,,,,,,,,,,,,,,,,,,,,,,,,,,,,,,,,,,,,,,,,,,,,,,,30821,2022-11-04_09h04.43.869,vts_reward_expectancy_bt_OFFLINE,2022.2.4,59.99473102564513,
1,0,0,0,0,0,0,1,triangle,star,2,0,2,0,1,8,20,2,,,,,,,,,,,,,,,,,,,,,,,,,,,,,,,,,,,,,,,,449.3574261099566,449.3574261099566,449.3574261099566,449.3574261099566,449.3574261099566,449.3574261099566,449.3574261099566,449.3574261099566,449.3574261099566,449.3574261099566,l,0.7707262670155615,1,702,2,450.15761765500065,,451.6601923009148,,,,,,,,,,,,,,,,,,,,,,,,,,,,,,,,,,,,,,,,,,,,,,,,,,,,,,,,,,,,,,,,,,,,,,30821,2022-11-04_09h04.43.869,vts_reward_expectancy_bt_OFFLINE,2022.2.4,59.99473102564513,
0,0,1,0,1,0,0,0,hexagon,triangle,2,0,2,0,1,9,21,6,,,,,,,,,,,,,,,,,,,,,,,,,,,,,,,,,,,,,,,,452.1601557309041,452.1601557309041,452.1601557309041,452.1601557309041,452.1601557309041,452.1601557309041,452.1601557309041,452.1601557309041,452.1601557309041,452.1601557309041,a,2.3779894780600443,1,703,2,454.56102518190164,,456.0634053249378,,,,,,,,,,,,,,,,,,,,,,,,,,,,,,,,,,,,,,,,,,,,,,,,,,,,,,,,,,,,,,,,,,,,,,30821,2022-11-04_09h04.43.869,vts_reward_expectancy_bt_OFFLINE,2022.2.4,59.99473102564513,
0,1,0,0,1,0,0,0,circle,triangle,2,0,2,0,1,10,22,3,,,,,,,,,,,,,,,,,,,,,,,,,,,,,,,,,,,,,,,,456.5636952019995,456.5636952019995,456.5636952019995,456.5636952019995,456.5636952019995,456.5636952019995,456.5636952019995,456.5636952019995,456.5636952019995,456.5636952019995,a,0.7431101449765265,10,713,2,457.33268008800223,,458.84785817493685,,,,,,,,,,,,,,,,,,,,,,,,,,,,,,,,,,,,,,,,,,,,,,,,,,,,,,,,,,,,,,,,,,,,,,30821,2022-11-04_09h04.43.869,vts_reward_expectancy_bt_OFFLINE,2022.2.4,59.99473102564513,
1,0,0,0,0,0,1,0,triangle,hexagon,2,0,2,0,1,11,23,1,,,,,,,,,,,,,,,,,,,,,,,,,,,,,,,,,,,,,,,,459.34796020400245,459.34796020400245,459.34796020400245,459.34796020400245,459.34796020400245,459.34796020400245,459.34796020400245,459.34796020400245,459.34796020400245,459.34796020400245,a,0.6353734381264076,10,723,2,460.0148838449968,,461.5171115680132,,,,,,,,,,,,,,,,,,,,,,,,,,,,,,,,,,,,,,,,,,,,,,,,,,,,,,,,,,,,,,,,,,,,,,30821,2022-11-04_09h04.43.869,vts_reward_expectancy_bt_OFFLINE,2022.2.4,59.99473102564513,
1,0,0,0,0,0,0,1,triangle,star,2,0,2,0,2,0,24,2,,,,,,,,,,,,,,,,,,,,,,,,,,,,,,,,,,,,,,,,462.0174637999153,462.0174637999153,462.0174637999153,462.0174637999153,462.0174637999153,462.0174637999153,462.0174637999153,462.0174637999153,462.0174637999153,462.0174637999153,l,0.8462500401074067,1,724,2,462.8864165159175,,464.401747255004,,,,,,,,,,,,,,,,,,,,,,,,,,,,,,,,,,,,,,,,,,,,,,,,,,,,,,,,,,,,,,,,,,,,,,30821,2022-11-04_09h04.43.869,vts_reward_expectancy_bt_OFFLINE,2022.2.4,59.99473102564513,
0,0,1,0,0,0,0,1,hexagon,star,2,0,2,0,2,1,25,8,,,,,,,,,,,,,,,,,,,,,,,,,,,,,,,,,,,,,,,,464.90178063500207,464.90178063500207,464.90178063500207,464.90178063500207,464.90178063500207,464.90178063500207,464.90178063500207,464.90178063500207,464.90178063500207,464.90178063500207,a,0.28005461709108204,1,725,2,465.20189358398784,,466.70431454794016,,,,,,,,,,,,,,,,,,,,,,,,,,,,,,,,,,,,,,,,,,,,,,,,,,,,,,,,,,,,,,,,,,,,,,30821,2022-11-04_09h04.43.869,vts_reward_expectancy_bt_OFFLINE,2022.2.4,59.99473102564513,
0,0,1,0,1,0,0,0,hexagon,triangle,2,0,2,0,2,2,26,6,,,,,,,,,,,,,,,,,,,,,,,,,,,,,,,,,,,,,,,,467.204619858996,467.204619858996,467.204619858996,467.204619858996,467.204619858996,467.204619858996,467.204619858996,467.204619858996,467.204619858996,467.204619858996,l,0.42925346503034234,10,735,2,467.6564880919177,,469.17194059991743,,,,,,,,,,,,,,,,,,,,,,,,,,,,,,,,,,,,,,,,,,,,,,,,,,,,,,,,,,,,,,,,,,,,,,30821,2022-11-04_09h04.43.869,vts_reward_expectancy_bt_OFFLINE,2022.2.4,59.99473102564513,
0,0,1,0,0,1,0,0,hexagon,circle,2,0,2,0,2,3,27,7,,,,,,,,,,,,,,,,,,,,,,,,,,,,,,,,,,,,,,,,469.6720386259258,469.6720386259258,469.6720386259258,469.6720386259258,469.6720386259258,469.6720386259258,469.6720386259258,469.6720386259258,469.6720386259258,469.6720386259258,l,1.7651854330906644,10,745,2,471.45767883898225,472.9583379869582,472.9583379869582,,,,,,,,,,,,,,,,,,,,,,,,,,,,,,,,,,,,,,,,,,,,,,,,,,,,,,,,,,,,,,,,,,,,,,30821,2022-11-04_09h04.43.869,vts_reward_expectancy_bt_OFFLINE,2022.2.4,59.99473102564513,
0,0,0,1,0,0,1,0,star,hexagon,2,0,2,0,2,4,28,11,,,,,,,,,,,,,,,,,,,,,,,,,,,,,,,,,,,,,,,,473.4586181800114,473.4586181800114,473.4586181800114,473.4586181800114,473.4586181800114,473.4586181800114,473.4586181800114,473.4586181800114,473.4586181800114,473.4586181800114,a,0.3860674410825595,1,746,2,473.8772340749856,,475.3928257669322,,,,,,,,,,,,,,,,,,,,,,,,,,,,,,,,,,,,,,,,,,,,,,,,,,,,,,,,,,,,,,,,,,,,,,30821,2022-11-04_09h04.43.869,vts_reward_expectancy_bt_OFFLINE,2022.2.4,59.99473102564513,
0,0,0,1,0,1,0,0,star ,circle,2,0,2,0,2,5,29,10,,,,,,,,,,,,,,,,,,,,,,,,,,,,,,,,,,,,,,,,475.8778753399383,475.8778753399383,475.8778753399383,475.8778753399383,475.8778753399383,475.8778753399383,475.8778753399383,475.8778753399383,475.8778753399383,475.8778753399383,l,0.41954212507698685,10,756,2,476.32803834194783,477.82868863700423,477.82868863700423,478.328829670907,,,,,,,,,,,,,,,,,,,,,,,,,,,,,,,,,,,,,,,,,,,,,,,,,,,,,,,,,,,,,,,,,,,,,30821,2022-11-04_09h04.43.869,vts_reward_expectancy_bt_OFFLINE,2022.2.4,59.99473102564513,
0,1,0,0,0,0,1,0,circle,hexagon,2,0,2,0,2,6,30,4,,,,,,,,,,,,,,,,,,,,,,,,,,,,,,,,,,,,,,,,478.328829670907,478.328829670907,478.328829670907,478.328829670907,478.328829670907,478.328829670907,478.328829670907,478.328829670907,478.328829670907,478.328829670907,a,0.6230322100454941,10,766,2,478.97906694200356,,480.47961384791415,,,,,,,,,,,,,,,,,,,,,,,,,,,,,,,,,,,,,,,,,,,,,,,,,,,,,,,,,,,,,,,,,,,,,,30821,2022-11-04_09h04.43.869,vts_reward_expectancy_bt_OFFLINE,2022.2.4,59.99473102564513,
1,0,0,0,0,1,0,0,triangle,circle,2,0,2,0,2,7,31,0,,,,,,,,,,,,,,,,,,,,,,,,,,,,,,,,,,,,,,,,480.98121076694224,480.98121076694224,480.98121076694224,480.98121076694224,480.98121076694224,480.98121076694224,480.98121076694224,480.98121076694224,480.98121076694224,480.98121076694224,l,0.5811240290058777,1,767,2,481.5836848579347,,483.0989744939143,,,,,,,,,,,,,,,,,,,,,,,,,,,,,,,,,,,,,,,,,,,,,,,,,,,,,,,,,,,,,,,,,,,,,,30821,2022-11-04_09h04.43.869,vts_reward_expectancy_bt_OFFLINE,2022.2.4,59.99473102564513,
0,1,0,0,0,0,0,1,circle,star,2,0,2,0,2,8,32,5,,,,,,,,,,,,,,,,,,,,,,,,,,,,,,,,,,,,,,,,483.5991514889756,483.5991514889756,483.5991514889756,483.5991514889756,483.5991514889756,483.5991514889756,483.5991514889756,483.5991514889756,483.5991514889756,483.5991514889756,a,0.5279627940617502,10,777,2,484.1511957299663,,485.6518253539689,,,,,,,,,,,,,,,,,,,,,,,,,,,,,,,,,,,,,,,,,,,,,,,,,,,,,,,,,,,,,,,,,,,,,,30821,2022-11-04_09h04.43.869,vts_reward_expectancy_bt_OFFLINE,2022.2.4,59.99473102564513,
0,0,0,1,1,0,0,0,star,triangle,2,0,2,0,2,9,33,9,,,,,,,,,,,,,,,,,,,,,,,,,,,,,,,,,,,,,,,,486.15179237991106,486.15179237991106,486.15179237991106,486.15179237991106,486.15179237991106,486.15179237991106,486.15179237991106,486.15179237991106,486.15179237991106,486.15179237991106,l,1.0586327571654692,10,787,2,487.23563073494006,488.73636492691,488.73636492691,489.23640386690386,,,,,,,,,,,,,,,,,,,,,,,,,,,,,,,,,,,,,,,,,,,,,,,,,,,,,,,,,,,,,,,,,,,,,30821,2022-11-04_09h04.43.869,vts_reward_expectancy_bt_OFFLINE,2022.2.4,59.99473102564513,
0,1,0,0,1,0,0,0,circle,triangle,2,0,2,0,2,10,34,3,,,,,,,,,,,,,,,,,,,,,,,,,,,,,,,,,,,,,,,,489.23640386690386,489.23640386690386,489.23640386690386,489.23640386690386,489.23640386690386,489.23640386690386,489.23640386690386,489.23640386690386,489.23640386690386,489.23640386690386,l,0.8764529330655932,10,797,2,490.13679198594764,,491.6391235910123,,,,,,,,,,,,,,,,,,,,,,,,,,,,,,,,,,,,,,,,,,,,,,,,,,,,,,,,,,,,,,,,,,,,,,30821,2022-11-04_09h04.43.869,vts_reward_expectancy_bt_OFFLINE,2022.2.4,59.99473102564513,
1,0,0,0,0,0,1,0,triangle,hexagon,2,0,2,0,2,11,35,1,,,,,,,,,,,,,,,,,,,,,,,,,,,,,,,,,,,,,,,,492.1393808949506,492.1393808949506,492.1393808949506,492.1393808949506,492.1393808949506,492.1393808949506,492.1393808949506,492.1393808949506,492.1393808949506,492.1393808949506,a,2.3164790520677343,10,807,2,494.4734804430045,,495.9758698629448,,,,,,,,,,,,,,,,,,,,,,,,,,,,,,,,,,,,,,,,,,,,,,,,,,,,,,,,,,,,,,,,,,,,,,30821,2022-11-04_09h04.43.869,vts_reward_expectancy_bt_OFFLINE,2022.2.4,59.99473102564513,
0,1,0,0,0,0,0,1,circle,star,2,0,2,0,3,0,36,5,,,,,,,,,,,,,,,,,,,,,,,,,,,,,,,,,,,,,,,,496.4758673919132,496.4758673919132,496.4758673919132,496.4758673919132,496.4758673919132,496.4758673919132,496.4758673919132,496.4758673919132,496.4758673919132,496.4758673919132,a,1.8265841450775042,10,817,2,498.3268461499829,499.8273646319285,499.8273646319285,500.3274731619749,,,,,,,,,,,,,,,,,,,,,,,,,,,,,,,,,,,,,,,,,,,,,,,,,,,,,,,,,,,,,,,,,,,,,30821,2022-11-04_09h04.43.869,vts_reward_expectancy_bt_OFFLINE,2022.2.4,59.99473102564513,
0,0,1,0,1,0,0,0,hexagon,triangle,2,0,2,0,3,1,37,6,,,,,,,,,,,,,,,,,,,,,,,,,,,,,,,,,,,,,,,,500.3274731619749,500.3274731619749,500.3274731619749,500.3274731619749,500.3274731619749,500.3274731619749,500.3274731619749,500.3274731619749,500.3274731619749,500.3274731619749,a,0.563403871958144,10,827,2,500.91274338192306,502.41341240890324,502.41341240890324,502.9135723329382,,,,,,,,,,,,,,,,,,,,,,,,,,,,,,,,,,,,,,,,,,,,,,,,,,,,,,,,,,,,,,,,,,,,,30821,2022-11-04_09h04.43.869,vts_reward_expectancy_bt_OFFLINE,2022.2.4,59.99473102564513,
1,0,0,0,0,1,0,0,triangle,circle,2,0,2,0,3,2,38,0,,,,,,,,,,,,,,,,,,,,,,,,,,,,,,,,,,,,,,,,502.9135723329382,502.9135723329382,502.9135723329382,502.9135723329382,502.9135723329382,502.9135723329382,502.9135723329382,502.9135723329382,502.9135723329382,502.9135723329382,l,1.5657341300975531,10,837,2,504.49737779190764,,505.9995936709456,,,,,,,,,,,,,,,,,,,,,,,,,,,,,,,,,,,,,,,,,,,,,,,,,,,,,,,,,,,,,,,,,,,,,,30821,2022-11-04_09h04.43.869,vts_reward_expectancy_bt_OFFLINE,2022.2.4,59.99473102564513,
0,0,0,1,0,1,0,0,star ,circle,2,0,2,0,3,3,39,10,,,,,,,,,,,,,,,,,,,,,,,,,,,,,,,,,,,,,,,,506.49987430498004,506.49987430498004,506.49987430498004,506.49987430498004,506.49987430498004,506.49987430498004,506.49987430498004,506.49987430498004,506.49987430498004,506.49987430498004,l,0.6350221130996943,1,838,2,507.16692465695087,508.6673341669375,508.6673341669375,509.1674966189312,,,,,,,,,,,,,,,,,,,,,,,,,,,,,,,,,,,,,,,,,,,,,,,,,,,,,,,,,,,,,,,,,,,,,30821,2022-11-04_09h04.43.869,vts_reward_expectancy_bt_OFFLINE,2022.2.4,59.99473102564513,
0,0,1,0,0,0,0,1,hexagon,star,2,0,2,0,3,4,40,8,,,,,,,,,,,,,,,,,,,,,,,,,,,,,,,,,,,,,,,,509.1674966189312,509.1674966189312,509.1674966189312,509.1674966189312,509.1674966189312,509.1674966189312,509.1674966189312,509.1674966189312,509.1674966189312,509.1674966189312,l,0.4307248251279816,1,839,2,509.6178714049747,,511.11994217394385,,,,,,,,,,,,,,,,,,,,,,,,,,,,,,,,,,,,,,,,,,,,,,,,,,,,,,,,,,,,,,,,,,,,,,30821,2022-11-04_09h04.43.869,vts_reward_expectancy_bt_OFFLINE,2022.2.4,59.99473102564513,
1,0,0,0,0,0,1,0,triangle,hexagon,2,0,2,0,3,5,41,1,,,,,,,,,,,,,,,,,,,,,,,,,,,,,,,,,,,,,,,,511.62027767591644,511.62027767591644,511.62027767591644,511.62027767591644,511.62027767591644,511.62027767591644,511.62027767591644,511.62027767591644,511.62027767591644,511.62027767591644,a,2.208403140073642,10,849,2,513.856270506978,,515.3716814259533,,,,,,,,,,,,,,,,,,,,,,,,,,,,,,,,,,,,,,,,,,,,,,,,,,,,,,,,,,,,,,,,,,,,,,30821,2022-11-04_09h04.43.869,vts_reward_expectancy_bt_OFFLINE,2022.2.4,59.99473102564513,
0,1,0,0,1,0,0,0,circle,triangle,2,0,2,0,3,6,42,3,,,,,,,,,,,,,,,,,,,,,,,,,,,,,,,,,,,,,,,,515.8568333239527,515.8568333239527,515.8568333239527,515.8568333239527,515.8568333239527,515.8568333239527,515.8568333239527,515.8568333239527,515.8568333239527,515.8568333239527,a,0.6942847580648959,10,859,2,516.5742022969062,518.0744912819937,518.0744912819937,518.5747539990116,,,,,,,,,,,,,,,,,,,,,,,,,,,,,,,,,,,,,,,,,,,,,,,,,,,,,,,,,,,,,,,,,,,,,30821,2022-11-04_09h04.43.869,vts_reward_expectancy_bt_OFFLINE,2022.2.4,59.99473102564513,
0,0,0,1,0,0,1,0,star,hexagon,2,0,2,0,3,7,43,11,,,,,,,,,,,,,,,,,,,,,,,,,,,,,,,,,,,,,,,,518.5747539990116,518.5747539990116,518.5747539990116,518.5747539990116,518.5747539990116,518.5747539990116,518.5747539990116,518.5747539990116,518.5747539990116,518.5747539990116,a,0.9355937930522487,1,860,2,519.5415514239576,,521.04410383699,,,,,,,,,,,,,,,,,,,,,,,,,,,,,,,,,,,,,,,,,,,,,,,,,,,,,,,,,,,,,,,,,,,,,,30821,2022-11-04_09h04.43.869,vts_reward_expectancy_bt_OFFLINE,2022.2.4,59.99473102564513,
0,1,0,0,0,0,1,0,circle,hexagon,2,0,2,0,3,8,44,4,,,,,,,,,,,,,,,,,,,,,,,,,,,,,,,,,,,,,,,,521.5440953329671,521.5440953329671,521.5440953329671,521.5440953329671,521.5440953329671,521.5440953329671,521.5440953329671,521.5440953329671,521.5440953329671,521.5440953329671,a,0.9131756899878383,10,870,2,522.4801192029845,,523.9949293839745,,,,,,,,,,,,,,,,,,,,,,,,,,,,,,,,,,,,,,,,,,,,,,,,,,,,,,,,,,,,,,,,,,,,,,30821,2022-11-04_09h04.43.869,vts_reward_expectancy_bt_OFFLINE,2022.2.4,59.99473102564513,
0,0,1,0,0,1,0,0,hexagon,circle,2,0,2,0,3,9,45,7,,,,,,,,,,,,,,,,,,,,,,,,,,,,,,,,,,,,,,,,524.4952035099268,524.4952035099268,524.4952035099268,524.4952035099268,524.4952035099268,524.4952035099268,524.4952035099268,524.4952035099268,524.4952035099268,524.4952035099268,l,0.5044085080735385,10,880,2,525.028848899994,,526.5311035419581,,,,,,,,,,,,,,,,,,,,,,,,,,,,,,,,,,,,,,,,,,,,,,,,,,,,,,,,,,,,,,,,,,,,,,30821,2022-11-04_09h04.43.869,vts_reward_expectancy_bt_OFFLINE,2022.2.4,59.99473102564513,
1,0,0,0,0,0,0,1,triangle,star,2,0,2,0,3,10,46,2,,,,,,,,,,,,,,,,,,,,,,,,,,,,,,,,,,,,,,,,527.0312600239413,527.0312600239413,527.0312600239413,527.0312600239413,527.0312600239413,527.0312600239413,527.0312600239413,527.0312600239413,527.0312600239413,527.0312600239413,a,1.0402944821398705,10,890,2,528.098604248953,529.5990950239357,529.5990950239357,530.098956291913,,,,,,,,,,,,,,,,,,,,,,,,,,,,,,,,,,,,,,,,,,,,,,,,,,,,,,,,,,,,,,,,,,,,,30821,2022-11-04_09h04.43.869,vts_reward_expectancy_bt_OFFLINE,2022.2.4,59.99473102564513,
0,0,0,1,1,0,0,0,star,triangle,2,0,2,0,3,11,47,9,,,,,,,,,,,,,,,,,,,,,,,,,,,,,,,,,,,,,,,,530.098956291913,530.098956291913,530.098956291913,530.098956291913,530.098956291913,530.098956291913,530.098956291913,530.098956291913,530.098956291913,530.098956291913,l,0.8307987280422822,10,900,2,530.9512499629054,532.4519782469142,532.4519782469142,,,,,,,,,,,,,,,,,,,,,,,,,,,,,,,,,,,,,,,,,,,,,,,,,,,,,,,,,,,,,,,,,,,,,,30821,2022-11-04_09h04.43.869,vts_reward_expectancy_bt_OFFLINE,2022.2.4,59.99473102564513,
,,,,,,,,,,,,,,,,,,0,0,0,0,0,0,0,0,,,,,,,,,,,,,,,,,,,,,,,,,,,,,,,,,,,,,,,,,,,,,,,,,580.9540546119679,,132,F,triangle,0.002696300041861832,576.7634307469707,578.2514531549532,578.2514531549532,578.2514531549532,1,0,d,1.1774852740345523,0,579.4554677009583,,,,,,,,,,,,,,,,,,,,,,,,,,,,,,,,,,,,,,,,,,,,,,,,,,,,,,,30821,2022-11-04_09h04.43.869,vts_reward_expectancy_bt_OFFLINE,2022.2.4,59.99473102564513,
,,,,,,,,,,,,,,,,,,0,0,0,0,1,0,1,0,,,,,,,,,,,,,,,,,,,,,,,,,,,,,,,,,,,,,,,,,,,,,,,,,586.1579471050063,,146,W,star,0.0018065819749608636,581.9504563809605,583.4384705049451,583.4384705049451,583.4384705049451,1,0,d,1.1996674850815907,0,584.6560920589836,,,,,,,,,,,,,,,,,,,,,,,,,,,,,,,,,,,,,,,,,,,,,,,,,,,,,,,30821,2022-11-04_09h04.43.869,vts_reward_expectancy_bt_OFFLINE,2022.2.4,59.99473102564513,
,,,,,,,,,,,,,,,,,,0,0,0,0,2,0,2,0,,,,,,,,,,,,,,,,,,,,,,,,,,,,,,,,,,,,,,,,,,,,,,,,,590.628214990953,,160,D,hexagon,0.001954115927219391,587.1538870129734,588.6421862599673,588.6421862599673,588.6421862599673,1,0,f,0.451536918990314,0,589.1257057399489,,,,,,,,,,,,,,,,,,,,,,,,,,,,,,,,,,,,,,,,,,,,,,,,,,,,,,,30821,2022-11-04_09h04.43.869,vts_reward_expectancy_bt_OFFLINE,2022.2.4,59.99473102564513,
,,,,,,,,,,,,,,,,,,0,0,0,0,3,0,3,0,,,,,,,,,,,,,,,,,,,,,,,,,,,,,,,,,,,,,,,,,,,,,,,,,595.3964456599206,,181,S,circle,0.0015775479841977358,591.6238424580079,593.1122320319992,593.1122320319992,593.1122320319992,1,0,f,0.7510365500347689,0,593.8960246529896,595.3964456599206,,,,,,,,,,,,,,,,,,,,,,,,,,,,,,,,,,,,,,,,,,,,,,,,,,,,,,30821,2022-11-04_09h04.43.869,vts_reward_expectancy_bt_OFFLINE,2022.2.4,59.99473102564513,
,,,,,,,,,,,,,,,,,,0,0,0,0,4,0,4,0,,,,,,,,,,,,,,,,,,,,,,,,,,,,,,,,,,,,,,,,,,,,,,,,,599.8668604269624,600.3669428880094,167,U,circle,0.0018782569095492363,596.3945380219957,597.8826572659891,597.8826572659891,597.8826572659891,1,0,f,0.4593413471011445,0,598.3663400789956,599.8668604269624,,,,,,,,,,,,,,,,,,,,,,,,,,,,,,,,,,,,,,,,,,,,,,,,,,,,,,30821,2022-11-04_09h04.43.869,vts_reward_expectancy_bt_OFFLINE,2022.2.4,59.99473102564513,
,,,,,,,,,,,,,,,,,,0,0,0,0,5,0,5,0,,,,,,,,,,,,,,,,,,,,,,,,,,,,,,,,,,,,,,,,,,,,,,,,,604.3201146299252,,139,Y,star,0.0006675360491499305,600.8629207899794,602.3526877189288,602.3526877189288,602.3526877189288,1,0,d,0.44399696204345673,0,602.8197416929761,604.3201146299252,,,,,,,,,,,,,,,,,,,,,,,,,,,,,,,,,,,,,,,,,,,,,,,,,,,,,,30821,2022-11-04_09h04.43.869,vts_reward_expectancy_bt_OFFLINE,2022.2.4,59.99473102564513,
,,,,,,,,,,,,,,,,,,0,0,0,0,6,0,6,0,,,,,,,,,,,,,,,,,,,,,,,,,,,,,,,,,,,,,,,,,,,,,,,,,609.4571550369728,609.9571036429843,174,H,triangle,0.00037504301872104406,605.3163789939135,606.8061853930121,606.8061853930121,606.8061853930121,1,0,f,1.1210546510992572,0,607.9568333199713,609.4571550369728,,,,,,,,,,,,,,,,,,,,,,,,,,,,,,,,,,,,,,,,,,,,,,,,,,,,,,30821,2022-11-04_09h04.43.869,vts_reward_expectancy_bt_OFFLINE,2022.2.4,59.99473102564513,
,,,,,,,,,,,,,,,,,,0,0,0,0,7,0,7,0,,,,,,,,,,,,,,,,,,,,,,,,,,,,,,,,,,,,,,,,,,,,,,,,,614.0939038509969,614.594093355001,125,B,hexagon,0.00049304508138448,610.4538356709527,611.9430070709204,611.9430070709204,611.9430070709204,1,0,d,0.6182827251031995,0,612.5933807030087,614.0939038509969,,,,,,,,,,,,,,,,,,,,,,,,,,,,,,,,,,,,,,,,,,,,,,,,,,,,,,30821,2022-11-04_09h04.43.869,vts_reward_expectancy_bt_OFFLINE,2022.2.4,59.99473102564513,
,,,,,,,,,,,,,,,,,,0,0,0,0,8,0,8,0,,,,,,,,,,,,,,,,,,,,,,,,,,,,,,,,,,,,,,,,,,,,,,,,,618.7141008649487,619.2143465589033,132,F,hexagon,0.00019431894179433584,615.0893547239248,616.5800667928997,616.5800667928997,616.5800667928997,1,0,d,0.6170853971270844,0,617.2146056329366,618.7141008649487,,,,,,,,,,,,,,,,,,,,,,,,,,,,,,,,,,,,,,,,,,,,,,,,,,,,,,30821,2022-11-04_09h04.43.869,vts_reward_expectancy_bt_OFFLINE,2022.2.4,59.99473102564513,
,,,,,,,,,,,,,,,,,,0,0,0,0,9,0,9,0,,,,,,,,,,,,,,,,,,,,,,,,,,,,,,,,,,,,,,,,,,,,,,,,,623.2508176160045,623.7609652439132,146,W,triangle,7.21330288797617e-05,619.7099864959018,621.200084995944,621.200084995944,621.200084995944,1,0,d,0.5194683991139755,0,621.7509653089801,623.2508176160045,,,,,,,,,,,,,,,,,,,,,,,,,,,,,,,,,,,,,,,,,,,,,,,,,,,,,,30821,2022-11-04_09h04.43.869,vts_reward_expectancy_bt_OFFLINE,2022.2.4,59.99473102564513,
,,,,,,,,,,,,,,,,,,,,,,,,,,0,0,0,0,0,0,0,0,,,,,,,,,,,,,,,,,,,,,,,,,,,,,,,,,,,,,,,,,646.3517646099208,,167,S,triangle,0.002593386103399098,,,,,1,0,,,1,644.8499797249679,,641.7437850169372,643.2318810069701,643.2318810069701,643.2318810069701,k,1.5956724430434406,,,,,,,,,,,,,,,,,,,,,,,,,,,,,,,,,,,,,,,,,,,,,,,,30821,2022-11-04_09h04.43.869,vts_reward_expectancy_bt_OFFLINE,2022.2.4,59.99473102564513,
,,,,,,,,,,,,,,,,,,,,,,,,,,0,0,0,0,1,0,1,0,,,,,,,,,,,,,,,,,,,,,,,,,,,,,,,,,,,,,,,,,650.9386662889738,,174,H,star,0.0019938600016757846,,,,,1,0,,,1,649.4367420169292,,647.3475670389598,648.8359606829472,648.8359606829472,648.8359606829472,j,0.5826782111544162,,,,,,,,,,,,,,,,,,,,,,,,,,,,,,,,,,,,,,,,,,,,,,,,30821,2022-11-04_09h04.43.869,vts_reward_expectancy_bt_OFFLINE,2022.2.4,59.99473102564513,
,,,,,,,,,,,,,,,,,,,,,,,,,,0,0,0,0,2,0,2,0,,,,,,,,,,,,,,,,,,,,,,,,,,,,,,,,,,,,,,,,,655.6383124099812,,139,B,circle,0.0017583840526640415,,,,,1,0,,,1,654.1401468859985,655.6383124099812,651.9342749440111,653.4227860179963,653.4227860179963,653.4227860179963,j,0.6975893850903958,,,,,,,,,,,,,,,,,,,,,,,,,,,,,,,,,,,,,,,,,,,,,,,,30821,2022-11-04_09h04.43.869,vts_reward_expectancy_bt_OFFLINE,2022.2.4,59.99473102564513,
,,,,,,,,,,,,,,,,,,,,,,,,,,0,0,0,0,3,0,3,0,,,,,,,,,,,,,,,,,,,,,,,,,,,,,,,,,,,,,,,,,660.2105519329198,,132,D,hexagon,0.0021054379176348448,,,,,1,0,,,1,658.7102746659657,660.2105519329198,656.637825777987,658.1263026999077,658.1263026999077,658.1263026999077,j,0.5618450930342078,,,,,,,,,,,,,,,,,,,,,,,,,,,,,,,,,,,,,,,,,,,,,,,,30821,2022-11-04_09h04.43.869,vts_reward_expectancy_bt_OFFLINE,2022.2.4,59.99473102564513,
,,,,,,,,,,,,,,,,,,,,,,,,,,0,0,0,0,4,0,4,0,,,,,,,,,,,,,,,,,,,,,,,,,,,,,,,,,,,,,,,,,664.8473228089279,,125,U,triangle,0.002223053015768528,,,,,1,0,,,1,663.3473986999597,664.8473228089279,661.2077869839268,662.6964549509576,662.6964549509576,662.6964549509576,k,0.6274467291077599,,,,,,,,,,,,,,,,,,,,,,,,,,,,,,,,,,,,,,,,,,,,,,,,30821,2022-11-04_09h04.43.869,vts_reward_expectancy_bt_OFFLINE,2022.2.4,59.99473102564513,
,,,,,,,,,,,,,,,,,,,,,,,,,,0,0,0,0,5,0,5,0,,,,,,,,,,,,,,,,,,,,,,,,,,,,,,,,,,,,,,,,,669.5508572489489,670.0507875320036,160,W,circle,0.00046806700993329287,,,,,1,0,,,1,668.0509088590043,669.5508572489489,665.8437785889255,667.333098366973,667.333098366973,667.333098366973,k,0.6930204521631822,,,,,,,,,,,,,,,,,,,,,,,,,,,,,,,,,,,,,,,,,,,,,,,,30821,2022-11-04_09h04.43.869,vts_reward_expectancy_bt_OFFLINE,2022.2.4,59.99473102564513,
,,,,,,,,,,,,,,,,,,,,,,,,,,0,0,0,0,6,0,6,0,,,,,,,,,,,,,,,,,,,,,,,,,,,,,,,,,,,,,,,,,674.2541838989127,674.7542672409909,181,F,star,0.0004769660299643874,,,,,1,0,,,1,672.7542484389851,674.2541838989127,670.5470225919271,672.0367703249212,672.0367703249212,672.0367703249212,j,0.6925152720650658,,,,,,,,,,,,,,,,,,,,,,,,,,,,,,,,,,,,,,,,,,,,,,,,30821,2022-11-04_09h04.43.869,vts_reward_expectancy_bt_OFFLINE,2022.2.4,59.99473102564513,
,,,,,,,,,,,,,,,,,,,,,,,,,,0,0,0,0,7,0,7,0,,,,,,,,,,,,,,,,,,,,,,,,,,,,,,,,,,,,,,,,,678.9577385929879,679.4580197789473,146,Y,hexagon,0.0006595689337700605,,,,,1,0,,,1,677.4580639099004,678.9577385929879,675.2503894139081,676.7403331499081,676.7403331499081,676.7403331499081,k,0.6916053961031139,,,,,,,,,,,,,,,,,,,,,,,,,,,,,,,,,,,,,,,,,,,,,,,,30821,2022-11-04_09h04.43.869,vts_reward_expectancy_bt_OFFLINE,2022.2.4,59.99473102564513,
,,,,,,,,,,,,,,,,,,,,,,,,,,0,0,0,0,8,0,8,0,,,,,,,,,,,,,,,,,,,,,,,,,,,,,,,,,,,,,,,,,683.7947327519068,684.2947674219031,167,S,triangle,0.00040242995601147413,,,,,1,0,,,1,682.2947942619212,683.7947327519068,679.9537256589392,681.4438560139388,681.4438560139388,681.4438560139388,k,0.8260045970091596,,,,,,,,,,,,,,,,,,,,,,,,,,,,,,,,,,,,,,,,,,,,,,,,30821,2022-11-04_09h04.43.869,vts_reward_expectancy_bt_OFFLINE,2022.2.4,59.99473102564513,
,,,,,,,,,,,,,,,,,,,,,,,,,,0,0,0,0,9,0,9,0,,,,,,,,,,,,,,,,,,,,,,,,,,,,,,,,,,,,,,,,,689.031541731907,689.5343418549746,174,H,hexagon,0.0006198000628501177,,,,,1,0,,,1,687.5318427559687,689.031541731907,684.7906515629729,686.2808885859558,686.2808885859558,686.2808885859558,j,1.219580825068988,,,,,,,,,,,,,,,,,,,,,,,,,,,,,,,,,,,,,,,,,,,,,,,,30821,2022-11-04_09h04.43.869,vts_reward_expectancy_bt_OFFLINE,2022.2.4,59.99473102564513,
,,,,,,,,,,,,,,,,,,,,,,,,,,,,,,,,,,0,0,0,0,0,0,0,0,,,,,,,,,,,,,,,,,,,,,,,,,,,,0,900,,,,724.9242883059196,,160,W,triangle,0.017522196983918548,,,,,-1,0,,,2,,,,,,,,,718.9339509559795,718.9339509559795,718.9339509559795,718.9339509559795,720.4042068589479,720.4042068589479,720.4042068589479,720.4042068589479,720.4375489379745,720.4375489379745,720.4375489379745,720.4375489379745,723.4103625379503,723.4103625379503,723.4103625379503,723.4103625379503,-1,no_choice,NA,None,vtsPrac,723.4103625379503,,,,,,,,,,,,,,,,,,,,,,,,,,30821,2022-11-04_09h04.43.869,vts_reward_expectancy_bt_OFFLINE,2022.2.4,59.99473102564513,
,,,,,,,,,,,,,,,,,,,,,,,,,,,,,,,,,,0,0,0,0,1,0,1,0,,,,,,,,,,,,,,,,,,,,,,,,,,,,0,900,,,,729.5945144019788,,125,U,star,0.004931231960654259,,,,,1,0,,,2,,,,,,,,,725.9211184759624,725.9211184759624,725.9211184759624,725.9211184759624,727.4104147929465,727.4104147929465,727.4104147929465,727.4104147929465,727.427017163951,727.427017163951,727.427017163951,727.427017163951,,,,,switch,number,numSwt,d,vtsPrac,728.0809378959239,0.6361887829843909,,,,,,,,,,,,,,,,,,,,,,,,,30821,2022-11-04_09h04.43.869,vts_reward_expectancy_bt_OFFLINE,2022.2.4,59.99473102564513,
,,,,,,,,,,,,,,,,,,,,,,,,,,,,,,,,,,0,0,0,0,2,0,2,0,,,,,,,,,,,,,,,,,,,,,,,,,,,,0,900,,,,734.0644708418986,,146,F,hexagon,0.016790493042208254,,,,,0,0,,,2,,,,,,,,,730.5906539499993,730.5906539499993,730.5906539499993,730.5906539499993,732.063890841906,732.063890841906,732.063890841906,732.063890841906,732.0972311180085,732.0972311180085,732.0972311180085,732.0972311180085,,,,,repeat,number,NA,f,vtsPrac,732.5510387079557,0.46076549508143216,,,,,,,,,,,,,,,,,,,,,,,,,30821,2022-11-04_09h04.43.869,vts_reward_expectancy_bt_OFFLINE,2022.2.4,59.99473102564513,
,,,,,,,,,,,,,,,,,,,,,,,,,,,,,,,,,,0,0,0,0,3,0,3,0,,,,,,,,,,,,,,,,,,,,,,,,,,,,0,900,,,,738.6177741619758,,174,H,star,0.01671741099562496,,,,,1,1,,,2,,,,,,,,,735.0609753750032,735.0609753750032,735.0609753750032,735.0609753750032,736.5339284569491,736.5339284569491,736.5339284569491,736.5339284569491,736.5670739879133,736.5670739879133,736.5670739879133,736.5670739879133,,,,,switch,letter,lettSwt,j,vtsPrac,737.1042821099982,0.536242492031306,,,,,,,,,,,,,,,,,,,,,,,,,30821,2022-11-04_09h04.43.869,vts_reward_expectancy_bt_OFFLINE,2022.2.4,59.99473102564513,
,,,,,,,,,,,,,,,,,,,,,,,,,,,,,,,,,,0,0,0,0,4,0,4,0,,,,,,,,,,,,,,,,,,,,,,,,,,,,0,900,,,,743.0713348939316,,160,W,circle,0.016764768050052226,,,,,0,0,,,2,,,,,,,,,739.6138043529354,739.6138043529354,739.6138043529354,739.6138043529354,741.087319336948,741.087319336948,741.087319336948,741.087319336948,741.1206969919149,741.1206969919149,741.1206969919149,741.1206969919149,,,,,repeat,letter,NA,j,vtsPrac,741.5573737130035,0.4378666920820251,,,,,,,,,,,,,,,,,,,,,,,,,30821,2022-11-04_09h04.43.869,vts_reward_expectancy_bt_OFFLINE,2022.2.4,59.99473102564513,
,,,,,,,,,,,,,,,,,,,,,,,,,,,,,,,,,,0,0,0,0,5,0,5,0,,,,,,,,,,,,,,,,,,,,,,,,,,,,0,900,,,,747.6583705049707,,125,U,hexagon,0.016898446017876267,,,,,1,1,,,2,,,,,,,,,744.0667992379749,744.0667992379749,744.0667992379749,744.0667992379749,745.5391246079234,745.5391246079234,745.5391246079234,745.5391246079234,745.5722744259983,745.5722744259983,745.5722744259983,745.5722744259983,,,,,switch,number,numSwt,d,vtsPrac,746.1445437809452,0.5759452490601689,,,,,,,,,,,,,,,,,,,,,,,,,30821,2022-11-04_09h04.43.869,vts_reward_expectancy_bt_OFFLINE,2022.2.4,59.99473102564513,
,,,,,,,,,,,,,,,,,,,,,,,,,,,,,,,,,,0,0,0,0,6,0,6,0,,,,,,,,,,,,,,,,,,,,,,,,,,,,0,900,,,,752.4119817289757,752.9119362980127,146,F,circle,0.01664643594995141,,,,,1,0,,,2,,,,,,,,,748.6542259149719,748.6542259149719,748.6542259149719,748.6542259149719,750.1258614959661,750.1258614959661,750.1258614959661,750.1258614959661,750.1591908909613,750.1591908909613,750.1591908909613,750.1591908909613,,,,,repeat,number,numRpt,d,vtsPrac,750.9120999679435,0.7597907821182162,752.4119817289757,,,,,,,,,,,,,,,,,,,,,,,,30821,2022-11-04_09h04.43.869,vts_reward_expectancy_bt_OFFLINE,2022.2.4,59.99473102564513,
,,,,,,,,,,,,,,,,,,,,,,,,,,,,,,,,,,0,0,0,0,7,0,7,0,,,,,,,,,,,,,,,,,,,,,,,,,,,,0,900,,,,756.8817872689106,,174,H,hexagon,0.0003958550514653325,,,,,1,0,,,2,,,,,,,,,753.4079911269946,753.4079911269946,753.4079911269946,753.4079911269946,754.8960538859246,754.8960538859246,754.8960538859246,754.8960538859246,754.9128721170127,754.9128721170127,754.9128721170127,754.9128721170127,,,,,switch,letter,lettSwt,j,vtsPrac,755.3807111829519,0.46685537905432284,,,,,,,,,,,,,,,,,,,,,,,,,30821,2022-11-04_09h04.43.869,vts_reward_expectancy_bt_OFFLINE,2022.2.4,59.99473102564513,
,,,,,,,,,,,,,,,,,,,,,,,,,,,,,,,,,,0,0,0,0,8,0,8,0,,,,,,,,,,,,,,,,,,,,,,,,,,,,0,900,,,,761.3685843099374,,160,F,circle,0.001558072050102055,,,,,1,0,,,2,,,,,,,,,757.877850921941,757.877850921941,757.877850921941,757.877850921941,759.366058103973,759.366058103973,759.366058103973,759.366058103973,759.3828912789468,759.3828912789468,759.3828912789468,759.3828912789468,,,,,repeat,letter,lettRpt,j,vtsPrac,759.8670960819582,0.4744986710138619,,,,,,,,,,,,,,,,,,,,,,,,,30821,2022-11-04_09h04.43.869,vts_reward_expectancy_bt_OFFLINE,2022.2.4,59.99473102564513,
,,,,,,,,,,,,,,,,,,,,,,,,,,,,,,,,,,0,0,0,0,9,0,9,0,,,,,,,,,,,,,,,,,,,,,,,,,,,,0,900,,,,765.8388675209135,,139,U,triangle,0.0020008209394291043,,,,,1,0,,,2,,,,,,,,,762.3649104268989,762.3649104268989,762.3649104268989,762.3649104268989,763.8528673639521,763.8528673639521,763.8528673639521,763.8528673639521,763.8695773589425,763.8695773589425,763.8695773589425,763.8695773589425,,,,,switch,number,numSwt,d,vtsPrac,764.3374017089373,0.45384644204750657,,,,,,,,,,,,,,,,,,,,,,,,,30821,2022-11-04_09h04.43.869,vts_reward_expectancy_bt_OFFLINE,2022.2.4,59.99473102564513,
,,,,,,,,,,,,,,,,,,,,,,,,,,,,,,,,,,0,0,0,0,10,0,10,0,,,,,,,,,,,,,,,,,,,,,,,,,,,,0,900,,,,770.4404590119375,,174,B,star,0.0016357339918613434,,,,,1,0,,,2,,,,,,,,,766.834371020901,766.834371020901,766.834371020901,766.834371020901,768.3230188440066,768.3230188440066,768.3230188440066,768.3230188440066,768.3396653539967,768.3396653539967,768.3396653539967,768.3396653539967,,,,,repeat,number,numRpt,f,vtsPrac,768.9406863899203,0.5965392080834135,770.4404590119375,,,,,,,,,,,,,,,,,,,,,,,,30821,2022-11-04_09h04.43.869,vts_reward_expectancy_bt_OFFLINE,2022.2.4,59.99473102564513,
,,,,,,,,,,,,,,,,,,,,,,,,,,,,,,,,,,0,0,0,0,11,0,11,0,,,,,,,,,,,,,,,,,,,,,,,,,,,,0,900,,,,775.0274801779306,775.5275442119455,132,W,hexagon,0.002031998010352254,,,,,1,0,,,2,,,,,,,,,771.4378716429928,771.4378716429928,771.4378716429928,771.4378716429928,772.9265665269922,772.9265665269922,772.9265665269922,772.9265665269922,772.9432065199362,772.9432065199362,772.9432065199362,772.9432065199362,,,,,repeat,number,numRpt,d,vtsPrac,773.5275696349563,0.5720523310592398,775.0274801779306,,,,,,,,,,,,,,,,,,,,,,,,30821,2022-11-04_09h04.43.869,vts_reward_expectancy_bt_OFFLINE,2022.2.4,59.99473102564513,
,,,,,,,,,,,,,,,,,,,,,,,,,,,,,,,,,,0,0,0,0,12,0,12,0,,,,,,,,,,,,,,,,,,,,,,,,,,,,0,900,,,,779.6975173839601,780.197827127995,139,H,triangle,0.0004508410347625613,,,,,1,0,,,2,,,,,,,,,776.0237573179184,776.0237573179184,776.0237573179184,776.0237573179184,777.5134050929919,777.5134050929919,777.5134050929919,777.5134050929919,777.530162454932,777.530162454932,777.530162454932,777.530162454932,,,,,switch,letter,lettSwt,j,vtsPrac,778.1977371679386,0.6648410541238263,779.6975173839601,,,,,,,,,,,,,,,,,,,,,,,,30821,2022-11-04_09h04.43.869,vts_reward_expectancy_bt_OFFLINE,2022.2.4,59.99473102564513,
,,,,,,,,,,,,,,,,,,,,,,,,,,,,,,,,,,0,0,0,0,13,0,13,0,,,,,,,,,,,,,,,,,,,,,,,,,,,,0,900,,,,784.0341015649028,,174,F,hexagon,0.0005230089882388711,,,,,0,0,,,2,,,,,,,,,780.6938121739076,780.6938121739076,780.6938121739076,780.6938121739076,782.1835224869428,782.1835224869428,782.1835224869428,782.1835224869428,782.2000975089613,782.2000975089613,782.2000975089613,782.2000975089613,,,,,repeat,letter,NA,k,vtsPrac,782.5202190299751,0.3159664161503315,,,,,,,,,,,,,,,,,,,,,,,,,30821,2022-11-04_09h04.43.869,vts_reward_expectancy_bt_OFFLINE,2022.2.4,59.99473102564513,
,,,,,,,,,,,,,,,,,,,,,,,,,,,,,,,,,,0,0,0,0,14,0,14,0,,,,,,,,,,,,,,,,,,,,,,,,,,,,0,900,,,,788.4710544189438,,160,U,hexagon,0.016793180955573916,,,,,1,1,,,2,,,,,,,,,785.0307293239748,785.0307293239748,785.0307293239748,785.0307293239748,786.5034655099735,786.5034655099735,786.5034655099735,786.5034655099735,786.5369195599342,786.5369195599342,786.5369195599342,786.5369195599342,,,,,repeat,letter,lettRpt,k,vtsPrac,786.9571083269548,0.42743429203983396,,,,,,,,,,,,,,,,,,,,,,,,,30821,2022-11-04_09h04.43.869,vts_reward_expectancy_bt_OFFLINE,2022.2.4,59.99473102564513,
,,,,,,,,,,,,,,,,,,,,,,,,,,,,,,,,,,0,0,0,0,15,0,15,0,,,,,,,,,,,,,,,,,,,,,,,,,,,,0,900,,,,792.974495910923,793.4745960179716,167,W,circle,0.01679479598533362,,,,,1,0,,,2,,,,,,,,,789.4666675179033,789.4666675179033,789.4666675179033,789.4666675179033,790.9403703599237,790.9403703599237,790.9403703599237,790.9403703599237,790.9736831189366,790.9736831189366,790.9736831189366,790.9736831189366,,,,,switch,number,numSwt,f,vtsPrac,791.474678018014,0.513285138993524,792.974495910923,,,,,,,,,,,,,,,,,,,,,,,,30821,2022-11-04_09h04.43.869,vts_reward_expectancy_bt_OFFLINE,2022.2.4,59.99473102564513,
,,,,,,,,,,,,,,,,,,,,,,,,,,,,,,,,,,0,0,0,0,16,0,16,0,,,,,,,,,,,,,,,,,,,,,,,,,,,,0,900,,,,797.6780814999947,,132,B,star,0.0004572198959067464,,,,,1,0,,,2,,,,,,,,,793.9701273579849,793.9701273579849,793.9701273579849,793.9701273579849,795.4586775379721,795.4586775379721,795.4586775379721,795.4586775379721,795.4750883319648,795.4750883319648,795.4750883319648,795.4750883319648,,,,,repeat,number,numRpt,d,vtsPrac,796.1779803480022,0.6975972960935906,797.6780814999947,,,,,,,,,,,,,,,,,,,,,,,,30821,2022-11-04_09h04.43.869,vts_reward_expectancy_bt_OFFLINE,2022.2.4,59.99473102564513,
,,,,,,,,,,,,,,,,,,,,,,,,,,,,,,,,,,0,0,0,0,17,0,17,0,,,,,,,,,,,,,,,,,,,,,,,,,,,,0,900,,,,802.3315579909831,802.8315935980063,125,Y,hexagon,0.0005552610382437706,,,,,1,0,,,2,,,,,,,,,798.6739422589308,798.6739422589308,798.6739422589308,798.6739422589308,800.1622629079502,800.1622629079502,800.1622629079502,800.1622629079502,800.178969969973,800.178969969973,800.178969969973,800.178969969973,,,,,repeat,number,numRpt,d,vtsPrac,800.8317412849283,0.6515107650775462,802.3315579909831,,,,,,,,,,,,,,,,,,,,,,,,30821,2022-11-04_09h04.43.869,vts_reward_expectancy_bt_OFFLINE,2022.2.4,59.99473102564513,
,,,,,,,,,,,,,,,,,,,,,,,,,,,,,,,,,,0,0,0,0,18,0,18,0,,,,,,,,,,,,,,,,,,,,,,,,,,,,0,900,,,,807.068497427972,,174,D,triangle,0.00033000705298036337,,,,,1,0,,,2,,,,,,,,,803.3277512949426,803.3277512949426,803.3277512949426,803.3277512949426,804.8157251859084,804.8157251859084,804.8157251859084,804.8157251859084,804.8323806289118,804.8323806289118,804.8323806289118,804.8323806289118,,,,,switch,letter,lettSwt,j,vtsPrac,805.566824030946,0.7234806780470535,,,,,,,,,,,,,,,,,,,,,,,,,30821,2022-11-04_09h04.43.869,vts_reward_expectancy_bt_OFFLINE,2022.2.4,59.99473102564513,
,,,,,,,,,,,,,,,,,,,,,,,,,,,,,,,,,,0,0,0,0,19,0,19,0,,,,,,,,,,,,,,,,,,,,,,,,,,,,0,900,,,,811.4885869419668,,139,U,hexagon,0.002025498077273369,,,,,1,0,,,2,,,,,,,,,808.0643104949268,808.0643104949268,808.0643104949268,808.0643104949268,809.552562013967,809.552562013967,809.552562013967,809.552562013967,809.5691890160087,809.5691890160087,809.5691890160087,809.5691890160087,,,,,repeat,letter,lettRpt,k,vtsPrac,809.9867085749283,0.4078574310988188,,,,,,,,,,,,,,,,,,,,,,,,,30821,2022-11-04_09h04.43.869,vts_reward_expectancy_bt_OFFLINE,2022.2.4,59.99473102564513,
,,,,,,,,,,,,,,,,,,,,,,,,,,,,,,,,,,0,0,0,0,20,0,20,0,,,,,,,,,,,,,,,,,,,,,,,,,,,,0,900,,,,816.0086111669661,,139,B,triangle,0.002182557014748454,,,,,1,0,,,2,,,,,,,,,812.4843659528997,812.4843659528997,812.4843659528997,812.4843659528997,813.9727574059507,813.9727574059507,813.9727574059507,813.9727574059507,813.989300035988,813.989300035988,813.989300035988,813.989300035988,,,,,repeat,letter,lettRpt,j,vtsPrac,814.506972844014,0.5102818580344319,,,,,,,,,,,,,,,,,,,,,,,,,30821,2022-11-04_09h04.43.869,vts_reward_expectancy_bt_OFFLINE,2022.2.4,59.99473102564513,
,,,,,,,,,,,,,,,,,,,,,,,,,,,,,,,,,,0,0,0,0,21,0,21,0,,,,,,,,,,,,,,,,,,,,,,,,,,,,0,900,,,,820.5269619919127,,174,H,circle,0.0020047089783474803,,,,,0,0,,,2,,,,,,,,,817.0041247099871,817.0041247099871,817.0041247099871,817.0041247099871,818.4929816320073,818.4929816320073,818.4929816320073,818.4929816320073,818.5094888790045,818.5094888790045,818.5094888790045,818.5094888790045,,,,,switch,number,NA,d,vtsPrac,819.0125051609939,0.4913783210795373,,,,,,,,,,,,,,,,,,,,,,,,,30821,2022-11-04_09h04.43.869,vts_reward_expectancy_bt_OFFLINE,2022.2.4,59.99473102564513,
,,,,,,,,,,,,,,,,,,,,,,,,,,,,,,,,,,0,0,0,0,22,0,22,0,,,,,,,,,,,,,,,,,,,,,,,,,,,,0,900,,,,825.1301529129269,,146,U,circle,0.001953309983946383,,,,,1,1,,,2,,,,,,,,,821.5076774599729,821.5076774599729,821.5076774599729,821.5076774599729,822.9960951890098,822.9960951890098,822.9960951890098,822.9960951890098,823.0129459860036,823.0129459860036,823.0129459860036,823.0129459860036,,,,,repeat,number,numRpt,d,vtsPrac,823.6168603029801,0.6004466661252081,,,,,,,,,,,,,,,,,,,,,,,,,30821,2022-11-04_09h04.43.869,vts_reward_expectancy_bt_OFFLINE,2022.2.4,59.99473102564513,
,,,,,,,,,,,,,,,,,,,,,,,,,,,,,,,,,,0,0,0,0,23,0,23,0,,,,,,,,,,,,,,,,,,,,,,,,,,,,0,900,,,,830.5008797919145,,132,W,star,0.016627109027467668,,,,,1,0,,,2,,,,,,,,,826.1266815899871,826.1266815899871,826.1266815899871,826.1266815899871,827.5996841569431,827.5996841569431,827.5996841569431,827.5996841569431,827.6330674529308,827.6330674529308,827.6330674529308,827.6330674529308,,,,,switch,letter,lettSwt,k,vtsPrac,829.001267226995,1.374965401017107,830.5008797919145,,,,,,,,,,,,,,,,,,,,,,,,30821,2022-11-04_09h04.43.869,vts_reward_expectancy_bt_OFFLINE,2022.2.4,59.99473102564513,
,,,,,,,,,,,,,,,,,,,,,,,,,,,,,,,,,,0,0,0,0,24,0,24,0,,,,,,,,,,,,,,,,,,,,,,,,,,,,0,900,,,,835.421156761935,,160,Y,hexagon,0.0018603740027174354,,,,,0,0,,,2,,,,,,,,,831.4979568989947,831.4979568989947,831.4979568989947,831.4979568989947,832.9869765449548,832.9869765449548,832.9869765449548,832.9869765449548,833.0037343339063,833.0037343339063,833.0037343339063,833.0037343339063,,,,,switch,number,NA,d,vtsPrac,833.9069752210053,0.8926040430087596,,,,,,,,,,,,,,,,,,,,,,,,,30821,2022-11-04_09h04.43.869,vts_reward_expectancy_bt_OFFLINE,2022.2.4,59.99473102564513,
