LTriangleOpac,LCircleOpac,LHexagonOpac,LStarOpac,RTriangleOpac,RCircleOpac,RHexagonOpac,RStarOpac,LShape_ID,RShape_ID,training_blocks.thisRepN,training_blocks.thisTrialN,training_blocks.thisN,training_blocks.thisIndex,training.thisRepN,training.thisTrialN,training.thisN,training.thisIndex,task1_prac_redo.thisRepN,task1_prac_redo.thisTrialN,task1_prac_redo.thisN,task1_prac_redo.thisIndex,task1_prac_trials.thisRepN,task1_prac_trials.thisTrialN,task1_prac_trials.thisN,task1_prac_trials.thisIndex,task2_prac_redo.thisRepN,task2_prac_redo.thisTrialN,task2_prac_redo.thisN,task2_prac_redo.thisIndex,task2_praac_trials.thisRepN,task2_praac_trials.thisTrialN,task2_praac_trials.thisN,task2_praac_trials.thisIndex,vts_prac_redo.thisRepN,vts_prac_redo.thisTrialN,vts_prac_redo.thisN,vts_prac_redo.thisIndex,vts_practice_trials.thisRepN,vts_practice_trials.thisTrialN,vts_practice_trials.thisN,vts_practice_trials.thisIndex,trials_norew.thisRepN,trials_norew.thisTrialN,trials_norew.thisN,trials_norew.thisIndex,block.thisRepN,block.thisTrialN,block.thisN,block.thisIndex,trials_rew.thisRepN,trials_rew.thisTrialN,trials_rew.thisN,trials_rew.thisIndex,key_resp.started,key_resp.keys,key_resp.rt,left_circle.started,right_circle.started,left_triangle.started,right_triangle.started,left_star.started,right_star.started,left_hexagon.started,right_hexagon.started,training_fix.started,training_resp.started,training_resp.keys,training_resp.rt,points_trial,points_cumul,trainBlock,training_feedback_txt.started,fix.started,training_feedback_txt.stopped,curr_topStim,curr_bottStim,curr_shape,ISI.started,tgt_fix_prac1.started,top_target_prac1.started,bott_target_prac1.started,target_resp_prac1.started,acc,E1,target_resp_prac1.keys,target_resp_prac1.rt,pracBlock,prac_fback_text.started,tgt_fix_prac2.started,top_target_prac2.started,bott_target_prac2.started,target_resp_prac2.started,target_resp_prac2.keys,target_resp_prac2.rt,prac_fback_text.stopped,star.started,hegagon.started,triangle.started,circle.started,star.stopped,hegagon.stopped,triangle.stopped,circle.stopped,top_target.started,tgt_fix.started,bot_target.started,target_resp.started,alt,task,condition,target_resp.keys,target_resp.rt,rewCond,vts_fback.started,blockNum,norew_fback.started,norew_fback.stopped,key_resp_2.keys,key_resp_2.rt,rewExpectancy,feedbk_text.started,fix.stopped,feedbk_text.stopped,text_3.started,debrief.started,text_3.stopped,button.started,debrief.index,debrief.itemText,debrief.type,debrief.granularity,debrief.font,debrief.markerColor,debrief.response,debrief.rt,button.numClicks,button.timesOn,button.timesOff,participant,date,expName,psychopyVersion,frameRate,
,,,,,,,,,,,,,,,,,,,,,,,,,,,,,,,,,,,,,,,,,,,,,,,,,,,,,,294.60337071200775,space,21.732248286003596,,,,,,,,,,,,,,,,,,,,,,,,,,,,,,,,,,,,,,,,,,,,,,,,,,,,,,,,,,,,,,,,,,,,,,,,,,,,,,,,,,,31068,2022-11-04_14h56.24.032,vts_reward_expectancy_bt_OFFLINE,2022.2.4,59.97243187170211,
0,0,1,0,1,0,0,0,hexagon,triangle,0,0,0,0,0,0,0,6,,,,,,,,,,,,,,,,,,,,,,,,,,,,,,,,,,,,,,,,336.44608474300185,336.44608474300185,336.44608474300185,336.44608474300185,336.44608474300185,336.44608474300185,336.44608474300185,336.44608474300185,336.44608474300185,336.44608474300185,l,1.03943624200474,1,1,0,337.5157158939983,339.0173996749945,,,,,,,,,,,,,,,,,,,,,,,,,,,,,,,,,,,,,,,,,,,,,,,,,,,,,,,,,,,,,,,,,,31068,2022-11-04_14h56.24.032,vts_reward_expectancy_bt_OFFLINE,2022.2.4,59.97243187170211,
0,1,0,0,0,0,0,1,circle,star,0,0,0,0,0,1,1,5,,,,,,,,,,,,,,,,,,,,,,,,,,,,,,,,,,,,,,,,339.5179621330026,339.5179621330026,339.5179621330026,339.5179621330026,339.5179621330026,339.5179621330026,339.5179621330026,339.5179621330026,339.5179621330026,339.5179621330026,a,2.2548405160050606,1,2,0,341.8038392479939,343.3055614670011,,,,,,,,,,,,,,,,,,,,,,,,,,,,,,,,,,,,,,,,,,,,,,,,,,,,,,,,,,,,,,,,,,31068,2022-11-04_14h56.24.032,vts_reward_expectancy_bt_OFFLINE,2022.2.4,59.97243187170211,
0,1,0,0,0,0,1,0,circle,hexagon,0,0,0,0,0,2,2,4,,,,,,,,,,,,,,,,,,,,,,,,,,,,,,,,,,,,,,,,343.8060640390031,343.8060640390031,343.8060640390031,343.8060640390031,343.8060640390031,343.8060640390031,343.8060640390031,343.8060640390031,343.8060640390031,343.8060640390031,l,1.2087569410068681,10,12,0,345.04077012500784,346.5426541110064,,,,,,,,,,,,,,,,,,,,,,,,,,,,,,,,,,,,,,,,,,,,,,,,,,,,,,,,,,,,,,,,,,31068,2022-11-04_14h56.24.032,vts_reward_expectancy_bt_OFFLINE,2022.2.4,59.97243187170211,
1,0,0,0,0,0,1,0,triangle,hexagon,0,0,0,0,0,3,3,1,,,,,,,,,,,,,,,,,,,,,,,,,,,,,,,,,,,,,,,,347.0430401269987,347.0430401269987,347.0430401269987,347.0430401269987,347.0430401269987,347.0430401269987,347.0430401269987,347.0430401269987,347.0430401269987,347.0430401269987,l,1.3784292150085093,10,22,0,348.44457443499414,349.9461476400029,,,,,,,,,,,,,,,,,,,,,,,,,,,,,,,,,,,,,,,,,,,,,,,,,,,,,,,,,,,,,,,,,,31068,2022-11-04_14h56.24.032,vts_reward_expectancy_bt_OFFLINE,2022.2.4,59.97243187170211,
0,0,1,0,0,1,0,0,hexagon,circle,0,0,0,0,0,4,4,7,,,,,,,,,,,,,,,,,,,,,,,,,,,,,,,,,,,,,,,,350.4468152509944,350.4468152509944,350.4468152509944,350.4468152509944,350.4468152509944,350.4468152509944,350.4468152509944,350.4468152509944,350.4468152509944,350.4468152509944,a,1.3177004020108143,1,23,0,351.78143375100626,353.283095398001,,,,,,,,,,,,,,,,,,,,,,,,,,,,,,,,,,,,,,,,,,,,,,,,,,,,,,,,,,,,,,,,,,31068,2022-11-04_14h56.24.032,vts_reward_expectancy_bt_OFFLINE,2022.2.4,59.97243187170211,
1,0,0,0,0,1,0,0,triangle,circle,0,0,0,0,0,5,5,0,,,,,,,,,,,,,,,,,,,,,,,,,,,,,,,,,,,,,,,,353.78368527500425,353.78368527500425,353.78368527500425,353.78368527500425,353.78368527500425,353.78368527500425,353.78368527500425,353.78368527500425,353.78368527500425,353.78368527500425,l,2.041785150009673,1,24,0,355.85264324799937,357.354323912994,,,,,,,,,,,,,,,,,,,,,,,,,,,,,,,,,,,,,,,,,,,,,,,,,,,,,,,,,,,,,,,,,,31068,2022-11-04_14h56.24.032,vts_reward_expectancy_bt_OFFLINE,2022.2.4,59.97243187170211,
0,0,0,1,0,0,1,0,star,hexagon,0,0,0,0,0,6,6,11,,,,,,,,,,,,,,,,,,,,,,,,,,,,,,,,,,,,,,,,357.854914622003,357.854914622003,357.854914622003,357.854914622003,357.854914622003,357.854914622003,357.854914622003,357.854914622003,357.854914622003,357.854914622003,a,1.288126032013679,10,34,0,359.17299182400166,360.6748849180003,,,,,,,,,,,,,,,,,,,,,,,,,,,,,,,,,,,,,,,,,,,,,,,,,,,,,,,,,,,,,,,,,,31068,2022-11-04_14h56.24.032,vts_reward_expectancy_bt_OFFLINE,2022.2.4,59.97243187170211,
0,0,0,1,0,1,0,0,star ,circle,0,0,0,0,0,7,7,10,,,,,,,,,,,,,,,,,,,,,,,,,,,,,,,,,,,,,,,,361.17534352399525,361.17534352399525,361.17534352399525,361.17534352399525,361.17534352399525,361.17534352399525,361.17534352399525,361.17534352399525,361.17534352399525,361.17534352399525,a,1.8387328910030192,10,44,0,363.0440062550042,364.54578255600063,,,,,,,,,,,,,,,,,,,,,,,,,,,,,,,,,,,,,,,,,,,,,,,,,,,,,,,,,,,,,,,,,,31068,2022-11-04_14h56.24.032,vts_reward_expectancy_bt_OFFLINE,2022.2.4,59.97243187170211,
0,0,0,1,1,0,0,0,star,triangle,0,0,0,0,0,8,8,9,,,,,,,,,,,,,,,,,,,,,,,,,,,,,,,,,,,,,,,,365.0463468509988,365.0463468509988,365.0463468509988,365.0463468509988,365.0463468509988,365.0463468509988,365.0463468509988,365.0463468509988,365.0463468509988,365.0463468509988,a,1.2420826449961169,1,45,0,366.3143070829974,367.8158477179968,,,,,,,,,,,,,,,,,,,,,,,,,,,,,,,,,,,,,,,,,,,,,,,,,,,,,,,,,,,,,,,,,,31068,2022-11-04_14h56.24.032,vts_reward_expectancy_bt_OFFLINE,2022.2.4,59.97243187170211,
1,0,0,0,0,0,0,1,triangle,star,0,0,0,0,0,9,9,2,,,,,,,,,,,,,,,,,,,,,,,,,,,,,,,,,,,,,,,,368.31658916399465,368.31658916399465,368.31658916399465,368.31658916399465,368.31658916399465,368.31658916399465,368.31658916399465,368.31658916399465,368.31658916399465,368.31658916399465,l,2.5381624620058574,10,55,0,370.88590873499925,372.3877835530002,,,,,,,,,,,,,,,,,,,,,,,,,,,,,,,,,,,,,,,,,,,,,,,,,,,,,,,,,,,,,,,,,,31068,2022-11-04_14h56.24.032,vts_reward_expectancy_bt_OFFLINE,2022.2.4,59.97243187170211,
0,1,0,0,1,0,0,0,circle,triangle,0,0,0,0,0,10,10,3,,,,,,,,,,,,,,,,,,,,,,,,,,,,,,,,,,,,,,,,372.88810713400017,372.88810713400017,372.88810713400017,372.88810713400017,372.88810713400017,372.88810713400017,372.88810713400017,372.88810713400017,372.88810713400017,372.88810713400017,a,3.0967019210074795,1,56,0,376.0081608659966,377.50975336600095,,,,,,,,,,,,,,,,,,,,,,,,,,,,,,,,,,,,,,,,,,,,,,,,,,,,,,,,,,,,,,,,,,31068,2022-11-04_14h56.24.032,vts_reward_expectancy_bt_OFFLINE,2022.2.4,59.97243187170211,
0,0,1,0,0,0,0,1,hexagon,star,0,0,0,0,0,11,11,8,,,,,,,,,,,,,,,,,,,,,,,,,,,,,,,,,,,,,,,,378.0103695879952,378.0103695879952,378.0103695879952,378.0103695879952,378.0103695879952,378.0103695879952,378.0103695879952,378.0103695879952,378.0103695879952,378.0103695879952,l,2.0253388269920833,1,57,0,380.06258871100727,381.5642350620037,,,,,,,,,,,,,,,,,,,,,,,,,,,,,,,,,,,,,,,,,,,,,,,,,,,,,,,,,,,,,,,,,,31068,2022-11-04_14h56.24.032,vts_reward_expectancy_bt_OFFLINE,2022.2.4,59.97243187170211,
0,1,0,0,0,0,1,0,circle,hexagon,0,0,0,0,1,0,12,4,,,,,,,,,,,,,,,,,,,,,,,,,,,,,,,,,,,,,,,,382.06490255300014,382.06490255300014,382.06490255300014,382.06490255300014,382.06490255300014,382.06490255300014,382.06490255300014,382.06490255300014,382.06490255300014,382.06490255300014,l,1.2552762679988518,10,67,0,383.3496399519936,384.85143277799943,,,,,,,,,,,,,,,,,,,,,,,,,,,,,,,,,,,,,,,,,,,,,,,,,,,,,,,,,,,,,,,,,,31068,2022-11-04_14h56.24.032,vts_reward_expectancy_bt_OFFLINE,2022.2.4,59.97243187170211,
0,0,1,0,1,0,0,0,hexagon,triangle,0,0,0,0,1,1,13,6,,,,,,,,,,,,,,,,,,,,,,,,,,,,,,,,,,,,,,,,385.35199162700155,385.35199162700155,385.35199162700155,385.35199162700155,385.35199162700155,385.35199162700155,385.35199162700155,385.35199162700155,385.35199162700155,385.35199162700155,a,1.3446291290019872,10,77,0,386.72000943499734,388.22181349800667,,,,,,,,,,,,,,,,,,,,,,,,,,,,,,,,,,,,,,,,,,,,,,,,,,,,,,,,,,,,,,,,,,31068,2022-11-04_14h56.24.032,vts_reward_expectancy_bt_OFFLINE,2022.2.4,59.97243187170211,
0,0,0,1,1,0,0,0,star,triangle,0,0,0,0,1,2,14,9,,,,,,,,,,,,,,,,,,,,,,,,,,,,,,,,,,,,,,,,388.7223902410042,388.7223902410042,388.7223902410042,388.7223902410042,388.7223902410042,388.7223902410042,388.7223902410042,388.7223902410042,388.7223902410042,388.7223902410042,l,1.9443692340137204,1,78,0,390.6910916659981,392.19276083199657,,,,,,,,,,,,,,,,,,,,,,,,,,,,,,,,,,,,,,,,,,,,,,,,,,,,,,,,,,,,,,,,,,31068,2022-11-04_14h56.24.032,vts_reward_expectancy_bt_OFFLINE,2022.2.4,59.97243187170211,
0,1,0,0,1,0,0,0,circle,triangle,0,0,0,0,1,3,15,3,,,,,,,,,,,,,,,,,,,,,,,,,,,,,,,,,,,,,,,,392.6934933140001,392.6934933140001,392.6934933140001,392.6934933140001,392.6934933140001,392.6934933140001,392.6934933140001,392.6934933140001,392.6934933140001,392.6934933140001,a,2.1591427980019944,10,88,0,394.87916637500166,396.3807753150031,,,,,,,,,,,,,,,,,,,,,,,,,,,,,,,,,,,,,,,,,,,,,,,,,,,,,,,,,,,,,,,,,,31068,2022-11-04_14h56.24.032,vts_reward_expectancy_bt_OFFLINE,2022.2.4,59.97243187170211,
0,0,0,1,0,0,1,0,star,hexagon,0,0,0,0,1,4,16,11,,,,,,,,,,,,,,,,,,,,,,,,,,,,,,,,,,,,,,,,396.8814346989966,396.8814346989966,396.8814346989966,396.8814346989966,396.8814346989966,396.8814346989966,396.8814346989966,396.8814346989966,396.8814346989966,396.8814346989966,a,1.0533877440029755,1,89,0,397.9658151580079,399.46761486500327,,,,,,,,,,,,,,,,,,,,,,,,,,,,,,,,,,,,,,,,,,,,,,,,,,,,,,,,,,,,,,,,,,31068,2022-11-04_14h56.24.032,vts_reward_expectancy_bt_OFFLINE,2022.2.4,59.97243187170211,
1,0,0,0,0,0,0,1,triangle,star,0,0,0,0,1,5,17,2,,,,,,,,,,,,,,,,,,,,,,,,,,,,,,,,,,,,,,,,399.9680245759955,399.9680245759955,399.9680245759955,399.9680245759955,399.9680245759955,399.9680245759955,399.9680245759955,399.9680245759955,399.9680245759955,399.9680245759955,l,1.0034993690060219,10,99,0,401.0024684740056,402.5042445769941,,,,,,,,,,,,,,,,,,,,,,,,,,,,,,,,,,,,,,,,,,,,,,,,,,,,,,,,,,,,,,,,,,31068,2022-11-04_14h56.24.032,vts_reward_expectancy_bt_OFFLINE,2022.2.4,59.97243187170211,
1,0,0,0,0,1,0,0,triangle,circle,0,0,0,0,1,6,18,0,,,,,,,,,,,,,,,,,,,,,,,,,,,,,,,,,,,,,,,,403.0048505159939,403.0048505159939,403.0048505159939,403.0048505159939,403.0048505159939,403.0048505159939,403.0048505159939,403.0048505159939,403.0048505159939,403.0048505159939,a,1.6019422050012508,10,109,0,404.63975457700144,406.1414612100052,,,,,,,,,,,,,,,,,,,,,,,,,,,,,,,,,,,,,,,,,,,,,,,,,,,,,,,,,,,,,,,,,,31068,2022-11-04_14h56.24.032,vts_reward_expectancy_bt_OFFLINE,2022.2.4,59.97243187170211,
1,0,0,0,0,0,1,0,triangle,hexagon,0,0,0,0,1,7,19,1,,,,,,,,,,,,,,,,,,,,,,,,,,,,,,,,,,,,,,,,406.64203958099824,406.64203958099824,406.64203958099824,406.64203958099824,406.64203958099824,406.64203958099824,406.64203958099824,406.64203958099824,406.64203958099824,406.64203958099824,l,2.9598935289977817,10,119,0,409.6286967890046,411.1302383010043,,,,,,,,,,,,,,,,,,,,,,,,,,,,,,,,,,,,,,,,,,,,,,,,,,,,,,,,,,,,,,,,,,31068,2022-11-04_14h56.24.032,vts_reward_expectancy_bt_OFFLINE,2022.2.4,59.97243187170211,
0,0,1,0,0,0,0,1,hexagon,star,0,0,0,0,1,8,20,8,,,,,,,,,,,,,,,,,,,,,,,,,,,,,,,,,,,,,,,,411.63099604200397,411.63099604200397,411.63099604200397,411.63099604200397,411.63099604200397,411.63099604200397,411.63099604200397,411.63099604200397,411.63099604200397,411.63099604200397,a,1.323748371010879,1,120,0,412.98246442200616,414.4840001859993,,,,,,,,,,,,,,,,,,,,,,,,,,,,,,,,,,,,,,,,,,,,,,,,,,,,,,,,,,,,,,,,,,31068,2022-11-04_14h56.24.032,vts_reward_expectancy_bt_OFFLINE,2022.2.4,59.97243187170211,
0,1,0,0,0,0,0,1,circle,star,0,0,0,0,1,9,21,5,,,,,,,,,,,,,,,,,,,,,,,,,,,,,,,,,,,,,,,,414.98452100899885,414.98452100899885,414.98452100899885,414.98452100899885,414.98452100899885,414.98452100899885,414.98452100899885,414.98452100899885,414.98452100899885,414.98452100899885,l,1.0526521740102908,1,121,0,416.06909161900694,417.5707969159994,,,,,,,,,,,,,,,,,,,,,,,,,,,,,,,,,,,,,,,,,,,,,,,,,,,,,,,,,,,,,,,,,,31068,2022-11-04_14h56.24.032,vts_reward_expectancy_bt_OFFLINE,2022.2.4,59.97243187170211,
0,0,0,1,0,1,0,0,star ,circle,0,0,0,0,1,10,22,10,,,,,,,,,,,,,,,,,,,,,,,,,,,,,,,,,,,,,,,,418.0713946150063,418.0713946150063,418.0713946150063,418.0713946150063,418.0713946150063,418.0713946150063,418.0713946150063,418.0713946150063,418.0713946150063,418.0713946150063,a,1.1033807570056524,1,122,0,419.2059007640055,420.70768852200126,,,,,,,,,,,,,,,,,,,,,,,,,,,,,,,,,,,,,,,,,,,,,,,,,,,,,,,,,,,,,,,,,,31068,2022-11-04_14h56.24.032,vts_reward_expectancy_bt_OFFLINE,2022.2.4,59.97243187170211,
0,0,1,0,0,1,0,0,hexagon,circle,0,0,0,0,1,11,23,7,,,,,,,,,,,,,,,,,,,,,,,,,,,,,,,,,,,,,,,,421.2081391840038,421.2081391840038,421.2081391840038,421.2081391840038,421.2081391840038,421.2081391840038,421.2081391840038,421.2081391840038,421.2081391840038,421.2081391840038,a,1.4543159220047528,1,123,0,422.693094525006,424.194729313007,,,,,,,,,,,,,,,,,,,,,,,,,,,,,,,,,,,,,,,,,,,,,,,,,,,,,,,,,,,,,,,,,,31068,2022-11-04_14h56.24.032,vts_reward_expectancy_bt_OFFLINE,2022.2.4,59.97243187170211,
0,0,0,1,0,1,0,0,star ,circle,0,0,0,0,2,0,24,10,,,,,,,,,,,,,,,,,,,,,,,,,,,,,,,,,,,,,,,,424.6949817660061,424.6949817660061,424.6949817660061,424.6949817660061,424.6949817660061,424.6949817660061,424.6949817660061,424.6949817660061,424.6949817660061,424.6949817660061,a,3.210628788001486,1,124,0,427.9323264419945,429.4338636169996,,,,,,,,,,,,,,,,,,,,,,,,,,,,,,,,,,,,,,,,,,,,,,,,,,,,,,,,,,,,,,,,,,31068,2022-11-04_14h56.24.032,vts_reward_expectancy_bt_OFFLINE,2022.2.4,59.97243187170211,
0,1,0,0,1,0,0,0,circle,triangle,0,0,0,0,2,1,25,3,,,,,,,,,,,,,,,,,,,,,,,,,,,,,,,,,,,,,,,,429.93448808400717,429.93448808400717,429.93448808400717,429.93448808400717,429.93448808400717,429.93448808400717,429.93448808400717,429.93448808400717,429.93448808400717,429.93448808400717,l,1.3244808720046422,10,134,0,431.2859088929981,432.78749132899975,,,,,,,,,,,,,,,,,,,,,,,,,,,,,,,,,,,,,,,,,,,,,,,,,,,,,,,,,,,,,,,,,,31068,2022-11-04_14h56.24.032,vts_reward_expectancy_bt_OFFLINE,2022.2.4,59.97243187170211,
0,1,0,0,0,0,1,0,circle,hexagon,0,0,0,0,2,2,26,4,,,,,,,,,,,,,,,,,,,,,,,,,,,,,,,,,,,,,,,,433.28819369900157,433.28819369900157,433.28819369900157,433.28819369900157,433.28819369900157,433.28819369900157,433.28819369900157,433.28819369900157,433.28819369900157,433.28819369900157,l,2.2894220750022214,1,135,0,435.6074073869968,437.10890720400494,,,,,,,,,,,,,,,,,,,,,,,,,,,,,,,,,,,,,,,,,,,,,,,,,,,,,,,,,,,,,,,,,,31068,2022-11-04_14h56.24.032,vts_reward_expectancy_bt_OFFLINE,2022.2.4,59.97243187170211,
0,1,0,0,0,0,0,1,circle,star,0,0,0,0,2,3,27,5,,,,,,,,,,,,,,,,,,,,,,,,,,,,,,,,,,,,,,,,437.6096907519968,437.6096907519968,437.6096907519968,437.6096907519968,437.6096907519968,437.6096907519968,437.6096907519968,437.6096907519968,437.6096907519968,437.6096907519968,a,0.45600158200250007,10,145,0,438.09347622000496,439.595322166002,,,,,,,,,,,,,,,,,,,,,,,,,,,,,,,,,,,,,,,,,,,,,,,,,,,,,,,,,,,,,,,,,,31068,2022-11-04_14h56.24.032,vts_reward_expectancy_bt_OFFLINE,2022.2.4,59.97243187170211,
0,0,1,0,1,0,0,0,hexagon,triangle,0,0,0,0,2,4,28,6,,,,,,,,,,,,,,,,,,,,,,,,,,,,,,,,,,,,,,,,440.0955876990047,440.0955876990047,440.0955876990047,440.0955876990047,440.0955876990047,440.0955876990047,440.0955876990047,440.0955876990047,440.0955876990047,440.0955876990047,a,1.377400742014288,1,146,0,441.4970926090027,442.9989562249975,,,,,,,,,,,,,,,,,,,,,,,,,,,,,,,,,,,,,,,,,,,,,,,,,,,,,,,,,,,,,,,,,,31068,2022-11-04_14h56.24.032,vts_reward_expectancy_bt_OFFLINE,2022.2.4,59.97243187170211,
0,0,1,0,0,1,0,0,hexagon,circle,0,0,0,0,2,5,29,7,,,,,,,,,,,,,,,,,,,,,,,,,,,,,,,,,,,,,,,,443.49937807499373,443.49937807499373,443.49937807499373,443.49937807499373,443.49937807499373,443.49937807499373,443.49937807499373,443.49937807499373,443.49937807499373,443.49937807499373,l,0.7186837160115829,10,156,0,444.25027219399635,445.7519298249972,,,,,,,,,,,,,,,,,,,,,,,,,,,,,,,,,,,,,,,,,,,,,,,,,,,,,,,,,,,,,,,,,,31068,2022-11-04_14h56.24.032,vts_reward_expectancy_bt_OFFLINE,2022.2.4,59.97243187170211,
0,0,0,1,0,0,1,0,star,hexagon,0,0,0,0,2,6,30,11,,,,,,,,,,,,,,,,,,,,,,,,,,,,,,,,,,,,,,,,446.2525465390063,446.2525465390063,446.2525465390063,446.2525465390063,446.2525465390063,446.2525465390063,446.2525465390063,446.2525465390063,446.2525465390063,446.2525465390063,l,1.2512813900102628,1,157,0,447.52045842600637,449.0222397799953,,,,,,,,,,,,,,,,,,,,,,,,,,,,,,,,,,,,,,,,,,,,,,,,,,,,,,,,,,,,,,,,,,31068,2022-11-04_14h56.24.032,vts_reward_expectancy_bt_OFFLINE,2022.2.4,59.97243187170211,
0,0,1,0,0,0,0,1,hexagon,star,0,0,0,0,2,7,31,8,,,,,,,,,,,,,,,,,,,,,,,,,,,,,,,,,,,,,,,,449.52272940399416,449.52272940399416,449.52272940399416,449.52272940399416,449.52272940399416,449.52272940399416,449.52272940399416,449.52272940399416,449.52272940399416,449.52272940399416,l,2.2686432790069375,10,167,0,451.8086817040021,453.3101644970011,,,,,,,,,,,,,,,,,,,,,,,,,,,,,,,,,,,,,,,,,,,,,,,,,,,,,,,,,,,,,,,,,,31068,2022-11-04_14h56.24.032,vts_reward_expectancy_bt_OFFLINE,2022.2.4,59.97243187170211,
1,0,0,0,0,0,1,0,triangle,hexagon,0,0,0,0,2,8,32,1,,,,,,,,,,,,,,,,,,,,,,,,,,,,,,,,,,,,,,,,453.81070167399594,453.81070167399594,453.81070167399594,453.81070167399594,453.81070167399594,453.81070167399594,453.81070167399594,453.81070167399594,453.81070167399594,453.81070167399594,a,1.5355974769918248,10,177,0,455.37928476999514,456.88107152500015,,,,,,,,,,,,,,,,,,,,,,,,,,,,,,,,,,,,,,,,,,,,,,,,,,,,,,,,,,,,,,,,,,31068,2022-11-04_14h56.24.032,vts_reward_expectancy_bt_OFFLINE,2022.2.4,59.97243187170211,
0,0,0,1,1,0,0,0,star,triangle,0,0,0,0,2,9,33,9,,,,,,,,,,,,,,,,,,,,,,,,,,,,,,,,,,,,,,,,457.3814476260013,457.3814476260013,457.3814476260013,457.3814476260013,457.3814476260013,457.3814476260013,457.3814476260013,457.3814476260013,457.3814476260013,457.3814476260013,l,0.7418901229975745,10,187,0,458.14872741000727,459.6505955839966,,,,,,,,,,,,,,,,,,,,,,,,,,,,,,,,,,,,,,,,,,,,,,,,,,,,,,,,,,,,,,,,,,31068,2022-11-04_14h56.24.032,vts_reward_expectancy_bt_OFFLINE,2022.2.4,59.97243187170211,
1,0,0,0,0,0,0,1,triangle,star,0,0,0,0,2,10,34,2,,,,,,,,,,,,,,,,,,,,,,,,,,,,,,,,,,,,,,,,460.1510684459936,460.1510684459936,460.1510684459936,460.1510684459936,460.1510684459936,460.1510684459936,460.1510684459936,460.1510684459936,460.1510684459936,460.1510684459936,a,1.1916336169961141,1,188,0,461.36912866399507,462.87076145299943,,,,,,,,,,,,,,,,,,,,,,,,,,,,,,,,,,,,,,,,,,,,,,,,,,,,,,,,,,,,,,,,,,31068,2022-11-04_14h56.24.032,vts_reward_expectancy_bt_OFFLINE,2022.2.4,59.97243187170211,
1,0,0,0,0,1,0,0,triangle,circle,0,0,0,0,2,11,35,0,,,,,,,,,,,,,,,,,,,,,,,,,,,,,,,,,,,,,,,,463.3713345099968,463.3713345099968,463.3713345099968,463.3713345099968,463.3713345099968,463.3713345099968,463.3713345099968,463.3713345099968,463.3713345099968,463.3713345099968,l,2.358607660004054,1,189,0,465.7573794100026,467.2588707100076,,,,,,,,,,,,,,,,,,,,,,,,,,,,,,,,,,,,,,,,,,,,,,,,,,,,,,,,,,,,,,,,,,31068,2022-11-04_14h56.24.032,vts_reward_expectancy_bt_OFFLINE,2022.2.4,59.97243187170211,
0,0,0,1,0,0,1,0,star,hexagon,0,0,0,0,3,0,36,11,,,,,,,,,,,,,,,,,,,,,,,,,,,,,,,,,,,,,,,,467.75936645000183,467.75936645000183,467.75936645000183,467.75936645000183,467.75936645000183,467.75936645000183,467.75936645000183,467.75936645000183,467.75936645000183,467.75936645000183,a,0.907525278016692,1,190,0,468.6938836390036,470.1955625099945,,,,,,,,,,,,,,,,,,,,,,,,,,,,,,,,,,,,,,,,,,,,,,,,,,,,,,,,,,,,,,,,,,31068,2022-11-04_14h56.24.032,vts_reward_expectancy_bt_OFFLINE,2022.2.4,59.97243187170211,
0,0,0,1,0,1,0,0,star ,circle,0,0,0,0,3,1,37,10,,,,,,,,,,,,,,,,,,,,,,,,,,,,,,,,,,,,,,,,470.696087823002,470.696087823002,470.696087823002,470.696087823002,470.696087823002,470.696087823002,470.696087823002,470.696087823002,470.696087823002,470.696087823002,l,0.5806667199940421,1,191,0,471.29651209099393,472.79831769100565,,,,,,,,,,,,,,,,,,,,,,,,,,,,,,,,,,,,,,,,,,,,,,,,,,,,,,,,,,,,,,,,,,31068,2022-11-04_14h56.24.032,vts_reward_expectancy_bt_OFFLINE,2022.2.4,59.97243187170211,
0,1,0,0,1,0,0,0,circle,triangle,0,0,0,0,3,2,38,3,,,,,,,,,,,,,,,,,,,,,,,,,,,,,,,,,,,,,,,,473.2988931090076,473.2988931090076,473.2988931090076,473.2988931090076,473.2988931090076,473.2988931090076,473.2988931090076,473.2988931090076,473.2988931090076,473.2988931090076,a,1.4195808840013342,10,201,0,474.75044935899496,476.2522834310075,,,,,,,,,,,,,,,,,,,,,,,,,,,,,,,,,,,,,,,,,,,,,,,,,,,,,,,,,,,,,,,,,,31068,2022-11-04_14h56.24.032,vts_reward_expectancy_bt_OFFLINE,2022.2.4,59.97243187170211,
1,0,0,0,0,0,0,1,triangle,star,0,0,0,0,3,3,39,2,,,,,,,,,,,,,,,,,,,,,,,,,,,,,,,,,,,,,,,,476.7526509099989,476.7526509099989,476.7526509099989,476.7526509099989,476.7526509099989,476.7526509099989,476.7526509099989,476.7526509099989,476.7526509099989,476.7526509099989,a,2.0840791540103965,10,211,0,478.85518641500676,480.35683830300695,,,,,,,,,,,,,,,,,,,,,,,,,,,,,,,,,,,,,,,,,,,,,,,,,,,,,,,,,,,,,,,,,,31068,2022-11-04_14h56.24.032,vts_reward_expectancy_bt_OFFLINE,2022.2.4,59.97243187170211,
1,0,0,0,0,0,1,0,triangle,hexagon,0,0,0,0,3,4,40,1,,,,,,,,,,,,,,,,,,,,,,,,,,,,,,,,,,,,,,,,480.8572433710069,480.8572433710069,480.8572433710069,480.8572433710069,480.8572433710069,480.8572433710069,480.8572433710069,480.8572433710069,480.8572433710069,480.8572433710069,a,2.2875156620139023,1,212,0,483.17649680499744,484.6781752620009,,,,,,,,,,,,,,,,,,,,,,,,,,,,,,,,,,,,,,,,,,,,,,,,,,,,,,,,,,,,,,,,,,31068,2022-11-04_14h56.24.032,vts_reward_expectancy_bt_OFFLINE,2022.2.4,59.97243187170211,
0,0,1,0,1,0,0,0,hexagon,triangle,0,0,0,0,3,5,41,6,,,,,,,,,,,,,,,,,,,,,,,,,,,,,,,,,,,,,,,,485.17867600200407,485.17867600200407,485.17867600200407,485.17867600200407,485.17867600200407,485.17867600200407,485.17867600200407,485.17867600200407,485.17867600200407,485.17867600200407,a,1.1844748960138531,10,222,0,486.3801459209935,487.8815943910013,,,,,,,,,,,,,,,,,,,,,,,,,,,,,,,,,,,,,,,,,,,,,,,,,,,,,,,,,,,,,,,,,,31068,2022-11-04_14h56.24.032,vts_reward_expectancy_bt_OFFLINE,2022.2.4,59.97243187170211,
0,0,0,1,1,0,0,0,star,triangle,0,0,0,0,3,6,42,9,,,,,,,,,,,,,,,,,,,,,,,,,,,,,,,,,,,,,,,,488.38214286199945,488.38214286199945,488.38214286199945,488.38214286199945,488.38214286199945,488.38214286199945,488.38214286199945,488.38214286199945,488.38214286199945,488.38214286199945,l,3.593821692003985,10,232,0,492.00284921200364,493.5045394280023,,,,,,,,,,,,,,,,,,,,,,,,,,,,,,,,,,,,,,,,,,,,,,,,,,,,,,,,,,,,,,,,,,31068,2022-11-04_14h56.24.032,vts_reward_expectancy_bt_OFFLINE,2022.2.4,59.97243187170211,
0,0,1,0,0,1,0,0,hexagon,circle,0,0,0,0,3,7,43,7,,,,,,,,,,,,,,,,,,,,,,,,,,,,,,,,,,,,,,,,494.00525188799656,494.00525188799656,494.00525188799656,494.00525188799656,494.00525188799656,494.00525188799656,494.00525188799656,494.00525188799656,494.00525188799656,494.00525188799656,a,2.5052586880046874,10,242,0,496.54112097699544,498.04283420799766,,,,,,,,,,,,,,,,,,,,,,,,,,,,,,,,,,,,,,,,,,,,,,,,,,,,,,,,,,,,,,,,,,31068,2022-11-04_14h56.24.032,vts_reward_expectancy_bt_OFFLINE,2022.2.4,59.97243187170211,
1,0,0,0,0,1,0,0,triangle,circle,0,0,0,0,3,8,44,0,,,,,,,,,,,,,,,,,,,,,,,,,,,,,,,,,,,,,,,,498.5434935030062,498.5434935030062,498.5434935030062,498.5434935030062,498.5434935030062,498.5434935030062,498.5434935030062,498.5434935030062,498.5434935030062,498.5434935030062,l,3.704547076005838,10,252,0,502.2808950059989,503.78251551199355,,,,,,,,,,,,,,,,,,,,,,,,,,,,,,,,,,,,,,,,,,,,,,,,,,,,,,,,,,,,,,,,,,31068,2022-11-04_14h56.24.032,vts_reward_expectancy_bt_OFFLINE,2022.2.4,59.97243187170211,
0,1,0,0,0,0,0,1,circle,star,0,0,0,0,3,9,45,5,,,,,,,,,,,,,,,,,,,,,,,,,,,,,,,,,,,,,,,,504.2830733169976,504.2830733169976,504.2830733169976,504.2830733169976,504.2830733169976,504.2830733169976,504.2830733169976,504.2830733169976,504.2830733169976,504.2830733169976,l,2.229096964991186,1,253,0,506.5356672880007,508.0371970010019,,,,,,,,,,,,,,,,,,,,,,,,,,,,,,,,,,,,,,,,,,,,,,,,,,,,,,,,,,,,,,,,,,31068,2022-11-04_14h56.24.032,vts_reward_expectancy_bt_OFFLINE,2022.2.4,59.97243187170211,
0,0,1,0,0,0,0,1,hexagon,star,0,0,0,0,3,10,46,8,,,,,,,,,,,,,,,,,,,,,,,,,,,,,,,,,,,,,,,,508.5377277259977,508.5377277259977,508.5377277259977,508.5377277259977,508.5377277259977,508.5377277259977,508.5377277259977,508.5377277259977,508.5377277259977,508.5377277259977,l,1.1468079290061723,10,263,0,509.7055896189995,511.20725954500085,,,,,,,,,,,,,,,,,,,,,,,,,,,,,,,,,,,,,,,,,,,,,,,,,,,,,,,,,,,,,,,,,,31068,2022-11-04_14h56.24.032,vts_reward_expectancy_bt_OFFLINE,2022.2.4,59.97243187170211,
0,1,0,0,0,0,1,0,circle,hexagon,0,0,0,0,3,11,47,4,,,,,,,,,,,,,,,,,,,,,,,,,,,,,,,,,,,,,,,,511.70788030300173,511.70788030300173,511.70788030300173,511.70788030300173,511.70788030300173,511.70788030300173,511.70788030300173,511.70788030300173,511.70788030300173,511.70788030300173,l,1.7110486260062316,10,273,0,513.4431651339983,514.9449112290022,,,,,,,,,,,,,,,,,,,,,,,,,,,,,,,,,,,,,,,,,,,,,,,,,,,,,,,,,,,,,,,,,,31068,2022-11-04_14h56.24.032,vts_reward_expectancy_bt_OFFLINE,2022.2.4,59.97243187170211,
0,0,0,1,0,0,1,0,star,hexagon,1,0,1,0,0,0,0,11,,,,,,,,,,,,,,,,,,,,,,,,,,,,,,,,,,,,,,,,523.3605350529979,523.3605350529979,523.3605350529979,523.3605350529979,523.3605350529979,523.3605350529979,523.3605350529979,523.3605350529979,523.3605350529979,523.3605350529979,a,0.9947972530062543,1,274,1,524.3718942080013,525.8735255630017,,,,,,,,,,,,,,,,,,,,,,,,,,,,,,,,,,,,,,,,,,,,,,,,,,,,,,,,,,,,,,,,,,31068,2022-11-04_14h56.24.032,vts_reward_expectancy_bt_OFFLINE,2022.2.4,59.97243187170211,
0,0,1,0,0,0,0,1,hexagon,star,1,0,1,0,0,1,1,8,,,,,,,,,,,,,,,,,,,,,,,,,,,,,,,,,,,,,,,,526.3739468830026,526.3739468830026,526.3739468830026,526.3739468830026,526.3739468830026,526.3739468830026,526.3739468830026,526.3739468830026,526.3739468830026,526.3739468830026,a,1.1423643850139342,10,284,1,527.5419686189998,529.0438953550038,,,,,,,,,,,,,,,,,,,,,,,,,,,,,,,,,,,,,,,,,,,,,,,,,,,,,,,,,,,,,,,,,,31068,2022-11-04_14h56.24.032,vts_reward_expectancy_bt_OFFLINE,2022.2.4,59.97243187170211,
0,0,1,0,1,0,0,0,hexagon,triangle,1,0,1,0,0,2,2,6,,,,,,,,,,,,,,,,,,,,,,,,,,,,,,,,,,,,,,,,529.5444041430019,529.5444041430019,529.5444041430019,529.5444041430019,529.5444041430019,529.5444041430019,529.5444041430019,529.5444041430019,529.5444041430019,529.5444041430019,l,1.2801994850015035,10,294,1,530.8457596630033,532.3473319879995,,,,,,,,,,,,,,,,,,,,,,,,,,,,,,,,,,,,,,,,,,,,,,,,,,,,,,,,,,,,,,,,,,31068,2022-11-04_14h56.24.032,vts_reward_expectancy_bt_OFFLINE,2022.2.4,59.97243187170211,
1,0,0,0,0,0,0,1,triangle,star,1,0,1,0,0,3,3,2,,,,,,,,,,,,,,,,,,,,,,,,,,,,,,,,,,,,,,,,532.8480089009972,532.8480089009972,532.8480089009972,532.8480089009972,532.8480089009972,532.8480089009972,532.8480089009972,532.8480089009972,532.8480089009972,532.8480089009972,a,1.0356052270071814,10,304,1,533.9158614040061,535.4175483849976,,,,,,,,,,,,,,,,,,,,,,,,,,,,,,,,,,,,,,,,,,,,,,,,,,,,,,,,,,,,,,,,,,31068,2022-11-04_14h56.24.032,vts_reward_expectancy_bt_OFFLINE,2022.2.4,59.97243187170211,
0,0,1,0,0,1,0,0,hexagon,circle,1,0,1,0,0,4,4,7,,,,,,,,,,,,,,,,,,,,,,,,,,,,,,,,,,,,,,,,535.9179648069985,535.9179648069985,535.9179648069985,535.9179648069985,535.9179648069985,535.9179648069985,535.9179648069985,535.9179648069985,535.9179648069985,535.9179648069985,l,0.8583196149993455,10,314,1,536.8022411480051,538.3038699150056,,,,,,,,,,,,,,,,,,,,,,,,,,,,,,,,,,,,,,,,,,,,,,,,,,,,,,,,,,,,,,,,,,31068,2022-11-04_14h56.24.032,vts_reward_expectancy_bt_OFFLINE,2022.2.4,59.97243187170211,
0,1,0,0,0,0,1,0,circle,hexagon,1,0,1,0,0,5,5,4,,,,,,,,,,,,,,,,,,,,,,,,,,,,,,,,,,,,,,,,538.8043962740048,538.8043962740048,538.8043962740048,538.8043962740048,538.8043962740048,538.8043962740048,538.8043962740048,538.8043962740048,538.8043962740048,538.8043962740048,a,0.9078852160018869,1,315,1,539.738922457007,541.2405965890066,,,,,,,,,,,,,,,,,,,,,,,,,,,,,,,,,,,,,,,,,,,,,,,,,,,,,,,,,,,,,,,,,,31068,2022-11-04_14h56.24.032,vts_reward_expectancy_bt_OFFLINE,2022.2.4,59.97243187170211,
0,0,0,1,1,0,0,0,star,triangle,1,0,1,0,0,6,6,9,,,,,,,,,,,,,,,,,,,,,,,,,,,,,,,,,,,,,,,,541.7409961109952,541.7409961109952,541.7409961109952,541.7409961109952,541.7409961109952,541.7409961109952,541.7409961109952,541.7409961109952,541.7409961109952,541.7409961109952,a,1.4693223420035793,10,325,1,543.2427208989975,544.7443078950018,,,,,,,,,,,,,,,,,,,,,,,,,,,,,,,,,,,,,,,,,,,,,,,,,,,,,,,,,,,,,,,,,,31068,2022-11-04_14h56.24.032,vts_reward_expectancy_bt_OFFLINE,2022.2.4,59.97243187170211,
1,0,0,0,0,0,1,0,triangle,hexagon,1,0,1,0,0,7,7,1,,,,,,,,,,,,,,,,,,,,,,,,,,,,,,,,,,,,,,,,545.2450634230045,545.2450634230045,545.2450634230045,545.2450634230045,545.2450634230045,545.2450634230045,545.2450634230045,545.2450634230045,545.2450634230045,545.2450634230045,l,0.57525509900006,10,335,1,545.8455710739945,547.347322097994,,,,,,,,,,,,,,,,,,,,,,,,,,,,,,,,,,,,,,,,,,,,,,,,,,,,,,,,,,,,,,,,,,31068,2022-11-04_14h56.24.032,vts_reward_expectancy_bt_OFFLINE,2022.2.4,59.97243187170211,
0,1,0,0,1,0,0,0,circle,triangle,1,0,1,0,0,8,8,3,,,,,,,,,,,,,,,,,,,,,,,,,,,,,,,,,,,,,,,,547.8478905119991,547.8478905119991,547.8478905119991,547.8478905119991,547.8478905119991,547.8478905119991,547.8478905119991,547.8478905119991,547.8478905119991,547.8478905119991,l,0.8862473990011495,1,336,1,548.7656156059966,550.2672534839949,,,,,,,,,,,,,,,,,,,,,,,,,,,,,,,,,,,,,,,,,,,,,,,,,,,,,,,,,,,,,,,,,,31068,2022-11-04_14h56.24.032,vts_reward_expectancy_bt_OFFLINE,2022.2.4,59.97243187170211,
0,0,0,1,0,1,0,0,star ,circle,1,0,1,0,0,9,9,10,,,,,,,,,,,,,,,,,,,,,,,,,,,,,,,,,,,,,,,,550.7677547210042,550.7677547210042,550.7677547210042,550.7677547210042,550.7677547210042,550.7677547210042,550.7677547210042,550.7677547210042,550.7677547210042,550.7677547210042,l,0.6435219560080441,1,337,1,551.4351980460051,552.936840067996,,,,,,,,,,,,,,,,,,,,,,,,,,,,,,,,,,,,,,,,,,,,,,,,,,,,,,,,,,,,,,,,,,31068,2022-11-04_14h56.24.032,vts_reward_expectancy_bt_OFFLINE,2022.2.4,59.97243187170211,
0,1,0,0,0,0,0,1,circle,star,1,0,1,0,0,10,10,5,,,,,,,,,,,,,,,,,,,,,,,,,,,,,,,,,,,,,,,,553.4374588039936,553.4374588039936,553.4374588039936,553.4374588039936,553.4374588039936,553.4374588039936,553.4374588039936,553.4374588039936,553.4374588039936,553.4374588039936,l,1.1576769789971877,10,347,1,554.6218862639944,556.1236510070012,,,,,,,,,,,,,,,,,,,,,,,,,,,,,,,,,,,,,,,,,,,,,,,,,,,,,,,,,,,,,,,,,,31068,2022-11-04_14h56.24.032,vts_reward_expectancy_bt_OFFLINE,2022.2.4,59.97243187170211,
1,0,0,0,0,1,0,0,triangle,circle,1,0,1,0,0,11,11,0,,,,,,,,,,,,,,,,,,,,,,,,,,,,,,,,,,,,,,,,556.6240429979953,556.6240429979953,556.6240429979953,556.6240429979953,556.6240429979953,556.6240429979953,556.6240429979953,556.6240429979953,556.6240429979953,556.6240429979953,a,0.9855986309994478,10,357,1,557.6420394099987,559.1436185009952,,,,,,,,,,,,,,,,,,,,,,,,,,,,,,,,,,,,,,,,,,,,,,,,,,,,,,,,,,,,,,,,,,31068,2022-11-04_14h56.24.032,vts_reward_expectancy_bt_OFFLINE,2022.2.4,59.97243187170211,
0,0,1,0,1,0,0,0,hexagon,triangle,1,0,1,0,1,0,12,6,,,,,,,,,,,,,,,,,,,,,,,,,,,,,,,,,,,,,,,,559.6441386109946,559.6441386109946,559.6441386109946,559.6441386109946,559.6441386109946,559.6441386109946,559.6441386109946,559.6441386109946,559.6441386109946,559.6441386109946,a,0.8477632690046448,10,367,1,560.5118201019941,562.0134138249996,,,,,,,,,,,,,,,,,,,,,,,,,,,,,,,,,,,,,,,,,,,,,,,,,,,,,,,,,,,,,,,,,,31068,2022-11-04_14h56.24.032,vts_reward_expectancy_bt_OFFLINE,2022.2.4,59.97243187170211,
0,0,1,0,0,1,0,0,hexagon,circle,1,0,1,0,1,1,13,7,,,,,,,,,,,,,,,,,,,,,,,,,,,,,,,,,,,,,,,,562.5139262430021,562.5139262430021,562.5139262430021,562.5139262430021,562.5139262430021,562.5139262430021,562.5139262430021,562.5139262430021,562.5139262430021,562.5139262430021,a,0.8912081370071974,1,368,1,563.4317266330036,564.933368375001,,,,,,,,,,,,,,,,,,,,,,,,,,,,,,,,,,,,,,,,,,,,,,,,,,,,,,,,,,,,,,,,,,31068,2022-11-04_14h56.24.032,vts_reward_expectancy_bt_OFFLINE,2022.2.4,59.97243187170211,
0,1,0,0,1,0,0,0,circle,triangle,1,0,1,0,1,2,14,3,,,,,,,,,,,,,,,,,,,,,,,,,,,,,,,,,,,,,,,,565.4338116069994,565.4338116069994,565.4338116069994,565.4338116069994,565.4338116069994,565.4338116069994,565.4338116069994,565.4338116069994,565.4338116069994,565.4338116069994,a,0.7506669819995295,10,378,1,566.201320609005,567.7030816519982,,,,,,,,,,,,,,,,,,,,,,,,,,,,,,,,,,,,,,,,,,,,,,,,,,,,,,,,,,,,,,,,,,31068,2022-11-04_14h56.24.032,vts_reward_expectancy_bt_OFFLINE,2022.2.4,59.97243187170211,
0,0,0,1,0,1,0,0,star ,circle,1,0,1,0,1,3,15,10,,,,,,,,,,,,,,,,,,,,,,,,,,,,,,,,,,,,,,,,568.2036430760054,568.2036430760054,568.2036430760054,568.2036430760054,568.2036430760054,568.2036430760054,568.2036430760054,568.2036430760054,568.2036430760054,568.2036430760054,l,0.9843146970088128,1,379,1,569.2048272950051,570.7065320569964,,,,,,,,,,,,,,,,,,,,,,,,,,,,,,,,,,,,,,,,,,,,,,,,,,,,,,,,,,,,,,,,,,31068,2022-11-04_14h56.24.032,vts_reward_expectancy_bt_OFFLINE,2022.2.4,59.97243187170211,
1,0,0,0,0,0,0,1,triangle,star,1,0,1,0,1,4,16,2,,,,,,,,,,,,,,,,,,,,,,,,,,,,,,,,,,,,,,,,571.2068067770015,571.2068067770015,571.2068067770015,571.2068067770015,571.2068067770015,571.2068067770015,571.2068067770015,571.2068067770015,571.2068067770015,571.2068067770015,l,0.5905950460146414,10,389,1,571.82429366,573.3259439770045,,,,,,,,,,,,,,,,,,,,,,,,,,,,,,,,,,,,,,,,,,,,,,,,,,,,,,,,,,,,,,,,,,31068,2022-11-04_14h56.24.032,vts_reward_expectancy_bt_OFFLINE,2022.2.4,59.97243187170211,
1,0,0,0,0,1,0,0,triangle,circle,1,0,1,0,1,5,17,0,,,,,,,,,,,,,,,,,,,,,,,,,,,,,,,,,,,,,,,,573.8267168629973,573.8267168629973,573.8267168629973,573.8267168629973,573.8267168629973,573.8267168629973,573.8267168629973,573.8267168629973,573.8267168629973,573.8267168629973,a,0.9965587720071198,1,390,1,574.8442874830071,576.3460287930066,,,,,,,,,,,,,,,,,,,,,,,,,,,,,,,,,,,,,,,,,,,,,,,,,,,,,,,,,,,,,,,,,,31068,2022-11-04_14h56.24.032,vts_reward_expectancy_bt_OFFLINE,2022.2.4,59.97243187170211,
0,0,0,1,0,0,1,0,star,hexagon,1,0,1,0,1,6,18,11,,,,,,,,,,,,,,,,,,,,,,,,,,,,,,,,,,,,,,,,576.8464849339944,576.8464849339944,576.8464849339944,576.8464849339944,576.8464849339944,576.8464849339944,576.8464849339944,576.8464849339944,576.8464849339944,576.8464849339944,a,0.9817886980017647,1,391,1,577.8475794209953,579.3492590980022,,,,,,,,,,,,,,,,,,,,,,,,,,,,,,,,,,,,,,,,,,,,,,,,,,,,,,,,,,,,,,,,,,31068,2022-11-04_14h56.24.032,vts_reward_expectancy_bt_OFFLINE,2022.2.4,59.97243187170211,
0,1,0,0,0,0,0,1,circle,star,1,0,1,0,1,7,19,5,,,,,,,,,,,,,,,,,,,,,,,,,,,,,,,,,,,,,,,,579.8498536469997,579.8498536469997,579.8498536469997,579.8498536469997,579.8498536469997,579.8498536469997,579.8498536469997,579.8498536469997,579.8498536469997,579.8498536469997,l,1.7355341670045163,1,392,1,581.6184296220017,583.1201011030062,,,,,,,,,,,,,,,,,,,,,,,,,,,,,,,,,,,,,,,,,,,,,,,,,,,,,,,,,,,,,,,,,,31068,2022-11-04_14h56.24.032,vts_reward_expectancy_bt_OFFLINE,2022.2.4,59.97243187170211,
1,0,0,0,0,0,1,0,triangle,hexagon,1,0,1,0,1,8,20,1,,,,,,,,,,,,,,,,,,,,,,,,,,,,,,,,,,,,,,,,583.620649746008,583.620649746008,583.620649746008,583.620649746008,583.620649746008,583.620649746008,583.620649746008,583.620649746008,583.620649746008,583.620649746008,l,1.2166951520048315,1,393,1,584.855305264995,586.3569536370051,,,,,,,,,,,,,,,,,,,,,,,,,,,,,,,,,,,,,,,,,,,,,,,,,,,,,,,,,,,,,,,,,,31068,2022-11-04_14h56.24.032,vts_reward_expectancy_bt_OFFLINE,2022.2.4,59.97243187170211,
0,0,1,0,0,0,0,1,hexagon,star,1,0,1,0,1,9,21,8,,,,,,,,,,,,,,,,,,,,,,,,,,,,,,,,,,,,,,,,586.8574346429959,586.8574346429959,586.8574346429959,586.8574346429959,586.8574346429959,586.8574346429959,586.8574346429959,586.8574346429959,586.8574346429959,586.8574346429959,a,1.1408900639944477,10,403,1,588.0255169390002,589.5270548459957,,,,,,,,,,,,,,,,,,,,,,,,,,,,,,,,,,,,,,,,,,,,,,,,,,,,,,,,,,,,,,,,,,31068,2022-11-04_14h56.24.032,vts_reward_expectancy_bt_OFFLINE,2022.2.4,59.97243187170211,
0,0,0,1,1,0,0,0,star,triangle,1,0,1,0,1,10,22,9,,,,,,,,,,,,,,,,,,,,,,,,,,,,,,,,,,,,,,,,590.0276576900069,590.0276576900069,590.0276576900069,590.0276576900069,590.0276576900069,590.0276576900069,590.0276576900069,590.0276576900069,590.0276576900069,590.0276576900069,l,0.7377394290087977,10,413,1,590.7952067620063,592.2968979790021,,,,,,,,,,,,,,,,,,,,,,,,,,,,,,,,,,,,,,,,,,,,,,,,,,,,,,,,,,,,,,,,,,31068,2022-11-04_14h56.24.032,vts_reward_expectancy_bt_OFFLINE,2022.2.4,59.97243187170211,
0,1,0,0,0,0,1,0,circle,hexagon,1,0,1,0,1,11,23,4,,,,,,,,,,,,,,,,,,,,,,,,,,,,,,,,,,,,,,,,592.797115059002,592.797115059002,592.797115059002,592.797115059002,592.797115059002,592.797115059002,592.797115059002,592.797115059002,592.797115059002,592.797115059002,a,0.645092212012969,10,423,1,593.4648838650028,594.9664165730064,,,,,,,,,,,,,,,,,,,,,,,,,,,,,,,,,,,,,,,,,,,,,,,,,,,,,,,,,,,,,,,,,,31068,2022-11-04_14h56.24.032,vts_reward_expectancy_bt_OFFLINE,2022.2.4,59.97243187170211,
0,0,1,0,0,0,0,1,hexagon,star,1,0,1,0,2,0,24,8,,,,,,,,,,,,,,,,,,,,,,,,,,,,,,,,,,,,,,,,595.4668129619968,595.4668129619968,595.4668129619968,595.4668129619968,595.4668129619968,595.4668129619968,595.4668129619968,595.4668129619968,595.4668129619968,595.4668129619968,a,0.8686238380032592,10,433,1,596.3678420789947,597.8695376310061,,,,,,,,,,,,,,,,,,,,,,,,,,,,,,,,,,,,,,,,,,,,,,,,,,,,,,,,,,,,,,,,,,31068,2022-11-04_14h56.24.032,vts_reward_expectancy_bt_OFFLINE,2022.2.4,59.97243187170211,
1,0,0,0,0,0,0,1,triangle,star,1,0,1,0,2,1,25,2,,,,,,,,,,,,,,,,,,,,,,,,,,,,,,,,,,,,,,,,598.3700385760021,598.3700385760021,598.3700385760021,598.3700385760021,598.3700385760021,598.3700385760021,598.3700385760021,598.3700385760021,598.3700385760021,598.3700385760021,a,0.6654076919949148,1,434,1,599.0541618849966,600.5558868030057,,,,,,,,,,,,,,,,,,,,,,,,,,,,,,,,,,,,,,,,,,,,,,,,,,,,,,,,,,,,,,,,,,31068,2022-11-04_14h56.24.032,vts_reward_expectancy_bt_OFFLINE,2022.2.4,59.97243187170211,
0,1,0,0,0,0,0,1,circle,star,1,0,1,0,2,2,26,5,,,,,,,,,,,,,,,,,,,,,,,,,,,,,,,,,,,,,,,,601.0563770120061,601.0563770120061,601.0563770120061,601.0563770120061,601.0563770120061,601.0563770120061,601.0563770120061,601.0563770120061,601.0563770120061,601.0563770120061,l,0.5540984550025314,10,444,1,601.6403094190027,603.1419832050015,,,,,,,,,,,,,,,,,,,,,,,,,,,,,,,,,,,,,,,,,,,,,,,,,,,,,,,,,,,,,,,,,,31068,2022-11-04_14h56.24.032,vts_reward_expectancy_bt_OFFLINE,2022.2.4,59.97243187170211,
0,1,0,0,1,0,0,0,circle,triangle,1,0,1,0,2,3,27,3,,,,,,,,,,,,,,,,,,,,,,,,,,,,,,,,,,,,,,,,603.6425630650047,603.6425630650047,603.6425630650047,603.6425630650047,603.6425630650047,603.6425630650047,603.6425630650047,603.6425630650047,603.6425630650047,603.6425630650047,l,0.984862826007884,10,454,1,604.6605046680052,606.1621301889973,,,,,,,,,,,,,,,,,,,,,,,,,,,,,,,,,,,,,,,,,,,,,,,,,,,,,,,,,,,,,,,,,,31068,2022-11-04_14h56.24.032,vts_reward_expectancy_bt_OFFLINE,2022.2.4,59.97243187170211,
0,1,0,0,0,0,1,0,circle,hexagon,1,0,1,0,2,4,28,4,,,,,,,,,,,,,,,,,,,,,,,,,,,,,,,,,,,,,,,,606.662751145006,606.662751145006,606.662751145006,606.662751145006,606.662751145006,606.662751145006,606.662751145006,606.662751145006,606.662751145006,606.662751145006,l,0.7307144720107317,10,464,1,607.4136277460057,608.9152180590027,,,,,,,,,,,,,,,,,,,,,,,,,,,,,,,,,,,,,,,,,,,,,,,,,,,,,,,,,,,,,,,,,,31068,2022-11-04_14h56.24.032,vts_reward_expectancy_bt_OFFLINE,2022.2.4,59.97243187170211,
0,0,0,1,1,0,0,0,star,triangle,1,0,1,0,2,5,29,9,,,,,,,,,,,,,,,,,,,,,,,,,,,,,,,,,,,,,,,,609.4157005409943,609.4157005409943,609.4157005409943,609.4157005409943,609.4157005409943,609.4157005409943,609.4157005409943,609.4157005409943,609.4157005409943,609.4157005409943,a,0.8239597679930739,10,474,1,610.2665598339954,611.7683608770021,,,,,,,,,,,,,,,,,,,,,,,,,,,,,,,,,,,,,,,,,,,,,,,,,,,,,,,,,,,,,,,,,,31068,2022-11-04_14h56.24.032,vts_reward_expectancy_bt_OFFLINE,2022.2.4,59.97243187170211,
0,0,1,0,1,0,0,0,hexagon,triangle,1,0,1,0,2,6,30,6,,,,,,,,,,,,,,,,,,,,,,,,,,,,,,,,,,,,,,,,612.2689894539944,612.2689894539944,612.2689894539944,612.2689894539944,612.2689894539944,612.2689894539944,612.2689894539944,612.2689894539944,612.2689894539944,612.2689894539944,a,0.6251163140113931,10,484,1,612.9196461149986,614.4212859440013,,,,,,,,,,,,,,,,,,,,,,,,,,,,,,,,,,,,,,,,,,,,,,,,,,,,,,,,,,,,,,,,,,31068,2022-11-04_14h56.24.032,vts_reward_expectancy_bt_OFFLINE,2022.2.4,59.97243187170211,
0,0,0,1,0,1,0,0,star ,circle,1,0,1,0,2,7,31,10,,,,,,,,,,,,,,,,,,,,,,,,,,,,,,,,,,,,,,,,614.9218110719958,614.9218110719958,614.9218110719958,614.9218110719958,614.9218110719958,614.9218110719958,614.9218110719958,614.9218110719958,614.9218110719958,614.9218110719958,a,0.6850621970079374,10,494,1,615.6393667070079,617.1409391780035,,,,,,,,,,,,,,,,,,,,,,,,,,,,,,,,,,,,,,,,,,,,,,,,,,,,,,,,,,,,,,,,,,31068,2022-11-04_14h56.24.032,vts_reward_expectancy_bt_OFFLINE,2022.2.4,59.97243187170211,
1,0,0,0,0,0,1,0,triangle,hexagon,1,0,1,0,2,8,32,1,,,,,,,,,,,,,,,,,,,,,,,,,,,,,,,,,,,,,,,,617.6414845539985,617.6414845539985,617.6414845539985,617.6414845539985,617.6414845539985,617.6414845539985,617.6414845539985,617.6414845539985,617.6414845539985,617.6414845539985,l,0.5071307410107693,10,504,1,618.1755238350015,619.6771045030036,619.6771045030036,,,,,,,,,,,,,,,,,,,,,,,,,,,,,,,,,,,,,,,,,,,,,,,,,,,,,,,,,,,,,,,,,31068,2022-11-04_14h56.24.032,vts_reward_expectancy_bt_OFFLINE,2022.2.4,59.97243187170211,
1,0,0,0,0,1,0,0,triangle,circle,1,0,1,0,2,9,33,0,,,,,,,,,,,,,,,,,,,,,,,,,,,,,,,,,,,,,,,,620.177588822,620.177588822,620.177588822,620.177588822,620.177588822,620.177588822,620.177588822,620.177588822,620.177588822,620.177588822,a,0.6499983370013069,10,514,1,620.8450274570059,622.3467204100016,,,,,,,,,,,,,,,,,,,,,,,,,,,,,,,,,,,,,,,,,,,,,,,,,,,,,,,,,,,,,,,,,,31068,2022-11-04_14h56.24.032,vts_reward_expectancy_bt_OFFLINE,2022.2.4,59.97243187170211,
0,0,1,0,0,1,0,0,hexagon,circle,1,0,1,0,2,10,34,7,,,,,,,,,,,,,,,,,,,,,,,,,,,,,,,,,,,,,,,,622.8472205199942,622.8472205199942,622.8472205199942,622.8472205199942,622.8472205199942,622.8472205199942,622.8472205199942,622.8472205199942,622.8472205199942,622.8472205199942,a,0.8495803830010118,10,524,1,623.7149264540058,625.2165192389948,,,,,,,,,,,,,,,,,,,,,,,,,,,,,,,,,,,,,,,,,,,,,,,,,,,,,,,,,,,,,,,,,,31068,2022-11-04_14h56.24.032,vts_reward_expectancy_bt_OFFLINE,2022.2.4,59.97243187170211,
0,0,0,1,0,0,1,0,star,hexagon,1,0,1,0,2,11,35,11,,,,,,,,,,,,,,,,,,,,,,,,,,,,,,,,,,,,,,,,625.7170501329965,625.7170501329965,625.7170501329965,625.7170501329965,625.7170501329965,625.7170501329965,625.7170501329965,625.7170501329965,625.7170501329965,625.7170501329965,a,0.9140155780041823,1,525,1,626.6515750029939,628.1530679739953,,,,,,,,,,,,,,,,,,,,,,,,,,,,,,,,,,,,,,,,,,,,,,,,,,,,,,,,,,,,,,,,,,31068,2022-11-04_14h56.24.032,vts_reward_expectancy_bt_OFFLINE,2022.2.4,59.97243187170211,
0,1,0,0,1,0,0,0,circle,triangle,1,0,1,0,3,0,36,3,,,,,,,,,,,,,,,,,,,,,,,,,,,,,,,,,,,,,,,,628.6536553640035,628.6536553640035,628.6536553640035,628.6536553640035,628.6536553640035,628.6536553640035,628.6536553640035,628.6536553640035,628.6536553640035,628.6536553640035,a,1.5889766509935725,1,526,1,630.2721207519935,631.7736389810016,,,,,,,,,,,,,,,,,,,,,,,,,,,,,,,,,,,,,,,,,,,,,,,,,,,,,,,,,,,,,,,,,,31068,2022-11-04_14h56.24.032,vts_reward_expectancy_bt_OFFLINE,2022.2.4,59.97243187170211,
1,0,0,0,0,0,0,1,triangle,star,1,0,1,0,3,1,37,2,,,,,,,,,,,,,,,,,,,,,,,,,,,,,,,,,,,,,,,,632.2742161640053,632.2742161640053,632.2742161640053,632.2742161640053,632.2742161640053,632.2742161640053,632.2742161640053,632.2742161640053,632.2742161640053,632.2742161640053,l,1.3539183210086776,1,527,1,633.6593027140043,635.16082972,,,,,,,,,,,,,,,,,,,,,,,,,,,,,,,,,,,,,,,,,,,,,,,,,,,,,,,,,,,,,,,,,,31068,2022-11-04_14h56.24.032,vts_reward_expectancy_bt_OFFLINE,2022.2.4,59.97243187170211,
1,0,0,0,0,1,0,0,triangle,circle,1,0,1,0,3,2,38,0,,,,,,,,,,,,,,,,,,,,,,,,,,,,,,,,,,,,,,,,635.6615156970074,635.6615156970074,635.6615156970074,635.6615156970074,635.6615156970074,635.6615156970074,635.6615156970074,635.6615156970074,635.6615156970074,635.6615156970074,l,1.0175094869919121,1,528,1,636.6960793909966,638.1975818780047,,,,,,,,,,,,,,,,,,,,,,,,,,,,,,,,,,,,,,,,,,,,,,,,,,,,,,,,,,,,,,,,,,31068,2022-11-04_14h56.24.032,vts_reward_expectancy_bt_OFFLINE,2022.2.4,59.97243187170211,
0,0,0,1,0,1,0,0,star ,circle,1,0,1,0,3,3,39,10,,,,,,,,,,,,,,,,,,,,,,,,,,,,,,,,,,,,,,,,638.6979189520061,638.6979189520061,638.6979189520061,638.6979189520061,638.6979189520061,638.6979189520061,638.6979189520061,638.6979189520061,638.6979189520061,638.6979189520061,a,0.4775129530025879,1,529,1,639.198546768006,640.7002465120022,,,,,,,,,,,,,,,,,,,,,,,,,,,,,,,,,,,,,,,,,,,,,,,,,,,,,,,,,,,,,,,,,,31068,2022-11-04_14h56.24.032,vts_reward_expectancy_bt_OFFLINE,2022.2.4,59.97243187170211,
0,1,0,0,0,0,0,1,circle,star,1,0,1,0,3,4,40,5,,,,,,,,,,,,,,,,,,,,,,,,,,,,,,,,,,,,,,,,641.2007914440037,641.2007914440037,641.2007914440037,641.2007914440037,641.2007914440037,641.2007914440037,641.2007914440037,641.2007914440037,641.2007914440037,641.2007914440037,l,2.2513829989911756,10,539,1,643.4700998579938,644.9708586930064,644.9708586930064,,,,,,,,,,,,,,,,,,,,,,,,,,,,,,,,,,,,,,,,,,,,,,,,,,,,,,,,,,,,,,,,,31068,2022-11-04_14h56.24.032,vts_reward_expectancy_bt_OFFLINE,2022.2.4,59.97243187170211,
1,0,0,0,0,0,1,0,triangle,hexagon,1,0,1,0,3,5,41,1,,,,,,,,,,,,,,,,,,,,,,,,,,,,,,,,,,,,,,,,645.4721025809995,645.4721025809995,645.4721025809995,645.4721025809995,645.4721025809995,645.4721025809995,645.4721025809995,645.4721025809995,645.4721025809995,645.4721025809995,l,1.3870375670085195,10,549,1,646.8905665560014,648.3921195050061,,,,,,,,,,,,,,,,,,,,,,,,,,,,,,,,,,,,,,,,,,,,,,,,,,,,,,,,,,,,,,,,,,31068,2022-11-04_14h56.24.032,vts_reward_expectancy_bt_OFFLINE,2022.2.4,59.97243187170211,
0,0,0,1,0,0,1,0,star,hexagon,1,0,1,0,3,6,42,11,,,,,,,,,,,,,,,,,,,,,,,,,,,,,,,,,,,,,,,,648.8926073990006,648.8926073990006,648.8926073990006,648.8926073990006,648.8926073990006,648.8926073990006,648.8926073990006,648.8926073990006,648.8926073990006,648.8926073990006,a,0.8918730519944802,1,550,1,649.8102248089999,651.3118820899981,,,,,,,,,,,,,,,,,,,,,,,,,,,,,,,,,,,,,,,,,,,,,,,,,,,,,,,,,,,,,,,,,,31068,2022-11-04_14h56.24.032,vts_reward_expectancy_bt_OFFLINE,2022.2.4,59.97243187170211,
0,1,0,0,0,0,1,0,circle,hexagon,1,0,1,0,3,7,43,4,,,,,,,,,,,,,,,,,,,,,,,,,,,,,,,,,,,,,,,,651.812504408008,651.812504408008,651.812504408008,651.812504408008,651.812504408008,651.812504408008,651.812504408008,651.812504408008,651.812504408008,651.812504408008,l,2.472169558997848,1,551,1,654.3153334569943,655.8169268460042,,,,,,,,,,,,,,,,,,,,,,,,,,,,,,,,,,,,,,,,,,,,,,,,,,,,,,,,,,,,,,,,,,31068,2022-11-04_14h56.24.032,vts_reward_expectancy_bt_OFFLINE,2022.2.4,59.97243187170211,
0,0,1,0,1,0,0,0,hexagon,triangle,1,0,1,0,3,8,44,6,,,,,,,,,,,,,,,,,,,,,,,,,,,,,,,,,,,,,,,,656.317753121999,656.317753121999,656.317753121999,656.317753121999,656.317753121999,656.317753121999,656.317753121999,656.317753121999,656.317753121999,656.317753121999,a,2.1427758380013984,10,561,1,658.4867422459938,659.9883522720047,,,,,,,,,,,,,,,,,,,,,,,,,,,,,,,,,,,,,,,,,,,,,,,,,,,,,,,,,,,,,,,,,,31068,2022-11-04_14h56.24.032,vts_reward_expectancy_bt_OFFLINE,2022.2.4,59.97243187170211,
0,0,1,0,0,0,0,1,hexagon,star,1,0,1,0,3,9,45,8,,,,,,,,,,,,,,,,,,,,,,,,,,,,,,,,,,,,,,,,660.4887935559964,660.4887935559964,660.4887935559964,660.4887935559964,660.4887935559964,660.4887935559964,660.4887935559964,660.4887935559964,660.4887935559964,660.4887935559964,a,1.6484765090135625,10,571,1,662.1564257330028,663.6589037980011,,,,,,,,,,,,,,,,,,,,,,,,,,,,,,,,,,,,,,,,,,,,,,,,,,,,,,,,,,,,,,,,,,31068,2022-11-04_14h56.24.032,vts_reward_expectancy_bt_OFFLINE,2022.2.4,59.97243187170211,
0,0,0,1,1,0,0,0,star,triangle,1,0,1,0,3,10,46,9,,,,,,,,,,,,,,,,,,,,,,,,,,,,,,,,,,,,,,,,664.1594727369957,664.1594727369957,664.1594727369957,664.1594727369957,664.1594727369957,664.1594727369957,664.1594727369957,664.1594727369957,664.1594727369957,664.1594727369957,l,1.9508092980104266,1,572,1,666.1282972420013,667.6300202559942,,,,,,,,,,,,,,,,,,,,,,,,,,,,,,,,,,,,,,,,,,,,,,,,,,,,,,,,,,,,,,,,,,31068,2022-11-04_14h56.24.032,vts_reward_expectancy_bt_OFFLINE,2022.2.4,59.97243187170211,
0,0,1,0,0,1,0,0,hexagon,circle,1,0,1,0,3,11,47,7,,,,,,,,,,,,,,,,,,,,,,,,,,,,,,,,,,,,,,,,668.1305149770051,668.1305149770051,668.1305149770051,668.1305149770051,668.1305149770051,668.1305149770051,668.1305149770051,668.1305149770051,668.1305149770051,668.1305149770051,a,3.581639180003549,1,573,1,671.7345384299988,673.2362170950073,,,,,,,,,,,,,,,,,,,,,,,,,,,,,,,,,,,,,,,,,,,,,,,,,,,,,,,,,,,,,,,,,,31068,2022-11-04_14h56.24.032,vts_reward_expectancy_bt_OFFLINE,2022.2.4,59.97243187170211,
0,0,1,0,0,1,0,0,hexagon,circle,2,0,2,0,0,0,0,7,,,,,,,,,,,,,,,,,,,,,,,,,,,,,,,,,,,,,,,,677.1818468690035,677.1818468690035,677.1818468690035,677.1818468690035,677.1818468690035,677.1818468690035,677.1818468690035,677.1818468690035,677.1818468690035,677.1818468690035,l,2.5845275600004243,1,574,2,679.7932231640007,681.2949978849938,,,,,,,,,,,,,,,,,,,,,,,,,,,,,,,,,,,,,,,,,,,,,,,,,,,,,,,,,,,,,,,,,,31068,2022-11-04_14h56.24.032,vts_reward_expectancy_bt_OFFLINE,2022.2.4,59.97243187170211,
0,1,0,0,1,0,0,0,circle,triangle,2,0,2,0,0,1,1,3,,,,,,,,,,,,,,,,,,,,,,,,,,,,,,,,,,,,,,,,681.795413978005,681.795413978005,681.795413978005,681.795413978005,681.795413978005,681.795413978005,681.795413978005,681.795413978005,681.795413978005,681.795413978005,a,1.604296620003879,10,584,2,683.4306171630014,684.9324026870017,,,,,,,,,,,,,,,,,,,,,,,,,,,,,,,,,,,,,,,,,,,,,,,,,,,,,,,,,,,,,,,,,,31068,2022-11-04_14h56.24.032,vts_reward_expectancy_bt_OFFLINE,2022.2.4,59.97243187170211,
0,0,0,1,0,0,1,0,star,hexagon,2,0,2,0,0,2,2,11,,,,,,,,,,,,,,,,,,,,,,,,,,,,,,,,,,,,,,,,685.4329507390066,685.4329507390066,685.4329507390066,685.4329507390066,685.4329507390066,685.4329507390066,685.4329507390066,685.4329507390066,685.4329507390066,685.4329507390066,a,1.9280953179986682,1,585,2,687.3850188460056,688.8867645660066,,,,,,,,,,,,,,,,,,,,,,,,,,,,,,,,,,,,,,,,,,,,,,,,,,,,,,,,,,,,,,,,,,31068,2022-11-04_14h56.24.032,vts_reward_expectancy_bt_OFFLINE,2022.2.4,59.97243187170211,
0,1,0,0,0,0,1,0,circle,hexagon,2,0,2,0,0,3,3,4,,,,,,,,,,,,,,,,,,,,,,,,,,,,,,,,,,,,,,,,689.387422461994,689.387422461994,689.387422461994,689.387422461994,689.387422461994,689.387422461994,689.387422461994,689.387422461994,689.387422461994,689.387422461994,a,2.877834011000232,10,595,2,692.290458331001,693.7921578100068,,,,,,,,,,,,,,,,,,,,,,,,,,,,,,,,,,,,,,,,,,,,,,,,,,,,,,,,,,,,,,,,,,31068,2022-11-04_14h56.24.032,vts_reward_expectancy_bt_OFFLINE,2022.2.4,59.97243187170211,
0,0,1,0,0,0,0,1,hexagon,star,2,0,2,0,0,4,4,8,,,,,,,,,,,,,,,,,,,,,,,,,,,,,,,,,,,,,,,,694.292871986996,694.292871986996,694.292871986996,694.292871986996,694.292871986996,694.292871986996,694.292871986996,694.292871986996,694.292871986996,694.292871986996,l,1.4609736330166925,10,605,2,695.7777447620028,697.2793002880062,,,,,,,,,,,,,,,,,,,,,,,,,,,,,,,,,,,,,,,,,,,,,,,,,,,,,,,,,,,,,,,,,,31068,2022-11-04_14h56.24.032,vts_reward_expectancy_bt_OFFLINE,2022.2.4,59.97243187170211,
0,0,0,1,0,1,0,0,star ,circle,2,0,2,0,0,5,5,10,,,,,,,,,,,,,,,,,,,,,,,,,,,,,,,,,,,,,,,,697.7799110530032,697.7799110530032,697.7799110530032,697.7799110530032,697.7799110530032,697.7799110530032,697.7799110530032,697.7799110530032,697.7799110530032,697.7799110530032,a,6.4911345900036395,10,615,2,704.3036808379984,705.805331208001,,,,,,,,,,,,,,,,,,,,,,,,,,,,,,,,,,,,,,,,,,,,,,,,,,,,,,,,,,,,,,,,,,31068,2022-11-04_14h56.24.032,vts_reward_expectancy_bt_OFFLINE,2022.2.4,59.97243187170211,
0,0,1,0,1,0,0,0,hexagon,triangle,2,0,2,0,0,6,6,6,,,,,,,,,,,,,,,,,,,,,,,,,,,,,,,,,,,,,,,,706.3058286680025,706.3058286680025,706.3058286680025,706.3058286680025,706.3058286680025,706.3058286680025,706.3058286680025,706.3058286680025,706.3058286680025,706.3058286680025,l,2.374495284006116,10,625,2,708.7086057080014,710.2101754070027,,,,,,,,,,,,,,,,,,,,,,,,,,,,,,,,,,,,,,,,,,,,,,,,,,,,,,,,,,,,,,,,,,31068,2022-11-04_14h56.24.032,vts_reward_expectancy_bt_OFFLINE,2022.2.4,59.97243187170211,
1,0,0,0,0,1,0,0,triangle,circle,2,0,2,0,0,7,7,0,,,,,,,,,,,,,,,,,,,,,,,,,,,,,,,,,,,,,,,,710.7108288970048,710.7108288970048,710.7108288970048,710.7108288970048,710.7108288970048,710.7108288970048,710.7108288970048,710.7108288970048,710.7108288970048,710.7108288970048,a,3.875418941999669,1,626,2,714.6150963039981,716.116893450002,,,,,,,,,,,,,,,,,,,,,,,,,,,,,,,,,,,,,,,,,,,,,,,,,,,,,,,,,,,,,,,,,,31068,2022-11-04_14h56.24.032,vts_reward_expectancy_bt_OFFLINE,2022.2.4,59.97243187170211,
1,0,0,0,0,0,0,1,triangle,star,2,0,2,0,0,8,8,2,,,,,,,,,,,,,,,,,,,,,,,,,,,,,,,,,,,,,,,,716.617501019995,716.617501019995,716.617501019995,716.617501019995,716.617501019995,716.617501019995,716.617501019995,716.617501019995,716.617501019995,716.617501019995,l,1.4457989410002483,10,636,2,718.0857044820004,719.587457814996,,,,,,,,,,,,,,,,,,,,,,,,,,,,,,,,,,,,,,,,,,,,,,,,,,,,,,,,,,,,,,,,,,31068,2022-11-04_14h56.24.032,vts_reward_expectancy_bt_OFFLINE,2022.2.4,59.97243187170211,
0,1,0,0,0,0,0,1,circle,star,2,0,2,0,0,9,9,5,,,,,,,,,,,,,,,,,,,,,,,,,,,,,,,,,,,,,,,,720.087988158004,720.087988158004,720.087988158004,720.087988158004,720.087988158004,720.087988158004,720.087988158004,720.087988158004,720.087988158004,720.087988158004,l,2.430201383991516,1,637,2,722.5405374740076,724.0421393860015,,,,,,,,,,,,,,,,,,,,,,,,,,,,,,,,,,,,,,,,,,,,,,,,,,,,,,,,,,,,,,,,,,31068,2022-11-04_14h56.24.032,vts_reward_expectancy_bt_OFFLINE,2022.2.4,59.97243187170211,
0,0,0,1,1,0,0,0,star,triangle,2,0,2,0,0,10,10,9,,,,,,,,,,,,,,,,,,,,,,,,,,,,,,,,,,,,,,,,724.5426939150057,724.5426939150057,724.5426939150057,724.5426939150057,724.5426939150057,724.5426939150057,724.5426939150057,724.5426939150057,724.5426939150057,724.5426939150057,a,5.47959574800916,10,647,2,730.0487737189978,731.5505908729974,,,,,,,,,,,,,,,,,,,,,,,,,,,,,,,,,,,,,,,,,,,,,,,,,,,,,,,,,,,,,,,,,,31068,2022-11-04_14h56.24.032,vts_reward_expectancy_bt_OFFLINE,2022.2.4,59.97243187170211,
1,0,0,0,0,0,1,0,triangle,hexagon,2,0,2,0,0,11,11,1,,,,,,,,,,,,,,,,,,,,,,,,,,,,,,,,,,,,,,,,732.0511414469947,732.0511414469947,732.0511414469947,732.0511414469947,732.0511414469947,732.0511414469947,732.0511414469947,732.0511414469947,732.0511414469947,732.0511414469947,l,1.368555480003124,10,657,2,733.4526290869981,734.9542700970051,,,,,,,,,,,,,,,,,,,,,,,,,,,,,,,,,,,,,,,,,,,,,,,,,,,,,,,,,,,,,,,,,,31068,2022-11-04_14h56.24.032,vts_reward_expectancy_bt_OFFLINE,2022.2.4,59.97243187170211,
0,0,0,1,0,0,1,0,star,hexagon,2,0,2,0,1,0,12,11,,,,,,,,,,,,,,,,,,,,,,,,,,,,,,,,,,,,,,,,735.4548045999982,735.4548045999982,735.4548045999982,735.4548045999982,735.4548045999982,735.4548045999982,735.4548045999982,735.4548045999982,735.4548045999982,735.4548045999982,l,1.4862423589947866,10,667,2,736.9730924650066,738.4748267630057,,,,,,,,,,,,,,,,,,,,,,,,,,,,,,,,,,,,,,,,,,,,,,,,,,,,,,,,,,,,,,,,,,31068,2022-11-04_14h56.24.032,vts_reward_expectancy_bt_OFFLINE,2022.2.4,59.97243187170211,
0,1,0,0,1,0,0,0,circle,triangle,2,0,2,0,1,1,13,3,,,,,,,,,,,,,,,,,,,,,,,,,,,,,,,,,,,,,,,,738.9752324379951,738.9752324379951,738.9752324379951,738.9752324379951,738.9752324379951,738.9752324379951,738.9752324379951,738.9752324379951,738.9752324379951,738.9752324379951,a,2.3315722179977456,10,677,2,741.3278684130055,742.829705836004,,,,,,,,,,,,,,,,,,,,,,,,,,,,,,,,,,,,,,,,,,,,,,,,,,,,,,,,,,,,,,,,,,31068,2022-11-04_14h56.24.032,vts_reward_expectancy_bt_OFFLINE,2022.2.4,59.97243187170211,
1,0,0,0,0,0,1,0,triangle,hexagon,2,0,2,0,1,2,14,1,,,,,,,,,,,,,,,,,,,,,,,,,,,,,,,,,,,,,,,,743.3300671939942,743.3300671939942,743.3300671939942,743.3300671939942,743.3300671939942,743.3300671939942,743.3300671939942,743.3300671939942,743.3300671939942,743.3300671939942,l,1.6444837510061916,10,687,2,744.9985478330054,746.5001319010044,,,,,,,,,,,,,,,,,,,,,,,,,,,,,,,,,,,,,,,,,,,,,,,,,,,,,,,,,,,,,,,,,,31068,2022-11-04_14h56.24.032,vts_reward_expectancy_bt_OFFLINE,2022.2.4,59.97243187170211,
0,0,1,0,1,0,0,0,hexagon,triangle,2,0,2,0,1,3,15,6,,,,,,,,,,,,,,,,,,,,,,,,,,,,,,,,,,,,,,,,747.0007140149974,747.0007140149974,747.0007140149974,747.0007140149974,747.0007140149974,747.0007140149974,747.0007140149974,747.0007140149974,747.0007140149974,747.0007140149974,a,2.596387336991029,10,697,2,749.6205182050035,751.1221647519997,,,,,,,,,,,,,,,,,,,,,,,,,,,,,,,,,,,,,,,,,,,,,,,,,,,,,,,,,,,,,,,,,,31068,2022-11-04_14h56.24.032,vts_reward_expectancy_bt_OFFLINE,2022.2.4,59.97243187170211,
0,0,1,0,0,1,0,0,hexagon,circle,2,0,2,0,1,4,16,7,,,,,,,,,,,,,,,,,,,,,,,,,,,,,,,,,,,,,,,,751.6226251540065,751.6226251540065,751.6226251540065,751.6226251540065,751.6226251540065,751.6226251540065,751.6226251540065,751.6226251540065,751.6226251540065,751.6226251540065,l,2.217700713008526,1,698,2,753.8584915740066,755.3600935410068,,,,,,,,,,,,,,,,,,,,,,,,,,,,,,,,,,,,,,,,,,,,,,,,,,,,,,,,,,,,,,,,,,31068,2022-11-04_14h56.24.032,vts_reward_expectancy_bt_OFFLINE,2022.2.4,59.97243187170211,
0,0,1,0,0,0,0,1,hexagon,star,2,0,2,0,1,5,17,8,,,,,,,,,,,,,,,,,,,,,,,,,,,,,,,,,,,,,,,,755.8605486290035,755.8605486290035,755.8605486290035,755.8605486290035,755.8605486290035,755.8605486290035,755.8605486290035,755.8605486290035,755.8605486290035,755.8605486290035,l,1.7250679560092976,1,699,2,757.6125554970058,759.1141539870005,,,,,,,,,,,,,,,,,,,,,,,,,,,,,,,,,,,,,,,,,,,,,,,,,,,,,,,,,,,,,,,,,,31068,2022-11-04_14h56.24.032,vts_reward_expectancy_bt_OFFLINE,2022.2.4,59.97243187170211,
0,1,0,0,0,0,1,0,circle,hexagon,2,0,2,0,1,6,18,4,,,,,,,,,,,,,,,,,,,,,,,,,,,,,,,,,,,,,,,,759.614777958006,759.614777958006,759.614777958006,759.614777958006,759.614777958006,759.614777958006,759.614777958006,759.614777958006,759.614777958006,759.614777958006,a,1.9087335400108714,1,700,2,761.5502578559972,763.0518016249989,,,,,,,,,,,,,,,,,,,,,,,,,,,,,,,,,,,,,,,,,,,,,,,,,,,,,,,,,,,,,,,,,,31068,2022-11-04_14h56.24.032,vts_reward_expectancy_bt_OFFLINE,2022.2.4,59.97243187170211,
0,0,0,1,1,0,0,0,star,triangle,2,0,2,0,1,7,19,9,,,,,,,,,,,,,,,,,,,,,,,,,,,,,,,,,,,,,,,,763.5523808110011,763.5523808110011,763.5523808110011,763.5523808110011,763.5523808110011,763.5523808110011,763.5523808110011,763.5523808110011,763.5523808110011,763.5523808110011,a,3.0111928429978434,10,710,2,766.5890447940037,768.0904670519958,,,,,,,,,,,,,,,,,,,,,,,,,,,,,,,,,,,,,,,,,,,,,,,,,,,,,,,,,,,,,,,,,,31068,2022-11-04_14h56.24.032,vts_reward_expectancy_bt_OFFLINE,2022.2.4,59.97243187170211,
1,0,0,0,0,0,0,1,triangle,star,2,0,2,0,1,8,20,2,,,,,,,,,,,,,,,,,,,,,,,,,,,,,,,,,,,,,,,,768.5913904379995,768.5913904379995,768.5913904379995,768.5913904379995,768.5913904379995,768.5913904379995,768.5913904379995,768.5913904379995,768.5913904379995,768.5913904379995,l,0.8079937810107367,1,711,2,769.4256429980014,770.9272235149983,,,,,,,,,,,,,,,,,,,,,,,,,,,,,,,,,,,,,,,,,,,,,,,,,,,,,,,,,,,,,,,,,,31068,2022-11-04_14h56.24.032,vts_reward_expectancy_bt_OFFLINE,2022.2.4,59.97243187170211,
0,0,0,1,0,1,0,0,star ,circle,2,0,2,0,1,9,21,10,,,,,,,,,,,,,,,,,,,,,,,,,,,,,,,,,,,,,,,,771.4276880060061,771.4276880060061,771.4276880060061,771.4276880060061,771.4276880060061,771.4276880060061,771.4276880060061,771.4276880060061,771.4276880060061,771.4276880060061,a,2.4486132690071827,1,712,2,773.897129666002,775.3989513840061,,,,,,,,,,,,,,,,,,,,,,,,,,,,,,,,,,,,,,,,,,,,,,,,,,,,,,,,,,,,,,,,,,31068,2022-11-04_14h56.24.032,vts_reward_expectancy_bt_OFFLINE,2022.2.4,59.97243187170211,
1,0,0,0,0,1,0,0,triangle,circle,2,0,2,0,1,10,22,0,,,,,,,,,,,,,,,,,,,,,,,,,,,,,,,,,,,,,,,,775.8994098580006,775.8994098580006,775.8994098580006,775.8994098580006,775.8994098580006,775.8994098580006,775.8994098580006,775.8994098580006,775.8994098580006,775.8994098580006,l,1.251657917004195,10,722,2,777.184124877007,778.6858426639956,,,,,,,,,,,,,,,,,,,,,,,,,,,,,,,,,,,,,,,,,,,,,,,,,,,,,,,,,,,,,,,,,,31068,2022-11-04_14h56.24.032,vts_reward_expectancy_bt_OFFLINE,2022.2.4,59.97243187170211,
0,1,0,0,0,0,0,1,circle,star,2,0,2,0,1,11,23,5,,,,,,,,,,,,,,,,,,,,,,,,,,,,,,,,,,,,,,,,779.1863629279978,779.1863629279978,779.1863629279978,779.1863629279978,779.1863629279978,779.1863629279978,779.1863629279978,779.1863629279978,779.1863629279978,779.1863629279978,l,1.2832340150052914,10,732,2,780.4878785559995,781.9895135240076,,,,,,,,,,,,,,,,,,,,,,,,,,,,,,,,,,,,,,,,,,,,,,,,,,,,,,,,,,,,,,,,,,31068,2022-11-04_14h56.24.032,vts_reward_expectancy_bt_OFFLINE,2022.2.4,59.97243187170211,
0,1,0,0,1,0,0,0,circle,triangle,2,0,2,0,2,0,24,3,,,,,,,,,,,,,,,,,,,,,,,,,,,,,,,,,,,,,,,,782.489983927997,782.489983927997,782.489983927997,782.489983927997,782.489983927997,782.489983927997,782.489983927997,782.489983927997,782.489983927997,782.489983927997,l,1.4335763940034667,10,742,2,783.9415772770008,785.4432381439983,,,,,,,,,,,,,,,,,,,,,,,,,,,,,,,,,,,,,,,,,,,,,,,,,,,,,,,,,,,,,,,,,,31068,2022-11-04_14h56.24.032,vts_reward_expectancy_bt_OFFLINE,2022.2.4,59.97243187170211,
0,0,0,1,1,0,0,0,star,triangle,2,0,2,0,2,1,25,9,,,,,,,,,,,,,,,,,,,,,,,,,,,,,,,,,,,,,,,,785.9438422060048,785.9438422060048,785.9438422060048,785.9438422060048,785.9438422060048,785.9438422060048,785.9438422060048,785.9438422060048,785.9438422060048,785.9438422060048,a,3.6147731760138413,10,752,2,789.5811264950025,791.0828574780026,,,,,,,,,,,,,,,,,,,,,,,,,,,,,,,,,,,,,,,,,,,,,,,,,,,,,,,,,,,,,,,,,,31068,2022-11-04_14h56.24.032,vts_reward_expectancy_bt_OFFLINE,2022.2.4,59.97243187170211,
0,0,0,1,0,1,0,0,star ,circle,2,0,2,0,2,2,26,10,,,,,,,,,,,,,,,,,,,,,,,,,,,,,,,,,,,,,,,,791.583312311006,791.583312311006,791.583312311006,791.583312311006,791.583312311006,791.583312311006,791.583312311006,791.583312311006,791.583312311006,791.583312311006,a,1.408504178005387,10,762,2,793.0181504180073,794.5199711280002,,,,,,,,,,,,,,,,,,,,,,,,,,,,,,,,,,,,,,,,,,,,,,,,,,,,,,,,,,,,,,,,,,31068,2022-11-04_14h56.24.032,vts_reward_expectancy_bt_OFFLINE,2022.2.4,59.97243187170211,
0,1,0,0,0,0,1,0,circle,hexagon,2,0,2,0,2,3,27,4,,,,,,,,,,,,,,,,,,,,,,,,,,,,,,,,,,,,,,,,795.020590347005,795.020590347005,795.020590347005,795.020590347005,795.020590347005,795.020590347005,795.020590347005,795.020590347005,795.020590347005,795.020590347005,l,0.8511687140126014,10,772,2,795.9047934830014,797.4063741110003,,,,,,,,,,,,,,,,,,,,,,,,,,,,,,,,,,,,,,,,,,,,,,,,,,,,,,,,,,,,,,,,,,31068,2022-11-04_14h56.24.032,vts_reward_expectancy_bt_OFFLINE,2022.2.4,59.97243187170211,
1,0,0,0,0,1,0,0,triangle,circle,2,0,2,0,2,4,28,0,,,,,,,,,,,,,,,,,,,,,,,,,,,,,,,,,,,,,,,,797.9068995220005,797.9068995220005,797.9068995220005,797.9068995220005,797.9068995220005,797.9068995220005,797.9068995220005,797.9068995220005,797.9068995220005,797.9068995220005,a,1.1474134790041717,10,782,2,799.0749096109939,800.5766362209979,,,,,,,,,,,,,,,,,,,,,,,,,,,,,,,,,,,,,,,,,,,,,,,,,,,,,,,,,,,,,,,,,,31068,2022-11-04_14h56.24.032,vts_reward_expectancy_bt_OFFLINE,2022.2.4,59.97243187170211,
0,0,0,1,0,0,1,0,star,hexagon,2,0,2,0,2,5,29,11,,,,,,,,,,,,,,,,,,,,,,,,,,,,,,,,,,,,,,,,801.0772311589972,801.0772311589972,801.0772311589972,801.0772311589972,801.0772311589972,801.0772311589972,801.0772311589972,801.0772311589972,801.0772311589972,801.0772311589972,a,0.7778617120056879,10,792,2,801.8781827479979,803.3798254220019,,,,,,,,,,,,,,,,,,,,,,,,,,,,,,,,,,,,,,,,,,,,,,,,,,,,,,,,,,,,,,,,,,31068,2022-11-04_14h56.24.032,vts_reward_expectancy_bt_OFFLINE,2022.2.4,59.97243187170211,
0,0,1,0,1,0,0,0,hexagon,triangle,2,0,2,0,2,6,30,6,,,,,,,,,,,,,,,,,,,,,,,,,,,,,,,,,,,,,,,,803.8803829690005,803.8803829690005,803.8803829690005,803.8803829690005,803.8803829690005,803.8803829690005,803.8803829690005,803.8803829690005,803.8803829690005,803.8803829690005,a,1.0695664530067006,1,793,2,804.9814883170038,806.4831640439952,,,,,,,,,,,,,,,,,,,,,,,,,,,,,,,,,,,,,,,,,,,,,,,,,,,,,,,,,,,,,,,,,,31068,2022-11-04_14h56.24.032,vts_reward_expectancy_bt_OFFLINE,2022.2.4,59.97243187170211,
1,0,0,0,0,0,1,0,triangle,hexagon,2,0,2,0,2,7,31,1,,,,,,,,,,,,,,,,,,,,,,,,,,,,,,,,,,,,,,,,806.9837523680035,806.9837523680035,806.9837523680035,806.9837523680035,806.9837523680035,806.9837523680035,806.9837523680035,806.9837523680035,806.9837523680035,806.9837523680035,l,1.8462257240025792,10,803,2,808.8524418320012,810.3538672199938,,,,,,,,,,,,,,,,,,,,,,,,,,,,,,,,,,,,,,,,,,,,,,,,,,,,,,,,,,,,,,,,,,31068,2022-11-04_14h56.24.032,vts_reward_expectancy_bt_OFFLINE,2022.2.4,59.97243187170211,
0,0,1,0,0,0,0,1,hexagon,star,2,0,2,0,2,8,32,8,,,,,,,,,,,,,,,,,,,,,,,,,,,,,,,,,,,,,,,,810.854505618001,810.854505618001,810.854505618001,810.854505618001,810.854505618001,810.854505618001,810.854505618001,810.854505618001,810.854505618001,810.854505618001,l,0.6661743610020494,1,804,2,811.5384685250028,813.040212670996,,,,,,,,,,,,,,,,,,,,,,,,,,,,,,,,,,,,,,,,,,,,,,,,,,,,,,,,,,,,,,,,,,31068,2022-11-04_14h56.24.032,vts_reward_expectancy_bt_OFFLINE,2022.2.4,59.97243187170211,
1,0,0,0,0,0,0,1,triangle,star,2,0,2,0,2,9,33,2,,,,,,,,,,,,,,,,,,,,,,,,,,,,,,,,,,,,,,,,813.5407537889987,813.5407537889987,813.5407537889987,813.5407537889987,813.5407537889987,813.5407537889987,813.5407537889987,813.5407537889987,813.5407537889987,813.5407537889987,l,4.998689839994768,1,805,2,818.5630111909995,820.064701825002,,,,,,,,,,,,,,,,,,,,,,,,,,,,,,,,,,,,,,,,,,,,,,,,,,,,,,,,,,,,,,,,,,31068,2022-11-04_14h56.24.032,vts_reward_expectancy_bt_OFFLINE,2022.2.4,59.97243187170211,
0,0,1,0,0,1,0,0,hexagon,circle,2,0,2,0,2,10,34,7,,,,,,,,,,,,,,,,,,,,,,,,,,,,,,,,,,,,,,,,820.5653395069967,820.5653395069967,820.5653395069967,820.5653395069967,820.5653395069967,820.5653395069967,820.5653395069967,820.5653395069967,820.5653395069967,820.5653395069967,l,0.5290600519947475,1,806,2,821.1158513730043,822.6175396400067,,,,,,,,,,,,,,,,,,,,,,,,,,,,,,,,,,,,,,,,,,,,,,,,,,,,,,,,,,,,,,,,,,31068,2022-11-04_14h56.24.032,vts_reward_expectancy_bt_OFFLINE,2022.2.4,59.97243187170211,
0,1,0,0,0,0,0,1,circle,star,2,0,2,0,2,11,35,5,,,,,,,,,,,,,,,,,,,,,,,,,,,,,,,,,,,,,,,,823.1181030480075,823.1181030480075,823.1181030480075,823.1181030480075,823.1181030480075,823.1181030480075,823.1181030480075,823.1181030480075,823.1181030480075,823.1181030480075,a,0.6989743290032493,10,816,2,823.835398241994,825.3373015499965,,,,,,,,,,,,,,,,,,,,,,,,,,,,,,,,,,,,,,,,,,,,,,,,,,,,,,,,,,,,,,,,,,31068,2022-11-04_14h56.24.032,vts_reward_expectancy_bt_OFFLINE,2022.2.4,59.97243187170211,
0,0,1,0,0,1,0,0,hexagon,circle,2,0,2,0,3,0,36,7,,,,,,,,,,,,,,,,,,,,,,,,,,,,,,,,,,,,,,,,825.8376930710074,825.8376930710074,825.8376930710074,825.8376930710074,825.8376930710074,825.8376930710074,825.8376930710074,825.8376930710074,825.8376930710074,825.8376930710074,l,2.298334891005652,1,817,2,828.1571205509972,829.6586111119977,,,,,,,,,,,,,,,,,,,,,,,,,,,,,,,,,,,,,,,,,,,,,,,,,,,,,,,,,,,,,,,,,,31068,2022-11-04_14h56.24.032,vts_reward_expectancy_bt_OFFLINE,2022.2.4,59.97243187170211,
0,1,0,0,0,0,0,1,circle,star,2,0,2,0,3,1,37,5,,,,,,,,,,,,,,,,,,,,,,,,,,,,,,,,,,,,,,,,830.1591933710006,830.1591933710006,830.1591933710006,830.1591933710006,830.1591933710006,830.1591933710006,830.1591933710006,830.1591933710006,830.1591933710006,830.1591933710006,a,1.6897243930143304,1,818,2,831.8777609509998,833.3795343469974,,,,,,,,,,,,,,,,,,,,,,,,,,,,,,,,,,,,,,,,,,,,,,,,,,,,,,,,,,,,,,,,,,31068,2022-11-04_14h56.24.032,vts_reward_expectancy_bt_OFFLINE,2022.2.4,59.97243187170211,
0,0,0,1,0,0,1,0,star,hexagon,2,0,2,0,3,2,38,11,,,,,,,,,,,,,,,,,,,,,,,,,,,,,,,,,,,,,,,,833.8800751630042,833.8800751630042,833.8800751630042,833.8800751630042,833.8800751630042,833.8800751630042,833.8800751630042,833.8800751630042,833.8800751630042,833.8800751630042,a,0.5572324999957345,10,828,2,834.4640203790041,835.9657005490008,,,,,,,,,,,,,,,,,,,,,,,,,,,,,,,,,,,,,,,,,,,,,,,,,,,,,,,,,,,,,,,,,,31068,2022-11-04_14h56.24.032,vts_reward_expectancy_bt_OFFLINE,2022.2.4,59.97243187170211,
0,0,1,0,1,0,0,0,hexagon,triangle,2,0,2,0,3,3,39,6,,,,,,,,,,,,,,,,,,,,,,,,,,,,,,,,,,,,,,,,836.466156954004,836.466156954004,836.466156954004,836.466156954004,836.466156954004,836.466156954004,836.466156954004,836.466156954004,836.466156954004,836.466156954004,a,0.6695946600084426,10,838,2,837.1671393169963,838.668832965006,,,,,,,,,,,,,,,,,,,,,,,,,,,,,,,,,,,,,,,,,,,,,,,,,,,,,,,,,,,,,,,,,,31068,2022-11-04_14h56.24.032,vts_reward_expectancy_bt_OFFLINE,2022.2.4,59.97243187170211,
1,0,0,0,0,0,1,0,triangle,hexagon,2,0,2,0,3,4,40,1,,,,,,,,,,,,,,,,,,,,,,,,,,,,,,,,,,,,,,,,839.1693859480001,839.1693859480001,839.1693859480001,839.1693859480001,839.1693859480001,839.1693859480001,839.1693859480001,839.1693859480001,839.1693859480001,839.1693859480001,l,0.44253197000944056,1,839,2,839.6365334319999,841.1379250010068,,,,,,,,,,,,,,,,,,,,,,,,,,,,,,,,,,,,,,,,,,,,,,,,,,,,,,,,,,,,,,,,,,31068,2022-11-04_14h56.24.032,vts_reward_expectancy_bt_OFFLINE,2022.2.4,59.97243187170211,
0,1,0,0,0,0,1,0,circle,hexagon,2,0,2,0,3,5,41,4,,,,,,,,,,,,,,,,,,,,,,,,,,,,,,,,,,,,,,,,841.6383231530053,841.6383231530053,841.6383231530053,841.6383231530053,841.6383231530053,841.6383231530053,841.6383231530053,841.6383231530053,841.6383231530053,841.6383231530053,l,1.3374567980063148,1,840,2,843.0066591890063,844.5083095690061,,,,,,,,,,,,,,,,,,,,,,,,,,,,,,,,,,,,,,,,,,,,,,,,,,,,,,,,,,,,,,,,,,31068,2022-11-04_14h56.24.032,vts_reward_expectancy_bt_OFFLINE,2022.2.4,59.97243187170211,
0,0,1,0,0,0,0,1,hexagon,star,2,0,2,0,3,6,42,8,,,,,,,,,,,,,,,,,,,,,,,,,,,,,,,,,,,,,,,,845.0089626730041,845.0089626730041,845.0089626730041,845.0089626730041,845.0089626730041,845.0089626730041,845.0089626730041,845.0089626730041,845.0089626730041,845.0089626730041,l,0.4745783609978389,1,841,2,845.5093038890045,847.0111150529992,,,,,,,,,,,,,,,,,,,,,,,,,,,,,,,,,,,,,,,,,,,,,,,,,,,,,,,,,,,,,,,,,,31068,2022-11-04_14h56.24.032,vts_reward_expectancy_bt_OFFLINE,2022.2.4,59.97243187170211,
1,0,0,0,0,1,0,0,triangle,circle,2,0,2,0,3,7,43,0,,,,,,,,,,,,,,,,,,,,,,,,,,,,,,,,,,,,,,,,847.5115854100004,847.5115854100004,847.5115854100004,847.5115854100004,847.5115854100004,847.5115854100004,847.5115854100004,847.5115854100004,847.5115854100004,847.5115854100004,a,0.875089620007202,10,851,2,848.4127112860006,849.9143495150056,,,,,,,,,,,,,,,,,,,,,,,,,,,,,,,,,,,,,,,,,,,,,,,,,,,,,,,,,,,,,,,,,,31068,2022-11-04_14h56.24.032,vts_reward_expectancy_bt_OFFLINE,2022.2.4,59.97243187170211,
0,0,0,1,0,1,0,0,star ,circle,2,0,2,0,3,8,44,10,,,,,,,,,,,,,,,,,,,,,,,,,,,,,,,,,,,,,,,,850.4149901329947,850.4149901329947,850.4149901329947,850.4149901329947,850.4149901329947,850.4149901329947,850.4149901329947,850.4149901329947,850.4149901329947,850.4149901329947,l,0.874258997006109,1,852,2,851.3158212639973,852.817589444996,,,,,,,,,,,,,,,,,,,,,,,,,,,,,,,,,,,,,,,,,,,,,,,,,,,,,,,,,,,,,,,,,,31068,2022-11-04_14h56.24.032,vts_reward_expectancy_bt_OFFLINE,2022.2.4,59.97243187170211,
0,0,0,1,1,0,0,0,star,triangle,2,0,2,0,3,9,45,9,,,,,,,,,,,,,,,,,,,,,,,,,,,,,,,,,,,,,,,,853.3182131710055,853.3182131710055,853.3182131710055,853.3182131710055,853.3182131710055,853.3182131710055,853.3182131710055,853.3182131710055,853.3182131710055,853.3182131710055,l,1.4928127079911064,1,853,2,854.8364107439993,856.3381043139962,,,,,,,,,,,,,,,,,,,,,,,,,,,,,,,,,,,,,,,,,,,,,,,,,,,,,,,,,,,,,,,,,,31068,2022-11-04_14h56.24.032,vts_reward_expectancy_bt_OFFLINE,2022.2.4,59.97243187170211,
0,1,0,0,1,0,0,0,circle,triangle,2,0,2,0,3,10,46,3,,,,,,,,,,,,,,,,,,,,,,,,,,,,,,,,,,,,,,,,856.8388673370064,856.8388673370064,856.8388673370064,856.8388673370064,856.8388673370064,856.8388673370064,856.8388673370064,856.8388673370064,856.8388673370064,856.8388673370064,l,2.088874469001894,10,863,2,858.9577327279985,860.4593305210001,,,,,,,,,,,,,,,,,,,,,,,,,,,,,,,,,,,,,,,,,,,,,,,,,,,,,,,,,,,,,,,,,,31068,2022-11-04_14h56.24.032,vts_reward_expectancy_bt_OFFLINE,2022.2.4,59.97243187170211,
1,0,0,0,0,0,0,1,triangle,star,2,0,2,0,3,11,47,2,,,,,,,,,,,,,,,,,,,,,,,,,,,,,,,,,,,,,,,,860.959789126995,860.959789126995,860.959789126995,860.959789126995,860.959789126995,860.959789126995,860.959789126995,860.959789126995,860.959789126995,860.959789126995,l,1.6810079590068199,1,864,2,862.6616819189949,864.1632128869969,,,,,,,,,,,,,,,,,,,,,,,,,,,,,,,,,,,,,,,,,,,,,,,,,,,,,,,,,,,,,,,,,,31068,2022-11-04_14h56.24.032,vts_reward_expectancy_bt_OFFLINE,2022.2.4,59.97243187170211,
,,,,,,,,,,,,,,,,,,0,0,0,0,0,0,0,0,,,,,,,,,,,,,,,,,,,,,,,,,,,,,,,,,,,,,,,,,,,,,,,,911.0653194650076,,125,W,star,0.0022588680003536865,906.7752535080072,908.2787311389984,908.2787311389984,908.2787311389984,1,0,d,1.2537688200100092,0,909.5650721860002,,,,,,,,,,,,,,,,,,,,,,,,,,,,,,,,,,,,,,,,,,,,,,,,,,,31068,2022-11-04_14h56.24.032,vts_reward_expectancy_bt_OFFLINE,2022.2.4,59.97243187170211,
,,,,,,,,,,,,,,,,,,0,0,0,0,1,0,1,0,,,,,,,,,,,,,,,,,,,,,,,,,,,,,,,,,,,,,,,,,,,,,,,,915.8203442429949,,167,U,circle,0.0016021210030885413,912.0469478050072,913.5513523959962,913.5513523959962,913.5513523959962,1,0,f,0.7400016850006068,0,914.3188677209982,,,,,,,,,,,,,,,,,,,,,,,,,,,,,,,,,,,,,,,,,,,,,,,,,,,31068,2022-11-04_14h56.24.032,vts_reward_expectancy_bt_OFFLINE,2022.2.4,59.97243187170211,
,,,,,,,,,,,,,,,,,,0,0,0,0,2,0,2,0,,,,,,,,,,,,,,,,,,,,,,,,,,,,,,,,,,,,,,,,,,,,,,,,920.4590252070047,,146,H,triangle,0.0016655210056342185,916.8029322090006,918.3063429479953,918.3063429479953,918.3063429479953,1,0,d,0.6326970630034339,0,918.957177261007,,,,,,,,,,,,,,,,,,,,,,,,,,,,,,,,,,,,,,,,,,,,,,,,,,,31068,2022-11-04_14h56.24.032,vts_reward_expectancy_bt_OFFLINE,2022.2.4,59.97243187170211,
,,,,,,,,,,,,,,,,,,0,0,0,0,3,0,3,0,,,,,,,,,,,,,,,,,,,,,,,,,,,,,,,,,,,,,,,,,,,,,,,,925.0137027849996,,174,Y,hexagon,0.0014457029901677743,921.4376708570053,922.9447545550065,922.9447545550065,922.9447545550065,1,0,f,0.550629770004889,0,923.5121176090033,,,,,,,,,,,,,,,,,,,,,,,,,,,,,,,,,,,,,,,,,,,,,,,,,,,31068,2022-11-04_14h56.24.032,vts_reward_expectancy_bt_OFFLINE,2022.2.4,59.97243187170211,
,,,,,,,,,,,,,,,,,,0,0,0,0,4,0,4,0,,,,,,,,,,,,,,,,,,,,,,,,,,,,,,,,,,,,,,,,,,,,,,,,929.7525675159995,,132,F,star,0.0013357879943214357,925.9959383539972,927.4999479230028,927.4999479230028,927.4999479230028,1,0,d,0.7185987460106844,0,928.2505797310005,,,,,,,,,,,,,,,,,,,,,,,,,,,,,,,,,,,,,,,,,,,,,,,,,,,31068,2022-11-04_14h56.24.032,vts_reward_expectancy_bt_OFFLINE,2022.2.4,59.97243187170211,
,,,,,,,,,,,,,,,,,,0,0,0,0,5,0,5,0,,,,,,,,,,,,,,,,,,,,,,,,,,,,,,,,,,,,,,,,,,,,,,,,934.5576815670065,,139,B,hexagon,0.001553504989715293,930.7335223400005,932.2385422270017,932.2385422270017,932.2385422270017,1,0,d,0.7848479359963676,0,933.0561266629957,,,,,,,,,,,,,,,,,,,,,,,,,,,,,,,,,,,,,,,,,,,,,,,,,,,31068,2022-11-04_14h56.24.032,vts_reward_expectancy_bt_OFFLINE,2022.2.4,59.97243187170211,
,,,,,,,,,,,,,,,,,,0,0,0,0,6,0,6,0,,,,,,,,,,,,,,,,,,,,,,,,,,,,,,,,,,,,,,,,,,,,,,,,939.1461482110026,,181,D,triangle,0.0016268960025627166,935.5397554429946,937.0436912570003,937.0436912570003,937.0436912570003,1,0,f,0.5819076280022273,0,937.6443835130049,,,,,,,,,,,,,,,,,,,,,,,,,,,,,,,,,,,,,,,,,,,,,,,,,,,31068,2022-11-04_14h56.24.032,vts_reward_expectancy_bt_OFFLINE,2022.2.4,59.97243187170211,
,,,,,,,,,,,,,,,,,,0,0,0,0,7,0,7,0,,,,,,,,,,,,,,,,,,,,,,,,,,,,,,,,,,,,,,,,,,,,,,,,944.3686008759978,,160,S,circle,0.001883996999822557,940.127694395007,941.6322777419991,941.6322777419991,941.6322777419991,1,0,f,1.202141202011262,0,942.8669093350036,,,,,,,,,,,,,,,,,,,,,,,,,,,,,,,,,,,,,,,,,,,,,,,,,,,31068,2022-11-04_14h56.24.032,vts_reward_expectancy_bt_OFFLINE,2022.2.4,59.97243187170211,
,,,,,,,,,,,,,,,,,,0,0,0,0,8,0,8,0,,,,,,,,,,,,,,,,,,,,,,,,,,,,,,,,,,,,,,,,,,,,,,,,949.023627033006,,125,W,triangle,0.0017385730025125667,945.3472189869935,946.854591424999,946.854591424999,946.854591424999,1,0,d,0.6478471040027216,0,947.5220620019973,,,,,,,,,,,,,,,,,,,,,,,,,,,,,,,,,,,,,,,,,,,,,,,,,,,31068,2022-11-04_14h56.24.032,vts_reward_expectancy_bt_OFFLINE,2022.2.4,59.97243187170211,
,,,,,,,,,,,,,,,,,,0,0,0,0,9,0,9,0,,,,,,,,,,,,,,,,,,,,,,,,,,,,,,,,,,,,,,,,,,,,,,,,953.7956886000029,,167,U,star,0.0016469999973196536,950.0034413510002,951.5099214109941,951.5099214109941,951.5099214109941,1,0,f,0.7519018390012207,0,952.2940941630077,,,,,,,,,,,,,,,,,,,,,,,,,,,,,,,,,,,,,,,,,,,,,,,,,,,31068,2022-11-04_14h56.24.032,vts_reward_expectancy_bt_OFFLINE,2022.2.4,59.97243187170211,
,,,,,,,,,,,,,,,,,,,,,,,,,,0,0,0,0,0,0,0,0,,,,,,,,,,,,,,,,,,,,,,,,,,,,,,,,,,,,,,,,980.758684253,,125,D,hexagon,0.002103771999827586,,,,,1,0,,,1,979.2569720600004,976.833913969007,978.3393482329993,978.3393482329993,978.3393482329993,j,0.8895612550113583,,,,,,,,,,,,,,,,,,,,,,,,,,,,,,,,,,,,,,,,,,,,,31068,2022-11-04_14h56.24.032,vts_reward_expectancy_bt_OFFLINE,2022.2.4,59.97243187170211,
,,,,,,,,,,,,,,,,,,,,,,,,,,0,0,0,0,1,0,1,0,,,,,,,,,,,,,,,,,,,,,,,,,,,,,,,,,,,,,,,,985.8143743539986,,181,B,star,0.0016618529916740954,,,,,1,0,,,1,984.3126985989948,981.7382303649938,983.2448530090041,983.2448530090041,983.2448530090041,j,1.0467109200108098,,,,,,,,,,,,,,,,,,,,,,,,,,,,,,,,,,,,,,,,,,,,,31068,2022-11-04_14h56.24.032,vts_reward_expectancy_bt_OFFLINE,2022.2.4,59.97243187170211,
,,,,,,,,,,,,,,,,,,,,,,,,,,0,0,0,0,2,0,2,0,,,,,,,,,,,,,,,,,,,,,,,,,,,,,,,,,,,,,,,,990.986672486004,,167,Y,circle,0.0017407720006303862,,,,,1,0,,,1,989.4850396490074,986.7962980080047,988.300411040007,988.300411040007,988.300411040007,k,1.1669898690015543,,,,,,,,,,,,,,,,,,,,,,,,,,,,,,,,,,,,,,,,,,,,,31068,2022-11-04_14h56.24.032,vts_reward_expectancy_bt_OFFLINE,2022.2.4,59.97243187170211,
,,,,,,,,,,,,,,,,,,,,,,,,,,0,0,0,0,3,0,3,0,,,,,,,,,,,,,,,,,,,,,,,,,,,,,,,,,,,,,,,,996.0421523529949,,146,S,triangle,0.0015631220012437552,,,,,0,0,,,1,994.5404908040073,991.9658612070052,993.4727357780066,993.4727357780066,993.4727357780066,j,1.045068267005263,,,,,,,,,,,,,,,,,,,,,,,,,,,,,,,,,,,,,,,,,,,,,31068,2022-11-04_14h56.24.032,vts_reward_expectancy_bt_OFFLINE,2022.2.4,59.97243187170211,
,,,,,,,,,,,,,,,,,,,,,,,,,,0,0,0,0,4,0,4,0,,,,,,,,,,,,,,,,,,,,,,,,,,,,,,,,,,,,,,,,1001.1477954389993,,160,U,hexagon,0.0016450060065835714,,,,,1,1,,,1,999.6462628260051,997.0206603709958,998.5281388570002,998.5281388570002,998.5281388570002,k,1.0863141850131797,,,,,,,,,,,,,,,,,,,,,,,,,,,,,,,,,,,,,,,,,,,,,31068,2022-11-04_14h56.24.032,vts_reward_expectancy_bt_OFFLINE,2022.2.4,59.97243187170211,
,,,,,,,,,,,,,,,,,,,,,,,,,,0,0,0,0,5,0,5,0,,,,,,,,,,,,,,,,,,,,,,,,,,,,,,,,,,,,,,,,1006.3535560479941,,139,H,star,0.001732941993395798,,,,,0,0,,,1,1004.8518032010033,1002.1273218040005,1003.6340881060023,1003.6340881060023,1003.6340881060023,k,1.1900302099966211,,,,,,,,,,,,,,,,,,,,,,,,,,,,,,,,,,,,,,,,,,,,,31068,2022-11-04_14h56.24.032,vts_reward_expectancy_bt_OFFLINE,2022.2.4,59.97243187170211,
,,,,,,,,,,,,,,,,,,,,,,,,,,0,0,0,0,6,0,6,0,,,,,,,,,,,,,,,,,,,,,,,,,,,,,,,,,,,,,,,,1011.6929900200048,,174,W,triangle,0.001623025003937073,,,,,0,1,,,1,1010.1909663319966,1007.3322180569958,1008.8395577820047,1008.8395577820047,1008.8395577820047,j,1.3264245190075599,,,,,,,,,,,,,,,,,,,,,,,,,,,,,,,,,,,,,,,,,,,,,31068,2022-11-04_14h56.24.032,vts_reward_expectancy_bt_OFFLINE,2022.2.4,59.97243187170211,
,,,,,,,,,,,,,,,,,,,,,,,,,,0,0,0,0,7,0,7,0,,,,,,,,,,,,,,,,,,,,,,,,,,,,,,,,,,,,,,,,1016.7982942210074,,132,F,circle,0.0019207290024496615,,,,,1,1,,,1,1015.2967796769954,1012.6714118620002,1014.1788629270013,1014.1788629270013,1014.1788629270013,j,1.0949214450083673,1016.7982942210074,,,,,,,,,,,,,,,,,,,,,,,,,,,,,,,,,,,,,,,,,,,,31068,2022-11-04_14h56.24.032,vts_reward_expectancy_bt_OFFLINE,2022.2.4,59.97243187170211,
,,,,,,,,,,,,,,,,,,,,,,,,,,0,0,0,0,8,0,8,0,,,,,,,,,,,,,,,,,,,,,,,,,,,,,,,,,,,,,,,,1023.4724661240034,,125,D,circle,0.0015203359944280237,,,,,1,0,,,1,1021.9709101100016,1017.7759460850066,1019.284410170003,1019.284410170003,1019.284410170003,j,2.6616157780081267,,,,,,,,,,,,,,,,,,,,,,,,,,,,,,,,,,,,,,,,,,,,,31068,2022-11-04_14h56.24.032,vts_reward_expectancy_bt_OFFLINE,2022.2.4,59.97243187170211,
,,,,,,,,,,,,,,,,,,,,,,,,,,0,0,0,0,9,0,9,0,,,,,,,,,,,,,,,,,,,,,,,,,,,,,,,,,,,,,,,,1028.2111009640066,,181,B,star,0.0016609400045126677,,,,,1,0,,,1,1026.7092382569972,1024.451433868002,1025.958478554996,1025.958478554996,1025.958478554996,j,0.7234005479986081,,,,,,,,,,,,,,,,,,,,,,,,,,,,,,,,,,,,,,,,,,,,,31068,2022-11-04_14h56.24.032,vts_reward_expectancy_bt_OFFLINE,2022.2.4,59.97243187170211,
,,,,,,,,,,,,,,,,,,,,,,,,,,1,0,1,0,0,0,0,0,,,,,,,,,,,,,,,,,,,,,,,,,,,,,,,,,,,,,,,,1047.7493112469965,,167,W,circle,0.0020639699941966683,,,,,1,0,,,2,1046.2475227789982,1044.106030548006,1045.6135403999942,1045.6135403999942,1045.6135403999942,k,0.6101856170134852,,,,,,,,,,,,,,,,,,,,,,,,,,,,,,,,,,,,,,,,,,,,,31068,2022-11-04_14h56.24.032,vts_reward_expectancy_bt_OFFLINE,2022.2.4,59.97243187170211,
,,,,,,,,,,,,,,,,,,,,,,,,,,1,0,1,0,1,0,1,0,,,,,,,,,,,,,,,,,,,,,,,,,,,,,,,,,,,,,,,,1052.3711208750028,,139,U,hexagon,0.0013331070076674223,,,,,1,0,,,2,1050.8693573000055,1048.728776310003,1050.2354624769941,1050.2354624769941,1050.2354624769941,k,0.6114236029970925,,,,,,,,,,,,,,,,,,,,,,,,,,,,,,,,,,,,,,,,,,,,,31068,2022-11-04_14h56.24.032,vts_reward_expectancy_bt_OFFLINE,2022.2.4,59.97243187170211,
,,,,,,,,,,,,,,,,,,,,,,,,,,1,0,1,0,2,0,2,0,,,,,,,,,,,,,,,,,,,,,,,,,,,,,,,,,,,,,,,,1057.7269870760065,,174,H,star,0.0017471960018156096,,,,,1,0,,,2,1056.225276254001,1053.3489648609975,1054.8569901800074,1054.8569901800074,1054.8569901800074,j,1.335789760996704,,,,,,,,,,,,,,,,,,,,,,,,,,,,,,,,,,,,,,,,,,,,,31068,2022-11-04_14h56.24.032,vts_reward_expectancy_bt_OFFLINE,2022.2.4,59.97243187170211,
,,,,,,,,,,,,,,,,,,,,,,,,,,1,0,1,0,3,0,3,0,,,,,,,,,,,,,,,,,,,,,,,,,,,,,,,,,,,,,,,,1062.3654043889983,,181,Y,triangle,0.0016178910009330139,,,,,1,0,,,2,1060.8638054420007,1058.705470315006,1060.212731727006,1060.212731727006,1060.212731727006,k,0.6248862480133539,,,,,,,,,,,,,,,,,,,,,,,,,,,,,,,,,,,,,,,,,,,,,31068,2022-11-04_14h56.24.032,vts_reward_expectancy_bt_OFFLINE,2022.2.4,59.97243187170211,
,,,,,,,,,,,,,,,,,,,,,,,,,,1,0,1,0,4,0,4,0,,,,,,,,,,,,,,,,,,,,,,,,,,,,,,,,,,,,,,,,1066.9704310160014,,160,D,star,0.0017021179955918342,,,,,1,0,,,2,1065.4687528680079,1063.3441535489983,1064.8513731480052,1064.8513731480052,1064.8513731480052,j,0.6006875570019474,,,,,,,,,,,,,,,,,,,,,,,,,,,,,,,,,,,,,,,,,,,,,31068,2022-11-04_14h56.24.032,vts_reward_expectancy_bt_OFFLINE,2022.2.4,59.97243187170211,
,,,,,,,,,,,,,,,,,,,,,,,,,,1,0,1,0,5,0,5,0,,,,,,,,,,,,,,,,,,,,,,,,,,,,,,,,,,,,,,,,1071.5422200269968,,146,B,triangle,0.0013369289954425767,,,,,1,0,,,2,1070.0404821389966,1067.9482326500001,1069.4564595919946,1069.4564595919946,1069.4564595919946,j,0.5513509650045307,,,,,,,,,,,,,,,,,,,,,,,,,,,,,,,,,,,,,,,,,,,,,31068,2022-11-04_14h56.24.032,vts_reward_expectancy_bt_OFFLINE,2022.2.4,59.97243187170211,
,,,,,,,,,,,,,,,,,,,,,,,,,,1,0,1,0,6,0,6,0,,,,,,,,,,,,,,,,,,,,,,,,,,,,,,,,,,,,,,,,1076.1972191539971,,132,F,circle,0.0015723960095783696,,,,,1,0,,,2,1074.695524131006,1072.5207041749964,1074.0283591360057,1074.0283591360057,1074.0283591360057,j,0.6491902590059908,,,,,,,,,,,,,,,,,,,,,,,,,,,,,,,,,,,,,,,,,,,,,31068,2022-11-04_14h56.24.032,vts_reward_expectancy_bt_OFFLINE,2022.2.4,59.97243187170211,
,,,,,,,,,,,,,,,,,,,,,,,,,,1,0,1,0,7,0,7,0,,,,,,,,,,,,,,,,,,,,,,,,,,,,,,,,,,,,,,,,1080.8690807210078,,125,S,hexagon,0.0015910110087133944,,,,,1,0,,,2,1079.3673506890045,1077.1749647670076,1078.6834322409995,1078.6834322409995,1078.6834322409995,k,0.6618158530036453,,,,,,,,,,,,,,,,,,,,,,,,,,,,,,,,,,,,,,,,,,,,,31068,2022-11-04_14h56.24.032,vts_reward_expectancy_bt_OFFLINE,2022.2.4,59.97243187170211,
,,,,,,,,,,,,,,,,,,,,,,,,,,1,0,1,0,8,0,8,0,,,,,,,,,,,,,,,,,,,,,,,,,,,,,,,,,,,,,,,,1085.4073840769997,,167,W,star,0.0017325890075881034,,,,,1,0,,,2,1083.9056691099977,1081.8471373799985,1083.355056889006,1083.355056889006,1083.355056889006,k,0.5232510580099188,,,,,,,,,,,,,,,,,,,,,,,,,,,,,,,,,,,,,,,,,,,,,31068,2022-11-04_14h56.24.032,vts_reward_expectancy_bt_OFFLINE,2022.2.4,59.97243187170211,
,,,,,,,,,,,,,,,,,,,,,,,,,,1,0,1,0,9,0,9,0,,,,,,,,,,,,,,,,,,,,,,,,,,,,,,,,,,,,,,,,1090.045758635999,,139,U,triangle,0.0016070940037025139,,,,,1,0,,,2,1088.5440672569966,1086.3862355500023,1087.8934143259976,1087.8934143259976,1087.8934143259976,k,0.6328015130129643,,,,,,,,,,,,,,,,,,,,,,,,,,,,,,,,,,,,,,,,,,,,,31068,2022-11-04_14h56.24.032,vts_reward_expectancy_bt_OFFLINE,2022.2.4,59.97243187170211,
,,,,,,,,,,,,,,,,,,,,,,,,,,,,,,,,,,0,0,0,0,0,0,0,0,,,,,,,,,,,,,,,,,,,,,,,,,,,,0,864,,,1131.4082000519993,,167,F,triangle,0.002168410996091552,,,,,0,0,,,3,,,,,,,,,1126.834721474006,1126.834721474006,1126.834721474006,1126.834721474006,1128.3383164080005,1128.3383164080005,1128.3383164080005,1128.3383164080005,1128.3383164080005,1128.3383164080005,1128.3383164080005,1128.3383164080005,-1,letter,NA,k,1.542955154000083,vtsPrac,1129.9074496440007,,,,,,,,,,,,,,,,,,,,,,,,,31068,2022-11-04_14h56.24.032,vts_reward_expectancy_bt_OFFLINE,2022.2.4,59.97243187170211,
,,,,,,,,,,,,,,,,,,,,,,,,,,,,,,,,,,0,0,0,0,1,0,1,0,,,,,,,,,,,,,,,,,,,,,,,,,,,,0,864,,,1135.4627163730038,,132,S,hexagon,0.0012128149974159896,,,,,1,1,,,3,,,,,,,,,1132.3904313940002,1132.3904313940002,1132.3904313940002,1132.3904313940002,1133.894372291994,1133.894372291994,1133.894372291994,1133.894372291994,1133.894372291994,1133.894372291994,1133.894372291994,1133.894372291994,switch,number,numSwt,d,0.037528631000895984,vtsPrac,1133.9621504850074,,,,,,,,,,,,,,,,,,,,,,,,,31068,2022-11-04_14h56.24.032,vts_reward_expectancy_bt_OFFLINE,2022.2.4,59.97243187170211,
,,,,,,,,,,,,,,,,,,,,,,,,,,,,,,,,,,0,0,0,0,2,0,2,0,,,,,,,,,,,,,,,,,,,,,,,,,,,,0,864,,,1139.9508287899953,,125,Y,hexagon,0.0013788700016448274,,,,,0,0,,,3,,,,,,,,,1136.4421596930042,1136.4421596930042,1136.4421596930042,1136.4421596930042,1137.9486656100053,1137.9486656100053,1137.9486656100053,1137.9486656100053,1137.9486656100053,1137.9486656100053,1137.9486656100053,1137.9486656100053,switch,letter,NA,j,0.48384959100803826,vtsPrac,1138.4494179570029,,,,,,,,,,,,,,,,,,,,,,,,,31068,2022-11-04_14h56.24.032,vts_reward_expectancy_bt_OFFLINE,2022.2.4,59.97243187170211,
,,,,,,,,,,,,,,,,,,,,,,,,,,,,,,,,,,0,0,0,0,3,0,3,0,,,,,,,,,,,,,,,,,,,,,,,,,,,,0,864,,,1145.0066819850035,,160,B,triangle,0.00143467599991709,,,,,0,1,,,3,,,,,,,,,1140.9336332490057,1140.9336332490057,1140.9336332490057,1140.9336332490057,1142.436947958995,1142.436947958995,1142.436947958995,1142.436947958995,1142.436947958995,1142.436947958995,1142.436947958995,1142.436947958995,repeat,letter,NA,k,1.045418719004374,vtsPrac,1143.5046581589995,,,,,,,,,,,,,,,,,,,,,,,,,31068,2022-11-04_14h56.24.032,vts_reward_expectancy_bt_OFFLINE,2022.2.4,59.97243187170211,
,,,,,,,,,,,,,,,,,,,,,,,,,,,,,,,,,,0,0,0,0,4,0,4,0,,,,,,,,,,,,,,,,,,,,,,,,,,,,0,864,,,1149.344793907003,,167,F,star,0.0016748220077715814,,,,,1,1,,,3,,,,,,,,,1145.9847996269964,1145.9847996269964,1145.9847996269964,1145.9847996269964,1147.492557457008,1147.492557457008,1147.492557457008,1147.492557457008,1147.492557457008,1147.492557457008,1147.492557457008,1147.492557457008,switch,number,numSwt,f,0.3225610660010716,vtsPrac,1147.8429988349963,,,,,,,,,,,,,,,,,,,,,,,,,31068,2022-11-04_14h56.24.032,vts_reward_expectancy_bt_OFFLINE,2022.2.4,59.97243187170211,
,,,,,,,,,,,,,,,,,,,,,,,,,,,,,,,,,,0,0,0,0,5,0,5,0,,,,,,,,,,,,,,,,,,,,,,,,,,,,0,864,,,1154.2833903169958,,132,S,circle,0.0016990919975796714,,,,,1,0,,,3,,,,,,,,,1150.3233420820034,1150.3233420820034,1150.3233420820034,1150.3233420820034,1151.8307142849953,1151.8307142849953,1151.8307142849953,1151.8307142849953,1151.8307142849953,1151.8307142849953,1151.8307142849953,1151.8307142849953,switch,letter,lettSwt,k,0.9230358760105446,vtsPrac,1152.7817206809996,,,,,,,,,,,,,,,,,,,,,,,,,31068,2022-11-04_14h56.24.032,vts_reward_expectancy_bt_OFFLINE,2022.2.4,59.97243187170211,
,,,,,,,,,,,,,,,,,,,,,,,,,,,,,,,,,,0,0,0,0,6,0,6,0,,,,,,,,,,,,,,,,,,,,,,,,,,,,0,864,,,1158.8217658659996,,125,Y,star,0.001814100003684871,,,,,1,0,,,3,,,,,,,,,1155.2646970159985,1155.2646970159985,1155.2646970159985,1155.2646970159985,1156.7695910750044,1156.7695910750044,1156.7695910750044,1156.7695910750044,1156.7695910750044,1156.7695910750044,1156.7695910750044,1156.7695910750044,switch,number,numSwt,d,0.5179294800036587,vtsPrac,1157.3200444039976,,,,,,,,,,,,,,,,,,,,,,,,,31068,2022-11-04_14h56.24.032,vts_reward_expectancy_bt_OFFLINE,2022.2.4,59.97243187170211,
,,,,,,,,,,,,,,,,,,,,,,,,,,,,,,,,,,0,0,0,0,7,0,7,0,,,,,,,,,,,,,,,,,,,,,,,,,,,,0,864,,,1163.3600348220061,,160,B,hexagon,0.0015344550047302619,,,,,1,0,,,3,,,,,,,,,1159.8027734670031,1159.8027734670031,1159.8027734670031,1159.8027734670031,1161.3077535530028,1161.3077535530028,1161.3077535530028,1161.3077535530028,1161.3077535530028,1161.3077535530028,1161.3077535530028,1161.3077535530028,switch,letter,lettSwt,j,0.5239812810032163,vtsPrac,1161.8582696530066,,,,,,,,,,,,,,,,,,,,,,,,,31068,2022-11-04_14h56.24.032,vts_reward_expectancy_bt_OFFLINE,2022.2.4,59.97243187170211,
,,,,,,,,,,,,,,,,,,,,,,,,,,,,,,,,,,0,0,0,0,8,0,8,0,,,,,,,,,,,,,,,,,,,,,,,,,,,,0,864,,,1168.2487832820043,,167,Y,circle,0.0016531910077901557,,,,,0,0,,,3,,,,,,,,,1164.339740260999,1164.339740260999,1164.339740260999,1164.339740260999,1165.846141571994,1165.846141571994,1165.846141571994,1165.846141571994,1165.846141571994,1165.846141571994,1165.846141571994,1165.846141571994,switch,number,NA,d,0.8685580680030398,vtsPrac,1166.7472066110058,,,,,,,,,,,,,,,,,,,,,,,,,31068,2022-11-04_14h56.24.032,vts_reward_expectancy_bt_OFFLINE,2022.2.4,59.97243187170211,
,,,,,,,,,,,,,,,,,,,,,,,,,,,,,,,,,,0,0,0,0,9,0,9,0,,,,,,,,,,,,,,,,,,,,,,,,,,,,0,864,,,1172.536850738994,,139,S,star,0.001492355004302226,,,,,0,1,,,3,,,,,,,,,1169.228774725998,1169.228774725998,1169.228774725998,1169.228774725998,1170.734842830003,1170.734842830003,1170.734842830003,1170.734842830003,1170.734842830003,1170.734842830003,1170.734842830003,1170.734842830003,switch,letter,NA,j,0.278033680995577,vtsPrac,1171.0350827060029,,,,,,,,,,,,,,,,,,,,,,,,,31068,2022-11-04_14h56.24.032,vts_reward_expectancy_bt_OFFLINE,2022.2.4,59.97243187170211,
,,,,,,,,,,,,,,,,,,,,,,,,,,,,,,,,,,0,0,0,0,10,0,10,0,,,,,,,,,,,,,,,,,,,,,,,,,,,,0,864,,,1177.1587474900007,,174,F,circle,0.0013588370056822896,,,,,1,1,,,3,,,,,,,,,1173.5157155000052,1173.5157155000052,1173.5157155000052,1173.5157155000052,1175.0229623780033,1175.0229623780033,1175.0229623780033,1175.0229623780033,1175.0229623780033,1175.0229623780033,1175.0229623780033,1175.0229623780033,switch,number,numSwt,f,0.613024045000202,vtsPrac,1175.6569738740072,,,,,,,,,,,,,,,,,,,,,,,,,31068,2022-11-04_14h56.24.032,vts_reward_expectancy_bt_OFFLINE,2022.2.4,59.97243187170211,
,,,,,,,,,,,,,,,,,,,,,,,,,,,,,,,,,,0,0,0,0,11,0,11,0,,,,,,,,,,,,,,,,,,,,,,,,,,,,0,864,,,1181.8136897740042,,125,U,hexagon,0.0014195830008247867,,,,,1,0,,,3,,,,,,,,,1178.1384270510025,1178.1384270510025,1178.1384270510025,1178.1384270510025,1179.6446791420021,1179.6446791420021,1179.6446791420021,1179.6446791420021,1179.6446791420021,1179.6446791420021,1179.6446791420021,1179.6446791420021,switch,letter,lettSwt,k,0.6390313490119297,vtsPrac,1180.3119754640065,,,,,,,,,,,,,,,,,,,,,,,,,31068,2022-11-04_14h56.24.032,vts_reward_expectancy_bt_OFFLINE,2022.2.4,59.97243187170211,
,,,,,,,,,,,,,,,,,,,,,,,,,,,,,,,,,,0,0,0,0,12,0,12,0,,,,,,,,,,,,,,,,,,,,,,,,,,,,0,864,,,1186.3353674630052,,125,B,hexagon,0.001629086007596925,,,,,0,0,,,3,,,,,,,,,1182.7927181900013,1182.7927181900013,1182.7927181900013,1182.7927181900013,1184.299854915007,1184.299854915007,1184.299854915007,1184.299854915007,1184.299854915007,1184.299854915007,1184.299854915007,1184.299854915007,repeat,letter,NA,k,0.5060582360019907,vtsPrac,1184.8337425130012,,,,,,,,,,,,,,,,,,,,,,,,,31068,2022-11-04_14h56.24.032,vts_reward_expectancy_bt_OFFLINE,2022.2.4,59.97243187170211,
,,,,,,,,,,,,,,,,,,,,,,,,,,,,,,,,,,0,0,0,0,13,0,13,0,,,,,,,,,,,,,,,,,,,,,,,,,,,,0,864,,,1190.740271239003,,132,U,circle,0.0015395549999084324,,,,,1,1,,,3,,,,,,,,,1187.314504807,1187.314504807,1187.314504807,1187.314504807,1188.8214987079991,1188.8214987079991,1188.8214987079991,1188.8214987079991,1188.8214987079991,1188.8214987079991,1188.8214987079991,1188.8214987079991,switch,number,numSwt,d,0.39395270601380616,vtsPrac,1189.2386646399973,,,,,,,,,,,,,,,,,,,,,,,,,31068,2022-11-04_14h56.24.032,vts_reward_expectancy_bt_OFFLINE,2022.2.4,59.97243187170211,
,,,,,,,,,,,,,,,,,,,,,,,,,,,,,,,,,,0,0,0,0,14,0,14,0,,,,,,,,,,,,,,,,,,,,,,,,,,,,0,864,,,1195.2619236900064,,167,D,circle,0.002094191004289314,,,,,1,0,,,3,,,,,,,,,1191.7227081870078,1191.7227081870078,1191.7227081870078,1191.7227081870078,1193.2264829589985,1193.2264829589985,1193.2264829589985,1193.2264829589985,1193.2264829589985,1193.2264829589985,1193.2264829589985,1193.2264829589985,repeat,number,numRpt,f,0.511379368006601,vtsPrac,1193.7603778460034,,,,,,,,,,,,,,,,,,,,,,,,,31068,2022-11-04_14h56.24.032,vts_reward_expectancy_bt_OFFLINE,2022.2.4,59.97243187170211,
,,,,,,,,,,,,,,,,,,,,,,,,,,,,,,,,,,0,0,0,0,15,0,15,0,,,,,,,,,,,,,,,,,,,,,,,,,,,,0,864,,,1200.5346362349956,,174,H,triangle,0.0016781480080680922,,,,,1,0,,,3,,,,,,,,,1196.2419993079966,1196.2419993079966,1196.2419993079966,1196.2419993079966,1197.7477708420047,1197.7477708420047,1197.7477708420047,1197.7477708420047,1197.7477708420047,1197.7477708420047,1197.7477708420047,1197.7477708420047,switch,letter,lettSwt,j,1.2556657590030227,vtsPrac,1199.0328786570026,,,,,,,,,,,,,,,,,,,,,,,,,31068,2022-11-04_14h56.24.032,vts_reward_expectancy_bt_OFFLINE,2022.2.4,59.97243187170211,
,,,,,,,,,,,,,,,,,,,,,,,,,,,,,,,,,,0,0,0,0,16,0,16,0,,,,,,,,,,,,,,,,,,,,,,,,,,,,0,864,,,1205.072855033999,,125,Y,hexagon,0.0013738330017076805,,,,,0,0,,,3,,,,,,,,,1201.5136822310014,1201.5136822310014,1201.5136822310014,1201.5136822310014,1203.0205100370076,1203.0205100370076,1203.0205100370076,1203.0205100370076,1203.0205100370076,1203.0205100370076,1203.0205100370076,1203.0205100370076,repeat,letter,NA,j,0.5281649630051106,vtsPrac,1203.5710974899994,,,,,,,,,,,,,,,,,,,,,,,,,31068,2022-11-04_14h56.24.032,vts_reward_expectancy_bt_OFFLINE,2022.2.4,59.97243187170211,
,,,,,,,,,,,,,,,,,,,,,,,,,,,,,,,,,,0,0,0,0,17,0,17,0,,,,,,,,,,,,,,,,,,,,,,,,,,,,0,864,,,1209.5777706109948,,139,D,star,0.0016861729964148253,,,,,1,1,,,3,,,,,,,,,1206.052601878997,1206.052601878997,1206.052601878997,1206.052601878997,1207.5590329889965,1207.5590329889965,1207.5590329889965,1207.5590329889965,1207.5590329889965,1207.5590329889965,1207.5590329889965,1207.5590329889965,switch,number,numSwt,d,0.49060163799731527,vtsPrac,1208.0761701059964,,,,,,,,,,,,,,,,,,,,,,,,,31068,2022-11-04_14h56.24.032,vts_reward_expectancy_bt_OFFLINE,2022.2.4,59.97243187170211,
,,,,,,,,,,,,,,,,,,,,,,,,,,,,,,,,,,0,0,0,0,18,0,18,0,,,,,,,,,,,,,,,,,,,,,,,,,,,,0,864,,,1214.0827095610002,,181,H,circle,0.0015799090033397079,,,,,0,0,,,3,,,,,,,,,1210.5593537660025,1210.5593537660025,1210.5593537660025,1210.5593537660025,1212.063736488999,1212.063736488999,1212.063736488999,1212.063736488999,1212.063736488999,1212.063736488999,1212.063736488999,1212.063736488999,switch,letter,NA,k,0.4851121640094789,vtsPrac,1212.5810977229994,,,,,,,,,,,,,,,,,,,,,,,,,31068,2022-11-04_14h56.24.032,vts_reward_expectancy_bt_OFFLINE,2022.2.4,59.97243187170211,
,,,,,,,,,,,,,,,,,,,,,,,,,,,,,,,,,,0,0,0,0,19,0,19,0,,,,,,,,,,,,,,,,,,,,,,,,,,,,0,864,,,1218.5044488819985,,174,B,hexagon,0.0016410179960075766,,,,,1,1,,,3,,,,,,,,,1215.0628366409946,1215.0628366409946,1215.0628366409946,1215.0628366409946,1216.568910447997,1216.568910447997,1216.568910447997,1216.568910447997,1216.568910447997,1216.568910447997,1216.568910447997,1216.568910447997,repeat,letter,lettRpt,j,0.4014623270049924,vtsPrac,1217.002639104001,,,,,,,,,,,,,,,,,,,,,,,,,31068,2022-11-04_14h56.24.032,vts_reward_expectancy_bt_OFFLINE,2022.2.4,59.97243187170211,
,,,,,,,,,,,,,,,,,,,,,,,,,,,,,,,,,,0,0,0,0,20,0,20,0,,,,,,,,,,,,,,,,,,,,,,,,,,,,0,864,,,1222.9258655500016,,160,D,hexagon,0.0015713589964434505,,,,,0,0,,,3,,,,,,,,,1219.4833997160022,1219.4833997160022,1219.4833997160022,1219.4833997160022,1220.9903749270015,1220.9903749270015,1220.9903749270015,1220.9903749270015,1220.9903749270015,1220.9903749270015,1220.9903749270015,1220.9903749270015,repeat,letter,NA,k,0.41266733800875954,vtsPrac,1221.4242108559993,,,,,,,,,,,,,,,,,,,,,,,,,31068,2022-11-04_14h56.24.032,vts_reward_expectancy_bt_OFFLINE,2022.2.4,59.97243187170211,
,,,,,,,,,,,,,,,,,,,,,,,,,,,,,,,,,,0,0,0,0,21,0,21,0,,,,,,,,,,,,,,,,,,,,,,,,,,,,0,864,,,1227.3808045750047,,132,W,triangle,0.0014604140014853328,,,,,0,1,,,3,,,,,,,,,1223.9087083399936,1223.9087083399936,1223.9087083399936,1223.9087083399936,1225.4120629249956,1225.4120629249956,1225.4120629249956,1225.4120629249956,1225.4120629249956,1225.4120629249956,1225.4120629249956,1225.4120629249956,switch,number,NA,f,0.44607937899127137,vtsPrac,1225.8791106629942,,,,,,,,,,,,,,,,,,,,,,,,,31068,2022-11-04_14h56.24.032,vts_reward_expectancy_bt_OFFLINE,2022.2.4,59.97243187170211,
,,,,,,,,,,,,,,,,,,,,,,,,,,,,,,,,,,0,0,0,0,22,0,22,0,,,,,,,,,,,,,,,,,,,,,,,,,,,,0,864,,,1231.6688305900025,,181,F,circle,0.0012112919939681888,,,,,1,1,,,3,,,,,,,,,1228.3597373850062,1228.3597373850062,1228.3597373850062,1228.3597373850062,1229.866774590002,1229.866774590002,1229.866774590002,1229.866774590002,1229.866774590002,1229.866774590002,1229.866774590002,1229.866774590002,repeat,number,numRpt,f,0.26781590600148775,vtsPrac,1230.1671853980079,,,,,,,,,,,,,,,,,,,,,,,,,31068,2022-11-04_14h56.24.032,vts_reward_expectancy_bt_OFFLINE,2022.2.4,59.97243187170211,
,,,,,,,,,,,,,,,,,,,,,,,,,,,,,,,,,,0,0,0,0,23,0,23,0,,,,,,,,,,,,,,,,,,,,,,,,,,,,0,864,,,1236.1236464679969,,146,U,star,0.0016508910048287362,,,,,1,0,,,3,,,,,,,,,1232.6478605099983,1232.6478605099983,1232.6478605099983,1232.6478605099983,1234.1548733850068,1234.1548733850068,1234.1548733850068,1234.1548733850068,1234.1548733850068,1234.1548733850068,1234.1548733850068,1234.1548733850068,repeat,number,numRpt,d,0.44370096700731665,vtsPrac,1234.6220198740048,,,,,,,,,,,,,,,,,,,,,,,,,31068,2022-11-04_14h56.24.032,vts_reward_expectancy_bt_OFFLINE,2022.2.4,59.97243187170211,
,,,,,,,,,,,,,,,,,,,,,,,,,,,,,,,,,,0,0,0,0,24,0,24,0,,,,,,,,,,,,,,,,,,,,,,,,,,,,0,864,,,1240.5953919220046,,139,H,triangle,0.0015752599865663797,,,,,0,0,,,3,,,,,,,,,1237.1021924119996,1237.1021924119996,1237.1021924119996,1237.1021924119996,1238.609891783999,1238.609891783999,1238.609891783999,1238.609891783999,1238.609891783999,1238.609891783999,1238.609891783999,1238.609891783999,switch,letter,NA,k,0.4569596060027834,vtsPrac,1239.0937150450045,,,,,,,,,,,,,,,,,,,,,,,,,31068,2022-11-04_14h56.24.032,vts_reward_expectancy_bt_OFFLINE,2022.2.4,59.97243187170211,
,,,,,,,,,,,,,,,,,,,,,,,,,,,,,,,,,,0,0,0,0,25,0,25,0,,,,,,,,,,,,,,,,,,,,,,,,,,,,0,864,,,1244.9334153560048,,146,U,star,0.0015646599931642413,,,,,0,1,,,3,,,,,,,,,1241.574525635995,1241.574525635995,1241.574525635995,1241.574525635995,1243.0813527389982,1243.0813527389982,1243.0813527389982,1243.0813527389982,1243.0813527389982,1243.0813527389982,1243.0813527389982,1243.0813527389982,repeat,letter,NA,j,0.3267506029951619,vtsPrac,1243.4318776550062,,,,,,,,,,,,,,,,,,,,,,,,,31068,2022-11-04_14h56.24.032,vts_reward_expectancy_bt_OFFLINE,2022.2.4,59.97243187170211,
