LTriangleOpac,LCircleOpac,LHexagonOpac,LStarOpac,RTriangleOpac,RCircleOpac,RHexagonOpac,RStarOpac,LShape_ID,RShape_ID,training_blocks.thisRepN,training_blocks.thisTrialN,training_blocks.thisN,training_blocks.thisIndex,training.thisRepN,training.thisTrialN,training.thisN,training.thisIndex,task1_prac_redo.thisRepN,task1_prac_redo.thisTrialN,task1_prac_redo.thisN,task1_prac_redo.thisIndex,task1_prac_trials.thisRepN,task1_prac_trials.thisTrialN,task1_prac_trials.thisN,task1_prac_trials.thisIndex,task2_prac_redo.thisRepN,task2_prac_redo.thisTrialN,task2_prac_redo.thisN,task2_prac_redo.thisIndex,task2_praac_trials.thisRepN,task2_praac_trials.thisTrialN,task2_praac_trials.thisN,task2_praac_trials.thisIndex,vts_prac_redo.thisRepN,vts_prac_redo.thisTrialN,vts_prac_redo.thisN,vts_prac_redo.thisIndex,vts_practice_trials.thisRepN,vts_practice_trials.thisTrialN,vts_practice_trials.thisN,vts_practice_trials.thisIndex,trials_norew.thisRepN,trials_norew.thisTrialN,trials_norew.thisN,trials_norew.thisIndex,block.thisRepN,block.thisTrialN,block.thisN,block.thisIndex,trials_rew.thisRepN,trials_rew.thisTrialN,trials_rew.thisN,trials_rew.thisIndex,key_resp.started,key_resp.keys,key_resp.rt,left_circle.started,right_circle.started,left_triangle.started,right_triangle.started,left_star.started,right_star.started,left_hexagon.started,right_hexagon.started,training_fix.started,training_resp.started,training_resp.keys,training_resp.rt,points_trial,points_cumul,trainBlock,training_feedback_txt.started,fix.started,training_feedback_txt.stopped,curr_topStim,curr_bottStim,curr_shape,ISI.started,tgt_fix_prac1.started,top_target_prac1.started,bott_target_prac1.started,target_resp_prac1.started,acc,E1,target_resp_prac1.keys,target_resp_prac1.rt,pracBlock,prac_fback_text.started,tgt_fix_prac2.started,top_target_prac2.started,bott_target_prac2.started,target_resp_prac2.started,target_resp_prac2.keys,target_resp_prac2.rt,star.started,hegagon.started,triangle.started,circle.started,star.stopped,hegagon.stopped,triangle.stopped,circle.stopped,top_target.started,tgt_fix.started,bot_target.started,target_resp.started,alt,task,condition,target_resp.keys,target_resp.rt,rewCond,vts_fback.started,blockNum,norew_fback.started,norew_fback.stopped,key_resp_2.keys,key_resp_2.rt,rewExpectancy,feedbk_text.started,feedbk_text.stopped,fix.stopped,text_3.started,text_3.stopped,button.started,debrief.index,debrief.itemText,debrief.type,debrief.granularity,debrief.font,debrief.markerColor,debrief.response,debrief.rt,button.numClicks,button.timesOn,button.timesOff,participant,date,expName,psychopyVersion,frameRate,
,,,,,,,,,,,,,,,,,,,,,,,,,,,,,,,,,,,,,,,,,,,,,,,,,,,,,,25.71831173499959,space,19.657246941991616,,,,,,,,,,,,,,,,,,,,,,,,,,,,,,,,,,,,,,,,,,,,,,,,,,,,,,,,,,,,,,,,,,,,,,,,,,,,,,,,,31275,2022-10-26_10h25.26.703,vts_reward_expectancy_bt_OFFLINE,2022.2.4,59.848491866648565,
0,1,0,0,0,0,0,1,circle,star,0,0,0,0,0,0,0,5,,,,,,,,,,,,,,,,,,,,,,,,,,,,,,,,,,,,,,,,71.75732520699967,71.75732520699967,71.75732520699967,71.75732520699967,71.75732520699967,71.75732520699967,71.75732520699967,71.75732520699967,71.75732520699967,71.75732520699967,l,1.7700864809958148,10,10,0,73.54596354800015,75.04745829100284,,,,,,,,,,,,,,,,,,,,,,,,,,,,,,,,,,,,,,,,,,,,,,,,,,,,,,,,,,,,,,,,31275,2022-10-26_10h25.26.703,vts_reward_expectancy_bt_OFFLINE,2022.2.4,59.848491866648565,
0,1,0,0,0,0,1,0,circle,hexagon,0,0,0,0,0,1,1,4,,,,,,,,,,,,,,,,,,,,,,,,,,,,,,,,,,,,,,,,75.54802505300177,75.54802505300177,75.54802505300177,75.54802505300177,75.54802505300177,75.54802505300177,75.54802505300177,75.54802505300177,75.54802505300177,75.54802505300177,a,1.32330227199418,10,20,0,76.89964993699687,78.40132201799861,,,,,,,,,,,,,,,,,,,,,,,,,,,,,,,,,,,,,,,,,,,,,,,,,,,,,,,,,,,,,,,,31275,2022-10-26_10h25.26.703,vts_reward_expectancy_bt_OFFLINE,2022.2.4,59.848491866648565,
0,0,1,0,1,0,0,0,hexagon,triangle,0,0,0,0,0,2,2,6,,,,,,,,,,,,,,,,,,,,,,,,,,,,,,,,,,,,,,,,78.90189611000096,78.90189611000096,78.90189611000096,78.90189611000096,78.90189611000096,78.90189611000096,78.90189611000096,78.90189611000096,78.90189611000096,78.90189611000096,l,0.7050150259965449,1,21,0,79.63602961799916,81.13760962500237,,,,,,,,,,,,,,,,,,,,,,,,,,,,,,,,,,,,,,,,,,,,,,,,,,,,,,,,,,,,,,,,31275,2022-10-26_10h25.26.703,vts_reward_expectancy_bt_OFFLINE,2022.2.4,59.848491866648565,
1,0,0,0,0,0,1,0,triangle,hexagon,0,0,0,0,0,3,3,1,,,,,,,,,,,,,,,,,,,,,,,,,,,,,,,,,,,,,,,,81.63810037200165,81.63810037200165,81.63810037200165,81.63810037200165,81.63810037200165,81.63810037200165,81.63810037200165,81.63810037200165,81.63810037200165,81.63810037200165,l,1.2245045709933038,1,22,0,82.88950118100183,84.39103228299791,,,,,,,,,,,,,,,,,,,,,,,,,,,,,,,,,,,,,,,,,,,,,,,,,,,,,,,,,,,,,,,,31275,2022-10-26_10h25.26.703,vts_reward_expectancy_bt_OFFLINE,2022.2.4,59.848491866648565,
1,0,0,0,0,1,0,0,triangle,circle,0,0,0,0,0,4,4,0,,,,,,,,,,,,,,,,,,,,,,,,,,,,,,,,,,,,,,,,84.89162142499845,84.89162142499845,84.89162142499845,84.89162142499845,84.89162142499845,84.89162142499845,84.89162142499845,84.89162142499845,84.89162142499845,84.89162142499845,l,1.0914413499995135,10,32,0,86.0096851299968,87.51128045500081,,,,,,,,,,,,,,,,,,,,,,,,,,,,,,,,,,,,,,,,,,,,,,,,,,,,,,,,,,,,,,,,31275,2022-10-26_10h25.26.703,vts_reward_expectancy_bt_OFFLINE,2022.2.4,59.848491866648565,
0,0,0,1,0,1,0,0,star ,circle,0,0,0,0,0,5,5,10,,,,,,,,,,,,,,,,,,,,,,,,,,,,,,,,,,,,,,,,88.01183494499855,88.01183494499855,88.01183494499855,88.01183494499855,88.01183494499855,88.01183494499855,88.01183494499855,88.01183494499855,88.01183494499855,88.01183494499855,a,1.3241580559988506,10,42,0,89.36334401599743,90.86487599700195,,,,,,,,,,,,,,,,,,,,,,,,,,,,,,,,,,,,,,,,,,,,,,,,,,,,,,,,,,,,,,,,31275,2022-10-26_10h25.26.703,vts_reward_expectancy_bt_OFFLINE,2022.2.4,59.848491866648565,
0,0,0,1,1,0,0,0,star,triangle,0,0,0,0,0,6,6,9,,,,,,,,,,,,,,,,,,,,,,,,,,,,,,,,,,,,,,,,91.36551528299606,91.36551528299606,91.36551528299606,91.36551528299606,91.36551528299606,91.36551528299606,91.36551528299606,91.36551528299606,91.36551528299606,91.36551528299606,a,0.5686989499954507,1,43,0,91.96618152599694,93.46785640800226,,,,,,,,,,,,,,,,,,,,,,,,,,,,,,,,,,,,,,,,,,,,,,,,,,,,,,,,,,,,,,,,31275,2022-10-26_10h25.26.703,vts_reward_expectancy_bt_OFFLINE,2022.2.4,59.848491866648565,
0,1,0,0,1,0,0,0,circle,triangle,0,0,0,0,0,7,7,3,,,,,,,,,,,,,,,,,,,,,,,,,,,,,,,,,,,,,,,,93.96844898600102,93.96844898600102,93.96844898600102,93.96844898600102,93.96844898600102,93.96844898600102,93.96844898600102,93.96844898600102,93.96844898600102,93.96844898600102,a,0.8698648360004881,10,53,0,94.86940205500287,96.37097494999762,,,,,,,,,,,,,,,,,,,,,,,,,,,,,,,,,,,,,,,,,,,,,,,,,,,,,,,,,,,,,,,,31275,2022-10-26_10h25.26.703,vts_reward_expectancy_bt_OFFLINE,2022.2.4,59.848491866648565,
1,0,0,0,0,0,0,1,triangle,star,0,0,0,0,0,8,8,2,,,,,,,,,,,,,,,,,,,,,,,,,,,,,,,,,,,,,,,,96.87152707100176,96.87152707100176,96.87152707100176,96.87152707100176,96.87152707100176,96.87152707100176,96.87152707100176,96.87152707100176,96.87152707100176,96.87152707100176,a,1.3199155119946226,1,54,0,98.22309831299935,99.72478925599717,,,,,,,,,,,,,,,,,,,,,,,,,,,,,,,,,,,,,,,,,,,,,,,,,,,,,,,,,,,,,,,,31275,2022-10-26_10h25.26.703,vts_reward_expectancy_bt_OFFLINE,2022.2.4,59.848491866648565,
0,0,1,0,0,0,0,1,hexagon,star,0,0,0,0,0,9,9,8,,,,,,,,,,,,,,,,,,,,,,,,,,,,,,,,,,,,,,,,100.22530844200082,100.22530844200082,100.22530844200082,100.22530844200082,100.22530844200082,100.22530844200082,100.22530844200082,100.22530844200082,100.22530844200082,100.22530844200082,l,0.6376982829970075,10,64,0,100.89272977299697,102.39438334699662,,,,,,,,,,,,,,,,,,,,,,,,,,,,,,,,,,,,,,,,,,,,,,,,,,,,,,,,,,,,,,,,31275,2022-10-26_10h25.26.703,vts_reward_expectancy_bt_OFFLINE,2022.2.4,59.848491866648565,
0,0,1,0,0,1,0,0,hexagon,circle,0,0,0,0,0,10,10,7,,,,,,,,,,,,,,,,,,,,,,,,,,,,,,,,,,,,,,,,102.89477443700162,102.89477443700162,102.89477443700162,102.89477443700162,102.89477443700162,102.89477443700162,102.89477443700162,102.89477443700162,102.89477443700162,102.89477443700162,a,1.3195112559915287,1,65,0,104.24631558999681,105.74800365600095,,,,,,,,,,,,,,,,,,,,,,,,,,,,,,,,,,,,,,,,,,,,,,,,,,,,,,,,,,,,,,,,31275,2022-10-26_10h25.26.703,vts_reward_expectancy_bt_OFFLINE,2022.2.4,59.848491866648565,
0,0,0,1,0,0,1,0,star,hexagon,0,0,0,0,0,11,11,11,,,,,,,,,,,,,,,,,,,,,,,,,,,,,,,,,,,,,,,,106.24851417599712,106.24851417599712,106.24851417599712,106.24851417599712,106.24851417599712,106.24851417599712,106.24851417599712,106.24851417599712,106.24851417599712,106.24851417599712,a,0.7579530989969498,10,75,0,107.03266613699816,108.53458052300266,,,,,,,,,,,,,,,,,,,,,,,,,,,,,,,,,,,,,,,,,,,,,,,,,,,,,,,,,,,,,,,,31275,2022-10-26_10h25.26.703,vts_reward_expectancy_bt_OFFLINE,2022.2.4,59.848491866648565,
1,0,0,0,0,0,0,1,triangle,star,0,0,0,0,1,0,12,2,,,,,,,,,,,,,,,,,,,,,,,,,,,,,,,,,,,,,,,,109.03506560299866,109.03506560299866,109.03506560299866,109.03506560299866,109.03506560299866,109.03506560299866,109.03506560299866,109.03506560299866,109.03506560299866,109.03506560299866,l,0.5963984109985176,10,85,0,109.65237167799933,111.15396874099679,,,,,,,,,,,,,,,,,,,,,,,,,,,,,,,,,,,,,,,,,,,,,,,,,,,,,,,,,,,,,,,,31275,2022-10-26_10h25.26.703,vts_reward_expectancy_bt_OFFLINE,2022.2.4,59.848491866648565,
1,0,0,0,0,1,0,0,triangle,circle,0,0,0,0,1,1,13,0,,,,,,,,,,,,,,,,,,,,,,,,,,,,,,,,,,,,,,,,111.65463809700304,111.65463809700304,111.65463809700304,111.65463809700304,111.65463809700304,111.65463809700304,111.65463809700304,111.65463809700304,111.65463809700304,111.65463809700304,l,1.6333068419990013,10,95,0,113.30623803399794,114.8080773929978,,,,,,,,,,,,,,,,,,,,,,,,,,,,,,,,,,,,,,,,,,,,,,,,,,,,,,,,,,,,,,,,31275,2022-10-26_10h25.26.703,vts_reward_expectancy_bt_OFFLINE,2022.2.4,59.848491866648565,
0,0,0,1,0,0,1,0,star,hexagon,0,0,0,0,1,2,14,11,,,,,,,,,,,,,,,,,,,,,,,,,,,,,,,,,,,,,,,,115.3086373719998,115.3086373719998,115.3086373719998,115.3086373719998,115.3086373719998,115.3086373719998,115.3086373719998,115.3086373719998,115.3086373719998,115.3086373719998,a,0.9385950049982057,1,96,0,116.2762447999994,117.77817244100152,,,,,,,,,,,,,,,,,,,,,,,,,,,,,,,,,,,,,,,,,,,,,,,,,,,,,,,,,,,,,,,,31275,2022-10-26_10h25.26.703,vts_reward_expectancy_bt_OFFLINE,2022.2.4,59.848491866648565,
0,1,0,0,1,0,0,0,circle,triangle,0,0,0,0,1,3,15,3,,,,,,,,,,,,,,,,,,,,,,,,,,,,,,,,,,,,,,,,118.27862750300119,118.27862750300119,118.27862750300119,118.27862750300119,118.27862750300119,118.27862750300119,118.27862750300119,118.27862750300119,118.27862750300119,118.27862750300119,l,0.9043275129952235,1,97,0,119.21293446199707,120.71442792600283,,,,,,,,,,,,,,,,,,,,,,,,,,,,,,,,,,,,,,,,,,,,,,,,,,,,,,,,,,,,,,,,31275,2022-10-26_10h25.26.703,vts_reward_expectancy_bt_OFFLINE,2022.2.4,59.848491866648565,
0,0,1,0,0,1,0,0,hexagon,circle,0,0,0,0,1,4,16,7,,,,,,,,,,,,,,,,,,,,,,,,,,,,,,,,,,,,,,,,121.2150505890022,121.2150505890022,121.2150505890022,121.2150505890022,121.2150505890022,121.2150505890022,121.2150505890022,121.2150505890022,121.2150505890022,121.2150505890022,a,1.9843097799966927,10,107,0,123.21717439300119,124.7189079039963,,,,,,,,,,,,,,,,,,,,,,,,,,,,,,,,,,,,,,,,,,,,,,,,,,,,,,,,,,,,,,,,31275,2022-10-26_10h25.26.703,vts_reward_expectancy_bt_OFFLINE,2022.2.4,59.848491866648565,
0,1,0,0,0,0,1,0,circle,hexagon,0,0,0,0,1,5,17,4,,,,,,,,,,,,,,,,,,,,,,,,,,,,,,,,,,,,,,,,125.21965430399723,125.21965430399723,125.21965430399723,125.21965430399723,125.21965430399723,125.21965430399723,125.21965430399723,125.21965430399723,125.21965430399723,125.21965430399723,a,1.1395961090020137,10,117,0,126.38764464700216,127.88916532300209,,,,,,,,,,,,,,,,,,,,,,,,,,,,,,,,,,,,,,,,,,,,,,,,,,,,,,,,,,,,,,,,31275,2022-10-26_10h25.26.703,vts_reward_expectancy_bt_OFFLINE,2022.2.4,59.848491866648565,
1,0,0,0,0,0,1,0,triangle,hexagon,0,0,0,0,1,6,18,1,,,,,,,,,,,,,,,,,,,,,,,,,,,,,,,,,,,,,,,,128.38978235400282,128.38978235400282,128.38978235400282,128.38978235400282,128.38978235400282,128.38978235400282,128.38978235400282,128.38978235400282,128.38978235400282,128.38978235400282,l,1.5296555729946704,1,118,0,129.94129640299798,131.4430263289978,,,,,,,,,,,,,,,,,,,,,,,,,,,,,,,,,,,,,,,,,,,,,,,,,,,,,,,,,,,,,,,,31275,2022-10-26_10h25.26.703,vts_reward_expectancy_bt_OFFLINE,2022.2.4,59.848491866648565,
0,1,0,0,0,0,0,1,circle,star,0,0,0,0,1,7,19,5,,,,,,,,,,,,,,,,,,,,,,,,,,,,,,,,,,,,,,,,131.94354149999708,131.94354149999708,131.94354149999708,131.94354149999708,131.94354149999708,131.94354149999708,131.94354149999708,131.94354149999708,131.94354149999708,131.94354149999708,l,1.08707745999709,10,128,0,133.0613873609982,134.5631244019969,,,,,,,,,,,,,,,,,,,,,,,,,,,,,,,,,,,,,,,,,,,,,,,,,,,,,,,,,,,,,,,,31275,2022-10-26_10h25.26.703,vts_reward_expectancy_bt_OFFLINE,2022.2.4,59.848491866648565,
0,0,1,0,0,0,0,1,hexagon,star,0,0,0,0,1,8,20,8,,,,,,,,,,,,,,,,,,,,,,,,,,,,,,,,,,,,,,,,135.06356901799882,135.06356901799882,135.06356901799882,135.06356901799882,135.06356901799882,135.06356901799882,135.06356901799882,135.06356901799882,135.06356901799882,135.06356901799882,a,2.4953724859951762,1,129,0,137.58295522799745,139.08489560399903,,,,,,,,,,,,,,,,,,,,,,,,,,,,,,,,,,,,,,,,,,,,,,,,,,,,,,,,,,,,,,,,31275,2022-10-26_10h25.26.703,vts_reward_expectancy_bt_OFFLINE,2022.2.4,59.848491866648565,
0,0,0,1,1,0,0,0,star,triangle,0,0,0,0,1,9,21,9,,,,,,,,,,,,,,,,,,,,,,,,,,,,,,,,,,,,,,,,139.58541266700195,139.58541266700195,139.58541266700195,139.58541266700195,139.58541266700195,139.58541266700195,139.58541266700195,139.58541266700195,139.58541266700195,139.58541266700195,a,0.566159729991341,10,139,0,140.16946754099627,141.67100726399804,,,,,,,,,,,,,,,,,,,,,,,,,,,,,,,,,,,,,,,,,,,,,,,,,,,,,,,,,,,,,,,,31275,2022-10-26_10h25.26.703,vts_reward_expectancy_bt_OFFLINE,2022.2.4,59.848491866648565,
0,0,0,1,0,1,0,0,star ,circle,0,0,0,0,1,10,22,10,,,,,,,,,,,,,,,,,,,,,,,,,,,,,,,,,,,,,,,,142.17162005499995,142.17162005499995,142.17162005499995,142.17162005499995,142.17162005499995,142.17162005499995,142.17162005499995,142.17162005499995,142.17162005499995,142.17162005499995,a,0.4841996469986043,10,149,0,142.67212357500102,144.17371754699707,,,,,,,,,,,,,,,,,,,,,,,,,,,,,,,,,,,,,,,,,,,,,,,,,,,,,,,,,,,,,,,,31275,2022-10-26_10h25.26.703,vts_reward_expectancy_bt_OFFLINE,2022.2.4,59.848491866648565,
0,0,1,0,1,0,0,0,hexagon,triangle,0,0,0,0,1,11,23,6,,,,,,,,,,,,,,,,,,,,,,,,,,,,,,,,,,,,,,,,144.67430186599813,144.67430186599813,144.67430186599813,144.67430186599813,144.67430186599813,144.67430186599813,144.67430186599813,144.67430186599813,144.67430186599813,144.67430186599813,l,0.8684495689958567,1,150,0,145.57526528499875,147.0770001139972,,,,,,,,,,,,,,,,,,,,,,,,,,,,,,,,,,,,,,,,,,,,,,,,,,,,,,,,,,,,,,,,31275,2022-10-26_10h25.26.703,vts_reward_expectancy_bt_OFFLINE,2022.2.4,59.848491866648565,
0,1,0,0,0,0,0,1,circle,star,0,0,0,0,2,0,24,5,,,,,,,,,,,,,,,,,,,,,,,,,,,,,,,,,,,,,,,,147.57763955200062,147.57763955200062,147.57763955200062,147.57763955200062,147.57763955200062,147.57763955200062,147.57763955200062,147.57763955200062,147.57763955200062,147.57763955200062,l,0.9255716659972677,1,151,0,148.52842516500095,150.03014433899807,,,,,,,,,,,,,,,,,,,,,,,,,,,,,,,,,,,,,,,,,,,,,,,,,,,,,,,,,,,,,,,,31275,2022-10-26_10h25.26.703,vts_reward_expectancy_bt_OFFLINE,2022.2.4,59.848491866648565,
0,0,0,1,1,0,0,0,star,triangle,0,0,0,0,2,1,25,9,,,,,,,,,,,,,,,,,,,,,,,,,,,,,,,,,,,,,,,,150.53081293300056,150.53081293300056,150.53081293300056,150.53081293300056,150.53081293300056,150.53081293300056,150.53081293300056,150.53081293300056,150.53081293300056,150.53081293300056,a,0.6280051490030019,1,152,0,151.18148507899605,152.6831899519966,,,,,,,,,,,,,,,,,,,,,,,,,,,,,,,,,,,,,,,,,,,,,,,,,,,,,,,,,,,,,,,,31275,2022-10-26_10h25.26.703,vts_reward_expectancy_bt_OFFLINE,2022.2.4,59.848491866648565,
1,0,0,0,0,0,1,0,triangle,hexagon,0,0,0,0,2,2,26,1,,,,,,,,,,,,,,,,,,,,,,,,,,,,,,,,,,,,,,,,153.18346590099827,153.18346590099827,153.18346590099827,153.18346590099827,153.18346590099827,153.18346590099827,153.18346590099827,153.18346590099827,153.18346590099827,153.18346590099827,a,1.9922948759995052,1,153,0,155.2027653289988,156.70420713399653,,,,,,,,,,,,,,,,,,,,,,,,,,,,,,,,,,,,,,,,,,,,,,,,,,,,,,,,,,,,,,,,31275,2022-10-26_10h25.26.703,vts_reward_expectancy_bt_OFFLINE,2022.2.4,59.848491866648565,
0,0,0,1,0,0,1,0,star,hexagon,0,0,0,0,2,3,27,11,,,,,,,,,,,,,,,,,,,,,,,,,,,,,,,,,,,,,,,,157.2047831960008,157.2047831960008,157.2047831960008,157.2047831960008,157.2047831960008,157.2047831960008,157.2047831960008,157.2047831960008,157.2047831960008,157.2047831960008,a,0.6505462019995321,1,154,0,157.87238269700174,159.37387604799733,,,,,,,,,,,,,,,,,,,,,,,,,,,,,,,,,,,,,,,,,,,,,,,,,,,,,,,,,,,,,,,,31275,2022-10-26_10h25.26.703,vts_reward_expectancy_bt_OFFLINE,2022.2.4,59.848491866648565,
1,0,0,0,0,0,0,1,triangle,star,0,0,0,0,2,4,28,2,,,,,,,,,,,,,,,,,,,,,,,,,,,,,,,,,,,,,,,,159.87450332799926,159.87450332799926,159.87450332799926,159.87450332799926,159.87450332799926,159.87450332799926,159.87450332799926,159.87450332799926,159.87450332799926,159.87450332799926,l,0.5810713579994626,10,164,0,160.47505394100153,161.9767611119969,,,,,,,,,,,,,,,,,,,,,,,,,,,,,,,,,,,,,,,,,,,,,,,,,,,,,,,,,,,,,,,,31275,2022-10-26_10h25.26.703,vts_reward_expectancy_bt_OFFLINE,2022.2.4,59.848491866648565,
0,0,0,1,0,1,0,0,star ,circle,0,0,0,0,2,5,29,10,,,,,,,,,,,,,,,,,,,,,,,,,,,,,,,,,,,,,,,,162.47737873299775,162.47737873299775,162.47737873299775,162.47737873299775,162.47737873299775,162.47737873299775,162.47737873299775,162.47737873299775,162.47737873299775,162.47737873299775,a,1.2016000699950382,10,174,0,163.7119533829973,165.21362292399863,,,,,,,,,,,,,,,,,,,,,,,,,,,,,,,,,,,,,,,,,,,,,,,,,,,,,,,,,,,,,,,,31275,2022-10-26_10h25.26.703,vts_reward_expectancy_bt_OFFLINE,2022.2.4,59.848491866648565,
0,0,1,0,1,0,0,0,hexagon,triangle,0,0,0,0,2,6,30,6,,,,,,,,,,,,,,,,,,,,,,,,,,,,,,,,,,,,,,,,165.7140467470017,165.7140467470017,165.7140467470017,165.7140467470017,165.7140467470017,165.7140467470017,165.7140467470017,165.7140467470017,165.7140467470017,165.7140467470017,l,1.7252165079989936,1,175,0,167.466011960998,168.96785255699797,,,,,,,,,,,,,,,,,,,,,,,,,,,,,,,,,,,,,,,,,,,,,,,,,,,,,,,,,,,,,,,,31275,2022-10-26_10h25.26.703,vts_reward_expectancy_bt_OFFLINE,2022.2.4,59.848491866648565,
0,0,1,0,0,1,0,0,hexagon,circle,0,0,0,0,2,7,31,7,,,,,,,,,,,,,,,,,,,,,,,,,,,,,,,,,,,,,,,,169.4684650449999,169.4684650449999,169.4684650449999,169.4684650449999,169.4684650449999,169.4684650449999,169.4684650449999,169.4684650449999,169.4684650449999,169.4684650449999,l,1.1944472390023293,10,185,0,170.68628049000108,172.18805100600002,,,,,,,,,,,,,,,,,,,,,,,,,,,,,,,,,,,,,,,,,,,,,,,,,,,,,,,,,,,,,,,,31275,2022-10-26_10h25.26.703,vts_reward_expectancy_bt_OFFLINE,2022.2.4,59.848491866648565,
1,0,0,0,0,1,0,0,triangle,circle,0,0,0,0,2,8,32,0,,,,,,,,,,,,,,,,,,,,,,,,,,,,,,,,,,,,,,,,172.68857856500108,172.68857856500108,172.68857856500108,172.68857856500108,172.68857856500108,172.68857856500108,172.68857856500108,172.68857856500108,172.68857856500108,172.68857856500108,l,1.5909118649942684,10,195,0,174.30702295099763,175.8085845559981,,,,,,,,,,,,,,,,,,,,,,,,,,,,,,,,,,,,,,,,,,,,,,,,,,,,,,,,,,,,,,,,31275,2022-10-26_10h25.26.703,vts_reward_expectancy_bt_OFFLINE,2022.2.4,59.848491866648565,
0,1,0,0,0,0,1,0,circle,hexagon,0,0,0,0,2,9,33,4,,,,,,,,,,,,,,,,,,,,,,,,,,,,,,,,,,,,,,,,176.30917855799635,176.30917855799635,176.30917855799635,176.30917855799635,176.30917855799635,176.30917855799635,176.30917855799635,176.30917855799635,176.30917855799635,176.30917855799635,a,2.058763192995684,10,205,0,178.39498955300223,179.89644548999786,,,,,,,,,,,,,,,,,,,,,,,,,,,,,,,,,,,,,,,,,,,,,,,,,,,,,,,,,,,,,,,,31275,2022-10-26_10h25.26.703,vts_reward_expectancy_bt_OFFLINE,2022.2.4,59.848491866648565,
0,0,1,0,0,0,0,1,hexagon,star,0,0,0,0,2,10,34,8,,,,,,,,,,,,,,,,,,,,,,,,,,,,,,,,,,,,,,,,180.39707027599798,180.39707027599798,180.39707027599798,180.39707027599798,180.39707027599798,180.39707027599798,180.39707027599798,180.39707027599798,180.39707027599798,180.39707027599798,l,0.8824495079970802,10,215,0,181.2979166139994,182.79970681599661,,,,,,,,,,,,,,,,,,,,,,,,,,,,,,,,,,,,,,,,,,,,,,,,,,,,,,,,,,,,,,,,31275,2022-10-26_10h25.26.703,vts_reward_expectancy_bt_OFFLINE,2022.2.4,59.848491866648565,
0,1,0,0,1,0,0,0,circle,triangle,0,0,0,0,2,11,35,3,,,,,,,,,,,,,,,,,,,,,,,,,,,,,,,,,,,,,,,,183.30025484100042,183.30025484100042,183.30025484100042,183.30025484100042,183.30025484100042,183.30025484100042,183.30025484100042,183.30025484100042,183.30025484100042,183.30025484100042,a,1.2187477990009938,1,216,0,184.55148241799907,186.05337191199942,,,,,,,,,,,,,,,,,,,,,,,,,,,,,,,,,,,,,,,,,,,,,,,,,,,,,,,,,,,,,,,,31275,2022-10-26_10h25.26.703,vts_reward_expectancy_bt_OFFLINE,2022.2.4,59.848491866648565,
1,0,0,0,0,0,0,1,triangle,star,0,0,0,0,3,0,36,2,,,,,,,,,,,,,,,,,,,,,,,,,,,,,,,,,,,,,,,,186.55377995599702,186.55377995599702,186.55377995599702,186.55377995599702,186.55377995599702,186.55377995599702,186.55377995599702,186.55377995599702,186.55377995599702,186.55377995599702,l,0.733451451997098,10,226,0,187.30455211499793,188.806279987999,,,,,,,,,,,,,,,,,,,,,,,,,,,,,,,,,,,,,,,,,,,,,,,,,,,,,,,,,,,,,,,,31275,2022-10-26_10h25.26.703,vts_reward_expectancy_bt_OFFLINE,2022.2.4,59.848491866648565,
0,1,0,0,1,0,0,0,circle,triangle,0,0,0,0,3,1,37,3,,,,,,,,,,,,,,,,,,,,,,,,,,,,,,,,,,,,,,,,189.30682390400034,189.30682390400034,189.30682390400034,189.30682390400034,189.30682390400034,189.30682390400034,189.30682390400034,189.30682390400034,189.30682390400034,189.30682390400034,l,1.5720905639973353,10,236,0,190.9087628260022,192.4102473410021,,,,,,,,,,,,,,,,,,,,,,,,,,,,,,,,,,,,,,,,,,,,,,,,,,,,,,,,,,,,,,,,31275,2022-10-26_10h25.26.703,vts_reward_expectancy_bt_OFFLINE,2022.2.4,59.848491866648565,
1,0,0,0,0,0,1,0,triangle,hexagon,0,0,0,0,3,2,38,1,,,,,,,,,,,,,,,,,,,,,,,,,,,,,,,,,,,,,,,,192.91084552699613,192.91084552699613,192.91084552699613,192.91084552699613,192.91084552699613,192.91084552699613,192.91084552699613,192.91084552699613,192.91084552699613,192.91084552699613,a,1.6642463030002546,1,237,0,194.596148644996,196.09780181999668,,,,,,,,,,,,,,,,,,,,,,,,,,,,,,,,,,,,,,,,,,,,,,,,,,,,,,,,,,,,,,,,31275,2022-10-26_10h25.26.703,vts_reward_expectancy_bt_OFFLINE,2022.2.4,59.848491866648565,
0,0,1,0,0,1,0,0,hexagon,circle,0,0,0,0,3,3,39,7,,,,,,,,,,,,,,,,,,,,,,,,,,,,,,,,,,,,,,,,196.59835717300302,196.59835717300302,196.59835717300302,196.59835717300302,196.59835717300302,196.59835717300302,196.59835717300302,196.59835717300302,196.59835717300302,196.59835717300302,l,0.9689353260037024,10,247,0,197.59939904000203,199.101087721996,,,,,,,,,,,,,,,,,,,,,,,,,,,,,,,,,,,,,,,,,,,,,,,,,,,,,,,,,,,,,,,,31275,2022-10-26_10h25.26.703,vts_reward_expectancy_bt_OFFLINE,2022.2.4,59.848491866648565,
0,1,0,0,0,0,0,1,circle,star,0,0,0,0,3,4,40,5,,,,,,,,,,,,,,,,,,,,,,,,,,,,,,,,,,,,,,,,199.60151182900154,199.60151182900154,199.60151182900154,199.60151182900154,199.60151182900154,199.60151182900154,199.60151182900154,199.60151182900154,199.60151182900154,199.60151182900154,l,1.0936463170000934,10,257,0,200.7196101879963,202.22124945100222,,,,,,,,,,,,,,,,,,,,,,,,,,,,,,,,,,,,,,,,,,,,,,,,,,,,,,,,,,,,,,,,31275,2022-10-26_10h25.26.703,vts_reward_expectancy_bt_OFFLINE,2022.2.4,59.848491866648565,
0,0,1,0,1,0,0,0,hexagon,triangle,0,0,0,0,3,5,41,6,,,,,,,,,,,,,,,,,,,,,,,,,,,,,,,,,,,,,,,,202.72177921699767,202.72177921699767,202.72177921699767,202.72177921699767,202.72177921699767,202.72177921699767,202.72177921699767,202.72177921699767,202.72177921699767,202.72177921699767,a,2.956669145998603,1,258,0,205.70817254800204,207.20998458199756,,,,,,,,,,,,,,,,,,,,,,,,,,,,,,,,,,,,,,,,,,,,,,,,,,,,,,,,,,,,,,,,31275,2022-10-26_10h25.26.703,vts_reward_expectancy_bt_OFFLINE,2022.2.4,59.848491866648565,
1,0,0,0,0,1,0,0,triangle,circle,0,0,0,0,3,6,42,0,,,,,,,,,,,,,,,,,,,,,,,,,,,,,,,,,,,,,,,,207.71045982299984,207.71045982299984,207.71045982299984,207.71045982299984,207.71045982299984,207.71045982299984,207.71045982299984,207.71045982299984,207.71045982299984,207.71045982299984,l,0.7284895169941592,10,268,0,208.46115634199668,209.9630321709992,,,,,,,,,,,,,,,,,,,,,,,,,,,,,,,,,,,,,,,,,,,,,,,,,,,,,,,,,,,,,,,,31275,2022-10-26_10h25.26.703,vts_reward_expectancy_bt_OFFLINE,2022.2.4,59.848491866648565,
0,0,0,1,1,0,0,0,star,triangle,0,0,0,0,3,7,43,9,,,,,,,,,,,,,,,,,,,,,,,,,,,,,,,,,,,,,,,,210.46336383699963,210.46336383699963,210.46336383699963,210.46336383699963,210.46336383699963,210.46336383699963,210.46336383699963,210.46336383699963,210.46336383699963,210.46336383699963,l,1.4549492749938508,1,269,0,211.94845879200147,213.45018249900022,,,,,,,,,,,,,,,,,,,,,,,,,,,,,,,,,,,,,,,,,,,,,,,,,,,,,,,,,,,,,,,,31275,2022-10-26_10h25.26.703,vts_reward_expectancy_bt_OFFLINE,2022.2.4,59.848491866648565,
0,0,1,0,0,0,0,1,hexagon,star,0,0,0,0,3,8,44,8,,,,,,,,,,,,,,,,,,,,,,,,,,,,,,,,,,,,,,,,213.9507811950025,213.9507811950025,213.9507811950025,213.9507811950025,213.9507811950025,213.9507811950025,213.9507811950025,213.9507811950025,213.9507811950025,213.9507811950025,l,0.6405568629998015,10,279,0,214.618358806998,216.11986897300085,,,,,,,,,,,,,,,,,,,,,,,,,,,,,,,,,,,,,,,,,,,,,,,,,,,,,,,,,,,,,,,,31275,2022-10-26_10h25.26.703,vts_reward_expectancy_bt_OFFLINE,2022.2.4,59.848491866648565,
0,0,0,1,0,1,0,0,star ,circle,0,0,0,0,3,9,45,10,,,,,,,,,,,,,,,,,,,,,,,,,,,,,,,,,,,,,,,,216.6205091360025,216.6205091360025,216.6205091360025,216.6205091360025,216.6205091360025,216.6205091360025,216.6205091360025,216.6205091360025,216.6205091360025,216.6205091360025,a,0.8995222960002138,10,289,0,217.53810326800158,219.03966544899595,,,,,,,,,,,,,,,,,,,,,,,,,,,,,,,,,,,,,,,,,,,,,,,,,,,,,,,,,,,,,,,,31275,2022-10-26_10h25.26.703,vts_reward_expectancy_bt_OFFLINE,2022.2.4,59.848491866648565,
0,1,0,0,0,0,1,0,circle,hexagon,0,0,0,0,3,10,46,4,,,,,,,,,,,,,,,,,,,,,,,,,,,,,,,,,,,,,,,,219.5401445259995,219.5401445259995,219.5401445259995,219.5401445259995,219.5401445259995,219.5401445259995,219.5401445259995,219.5401445259995,219.5401445259995,219.5401445259995,a,1.722836428998562,10,299,0,221.29224395300116,222.79386887299916,,,,,,,,,,,,,,,,,,,,,,,,,,,,,,,,,,,,,,,,,,,,,,,,,,,,,,,,,,,,,,,,31275,2022-10-26_10h25.26.703,vts_reward_expectancy_bt_OFFLINE,2022.2.4,59.848491866648565,
0,0,0,1,0,0,1,0,star,hexagon,0,0,0,0,3,11,47,11,,,,,,,,,,,,,,,,,,,,,,,,,,,,,,,,,,,,,,,,223.29444028899889,223.29444028899889,223.29444028899889,223.29444028899889,223.29444028899889,223.29444028899889,223.29444028899889,223.29444028899889,223.29444028899889,223.29444028899889,l,1.2880730480028433,1,300,0,224.61243655799626,226.11438252699736,,,,,,,,,,,,,,,,,,,,,,,,,,,,,,,,,,,,,,,,,,,,,,,,,,,,,,,,,,,,,,,,31275,2022-10-26_10h25.26.703,vts_reward_expectancy_bt_OFFLINE,2022.2.4,59.848491866648565,
0,0,1,0,1,0,0,0,hexagon,triangle,1,0,1,0,0,0,0,6,,,,,,,,,,,,,,,,,,,,,,,,,,,,,,,,,,,,,,,,231.96042532900174,231.96042532900174,231.96042532900174,231.96042532900174,231.96042532900174,231.96042532900174,231.96042532900174,231.96042532900174,231.96042532900174,231.96042532900174,a,2.29471802199987,1,301,1,234.27323707100004,235.77486954099732,,,,,,,,,,,,,,,,,,,,,,,,,,,,,,,,,,,,,,,,,,,,,,,,,,,,,,,,,,,,,,,,31275,2022-10-26_10h25.26.703,vts_reward_expectancy_bt_OFFLINE,2022.2.4,59.848491866648565,
1,0,0,0,0,0,0,1,triangle,star,1,0,1,0,0,1,1,2,,,,,,,,,,,,,,,,,,,,,,,,,,,,,,,,,,,,,,,,236.2754184939986,236.2754184939986,236.2754184939986,236.2754184939986,236.2754184939986,236.2754184939986,236.2754184939986,236.2754184939986,236.2754184939986,236.2754184939986,l,0.6679501499966136,10,311,1,236.97613708800054,238.477921357,,,,,,,,,,,,,,,,,,,,,,,,,,,,,,,,,,,,,,,,,,,,,,,,,,,,,,,,,,,,,,,,31275,2022-10-26_10h25.26.703,vts_reward_expectancy_bt_OFFLINE,2022.2.4,59.848491866648565,
0,0,1,0,0,0,0,1,hexagon,star,1,0,1,0,0,2,2,8,,,,,,,,,,,,,,,,,,,,,,,,,,,,,,,,,,,,,,,,238.97826248999627,238.97826248999627,238.97826248999627,238.97826248999627,238.97826248999627,238.97826248999627,238.97826248999627,238.97826248999627,238.97826248999627,238.97826248999627,l,0.7329919499970856,10,321,1,239.72934473799978,241.23081318500044,,,,,,,,,,,,,,,,,,,,,,,,,,,,,,,,,,,,,,,,,,,,,,,,,,,,,,,,,,,,,,,,31275,2022-10-26_10h25.26.703,vts_reward_expectancy_bt_OFFLINE,2022.2.4,59.848491866648565,
0,0,1,0,0,1,0,0,hexagon,circle,1,0,1,0,0,3,3,7,,,,,,,,,,,,,,,,,,,,,,,,,,,,,,,,,,,,,,,,241.73138549800206,241.73138549800206,241.73138549800206,241.73138549800206,241.73138549800206,241.73138549800206,241.73138549800206,241.73138549800206,241.73138549800206,241.73138549800206,l,1.4271134969967534,10,331,1,243.18281281000236,244.68464644400228,,,,,,,,,,,,,,,,,,,,,,,,,,,,,,,,,,,,,,,,,,,,,,,,,,,,,,,,,,,,,,,,31275,2022-10-26_10h25.26.703,vts_reward_expectancy_bt_OFFLINE,2022.2.4,59.848491866648565,
0,1,0,0,0,0,0,1,circle,star,1,0,1,0,0,4,4,5,,,,,,,,,,,,,,,,,,,,,,,,,,,,,,,,,,,,,,,,245.18518015299924,245.18518015299924,245.18518015299924,245.18518015299924,245.18518015299924,245.18518015299924,245.18518015299924,245.18518015299924,245.18518015299924,245.18518015299924,l,0.7826245629912592,10,341,1,245.98599571100203,247.4878048909959,,,,,,,,,,,,,,,,,,,,,,,,,,,,,,,,,,,,,,,,,,,,,,,,,,,,,,,,,,,,,,,,31275,2022-10-26_10h25.26.703,vts_reward_expectancy_bt_OFFLINE,2022.2.4,59.848491866648565,
0,1,0,0,0,0,1,0,circle,hexagon,1,0,1,0,0,5,5,4,,,,,,,,,,,,,,,,,,,,,,,,,,,,,,,,,,,,,,,,247.98830119099875,247.98830119099875,247.98830119099875,247.98830119099875,247.98830119099875,247.98830119099875,247.98830119099875,247.98830119099875,247.98830119099875,247.98830119099875,a,1.4513504569913493,1,342,1,249.4566216059975,250.95828944799723,,,,,,,,,,,,,,,,,,,,,,,,,,,,,,,,,,,,,,,,,,,,,,,,,,,,,,,,,,,,,,,,31275,2022-10-26_10h25.26.703,vts_reward_expectancy_bt_OFFLINE,2022.2.4,59.848491866648565,
1,0,0,0,0,1,0,0,triangle,circle,1,0,1,0,0,6,6,0,,,,,,,,,,,,,,,,,,,,,,,,,,,,,,,,,,,,,,,,251.4588663789982,251.4588663789982,251.4588663789982,251.4588663789982,251.4588663789982,251.4588663789982,251.4588663789982,251.4588663789982,251.4588663789982,251.4588663789982,l,1.3166864519953378,10,352,1,252.7935626030012,254.29533650499798,,,,,,,,,,,,,,,,,,,,,,,,,,,,,,,,,,,,,,,,,,,,,,,,,,,,,,,,,,,,,,,,31275,2022-10-26_10h25.26.703,vts_reward_expectancy_bt_OFFLINE,2022.2.4,59.848491866648565,
0,0,0,1,0,1,0,0,star ,circle,1,0,1,0,0,7,7,10,,,,,,,,,,,,,,,,,,,,,,,,,,,,,,,,,,,,,,,,254.7957496809977,254.7957496809977,254.7957496809977,254.7957496809977,254.7957496809977,254.7957496809977,254.7957496809977,254.7957496809977,254.7957496809977,254.7957496809977,a,0.7870981319938437,10,362,1,255.61333842000022,257.11502249300247,,,,,,,,,,,,,,,,,,,,,,,,,,,,,,,,,,,,,,,,,,,,,,,,,,,,,,,,,,,,,,,,31275,2022-10-26_10h25.26.703,vts_reward_expectancy_bt_OFFLINE,2022.2.4,59.848491866648565,
1,0,0,0,0,0,1,0,triangle,hexagon,1,0,1,0,0,8,8,1,,,,,,,,,,,,,,,,,,,,,,,,,,,,,,,,,,,,,,,,257.6156284230019,257.6156284230019,257.6156284230019,257.6156284230019,257.6156284230019,257.6156284230019,257.6156284230019,257.6156284230019,257.6156284230019,257.6156284230019,a,1.471599858996342,1,363,1,259.1168774140024,260.6186387330017,,,,,,,,,,,,,,,,,,,,,,,,,,,,,,,,,,,,,,,,,,,,,,,,,,,,,,,,,,,,,,,,31275,2022-10-26_10h25.26.703,vts_reward_expectancy_bt_OFFLINE,2022.2.4,59.848491866648565,
0,0,0,1,0,0,1,0,star,hexagon,1,0,1,0,0,9,9,11,,,,,,,,,,,,,,,,,,,,,,,,,,,,,,,,,,,,,,,,261.119128585,261.119128585,261.119128585,261.119128585,261.119128585,261.119128585,261.119128585,261.119128585,261.119128585,261.119128585,a,0.9840244619990699,10,373,1,262.1204424989992,263.6220852280021,,,,,,,,,,,,,,,,,,,,,,,,,,,,,,,,,,,,,,,,,,,,,,,,,,,,,,,,,,,,,,,,31275,2022-10-26_10h25.26.703,vts_reward_expectancy_bt_OFFLINE,2022.2.4,59.848491866648565,
0,1,0,0,1,0,0,0,circle,triangle,1,0,1,0,0,10,10,3,,,,,,,,,,,,,,,,,,,,,,,,,,,,,,,,,,,,,,,,264.122734978002,264.122734978002,264.122734978002,264.122734978002,264.122734978002,264.122734978002,264.122734978002,264.122734978002,264.122734978002,264.122734978002,a,0.5558914489956805,1,374,1,264.7065096009974,266.208408257,,,,,,,,,,,,,,,,,,,,,,,,,,,,,,,,,,,,,,,,,,,,,,,,,,,,,,,,,,,,,,,,31275,2022-10-26_10h25.26.703,vts_reward_expectancy_bt_OFFLINE,2022.2.4,59.848491866648565,
0,0,0,1,1,0,0,0,star,triangle,1,0,1,0,0,11,11,9,,,,,,,,,,,,,,,,,,,,,,,,,,,,,,,,,,,,,,,,266.7087631039976,266.7087631039976,266.7087631039976,266.7087631039976,266.7087631039976,266.7087631039976,266.7087631039976,266.7087631039976,266.7087631039976,266.7087631039976,a,0.6023575009967317,10,384,1,267.3430104979998,268.8445730509993,,,,,,,,,,,,,,,,,,,,,,,,,,,,,,,,,,,,,,,,,,,,,,,,,,,,,,,,,,,,,,,,31275,2022-10-26_10h25.26.703,vts_reward_expectancy_bt_OFFLINE,2022.2.4,59.848491866648565,
0,0,1,0,0,1,0,0,hexagon,circle,1,0,1,0,1,0,12,7,,,,,,,,,,,,,,,,,,,,,,,,,,,,,,,,,,,,,,,,269.3448747220027,269.3448747220027,269.3448747220027,269.3448747220027,269.3448747220027,269.3448747220027,269.3448747220027,269.3448747220027,269.3448747220027,269.3448747220027,l,1.4867418430003454,10,394,1,270.86347374899924,272.3650914269965,,,,,,,,,,,,,,,,,,,,,,,,,,,,,,,,,,,,,,,,,,,,,,,,,,,,,,,,,,,,,,,,31275,2022-10-26_10h25.26.703,vts_reward_expectancy_bt_OFFLINE,2022.2.4,59.848491866648565,
0,0,0,1,0,0,1,0,star,hexagon,1,0,1,0,1,1,13,11,,,,,,,,,,,,,,,,,,,,,,,,,,,,,,,,,,,,,,,,272.8656820690012,272.8656820690012,272.8656820690012,272.8656820690012,272.8656820690012,272.8656820690012,272.8656820690012,272.8656820690012,272.8656820690012,272.8656820690012,a,0.9247247259991127,10,404,1,273.81678503700095,275.3183350909967,,,,,,,,,,,,,,,,,,,,,,,,,,,,,,,,,,,,,,,,,,,,,,,,,,,,,,,,,,,,,,,,31275,2022-10-26_10h25.26.703,vts_reward_expectancy_bt_OFFLINE,2022.2.4,59.848491866648565,
1,0,0,0,0,0,1,0,triangle,hexagon,1,0,1,0,1,2,14,1,,,,,,,,,,,,,,,,,,,,,,,,,,,,,,,,,,,,,,,,275.8188840770017,275.8188840770017,275.8188840770017,275.8188840770017,275.8188840770017,275.8188840770017,275.8188840770017,275.8188840770017,275.8188840770017,275.8188840770017,l,1.2118331879973994,1,405,1,277.05351540799893,278.5552640899987,,,,,,,,,,,,,,,,,,,,,,,,,,,,,,,,,,,,,,,,,,,,,,,,,,,,,,,,,,,,,,,,31275,2022-10-26_10h25.26.703,vts_reward_expectancy_bt_OFFLINE,2022.2.4,59.848491866648565,
0,0,1,0,0,0,0,1,hexagon,star,1,0,1,0,1,3,15,8,,,,,,,,,,,,,,,,,,,,,,,,,,,,,,,,,,,,,,,,279.0559317419975,279.0559317419975,279.0559317419975,279.0559317419975,279.0559317419975,279.0559317419975,279.0559317419975,279.0559317419975,279.0559317419975,279.0559317419975,l,1.1352678420007578,10,415,1,280.22397624800215,281.7255481519969,,,,,,,,,,,,,,,,,,,,,,,,,,,,,,,,,,,,,,,,,,,,,,,,,,,,,,,,,,,,,,,,31275,2022-10-26_10h25.26.703,vts_reward_expectancy_bt_OFFLINE,2022.2.4,59.848491866648565,
1,0,0,0,0,0,0,1,triangle,star,1,0,1,0,1,4,16,2,,,,,,,,,,,,,,,,,,,,,,,,,,,,,,,,,,,,,,,,282.2260475899966,282.2260475899966,282.2260475899966,282.2260475899966,282.2260475899966,282.2260475899966,282.2260475899966,282.2260475899966,282.2260475899966,282.2260475899966,l,0.500944282997807,1,416,1,282.75987863499904,284.2616580019967,,,,,,,,,,,,,,,,,,,,,,,,,,,,,,,,,,,,,,,,,,,,,,,,,,,,,,,,,,,,,,,,31275,2022-10-26_10h25.26.703,vts_reward_expectancy_bt_OFFLINE,2022.2.4,59.848491866648565,
0,1,0,0,1,0,0,0,circle,triangle,1,0,1,0,1,5,17,3,,,,,,,,,,,,,,,,,,,,,,,,,,,,,,,,,,,,,,,,284.76227002200176,284.76227002200176,284.76227002200176,284.76227002200176,284.76227002200176,284.76227002200176,284.76227002200176,284.76227002200176,284.76227002200176,284.76227002200176,a,1.6443013429961866,10,426,1,286.43057659199985,287.9324730299995,,,,,,,,,,,,,,,,,,,,,,,,,,,,,,,,,,,,,,,,,,,,,,,,,,,,,,,,,,,,,,,,31275,2022-10-26_10h25.26.703,vts_reward_expectancy_bt_OFFLINE,2022.2.4,59.848491866648565,
1,0,0,0,0,1,0,0,triangle,circle,1,0,1,0,1,6,18,0,,,,,,,,,,,,,,,,,,,,,,,,,,,,,,,,,,,,,,,,288.43289748400275,288.43289748400275,288.43289748400275,288.43289748400275,288.43289748400275,288.43289748400275,288.43289748400275,288.43289748400275,288.43289748400275,288.43289748400275,l,2.037401265995868,10,436,1,290.50179251100053,292.0034723170029,,,,,,,,,,,,,,,,,,,,,,,,,,,,,,,,,,,,,,,,,,,,,,,,,,,,,,,,,,,,,,,,31275,2022-10-26_10h25.26.703,vts_reward_expectancy_bt_OFFLINE,2022.2.4,59.848491866648565,
0,0,0,1,1,0,0,0,star,triangle,1,0,1,0,1,7,19,9,,,,,,,,,,,,,,,,,,,,,,,,,,,,,,,,,,,,,,,,292.5039036859962,292.5039036859962,292.5039036859962,292.5039036859962,292.5039036859962,292.5039036859962,292.5039036859962,292.5039036859962,292.5039036859962,292.5039036859962,a,0.8156804789978196,1,437,1,293.33822714599955,294.839849901,,,,,,,,,,,,,,,,,,,,,,,,,,,,,,,,,,,,,,,,,,,,,,,,,,,,,,,,,,,,,,,,31275,2022-10-26_10h25.26.703,vts_reward_expectancy_bt_OFFLINE,2022.2.4,59.848491866648565,
0,0,0,1,0,1,0,0,star ,circle,1,0,1,0,1,8,20,10,,,,,,,,,,,,,,,,,,,,,,,,,,,,,,,,,,,,,,,,295.3406272229986,295.3406272229986,295.3406272229986,295.3406272229986,295.3406272229986,295.3406272229986,295.3406272229986,295.3406272229986,295.3406272229986,295.3406272229986,a,0.6668408199911937,1,438,1,296.0245284659977,297.52617551000003,,,,,,,,,,,,,,,,,,,,,,,,,,,,,,,,,,,,,,,,,,,,,,,,,,,,,,,,,,,,,,,,31275,2022-10-26_10h25.26.703,vts_reward_expectancy_bt_OFFLINE,2022.2.4,59.848491866648565,
0,0,1,0,1,0,0,0,hexagon,triangle,1,0,1,0,1,9,21,6,,,,,,,,,,,,,,,,,,,,,,,,,,,,,,,,,,,,,,,,298.02712304099987,298.02712304099987,298.02712304099987,298.02712304099987,298.02712304099987,298.02712304099987,298.02712304099987,298.02712304099987,298.02712304099987,298.02712304099987,a,2.2684913559933193,10,448,1,300.31275122400257,301.81440444500186,,,,,,,,,,,,,,,,,,,,,,,,,,,,,,,,,,,,,,,,,,,,,,,,,,,,,,,,,,,,,,,,31275,2022-10-26_10h25.26.703,vts_reward_expectancy_bt_OFFLINE,2022.2.4,59.848491866648565,
0,1,0,0,0,0,0,1,circle,star,1,0,1,0,1,10,22,5,,,,,,,,,,,,,,,,,,,,,,,,,,,,,,,,,,,,,,,,302.3148581420028,302.3148581420028,302.3148581420028,302.3148581420028,302.3148581420028,302.3148581420028,302.3148581420028,302.3148581420028,302.3148581420028,302.3148581420028,l,1.2205030010009068,1,449,1,303.56639983999776,305.06795726699784,,,,,,,,,,,,,,,,,,,,,,,,,,,,,,,,,,,,,,,,,,,,,,,,,,,,,,,,,,,,,,,,31275,2022-10-26_10h25.26.703,vts_reward_expectancy_bt_OFFLINE,2022.2.4,59.848491866648565,
0,1,0,0,0,0,1,0,circle,hexagon,1,0,1,0,1,11,23,4,,,,,,,,,,,,,,,,,,,,,,,,,,,,,,,,,,,,,,,,305.5684835369975,305.5684835369975,305.5684835369975,305.5684835369975,305.5684835369975,305.5684835369975,305.5684835369975,305.5684835369975,305.5684835369975,305.5684835369975,l,1.6946348339988617,1,450,1,307.28710163399955,308.7887374839993,,,,,,,,,,,,,,,,,,,,,,,,,,,,,,,,,,,,,,,,,,,,,,,,,,,,,,,,,,,,,,,,31275,2022-10-26_10h25.26.703,vts_reward_expectancy_bt_OFFLINE,2022.2.4,59.848491866648565,
0,0,0,1,1,0,0,0,star,triangle,1,0,1,0,2,0,24,9,,,,,,,,,,,,,,,,,,,,,,,,,,,,,,,,,,,,,,,,309.28924674299924,309.28924674299924,309.28924674299924,309.28924674299924,309.28924674299924,309.28924674299924,309.28924674299924,309.28924674299924,309.28924674299924,309.28924674299924,a,1.7587174209984369,10,460,1,311.074583241003,312.57624525100255,,,,,,,,,,,,,,,,,,,,,,,,,,,,,,,,,,,,,,,,,,,,,,,,,,,,,,,,,,,,,,,,31275,2022-10-26_10h25.26.703,vts_reward_expectancy_bt_OFFLINE,2022.2.4,59.848491866648565,
0,1,0,0,0,0,1,0,circle,hexagon,1,0,1,0,2,1,25,4,,,,,,,,,,,,,,,,,,,,,,,,,,,,,,,,,,,,,,,,313.07677872399654,313.07677872399654,313.07677872399654,313.07677872399654,313.07677872399654,313.07677872399654,313.07677872399654,313.07677872399654,313.07677872399654,313.07677872399654,a,1.106779171001108,1,461,1,314.21109229000285,315.7128160249995,,,,,,,,,,,,,,,,,,,,,,,,,,,,,,,,,,,,,,,,,,,,,,,,,,,,,,,,,,,,,,,,31275,2022-10-26_10h25.26.703,vts_reward_expectancy_bt_OFFLINE,2022.2.4,59.848491866648565,
0,0,0,1,0,0,1,0,star,hexagon,1,0,1,0,2,2,26,11,,,,,,,,,,,,,,,,,,,,,,,,,,,,,,,,,,,,,,,,316.2134724119969,316.2134724119969,316.2134724119969,316.2134724119969,316.2134724119969,316.2134724119969,316.2134724119969,316.2134724119969,316.2134724119969,316.2134724119969,a,0.5931027399929008,10,471,1,316.83076667899877,318.332326294003,,,,,,,,,,,,,,,,,,,,,,,,,,,,,,,,,,,,,,,,,,,,,,,,,,,,,,,,,,,,,,,,31275,2022-10-26_10h25.26.703,vts_reward_expectancy_bt_OFFLINE,2022.2.4,59.848491866648565,
1,0,0,0,0,0,0,1,triangle,star,1,0,1,0,2,3,27,2,,,,,,,,,,,,,,,,,,,,,,,,,,,,,,,,,,,,,,,,318.8330496119961,318.8330496119961,318.8330496119961,318.8330496119961,318.8330496119961,318.8330496119961,318.8330496119961,318.8330496119961,318.8330496119961,318.8330496119961,l,0.46975263899366837,1,472,1,319.33373718000075,320.83524293600203,,,,,,,,,,,,,,,,,,,,,,,,,,,,,,,,,,,,,,,,,,,,,,,,,,,,,,,,,,,,,,,,31275,2022-10-26_10h25.26.703,vts_reward_expectancy_bt_OFFLINE,2022.2.4,59.848491866648565,
1,0,0,0,0,0,1,0,triangle,hexagon,1,0,1,0,2,4,28,1,,,,,,,,,,,,,,,,,,,,,,,,,,,,,,,,,,,,,,,,321.33578417499666,321.33578417499666,321.33578417499666,321.33578417499666,321.33578417499666,321.33578417499666,321.33578417499666,321.33578417499666,321.33578417499666,321.33578417499666,l,1.6078779189992929,1,473,1,322.97107480400155,324.47253363500204,,,,,,,,,,,,,,,,,,,,,,,,,,,,,,,,,,,,,,,,,,,,,,,,,,,,,,,,,,,,,,,,31275,2022-10-26_10h25.26.703,vts_reward_expectancy_bt_OFFLINE,2022.2.4,59.848491866648565,
0,1,0,0,0,0,0,1,circle,star,1,0,1,0,2,5,29,5,,,,,,,,,,,,,,,,,,,,,,,,,,,,,,,,,,,,,,,,324.97331230500276,324.97331230500276,324.97331230500276,324.97331230500276,324.97331230500276,324.97331230500276,324.97331230500276,324.97331230500276,324.97331230500276,324.97331230500276,l,0.4905672219974804,10,483,1,325.49030231499637,326.9919994610027,,,,,,,,,,,,,,,,,,,,,,,,,,,,,,,,,,,,,,,,,,,,,,,,,,,,,,,,,,,,,,,,31275,2022-10-26_10h25.26.703,vts_reward_expectancy_bt_OFFLINE,2022.2.4,59.848491866648565,
0,0,0,1,0,1,0,0,star ,circle,1,0,1,0,2,6,30,10,,,,,,,,,,,,,,,,,,,,,,,,,,,,,,,,,,,,,,,,327.49252319899824,327.49252319899824,327.49252319899824,327.49252319899824,327.49252319899824,327.49252319899824,327.49252319899824,327.49252319899824,327.49252319899824,327.49252319899824,a,1.3066412539992598,10,493,1,328.8272652270025,330.3290506389967,,,,,,,,,,,,,,,,,,,,,,,,,,,,,,,,,,,,,,,,,,,,,,,,,,,,,,,,,,,,,,,,31275,2022-10-26_10h25.26.703,vts_reward_expectancy_bt_OFFLINE,2022.2.4,59.848491866648565,
0,1,0,0,1,0,0,0,circle,triangle,1,0,1,0,2,7,31,3,,,,,,,,,,,,,,,,,,,,,,,,,,,,,,,,,,,,,,,,330.82950371399784,330.82950371399784,330.82950371399784,330.82950371399784,330.82950371399784,330.82950371399784,330.82950371399784,330.82950371399784,330.82950371399784,330.82950371399784,a,2.153689683000266,10,503,1,333.01537989200006,334.51712093199603,,,,,,,,,,,,,,,,,,,,,,,,,,,,,,,,,,,,,,,,,,,,,,,,,,,,,,,,,,,,,,,,31275,2022-10-26_10h25.26.703,vts_reward_expectancy_bt_OFFLINE,2022.2.4,59.848491866648565,
0,0,1,0,0,1,0,0,hexagon,circle,1,0,1,0,2,8,32,7,,,,,,,,,,,,,,,,,,,,,,,,,,,,,,,,,,,,,,,,335.0176450950021,335.0176450950021,335.0176450950021,335.0176450950021,335.0176450950021,335.0176450950021,335.0176450950021,335.0176450950021,335.0176450950021,335.0176450950021,l,2.045222772998386,10,513,1,337.08648481099954,338.58759976500005,,,,,,,,,,,,,,,,,,,,,,,,,,,,,,,,,,,,,,,,,,,,,,,,,,,,,,,,,,,,,,,,31275,2022-10-26_10h25.26.703,vts_reward_expectancy_bt_OFFLINE,2022.2.4,59.848491866648565,
1,0,0,0,0,1,0,0,triangle,circle,1,0,1,0,2,9,33,0,,,,,,,,,,,,,,,,,,,,,,,,,,,,,,,,,,,,,,,,339.08876657200017,339.08876657200017,339.08876657200017,339.08876657200017,339.08876657200017,339.08876657200017,339.08876657200017,339.08876657200017,339.08876657200017,339.08876657200017,l,2.1910896669942304,10,523,1,341.30774495499645,342.80958737400215,,,,,,,,,,,,,,,,,,,,,,,,,,,,,,,,,,,,,,,,,,,,,,,,,,,,,,,,,,,,,,,,31275,2022-10-26_10h25.26.703,vts_reward_expectancy_bt_OFFLINE,2022.2.4,59.848491866648565,
0,0,1,0,1,0,0,0,hexagon,triangle,1,0,1,0,2,10,34,6,,,,,,,,,,,,,,,,,,,,,,,,,,,,,,,,,,,,,,,,343.31018388499797,343.31018388499797,343.31018388499797,343.31018388499797,343.31018388499797,343.31018388499797,343.31018388499797,343.31018388499797,343.31018388499797,343.31018388499797,l,1.808699869994598,1,524,1,345.1454536599995,346.646962988998,346.646962988998,,,,,,,,,,,,,,,,,,,,,,,,,,,,,,,,,,,,,,,,,,,,,,,,,,,,,,,,,,,,,,,31275,2022-10-26_10h25.26.703,vts_reward_expectancy_bt_OFFLINE,2022.2.4,59.848491866648565,
0,0,1,0,0,0,0,1,hexagon,star,1,0,1,0,2,11,35,8,,,,,,,,,,,,,,,,,,,,,,,,,,,,,,,,,,,,,,,,347.14764195899625,347.14764195899625,347.14764195899625,347.14764195899625,347.14764195899625,347.14764195899625,347.14764195899625,347.14764195899625,347.14764195899625,347.14764195899625,l,0.6112730859967996,10,534,1,347.7815620819965,349.2834582130017,,,,,,,,,,,,,,,,,,,,,,,,,,,,,,,,,,,,,,,,,,,,,,,,,,,,,,,,,,,,,,,,31275,2022-10-26_10h25.26.703,vts_reward_expectancy_bt_OFFLINE,2022.2.4,59.848491866648565,
0,0,1,0,0,0,0,1,hexagon,star,1,0,1,0,3,0,36,8,,,,,,,,,,,,,,,,,,,,,,,,,,,,,,,,,,,,,,,,349.7839480609982,349.7839480609982,349.7839480609982,349.7839480609982,349.7839480609982,349.7839480609982,349.7839480609982,349.7839480609982,349.7839480609982,349.7839480609982,l,0.8317221089964733,10,544,1,350.6347999089994,352.1365767519965,,,,,,,,,,,,,,,,,,,,,,,,,,,,,,,,,,,,,,,,,,,,,,,,,,,,,,,,,,,,,,,,31275,2022-10-26_10h25.26.703,vts_reward_expectancy_bt_OFFLINE,2022.2.4,59.848491866648565,
0,0,1,0,0,1,0,0,hexagon,circle,1,0,1,0,3,1,37,7,,,,,,,,,,,,,,,,,,,,,,,,,,,,,,,,,,,,,,,,352.6368806649989,352.6368806649989,352.6368806649989,352.6368806649989,352.6368806649989,352.6368806649989,352.6368806649989,352.6368806649989,352.6368806649989,352.6368806649989,l,1.7141924140014453,1,545,1,354.37224712900206,355.8738350249987,,,,,,,,,,,,,,,,,,,,,,,,,,,,,,,,,,,,,,,,,,,,,,,,,,,,,,,,,,,,,,,,31275,2022-10-26_10h25.26.703,vts_reward_expectancy_bt_OFFLINE,2022.2.4,59.848491866648565,
0,1,0,0,1,0,0,0,circle,triangle,1,0,1,0,3,2,38,3,,,,,,,,,,,,,,,,,,,,,,,,,,,,,,,,,,,,,,,,356.3745870759958,356.3745870759958,356.3745870759958,356.3745870759958,356.3745870759958,356.3745870759958,356.3745870759958,356.3745870759958,356.3745870759958,356.3745870759958,a,1.072584363995702,10,555,1,357.47570155299763,358.9774324980026,,,,,,,,,,,,,,,,,,,,,,,,,,,,,,,,,,,,,,,,,,,,,,,,,,,,,,,,,,,,,,,,31275,2022-10-26_10h25.26.703,vts_reward_expectancy_bt_OFFLINE,2022.2.4,59.848491866648565,
0,0,1,0,1,0,0,0,hexagon,triangle,1,0,1,0,3,3,39,6,,,,,,,,,,,,,,,,,,,,,,,,,,,,,,,,,,,,,,,,359.47817749699607,359.47817749699607,359.47817749699607,359.47817749699607,359.47817749699607,359.47817749699607,359.47817749699607,359.47817749699607,359.47817749699607,359.47817749699607,a,1.993149057001574,1,556,1,361.4967816089993,362.9984839929966,,,,,,,,,,,,,,,,,,,,,,,,,,,,,,,,,,,,,,,,,,,,,,,,,,,,,,,,,,,,,,,,31275,2022-10-26_10h25.26.703,vts_reward_expectancy_bt_OFFLINE,2022.2.4,59.848491866648565,
0,0,0,1,0,0,1,0,star,hexagon,1,0,1,0,3,4,40,11,,,,,,,,,,,,,,,,,,,,,,,,,,,,,,,,,,,,,,,,363.4989605949959,363.4989605949959,363.4989605949959,363.4989605949959,363.4989605949959,363.4989605949959,363.4989605949959,363.4989605949959,363.4989605949959,363.4989605949959,a,0.6760100149986101,10,566,1,364.1997398090025,365.70154733800155,,,,,,,,,,,,,,,,,,,,,,,,,,,,,,,,,,,,,,,,,,,,,,,,,,,,,,,,,,,,,,,,31275,2022-10-26_10h25.26.703,vts_reward_expectancy_bt_OFFLINE,2022.2.4,59.848491866648565,
0,1,0,0,0,0,1,0,circle,hexagon,1,0,1,0,3,5,41,4,,,,,,,,,,,,,,,,,,,,,,,,,,,,,,,,,,,,,,,,366.201957088997,366.201957088997,366.201957088997,366.201957088997,366.201957088997,366.201957088997,366.201957088997,366.201957088997,366.201957088997,366.201957088997,a,1.1496949950014823,1,567,1,367.37010342800204,368.87163367799803,,,,,,,,,,,,,,,,,,,,,,,,,,,,,,,,,,,,,,,,,,,,,,,,,,,,,,,,,,,,,,,,31275,2022-10-26_10h25.26.703,vts_reward_expectancy_bt_OFFLINE,2022.2.4,59.848491866648565,
0,0,0,1,0,1,0,0,star ,circle,1,0,1,0,3,6,42,10,,,,,,,,,,,,,,,,,,,,,,,,,,,,,,,,,,,,,,,,369.37229479300004,369.37229479300004,369.37229479300004,369.37229479300004,369.37229479300004,369.37229479300004,369.37229479300004,369.37229479300004,369.37229479300004,369.37229479300004,a,0.6181006589977187,1,568,1,370.02292473000125,371.5245925290001,,,,,,,,,,,,,,,,,,,,,,,,,,,,,,,,,,,,,,,,,,,,,,,,,,,,,,,,,,,,,,,,31275,2022-10-26_10h25.26.703,vts_reward_expectancy_bt_OFFLINE,2022.2.4,59.848491866648565,
0,0,0,1,1,0,0,0,star,triangle,1,0,1,0,3,7,43,9,,,,,,,,,,,,,,,,,,,,,,,,,,,,,,,,,,,,,,,,372.0250894119963,372.0250894119963,372.0250894119963,372.0250894119963,372.0250894119963,372.0250894119963,372.0250894119963,372.0250894119963,372.0250894119963,372.0250894119963,a,0.630219988997851,10,578,1,372.67594496400125,374.17740783299814,,,,,,,,,,,,,,,,,,,,,,,,,,,,,,,,,,,,,,,,,,,,,,,,,,,,,,,,,,,,,,,,31275,2022-10-26_10h25.26.703,vts_reward_expectancy_bt_OFFLINE,2022.2.4,59.848491866648565,
1,0,0,0,0,1,0,0,triangle,circle,1,0,1,0,3,8,44,0,,,,,,,,,,,,,,,,,,,,,,,,,,,,,,,,,,,,,,,,374.677837078998,374.677837078998,374.677837078998,374.677837078998,374.677837078998,374.677837078998,374.677837078998,374.677837078998,374.677837078998,374.677837078998,l,1.4014485379957478,10,588,1,376.0961778310011,377.5977610760019,,,,,,,,,,,,,,,,,,,,,,,,,,,,,,,,,,,,,,,,,,,,,,,,,,,,,,,,,,,,,,,,31275,2022-10-26_10h25.26.703,vts_reward_expectancy_bt_OFFLINE,2022.2.4,59.848491866648565,
1,0,0,0,0,0,0,1,triangle,star,1,0,1,0,3,9,45,2,,,,,,,,,,,,,,,,,,,,,,,,,,,,,,,,,,,,,,,,378.09820172400214,378.09820172400214,378.09820172400214,378.09820172400214,378.09820172400214,378.09820172400214,378.09820172400214,378.09820172400214,378.09820172400214,378.09820172400214,l,0.39628035399800865,10,598,1,378.5154967569979,380.0172343020022,,,,,,,,,,,,,,,,,,,,,,,,,,,,,,,,,,,,,,,,,,,,,,,,,,,,,,,,,,,,,,,,31275,2022-10-26_10h25.26.703,vts_reward_expectancy_bt_OFFLINE,2022.2.4,59.848491866648565,
1,0,0,0,0,0,1,0,triangle,hexagon,1,0,1,0,3,10,46,1,,,,,,,,,,,,,,,,,,,,,,,,,,,,,,,,,,,,,,,,380.5178492010018,380.5178492010018,380.5178492010018,380.5178492010018,380.5178492010018,380.5178492010018,380.5178492010018,380.5178492010018,380.5178492010018,380.5178492010018,l,1.7853237059971434,1,599,1,382.31966034099605,383.82143279499724,,,,,,,,,,,,,,,,,,,,,,,,,,,,,,,,,,,,,,,,,,,,,,,,,,,,,,,,,,,,,,,,31275,2022-10-26_10h25.26.703,vts_reward_expectancy_bt_OFFLINE,2022.2.4,59.848491866648565,
0,1,0,0,0,0,0,1,circle,star,1,0,1,0,3,11,47,5,,,,,,,,,,,,,,,,,,,,,,,,,,,,,,,,,,,,,,,,384.32197003500187,384.32197003500187,384.32197003500187,384.32197003500187,384.32197003500187,384.32197003500187,384.32197003500187,384.32197003500187,384.32197003500187,384.32197003500187,l,0.677138852995995,10,609,1,385.0226836899965,386.5242755579966,,,,,,,,,,,,,,,,,,,,,,,,,,,,,,,,,,,,,,,,,,,,,,,,,,,,,,,,,,,,,,,,31275,2022-10-26_10h25.26.703,vts_reward_expectancy_bt_OFFLINE,2022.2.4,59.848491866648565,
1,0,0,0,0,0,1,0,triangle,hexagon,2,0,2,0,0,0,0,1,,,,,,,,,,,,,,,,,,,,,,,,,,,,,,,,,,,,,,,,389.4690590570026,389.4690590570026,389.4690590570026,389.4690590570026,389.4690590570026,389.4690590570026,389.4690590570026,389.4690590570026,389.4690590570026,389.4690590570026,a,1.3785878729977412,1,610,2,390.87918454699684,392.38095933799923,,,,,,,,,,,,,,,,,,,,,,,,,,,,,,,,,,,,,,,,,,,,,,,,,,,,,,,,,,,,,,,,31275,2022-10-26_10h25.26.703,vts_reward_expectancy_bt_OFFLINE,2022.2.4,59.848491866648565,
0,1,0,0,0,0,0,1,circle,star,2,0,2,0,0,1,1,5,,,,,,,,,,,,,,,,,,,,,,,,,,,,,,,,,,,,,,,,392.88153786499606,392.88153786499606,392.88153786499606,392.88153786499606,392.88153786499606,392.88153786499606,392.88153786499606,392.88153786499606,392.88153786499606,392.88153786499606,l,0.4929757229911047,10,620,2,393.398795011999,394.90022979900095,,,,,,,,,,,,,,,,,,,,,,,,,,,,,,,,,,,,,,,,,,,,,,,,,,,,,,,,,,,,,,,,31275,2022-10-26_10h25.26.703,vts_reward_expectancy_bt_OFFLINE,2022.2.4,59.848491866648565,
0,1,0,0,1,0,0,0,circle,triangle,2,0,2,0,0,2,2,3,,,,,,,,,,,,,,,,,,,,,,,,,,,,,,,,,,,,,,,,395.40090281800076,395.40090281800076,395.40090281800076,395.40090281800076,395.40090281800076,395.40090281800076,395.40090281800076,395.40090281800076,395.40090281800076,395.40090281800076,a,2.486178736995498,10,630,2,397.90360207499907,399.40536095500283,,,,,,,,,,,,,,,,,,,,,,,,,,,,,,,,,,,,,,,,,,,,,,,,,,,,,,,,,,,,,,,,31275,2022-10-26_10h25.26.703,vts_reward_expectancy_bt_OFFLINE,2022.2.4,59.848491866648565,
0,1,0,0,0,0,1,0,circle,hexagon,2,0,2,0,0,3,3,4,,,,,,,,,,,,,,,,,,,,,,,,,,,,,,,,,,,,,,,,399.9059676760007,399.9059676760007,399.9059676760007,399.9059676760007,399.9059676760007,399.9059676760007,399.9059676760007,399.9059676760007,399.9059676760007,399.9059676760007,l,1.8446807359941886,10,640,2,401.77471129199694,403.2762742459963,,,,,,,,,,,,,,,,,,,,,,,,,,,,,,,,,,,,,,,,,,,,,,,,,,,,,,,,,,,,,,,,31275,2022-10-26_10h25.26.703,vts_reward_expectancy_bt_OFFLINE,2022.2.4,59.848491866648565,
0,0,1,0,0,0,0,1,hexagon,star,2,0,2,0,0,4,4,8,,,,,,,,,,,,,,,,,,,,,,,,,,,,,,,,,,,,,,,,403.77686434800125,403.77686434800125,403.77686434800125,403.77686434800125,403.77686434800125,403.77686434800125,403.77686434800125,403.77686434800125,403.77686434800125,403.77686434800125,l,0.558571994995873,10,650,2,404.3609524229978,405.8624689080025,,,,,,,,,,,,,,,,,,,,,,,,,,,,,,,,,,,,,,,,,,,,,,,,,,,,,,,,,,,,,,,,31275,2022-10-26_10h25.26.703,vts_reward_expectancy_bt_OFFLINE,2022.2.4,59.848491866648565,
0,0,0,1,1,0,0,0,star,triangle,2,0,2,0,0,5,5,9,,,,,,,,,,,,,,,,,,,,,,,,,,,,,,,,,,,,,,,,406.36307309100084,406.36307309100084,406.36307309100084,406.36307309100084,406.36307309100084,406.36307309100084,406.36307309100084,406.36307309100084,406.36307309100084,406.36307309100084,a,0.6757374629960395,10,660,2,407.06389941900125,408.5653700289986,,,,,,,,,,,,,,,,,,,,,,,,,,,,,,,,,,,,,,,,,,,,,,,,,,,,,,,,,,,,,,,,31275,2022-10-26_10h25.26.703,vts_reward_expectancy_bt_OFFLINE,2022.2.4,59.848491866648565,
0,0,0,1,0,0,1,0,star,hexagon,2,0,2,0,0,6,6,11,,,,,,,,,,,,,,,,,,,,,,,,,,,,,,,,,,,,,,,,409.06577958699927,409.06577958699927,409.06577958699927,409.06577958699927,409.06577958699927,409.06577958699927,409.06577958699927,409.06577958699927,409.06577958699927,409.06577958699927,a,0.5180748950006091,10,670,2,409.6166242649997,411.11822421800025,,,,,,,,,,,,,,,,,,,,,,,,,,,,,,,,,,,,,,,,,,,,,,,,,,,,,,,,,,,,,,,,31275,2022-10-26_10h25.26.703,vts_reward_expectancy_bt_OFFLINE,2022.2.4,59.848491866648565,
1,0,0,0,0,1,0,0,triangle,circle,2,0,2,0,0,7,7,0,,,,,,,,,,,,,,,,,,,,,,,,,,,,,,,,,,,,,,,,411.6187683550015,411.6187683550015,411.6187683550015,411.6187683550015,411.6187683550015,411.6187683550015,411.6187683550015,411.6187683550015,411.6187683550015,411.6187683550015,l,1.6288587769959122,1,671,2,413.2704351860011,414.77215803299623,,,,,,,,,,,,,,,,,,,,,,,,,,,,,,,,,,,,,,,,,,,,,,,,,,,,,,,,,,,,,,,,31275,2022-10-26_10h25.26.703,vts_reward_expectancy_bt_OFFLINE,2022.2.4,59.848491866648565,
1,0,0,0,0,0,0,1,triangle,star,2,0,2,0,0,8,8,2,,,,,,,,,,,,,,,,,,,,,,,,,,,,,,,,,,,,,,,,415.2727716980007,415.2727716980007,415.2727716980007,415.2727716980007,415.2727716980007,415.2727716980007,415.2727716980007,415.2727716980007,415.2727716980007,415.2727716980007,l,0.58314103900193,10,681,2,415.8736707979988,417.3751566889987,,,,,,,,,,,,,,,,,,,,,,,,,,,,,,,,,,,,,,,,,,,,,,,,,,,,,,,,,,,,,,,,31275,2022-10-26_10h25.26.703,vts_reward_expectancy_bt_OFFLINE,2022.2.4,59.848491866648565,
0,0,0,1,0,1,0,0,star ,circle,2,0,2,0,0,9,9,10,,,,,,,,,,,,,,,,,,,,,,,,,,,,,,,,,,,,,,,,417.8756810420018,417.8756810420018,417.8756810420018,417.8756810420018,417.8756810420018,417.8756810420018,417.8756810420018,417.8756810420018,417.8756810420018,417.8756810420018,a,0.44314931400003843,10,691,2,418.342945092998,419.8445010610012,,,,,,,,,,,,,,,,,,,,,,,,,,,,,,,,,,,,,,,,,,,,,,,,,,,,,,,,,,,,,,,,31275,2022-10-26_10h25.26.703,vts_reward_expectancy_bt_OFFLINE,2022.2.4,59.848491866648565,
0,0,1,0,1,0,0,0,hexagon,triangle,2,0,2,0,0,10,10,6,,,,,,,,,,,,,,,,,,,,,,,,,,,,,,,,,,,,,,,,420.3449307639967,420.3449307639967,420.3449307639967,420.3449307639967,420.3449307639967,420.3449307639967,420.3449307639967,420.3449307639967,420.3449307639967,420.3449307639967,a,2.2700503609958105,10,701,2,422.64756718999706,424.1493351800018,,,,,,,,,,,,,,,,,,,,,,,,,,,,,,,,,,,,,,,,,,,,,,,,,,,,,,,,,,,,,,,,31275,2022-10-26_10h25.26.703,vts_reward_expectancy_bt_OFFLINE,2022.2.4,59.848491866648565,
0,0,1,0,0,1,0,0,hexagon,circle,2,0,2,0,0,11,11,7,,,,,,,,,,,,,,,,,,,,,,,,,,,,,,,,,,,,,,,,424.649978731999,424.649978731999,424.649978731999,424.649978731999,424.649978731999,424.649978731999,424.649978731999,424.649978731999,424.649978731999,424.649978731999,a,2.1336152379954,1,702,2,426.8021745869992,428.3038983860024,,,,,,,,,,,,,,,,,,,,,,,,,,,,,,,,,,,,,,,,,,,,,,,,,,,,,,,,,,,,,,,,31275,2022-10-26_10h25.26.703,vts_reward_expectancy_bt_OFFLINE,2022.2.4,59.848491866648565,
0,0,0,1,0,0,1,0,star,hexagon,2,0,2,0,1,0,12,11,,,,,,,,,,,,,,,,,,,,,,,,,,,,,,,,,,,,,,,,428.80444743599946,428.80444743599946,428.80444743599946,428.80444743599946,428.80444743599946,428.80444743599946,428.80444743599946,428.80444743599946,428.80444743599946,428.80444743599946,a,0.47492238299309975,10,712,2,429.30487736099894,430.80653362799785,,,,,,,,,,,,,,,,,,,,,,,,,,,,,,,,,,,,,,,,,,,,,,,,,,,,,,,,,,,,,,,,31275,2022-10-26_10h25.26.703,vts_reward_expectancy_bt_OFFLINE,2022.2.4,59.848491866648565,
0,1,0,0,1,0,0,0,circle,triangle,2,0,2,0,1,1,13,3,,,,,,,,,,,,,,,,,,,,,,,,,,,,,,,,,,,,,,,,431.307096135999,431.307096135999,431.307096135999,431.307096135999,431.307096135999,431.307096135999,431.307096135999,431.307096135999,431.307096135999,431.307096135999,a,1.372158842998033,1,713,2,432.70868238899857,434.2101545889964,,,,,,,,,,,,,,,,,,,,,,,,,,,,,,,,,,,,,,,,,,,,,,,,,,,,,,,,,,,,,,,,31275,2022-10-26_10h25.26.703,vts_reward_expectancy_bt_OFFLINE,2022.2.4,59.848491866648565,
0,0,1,0,1,0,0,0,hexagon,triangle,2,0,2,0,1,2,14,6,,,,,,,,,,,,,,,,,,,,,,,,,,,,,,,,,,,,,,,,434.7108247779979,434.7108247779979,434.7108247779979,434.7108247779979,434.7108247779979,434.7108247779979,434.7108247779979,434.7108247779979,434.7108247779979,434.7108247779979,a,2.9443670280015795,1,714,2,437.68078435099596,439.18248203700205,,,,,,,,,,,,,,,,,,,,,,,,,,,,,,,,,,,,,,,,,,,,,,,,,,,,,,,,,,,,,,,,31275,2022-10-26_10h25.26.703,vts_reward_expectancy_bt_OFFLINE,2022.2.4,59.848491866648565,
1,0,0,0,0,0,1,0,triangle,hexagon,2,0,2,0,1,3,15,1,,,,,,,,,,,,,,,,,,,,,,,,,,,,,,,,,,,,,,,,439.6829846949986,439.6829846949986,439.6829846949986,439.6829846949986,439.6829846949986,439.6829846949986,439.6829846949986,439.6829846949986,439.6829846949986,439.6829846949986,a,1.2194678759915405,1,715,2,440.934437392003,442.4359917499969,,,,,,,,,,,,,,,,,,,,,,,,,,,,,,,,,,,,,,,,,,,,,,,,,,,,,,,,,,,,,,,,31275,2022-10-26_10h25.26.703,vts_reward_expectancy_bt_OFFLINE,2022.2.4,59.848491866648565,
0,0,0,1,0,1,0,0,star ,circle,2,0,2,0,1,4,16,10,,,,,,,,,,,,,,,,,,,,,,,,,,,,,,,,,,,,,,,,442.93658559100004,442.93658559100004,442.93658559100004,442.93658559100004,442.93658559100004,442.93658559100004,442.93658559100004,442.93658559100004,442.93658559100004,442.93658559100004,a,1.1271031910000602,1,716,2,444.0878753540019,445.5896056990023,,,,,,,,,,,,,,,,,,,,,,,,,,,,,,,,,,,,,,,,,,,,,,,,,,,,,,,,,,,,,,,,31275,2022-10-26_10h25.26.703,vts_reward_expectancy_bt_OFFLINE,2022.2.4,59.848491866648565,
0,1,0,0,0,0,1,0,circle,hexagon,2,0,2,0,1,5,17,4,,,,,,,,,,,,,,,,,,,,,,,,,,,,,,,,,,,,,,,,446.0900306409967,446.0900306409967,446.0900306409967,446.0900306409967,446.0900306409967,446.0900306409967,446.0900306409967,446.0900306409967,446.0900306409967,446.0900306409967,a,2.093527418001031,10,726,2,448.2090281810015,449.7108335219964,,,,,,,,,,,,,,,,,,,,,,,,,,,,,,,,,,,,,,,,,,,,,,,,,,,,,,,,,,,,,,,,31275,2022-10-26_10h25.26.703,vts_reward_expectancy_bt_OFFLINE,2022.2.4,59.848491866648565,
1,0,0,0,0,0,0,1,triangle,star,2,0,2,0,1,6,18,2,,,,,,,,,,,,,,,,,,,,,,,,,,,,,,,,,,,,,,,,450.2112337310027,450.2112337310027,450.2112337310027,450.2112337310027,450.2112337310027,450.2112337310027,450.2112337310027,450.2112337310027,450.2112337310027,450.2112337310027,l,0.3561342809989583,1,727,2,450.59512586399796,452.0967405949996,,,,,,,,,,,,,,,,,,,,,,,,,,,,,,,,,,,,,,,,,,,,,,,,,,,,,,,,,,,,,,,,31275,2022-10-26_10h25.26.703,vts_reward_expectancy_bt_OFFLINE,2022.2.4,59.848491866648565,
1,0,0,0,0,1,0,0,triangle,circle,2,0,2,0,1,7,19,0,,,,,,,,,,,,,,,,,,,,,,,,,,,,,,,,,,,,,,,,452.5972375199999,452.5972375199999,452.5972375199999,452.5972375199999,452.5972375199999,452.5972375199999,452.5972375199999,452.5972375199999,452.5972375199999,452.5972375199999,a,1.1779588400022476,10,737,2,453.79853825699684,455.3003289850021,,,,,,,,,,,,,,,,,,,,,,,,,,,,,,,,,,,,,,,,,,,,,,,,,,,,,,,,,,,,,,,,31275,2022-10-26_10h25.26.703,vts_reward_expectancy_bt_OFFLINE,2022.2.4,59.848491866648565,
0,1,0,0,0,0,0,1,circle,star,2,0,2,0,1,8,20,5,,,,,,,,,,,,,,,,,,,,,,,,,,,,,,,,,,,,,,,,455.8008607860029,455.8008607860029,455.8008607860029,455.8008607860029,455.8008607860029,455.8008607860029,455.8008607860029,455.8008607860029,455.8008607860029,455.8008607860029,l,0.6861994459977723,1,738,2,456.5182142699996,458.0200895529997,,,,,,,,,,,,,,,,,,,,,,,,,,,,,,,,,,,,,,,,,,,,,,,,,,,,,,,,,,,,,,,,31275,2022-10-26_10h25.26.703,vts_reward_expectancy_bt_OFFLINE,2022.2.4,59.848491866648565,
0,0,0,1,1,0,0,0,star,triangle,2,0,2,0,1,9,21,9,,,,,,,,,,,,,,,,,,,,,,,,,,,,,,,,,,,,,,,,458.5206275579985,458.5206275579985,458.5206275579985,458.5206275579985,458.5206275579985,458.5206275579985,458.5206275579985,458.5206275579985,458.5206275579985,458.5206275579985,a,0.5736759930005064,10,748,2,459.1211905320015,460.6229120049975,,,,,,,,,,,,,,,,,,,,,,,,,,,,,,,,,,,,,,,,,,,,,,,,,,,,,,,,,,,,,,,,31275,2022-10-26_10h25.26.703,vts_reward_expectancy_bt_OFFLINE,2022.2.4,59.848491866648565,
0,0,1,0,0,1,0,0,hexagon,circle,2,0,2,0,1,10,22,7,,,,,,,,,,,,,,,,,,,,,,,,,,,,,,,,,,,,,,,,461.12335766899923,461.12335766899923,461.12335766899923,461.12335766899923,461.12335766899923,461.12335766899923,461.12335766899923,461.12335766899923,461.12335766899923,461.12335766899923,a,2.3318844549939968,1,749,2,463.4760136019977,464.97753518699756,,,,,,,,,,,,,,,,,,,,,,,,,,,,,,,,,,,,,,,,,,,,,,,,,,,,,,,,,,,,,,,,31275,2022-10-26_10h25.26.703,vts_reward_expectancy_bt_OFFLINE,2022.2.4,59.848491866648565,
0,0,1,0,0,0,0,1,hexagon,star,2,0,2,0,1,11,23,8,,,,,,,,,,,,,,,,,,,,,,,,,,,,,,,,,,,,,,,,465.47817224499886,465.47817224499886,465.47817224499886,465.47817224499886,465.47817224499886,465.47817224499886,465.47817224499886,465.47817224499886,465.47817224499886,465.47817224499886,l,0.5763585489985417,10,759,2,466.0787135270002,467.5805618899976,,,,,,,,,,,,,,,,,,,,,,,,,,,,,,,,,,,,,,,,,,,,,,,,,,,,,,,,,,,,,,,,31275,2022-10-26_10h25.26.703,vts_reward_expectancy_bt_OFFLINE,2022.2.4,59.848491866648565,
0,0,0,1,0,1,0,0,star ,circle,2,0,2,0,2,0,24,10,,,,,,,,,,,,,,,,,,,,,,,,,,,,,,,,,,,,,,,,468.0809847790006,468.0809847790006,468.0809847790006,468.0809847790006,468.0809847790006,468.0809847790006,468.0809847790006,468.0809847790006,468.0809847790006,468.0809847790006,a,1.0861018989962758,10,769,2,469.19890163299715,470.70059878400207,,,,,,,,,,,,,,,,,,,,,,,,,,,,,,,,,,,,,,,,,,,,,,,,,,,,,,,,,,,,,,,,31275,2022-10-26_10h25.26.703,vts_reward_expectancy_bt_OFFLINE,2022.2.4,59.848491866648565,
0,0,1,0,0,1,0,0,hexagon,circle,2,0,2,0,2,1,25,7,,,,,,,,,,,,,,,,,,,,,,,,,,,,,,,,,,,,,,,,471.2010596649998,471.2010596649998,471.2010596649998,471.2010596649998,471.2010596649998,471.2010596649998,471.2010596649998,471.2010596649998,471.2010596649998,471.2010596649998,l,2.0696554579917574,10,779,2,473.3035882539989,474.8050744619977,,,,,,,,,,,,,,,,,,,,,,,,,,,,,,,,,,,,,,,,,,,,,,,,,,,,,,,,,,,,,,,,31275,2022-10-26_10h25.26.703,vts_reward_expectancy_bt_OFFLINE,2022.2.4,59.848491866648565,
0,1,0,0,0,0,0,1,circle,star,2,0,2,0,2,2,26,5,,,,,,,,,,,,,,,,,,,,,,,,,,,,,,,,,,,,,,,,475.30574189999606,475.30574189999606,475.30574189999606,475.30574189999606,475.30574189999606,475.30574189999606,475.30574189999606,475.30574189999606,475.30574189999606,475.30574189999606,a,2.125952727998083,10,789,2,477.4580770800021,478.95963401100016,,,,,,,,,,,,,,,,,,,,,,,,,,,,,,,,,,,,,,,,,,,,,,,,,,,,,,,,,,,,,,,,31275,2022-10-26_10h25.26.703,vts_reward_expectancy_bt_OFFLINE,2022.2.4,59.848491866648565,
1,0,0,0,0,0,0,1,triangle,star,2,0,2,0,2,3,27,2,,,,,,,,,,,,,,,,,,,,,,,,,,,,,,,,,,,,,,,,479.46029311099846,479.46029311099846,479.46029311099846,479.46029311099846,479.46029311099846,479.46029311099846,479.46029311099846,479.46029311099846,479.46029311099846,479.46029311099846,a,1.1540090869966662,1,790,2,480.64496193300147,482.1465391230013,,,,,,,,,,,,,,,,,,,,,,,,,,,,,,,,,,,,,,,,,,,,,,,,,,,,,,,,,,,,,,,,31275,2022-10-26_10h25.26.703,vts_reward_expectancy_bt_OFFLINE,2022.2.4,59.848491866648565,
1,0,0,0,0,1,0,0,triangle,circle,2,0,2,0,2,4,28,0,,,,,,,,,,,,,,,,,,,,,,,,,,,,,,,,,,,,,,,,482.647120515001,482.647120515001,482.647120515001,482.647120515001,482.647120515001,482.647120515001,482.647120515001,482.647120515001,482.647120515001,482.647120515001,l,2.8162716329970863,10,800,2,485.48348824999994,486.9853642050002,,,,,,,,,,,,,,,,,,,,,,,,,,,,,,,,,,,,,,,,,,,,,,,,,,,,,,,,,,,,,,,,31275,2022-10-26_10h25.26.703,vts_reward_expectancy_bt_OFFLINE,2022.2.4,59.848491866648565,
0,1,0,0,1,0,0,0,circle,triangle,2,0,2,0,2,5,29,3,,,,,,,,,,,,,,,,,,,,,,,,,,,,,,,,,,,,,,,,487.48565583000163,487.48565583000163,487.48565583000163,487.48565583000163,487.48565583000163,487.48565583000163,487.48565583000163,487.48565583000163,487.48565583000163,487.48565583000163,l,2.0260082780005177,1,801,2,489.5380023940015,491.0397277640004,,,,,,,,,,,,,,,,,,,,,,,,,,,,,,,,,,,,,,,,,,,,,,,,,,,,,,,,,,,,,,,,31275,2022-10-26_10h25.26.703,vts_reward_expectancy_bt_OFFLINE,2022.2.4,59.848491866648565,
0,1,0,0,0,0,1,0,circle,hexagon,2,0,2,0,2,6,30,4,,,,,,,,,,,,,,,,,,,,,,,,,,,,,,,,,,,,,,,,491.5402292619983,491.5402292619983,491.5402292619983,491.5402292619983,491.5402292619983,491.5402292619983,491.5402292619983,491.5402292619983,491.5402292619983,491.5402292619983,l,2.083463404997019,10,811,2,493.64253527799883,495.14428511400183,,,,,,,,,,,,,,,,,,,,,,,,,,,,,,,,,,,,,,,,,,,,,,,,,,,,,,,,,,,,,,,,31275,2022-10-26_10h25.26.703,vts_reward_expectancy_bt_OFFLINE,2022.2.4,59.848491866648565,
0,0,0,1,0,0,1,0,star,hexagon,2,0,2,0,2,7,31,11,,,,,,,,,,,,,,,,,,,,,,,,,,,,,,,,,,,,,,,,495.6447637149977,495.6447637149977,495.6447637149977,495.6447637149977,495.6447637149977,495.6447637149977,495.6447637149977,495.6447637149977,495.6447637149977,495.6447637149977,a,1.897965183998167,1,812,2,497.5635413609998,499.0652147820001,,,,,,,,,,,,,,,,,,,,,,,,,,,,,,,,,,,,,,,,,,,,,,,,,,,,,,,,,,,,,,,,31275,2022-10-26_10h25.26.703,vts_reward_expectancy_bt_OFFLINE,2022.2.4,59.848491866648565,
0,0,1,0,0,0,0,1,hexagon,star,2,0,2,0,2,8,32,8,,,,,,,,,,,,,,,,,,,,,,,,,,,,,,,,,,,,,,,,499.5655986089987,499.5655986089987,499.5655986089987,499.5655986089987,499.5655986089987,499.5655986089987,499.5655986089987,499.5655986089987,499.5655986089987,499.5655986089987,l,1.1458111589963664,10,822,2,500.7336600109993,502.2353510649991,,,,,,,,,,,,,,,,,,,,,,,,,,,,,,,,,,,,,,,,,,,,,,,,,,,,,,,,,,,,,,,,31275,2022-10-26_10h25.26.703,vts_reward_expectancy_bt_OFFLINE,2022.2.4,59.848491866648565,
1,0,0,0,0,0,1,0,triangle,hexagon,2,0,2,0,2,9,33,1,,,,,,,,,,,,,,,,,,,,,,,,,,,,,,,,,,,,,,,,502.73588778299745,502.73588778299745,502.73588778299745,502.73588778299745,502.73588778299745,502.73588778299745,502.73588778299745,502.73588778299745,502.73588778299745,502.73588778299745,l,3.919685702996503,1,823,2,506.67364441799873,508.175356851003,,,,,,,,,,,,,,,,,,,,,,,,,,,,,,,,,,,,,,,,,,,,,,,,,,,,,,,,,,,,,,,,31275,2022-10-26_10h25.26.703,vts_reward_expectancy_bt_OFFLINE,2022.2.4,59.848491866648565,
0,0,0,1,1,0,0,0,star,triangle,2,0,2,0,2,10,34,9,,,,,,,,,,,,,,,,,,,,,,,,,,,,,,,,,,,,,,,,508.67578731899994,508.67578731899994,508.67578731899994,508.67578731899994,508.67578731899994,508.67578731899994,508.67578731899994,508.67578731899994,508.67578731899994,508.67578731899994,l,2.8427681909961393,1,824,2,511.54563825300283,513.0472595539977,,,,,,,,,,,,,,,,,,,,,,,,,,,,,,,,,,,,,,,,,,,,,,,,,,,,,,,,,,,,,,,,31275,2022-10-26_10h25.26.703,vts_reward_expectancy_bt_OFFLINE,2022.2.4,59.848491866648565,
0,0,1,0,1,0,0,0,hexagon,triangle,2,0,2,0,2,11,35,6,,,,,,,,,,,,,,,,,,,,,,,,,,,,,,,,,,,,,,,,513.5479654739975,513.5479654739975,513.5479654739975,513.5479654739975,513.5479654739975,513.5479654739975,513.5479654739975,513.5479654739975,513.5479654739975,513.5479654739975,a,1.723377228998288,1,825,2,515.2997828119987,516.8015853949983,,,,,,,,,,,,,,,,,,,,,,,,,,,,,,,,,,,,,,,,,,,,,,,,,,,,,,,,,,,,,,,,31275,2022-10-26_10h25.26.703,vts_reward_expectancy_bt_OFFLINE,2022.2.4,59.848491866648565,
0,0,0,1,1,0,0,0,star,triangle,2,0,2,0,3,0,36,9,,,,,,,,,,,,,,,,,,,,,,,,,,,,,,,,,,,,,,,,517.3019262079979,517.3019262079979,517.3019262079979,517.3019262079979,517.3019262079979,517.3019262079979,517.3019262079979,517.3019262079979,517.3019262079979,517.3019262079979,a,0.6015465729942662,10,835,2,517.9361846169995,519.4379282149966,,,,,,,,,,,,,,,,,,,,,,,,,,,,,,,,,,,,,,,,,,,,,,,,,,,,,,,,,,,,,,,,31275,2022-10-26_10h25.26.703,vts_reward_expectancy_bt_OFFLINE,2022.2.4,59.848491866648565,
0,0,0,1,0,0,1,0,star,hexagon,2,0,2,0,3,1,37,11,,,,,,,,,,,,,,,,,,,,,,,,,,,,,,,,,,,,,,,,519.938387602997,519.938387602997,519.938387602997,519.938387602997,519.938387602997,519.938387602997,519.938387602997,519.938387602997,519.938387602997,519.938387602997,l,1.6208222529967315,1,836,2,521.5901179790017,523.0918915930015,,,,,,,,,,,,,,,,,,,,,,,,,,,,,,,,,,,,,,,,,,,,,,,,,,,,,,,,,,,,,,,,31275,2022-10-26_10h25.26.703,vts_reward_expectancy_bt_OFFLINE,2022.2.4,59.848491866648565,
1,0,0,0,0,0,1,0,triangle,hexagon,2,0,2,0,3,2,38,1,,,,,,,,,,,,,,,,,,,,,,,,,,,,,,,,,,,,,,,,523.5922782999987,523.5922782999987,523.5922782999987,523.5922782999987,523.5922782999987,523.5922782999987,523.5922782999987,523.5922782999987,523.5922782999987,523.5922782999987,l,1.5186378750004224,10,846,2,525.1272857660006,526.6289463069988,,,,,,,,,,,,,,,,,,,,,,,,,,,,,,,,,,,,,,,,,,,,,,,,,,,,,,,,,,,,,,,,31275,2022-10-26_10h25.26.703,vts_reward_expectancy_bt_OFFLINE,2022.2.4,59.848491866648565,
0,0,1,0,1,0,0,0,hexagon,triangle,2,0,2,0,3,3,39,6,,,,,,,,,,,,,,,,,,,,,,,,,,,,,,,,,,,,,,,,527.1295074549998,527.1295074549998,527.1295074549998,527.1295074549998,527.1295074549998,527.1295074549998,527.1295074549998,527.1295074549998,527.1295074549998,527.1295074549998,l,2.0300361039990094,1,847,2,529.1818926139968,530.683469388001,,,,,,,,,,,,,,,,,,,,,,,,,,,,,,,,,,,,,,,,,,,,,,,,,,,,,,,,,,,,,,,,31275,2022-10-26_10h25.26.703,vts_reward_expectancy_bt_OFFLINE,2022.2.4,59.848491866648565,
1,0,0,0,0,0,0,1,triangle,star,2,0,2,0,3,4,40,2,,,,,,,,,,,,,,,,,,,,,,,,,,,,,,,,,,,,,,,,531.1839791660022,531.1839791660022,531.1839791660022,531.1839791660022,531.1839791660022,531.1839791660022,531.1839791660022,531.1839791660022,531.1839791660022,531.1839791660022,l,1.6387318749984843,1,848,2,532.8524013869974,534.3541248010006,,,,,,,,,,,,,,,,,,,,,,,,,,,,,,,,,,,,,,,,,,,,,,,,,,,,,,,,,,,,,,,,31275,2022-10-26_10h25.26.703,vts_reward_expectancy_bt_OFFLINE,2022.2.4,59.848491866648565,
0,1,0,0,1,0,0,0,circle,triangle,2,0,2,0,3,5,41,3,,,,,,,,,,,,,,,,,,,,,,,,,,,,,,,,,,,,,,,,534.8547947089974,534.8547947089974,534.8547947089974,534.8547947089974,534.8547947089974,534.8547947089974,534.8547947089974,534.8547947089974,534.8547947089974,534.8547947089974,a,1.2965395360006369,10,858,2,536.1728087789961,537.674479315996,,,,,,,,,,,,,,,,,,,,,,,,,,,,,,,,,,,,,,,,,,,,,,,,,,,,,,,,,,,,,,,,31275,2022-10-26_10h25.26.703,vts_reward_expectancy_bt_OFFLINE,2022.2.4,59.848491866648565,
0,0,1,0,0,1,0,0,hexagon,circle,2,0,2,0,3,6,42,7,,,,,,,,,,,,,,,,,,,,,,,,,,,,,,,,,,,,,,,,538.1750954460003,538.1750954460003,538.1750954460003,538.1750954460003,538.1750954460003,538.1750954460003,538.1750954460003,538.1750954460003,538.1750954460003,538.1750954460003,a,2.3592788119931356,1,859,2,540.5609782249958,542.0627895229991,,,,,,,,,,,,,,,,,,,,,,,,,,,,,,,,,,,,,,,,,,,,,,,,,,,,,,,,,,,,,,,,31275,2022-10-26_10h25.26.703,vts_reward_expectancy_bt_OFFLINE,2022.2.4,59.848491866648565,
0,0,1,0,0,0,0,1,hexagon,star,2,0,2,0,3,7,43,8,,,,,,,,,,,,,,,,,,,,,,,,,,,,,,,,,,,,,,,,542.5631514650013,542.5631514650013,542.5631514650013,542.5631514650013,542.5631514650013,542.5631514650013,542.5631514650013,542.5631514650013,542.5631514650013,542.5631514650013,l,2.2923709899987443,10,869,2,544.8823988009972,546.3840774269993,,,,,,,,,,,,,,,,,,,,,,,,,,,,,,,,,,,,,,,,,,,,,,,,,,,,,,,,,,,,,,,,31275,2022-10-26_10h25.26.703,vts_reward_expectancy_bt_OFFLINE,2022.2.4,59.848491866648565,
0,1,0,0,0,0,1,0,circle,hexagon,2,0,2,0,3,8,44,4,,,,,,,,,,,,,,,,,,,,,,,,,,,,,,,,,,,,,,,,546.8846215869999,546.8846215869999,546.8846215869999,546.8846215869999,546.8846215869999,546.8846215869999,546.8846215869999,546.8846215869999,546.8846215869999,546.8846215869999,a,1.3137714689946733,10,879,2,548.2195552869962,549.7212380959973,,,,,,,,,,,,,,,,,,,,,,,,,,,,,,,,,,,,,,,,,,,,,,,,,,,,,,,,,,,,,,,,31275,2022-10-26_10h25.26.703,vts_reward_expectancy_bt_OFFLINE,2022.2.4,59.848491866648565,
0,0,0,1,0,1,0,0,star ,circle,2,0,2,0,3,9,45,10,,,,,,,,,,,,,,,,,,,,,,,,,,,,,,,,,,,,,,,,550.2217809180001,550.2217809180001,550.2217809180001,550.2217809180001,550.2217809180001,550.2217809180001,550.2217809180001,550.2217809180001,550.2217809180001,550.2217809180001,l,2.488615154994477,10,889,2,552.7412633580025,554.2428120799959,,,,,,,,,,,,,,,,,,,,,,,,,,,,,,,,,,,,,,,,,,,,,,,,,,,,,,,,,,,,,,,,31275,2022-10-26_10h25.26.703,vts_reward_expectancy_bt_OFFLINE,2022.2.4,59.848491866648565,
1,0,0,0,0,1,0,0,triangle,circle,2,0,2,0,3,10,46,0,,,,,,,,,,,,,,,,,,,,,,,,,,,,,,,,,,,,,,,,554.7433200439991,554.7433200439991,554.7433200439991,554.7433200439991,554.7433200439991,554.7433200439991,554.7433200439991,554.7433200439991,554.7433200439991,554.7433200439991,l,1.2554978549960651,10,899,2,556.0281782730017,557.529728675996,,,,,,,,,,,,,,,,,,,,,,,,,,,,,,,,,,,,,,,,,,,,,,,,,,,,,,,,,,,,,,,,31275,2022-10-26_10h25.26.703,vts_reward_expectancy_bt_OFFLINE,2022.2.4,59.848491866648565,
0,1,0,0,0,0,0,1,circle,star,2,0,2,0,3,11,47,5,,,,,,,,,,,,,,,,,,,,,,,,,,,,,,,,,,,,,,,,558.0302231949972,558.0302231949972,558.0302231949972,558.0302231949972,558.0302231949972,558.0302231949972,558.0302231949972,558.0302231949972,558.0302231949972,558.0302231949972,l,1.4417504550001468,1,900,2,559.4985717480013,561.0002773369997,,,,,,,,,,,,,,,,,,,,,,,,,,,,,,,,,,,,,,,,,,,,,,,,,,,,,,,,,,,,,,,,31275,2022-10-26_10h25.26.703,vts_reward_expectancy_bt_OFFLINE,2022.2.4,59.848491866648565,
,,,,,,,,,,,,,,,,,,0,0,0,0,0,0,0,0,,,,,,,,,,,,,,,,,,,,,,,,,,,,,,,,,,,,,,,,,,,,,,,,596.8398302869973,,H,174,circle,0.002236859996628482,591.9333099009964,593.4358902320018,593.4358902320018,593.4358902320018,1,0,d,1.8844492530042771,0,595.3390779460024,,,,,,,,,,,,,,,,,,,,,,,,,,,,,,,,,,,,,,,,,,,,,,,,,31275,2022-10-26_10h25.26.703,vts_reward_expectancy_bt_OFFLINE,2022.2.4,59.848491866648565,
,,,,,,,,,,,,,,,,,,0,0,0,0,1,0,1,0,,,,,,,,,,,,,,,,,,,,,,,,,,,,,,,,,,,,,,,,,,,,,,,,601.9954762810012,,S,146,hexagon,0.0013020810001762584,597.821470705996,599.3259599309968,599.3259599309968,599.3259599309968,1,0,f,1.1367403009935515,0,600.493938175001,,,,,,,,,,,,,,,,,,,,,,,,,,,,,,,,,,,,,,,,,,,,,,,,,31275,2022-10-26_10h25.26.703,vts_reward_expectancy_bt_OFFLINE,2022.2.4,59.848491866648565,
,,,,,,,,,,,,,,,,,,0,0,0,0,2,0,2,0,,,,,,,,,,,,,,,,,,,,,,,,,,,,,,,,,,,,,,,,,,,,,,,,607.0511375130009,,B,160,triangle,0.001682255999185145,602.9774062630022,604.4815321189963,604.4815321189963,604.4815321189963,1,0,d,1.0457995579927228,0,605.549303191001,,,,,,,,,,,,,,,,,,,,,,,,,,,,,,,,,,,,,,,,,,,,,,,,,31275,2022-10-26_10h25.26.703,vts_reward_expectancy_bt_OFFLINE,2022.2.4,59.848491866648565,
,,,,,,,,,,,,,,,,,,0,0,0,0,3,0,3,0,,,,,,,,,,,,,,,,,,,,,,,,,,,,,,,,,,,,,,,,,,,,,,,,612.2399575599993,,W,139,star,0.001671115001954604,608.0338135939965,609.5371268949966,609.5371268949966,609.5371268949966,1,0,f,1.182391253998503,0,610.7383320840017,,,,,,,,,,,,,,,,,,,,,,,,,,,,,,,,,,,,,,,,,,,,,,,,,31275,2022-10-26_10h25.26.703,vts_reward_expectancy_bt_OFFLINE,2022.2.4,59.848491866648565,
,,,,,,,,,,,,,,,,,,0,0,0,0,4,0,4,0,,,,,,,,,,,,,,,,,,,,,,,,,,,,,,,,,,,,,,,,,,,,,,,,616.9452146420008,,U,125,circle,0.0018822950005414896,613.2223276180011,614.7261875589975,614.7261875589975,614.7261875589975,1,0,f,0.6896262629961711,0,615.4436330309982,,,,,,,,,,,,,,,,,,,,,,,,,,,,,,,,,,,,,,,,,,,,,,,,,31275,2022-10-26_10h25.26.703,vts_reward_expectancy_bt_OFFLINE,2022.2.4,59.848491866648565,
,,,,,,,,,,,,,,,,,,0,0,0,0,5,0,5,0,,,,,,,,,,,,,,,,,,,,,,,,,,,,,,,,,,,,,,,,,,,,,,,,622.2010934229984,,Y,181,hexagon,0.001911981002194807,617.9273795869958,619.4315225980026,619.4315225980026,619.4315225980026,1,0,f,1.2396997579999152,0,620.6995647630029,,,,,,,,,,,,,,,,,,,,,,,,,,,,,,,,,,,,,,,,,,,,,,,,,31275,2022-10-26_10h25.26.703,vts_reward_expectancy_bt_OFFLINE,2022.2.4,59.848491866648565,
,,,,,,,,,,,,,,,,,,0,0,0,0,6,0,6,0,,,,,,,,,,,,,,,,,,,,,,,,,,,,,,,,,,,,,,,,,,,,,,,,627.9573519440019,,F,167,triangle,0.0017350389971397817,623.1814867310022,624.6870987669972,624.6870987669972,624.6870987669972,0,0,f,1.7523546930024168,0,626.455918671003,,,,,,,,,,,,,,,,,,,,,,,,,,,,,,,,,,,,,,,,,,,,,,,,,31275,2022-10-26_10h25.26.703,vts_reward_expectancy_bt_OFFLINE,2022.2.4,59.848491866648565,
,,,,,,,,,,,,,,,,,,0,0,0,0,7,0,7,0,,,,,,,,,,,,,,,,,,,,,,,,,,,,,,,,,,,,,,,,,,,,,,,,632.7793130290011,,D,132,star,0.0011003069957951084,628.9385136920027,630.4433604290025,630.4433604290025,630.4433604290025,1,1,d,0.8034886969981017,0,631.2777658510022,,,,,,,,,,,,,,,,,,,,,,,,,,,,,,,,,,,,,,,,,,,,,,,,,31275,2022-10-26_10h25.26.703,vts_reward_expectancy_bt_OFFLINE,2022.2.4,59.848491866648565,
,,,,,,,,,,,,,,,,,,0,0,0,0,8,0,8,0,,,,,,,,,,,,,,,,,,,,,,,,,,,,,,,,,,,,,,,,,,,,,,,,638.7860622139997,,H,174,triangle,0.0014885339987813495,633.7578344779977,635.2656029200007,635.2656029200007,635.2656029200007,1,0,d,1.997553989996959,0,637.2845302170026,,,,,,,,,,,,,,,,,,,,,,,,,,,,,,,,,,,,,,,,,,,,,,,,,31275,2022-10-26_10h25.26.703,vts_reward_expectancy_bt_OFFLINE,2022.2.4,59.848491866648565,
,,,,,,,,,,,,,,,,,,0,0,0,0,9,0,9,0,,,,,,,,,,,,,,,,,,,,,,,,,,,,,,,,,,,,,,,,,,,,,,,,643.441095381997,,S,146,circle,0.0017852309974841774,639.7658165289977,641.271905429996,641.271905429996,641.271905429996,1,0,f,0.6474134419986513,0,641.939833122,,,,,,,,,,,,,,,,,,,,,,,,,,,,,,,,,,,,,,,,,,,,,,,,,31275,2022-10-26_10h25.26.703,vts_reward_expectancy_bt_OFFLINE,2022.2.4,59.848491866648565,
,,,,,,,,,,,,,,,,,,,,,,,,,,0,0,0,0,0,0,0,0,,,,,,,,,,,,,,,,,,,,,,,,,,,,,,,,,,,,,,,,670.137269220002,,H,174,triangle,0.002123137004673481,,,,,1,0,,,1,668.6355976569976,666.4469554629977,667.9514477819976,667.9514477819976,667.9514477819976,k,0.6640823549969355,,,,,,,,,,,,,,,,,,,,,,,,,,,,,,,,,,,,,,,,,,,31275,2022-10-26_10h25.26.703,vts_reward_expectancy_bt_OFFLINE,2022.2.4,59.848491866648565,
,,,,,,,,,,,,,,,,,,,,,,,,,,0,0,0,0,1,0,1,0,,,,,,,,,,,,,,,,,,,,,,,,,,,,,,,,,,,,,,,,676.110429002998,,W,139,hexagon,0.0014502909980365075,,,,,1,0,,,1,674.6087227820026,671.1164950710008,672.6233920140003,672.6233920140003,672.6233920140003,j,1.968195695997565,,,,,,,,,,,,,,,,,,,,,,,,,,,,,,,,,,,,,,,,,,,31275,2022-10-26_10h25.26.703,vts_reward_expectancy_bt_OFFLINE,2022.2.4,59.848491866648565,
,,,,,,,,,,,,,,,,,,,,,,,,,,0,0,0,0,2,0,2,0,,,,,,,,,,,,,,,,,,,,,,,,,,,,,,,,,,,,,,,,680.7655127629987,,F,132,circle,0.0019556480037863366,,,,,1,0,,,1,679.2638534319995,677.0915194620029,678.5964848899966,678.5964848899966,678.5964848899966,j,0.6506056859943783,,,,,,,,,,,,,,,,,,,,,,,,,,,,,,,,,,,,,,,,,,,31275,2022-10-26_10h25.26.703,vts_reward_expectancy_bt_OFFLINE,2022.2.4,59.848491866648565,
,,,,,,,,,,,,,,,,,,,,,,,,,,0,0,0,0,3,0,3,0,,,,,,,,,,,,,,,,,,,,,,,,,,,,,,,,,,,,,,,,685.4542933859993,,S,125,star,0.0011790700009441935,,,,,1,0,,,1,683.9524449070013,681.7447759799979,683.251548262997,683.251548262997,683.251548262997,j,0.6837998899936792,,,,,,,,,,,,,,,,,,,,,,,,,,,,,,,,,,,,,,,,,,,31275,2022-10-26_10h25.26.703,vts_reward_expectancy_bt_OFFLINE,2022.2.4,59.848491866648565,
,,,,,,,,,,,,,,,,,,,,,,,,,,0,0,0,0,4,0,4,0,,,,,,,,,,,,,,,,,,,,,,,,,,,,,,,,,,,,,,,,689.9257244289984,,D,160,hexagon,0.0015323850020649843,,,,,1,0,,,1,688.4240067880019,686.4337034209966,687.9403464860006,687.9403464860006,687.9403464860006,k,0.4586160530016059,,,,,,,,,,,,,,,,,,,,,,,,,,,,,,,,,,,,,,,,,,,31275,2022-10-26_10h25.26.703,vts_reward_expectancy_bt_OFFLINE,2022.2.4,59.848491866648565,
,,,,,,,,,,,,,,,,,,,,,,,,,,0,0,0,0,5,0,5,0,,,,,,,,,,,,,,,,,,,,,,,,,,,,,,,,,,,,,,,,694.6643186360016,,Y,167,triangle,0.0015597550009260885,,,,,1,0,,,1,693.1627322589993,690.9054134359976,692.4118783239974,692.4118783239974,692.4118783239974,k,0.7318727509991731,,,,,,,,,,,,,,,,,,,,,,,,,,,,,,,,,,,,,,,,,,,31275,2022-10-26_10h25.26.703,vts_reward_expectancy_bt_OFFLINE,2022.2.4,59.848491866648565,
,,,,,,,,,,,,,,,,,,,,,,,,,,0,0,0,0,6,0,6,0,,,,,,,,,,,,,,,,,,,,,,,,,,,,,,,,,,,,,,,,699.7197932190029,,B,146,star,0.0017061949984054081,,,,,1,0,,,1,698.2181877889961,695.6429510359958,697.1503457360013,697.1503457360013,697.1503457360013,j,1.0492560249986127,,,,,,,,,,,,,,,,,,,,,,,,,,,,,,,,,,,,,,,,,,,31275,2022-10-26_10h25.26.703,vts_reward_expectancy_bt_OFFLINE,2022.2.4,59.848491866648565,
,,,,,,,,,,,,,,,,,,,,,,,,,,0,0,0,0,7,0,7,0,,,,,,,,,,,,,,,,,,,,,,,,,,,,,,,,,,,,,,,,704.3251174749967,,U,181,circle,0.0015029189962660894,,,,,1,0,,,1,702.8232536970027,700.6992504549999,702.2058889050022,702.2058889050022,702.2058889050022,k,0.5848994740008493,,,,,,,,,,,,,,,,,,,,,,,,,,,,,,,,,,,,,,,,,,,31275,2022-10-26_10h25.26.703,vts_reward_expectancy_bt_OFFLINE,2022.2.4,59.848491866648565,
,,,,,,,,,,,,,,,,,,,,,,,,,,0,0,0,0,8,0,8,0,,,,,,,,,,,,,,,,,,,,,,,,,,,,,,,,,,,,,,,,708.9967471199998,,H,174,hexagon,0.0017006519992719404,,,,,1,0,,,1,707.4951385469976,705.304766520996,706.8111139780012,706.8111139780012,706.8111139780012,k,0.6594458509935066,,,,,,,,,,,,,,,,,,,,,,,,,,,,,,,,,,,,,,,,,,,31275,2022-10-26_10h25.26.703,vts_reward_expectancy_bt_OFFLINE,2022.2.4,59.848491866648565,
,,,,,,,,,,,,,,,,,,,,,,,,,,0,0,0,0,9,0,9,0,,,,,,,,,,,,,,,,,,,,,,,,,,,,,,,,,,,,,,,,713.6853746089982,,W,139,circle,0.0018609100006869994,,,,,1,0,,,1,712.1835656979965,709.9754043770008,711.4827829830028,711.4827829830028,711.4827829830028,j,0.6760346980008762,,,,,,,,,,,,,,,,,,,,,,,,,,,,,,,,,,,,,,,,,,,31275,2022-10-26_10h25.26.703,vts_reward_expectancy_bt_OFFLINE,2022.2.4,59.848491866648565,
,,,,,,,,,,,,,,,,,,,,,,,,,,,,,,,,,,0,0,0,0,0,0,0,0,,,,,,,,,,,,,,,,,,,,,,,,,,,,0,900,,,783.2453992139999,,Y,181,circle,0.0020110610057599843,,,,,1,0,,,2,,,,,,,,778.5225191610007,778.5225191610007,778.5225191610007,778.5225191610007,780.0250893799966,780.0250893799966,780.0250893799966,780.0250893799966,780.0250893799966,780.0250893799966,780.0250893799966,780.0250893799966,-1,letter,NA,f,1.6946034130014596,vtsPrac,781.7448463990004,,,,,,,,,,,,,,,,,,,,,,,,31275,2022-10-26_10h25.26.703,vts_reward_expectancy_bt_OFFLINE,2022.2.4,59.848491866648565,
,,,,,,,,,,,,,,,,,,,,,,,,,,,,,,,,,,0,0,0,0,1,0,1,0,,,,,,,,,,,,,,,,,,,,,,,,,,,,0,900,,,788.3842553020004,,F,174,star,0.0015050729998620227,,,,,1,0,,,2,,,,,,,,784.2284269599986,784.2284269599986,784.2284269599986,784.2284269599986,785.7314188870005,785.7314188870005,785.7314188870005,785.7314188870005,785.7314188870005,785.7314188870005,785.7314188870005,785.7314188870005,repeat,letter,lettRpt,d,1.124164374996326,vtsPrac,786.8826375019999,,,,,,,,,,,,,,,,,,,,,,,,31275,2022-10-26_10h25.26.703,vts_reward_expectancy_bt_OFFLINE,2022.2.4,59.848491866648565,
,,,,,,,,,,,,,,,,,,,,,,,,,,,,,,,,,,0,0,0,0,2,0,2,0,,,,,,,,,,,,,,,,,,,,,,,,,,,,0,900,,,793.139597909998,,H,146,triangle,0.0017262799956370145,,,,,0,0,,,2,,,,,,,,789.3667973920019,789.3667973920019,789.3667973920019,789.3667973920019,790.8703123739979,790.8703123739979,790.8703123739979,790.8703123739979,790.8703123739979,790.8703123739979,790.8703123739979,790.8703123739979,switch,number,NA,k,0.7366322950038011,vtsPrac,791.6379548819968,,,,,,,,,,,,,,,,,,,,,,,,31275,2022-10-26_10h25.26.703,vts_reward_expectancy_bt_OFFLINE,2022.2.4,59.848491866648565,
,,,,,,,,,,,,,,,,,,,,,,,,,,,,,,,,,,0,0,0,0,3,0,3,0,,,,,,,,,,,,,,,,,,,,,,,,,,,,0,900,,,798.2285390359975,,U,139,circle,0.0017580079947947524,,,,,1,1,,,2,,,,,,,,794.1226625990021,794.1226625990021,794.1226625990021,794.1226625990021,795.6256634189995,795.6256634189995,795.6256634189995,795.6256634189995,795.6256634189995,795.6256634189995,795.6256634189995,795.6256634189995,switch,letter,lettSwt,f,1.0695683579979232,vtsPrac,796.7268448089962,,,,,,,,,,,,,,,,,,,,,,,,31275,2022-10-26_10h25.26.703,vts_reward_expectancy_bt_OFFLINE,2022.2.4,59.848491866648565,
,,,,,,,,,,,,,,,,,,,,,,,,,,,,,,,,,,0,0,0,0,4,0,4,0,,,,,,,,,,,,,,,,,,,,,,,,,,,,0,900,,,802.8334947420008,,Y,181,circle,0.001427794006303884,,,,,1,0,,,2,,,,,,,,799.2096134289968,799.2096134289968,799.2096134289968,799.2096134289968,800.7144891919961,800.7144891919961,800.7144891919961,800.7144891919961,800.7144891919961,800.7144891919961,800.7144891919961,800.7144891919961,repeat,letter,lettRpt,f,0.5968186949976371,vtsPrac,801.3318698540024,,,,,,,,,,,,,,,,,,,,,,,,31275,2022-10-26_10h25.26.703,vts_reward_expectancy_bt_OFFLINE,2022.2.4,59.848491866648565,
,,,,,,,,,,,,,,,,,,,,,,,,,,,,,,,,,,0,0,0,0,5,0,5,0,,,,,,,,,,,,,,,,,,,,,,,,,,,,0,900,,,809.3742147169978,,F,174,triangle,0.0013471790007315576,,,,,1,0,,,2,,,,,,,,803.8125457839997,803.8125457839997,803.8125457839997,803.8125457839997,805.3197102269987,805.3197102269987,805.3197102269987,805.3197102269987,805.3197102269987,805.3197102269987,805.3197102269987,805.3197102269987,repeat,letter,lettRpt,d,2.527464352999232,vtsPrac,807.8721859689977,,,,,,,,,,,,,,,,,,,,,,,,31275,2022-10-26_10h25.26.703,vts_reward_expectancy_bt_OFFLINE,2022.2.4,59.848491866648565,
,,,,,,,,,,,,,,,,,,,,,,,,,,,,,,,,,,0,0,0,0,6,0,6,0,,,,,,,,,,,,,,,,,,,,,,,,,,,,0,900,,,815.2304960699985,,H,146,circle,0.0020701130051747896,,,,,0,0,,,2,,,,,,,,810.353342508999,810.353342508999,810.353342508999,810.353342508999,811.8603045519994,811.8603045519994,811.8603045519994,811.8603045519994,811.8603045519994,811.8603045519994,811.8603045519994,811.8603045519994,switch,number,NA,k,1.8510565619944828,vtsPrac,813.7292295809966,,,,,,,,,,,,,,,,,,,,,,,,31275,2022-10-26_10h25.26.703,vts_reward_expectancy_bt_OFFLINE,2022.2.4,59.848491866648565,
,,,,,,,,,,,,,,,,,,,,,,,,,,,,,,,,,,0,0,0,0,7,0,7,0,,,,,,,,,,,,,,,,,,,,,,,,,,,,0,900,,,821.5374690000026,,U,139,hexagon,0.0015071009984239936,,,,,0,1,,,2,,,,,,,,816.2085764689982,816.2085764689982,816.2085764689982,816.2085764689982,817.7166206649999,817.7166206649999,817.7166206649999,817.7166206649999,817.7166206649999,817.7166206649999,817.7166206649999,817.7166206649999,repeat,number,NA,k,2.2984129389951704,vtsPrac,820.0357469709998,,,,,,,,,,,,,,,,,,,,,,,,31275,2022-10-26_10h25.26.703,vts_reward_expectancy_bt_OFFLINE,2022.2.4,59.848491866648565,
,,,,,,,,,,,,,,,,,,,,,,,,,,,,,,,,,,0,0,0,0,8,0,8,0,,,,,,,,,,,,,,,,,,,,,,,,,,,,0,900,,,826.5431249129979,,H,181,star,0.001484086002164986,,,,,1,1,,,2,,,,,,,,822.5167353579964,822.5167353579964,822.5167353579964,822.5167353579964,824.0236270370006,824.0236270370006,824.0236270370006,824.0236270370006,824.0236270370006,824.0236270370006,824.0236270370006,824.0236270370006,repeat,number,numRpt,k,0.9919933619967196,vtsPrac,825.0415321879991,,,,,,,,,,,,,,,,,,,,,,,,31275,2022-10-26_10h25.26.703,vts_reward_expectancy_bt_OFFLINE,2022.2.4,59.848491866648565,
,,,,,,,,,,,,,,,,,,,,,,,,,,,,,,,,,,0,0,0,0,9,0,9,0,,,,,,,,,,,,,,,,,,,,,,,,,,,,0,900,,,831.3650031590005,,Y,146,hexagon,0.0016167339999810793,,,,,1,0,,,2,,,,,,,,827.5221079080002,827.5221079080002,827.5221079080002,827.5221079080002,829.0290887660012,829.0290887660012,829.0290887660012,829.0290887660012,829.0290887660012,829.0290887660012,829.0290887660012,829.0290887660012,switch,letter,lettSwt,f,0.8021715989962104,vtsPrac,829.8632723310002,,,,,,,,,,,,,,,,,,,,,,,,31275,2022-10-26_10h25.26.703,vts_reward_expectancy_bt_OFFLINE,2022.2.4,59.848491866648565,
,,,,,,,,,,,,,,,,,,,,,,,,,,,,,,,,,,0,0,0,0,10,0,10,0,,,,,,,,,,,,,,,,,,,,,,,,,,,,0,900,,,837.2214739129995,,S,139,star,0.0017636889970162883,,,,,1,0,,,2,,,,,,,,832.3447048390008,832.3447048390008,832.3447048390008,832.3447048390008,833.8511737899971,833.8511737899971,833.8511737899971,833.8511737899971,833.8511737899971,833.8511737899971,833.8511737899971,833.8511737899971,switch,number,numSwt,j,1.836428315997182,vtsPrac,835.7200186359987,,,,,,,,,,,,,,,,,,,,,,,,31275,2022-10-26_10h25.26.703,vts_reward_expectancy_bt_OFFLINE,2022.2.4,59.848491866648565,
,,,,,,,,,,,,,,,,,,,,,,,,,,,,,,,,,,0,0,0,0,11,0,11,0,,,,,,,,,,,,,,,,,,,,,,,,,,,,0,900,,,842.4940374549988,,D,160,triangle,0.0013571859963121824,,,,,1,0,,,2,,,,,,,,838.203870794001,838.203870794001,838.203870794001,838.203870794001,839.7078149980007,839.7078149980007,839.7078149980007,839.7078149980007,839.7078149980007,839.7078149980007,839.7078149980007,839.7078149980007,switch,letter,lettSwt,d,1.2675636670028325,vtsPrac,840.9923563019984,,,,,,,,,,,,,,,,,,,,,,,,31275,2022-10-26_10h25.26.703,vts_reward_expectancy_bt_OFFLINE,2022.2.4,59.848491866648565,
,,,,,,,,,,,,,,,,,,,,,,,,,,,,,,,,,,0,0,0,0,12,0,12,0,,,,,,,,,,,,,,,,,,,,,,,,,,,,0,900,,,847.8665814699998,,H,139,circle,0.0015436239991686307,,,,,1,0,,,2,,,,,,,,843.4753541419996,843.4753541419996,843.4753541419996,843.4753541419996,844.980300975003,844.980300975003,844.980300975003,844.980300975003,844.980300975003,844.980300975003,844.980300975003,844.980300975003,repeat,letter,lettRpt,d,1.3546817529932014,vtsPrac,846.3649776149978,,,,,,,,,,,,,,,,,,,,,,,,31275,2022-10-26_10h25.26.703,vts_reward_expectancy_bt_OFFLINE,2022.2.4,59.848491866648565,
,,,,,,,,,,,,,,,,,,,,,,,,,,,,,,,,,,0,0,0,0,13,0,13,0,,,,,,,,,,,,,,,,,,,,,,,,,,,,0,900,,,853.1724060240012,,D,146,hexagon,0.0015299720034818165,,,,,0,0,,,2,,,,,,,,848.8458022589984,848.8458022589984,848.8458022589984,848.8458022589984,850.3528031669994,850.3528031669994,850.3528031669994,850.3528031669994,850.3528031669994,850.3528031669994,850.3528031669994,850.3528031669994,switch,number,NA,k,1.285506494990841,vtsPrac,851.6707295849992,,,,,,,,,,,,,,,,,,,,,,,,31275,2022-10-26_10h25.26.703,vts_reward_expectancy_bt_OFFLINE,2022.2.4,59.848491866648565,
,,,,,,,,,,,,,,,,,,,,,,,,,,,,,,,,,,0,0,0,0,14,0,14,0,,,,,,,,,,,,,,,,,,,,,,,,,,,,0,900,,,857.9777530069987,,B,167,triangle,0.0017442239986849017,,,,,1,1,,,2,,,,,,,,854.1546108859984,854.1546108859984,854.1546108859984,854.1546108859984,855.6584464780026,855.6584464780026,855.6584464780026,855.6584464780026,855.6584464780026,855.6584464780026,855.6584464780026,855.6584464780026,repeat,number,numRpt,k,0.7891464559943415,vtsPrac,856.4763187900026,,,,,,,,,,,,,,,,,,,,,,,,31275,2022-10-26_10h25.26.703,vts_reward_expectancy_bt_OFFLINE,2022.2.4,59.848491866648565,
,,,,,,,,,,,,,,,,,,,,,,,,,,,,,,,,,,0,0,0,0,15,0,15,0,,,,,,,,,,,,,,,,,,,,,,,,,,,,0,900,,,862.8164135269981,,W,160,circle,0.0015035109972814098,,,,,1,0,,,2,,,,,,,,858.9567602669995,858.9567602669995,858.9567602669995,858.9567602669995,860.463881509997,860.463881509997,860.463881509997,860.463881509997,860.463881509997,860.463881509997,860.463881509997,860.463881509997,repeat,number,numRpt,k,0.83173239199823,vtsPrac,861.3145995379964,,,,,,,,,,,,,,,,,,,,,,,,31275,2022-10-26_10h25.26.703,vts_reward_expectancy_bt_OFFLINE,2022.2.4,59.848491866648565,
,,,,,,,,,,,,,,,,,,,,,,,,,,,,,,,,,,1,0,1,0,0,0,0,0,,,,,,,,,,,,,,,,,,,,,,,,,,,,0,900,,,874.6293309050016,,Y,181,star,0.002153014997020364,,,,,1,0,,,3,,,,,,,,870.6200353590029,870.6200353590029,870.6200353590029,870.6200353590029,872.1268568730011,872.1268568730011,872.1268568730011,872.1268568730011,872.1268568730011,872.1268568730011,872.1268568730011,872.1268568730011,switch,letter,lettSwt,f,0.9847264839991112,vtsPrac,873.1284451589963,,,,,,,,,,,,,,,,,,,,,,,,31275,2022-10-26_10h25.26.703,vts_reward_expectancy_bt_OFFLINE,2022.2.4,59.848491866648565,
,,,,,,,,,,,,,,,,,,,,,,,,,,,,,,,,,,1,0,1,0,1,0,1,0,,,,,,,,,,,,,,,,,,,,,,,,,,,,0,900,,,879.8352388709973,,D,160,circle,0.0009172300051432103,,,,,1,0,,,3,,,,,,,,875.6092955010026,875.6092955010026,875.6092955010026,875.6092955010026,877.1155108029998,877.1155108029998,877.1155108029998,877.1155108029998,877.1155108029998,877.1155108029998,877.1155108029998,877.1155108029998,switch,number,numSwt,k,1.1957630760007305,vtsPrac,878.333662347999,,,,,,,,,,,,,,,,,,,,,,,,31275,2022-10-26_10h25.26.703,vts_reward_expectancy_bt_OFFLINE,2022.2.4,59.848491866648565,
,,,,,,,,,,,,,,,,,,,,,,,,,,,,,,,,,,1,0,1,0,2,0,2,0,,,,,,,,,,,,,,,,,,,,,,,,,,,,0,900,,,885.3079986040029,,H,146,hexagon,0.001498805999290198,,,,,1,0,,,3,,,,,,,,880.8145186429974,880.8145186429974,880.8145186429974,880.8145186429974,882.3213480299964,882.3213480299964,882.3213480299964,882.3213480299964,882.3213480299964,882.3213480299964,882.3213480299964,882.3213480299964,repeat,number,numRpt,j,1.4617902339959983,vtsPrac,883.8063669010007,,,,,,,,,,,,,,,,,,,,,,,,31275,2022-10-26_10h25.26.703,vts_reward_expectancy_bt_OFFLINE,2022.2.4,59.848491866648565,
,,,,,,,,,,,,,,,,,,,,,,,,,,,,,,,,,,1,0,1,0,3,0,3,0,,,,,,,,,,,,,,,,,,,,,,,,,,,,0,900,,,890.2800366989977,,S,139,circle,0.0013077780022285879,,,,,1,0,,,3,,,,,,,,886.287246615997,886.287246615997,886.287246615997,886.287246615997,887.7939227329989,887.7939227329989,887.7939227329989,887.7939227329989,887.7939227329989,887.7939227329989,887.7939227329989,887.7939227329989,switch,letter,lettSwt,f,0.9573427549912594,vtsPrac,888.7783878679984,,,,,,,,,,,,,,,,,,,,,,,,31275,2022-10-26_10h25.26.703,vts_reward_expectancy_bt_OFFLINE,2022.2.4,59.848491866648565,
,,,,,,,,,,,,,,,,,,,,,,,,,,,,,,,,,,1,0,1,0,4,0,4,0,,,,,,,,,,,,,,,,,,,,,,,,,,,,0,900,,,895.9362316629995,,Y,181,triangle,0.0015923610044410452,,,,,1,0,,,3,,,,,,,,891.2581584619984,891.2581584619984,891.2581584619984,891.2581584619984,892.7662669549973,892.7662669549973,892.7662669549973,892.7662669549973,892.7662669549973,892.7662669549973,892.7662669549973,892.7662669549973,repeat,letter,lettRpt,f,1.6407792919926578,vtsPrac,894.4345882299967,,,,,,,,,,,,,,,,,,,,,,,,31275,2022-10-26_10h25.26.703,vts_reward_expectancy_bt_OFFLINE,2022.2.4,59.848491866648565,
,,,,,,,,,,,,,,,,,,,,,,,,,,,,,,,,,,1,0,1,0,5,0,5,0,,,,,,,,,,,,,,,,,,,,,,,,,,,,0,900,,,901.6092564909995,,D,160,circle,0.001601716001459863,,,,,1,0,,,3,,,,,,,,896.9157427379978,896.9157427379978,896.9157427379978,896.9157427379978,898.4222875970008,898.4222875970008,898.4222875970008,898.4222875970008,898.4222875970008,898.4222875970008,898.4222875970008,898.4222875970008,switch,number,numSwt,k,1.66449434900278,vtsPrac,900.1075182010027,,,,,,,,,,,,,,,,,,,,,,,,31275,2022-10-26_10h25.26.703,vts_reward_expectancy_bt_OFFLINE,2022.2.4,59.848491866648565,
,,,,,,,,,,,,,,,,,,,,,,,,,,,,,,,,,,1,0,1,0,6,0,6,0,,,,,,,,,,,,,,,,,,,,,,,,,,,,0,900,,,906.8816689270025,,H,146,triangle,0.0016068109980551526,,,,,1,0,,,3,,,,,,,,902.588587197999,902.588587197999,902.588587197999,902.588587197999,904.0951784170029,904.0951784170029,904.0951784170029,904.0951784170029,904.0951784170029,904.0951784170029,904.0951784170029,904.0951784170029,switch,letter,lettSwt,d,1.2638284729982843,vtsPrac,905.380301803998,,,,,,,,,,,,,,,,,,,,,,,,31275,2022-10-26_10h25.26.703,vts_reward_expectancy_bt_OFFLINE,2022.2.4,59.848491866648565,
,,,,,,,,,,,,,,,,,,,,,,,,,,,,,,,,,,1,0,1,0,7,0,7,0,,,,,,,,,,,,,,,,,,,,,,,,,,,,0,900,,,911.5869342079968,,S,139,circle,0.001567698003782425,,,,,1,0,,,3,,,,,,,,907.8600367239997,907.8600367239997,907.8600367239997,907.8600367239997,909.3676650699999,909.3676650699999,909.3676650699999,909.3676650699999,909.3676650699999,909.3676650699999,909.3676650699999,909.3676650699999,switch,number,numSwt,j,0.6877233490013168,vtsPrac,910.0852011579991,,,,,,,,,,,,,,,,,,,,,,,,31275,2022-10-26_10h25.26.703,vts_reward_expectancy_bt_OFFLINE,2022.2.4,59.848491866648565,
,,,,,,,,,,,,,,,,,,,,,,,,,,,,,,,,,,1,0,1,0,8,0,8,0,,,,,,,,,,,,,,,,,,,,,,,,,,,,0,900,,,916.3421229629967,,S,139,star,0.0016531840010429733,,,,,1,0,,,3,,,,,,,,912.5658434659999,912.5658434659999,912.5658434659999,912.5658434659999,914.0729150769985,914.0729150769985,914.0729150769985,914.0729150769985,914.0729150769985,914.0729150769985,914.0729150769985,914.0729150769985,repeat,number,numRpt,j,0.7419996450043982,vtsPrac,914.8403440600014,,,,,,,,,,,,,,,,,,,,,,,,31275,2022-10-26_10h25.26.703,vts_reward_expectancy_bt_OFFLINE,2022.2.4,59.848491866648565,
,,,,,,,,,,,,,,,,,,,,,,,,,,,,,,,,,,1,0,1,0,9,0,9,0,,,,,,,,,,,,,,,,,,,,,,,,,,,,0,900,,,920.9306077509973,,B,181,triangle,0.0015891479997662827,,,,,1,0,,,3,,,,,,,,917.3212281770029,917.3212281770029,917.3212281770029,917.3212281770029,918.8280813230012,918.8280813230012,918.8280813230012,918.8280813230012,918.8280813230012,918.8280813230012,918.8280813230012,918.8280813230012,switch,letter,lettSwt,d,0.5792186079997919,vtsPrac,919.429009665997,,,,,,,,,,,,,,,,,,,,,,,,31275,2022-10-26_10h25.26.703,vts_reward_expectancy_bt_OFFLINE,2022.2.4,59.848491866648565,
,,,,,,,,,,,,,,,,,,,,,,,,,,,,,,,,,,1,0,1,0,10,0,10,0,,,,,,,,,,,,,,,,,,,,,,,,,,,,0,900,,,925.7358532419967,,D,167,circle,0.001590292995388154,,,,,1,0,,,3,,,,,,,,921.9106016149963,921.9106016149963,921.9106016149963,921.9106016149963,923.4165950710012,923.4165950710012,923.4165950710012,923.4165950710012,923.4165950710012,923.4165950710012,923.4165950710012,923.4165950710012,switch,number,numSwt,k,0.7995923729977221,vtsPrac,924.2342257260025,,,,,,,,,,,,,,,,,,,,,,,,31275,2022-10-26_10h25.26.703,vts_reward_expectancy_bt_OFFLINE,2022.2.4,59.848491866648565,
,,,,,,,,,,,,,,,,,,,,,,,,,,,,,,,,,,1,0,1,0,11,0,11,0,,,,,,,,,,,,,,,,,,,,,,,,,,,,0,900,,,930.7414359149989,,W,174,triangle,0.0013202629997977056,,,,,1,0,,,3,,,,,,,,926.7148216310015,926.7148216310015,926.7148216310015,926.7148216310015,928.2220029989985,928.2220029989985,928.2220029989985,928.2220029989985,928.2220029989985,928.2220029989985,928.2220029989985,928.2220029989985,repeat,number,numRpt,k,0.9855305329983821,vtsPrac,929.2399087529993,,,,,,,,,,,,,,,,,,,,,,,,31275,2022-10-26_10h25.26.703,vts_reward_expectancy_bt_OFFLINE,2022.2.4,59.848491866648565,
,,,,,,,,,,,,,,,,,,,,,,,,,,,,,,,,,,1,0,1,0,12,0,12,0,,,,,,,,,,,,,,,,,,,,,,,,,,,,0,900,,,935.6801608980022,,F,160,triangle,0.0015879790007602423,,,,,1,0,,,3,,,,,,,,931.7224950750024,931.7224950750024,931.7224950750024,931.7224950750024,933.2274763969981,933.2274763969981,933.2274763969981,933.2274763969981,933.2274763969981,933.2274763969981,933.2274763969981,933.2274763969981,repeat,number,numRpt,k,0.9322066969980369,vtsPrac,934.1786261570014,,,,,,,,,,,,,,,,,,,,,,,,31275,2022-10-26_10h25.26.703,vts_reward_expectancy_bt_OFFLINE,2022.2.4,59.848491866648565,
,,,,,,,,,,,,,,,,,,,,,,,,,,,,,,,,,,1,0,1,0,13,0,13,0,,,,,,,,,,,,,,,,,,,,,,,,,,,,0,900,,,940.8025668339978,,U,146,circle,0.001472727999498602,,,,,1,0,,,3,,,,,,,,936.660195188997,936.660195188997,936.660195188997,936.660195188997,938.1662296529976,938.1662296529976,938.1662296529976,938.1662296529976,938.1662296529976,938.1662296529976,938.1662296529976,938.1662296529976,switch,letter,lettSwt,f,1.104875026998343,vtsPrac,939.3007734260027,,,,,,,,,,,,,,,,,,,,,,,,31275,2022-10-26_10h25.26.703,vts_reward_expectancy_bt_OFFLINE,2022.2.4,59.848491866648565,
,,,,,,,,,,,,,,,,,,,,,,,,,,,,,,,,,,1,0,1,0,14,0,14,0,,,,,,,,,,,,,,,,,,,,,,,,,,,,0,900,,,946.0082295800021,,W,125,triangle,0.0014408019997063093,,,,,1,0,,,3,,,,,,,,941.7845016049978,941.7845016049978,941.7845016049978,941.7845016049978,943.2886842829976,943.2886842829976,943.2886842829976,943.2886842829976,943.2886842829976,943.2886842829976,943.2886842829976,943.2886842829976,switch,number,numSwt,j,1.19114302899834,vtsPrac,944.5065742529987,,,,,,,,,,,,,,,,,,,,,,,,31275,2022-10-26_10h25.26.703,vts_reward_expectancy_bt_OFFLINE,2022.2.4,59.848491866648565,
,,,,,,,,,,,,,,,,,,,,,,,,,,,,,,,,,,1,0,1,0,15,0,15,0,,,,,,,,,,,,,,,,,,,,,,,,,,,,0,900,,,950.830187876003,,S,167,circle,0.001622233998205047,,,,,1,0,,,3,,,,,,,,946.9863225520021,946.9863225520021,946.9863225520021,946.9863225520021,948.4943846649985,948.4943846649985,948.4943846649985,948.4943846649985,948.4943846649985,948.4943846649985,948.4943846649985,948.4943846649985,switch,letter,lettSwt,f,0.8170022609920125,vtsPrac,949.328507860002,,,,,,,,,,,,,,,,,,,,,,,,31275,2022-10-26_10h25.26.703,vts_reward_expectancy_bt_OFFLINE,2022.2.4,59.848491866648565,
,,,,,,,,,,,,,,,,,,,,,,,,,,,,,,,,,,,,,,,,,,0,0,0,0,,,,,,,,,,,,,,,,,,,,,,,,0,900,,,982.2147454399965,,W,167,circle,0.0024230679991887882,,,,,1,0,,,,,,,,,,,978.4222448470027,978.4222448470027,978.4222448470027,978.4222448470027,979.9290811690007,979.9290811690007,979.9290811690007,979.9290811690007,979.9290811690007,979.9290811690007,979.9290811690007,979.9290811690007,repeat,letter,lettRpt,f,0.7573810879985103,noRew,,0,980.7131619150023,,,,,,,,,,,,,,,,,,,,,,31275,2022-10-26_10h25.26.703,vts_reward_expectancy_bt_OFFLINE,2022.2.4,59.848491866648565,
