LTriangleOpac,LCircleOpac,LHexagonOpac,LStarOpac,RTriangleOpac,RCircleOpac,RHexagonOpac,RStarOpac,LShape_ID,RShape_ID,training_blocks.thisRepN,training_blocks.thisTrialN,training_blocks.thisN,training_blocks.thisIndex,training.thisRepN,training.thisTrialN,training.thisN,training.thisIndex,task1_prac_redo.thisRepN,task1_prac_redo.thisTrialN,task1_prac_redo.thisN,task1_prac_redo.thisIndex,task1_prac_trials.thisRepN,task1_prac_trials.thisTrialN,task1_prac_trials.thisN,task1_prac_trials.thisIndex,task2_prac_redo.thisRepN,task2_prac_redo.thisTrialN,task2_prac_redo.thisN,task2_prac_redo.thisIndex,task2_praac_trials.thisRepN,task2_praac_trials.thisTrialN,task2_praac_trials.thisN,task2_praac_trials.thisIndex,vts_prac_redo.thisRepN,vts_prac_redo.thisTrialN,vts_prac_redo.thisN,vts_prac_redo.thisIndex,vts_practice_trials.thisRepN,vts_practice_trials.thisTrialN,vts_practice_trials.thisN,vts_practice_trials.thisIndex,trials_norew.thisRepN,trials_norew.thisTrialN,trials_norew.thisN,trials_norew.thisIndex,block.thisRepN,block.thisTrialN,block.thisN,block.thisIndex,trials_rew.thisRepN,trials_rew.thisTrialN,trials_rew.thisN,trials_rew.thisIndex,key_resp.started,key_resp.keys,key_resp.rt,left_circle.started,right_circle.started,left_triangle.started,right_triangle.started,left_star.started,right_star.started,left_hexagon.started,right_hexagon.started,training_fix.started,training_resp.started,training_resp.keys,training_resp.rt,points_trial,points_cumul,trainBlock,training_feedback_txt.started,fix.started,training_feedback_txt.stopped,fix.stopped,curr_topStim,curr_bottStim,curr_shape,ISI.started,tgt_fix_prac1.started,top_target_prac1.started,bott_target_prac1.started,target_resp_prac1.started,top_target_prac1.stopped,tgt_fix_prac1.stopped,bott_target_prac1.stopped,target_resp_prac1.stopped,acc,E1,target_resp_prac1.keys,pracBlock,prac_fback_text.started,prac_fback_text.stopped,target_resp_prac1.rt,tgt_fix_prac2.started,top_target_prac2.started,bott_target_prac2.started,target_resp_prac2.started,target_resp_prac2.keys,target_resp_prac2.rt,star.started,hegagon.started,triangle.started,circle.started,top_target.started,tgt_fix.started,bot_target.started,target_resp.started,star.stopped,hegagon.stopped,triangle.stopped,circle.stopped,alt,task,condition,target_resp.keys,target_resp.rt,rewCond,vts_fback.started,vts_fback.stopped,blockNum,norew_fback.started,norew_fback.stopped,key_resp_2.keys,key_resp_2.rt,rewExpectancy,feedbk_text.started,feedbk_text.stopped,text_3.started,text_3.stopped,button.started,debrief.index,debrief.itemText,debrief.type,debrief.granularity,debrief.font,debrief.markerColor,debrief.response,debrief.rt,button.numClicks,button.timesOn,button.timesOff,participant,date,expName,psychopyVersion,frameRate,
,,,,,,,,,,,,,,,,,,,,,,,,,,,,,,,,,,,,,,,,,,,,,,,,,,,,,,17.038939119000133,space,18.335437205001654,,,,,,,,,,,,,,,,,,,,,,,,,,,,,,,,,,,,,,,,,,,,,,,,,,,,,,,,,,,,,,,,,,,,,,,,,,,,,,,,,,,,,,,32144,2022-10-25_13h59.32.778,vts_reward_expectancy_bt_OFFLINE,2022.2.4,59.94268795621936,
1,0,0,0,0,0,1,0,triangle,hexagon,0,0,0,0,0,0,0,1,,,,,,,,,,,,,,,,,,,,,,,,,,,,,,,,,,,,,,,,68.86083448299905,68.86083448299905,68.86083448299905,68.86083448299905,68.86083448299905,68.86083448299905,68.86083448299905,68.86083448299905,68.86083448299905,68.86083448299905,l,2.320057851004094,1,1,0,71.21256222999727,72.71445972799847,,,,,,,,,,,,,,,,,,,,,,,,,,,,,,,,,,,,,,,,,,,,,,,,,,,,,,,,,,,,,,,,,,,,,,32144,2022-10-25_13h59.32.778,vts_reward_expectancy_bt_OFFLINE,2022.2.4,59.94268795621936,
0,1,0,0,0,0,1,0,circle,hexagon,0,0,0,0,0,1,1,4,,,,,,,,,,,,,,,,,,,,,,,,,,,,,,,,,,,,,,,,73.21480089800025,73.21480089800025,73.21480089800025,73.21480089800025,73.21480089800025,73.21480089800025,73.21480089800025,73.21480089800025,73.21480089800025,73.21480089800025,a,2.159440961004293,10,11,0,75.40067768399967,76.90215360000002,,,,,,,,,,,,,,,,,,,,,,,,,,,,,,,,,,,,,,,,,,,,,,,,,,,,,,,,,,,,,,,,,,,,,,32144,2022-10-25_13h59.32.778,vts_reward_expectancy_bt_OFFLINE,2022.2.4,59.94268795621936,
0,0,0,1,1,0,0,0,star,triangle,0,0,0,0,0,2,2,9,,,,,,,,,,,,,,,,,,,,,,,,,,,,,,,,,,,,,,,,77.40272535400072,77.40272535400072,77.40272535400072,77.40272535400072,77.40272535400072,77.40272535400072,77.40272535400072,77.40272535400072,77.40272535400072,77.40272535400072,l,2.9708163010036515,10,21,0,80.40605307299847,81.90784318399892,,,,,,,,,,,,,,,,,,,,,,,,,,,,,,,,,,,,,,,,,,,,,,,,,,,,,,,,,,,,,,,,,,,,,,32144,2022-10-25_13h59.32.778,vts_reward_expectancy_bt_OFFLINE,2022.2.4,59.94268795621936,
0,0,0,1,0,1,0,0,star ,circle,0,0,0,0,0,3,3,10,,,,,,,,,,,,,,,,,,,,,,,,,,,,,,,,,,,,,,,,82.40827036499832,82.40827036499832,82.40827036499832,82.40827036499832,82.40827036499832,82.40827036499832,82.40827036499832,82.40827036499832,82.40827036499832,82.40827036499832,l,0.6852585940032441,10,31,0,83.12602052500006,84.62772251500064,,,,,,,,,,,,,,,,,,,,,,,,,,,,,,,,,,,,,,,,,,,,,,,,,,,,,,,,,,,,,,,,,,,,,,32144,2022-10-25_13h59.32.778,vts_reward_expectancy_bt_OFFLINE,2022.2.4,59.94268795621936,
0,1,0,0,0,0,0,1,circle,star,0,0,0,0,0,4,4,5,,,,,,,,,,,,,,,,,,,,,,,,,,,,,,,,,,,,,,,,85.12804162499742,85.12804162499742,85.12804162499742,85.12804162499742,85.12804162499742,85.12804162499742,85.12804162499742,85.12804162499742,85.12804162499742,85.12804162499742,a,0.9667189890024019,10,41,0,86.11257153399856,87.61403540899846,87.61403540899846,,,,,,,,,,,,,,,,,,,,,,,,,,,,,,,,,,,,,,,,,,,,,,,,,,,,,,,,,,,,,,,,,,,,,32144,2022-10-25_13h59.32.778,vts_reward_expectancy_bt_OFFLINE,2022.2.4,59.94268795621936,
1,0,0,0,0,0,0,1,triangle,star,0,0,0,0,0,5,5,2,,,,,,,,,,,,,,,,,,,,,,,,,,,,,,,,,,,,,,,,88.11459026599914,88.11459026599914,88.11459026599914,88.11459026599914,88.11459026599914,88.11459026599914,88.11459026599914,88.11459026599914,88.11459026599914,88.11459026599914,a,1.9391699780026102,1,42,0,90.08366471900081,91.58531194500029,,,,,,,,,,,,,,,,,,,,,,,,,,,,,,,,,,,,,,,,,,,,,,,,,,,,,,,,,,,,,,,,,,,,,,32144,2022-10-25_13h59.32.778,vts_reward_expectancy_bt_OFFLINE,2022.2.4,59.94268795621936,
0,0,0,1,0,0,1,0,star,hexagon,0,0,0,0,0,6,6,11,,,,,,,,,,,,,,,,,,,,,,,,,,,,,,,,,,,,,,,,92.08576286099924,92.08576286099924,92.08576286099924,92.08576286099924,92.08576286099924,92.08576286099924,92.08576286099924,92.08576286099924,92.08576286099924,92.08576286099924,a,1.0011715610053216,10,52,0,93.10345949899784,94.60509851399911,94.60509851399911,,,,,,,,,,,,,,,,,,,,,,,,,,,,,,,,,,,,,,,,,,,,,,,,,,,,,,,,,,,,,,,,,,,,,32144,2022-10-25_13h59.32.778,vts_reward_expectancy_bt_OFFLINE,2022.2.4,59.94268795621936,
0,0,1,0,1,0,0,0,hexagon,triangle,0,0,0,0,0,7,7,6,,,,,,,,,,,,,,,,,,,,,,,,,,,,,,,,,,,,,,,,95.10557693100054,95.10557693100054,95.10557693100054,95.10557693100054,95.10557693100054,95.10557693100054,95.10557693100054,95.10557693100054,95.10557693100054,95.10557693100054,a,0.9013646640014485,10,62,0,96.0233005409973,97.52484605800055,97.52484605800055,,,,,,,,,,,,,,,,,,,,,,,,,,,,,,,,,,,,,,,,,,,,,,,,,,,,,,,,,,,,,,,,,,,,,32144,2022-10-25_13h59.32.778,vts_reward_expectancy_bt_OFFLINE,2022.2.4,59.94268795621936,
0,0,1,0,0,1,0,0,hexagon,circle,0,0,0,0,0,8,8,7,,,,,,,,,,,,,,,,,,,,,,,,,,,,,,,,,,,,,,,,98.02562962999946,98.02562962999946,98.02562962999946,98.02562962999946,98.02562962999946,98.02562962999946,98.02562962999946,98.02562962999946,98.02562962999946,98.02562962999946,a,0.8273349080009211,10,72,0,98.87632146599935,100.37815559599767,,,,,,,,,,,,,,,,,,,,,,,,,,,,,,,,,,,,,,,,,,,,,,,,,,,,,,,,,,,,,,,,,,,,,,32144,2022-10-25_13h59.32.778,vts_reward_expectancy_bt_OFFLINE,2022.2.4,59.94268795621936,
1,0,0,0,0,1,0,0,triangle,circle,0,0,0,0,0,9,9,0,,,,,,,,,,,,,,,,,,,,,,,,,,,,,,,,,,,,,,,,100.8786037539976,100.8786037539976,100.8786037539976,100.8786037539976,100.8786037539976,100.8786037539976,100.8786037539976,100.8786037539976,100.8786037539976,100.8786037539976,a,1.070733584001573,10,82,0,101.98005563499828,103.48148284499985,,,,,,,,,,,,,,,,,,,,,,,,,,,,,,,,,,,,,,,,,,,,,,,,,,,,,,,,,,,,,,,,,,,,,,32144,2022-10-25_13h59.32.778,vts_reward_expectancy_bt_OFFLINE,2022.2.4,59.94268795621936,
0,1,0,0,1,0,0,0,circle,triangle,0,0,0,0,0,10,10,3,,,,,,,,,,,,,,,,,,,,,,,,,,,,,,,,,,,,,,,,103.98209715099802,103.98209715099802,103.98209715099802,103.98209715099802,103.98209715099802,103.98209715099802,103.98209715099802,103.98209715099802,103.98209715099802,103.98209715099802,l,1.1279972710035508,1,83,0,105.13329338399853,106.63491276399873,,,,,,,,,,,,,,,,,,,,,,,,,,,,,,,,,,,,,,,,,,,,,,,,,,,,,,,,,,,,,,,,,,,,,,32144,2022-10-25_13h59.32.778,vts_reward_expectancy_bt_OFFLINE,2022.2.4,59.94268795621936,
0,0,1,0,0,0,0,1,hexagon,star,0,0,0,0,0,11,11,8,,,,,,,,,,,,,,,,,,,,,,,,,,,,,,,,,,,,,,,,107.13554792399736,107.13554792399736,107.13554792399736,107.13554792399736,107.13554792399736,107.13554792399736,107.13554792399736,107.13554792399736,107.13554792399736,107.13554792399736,a,1.2936083620043064,1,84,0,108.45393268399857,109.9554553229973,,,,,,,,,,,,,,,,,,,,,,,,,,,,,,,,,,,,,,,,,,,,,,,,,,,,,,,,,,,,,,,,,,,,,,32144,2022-10-25_13h59.32.778,vts_reward_expectancy_bt_OFFLINE,2022.2.4,59.94268795621936,
0,1,0,0,1,0,0,0,circle,triangle,0,0,0,0,1,0,12,3,,,,,,,,,,,,,,,,,,,,,,,,,,,,,,,,,,,,,,,,110.45598985499964,110.45598985499964,110.45598985499964,110.45598985499964,110.45598985499964,110.45598985499964,110.45598985499964,110.45598985499964,110.45598985499964,110.45598985499964,a,1.05367105500045,10,94,0,111.54046816999835,113.04215352100073,,,,,,,,,,,,,,,,,,,,,,,,,,,,,,,,,,,,,,,,,,,,,,,,,,,,,,,,,,,,,,,,,,,,,,32144,2022-10-25_13h59.32.778,vts_reward_expectancy_bt_OFFLINE,2022.2.4,59.94268795621936,
0,0,0,1,0,0,1,0,star,hexagon,0,0,0,0,1,1,13,11,,,,,,,,,,,,,,,,,,,,,,,,,,,,,,,,,,,,,,,,113.54266155299774,113.54266155299774,113.54266155299774,113.54266155299774,113.54266155299774,113.54266155299774,113.54266155299774,113.54266155299774,113.54266155299774,113.54266155299774,l,1.3849493570014602,1,95,0,114.94438688999799,116.44584821899844,116.44584821899844,,,,,,,,,,,,,,,,,,,,,,,,,,,,,,,,,,,,,,,,,,,,,,,,,,,,,,,,,,,,,,,,,,,,,32144,2022-10-25_13h59.32.778,vts_reward_expectancy_bt_OFFLINE,2022.2.4,59.94268795621936,
0,0,1,0,0,0,0,1,hexagon,star,0,0,0,0,1,2,14,8,,,,,,,,,,,,,,,,,,,,,,,,,,,,,,,,,,,,,,,,116.9465765290006,116.9465765290006,116.9465765290006,116.9465765290006,116.9465765290006,116.9465765290006,116.9465765290006,116.9465765290006,116.9465765290006,116.9465765290006,l,1.5550194880015624,1,96,0,118.53172241399807,120.03336804100036,,,,,,,,,,,,,,,,,,,,,,,,,,,,,,,,,,,,,,,,,,,,,,,,,,,,,,,,,,,,,,,,,,,,,,32144,2022-10-25_13h59.32.778,vts_reward_expectancy_bt_OFFLINE,2022.2.4,59.94268795621936,
0,0,1,0,1,0,0,0,hexagon,triangle,0,0,0,0,1,3,15,6,,,,,,,,,,,,,,,,,,,,,,,,,,,,,,,,,,,,,,,,120.5337826549985,120.5337826549985,120.5337826549985,120.5337826549985,120.5337826549985,120.5337826549985,120.5337826549985,120.5337826549985,120.5337826549985,120.5337826549985,a,2.103477616001328,1,97,0,122.6695385589992,124.17131940499894,,,,,,,,,,,,,,,,,,,,,,,,,,,,,,,,,,,,,,,,,,,,,,,,,,,,,,,,,,,,,,,,,,,,,,32144,2022-10-25_13h59.32.778,vts_reward_expectancy_bt_OFFLINE,2022.2.4,59.94268795621936,
0,0,1,0,0,1,0,0,hexagon,circle,0,0,0,0,1,4,16,7,,,,,,,,,,,,,,,,,,,,,,,,,,,,,,,,,,,,,,,,124.6719110390004,124.6719110390004,124.6719110390004,124.6719110390004,124.6719110390004,124.6719110390004,124.6719110390004,124.6719110390004,124.6719110390004,124.6719110390004,a,2.4780996790032077,1,98,0,127.17455702499865,128.6759343729973,,,,,,,,,,,,,,,,,,,,,,,,,,,,,,,,,,,,,,,,,,,,,,,,,,,,,,,,,,,,,,,,,,,,,,32144,2022-10-25_13h59.32.778,vts_reward_expectancy_bt_OFFLINE,2022.2.4,59.94268795621936,
0,0,0,1,0,1,0,0,star ,circle,0,0,0,0,1,5,17,10,,,,,,,,,,,,,,,,,,,,,,,,,,,,,,,,,,,,,,,,129.17676138299794,129.17676138299794,129.17676138299794,129.17676138299794,129.17676138299794,129.17676138299794,129.17676138299794,129.17676138299794,129.17676138299794,129.17676138299794,l,1.997230753000622,1,99,0,131.19538681599806,132.69720920599866,132.69720920599866,,,,,,,,,,,,,,,,,,,,,,,,,,,,,,,,,,,,,,,,,,,,,,,,,,,,,,,,,,,,,,,,,,,,,32144,2022-10-25_13h59.32.778,vts_reward_expectancy_bt_OFFLINE,2022.2.4,59.94268795621936,
0,1,0,0,0,0,0,1,circle,star,0,0,0,0,1,6,18,5,,,,,,,,,,,,,,,,,,,,,,,,,,,,,,,,,,,,,,,,133.19756731599773,133.19756731599773,133.19756731599773,133.19756731599773,133.19756731599773,133.19756731599773,133.19756731599773,133.19756731599773,133.19756731599773,133.19756731599773,l,1.8874105840004631,1,100,0,135.1163345899986,136.6180989059976,,,,,,,,,,,,,,,,,,,,,,,,,,,,,,,,,,,,,,,,,,,,,,,,,,,,,,,,,,,,,,,,,,,,,,32144,2022-10-25_13h59.32.778,vts_reward_expectancy_bt_OFFLINE,2022.2.4,59.94268795621936,
1,0,0,0,0,0,0,1,triangle,star,0,0,0,0,1,7,19,2,,,,,,,,,,,,,,,,,,,,,,,,,,,,,,,,,,,,,,,,137.1188151259994,137.1188151259994,137.1188151259994,137.1188151259994,137.1188151259994,137.1188151259994,137.1188151259994,137.1188151259994,137.1188151259994,137.1188151259994,l,3.7591750560022774,10,110,0,140.9062459429988,142.40783720900072,,,,,,,,,,,,,,,,,,,,,,,,,,,,,,,,,,,,,,,,,,,,,,,,,,,,,,,,,,,,,,,,,,,,,,32144,2022-10-25_13h59.32.778,vts_reward_expectancy_bt_OFFLINE,2022.2.4,59.94268795621936,
1,0,0,0,0,0,1,0,triangle,hexagon,0,0,0,0,1,8,20,1,,,,,,,,,,,,,,,,,,,,,,,,,,,,,,,,,,,,,,,,142.90849597799752,142.90849597799752,142.90849597799752,142.90849597799752,142.90849597799752,142.90849597799752,142.90849597799752,142.90849597799752,142.90849597799752,142.90849597799752,a,1.3370908580036485,10,120,0,144.27672844799963,145.7781958710002,,,,,,,,,,,,,,,,,,,,,,,,,,,,,,,,,,,,,,,,,,,,,,,,,,,,,,,,,,,,,,,,,,,,,,32144,2022-10-25_13h59.32.778,vts_reward_expectancy_bt_OFFLINE,2022.2.4,59.94268795621936,
1,0,0,0,0,1,0,0,triangle,circle,0,0,0,0,1,9,21,0,,,,,,,,,,,,,,,,,,,,,,,,,,,,,,,,,,,,,,,,146.2787848730004,146.2787848730004,146.2787848730004,146.2787848730004,146.2787848730004,146.2787848730004,146.2787848730004,146.2787848730004,146.2787848730004,146.2787848730004,a,0.9517202810020535,10,130,0,147.26319343399882,148.76502381499813,,,,,,,,,,,,,,,,,,,,,,,,,,,,,,,,,,,,,,,,,,,,,,,,,,,,,,,,,,,,,,,,,,,,,,32144,2022-10-25_13h59.32.778,vts_reward_expectancy_bt_OFFLINE,2022.2.4,59.94268795621936,
0,1,0,0,0,0,1,0,circle,hexagon,0,0,0,0,1,10,22,4,,,,,,,,,,,,,,,,,,,,,,,,,,,,,,,,,,,,,,,,149.2655732639978,149.2655732639978,149.2655732639978,149.2655732639978,149.2655732639978,149.2655732639978,149.2655732639978,149.2655732639978,149.2655732639978,149.2655732639978,a,2.236397423002927,1,131,0,151.53468095299831,153.03633146100037,,,,,,,,,,,,,,,,,,,,,,,,,,,,,,,,,,,,,,,,,,,,,,,,,,,,,,,,,,,,,,,,,,,,,,32144,2022-10-25_13h59.32.778,vts_reward_expectancy_bt_OFFLINE,2022.2.4,59.94268795621936,
0,0,0,1,1,0,0,0,star,triangle,0,0,0,0,1,11,23,9,,,,,,,,,,,,,,,,,,,,,,,,,,,,,,,,,,,,,,,,153.5367400239993,153.5367400239993,153.5367400239993,153.5367400239993,153.5367400239993,153.5367400239993,153.5367400239993,153.5367400239993,153.5367400239993,153.5367400239993,a,1.0612226690027455,10,141,0,154.62121916099932,156.1229260580003,,,,,,,,,,,,,,,,,,,,,,,,,,,,,,,,,,,,,,,,,,,,,,,,,,,,,,,,,,,,,,,,,,,,,,32144,2022-10-25_13h59.32.778,vts_reward_expectancy_bt_OFFLINE,2022.2.4,59.94268795621936,
1,0,0,0,0,0,1,0,triangle,hexagon,0,0,0,0,2,0,24,1,,,,,,,,,,,,,,,,,,,,,,,,,,,,,,,,,,,,,,,,156.62347322300047,156.62347322300047,156.62347322300047,156.62347322300047,156.62347322300047,156.62347322300047,156.62347322300047,156.62347322300047,156.62347322300047,156.62347322300047,l,1.4221461990018724,1,142,0,158.07524954600012,159.57674163999764,,,,,,,,,,,,,,,,,,,,,,,,,,,,,,,,,,,,,,,,,,,,,,,,,,,,,,,,,,,,,,,,,,,,,,32144,2022-10-25_13h59.32.778,vts_reward_expectancy_bt_OFFLINE,2022.2.4,59.94268795621936,
1,0,0,0,0,1,0,0,triangle,circle,0,0,0,0,2,1,25,0,,,,,,,,,,,,,,,,,,,,,,,,,,,,,,,,,,,,,,,,160.0772886449995,160.0772886449995,160.0772886449995,160.0772886449995,160.0772886449995,160.0772886449995,160.0772886449995,160.0772886449995,160.0772886449995,160.0772886449995,l,2.83230720100255,10,152,0,162.93037935100074,164.43223720400056,,,,,,,,,,,,,,,,,,,,,,,,,,,,,,,,,,,,,,,,,,,,,,,,,,,,,,,,,,,,,,,,,,,,,,32144,2022-10-25_13h59.32.778,vts_reward_expectancy_bt_OFFLINE,2022.2.4,59.94268795621936,
0,0,1,0,0,0,0,1,hexagon,star,0,0,0,0,2,2,26,8,,,,,,,,,,,,,,,,,,,,,,,,,,,,,,,,,,,,,,,,164.9327014949995,164.9327014949995,164.9327014949995,164.9327014949995,164.9327014949995,164.9327014949995,164.9327014949995,164.9327014949995,164.9327014949995,164.9327014949995,l,0.9043718690008973,10,162,0,165.86706781999965,167.36879240800044,,,,,,,,,,,,,,,,,,,,,,,,,,,,,,,,,,,,,,,,,,,,,,,,,,,,,,,,,,,,,,,,,,,,,,32144,2022-10-25_13h59.32.778,vts_reward_expectancy_bt_OFFLINE,2022.2.4,59.94268795621936,
0,0,1,0,0,1,0,0,hexagon,circle,0,0,0,0,2,3,27,7,,,,,,,,,,,,,,,,,,,,,,,,,,,,,,,,,,,,,,,,167.86934072099757,167.86934072099757,167.86934072099757,167.86934072099757,167.86934072099757,167.86934072099757,167.86934072099757,167.86934072099757,167.86934072099757,167.86934072099757,a,0.9436259930043889,1,163,0,168.8370371710007,170.33867289800037,,,,,,,,,,,,,,,,,,,,,,,,,,,,,,,,,,,,,,,,,,,,,,,,,,,,,,,,,,,,,,,,,,,,,,32144,2022-10-25_13h59.32.778,vts_reward_expectancy_bt_OFFLINE,2022.2.4,59.94268795621936,
0,0,0,1,0,1,0,0,star ,circle,0,0,0,0,2,4,28,10,,,,,,,,,,,,,,,,,,,,,,,,,,,,,,,,,,,,,,,,170.8392568149975,170.8392568149975,170.8392568149975,170.8392568149975,170.8392568149975,170.8392568149975,170.8392568149975,170.8392568149975,170.8392568149975,170.8392568149975,a,0.8784511920021032,1,164,0,171.74016558400035,173.24183124099727,,,,,,,,,,,,,,,,,,,,,,,,,,,,,,,,,,,,,,,,,,,,,,,,,,,,,,,,,,,,,,,,,,,,,,32144,2022-10-25_13h59.32.778,vts_reward_expectancy_bt_OFFLINE,2022.2.4,59.94268795621936,
0,1,0,0,0,0,0,1,circle,star,0,0,0,0,2,5,29,5,,,,,,,,,,,,,,,,,,,,,,,,,,,,,,,,,,,,,,,,173.74235705499814,173.74235705499814,173.74235705499814,173.74235705499814,173.74235705499814,173.74235705499814,173.74235705499814,173.74235705499814,173.74235705499814,173.74235705499814,a,0.8466676630014263,10,174,0,174.61013980999996,176.11165442299898,,,,,,,,,,,,,,,,,,,,,,,,,,,,,,,,,,,,,,,,,,,,,,,,,,,,,,,,,,,,,,,,,,,,,,32144,2022-10-25_13h59.32.778,vts_reward_expectancy_bt_OFFLINE,2022.2.4,59.94268795621936,
0,1,0,0,0,0,1,0,circle,hexagon,0,0,0,0,2,6,30,4,,,,,,,,,,,,,,,,,,,,,,,,,,,,,,,,,,,,,,,,176.6121096099996,176.6121096099996,176.6121096099996,176.6121096099996,176.6121096099996,176.6121096099996,176.6121096099996,176.6121096099996,176.6121096099996,176.6121096099996,l,1.425955499002157,10,184,0,178.0637920049994,179.56547258299906,,,,,,,,,,,,,,,,,,,,,,,,,,,,,,,,,,,,,,,,,,,,,,,,,,,,,,,,,,,,,,,,,,,,,,32144,2022-10-25_13h59.32.778,vts_reward_expectancy_bt_OFFLINE,2022.2.4,59.94268795621936,
0,1,0,0,1,0,0,0,circle,triangle,0,0,0,0,2,7,31,3,,,,,,,,,,,,,,,,,,,,,,,,,,,,,,,,,,,,,,,,180.0661407999978,180.0661407999978,180.0661407999978,180.0661407999978,180.0661407999978,180.0661407999978,180.0661407999978,180.0661407999978,180.0661407999978,180.0661407999978,l,1.5397987659998762,1,185,0,181.6344121410002,183.1360748429979,,,,,,,,,,,,,,,,,,,,,,,,,,,,,,,,,,,,,,,,,,,,,,,,,,,,,,,,,,,,,,,,,,,,,,32144,2022-10-25_13h59.32.778,vts_reward_expectancy_bt_OFFLINE,2022.2.4,59.94268795621936,
1,0,0,0,0,0,0,1,triangle,star,0,0,0,0,2,8,32,2,,,,,,,,,,,,,,,,,,,,,,,,,,,,,,,,,,,,,,,,183.63650326599964,183.63650326599964,183.63650326599964,183.63650326599964,183.63650326599964,183.63650326599964,183.63650326599964,183.63650326599964,183.63650326599964,183.63650326599964,l,1.5695398900024884,1,186,0,185.2383927689989,186.74014612599785,,,,,,,,,,,,,,,,,,,,,,,,,,,,,,,,,,,,,,,,,,,,,,,,,,,,,,,,,,,,,,,,,,,,,,32144,2022-10-25_13h59.32.778,vts_reward_expectancy_bt_OFFLINE,2022.2.4,59.94268795621936,
0,0,0,1,1,0,0,0,star,triangle,0,0,0,0,2,9,33,9,,,,,,,,,,,,,,,,,,,,,,,,,,,,,,,,,,,,,,,,187.24086657599764,187.24086657599764,187.24086657599764,187.24086657599764,187.24086657599764,187.24086657599764,187.24086657599764,187.24086657599764,187.24086657599764,187.24086657599764,l,1.5257463800044206,1,187,0,188.7922678879986,190.29404326999793,,,,,,,,,,,,,,,,,,,,,,,,,,,,,,,,,,,,,,,,,,,,,,,,,,,,,,,,,,,,,,,,,,,,,,32144,2022-10-25_13h59.32.778,vts_reward_expectancy_bt_OFFLINE,2022.2.4,59.94268795621936,
0,0,0,1,0,0,1,0,star,hexagon,0,0,0,0,2,10,34,11,,,,,,,,,,,,,,,,,,,,,,,,,,,,,,,,,,,,,,,,190.79456059400036,190.79456059400036,190.79456059400036,190.79456059400036,190.79456059400036,190.79456059400036,190.79456059400036,190.79456059400036,190.79456059400036,190.79456059400036,a,1.2997792060014035,10,197,0,192.11262241000077,193.6141606199999,,,,,,,,,,,,,,,,,,,,,,,,,,,,,,,,,,,,,,,,,,,,,,,,,,,,,,,,,,,,,,,,,,,,,,32144,2022-10-25_13h59.32.778,vts_reward_expectancy_bt_OFFLINE,2022.2.4,59.94268795621936,
0,0,1,0,1,0,0,0,hexagon,triangle,0,0,0,0,2,11,35,6,,,,,,,,,,,,,,,,,,,,,,,,,,,,,,,,,,,,,,,,194.11487899299755,194.11487899299755,194.11487899299755,194.11487899299755,194.11487899299755,194.11487899299755,194.11487899299755,194.11487899299755,194.11487899299755,194.11487899299755,l,0.835318499001005,10,207,0,194.9826916130005,196.48409820400047,,,,,,,,,,,,,,,,,,,,,,,,,,,,,,,,,,,,,,,,,,,,,,,,,,,,,,,,,,,,,,,,,,,,,,32144,2022-10-25_13h59.32.778,vts_reward_expectancy_bt_OFFLINE,2022.2.4,59.94268795621936,
0,1,0,0,1,0,0,0,circle,triangle,0,0,0,0,3,0,36,3,,,,,,,,,,,,,,,,,,,,,,,,,,,,,,,,,,,,,,,,196.98476907499935,196.98476907499935,196.98476907499935,196.98476907499935,196.98476907499935,196.98476907499935,196.98476907499935,196.98476907499935,196.98476907499935,196.98476907499935,a,0.8686602920024598,10,217,0,197.88587718299823,199.38730624399977,,,,,,,,,,,,,,,,,,,,,,,,,,,,,,,,,,,,,,,,,,,,,,,,,,,,,,,,,,,,,,,,,,,,,,32144,2022-10-25_13h59.32.778,vts_reward_expectancy_bt_OFFLINE,2022.2.4,59.94268795621936,
0,0,0,1,1,0,0,0,star,triangle,0,0,0,0,3,1,37,9,,,,,,,,,,,,,,,,,,,,,,,,,,,,,,,,,,,,,,,,199.88799871800074,199.88799871800074,199.88799871800074,199.88799871800074,199.88799871800074,199.88799871800074,199.88799871800074,199.88799871800074,199.88799871800074,199.88799871800074,l,1.0130209180024394,1,218,0,200.9224917979991,202.42393563299993,202.42393563299993,,,,,,,,,,,,,,,,,,,,,,,,,,,,,,,,,,,,,,,,,,,,,,,,,,,,,,,,,,,,,,,,,,,,,32144,2022-10-25_13h59.32.778,vts_reward_expectancy_bt_OFFLINE,2022.2.4,59.94268795621936,
0,0,1,0,1,0,0,0,hexagon,triangle,0,0,0,0,3,2,38,6,,,,,,,,,,,,,,,,,,,,,,,,,,,,,,,,,,,,,,,,202.9246005549976,202.9246005549976,202.9246005549976,202.9246005549976,202.9246005549976,202.9246005549976,202.9246005549976,202.9246005549976,202.9246005549976,202.9246005549976,l,0.5682725500009838,10,228,0,203.52542477399766,205.02685900600045,,,,,,,,,,,,,,,,,,,,,,,,,,,,,,,,,,,,,,,,,,,,,,,,,,,,,,,,,,,,,,,,,,,,,,32144,2022-10-25_13h59.32.778,vts_reward_expectancy_bt_OFFLINE,2022.2.4,59.94268795621936,
0,0,0,1,0,1,0,0,star ,circle,0,0,0,0,3,3,39,10,,,,,,,,,,,,,,,,,,,,,,,,,,,,,,,,,,,,,,,,205.52732651100087,205.52732651100087,205.52732651100087,205.52732651100087,205.52732651100087,205.52732651100087,205.52732651100087,205.52732651100087,205.52732651100087,205.52732651100087,a,0.9998327140019683,10,238,0,206.54525711099996,208.0470204589983,208.0470204589983,,,,,,,,,,,,,,,,,,,,,,,,,,,,,,,,,,,,,,,,,,,,,,,,,,,,,,,,,,,,,,,,,,,,,32144,2022-10-25_13h59.32.778,vts_reward_expectancy_bt_OFFLINE,2022.2.4,59.94268795621936,
1,0,0,0,0,0,0,1,triangle,star,0,0,0,0,3,4,40,2,,,,,,,,,,,,,,,,,,,,,,,,,,,,,,,,,,,,,,,,208.54736564799896,208.54736564799896,208.54736564799896,208.54736564799896,208.54736564799896,208.54736564799896,208.54736564799896,208.54736564799896,208.54736564799896,208.54736564799896,a,1.9146713740010455,1,239,0,210.4828124150008,211.9847922000008,,,,,,,,,,,,,,,,,,,,,,,,,,,,,,,,,,,,,,,,,,,,,,,,,,,,,,,,,,,,,,,,,,,,,,32144,2022-10-25_13h59.32.778,vts_reward_expectancy_bt_OFFLINE,2022.2.4,59.94268795621936,
0,1,0,0,0,0,0,1,circle,star,0,0,0,0,3,5,41,5,,,,,,,,,,,,,,,,,,,,,,,,,,,,,,,,,,,,,,,,212.4851795049981,212.4851795049981,212.4851795049981,212.4851795049981,212.4851795049981,212.4851795049981,212.4851795049981,212.4851795049981,212.4851795049981,212.4851795049981,l,2.8804130910029926,10,249,0,215.38838896900052,216.88996086800034,,,,,,,,,,,,,,,,,,,,,,,,,,,,,,,,,,,,,,,,,,,,,,,,,,,,,,,,,,,,,,,,,,,,,,32144,2022-10-25_13h59.32.778,vts_reward_expectancy_bt_OFFLINE,2022.2.4,59.94268795621936,
0,0,1,0,0,0,0,1,hexagon,star,0,0,0,0,3,6,42,8,,,,,,,,,,,,,,,,,,,,,,,,,,,,,,,,,,,,,,,,217.3907501149988,217.3907501149988,217.3907501149988,217.3907501149988,217.3907501149988,217.3907501149988,217.3907501149988,217.3907501149988,217.3907501149988,217.3907501149988,a,1.752354735002882,10,259,0,219.17589778099864,220.6774564999978,,,,,,,,,,,,,,,,,,,,,,,,,,,,,,,,,,,,,,,,,,,,,,,,,,,,,,,,,,,,,,,,,,,,,,32144,2022-10-25_13h59.32.778,vts_reward_expectancy_bt_OFFLINE,2022.2.4,59.94268795621936,
1,0,0,0,0,1,0,0,triangle,circle,0,0,0,0,3,7,43,0,,,,,,,,,,,,,,,,,,,,,,,,,,,,,,,,,,,,,,,,221.17832402799831,221.17832402799831,221.17832402799831,221.17832402799831,221.17832402799831,221.17832402799831,221.17832402799831,221.17832402799831,221.17832402799831,221.17832402799831,l,1.5954299360018922,10,269,0,222.7965409899989,224.298131962998,,,,,,,,,,,,,,,,,,,,,,,,,,,,,,,,,,,,,,,,,,,,,,,,,,,,,,,,,,,,,,,,,,,,,,32144,2022-10-25_13h59.32.778,vts_reward_expectancy_bt_OFFLINE,2022.2.4,59.94268795621936,
0,1,0,0,0,0,1,0,circle,hexagon,0,0,0,0,3,8,44,4,,,,,,,,,,,,,,,,,,,,,,,,,,,,,,,,,,,,,,,,224.79891843899895,224.79891843899895,224.79891843899895,224.79891843899895,224.79891843899895,224.79891843899895,224.79891843899895,224.79891843899895,224.79891843899895,224.79891843899895,l,2.470323075001943,1,270,0,227.30166280999765,228.80302436499915,,,,,,,,,,,,,,,,,,,,,,,,,,,,,,,,,,,,,,,,,,,,,,,,,,,,,,,,,,,,,,,,,,,,,,32144,2022-10-25_13h59.32.778,vts_reward_expectancy_bt_OFFLINE,2022.2.4,59.94268795621936,
0,0,1,0,0,1,0,0,hexagon,circle,0,0,0,0,3,9,45,7,,,,,,,,,,,,,,,,,,,,,,,,,,,,,,,,,,,,,,,,229.30364547899808,229.30364547899808,229.30364547899808,229.30364547899808,229.30364547899808,229.30364547899808,229.30364547899808,229.30364547899808,229.30364547899808,229.30364547899808,l,1.2692551220025052,1,271,0,230.6051796799984,232.10674277299768,,,,,,,,,,,,,,,,,,,,,,,,,,,,,,,,,,,,,,,,,,,,,,,,,,,,,,,,,,,,,,,,,,,,,,32144,2022-10-25_13h59.32.778,vts_reward_expectancy_bt_OFFLINE,2022.2.4,59.94268795621936,
1,0,0,0,0,0,1,0,triangle,hexagon,0,0,0,0,3,10,46,1,,,,,,,,,,,,,,,,,,,,,,,,,,,,,,,,,,,,,,,,232.6074680849997,232.6074680849997,232.6074680849997,232.6074680849997,232.6074680849997,232.6074680849997,232.6074680849997,232.6074680849997,232.6074680849997,232.6074680849997,a,1.775522895000904,1,272,0,234.40940946999763,235.9111167129995,,,,,,,,,,,,,,,,,,,,,,,,,,,,,,,,,,,,,,,,,,,,,,,,,,,,,,,,,,,,,,,,,,,,,,32144,2022-10-25_13h59.32.778,vts_reward_expectancy_bt_OFFLINE,2022.2.4,59.94268795621936,
0,0,0,1,0,0,1,0,star,hexagon,0,0,0,0,3,11,47,11,,,,,,,,,,,,,,,,,,,,,,,,,,,,,,,,,,,,,,,,236.41156158399826,236.41156158399826,236.41156158399826,236.41156158399826,236.41156158399826,236.41156158399826,236.41156158399826,236.41156158399826,236.41156158399826,236.41156158399826,l,1.5783480390018667,1,273,0,238.0133775430004,239.5149377630005,,,,,,,,,,,,,,,,,,,,,,,,,,,,,,,,,,,,,,,,,,,,,,,,,,,,,,,,,,,,,,,,,,,,,,32144,2022-10-25_13h59.32.778,vts_reward_expectancy_bt_OFFLINE,2022.2.4,59.94268795621936,
0,0,0,1,0,1,0,0,star ,circle,1,0,1,0,0,0,0,10,,,,,,,,,,,,,,,,,,,,,,,,,,,,,,,,,,,,,,,,290.6880607380008,290.6880607380008,290.6880607380008,290.6880607380008,290.6880607380008,290.6880607380008,290.6880607380008,290.6880607380008,290.6880607380008,290.6880607380008,l,1.5507036230010272,1,274,1,292.2565013059975,293.75817155299956,,,,,,,,,,,,,,,,,,,,,,,,,,,,,,,,,,,,,,,,,,,,,,,,,,,,,,,,,,,,,,,,,,,,,,32144,2022-10-25_13h59.32.778,vts_reward_expectancy_bt_OFFLINE,2022.2.4,59.94268795621936,
0,1,0,0,0,0,1,0,circle,hexagon,1,0,1,0,0,1,1,4,,,,,,,,,,,,,,,,,,,,,,,,,,,,,,,,,,,,,,,,294.25869325299936,294.25869325299936,294.25869325299936,294.25869325299936,294.25869325299936,294.25869325299936,294.25869325299936,294.25869325299936,294.25869325299936,294.25869325299936,l,1.2992530890005582,1,275,1,295.5769316429978,297.0784060099977,,,,,,,,,,,,,,,,,,,,,,,,,,,,,,,,,,,,,,,,,,,,,,,,,,,,,,,,,,,,,,,,,,,,,,32144,2022-10-25_13h59.32.778,vts_reward_expectancy_bt_OFFLINE,2022.2.4,59.94268795621936,
0,1,0,0,1,0,0,0,circle,triangle,1,0,1,0,0,2,2,3,,,,,,,,,,,,,,,,,,,,,,,,,,,,,,,,,,,,,,,,297.5790707800006,297.5790707800006,297.5790707800006,297.5790707800006,297.5790707800006,297.5790707800006,297.5790707800006,297.5790707800006,297.5790707800006,297.5790707800006,a,1.3066172159997222,10,285,1,298.9140229129989,300.41570839999986,,,,,,,,,,,,,,,,,,,,,,,,,,,,,,,,,,,,,,,,,,,,,,,,,,,,,,,,,,,,,,,,,,,,,,32144,2022-10-25_13h59.32.778,vts_reward_expectancy_bt_OFFLINE,2022.2.4,59.94268795621936,
0,0,1,0,1,0,0,0,hexagon,triangle,1,0,1,0,0,3,3,6,,,,,,,,,,,,,,,,,,,,,,,,,,,,,,,,,,,,,,,,300.9161527190008,300.9161527190008,300.9161527190008,300.9161527190008,300.9161527190008,300.9161527190008,300.9161527190008,300.9161527190008,300.9161527190008,300.9161527190008,l,2.610365737000393,10,295,1,303.5523108729976,305.054003467998,,,,,,,,,,,,,,,,,,,,,,,,,,,,,,,,,,,,,,,,,,,,,,,,,,,,,,,,,,,,,,,,,,,,,,32144,2022-10-25_13h59.32.778,vts_reward_expectancy_bt_OFFLINE,2022.2.4,59.94268795621936,
0,1,0,0,0,0,0,1,circle,star,1,0,1,0,0,4,4,5,,,,,,,,,,,,,,,,,,,,,,,,,,,,,,,,,,,,,,,,305.55461374399965,305.55461374399965,305.55461374399965,305.55461374399965,305.55461374399965,305.55461374399965,305.55461374399965,305.55461374399965,305.55461374399965,305.55461374399965,l,1.7469273910028278,10,305,1,307.32321672000035,308.8246663530008,,,,,,,,,,,,,,,,,,,,,,,,,,,,,,,,,,,,,,,,,,,,,,,,,,,,,,,,,,,,,,,,,,,,,,32144,2022-10-25_13h59.32.778,vts_reward_expectancy_bt_OFFLINE,2022.2.4,59.94268795621936,
1,0,0,0,0,1,0,0,triangle,circle,1,0,1,0,0,5,5,0,,,,,,,,,,,,,,,,,,,,,,,,,,,,,,,,,,,,,,,,309.32542169299995,309.32542169299995,309.32542169299995,309.32542169299995,309.32542169299995,309.32542169299995,309.32542169299995,309.32542169299995,309.32542169299995,309.32542169299995,l,1.9442358080013946,10,315,1,311.2943007499998,312.7958253709985,,,,,,,,,,,,,,,,,,,,,,,,,,,,,,,,,,,,,,,,,,,,,,,,,,,,,,,,,,,,,,,,,,,,,,32144,2022-10-25_13h59.32.778,vts_reward_expectancy_bt_OFFLINE,2022.2.4,59.94268795621936,
1,0,0,0,0,0,0,1,triangle,star,1,0,1,0,0,6,6,2,,,,,,,,,,,,,,,,,,,,,,,,,,,,,,,,,,,,,,,,313.29638476499895,313.29638476499895,313.29638476499895,313.29638476499895,313.29638476499895,313.29638476499895,313.29638476499895,313.29638476499895,313.29638476499895,313.29638476499895,l,1.4771974910036079,10,325,1,314.7980581890006,316.2997741149993,,,,,,,,,,,,,,,,,,,,,,,,,,,,,,,,,,,,,,,,,,,,,,,,,,,,,,,,,,,,,,,,,,,,,,32144,2022-10-25_13h59.32.778,vts_reward_expectancy_bt_OFFLINE,2022.2.4,59.94268795621936,
0,0,0,1,1,0,0,0,star,triangle,1,0,1,0,0,7,7,9,,,,,,,,,,,,,,,,,,,,,,,,,,,,,,,,,,,,,,,,316.80029258099967,316.80029258099967,316.80029258099967,316.80029258099967,316.80029258099967,316.80029258099967,316.80029258099967,316.80029258099967,316.80029258099967,316.80029258099967,l,2.1498960130047635,10,335,1,318.9694068139979,320.47091505999924,,,,,,,,,,,,,,,,,,,,,,,,,,,,,,,,,,,,,,,,,,,,,,,,,,,,,,,,,,,,,,,,,,,,,,32144,2022-10-25_13h59.32.778,vts_reward_expectancy_bt_OFFLINE,2022.2.4,59.94268795621936,
0,0,1,0,0,0,0,1,hexagon,star,1,0,1,0,0,8,8,8,,,,,,,,,,,,,,,,,,,,,,,,,,,,,,,,,,,,,,,,320.97165546500037,320.97165546500037,320.97165546500037,320.97165546500037,320.97165546500037,320.97165546500037,320.97165546500037,320.97165546500037,320.97165546500037,320.97165546500037,l,1.5054019790004531,10,345,1,322.5065088129995,324.0081289029986,,,,,,,,,,,,,,,,,,,,,,,,,,,,,,,,,,,,,,,,,,,,,,,,,,,,,,,,,,,,,,,,,,,,,,32144,2022-10-25_13h59.32.778,vts_reward_expectancy_bt_OFFLINE,2022.2.4,59.94268795621936,
0,0,1,0,0,1,0,0,hexagon,circle,1,0,1,0,0,9,9,7,,,,,,,,,,,,,,,,,,,,,,,,,,,,,,,,,,,,,,,,324.50879134500065,324.50879134500065,324.50879134500065,324.50879134500065,324.50879134500065,324.50879134500065,324.50879134500065,324.50879134500065,324.50879134500065,324.50879134500065,a,3.0402295349995256,10,355,1,327.5789108209974,329.08052450899777,,,,,,,,,,,,,,,,,,,,,,,,,,,,,,,,,,,,,,,,,,,,,,,,,,,,,,,,,,,,,,,,,,,,,,32144,2022-10-25_13h59.32.778,vts_reward_expectancy_bt_OFFLINE,2022.2.4,59.94268795621936,
1,0,0,0,0,0,1,0,triangle,hexagon,1,0,1,0,0,10,10,1,,,,,,,,,,,,,,,,,,,,,,,,,,,,,,,,,,,,,,,,329.5811219999996,329.5811219999996,329.5811219999996,329.5811219999996,329.5811219999996,329.5811219999996,329.5811219999996,329.5811219999996,329.5811219999996,329.5811219999996,l,1.8180332310039375,1,356,1,331.41639828500047,332.9181394579973,332.9181394579973,,,,,,,,,,,,,,,,,,,,,,,,,,,,,,,,,,,,,,,,,,,,,,,,,,,,,,,,,,,,,,,,,,,,,32144,2022-10-25_13h59.32.778,vts_reward_expectancy_bt_OFFLINE,2022.2.4,59.94268795621936,
0,0,0,1,0,0,1,0,star,hexagon,1,0,1,0,0,11,11,11,,,,,,,,,,,,,,,,,,,,,,,,,,,,,,,,,,,,,,,,333.4186942109991,333.4186942109991,333.4186942109991,333.4186942109991,333.4186942109991,333.4186942109991,333.4186942109991,333.4186942109991,333.4186942109991,333.4186942109991,l,1.7076252560036664,10,366,1,335.15371381399746,336.6553833679973,,,,,,,,,,,,,,,,,,,,,,,,,,,,,,,,,,,,,,,,,,,,,,,,,,,,,,,,,,,,,,,,,,,,,,32144,2022-10-25_13h59.32.778,vts_reward_expectancy_bt_OFFLINE,2022.2.4,59.94268795621936,
0,1,0,0,0,0,1,0,circle,hexagon,1,0,1,0,1,0,12,4,,,,,,,,,,,,,,,,,,,,,,,,,,,,,,,,,,,,,,,,337.15615843499836,337.15615843499836,337.15615843499836,337.15615843499836,337.15615843499836,337.15615843499836,337.15615843499836,337.15615843499836,337.15615843499836,337.15615843499836,a,1.864937528000155,10,376,1,339.04153558100006,340.5432571979982,,,,,,,,,,,,,,,,,,,,,,,,,,,,,,,,,,,,,,,,,,,,,,,,,,,,,,,,,,,,,,,,,,,,,,32144,2022-10-25_13h59.32.778,vts_reward_expectancy_bt_OFFLINE,2022.2.4,59.94268795621936,
0,1,0,0,0,0,0,1,circle,star,1,0,1,0,1,1,13,5,,,,,,,,,,,,,,,,,,,,,,,,,,,,,,,,,,,,,,,,341.0437637399991,341.0437637399991,341.0437637399991,341.0437637399991,341.0437637399991,341.0437637399991,341.0437637399991,341.0437637399991,341.0437637399991,341.0437637399991,l,1.8740344360048766,10,386,1,342.94578213599743,344.44744768300006,,,,,,,,,,,,,,,,,,,,,,,,,,,,,,,,,,,,,,,,,,,,,,,,,,,,,,,,,,,,,,,,,,,,,,32144,2022-10-25_13h59.32.778,vts_reward_expectancy_bt_OFFLINE,2022.2.4,59.94268795621936,
0,1,0,0,1,0,0,0,circle,triangle,1,0,1,0,1,2,14,3,,,,,,,,,,,,,,,,,,,,,,,,,,,,,,,,,,,,,,,,344.94775721800033,344.94775721800033,344.94775721800033,344.94775721800033,344.94775721800033,344.94775721800033,344.94775721800033,344.94775721800033,344.94775721800033,344.94775721800033,a,1.3862403650018678,10,396,1,346.3662092779996,347.86801085799743,,,,,,,,,,,,,,,,,,,,,,,,,,,,,,,,,,,,,,,,,,,,,,,,,,,,,,,,,,,,,,,,,,,,,,32144,2022-10-25_13h59.32.778,vts_reward_expectancy_bt_OFFLINE,2022.2.4,59.94268795621936,
1,0,0,0,0,0,0,1,triangle,star,1,0,1,0,1,3,15,2,,,,,,,,,,,,,,,,,,,,,,,,,,,,,,,,,,,,,,,,348.3683819430007,348.3683819430007,348.3683819430007,348.3683819430007,348.3683819430007,348.3683819430007,348.3683819430007,348.3683819430007,348.3683819430007,348.3683819430007,l,1.17269569400014,1,397,1,349.5698445929993,351.07150568900033,,,,,,,,,,,,,,,,,,,,,,,,,,,,,,,,,,,,,,,,,,,,,,,,,,,,,,,,,,,,,,,,,,,,,,32144,2022-10-25_13h59.32.778,vts_reward_expectancy_bt_OFFLINE,2022.2.4,59.94268795621936,
0,0,0,1,1,0,0,0,star,triangle,1,0,1,0,1,4,16,9,,,,,,,,,,,,,,,,,,,,,,,,,,,,,,,,,,,,,,,,351.5721054130008,351.5721054130008,351.5721054130008,351.5721054130008,351.5721054130008,351.5721054130008,351.5721054130008,351.5721054130008,351.5721054130008,351.5721054130008,a,1.9779765860039333,10,407,1,353.57446336000066,355.07583943499776,,,,,,,,,,,,,,,,,,,,,,,,,,,,,,,,,,,,,,,,,,,,,,,,,,,,,,,,,,,,,,,,,,,,,,32144,2022-10-25_13h59.32.778,vts_reward_expectancy_bt_OFFLINE,2022.2.4,59.94268795621936,
0,0,0,1,0,0,1,0,star,hexagon,1,0,1,0,1,5,17,11,,,,,,,,,,,,,,,,,,,,,,,,,,,,,,,,,,,,,,,,355.5764083039976,355.5764083039976,355.5764083039976,355.5764083039976,355.5764083039976,355.5764083039976,355.5764083039976,355.5764083039976,355.5764083039976,355.5764083039976,a,0.8292852390040935,10,417,1,356.4272392139974,357.92905498599794,,,,,,,,,,,,,,,,,,,,,,,,,,,,,,,,,,,,,,,,,,,,,,,,,,,,,,,,,,,,,,,,,,,,,,32144,2022-10-25_13h59.32.778,vts_reward_expectancy_bt_OFFLINE,2022.2.4,59.94268795621936,
0,0,1,0,1,0,0,0,hexagon,triangle,1,0,1,0,1,6,18,6,,,,,,,,,,,,,,,,,,,,,,,,,,,,,,,,,,,,,,,,358.4296912200007,358.4296912200007,358.4296912200007,358.4296912200007,358.4296912200007,358.4296912200007,358.4296912200007,358.4296912200007,358.4296912200007,358.4296912200007,l,1.2327655790031713,1,418,1,359.6810823479973,361.1826579389999,,,,,,,,,,,,,,,,,,,,,,,,,,,,,,,,,,,,,,,,,,,,,,,,,,,,,,,,,,,,,,,,,,,,,,32144,2022-10-25_13h59.32.778,vts_reward_expectancy_bt_OFFLINE,2022.2.4,59.94268795621936,
0,0,1,0,0,1,0,0,hexagon,circle,1,0,1,0,1,7,19,7,,,,,,,,,,,,,,,,,,,,,,,,,,,,,,,,,,,,,,,,361.6831603449973,361.6831603449973,361.6831603449973,361.6831603449973,361.6831603449973,361.6831603449973,361.6831603449973,361.6831603449973,361.6831603449973,361.6831603449973,a,1.1619774870050605,10,428,1,362.8677358879977,364.36932200999945,,,,,,,,,,,,,,,,,,,,,,,,,,,,,,,,,,,,,,,,,,,,,,,,,,,,,,,,,,,,,,,,,,,,,,32144,2022-10-25_13h59.32.778,vts_reward_expectancy_bt_OFFLINE,2022.2.4,59.94268795621936,
0,0,1,0,0,0,0,1,hexagon,star,1,0,1,0,1,8,20,8,,,,,,,,,,,,,,,,,,,,,,,,,,,,,,,,,,,,,,,,364.87011432099825,364.87011432099825,364.87011432099825,364.87011432099825,364.87011432099825,364.87011432099825,364.87011432099825,364.87011432099825,364.87011432099825,364.87011432099825,l,1.2469295990013052,10,438,1,366.1379572429978,367.639628732999,,,,,,,,,,,,,,,,,,,,,,,,,,,,,,,,,,,,,,,,,,,,,,,,,,,,,,,,,,,,,,,,,,,,,,32144,2022-10-25_13h59.32.778,vts_reward_expectancy_bt_OFFLINE,2022.2.4,59.94268795621936,
0,0,0,1,0,1,0,0,star ,circle,1,0,1,0,1,9,21,10,,,,,,,,,,,,,,,,,,,,,,,,,,,,,,,,,,,,,,,,368.1404031179991,368.1404031179991,368.1404031179991,368.1404031179991,368.1404031179991,368.1404031179991,368.1404031179991,368.1404031179991,368.1404031179991,368.1404031179991,a,1.505056476999016,10,448,1,369.67537639299917,371.1768352129984,,,,,,,,,,,,,,,,,,,,,,,,,,,,,,,,,,,,,,,,,,,,,,,,,,,,,,,,,,,,,,,,,,,,,,32144,2022-10-25_13h59.32.778,vts_reward_expectancy_bt_OFFLINE,2022.2.4,59.94268795621936,
1,0,0,0,0,1,0,0,triangle,circle,1,0,1,0,1,10,22,0,,,,,,,,,,,,,,,,,,,,,,,,,,,,,,,,,,,,,,,,371.6777074959973,371.6777074959973,371.6777074959973,371.6777074959973,371.6777074959973,371.6777074959973,371.6777074959973,371.6777074959973,371.6777074959973,371.6777074959973,a,1.8087237260042457,10,458,1,373.5129408749999,375.0145670639977,,,,,,,,,,,,,,,,,,,,,,,,,,,,,,,,,,,,,,,,,,,,,,,,,,,,,,,,,,,,,,,,,,,,,,32144,2022-10-25_13h59.32.778,vts_reward_expectancy_bt_OFFLINE,2022.2.4,59.94268795621936,
1,0,0,0,0,0,1,0,triangle,hexagon,1,0,1,0,1,11,23,1,,,,,,,,,,,,,,,,,,,,,,,,,,,,,,,,,,,,,,,,375.5150323929993,375.5150323929993,375.5150323929993,375.5150323929993,375.5150323929993,375.5150323929993,375.5150323929993,375.5150323929993,375.5150323929993,375.5150323929993,l,1.6030518700026732,1,459,1,377.15025294099905,378.65173993999997,,,,,,,,,,,,,,,,,,,,,,,,,,,,,,,,,,,,,,,,,,,,,,,,,,,,,,,,,,,,,,,,,,,,,,32144,2022-10-25_13h59.32.778,vts_reward_expectancy_bt_OFFLINE,2022.2.4,59.94268795621936,
0,0,1,0,0,1,0,0,hexagon,circle,1,0,1,0,2,0,24,7,,,,,,,,,,,,,,,,,,,,,,,,,,,,,,,,,,,,,,,,379.15231266299816,379.15231266299816,379.15231266299816,379.15231266299816,379.15231266299816,379.15231266299816,379.15231266299816,379.15231266299816,379.15231266299816,379.15231266299816,a,1.3815221190016018,10,469,1,380.5538720959994,382.05578201000026,,,,,,,,,,,,,,,,,,,,,,,,,,,,,,,,,,,,,,,,,,,,,,,,,,,,,,,,,,,,,,,,,,,,,,32144,2022-10-25_13h59.32.778,vts_reward_expectancy_bt_OFFLINE,2022.2.4,59.94268795621936,
1,0,0,0,0,1,0,0,triangle,circle,1,0,1,0,2,1,25,0,,,,,,,,,,,,,,,,,,,,,,,,,,,,,,,,,,,,,,,,382.5562221500004,382.5562221500004,382.5562221500004,382.5562221500004,382.5562221500004,382.5562221500004,382.5562221500004,382.5562221500004,382.5562221500004,382.5562221500004,a,1.8501448770002753,1,470,1,384.4247127210001,385.92657969599895,,,,,,,,,,,,,,,,,,,,,,,,,,,,,,,,,,,,,,,,,,,,,,,,,,,,,,,,,,,,,,,,,,,,,,32144,2022-10-25_13h59.32.778,vts_reward_expectancy_bt_OFFLINE,2022.2.4,59.94268795621936,
1,0,0,0,0,0,0,1,triangle,star,1,0,1,0,2,2,26,2,,,,,,,,,,,,,,,,,,,,,,,,,,,,,,,,,,,,,,,,386.4271423680002,386.4271423680002,386.4271423680002,386.4271423680002,386.4271423680002,386.4271423680002,386.4271423680002,386.4271423680002,386.4271423680002,386.4271423680002,l,1.251736101003189,1,471,1,387.6951085660003,389.196765916,389.196765916,389.6974110099982,,,,,,,,,,,,,,,,,,,,,,,,,,,,,,,,,,,,,,,,,,,,,,,,,,,,,,,,,,,,,,,,,,,,32144,2022-10-25_13h59.32.778,vts_reward_expectancy_bt_OFFLINE,2022.2.4,59.94268795621936,
0,0,1,0,1,0,0,0,hexagon,triangle,1,0,1,0,2,3,27,6,,,,,,,,,,,,,,,,,,,,,,,,,,,,,,,,,,,,,,,,389.6974110099982,389.6974110099982,389.6974110099982,389.6974110099982,389.6974110099982,389.6974110099982,389.6974110099982,389.6974110099982,389.6974110099982,389.6974110099982,a,1.518227790002129,10,481,1,391.232709721,392.7340723589987,392.7340723589987,,,,,,,,,,,,,,,,,,,,,,,,,,,,,,,,,,,,,,,,,,,,,,,,,,,,,,,,,,,,,,,,,,,,,32144,2022-10-25_13h59.32.778,vts_reward_expectancy_bt_OFFLINE,2022.2.4,59.94268795621936,
0,0,0,1,1,0,0,0,star,triangle,1,0,1,0,2,4,28,9,,,,,,,,,,,,,,,,,,,,,,,,,,,,,,,,,,,,,,,,393.2345317149993,393.2345317149993,393.2345317149993,393.2345317149993,393.2345317149993,393.2345317149993,393.2345317149993,393.2345317149993,393.2345317149993,393.2345317149993,a,1.0114902310015168,1,482,1,394.26915813400046,395.770713943999,,,,,,,,,,,,,,,,,,,,,,,,,,,,,,,,,,,,,,,,,,,,,,,,,,,,,,,,,,,,,,,,,,,,,,32144,2022-10-25_13h59.32.778,vts_reward_expectancy_bt_OFFLINE,2022.2.4,59.94268795621936,
0,0,1,0,0,0,0,1,hexagon,star,1,0,1,0,2,5,29,8,,,,,,,,,,,,,,,,,,,,,,,,,,,,,,,,,,,,,,,,396.27142701999765,396.27142701999765,396.27142701999765,396.27142701999765,396.27142701999765,396.27142701999765,396.27142701999765,396.27142701999765,396.27142701999765,396.27142701999765,l,1.2058573680042173,1,483,1,397.50590874800037,399.00761211499776,,,,,,,,,,,,,,,,,,,,,,,,,,,,,,,,,,,,,,,,,,,,,,,,,,,,,,,,,,,,,,,,,,,,,,32144,2022-10-25_13h59.32.778,vts_reward_expectancy_bt_OFFLINE,2022.2.4,59.94268795621936,
0,0,0,1,0,0,1,0,star,hexagon,1,0,1,0,2,6,30,11,,,,,,,,,,,,,,,,,,,,,,,,,,,,,,,,,,,,,,,,399.5083351639987,399.5083351639987,399.5083351639987,399.5083351639987,399.5083351639987,399.5083351639987,399.5083351639987,399.5083351639987,399.5083351639987,399.5083351639987,l,1.1046044140020967,1,484,1,400.6427304789977,402.14427531899855,,,,,,,,,,,,,,,,,,,,,,,,,,,,,,,,,,,,,,,,,,,,,,,,,,,,,,,,,,,,,,,,,,,,,,32144,2022-10-25_13h59.32.778,vts_reward_expectancy_bt_OFFLINE,2022.2.4,59.94268795621936,
0,0,0,1,0,1,0,0,star ,circle,1,0,1,0,2,7,31,10,,,,,,,,,,,,,,,,,,,,,,,,,,,,,,,,,,,,,,,,402.6450442759997,402.6450442759997,402.6450442759997,402.6450442759997,402.6450442759997,402.6450442759997,402.6450442759997,402.6450442759997,402.6450442759997,402.6450442759997,a,1.3690696120029315,1,485,1,404.04669910499797,405.5480178830003,,,,,,,,,,,,,,,,,,,,,,,,,,,,,,,,,,,,,,,,,,,,,,,,,,,,,,,,,,,,,,,,,,,,,,32144,2022-10-25_13h59.32.778,vts_reward_expectancy_bt_OFFLINE,2022.2.4,59.94268795621936,
1,0,0,0,0,0,1,0,triangle,hexagon,1,0,1,0,2,8,32,1,,,,,,,,,,,,,,,,,,,,,,,,,,,,,,,,,,,,,,,,406.0488113399988,406.0488113399988,406.0488113399988,406.0488113399988,406.0488113399988,406.0488113399988,406.0488113399988,406.0488113399988,406.0488113399988,406.0488113399988,l,1.820896913002798,1,486,1,407.9008578449975,409.4023696949989,,,,,,,,,,,,,,,,,,,,,,,,,,,,,,,,,,,,,,,,,,,,,,,,,,,,,,,,,,,,,,,,,,,,,,32144,2022-10-25_13h59.32.778,vts_reward_expectancy_bt_OFFLINE,2022.2.4,59.94268795621936,
0,1,0,0,1,0,0,0,circle,triangle,1,0,1,0,2,9,33,3,,,,,,,,,,,,,,,,,,,,,,,,,,,,,,,,,,,,,,,,409.9027172549977,409.9027172549977,409.9027172549977,409.9027172549977,409.9027172549977,409.9027172549977,409.9027172549977,409.9027172549977,409.9027172549977,409.9027172549977,l,1.61500570300268,10,496,1,411.5380055249989,413.03960569599803,,,,,,,,,,,,,,,,,,,,,,,,,,,,,,,,,,,,,,,,,,,,,,,,,,,,,,,,,,,,,,,,,,,,,,32144,2022-10-25_13h59.32.778,vts_reward_expectancy_bt_OFFLINE,2022.2.4,59.94268795621936,
0,1,0,0,0,0,0,1,circle,star,1,0,1,0,2,10,34,5,,,,,,,,,,,,,,,,,,,,,,,,,,,,,,,,,,,,,,,,413.54024325299906,413.54024325299906,413.54024325299906,413.54024325299906,413.54024325299906,413.54024325299906,413.54024325299906,413.54024325299906,413.54024325299906,413.54024325299906,a,2.2727780750028614,1,497,1,415.8427366379983,417.34446111299985,,,,,,,,,,,,,,,,,,,,,,,,,,,,,,,,,,,,,,,,,,,,,,,,,,,,,,,,,,,,,,,,,,,,,,32144,2022-10-25_13h59.32.778,vts_reward_expectancy_bt_OFFLINE,2022.2.4,59.94268795621936,
0,1,0,0,0,0,1,0,circle,hexagon,1,0,1,0,2,11,35,4,,,,,,,,,,,,,,,,,,,,,,,,,,,,,,,,,,,,,,,,417.84490472999823,417.84490472999823,417.84490472999823,417.84490472999823,417.84490472999823,417.84490472999823,417.84490472999823,417.84490472999823,417.84490472999823,417.84490472999823,l,2.002320793002582,10,507,1,419.8638393229994,421.36561780099873,421.36561780099873,,,,,,,,,,,,,,,,,,,,,,,,,,,,,,,,,,,,,,,,,,,,,,,,,,,,,,,,,,,,,,,,,,,,,32144,2022-10-25_13h59.32.778,vts_reward_expectancy_bt_OFFLINE,2022.2.4,59.94268795621936,
0,0,0,1,1,0,0,0,star,triangle,1,0,1,0,3,0,36,9,,,,,,,,,,,,,,,,,,,,,,,,,,,,,,,,,,,,,,,,421.86619691799933,421.86619691799933,421.86619691799933,421.86619691799933,421.86619691799933,421.86619691799933,421.86619691799933,421.86619691799933,421.86619691799933,421.86619691799933,a,1.1556776979996357,1,508,1,423.0508099889994,424.5525804309982,,,,,,,,,,,,,,,,,,,,,,,,,,,,,,,,,,,,,,,,,,,,,,,,,,,,,,,,,,,,,,,,,,,,,,32144,2022-10-25_13h59.32.778,vts_reward_expectancy_bt_OFFLINE,2022.2.4,59.94268795621936,
0,0,0,1,0,0,1,0,star,hexagon,1,0,1,0,3,1,37,11,,,,,,,,,,,,,,,,,,,,,,,,,,,,,,,,,,,,,,,,425.0530940610006,425.0530940610006,425.0530940610006,425.0530940610006,425.0530940610006,425.0530940610006,425.0530940610006,425.0530940610006,425.0530940610006,425.0530940610006,l,1.208905641000456,1,509,1,426.2877800799979,427.78942907999954,,,,,,,,,,,,,,,,,,,,,,,,,,,,,,,,,,,,,,,,,,,,,,,,,,,,,,,,,,,,,,,,,,,,,,32144,2022-10-25_13h59.32.778,vts_reward_expectancy_bt_OFFLINE,2022.2.4,59.94268795621936,
0,0,0,1,0,1,0,0,star ,circle,1,0,1,0,3,2,38,10,,,,,,,,,,,,,,,,,,,,,,,,,,,,,,,,,,,,,,,,428.2900852929997,428.2900852929997,428.2900852929997,428.2900852929997,428.2900852929997,428.2900852929997,428.2900852929997,428.2900852929997,428.2900852929997,428.2900852929997,a,0.9082491230037704,1,510,1,429.2242502279987,430.725967563998,430.725967563998,,,,,,,,,,,,,,,,,,,,,,,,,,,,,,,,,,,,,,,,,,,,,,,,,,,,,,,,,,,,,,,,,,,,,32144,2022-10-25_13h59.32.778,vts_reward_expectancy_bt_OFFLINE,2022.2.4,59.94268795621936,
0,0,1,0,0,1,0,0,hexagon,circle,1,0,1,0,3,3,39,7,,,,,,,,,,,,,,,,,,,,,,,,,,,,,,,,,,,,,,,,431.22664323799836,431.22664323799836,431.22664323799836,431.22664323799836,431.22664323799836,431.22664323799836,431.22664323799836,431.22664323799836,431.22664323799836,431.22664323799836,a,0.9704034430033062,1,511,1,432.2274954889981,433.72926681899844,,,,,,,,,,,,,,,,,,,,,,,,,,,,,,,,,,,,,,,,,,,,,,,,,,,,,,,,,,,,,,,,,,,,,,32144,2022-10-25_13h59.32.778,vts_reward_expectancy_bt_OFFLINE,2022.2.4,59.94268795621936,
0,1,0,0,0,0,0,1,circle,star,1,0,1,0,3,4,40,5,,,,,,,,,,,,,,,,,,,,,,,,,,,,,,,,,,,,,,,,434.22967261399754,434.22967261399754,434.22967261399754,434.22967261399754,434.22967261399754,434.22967261399754,434.22967261399754,434.22967261399754,434.22967261399754,434.22967261399754,a,1.1690931520024606,10,521,1,435.4312139199974,436.9327314260008,,,,,,,,,,,,,,,,,,,,,,,,,,,,,,,,,,,,,,,,,,,,,,,,,,,,,,,,,,,,,,,,,,,,,,32144,2022-10-25_13h59.32.778,vts_reward_expectancy_bt_OFFLINE,2022.2.4,59.94268795621936,
0,1,0,0,0,0,1,0,circle,hexagon,1,0,1,0,3,5,41,4,,,,,,,,,,,,,,,,,,,,,,,,,,,,,,,,,,,,,,,,437.4332716229983,437.4332716229983,437.4332716229983,437.4332716229983,437.4332716229983,437.4332716229983,437.4332716229983,437.4332716229983,437.4332716229983,437.4332716229983,a,0.9020396199994138,10,531,1,438.36757889,439.8692304590004,,,,,,,,,,,,,,,,,,,,,,,,,,,,,,,,,,,,,,,,,,,,,,,,,,,,,,,,,,,,,,,,,,,,,,32144,2022-10-25_13h59.32.778,vts_reward_expectancy_bt_OFFLINE,2022.2.4,59.94268795621936,
1,0,0,0,0,0,0,1,triangle,star,1,0,1,0,3,6,42,2,,,,,,,,,,,,,,,,,,,,,,,,,,,,,,,,,,,,,,,,440.3697196789981,440.3697196789981,440.3697196789981,440.3697196789981,440.3697196789981,440.3697196789981,440.3697196789981,440.3697196789981,440.3697196789981,440.3697196789981,a,0.9014132830016024,1,532,1,441.2874255940005,442.78946849899876,442.78946849899876,,,,,,,,,,,,,,,,,,,,,,,,,,,,,,,,,,,,,,,,,,,,,,,,,,,,,,,,,,,,,,,,,,,,,32144,2022-10-25_13h59.32.778,vts_reward_expectancy_bt_OFFLINE,2022.2.4,59.94268795621936,
0,1,0,0,1,0,0,0,circle,triangle,1,0,1,0,3,7,43,3,,,,,,,,,,,,,,,,,,,,,,,,,,,,,,,,,,,,,,,,443.289788140999,443.289788140999,443.289788140999,443.289788140999,443.289788140999,443.289788140999,443.289788140999,443.289788140999,443.289788140999,443.289788140999,a,0.9475335030037968,1,533,1,444.25751118900007,445.7591765929974,,,,,,,,,,,,,,,,,,,,,,,,,,,,,,,,,,,,,,,,,,,,,,,,,,,,,,,,,,,,,,,,,,,,,,32144,2022-10-25_13h59.32.778,vts_reward_expectancy_bt_OFFLINE,2022.2.4,59.94268795621936,
0,0,1,0,0,0,0,1,hexagon,star,1,0,1,0,3,8,44,8,,,,,,,,,,,,,,,,,,,,,,,,,,,,,,,,,,,,,,,,446.25999969799886,446.25999969799886,446.25999969799886,446.25999969799886,446.25999969799886,446.25999969799886,446.25999969799886,446.25999969799886,446.25999969799886,446.25999969799886,l,2.002428900999803,10,543,1,448.2952755499973,449.79686550100087,,,,,,,,,,,,,,,,,,,,,,,,,,,,,,,,,,,,,,,,,,,,,,,,,,,,,,,,,,,,,,,,,,,,,,32144,2022-10-25_13h59.32.778,vts_reward_expectancy_bt_OFFLINE,2022.2.4,59.94268795621936,
1,0,0,0,0,1,0,0,triangle,circle,1,0,1,0,3,9,45,0,,,,,,,,,,,,,,,,,,,,,,,,,,,,,,,,,,,,,,,,450.2975268480004,450.2975268480004,450.2975268480004,450.2975268480004,450.2975268480004,450.2975268480004,450.2975268480004,450.2975268480004,450.2975268480004,450.2975268480004,a,1.044046827002603,10,553,1,451.3652441710001,452.866986052999,452.866986052999,,,,,,,,,,,,,,,,,,,,,,,,,,,,,,,,,,,,,,,,,,,,,,,,,,,,,,,,,,,,,,,,,,,,,32144,2022-10-25_13h59.32.778,vts_reward_expectancy_bt_OFFLINE,2022.2.4,59.94268795621936,
1,0,0,0,0,0,1,0,triangle,hexagon,1,0,1,0,3,10,46,1,,,,,,,,,,,,,,,,,,,,,,,,,,,,,,,,,,,,,,,,453.3676625499975,453.3676625499975,453.3676625499975,453.3676625499975,453.3676625499975,453.3676625499975,453.3676625499975,453.3676625499975,453.3676625499975,453.3676625499975,l,1.2217153180026799,1,554,1,454.6189047730004,456.12055667299865,,,,,,,,,,,,,,,,,,,,,,,,,,,,,,,,,,,,,,,,,,,,,,,,,,,,,,,,,,,,,,,,,,,,,,32144,2022-10-25_13h59.32.778,vts_reward_expectancy_bt_OFFLINE,2022.2.4,59.94268795621936,
0,0,1,0,1,0,0,0,hexagon,triangle,1,0,1,0,3,11,47,6,,,,,,,,,,,,,,,,,,,,,,,,,,,,,,,,,,,,,,,,456.62104978299976,456.62104978299976,456.62104978299976,456.62104978299976,456.62104978299976,456.62104978299976,456.62104978299976,456.62104978299976,456.62104978299976,456.62104978299976,a,1.2340701450011693,10,564,1,457.8724496859977,459.37424368400025,459.37424368400025,,,,,,,,,,,,,,,,,,,,,,,,,,,,,,,,,,,,,,,,,,,,,,,,,,,,,,,,,,,,,,,,,,,,,32144,2022-10-25_13h59.32.778,vts_reward_expectancy_bt_OFFLINE,2022.2.4,59.94268795621936,
0,1,0,0,1,0,0,0,circle,triangle,2,0,2,0,0,0,0,3,,,,,,,,,,,,,,,,,,,,,,,,,,,,,,,,,,,,,,,,467.96710123400044,467.96710123400044,467.96710123400044,467.96710123400044,467.96710123400044,467.96710123400044,467.96710123400044,467.96710123400044,467.96710123400044,467.96710123400044,l,1.5593422110032407,10,574,2,469.5520160199994,471.05385513500005,,,,,,,,,,,,,,,,,,,,,,,,,,,,,,,,,,,,,,,,,,,,,,,,,,,,,,,,,,,,,,,,,,,,,,32144,2022-10-25_13h59.32.778,vts_reward_expectancy_bt_OFFLINE,2022.2.4,59.94268795621936,
1,0,0,0,0,0,1,0,triangle,hexagon,2,0,2,0,0,1,1,1,,,,,,,,,,,,,,,,,,,,,,,,,,,,,,,,,,,,,,,,471.5543777139974,471.5543777139974,471.5543777139974,471.5543777139974,471.5543777139974,471.5543777139974,471.5543777139974,471.5543777139974,471.5543777139974,471.5543777139974,a,1.2188233070046408,1,575,2,472.8056754190002,474.30739153899776,,,,,,,,,,,,,,,,,,,,,,,,,,,,,,,,,,,,,,,,,,,,,,,,,,,,,,,,,,,,,,,,,,,,,,32144,2022-10-25_13h59.32.778,vts_reward_expectancy_bt_OFFLINE,2022.2.4,59.94268795621936,
1,0,0,0,0,0,0,1,triangle,star,2,0,2,0,0,2,2,2,,,,,,,,,,,,,,,,,,,,,,,,,,,,,,,,,,,,,,,,474.80784765899807,474.80784765899807,474.80784765899807,474.80784765899807,474.80784765899807,474.80784765899807,474.80784765899807,474.80784765899807,474.80784765899807,474.80784765899807,l,1.1256559260000358,10,585,2,475.95914263099985,477.460804549999,477.460804549999,,,,,,,,,,,,,,,,,,,,,,,,,,,,,,,,,,,,,,,,,,,,,,,,,,,,,,,,,,,,,,,,,,,,,32144,2022-10-25_13h59.32.778,vts_reward_expectancy_bt_OFFLINE,2022.2.4,59.94268795621936,
0,1,0,0,0,0,1,0,circle,hexagon,2,0,2,0,0,3,3,4,,,,,,,,,,,,,,,,,,,,,,,,,,,,,,,,,,,,,,,,477.96146409799985,477.96146409799985,477.96146409799985,477.96146409799985,477.96146409799985,477.96146409799985,477.96146409799985,477.96146409799985,477.96146409799985,477.96146409799985,l,1.0853613220024272,1,586,2,479.07920543,480.58081691999905,,,,,,,,,,,,,,,,,,,,,,,,,,,,,,,,,,,,,,,,,,,,,,,,,,,,,,,,,,,,,,,,,,,,,,32144,2022-10-25_13h59.32.778,vts_reward_expectancy_bt_OFFLINE,2022.2.4,59.94268795621936,
0,1,0,0,0,0,0,1,circle,star,2,0,2,0,0,4,4,5,,,,,,,,,,,,,,,,,,,,,,,,,,,,,,,,,,,,,,,,481.0815252609973,481.0815252609973,481.0815252609973,481.0815252609973,481.0815252609973,481.0815252609973,481.0815252609973,481.0815252609973,481.0815252609973,481.0815252609973,l,1.853373048001231,1,587,2,482.96709091999946,484.4685462979978,,,,,,,,,,,,,,,,,,,,,,,,,,,,,,,,,,,,,,,,,,,,,,,,,,,,,,,,,,,,,,,,,,,,,,32144,2022-10-25_13h59.32.778,vts_reward_expectancy_bt_OFFLINE,2022.2.4,59.94268795621936,
0,0,1,0,1,0,0,0,hexagon,triangle,2,0,2,0,0,5,5,6,,,,,,,,,,,,,,,,,,,,,,,,,,,,,,,,,,,,,,,,484.9693274759993,484.9693274759993,484.9693274759993,484.9693274759993,484.9693274759993,484.9693274759993,484.9693274759993,484.9693274759993,484.9693274759993,484.9693274759993,a,2.236339613002201,10,597,2,487.23830883499977,488.73982771399824,,,,,,,,,,,,,,,,,,,,,,,,,,,,,,,,,,,,,,,,,,,,,,,,,,,,,,,,,,,,,,,,,,,,,,32144,2022-10-25_13h59.32.778,vts_reward_expectancy_bt_OFFLINE,2022.2.4,59.94268795621936,
0,0,1,0,0,0,0,1,hexagon,star,2,0,2,0,0,6,6,8,,,,,,,,,,,,,,,,,,,,,,,,,,,,,,,,,,,,,,,,489.24031399999876,489.24031399999876,489.24031399999876,489.24031399999876,489.24031399999876,489.24031399999876,489.24031399999876,489.24031399999876,489.24031399999876,489.24031399999876,l,1.6050348220014712,10,607,2,490.8757254609991,492.3773711139984,,,,,,,,,,,,,,,,,,,,,,,,,,,,,,,,,,,,,,,,,,,,,,,,,,,,,,,,,,,,,,,,,,,,,,32144,2022-10-25_13h59.32.778,vts_reward_expectancy_bt_OFFLINE,2022.2.4,59.94268795621936,
0,0,0,1,1,0,0,0,star,triangle,2,0,2,0,0,7,7,9,,,,,,,,,,,,,,,,,,,,,,,,,,,,,,,,,,,,,,,,492.87790407099965,492.87790407099965,492.87790407099965,492.87790407099965,492.87790407099965,492.87790407099965,492.87790407099965,492.87790407099965,492.87790407099965,492.87790407099965,a,1.0560839710014989,1,608,2,493.9623005529975,495.46420407799815,,,,,,,,,,,,,,,,,,,,,,,,,,,,,,,,,,,,,,,,,,,,,,,,,,,,,,,,,,,,,,,,,,,,,,32144,2022-10-25_13h59.32.778,vts_reward_expectancy_bt_OFFLINE,2022.2.4,59.94268795621936,
1,0,0,0,0,1,0,0,triangle,circle,2,0,2,0,0,8,8,0,,,,,,,,,,,,,,,,,,,,,,,,,,,,,,,,,,,,,,,,495.96451648999937,495.96451648999937,495.96451648999937,495.96451648999937,495.96451648999937,495.96451648999937,495.96451648999937,495.96451648999937,495.96451648999937,495.96451648999937,a,1.7451195730027393,1,609,2,497.73328420100006,499.2347727060005,,,,,,,,,,,,,,,,,,,,,,,,,,,,,,,,,,,,,,,,,,,,,,,,,,,,,,,,,,,,,,,,,,,,,,32144,2022-10-25_13h59.32.778,vts_reward_expectancy_bt_OFFLINE,2022.2.4,59.94268795621936,
0,0,1,0,0,1,0,0,hexagon,circle,2,0,2,0,0,9,9,7,,,,,,,,,,,,,,,,,,,,,,,,,,,,,,,,,,,,,,,,499.7356737810005,499.7356737810005,499.7356737810005,499.7356737810005,499.7356737810005,499.7356737810005,499.7356737810005,499.7356737810005,499.7356737810005,499.7356737810005,l,1.2378204369997547,1,610,2,501.0033986689996,502.50513841000065,,,,,,,,,,,,,,,,,,,,,,,,,,,,,,,,,,,,,,,,,,,,,,,,,,,,,,,,,,,,,,,,,,,,,,32144,2022-10-25_13h59.32.778,vts_reward_expectancy_bt_OFFLINE,2022.2.4,59.94268795621936,
0,0,0,1,0,1,0,0,star ,circle,2,0,2,0,0,10,10,10,,,,,,,,,,,,,,,,,,,,,,,,,,,,,,,,,,,,,,,,503.00555432299734,503.00555432299734,503.00555432299734,503.00555432299734,503.00555432299734,503.00555432299734,503.00555432299734,503.00555432299734,503.00555432299734,503.00555432299734,l,1.7529210740030976,10,620,2,504.7910528649991,506.29274439599976,,,,,,,,,,,,,,,,,,,,,,,,,,,,,,,,,,,,,,,,,,,,,,,,,,,,,,,,,,,,,,,,,,,,,,32144,2022-10-25_13h59.32.778,vts_reward_expectancy_bt_OFFLINE,2022.2.4,59.94268795621936,
0,0,0,1,0,0,1,0,star,hexagon,2,0,2,0,0,11,11,11,,,,,,,,,,,,,,,,,,,,,,,,,,,,,,,,,,,,,,,,506.79319019600007,506.79319019600007,506.79319019600007,506.79319019600007,506.79319019600007,506.79319019600007,506.79319019600007,506.79319019600007,506.79319019600007,506.79319019600007,l,2.932324287005031,1,621,2,509.74636699300027,511.2481519879984,,,,,,,,,,,,,,,,,,,,,,,,,,,,,,,,,,,,,,,,,,,,,,,,,,,,,,,,,,,,,,,,,,,,,,32144,2022-10-25_13h59.32.778,vts_reward_expectancy_bt_OFFLINE,2022.2.4,59.94268795621936,
0,0,1,0,1,0,0,0,hexagon,triangle,2,0,2,0,1,0,12,6,,,,,,,,,,,,,,,,,,,,,,,,,,,,,,,,,,,,,,,,511.74871559999883,511.74871559999883,511.74871559999883,511.74871559999883,511.74871559999883,511.74871559999883,511.74871559999883,511.74871559999883,511.74871559999883,511.74871559999883,a,1.680694828999549,1,622,2,513.4504389549984,514.9517032689982,514.9517032689982,,,,,,,,,,,,,,,,,,,,,,,,,,,,,,,,,,,,,,,,,,,,,,,,,,,,,,,,,,,,,,,,,,,,,32144,2022-10-25_13h59.32.778,vts_reward_expectancy_bt_OFFLINE,2022.2.4,59.94268795621936,
0,0,0,1,1,0,0,0,star,triangle,2,0,2,0,1,1,13,9,,,,,,,,,,,,,,,,,,,,,,,,,,,,,,,,,,,,,,,,515.4522500079984,515.4522500079984,515.4522500079984,515.4522500079984,515.4522500079984,515.4522500079984,515.4522500079984,515.4522500079984,515.4522500079984,515.4522500079984,a,0.8192149010028515,10,632,2,516.3035930379992,517.8052689479991,,,,,,,,,,,,,,,,,,,,,,,,,,,,,,,,,,,,,,,,,,,,,,,,,,,,,,,,,,,,,,,,,,,,,,32144,2022-10-25_13h59.32.778,vts_reward_expectancy_bt_OFFLINE,2022.2.4,59.94268795621936,
1,0,0,0,0,0,1,0,triangle,hexagon,2,0,2,0,1,2,14,1,,,,,,,,,,,,,,,,,,,,,,,,,,,,,,,,,,,,,,,,518.3058258889978,518.3058258889978,518.3058258889978,518.3058258889978,518.3058258889978,518.3058258889978,518.3058258889978,518.3058258889978,518.3058258889978,518.3058258889978,l,0.948492128001817,1,633,2,519.2737440950004,520.7751326229991,,,,,,,,,,,,,,,,,,,,,,,,,,,,,,,,,,,,,,,,,,,,,,,,,,,,,,,,,,,,,,,,,,,,,,32144,2022-10-25_13h59.32.778,vts_reward_expectancy_bt_OFFLINE,2022.2.4,59.94268795621936,
0,1,0,0,1,0,0,0,circle,triangle,2,0,2,0,1,3,15,3,,,,,,,,,,,,,,,,,,,,,,,,,,,,,,,,,,,,,,,,521.2757105189994,521.2757105189994,521.2757105189994,521.2757105189994,521.2757105189994,521.2757105189994,521.2757105189994,521.2757105189994,521.2757105189994,521.2757105189994,l,0.978221557001234,1,634,2,522.2770337129987,523.7786892679978,,,,,,,,,,,,,,,,,,,,,,,,,,,,,,,,,,,,,,,,,,,,,,,,,,,,,,,,,,,,,,,,,,,,,,32144,2022-10-25_13h59.32.778,vts_reward_expectancy_bt_OFFLINE,2022.2.4,59.94268795621936,
0,1,0,0,0,0,1,0,circle,hexagon,2,0,2,0,1,4,16,4,,,,,,,,,,,,,,,,,,,,,,,,,,,,,,,,,,,,,,,,524.2791568559987,524.2791568559987,524.2791568559987,524.2791568559987,524.2791568559987,524.2791568559987,524.2791568559987,524.2791568559987,524.2791568559987,524.2791568559987,a,1.3104981620017497,1,635,2,525.6139053250008,527.1156220539997,,,,,,,,,,,,,,,,,,,,,,,,,,,,,,,,,,,,,,,,,,,,,,,,,,,,,,,,,,,,,,,,,,,,,,32144,2022-10-25_13h59.32.778,vts_reward_expectancy_bt_OFFLINE,2022.2.4,59.94268795621936,
1,0,0,0,0,1,0,0,triangle,circle,2,0,2,0,1,5,17,0,,,,,,,,,,,,,,,,,,,,,,,,,,,,,,,,,,,,,,,,527.6160226399988,527.6160226399988,527.6160226399988,527.6160226399988,527.6160226399988,527.6160226399988,527.6160226399988,527.6160226399988,527.6160226399988,527.6160226399988,l,1.7666710420016898,10,645,2,529.4015382539983,530.9031446589979,,,,,,,,,,,,,,,,,,,,,,,,,,,,,,,,,,,,,,,,,,,,,,,,,,,,,,,,,,,,,,,,,,,,,,32144,2022-10-25_13h59.32.778,vts_reward_expectancy_bt_OFFLINE,2022.2.4,59.94268795621936,
0,0,0,1,0,0,1,0,star,hexagon,2,0,2,0,1,6,18,11,,,,,,,,,,,,,,,,,,,,,,,,,,,,,,,,,,,,,,,,531.4036647539979,531.4036647539979,531.4036647539979,531.4036647539979,531.4036647539979,531.4036647539979,531.4036647539979,531.4036647539979,531.4036647539979,531.4036647539979,a,1.4827394310013915,10,655,2,532.9053479009999,534.4069139359999,,,,,,,,,,,,,,,,,,,,,,,,,,,,,,,,,,,,,,,,,,,,,,,,,,,,,,,,,,,,,,,,,,,,,,32144,2022-10-25_13h59.32.778,vts_reward_expectancy_bt_OFFLINE,2022.2.4,59.94268795621936,
0,0,0,1,0,1,0,0,star ,circle,2,0,2,0,1,7,19,10,,,,,,,,,,,,,,,,,,,,,,,,,,,,,,,,,,,,,,,,534.9074458680007,534.9074458680007,534.9074458680007,534.9074458680007,534.9074458680007,534.9074458680007,534.9074458680007,534.9074458680007,534.9074458680007,534.9074458680007,l,1.2987698240031023,1,656,2,536.225670849999,537.7272606699989,,,,,,,,,,,,,,,,,,,,,,,,,,,,,,,,,,,,,,,,,,,,,,,,,,,,,,,,,,,,,,,,,,,,,,32144,2022-10-25_13h59.32.778,vts_reward_expectancy_bt_OFFLINE,2022.2.4,59.94268795621936,
0,0,1,0,0,1,0,0,hexagon,circle,2,0,2,0,1,8,20,7,,,,,,,,,,,,,,,,,,,,,,,,,,,,,,,,,,,,,,,,538.2278382660006,538.2278382660006,538.2278382660006,538.2278382660006,538.2278382660006,538.2278382660006,538.2278382660006,538.2278382660006,538.2278382660006,538.2278382660006,a,2.3211749130023236,1,657,2,540.5803808199998,542.0820468109996,,,,,,,,,,,,,,,,,,,,,,,,,,,,,,,,,,,,,,,,,,,,,,,,,,,,,,,,,,,,,,,,,,,,,,32144,2022-10-25_13h59.32.778,vts_reward_expectancy_bt_OFFLINE,2022.2.4,59.94268795621936,
1,0,0,0,0,0,0,1,triangle,star,2,0,2,0,1,9,21,2,,,,,,,,,,,,,,,,,,,,,,,,,,,,,,,,,,,,,,,,542.5828861609989,542.5828861609989,542.5828861609989,542.5828861609989,542.5828861609989,542.5828861609989,542.5828861609989,542.5828861609989,542.5828861609989,542.5828861609989,l,2.4067667110030015,10,667,2,545.0186058229992,546.5205419939994,,,,,,,,,,,,,,,,,,,,,,,,,,,,,,,,,,,,,,,,,,,,,,,,,,,,,,,,,,,,,,,,,,,,,,32144,2022-10-25_13h59.32.778,vts_reward_expectancy_bt_OFFLINE,2022.2.4,59.94268795621936,
0,1,0,0,0,0,0,1,circle,star,2,0,2,0,1,10,22,5,,,,,,,,,,,,,,,,,,,,,,,,,,,,,,,,,,,,,,,,547.0209754339994,547.0209754339994,547.0209754339994,547.0209754339994,547.0209754339994,547.0209754339994,547.0209754339994,547.0209754339994,547.0209754339994,547.0209754339994,l,2.7533099450010923,10,677,2,549.7908394160004,551.292176551,551.292176551,551.7930308760006,,,,,,,,,,,,,,,,,,,,,,,,,,,,,,,,,,,,,,,,,,,,,,,,,,,,,,,,,,,,,,,,,,,,32144,2022-10-25_13h59.32.778,vts_reward_expectancy_bt_OFFLINE,2022.2.4,59.94268795621936,
0,0,1,0,0,0,0,1,hexagon,star,2,0,2,0,1,11,23,8,,,,,,,,,,,,,,,,,,,,,,,,,,,,,,,,,,,,,,,,551.7930308760006,551.7930308760006,551.7930308760006,551.7930308760006,551.7930308760006,551.7930308760006,551.7930308760006,551.7930308760006,551.7930308760006,551.7930308760006,a,2.2771581040033197,1,678,2,554.0952116749977,555.5970912310004,,,,,,,,,,,,,,,,,,,,,,,,,,,,,,,,,,,,,,,,,,,,,,,,,,,,,,,,,,,,,,,,,,,,,,32144,2022-10-25_13h59.32.778,vts_reward_expectancy_bt_OFFLINE,2022.2.4,59.94268795621936,
0,1,0,0,0,0,0,1,circle,star,2,0,2,0,2,0,24,5,,,,,,,,,,,,,,,,,,,,,,,,,,,,,,,,,,,,,,,,556.097439404999,556.097439404999,556.097439404999,556.097439404999,556.097439404999,556.097439404999,556.097439404999,556.097439404999,556.097439404999,556.097439404999,l,1.6859931950020837,1,679,2,557.8162588759988,559.3177778709978,,,,,,,,,,,,,,,,,,,,,,,,,,,,,,,,,,,,,,,,,,,,,,,,,,,,,,,,,,,,,,,,,,,,,,32144,2022-10-25_13h59.32.778,vts_reward_expectancy_bt_OFFLINE,2022.2.4,59.94268795621936,
0,1,0,0,0,0,1,0,circle,hexagon,2,0,2,0,2,1,25,4,,,,,,,,,,,,,,,,,,,,,,,,,,,,,,,,,,,,,,,,559.8184880150002,559.8184880150002,559.8184880150002,559.8184880150002,559.8184880150002,559.8184880150002,559.8184880150002,559.8184880150002,559.8184880150002,559.8184880150002,l,1.9950141980043554,1,680,2,561.8373223060007,563.3387915429994,,,,,,,,,,,,,,,,,,,,,,,,,,,,,,,,,,,,,,,,,,,,,,,,,,,,,,,,,,,,,,,,,,,,,,32144,2022-10-25_13h59.32.778,vts_reward_expectancy_bt_OFFLINE,2022.2.4,59.94268795621936,
0,0,0,1,1,0,0,0,star,triangle,2,0,2,0,2,2,26,9,,,,,,,,,,,,,,,,,,,,,,,,,,,,,,,,,,,,,,,,563.8395467390001,563.8395467390001,563.8395467390001,563.8395467390001,563.8395467390001,563.8395467390001,563.8395467390001,563.8395467390001,563.8395467390001,563.8395467390001,a,0.6373389560030773,10,690,2,564.5067350450008,566.0086159059974,,,,,,,,,,,,,,,,,,,,,,,,,,,,,,,,,,,,,,,,,,,,,,,,,,,,,,,,,,,,,,,,,,,,,,32144,2022-10-25_13h59.32.778,vts_reward_expectancy_bt_OFFLINE,2022.2.4,59.94268795621936,
0,0,1,0,0,0,0,1,hexagon,star,2,0,2,0,2,3,27,8,,,,,,,,,,,,,,,,,,,,,,,,,,,,,,,,,,,,,,,,566.509212828998,566.509212828998,566.509212828998,566.509212828998,566.509212828998,566.509212828998,566.509212828998,566.509212828998,566.509212828998,566.509212828998,a,0.7518847890023608,10,700,2,567.2934309259981,568.7951156999989,,,,,,,,,,,,,,,,,,,,,,,,,,,,,,,,,,,,,,,,,,,,,,,,,,,,,,,,,,,,,,,,,,,,,,32144,2022-10-25_13h59.32.778,vts_reward_expectancy_bt_OFFLINE,2022.2.4,59.94268795621936,
0,0,0,1,0,1,0,0,star ,circle,2,0,2,0,2,4,28,10,,,,,,,,,,,,,,,,,,,,,,,,,,,,,,,,,,,,,,,,569.2955381449974,569.2955381449974,569.2955381449974,569.2955381449974,569.2955381449974,569.2955381449974,569.2955381449974,569.2955381449974,569.2955381449974,569.2955381449974,l,0.918423351002275,10,710,2,570.2466469089995,571.7481930799986,,,,,,,,,,,,,,,,,,,,,,,,,,,,,,,,,,,,,,,,,,,,,,,,,,,,,,,,,,,,,,,,,,,,,,32144,2022-10-25_13h59.32.778,vts_reward_expectancy_bt_OFFLINE,2022.2.4,59.94268795621936,
1,0,0,0,0,0,1,0,triangle,hexagon,2,0,2,0,2,5,29,1,,,,,,,,,,,,,,,,,,,,,,,,,,,,,,,,,,,,,,,,572.2487731239999,572.2487731239999,572.2487731239999,572.2487731239999,572.2487731239999,572.2487731239999,572.2487731239999,572.2487731239999,572.2487731239999,572.2487731239999,a,0.6529945060028695,1,711,2,572.9328524099983,574.4344328989973,,,,,,,,,,,,,,,,,,,,,,,,,,,,,,,,,,,,,,,,,,,,,,,,,,,,,,,,,,,,,,,,,,,,,,32144,2022-10-25_13h59.32.778,vts_reward_expectancy_bt_OFFLINE,2022.2.4,59.94268795621936,
0,0,1,0,0,1,0,0,hexagon,circle,2,0,2,0,2,6,30,7,,,,,,,,,,,,,,,,,,,,,,,,,,,,,,,,,,,,,,,,574.9349970039984,574.9349970039984,574.9349970039984,574.9349970039984,574.9349970039984,574.9349970039984,574.9349970039984,574.9349970039984,574.9349970039984,574.9349970039984,l,1.3754306700029701,10,721,2,576.3366207479994,577.8380142829992,,,,,,,,,,,,,,,,,,,,,,,,,,,,,,,,,,,,,,,,,,,,,,,,,,,,,,,,,,,,,,,,,,,,,,32144,2022-10-25_13h59.32.778,vts_reward_expectancy_bt_OFFLINE,2022.2.4,59.94268795621936,
1,0,0,0,0,1,0,0,triangle,circle,2,0,2,0,2,7,31,0,,,,,,,,,,,,,,,,,,,,,,,,,,,,,,,,,,,,,,,,578.3386046179985,578.3386046179985,578.3386046179985,578.3386046179985,578.3386046179985,578.3386046179985,578.3386046179985,578.3386046179985,578.3386046179985,578.3386046179985,a,1.4027219620002143,10,731,2,579.7738878210002,581.2754416940006,,,,,,,,,,,,,,,,,,,,,,,,,,,,,,,,,,,,,,,,,,,,,,,,,,,,,,,,,,,,,,,,,,,,,,32144,2022-10-25_13h59.32.778,vts_reward_expectancy_bt_OFFLINE,2022.2.4,59.94268795621936,
0,0,0,1,0,0,1,0,star,hexagon,2,0,2,0,2,8,32,11,,,,,,,,,,,,,,,,,,,,,,,,,,,,,,,,,,,,,,,,581.775884835999,581.775884835999,581.775884835999,581.775884835999,581.775884835999,581.775884835999,581.775884835999,581.775884835999,581.775884835999,581.775884835999,a,1.5813696530021844,1,732,2,583.3780577350008,584.8793666329984,,,,,,,,,,,,,,,,,,,,,,,,,,,,,,,,,,,,,,,,,,,,,,,,,,,,,,,,,,,,,,,,,,,,,,32144,2022-10-25_13h59.32.778,vts_reward_expectancy_bt_OFFLINE,2022.2.4,59.94268795621936,
0,0,1,0,1,0,0,0,hexagon,triangle,2,0,2,0,2,9,33,6,,,,,,,,,,,,,,,,,,,,,,,,,,,,,,,,,,,,,,,,585.3799662649981,585.3799662649981,585.3799662649981,585.3799662649981,585.3799662649981,585.3799662649981,585.3799662649981,585.3799662649981,585.3799662649981,585.3799662649981,a,1.4979409280022082,1,733,2,586.8982544350001,588.3997874239976,,,,,,,,,,,,,,,,,,,,,,,,,,,,,,,,,,,,,,,,,,,,,,,,,,,,,,,,,,,,,,,,,,,,,,32144,2022-10-25_13h59.32.778,vts_reward_expectancy_bt_OFFLINE,2022.2.4,59.94268795621936,
0,1,0,0,1,0,0,0,circle,triangle,2,0,2,0,2,10,34,3,,,,,,,,,,,,,,,,,,,,,,,,,,,,,,,,,,,,,,,,588.9004587039999,588.9004587039999,588.9004587039999,588.9004587039999,588.9004587039999,588.9004587039999,588.9004587039999,588.9004587039999,588.9004587039999,588.9004587039999,a,1.3048599850044411,10,743,2,590.2351633939979,591.7369111799999,,,,,,,,,,,,,,,,,,,,,,,,,,,,,,,,,,,,,,,,,,,,,,,,,,,,,,,,,,,,,,,,,,,,,,32144,2022-10-25_13h59.32.778,vts_reward_expectancy_bt_OFFLINE,2022.2.4,59.94268795621936,
1,0,0,0,0,0,0,1,triangle,star,2,0,2,0,2,11,35,2,,,,,,,,,,,,,,,,,,,,,,,,,,,,,,,,,,,,,,,,592.2374591359985,592.2374591359985,592.2374591359985,592.2374591359985,592.2374591359985,592.2374591359985,592.2374591359985,592.2374591359985,592.2374591359985,592.2374591359985,l,0.49549410700274166,10,753,2,592.7546923379996,594.2565205909996,,,,,,,,,,,,,,,,,,,,,,,,,,,,,,,,,,,,,,,,,,,,,,,,,,,,,,,,,,,,,,,,,,,,,,32144,2022-10-25_13h59.32.778,vts_reward_expectancy_bt_OFFLINE,2022.2.4,59.94268795621936,
0,0,0,1,0,1,0,0,star ,circle,2,0,2,0,3,0,36,10,,,,,,,,,,,,,,,,,,,,,,,,,,,,,,,,,,,,,,,,594.7569434809993,594.7569434809993,594.7569434809993,594.7569434809993,594.7569434809993,594.7569434809993,594.7569434809993,594.7569434809993,594.7569434809993,594.7569434809993,l,1.9531376020022435,10,763,2,596.7424110149987,598.2440151230003,,,,,,,,,,,,,,,,,,,,,,,,,,,,,,,,,,,,,,,,,,,,,,,,,,,,,,,,,,,,,,,,,,,,,,32144,2022-10-25_13h59.32.778,vts_reward_expectancy_bt_OFFLINE,2022.2.4,59.94268795621936,
0,0,0,1,1,0,0,0,star,triangle,2,0,2,0,3,1,37,9,,,,,,,,,,,,,,,,,,,,,,,,,,,,,,,,,,,,,,,,598.7446637449975,598.7446637449975,598.7446637449975,598.7446637449975,598.7446637449975,598.7446637449975,598.7446637449975,598.7446637449975,598.7446637449975,598.7446637449975,a,1.1813180000026478,10,773,2,599.9461287329977,601.4476217400006,,,,,,,,,,,,,,,,,,,,,,,,,,,,,,,,,,,,,,,,,,,,,,,,,,,,,,,,,,,,,,,,,,,,,,32144,2022-10-25_13h59.32.778,vts_reward_expectancy_bt_OFFLINE,2022.2.4,59.94268795621936,
0,0,1,0,0,0,0,1,hexagon,star,2,0,2,0,3,2,38,8,,,,,,,,,,,,,,,,,,,,,,,,,,,,,,,,,,,,,,,,601.948390925998,601.948390925998,601.948390925998,601.948390925998,601.948390925998,601.948390925998,601.948390925998,601.948390925998,601.948390925998,601.948390925998,a,1.8648433610032953,1,774,2,603.8338207609995,605.3354734709974,,,,,,,,,,,,,,,,,,,,,,,,,,,,,,,,,,,,,,,,,,,,,,,,,,,,,,,,,,,,,,,,,,,,,,32144,2022-10-25_13h59.32.778,vts_reward_expectancy_bt_OFFLINE,2022.2.4,59.94268795621936,
0,0,1,0,1,0,0,0,hexagon,triangle,2,0,2,0,3,3,39,6,,,,,,,,,,,,,,,,,,,,,,,,,,,,,,,,,,,,,,,,605.8359294900001,605.8359294900001,605.8359294900001,605.8359294900001,605.8359294900001,605.8359294900001,605.8359294900001,605.8359294900001,605.8359294900001,605.8359294900001,a,1.0748465780015977,10,784,2,606.9372545549995,608.4386716429981,,,,,,,,,,,,,,,,,,,,,,,,,,,,,,,,,,,,,,,,,,,,,,,,,,,,,,,,,,,,,,,,,,,,,,32144,2022-10-25_13h59.32.778,vts_reward_expectancy_bt_OFFLINE,2022.2.4,59.94268795621936,
0,1,0,0,0,0,1,0,circle,hexagon,2,0,2,0,3,4,40,4,,,,,,,,,,,,,,,,,,,,,,,,,,,,,,,,,,,,,,,,608.9395033239998,608.9395033239998,608.9395033239998,608.9395033239998,608.9395033239998,608.9395033239998,608.9395033239998,608.9395033239998,608.9395033239998,608.9395033239998,a,1.4260509790037759,1,785,2,610.3912245499996,611.8924520779983,,,,,,,,,,,,,,,,,,,,,,,,,,,,,,,,,,,,,,,,,,,,,,,,,,,,,,,,,,,,,,,,,,,,,,32144,2022-10-25_13h59.32.778,vts_reward_expectancy_bt_OFFLINE,2022.2.4,59.94268795621936,
0,1,0,0,0,0,0,1,circle,star,2,0,2,0,3,5,41,5,,,,,,,,,,,,,,,,,,,,,,,,,,,,,,,,,,,,,,,,612.3932454729984,612.3932454729984,612.3932454729984,612.3932454729984,612.3932454729984,612.3932454729984,612.3932454729984,612.3932454729984,612.3932454729984,612.3932454729984,l,1.5334637750020192,1,786,2,613.9448669729973,615.4463222899976,,,,,,,,,,,,,,,,,,,,,,,,,,,,,,,,,,,,,,,,,,,,,,,,,,,,,,,,,,,,,,,,,,,,,,32144,2022-10-25_13h59.32.778,vts_reward_expectancy_bt_OFFLINE,2022.2.4,59.94268795621936,
0,0,0,1,0,0,1,0,star,hexagon,2,0,2,0,3,6,42,11,,,,,,,,,,,,,,,,,,,,,,,,,,,,,,,,,,,,,,,,615.9469824080006,615.9469824080006,615.9469824080006,615.9469824080006,615.9469824080006,615.9469824080006,615.9469824080006,615.9469824080006,615.9469824080006,615.9469824080006,l,1.6195178060042963,1,787,2,617.5987638509978,619.1004395009986,,,,,,,,,,,,,,,,,,,,,,,,,,,,,,,,,,,,,,,,,,,,,,,,,,,,,,,,,,,,,,,,,,,,,,32144,2022-10-25_13h59.32.778,vts_reward_expectancy_bt_OFFLINE,2022.2.4,59.94268795621936,
1,0,0,0,0,1,0,0,triangle,circle,2,0,2,0,3,7,43,0,,,,,,,,,,,,,,,,,,,,,,,,,,,,,,,,,,,,,,,,619.6010908339995,619.6010908339995,619.6010908339995,619.6010908339995,619.6010908339995,619.6010908339995,619.6010908339995,619.6010908339995,619.6010908339995,619.6010908339995,l,1.4047856540055363,10,797,2,621.0361197479979,622.5376689709992,,,,,,,,,,,,,,,,,,,,,,,,,,,,,,,,,,,,,,,,,,,,,,,,,,,,,,,,,,,,,,,,,,,,,,32144,2022-10-25_13h59.32.778,vts_reward_expectancy_bt_OFFLINE,2022.2.4,59.94268795621936,
1,0,0,0,0,0,0,1,triangle,star,2,0,2,0,3,8,44,2,,,,,,,,,,,,,,,,,,,,,,,,,,,,,,,,,,,,,,,,623.0382705029988,623.0382705029988,623.0382705029988,623.0382705029988,623.0382705029988,623.0382705029988,623.0382705029988,623.0382705029988,623.0382705029988,623.0382705029988,a,1.311602343001141,1,798,2,624.3732295199989,625.8748246239993,,,,,,,,,,,,,,,,,,,,,,,,,,,,,,,,,,,,,,,,,,,,,,,,,,,,,,,,,,,,,,,,,,,,,,32144,2022-10-25_13h59.32.778,vts_reward_expectancy_bt_OFFLINE,2022.2.4,59.94268795621936,
1,0,0,0,0,0,1,0,triangle,hexagon,2,0,2,0,3,9,45,1,,,,,,,,,,,,,,,,,,,,,,,,,,,,,,,,,,,,,,,,626.3750893979995,626.3750893979995,626.3750893979995,626.3750893979995,626.3750893979995,626.3750893979995,626.3750893979995,626.3750893979995,626.3750893979995,626.3750893979995,l,1.1592951599996013,1,799,2,627.5598004130006,629.0615570579976,,,,,,,,,,,,,,,,,,,,,,,,,,,,,,,,,,,,,,,,,,,,,,,,,,,,,,,,,,,,,,,,,,,,,,32144,2022-10-25_13h59.32.778,vts_reward_expectancy_bt_OFFLINE,2022.2.4,59.94268795621936,
0,0,1,0,0,1,0,0,hexagon,circle,2,0,2,0,3,10,46,7,,,,,,,,,,,,,,,,,,,,,,,,,,,,,,,,,,,,,,,,629.5619041649989,629.5619041649989,629.5619041649989,629.5619041649989,629.5619041649989,629.5619041649989,629.5619041649989,629.5619041649989,629.5619041649989,629.5619041649989,l,0.98754430900226,1,800,2,630.579916065999,632.0814327579974,,,,,,,,,,,,,,,,,,,,,,,,,,,,,,,,,,,,,,,,,,,,,,,,,,,,,,,,,,,,,,,,,,,,,,32144,2022-10-25_13h59.32.778,vts_reward_expectancy_bt_OFFLINE,2022.2.4,59.94268795621936,
0,1,0,0,1,0,0,0,circle,triangle,2,0,2,0,3,11,47,3,,,,,,,,,,,,,,,,,,,,,,,,,,,,,,,,,,,,,,,,632.582114820998,632.582114820998,632.582114820998,632.582114820998,632.582114820998,632.582114820998,632.582114820998,632.582114820998,632.582114820998,632.582114820998,a,9.953154480001103,1,801,2,642.5595888839998,644.0615202400004,,,,,,,,,,,,,,,,,,,,,,,,,,,,,,,,,,,,,,,,,,,,,,,,,,,,,,,,,,,,,,,,,,,,,,32144,2022-10-25_13h59.32.778,vts_reward_expectancy_bt_OFFLINE,2022.2.4,59.94268795621936,
,,,,,,,,,,,,,,,,,,0,0,0,0,0,0,0,0,,,,,,,,,,,,,,,,,,,,,,,,,,,,,,,,,,,,,,,,,,,,,,,,727.5367558459984,,728.0373217209999,H,146,hexagon,0.0021042420012236107,721.5315594059975,723.0316942779973,723.0316942779973,723.0316942779973,726.0350421189978,726.0350421189978,726.0350421189978,726.0350421189978,0,0,None,0,726.0350421189978,727.5367558459984,,,,,,,,,,,,,,,,,,,,,,,,,,,,,,,,,,,,,,,,,,,,,,,,,,32144,2022-10-25_13h59.32.778,vts_reward_expectancy_bt_OFFLINE,2022.2.4,59.94268795621936,
,,,,,,,,,,,,,,,,,,0,0,0,0,1,0,1,0,,,,,,,,,,,,,,,,,,,,,,,,,,,,,,,,,,,,,,,,,,,,,,,,732.3420646609993,,,W,139,star,0.009059656000317773,728.5385362460001,730.0397373800006,730.0397373800006,730.0397373800006,,,,,1,1,f,0,730.8571860979973,,0.7740296280026087,,,,,,,,,,,,,,,,,,,,,,,,,,,,,,,,,,,,,,,,,,,,,,,,,32144,2022-10-25_13h59.32.778,vts_reward_expectancy_bt_OFFLINE,2022.2.4,59.94268795621936,
,,,,,,,,,,,,,,,,,,0,0,0,0,2,0,2,0,,,,,,,,,,,,,,,,,,,,,,,,,,,,,,,,,,,,,,,,,,,,,,,,736.8304204790002,,,D,160,hexagon,0.0011047150001104455,733.326533853,734.8281564699973,734.8281564699973,734.8281564699973,,,,,1,0,d,0,735.3286811049984,,0.4739609360040049,,,,,,,,,,,,,,,,,,,,,,,,,,,,,,,,,,,,,,,,,,,,,,,,,32144,2022-10-25_13h59.32.778,vts_reward_expectancy_bt_OFFLINE,2022.2.4,59.94268795621936,
,,,,,,,,,,,,,,,,,,0,0,0,0,3,0,3,0,,,,,,,,,,,,,,,,,,,,,,,,,,,,,,,,,,,,,,,,,,,,,,,,741.6691219780005,,,F,181,star,0.0013634739989356603,737.814821721,739.3165521489973,739.3165521489973,739.3165521489973,,,,,1,0,d,0,740.1674493059982,,0.818466905002424,,,,,,,,,,,,,,,,,,,,,,,,,,,,,,,,,,,,,,,,,,,,,,,,,32144,2022-10-25_13h59.32.778,vts_reward_expectancy_bt_OFFLINE,2022.2.4,59.94268795621936,
,,,,,,,,,,,,,,,,,,0,0,0,0,4,0,4,0,,,,,,,,,,,,,,,,,,,,,,,,,,,,,,,,,,,,,,,,,,,,,,,,746.2071533199996,,,B,125,star,0.0012120630017307121,742.6546514000001,744.154948804,744.154948804,744.154948804,,,,,1,0,d,0,744.7055696450007,,0.523840731002565,,,,,,,,,,,,,,,,,,,,,,,,,,,,,,,,,,,,,,,,,,,,,,,,,32144,2022-10-25_13h59.32.778,vts_reward_expectancy_bt_OFFLINE,2022.2.4,59.94268795621936,
,,,,,,,,,,,,,,,,,,0,0,0,0,5,0,5,0,,,,,,,,,,,,,,,,,,,,,,,,,,,,,,,,,,,,,,,,,,,,,,,,750.8459287599981,,,S,167,star,0.0014917709995643236,747.1916968859987,748.6932916099977,748.6932916099977,748.6932916099977,,,,,1,0,f,0,749.3442880189978,,0.6184798220056109,,,,,,,,,,,,,,,,,,,,,,,,,,,,,,,,,,,,,,,,,,,,,,,,,32144,2022-10-25_13h59.32.778,vts_reward_expectancy_bt_OFFLINE,2022.2.4,59.94268795621936,
,,,,,,,,,,,,,,,,,,0,0,0,0,6,0,6,0,,,,,,,,,,,,,,,,,,,,,,,,,,,,,,,,,,,,,,,,,,,,,,,,755.5177494679992,,,U,174,hexagon,0.0012984130007680506,751.8300658659973,753.3318593229997,753.3318593229997,753.3318593229997,,,,,1,0,f,0,754.0159691539993,,0.6575924970020424,,,,,,,,,,,,,,,,,,,,,,,,,,,,,,,,,,,,,,,,,,,,,,,,,32144,2022-10-25_13h59.32.778,vts_reward_expectancy_bt_OFFLINE,2022.2.4,59.94268795621936,
,,,,,,,,,,,,,,,,,,0,0,0,0,7,0,7,0,,,,,,,,,,,,,,,,,,,,,,,,,,,,,,,,,,,,,,,,,,,,,,,,760.0726621559988,,,Y,132,hexagon,0.0017781979986466467,756.5020991429992,758.0035564779973,758.0035564779973,758.0035564779973,,,,,1,0,f,0,758.5711092839992,,0.5458419720016536,,,,,,,,,,,,,,,,,,,,,,,,,,,,,,,,,,,,,,,,,,,,,,,,,32144,2022-10-25_13h59.32.778,vts_reward_expectancy_bt_OFFLINE,2022.2.4,59.94268795621936,
,,,,,,,,,,,,,,,,,,0,0,0,0,8,0,8,0,,,,,,,,,,,,,,,,,,,,,,,,,,,,,,,,,,,,,,,,,,,,,,,,764.9445661940008,,,H,146,star,0.0014660050001111813,761.0574739830008,762.5587671079993,762.5587671079993,762.5587671079993,,,,,1,0,d,0,763.4431345630001,,0.8543412880026153,,,,,,,,,,,,,,,,,,,,,,,,,,,,,,,,,,,,,,,,,,,,,,,,,32144,2022-10-25_13h59.32.778,vts_reward_expectancy_bt_OFFLINE,2022.2.4,59.94268795621936,
,,,,,,,,,,,,,,,,,,0,0,0,0,9,0,9,0,,,,,,,,,,,,,,,,,,,,,,,,,,,,,,,,,,,,,,,,,,,,,,,,769.5662579599993,,,W,139,star,0.0012148640016675927,765.9291233149997,767.4307520959992,767.4307520959992,767.4307520959992,,,,,1,0,f,0,768.0648093149975,,0.6161098330012464,,,,,,,,,,,,,,,,,,,,,,,,,,,,,,,,,,,,,,,,,,,,,,,,,32144,2022-10-25_13h59.32.778,vts_reward_expectancy_bt_OFFLINE,2022.2.4,59.94268795621936,
,,,,,,,,,,,,,,,,,,,,,,,,,,0,0,0,0,0,0,0,0,,,,,,,,,,,,,,,,,,,,,,,,,,,,,,,,,,,,,,,,789.6220043449975,,,F,160,hexagon,0.0020129540025664028,,,,,,,,,1,0,,1,788.1203611929996,,,785.7510078539999,787.2524595549985,787.2524595549985,787.2524595549985,k,0.8412131130025955,,,,,,,,,,,,,,,,,,,,,,,,,,,,,,,,,,,,,,,,,,,32144,2022-10-25_13h59.32.778,vts_reward_expectancy_bt_OFFLINE,2022.2.4,59.94268795621936,
,,,,,,,,,,,,,,,,,,,,,,,,,,0,0,0,0,1,0,1,0,,,,,,,,,,,,,,,,,,,,,,,,,,,,,,,,,,,,,,,,794.2438245439989,,,Y,139,hexagon,0.001084070001525106,,,,,,,,,1,0,,1,792.7419705479988,,,790.6064305,792.1079500279993,792.1079500279993,792.1079500279993,j,0.6018053770021652,,,,,,,,,,,,,,,,,,,,,,,,,,,,,,,,,,,,,,,,,,,32144,2022-10-25_13h59.32.778,vts_reward_expectancy_bt_OFFLINE,2022.2.4,59.94268795621936,
,,,,,,,,,,,,,,,,,,,,,,,,,,0,0,0,0,2,0,2,0,,,,,,,,,,,,,,,,,,,,,,,,,,,,,,,,,,,,,,,,799.0655710729989,,,S,132,star,0.0013563220018113498,,,,,,,,,1,0,,1,797.5638347959975,,,795.2281681839995,796.7298560909985,796.7298560909985,796.7298560909985,j,0.8031127080030274,,,,,,,,,,,,,,,,,,,,,,,,,,,,,,,,,,,,,,,,,,,32144,2022-10-25_13h59.32.778,vts_reward_expectancy_bt_OFFLINE,2022.2.4,59.94268795621936,
,,,,,,,,,,,,,,,,,,,,,,,,,,0,0,0,0,3,0,3,0,,,,,,,,,,,,,,,,,,,,,,,,,,,,,,,,,,,,,,,,804.0211548849984,,,H,181,star,0.0014516949995595496,,,,,,,,,1,0,,1,802.5194260789976,,,800.0501822129991,801.5516608389989,801.5516608389989,801.5516608389989,k,0.941981501004193,,,,,,,,,,,,,,,,,,,,,,,,,,,,,,,,,,,,,,,,,,,32144,2022-10-25_13h59.32.778,vts_reward_expectancy_bt_OFFLINE,2022.2.4,59.94268795621936,
,,,,,,,,,,,,,,,,,,,,,,,,,,0,0,0,0,4,0,4,0,,,,,,,,,,,,,,,,,,,,,,,,,,,,,,,,,,,,,,,,809.3603045960008,,,W,146,star,0.0015597309975419194,,,,,,,,,1,0,,1,807.8586033430001,,,805.0058804299988,806.5071466739973,806.5071466739973,806.5071466739973,j,1.3240457770043577,,,,,,,,,,,,,,,,,,,,,,,,,,,,,,,,,,,,,,,,,,,32144,2022-10-25_13h59.32.778,vts_reward_expectancy_bt_OFFLINE,2022.2.4,59.94268795621936,
,,,,,,,,,,,,,,,,,,,,,,,,,,0,0,0,0,5,0,5,0,,,,,,,,,,,,,,,,,,,,,,,,,,,,,,,,,,,,,,,,814.1323476680009,,,D,125,star,0.001307891998294508,,,,,,,,,1,0,,1,812.6307428299988,,,810.3446817889999,811.8463634129985,811.8463634129985,811.8463634129985,j,0.7522763929991925,,,,,,,,,,,,,,,,,,,,,,,,,,,,,,,,,,,,,,,,,,,32144,2022-10-25_13h59.32.778,vts_reward_expectancy_bt_OFFLINE,2022.2.4,59.94268795621936,
,,,,,,,,,,,,,,,,,,,,,,,,,,0,0,0,0,6,0,6,0,,,,,,,,,,,,,,,,,,,,,,,,,,,,,,,,,,,,,,,,819.1378164550006,,,B,174,hexagon,0.0014796300019952469,,,,,,,,,1,0,,1,817.6363474530008,,,815.1168760859982,816.6183442949987,816.6183442949987,816.6183442949987,k,0.9950918070026091,,,,,,,,,,,,,,,,,,,,,,,,,,,,,,,,,,,,,,,,,,,32144,2022-10-25_13h59.32.778,vts_reward_expectancy_bt_OFFLINE,2022.2.4,59.94268795621936,
,,,,,,,,,,,,,,,,,,,,,,,,,,0,0,0,0,7,0,7,0,,,,,,,,,,,,,,,,,,,,,,,,,,,,,,,,,,,,,,,,824.7773684959975,,,U,167,hexagon,0.0016933949991653208,,,,,,,,,1,0,,1,823.2756414340001,,,820.1221645779988,821.6240512339973,821.6240512339973,821.6240512339973,k,1.6216150880027271,,,,,,,,,,,,,,,,,,,,,,,,,,,,,,,,,,,,,,,,,,,32144,2022-10-25_13h59.32.778,vts_reward_expectancy_bt_OFFLINE,2022.2.4,59.94268795621936,
,,,,,,,,,,,,,,,,,,,,,,,,,,0,0,0,0,8,0,8,0,,,,,,,,,,,,,,,,,,,,,,,,,,,,,,,,,,,,,,,,829.465736225,,,F,160,hexagon,0.001052080999215832,,,,,,,,,1,0,,1,827.9640490889979,,,825.7618941799992,827.2633675389989,827.2633675389989,827.2633675389989,k,0.6777149550034665,,,,,,,,,,,,,,,,,,,,,,,,,,,,,,,,,,,,,,,,,,,32144,2022-10-25_13h59.32.778,vts_reward_expectancy_bt_OFFLINE,2022.2.4,59.94268795621936,
,,,,,,,,,,,,,,,,,,,,,,,,,,0,0,0,0,9,0,9,0,,,,,,,,,,,,,,,,,,,,,,,,,,,,,,,,,,,,,,,,834.2378361009978,,,Y,139,hexagon,0.0010712960029195528,,,,,,,,,1,0,,1,832.7362197549992,,,830.4500945549989,831.9519088239977,831.9519088239977,831.9519088239977,j,0.7514891580030962,,,,,,,,,,,,,,,,,,,,,,,,,,,,,,,,,,,,,,,,,,,32144,2022-10-25_13h59.32.778,vts_reward_expectancy_bt_OFFLINE,2022.2.4,59.94268795621936,
,,,,,,,,,,,,,,,,,,,,,,,,,,,,,,,,,,0,0,0,0,0,0,0,0,,,,,,,,,,,,,,,,,,,,,,,,,,,,0,801,,,889.014858216,,,F,181,star,0.001941153997904621,,,,,,,,,1,0,,2,,,,,,,,,,885.8782086280007,885.8782086280007,885.8782086280007,885.8782086280007,887.3629480479976,887.3629480479976,887.3629480479976,887.3629480479976,887.3795875379983,887.3795875379983,887.3795875379983,887.3795875379983,-1,letter,NA,d,0.12378495000302792,vtsPrac,887.5298367289979,,,,,,,,,,,,,,,,,,,,,,,,32144,2022-10-25_13h59.32.778,vts_reward_expectancy_bt_OFFLINE,2022.2.4,59.94268795621936,
,,,,,,,,,,,,,,,,,,,,,,,,,,,,,,,,,,0,0,0,0,1,0,1,0,,,,,,,,,,,,,,,,,,,,,,,,,,,,0,801,,,895.5721870310008,,,S,139,hexagon,0.0008802999982435722,,,,,,,,,0,0,,2,,,,,,,,,,890.00117426,890.00117426,890.00117426,890.00117426,891.500838988999,891.500838988999,891.500838988999,891.500838988999,891.500838988999,891.500838988999,891.500838988999,891.500838988999,repeat,letter,NA,d,2.544162365000375,vtsPrac,894.0723458949979,,,,,,,,,,,,,,,,,,,,,,,,32144,2022-10-25_13h59.32.778,vts_reward_expectancy_bt_OFFLINE,2022.2.4,59.94268795621936,
,,,,,,,,,,,,,,,,,,,,,,,,,,,,,,,,,,0,0,0,0,2,0,2,0,,,,,,,,,,,,,,,,,,,,,,,,,,,,0,801,,,900.5277580679976,,,B,146,hexagon,0.001477869001973886,,,,,,,,,1,1,,2,,,,,,,,,,896.5574387999986,896.5574387999986,896.5574387999986,896.5574387999986,898.0583433539978,898.0583433539978,898.0583433539978,898.0583433539978,898.0583433539978,898.0583433539978,898.0583433539978,898.0583433539978,repeat,letter,lettRpt,d,0.9403456580039347,vtsPrac,899.02700568,,,,,,,,,,,,,,,,,,,,,,,,32144,2022-10-25_13h59.32.778,vts_reward_expectancy_bt_OFFLINE,2022.2.4,59.94268795621936,
,,,,,,,,,,,,,,,,,,,,,,,,,,,,,,,,,,0,0,0,0,3,0,3,0,,,,,,,,,,,,,,,,,,,,,,,,,,,,0,801,,,906.6009595889991,,,H,167,star,0.001064353000401752,,,,,,,,,1,0,,2,,,,,,,,,,901.5122236200004,901.5122236200004,901.5122236200004,901.5122236200004,903.0136554460005,903.0136554460005,903.0136554460005,903.0136554460005,903.0136554460005,903.0136554460005,903.0136554460005,903.0136554460005,repeat,letter,lettRpt,d,2.063939431001927,vtsPrac,905.0992541429987,,,,,,,,,,,,,,,,,,,,,,,,32144,2022-10-25_13h59.32.778,vts_reward_expectancy_bt_OFFLINE,2022.2.4,59.94268795621936,
,,,,,,,,,,,,,,,,,,,,,,,,,,,,,,,,,,0,0,0,0,4,0,4,0,,,,,,,,,,,,,,,,,,,,,,,,,,,,0,801,,,911.9233602130007,,,F,181,hexagon,0.0015674140013288707,,,,,,,,,1,0,,2,,,,,,,,,,907.5853501300007,907.5853501300007,907.5853501300007,907.5853501300007,909.0871520529981,909.0871520529981,909.0871520529981,909.0871520529981,909.0871520529981,909.0871520529981,909.0871520529981,909.0871520529981,repeat,letter,lettRpt,d,1.3024045240017585,vtsPrac,910.4219755560007,,,,,,,,,,,,,,,,,,,,,,,,32144,2022-10-25_13h59.32.778,vts_reward_expectancy_bt_OFFLINE,2022.2.4,59.94268795621936,
,,,,,,,,,,,,,,,,,,,,,,,,,,,,,,,,,,0,0,0,0,5,0,5,0,,,,,,,,,,,,,,,,,,,,,,,,,,,,0,801,,,916.8456269689996,,,S,139,star,0.0011844109976664186,,,,,,,,,1,0,,2,,,,,,,,,,912.9079571689981,912.9079571689981,912.9079571689981,912.9079571689981,914.4094705059979,914.4094705059979,914.4094705059979,914.4094705059979,914.4094705059979,914.4094705059979,914.4094705059979,914.4094705059979,repeat,letter,lettRpt,f,0.9179489650014148,vtsPrac,915.3438728830006,916.8456269689996,,,,,,,,,,,,,,,,,,,,,,,32144,2022-10-25_13h59.32.778,vts_reward_expectancy_bt_OFFLINE,2022.2.4,59.94268795621936,
,,,,,,,,,,,,,,,,,,,,,,,,,,,,,,,,,,0,0,0,0,6,0,6,0,,,,,,,,,,,,,,,,,,,,,,,,,,,,0,801,,,921.6174310679999,,,B,146,star,0.0009414310006832238,,,,,,,,,1,0,,2,,,,,,,,,,917.8300674629972,917.8300674629972,917.8300674629972,917.8300674629972,919.3318259560001,919.3318259560001,919.3318259560001,919.3318259560001,919.3318259560001,919.3318259560001,919.3318259560001,919.3318259560001,repeat,letter,lettRpt,d,0.7531176940028672,vtsPrac,920.1160413939979,,,,,,,,,,,,,,,,,,,,,,,,32144,2022-10-25_13h59.32.778,vts_reward_expectancy_bt_OFFLINE,2022.2.4,59.94268795621936,
,,,,,,,,,,,,,,,,,,,,,,,,,,,,,,,,,,0,0,0,0,7,0,7,0,,,,,,,,,,,,,,,,,,,,,,,,,,,,0,801,,,926.5062227710005,,,H,167,hexagon,0.0013720810020458885,,,,,,,,,1,0,,2,,,,,,,,,,922.6019380629987,922.6019380629987,922.6019380629987,922.6019380629987,924.1036290960001,924.1036290960001,924.1036290960001,924.1036290960001,924.1036290960001,924.1036290960001,924.1036290960001,924.1036290960001,repeat,letter,lettRpt,d,0.8776874560026044,vtsPrac,925.0045773839993,,,,,,,,,,,,,,,,,,,,,,,,32144,2022-10-25_13h59.32.778,vts_reward_expectancy_bt_OFFLINE,2022.2.4,59.94268795621936,
,,,,,,,,,,,,,,,,,,,,,,,,,,,,,,,,,,0,0,0,0,8,0,8,0,,,,,,,,,,,,,,,,,,,,,,,,,,,,0,801,,,931.1780934579983,,,U,139,hexagon,0.001319206003245199,,,,,,,,,1,0,,2,,,,,,,,,,927.4907281880005,927.4907281880005,927.4907281880005,927.4907281880005,928.992170952999,928.992170952999,928.992170952999,928.992170952999,928.992170952999,928.992170952999,928.992170952999,928.992170952999,repeat,letter,lettRpt,f,0.6528972990017792,vtsPrac,929.6763711589992,,,,,,,,,,,,,,,,,,,,,,,,32144,2022-10-25_13h59.32.778,vts_reward_expectancy_bt_OFFLINE,2022.2.4,59.94268795621936,
,,,,,,,,,,,,,,,,,,,,,,,,,,,,,,,,,,0,0,0,0,9,0,9,0,,,,,,,,,,,,,,,,,,,,,,,,,,,,0,801,,,935.8831112699991,,,S,160,hexagon,0.0010359959997003898,,,,,,,,,0,0,,2,,,,,,,,,,932.1623853860001,932.1623853860001,932.1623853860001,932.1623853860001,933.6641746349997,933.6641746349997,933.6641746349997,933.6641746349997,933.6641746349997,933.6641746349997,933.6641746349997,933.6641746349997,repeat,letter,NA,d,0.6937118189998728,vtsPrac,934.3826867209973,,,,,,,,,,,,,,,,,,,,,,,,32144,2022-10-25_13h59.32.778,vts_reward_expectancy_bt_OFFLINE,2022.2.4,59.94268795621936,
,,,,,,,,,,,,,,,,,,,,,,,,,,,,,,,,,,0,0,0,0,10,0,10,0,,,,,,,,,,,,,,,,,,,,,,,,,,,,0,801,,,940.4549009629991,,,B,132,star,0.0011430619997554459,,,,,,,,,1,1,,2,,,,,,,,,,936.8676098649994,936.8676098649994,936.8676098649994,936.8676098649994,938.3693230949975,938.3693230949975,938.3693230949975,938.3693230949975,938.3693230949975,938.3693230949975,938.3693230949975,938.3693230949975,repeat,letter,lettRpt,d,0.5649996770007419,vtsPrac,938.9543352839974,,,,,,,,,,,,,,,,,,,,,,,,32144,2022-10-25_13h59.32.778,vts_reward_expectancy_bt_OFFLINE,2022.2.4,59.94268795621936,
,,,,,,,,,,,,,,,,,,,,,,,,,,,,,,,,,,0,0,0,0,11,0,11,0,,,,,,,,,,,,,,,,,,,,,,,,,,,,0,801,,,945.4103504399973,,,F,181,star,0.001268312000320293,,,,,,,,,1,0,,2,,,,,,,,,,941.4392941359984,941.4392941359984,941.4392941359984,941.4392941359984,942.9410707940006,942.9410707940006,942.9410707940006,942.9410707940006,942.9410707940006,942.9410707940006,942.9410707940006,942.9410707940006,repeat,letter,lettRpt,d,0.935961490002228,vtsPrac,943.9088151449978,,,,,,,,,,,,,,,,,,,,,,,,32144,2022-10-25_13h59.32.778,vts_reward_expectancy_bt_OFFLINE,2022.2.4,59.94268795621936,
,,,,,,,,,,,,,,,,,,,,,,,,,,,,,,,,,,0,0,0,0,12,0,12,0,,,,,,,,,,,,,,,,,,,,,,,,,,,,0,801,,,950.349305112999,,,F,125,hexagon,0.001308771999902092,,,,,,,,,1,0,,2,,,,,,,,,,946.3949312500008,946.3949312500008,946.3949312500008,946.3949312500008,947.8964224650008,947.8964224650008,947.8964224650008,947.8964224650008,947.8964224650008,947.8964224650008,947.8964224650008,947.8964224650008,repeat,letter,lettRpt,d,0.9346316390001448,vtsPrac,948.8474741760001,950.349305112999,,,,,,,,,,,,,,,,,,,,,,,32144,2022-10-25_13h59.32.778,vts_reward_expectancy_bt_OFFLINE,2022.2.4,59.94268795621936,
,,,,,,,,,,,,,,,,,,,,,,,,,,,,,,,,,,0,0,0,0,13,0,13,0,,,,,,,,,,,,,,,,,,,,,,,,,,,,0,801,,,955.1713667339973,,,U,146,star,0.0005278320022625849,,,,,,,,,1,0,,2,,,,,,,,,,951.3337213329978,951.3337213329978,951.3337213329978,951.3337213329978,952.8352475629981,952.8352475629981,952.8352475629981,952.8352475629981,952.8352475629981,952.8352475629981,952.8352475629981,952.8352475629981,repeat,letter,lettRpt,f,0.8020669790021202,vtsPrac,953.669759354998,,,,,,,,,,,,,,,,,,,,,,,,32144,2022-10-25_13h59.32.778,vts_reward_expectancy_bt_OFFLINE,2022.2.4,59.94268795621936,
,,,,,,,,,,,,,,,,,,,,,,,,,,,,,,,,,,0,0,0,0,14,0,14,0,,,,,,,,,,,,,,,,,,,,,,,,,,,,0,801,,,961.5282762709976,,,W,181,star,0.0013204089991631918,,,,,,,,,0,0,,2,,,,,,,,,,956.1557386780005,956.1557386780005,956.1557386780005,956.1557386780005,957.6570689260006,957.6570689260006,957.6570689260006,957.6570689260006,957.6570689260006,957.6570689260006,957.6570689260006,957.6570689260006,repeat,letter,NA,d,2.3415019170024607,vtsPrac,960.0277357399973,,,,,,,,,,,,,,,,,,,,,,,,32144,2022-10-25_13h59.32.778,vts_reward_expectancy_bt_OFFLINE,2022.2.4,59.94268795621936,
,,,,,,,,,,,,,,,,,,,,,,,,,,,,,,,,,,0,0,0,0,15,0,15,0,,,,,,,,,,,,,,,,,,,,,,,,,,,,0,801,,,966.7839850979981,,,S,160,hexagon,0.0011060719989473,,,,,,,,,1,1,,2,,,,,,,,,,962.5125327860005,962.5125327860005,962.5125327860005,962.5125327860005,964.0142349749985,964.0142349749985,964.0142349749985,964.0142349749985,964.0142349749985,964.0142349749985,964.0142349749985,964.0142349749985,switch,number,numSwt,k,1.2410918700006732,vtsPrac,965.2839584699977,,,,,,,,,,,,,,,,,,,,,,,,32144,2022-10-25_13h59.32.778,vts_reward_expectancy_bt_OFFLINE,2022.2.4,59.94268795621936,
,,,,,,,,,,,,,,,,,,,,,,,,,,,,,,,,,,1,0,1,0,0,0,0,0,,,,,,,,,,,,,,,,,,,,,,,,,,,,0,801,,,989.7592060459974,,,W,174,hexagon,0.0018942720016639214,,,,,,,,,1,0,,3,,,,,,,,,,985.8048843529978,985.8048843529978,985.8048843529978,985.8048843529978,987.3068420479976,987.3068420479976,987.3068420479976,987.3068420479976,987.3068420479976,987.3068420479976,987.3068420479976,987.3068420479976,switch,letter,lettSwt,f,0.9239271310034383,vtsPrac,988.257865749998,,,,,,,,,,,,,,,,,,,,,,,,32144,2022-10-25_13h59.32.778,vts_reward_expectancy_bt_OFFLINE,2022.2.4,59.94268795621936,
,,,,,,,,,,,,,,,,,,,,,,,,,,,,,,,,,,1,0,1,0,1,0,1,0,,,,,,,,,,,,,,,,,,,,,,,,,,,,0,801,,,994.7814948880005,,,U,167,hexagon,0.001441075000911951,,,,,,,,,1,0,,3,,,,,,,,,,990.7437459289977,990.7437459289977,990.7437459289977,990.7437459289977,992.2455939289976,992.2455939289976,992.2455939289976,992.2455939289976,992.2455939289976,992.2455939289976,992.2455939289976,992.2455939289976,repeat,letter,lettRpt,f,1.0177394570018805,vtsPrac,993.2798801729987,994.7814948880005,,,,,,,,,,,,,,,,,,,,,,,32144,2022-10-25_13h59.32.778,vts_reward_expectancy_bt_OFFLINE,2022.2.4,59.94268795621936,
,,,,,,,,,,,,,,,,,,,,,,,,,,,,,,,,,,1,0,1,0,2,0,2,0,,,,,,,,,,,,,,,,,,,,,,,,,,,,0,801,,,999.5034738389986,,,B,125,hexagon,0.0007700930000282824,,,,,,,,,1,0,,3,,,,,,,,,,995.7658588509985,995.7658588509985,995.7658588509985,995.7658588509985,997.2677234099974,997.2677234099974,997.2677234099974,997.2677234099974,997.2677234099974,997.2677234099974,997.2677234099974,997.2677234099974,repeat,letter,lettRpt,d,0.7070040510043327,vtsPrac,998.001945783999,,,,,,,,,,,,,,,,,,,,,,,,32144,2022-10-25_13h59.32.778,vts_reward_expectancy_bt_OFFLINE,2022.2.4,59.94268795621936,
,,,,,,,,,,,,,,,,,,,,,,,,,,,,,,,,,,1,0,1,0,3,0,3,0,,,,,,,,,,,,,,,,,,,,,,,,,,,,0,801,,,1004.3921579429989,,,H,132,star,0.0012946630013175309,,,,,,,,,1,0,,3,,,,,,,,,,1000.4879613379999,1000.4879613379999,1000.4879613379999,1000.4879613379999,1001.9895279649973,1001.9895279649973,1001.9895279649973,1001.9895279649973,1001.9895279649973,1001.9895279649973,1001.9895279649973,1001.9895279649973,repeat,letter,lettRpt,d,0.8732719790023111,vtsPrac,1002.8905163300005,1004.3921579429989,,,,,,,,,,,,,,,,,,,,,,,32144,2022-10-25_13h59.32.778,vts_reward_expectancy_bt_OFFLINE,2022.2.4,59.94268795621936,
,,,,,,,,,,,,,,,,,,,,,,,,,,,,,,,,,,1,0,1,0,4,0,4,0,,,,,,,,,,,,,,,,,,,,,,,,,,,,0,801,,,1009.7145046229998,,,W,174,star,0.0010626080002111848,,,,,,,,,1,0,,3,,,,,,,,,,1005.3767174029999,1005.3767174029999,1005.3767174029999,1005.3767174029999,1006.8783579779993,1006.8783579779993,1006.8783579779993,1006.8783579779993,1006.8783579779993,1006.8783579779993,1006.8783579779993,1006.8783579779993,repeat,letter,lettRpt,f,1.3035442260006675,vtsPrac,1008.2128483880006,,,,,,,,,,,,,,,,,,,,,,,,32144,2022-10-25_13h59.32.778,vts_reward_expectancy_bt_OFFLINE,2022.2.4,59.94268795621936,
,,,,,,,,,,,,,,,,,,,,,,,,,,,,,,,,,,1,0,1,0,5,0,5,0,,,,,,,,,,,,,,,,,,,,,,,,,,,,0,801,,,1014.7869059959994,,,U,167,hexagon,0.0012031759979436174,,,,,,,,,1,0,,3,,,,,,,,,,1010.6991007260003,1010.6991007260003,1010.6991007260003,1010.6991007260003,1012.2006630739997,1012.2006630739997,1012.2006630739997,1012.2006630739997,1012.2006630739997,1012.2006630739997,1012.2006630739997,1012.2006630739997,repeat,letter,lettRpt,f,1.0523963600026036,vtsPrac,1013.2853206079999,,,,,,,,,,,,,,,,,,,,,,,,32144,2022-10-25_13h59.32.778,vts_reward_expectancy_bt_OFFLINE,2022.2.4,59.94268795621936,
,,,,,,,,,,,,,,,,,,,,,,,,,,,,,,,,,,1,0,1,0,6,0,6,0,,,,,,,,,,,,,,,,,,,,,,,,,,,,0,801,,,1019.6256737330004,,,B,125,star,0.00138503499692888,,,,,,,,,1,0,,3,,,,,,,,,,1015.7714608249989,1015.7714608249989,1015.7714608249989,1015.7714608249989,1017.2732199799975,1017.2732199799975,1017.2732199799975,1017.2732199799975,1017.2732199799975,1017.2732199799975,1017.2732199799975,1017.2732199799975,repeat,letter,lettRpt,d,0.8286810360004893,vtsPrac,1018.1240284439991,,,,,,,,,,,,,,,,,,,,,,,,32144,2022-10-25_13h59.32.778,vts_reward_expectancy_bt_OFFLINE,2022.2.4,59.94268795621936,
,,,,,,,,,,,,,,,,,,,,,,,,,,,,,,,,,,1,0,1,0,7,0,7,0,,,,,,,,,,,,,,,,,,,,,,,,,,,,0,801,,,1025.7824232860003,,,H,132,hexagon,0.0013446550001390278,,,,,,,,,1,0,,3,,,,,,,,,,1020.6101666489994,1020.6101666489994,1020.6101666489994,1020.6101666489994,1022.1117013779985,1022.1117013779985,1022.1117013779985,1022.1117013779985,1022.1117013779985,1022.1117013779985,1022.1117013779985,1022.1117013779985,repeat,letter,lettRpt,d,2.1425338049994025,vtsPrac,1024.2807726600004,1025.7824232860003,,,,,,,,,,,,,,,,,,,,,,,32144,2022-10-25_13h59.32.778,vts_reward_expectancy_bt_OFFLINE,2022.2.4,59.94268795621936,
,,,,,,,,,,,,,,,,,,,,,,,,,,,,,,,,,,1,0,1,0,8,0,8,0,,,,,,,,,,,,,,,,,,,,,,,,,,,,0,801,,,1030.4210361629994,,,F,174,star,0.0009569940011715516,,,,,,,,,1,0,,3,,,,,,,,,,1026.7668481109977,1026.7668481109977,1026.7668481109977,1026.7668481109977,1028.2687299209974,1028.2687299209974,1028.2687299209974,1028.2687299209974,1028.2687299209974,1028.2687299209974,1028.2687299209974,1028.2687299209974,repeat,letter,lettRpt,d,0.6181289170017408,vtsPrac,1028.9193767379984,,,,,,,,,,,,,,,,,,,,,,,,32144,2022-10-25_13h59.32.778,vts_reward_expectancy_bt_OFFLINE,2022.2.4,59.94268795621936,
,,,,,,,,,,,,,,,,,,,,,,,,,,,,,,,,,,1,0,1,0,9,0,9,0,,,,,,,,,,,,,,,,,,,,,,,,,,,,0,801,,,1035.0761453349987,,,U,167,star,0.0012169980000180658,,,,,,,,,1,0,,3,,,,,,,,,,1031.4051953130001,1031.4051953130001,1031.4051953130001,1031.4051953130001,1032.9069073789979,1032.9069073789979,1032.9069073789979,1032.9069073789979,1032.9069073789979,1032.9069073789979,1032.9069073789979,1032.9069073789979,repeat,letter,lettRpt,f,0.6431080110014591,vtsPrac,1033.574344935998,,,,,,,,,,,,,,,,,,,,,,,,32144,2022-10-25_13h59.32.778,vts_reward_expectancy_bt_OFFLINE,2022.2.4,59.94268795621936,
,,,,,,,,,,,,,,,,,,,,,,,,,,,,,,,,,,1,0,1,0,10,0,10,0,,,,,,,,,,,,,,,,,,,,,,,,,,,,0,801,,,1039.580983754,,,D,146,star,0.0011161449983774219,,,,,,,,,1,0,,3,,,,,,,,,,1036.0603221549973,1036.0603221549973,1036.0603221549973,1036.0603221549973,1037.5621309390008,1037.5621309390008,1037.5621309390008,1037.5621309390008,1037.5621309390008,1037.5621309390008,1037.5621309390008,1037.5621309390008,repeat,letter,lettRpt,d,0.4846981830014556,vtsPrac,1038.0792688010006,,,,,,,,,,,,,,,,,,,,,,,,32144,2022-10-25_13h59.32.778,vts_reward_expectancy_bt_OFFLINE,2022.2.4,59.94268795621936,
,,,,,,,,,,,,,,,,,,,,,,,,,,,,,,,,,,1,0,1,0,11,0,11,0,,,,,,,,,,,,,,,,,,,,,,,,,,,,0,801,,,1044.5030415099973,,,W,125,hexagon,0.0012292520004848484,,,,,,,,,1,0,,3,,,,,,,,,,1040.5654031739978,1040.5654031739978,1040.5654031739978,1040.5654031739978,1042.0670627779982,1042.0670627779982,1042.0670627779982,1042.0670627779982,1042.0670627779982,1042.0670627779982,1042.0670627779982,1042.0670627779982,repeat,letter,lettRpt,f,0.9152629590025754,vtsPrac,1043.0012942159992,,,,,,,,,,,,,,,,,,,,,,,,32144,2022-10-25_13h59.32.778,vts_reward_expectancy_bt_OFFLINE,2022.2.4,59.94268795621936,
,,,,,,,,,,,,,,,,,,,,,,,,,,,,,,,,,,1,0,1,0,12,0,12,0,,,,,,,,,,,,,,,,,,,,,,,,,,,,0,801,,,1049.6920417559995,,,H,139,star,0.0013382879988057539,,,,,,,,,1,0,,3,,,,,,,,,,1045.4876765759982,1045.4876765759982,1045.4876765759982,1045.4876765759982,1046.9890756679997,1046.9890756679997,1046.9890756679997,1046.9890756679997,1046.9890756679997,1046.9890756679997,1046.9890756679997,1046.9890756679997,repeat,letter,lettRpt,d,1.1688577090026229,vtsPrac,1048.1906334259984,,,,,,,,,,,,,,,,,,,,,,,,32144,2022-10-25_13h59.32.778,vts_reward_expectancy_bt_OFFLINE,2022.2.4,59.94268795621936,
,,,,,,,,,,,,,,,,,,,,,,,,,,,,,,,,,,1,0,1,0,13,0,13,0,,,,,,,,,,,,,,,,,,,,,,,,,,,,0,801,,,1055.2318787650001,,,Y,132,star,0.0010312430022167973,,,,,,,,,1,0,,3,,,,,,,,,,1050.6765418359973,1050.6765418359973,1050.6765418359973,1050.6765418359973,1052.1781893660009,1052.1781893660009,1052.1781893660009,1052.1781893660009,1052.1781893660009,1052.1781893660009,1052.1781893660009,1052.1781893660009,repeat,letter,lettRpt,f,1.5308358500042232,vtsPrac,1053.7299180839982,,,,,,,,,,,,,,,,,,,,,,,,32144,2022-10-25_13h59.32.778,vts_reward_expectancy_bt_OFFLINE,2022.2.4,59.94268795621936,
