LTriangleOpac,LCircleOpac,LHexagonOpac,LStarOpac,RTriangleOpac,RCircleOpac,RHexagonOpac,RStarOpac,LShape_ID,RShape_ID,training_blocks.thisRepN,training_blocks.thisTrialN,training_blocks.thisN,training_blocks.thisIndex,training.thisRepN,training.thisTrialN,training.thisN,training.thisIndex,task1_prac_redo.thisRepN,task1_prac_redo.thisTrialN,task1_prac_redo.thisN,task1_prac_redo.thisIndex,task1_prac_trials.thisRepN,task1_prac_trials.thisTrialN,task1_prac_trials.thisN,task1_prac_trials.thisIndex,task2_prac_redo.thisRepN,task2_prac_redo.thisTrialN,task2_prac_redo.thisN,task2_prac_redo.thisIndex,task2_praac_trials.thisRepN,task2_praac_trials.thisTrialN,task2_praac_trials.thisN,task2_praac_trials.thisIndex,vts_prac_redo.thisRepN,vts_prac_redo.thisTrialN,vts_prac_redo.thisN,vts_prac_redo.thisIndex,vts_practice_trials.thisRepN,vts_practice_trials.thisTrialN,vts_practice_trials.thisN,vts_practice_trials.thisIndex,trials_norew.thisRepN,trials_norew.thisTrialN,trials_norew.thisN,trials_norew.thisIndex,block.thisRepN,block.thisTrialN,block.thisN,block.thisIndex,trials_rew.thisRepN,trials_rew.thisTrialN,trials_rew.thisN,trials_rew.thisIndex,key_resp.started,key_resp.keys,key_resp.rt,left_circle.started,right_circle.started,left_triangle.started,right_triangle.started,left_star.started,right_star.started,left_hexagon.started,right_hexagon.started,training_fix.started,training_resp.started,training_resp.keys,training_resp.rt,points_trial,points_cumul,trainBlock,training_feedback_txt.started,training_feedback_txt.stopped,fix.started,fix.stopped,curr_topStim,curr_bottStim,curr_shape,ISI.started,tgt_fix_prac1.started,top_target_prac1.started,bott_target_prac1.started,target_resp_prac1.started,top_target_prac1.stopped,bott_target_prac1.stopped,target_resp_prac1.stopped,acc,E1,target_resp_prac1.keys,pracBlock,prac_fback_text.started,target_resp_prac1.rt,prac_fback_text.stopped,tgt_fix_prac2.started,top_target_prac2.started,bott_target_prac2.started,target_resp_prac2.started,top_target_prac2.stopped,bott_target_prac2.stopped,target_resp_prac2.stopped,target_resp_prac2.keys,target_resp_prac2.rt,star.started,hegagon.started,triangle.started,circle.started,top_target.started,tgt_fix.started,bot_target.started,target_resp.started,star.stopped,hegagon.stopped,triangle.stopped,circle.stopped,top_target.stopped,tgt_fix.stopped,bot_target.stopped,target_resp.stopped,alt,task,condition,target_resp.keys,rewCond,vts_fback.started,target_resp.rt,vts_fback.stopped,blockNum,norew_fback.started,norew_fback.stopped,key_resp_2.keys,key_resp_2.rt,rewExpectancy,feedbk_text.started,feedbk_text.stopped,text_3.started,debrief.started,text_3.stopped,button.started,debrief.index,debrief.itemText,debrief.type,debrief.granularity,debrief.font,debrief.markerColor,debrief.response,debrief.rt,button.numClicks,button.timesOn,button.timesOff,participant,date,expName,psychopyVersion,frameRate,
,,,,,,,,,,,,,,,,,,,,,,,,,,,,,,,,,,,,,,,,,,,,,,,,,,,,,,1163.064966873033,space,31.130132292979397,,,,,,,,,,,,,,,,,,,,,,,,,,,,,,,,,,,,,,,,,,,,,,,,,,,,,,,,,,,,,,,,,,,,,,,,,,,,,,,,,,,,,,,,,,,,,,32627,2022-11-03_11h18.03.798,vts_reward_expectancy_bt_OFFLINE,2022.2.4,59.79877998672161,
0,0,1,0,1,0,0,0,hexagon,triangle,0,0,0,0,0,0,0,6,,,,,,,,,,,,,,,,,,,,,,,,,,,,,,,,,,,,,,,,1221.3127373680472,1221.3127373680472,1221.3127373680472,1221.3127373680472,1221.3127373680472,1221.3127373680472,1221.3127373680472,1221.3127373680472,1221.3127373680472,1221.3127373680472,a,1.6153872350696474,10,10,0,1222.9505125110736,1224.4498747449834,1224.4498747449834,1224.9480686280876,,,,,,,,,,,,,,,,,,,,,,,,,,,,,,,,,,,,,,,,,,,,,,,,,,,,,,,,,,,,,,,,,,,,,,,,,,,32627,2022-11-03_11h18.03.798,vts_reward_expectancy_bt_OFFLINE,2022.2.4,59.79877998672161,
0,0,0,1,0,1,0,0,star ,circle,0,0,0,0,0,1,1,10,,,,,,,,,,,,,,,,,,,,,,,,,,,,,,,,,,,,,,,,1224.9480686280876,1224.9480686280876,1224.9480686280876,1224.9480686280876,1224.9480686280876,1224.9480686280876,1224.9480686280876,1224.9480686280876,1224.9480686280876,1224.9480686280876,a,0.8825204719323665,10,20,0,1225.8530187950237,,1227.3535797270015,,,,,,,,,,,,,,,,,,,,,,,,,,,,,,,,,,,,,,,,,,,,,,,,,,,,,,,,,,,,,,,,,,,,,,,,,,,,32627,2022-11-03_11h18.03.798,vts_reward_expectancy_bt_OFFLINE,2022.2.4,59.79877998672161,
0,0,0,1,1,0,0,0,star,triangle,0,0,0,0,0,2,2,9,,,,,,,,,,,,,,,,,,,,,,,,,,,,,,,,,,,,,,,,1227.8539795500692,1227.8539795500692,1227.8539795500692,1227.8539795500692,1227.8539795500692,1227.8539795500692,1227.8539795500692,1227.8539795500692,1227.8539795500692,1227.8539795500692,a,0.5641904309159145,1,21,0,1228.4366025020136,1229.9372432139935,1229.9372432139935,,,,,,,,,,,,,,,,,,,,,,,,,,,,,,,,,,,,,,,,,,,,,,,,,,,,,,,,,,,,,,,,,,,,,,,,,,,,32627,2022-11-03_11h18.03.798,vts_reward_expectancy_bt_OFFLINE,2022.2.4,59.79877998672161,
0,1,0,0,0,0,1,0,circle,hexagon,0,0,0,0,0,3,3,4,,,,,,,,,,,,,,,,,,,,,,,,,,,,,,,,,,,,,,,,1230.439187488053,1230.439187488053,1230.439187488053,1230.439187488053,1230.439187488053,1230.439187488053,1230.439187488053,1230.439187488053,1230.439187488053,1230.439187488053,l,1.276576970005408,10,31,0,1231.7404715230223,1233.2404109480558,1233.2404109480558,,,,,,,,,,,,,,,,,,,,,,,,,,,,,,,,,,,,,,,,,,,,,,,,,,,,,,,,,,,,,,,,,,,,,,,,,,,,32627,2022-11-03_11h18.03.798,vts_reward_expectancy_bt_OFFLINE,2022.2.4,59.79877998672161,
1,0,0,0,0,0,1,0,triangle,hexagon,0,0,0,0,0,4,4,1,,,,,,,,,,,,,,,,,,,,,,,,,,,,,,,,,,,,,,,,1233.74078633904,1233.74078633904,1233.74078633904,1233.74078633904,1233.74078633904,1233.74078633904,1233.74078633904,1233.74078633904,1233.74078633904,1233.74078633904,l,1.0116968309739605,1,32,0,1234.774306692998,,1236.2761254870566,,,,,,,,,,,,,,,,,,,,,,,,,,,,,,,,,,,,,,,,,,,,,,,,,,,,,,,,,,,,,,,,,,,,,,,,,,,,32627,2022-11-03_11h18.03.798,vts_reward_expectancy_bt_OFFLINE,2022.2.4,59.79877998672161,
1,0,0,0,0,0,0,1,triangle,star,0,0,0,0,0,5,5,2,,,,,,,,,,,,,,,,,,,,,,,,,,,,,,,,,,,,,,,,1236.776512069977,1236.776512069977,1236.776512069977,1236.776512069977,1236.776512069977,1236.776512069977,1236.776512069977,1236.776512069977,1236.776512069977,1236.776512069977,a,1.3395980460336432,1,33,0,1238.1436913060024,1239.6445994640235,1239.6445994640235,,,,,,,,,,,,,,,,,,,,,,,,,,,,,,,,,,,,,,,,,,,,,,,,,,,,,,,,,,,,,,,,,,,,,,,,,,,,32627,2022-11-03_11h18.03.798,vts_reward_expectancy_bt_OFFLINE,2022.2.4,59.79877998672161,
0,0,0,1,0,0,1,0,star,hexagon,0,0,0,0,0,6,6,11,,,,,,,,,,,,,,,,,,,,,,,,,,,,,,,,,,,,,,,,1240.1465122289956,1240.1465122289956,1240.1465122289956,1240.1465122289956,1240.1465122289956,1240.1465122289956,1240.1465122289956,1240.1465122289956,1240.1465122289956,1240.1465122289956,l,2.6047202249756083,10,43,0,1242.7810025200015,1244.2817464210093,1244.2817464210093,1244.7818355800118,,,,,,,,,,,,,,,,,,,,,,,,,,,,,,,,,,,,,,,,,,,,,,,,,,,,,,,,,,,,,,,,,,,,,,,,,,,32627,2022-11-03_11h18.03.798,vts_reward_expectancy_bt_OFFLINE,2022.2.4,59.79877998672161,
0,0,1,0,0,1,0,0,hexagon,circle,0,0,0,0,0,7,7,7,,,,,,,,,,,,,,,,,,,,,,,,,,,,,,,,,,,,,,,,1244.7818355800118,1244.7818355800118,1244.7818355800118,1244.7818355800118,1244.7818355800118,1244.7818355800118,1244.7818355800118,1244.7818355800118,1244.7818355800118,1244.7818355800118,l,1.9750896740006283,1,44,0,1246.7850202170666,1248.284073597053,1248.284073597053,1248.78443513799,,,,,,,,,,,,,,,,,,,,,,,,,,,,,,,,,,,,,,,,,,,,,,,,,,,,,,,,,,,,,,,,,,,,,,,,,,,32627,2022-11-03_11h18.03.798,vts_reward_expectancy_bt_OFFLINE,2022.2.4,59.79877998672161,
0,1,0,0,0,0,0,1,circle,star,0,0,0,0,0,8,8,5,,,,,,,,,,,,,,,,,,,,,,,,,,,,,,,,,,,,,,,,1248.78443513799,1248.78443513799,1248.78443513799,1248.78443513799,1248.78443513799,1248.78443513799,1248.78443513799,1248.78443513799,1248.78443513799,1248.78443513799,l,2.6305983499623835,1,45,0,1251.4377974320669,1252.938555557048,1252.938555557048,1253.4386297389865,,,,,,,,,,,,,,,,,,,,,,,,,,,,,,,,,,,,,,,,,,,,,,,,,,,,,,,,,,,,,,,,,,,,,,,,,,,32627,2022-11-03_11h18.03.798,vts_reward_expectancy_bt_OFFLINE,2022.2.4,59.79877998672161,
0,0,1,0,0,0,0,1,hexagon,star,0,0,0,0,0,9,9,8,,,,,,,,,,,,,,,,,,,,,,,,,,,,,,,,,,,,,,,,1253.4386297389865,1253.4386297389865,1253.4386297389865,1253.4386297389865,1253.4386297389865,1253.4386297389865,1253.4386297389865,1253.4386297389865,1253.4386297389865,1253.4386297389865,l,0.924365245969966,10,55,0,1254.3888837110717,,1255.8905477370135,,,,,,,,,,,,,,,,,,,,,,,,,,,,,,,,,,,,,,,,,,,,,,,,,,,,,,,,,,,,,,,,,,,,,,,,,,,,32627,2022-11-03_11h18.03.798,vts_reward_expectancy_bt_OFFLINE,2022.2.4,59.79877998672161,
1,0,0,0,0,1,0,0,triangle,circle,0,0,0,0,0,10,10,0,,,,,,,,,,,,,,,,,,,,,,,,,,,,,,,,,,,,,,,,1256.390898186015,1256.390898186015,1256.390898186015,1256.390898186015,1256.390898186015,1256.390898186015,1256.390898186015,1256.390898186015,1256.390898186015,1256.390898186015,a,2.5168655259767547,10,65,0,1258.9260917709908,,1260.427367976983,,,,,,,,,,,,,,,,,,,,,,,,,,,,,,,,,,,,,,,,,,,,,,,,,,,,,,,,,,,,,,,,,,,,,,,,,,,,32627,2022-11-03_11h18.03.798,vts_reward_expectancy_bt_OFFLINE,2022.2.4,59.79877998672161,
0,1,0,0,1,0,0,0,circle,triangle,0,0,0,0,0,11,11,3,,,,,,,,,,,,,,,,,,,,,,,,,,,,,,,,,,,,,,,,1260.9278991330648,1260.9278991330648,1260.9278991330648,1260.9278991330648,1260.9278991330648,1260.9278991330648,1260.9278991330648,1260.9278991330648,1260.9278991330648,1260.9278991330648,l,0.6905299399513751,1,66,0,1261.6453754639952,1263.1457429690054,1263.1457429690054,1263.6459450559923,,,,,,,,,,,,,,,,,,,,,,,,,,,,,,,,,,,,,,,,,,,,,,,,,,,,,,,,,,,,,,,,,,,,,,,,,,,32627,2022-11-03_11h18.03.798,vts_reward_expectancy_bt_OFFLINE,2022.2.4,59.79877998672161,
1,0,0,0,0,0,0,1,triangle,star,0,0,0,0,1,0,12,2,,,,,,,,,,,,,,,,,,,,,,,,,,,,,,,,,,,,,,,,1263.6459450559923,1263.6459450559923,1263.6459450559923,1263.6459450559923,1263.6459450559923,1263.6459450559923,1263.6459450559923,1263.6459450559923,1263.6459450559923,1263.6459450559923,l,0.762936508981511,1,67,0,1264.4287406280637,,1265.9317416420672,,,,,,,,,,,,,,,,,,,,,,,,,,,,,,,,,,,,,,,,,,,,,,,,,,,,,,,,,,,,,,,,,,,,,,,,,,,,32627,2022-11-03_11h18.03.798,vts_reward_expectancy_bt_OFFLINE,2022.2.4,59.79877998672161,
1,0,0,0,0,0,1,0,triangle,hexagon,0,0,0,0,1,1,13,1,,,,,,,,,,,,,,,,,,,,,,,,,,,,,,,,,,,,,,,,1266.43218884198,1266.43218884198,1266.43218884198,1266.43218884198,1266.43218884198,1266.43218884198,1266.43218884198,1266.43218884198,1266.43218884198,1266.43218884198,l,0.8008432569913566,10,77,0,1267.2501604290446,1268.7492568310117,1268.7492568310117,1269.2491332270438,,,,,,,,,,,,,,,,,,,,,,,,,,,,,,,,,,,,,,,,,,,,,,,,,,,,,,,,,,,,,,,,,,,,,,,,,,,32627,2022-11-03_11h18.03.798,vts_reward_expectancy_bt_OFFLINE,2022.2.4,59.79877998672161,
0,0,1,0,1,0,0,0,hexagon,triangle,0,0,0,0,1,2,14,6,,,,,,,,,,,,,,,,,,,,,,,,,,,,,,,,,,,,,,,,1269.2491332270438,1269.2491332270438,1269.2491332270438,1269.2491332270438,1269.2491332270438,1269.2491332270438,1269.2491332270438,1269.2491332270438,1269.2491332270438,1269.2491332270438,l,0.7169039219152182,10,87,0,1269.9815168890636,,1271.484994342085,,,,,,,,,,,,,,,,,,,,,,,,,,,,,,,,,,,,,,,,,,,,,,,,,,,,,,,,,,,,,,,,,,,,,,,,,,,,32627,2022-11-03_11h18.03.798,vts_reward_expectancy_bt_OFFLINE,2022.2.4,59.79877998672161,
0,1,0,0,0,0,1,0,circle,hexagon,0,0,0,0,1,3,15,4,,,,,,,,,,,,,,,,,,,,,,,,,,,,,,,,,,,,,,,,1271.985243423027,1271.985243423027,1271.985243423027,1271.985243423027,1271.985243423027,1271.985243423027,1271.985243423027,1271.985243423027,1271.985243423027,1271.985243423027,a,0.5238850169116631,1,88,0,1272.5364824450808,1274.0364006700693,1274.0364006700693,1274.5364154760027,,,,,,,,,,,,,,,,,,,,,,,,,,,,,,,,,,,,,,,,,,,,,,,,,,,,,,,,,,,,,,,,,,,,,,,,,,,32627,2022-11-03_11h18.03.798,vts_reward_expectancy_bt_OFFLINE,2022.2.4,59.79877998672161,
0,0,1,0,0,1,0,0,hexagon,circle,0,0,0,0,1,4,16,7,,,,,,,,,,,,,,,,,,,,,,,,,,,,,,,,,,,,,,,,1274.5364154760027,1274.5364154760027,1274.5364154760027,1274.5364154760027,1274.5364154760027,1274.5364154760027,1274.5364154760027,1274.5364154760027,1274.5364154760027,1274.5364154760027,a,0.7855491769732907,10,98,0,1275.3398967559915,1276.8396348750684,1276.8396348750684,,,,,,,,,,,,,,,,,,,,,,,,,,,,,,,,,,,,,,,,,,,,,,,,,,,,,,,,,,,,,,,,,,,,,,,,,,,,32627,2022-11-03_11h18.03.798,vts_reward_expectancy_bt_OFFLINE,2022.2.4,59.79877998672161,
0,1,0,0,0,0,0,1,circle,star,0,0,0,0,1,5,17,5,,,,,,,,,,,,,,,,,,,,,,,,,,,,,,,,,,,,,,,,1277.3402165060397,1277.3402165060397,1277.3402165060397,1277.3402165060397,1277.3402165060397,1277.3402165060397,1277.3402165060397,1277.3402165060397,1277.3402165060397,1277.3402165060397,l,0.45619204198010266,1,99,0,1277.8228807899868,1279.323761238018,1279.323761238018,,,,,,,,,,,,,,,,,,,,,,,,,,,,,,,,,,,,,,,,,,,,,,,,,,,,,,,,,,,,,,,,,,,,,,,,,,,,32627,2022-11-03_11h18.03.798,vts_reward_expectancy_bt_OFFLINE,2022.2.4,59.79877998672161,
0,0,0,1,1,0,0,0,star,triangle,0,0,0,0,1,6,18,9,,,,,,,,,,,,,,,,,,,,,,,,,,,,,,,,,,,,,,,,1279.8237391189905,1279.8237391189905,1279.8237391189905,1279.8237391189905,1279.8237391189905,1279.8237391189905,1279.8237391189905,1279.8237391189905,1279.8237391189905,1279.8237391189905,a,0.6277373560005799,1,100,0,1280.4757946060272,1281.976300762035,1281.976300762035,,,,,,,,,,,,,,,,,,,,,,,,,,,,,,,,,,,,,,,,,,,,,,,,,,,,,,,,,,,,,,,,,,,,,,,,,,,,32627,2022-11-03_11h18.03.798,vts_reward_expectancy_bt_OFFLINE,2022.2.4,59.79877998672161,
0,0,0,1,0,0,1,0,star,hexagon,0,0,0,0,1,7,19,11,,,,,,,,,,,,,,,,,,,,,,,,,,,,,,,,,,,,,,,,1282.476505661034,1282.476505661034,1282.476505661034,1282.476505661034,1282.476505661034,1282.476505661034,1282.476505661034,1282.476505661034,1282.476505661034,1282.476505661034,a,0.618784058955498,1,101,0,1283.1268029720522,1284.6273067380534,1284.6273067380534,,,,,,,,,,,,,,,,,,,,,,,,,,,,,,,,,,,,,,,,,,,,,,,,,,,,,,,,,,,,,,,,,,,,,,,,,,,,32627,2022-11-03_11h18.03.798,vts_reward_expectancy_bt_OFFLINE,2022.2.4,59.79877998672161,
0,1,0,0,1,0,0,0,circle,triangle,0,0,0,0,1,8,20,3,,,,,,,,,,,,,,,,,,,,,,,,,,,,,,,,,,,,,,,,1285.12919075205,1285.12919075205,1285.12919075205,1285.12919075205,1285.12919075205,1285.12919075205,1285.12919075205,1285.12919075205,1285.12919075205,1285.12919075205,l,0.8124804310500622,10,111,0,1285.963598672999,1287.4632803790737,1287.4632803790737,1287.9631352489814,,,,,,,,,,,,,,,,,,,,,,,,,,,,,,,,,,,,,,,,,,,,,,,,,,,,,,,,,,,,,,,,,,,,,,,,,,,32627,2022-11-03_11h18.03.798,vts_reward_expectancy_bt_OFFLINE,2022.2.4,59.79877998672161,
0,0,1,0,0,0,0,1,hexagon,star,0,0,0,0,1,9,21,8,,,,,,,,,,,,,,,,,,,,,,,,,,,,,,,,,,,,,,,,1287.9631352489814,1287.9631352489814,1287.9631352489814,1287.9631352489814,1287.9631352489814,1287.9631352489814,1287.9631352489814,1287.9631352489814,1287.9631352489814,1287.9631352489814,l,1.2646335870958865,1,112,0,1289.2481521030422,,1290.749307329068,,,,,,,,,,,,,,,,,,,,,,,,,,,,,,,,,,,,,,,,,,,,,,,,,,,,,,,,,,,,,,,,,,,,,,,,,,,,32627,2022-11-03_11h18.03.798,vts_reward_expectancy_bt_OFFLINE,2022.2.4,59.79877998672161,
1,0,0,0,0,1,0,0,triangle,circle,0,0,0,0,1,10,22,0,,,,,,,,,,,,,,,,,,,,,,,,,,,,,,,,,,,,,,,,1291.2497414890677,1291.2497414890677,1291.2497414890677,1291.2497414890677,1291.2497414890677,1291.2497414890677,1291.2497414890677,1291.2497414890677,1291.2497414890677,1291.2497414890677,a,1.936978304060176,10,122,0,1293.21823180106,1294.7183034999762,1294.7183034999762,,,,,,,,,,,,,,,,,,,,,,,,,,,,,,,,,,,,,,,,,,,,,,,,,,,,,,,,,,,,,,,,,,,,,,,,,,,,32627,2022-11-03_11h18.03.798,vts_reward_expectancy_bt_OFFLINE,2022.2.4,59.79877998672161,
0,0,0,1,0,1,0,0,star ,circle,0,0,0,0,1,11,23,10,,,,,,,,,,,,,,,,,,,,,,,,,,,,,,,,,,,,,,,,1295.2196992640384,1295.2196992640384,1295.2196992640384,1295.2196992640384,1295.2196992640384,1295.2196992640384,1295.2196992640384,1295.2196992640384,1295.2196992640384,1295.2196992640384,a,0.8254439280135557,10,132,0,1296.0700501489919,1297.5705499120522,1297.5705499120522,1298.0705368809868,,,,,,,,,,,,,,,,,,,,,,,,,,,,,,,,,,,,,,,,,,,,,,,,,,,,,,,,,,,,,,,,,,,,,,,,,,,32627,2022-11-03_11h18.03.798,vts_reward_expectancy_bt_OFFLINE,2022.2.4,59.79877998672161,
0,0,1,0,1,0,0,0,hexagon,triangle,0,0,0,0,2,0,24,6,,,,,,,,,,,,,,,,,,,,,,,,,,,,,,,,,,,,,,,,1298.0705368809868,1298.0705368809868,1298.0705368809868,1298.0705368809868,1298.0705368809868,1298.0705368809868,1298.0705368809868,1298.0705368809868,1298.0705368809868,1298.0705368809868,l,2.2723100630100816,10,142,0,1300.3740809200099,1301.874420940061,1301.874420940061,,,,,,,,,,,,,,,,,,,,,,,,,,,,,,,,,,,,,,,,,,,,,,,,,,,,,,,,,,,,,,,,,,,,,,,,,,,,32627,2022-11-03_11h18.03.798,vts_reward_expectancy_bt_OFFLINE,2022.2.4,59.79877998672161,
0,0,1,0,0,1,0,0,hexagon,circle,0,0,0,0,2,1,25,7,,,,,,,,,,,,,,,,,,,,,,,,,,,,,,,,,,,,,,,,1302.37470097607,1302.37470097607,1302.37470097607,1302.37470097607,1302.37470097607,1302.37470097607,1302.37470097607,1302.37470097607,1302.37470097607,1302.37470097607,a,0.8261308550136164,1,143,0,1303.225019045989,1304.7254075449891,1304.7254075449891,,,,,,,,,,,,,,,,,,,,,,,,,,,,,,,,,,,,,,,,,,,,,,,,,,,,,,,,,,,,,,,,,,,,,,,,,,,,32627,2022-11-03_11h18.03.798,vts_reward_expectancy_bt_OFFLINE,2022.2.4,59.79877998672161,
1,0,0,0,0,1,0,0,triangle,circle,0,0,0,0,2,2,26,0,,,,,,,,,,,,,,,,,,,,,,,,,,,,,,,,,,,,,,,,1305.2268189920578,1305.2268189920578,1305.2268189920578,1305.2268189920578,1305.2268189920578,1305.2268189920578,1305.2268189920578,1305.2268189920578,1305.2268189920578,1305.2268189920578,a,1.0787947939243168,10,153,0,1306.3281184349908,1307.8277427970897,1307.8277427970897,,,,,,,,,,,,,,,,,,,,,,,,,,,,,,,,,,,,,,,,,,,,,,,,,,,,,,,,,,,,,,,,,,,,,,,,,,,,32627,2022-11-03_11h18.03.798,vts_reward_expectancy_bt_OFFLINE,2022.2.4,59.79877998672161,
0,1,0,0,0,0,0,1,circle,star,0,0,0,0,2,3,27,5,,,,,,,,,,,,,,,,,,,,,,,,,,,,,,,,,,,,,,,,1308.3279182009865,1308.3279182009865,1308.3279182009865,1308.3279182009865,1308.3279182009865,1308.3279182009865,1308.3279182009865,1308.3279182009865,1308.3279182009865,1308.3279182009865,l,0.913844891008921,1,154,0,1309.263211806072,,1310.7640604129992,,,,,,,,,,,,,,,,,,,,,,,,,,,,,,,,,,,,,,,,,,,,,,,,,,,,,,,,,,,,,,,,,,,,,,,,,,,,32627,2022-11-03_11h18.03.798,vts_reward_expectancy_bt_OFFLINE,2022.2.4,59.79877998672161,
0,0,1,0,0,0,0,1,hexagon,star,0,0,0,0,2,4,28,8,,,,,,,,,,,,,,,,,,,,,,,,,,,,,,,,,,,,,,,,1311.2640659770695,1311.2640659770695,1311.2640659770695,1311.2640659770695,1311.2640659770695,1311.2640659770695,1311.2640659770695,1311.2640659770695,1311.2640659770695,1311.2640659770695,a,0.40786497795488685,10,164,0,1311.6992307460168,1313.19874055509,1313.19874055509,1313.6986463700887,,,,,,,,,,,,,,,,,,,,,,,,,,,,,,,,,,,,,,,,,,,,,,,,,,,,,,,,,,,,,,,,,,,,,,,,,,,32627,2022-11-03_11h18.03.798,vts_reward_expectancy_bt_OFFLINE,2022.2.4,59.79877998672161,
0,1,0,0,0,0,1,0,circle,hexagon,0,0,0,0,2,5,29,4,,,,,,,,,,,,,,,,,,,,,,,,,,,,,,,,,,,,,,,,1313.6986463700887,1313.6986463700887,1313.6986463700887,1313.6986463700887,1313.6986463700887,1313.6986463700887,1313.6986463700887,1313.6986463700887,1313.6986463700887,1313.6986463700887,a,0.26832276198547333,1,165,0,1313.998744801036,,1315.5013451999985,,,,,,,,,,,,,,,,,,,,,,,,,,,,,,,,,,,,,,,,,,,,,,,,,,,,,,,,,,,,,,,,,,,,,,,,,,,,32627,2022-11-03_11h18.03.798,vts_reward_expectancy_bt_OFFLINE,2022.2.4,59.79877998672161,
0,0,0,1,0,0,1,0,star,hexagon,0,0,0,0,2,6,30,11,,,,,,,,,,,,,,,,,,,,,,,,,,,,,,,,,,,,,,,,1316.0015392100904,1316.0015392100904,1316.0015392100904,1316.0015392100904,1316.0015392100904,1316.0015392100904,1316.0015392100904,1316.0015392100904,1316.0015392100904,1316.0015392100904,l,0.2486869319109246,10,175,0,1316.2692294720327,1317.769029358984,1317.769029358984,1318.269360296079,,,,,,,,,,,,,,,,,,,,,,,,,,,,,,,,,,,,,,,,,,,,,,,,,,,,,,,,,,,,,,,,,,,,,,,,,,,32627,2022-11-03_11h18.03.798,vts_reward_expectancy_bt_OFFLINE,2022.2.4,59.79877998672161,
1,0,0,0,0,0,1,0,triangle,hexagon,0,0,0,0,2,7,31,1,,,,,,,,,,,,,,,,,,,,,,,,,,,,,,,,,,,,,,,,1318.269360296079,1318.269360296079,1318.269360296079,1318.269360296079,1318.269360296079,1318.269360296079,1318.269360296079,1318.269360296079,1318.269360296079,1318.269360296079,a,0.3209800060139969,10,185,0,1318.6197163170436,,1320.1209779040655,,,,,,,,,,,,,,,,,,,,,,,,,,,,,,,,,,,,,,,,,,,,,,,,,,,,,,,,,,,,,,,,,,,,,,,,,,,,32627,2022-11-03_11h18.03.798,vts_reward_expectancy_bt_OFFLINE,2022.2.4,59.79877998672161,
1,0,0,0,0,0,0,1,triangle,star,0,0,0,0,2,8,32,2,,,,,,,,,,,,,,,,,,,,,,,,,,,,,,,,,,,,,,,,1320.6212080060504,1320.6212080060504,1320.6212080060504,1320.6212080060504,1320.6212080060504,1320.6212080060504,1320.6212080060504,1320.6212080060504,1320.6212080060504,1320.6212080060504,a,0.24167158198542893,10,195,0,1320.8886966600548,1322.3893996729748,1322.3893996729748,1322.8894793000072,,,,,,,,,,,,,,,,,,,,,,,,,,,,,,,,,,,,,,,,,,,,,,,,,,,,,,,,,,,,,,,,,,,,,,,,,,,32627,2022-11-03_11h18.03.798,vts_reward_expectancy_bt_OFFLINE,2022.2.4,59.79877998672161,
0,0,0,1,0,1,0,0,star ,circle,0,0,0,0,2,9,33,10,,,,,,,,,,,,,,,,,,,,,,,,,,,,,,,,,,,,,,,,1322.8894793000072,1322.8894793000072,1322.8894793000072,1322.8894793000072,1322.8894793000072,1322.8894793000072,1322.8894793000072,1322.8894793000072,1322.8894793000072,1322.8894793000072,a,5.308631693013012,10,205,0,1328.2266632730607,,1329.7274696769891,,,,,,,,,,,,,,,,,,,,,,,,,,,,,,,,,,,,,,,,,,,,,,,,,,,,,,,,,,,,,,,,,,,,,,,,,,,,32627,2022-11-03_11h18.03.798,vts_reward_expectancy_bt_OFFLINE,2022.2.4,59.79877998672161,
0,1,0,0,1,0,0,0,circle,triangle,0,0,0,0,2,10,34,3,,,,,,,,,,,,,,,,,,,,,,,,,,,,,,,,,,,,,,,,1330.2285069790669,1330.2285069790669,1330.2285069790669,1330.2285069790669,1330.2285069790669,1330.2285069790669,1330.2285069790669,1330.2285069790669,1330.2285069790669,1330.2285069790669,l,0.805259529966861,10,215,0,1331.0622867500642,1332.5628642779775,1332.5628642779775,,,,,,,,,,,,,,,,,,,,,,,,,,,,,,,,,,,,,,,,,,,,,,,,,,,,,,,,,,,,,,,,,,,,,,,,,,,,32627,2022-11-03_11h18.03.798,vts_reward_expectancy_bt_OFFLINE,2022.2.4,59.79877998672161,
0,0,0,1,1,0,0,0,star,triangle,0,0,0,0,2,11,35,9,,,,,,,,,,,,,,,,,,,,,,,,,,,,,,,,,,,,,,,,1333.0634530700045,1333.0634530700045,1333.0634530700045,1333.0634530700045,1333.0634530700045,1333.0634530700045,1333.0634530700045,1333.0634530700045,1333.0634530700045,1333.0634530700045,l,2.347005581948906,1,216,0,1335.4333048050757,,1336.9334944940638,,,,,,,,,,,,,,,,,,,,,,,,,,,,,,,,,,,,,,,,,,,,,,,,,,,,,,,,,,,,,,,,,,,,,,,,,,,,32627,2022-11-03_11h18.03.798,vts_reward_expectancy_bt_OFFLINE,2022.2.4,59.79877998672161,
0,1,0,0,1,0,0,0,circle,triangle,0,0,0,0,3,0,36,3,,,,,,,,,,,,,,,,,,,,,,,,,,,,,,,,,,,,,,,,1337.433696085005,1337.433696085005,1337.433696085005,1337.433696085005,1337.433696085005,1337.433696085005,1337.433696085005,1337.433696085005,1337.433696085005,1337.433696085005,l,1.8243667280767113,1,217,0,1339.2844125290867,,1340.785772926989,,,,,,,,,,,,,,,,,,,,,,,,,,,,,,,,,,,,,,,,,,,,,,,,,,,,,,,,,,,,,,,,,,,,,,,,,,,,32627,2022-11-03_11h18.03.798,vts_reward_expectancy_bt_OFFLINE,2022.2.4,59.79877998672161,
0,0,0,1,0,0,1,0,star,hexagon,0,0,0,0,3,1,37,11,,,,,,,,,,,,,,,,,,,,,,,,,,,,,,,,,,,,,,,,1341.2861723230453,1341.2861723230453,1341.2861723230453,1341.2861723230453,1341.2861723230453,1341.2861723230453,1341.2861723230453,1341.2861723230453,1341.2861723230453,1341.2861723230453,a,0.6263811679091305,1,218,0,1341.9365010589827,1343.436879839981,1343.436879839981,1343.9369318999816,,,,,,,,,,,,,,,,,,,,,,,,,,,,,,,,,,,,,,,,,,,,,,,,,,,,,,,,,,,,,,,,,,,,,,,,,,,32627,2022-11-03_11h18.03.798,vts_reward_expectancy_bt_OFFLINE,2022.2.4,59.79877998672161,
1,0,0,0,0,0,1,0,triangle,hexagon,0,0,0,0,3,2,38,1,,,,,,,,,,,,,,,,,,,,,,,,,,,,,,,,,,,,,,,,1343.9369318999816,1343.9369318999816,1343.9369318999816,1343.9369318999816,1343.9369318999816,1343.9369318999816,1343.9369318999816,1343.9369318999816,1343.9369318999816,1343.9369318999816,l,0.9231034190161154,10,228,0,1344.8882459340384,,1346.3908074310748,,,,,,,,,,,,,,,,,,,,,,,,,,,,,,,,,,,,,,,,,,,,,,,,,,,,,,,,,,,,,,,,,,,,,,,,,,,,32627,2022-11-03_11h18.03.798,vts_reward_expectancy_bt_OFFLINE,2022.2.4,59.79877998672161,
0,0,0,1,1,0,0,0,star,triangle,0,0,0,0,3,3,39,9,,,,,,,,,,,,,,,,,,,,,,,,,,,,,,,,,,,,,,,,1346.8908500530524,1346.8908500530524,1346.8908500530524,1346.8908500530524,1346.8908500530524,1346.8908500530524,1346.8908500530524,1346.8908500530524,1346.8908500530524,1346.8908500530524,a,1.0070256820181385,1,229,0,1347.9242515370715,1349.424289394985,1349.424289394985,1349.924581362051,,,,,,,,,,,,,,,,,,,,,,,,,,,,,,,,,,,,,,,,,,,,,,,,,,,,,,,,,,,,,,,,,,,,,,,,,,,32627,2022-11-03_11h18.03.798,vts_reward_expectancy_bt_OFFLINE,2022.2.4,59.79877998672161,
0,0,1,0,0,1,0,0,hexagon,circle,0,0,0,0,3,4,40,7,,,,,,,,,,,,,,,,,,,,,,,,,,,,,,,,,,,,,,,,1349.924581362051,1349.924581362051,1349.924581362051,1349.924581362051,1349.924581362051,1349.924581362051,1349.924581362051,1349.924581362051,1349.924581362051,1349.924581362051,a,1.79861588194035,10,239,0,1351.7442592950538,1353.2441939180717,1353.2441939180717,1353.7441535120597,,,,,,,,,,,,,,,,,,,,,,,,,,,,,,,,,,,,,,,,,,,,,,,,,,,,,,,,,,,,,,,,,,,,,,,,,,,32627,2022-11-03_11h18.03.798,vts_reward_expectancy_bt_OFFLINE,2022.2.4,59.79877998672161,
0,0,0,1,0,1,0,0,star ,circle,0,0,0,0,3,5,41,10,,,,,,,,,,,,,,,,,,,,,,,,,,,,,,,,,,,,,,,,1353.7441535120597,1353.7441535120597,1353.7441535120597,1353.7441535120597,1353.7441535120597,1353.7441535120597,1353.7441535120597,1353.7441535120597,1353.7441535120597,1353.7441535120597,l,1.1632014650385827,1,240,0,1354.928972646012,,1356.4306709610391,,,,,,,,,,,,,,,,,,,,,,,,,,,,,,,,,,,,,,,,,,,,,,,,,,,,,,,,,,,,,,,,,,,,,,,,,,,,32627,2022-11-03_11h18.03.798,vts_reward_expectancy_bt_OFFLINE,2022.2.4,59.79877998672161,
0,0,1,0,1,0,0,0,hexagon,triangle,0,0,0,0,3,6,42,6,,,,,,,,,,,,,,,,,,,,,,,,,,,,,,,,,,,,,,,,1356.9308829740621,1356.9308829740621,1356.9308829740621,1356.9308829740621,1356.9308829740621,1356.9308829740621,1356.9308829740621,1356.9308829740621,1356.9308829740621,1356.9308829740621,a,0.7432139250449836,10,250,0,1357.6988114240812,1359.1987433179747,1359.1987433179747,1359.6989334400278,,,,,,,,,,,,,,,,,,,,,,,,,,,,,,,,,,,,,,,,,,,,,,,,,,,,,,,,,,,,,,,,,,,,,,,,,,,32627,2022-11-03_11h18.03.798,vts_reward_expectancy_bt_OFFLINE,2022.2.4,59.79877998672161,
1,0,0,0,0,1,0,0,triangle,circle,0,0,0,0,3,7,43,0,,,,,,,,,,,,,,,,,,,,,,,,,,,,,,,,,,,,,,,,1359.6989334400278,1359.6989334400278,1359.6989334400278,1359.6989334400278,1359.6989334400278,1359.6989334400278,1359.6989334400278,1359.6989334400278,1359.6989334400278,1359.6989334400278,a,0.6984310059342533,10,260,0,1360.4176027950598,1361.9185017839773,1361.9185017839773,1362.4185697580688,,,,,,,,,,,,,,,,,,,,,,,,,,,,,,,,,,,,,,,,,,,,,,,,,,,,,,,,,,,,,,,,,,,,,,,,,,,32627,2022-11-03_11h18.03.798,vts_reward_expectancy_bt_OFFLINE,2022.2.4,59.79877998672161,
0,1,0,0,0,0,1,0,circle,hexagon,0,0,0,0,3,8,44,4,,,,,,,,,,,,,,,,,,,,,,,,,,,,,,,,,,,,,,,,1362.4185697580688,1362.4185697580688,1362.4185697580688,1362.4185697580688,1362.4185697580688,1362.4185697580688,1362.4185697580688,1362.4185697580688,1362.4185697580688,1362.4185697580688,l,0.6118065540213138,10,270,0,1363.0511324420804,1364.5518347850302,1364.5518347850302,,,,,,,,,,,,,,,,,,,,,,,,,,,,,,,,,,,,,,,,,,,,,,,,,,,,,,,,,,,,,,,,,,,,,,,,,,,,32627,2022-11-03_11h18.03.798,vts_reward_expectancy_bt_OFFLINE,2022.2.4,59.79877998672161,
1,0,0,0,0,0,0,1,triangle,star,0,0,0,0,3,9,45,2,,,,,,,,,,,,,,,,,,,,,,,,,,,,,,,,,,,,,,,,1365.0497838740703,1365.0497838740703,1365.0497838740703,1365.0497838740703,1365.0497838740703,1365.0497838740703,1365.0497838740703,1365.0497838740703,1365.0497838740703,1365.0497838740703,a,0.9048946059774607,1,271,0,1365.9720512439962,1367.4714008260053,1367.4714008260053,,,,,,,,,,,,,,,,,,,,,,,,,,,,,,,,,,,,,,,,,,,,,,,,,,,,,,,,,,,,,,,,,,,,,,,,,,,,32627,2022-11-03_11h18.03.798,vts_reward_expectancy_bt_OFFLINE,2022.2.4,59.79877998672161,
0,1,0,0,0,0,0,1,circle,star,0,0,0,0,3,10,46,5,,,,,,,,,,,,,,,,,,,,,,,,,,,,,,,,,,,,,,,,1367.9713749199873,1367.9713749199873,1367.9713749199873,1367.9713749199873,1367.9713749199873,1367.9713749199873,1367.9713749199873,1367.9713749199873,1367.9713749199873,1367.9713749199873,l,0.6606015249853954,1,272,0,1368.655873441021,,1370.1573377330787,,,,,,,,,,,,,,,,,,,,,,,,,,,,,,,,,,,,,,,,,,,,,,,,,,,,,,,,,,,,,,,,,,,,,,,,,,,,32627,2022-11-03_11h18.03.798,vts_reward_expectancy_bt_OFFLINE,2022.2.4,59.79877998672161,
0,0,1,0,0,0,0,1,hexagon,star,0,0,0,0,3,11,47,8,,,,,,,,,,,,,,,,,,,,,,,,,,,,,,,,,,,,,,,,1370.6574885289883,1370.6574885289883,1370.6574885289883,1370.6574885289883,1370.6574885289883,1370.6574885289883,1370.6574885289883,1370.6574885289883,1370.6574885289883,1370.6574885289883,a,0.3823751809541136,10,282,0,1371.0586098320782,1372.5584232660476,1372.5584232660476,,,,,,,,,,,,,,,,,,,,,,,,,,,,,,,,,,,,,,,,,,,,,,,,,,,,,,,,,,,,,,,,,,,,,,,,,,,,32627,2022-11-03_11h18.03.798,vts_reward_expectancy_bt_OFFLINE,2022.2.4,59.79877998672161,
0,1,0,0,0,0,0,1,circle,star,1,0,1,0,0,0,0,5,,,,,,,,,,,,,,,,,,,,,,,,,,,,,,,,,,,,,,,,1379.3072011970216,1379.3072011970216,1379.3072011970216,1379.3072011970216,1379.3072011970216,1379.3072011970216,1379.3072011970216,1379.3072011970216,1379.3072011970216,1379.3072011970216,l,1.5874763939063996,1,283,1,1380.916077242,1382.4158755980898,1382.4158755980898,1382.915499352035,,,,,,,,,,,,,,,,,,,,,,,,,,,,,,,,,,,,,,,,,,,,,,,,,,,,,,,,,,,,,,,,,,,,,,,,,,,32627,2022-11-03_11h18.03.798,vts_reward_expectancy_bt_OFFLINE,2022.2.4,59.79877998672161,
0,0,1,0,0,1,0,0,hexagon,circle,1,0,1,0,0,1,1,7,,,,,,,,,,,,,,,,,,,,,,,,,,,,,,,,,,,,,,,,1382.915499352035,1382.915499352035,1382.915499352035,1382.915499352035,1382.915499352035,1382.915499352035,1382.915499352035,1382.915499352035,1382.915499352035,1382.915499352035,a,0.365705486969091,10,293,1,1383.3007002150407,1384.8000322050648,1384.8000322050648,,,,,,,,,,,,,,,,,,,,,,,,,,,,,,,,,,,,,,,,,,,,,,,,,,,,,,,,,,,,,,,,,,,,,,,,,,,,32627,2022-11-03_11h18.03.798,vts_reward_expectancy_bt_OFFLINE,2022.2.4,59.79877998672161,
0,0,0,1,0,0,1,0,star,hexagon,1,0,1,0,0,2,2,11,,,,,,,,,,,,,,,,,,,,,,,,,,,,,,,,,,,,,,,,1385.3022069550352,1385.3022069550352,1385.3022069550352,1385.3022069550352,1385.3022069550352,1385.3022069550352,1385.3022069550352,1385.3022069550352,1385.3022069550352,1385.3022069550352,a,0.3297575779724866,1,294,1,1385.6524525530403,1387.1528456950327,1387.1528456950327,,,,,,,,,,,,,,,,,,,,,,,,,,,,,,,,,,,,,,,,,,,,,,,,,,,,,,,,,,,,,,,,,,,,,,,,,,,,32627,2022-11-03_11h18.03.798,vts_reward_expectancy_bt_OFFLINE,2022.2.4,59.79877998672161,
0,1,0,0,0,0,1,0,circle,hexagon,1,0,1,0,0,3,3,4,,,,,,,,,,,,,,,,,,,,,,,,,,,,,,,,,,,,,,,,1387.652873346,1387.652873346,1387.652873346,1387.652873346,1387.652873346,1387.652873346,1387.652873346,1387.652873346,1387.652873346,1387.652873346,a,0.296034189988859,1,295,1,1387.9701363720233,,1389.4708542079898,,,,,,,,,,,,,,,,,,,,,,,,,,,,,,,,,,,,,,,,,,,,,,,,,,,,,,,,,,,,,,,,,,,,,,,,,,,,32627,2022-11-03_11h18.03.798,vts_reward_expectancy_bt_OFFLINE,2022.2.4,59.79877998672161,
0,1,0,0,1,0,0,0,circle,triangle,1,0,1,0,0,4,4,3,,,,,,,,,,,,,,,,,,,,,,,,,,,,,,,,,,,,,,,,1389.9708618259756,1389.9708618259756,1389.9708618259756,1389.9708618259756,1389.9708618259756,1389.9708618259756,1389.9708618259756,1389.9708618259756,1389.9708618259756,1389.9708618259756,l,0.22891899093519896,10,305,1,1390.2230220070342,1391.7224602530478,1391.7224602530478,,,,,,,,,,,,,,,,,,,,,,,,,,,,,,,,,,,,,,,,,,,,,,,,,,,,,,,,,,,,,,,,,,,,,,,,,,,,32627,2022-11-03_11h18.03.798,vts_reward_expectancy_bt_OFFLINE,2022.2.4,59.79877998672161,
1,0,0,0,0,1,0,0,triangle,circle,1,0,1,0,0,5,5,0,,,,,,,,,,,,,,,,,,,,,,,,,,,,,,,,,,,,,,,,1392.2228003160562,1392.2228003160562,1392.2228003160562,1392.2228003160562,1392.2228003160562,1392.2228003160562,1392.2228003160562,1392.2228003160562,1392.2228003160562,1392.2228003160562,l,0.24969282397069037,1,306,1,1392.4910095970845,1393.9906337700086,1393.9906337700086,1394.490942456061,,,,,,,,,,,,,,,,,,,,,,,,,,,,,,,,,,,,,,,,,,,,,,,,,,,,,,,,,,,,,,,,,,,,,,,,,,,32627,2022-11-03_11h18.03.798,vts_reward_expectancy_bt_OFFLINE,2022.2.4,59.79877998672161,
1,0,0,0,0,0,1,0,triangle,hexagon,1,0,1,0,0,6,6,1,,,,,,,,,,,,,,,,,,,,,,,,,,,,,,,,,,,,,,,,1394.490942456061,1394.490942456061,1394.490942456061,1394.490942456061,1394.490942456061,1394.490942456061,1394.490942456061,1394.490942456061,1394.490942456061,1394.490942456061,a,0.25301015796139836,10,316,1,1394.775060591055,,1396.2769352460746,,,,,,,,,,,,,,,,,,,,,,,,,,,,,,,,,,,,,,,,,,,,,,,,,,,,,,,,,,,,,,,,,,,,,,,,,,,,32627,2022-11-03_11h18.03.798,vts_reward_expectancy_bt_OFFLINE,2022.2.4,59.79877998672161,
0,0,1,0,1,0,0,0,hexagon,triangle,1,0,1,0,0,7,7,6,,,,,,,,,,,,,,,,,,,,,,,,,,,,,,,,,,,,,,,,1396.7769525720505,1396.7769525720505,1396.7769525720505,1396.7769525720505,1396.7769525720505,1396.7769525720505,1396.7769525720505,1396.7769525720505,1396.7769525720505,1396.7769525720505,a,0.28558480204083025,10,326,1,1397.0929621370742,1398.5932585489936,1398.5932585489936,,,,,,,,,,,,,,,,,,,,,,,,,,,,,,,,,,,,,,,,,,,,,,,,,,,,,,,,,,,,,,,,,,,,,,,,,,,,32627,2022-11-03_11h18.03.798,vts_reward_expectancy_bt_OFFLINE,2022.2.4,59.79877998672161,
1,0,0,0,0,0,0,1,triangle,star,1,0,1,0,0,8,8,2,,,,,,,,,,,,,,,,,,,,,,,,,,,,,,,,,,,,,,,,1399.093622558983,1399.093622558983,1399.093622558983,1399.093622558983,1399.093622558983,1399.093622558983,1399.093622558983,1399.093622558983,1399.093622558983,1399.093622558983,a,0.2855609719408676,10,336,1,1399.4108563790796,,1400.9132048509782,,,,,,,,,,,,,,,,,,,,,,,,,,,,,,,,,,,,,,,,,,,,,,,,,,,,,,,,,,,,,,,,,,,,,,,,,,,,32627,2022-11-03_11h18.03.798,vts_reward_expectancy_bt_OFFLINE,2022.2.4,59.79877998672161,
0,0,1,0,0,0,0,1,hexagon,star,1,0,1,0,0,9,9,8,,,,,,,,,,,,,,,,,,,,,,,,,,,,,,,,,,,,,,,,1401.4133722550469,1401.4133722550469,1401.4133722550469,1401.4133722550469,1401.4133722550469,1401.4133722550469,1401.4133722550469,1401.4133722550469,1401.4133722550469,1401.4133722550469,l,0.3071949720615521,1,337,1,1401.7480291150277,1403.247846699087,1403.247846699087,1403.747864488978,,,,,,,,,,,,,,,,,,,,,,,,,,,,,,,,,,,,,,,,,,,,,,,,,,,,,,,,,,,,,,,,,,,,,,,,,,,32627,2022-11-03_11h18.03.798,vts_reward_expectancy_bt_OFFLINE,2022.2.4,59.79877998672161,
0,0,0,1,1,0,0,0,star,triangle,1,0,1,0,0,10,10,9,,,,,,,,,,,,,,,,,,,,,,,,,,,,,,,,,,,,,,,,1403.747864488978,1403.747864488978,1403.747864488978,1403.747864488978,1403.747864488978,1403.747864488978,1403.747864488978,1403.747864488978,1403.747864488978,1403.747864488978,a,0.3691792649915442,1,338,1,1404.1478121540276,,1405.6496241500136,,,,,,,,,,,,,,,,,,,,,,,,,,,,,,,,,,,,,,,,,,,,,,,,,,,,,,,,,,,,,,,,,,,,,,,,,,,,32627,2022-11-03_11h18.03.798,vts_reward_expectancy_bt_OFFLINE,2022.2.4,59.79877998672161,
0,0,0,1,0,1,0,0,star ,circle,1,0,1,0,0,11,11,10,,,,,,,,,,,,,,,,,,,,,,,,,,,,,,,,,,,,,,,,1406.1497339010239,1406.1497339010239,1406.1497339010239,1406.1497339010239,1406.1497339010239,1406.1497339010239,1406.1497339010239,1406.1497339010239,1406.1497339010239,1406.1497339010239,l,0.22846943605691195,1,339,1,1406.3999855329748,1407.9006298100576,1407.9006298100576,1408.400735893054,,,,,,,,,,,,,,,,,,,,,,,,,,,,,,,,,,,,,,,,,,,,,,,,,,,,,,,,,,,,,,,,,,,,,,,,,,,32627,2022-11-03_11h18.03.798,vts_reward_expectancy_bt_OFFLINE,2022.2.4,59.79877998672161,
0,0,0,1,1,0,0,0,star,triangle,1,0,1,0,1,0,12,9,,,,,,,,,,,,,,,,,,,,,,,,,,,,,,,,,,,,,,,,1408.400735893054,1408.400735893054,1408.400735893054,1408.400735893054,1408.400735893054,1408.400735893054,1408.400735893054,1408.400735893054,1408.400735893054,1408.400735893054,a,0.0915448690066114,1,340,1,1408.5173471920425,1410.017836406012,1410.017836406012,,,,,,,,,,,,,,,,,,,,,,,,,,,,,,,,,,,,,,,,,,,,,,,,,,,,,,,,,,,,,,,,,,,,,,,,,,,,32627,2022-11-03_11h18.03.798,vts_reward_expectancy_bt_OFFLINE,2022.2.4,59.79877998672161,
0,0,1,0,1,0,0,0,hexagon,triangle,1,0,1,0,1,1,13,6,,,,,,,,,,,,,,,,,,,,,,,,,,,,,,,,,,,,,,,,1410.5202681340743,1410.5202681340743,1410.5202681340743,1410.5202681340743,1410.5202681340743,1410.5202681340743,1410.5202681340743,1410.5202681340743,1410.5202681340743,1410.5202681340743,l,0.5376542720478028,1,341,1,1411.0869756760076,,1412.5878511520568,1413.087504129042,,,,,,,,,,,,,,,,,,,,,,,,,,,,,,,,,,,,,,,,,,,,,,,,,,,,,,,,,,,,,,,,,,,,,,,,,,,32627,2022-11-03_11h18.03.798,vts_reward_expectancy_bt_OFFLINE,2022.2.4,59.79877998672161,
0,1,0,0,0,0,0,1,circle,star,1,0,1,0,1,2,14,5,,,,,,,,,,,,,,,,,,,,,,,,,,,,,,,,,,,,,,,,1413.087504129042,1413.087504129042,1413.087504129042,1413.087504129042,1413.087504129042,1413.087504129042,1413.087504129042,1413.087504129042,1413.087504129042,1413.087504129042,a,0.3332163110608235,1,342,1,1413.4378266310086,1414.9382039380725,1414.9382039380725,,,,,,,,,,,,,,,,,,,,,,,,,,,,,,,,,,,,,,,,,,,,,,,,,,,,,,,,,,,,,,,,,,,,,,,,,,,,32627,2022-11-03_11h18.03.798,vts_reward_expectancy_bt_OFFLINE,2022.2.4,59.79877998672161,
0,0,1,0,0,1,0,0,hexagon,circle,1,0,1,0,1,3,15,7,,,,,,,,,,,,,,,,,,,,,,,,,,,,,,,,,,,,,,,,1415.440929181059,1415.440929181059,1415.440929181059,1415.440929181059,1415.440929181059,1415.440929181059,1415.440929181059,1415.440929181059,1415.440929181059,1415.440929181059,l,0.2741514389635995,1,343,1,1415.741173090064,1417.24193672603,1417.24193672603,1417.741952833021,,,,,,,,,,,,,,,,,,,,,,,,,,,,,,,,,,,,,,,,,,,,,,,,,,,,,,,,,,,,,,,,,,,,,,,,,,,32627,2022-11-03_11h18.03.798,vts_reward_expectancy_bt_OFFLINE,2022.2.4,59.79877998672161,
0,1,0,0,1,0,0,0,circle,triangle,1,0,1,0,1,4,16,3,,,,,,,,,,,,,,,,,,,,,,,,,,,,,,,,,,,,,,,,1417.741952833021,1417.741952833021,1417.741952833021,1417.741952833021,1417.741952833021,1417.741952833021,1417.741952833021,1417.741952833021,1417.741952833021,1417.741952833021,l,0.20109454600606114,10,353,1,1417.9748713059817,1419.4751744189998,1419.4751744189998,1419.9752838000422,,,,,,,,,,,,,,,,,,,,,,,,,,,,,,,,,,,,,,,,,,,,,,,,,,,,,,,,,,,,,,,,,,,,,,,,,,,32627,2022-11-03_11h18.03.798,vts_reward_expectancy_bt_OFFLINE,2022.2.4,59.79877998672161,
1,0,0,0,0,1,0,0,triangle,circle,1,0,1,0,1,5,17,0,,,,,,,,,,,,,,,,,,,,,,,,,,,,,,,,,,,,,,,,1419.9752838000422,1419.9752838000422,1419.9752838000422,1419.9752838000422,1419.9752838000422,1419.9752838000422,1419.9752838000422,1419.9752838000422,1419.9752838000422,1419.9752838000422,a,0.3084939520340413,1,354,1,1420.3120037220651,1421.8118574300315,1421.8118574300315,1422.3119595469907,,,,,,,,,,,,,,,,,,,,,,,,,,,,,,,,,,,,,,,,,,,,,,,,,,,,,,,,,,,,,,,,,,,,,,,,,,,32627,2022-11-03_11h18.03.798,vts_reward_expectancy_bt_OFFLINE,2022.2.4,59.79877998672161,
1,0,0,0,0,0,0,1,triangle,star,1,0,1,0,1,6,18,2,,,,,,,,,,,,,,,,,,,,,,,,,,,,,,,,,,,,,,,,1422.3119595469907,1422.3119595469907,1422.3119595469907,1422.3119595469907,1422.3119595469907,1422.3119595469907,1422.3119595469907,1422.3119595469907,1422.3119595469907,1422.3119595469907,l,0.33332542900461704,10,364,1,1422.6785059469985,1424.178968019085,1424.178968019085,1424.6792747409781,,,,,,,,,,,,,,,,,,,,,,,,,,,,,,,,,,,,,,,,,,,,,,,,,,,,,,,,,,,,,,,,,,,,,,,,,,,32627,2022-11-03_11h18.03.798,vts_reward_expectancy_bt_OFFLINE,2022.2.4,59.79877998672161,
0,0,1,0,0,0,0,1,hexagon,star,1,0,1,0,1,7,19,8,,,,,,,,,,,,,,,,,,,,,,,,,,,,,,,,,,,,,,,,1424.6792747409781,1424.6792747409781,1424.6792747409781,1424.6792747409781,1424.6792747409781,1424.6792747409781,1424.6792747409781,1424.6792747409781,1424.6792747409781,1424.6792747409781,l,0.2616809920873493,10,374,1,1424.9631450270535,,1426.4646070430754,,,,,,,,,,,,,,,,,,,,,,,,,,,,,,,,,,,,,,,,,,,,,,,,,,,,,,,,,,,,,,,,,,,,,,,,,,,,32627,2022-11-03_11h18.03.798,vts_reward_expectancy_bt_OFFLINE,2022.2.4,59.79877998672161,
1,0,0,0,0,0,1,0,triangle,hexagon,1,0,1,0,1,8,20,1,,,,,,,,,,,,,,,,,,,,,,,,,,,,,,,,,,,,,,,,1426.9648101060884,1426.9648101060884,1426.9648101060884,1426.9648101060884,1426.9648101060884,1426.9648101060884,1426.9648101060884,1426.9648101060884,1426.9648101060884,1426.9648101060884,l,0.36077071202453226,10,384,1,1427.3489403770072,1428.8494837650796,1428.8494837650796,,,,,,,,,,,,,,,,,,,,,,,,,,,,,,,,,,,,,,,,,,,,,,,,,,,,,,,,,,,,,,,,,,,,,,,,,,,,32627,2022-11-03_11h18.03.798,vts_reward_expectancy_bt_OFFLINE,2022.2.4,59.79877998672161,
0,0,0,1,0,1,0,0,star ,circle,1,0,1,0,1,9,21,10,,,,,,,,,,,,,,,,,,,,,,,,,,,,,,,,,,,,,,,,1429.3496215320192,1429.3496215320192,1429.3496215320192,1429.3496215320192,1429.3496215320192,1429.3496215320192,1429.3496215320192,1429.3496215320192,1429.3496215320192,1429.3496215320192,a,1.7791844299063087,10,394,1,1431.1515550370095,1432.651851105038,1432.651851105038,1433.1521110939793,,,,,,,,,,,,,,,,,,,,,,,,,,,,,,,,,,,,,,,,,,,,,,,,,,,,,,,,,,,,,,,,,,,,,,,,,,,32627,2022-11-03_11h18.03.798,vts_reward_expectancy_bt_OFFLINE,2022.2.4,59.79877998672161,
0,1,0,0,0,0,1,0,circle,hexagon,1,0,1,0,1,10,22,4,,,,,,,,,,,,,,,,,,,,,,,,,,,,,,,,,,,,,,,,1433.1521110939793,1433.1521110939793,1433.1521110939793,1433.1521110939793,1433.1521110939793,1433.1521110939793,1433.1521110939793,1433.1521110939793,1433.1521110939793,1433.1521110939793,a,1.1939331099856645,1,395,1,1434.3709387769923,,1435.8716066130437,,,,,,,,,,,,,,,,,,,,,,,,,,,,,,,,,,,,,,,,,,,,,,,,,,,,,,,,,,,,,,,,,,,,,,,,,,,,32627,2022-11-03_11h18.03.798,vts_reward_expectancy_bt_OFFLINE,2022.2.4,59.79877998672161,
0,0,0,1,0,0,1,0,star,hexagon,1,0,1,0,1,11,23,11,,,,,,,,,,,,,,,,,,,,,,,,,,,,,,,,,,,,,,,,1436.3717214900535,1436.3717214900535,1436.3717214900535,1436.3717214900535,1436.3717214900535,1436.3717214900535,1436.3717214900535,1436.3717214900535,1436.3717214900535,1436.3717214900535,a,0.6963904980802909,1,396,1,1437.08873115608,1438.5894590159878,1438.5894590159878,1439.0897764139809,,,,,,,,,,,,,,,,,,,,,,,,,,,,,,,,,,,,,,,,,,,,,,,,,,,,,,,,,,,,,,,,,,,,,,,,,,,32627,2022-11-03_11h18.03.798,vts_reward_expectancy_bt_OFFLINE,2022.2.4,59.79877998672161,
0,0,0,1,0,1,0,0,star ,circle,1,0,1,0,2,0,24,10,,,,,,,,,,,,,,,,,,,,,,,,,,,,,,,,,,,,,,,,1439.0897764139809,1439.0897764139809,1439.0897764139809,1439.0897764139809,1439.0897764139809,1439.0897764139809,1439.0897764139809,1439.0897764139809,1439.0897764139809,1439.0897764139809,l,0.6785382960224524,1,397,1,1439.7898726830026,,1441.2926902560284,,,,,,,,,,,,,,,,,,,,,,,,,,,,,,,,,,,,,,,,,,,,,,,,,,,,,,,,,,,,,,,,,,,,,,,,,,,,32627,2022-11-03_11h18.03.798,vts_reward_expectancy_bt_OFFLINE,2022.2.4,59.79877998672161,
1,0,0,0,0,0,0,1,triangle,star,1,0,1,0,2,1,25,2,,,,,,,,,,,,,,,,,,,,,,,,,,,,,,,,,,,,,,,,1441.7925927840406,1441.7925927840406,1441.7925927840406,1441.7925927840406,1441.7925927840406,1441.7925927840406,1441.7925927840406,1441.7925927840406,1441.7925927840406,1441.7925927840406,l,0.1591235250234604,1,398,1,1441.9766117720865,1443.4767561040353,1443.4767561040353,1443.9770709080622,,,,,,,,,,,,,,,,,,,,,,,,,,,,,,,,,,,,,,,,,,,,,,,,,,,,,,,,,,,,,,,,,,,,,,,,,,,32627,2022-11-03_11h18.03.798,vts_reward_expectancy_bt_OFFLINE,2022.2.4,59.79877998672161,
0,1,0,0,1,0,0,0,circle,triangle,1,0,1,0,2,2,26,3,,,,,,,,,,,,,,,,,,,,,,,,,,,,,,,,,,,,,,,,1443.9770709080622,1443.9770709080622,1443.9770709080622,1443.9770709080622,1443.9770709080622,1443.9770709080622,1443.9770709080622,1443.9770709080622,1443.9770709080622,1443.9770709080622,l,0.29254897602368146,10,408,1,1444.2948704190785,,1445.7955124160508,,,,,,,,,,,,,,,,,,,,,,,,,,,,,,,,,,,,,,,,,,,,,,,,,,,,,,,,,,,,,,,,,,,,,,,,,,,,32627,2022-11-03_11h18.03.798,vts_reward_expectancy_bt_OFFLINE,2022.2.4,59.79877998672161,
0,0,0,1,1,0,0,0,star,triangle,1,0,1,0,2,3,27,9,,,,,,,,,,,,,,,,,,,,,,,,,,,,,,,,,,,,,,,,1446.2960068890825,1446.2960068890825,1446.2960068890825,1446.2960068890825,1446.2960068890825,1446.2960068890825,1446.2960068890825,1446.2960068890825,1446.2960068890825,1446.2960068890825,l,0.4264503159793094,10,418,1,1446.746149507002,1448.2465908220038,1448.2465908220038,1448.7466911390657,,,,,,,,,,,,,,,,,,,,,,,,,,,,,,,,,,,,,,,,,,,,,,,,,,,,,,,,,,,,,,,,,,,,,,,,,,,32627,2022-11-03_11h18.03.798,vts_reward_expectancy_bt_OFFLINE,2022.2.4,59.79877998672161,
0,1,0,0,0,0,0,1,circle,star,1,0,1,0,2,4,28,5,,,,,,,,,,,,,,,,,,,,,,,,,,,,,,,,,,,,,,,,1448.7466911390657,1448.7466911390657,1448.7466911390657,1448.7466911390657,1448.7466911390657,1448.7466911390657,1448.7466911390657,1448.7466911390657,1448.7466911390657,1448.7466911390657,l,0.8994607860222459,10,428,1,1449.6643686180469,,1451.166115451022,,,,,,,,,,,,,,,,,,,,,,,,,,,,,,,,,,,,,,,,,,,,,,,,,,,,,,,,,,,,,,,,,,,,,,,,,,,,32627,2022-11-03_11h18.03.798,vts_reward_expectancy_bt_OFFLINE,2022.2.4,59.79877998672161,
1,0,0,0,0,1,0,0,triangle,circle,1,0,1,0,2,5,29,0,,,,,,,,,,,,,,,,,,,,,,,,,,,,,,,,,,,,,,,,1451.666240616003,1451.666240616003,1451.666240616003,1451.666240616003,1451.666240616003,1451.666240616003,1451.666240616003,1451.666240616003,1451.666240616003,1451.666240616003,a,1.4902090630494058,10,438,1,1453.183998750057,1454.6847471219953,1454.6847471219953,,,,,,,,,,,,,,,,,,,,,,,,,,,,,,,,,,,,,,,,,,,,,,,,,,,,,,,,,,,,,,,,,,,,,,,,,,,,32627,2022-11-03_11h18.03.798,vts_reward_expectancy_bt_OFFLINE,2022.2.4,59.79877998672161,
0,1,0,0,0,0,1,0,circle,hexagon,1,0,1,0,2,6,30,4,,,,,,,,,,,,,,,,,,,,,,,,,,,,,,,,,,,,,,,,1455.1863926710794,1455.1863926710794,1455.1863926710794,1455.1863926710794,1455.1863926710794,1455.1863926710794,1455.1863926710794,1455.1863926710794,1455.1863926710794,1455.1863926710794,a,0.9402440170524642,1,439,1,1456.1550376620144,,1457.6708836259786,,,,,,,,,,,,,,,,,,,,,,,,,,,,,,,,,,,,,,,,,,,,,,,,,,,,,,,,,,,,,,,,,,,,,,,,,,,,32627,2022-11-03_11h18.03.798,vts_reward_expectancy_bt_OFFLINE,2022.2.4,59.79877998672161,
0,0,1,0,0,1,0,0,hexagon,circle,1,0,1,0,2,7,31,7,,,,,,,,,,,,,,,,,,,,,,,,,,,,,,,,,,,,,,,,1458.171131242998,1458.171131242998,1458.171131242998,1458.171131242998,1458.171131242998,1458.171131242998,1458.171131242998,1458.171131242998,1458.171131242998,1458.171131242998,a,0.4986339509487152,10,449,1,1458.688864186057,,1460.1902539220173,,,,,,,,,,,,,,,,,,,,,,,,,,,,,,,,,,,,,,,,,,,,,,,,,,,,,,,,,,,,,,,,,,,,,,,,,,,,32627,2022-11-03_11h18.03.798,vts_reward_expectancy_bt_OFFLINE,2022.2.4,59.79877998672161,
1,0,0,0,0,0,1,0,triangle,hexagon,1,0,1,0,2,8,32,1,,,,,,,,,,,,,,,,,,,,,,,,,,,,,,,,,,,,,,,,1460.6903504850343,1460.6903504850343,1460.6903504850343,1460.6903504850343,1460.6903504850343,1460.6903504850343,1460.6903504850343,1460.6903504850343,1460.6903504850343,1460.6903504850343,l,0.6901298878947273,1,450,1,1461.408682147041,1462.9074417459778,1462.9074417459778,1463.4079104460543,,,,,,,,,,,,,,,,,,,,,,,,,,,,,,,,,,,,,,,,,,,,,,,,,,,,,,,,,,,,,,,,,,,,,,,,,,,32627,2022-11-03_11h18.03.798,vts_reward_expectancy_bt_OFFLINE,2022.2.4,59.79877998672161,
0,0,0,1,0,0,1,0,star,hexagon,1,0,1,0,2,9,33,11,,,,,,,,,,,,,,,,,,,,,,,,,,,,,,,,,,,,,,,,1463.4079104460543,1463.4079104460543,1463.4079104460543,1463.4079104460543,1463.4079104460543,1463.4079104460543,1463.4079104460543,1463.4079104460543,1463.4079104460543,1463.4079104460543,a,0.42582627502270043,1,451,1,1463.8580429460853,,1465.360059590079,,,,,,,,,,,,,,,,,,,,,,,,,,,,,,,,,,,,,,,,,,,,,,,,,,,,,,,,,,,,,,,,,,,,,,,,,,,,32627,2022-11-03_11h18.03.798,vts_reward_expectancy_bt_OFFLINE,2022.2.4,59.79877998672161,
0,0,1,0,1,0,0,0,hexagon,triangle,1,0,1,0,2,10,34,6,,,,,,,,,,,,,,,,,,,,,,,,,,,,,,,,,,,,,,,,1465.8604275230318,1465.8604275230318,1465.8604275230318,1465.8604275230318,1465.8604275230318,1465.8604275230318,1465.8604275230318,1465.8604275230318,1465.8604275230318,1465.8604275230318,l,0.29092422605026513,10,461,1,1466.1786192629952,,1467.694258898031,,,,,,,,,,,,,,,,,,,,,,,,,,,,,,,,,,,,,,,,,,,,,,,,,,,,,,,,,,,,,,,,,,,,,,,,,,,,32627,2022-11-03_11h18.03.798,vts_reward_expectancy_bt_OFFLINE,2022.2.4,59.79877998672161,
0,0,1,0,0,0,0,1,hexagon,star,1,0,1,0,2,11,35,8,,,,,,,,,,,,,,,,,,,,,,,,,,,,,,,,,,,,,,,,1468.1942078829743,1468.1942078829743,1468.1942078829743,1468.1942078829743,1468.1942078829743,1468.1942078829743,1468.1942078829743,1468.1942078829743,1468.1942078829743,1468.1942078829743,l,0.33104574400931597,1,462,1,1468.5464437260525,1470.0448732860386,1470.0448732860386,,,,,,,,,,,,,,,,,,,,,,,,,,,,,,,,,,,,,,,,,,,,,,,,,,,,,,,,,,,,,,,,,,,,,,,,,,,,32627,2022-11-03_11h18.03.798,vts_reward_expectancy_bt_OFFLINE,2022.2.4,59.79877998672161,
0,0,1,0,0,1,0,0,hexagon,circle,1,0,1,0,3,0,36,7,,,,,,,,,,,,,,,,,,,,,,,,,,,,,,,,,,,,,,,,1470.547617095057,1470.547617095057,1470.547617095057,1470.547617095057,1470.547617095057,1470.547617095057,1470.547617095057,1470.547617095057,1470.547617095057,1470.547617095057,a,0.29468755004927516,1,463,1,1470.8640617540805,1472.364779917989,1472.364779917989,,,,,,,,,,,,,,,,,,,,,,,,,,,,,,,,,,,,,,,,,,,,,,,,,,,,,,,,,,,,,,,,,,,,,,,,,,,,32627,2022-11-03_11h18.03.798,vts_reward_expectancy_bt_OFFLINE,2022.2.4,59.79877998672161,
1,0,0,0,0,0,1,0,triangle,hexagon,1,0,1,0,3,1,37,1,,,,,,,,,,,,,,,,,,,,,,,,,,,,,,,,,,,,,,,,1472.8648795980262,1472.8648795980262,1472.8648795980262,1472.8648795980262,1472.8648795980262,1472.8648795980262,1472.8648795980262,1472.8648795980262,1472.8648795980262,1472.8648795980262,l,0.4520223169820383,10,473,1,1473.3486178540625,1474.849035380059,1474.849035380059,,,,,,,,,,,,,,,,,,,,,,,,,,,,,,,,,,,,,,,,,,,,,,,,,,,,,,,,,,,,,,,,,,,,,,,,,,,,32627,2022-11-03_11h18.03.798,vts_reward_expectancy_bt_OFFLINE,2022.2.4,59.79877998672161,
0,0,0,1,1,0,0,0,star,triangle,1,0,1,0,3,2,38,9,,,,,,,,,,,,,,,,,,,,,,,,,,,,,,,,,,,,,,,,1475.350509155076,1475.350509155076,1475.350509155076,1475.350509155076,1475.350509155076,1475.350509155076,1475.350509155076,1475.350509155076,1475.350509155076,1475.350509155076,l,0.35185732902027667,10,483,1,1475.734641512041,,1477.2355982940644,,,,,,,,,,,,,,,,,,,,,,,,,,,,,,,,,,,,,,,,,,,,,,,,,,,,,,,,,,,,,,,,,,,,,,,,,,,,32627,2022-11-03_11h18.03.798,vts_reward_expectancy_bt_OFFLINE,2022.2.4,59.79877998672161,
0,1,0,0,1,0,0,0,circle,triangle,1,0,1,0,3,3,39,3,,,,,,,,,,,,,,,,,,,,,,,,,,,,,,,,,,,,,,,,1477.7355574020185,1477.7355574020185,1477.7355574020185,1477.7355574020185,1477.7355574020185,1477.7355574020185,1477.7355574020185,1477.7355574020185,1477.7355574020185,1477.7355574020185,l,0.32919295597821474,10,493,1,1478.0857405900024,1479.5862689480418,1479.5862689480418,,,,,,,,,,,,,,,,,,,,,,,,,,,,,,,,,,,,,,,,,,,,,,,,,,,,,,,,,,,,,,,,,,,,,,,,,,,,32627,2022-11-03_11h18.03.798,vts_reward_expectancy_bt_OFFLINE,2022.2.4,59.79877998672161,
0,1,0,0,0,0,1,0,circle,hexagon,1,0,1,0,3,4,40,4,,,,,,,,,,,,,,,,,,,,,,,,,,,,,,,,,,,,,,,,1480.0866858509835,1480.0866858509835,1480.0866858509835,1480.0866858509835,1480.0866858509835,1480.0866858509835,1480.0866858509835,1480.0866858509835,1480.0866858509835,1480.0866858509835,l,0.6112294840859249,10,503,1,1480.7214654419804,1482.2218351650517,1482.2218351650517,,,,,,,,,,,,,,,,,,,,,,,,,,,,,,,,,,,,,,,,,,,,,,,,,,,,,,,,,,,,,,,,,,,,,,,,,,,,32627,2022-11-03_11h18.03.798,vts_reward_expectancy_bt_OFFLINE,2022.2.4,59.79877998672161,
1,0,0,0,0,1,0,0,triangle,circle,1,0,1,0,3,5,41,0,,,,,,,,,,,,,,,,,,,,,,,,,,,,,,,,,,,,,,,,1482.722300484078,1482.722300484078,1482.722300484078,1482.722300484078,1482.722300484078,1482.722300484078,1482.722300484078,1482.722300484078,1482.722300484078,1482.722300484078,l,0.3047979569528252,1,504,1,1483.0568951769965,,1484.5728973220102,,,,,,,,,,,,,,,,,,,,,,,,,,,,,,,,,,,,,,,,,,,,,,,,,,,,,,,,,,,,,,,,,,,,,,,,,,,,32627,2022-11-03_11h18.03.798,vts_reward_expectancy_bt_OFFLINE,2022.2.4,59.79877998672161,
0,0,0,1,0,0,1,0,star,hexagon,1,0,1,0,3,6,42,11,,,,,,,,,,,,,,,,,,,,,,,,,,,,,,,,,,,,,,,,1485.0565081849927,1485.0565081849927,1485.0565081849927,1485.0565081849927,1485.0565081849927,1485.0565081849927,1485.0565081849927,1485.0565081849927,1485.0565081849927,1485.0565081849927,a,0.13032292597927153,1,505,1,1485.207786820014,1486.7082058070228,1486.7082058070228,,,,,,,,,,,,,,,,,,,,,,,,,,,,,,,,,,,,,,,,,,,,,,,,,,,,,,,,,,,,,,,,,,,,,,,,,,,,32627,2022-11-03_11h18.03.798,vts_reward_expectancy_bt_OFFLINE,2022.2.4,59.79877998672161,
1,0,0,0,0,0,0,1,triangle,star,1,0,1,0,3,7,43,2,,,,,,,,,,,,,,,,,,,,,,,,,,,,,,,,,,,,,,,,1487.208402786986,1487.208402786986,1487.208402786986,1487.208402786986,1487.208402786986,1487.208402786986,1487.208402786986,1487.208402786986,1487.208402786986,1487.208402786986,l,0.2281552159693092,1,506,1,1487.4585032510804,1488.9590080080088,1488.9590080080088,1489.4593399460427,,,,,,,,,,,,,,,,,,,,,,,,,,,,,,,,,,,,,,,,,,,,,,,,,,,,,,,,,,,,,,,,,,,,,,,,,,,32627,2022-11-03_11h18.03.798,vts_reward_expectancy_bt_OFFLINE,2022.2.4,59.79877998672161,
0,0,0,1,0,1,0,0,star ,circle,1,0,1,0,3,8,44,10,,,,,,,,,,,,,,,,,,,,,,,,,,,,,,,,,,,,,,,,1489.4593399460427,1489.4593399460427,1489.4593399460427,1489.4593399460427,1489.4593399460427,1489.4593399460427,1489.4593399460427,1489.4593399460427,1489.4593399460427,1489.4593399460427,l,0.2838504209648818,1,507,1,1489.7592832660303,,1491.2624109829776,,,,,,,,,,,,,,,,,,,,,,,,,,,,,,,,,,,,,,,,,,,,,,,,,,,,,,,,,,,,,,,,,,,,,,,,,,,,32627,2022-11-03_11h18.03.798,vts_reward_expectancy_bt_OFFLINE,2022.2.4,59.79877998672161,
0,0,1,0,0,0,0,1,hexagon,star,1,0,1,0,3,9,45,8,,,,,,,,,,,,,,,,,,,,,,,,,,,,,,,,,,,,,,,,1491.7626212040195,1491.7626212040195,1491.7626212040195,1491.7626212040195,1491.7626212040195,1491.7626212040195,1491.7626212040195,1491.7626212040195,1491.7626212040195,1491.7626212040195,l,0.42138695693574846,1,508,1,1492.2127271899953,1493.713437337079,1493.713437337079,1494.2135106150527,,,,,,,,,,,,,,,,,,,,,,,,,,,,,,,,,,,,,,,,,,,,,,,,,,,,,,,,,,,,,,,,,,,,,,,,,,,32627,2022-11-03_11h18.03.798,vts_reward_expectancy_bt_OFFLINE,2022.2.4,59.79877998672161,
0,0,1,0,1,0,0,0,hexagon,triangle,1,0,1,0,3,10,46,6,,,,,,,,,,,,,,,,,,,,,,,,,,,,,,,,,,,,,,,,1494.2135106150527,1494.2135106150527,1494.2135106150527,1494.2135106150527,1494.2135106150527,1494.2135106150527,1494.2135106150527,1494.2135106150527,1494.2135106150527,1494.2135106150527,l,0.2436730379704386,10,518,1,1494.4816907810746,,1495.981975771021,,,,,,,,,,,,,,,,,,,,,,,,,,,,,,,,,,,,,,,,,,,,,,,,,,,,,,,,,,,,,,,,,,,,,,,,,,,,32627,2022-11-03_11h18.03.798,vts_reward_expectancy_bt_OFFLINE,2022.2.4,59.79877998672161,
0,1,0,0,0,0,0,1,circle,star,1,0,1,0,3,11,47,5,,,,,,,,,,,,,,,,,,,,,,,,,,,,,,,,,,,,,,,,1496.4824474980123,1496.4824474980123,1496.4824474980123,1496.4824474980123,1496.4824474980123,1496.4824474980123,1496.4824474980123,1496.4824474980123,1496.4824474980123,1496.4824474980123,a,0.2472619890468195,1,519,1,1496.7508227890357,1498.250276438077,1498.250276438077,1498.7566189890495,,,,,,,,,,,,,,,,,,,,,,,,,,,,,,,,,,,,,,,,,,,,,,,,,,,,,,,,,,,,,,,,,,,,,,,,,,,32627,2022-11-03_11h18.03.798,vts_reward_expectancy_bt_OFFLINE,2022.2.4,59.79877998672161,
0,0,1,0,1,0,0,0,hexagon,triangle,2,0,2,0,0,0,0,6,,,,,,,,,,,,,,,,,,,,,,,,,,,,,,,,,,,,,,,,1501.7650701960083,1501.7650701960083,1501.7650701960083,1501.7650701960083,1501.7650701960083,1501.7650701960083,1501.7650701960083,1501.7650701960083,1501.7650701960083,1501.7650701960083,l,1.2876937279943377,10,529,2,1503.0713078790577,1504.5705897660227,1504.5705897660227,1505.070585731999,,,,,,,,,,,,,,,,,,,,,,,,,,,,,,,,,,,,,,,,,,,,,,,,,,,,,,,,,,,,,,,,,,,,,,,,,,,32627,2022-11-03_11h18.03.798,vts_reward_expectancy_bt_OFFLINE,2022.2.4,59.79877998672161,
0,0,0,1,0,1,0,0,star ,circle,2,0,2,0,0,1,1,10,,,,,,,,,,,,,,,,,,,,,,,,,,,,,,,,,,,,,,,,1505.070585731999,1505.070585731999,1505.070585731999,1505.070585731999,1505.070585731999,1505.070585731999,1505.070585731999,1505.070585731999,1505.070585731999,1505.070585731999,a,0.3222927739843726,10,539,2,1505.4225040780148,1506.9229949819855,1506.9229949819855,,,,,,,,,,,,,,,,,,,,,,,,,,,,,,,,,,,,,,,,,,,,,,,,,,,,,,,,,,,,,,,,,,,,,,,,,,,,32627,2022-11-03_11h18.03.798,vts_reward_expectancy_bt_OFFLINE,2022.2.4,59.79877998672161,
1,0,0,0,0,0,0,1,triangle,star,2,0,2,0,0,2,2,2,,,,,,,,,,,,,,,,,,,,,,,,,,,,,,,,,,,,,,,,1507.4233195270645,1507.4233195270645,1507.4233195270645,1507.4233195270645,1507.4233195270645,1507.4233195270645,1507.4233195270645,1507.4233195270645,1507.4233195270645,1507.4233195270645,l,0.25250450300518423,10,549,2,1507.7076262820046,1509.2080162520288,1509.2080162520288,1509.7080226910766,,,,,,,,,,,,,,,,,,,,,,,,,,,,,,,,,,,,,,,,,,,,,,,,,,,,,,,,,,,,,,,,,,,,,,,,,,,32627,2022-11-03_11h18.03.798,vts_reward_expectancy_bt_OFFLINE,2022.2.4,59.79877998672161,
0,0,1,0,0,0,0,1,hexagon,star,2,0,2,0,0,3,3,8,,,,,,,,,,,,,,,,,,,,,,,,,,,,,,,,,,,,,,,,1509.7080226910766,1509.7080226910766,1509.7080226910766,1509.7080226910766,1509.7080226910766,1509.7080226910766,1509.7080226910766,1509.7080226910766,1509.7080226910766,1509.7080226910766,a,0.10543080396018922,1,550,2,1509.841601955006,,1511.3434825070435,,,,,,,,,,,,,,,,,,,,,,,,,,,,,,,,,,,,,,,,,,,,,,,,,,,,,,,,,,,,,,,,,,,,,,,,,,,,32627,2022-11-03_11h18.03.798,vts_reward_expectancy_bt_OFFLINE,2022.2.4,59.79877998672161,
0,0,0,1,0,0,1,0,star,hexagon,2,0,2,0,0,4,4,11,,,,,,,,,,,,,,,,,,,,,,,,,,,,,,,,,,,,,,,,1511.8435442739865,1511.8435442739865,1511.8435442739865,1511.8435442739865,1511.8435442739865,1511.8435442739865,1511.8435442739865,1511.8435442739865,1511.8435442739865,1511.8435442739865,l,0.2204673079540953,1,551,2,1512.0937952960376,1513.5944052720442,1513.5944052720442,1514.0944603480166,,,,,,,,,,,,,,,,,,,,,,,,,,,,,,,,,,,,,,,,,,,,,,,,,,,,,,,,,,,,,,,,,,,,,,,,,,,32627,2022-11-03_11h18.03.798,vts_reward_expectancy_bt_OFFLINE,2022.2.4,59.79877998672161,
1,0,0,0,0,1,0,0,triangle,circle,2,0,2,0,0,5,5,0,,,,,,,,,,,,,,,,,,,,,,,,,,,,,,,,,,,,,,,,1514.0944603480166,1514.0944603480166,1514.0944603480166,1514.0944603480166,1514.0944603480166,1514.0944603480166,1514.0944603480166,1514.0944603480166,1514.0944603480166,1514.0944603480166,l,0.28756221604999155,1,552,2,1514.4108976930147,,1515.9137368890224,,,,,,,,,,,,,,,,,,,,,,,,,,,,,,,,,,,,,,,,,,,,,,,,,,,,,,,,,,,,,,,,,,,,,,,,,,,,32627,2022-11-03_11h18.03.798,vts_reward_expectancy_bt_OFFLINE,2022.2.4,59.79877998672161,
0,0,1,0,0,1,0,0,hexagon,circle,2,0,2,0,0,6,6,7,,,,,,,,,,,,,,,,,,,,,,,,,,,,,,,,,,,,,,,,1516.4142996110022,1516.4142996110022,1516.4142996110022,1516.4142996110022,1516.4142996110022,1516.4142996110022,1516.4142996110022,1516.4142996110022,1516.4142996110022,1516.4142996110022,a,0.26232968096155673,1,553,2,1516.6970395440003,1518.1976017610868,1518.1976017610868,1518.6975902910344,,,,,,,,,,,,,,,,,,,,,,,,,,,,,,,,,,,,,,,,,,,,,,,,,,,,,,,,,,,,,,,,,,,,,,,,,,,32627,2022-11-03_11h18.03.798,vts_reward_expectancy_bt_OFFLINE,2022.2.4,59.79877998672161,
0,1,0,0,0,0,0,1,circle,star,2,0,2,0,0,7,7,5,,,,,,,,,,,,,,,,,,,,,,,,,,,,,,,,,,,,,,,,1518.6975902910344,1518.6975902910344,1518.6975902910344,1518.6975902910344,1518.6975902910344,1518.6975902910344,1518.6975902910344,1518.6975902910344,1518.6975902910344,1518.6975902910344,l,0.2411895989207551,1,554,2,1518.9652286970522,,1520.4666334469803,,,,,,,,,,,,,,,,,,,,,,,,,,,,,,,,,,,,,,,,,,,,,,,,,,,,,,,,,,,,,,,,,,,,,,,,,,,,32627,2022-11-03_11h18.03.798,vts_reward_expectancy_bt_OFFLINE,2022.2.4,59.79877998672161,
0,1,0,0,1,0,0,0,circle,triangle,2,0,2,0,0,8,8,3,,,,,,,,,,,,,,,,,,,,,,,,,,,,,,,,,,,,,,,,1520.9668890290195,1520.9668890290195,1520.9668890290195,1520.9668890290195,1520.9668890290195,1520.9668890290195,1520.9668890290195,1520.9668890290195,1520.9668890290195,1520.9668890290195,l,0.13112985400948673,10,564,2,1521.1182258550543,,1522.6172404830577,,,,,,,,,,,,,,,,,,,,,,,,,,,,,,,,,,,,,,,,,,,,,,,,,,,,,,,,,,,,,,,,,,,,,,,,,,,,32627,2022-11-03_11h18.03.798,vts_reward_expectancy_bt_OFFLINE,2022.2.4,59.79877998672161,
1,0,0,0,0,0,1,0,triangle,hexagon,2,0,2,0,0,9,9,1,,,,,,,,,,,,,,,,,,,,,,,,,,,,,,,,,,,,,,,,1523.1173625349766,1523.1173625349766,1523.1173625349766,1523.1173625349766,1523.1173625349766,1523.1173625349766,1523.1173625349766,1523.1173625349766,1523.1173625349766,1523.1173625349766,l,0.10730631998740137,10,574,2,1523.2515752000036,1524.75202286907,1524.75202286907,,,,,,,,,,,,,,,,,,,,,,,,,,,,,,,,,,,,,,,,,,,,,,,,,,,,,,,,,,,,,,,,,,,,,,,,,,,,32627,2022-11-03_11h18.03.798,vts_reward_expectancy_bt_OFFLINE,2022.2.4,59.79877998672161,
0,0,0,1,1,0,0,0,star,triangle,2,0,2,0,0,10,10,9,,,,,,,,,,,,,,,,,,,,,,,,,,,,,,,,,,,,,,,,1525.253737902036,1525.253737902036,1525.253737902036,1525.253737902036,1525.253737902036,1525.253737902036,1525.253737902036,1525.253737902036,1525.253737902036,1525.253737902036,l,0.3898697349941358,10,584,2,1525.671262255055,1527.1717580180848,1527.1717580180848,,,,,,,,,,,,,,,,,,,,,,,,,,,,,,,,,,,,,,,,,,,,,,,,,,,,,,,,,,,,,,,,,,,,,,,,,,,,32627,2022-11-03_11h18.03.798,vts_reward_expectancy_bt_OFFLINE,2022.2.4,59.79877998672161,
0,1,0,0,0,0,1,0,circle,hexagon,2,0,2,0,0,11,11,4,,,,,,,,,,,,,,,,,,,,,,,,,,,,,,,,,,,,,,,,1527.6718801769894,1527.6718801769894,1527.6718801769894,1527.6718801769894,1527.6718801769894,1527.6718801769894,1527.6718801769894,1527.6718801769894,1527.6718801769894,1527.6718801769894,l,0.2218652319861576,10,594,2,1527.9218982000602,,1529.422746242024,,,,,,,,,,,,,,,,,,,,,,,,,,,,,,,,,,,,,,,,,,,,,,,,,,,,,,,,,,,,,,,,,,,,,,,,,,,,32627,2022-11-03_11h18.03.798,vts_reward_expectancy_bt_OFFLINE,2022.2.4,59.79877998672161,
0,1,0,0,0,0,1,0,circle,hexagon,2,0,2,0,1,0,12,4,,,,,,,,,,,,,,,,,,,,,,,,,,,,,,,,,,,,,,,,1529.92259999807,1529.92259999807,1529.92259999807,1529.92259999807,1529.92259999807,1529.92259999807,1529.92259999807,1529.92259999807,1529.92259999807,1529.92259999807,l,0.33379923400934786,10,604,2,1530.2737931350712,1531.7745460460428,1531.7745460460428,,,,,,,,,,,,,,,,,,,,,,,,,,,,,,,,,,,,,,,,,,,,,,,,,,,,,,,,,,,,,,,,,,,,,,,,,,,,32627,2022-11-03_11h18.03.798,vts_reward_expectancy_bt_OFFLINE,2022.2.4,59.79877998672161,
1,0,0,0,0,1,0,0,triangle,circle,2,0,2,0,1,1,13,0,,,,,,,,,,,,,,,,,,,,,,,,,,,,,,,,,,,,,,,,1532.2744811000302,1532.2744811000302,1532.2744811000302,1532.2744811000302,1532.2744811000302,1532.2744811000302,1532.2744811000302,1532.2744811000302,1532.2744811000302,1532.2744811000302,l,0.2994854119606316,1,605,2,1532.5939752029954,,1534.1091833000537,,,,,,,,,,,,,,,,,,,,,,,,,,,,,,,,,,,,,,,,,,,,,,,,,,,,,,,,,,,,,,,,,,,,,,,,,,,,32627,2022-11-03_11h18.03.798,vts_reward_expectancy_bt_OFFLINE,2022.2.4,59.79877998672161,
0,0,1,0,0,1,0,0,hexagon,circle,2,0,2,0,1,2,14,7,,,,,,,,,,,,,,,,,,,,,,,,,,,,,,,,,,,,,,,,1534.6091455790447,1534.6091455790447,1534.6091455790447,1534.6091455790447,1534.6091455790447,1534.6091455790447,1534.6091455790447,1534.6091455790447,1534.6091455790447,1534.6091455790447,a,0.40601602708920836,10,615,2,1535.0440675570862,,1536.544794972986,,,,,,,,,,,,,,,,,,,,,,,,,,,,,,,,,,,,,,,,,,,,,,,,,,,,,,,,,,,,,,,,,,,,,,,,,,,,32627,2022-11-03_11h18.03.798,vts_reward_expectancy_bt_OFFLINE,2022.2.4,59.79877998672161,
0,1,0,0,0,0,0,1,circle,star,2,0,2,0,1,3,15,5,,,,,,,,,,,,,,,,,,,,,,,,,,,,,,,,,,,,,,,,1537.0448916810565,1537.0448916810565,1537.0448916810565,1537.0448916810565,1537.0448916810565,1537.0448916810565,1537.0448916810565,1537.0448916810565,1537.0448916810565,1537.0448916810565,a,0.45696331397630274,1,616,2,1537.5303419070551,,1539.0455054210033,,,,,,,,,,,,,,,,,,,,,,,,,,,,,,,,,,,,,,,,,,,,,,,,,,,,,,,,,,,,,,,,,,,,,,,,,,,,32627,2022-11-03_11h18.03.798,vts_reward_expectancy_bt_OFFLINE,2022.2.4,59.79877998672161,
0,0,0,1,1,0,0,0,star,triangle,2,0,2,0,1,4,16,9,,,,,,,,,,,,,,,,,,,,,,,,,,,,,,,,,,,,,,,,1539.5298069430282,1539.5298069430282,1539.5298069430282,1539.5298069430282,1539.5298069430282,1539.5298069430282,1539.5298069430282,1539.5298069430282,1539.5298069430282,1539.5298069430282,l,0.007356996997259557,1,617,2,1539.5629484970123,,1541.0651211140212,,,,,,,,,,,,,,,,,,,,,,,,,,,,,,,,,,,,,,,,,,,,,,,,,,,,,,,,,,,,,,,,,,,,,,,,,,,,32627,2022-11-03_11h18.03.798,vts_reward_expectancy_bt_OFFLINE,2022.2.4,59.79877998672161,
1,0,0,0,0,0,1,0,triangle,hexagon,2,0,2,0,1,5,17,1,,,,,,,,,,,,,,,,,,,,,,,,,,,,,,,,,,,,,,,,1541.565280687064,1541.565280687064,1541.565280687064,1541.565280687064,1541.565280687064,1541.565280687064,1541.565280687064,1541.565280687064,1541.565280687064,1541.565280687064,l,0.33522646501660347,10,627,2,1541.93202101707,1543.4321203450672,1543.4321203450672,1543.932620650041,,,,,,,,,,,,,,,,,,,,,,,,,,,,,,,,,,,,,,,,,,,,,,,,,,,,,,,,,,,,,,,,,,,,,,,,,,,32627,2022-11-03_11h18.03.798,vts_reward_expectancy_bt_OFFLINE,2022.2.4,59.79877998672161,
1,0,0,0,0,0,0,1,triangle,star,2,0,2,0,1,6,18,2,,,,,,,,,,,,,,,,,,,,,,,,,,,,,,,,,,,,,,,,1543.932620650041,1543.932620650041,1543.932620650041,1543.932620650041,1543.932620650041,1543.932620650041,1543.932620650041,1543.932620650041,1543.932620650041,1543.932620650041,l,0.3296407690504566,1,628,2,1544.2845334920567,,1545.7856343430467,,,,,,,,,,,,,,,,,,,,,,,,,,,,,,,,,,,,,,,,,,,,,,,,,,,,,,,,,,,,,,,,,,,,,,,,,,,,32627,2022-11-03_11h18.03.798,vts_reward_expectancy_bt_OFFLINE,2022.2.4,59.79877998672161,
0,0,1,0,1,0,0,0,hexagon,triangle,2,0,2,0,1,7,19,6,,,,,,,,,,,,,,,,,,,,,,,,,,,,,,,,,,,,,,,,1546.2859766529873,1546.2859766529873,1546.2859766529873,1546.2859766529873,1546.2859766529873,1546.2859766529873,1546.2859766529873,1546.2859766529873,1546.2859766529873,1546.2859766529873,l,0.35052276705391705,1,629,2,1546.6688464550534,1548.169259943068,1548.169259943068,1548.6693058260716,,,,,,,,,,,,,,,,,,,,,,,,,,,,,,,,,,,,,,,,,,,,,,,,,,,,,,,,,,,,,,,,,,,,,,,,,,,32627,2022-11-03_11h18.03.798,vts_reward_expectancy_bt_OFFLINE,2022.2.4,59.79877998672161,
0,0,0,1,0,1,0,0,star ,circle,2,0,2,0,1,8,20,10,,,,,,,,,,,,,,,,,,,,,,,,,,,,,,,,,,,,,,,,1548.6693058260716,1548.6693058260716,1548.6693058260716,1548.6693058260716,1548.6693058260716,1548.6693058260716,1548.6693058260716,1548.6693058260716,1548.6693058260716,1548.6693058260716,a,0.2733556089224294,1,630,2,1548.9697466490325,,1550.4720991570503,,,,,,,,,,,,,,,,,,,,,,,,,,,,,,,,,,,,,,,,,,,,,,,,,,,,,,,,,,,,,,,,,,,,,,,,,,,,32627,2022-11-03_11h18.03.798,vts_reward_expectancy_bt_OFFLINE,2022.2.4,59.79877998672161,
0,1,0,0,1,0,0,0,circle,triangle,2,0,2,0,1,9,21,3,,,,,,,,,,,,,,,,,,,,,,,,,,,,,,,,,,,,,,,,1550.972372175078,1550.972372175078,1550.972372175078,1550.972372175078,1550.972372175078,1550.972372175078,1550.972372175078,1550.972372175078,1550.972372175078,1550.972372175078,a,0.29911634197924286,1,631,2,1551.2892942320323,1552.7892398589756,1552.7892398589756,1553.2891539470293,,,,,,,,,,,,,,,,,,,,,,,,,,,,,,,,,,,,,,,,,,,,,,,,,,,,,,,,,,,,,,,,,,,,,,,,,,,32627,2022-11-03_11h18.03.798,vts_reward_expectancy_bt_OFFLINE,2022.2.4,59.79877998672161,
0,0,0,1,0,0,1,0,star,hexagon,2,0,2,0,1,10,22,11,,,,,,,,,,,,,,,,,,,,,,,,,,,,,,,,,,,,,,,,1553.2891539470293,1553.2891539470293,1553.2891539470293,1553.2891539470293,1553.2891539470293,1553.2891539470293,1553.2891539470293,1553.2891539470293,1553.2891539470293,1553.2891539470293,a,0.22144033398944885,10,641,2,1553.5418705360498,,1555.0575782459928,,,,,,,,,,,,,,,,,,,,,,,,,,,,,,,,,,,,,,,,,,,,,,,,,,,,,,,,,,,,,,,,,,,,,,,,,,,,32627,2022-11-03_11h18.03.798,vts_reward_expectancy_bt_OFFLINE,2022.2.4,59.79877998672161,
0,0,1,0,0,0,0,1,hexagon,star,2,0,2,0,1,11,23,8,,,,,,,,,,,,,,,,,,,,,,,,,,,,,,,,,,,,,,,,1555.542770377011,1555.542770377011,1555.542770377011,1555.542770377011,1555.542770377011,1555.542770377011,1555.542770377011,1555.542770377011,1555.542770377011,1555.542770377011,a,1.5679872250184417,10,651,2,1557.143505175016,1558.6440590360435,1558.6440590360435,1559.1442969200434,,,,,,,,,,,,,,,,,,,,,,,,,,,,,,,,,,,,,,,,,,,,,,,,,,,,,,,,,,,,,,,,,,,,,,,,,,,32627,2022-11-03_11h18.03.798,vts_reward_expectancy_bt_OFFLINE,2022.2.4,59.79877998672161,
1,0,0,0,0,0,1,0,triangle,hexagon,2,0,2,0,2,0,24,1,,,,,,,,,,,,,,,,,,,,,,,,,,,,,,,,,,,,,,,,1559.1442969200434,1559.1442969200434,1559.1442969200434,1559.1442969200434,1559.1442969200434,1559.1442969200434,1559.1442969200434,1559.1442969200434,1559.1442969200434,1559.1442969200434,l,0.5095894709229469,1,652,2,1559.678346302011,,1561.1795526089845,,,,,,,,,,,,,,,,,,,,,,,,,,,,,,,,,,,,,,,,,,,,,,,,,,,,,,,,,,,,,,,,,,,,,,,,,,,,32627,2022-11-03_11h18.03.798,vts_reward_expectancy_bt_OFFLINE,2022.2.4,59.79877998672161,
0,0,1,0,0,1,0,0,hexagon,circle,2,0,2,0,2,1,25,7,,,,,,,,,,,,,,,,,,,,,,,,,,,,,,,,,,,,,,,,1561.679922098061,1561.679922098061,1561.679922098061,1561.679922098061,1561.679922098061,1561.679922098061,1561.679922098061,1561.679922098061,1561.679922098061,1561.679922098061,l,0.3132949969731271,1,653,2,1562.01368657907,1563.51413146907,1563.51413146907,1564.014357410022,,,,,,,,,,,,,,,,,,,,,,,,,,,,,,,,,,,,,,,,,,,,,,,,,,,,,,,,,,,,,,,,,,,,,,,,,,,32627,2022-11-03_11h18.03.798,vts_reward_expectancy_bt_OFFLINE,2022.2.4,59.79877998672161,
0,1,0,0,1,0,0,0,circle,triangle,2,0,2,0,2,2,26,3,,,,,,,,,,,,,,,,,,,,,,,,,,,,,,,,,,,,,,,,1564.014357410022,1564.014357410022,1564.014357410022,1564.014357410022,1564.014357410022,1564.014357410022,1564.014357410022,1564.014357410022,1564.014357410022,1564.014357410022,l,0.34228229708969593,1,654,2,1564.3809045300586,,1565.883249271079,,,,,,,,,,,,,,,,,,,,,,,,,,,,,,,,,,,,,,,,,,,,,,,,,,,,,,,,,,,,,,,,,,,,,,,,,,,,32627,2022-11-03_11h18.03.798,vts_reward_expectancy_bt_OFFLINE,2022.2.4,59.79877998672161,
0,0,1,0,0,0,0,1,hexagon,star,2,0,2,0,2,3,27,8,,,,,,,,,,,,,,,,,,,,,,,,,,,,,,,,,,,,,,,,1566.3829741780646,1566.3829741780646,1566.3829741780646,1566.3829741780646,1566.3829741780646,1566.3829741780646,1566.3829741780646,1566.3829741780646,1566.3829741780646,1566.3829741780646,a,0.4486605990678072,10,664,2,1566.8531072650803,,1568.3670046339976,,,,,,,,,,,,,,,,,,,,,,,,,,,,,,,,,,,,,,,,,,,,,,,,,,,,,,,,,,,,,,,,,,,,,,,,,,,,32627,2022-11-03_11h18.03.798,vts_reward_expectancy_bt_OFFLINE,2022.2.4,59.79877998672161,
0,0,0,1,1,0,0,0,star,triangle,2,0,2,0,2,4,28,9,,,,,,,,,,,,,,,,,,,,,,,,,,,,,,,,,,,,,,,,1568.867186543066,1568.867186543066,1568.867186543066,1568.867186543066,1568.867186543066,1568.867186543066,1568.867186543066,1568.867186543066,1568.867186543066,1568.867186543066,a,2.65482588193845,1,665,2,1571.5535073829815,1573.053650445072,1573.053650445072,1573.5539860540302,,,,,,,,,,,,,,,,,,,,,,,,,,,,,,,,,,,,,,,,,,,,,,,,,,,,,,,,,,,,,,,,,,,,,,,,,,,32627,2022-11-03_11h18.03.798,vts_reward_expectancy_bt_OFFLINE,2022.2.4,59.79877998672161,
0,1,0,0,0,0,1,0,circle,hexagon,2,0,2,0,2,5,29,4,,,,,,,,,,,,,,,,,,,,,,,,,,,,,,,,,,,,,,,,1573.5539860540302,1573.5539860540302,1573.5539860540302,1573.5539860540302,1573.5539860540302,1573.5539860540302,1573.5539860540302,1573.5539860540302,1573.5539860540302,1573.5539860540302,l,0.5786442739190534,10,675,2,1574.1563328530174,,1575.657349314075,,,,,,,,,,,,,,,,,,,,,,,,,,,,,,,,,,,,,,,,,,,,,,,,,,,,,,,,,,,,,,,,,,,,,,,,,,,,32627,2022-11-03_11h18.03.798,vts_reward_expectancy_bt_OFFLINE,2022.2.4,59.79877998672161,
0,1,0,0,0,0,0,1,circle,star,2,0,2,0,2,6,30,5,,,,,,,,,,,,,,,,,,,,,,,,,,,,,,,,,,,,,,,,1576.1577948570484,1576.1577948570484,1576.1577948570484,1576.1577948570484,1576.1577948570484,1576.1577948570484,1576.1577948570484,1576.1577948570484,1576.1577948570484,1576.1577948570484,l,0.6520354460226372,1,676,2,1576.8406281080097,1578.341175802052,1578.341175802052,1578.8410563269863,,,,,,,,,,,,,,,,,,,,,,,,,,,,,,,,,,,,,,,,,,,,,,,,,,,,,,,,,,,,,,,,,,,,,,,,,,,32627,2022-11-03_11h18.03.798,vts_reward_expectancy_bt_OFFLINE,2022.2.4,59.79877998672161,
0,0,1,0,1,0,0,0,hexagon,triangle,2,0,2,0,2,7,31,6,,,,,,,,,,,,,,,,,,,,,,,,,,,,,,,,,,,,,,,,1578.8410563269863,1578.8410563269863,1578.8410563269863,1578.8410563269863,1578.8410563269863,1578.8410563269863,1578.8410563269863,1578.8410563269863,1578.8410563269863,1578.8410563269863,l,0.7138680840143934,10,686,2,1579.5775048080832,,1581.0776195040671,,,,,,,,,,,,,,,,,,,,,,,,,,,,,,,,,,,,,,,,,,,,,,,,,,,,,,,,,,,,,,,,,,,,,,,,,,,,32627,2022-11-03_11h18.03.798,vts_reward_expectancy_bt_OFFLINE,2022.2.4,59.79877998672161,
1,0,0,0,0,1,0,0,triangle,circle,2,0,2,0,2,8,32,0,,,,,,,,,,,,,,,,,,,,,,,,,,,,,,,,,,,,,,,,1581.5780184720643,1581.5780184720643,1581.5780184720643,1581.5780184720643,1581.5780184720643,1581.5780184720643,1581.5780184720643,1581.5780184720643,1581.5780184720643,1581.5780184720643,a,0.609696447965689,10,696,2,1582.2110254530562,1583.7111728730379,1583.7111728730379,1584.2116093260702,,,,,,,,,,,,,,,,,,,,,,,,,,,,,,,,,,,,,,,,,,,,,,,,,,,,,,,,,,,,,,,,,,,,,,,,,,,32627,2022-11-03_11h18.03.798,vts_reward_expectancy_bt_OFFLINE,2022.2.4,59.79877998672161,
0,0,0,1,0,0,1,0,star,hexagon,2,0,2,0,2,9,33,11,,,,,,,,,,,,,,,,,,,,,,,,,,,,,,,,,,,,,,,,1584.2116093260702,1584.2116093260702,1584.2116093260702,1584.2116093260702,1584.2116093260702,1584.2116093260702,1584.2116093260702,1584.2116093260702,1584.2116093260702,1584.2116093260702,l,0.8343291589990258,10,706,2,1585.062507595052,,1586.5651618380798,,,,,,,,,,,,,,,,,,,,,,,,,,,,,,,,,,,,,,,,,,,,,,,,,,,,,,,,,,,,,,,,,,,,,,,,,,,,32627,2022-11-03_11h18.03.798,vts_reward_expectancy_bt_OFFLINE,2022.2.4,59.79877998672161,
0,0,0,1,0,1,0,0,star ,circle,2,0,2,0,2,10,34,10,,,,,,,,,,,,,,,,,,,,,,,,,,,,,,,,,,,,,,,,1587.0651145779993,1587.0651145779993,1587.0651145779993,1587.0651145779993,1587.0651145779993,1587.0651145779993,1587.0651145779993,1587.0651145779993,1587.0651145779993,1587.0651145779993,a,0.9510037050349638,10,716,2,1588.048333654995,1589.5491093640449,1589.5491093640449,1590.049093567999,,,,,,,,,,,,,,,,,,,,,,,,,,,,,,,,,,,,,,,,,,,,,,,,,,,,,,,,,,,,,,,,,,,,,,,,,,,32627,2022-11-03_11h18.03.798,vts_reward_expectancy_bt_OFFLINE,2022.2.4,59.79877998672161,
1,0,0,0,0,0,0,1,triangle,star,2,0,2,0,2,11,35,2,,,,,,,,,,,,,,,,,,,,,,,,,,,,,,,,,,,,,,,,1590.049093567999,1590.049093567999,1590.049093567999,1590.049093567999,1590.049093567999,1590.049093567999,1590.049093567999,1590.049093567999,1590.049093567999,1590.049093567999,l,0.677873608074151,1,717,2,1590.7538576769875,,1592.2680921270512,,,,,,,,,,,,,,,,,,,,,,,,,,,,,,,,,,,,,,,,,,,,,,,,,,,,,,,,,,,,,,,,,,,,,,,,,,,,32627,2022-11-03_11h18.03.798,vts_reward_expectancy_bt_OFFLINE,2022.2.4,59.79877998672161,
1,0,0,0,0,0,0,1,triangle,star,2,0,2,0,3,0,36,2,,,,,,,,,,,,,,,,,,,,,,,,,,,,,,,,,,,,,,,,1592.752125662053,1592.752125662053,1592.752125662053,1592.752125662053,1592.752125662053,1592.752125662053,1592.752125662053,1592.752125662053,1592.752125662053,1592.752125662053,l,0.45031039498280734,1,718,2,1593.2191482500639,1594.7191183560062,1594.7191183560062,1595.2172523400513,,,,,,,,,,,,,,,,,,,,,,,,,,,,,,,,,,,,,,,,,,,,,,,,,,,,,,,,,,,,,,,,,,,,,,,,,,,32627,2022-11-03_11h18.03.798,vts_reward_expectancy_bt_OFFLINE,2022.2.4,59.79877998672161,
1,0,0,0,0,0,1,0,triangle,hexagon,2,0,2,0,3,1,37,1,,,,,,,,,,,,,,,,,,,,,,,,,,,,,,,,,,,,,,,,1595.2172523400513,1595.2172523400513,1595.2172523400513,1595.2172523400513,1595.2172523400513,1595.2172523400513,1595.2172523400513,1595.2172523400513,1595.2172523400513,1595.2172523400513,l,0.358420206932351,10,728,2,1595.6067623950075,,1597.1227639310528,,,,,,,,,,,,,,,,,,,,,,,,,,,,,,,,,,,,,,,,,,,,,,,,,,,,,,,,,,,,,,,,,,,,,,,,,,,,32627,2022-11-03_11h18.03.798,vts_reward_expectancy_bt_OFFLINE,2022.2.4,59.79877998672161,
0,0,1,0,0,1,0,0,hexagon,circle,2,0,2,0,3,2,38,7,,,,,,,,,,,,,,,,,,,,,,,,,,,,,,,,,,,,,,,,1597.6228638830362,1597.6228638830362,1597.6228638830362,1597.6228638830362,1597.6228638830362,1597.6228638830362,1597.6228638830362,1597.6228638830362,1597.6228638830362,1597.6228638830362,a,0.4278474079910666,1,729,2,1598.0753917980473,,1599.5891585480422,,,,,,,,,,,,,,,,,,,,,,,,,,,,,,,,,,,,,,,,,,,,,,,,,,,,,,,,,,,,,,,,,,,,,,,,,,,,32627,2022-11-03_11h18.03.798,vts_reward_expectancy_bt_OFFLINE,2022.2.4,59.79877998672161,
0,0,1,0,1,0,0,0,hexagon,triangle,2,0,2,0,3,3,39,6,,,,,,,,,,,,,,,,,,,,,,,,,,,,,,,,,,,,,,,,1600.0893462080276,1600.0893462080276,1600.0893462080276,1600.0893462080276,1600.0893462080276,1600.0893462080276,1600.0893462080276,1600.0893462080276,1600.0893462080276,1600.0893462080276,a,0.537570875021629,10,739,2,1600.658594982,1602.1593632940203,1602.1593632940203,1602.659395470051,,,,,,,,,,,,,,,,,,,,,,,,,,,,,,,,,,,,,,,,,,,,,,,,,,,,,,,,,,,,,,,,,,,,,,,,,,,32627,2022-11-03_11h18.03.798,vts_reward_expectancy_bt_OFFLINE,2022.2.4,59.79877998672161,
0,1,0,0,0,0,1,0,circle,hexagon,2,0,2,0,3,4,40,4,,,,,,,,,,,,,,,,,,,,,,,,,,,,,,,,,,,,,,,,1602.659395470051,1602.659395470051,1602.659395470051,1602.659395470051,1602.659395470051,1602.659395470051,1602.659395470051,1602.659395470051,1602.659395470051,1602.659395470051,l,0.4424768070457503,10,749,2,1603.126284792088,1604.626440881053,1604.626440881053,1605.1266695630038,,,,,,,,,,,,,,,,,,,,,,,,,,,,,,,,,,,,,,,,,,,,,,,,,,,,,,,,,,,,,,,,,,,,,,,,,,,32627,2022-11-03_11h18.03.798,vts_reward_expectancy_bt_OFFLINE,2022.2.4,59.79877998672161,
0,1,0,0,0,0,0,1,circle,star,2,0,2,0,3,5,41,5,,,,,,,,,,,,,,,,,,,,,,,,,,,,,,,,,,,,,,,,1605.1266695630038,1605.1266695630038,1605.1266695630038,1605.1266695630038,1605.1266695630038,1605.1266695630038,1605.1266695630038,1605.1266695630038,1605.1266695630038,1605.1266695630038,l,0.36100941500626504,10,759,2,1605.5123046140652,1607.0127397690667,1607.0127397690667,1607.5128836970543,,,,,,,,,,,,,,,,,,,,,,,,,,,,,,,,,,,,,,,,,,,,,,,,,,,,,,,,,,,,,,,,,,,,,,,,,,,32627,2022-11-03_11h18.03.798,vts_reward_expectancy_bt_OFFLINE,2022.2.4,59.79877998672161,
0,1,0,0,1,0,0,0,circle,triangle,2,0,2,0,3,6,42,3,,,,,,,,,,,,,,,,,,,,,,,,,,,,,,,,,,,,,,,,1607.5128836970543,1607.5128836970543,1607.5128836970543,1607.5128836970543,1607.5128836970543,1607.5128836970543,1607.5128836970543,1607.5128836970543,1607.5128836970543,1607.5128836970543,l,0.2932571149431169,10,769,2,1607.8303893799894,1609.330595241976,1609.330595241976,,,,,,,,,,,,,,,,,,,,,,,,,,,,,,,,,,,,,,,,,,,,,,,,,,,,,,,,,,,,,,,,,,,,,,,,,,,,32627,2022-11-03_11h18.03.798,vts_reward_expectancy_bt_OFFLINE,2022.2.4,59.79877998672161,
0,0,0,1,1,0,0,0,star,triangle,2,0,2,0,3,7,43,9,,,,,,,,,,,,,,,,,,,,,,,,,,,,,,,,,,,,,,,,1609.8306172830053,1609.8306172830053,1609.8306172830053,1609.8306172830053,1609.8306172830053,1609.8306172830053,1609.8306172830053,1609.8306172830053,1609.8306172830053,1609.8306172830053,l,0.25900102802552283,10,779,2,1610.1137627189746,,1611.6163897730876,,,,,,,,,,,,,,,,,,,,,,,,,,,,,,,,,,,,,,,,,,,,,,,,,,,,,,,,,,,,,,,,,,,,,,,,,,,,32627,2022-11-03_11h18.03.798,vts_reward_expectancy_bt_OFFLINE,2022.2.4,59.79877998672161,
0,0,0,1,0,1,0,0,star ,circle,2,0,2,0,3,8,44,10,,,,,,,,,,,,,,,,,,,,,,,,,,,,,,,,,,,,,,,,1612.1165769239888,1612.1165769239888,1612.1165769239888,1612.1165769239888,1612.1165769239888,1612.1165769239888,1612.1165769239888,1612.1165769239888,1612.1165769239888,1612.1165769239888,l,0.2902614399790764,1,780,2,1612.4351507259998,,1613.9506114419783,,,,,,,,,,,,,,,,,,,,,,,,,,,,,,,,,,,,,,,,,,,,,,,,,,,,,,,,,,,,,,,,,,,,,,,,,,,,32627,2022-11-03_11h18.03.798,vts_reward_expectancy_bt_OFFLINE,2022.2.4,59.79877998672161,
0,0,0,1,0,0,1,0,star,hexagon,2,0,2,0,3,9,45,11,,,,,,,,,,,,,,,,,,,,,,,,,,,,,,,,,,,,,,,,1614.4507731209742,1614.4507731209742,1614.4507731209742,1614.4507731209742,1614.4507731209742,1614.4507731209742,1614.4507731209742,1614.4507731209742,1614.4507731209742,1614.4507731209742,a,0.2285556779243052,1,781,2,1614.700868473039,,1616.2025995959993,,,,,,,,,,,,,,,,,,,,,,,,,,,,,,,,,,,,,,,,,,,,,,,,,,,,,,,,,,,,,,,,,,,,,,,,,,,,32627,2022-11-03_11h18.03.798,vts_reward_expectancy_bt_OFFLINE,2022.2.4,59.79877998672161,
0,0,1,0,0,0,0,1,hexagon,star,2,0,2,0,3,10,46,8,,,,,,,,,,,,,,,,,,,,,,,,,,,,,,,,,,,,,,,,1616.7028424480231,1616.7028424480231,1616.7028424480231,1616.7028424480231,1616.7028424480231,1616.7028424480231,1616.7028424480231,1616.7028424480231,1616.7028424480231,1616.7028424480231,l,0.27142604999244213,1,782,2,1617.003621638054,1618.503335527028,1618.503335527028,1619.003467075061,,,,,,,,,,,,,,,,,,,,,,,,,,,,,,,,,,,,,,,,,,,,,,,,,,,,,,,,,,,,,,,,,,,,,,,,,,,32627,2022-11-03_11h18.03.798,vts_reward_expectancy_bt_OFFLINE,2022.2.4,59.79877998672161,
1,0,0,0,0,1,0,0,triangle,circle,2,0,2,0,3,11,47,0,,,,,,,,,,,,,,,,,,,,,,,,,,,,,,,,,,,,,,,,1619.003467075061,1619.003467075061,1619.003467075061,1619.003467075061,1619.003467075061,1619.003467075061,1619.003467075061,1619.003467075061,1619.003467075061,1619.003467075061,l,0.2764960950007662,1,783,2,1619.3463717030827,,1620.8560075170826,,,,,,,,,,,,,,,,,,,,,,,,,,,,,,,,,,,,,,,,,,,,,,,,,,,,,,,,,,,,,,,,,,,,,,,,,,,,32627,2022-11-03_11h18.03.798,vts_reward_expectancy_bt_OFFLINE,2022.2.4,59.79877998672161,
,,,,,,,,,,,,,,,,,,0,0,0,0,0,0,0,0,,,,,,,,,,,,,,,,,,,,,,,,,,,,,,,,,,,,,,,,,,,,,,,,,1660.81930354808,,160,B,star,0.0005893099587410688,1654.8089898590697,1656.2987815800589,1656.2987815800589,1656.2987815800589,1659.2997903689975,1659.2997903689975,1659.2997903689975,0,0,None,0,1659.3162828460336,,,,,,,,,,,,,,,,,,,,,,,,,,,,,,,,,,,,,,,,,,,,,,,,,,,,,,,,,,,32627,2022-11-03_11h18.03.798,vts_reward_expectancy_bt_OFFLINE,2022.2.4,59.79877998672161,
,,,,,,,,,,,,,,,,,,0,0,0,0,1,0,1,0,,,,,,,,,,,,,,,,,,,,,,,,,,,,,,,,,,,,,,,,,,,,,,,,,1665.322201083065,,132,D,triangle,0.006398397963494062,1661.8145257689757,1663.3032357019838,1663.3032357019838,1663.3032357019838,,,,0,1,f,0,1663.8204533200478,0.48392656398937106,,,,,,,,,,,,,,,,,,,,,,,,,,,,,,,,,,,,,,,,,,,,,,,,,,,,,,,,,,32627,2022-11-03_11h18.03.798,vts_reward_expectancy_bt_OFFLINE,2022.2.4,59.79877998672161,
,,,,,,,,,,,,,,,,,,0,0,0,0,2,0,2,0,,,,,,,,,,,,,,,,,,,,,,,,,,,,,,,,,,,,,,,,,,,,,,,,,1670.3592916249763,,181,Y,hexagon,0.0019021949265152216,1666.3183976639993,1667.8067766360473,1667.8067766360473,1667.8067766360473,,,,0,1,d,0,1668.8578632259741,1.0200800130842254,,,,,,,,,,,,,,,,,,,,,,,,,,,,,,,,,,,,,,,,,,,,,,,,,,,,,,,,,,32627,2022-11-03_11h18.03.798,vts_reward_expectancy_bt_OFFLINE,2022.2.4,59.79877998672161,
,,,,,,,,,,,,,,,,,,0,0,0,0,3,0,3,0,,,,,,,,,,,,,,,,,,,,,,,,,,,,,,,,,,,,,,,,,,,,,,,,,1677.363422423019,,125,S,circle,0.0010341330198571086,1671.3552704270696,1672.844365025987,1672.844365025987,1672.844365025987,1675.8459729100578,1675.8459729100578,1675.8459729100578,0,1,None,0,1675.8628729430493,,,,,,,,,,,,,,,,,,,,,,,,,,,,,,,,,,,,,,,,,,,,,,,,,,,,,,,,,,,32627,2022-11-03_11h18.03.798,vts_reward_expectancy_bt_OFFLINE,2022.2.4,59.79877998672161,
,,,,,,,,,,,,,,,,,,0,0,0,0,4,0,4,0,,,,,,,,,,,,,,,,,,,,,,,,,,,,,,,,,,,,,,,,,,,,,,,,,1684.368195003015,,167,F,hexagon,0.005497919977642596,1678.359998165979,1679.8482652580133,1679.8482652580133,1679.8482652580133,1682.8514060630696,1682.8514060630696,1682.8514060630696,0,1,None,0,1682.8675939689856,,,,,,,,,,,,,,,,,,,,,,,,,,,,,,,,,,,,,,,,,,,,,,,,,,,,,,,,,,,32627,2022-11-03_11h18.03.798,vts_reward_expectancy_bt_OFFLINE,2022.2.4,59.79877998672161,
,,,,,,,,,,,,,,,,,,0,0,0,0,5,0,5,0,,,,,,,,,,,,,,,,,,,,,,,,,,,,,,,,,,,,,,,,,,,,,,,,,1688.8052679590182,,174,H,circle,0.010545158060267568,1685.365209268988,1686.8546504870756,1686.8546504870756,1686.8546504870756,,,,0,1,d,0,1687.30489369703,0.42282885999884456,1688.8052679590182,,,,,,,,,,,,,,,,,,,,,,,,,,,,,,,,,,,,,,,,,,,,,,,,,,,,,,,,,32627,2022-11-03_11h18.03.798,vts_reward_expectancy_bt_OFFLINE,2022.2.4,59.79877998672161,
,,,,,,,,,,,,,,,,,,0,0,0,0,6,0,6,0,,,,,,,,,,,,,,,,,,,,,,,,,,,,,,,,,,,,,,,,,,,,,,,,,1695.8112560079899,,146,U,triangle,0.000363194034434855,1689.8009107300313,1691.2912573930807,1691.2912573930807,1691.2912573930807,1694.2924745680066,1694.2924745680066,1694.2924745680066,0,1,None,0,1694.3083049940178,,,,,,,,,,,,,,,,,,,,,,,,,,,,,,,,,,,,,,,,,,,,,,,,,,,,,,,,,,,32627,2022-11-03_11h18.03.798,vts_reward_expectancy_bt_OFFLINE,2022.2.4,59.79877998672161,
,,,,,,,,,,,,,,,,,,0,0,0,0,7,0,7,0,,,,,,,,,,,,,,,,,,,,,,,,,,,,,,,,,,,,,,,,,,,,,,,,,1702.8149226329988,,139,W,star,0.006300884997472167,1696.806442553061,1698.2953699610662,1698.2953699610662,1698.2953699610662,1701.2986773670418,1701.2986773670418,1701.2986773670418,0,1,None,0,1701.3143442419823,,,,,,,,,,,,,,,,,,,,,,,,,,,,,,,,,,,,,,,,,,,,,,,,,,,,,,,,,,,32627,2022-11-03_11h18.03.798,vts_reward_expectancy_bt_OFFLINE,2022.2.4,59.79877998672161,
,,,,,,,,,,,,,,,,,,0,0,0,0,8,0,8,0,,,,,,,,,,,,,,,,,,,,,,,,,,,,,,,,,,,,,,,,,,,,,,,,,1709.8192157089943,,160,B,hexagon,0.011488470016047359,1703.8117566830479,1705.2973918130156,1705.2973918130156,1705.2973918130156,1708.3028899460332,1708.3028899460332,1708.3028899460332,0,1,None,0,1708.3187345640035,,,,,,,,,,,,,,,,,,,,,,,,,,,,,,,,,,,,,,,,,,,,,,,,,,,,,,,,,,,32627,2022-11-03_11h18.03.798,vts_reward_expectancy_bt_OFFLINE,2022.2.4,59.79877998672161,
,,,,,,,,,,,,,,,,,,0,0,0,0,9,0,9,0,,,,,,,,,,,,,,,,,,,,,,,,,,,,,,,,,,,,,,,,,,,,,,,,,1716.8091709110886,,132,D,circle,0.01403101603500545,1710.8151431940496,1712.2889693870675,1712.2889693870675,1712.2889693870675,1715.290203446988,1715.290203446988,1715.290203446988,0,1,None,0,1715.3051137920702,,,,,,,,,,,,,,,,,,,,,,,,,,,,,,,,,,,,,,,,,,,,,,,,,,,,,,,,,,,32627,2022-11-03_11h18.03.798,vts_reward_expectancy_bt_OFFLINE,2022.2.4,59.79877998672161,
,,,,,,,,,,,,,,,,,,1,0,1,0,0,0,0,0,,,,,,,,,,,,,,,,,,,,,,,,,,,,,,,,,,,,,,,,,,,,,,,,,1744.8955324999988,,132,U,star,0.003212378011085093,1741.1066461590817,1742.5944097840693,1742.5944097840693,1742.5944097840693,,,,1,1,d,1,1743.3831004330423,0.7667395400349051,,,,,,,,,,,,,,,,,,,,,,,,,,,,,,,,,,,,,,,,,,,,,,,,,,,,,,,,,,32627,2022-11-03_11h18.03.798,vts_reward_expectancy_bt_OFFLINE,2022.2.4,59.79877998672161,
,,,,,,,,,,,,,,,,,,1,0,1,0,1,0,1,0,,,,,,,,,,,,,,,,,,,,,,,,,,,,,,,,,,,,,,,,,,,,,,,,,1750.6175476430217,,125,W,hexagon,0.0017990369815379381,1745.8762408340117,1747.3649006910855,1747.3649006910855,1747.3649006910855,,,,1,0,d,1,1749.116037856089,1.733563058078289,,,,,,,,,,,,,,,,,,,,,,,,,,,,,,,,,,,,,,,,,,,,,,,,,,,,,,,,,,32627,2022-11-03_11h18.03.798,vts_reward_expectancy_bt_OFFLINE,2022.2.4,59.79877998672161,
,,,,,,,,,,,,,,,,,,1,0,1,0,2,0,2,0,,,,,,,,,,,,,,,,,,,,,,,,,,,,,,,,,,,,,,,,,,,,,,,,,1755.356897960999,,167,S,triangle,0.0012347069568932056,1751.6132292990806,1753.1022419410292,1753.1022419410292,1753.1022419410292,,,,1,0,f,1,1753.8527582330862,0.7214286020025611,,,,,,,,,,,,,,,,,,,,,,,,,,,,,,,,,,,,,,,,,,,,,,,,,,,,,,,,,,32627,2022-11-03_11h18.03.798,vts_reward_expectancy_bt_OFFLINE,2022.2.4,59.79877998672161,
,,,,,,,,,,,,,,,,,,1,0,1,0,3,0,3,0,,,,,,,,,,,,,,,,,,,,,,,,,,,,,,,,,,,,,,,,,,,,,,,,,1760.123159761075,,181,F,circle,0.0029197089606896043,1756.3507599229924,1757.838631372084,1757.838631372084,1757.838631372084,,,,1,0,f,1,1758.6228302600794,0.7552795929368585,1760.123159761075,,,,,,,,,,,,,,,,,,,,,,,,,,,,,,,,,,,,,,,,,,,,,,,,,,,,,,,,,32627,2022-11-03_11h18.03.798,vts_reward_expectancy_bt_OFFLINE,2022.2.4,59.79877998672161,
,,,,,,,,,,,,,,,,,,1,0,1,0,4,0,4,0,,,,,,,,,,,,,,,,,,,,,,,,,,,,,,,,,,,,,,,,,,,,,,,,,1764.6597385340137,1765.1596946250647,146,D,star,0.0021639090264216065,1761.1205984089756,1762.609072440071,1762.609072440071,1762.609072440071,,,,1,0,d,1,1763.1599367680028,0.5185837139142677,1764.6597385340137,,,,,,,,,,,,,,,,,,,,,,,,,,,,,,,,,,,,,,,,,,,,,,,,,,,,,,,,,32627,2022-11-03_11h18.03.798,vts_reward_expectancy_bt_OFFLINE,2022.2.4,59.79877998672161,
,,,,,,,,,,,,,,,,,,1,0,1,0,5,0,5,0,,,,,,,,,,,,,,,,,,,,,,,,,,,,,,,,,,,,,,,,,,,,,,,,,1769.2466224980308,,174,B,triangle,0.0005722800269722939,1765.6566518549807,1767.1462671960471,1767.1462671960471,1767.1462671960471,,,,1,0,f,1,1767.747060387046,0.5714561779750511,1769.2466224980308,,,,,,,,,,,,,,,,,,,,,,,,,,,,,,,,,,,,,,,,,,,,,,,,,,,,,,,,,32627,2022-11-03_11h18.03.798,vts_reward_expectancy_bt_OFFLINE,2022.2.4,59.79877998672161,
,,,,,,,,,,,,,,,,,,1,0,1,0,6,0,6,0,,,,,,,,,,,,,,,,,,,,,,,,,,,,,,,,,,,,,,,,,,,,,,,,,1774.6999864770332,1775.2001044170465,160,H,circle,0.0003824318991973996,1770.242510217009,1771.7326617370127,1771.7326617370127,1771.7326617370127,,,,1,0,f,1,1773.2000585159985,1.4415725209983066,1774.6999864770332,,,,,,,,,,,,,,,,,,,,,,,,,,,,,,,,,,,,,,,,,,,,,,,,,,,,,,,,,32627,2022-11-03_11h18.03.798,vts_reward_expectancy_bt_OFFLINE,2022.2.4,59.79877998672161,
,,,,,,,,,,,,,,,,,,1,0,1,0,7,0,7,0,,,,,,,,,,,,,,,,,,,,,,,,,,,,,,,,,,,,,,,,,,,,,,,,,1779.8037155880593,1780.3036148530664,139,Y,hexagon,0.0004896000027656555,1775.6972421830287,1777.1869452979881,1777.1869452979881,1777.1869452979881,,,,1,0,d,1,1778.3030136050656,1.0835997150279582,1779.8037155880593,,,,,,,,,,,,,,,,,,,,,,,,,,,,,,,,,,,,,,,,,,,,,,,,,,,,,,,,,32627,2022-11-03_11h18.03.798,vts_reward_expectancy_bt_OFFLINE,2022.2.4,59.79877998672161,
,,,,,,,,,,,,,,,,,,1,0,1,0,8,0,8,0,,,,,,,,,,,,,,,,,,,,,,,,,,,,,,,,,,,,,,,,,,,,,,,,,1784.7745013990207,1785.2742300670361,132,U,triangle,-6.474705878645182e-05,1780.8004181230208,1782.29062066006,1782.29062066006,1782.29062066006,,,,1,0,d,1,1783.2739139760379,0.9526393238920718,1784.7745013990207,,,,,,,,,,,,,,,,,,,,,,,,,,,,,,,,,,,,,,,,,,,,,,,,,,,,,,,,,32627,2022-11-03_11h18.03.798,vts_reward_expectancy_bt_OFFLINE,2022.2.4,59.79877998672161,
,,,,,,,,,,,,,,,,,,1,0,1,0,9,0,9,0,,,,,,,,,,,,,,,,,,,,,,,,,,,,,,,,,,,,,,,,,,,,,,,,,1789.427485870081,1789.9346025299747,125,W,circle,0.00038168008904904127,1785.7707412759773,1787.260595425032,1787.260595425032,1787.260595425032,,,,1,0,d,1,1787.9282124810852,0.6412247469415888,1789.427485870081,,,,,,,,,,,,,,,,,,,,,,,,,,,,,,,,,,,,,,,,,,,,,,,,,,,,,,,,,32627,2022-11-03_11h18.03.798,vts_reward_expectancy_bt_OFFLINE,2022.2.4,59.79877998672161,
,,,,,,,,,,,,,,,,,,,,,,,,,,0,0,0,0,0,0,0,0,,,,,,,,,,,,,,,,,,,,,,,,,,,,,,,,,,,,,,,,,1817.1154805560363,,174,S,circle,0.0032140769762918353,,,,,,,,0,0,,2,1815.6147476530168,,,1811.1072609840194,1812.5953585930401,1812.5953585930401,1812.5953585930401,1815.5982045070268,1815.5982045070268,1815.5982045070268,None,,,,,,,,,,,,,,,,,,,,,,,,,,,,,,,,,,,,,,,,,,,,,,,,,32627,2022-11-03_11h18.03.798,vts_reward_expectancy_bt_OFFLINE,2022.2.4,59.79877998672161,
,,,,,,,,,,,,,,,,,,,,,,,,,,0,0,0,0,1,0,1,0,,,,,,,,,,,,,,,,,,,,,,,,,,,,,,,,,,,,,,,,,1824.119335948024,,167,U,star,0.006554188905283809,,,,,,,,0,1,,2,1822.6189877340803,,,1818.1107029970735,1819.599906360032,1819.599906360032,1819.599906360032,1822.6022396819899,1822.6022396819899,1822.6022396819899,None,,,,,,,,,,,,,,,,,,,,,,,,,,,,,,,,,,,,,,,,,,,,,,,,,32627,2022-11-03_11h18.03.798,vts_reward_expectancy_bt_OFFLINE,2022.2.4,59.79877998672161,
,,,,,,,,,,,,,,,,,,,,,,,,,,0,0,0,0,2,0,2,0,,,,,,,,,,,,,,,,,,,,,,,,,,,,,,,,,,,,,,,,,1831.1088547219988,,139,F,triangle,0.0109220469603315,,,,,,,,0,1,,2,1829.6236197670223,,,1825.1158966770163,1826.6062589020003,1826.6062589020003,1826.6062589020003,1829.6073266100138,1829.6073266100138,1829.6073266100138,None,,,,,,,,,,,,,,,,,,,,,,,,,,,,,,,,,,,,,,,,,,,,,,,,,32627,2022-11-03_11h18.03.798,vts_reward_expectancy_bt_OFFLINE,2022.2.4,59.79877998672161,
,,,,,,,,,,,,,,,,,,,,,,,,,,0,0,0,0,3,0,3,0,,,,,,,,,,,,,,,,,,,,,,,,,,,,,,,,,,,,,,,,,1838.1139915990643,,160,Y,hexagon,0.001097783911973238,,,,,,,,0,1,,2,1836.6135085490532,,,1832.105067307013,1833.5939654670656,1833.5939654670656,1833.5939654670656,1836.5958908470348,1836.5958908470348,1836.5958908470348,None,,,,,,,,,,,,,,,,,,,,,,,,,,,,,,,,,,,,,,,,,,,,,,,,,32627,2022-11-03_11h18.03.798,vts_reward_expectancy_bt_OFFLINE,2022.2.4,59.79877998672161,
,,,,,,,,,,,,,,,,,,,,,,,,,,0,0,0,0,4,0,4,0,,,,,,,,,,,,,,,,,,,,,,,,,,,,,,,,,,,,,,,,,1842.933782982058,,146,H,triangle,0.0045948869083076715,,,,,,,,2,1,,2,1841.4208060189849,,,1839.108950061025,1840.6000454879832,1840.6000454879832,1840.6000454879832,,,,d,0.7968366250861436,,,,,,,,,,,,,,,,,,,,,,,,,,,,,,,,,,,,,,,,,,,,,,,,32627,2022-11-03_11h18.03.798,vts_reward_expectancy_bt_OFFLINE,2022.2.4,59.79877998672161,
,,,,,,,,,,,,,,,,,,,,,,,,,,0,0,0,0,5,0,5,0,,,,,,,,,,,,,,,,,,,,,,,,,,,,,,,,,,,,,,,,,1849.921860145987,,132,W,star,0.01587188697885722,,,,,,,,0,0,,2,1848.4212596149882,,,1843.929973787046,1845.399612801033,1845.399612801033,1845.399612801033,1848.4043217810104,1848.4043217810104,1848.4043217810104,None,,,,,,,,,,,,,,,,,,,,,,,,,,,,,,,,,,,,,,,,,,,,,,,,,32627,2022-11-03_11h18.03.798,vts_reward_expectancy_bt_OFFLINE,2022.2.4,59.79877998672161,
,,,,,,,,,,,,,,,,,,,,,,,,,,0,0,0,0,6,0,6,0,,,,,,,,,,,,,,,,,,,,,,,,,,,,,,,,,,,,,,,,,1856.927472012001,,181,B,hexagon,0.0017433110624551773,,,,,,,,0,1,,2,1855.4175856310176,,,1850.9282072950155,1852.4072292260826,1852.4072292260826,1852.4072292260826,1855.406106304028,1855.406106304028,1855.406106304028,None,,,,,,,,,,,,,,,,,,,,,,,,,,,,,,,,,,,,,,,,,,,,,,,,,32627,2022-11-03_11h18.03.798,vts_reward_expectancy_bt_OFFLINE,2022.2.4,59.79877998672161,
,,,,,,,,,,,,,,,,,,,,,,,,,,0,0,0,0,7,0,7,0,,,,,,,,,,,,,,,,,,,,,,,,,,,,,,,,,,,,,,,,,1863.9325352150481,,125,D,circle,0.010788619052618742,,,,,,,,0,1,,2,1862.4322592320386,,,1857.9234985670773,1859.4124205739936,1859.4124205739936,1859.4124205739936,1862.4143498900812,1862.4143498900812,1862.4143498900812,None,,,,,,,,,,,,,,,,,,,,,,,,,,,,,,,,,,,,,,,,,,,,,,,,,32627,2022-11-03_11h18.03.798,vts_reward_expectancy_bt_OFFLINE,2022.2.4,59.79877998672161,
,,,,,,,,,,,,,,,,,,,,,,,,,,0,0,0,0,8,0,8,0,,,,,,,,,,,,,,,,,,,,,,,,,,,,,,,,,,,,,,,,,1870.921209193999,,174,S,triangle,0.014170786016620696,,,,,,,,0,1,,2,1869.4198279340053,,,1864.927521503996,1866.4010528080398,1866.4010528080398,1866.4010528080398,1869.4024413470179,1869.4024413470179,1869.4024413470179,None,,,,,,,,,,,,,,,,,,,,,,,,,,,,,,,,,,,,,,,,,,,,,,,,,32627,2022-11-03_11h18.03.798,vts_reward_expectancy_bt_OFFLINE,2022.2.4,59.79877998672161,
,,,,,,,,,,,,,,,,,,,,,,,,,,0,0,0,0,9,0,9,0,,,,,,,,,,,,,,,,,,,,,,,,,,,,,,,,,,,,,,,,,1877.9266939080553,,167,U,star,0.004076351062394679,,,,,,,,0,1,,2,1876.4258677270263,,,1871.9173181920778,1873.4060796729755,1873.4060796729755,1873.4060796729755,1876.4088164709974,1876.4088164709974,1876.4088164709974,None,,,,,,,,,,,,,,,,,,,,,,,,,,,,,,,,,,,,,,,,,,,,,,,,,32627,2022-11-03_11h18.03.798,vts_reward_expectancy_bt_OFFLINE,2022.2.4,59.79877998672161,
,,,,,,,,,,,,,,,,,,,,,,,,,,1,0,1,0,0,0,0,0,,,,,,,,,,,,,,,,,,,,,,,,,,,,,,,,,,,,,,,,,1899.9250004630303,,125,H,hexagon,0.0007339230505749583,,,,,,,,1,1,,3,1898.4098134289961,,,1895.8342008769978,1897.3241541420575,1897.3241541420575,1897.3241541420575,,,,j,1.0563038730761036,,,,,,,,,,,,,,,,,,,,,,,,,,,,,,,,,,,,,,,,,,,,,,,,32627,2022-11-03_11h18.03.798,vts_reward_expectancy_bt_OFFLINE,2022.2.4,59.79877998672161,
,,,,,,,,,,,,,,,,,,,,,,,,,,1,0,1,0,1,0,1,0,,,,,,,,,,,,,,,,,,,,,,,,,,,,,,,,,,,,,,,,,1904.7447693550494,1905.2449408990797,167,W,triangle,0.01708478294312954,,,,,,,,1,0,,3,1903.245321019087,,1904.7447693550494,1900.920568851987,1902.3938739650184,1902.3938739650184,1902.3938739650184,,,,k,0.8234532020287588,,,,,,,,,,,,,,,,,,,,,,,,,,,,,,,,,,,,,,,,,,,,,,,,32627,2022-11-03_11h18.03.798,vts_reward_expectancy_bt_OFFLINE,2022.2.4,59.79877998672161,
,,,,,,,,,,,,,,,,,,,,,,,,,,1,0,1,0,2,0,2,0,,,,,,,,,,,,,,,,,,,,,,,,,,,,,,,,,,,,,,,,,1909.4479504110059,1909.9481079319958,132,Y,star,-8.354394230991602e-05,,,,,,,,1,0,,3,1907.9489217880182,,1909.4479504110059,1905.741449585068,1907.2312552990625,1907.2312552990625,1907.2312552990625,,,,k,0.6888811020180583,,,,,,,,,,,,,,,,,,,,,,,,,,,,,,,,,,,,,,,,,,,,,,,,32627,2022-11-03_11h18.03.798,vts_reward_expectancy_bt_OFFLINE,2022.2.4,59.79877998672161,
,,,,,,,,,,,,,,,,,,,,,,,,,,1,0,1,0,3,0,3,0,,,,,,,,,,,,,,,,,,,,,,,,,,,,,,,,,,,,,,,,,1914.2183184640016,1914.7184930520598,139,S,circle,0.00029996002558618784,,,,,,,,1,0,,3,1912.7185106480028,,1914.2183184640016,1910.4451442660065,1911.934871444013,1911.934871444013,1911.934871444013,,,,k,0.7553253239020705,,,,,,,,,,,,,,,,,,,,,,,,,,,,,,,,,,,,,,,,,,,,,,,,32627,2022-11-03_11h18.03.798,vts_reward_expectancy_bt_OFFLINE,2022.2.4,59.79877998672161,
,,,,,,,,,,,,,,,,,,,,,,,,,,1,0,1,0,4,0,4,0,,,,,,,,,,,,,,,,,,,,,,,,,,,,,,,,,,,,,,,,,1918.8051291190786,1919.3052302909782,146,D,triangle,0.0003625050885602832,,,,,,,,1,0,,3,1917.3054520750884,,1918.8051291190786,1915.2146293349797,1916.7044279150432,1916.7044279150432,1916.7044279150432,,,,j,0.5763018219731748,,,,,,,,,,,,,,,,,,,,,,,,,,,,,,,,,,,,,,,,,,,,,,,,32627,2022-11-03_11h18.03.798,vts_reward_expectancy_bt_OFFLINE,2022.2.4,59.79877998672161,
,,,,,,,,,,,,,,,,,,,,,,,,,,1,0,1,0,5,0,5,0,,,,,,,,,,,,,,,,,,,,,,,,,,,,,,,,,,,,,,,,,1925.8112662570784,,160,U,hexagon,0.0001758179860189557,,,,,,,,0,0,,3,1924.3096050230088,,,1919.8018477000296,1921.291464222013,1921.291464222013,1921.291464222013,1924.2924639129778,1924.2924639129778,1924.2924639129778,None,,,,,,,,,,,,,,,,,,,,,,,,,,,,,,,,,,,,,,,,,,,,,,,,,32627,2022-11-03_11h18.03.798,vts_reward_expectancy_bt_OFFLINE,2022.2.4,59.79877998672161,
,,,,,,,,,,,,,,,,,,,,,,,,,,1,0,1,0,6,0,6,0,,,,,,,,,,,,,,,,,,,,,,,,,,,,,,,,,,,,,,,,,1930.5312912249938,,174,B,star,0.006389533053152263,,,,,,,,1,1,,3,1929.0320379990153,,,1926.807247213088,1928.2963155470788,1928.2963155470788,1928.2963155470788,,,,j,0.7072436009766534,,,,,,,,,,,,,,,,,,,,,,,,,,,,,,,,,,,,,,,,,,,,,,,,32627,2022-11-03_11h18.03.798,vts_reward_expectancy_bt_OFFLINE,2022.2.4,59.79877998672161,
,,,,,,,,,,,,,,,,,,,,,,,,,,1,0,1,0,7,0,7,0,,,,,,,,,,,,,,,,,,,,,,,,,,,,,,,,,,,,,,,,,1935.3167329640128,,181,F,circle,0.0026656349655240774,,,,,,,,1,0,,3,1933.8172827870585,,,1931.5276185080875,1933.0159963240148,1933.0159963240148,1933.0159963240148,,,,j,0.7808537470409647,,,,,,,,,,,,,,,,,,,,,,,,,,,,,,,,,,,,,,,,,,,,,,,,32627,2022-11-03_11h18.03.798,vts_reward_expectancy_bt_OFFLINE,2022.2.4,59.79877998672161,
,,,,,,,,,,,,,,,,,,,,,,,,,,1,0,1,0,8,0,8,0,,,,,,,,,,,,,,,,,,,,,,,,,,,,,,,,,,,,,,,,,1940.1208548500435,,125,H,triangle,0.0017855699406936765,,,,,,,,1,0,,3,1938.6207358679967,,1940.1208548500435,1936.3138355669798,1937.802862896002,1937.802862896002,1937.802862896002,,,,j,0.7865699419053271,,,,,,,,,,,,,,,,,,,,,,,,,,,,,,,,,,,,,,,,,,,,,,,,32627,2022-11-03_11h18.03.798,vts_reward_expectancy_bt_OFFLINE,2022.2.4,59.79877998672161,
,,,,,,,,,,,,,,,,,,,,,,,,,,1,0,1,0,9,0,9,0,,,,,,,,,,,,,,,,,,,,,,,,,,,,,,,,,,,,,,,,,1945.2238835780881,,167,W,star,0.00239498692099005,,,,,,,,1,0,,3,1943.7248248570831,,1945.2238835780881,1941.1174137829803,1942.6071289690444,1942.6071289690444,1942.6071289690444,,,,k,1.089172804960981,,,,,,,,,,,,,,,,,,,,,,,,,,,,,,,,,,,,,,,,,,,,,,,,32627,2022-11-03_11h18.03.798,vts_reward_expectancy_bt_OFFLINE,2022.2.4,59.79877998672161,
,,,,,,,,,,,,,,,,,,,,,,,,,,,,,,,,,,0,0,0,0,0,0,0,0,,,,,,,,,,,,,,,,,,,,,,,,,,,,0,783,,,,2038.3422354990616,,125,W,star,0.0020584750454872847,,,,,,,,-1,0,,4,,,,,,,,,,,,,2032.334789419081,2032.334789419081,2032.334789419081,2032.334789419081,2033.8220549409743,2033.8220549409743,2033.8220549409743,2033.8220549409743,2033.8393990950426,2033.8393990950426,2033.8393990950426,2033.8393990950426,2036.8282161169918,2036.8282161169918,2036.8282161169918,2036.8282161169918,-1,no_choice,NA,None,vtsPrac,2036.8282161169918,,,,,,,,,,,,,,,,,,,,,,,,,,32627,2022-11-03_11h18.03.798,vts_reward_expectancy_bt_OFFLINE,2022.2.4,59.79877998672161,
,,,,,,,,,,,,,,,,,,,,,,,,,,,,,,,,,,0,0,0,0,1,0,1,0,,,,,,,,,,,,,,,,,,,,,,,,,,,,0,783,,,,2044.0124876860064,,181,F,circle,0.006078614038415253,,,,,,,,1,0,,4,,,,,,,,,,,,,2039.3392367950873,2039.3392367950873,2039.3392367950873,2039.3392367950873,2040.828379505081,2040.828379505081,2040.828379505081,2040.828379505081,2040.845620164997,2040.845620164997,2040.845620164997,2040.845620164997,,,,,switch,number,numSwt,f,vtsPrac,2042.4998454140732,1.6357150640105829,,,,,,,,,,,,,,,,,,,,,,,,,32627,2022-11-03_11h18.03.798,vts_reward_expectancy_bt_OFFLINE,2022.2.4,59.79877998672161,
,,,,,,,,,,,,,,,,,,,,,,,,,,,,,,,,,,0,0,0,0,2,0,2,0,,,,,,,,,,,,,,,,,,,,,,,,,,,,0,783,,,,2048.9003724739887,2049.400497694034,174,Y,circle,0.017308476963080466,,,,,,,,1,0,,4,,,,,,,,,,,,,2045.0101813790388,2045.0101813790388,2045.0101813790388,2045.0101813790388,2046.4821224539774,2046.4821224539774,2046.4821224539774,2046.4821224539774,2046.5158649110235,2046.5158649110235,2046.5158649110235,2046.5158649110235,,,,,repeat,number,numRpt,f,vtsPrac,2047.4006252960535,0.8861425349023193,2048.9003724739887,,,,,,,,,,,,,,,,,,,,,,,,32627,2022-11-03_11h18.03.798,vts_reward_expectancy_bt_OFFLINE,2022.2.4,59.79877998672161,
,,,,,,,,,,,,,,,,,,,,,,,,,,,,,,,,,,0,0,0,0,3,0,3,0,,,,,,,,,,,,,,,,,,,,,,,,,,,,0,783,,,,2053.836597484071,,132,U,triangle,0.0007414770079776645,,,,,,,,0,0,,4,,,,,,,,,,,,,2049.896529194084,2049.896529194084,2049.896529194084,2049.896529194084,2051.3861262160353,2051.3861262160353,2051.3861262160353,2051.3861262160353,2051.4022588420194,2051.4022588420194,2051.4022588420194,2051.4022588420194,,,,,repeat,number,NA,f,vtsPrac,2052.326449754066,0.9106000919127837,,,,,,,,,,,,,,,,,,,,,,,,,32627,2022-11-03_11h18.03.798,vts_reward_expectancy_bt_OFFLINE,2022.2.4,59.79877998672161,
,,,,,,,,,,,,,,,,,,,,,,,,,,,,,,,,,,0,0,0,0,4,0,4,0,,,,,,,,,,,,,,,,,,,,,,,,,,,,0,783,,,,2058.7231731109787,,125,W,triangle,0.01730891491752118,,,,,,,,1,1,,4,,,,,,,,,,,,,2054.8336344050476,2054.8336344050476,2054.8336344050476,2054.8336344050476,2056.306015808019,2056.306015808019,2056.306015808019,2056.306015808019,2056.339416439063,2056.339416439063,2056.339416439063,2056.339416439063,,,,,switch,letter,lettSwt,k,vtsPrac,2057.2104478069814,0.872694849036634,,,,,,,,,,,,,,,,,,,,,,,,,32627,2022-11-03_11h18.03.798,vts_reward_expectancy_bt_OFFLINE,2022.2.4,59.79877998672161,
,,,,,,,,,,,,,,,,,,,,,,,,,,,,,,,,,,0,0,0,0,5,0,5,0,,,,,,,,,,,,,,,,,,,,,,,,,,,,0,783,,,,2063.876865518978,2064.3772921840427,181,F,circle,0.017119282041676342,,,,,,,,1,0,,4,,,,,,,,,,,,,2059.7207006469835,2059.7207006469835,2059.7207006469835,2059.7207006469835,2061.1928715440445,2061.1928715440445,2061.1928715440445,2061.1928715440445,2061.226054233033,2061.226054233033,2061.226054233033,2061.226054233033,,,,,repeat,letter,lettRpt,j,vtsPrac,2062.3782012520824,1.1613588010659441,2063.876865518978,,,,,,,,,,,,,,,,,,,,,,,,32627,2022-11-03_11h18.03.798,vts_reward_expectancy_bt_OFFLINE,2022.2.4,59.79877998672161,
