LTriangleOpac,LCircleOpac,LHexagonOpac,LStarOpac,RTriangleOpac,RCircleOpac,RHexagonOpac,RStarOpac,LShape_ID,RShape_ID,training_blocks.thisRepN,training_blocks.thisTrialN,training_blocks.thisN,training_blocks.thisIndex,training.thisRepN,training.thisTrialN,training.thisN,training.thisIndex,task1_prac_redo.thisRepN,task1_prac_redo.thisTrialN,task1_prac_redo.thisN,task1_prac_redo.thisIndex,task1_prac_trials.thisRepN,task1_prac_trials.thisTrialN,task1_prac_trials.thisN,task1_prac_trials.thisIndex,task2_prac_redo.thisRepN,task2_prac_redo.thisTrialN,task2_prac_redo.thisN,task2_prac_redo.thisIndex,task2_praac_trials.thisRepN,task2_praac_trials.thisTrialN,task2_praac_trials.thisN,task2_praac_trials.thisIndex,vts_prac_redo.thisRepN,vts_prac_redo.thisTrialN,vts_prac_redo.thisN,vts_prac_redo.thisIndex,vts_practice_trials.thisRepN,vts_practice_trials.thisTrialN,vts_practice_trials.thisN,vts_practice_trials.thisIndex,trials_norew.thisRepN,trials_norew.thisTrialN,trials_norew.thisN,trials_norew.thisIndex,block.thisRepN,block.thisTrialN,block.thisN,block.thisIndex,trials_rew.thisRepN,trials_rew.thisTrialN,trials_rew.thisN,trials_rew.thisIndex,key_resp.started,key_resp.keys,key_resp.rt,left_circle.started,right_circle.started,left_triangle.started,right_triangle.started,left_star.started,right_star.started,left_hexagon.started,right_hexagon.started,training_fix.started,training_resp.started,training_resp.keys,training_resp.rt,points_trial,points_cumul,trainBlock,training_feedback_txt.started,fix.started,training_feedback_txt.stopped,fix.stopped,curr_topStim,curr_bottStim,curr_shape,ISI.started,tgt_fix_prac1.started,top_target_prac1.started,bott_target_prac1.started,target_resp_prac1.started,acc,E1,target_resp_prac1.keys,target_resp_prac1.rt,pracBlock,prac_fback_text.started,prac_fback_text.stopped,tgt_fix_prac2.started,top_target_prac2.started,bott_target_prac2.started,target_resp_prac2.started,target_resp_prac2.keys,target_resp_prac2.rt,star.started,hegagon.started,triangle.started,circle.started,top_target.started,tgt_fix.started,bot_target.started,target_resp.started,star.stopped,hegagon.stopped,triangle.stopped,circle.stopped,alt,task,condition,target_resp.keys,target_resp.rt,rewCond,vts_fback.started,vts_fback.stopped,blockNum,norew_fback.started,norew_fback.stopped,top_target.stopped,tgt_fix.stopped,bot_target.stopped,target_resp.stopped,key_resp_2.keys,key_resp_2.rt,rewExpectancy,feedbk_text.started,feedbk_text.stopped,text_3.started,text_3.stopped,button.started,debrief.index,debrief.itemText,debrief.type,debrief.granularity,debrief.font,debrief.markerColor,debrief.response,debrief.rt,button.numClicks,button.timesOn,button.timesOff,participant,date,expName,psychopyVersion,frameRate,
,,,,,,,,,,,,,,,,,,,,,,,,,,,,,,,,,,,,,,,,,,,,,,,,,,,,,,16.560883305006428,space,15.148422115016729,,,,,,,,,,,,,,,,,,,,,,,,,,,,,,,,,,,,,,,,,,,,,,,,,,,,,,,,,,,,,,,,,,,,,,,,,,,,,,,,,,,,,,,33061,2022-10-28_09h07.49.385,vts_reward_expectancy_bt_OFFLINE,2022.2.4,59.88539827420625,
0,0,0,1,0,1,0,0,star ,circle,0,0,0,0,0,0,0,10,,,,,,,,,,,,,,,,,,,,,,,,,,,,,,,,,,,,,,,,64.77793054000358,64.77793054000358,64.77793054000358,64.77793054000358,64.77793054000358,64.77793054000358,64.77793054000358,64.77793054000358,64.77793054000358,64.77793054000358,a,6.49153566500172,0,0,0,71.30193923698971,72.80361107000499,,,,,,,,,,,,,,,,,,,,,,,,,,,,,,,,,,,,,,,,,,,,,,,,,,,,,,,,,,,,,,,,,,,,,,33061,2022-10-28_09h07.49.385,vts_reward_expectancy_bt_OFFLINE,2022.2.4,59.88539827420625,
0,0,0,1,0,0,1,0,star,hexagon,0,0,0,0,0,1,1,11,,,,,,,,,,,,,,,,,,,,,,,,,,,,,,,,,,,,,,,,73.30410887199105,73.30410887199105,73.30410887199105,73.30410887199105,73.30410887199105,73.30410887199105,73.30410887199105,73.30410887199105,73.30410887199105,73.30410887199105,l,6.10801811501733,1,1,0,79.44434505898971,80.94577532698167,,,,,,,,,,,,,,,,,,,,,,,,,,,,,,,,,,,,,,,,,,,,,,,,,,,,,,,,,,,,,,,,,,,,,,33061,2022-10-28_09h07.49.385,vts_reward_expectancy_bt_OFFLINE,2022.2.4,59.88539827420625,
0,1,0,0,0,0,0,1,circle,star,0,0,0,0,0,2,2,5,,,,,,,,,,,,,,,,,,,,,,,,,,,,,,,,,,,,,,,,81.44633727899054,81.44633727899054,81.44633727899054,81.44633727899054,81.44633727899054,81.44633727899054,81.44633727899054,81.44633727899054,81.44633727899054,81.44633727899054,a,5.61406242402154,1,2,0,87.0857092019869,88.58752425899729,,,,,,,,,,,,,,,,,,,,,,,,,,,,,,,,,,,,,,,,,,,,,,,,,,,,,,,,,,,,,,,,,,,,,,33061,2022-10-28_09h07.49.385,vts_reward_expectancy_bt_OFFLINE,2022.2.4,59.88539827420625,
0,0,1,0,0,0,0,1,hexagon,star,0,0,0,0,0,3,3,8,,,,,,,,,,,,,,,,,,,,,,,,,,,,,,,,,,,,,,,,89.08816424899851,89.08816424899851,89.08816424899851,89.08816424899851,89.08816424899851,89.08816424899851,89.08816424899851,89.08816424899851,89.08816424899851,89.08816424899851,a,3.4853197170014028,1,3,0,92.59195628200541,94.0937672839791,,,,,,,,,,,,,,,,,,,,,,,,,,,,,,,,,,,,,,,,,,,,,,,,,,,,,,,,,,,,,,,,,,,,,,33061,2022-10-28_09h07.49.385,vts_reward_expectancy_bt_OFFLINE,2022.2.4,59.88539827420625,
1,0,0,0,0,1,0,0,triangle,circle,0,0,0,0,0,4,4,0,,,,,,,,,,,,,,,,,,,,,,,,,,,,,,,,,,,,,,,,94.59424810198834,94.59424810198834,94.59424810198834,94.59424810198834,94.59424810198834,94.59424810198834,94.59424810198834,94.59424810198834,94.59424810198834,94.59424810198834,l,1.5057150979992002,1,4,0,96.1291362119955,97.6309281970025,,,,,,,,,,,,,,,,,,,,,,,,,,,,,,,,,,,,,,,,,,,,,,,,,,,,,,,,,,,,,,,,,,,,,,33061,2022-10-28_09h07.49.385,vts_reward_expectancy_bt_OFFLINE,2022.2.4,59.88539827420625,
0,0,1,0,0,1,0,0,hexagon,circle,0,0,0,0,0,5,5,7,,,,,,,,,,,,,,,,,,,,,,,,,,,,,,,,,,,,,,,,98.13140820199624,98.13140820199624,98.13140820199624,98.13140820199624,98.13140820199624,98.13140820199624,98.13140820199624,98.13140820199624,98.13140820199624,98.13140820199624,l,7.216952068993123,1,5,0,105.37270590299158,106.87472369900206,,,,,,,,,,,,,,,,,,,,,,,,,,,,,,,,,,,,,,,,,,,,,,,,,,,,,,,,,,,,,,,,,,,,,,33061,2022-10-28_09h07.49.385,vts_reward_expectancy_bt_OFFLINE,2022.2.4,59.88539827420625,
1,0,0,0,0,0,1,0,triangle,hexagon,0,0,0,0,0,6,6,1,,,,,,,,,,,,,,,,,,,,,,,,,,,,,,,,,,,,,,,,107.37510311699589,107.37510311699589,107.37510311699589,107.37510311699589,107.37510311699589,107.37510311699589,107.37510311699589,107.37510311699589,107.37510311699589,107.37510311699589,l,4.686121689999709,1,6,0,112.08040771898231,113.58196102298098,,,,,,,,,,,,,,,,,,,,,,,,,,,,,,,,,,,,,,,,,,,,,,,,,,,,,,,,,,,,,,,,,,,,,,33061,2022-10-28_09h07.49.385,vts_reward_expectancy_bt_OFFLINE,2022.2.4,59.88539827420625,
0,1,0,0,0,0,1,0,circle,hexagon,0,0,0,0,0,7,7,4,,,,,,,,,,,,,,,,,,,,,,,,,,,,,,,,,,,,,,,,114.08237427799031,114.08237427799031,114.08237427799031,114.08237427799031,114.08237427799031,114.08237427799031,114.08237427799031,114.08237427799031,114.08237427799031,114.08237427799031,l,4.395777149999049,1,7,0,118.50389296299545,120.0057711089903,,,,,,,,,,,,,,,,,,,,,,,,,,,,,,,,,,,,,,,,,,,,,,,,,,,,,,,,,,,,,,,,,,,,,,33061,2022-10-28_09h07.49.385,vts_reward_expectancy_bt_OFFLINE,2022.2.4,59.88539827420625,
0,0,0,1,1,0,0,0,star,triangle,0,0,0,0,0,8,8,9,,,,,,,,,,,,,,,,,,,,,,,,,,,,,,,,,,,,,,,,120.50630150298821,120.50630150298821,120.50630150298821,120.50630150298821,120.50630150298821,120.50630150298821,120.50630150298821,120.50630150298821,120.50630150298821,120.50630150298821,a,10.162256530980812,10,17,0,130.70062370199594,132.20260051998775,,,,,,,,,,,,,,,,,,,,,,,,,,,,,,,,,,,,,,,,,,,,,,,,,,,,,,,,,,,,,,,,,,,,,,33061,2022-10-28_09h07.49.385,vts_reward_expectancy_bt_OFFLINE,2022.2.4,59.88539827420625,
0,0,1,0,1,0,0,0,hexagon,triangle,0,0,0,0,0,9,9,6,,,,,,,,,,,,,,,,,,,,,,,,,,,,,,,,,,,,,,,,132.70288043798064,132.70288043798064,132.70288043798064,132.70288043798064,132.70288043798064,132.70288043798064,132.70288043798064,132.70288043798064,132.70288043798064,132.70288043798064,l,3.7186943650012836,10,27,0,136.44057212700136,137.94206155199208,,,,,,,,,,,,,,,,,,,,,,,,,,,,,,,,,,,,,,,,,,,,,,,,,,,,,,,,,,,,,,,,,,,,,,33061,2022-10-28_09h07.49.385,vts_reward_expectancy_bt_OFFLINE,2022.2.4,59.88539827420625,
0,1,0,0,1,0,0,0,circle,triangle,0,0,0,0,0,10,10,3,,,,,,,,,,,,,,,,,,,,,,,,,,,,,,,,,,,,,,,,138.442757109995,138.442757109995,138.442757109995,138.442757109995,138.442757109995,138.442757109995,138.442757109995,138.442757109995,138.442757109995,138.442757109995,a,4.579812162992312,1,28,0,143.04781093698693,144.54959230299573,,,,,,,,,,,,,,,,,,,,,,,,,,,,,,,,,,,,,,,,,,,,,,,,,,,,,,,,,,,,,,,,,,,,,,33061,2022-10-28_09h07.49.385,vts_reward_expectancy_bt_OFFLINE,2022.2.4,59.88539827420625,
1,0,0,0,0,0,0,1,triangle,star,0,0,0,0,0,11,11,2,,,,,,,,,,,,,,,,,,,,,,,,,,,,,,,,,,,,,,,,145.04976177800563,145.04976177800563,145.04976177800563,145.04976177800563,145.04976177800563,145.04976177800563,145.04976177800563,145.04976177800563,145.04976177800563,145.04976177800563,l,5.941059344011592,10,38,0,151.02308810999966,152.52474009699654,,,,,,,,,,,,,,,,,,,,,,,,,,,,,,,,,,,,,,,,,,,,,,,,,,,,,,,,,,,,,,,,,,,,,,33061,2022-10-28_09h07.49.385,vts_reward_expectancy_bt_OFFLINE,2022.2.4,59.88539827420625,
1,0,0,0,0,1,0,0,triangle,circle,0,0,0,0,1,0,12,0,,,,,,,,,,,,,,,,,,,,,,,,,,,,,,,,,,,,,,,,153.02536716900067,153.02536716900067,153.02536716900067,153.02536716900067,153.02536716900067,153.02536716900067,153.02536716900067,153.02536716900067,153.02536716900067,153.02536716900067,a,1.4594696590211242,10,48,0,154.51038048198097,156.01211884900113,,,,,,,,,,,,,,,,,,,,,,,,,,,,,,,,,,,,,,,,,,,,,,,,,,,,,,,,,,,,,,,,,,,,,,33061,2022-10-28_09h07.49.385,vts_reward_expectancy_bt_OFFLINE,2022.2.4,59.88539827420625,
1,0,0,0,0,0,1,0,triangle,hexagon,0,0,0,0,1,1,13,1,,,,,,,,,,,,,,,,,,,,,,,,,,,,,,,,,,,,,,,,156.51252445499995,156.51252445499995,156.51252445499995,156.51252445499995,156.51252445499995,156.51252445499995,156.51252445499995,156.51252445499995,156.51252445499995,156.51252445499995,l,7.2367673279950395,1,49,0,163.77058841698454,165.27233540199813,,,,,,,,,,,,,,,,,,,,,,,,,,,,,,,,,,,,,,,,,,,,,,,,,,,,,,,,,,,,,,,,,,,,,,33061,2022-10-28_09h07.49.385,vts_reward_expectancy_bt_OFFLINE,2022.2.4,59.88539827420625,
0,1,0,0,0,0,1,0,circle,hexagon,0,0,0,0,1,2,14,4,,,,,,,,,,,,,,,,,,,,,,,,,,,,,,,,,,,,,,,,165.77289331197971,165.77289331197971,165.77289331197971,165.77289331197971,165.77289331197971,165.77289331197971,165.77289331197971,165.77289331197971,165.77289331197971,165.77289331197971,a,3.953409567999188,10,59,0,169.74386105299345,171.2455259540002,,,,,,,,,,,,,,,,,,,,,,,,,,,,,,,,,,,,,,,,,,,,,,,,,,,,,,,,,,,,,,,,,,,,,,33061,2022-10-28_09h07.49.385,vts_reward_expectancy_bt_OFFLINE,2022.2.4,59.88539827420625,
0,0,1,0,0,1,0,0,hexagon,circle,0,0,0,0,1,3,15,7,,,,,,,,,,,,,,,,,,,,,,,,,,,,,,,,,,,,,,,,171.74601492699003,171.74601492699003,171.74601492699003,171.74601492699003,171.74601492699003,171.74601492699003,171.74601492699003,171.74601492699003,171.74601492699003,171.74601492699003,a,3.0662191660085227,1,60,0,174.83264062198577,176.33429101799265,176.33429101799265,,,,,,,,,,,,,,,,,,,,,,,,,,,,,,,,,,,,,,,,,,,,,,,,,,,,,,,,,,,,,,,,,,,,,33061,2022-10-28_09h07.49.385,vts_reward_expectancy_bt_OFFLINE,2022.2.4,59.88539827420625,
0,0,0,1,0,1,0,0,star ,circle,0,0,0,0,1,4,16,10,,,,,,,,,,,,,,,,,,,,,,,,,,,,,,,,,,,,,,,,176.834910406993,176.834910406993,176.834910406993,176.834910406993,176.834910406993,176.834910406993,176.834910406993,176.834910406993,176.834910406993,176.834910406993,a,4.050004713004455,1,61,0,180.90609597897856,182.4078370030038,,,,,,,,,,,,,,,,,,,,,,,,,,,,,,,,,,,,,,,,,,,,,,,,,,,,,,,,,,,,,,,,,,,,,,33061,2022-10-28_09h07.49.385,vts_reward_expectancy_bt_OFFLINE,2022.2.4,59.88539827420625,
1,0,0,0,0,0,0,1,triangle,star,0,0,0,0,1,5,17,2,,,,,,,,,,,,,,,,,,,,,,,,,,,,,,,,,,,,,,,,182.90813552000327,182.90813552000327,182.90813552000327,182.90813552000327,182.90813552000327,182.90813552000327,182.90813552000327,182.90813552000327,182.90813552000327,182.90813552000327,a,1.576720020006178,10,71,0,184.51026907400228,186.01170618200558,,,,,,,,,,,,,,,,,,,,,,,,,,,,,,,,,,,,,,,,,,,,,,,,,,,,,,,,,,,,,,,,,,,,,,33061,2022-10-28_09h07.49.385,vts_reward_expectancy_bt_OFFLINE,2022.2.4,59.88539827420625,
0,0,0,1,0,0,1,0,star,hexagon,0,0,0,0,1,6,18,11,,,,,,,,,,,,,,,,,,,,,,,,,,,,,,,,,,,,,,,,186.5124755279976,186.5124755279976,186.5124755279976,186.5124755279976,186.5124755279976,186.5124755279976,186.5124755279976,186.5124755279976,186.5124755279976,186.5124755279976,a,1.5954698249988724,1,72,0,188.1308536969882,189.63245182699757,,,,,,,,,,,,,,,,,,,,,,,,,,,,,,,,,,,,,,,,,,,,,,,,,,,,,,,,,,,,,,,,,,,,,,33061,2022-10-28_09h07.49.385,vts_reward_expectancy_bt_OFFLINE,2022.2.4,59.88539827420625,
0,0,1,0,1,0,0,0,hexagon,triangle,0,0,0,0,1,7,19,6,,,,,,,,,,,,,,,,,,,,,,,,,,,,,,,,,,,,,,,,190.13296107799397,190.13296107799397,190.13296107799397,190.13296107799397,190.13296107799397,190.13296107799397,190.13296107799397,190.13296107799397,190.13296107799397,190.13296107799397,a,1.6875796889944468,1,73,0,191.8517275369959,193.35347854500287,,,,,,,,,,,,,,,,,,,,,,,,,,,,,,,,,,,,,,,,,,,,,,,,,,,,,,,,,,,,,,,,,,,,,,33061,2022-10-28_09h07.49.385,vts_reward_expectancy_bt_OFFLINE,2022.2.4,59.88539827420625,
0,0,1,0,0,0,0,1,hexagon,star,0,0,0,0,1,8,20,8,,,,,,,,,,,,,,,,,,,,,,,,,,,,,,,,,,,,,,,,193.85397374798777,193.85397374798777,193.85397374798777,193.85397374798777,193.85397374798777,193.85397374798777,193.85397374798777,193.85397374798777,193.85397374798777,193.85397374798777,a,1.5106244609924033,1,74,0,195.38897621899378,196.89035431700177,,,,,,,,,,,,,,,,,,,,,,,,,,,,,,,,,,,,,,,,,,,,,,,,,,,,,,,,,,,,,,,,,,,,,,33061,2022-10-28_09h07.49.385,vts_reward_expectancy_bt_OFFLINE,2022.2.4,59.88539827420625,
0,0,0,1,1,0,0,0,star,triangle,0,0,0,0,1,9,21,9,,,,,,,,,,,,,,,,,,,,,,,,,,,,,,,,,,,,,,,,197.390950031986,197.390950031986,197.390950031986,197.390950031986,197.390950031986,197.390950031986,197.390950031986,197.390950031986,197.390950031986,197.390950031986,a,1.613705455994932,10,84,0,199.02609199497965,200.5277978819795,,,,,,,,,,,,,,,,,,,,,,,,,,,,,,,,,,,,,,,,,,,,,,,,,,,,,,,,,,,,,,,,,,,,,,33061,2022-10-28_09h07.49.385,vts_reward_expectancy_bt_OFFLINE,2022.2.4,59.88539827420625,
0,1,0,0,0,0,0,1,circle,star,0,0,0,0,1,10,22,5,,,,,,,,,,,,,,,,,,,,,,,,,,,,,,,,,,,,,,,,201.02837997899042,201.02837997899042,201.02837997899042,201.02837997899042,201.02837997899042,201.02837997899042,201.02837997899042,201.02837997899042,201.02837997899042,201.02837997899042,a,2.986179027997423,1,85,0,204.0317291749816,205.53343034698628,205.53343034698628,,,,,,,,,,,,,,,,,,,,,,,,,,,,,,,,,,,,,,,,,,,,,,,,,,,,,,,,,,,,,,,,,,,,,33061,2022-10-28_09h07.49.385,vts_reward_expectancy_bt_OFFLINE,2022.2.4,59.88539827420625,
0,1,0,0,1,0,0,0,circle,triangle,0,0,0,0,1,11,23,3,,,,,,,,,,,,,,,,,,,,,,,,,,,,,,,,,,,,,,,,206.03393321699696,206.03393321699696,206.03393321699696,206.03393321699696,206.03393321699696,206.03393321699696,206.03393321699696,206.03393321699696,206.03393321699696,206.03393321699696,l,1.3950521639781073,10,95,0,207.45219879900105,208.95359835898853,,,,,,,,,,,,,,,,,,,,,,,,,,,,,,,,,,,,,,,,,,,,,,,,,,,,,,,,,,,,,,,,,,,,,,33061,2022-10-28_09h07.49.385,vts_reward_expectancy_bt_OFFLINE,2022.2.4,59.88539827420625,
0,0,0,1,0,1,0,0,star ,circle,0,0,0,0,2,0,24,10,,,,,,,,,,,,,,,,,,,,,,,,,,,,,,,,,,,,,,,,209.45422589898226,209.45422589898226,209.45422589898226,209.45422589898226,209.45422589898226,209.45422589898226,209.45422589898226,209.45422589898226,209.45422589898226,209.45422589898226,a,2.759115828986978,10,105,0,212.24067613799707,213.74251185398316,,,,,,,,,,,,,,,,,,,,,,,,,,,,,,,,,,,,,,,,,,,,,,,,,,,,,,,,,,,,,,,,,,,,,,33061,2022-10-28_09h07.49.385,vts_reward_expectancy_bt_OFFLINE,2022.2.4,59.88539827420625,
1,0,0,0,0,0,0,1,triangle,star,0,0,0,0,2,1,25,2,,,,,,,,,,,,,,,,,,,,,,,,,,,,,,,,,,,,,,,,214.24314522297936,214.24314522297936,214.24314522297936,214.24314522297936,214.24314522297936,214.24314522297936,214.24314522297936,214.24314522297936,214.24314522297936,214.24314522297936,a,1.451710837020073,10,115,0,215.7112999589881,217.21279657399282,217.21279657399282,217.7134633550013,,,,,,,,,,,,,,,,,,,,,,,,,,,,,,,,,,,,,,,,,,,,,,,,,,,,,,,,,,,,,,,,,,,,33061,2022-10-28_09h07.49.385,vts_reward_expectancy_bt_OFFLINE,2022.2.4,59.88539827420625,
1,0,0,0,0,1,0,0,triangle,circle,0,0,0,0,2,2,26,0,,,,,,,,,,,,,,,,,,,,,,,,,,,,,,,,,,,,,,,,217.7134633550013,217.7134633550013,217.7134633550013,217.7134633550013,217.7134633550013,217.7134633550013,217.7134633550013,217.7134633550013,217.7134633550013,217.7134633550013,l,1.1469017720082775,1,116,0,218.88143792399205,220.38306510899565,,,,,,,,,,,,,,,,,,,,,,,,,,,,,,,,,,,,,,,,,,,,,,,,,,,,,,,,,,,,,,,,,,,,,,33061,2022-10-28_09h07.49.385,vts_reward_expectancy_bt_OFFLINE,2022.2.4,59.88539827420625,
1,0,0,0,0,0,1,0,triangle,hexagon,0,0,0,0,2,3,27,1,,,,,,,,,,,,,,,,,,,,,,,,,,,,,,,,,,,,,,,,220.88342494500102,220.88342494500102,220.88342494500102,220.88342494500102,220.88342494500102,220.88342494500102,220.88342494500102,220.88342494500102,220.88342494500102,220.88342494500102,a,3.505320614989614,1,117,0,224.42071568698157,225.92267769898172,,,,,,,,,,,,,,,,,,,,,,,,,,,,,,,,,,,,,,,,,,,,,,,,,,,,,,,,,,,,,,,,,,,,,,33061,2022-10-28_09h07.49.385,vts_reward_expectancy_bt_OFFLINE,2022.2.4,59.88539827420625,
0,0,1,0,0,0,0,1,hexagon,star,0,0,0,0,2,4,28,8,,,,,,,,,,,,,,,,,,,,,,,,,,,,,,,,,,,,,,,,226.4229480449867,226.4229480449867,226.4229480449867,226.4229480449867,226.4229480449867,226.4229480449867,226.4229480449867,226.4229480449867,226.4229480449867,226.4229480449867,a,1.3189336609793827,1,118,0,227.77447225499782,229.27619410000625,,,,,,,,,,,,,,,,,,,,,,,,,,,,,,,,,,,,,,,,,,,,,,,,,,,,,,,,,,,,,,,,,,,,,,33061,2022-10-28_09h07.49.385,vts_reward_expectancy_bt_OFFLINE,2022.2.4,59.88539827420625,
0,0,0,1,1,0,0,0,star,triangle,0,0,0,0,2,5,29,9,,,,,,,,,,,,,,,,,,,,,,,,,,,,,,,,,,,,,,,,229.77684469899395,229.77684469899395,229.77684469899395,229.77684469899395,229.77684469899395,229.77684469899395,229.77684469899395,229.77684469899395,229.77684469899395,229.77684469899395,a,1.8030806690221652,1,119,0,231.6121942900063,233.11364114200114,,,,,,,,,,,,,,,,,,,,,,,,,,,,,,,,,,,,,,,,,,,,,,,,,,,,,,,,,,,,,,,,,,,,,,33061,2022-10-28_09h07.49.385,vts_reward_expectancy_bt_OFFLINE,2022.2.4,59.88539827420625,
0,0,1,0,1,0,0,0,hexagon,triangle,0,0,0,0,2,6,30,6,,,,,,,,,,,,,,,,,,,,,,,,,,,,,,,,,,,,,,,,233.6144622679858,233.6144622679858,233.6144622679858,233.6144622679858,233.6144622679858,233.6144622679858,233.6144622679858,233.6144622679858,233.6144622679858,233.6144622679858,a,1.294355332996929,1,120,0,234.93262484198203,236.43413037300343,,,,,,,,,,,,,,,,,,,,,,,,,,,,,,,,,,,,,,,,,,,,,,,,,,,,,,,,,,,,,,,,,,,,,,33061,2022-10-28_09h07.49.385,vts_reward_expectancy_bt_OFFLINE,2022.2.4,59.88539827420625,
0,0,0,1,0,0,1,0,star,hexagon,0,0,0,0,2,7,31,11,,,,,,,,,,,,,,,,,,,,,,,,,,,,,,,,,,,,,,,,236.93473186998744,236.93473186998744,236.93473186998744,236.93473186998744,236.93473186998744,236.93473186998744,236.93473186998744,236.93473186998744,236.93473186998744,236.93473186998744,a,1.71001685099327,10,130,0,238.66981805799878,240.1714342799969,,,,,,,,,,,,,,,,,,,,,,,,,,,,,,,,,,,,,,,,,,,,,,,,,,,,,,,,,,,,,,,,,,,,,,33061,2022-10-28_09h07.49.385,vts_reward_expectancy_bt_OFFLINE,2022.2.4,59.88539827420625,
0,1,0,0,1,0,0,0,circle,triangle,0,0,0,0,2,8,32,3,,,,,,,,,,,,,,,,,,,,,,,,,,,,,,,,,,,,,,,,240.67210048798006,240.67210048798006,240.67210048798006,240.67210048798006,240.67210048798006,240.67210048798006,240.67210048798006,240.67210048798006,240.67210048798006,240.67210048798006,l,1.3021643149841111,10,140,0,242.00686326198047,243.50853538198862,,,,,,,,,,,,,,,,,,,,,,,,,,,,,,,,,,,,,,,,,,,,,,,,,,,,,,,,,,,,,,,,,,,,,,33061,2022-10-28_09h07.49.385,vts_reward_expectancy_bt_OFFLINE,2022.2.4,59.88539827420625,
0,0,1,0,0,1,0,0,hexagon,circle,0,0,0,0,2,9,33,7,,,,,,,,,,,,,,,,,,,,,,,,,,,,,,,,,,,,,,,,244.0090325579804,244.0090325579804,244.0090325579804,244.0090325579804,244.0090325579804,244.0090325579804,244.0090325579804,244.0090325579804,244.0090325579804,244.0090325579804,a,3.0533972260018345,1,141,0,247.07897121697897,248.58080197300296,248.58080197300296,,,,,,,,,,,,,,,,,,,,,,,,,,,,,,,,,,,,,,,,,,,,,,,,,,,,,,,,,,,,,,,,,,,,,33061,2022-10-28_09h07.49.385,vts_reward_expectancy_bt_OFFLINE,2022.2.4,59.88539827420625,
0,1,0,0,0,0,0,1,circle,star,0,0,0,0,2,10,34,5,,,,,,,,,,,,,,,,,,,,,,,,,,,,,,,,,,,,,,,,249.0812833099917,249.0812833099917,249.0812833099917,249.0812833099917,249.0812833099917,249.0812833099917,249.0812833099917,249.0812833099917,249.0812833099917,249.0812833099917,a,1.5474287099787034,1,142,0,250.64966241500224,252.1513223439979,,,,,,,,,,,,,,,,,,,,,,,,,,,,,,,,,,,,,,,,,,,,,,,,,,,,,,,,,,,,,,,,,,,,,,33061,2022-10-28_09h07.49.385,vts_reward_expectancy_bt_OFFLINE,2022.2.4,59.88539827420625,
0,1,0,0,0,0,1,0,circle,hexagon,0,0,0,0,2,11,35,4,,,,,,,,,,,,,,,,,,,,,,,,,,,,,,,,,,,,,,,,252.65190427398193,252.65190427398193,252.65190427398193,252.65190427398193,252.65190427398193,252.65190427398193,252.65190427398193,252.65190427398193,252.65190427398193,252.65190427398193,a,2.0566302940133028,1,143,0,254.7376799589838,256.23936184399645,,,,,,,,,,,,,,,,,,,,,,,,,,,,,,,,,,,,,,,,,,,,,,,,,,,,,,,,,,,,,,,,,,,,,,33061,2022-10-28_09h07.49.385,vts_reward_expectancy_bt_OFFLINE,2022.2.4,59.88539827420625,
0,0,0,1,1,0,0,0,star,triangle,0,0,0,0,3,0,36,9,,,,,,,,,,,,,,,,,,,,,,,,,,,,,,,,,,,,,,,,256.7398902190034,256.7398902190034,256.7398902190034,256.7398902190034,256.7398902190034,256.7398902190034,256.7398902190034,256.7398902190034,256.7398902190034,256.7398902190034,a,1.4427172639989294,10,153,0,258.2079896729847,259.70981993398163,,,,,,,,,,,,,,,,,,,,,,,,,,,,,,,,,,,,,,,,,,,,,,,,,,,,,,,,,,,,,,,,,,,,,,33061,2022-10-28_09h07.49.385,vts_reward_expectancy_bt_OFFLINE,2022.2.4,59.88539827420625,
0,1,0,0,1,0,0,0,circle,triangle,0,0,0,0,3,1,37,3,,,,,,,,,,,,,,,,,,,,,,,,,,,,,,,,,,,,,,,,260.2103753249976,260.2103753249976,260.2103753249976,260.2103753249976,260.2103753249976,260.2103753249976,260.2103753249976,260.2103753249976,260.2103753249976,260.2103753249976,l,2.7622390309988987,10,163,0,262.99670021800557,264.49851706199115,,,,,,,,,,,,,,,,,,,,,,,,,,,,,,,,,,,,,,,,,,,,,,,,,,,,,,,,,,,,,,,,,,,,,,33061,2022-10-28_09h07.49.385,vts_reward_expectancy_bt_OFFLINE,2022.2.4,59.88539827420625,
0,1,0,0,0,0,1,0,circle,hexagon,0,0,0,0,3,2,38,4,,,,,,,,,,,,,,,,,,,,,,,,,,,,,,,,,,,,,,,,264.9989214419911,264.9989214419911,264.9989214419911,264.9989214419911,264.9989214419911,264.9989214419911,264.9989214419911,264.9989214419911,264.9989214419911,264.9989214419911,a,1.8940020480076782,1,164,0,266.91774252199684,268.4194578989991,268.4194578989991,,,,,,,,,,,,,,,,,,,,,,,,,,,,,,,,,,,,,,,,,,,,,,,,,,,,,,,,,,,,,,,,,,,,,33061,2022-10-28_09h07.49.385,vts_reward_expectancy_bt_OFFLINE,2022.2.4,59.88539827420625,
1,0,0,0,0,1,0,0,triangle,circle,0,0,0,0,3,3,39,0,,,,,,,,,,,,,,,,,,,,,,,,,,,,,,,,,,,,,,,,268.9198328789789,268.9198328789789,268.9198328789789,268.9198328789789,268.9198328789789,268.9198328789789,268.9198328789789,268.9198328789789,268.9198328789789,268.9198328789789,l,2.10268670602818,1,165,0,271.0389237990021,272.5404092469835,272.5404092469835,273.0412088779849,,,,,,,,,,,,,,,,,,,,,,,,,,,,,,,,,,,,,,,,,,,,,,,,,,,,,,,,,,,,,,,,,,,,33061,2022-10-28_09h07.49.385,vts_reward_expectancy_bt_OFFLINE,2022.2.4,59.88539827420625,
0,0,0,1,0,1,0,0,star ,circle,0,0,0,0,3,4,40,10,,,,,,,,,,,,,,,,,,,,,,,,,,,,,,,,,,,,,,,,273.0412088779849,273.0412088779849,273.0412088779849,273.0412088779849,273.0412088779849,273.0412088779849,273.0412088779849,273.0412088779849,273.0412088779849,273.0412088779849,a,1.819736756006023,1,166,0,274.8929726049828,276.3947950179863,,,,,,,,,,,,,,,,,,,,,,,,,,,,,,,,,,,,,,,,,,,,,,,,,,,,,,,,,,,,,,,,,,,,,,33061,2022-10-28_09h07.49.385,vts_reward_expectancy_bt_OFFLINE,2022.2.4,59.88539827420625,
1,0,0,0,0,0,1,0,triangle,hexagon,0,0,0,0,3,5,41,1,,,,,,,,,,,,,,,,,,,,,,,,,,,,,,,,,,,,,,,,276.8955078769941,276.8955078769941,276.8955078769941,276.8955078769941,276.8955078769941,276.8955078769941,276.8955078769941,276.8955078769941,276.8955078769941,276.8955078769941,a,1.7096738109830767,10,176,0,278.63059671397787,280.13242764398456,,,,,,,,,,,,,,,,,,,,,,,,,,,,,,,,,,,,,,,,,,,,,,,,,,,,,,,,,,,,,,,,,,,,,,33061,2022-10-28_09h07.49.385,vts_reward_expectancy_bt_OFFLINE,2022.2.4,59.88539827420625,
0,1,0,0,0,0,0,1,circle,star,0,0,0,0,3,6,42,5,,,,,,,,,,,,,,,,,,,,,,,,,,,,,,,,,,,,,,,,280.6329934139794,280.6329934139794,280.6329934139794,280.6329934139794,280.6329934139794,280.6329934139794,280.6329934139794,280.6329934139794,280.6329934139794,280.6329934139794,a,1.3091655730095226,1,177,0,281.9675985919894,283.4692829870037,,,,,,,,,,,,,,,,,,,,,,,,,,,,,,,,,,,,,,,,,,,,,,,,,,,,,,,,,,,,,,,,,,,,,,33061,2022-10-28_09h07.49.385,vts_reward_expectancy_bt_OFFLINE,2022.2.4,59.88539827420625,
0,0,0,1,0,0,1,0,star,hexagon,0,0,0,0,3,7,43,11,,,,,,,,,,,,,,,,,,,,,,,,,,,,,,,,,,,,,,,,283.9698353089916,283.9698353089916,283.9698353089916,283.9698353089916,283.9698353089916,283.9698353089916,283.9698353089916,283.9698353089916,283.9698353089916,283.9698353089916,a,1.2517385490064044,10,187,0,285.2381167099811,286.73953595300554,286.73953595300554,,,,,,,,,,,,,,,,,,,,,,,,,,,,,,,,,,,,,,,,,,,,,,,,,,,,,,,,,,,,,,,,,,,,,33061,2022-10-28_09h07.49.385,vts_reward_expectancy_bt_OFFLINE,2022.2.4,59.88539827420625,
0,0,1,0,0,1,0,0,hexagon,circle,0,0,0,0,3,8,44,7,,,,,,,,,,,,,,,,,,,,,,,,,,,,,,,,,,,,,,,,287.24032241798704,287.24032241798704,287.24032241798704,287.24032241798704,287.24032241798704,287.24032241798704,287.24032241798704,287.24032241798704,287.24032241798704,287.24032241798704,a,1.2522180209925864,10,197,0,288.525038414984,290.0264850569947,,,,,,,,,,,,,,,,,,,,,,,,,,,,,,,,,,,,,,,,,,,,,,,,,,,,,,,,,,,,,,,,,,,,,,33061,2022-10-28_09h07.49.385,vts_reward_expectancy_bt_OFFLINE,2022.2.4,59.88539827420625,
0,0,1,0,1,0,0,0,hexagon,triangle,0,0,0,0,3,9,45,6,,,,,,,,,,,,,,,,,,,,,,,,,,,,,,,,,,,,,,,,290.52735550000216,290.52735550000216,290.52735550000216,290.52735550000216,290.52735550000216,290.52735550000216,290.52735550000216,290.52735550000216,290.52735550000216,290.52735550000216,a,1.2769271539873444,1,198,0,291.82875126900035,293.3303231750033,,,,,,,,,,,,,,,,,,,,,,,,,,,,,,,,,,,,,,,,,,,,,,,,,,,,,,,,,,,,,,,,,,,,,,33061,2022-10-28_09h07.49.385,vts_reward_expectancy_bt_OFFLINE,2022.2.4,59.88539827420625,
1,0,0,0,0,0,0,1,triangle,star,0,0,0,0,3,10,46,2,,,,,,,,,,,,,,,,,,,,,,,,,,,,,,,,,,,,,,,,293.8307575279905,293.8307575279905,293.8307575279905,293.8307575279905,293.8307575279905,293.8307575279905,293.8307575279905,293.8307575279905,293.8307575279905,293.8307575279905,a,1.0943069059867412,10,208,0,294.9487455729977,296.450186209986,,,,,,,,,,,,,,,,,,,,,,,,,,,,,,,,,,,,,,,,,,,,,,,,,,,,,,,,,,,,,,,,,,,,,,33061,2022-10-28_09h07.49.385,vts_reward_expectancy_bt_OFFLINE,2022.2.4,59.88539827420625,
0,0,1,0,0,0,0,1,hexagon,star,0,0,0,0,3,11,47,8,,,,,,,,,,,,,,,,,,,,,,,,,,,,,,,,,,,,,,,,296.9506680299819,296.9506680299819,296.9506680299819,296.9506680299819,296.9506680299819,296.9506680299819,296.9506680299819,296.9506680299819,296.9506680299819,296.9506680299819,a,1.2301017610006966,1,209,0,298.2023819339811,299.7040562930051,,,,,,,,,,,,,,,,,,,,,,,,,,,,,,,,,,,,,,,,,,,,,,,,,,,,,,,,,,,,,,,,,,,,,,33061,2022-10-28_09h07.49.385,vts_reward_expectancy_bt_OFFLINE,2022.2.4,59.88539827420625,
0,0,0,1,0,0,1,0,star,hexagon,1,0,1,0,0,0,0,11,,,,,,,,,,,,,,,,,,,,,,,,,,,,,,,,,,,,,,,,313.0352145170036,313.0352145170036,313.0352145170036,313.0352145170036,313.0352145170036,313.0352145170036,313.0352145170036,313.0352145170036,313.0352145170036,313.0352145170036,a,4.971172468998702,1,210,1,318.0240098689974,319.5258165790001,319.5258165790001,,,,,,,,,,,,,,,,,,,,,,,,,,,,,,,,,,,,,,,,,,,,,,,,,,,,,,,,,,,,,,,,,,,,,33061,2022-10-28_09h07.49.385,vts_reward_expectancy_bt_OFFLINE,2022.2.4,59.88539827420625,
0,0,1,0,1,0,0,0,hexagon,triangle,1,0,1,0,0,1,1,6,,,,,,,,,,,,,,,,,,,,,,,,,,,,,,,,,,,,,,,,320.02624656498665,320.02624656498665,320.02624656498665,320.02624656498665,320.02624656498665,320.02624656498665,320.02624656498665,320.02624656498665,320.02624656498665,320.02624656498665,a,0.8355159619823098,10,220,1,320.89374163898174,322.3956144989934,,,,,,,,,,,,,,,,,,,,,,,,,,,,,,,,,,,,,,,,,,,,,,,,,,,,,,,,,,,,,,,,,,,,,,33061,2022-10-28_09h07.49.385,vts_reward_expectancy_bt_OFFLINE,2022.2.4,59.88539827420625,
0,0,1,0,0,1,0,0,hexagon,circle,1,0,1,0,0,2,2,7,,,,,,,,,,,,,,,,,,,,,,,,,,,,,,,,,,,,,,,,322.89609902800294,322.89609902800294,322.89609902800294,322.89609902800294,322.89609902800294,322.89609902800294,322.89609902800294,322.89609902800294,322.89609902800294,322.89609902800294,a,1.8124955529929139,1,221,1,324.73150531499414,326.23312291299226,,,,,,,,,,,,,,,,,,,,,,,,,,,,,,,,,,,,,,,,,,,,,,,,,,,,,,,,,,,,,,,,,,,,,,33061,2022-10-28_09h07.49.385,vts_reward_expectancy_bt_OFFLINE,2022.2.4,59.88539827420625,
0,1,0,0,1,0,0,0,circle,triangle,1,0,1,0,0,3,3,3,,,,,,,,,,,,,,,,,,,,,,,,,,,,,,,,,,,,,,,,326.7338784780004,326.7338784780004,326.7338784780004,326.7338784780004,326.7338784780004,326.7338784780004,326.7338784780004,326.7338784780004,326.7338784780004,326.7338784780004,l,0.7513615740172099,10,231,1,327.51791537497775,329.01953068497824,,,,,,,,,,,,,,,,,,,,,,,,,,,,,,,,,,,,,,,,,,,,,,,,,,,,,,,,,,,,,,,,,,,,,,33061,2022-10-28_09h07.49.385,vts_reward_expectancy_bt_OFFLINE,2022.2.4,59.88539827420625,
1,0,0,0,0,1,0,0,triangle,circle,1,0,1,0,0,4,4,0,,,,,,,,,,,,,,,,,,,,,,,,,,,,,,,,,,,,,,,,329.520018109004,329.520018109004,329.520018109004,329.520018109004,329.520018109004,329.520018109004,329.520018109004,329.520018109004,329.520018109004,329.520018109004,l,1.2854554489895236,1,232,1,330.83827753399964,332.3400120639999,,,,,,,,,,,,,,,,,,,,,,,,,,,,,,,,,,,,,,,,,,,,,,,,,,,,,,,,,,,,,,,,,,,,,,33061,2022-10-28_09h07.49.385,vts_reward_expectancy_bt_OFFLINE,2022.2.4,59.88539827420625,
1,0,0,0,0,0,0,1,triangle,star,1,0,1,0,0,5,5,2,,,,,,,,,,,,,,,,,,,,,,,,,,,,,,,,,,,,,,,,332.84050128399394,332.84050128399394,332.84050128399394,332.84050128399394,332.84050128399394,332.84050128399394,332.84050128399394,332.84050128399394,332.84050128399394,332.84050128399394,a,1.0445449190156069,10,242,1,333.9082085969858,335.4100189419987,,,,,,,,,,,,,,,,,,,,,,,,,,,,,,,,,,,,,,,,,,,,,,,,,,,,,,,,,,,,,,,,,,,,,,33061,2022-10-28_09h07.49.385,vts_reward_expectancy_bt_OFFLINE,2022.2.4,59.88539827420625,
0,1,0,0,0,0,1,0,circle,hexagon,1,0,1,0,0,6,6,4,,,,,,,,,,,,,,,,,,,,,,,,,,,,,,,,,,,,,,,,335.9104356789903,335.9104356789903,335.9104356789903,335.9104356789903,335.9104356789903,335.9104356789903,335.9104356789903,335.9104356789903,335.9104356789903,335.9104356789903,a,2.486892714019632,1,243,1,338.42998380499193,339.93154825500096,,,,,,,,,,,,,,,,,,,,,,,,,,,,,,,,,,,,,,,,,,,,,,,,,,,,,,,,,,,,,,,,,,,,,,33061,2022-10-28_09h07.49.385,vts_reward_expectancy_bt_OFFLINE,2022.2.4,59.88539827420625,
1,0,0,0,0,0,1,0,triangle,hexagon,1,0,1,0,0,7,7,1,,,,,,,,,,,,,,,,,,,,,,,,,,,,,,,,,,,,,,,,340.43216762898373,340.43216762898373,340.43216762898373,340.43216762898373,340.43216762898373,340.43216762898373,340.43216762898373,340.43216762898373,340.43216762898373,340.43216762898373,a,0.948880846000975,10,253,1,341.39977033500327,342.9014671369805,,,,,,,,,,,,,,,,,,,,,,,,,,,,,,,,,,,,,,,,,,,,,,,,,,,,,,,,,,,,,,,,,,,,,,33061,2022-10-28_09h07.49.385,vts_reward_expectancy_bt_OFFLINE,2022.2.4,59.88539827420625,
0,1,0,0,0,0,0,1,circle,star,1,0,1,0,0,8,8,5,,,,,,,,,,,,,,,,,,,,,,,,,,,,,,,,,,,,,,,,343.4023089949915,343.4023089949915,343.4023089949915,343.4023089949915,343.4023089949915,343.4023089949915,343.4023089949915,343.4023089949915,343.4023089949915,343.4023089949915,a,1.116731477988651,1,254,1,344.53662757299026,346.0383172449947,346.0383172449947,,,,,,,,,,,,,,,,,,,,,,,,,,,,,,,,,,,,,,,,,,,,,,,,,,,,,,,,,,,,,,,,,,,,,33061,2022-10-28_09h07.49.385,vts_reward_expectancy_bt_OFFLINE,2022.2.4,59.88539827420625,
0,0,1,0,0,0,0,1,hexagon,star,1,0,1,0,0,9,9,8,,,,,,,,,,,,,,,,,,,,,,,,,,,,,,,,,,,,,,,,346.53886438999325,346.53886438999325,346.53886438999325,346.53886438999325,346.53886438999325,346.53886438999325,346.53886438999325,346.53886438999325,346.53886438999325,346.53886438999325,a,2.457136762997834,1,255,1,349.025146156986,350.52653917699354,,,,,,,,,,,,,,,,,,,,,,,,,,,,,,,,,,,,,,,,,,,,,,,,,,,,,,,,,,,,,,,,,,,,,,33061,2022-10-28_09h07.49.385,vts_reward_expectancy_bt_OFFLINE,2022.2.4,59.88539827420625,
0,0,0,1,0,1,0,0,star ,circle,1,0,1,0,0,10,10,10,,,,,,,,,,,,,,,,,,,,,,,,,,,,,,,,,,,,,,,,351.0271695929987,351.0271695929987,351.0271695929987,351.0271695929987,351.0271695929987,351.0271695929987,351.0271695929987,351.0271695929987,351.0271695929987,351.0271695929987,a,1.4092045580036938,1,256,1,352.46220888898824,353.9636546239781,,,,,,,,,,,,,,,,,,,,,,,,,,,,,,,,,,,,,,,,,,,,,,,,,,,,,,,,,,,,,,,,,,,,,,33061,2022-10-28_09h07.49.385,vts_reward_expectancy_bt_OFFLINE,2022.2.4,59.88539827420625,
0,0,0,1,1,0,0,0,star,triangle,1,0,1,0,0,11,11,9,,,,,,,,,,,,,,,,,,,,,,,,,,,,,,,,,,,,,,,,354.46435960999224,354.46435960999224,354.46435960999224,354.46435960999224,354.46435960999224,354.46435960999224,354.46435960999224,354.46435960999224,354.46435960999224,354.46435960999224,a,1.0117191770114005,10,266,1,355.4986465089896,357.00046616900363,,,,,,,,,,,,,,,,,,,,,,,,,,,,,,,,,,,,,,,,,,,,,,,,,,,,,,,,,,,,,,,,,,,,,,33061,2022-10-28_09h07.49.385,vts_reward_expectancy_bt_OFFLINE,2022.2.4,59.88539827420625,
1,0,0,0,0,0,1,0,triangle,hexagon,1,0,1,0,1,0,12,1,,,,,,,,,,,,,,,,,,,,,,,,,,,,,,,,,,,,,,,,357.5010611639882,357.5010611639882,357.5010611639882,357.5010611639882,357.5010611639882,357.5010611639882,357.5010611639882,357.5010611639882,357.5010611639882,357.5010611639882,a,0.817059947992675,10,276,1,358.3351161189785,359.83682621998014,359.83682621998014,,,,,,,,,,,,,,,,,,,,,,,,,,,,,,,,,,,,,,,,,,,,,,,,,,,,,,,,,,,,,,,,,,,,,33061,2022-10-28_09h07.49.385,vts_reward_expectancy_bt_OFFLINE,2022.2.4,59.88539827420625,
0,0,1,0,1,0,0,0,hexagon,triangle,1,0,1,0,1,1,13,6,,,,,,,,,,,,,,,,,,,,,,,,,,,,,,,,,,,,,,,,360.3375717869785,360.3375717869785,360.3375717869785,360.3375717869785,360.3375717869785,360.3375717869785,360.3375717869785,360.3375717869785,360.3375717869785,360.3375717869785,a,0.8351506410108414,1,277,1,361.2053382519807,362.70672538699,,,,,,,,,,,,,,,,,,,,,,,,,,,,,,,,,,,,,,,,,,,,,,,,,,,,,,,,,,,,,,,,,,,,,,33061,2022-10-28_09h07.49.385,vts_reward_expectancy_bt_OFFLINE,2022.2.4,59.88539827420625,
1,0,0,0,0,1,0,0,triangle,circle,1,0,1,0,1,2,14,0,,,,,,,,,,,,,,,,,,,,,,,,,,,,,,,,,,,,,,,,363.20716742798686,363.20716742798686,363.20716742798686,363.20716742798686,363.20716742798686,363.20716742798686,363.20716742798686,363.20716742798686,363.20716742798686,363.20716742798686,l,1.8612606290262192,1,278,1,365.0926665769948,366.5944576379843,,,,,,,,,,,,,,,,,,,,,,,,,,,,,,,,,,,,,,,,,,,,,,,,,,,,,,,,,,,,,,,,,,,,,,33061,2022-10-28_09h07.49.385,vts_reward_expectancy_bt_OFFLINE,2022.2.4,59.88539827420625,
0,1,0,0,1,0,0,0,circle,triangle,1,0,1,0,1,3,15,3,,,,,,,,,,,,,,,,,,,,,,,,,,,,,,,,,,,,,,,,367.0947965119849,367.0947965119849,367.0947965119849,367.0947965119849,367.0947965119849,367.0947965119849,367.0947965119849,367.0947965119849,367.0947965119849,367.0947965119849,l,3.405287852016045,10,288,1,370.5321278789779,372.0337294579949,,,,,,,,,,,,,,,,,,,,,,,,,,,,,,,,,,,,,,,,,,,,,,,,,,,,,,,,,,,,,,,,,,,,,,33061,2022-10-28_09h07.49.385,vts_reward_expectancy_bt_OFFLINE,2022.2.4,59.88539827420625,
0,0,1,0,0,0,0,1,hexagon,star,1,0,1,0,1,4,16,8,,,,,,,,,,,,,,,,,,,,,,,,,,,,,,,,,,,,,,,,372.5344105489785,372.5344105489785,372.5344105489785,372.5344105489785,372.5344105489785,372.5344105489785,372.5344105489785,372.5344105489785,372.5344105489785,372.5344105489785,a,0.8621565150097013,1,289,1,373.4185560379992,374.9203551269893,,,,,,,,,,,,,,,,,,,,,,,,,,,,,,,,,,,,,,,,,,,,,,,,,,,,,,,,,,,,,,,,,,,,,,33061,2022-10-28_09h07.49.385,vts_reward_expectancy_bt_OFFLINE,2022.2.4,59.88539827420625,
1,0,0,0,0,0,0,1,triangle,star,1,0,1,0,1,5,17,2,,,,,,,,,,,,,,,,,,,,,,,,,,,,,,,,,,,,,,,,375.4207079439948,375.4207079439948,375.4207079439948,375.4207079439948,375.4207079439948,375.4207079439948,375.4207079439948,375.4207079439948,375.4207079439948,375.4207079439948,a,1.6558592620131094,1,290,1,377.10574750899104,378.60756720000063,,,,,,,,,,,,,,,,,,,,,,,,,,,,,,,,,,,,,,,,,,,,,,,,,,,,,,,,,,,,,,,,,,,,,,33061,2022-10-28_09h07.49.385,vts_reward_expectancy_bt_OFFLINE,2022.2.4,59.88539827420625,
0,0,0,1,0,1,0,0,star ,circle,1,0,1,0,1,6,18,10,,,,,,,,,,,,,,,,,,,,,,,,,,,,,,,,,,,,,,,,379.1080262750038,379.1080262750038,379.1080262750038,379.1080262750038,379.1080262750038,379.1080262750038,379.1080262750038,379.1080262750038,379.1080262750038,379.1080262750038,a,0.6813675079902168,1,291,1,379.80896595699596,381.3106214879954,,,,,,,,,,,,,,,,,,,,,,,,,,,,,,,,,,,,,,,,,,,,,,,,,,,,,,,,,,,,,,,,,,,,,,33061,2022-10-28_09h07.49.385,vts_reward_expectancy_bt_OFFLINE,2022.2.4,59.88539827420625,
0,1,0,0,0,0,0,1,circle,star,1,0,1,0,1,7,19,5,,,,,,,,,,,,,,,,,,,,,,,,,,,,,,,,,,,,,,,,381.8110428749933,381.8110428749933,381.8110428749933,381.8110428749933,381.8110428749933,381.8110428749933,381.8110428749933,381.8110428749933,381.8110428749933,381.8110428749933,a,0.9298035870015156,10,301,1,382.7621013470052,384.2639447999827,,,,,,,,,,,,,,,,,,,,,,,,,,,,,,,,,,,,,,,,,,,,,,,,,,,,,,,,,,,,,,,,,,,,,,33061,2022-10-28_09h07.49.385,vts_reward_expectancy_bt_OFFLINE,2022.2.4,59.88539827420625,
0,1,0,0,0,0,1,0,circle,hexagon,1,0,1,0,1,8,20,4,,,,,,,,,,,,,,,,,,,,,,,,,,,,,,,,,,,,,,,,384.7644069480011,384.7644069480011,384.7644069480011,384.7644069480011,384.7644069480011,384.7644069480011,384.7644069480011,384.7644069480011,384.7644069480011,384.7644069480011,a,1.3116541510098614,1,302,1,386.0993205150007,387.6008222249802,,,,,,,,,,,,,,,,,,,,,,,,,,,,,,,,,,,,,,,,,,,,,,,,,,,,,,,,,,,,,,,,,,,,,,33061,2022-10-28_09h07.49.385,vts_reward_expectancy_bt_OFFLINE,2022.2.4,59.88539827420625,
0,0,1,0,0,1,0,0,hexagon,circle,1,0,1,0,1,9,21,7,,,,,,,,,,,,,,,,,,,,,,,,,,,,,,,,,,,,,,,,388.101435124001,388.101435124001,388.101435124001,388.101435124001,388.101435124001,388.101435124001,388.101435124001,388.101435124001,388.101435124001,388.101435124001,a,1.254608332994394,1,303,1,389.3860943669861,390.8876946249802,,,,,,,,,,,,,,,,,,,,,,,,,,,,,,,,,,,,,,,,,,,,,,,,,,,,,,,,,,,,,,,,,,,,,,33061,2022-10-28_09h07.49.385,vts_reward_expectancy_bt_OFFLINE,2022.2.4,59.88539827420625,
0,0,0,1,1,0,0,0,star,triangle,1,0,1,0,1,10,22,9,,,,,,,,,,,,,,,,,,,,,,,,,,,,,,,,,,,,,,,,391.38834719199804,391.38834719199804,391.38834719199804,391.38834719199804,391.38834719199804,391.38834719199804,391.38834719199804,391.38834719199804,391.38834719199804,391.38834719199804,a,0.9044621800130699,10,313,1,392.3229571720003,393.82452424199437,,,,,,,,,,,,,,,,,,,,,,,,,,,,,,,,,,,,,,,,,,,,,,,,,,,,,,,,,,,,,,,,,,,,,,33061,2022-10-28_09h07.49.385,vts_reward_expectancy_bt_OFFLINE,2022.2.4,59.88539827420625,
0,0,0,1,0,0,1,0,star,hexagon,1,0,1,0,1,11,23,11,,,,,,,,,,,,,,,,,,,,,,,,,,,,,,,,,,,,,,,,394.32495677800034,394.32495677800034,394.32495677800034,394.32495677800034,394.32495677800034,394.32495677800034,394.32495677800034,394.32495677800034,394.32495677800034,394.32495677800034,a,0.848479528009193,10,323,1,395.19251950798207,396.69424759800313,,,,,,,,,,,,,,,,,,,,,,,,,,,,,,,,,,,,,,,,,,,,,,,,,,,,,,,,,,,,,,,,,,,,,,33061,2022-10-28_09h07.49.385,vts_reward_expectancy_bt_OFFLINE,2022.2.4,59.88539827420625,
0,0,1,0,0,1,0,0,hexagon,circle,1,0,1,0,2,0,24,7,,,,,,,,,,,,,,,,,,,,,,,,,,,,,,,,,,,,,,,,397.194769816997,397.194769816997,397.194769816997,397.194769816997,397.194769816997,397.194769816997,397.194769816997,397.194769816997,397.194769816997,397.194769816997,a,0.8752502690185793,1,324,1,398.0956169469864,399.597454089002,,,,,,,,,,,,,,,,,,,,,,,,,,,,,,,,,,,,,,,,,,,,,,,,,,,,,,,,,,,,,,,,,,,,,,33061,2022-10-28_09h07.49.385,vts_reward_expectancy_bt_OFFLINE,2022.2.4,59.88539827420625,
0,1,0,0,0,0,1,0,circle,hexagon,1,0,1,0,2,1,25,4,,,,,,,,,,,,,,,,,,,,,,,,,,,,,,,,,,,,,,,,400.0980263889942,400.0980263889942,400.0980263889942,400.0980263889942,400.0980263889942,400.0980263889942,400.0980263889942,400.0980263889942,400.0980263889942,400.0980263889942,a,1.2104706410027575,10,334,1,401.3326186639897,402.83425315699424,,,,,,,,,,,,,,,,,,,,,,,,,,,,,,,,,,,,,,,,,,,,,,,,,,,,,,,,,,,,,,,,,,,,,,33061,2022-10-28_09h07.49.385,vts_reward_expectancy_bt_OFFLINE,2022.2.4,59.88539827420625,
0,1,0,0,1,0,0,0,circle,triangle,1,0,1,0,2,2,26,3,,,,,,,,,,,,,,,,,,,,,,,,,,,,,,,,,,,,,,,,403.3349932679848,403.3349932679848,403.3349932679848,403.3349932679848,403.3349932679848,403.3349932679848,403.3349932679848,403.3349932679848,403.3349932679848,403.3349932679848,l,1.3023008219897747,1,335,1,404.6697337490041,406.1714550079778,,,,,,,,,,,,,,,,,,,,,,,,,,,,,,,,,,,,,,,,,,,,,,,,,,,,,,,,,,,,,,,,,,,,,,33061,2022-10-28_09h07.49.385,vts_reward_expectancy_bt_OFFLINE,2022.2.4,59.88539827420625,
0,0,1,0,1,0,0,0,hexagon,triangle,1,0,1,0,2,3,27,6,,,,,,,,,,,,,,,,,,,,,,,,,,,,,,,,,,,,,,,,406.67189568298636,406.67189568298636,406.67189568298636,406.67189568298636,406.67189568298636,406.67189568298636,406.67189568298636,406.67189568298636,406.67189568298636,406.67189568298636,a,0.9020447030197829,1,336,1,407.60622880398296,409.10803597199265,,,,,,,,,,,,,,,,,,,,,,,,,,,,,,,,,,,,,,,,,,,,,,,,,,,,,,,,,,,,,,,,,,,,,,33061,2022-10-28_09h07.49.385,vts_reward_expectancy_bt_OFFLINE,2022.2.4,59.88539827420625,
0,1,0,0,0,0,0,1,circle,star,1,0,1,0,2,4,28,5,,,,,,,,,,,,,,,,,,,,,,,,,,,,,,,,,,,,,,,,409.60841132499627,409.60841132499627,409.60841132499627,409.60841132499627,409.60841132499627,409.60841132499627,409.60841132499627,409.60841132499627,409.60841132499627,409.60841132499627,a,0.925234154012287,1,337,1,410.55960788798984,412.06130904500606,,,,,,,,,,,,,,,,,,,,,,,,,,,,,,,,,,,,,,,,,,,,,,,,,,,,,,,,,,,,,,,,,,,,,,33061,2022-10-28_09h07.49.385,vts_reward_expectancy_bt_OFFLINE,2022.2.4,59.88539827420625,
0,0,0,1,0,0,1,0,star,hexagon,1,0,1,0,2,5,29,11,,,,,,,,,,,,,,,,,,,,,,,,,,,,,,,,,,,,,,,,412.5617448419798,412.5617448419798,412.5617448419798,412.5617448419798,412.5617448419798,412.5617448419798,412.5617448419798,412.5617448419798,412.5617448419798,412.5617448419798,a,0.6184000070206821,10,347,1,413.21239565499127,414.7141174429853,,,,,,,,,,,,,,,,,,,,,,,,,,,,,,,,,,,,,,,,,,,,,,,,,,,,,,,,,,,,,,,,,,,,,,33061,2022-10-28_09h07.49.385,vts_reward_expectancy_bt_OFFLINE,2022.2.4,59.88539827420625,
1,0,0,0,0,1,0,0,triangle,circle,1,0,1,0,2,6,30,0,,,,,,,,,,,,,,,,,,,,,,,,,,,,,,,,,,,,,,,,415.21456704998855,415.21456704998855,415.21456704998855,415.21456704998855,415.21456704998855,415.21456704998855,415.21456704998855,415.21456704998855,415.21456704998855,415.21456704998855,l,0.8300491840054747,1,348,1,416.06549788999837,417.567134012992,,,,,,,,,,,,,,,,,,,,,,,,,,,,,,,,,,,,,,,,,,,,,,,,,,,,,,,,,,,,,,,,,,,,,,33061,2022-10-28_09h07.49.385,vts_reward_expectancy_bt_OFFLINE,2022.2.4,59.88539827420625,
0,0,0,1,1,0,0,0,star,triangle,1,0,1,0,2,7,31,9,,,,,,,,,,,,,,,,,,,,,,,,,,,,,,,,,,,,,,,,418.0677213599847,418.0677213599847,418.0677213599847,418.0677213599847,418.0677213599847,418.0677213599847,418.0677213599847,418.0677213599847,418.0677213599847,418.0677213599847,a,0.8816995840170421,10,358,1,418.96889431399177,420.47047879899037,,,,,,,,,,,,,,,,,,,,,,,,,,,,,,,,,,,,,,,,,,,,,,,,,,,,,,,,,,,,,,,,,,,,,,33061,2022-10-28_09h07.49.385,vts_reward_expectancy_bt_OFFLINE,2022.2.4,59.88539827420625,
1,0,0,0,0,0,1,0,triangle,hexagon,1,0,1,0,2,8,32,1,,,,,,,,,,,,,,,,,,,,,,,,,,,,,,,,,,,,,,,,420.9710312990064,420.9710312990064,420.9710312990064,420.9710312990064,420.9710312990064,420.9710312990064,420.9710312990064,420.9710312990064,420.9710312990064,420.9710312990064,a,1.0904334570223,10,368,1,422.088934682979,423.590660034999,,,,,,,,,,,,,,,,,,,,,,,,,,,,,,,,,,,,,,,,,,,,,,,,,,,,,,,,,,,,,,,,,,,,,,33061,2022-10-28_09h07.49.385,vts_reward_expectancy_bt_OFFLINE,2022.2.4,59.88539827420625,
0,0,0,1,0,1,0,0,star ,circle,1,0,1,0,2,9,33,10,,,,,,,,,,,,,,,,,,,,,,,,,,,,,,,,,,,,,,,,424.0909429329913,424.0909429329913,424.0909429329913,424.0909429329913,424.0909429329913,424.0909429329913,424.0909429329913,424.0909429329913,424.0909429329913,424.0909429329913,a,0.7782321470149327,10,378,1,424.8920783729991,426.3935307689826,,,,,,,,,,,,,,,,,,,,,,,,,,,,,,,,,,,,,,,,,,,,,,,,,,,,,,,,,,,,,,,,,,,,,,33061,2022-10-28_09h07.49.385,vts_reward_expectancy_bt_OFFLINE,2022.2.4,59.88539827420625,
1,0,0,0,0,0,0,1,triangle,star,1,0,1,0,2,10,34,2,,,,,,,,,,,,,,,,,,,,,,,,,,,,,,,,,,,,,,,,426.89419134298805,426.89419134298805,426.89419134298805,426.89419134298805,426.89419134298805,426.89419134298805,426.89419134298805,426.89419134298805,426.89419134298805,426.89419134298805,a,1.3358293249912094,10,388,1,428.26247381899157,429.7640953899827,,,,,,,,,,,,,,,,,,,,,,,,,,,,,,,,,,,,,,,,,,,,,,,,,,,,,,,,,,,,,,,,,,,,,,33061,2022-10-28_09h07.49.385,vts_reward_expectancy_bt_OFFLINE,2022.2.4,59.88539827420625,
0,0,1,0,0,0,0,1,hexagon,star,1,0,1,0,2,11,35,8,,,,,,,,,,,,,,,,,,,,,,,,,,,,,,,,,,,,,,,,430.26444940798683,430.26444940798683,430.26444940798683,430.26444940798683,430.26444940798683,430.26444940798683,430.26444940798683,430.26444940798683,430.26444940798683,430.26444940798683,a,0.6041119179863017,1,389,1,430.89851831799024,432.4002142729878,,,,,,,,,,,,,,,,,,,,,,,,,,,,,,,,,,,,,,,,,,,,,,,,,,,,,,,,,,,,,,,,,,,,,,33061,2022-10-28_09h07.49.385,vts_reward_expectancy_bt_OFFLINE,2022.2.4,59.88539827420625,
1,0,0,0,0,0,0,1,triangle,star,1,0,1,0,3,0,36,2,,,,,,,,,,,,,,,,,,,,,,,,,,,,,,,,,,,,,,,,432.90092258999357,432.90092258999357,432.90092258999357,432.90092258999357,432.90092258999357,432.90092258999357,432.90092258999357,432.90092258999357,432.90092258999357,432.90092258999357,a,0.7760935600090306,10,399,1,433.70172911699046,435.2033535669907,,,,,,,,,,,,,,,,,,,,,,,,,,,,,,,,,,,,,,,,,,,,,,,,,,,,,,,,,,,,,,,,,,,,,,33061,2022-10-28_09h07.49.385,vts_reward_expectancy_bt_OFFLINE,2022.2.4,59.88539827420625,
1,0,0,0,0,1,0,0,triangle,circle,1,0,1,0,3,1,37,0,,,,,,,,,,,,,,,,,,,,,,,,,,,,,,,,,,,,,,,,435.703791471984,435.703791471984,435.703791471984,435.703791471984,435.703791471984,435.703791471984,435.703791471984,435.703791471984,435.703791471984,435.703791471984,l,0.9014012200059369,1,400,1,436.62192112900084,438.12317005798104,438.12317005798104,,,,,,,,,,,,,,,,,,,,,,,,,,,,,,,,,,,,,,,,,,,,,,,,,,,,,,,,,,,,,,,,,,,,,33061,2022-10-28_09h07.49.385,vts_reward_expectancy_bt_OFFLINE,2022.2.4,59.88539827420625,
0,0,0,1,1,0,0,0,star,triangle,1,0,1,0,3,2,38,9,,,,,,,,,,,,,,,,,,,,,,,,,,,,,,,,,,,,,,,,438.62384652197943,438.62384652197943,438.62384652197943,438.62384652197943,438.62384652197943,438.62384652197943,438.62384652197943,438.62384652197943,438.62384652197943,438.62384652197943,a,0.8041474979836494,10,410,1,439.45807207899634,440.9598629589891,,,,,,,,,,,,,,,,,,,,,,,,,,,,,,,,,,,,,,,,,,,,,,,,,,,,,,,,,,,,,,,,,,,,,,33061,2022-10-28_09h07.49.385,vts_reward_expectancy_bt_OFFLINE,2022.2.4,59.88539827420625,
0,1,0,0,1,0,0,0,circle,triangle,1,0,1,0,3,3,39,3,,,,,,,,,,,,,,,,,,,,,,,,,,,,,,,,,,,,,,,,441.4605373739905,441.4605373739905,441.4605373739905,441.4605373739905,441.4605373739905,441.4605373739905,441.4605373739905,441.4605373739905,441.4605373739905,441.4605373739905,l,1.0086081000044942,10,420,1,442.4946531750029,443.99640202498995,,,,,,,,,,,,,,,,,,,,,,,,,,,,,,,,,,,,,,,,,,,,,,,,,,,,,,,,,,,,,,,,,,,,,,33061,2022-10-28_09h07.49.385,vts_reward_expectancy_bt_OFFLINE,2022.2.4,59.88539827420625,
0,0,1,0,1,0,0,0,hexagon,triangle,1,0,1,0,3,4,40,6,,,,,,,,,,,,,,,,,,,,,,,,,,,,,,,,,,,,,,,,444.49711404700065,444.49711404700065,444.49711404700065,444.49711404700065,444.49711404700065,444.49711404700065,444.49711404700065,444.49711404700065,444.49711404700065,444.49711404700065,a,1.075766244000988,1,421,1,445.5982619719871,447.0999568979896,,,,,,,,,,,,,,,,,,,,,,,,,,,,,,,,,,,,,,,,,,,,,,,,,,,,,,,,,,,,,,,,,,,,,,33061,2022-10-28_09h07.49.385,vts_reward_expectancy_bt_OFFLINE,2022.2.4,59.88539827420625,
0,0,1,0,0,1,0,0,hexagon,circle,1,0,1,0,3,5,41,7,,,,,,,,,,,,,,,,,,,,,,,,,,,,,,,,,,,,,,,,447.60035244899336,447.60035244899336,447.60035244899336,447.60035244899336,447.60035244899336,447.60035244899336,447.60035244899336,447.60035244899336,447.60035244899336,447.60035244899336,a,2.52439089800464,1,422,1,450.1532030469971,451.6547708819853,,,,,,,,,,,,,,,,,,,,,,,,,,,,,,,,,,,,,,,,,,,,,,,,,,,,,,,,,,,,,,,,,,,,,,33061,2022-10-28_09h07.49.385,vts_reward_expectancy_bt_OFFLINE,2022.2.4,59.88539827420625,
0,0,0,1,0,0,1,0,star,hexagon,1,0,1,0,3,6,42,11,,,,,,,,,,,,,,,,,,,,,,,,,,,,,,,,,,,,,,,,452.1553682530066,452.1553682530066,452.1553682530066,452.1553682530066,452.1553682530066,452.1553682530066,452.1553682530066,452.1553682530066,452.1553682530066,452.1553682530066,a,1.0183848349843174,10,432,1,453.2066628779867,454.70825055698515,,,,,,,,,,,,,,,,,,,,,,,,,,,,,,,,,,,,,,,,,,,,,,,,,,,,,,,,,,,,,,,,,,,,,,33061,2022-10-28_09h07.49.385,vts_reward_expectancy_bt_OFFLINE,2022.2.4,59.88539827420625,
0,0,0,1,0,1,0,0,star ,circle,1,0,1,0,3,7,43,10,,,,,,,,,,,,,,,,,,,,,,,,,,,,,,,,,,,,,,,,455.2088258820004,455.2088258820004,455.2088258820004,455.2088258820004,455.2088258820004,455.2088258820004,455.2088258820004,455.2088258820004,455.2088258820004,455.2088258820004,a,1.1798760439851321,10,442,1,456.41019213799154,457.9116505889979,,,,,,,,,,,,,,,,,,,,,,,,,,,,,,,,,,,,,,,,,,,,,,,,,,,,,,,,,,,,,,,,,,,,,,33061,2022-10-28_09h07.49.385,vts_reward_expectancy_bt_OFFLINE,2022.2.4,59.88539827420625,
0,1,0,0,0,0,0,1,circle,star,1,0,1,0,3,8,44,5,,,,,,,,,,,,,,,,,,,,,,,,,,,,,,,,,,,,,,,,458.4124825549952,458.4124825549952,458.4124825549952,458.4124825549952,458.4124825549952,458.4124825549952,458.4124825549952,458.4124825549952,458.4124825549952,458.4124825549952,a,1.0877636740042362,1,443,1,459.5301046219829,461.03189694997855,,,,,,,,,,,,,,,,,,,,,,,,,,,,,,,,,,,,,,,,,,,,,,,,,,,,,,,,,,,,,,,,,,,,,,33061,2022-10-28_09h07.49.385,vts_reward_expectancy_bt_OFFLINE,2022.2.4,59.88539827420625,
0,0,1,0,0,0,0,1,hexagon,star,1,0,1,0,3,9,45,8,,,,,,,,,,,,,,,,,,,,,,,,,,,,,,,,,,,,,,,,461.5324538339919,461.5324538339919,461.5324538339919,461.5324538339919,461.5324538339919,461.5324538339919,461.5324538339919,461.5324538339919,461.5324538339919,461.5324538339919,a,0.9124144740053453,1,444,1,462.46686619499815,463.9685404089978,,,,,,,,,,,,,,,,,,,,,,,,,,,,,,,,,,,,,,,,,,,,,,,,,,,,,,,,,,,,,,,,,,,,,,33061,2022-10-28_09h07.49.385,vts_reward_expectancy_bt_OFFLINE,2022.2.4,59.88539827420625,
1,0,0,0,0,0,1,0,triangle,hexagon,1,0,1,0,3,10,46,1,,,,,,,,,,,,,,,,,,,,,,,,,,,,,,,,,,,,,,,,464.4691944929946,464.4691944929946,464.4691944929946,464.4691944929946,464.4691944929946,464.4691944929946,464.4691944929946,464.4691944929946,464.4691944929946,464.4691944929946,a,1.318953004985815,1,445,1,465.8205023589835,467.32227395198424,,,,,,,,,,,,,,,,,,,,,,,,,,,,,,,,,,,,,,,,,,,,,,,,,,,,,,,,,,,,,,,,,,,,,,33061,2022-10-28_09h07.49.385,vts_reward_expectancy_bt_OFFLINE,2022.2.4,59.88539827420625,
0,1,0,0,0,0,1,0,circle,hexagon,1,0,1,0,3,11,47,4,,,,,,,,,,,,,,,,,,,,,,,,,,,,,,,,,,,,,,,,467.8225469329918,467.8225469329918,467.8225469329918,467.8225469329918,467.8225469329918,467.8225469329918,467.8225469329918,467.8225469329918,467.8225469329918,467.8225469329918,a,1.5827733289916068,1,446,1,469.42453826699057,470.92608815198764,,,,,,,,,,,,,,,,,,,,,,,,,,,,,,,,,,,,,,,,,,,,,,,,,,,,,,,,,,,,,,,,,,,,,,33061,2022-10-28_09h07.49.385,vts_reward_expectancy_bt_OFFLINE,2022.2.4,59.88539827420625,
0,0,0,1,0,0,1,0,star,hexagon,2,0,2,0,0,0,0,11,,,,,,,,,,,,,,,,,,,,,,,,,,,,,,,,,,,,,,,,476.7827412269835,476.7827412269835,476.7827412269835,476.7827412269835,476.7827412269835,476.7827412269835,476.7827412269835,476.7827412269835,476.7827412269835,476.7827412269835,a,1.1914471780182794,10,456,2,478.0005370589788,479.5022536139877,,,,,,,,,,,,,,,,,,,,,,,,,,,,,,,,,,,,,,,,,,,,,,,,,,,,,,,,,,,,,,,,,,,,,,33061,2022-10-28_09h07.49.385,vts_reward_expectancy_bt_OFFLINE,2022.2.4,59.88539827420625,
1,0,0,0,0,1,0,0,triangle,circle,2,0,2,0,0,1,1,0,,,,,,,,,,,,,,,,,,,,,,,,,,,,,,,,,,,,,,,,480.00269148498774,480.00269148498774,480.00269148498774,480.00269148498774,480.00269148498774,480.00269148498774,480.00269148498774,480.00269148498774,480.00269148498774,480.00269148498774,l,0.7149831730057485,1,457,2,480.73698201199295,482.23867985399556,,,,,,,,,,,,,,,,,,,,,,,,,,,,,,,,,,,,,,,,,,,,,,,,,,,,,,,,,,,,,,,,,,,,,,33061,2022-10-28_09h07.49.385,vts_reward_expectancy_bt_OFFLINE,2022.2.4,59.88539827420625,
0,0,1,0,1,0,0,0,hexagon,triangle,2,0,2,0,0,2,2,6,,,,,,,,,,,,,,,,,,,,,,,,,,,,,,,,,,,,,,,,482.7390050079848,482.7390050079848,482.7390050079848,482.7390050079848,482.7390050079848,482.7390050079848,482.7390050079848,482.7390050079848,482.7390050079848,482.7390050079848,a,0.9135946099995635,1,458,2,483.67342523799744,485.17531243298436,,,,,,,,,,,,,,,,,,,,,,,,,,,,,,,,,,,,,,,,,,,,,,,,,,,,,,,,,,,,,,,,,,,,,,33061,2022-10-28_09h07.49.385,vts_reward_expectancy_bt_OFFLINE,2022.2.4,59.88539827420625,
1,0,0,0,0,0,0,1,triangle,star,2,0,2,0,0,3,3,2,,,,,,,,,,,,,,,,,,,,,,,,,,,,,,,,,,,,,,,,485.6759095979796,485.6759095979796,485.6759095979796,485.6759095979796,485.6759095979796,485.6759095979796,485.6759095979796,485.6759095979796,485.6759095979796,485.6759095979796,a,0.9205042730027344,10,468,2,486.6265626770037,488.1284568150004,,,,,,,,,,,,,,,,,,,,,,,,,,,,,,,,,,,,,,,,,,,,,,,,,,,,,,,,,,,,,,,,,,,,,,33061,2022-10-28_09h07.49.385,vts_reward_expectancy_bt_OFFLINE,2022.2.4,59.88539827420625,
0,1,0,0,0,0,1,0,circle,hexagon,2,0,2,0,0,4,4,4,,,,,,,,,,,,,,,,,,,,,,,,,,,,,,,,,,,,,,,,488.629016278981,488.629016278981,488.629016278981,488.629016278981,488.629016278981,488.629016278981,488.629016278981,488.629016278981,488.629016278981,488.629016278981,a,0.8949399860284757,1,469,2,489.5465844979917,491.048248874984,,,,,,,,,,,,,,,,,,,,,,,,,,,,,,,,,,,,,,,,,,,,,,,,,,,,,,,,,,,,,,,,,,,,,,33061,2022-10-28_09h07.49.385,vts_reward_expectancy_bt_OFFLINE,2022.2.4,59.88539827420625,
0,0,1,0,0,0,0,1,hexagon,star,2,0,2,0,0,5,5,8,,,,,,,,,,,,,,,,,,,,,,,,,,,,,,,,,,,,,,,,491.5488591619942,491.5488591619942,491.5488591619942,491.5488591619942,491.5488591619942,491.5488591619942,491.5488591619942,491.5488591619942,491.5488591619942,491.5488591619942,a,0.9355217019910924,10,479,2,492.5167929290037,494.01847644298687,,,,,,,,,,,,,,,,,,,,,,,,,,,,,,,,,,,,,,,,,,,,,,,,,,,,,,,,,,,,,,,,,,,,,,33061,2022-10-28_09h07.49.385,vts_reward_expectancy_bt_OFFLINE,2022.2.4,59.88539827420625,
0,0,0,1,1,0,0,0,star,triangle,2,0,2,0,0,6,6,9,,,,,,,,,,,,,,,,,,,,,,,,,,,,,,,,,,,,,,,,494.51891874798457,494.51891874798457,494.51891874798457,494.51891874798457,494.51891874798457,494.51891874798457,494.51891874798457,494.51891874798457,494.51891874798457,494.51891874798457,a,0.7832486889965367,10,489,2,495.3198126539937,496.82126411699574,496.82126411699574,,,,,,,,,,,,,,,,,,,,,,,,,,,,,,,,,,,,,,,,,,,,,,,,,,,,,,,,,,,,,,,,,,,,,33061,2022-10-28_09h07.49.385,vts_reward_expectancy_bt_OFFLINE,2022.2.4,59.88539827420625,
1,0,0,0,0,0,1,0,triangle,hexagon,2,0,2,0,0,7,7,1,,,,,,,,,,,,,,,,,,,,,,,,,,,,,,,,,,,,,,,,497.3220109079848,497.3220109079848,497.3220109079848,497.3220109079848,497.3220109079848,497.3220109079848,497.3220109079848,497.3220109079848,497.3220109079848,497.3220109079848,a,1.0678165429853834,10,499,2,498.4065089649812,499.90825324397883,499.90825324397883,,,,,,,,,,,,,,,,,,,,,,,,,,,,,,,,,,,,,,,,,,,,,,,,,,,,,,,,,,,,,,,,,,,,,33061,2022-10-28_09h07.49.385,vts_reward_expectancy_bt_OFFLINE,2022.2.4,59.88539827420625,
0,1,0,0,1,0,0,0,circle,triangle,2,0,2,0,0,8,8,3,,,,,,,,,,,,,,,,,,,,,,,,,,,,,,,,,,,,,,,,500.40876428000047,500.40876428000047,500.40876428000047,500.40876428000047,500.40876428000047,500.40876428000047,500.40876428000047,500.40876428000047,500.40876428000047,500.40876428000047,l,1.0685450040036812,10,509,2,501.5098551150004,503.0114894149883,,,,,,,,,,,,,,,,,,,,,,,,,,,,,,,,,,,,,,,,,,,,,,,,,,,,,,,,,,,,,,,,,,,,,,33061,2022-10-28_09h07.49.385,vts_reward_expectancy_bt_OFFLINE,2022.2.4,59.88539827420625,
0,1,0,0,0,0,0,1,circle,star,2,0,2,0,0,9,9,5,,,,,,,,,,,,,,,,,,,,,,,,,,,,,,,,,,,,,,,,503.51214881800115,503.51214881800115,503.51214881800115,503.51214881800115,503.51214881800115,503.51214881800115,503.51214881800115,503.51214881800115,503.51214881800115,503.51214881800115,a,1.533358988002874,1,510,2,505.06423354998697,506.56534267999814,506.56534267999814,,,,,,,,,,,,,,,,,,,,,,,,,,,,,,,,,,,,,,,,,,,,,,,,,,,,,,,,,,,,,,,,,,,,,33061,2022-10-28_09h07.49.385,vts_reward_expectancy_bt_OFFLINE,2022.2.4,59.88539827420625,
0,0,1,0,0,1,0,0,hexagon,circle,2,0,2,0,0,10,10,7,,,,,,,,,,,,,,,,,,,,,,,,,,,,,,,,,,,,,,,,507.0660813720024,507.0660813720024,507.0660813720024,507.0660813720024,507.0660813720024,507.0660813720024,507.0660813720024,507.0660813720024,507.0660813720024,507.0660813720024,a,1.3153083829965908,10,520,2,508.40098253198084,509.9022865589941,,,,,,,,,,,,,,,,,,,,,,,,,,,,,,,,,,,,,,,,,,,,,,,,,,,,,,,,,,,,,,,,,,,,,,33061,2022-10-28_09h07.49.385,vts_reward_expectancy_bt_OFFLINE,2022.2.4,59.88539827420625,
0,0,0,1,0,1,0,0,star ,circle,2,0,2,0,0,11,11,10,,,,,,,,,,,,,,,,,,,,,,,,,,,,,,,,,,,,,,,,510.40283708498464,510.40283708498464,510.40283708498464,510.40283708498464,510.40283708498464,510.40283708498464,510.40283708498464,510.40283708498464,510.40283708498464,510.40283708498464,a,0.7218055439880118,10,530,2,511.15383326698793,512.6554178769875,,,,,,,,,,,,,,,,,,,,,,,,,,,,,,,,,,,,,,,,,,,,,,,,,,,,,,,,,,,,,,,,,,,,,,33061,2022-10-28_09h07.49.385,vts_reward_expectancy_bt_OFFLINE,2022.2.4,59.88539827420625,
0,1,0,0,0,0,0,1,circle,star,2,0,2,0,1,0,12,5,,,,,,,,,,,,,,,,,,,,,,,,,,,,,,,,,,,,,,,,513.1559342399996,513.1559342399996,513.1559342399996,513.1559342399996,513.1559342399996,513.1559342399996,513.1559342399996,513.1559342399996,513.1559342399996,513.1559342399996,a,0.7920677100191824,1,531,2,513.9735835779866,515.4751069500053,,,,,,,,,,,,,,,,,,,,,,,,,,,,,,,,,,,,,,,,,,,,,,,,,,,,,,,,,,,,,,,,,,,,,,33061,2022-10-28_09h07.49.385,vts_reward_expectancy_bt_OFFLINE,2022.2.4,59.88539827420625,
0,0,1,0,1,0,0,0,hexagon,triangle,2,0,2,0,1,1,13,6,,,,,,,,,,,,,,,,,,,,,,,,,,,,,,,,,,,,,,,,515.9759476170002,515.9759476170002,515.9759476170002,515.9759476170002,515.9759476170002,515.9759476170002,515.9759476170002,515.9759476170002,515.9759476170002,515.9759476170002,a,0.8200916589994449,1,532,2,516.8266436439881,518.3283729949908,,,,,,,,,,,,,,,,,,,,,,,,,,,,,,,,,,,,,,,,,,,,,,,,,,,,,,,,,,,,,,,,,,,,,,33061,2022-10-28_09h07.49.385,vts_reward_expectancy_bt_OFFLINE,2022.2.4,59.88539827420625,
1,0,0,0,0,0,1,0,triangle,hexagon,2,0,2,0,1,2,14,1,,,,,,,,,,,,,,,,,,,,,,,,,,,,,,,,,,,,,,,,518.8288490669802,518.8288490669802,518.8288490669802,518.8288490669802,518.8288490669802,518.8288490669802,518.8288490669802,518.8288490669802,518.8288490669802,518.8288490669802,a,0.7683712669822853,10,542,2,519.6298237139999,521.1315799599979,,,,,,,,,,,,,,,,,,,,,,,,,,,,,,,,,,,,,,,,,,,,,,,,,,,,,,,,,,,,,,,,,,,,,,33061,2022-10-28_09h07.49.385,vts_reward_expectancy_bt_OFFLINE,2022.2.4,59.88539827420625,
0,0,1,0,0,1,0,0,hexagon,circle,2,0,2,0,1,3,15,7,,,,,,,,,,,,,,,,,,,,,,,,,,,,,,,,,,,,,,,,521.6320064739848,521.6320064739848,521.6320064739848,521.6320064739848,521.6320064739848,521.6320064739848,521.6320064739848,521.6320064739848,521.6320064739848,521.6320064739848,a,0.8605612849933095,1,543,2,522.5164896079805,524.0178409579967,,,,,,,,,,,,,,,,,,,,,,,,,,,,,,,,,,,,,,,,,,,,,,,,,,,,,,,,,,,,,,,,,,,,,,33061,2022-10-28_09h07.49.385,vts_reward_expectancy_bt_OFFLINE,2022.2.4,59.88539827420625,
0,1,0,0,1,0,0,0,circle,triangle,2,0,2,0,1,4,16,3,,,,,,,,,,,,,,,,,,,,,,,,,,,,,,,,,,,,,,,,524.5183188329975,524.5183188329975,524.5183188329975,524.5183188329975,524.5183188329975,524.5183188329975,524.5183188329975,524.5183188329975,524.5183188329975,524.5183188329975,l,0.7926718149974477,10,553,2,525.3365199230029,526.837711678003,,,,,,,,,,,,,,,,,,,,,,,,,,,,,,,,,,,,,,,,,,,,,,,,,,,,,,,,,,,,,,,,,,,,,,33061,2022-10-28_09h07.49.385,vts_reward_expectancy_bt_OFFLINE,2022.2.4,59.88539827420625,
1,0,0,0,0,1,0,0,triangle,circle,2,0,2,0,1,5,17,0,,,,,,,,,,,,,,,,,,,,,,,,,,,,,,,,,,,,,,,,527.3384279249876,527.3384279249876,527.3384279249876,527.3384279249876,527.3384279249876,527.3384279249876,527.3384279249876,527.3384279249876,527.3384279249876,527.3384279249876,l,0.6917375909979455,1,554,2,528.0559703329927,529.5573750719777,,,,,,,,,,,,,,,,,,,,,,,,,,,,,,,,,,,,,,,,,,,,,,,,,,,,,,,,,,,,,,,,,,,,,,33061,2022-10-28_09h07.49.385,vts_reward_expectancy_bt_OFFLINE,2022.2.4,59.88539827420625,
0,1,0,0,0,0,1,0,circle,hexagon,2,0,2,0,1,6,18,4,,,,,,,,,,,,,,,,,,,,,,,,,,,,,,,,,,,,,,,,530.057872284,530.057872284,530.057872284,530.057872284,530.057872284,530.057872284,530.057872284,530.057872284,530.057872284,530.057872284,a,0.7545183030015323,1,555,2,530.8422188069962,532.3438790490036,,,,,,,,,,,,,,,,,,,,,,,,,,,,,,,,,,,,,,,,,,,,,,,,,,,,,,,,,,,,,,,,,,,,,,33061,2022-10-28_09h07.49.385,vts_reward_expectancy_bt_OFFLINE,2022.2.4,59.88539827420625,
0,0,0,1,1,0,0,0,star,triangle,2,0,2,0,1,7,19,9,,,,,,,,,,,,,,,,,,,,,,,,,,,,,,,,,,,,,,,,532.8443502729933,532.8443502729933,532.8443502729933,532.8443502729933,532.8443502729933,532.8443502729933,532.8443502729933,532.8443502729933,532.8443502729933,532.8443502729933,a,0.5601615459891036,10,565,2,533.428445447993,534.9298915599938,,,,,,,,,,,,,,,,,,,,,,,,,,,,,,,,,,,,,,,,,,,,,,,,,,,,,,,,,,,,,,,,,,,,,,33061,2022-10-28_09h07.49.385,vts_reward_expectancy_bt_OFFLINE,2022.2.4,59.88539827420625,
0,0,1,0,0,0,0,1,hexagon,star,2,0,2,0,1,8,20,8,,,,,,,,,,,,,,,,,,,,,,,,,,,,,,,,,,,,,,,,535.4306490540039,535.4306490540039,535.4306490540039,535.4306490540039,535.4306490540039,535.4306490540039,535.4306490540039,535.4306490540039,535.4306490540039,535.4306490540039,a,0.5512168680143077,1,566,2,536.0146031579934,537.5161589269992,,,,,,,,,,,,,,,,,,,,,,,,,,,,,,,,,,,,,,,,,,,,,,,,,,,,,,,,,,,,,,,,,,,,,,33061,2022-10-28_09h07.49.385,vts_reward_expectancy_bt_OFFLINE,2022.2.4,59.88539827420625,
0,0,0,1,0,0,1,0,star,hexagon,2,0,2,0,1,9,21,11,,,,,,,,,,,,,,,,,,,,,,,,,,,,,,,,,,,,,,,,538.0167128369794,538.0167128369794,538.0167128369794,538.0167128369794,538.0167128369794,538.0167128369794,538.0167128369794,538.0167128369794,538.0167128369794,538.0167128369794,a,0.8033170579874422,10,576,2,538.850910307985,540.3525504029822,,,,,,,,,,,,,,,,,,,,,,,,,,,,,,,,,,,,,,,,,,,,,,,,,,,,,,,,,,,,,,,,,,,,,,33061,2022-10-28_09h07.49.385,vts_reward_expectancy_bt_OFFLINE,2022.2.4,59.88539827420625,
1,0,0,0,0,0,0,1,triangle,star,2,0,2,0,1,10,22,2,,,,,,,,,,,,,,,,,,,,,,,,,,,,,,,,,,,,,,,,540.8533227870066,540.8533227870066,540.8533227870066,540.8533227870066,540.8533227870066,540.8533227870066,540.8533227870066,540.8533227870066,540.8533227870066,540.8533227870066,a,0.5749722839973401,1,577,2,541.4545366499806,542.9555083989981,,,,,,,,,,,,,,,,,,,,,,,,,,,,,,,,,,,,,,,,,,,,,,,,,,,,,,,,,,,,,,,,,,,,,,33061,2022-10-28_09h07.49.385,vts_reward_expectancy_bt_OFFLINE,2022.2.4,59.88539827420625,
0,0,0,1,0,1,0,0,star ,circle,2,0,2,0,1,11,23,10,,,,,,,,,,,,,,,,,,,,,,,,,,,,,,,,,,,,,,,,543.4561581079906,543.4561581079906,543.4561581079906,543.4561581079906,543.4561581079906,543.4561581079906,543.4561581079906,543.4561581079906,543.4561581079906,543.4561581079906,a,0.5879314859921578,1,578,2,544.0734974420047,545.5751329500054,,,,,,,,,,,,,,,,,,,,,,,,,,,,,,,,,,,,,,,,,,,,,,,,,,,,,,,,,,,,,,,,,,,,,,33061,2022-10-28_09h07.49.385,vts_reward_expectancy_bt_OFFLINE,2022.2.4,59.88539827420625,
0,1,0,0,0,0,0,1,circle,star,2,0,2,0,2,0,24,5,,,,,,,,,,,,,,,,,,,,,,,,,,,,,,,,,,,,,,,,546.0758940439846,546.0758940439846,546.0758940439846,546.0758940439846,546.0758940439846,546.0758940439846,546.0758940439846,546.0758940439846,546.0758940439846,546.0758940439846,a,0.6745236949936952,1,579,2,546.7765970879991,548.2780751749815,,,,,,,,,,,,,,,,,,,,,,,,,,,,,,,,,,,,,,,,,,,,,,,,,,,,,,,,,,,,,,,,,,,,,,33061,2022-10-28_09h07.49.385,vts_reward_expectancy_bt_OFFLINE,2022.2.4,59.88539827420625,
0,0,1,0,0,0,0,1,hexagon,star,2,0,2,0,2,1,25,8,,,,,,,,,,,,,,,,,,,,,,,,,,,,,,,,,,,,,,,,548.7787619739829,548.7787619739829,548.7787619739829,548.7787619739829,548.7787619739829,548.7787619739829,548.7787619739829,548.7787619739829,548.7787619739829,548.7787619739829,a,0.7932626499969047,10,589,2,549.5965636449982,551.0978307579935,,,,,,,,,,,,,,,,,,,,,,,,,,,,,,,,,,,,,,,,,,,,,,,,,,,,,,,,,,,,,,,,,,,,,,33061,2022-10-28_09h07.49.385,vts_reward_expectancy_bt_OFFLINE,2022.2.4,59.88539827420625,
1,0,0,0,0,1,0,0,triangle,circle,2,0,2,0,2,2,26,0,,,,,,,,,,,,,,,,,,,,,,,,,,,,,,,,,,,,,,,,551.5986811289913,551.5986811289913,551.5986811289913,551.5986811289913,551.5986811289913,551.5986811289913,551.5986811289913,551.5986811289913,551.5986811289913,551.5986811289913,l,0.8460126709833276,1,590,2,552.4668435869971,553.9676235590014,,,,,,,,,,,,,,,,,,,,,,,,,,,,,,,,,,,,,,,,,,,,,,,,,,,,,,,,,,,,,,,,,,,,,,33061,2022-10-28_09h07.49.385,vts_reward_expectancy_bt_OFFLINE,2022.2.4,59.88539827420625,
0,0,0,1,1,0,0,0,star,triangle,2,0,2,0,2,3,27,9,,,,,,,,,,,,,,,,,,,,,,,,,,,,,,,,,,,,,,,,554.4682355139812,554.4682355139812,554.4682355139812,554.4682355139812,554.4682355139812,554.4682355139812,554.4682355139812,554.4682355139812,554.4682355139812,554.4682355139812,a,0.6419635130150709,10,600,2,555.1359474489873,556.6374786289816,,,,,,,,,,,,,,,,,,,,,,,,,,,,,,,,,,,,,,,,,,,,,,,,,,,,,,,,,,,,,,,,,,,,,,33061,2022-10-28_09h07.49.385,vts_reward_expectancy_bt_OFFLINE,2022.2.4,59.88539827420625,
1,0,0,0,0,0,1,0,triangle,hexagon,2,0,2,0,2,4,28,1,,,,,,,,,,,,,,,,,,,,,,,,,,,,,,,,,,,,,,,,557.1379860180023,557.1379860180023,557.1379860180023,557.1379860180023,557.1379860180023,557.1379860180023,557.1379860180023,557.1379860180023,557.1379860180023,557.1379860180023,a,0.8263347579922993,10,610,2,557.9889461839921,559.4904167829955,,,,,,,,,,,,,,,,,,,,,,,,,,,,,,,,,,,,,,,,,,,,,,,,,,,,,,,,,,,,,,,,,,,,,,33061,2022-10-28_09h07.49.385,vts_reward_expectancy_bt_OFFLINE,2022.2.4,59.88539827420625,
0,1,0,0,0,0,1,0,circle,hexagon,2,0,2,0,2,5,29,4,,,,,,,,,,,,,,,,,,,,,,,,,,,,,,,,,,,,,,,,559.9910598470015,559.9910598470015,559.9910598470015,559.9910598470015,559.9910598470015,559.9910598470015,559.9910598470015,559.9910598470015,559.9910598470015,559.9910598470015,a,1.3590479970152956,1,611,2,561.3763632990012,562.8775382239837,,,,,,,,,,,,,,,,,,,,,,,,,,,,,,,,,,,,,,,,,,,,,,,,,,,,,,,,,,,,,,,,,,,,,,33061,2022-10-28_09h07.49.385,vts_reward_expectancy_bt_OFFLINE,2022.2.4,59.88539827420625,
1,0,0,0,0,0,0,1,triangle,star,2,0,2,0,2,6,30,2,,,,,,,,,,,,,,,,,,,,,,,,,,,,,,,,,,,,,,,,563.3782441380026,563.3782441380026,563.3782441380026,563.3782441380026,563.3782441380026,563.3782441380026,563.3782441380026,563.3782441380026,563.3782441380026,563.3782441380026,a,0.90888201497728,10,621,2,564.3126947149867,565.8140490789956,,,,,,,,,,,,,,,,,,,,,,,,,,,,,,,,,,,,,,,,,,,,,,,,,,,,,,,,,,,,,,,,,,,,,,33061,2022-10-28_09h07.49.385,vts_reward_expectancy_bt_OFFLINE,2022.2.4,59.88539827420625,
0,0,1,0,0,1,0,0,hexagon,circle,2,0,2,0,2,7,31,7,,,,,,,,,,,,,,,,,,,,,,,,,,,,,,,,,,,,,,,,566.314717242989,566.314717242989,566.314717242989,566.314717242989,566.314717242989,566.314717242989,566.314717242989,566.314717242989,566.314717242989,566.314717242989,a,0.7063777960138395,1,622,2,567.0490880889993,568.5505757869978,,,,,,,,,,,,,,,,,,,,,,,,,,,,,,,,,,,,,,,,,,,,,,,,,,,,,,,,,,,,,,,,,,,,,,33061,2022-10-28_09h07.49.385,vts_reward_expectancy_bt_OFFLINE,2022.2.4,59.88539827420625,
0,0,1,0,1,0,0,0,hexagon,triangle,2,0,2,0,2,8,32,6,,,,,,,,,,,,,,,,,,,,,,,,,,,,,,,,,,,,,,,,569.0509734769876,569.0509734769876,569.0509734769876,569.0509734769876,569.0509734769876,569.0509734769876,569.0509734769876,569.0509734769876,569.0509734769876,569.0509734769876,a,1.0187445179908536,1,623,2,570.102282095002,571.6038052469958,571.6038052469958,,,,,,,,,,,,,,,,,,,,,,,,,,,,,,,,,,,,,,,,,,,,,,,,,,,,,,,,,,,,,,,,,,,,,33061,2022-10-28_09h07.49.385,vts_reward_expectancy_bt_OFFLINE,2022.2.4,59.88539827420625,
0,0,0,1,0,1,0,0,star ,circle,2,0,2,0,2,9,33,10,,,,,,,,,,,,,,,,,,,,,,,,,,,,,,,,,,,,,,,,572.1044089100033,572.1044089100033,572.1044089100033,572.1044089100033,572.1044089100033,572.1044089100033,572.1044089100033,572.1044089100033,572.1044089100033,572.1044089100033,a,1.1094278670207132,1,624,2,573.2390155099856,574.740544626984,574.740544626984,,,,,,,,,,,,,,,,,,,,,,,,,,,,,,,,,,,,,,,,,,,,,,,,,,,,,,,,,,,,,,,,,,,,,33061,2022-10-28_09h07.49.385,vts_reward_expectancy_bt_OFFLINE,2022.2.4,59.88539827420625,
0,1,0,0,1,0,0,0,circle,triangle,2,0,2,0,2,10,34,3,,,,,,,,,,,,,,,,,,,,,,,,,,,,,,,,,,,,,,,,575.2411712429894,575.2411712429894,575.2411712429894,575.2411712429894,575.2411712429894,575.2411712429894,575.2411712429894,575.2411712429894,575.2411712429894,575.2411712429894,l,0.9866877050080802,10,634,2,576.2589081689948,577.7607849119813,,,,,,,,,,,,,,,,,,,,,,,,,,,,,,,,,,,,,,,,,,,,,,,,,,,,,,,,,,,,,,,,,,,,,,33061,2022-10-28_09h07.49.385,vts_reward_expectancy_bt_OFFLINE,2022.2.4,59.88539827420625,
0,0,0,1,0,0,1,0,star,hexagon,2,0,2,0,2,11,35,11,,,,,,,,,,,,,,,,,,,,,,,,,,,,,,,,,,,,,,,,578.2610889369971,578.2610889369971,578.2610889369971,578.2610889369971,578.2610889369971,578.2610889369971,578.2610889369971,578.2610889369971,578.2610889369971,578.2610889369971,a,0.7029117920028511,1,635,2,578.9952172649791,580.4968984079896,,,,,,,,,,,,,,,,,,,,,,,,,,,,,,,,,,,,,,,,,,,,,,,,,,,,,,,,,,,,,,,,,,,,,,33061,2022-10-28_09h07.49.385,vts_reward_expectancy_bt_OFFLINE,2022.2.4,59.88539827420625,
1,0,0,0,0,1,0,0,triangle,circle,2,0,2,0,3,0,36,0,,,,,,,,,,,,,,,,,,,,,,,,,,,,,,,,,,,,,,,,580.9974445269909,580.9974445269909,580.9974445269909,580.9974445269909,580.9974445269909,580.9974445269909,580.9974445269909,580.9974445269909,580.9974445269909,580.9974445269909,l,0.6794659469742328,1,636,2,581.6983582929824,583.19987536798,,,,,,,,,,,,,,,,,,,,,,,,,,,,,,,,,,,,,,,,,,,,,,,,,,,,,,,,,,,,,,,,,,,,,,33061,2022-10-28_09h07.49.385,vts_reward_expectancy_bt_OFFLINE,2022.2.4,59.88539827420625,
0,1,0,0,0,0,0,1,circle,star,2,0,2,0,3,1,37,5,,,,,,,,,,,,,,,,,,,,,,,,,,,,,,,,,,,,,,,,583.7005606669991,583.7005606669991,583.7005606669991,583.7005606669991,583.7005606669991,583.7005606669991,583.7005606669991,583.7005606669991,583.7005606669991,583.7005606669991,a,0.7443243880115915,1,637,2,584.468061816995,585.969531159004,,,,,,,,,,,,,,,,,,,,,,,,,,,,,,,,,,,,,,,,,,,,,,,,,,,,,,,,,,,,,,,,,,,,,,33061,2022-10-28_09h07.49.385,vts_reward_expectancy_bt_OFFLINE,2022.2.4,59.88539827420625,
0,0,0,1,1,0,0,0,star,triangle,2,0,2,0,3,2,38,9,,,,,,,,,,,,,,,,,,,,,,,,,,,,,,,,,,,,,,,,586.4703309350007,586.4703309350007,586.4703309350007,586.4703309350007,586.4703309350007,586.4703309350007,586.4703309350007,586.4703309350007,586.4703309350007,586.4703309350007,a,0.5999648769793566,10,647,2,587.088439063984,588.5893042719981,588.5893042719981,,,,,,,,,,,,,,,,,,,,,,,,,,,,,,,,,,,,,,,,,,,,,,,,,,,,,,,,,,,,,,,,,,,,,33061,2022-10-28_09h07.49.385,vts_reward_expectancy_bt_OFFLINE,2022.2.4,59.88539827420625,
0,0,1,0,1,0,0,0,hexagon,triangle,2,0,2,0,3,3,39,6,,,,,,,,,,,,,,,,,,,,,,,,,,,,,,,,,,,,,,,,589.0898664679844,589.0898664679844,589.0898664679844,589.0898664679844,589.0898664679844,589.0898664679844,589.0898664679844,589.0898664679844,589.0898664679844,589.0898664679844,a,1.146904627996264,1,648,2,590.2588803539984,591.7596014299779,591.7596014299779,,,,,,,,,,,,,,,,,,,,,,,,,,,,,,,,,,,,,,,,,,,,,,,,,,,,,,,,,,,,,,,,,,,,,33061,2022-10-28_09h07.49.385,vts_reward_expectancy_bt_OFFLINE,2022.2.4,59.88539827420625,
0,1,0,0,0,0,1,0,circle,hexagon,2,0,2,0,3,4,40,4,,,,,,,,,,,,,,,,,,,,,,,,,,,,,,,,,,,,,,,,592.2601031789964,592.2601031789964,592.2601031789964,592.2601031789964,592.2601031789964,592.2601031789964,592.2601031789964,592.2601031789964,592.2601031789964,592.2601031789964,l,0.9289291470195167,1,649,2,593.2112287629861,594.7128763599903,,,,,,,,,,,,,,,,,,,,,,,,,,,,,,,,,,,,,,,,,,,,,,,,,,,,,,,,,,,,,,,,,,,,,,33061,2022-10-28_09h07.49.385,vts_reward_expectancy_bt_OFFLINE,2022.2.4,59.88539827420625,
0,0,1,0,0,0,0,1,hexagon,star,2,0,2,0,3,5,41,8,,,,,,,,,,,,,,,,,,,,,,,,,,,,,,,,,,,,,,,,595.2132330089808,595.2132330089808,595.2132330089808,595.2132330089808,595.2132330089808,595.2132330089808,595.2132330089808,595.2132330089808,595.2132330089808,595.2132330089808,a,2.6080618029809557,1,650,2,597.8495474069787,599.3512597499939,,,,,,,,,,,,,,,,,,,,,,,,,,,,,,,,,,,,,,,,,,,,,,,,,,,,,,,,,,,,,,,,,,,,,,33061,2022-10-28_09h07.49.385,vts_reward_expectancy_bt_OFFLINE,2022.2.4,59.88539827420625,
0,0,0,1,0,0,1,0,star,hexagon,2,0,2,0,3,6,42,11,,,,,,,,,,,,,,,,,,,,,,,,,,,,,,,,,,,,,,,,599.851597662986,599.851597662986,599.851597662986,599.851597662986,599.851597662986,599.851597662986,599.851597662986,599.851597662986,599.851597662986,599.851597662986,a,1.9612273749953602,10,660,2,601.8378730249824,603.3389226539875,,,,,,,,,,,,,,,,,,,,,,,,,,,,,,,,,,,,,,,,,,,,,,,,,,,,,,,,,,,,,,,,,,,,,,33061,2022-10-28_09h07.49.385,vts_reward_expectancy_bt_OFFLINE,2022.2.4,59.88539827420625,
0,0,1,0,0,1,0,0,hexagon,circle,2,0,2,0,3,7,43,7,,,,,,,,,,,,,,,,,,,,,,,,,,,,,,,,,,,,,,,,603.8393576319795,603.8393576319795,603.8393576319795,603.8393576319795,603.8393576319795,603.8393576319795,603.8393576319795,603.8393576319795,603.8393576319795,603.8393576319795,a,1.7349616139836144,1,661,2,605.5922668839921,607.0931768399896,607.0931768399896,,,,,,,,,,,,,,,,,,,,,,,,,,,,,,,,,,,,,,,,,,,,,,,,,,,,,,,,,,,,,,,,,,,,,33061,2022-10-28_09h07.49.385,vts_reward_expectancy_bt_OFFLINE,2022.2.4,59.88539827420625,
1,0,0,0,0,0,0,1,triangle,star,2,0,2,0,3,8,44,2,,,,,,,,,,,,,,,,,,,,,,,,,,,,,,,,,,,,,,,,607.5936480819946,607.5936480819946,607.5936480819946,607.5936480819946,607.5936480819946,607.5936480819946,607.5936480819946,607.5936480819946,607.5936480819946,607.5936480819946,a,4.099541784002213,10,671,2,611.7155270699877,613.2163484949851,,,,,,,,,,,,,,,,,,,,,,,,,,,,,,,,,,,,,,,,,,,,,,,,,,,,,,,,,,,,,,,,,,,,,,33061,2022-10-28_09h07.49.385,vts_reward_expectancy_bt_OFFLINE,2022.2.4,59.88539827420625,
0,1,0,0,1,0,0,0,circle,triangle,2,0,2,0,3,9,45,3,,,,,,,,,,,,,,,,,,,,,,,,,,,,,,,,,,,,,,,,613.7170007179957,613.7170007179957,613.7170007179957,613.7170007179957,613.7170007179957,613.7170007179957,613.7170007179957,613.7170007179957,613.7170007179957,613.7170007179957,l,1.8096754330035765,10,681,2,615.5522513350006,617.0538907299924,,,,,,,,,,,,,,,,,,,,,,,,,,,,,,,,,,,,,,,,,,,,,,,,,,,,,,,,,,,,,,,,,,,,,,33061,2022-10-28_09h07.49.385,vts_reward_expectancy_bt_OFFLINE,2022.2.4,59.88539827420625,
1,0,0,0,0,0,1,0,triangle,hexagon,2,0,2,0,3,10,46,1,,,,,,,,,,,,,,,,,,,,,,,,,,,,,,,,,,,,,,,,617.5544074600039,617.5544074600039,617.5544074600039,617.5544074600039,617.5544074600039,617.5544074600039,617.5544074600039,617.5544074600039,617.5544074600039,617.5544074600039,a,3.641749959992012,10,691,2,621.2252825589967,622.7268567940046,,,,,,,,,,,,,,,,,,,,,,,,,,,,,,,,,,,,,,,,,,,,,,,,,,,,,,,,,,,,,,,,,,,,,,33061,2022-10-28_09h07.49.385,vts_reward_expectancy_bt_OFFLINE,2022.2.4,59.88539827420625,
0,0,0,1,0,1,0,0,star ,circle,2,0,2,0,3,11,47,10,,,,,,,,,,,,,,,,,,,,,,,,,,,,,,,,,,,,,,,,623.2273841669958,623.2273841669958,623.2273841669958,623.2273841669958,623.2273841669958,623.2273841669958,623.2273841669958,623.2273841669958,623.2273841669958,623.2273841669958,a,1.7207883550145198,10,701,2,624.9794362989778,626.481118473981,626.481118473981,,,,,,,,,,,,,,,,,,,,,,,,,,,,,,,,,,,,,,,,,,,,,,,,,,,,,,,,,,,,,,,,,,,,,33061,2022-10-28_09h07.49.385,vts_reward_expectancy_bt_OFFLINE,2022.2.4,59.88539827420625,
,,,,,,,,,,,,,,,,,,0,0,0,0,0,0,0,0,,,,,,,,,,,,,,,,,,,,,,,,,,,,,,,,,,,,,,,,,,,,,,,,671.764392727986,,,S,167,star,0.0021307469869498163,666.1921991829877,667.6931149479933,667.6931149479933,667.6931149479933,1,0,f,2.536940647987649,0,670.2630991849874,,,,,,,,,,,,,,,,,,,,,,,,,,,,,,,,,,,,,,,,,,,,,,,,,,,,,,33061,2022-10-28_09h07.49.385,vts_reward_expectancy_bt_OFFLINE,2022.2.4,59.88539827420625,
,,,,,,,,,,,,,,,,,,0,0,0,0,1,0,1,0,,,,,,,,,,,,,,,,,,,,,,,,,,,,,,,,,,,,,,,,,,,,,,,,676.8200146519812,,,Y,139,circle,0.001218410994624719,672.7491628220014,674.2504480819916,674.2504480819916,674.2504480819916,1,0,f,1.0418933230102994,0,675.3182988449989,,,,,,,,,,,,,,,,,,,,,,,,,,,,,,,,,,,,,,,,,,,,,,,,,,,,,,33061,2022-10-28_09h07.49.385,vts_reward_expectancy_bt_OFFLINE,2022.2.4,59.88539827420625,
,,,,,,,,,,,,,,,,,,0,0,0,0,2,0,2,0,,,,,,,,,,,,,,,,,,,,,,,,,,,,,,,,,,,,,,,,,,,,,,,,682.1591170299798,,,D,181,triangle,0.001122562971431762,677.8045970189851,679.3058914519788,679.3058914519788,679.3058914519788,1,0,d,1.3248312280047685,0,680.6574043629807,,,,,,,,,,,,,,,,,,,,,,,,,,,,,,,,,,,,,,,,,,,,,,,,,,,,,,33061,2022-10-28_09h07.49.385,vts_reward_expectancy_bt_OFFLINE,2022.2.4,59.88539827420625,
,,,,,,,,,,,,,,,,,,0,0,0,0,3,0,3,0,,,,,,,,,,,,,,,,,,,,,,,,,,,,,,,,,,,,,,,,,,,,,,,,687.6652976019832,,,U,174,hexagon,0.001238852011738345,683.1439992969972,684.6453674969962,684.6453674969962,684.6453674969962,1,0,f,1.4951542459893972,0,686.1634219620028,,,,,,,,,,,,,,,,,,,,,,,,,,,,,,,,,,,,,,,,,,,,,,,,,,,,,,33061,2022-10-28_09h07.49.385,vts_reward_expectancy_bt_OFFLINE,2022.2.4,59.88539827420625,
,,,,,,,,,,,,,,,,,,0,0,0,0,4,0,4,0,,,,,,,,,,,,,,,,,,,,,,,,,,,,,,,,,,,,,,,,,,,,,,,,692.5706300750026,,,F,146,hexagon,0.001117826992413029,688.6494927140011,690.151378954004,690.151378954004,690.151378954004,1,0,d,0.8931753039942123,0,691.068952437985,,,,,,,,,,,,,,,,,,,,,,,,,,,,,,,,,,,,,,,,,,,,,,,,,,,,,,33061,2022-10-28_09h07.49.385,vts_reward_expectancy_bt_OFFLINE,2022.2.4,59.88539827420625,
,,,,,,,,,,,,,,,,,,0,0,0,0,5,0,5,0,,,,,,,,,,,,,,,,,,,,,,,,,,,,,,,,,,,,,,,,,,,,,,,,698.1603202219994,,,H,132,star,0.0011716099979821593,693.5549756289984,695.056886632985,695.056886632985,695.056886632985,1,0,d,1.5792276200081687,0,696.65839696498,,,,,,,,,,,,,,,,,,,,,,,,,,,,,,,,,,,,,,,,,,,,,,,,,,,,,,33061,2022-10-28_09h07.49.385,vts_reward_expectancy_bt_OFFLINE,2022.2.4,59.88539827420625,
,,,,,,,,,,,,,,,,,,0,0,0,0,6,0,6,0,,,,,,,,,,,,,,,,,,,,,,,,,,,,,,,,,,,,,,,,,,,,,,,,703.3657834769983,,,B,125,circle,0.0011527989991009235,699.145140366978,700.6460913589981,700.6460913589981,700.6460913589981,1,0,d,1.191788258991437,0,701.8643056300061,,,,,,,,,,,,,,,,,,,,,,,,,,,,,,,,,,,,,,,,,,,,,,,,,,,,,,33061,2022-10-28_09h07.49.385,vts_reward_expectancy_bt_OFFLINE,2022.2.4,59.88539827420625,
,,,,,,,,,,,,,,,,,,0,0,0,0,7,0,7,0,,,,,,,,,,,,,,,,,,,,,,,,,,,,,,,,,,,,,,,,,,,,,,,,708.2380506869813,,,W,160,triangle,0.0014867360005155206,704.3503796189907,705.8518989419972,705.8518989419972,705.8518989419972,1,0,f,0.8575836749805603,0,706.7360847519885,,,,,,,,,,,,,,,,,,,,,,,,,,,,,,,,,,,,,,,,,,,,,,,,,,,,,,33061,2022-10-28_09h07.49.385,vts_reward_expectancy_bt_OFFLINE,2022.2.4,59.88539827420625,
,,,,,,,,,,,,,,,,,,0,0,0,0,8,0,8,0,,,,,,,,,,,,,,,,,,,,,,,,,,,,,,,,,,,,,,,,,,,,,,,,714.0274539789825,,,S,167,star,0.0012280239898245782,709.222511422995,710.7238207399787,710.7238207399787,710.7238207399787,1,0,f,1.776494501013076,0,712.5259090379986,,,,,,,,,,,,,,,,,,,,,,,,,,,,,,,,,,,,,,,,,,,,,,,,,,,,,,33061,2022-10-28_09h07.49.385,vts_reward_expectancy_bt_OFFLINE,2022.2.4,59.88539827420625,
,,,,,,,,,,,,,,,,,,0,0,0,0,9,0,9,0,,,,,,,,,,,,,,,,,,,,,,,,,,,,,,,,,,,,,,,,,,,,,,,,718.9331654220005,,,Y,139,hexagon,0.00114916599704884,715.0119875299861,716.5136282269959,716.5136282269959,716.5136282269959,1,0,f,0.8996594579948578,0,717.4312960749958,718.9331654220005,,,,,,,,,,,,,,,,,,,,,,,,,,,,,,,,,,,,,,,,,,,,,,,,,,,,,33061,2022-10-28_09h07.49.385,vts_reward_expectancy_bt_OFFLINE,2022.2.4,59.88539827420625,
,,,,,,,,,,,,,,,,,,,,,,,,,,0,0,0,0,0,0,0,0,,,,,,,,,,,,,,,,,,,,,,,,,,,,,,,,,,,,,,,,747.0641629069869,,,H,139,circle,0.0013093649758957326,,,,,1,0,,,1,745.5625571239798,,742.9097403049818,744.4112131689908,744.4112131689908,744.4112131689908,j,1.1221628280181903,,,,,,,,,,,,,,,,,,,,,,,,,,,,,,,,,,,,,,,,,,,,,,,33061,2022-10-28_09h07.49.385,vts_reward_expectancy_bt_OFFLINE,2022.2.4,59.88539827420625,
,,,,,,,,,,,,,,,,,,,,,,,,,,0,0,0,0,1,0,1,0,,,,,,,,,,,,,,,,,,,,,,,,,,,,,,,,,,,,,,,,751.9696569619991,,,Y,181,star,0.0011703150230459869,,,,,1,0,,,1,750.4681114940031,,748.0485867550015,749.5501895920024,749.5501895920024,749.5501895920024,k,0.893982806999702,,,,,,,,,,,,,,,,,,,,,,,,,,,,,,,,,,,,,,,,,,,,,,,33061,2022-10-28_09h07.49.385,vts_reward_expectancy_bt_OFFLINE,2022.2.4,59.88539827420625,
,,,,,,,,,,,,,,,,,,,,,,,,,,0,0,0,0,2,0,2,0,,,,,,,,,,,,,,,,,,,,,,,,,,,,,,,,,,,,,,,,756.657935027004,,,F,125,triangle,0.0012020939902868122,,,,,1,0,,,1,755.1564833890006,,752.9539668179932,754.455689563998,754.455689563998,754.455689563998,j,0.677122966008028,,,,,,,,,,,,,,,,,,,,,,,,,,,,,,,,,,,,,,,,,,,,,,,33061,2022-10-28_09h07.49.385,vts_reward_expectancy_bt_OFFLINE,2022.2.4,59.88539827420625,
,,,,,,,,,,,,,,,,,,,,,,,,,,0,0,0,0,3,0,3,0,,,,,,,,,,,,,,,,,,,,,,,,,,,,,,,,,,,,,,,,761.5802355269843,,,B,167,hexagon,0.0014722439809702337,,,,,1,0,,,1,760.0783054140047,,757.6425047889934,759.143959078996,759.143959078996,759.143959078996,k,0.9088619499816559,,,,,,,,,,,,,,,,,,,,,,,,,,,,,,,,,,,,,,,,,,,,,,,33061,2022-10-28_09h07.49.385,vts_reward_expectancy_bt_OFFLINE,2022.2.4,59.88539827420625,
,,,,,,,,,,,,,,,,,,,,,,,,,,0,0,0,0,4,0,4,0,,,,,,,,,,,,,,,,,,,,,,,,,,,,,,,,,,,,,,,,766.6022937420057,,767.1027979390055,D,132,star,0.0010542139934841543,,,,,1,0,,,1,765.1009421139897,766.6022937420057,762.5644640690007,764.0661927119945,764.0661927119945,764.0661927119945,j,1.0025321260036435,,,,,,,,,,,,,,,,,,,,,,,,,,,,,,,,,,,,,,,,,,,,,,,33061,2022-10-28_09h07.49.385,vts_reward_expectancy_bt_OFFLINE,2022.2.4,59.88539827420625,
,,,,,,,,,,,,,,,,,,,,,,,,,,0,0,0,0,5,0,5,0,,,,,,,,,,,,,,,,,,,,,,,,,,,,,,,,,,,,,,,,771.3242403299955,,,W,174,triangle,0.0005636969872284681,,,,,1,0,,,1,769.822438008996,,767.5866508419858,769.0884158999834,769.0884158999834,769.0884158999834,k,0.7019794100197032,,,,,,,,,,,,,,,,,,,,,,,,,,,,,,,,,,,,,,,,,,,,,,,33061,2022-10-28_09h07.49.385,vts_reward_expectancy_bt_OFFLINE,2022.2.4,59.88539827420625,
,,,,,,,,,,,,,,,,,,,,,,,,,,0,0,0,0,6,0,6,0,,,,,,,,,,,,,,,,,,,,,,,,,,,,,,,,,,,,,,,,776.4131388120004,,,S,160,circle,0.0015257170016411692,,,,,1,0,,,1,774.9113501919783,,772.3086894000007,773.8102310049871,773.8102310049871,773.8102310049871,k,1.083645153004909,,,,,,,,,,,,,,,,,,,,,,,,,,,,,,,,,,,,,,,,,,,,,,,33061,2022-10-28_09h07.49.385,vts_reward_expectancy_bt_OFFLINE,2022.2.4,59.88539827420625,
,,,,,,,,,,,,,,,,,,,,,,,,,,0,0,0,0,7,0,7,0,,,,,,,,,,,,,,,,,,,,,,,,,,,,,,,,,,,,,,,,781.8857915999833,,,U,146,hexagon,0.0012110690004192293,,,,,1,0,,,1,780.3840707189811,781.8857915999833,777.3974866999779,778.8991452649934,778.8991452649934,778.8991452649934,j,1.466027407994261,,,,,,,,,,,,,,,,,,,,,,,,,,,,,,,,,,,,,,,,,,,,,,,33061,2022-10-28_09h07.49.385,vts_reward_expectancy_bt_OFFLINE,2022.2.4,59.88539827420625,
,,,,,,,,,,,,,,,,,,,,,,,,,,0,0,0,0,8,0,8,0,,,,,,,,,,,,,,,,,,,,,,,,,,,,,,,,,,,,,,,,786.6744372129906,,,H,139,triangle,0.0008680030005052686,,,,,1,0,,,1,785.172767459997,,782.8701858340064,784.3719038520067,784.3719038520067,784.3719038520067,j,0.7689454790088348,,,,,,,,,,,,,,,,,,,,,,,,,,,,,,,,,,,,,,,,,,,,,,,33061,2022-10-28_09h07.49.385,vts_reward_expectancy_bt_OFFLINE,2022.2.4,59.88539827420625,
,,,,,,,,,,,,,,,,,,,,,,,,,,0,0,0,0,9,0,9,0,,,,,,,,,,,,,,,,,,,,,,,,,,,,,,,,,,,,,,,,791.4464214619948,,,Y,181,star,0.001223900995682925,,,,,1,0,,,1,789.9448603719939,791.4464214619948,787.658955263003,789.1605336729845,789.1605336729845,789.1605336729845,k,0.7648496009933297,,,,,,,,,,,,,,,,,,,,,,,,,,,,,,,,,,,,,,,,,,,,,,,33061,2022-10-28_09h07.49.385,vts_reward_expectancy_bt_OFFLINE,2022.2.4,59.88539827420625,
,,,,,,,,,,,,,,,,,,,,,,,,,,,,,,,,,,0,0,0,0,0,0,0,0,,,,,,,,,,,,,,,,,,,,,,,,,,,,0,701,,,846.1232779699785,,,H,139,star,0.002028746996074915,,,,,1,0,,,2,,,,,,,,,840.4837042589788,840.4837042589788,840.4837042589788,840.4837042589788,841.9686826639809,841.9686826639809,841.9686826639809,841.9686826639809,841.9854297849815,841.9854297849815,841.9854297849815,841.9854297849815,-1,letter,NA,d,2.627569944015704,vtsPrac,844.6382914370042,,,,,,,,,,,,,,,,,,,,,,,,,,,,33061,2022-10-28_09h07.49.385,vts_reward_expectancy_bt_OFFLINE,2022.2.4,59.88539827420625,
,,,,,,,,,,,,,,,,,,,,,,,,,,,,,,,,,,0,0,0,0,1,0,1,0,,,,,,,,,,,,,,,,,,,,,,,,,,,,0,701,,,851.3126481329964,,,F,125,hexagon,0.0013403579941950738,,,,,1,0,,,2,,,,,,,,,847.1089559840038,847.1089559840038,847.1089559840038,847.1089559840038,848.609560604993,848.609560604993,848.609560604993,848.609560604993,848.609560604993,848.609560604993,848.609560604993,848.609560604993,repeat,letter,lettRpt,d,1.179465203982545,vtsPrac,849.8111538579979,,,,,,,,,,,,,,,,,,,,,,,,,,,,33061,2022-10-28_09h07.49.385,vts_reward_expectancy_bt_OFFLINE,2022.2.4,59.88539827420625,
,,,,,,,,,,,,,,,,,,,,,,,,,,,,,,,,,,0,0,0,0,2,0,2,0,,,,,,,,,,,,,,,,,,,,,,,,,,,,0,701,,,856.4179898650036,,,W,132,triangle,0.0013016049924772233,,,,,1,0,,,2,,,,,,,,,852.2968219349859,852.2968219349859,852.2968219349859,852.2968219349859,853.7985439949844,853.7985439949844,853.7985439949844,853.7985439949844,853.7985439949844,853.7985439949844,853.7985439949844,853.7985439949844,repeat,letter,lettRpt,f,1.0940955810074229,vtsPrac,854.9164439250017,,,,,,,,,,,,,,,,,,,,,,,,,,,,33061,2022-10-28_09h07.49.385,vts_reward_expectancy_bt_OFFLINE,2022.2.4,59.88539827420625,
,,,,,,,,,,,,,,,,,,,,,,,,,,,,,,,,,,0,0,0,0,3,0,3,0,,,,,,,,,,,,,,,,,,,,,,,,,,,,0,701,,,861.2234460269974,,,D,174,star,0.0012545629870146513,,,,,1,0,,,2,,,,,,,,,857.4039945469995,857.4039945469995,857.4039945469995,857.4039945469995,858.9042848690005,858.9042848690005,858.9042848690005,858.9042848690005,858.9042848690005,858.9042848690005,858.9042848690005,858.9042848690005,switch,number,numSwt,k,0.7889418299891986,vtsPrac,859.7215800269914,,,,,,,,,,,,,,,,,,,,,,,,,,,,33061,2022-10-28_09h07.49.385,vts_reward_expectancy_bt_OFFLINE,2022.2.4,59.88539827420625,
,,,,,,,,,,,,,,,,,,,,,,,,,,,,,,,,,,0,0,0,0,4,0,4,0,,,,,,,,,,,,,,,,,,,,,,,,,,,,0,701,,,866.1620912819926,,,H,139,star,0.001370079000480473,,,,,1,0,,,2,,,,,,,,,862.2079979289847,862.2079979289847,862.2079979289847,862.2079979289847,863.7096072819841,863.7096072819841,863.7096072819841,863.7096072819841,863.7096072819841,863.7096072819841,863.7096072819841,863.7096072819841,repeat,number,numRpt,j,0.926920093013905,vtsPrac,864.6606009779789,866.1620912819926,,,,,,,,,,,,,,,,,,,,,,,,,,,33061,2022-10-28_09h07.49.385,vts_reward_expectancy_bt_OFFLINE,2022.2.4,59.88539827420625,
,,,,,,,,,,,,,,,,,,,,,,,,,,,,,,,,,,0,0,0,0,5,0,5,0,,,,,,,,,,,,,,,,,,,,,,,,,,,,0,701,,,871.2012853680062,,,F,125,triangle,0.000962235004408285,,,,,1,0,,,2,,,,,,,,,867.1466791440034,867.1466791440034,867.1466791440034,867.1466791440034,868.6481859189807,868.6481859189807,868.6481859189807,868.6481859189807,868.6481859189807,868.6481859189807,868.6481859189807,868.6481859189807,switch,letter,lettSwt,d,1.0203309009957593,vtsPrac,869.6993551820051,,,,,,,,,,,,,,,,,,,,,,,,,,,,33061,2022-10-28_09h07.49.385,vts_reward_expectancy_bt_OFFLINE,2022.2.4,59.88539827420625,
,,,,,,,,,,,,,,,,,,,,,,,,,,,,,,,,,,0,0,0,0,6,0,6,0,,,,,,,,,,,,,,,,,,,,,,,,,,,,0,701,,,876.2899711630016,,,W,132,hexagon,0.0013677419919986278,,,,,1,0,,,2,,,,,,,,,872.1855024899996,872.1855024899996,872.1855024899996,872.1855024899996,873.6872365830059,873.6872365830059,873.6872365830059,873.6872365830059,873.6872365830059,873.6872365830059,873.6872365830059,873.6872365830059,switch,number,numSwt,j,1.0773364400083665,vtsPrac,874.7884231649805,,,,,,,,,,,,,,,,,,,,,,,,,,,,33061,2022-10-28_09h07.49.385,vts_reward_expectancy_bt_OFFLINE,2022.2.4,59.88539827420625,
,,,,,,,,,,,,,,,,,,,,,,,,,,,,,,,,,,0,0,0,0,7,0,7,0,,,,,,,,,,,,,,,,,,,,,,,,,,,,0,701,,,881.3121141830052,,,D,174,triangle,0.001035097986459732,,,,,1,0,,,2,,,,,,,,,877.274324693979,877.274324693979,877.274324693979,877.274324693979,878.7760945189802,878.7760945189802,878.7760945189802,878.7760945189802,878.7760945189802,878.7760945189802,878.7760945189802,878.7760945189802,switch,letter,lettSwt,d,1.0042815339984372,vtsPrac,879.8105134679936,881.3121141830052,,,,,,,,,,,,,,,,,,,,,,,,,,,33061,2022-10-28_09h07.49.385,vts_reward_expectancy_bt_OFFLINE,2022.2.4,59.88539827420625,
,,,,,,,,,,,,,,,,,,,,,,,,,,,,,,,,,,0,0,0,0,8,0,8,0,,,,,,,,,,,,,,,,,,,,,,,,,,,,0,701,,,886.1007070689811,,,D,146,circle,0.0008011410245671868,,,,,1,0,,,2,,,,,,,,,882.2967512469913,882.2967512469913,882.2967512469913,882.2967512469913,883.798444229993,883.798444229993,883.798444229993,883.798444229993,883.798444229993,883.798444229993,883.798444229993,883.798444229993,switch,number,numSwt,j,0.7679004719830118,vtsPrac,884.5991586429882,,,,,,,,,,,,,,,,,,,,,,,,,,,,33061,2022-10-28_09h07.49.385,vts_reward_expectancy_bt_OFFLINE,2022.2.4,59.88539827420625,
,,,,,,,,,,,,,,,,,,,,,,,,,,,,,,,,,,0,0,0,0,9,0,9,0,,,,,,,,,,,,,,,,,,,,,,,,,,,,0,701,,,890.7892974230053,,,B,139,hexagon,0.0010717989935074002,,,,,1,0,,,2,,,,,,,,,887.0851847089943,887.0851847089943,887.0851847089943,887.0851847089943,888.586917958979,888.586917958979,888.586917958979,888.586917958979,888.586917958979,888.586917958979,888.586917958979,888.586917958979,repeat,number,numRpt,j,0.6740418930130545,vtsPrac,889.287603846984,,,,,,,,,,,,,,,,,,,,,,,,,,,,33061,2022-10-28_09h07.49.385,vts_reward_expectancy_bt_OFFLINE,2022.2.4,59.88539827420625,
,,,,,,,,,,,,,,,,,,,,,,,,,,,,,,,,,,0,0,0,0,10,0,10,0,,,,,,,,,,,,,,,,,,,,,,,,,,,,0,701,,,895.6280327870045,,,S,167,hexagon,0.0011456139909569174,,,,,1,0,,,2,,,,,,,,,891.7737692319788,891.7737692319788,891.7737692319788,891.7737692319788,893.2754111480026,893.2754111480026,893.2754111480026,893.2754111480026,893.2754111480026,893.2754111480026,893.2754111480026,893.2754111480026,repeat,number,numRpt,k,0.8180968350206967,vtsPrac,894.126438456995,,,,,,,,,,,,,,,,,,,,,,,,,,,,33061,2022-10-28_09h07.49.385,vts_reward_expectancy_bt_OFFLINE,2022.2.4,59.88539827420625,
,,,,,,,,,,,,,,,,,,,,,,,,,,,,,,,,,,0,0,0,0,11,0,11,0,,,,,,,,,,,,,,,,,,,,,,,,,,,,0,701,,,900.5333057440002,,,H,174,star,0.0012669480056501925,,,,,1,0,,,2,,,,,,,,,896.6123998319963,896.6123998319963,896.6123998319963,896.6123998319963,898.1139964789909,898.1139964789909,898.1139964789909,898.1139964789909,898.1139964789909,898.1139964789909,898.1139964789909,898.1139964789909,switch,letter,lettSwt,d,0.9000477000081446,vtsPrac,899.0317275639973,900.5333057440002,,,,,,,,,,,,,,,,,,,,,,,,,,,33061,2022-10-28_09h07.49.385,vts_reward_expectancy_bt_OFFLINE,2022.2.4,59.88539827420625,
,,,,,,,,,,,,,,,,,,,,,,,,,,,,,,,,,,0,0,0,0,12,0,12,0,,,,,,,,,,,,,,,,,,,,,,,,,,,,0,701,,,905.4054875169822,,,S,174,circle,0.000983722013188526,,,,,1,0,,,2,,,,,,,,,901.5178650970047,901.5178650970047,901.5178650970047,901.5178650970047,903.019445279002,903.019445279002,903.019445279002,903.019445279002,903.019445279002,903.019445279002,903.019445279002,903.019445279002,switch,number,numSwt,k,0.8666167829942424,vtsPrac,903.9037349519785,,,,,,,,,,,,,,,,,,,,,,,,,,,,33061,2022-10-28_09h07.49.385,vts_reward_expectancy_bt_OFFLINE,2022.2.4,59.88539827420625,
,,,,,,,,,,,,,,,,,,,,,,,,,,,,,,,,,,0,0,0,0,13,0,13,0,,,,,,,,,,,,,,,,,,,,,,,,,,,,0,701,,,910.3444056269946,,,D,125,hexagon,0.001020704978145659,,,,,1,0,,,2,,,,,,,,,906.389870583982,906.389870583982,906.389870583982,906.389870583982,907.8914119899855,907.8914119899855,907.8914119899855,907.8914119899855,907.8914119899855,907.8914119899855,907.8914119899855,907.8914119899855,switch,letter,lettSwt,d,0.9289030210056808,vtsPrac,908.8428457200062,,,,,,,,,,,,,,,,,,,,,,,,,,,,33061,2022-10-28_09h07.49.385,vts_reward_expectancy_bt_OFFLINE,2022.2.4,59.88539827420625,
,,,,,,,,,,,,,,,,,,,,,,,,,,,,,,,,,,0,0,0,0,14,0,14,0,,,,,,,,,,,,,,,,,,,,,,,,,,,,0,701,,,915.850248347997,,,H,132,star,0.0012486980122048408,,,,,1,0,,,2,,,,,,,,,911.3288707699976,911.3288707699976,911.3288707699976,911.3288707699976,912.8304579700052,912.8304579700052,912.8304579700052,912.8304579700052,912.8304579700052,912.8304579700052,912.8304579700052,912.8304579700052,repeat,letter,lettRpt,d,1.485858581989305,vtsPrac,914.3485423100065,,,,,,,,,,,,,,,,,,,,,,,,,,,,33061,2022-10-28_09h07.49.385,vts_reward_expectancy_bt_OFFLINE,2022.2.4,59.88539827420625,
,,,,,,,,,,,,,,,,,,,,,,,,,,,,,,,,,,0,0,0,0,15,0,15,0,,,,,,,,,,,,,,,,,,,,,,,,,,,,0,701,,,920.6223168989818,,,F,167,hexagon,0.0011042190017178655,,,,,1,0,,,2,,,,,,,,,916.8347309389792,916.8347309389792,916.8347309389792,916.8347309389792,918.3363105499884,918.3363105499884,918.3363105499884,918.3363105499884,918.3363105499884,918.3363105499884,918.3363105499884,918.3363105499884,switch,number,numSwt,k,0.7573095060070045,vtsPrac,919.1204569249821,,,,,,,,,,,,,,,,,,,,,,,,,,,,33061,2022-10-28_09h07.49.385,vts_reward_expectancy_bt_OFFLINE,2022.2.4,59.88539827420625,
,,,,,,,,,,,,,,,,,,,,,,,,,,,,,,,,,,,,,,,,,,0,0,0,0,,,,,,,,,,,,,,,,,,,,,,,,0,701,,,960.8664775069919,,,W,125,circle,0.0023995229857973754,,,,,1,0,,,,,,,,,,,,956.4116442689847,956.4116442689847,956.4116442689847,956.4116442689847,957.9133000099973,957.9133000099973,957.9133000099973,957.9133000099973,957.9133000099973,957.9133000099973,957.9133000099973,957.9133000099973,switch,letter,lettSwt,f,1.4107107080053538,noRew,,,0,959.3648717079777,,,,,,,,,,,,,,,,,,,,,,,,,33061,2022-10-28_09h07.49.385,vts_reward_expectancy_bt_OFFLINE,2022.2.4,59.88539827420625,
,,,,,,,,,,,,,,,,,,,,,,,,,,,,,,,,,,,,,,,,,,1,0,1,0,,,,,,,,,,,,,,,,,,,,,,,,0,701,,,966.8397462389839,,,S,160,triangle,0.0007492360018659383,,,,,1,0,,,,,,,,,,,,961.8343984230014,961.8343984230014,961.8343984230014,961.8343984230014,963.3360617939907,963.3360617939907,963.3360617939907,963.3360617939907,963.3360617939907,963.3360617939907,963.3360617939907,963.3360617939907,repeat,letter,lettRpt,f,1.9808385740034282,noRew,,,0,965.3383754349779,,,,,,,,,,,,,,,,,,,,,,,,,33061,2022-10-28_09h07.49.385,vts_reward_expectancy_bt_OFFLINE,2022.2.4,59.88539827420625,
,,,,,,,,,,,,,,,,,,,,,,,,,,,,,,,,,,,,,,,,,,2,0,2,0,,,,,,,,,,,,,,,,,,,,,,,,0,701,,,972.062386784004,,,U,174,triangle,0.0012611249985639006,,,,,1,0,,,,,,,,,,,,967.8240467849828,967.8240467849828,967.8240467849828,967.8240467849828,969.3258421469945,969.3258421469945,969.3258421469945,969.3258421469945,969.3258421469945,969.3258421469945,969.3258421469945,969.3258421469945,switch,number,numSwt,k,1.2075332410167903,noRew,,,0,970.560649787978,,,,,,,,,,,,,,,,,,,,,,,,,33061,2022-10-28_09h07.49.385,vts_reward_expectancy_bt_OFFLINE,2022.2.4,59.88539827420625,
,,,,,,,,,,,,,,,,,,,,,,,,,,,,,,,,,,,,,,,,,,3,0,3,0,,,,,,,,,,,,,,,,,,,,,,,,0,701,,,977.6685234670003,,,Y,167,circle,0.0012284020194783807,,,,,1,0,,,,,,,,,,,,973.0465636669833,973.0465636669833,973.0465636669833,973.0465636669833,974.5483919729886,974.5483919729886,974.5483919729886,974.5483919729886,974.5483919729886,974.5483919729886,974.5483919729886,974.5483919729886,switch,letter,lettSwt,f,1.5857419279927853,noRew,,,0,976.1669169919915,977.6685234670003,,,,,,,,,,,,,,,,,,,,,,,,33061,2022-10-28_09h07.49.385,vts_reward_expectancy_bt_OFFLINE,2022.2.4,59.88539827420625,
,,,,,,,,,,,,,,,,,,,,,,,,,,,,,,,,,,,,,,,,,,4,0,4,0,,,,,,,,,,,,,,,,,,,,,,,,0,701,,,982.8911263920018,,,W,125,circle,0.0010549910075496882,,,,,1,0,,,,,,,,,,,,978.6530201720016,978.6530201720016,978.6530201720016,978.6530201720016,980.1545562469983,980.1545562469983,980.1545562469983,980.1545562469983,980.1545562469983,980.1545562469983,980.1545562469983,980.1545562469983,switch,number,numSwt,j,1.2100699250004254,noRew,,,0,981.3893223799823,982.8911263920018,,,,,,,,,,,,,,,,,,,,,,,,33061,2022-10-28_09h07.49.385,vts_reward_expectancy_bt_OFFLINE,2022.2.4,59.88539827420625,
,,,,,,,,,,,,,,,,,,,,,,,,,,,,,,,,,,,,,,,,,,5,0,5,0,,,,,,,,,,,,,,,,,,,,,,,,0,701,,,988.2633812830027,,,S,160,triangle,0.0011494650098029524,,,,,1,0,,,,,,,,,,,,983.8760342749883,983.8760342749883,983.8760342749883,983.8760342749883,985.3770348840044,985.3770348840044,985.3770348840044,985.3770348840044,985.3770348840044,985.3770348840044,985.3770348840044,985.3770348840044,repeat,number,numRpt,k,1.364003631984815,noRew,,,0,986.7616367180017,988.2633812830027,,,,,,,,,,,,,,,,,,,,,,,,33061,2022-10-28_09h07.49.385,vts_reward_expectancy_bt_OFFLINE,2022.2.4,59.88539827420625,
,,,,,,,,,,,,,,,,,,,,,,,,,,,,,,,,,,,,,,,,,,6,0,6,0,,,,,,,,,,,,,,,,,,,,,,,,0,701,,,994.0698315469781,,,U,174,star,0.0010386889916844666,,,,,1,0,,,,,,,,,,,,989.2478238990007,989.2478238990007,989.2478238990007,989.2478238990007,990.7496619969897,990.7496619969897,990.7496619969897,990.7496619969897,990.7496619969897,990.7496619969897,990.7496619969897,990.7496619969897,switch,letter,lettSwt,f,1.7916232330026105,noRew,,,0,992.5682709399844,,,,,,,,,,,,,,,,,,,,,,,,,33061,2022-10-28_09h07.49.385,vts_reward_expectancy_bt_OFFLINE,2022.2.4,59.88539827420625,
,,,,,,,,,,,,,,,,,,,,,,,,,,,,,,,,,,,,,,,,,,7,0,7,0,,,,,,,,,,,,,,,,,,,,,,,,0,701,,,998.7918506219867,,,Y,167,hexagon,0.0011930549808312207,,,,,1,0,,,,,,,,,,,,995.05431902298,995.05431902298,995.05431902298,995.05431902298,996.5559662430023,996.5559662430023,996.5559662430023,996.5559662430023,996.5559662430023,996.5559662430023,996.5559662430023,996.5559662430023,switch,number,numSwt,k,0.7040882689761929,noRew,,,0,997.2901111529791,,,,,,,,,,,,,,,,,,,,,,,,,33061,2022-10-28_09h07.49.385,vts_reward_expectancy_bt_OFFLINE,2022.2.4,59.88539827420625,
,,,,,,,,,,,,,,,,,,,,,,,,,,,,,,,,,,,,,,,,,,8,0,8,0,,,,,,,,,,,,,,,,,,,,,,,,0,701,,,1003.8306772270007,,,U,139,hexagon,0.0014303209900390357,,,,,1,0,,,,,,,,,,,,999.7761860399914,999.7761860399914,999.7761860399914,999.7761860399914,1001.2777730980015,1001.2777730980015,1001.2777730980015,1001.2777730980015,1001.2777730980015,1001.2777730980015,1001.2777730980015,1001.2777730980015,repeat,number,numRpt,j,1.0311291300167795,noRew,,,0,1002.3288862719783,1003.8306772270007,,,,,,,,,,,,,,,,,,,,,,,,33061,2022-10-28_09h07.49.385,vts_reward_expectancy_bt_OFFLINE,2022.2.4,59.88539827420625,
,,,,,,,,,,,,,,,,,,,,,,,,,,,,,,,,,,,,,,,,,,9,0,9,0,,,,,,,,,,,,,,,,,,,,,,,,0,701,,,1009.0031036849832,,,Y,146,circle,0.0011324049846734852,,,,,1,0,,,,,,,,,,,,1004.8151300549798,1004.8151300549798,1004.8151300549798,1004.8151300549798,1006.3167455199873,1006.3167455199873,1006.3167455199873,1006.3167455199873,1006.3167455199873,1006.3167455199873,1006.3167455199873,1006.3167455199873,repeat,number,numRpt,j,1.1601766310050152,noRew,,,0,1007.5014141379797,1009.0031036849832,,,,,,,,,,,,,,,,,,,,,,,,33061,2022-10-28_09h07.49.385,vts_reward_expectancy_bt_OFFLINE,2022.2.4,59.88539827420625,
,,,,,,,,,,,,,,,,,,,,,,,,,,,,,,,,,,,,,,,,,,10,0,10,0,,,,,,,,,,,,,,,,,,,,,,,,0,701,,,1013.6915935869911,,1014.1921167999972,D,160,circle,0.0011600879952311516,,,,,1,0,,,,,,,,,,,,1009.9875548389973,1009.9875548389973,1009.9875548389973,1009.9875548389973,1011.4890822279849,1011.4890822279849,1011.4890822279849,1011.4890822279849,1011.4890822279849,1011.4890822279849,1011.4890822279849,1011.4890822279849,repeat,number,numRpt,k,0.6844851089990698,noRew,,,0,1012.1901700189919,1013.6915935869911,,,,,,,,,,,,,,,,,,,,,,,,33061,2022-10-28_09h07.49.385,vts_reward_expectancy_bt_OFFLINE,2022.2.4,59.88539827420625,
,,,,,,,,,,,,,,,,,,,,,,,,,,,,,,,,,,,,,,,,,,11,0,11,0,,,,,,,,,,,,,,,,,,,,,,,,0,701,,,1019.0974861180002,,,W,167,star,0.0011297199816908687,,,,,1,0,,,,,,,,,,,,1014.6759652969777,1014.6759652969777,1014.6759652969777,1014.6759652969777,1016.1776157769782,1016.1776157769782,1016.1776157769782,1016.1776157769782,1016.1776157769782,1016.1776157769782,1016.1776157769782,1016.1776157769782,switch,letter,lettSwt,f,1.3950369430240244,noRew,,,0,1017.5960715149995,,,,,,,,,,,,,,,,,,,,,,,,,33061,2022-10-28_09h07.49.385,vts_reward_expectancy_bt_OFFLINE,2022.2.4,59.88539827420625,
,,,,,,,,,,,,,,,,,,,,,,,,,,,,,,,,,,,,,,,,,,12,0,12,0,,,,,,,,,,,,,,,,,,,,,,,,0,701,,,1025.0208955539856,,,W,160,hexagon,0.0012714600015897304,,,,,1,0,,,,,,,,,,,,1020.081953321991,1020.081953321991,1020.081953321991,1020.081953321991,1021.5835620370053,1021.5835620370053,1021.5835620370053,1021.5835620370053,1021.5835620370053,1021.5835620370053,1021.5835620370053,1021.5835620370053,switch,number,numSwt,k,1.9027082140091807,noRew,,,0,1023.5189832290052,,,,,,,,,,,,,,,,,,,,,,,,,33061,2022-10-28_09h07.49.385,vts_reward_expectancy_bt_OFFLINE,2022.2.4,59.88539827420625,
,,,,,,,,,,,,,,,,,,,,,,,,,,,,,,,,,,,,,,,,,,13,0,13,0,,,,,,,,,,,,,,,,,,,,,,,,0,701,,,1029.8428711319866,,,U,167,star,0.001037408976117149,,,,,1,0,,,,,,,,,,,,1026.005169829994,1026.005169829994,1026.005169829994,1026.005169829994,1027.5068639539822,1027.5068639539822,1027.5068639539822,1027.5068639539822,1027.5068639539822,1027.5068639539822,1027.5068639539822,1027.5068639539822,repeat,number,numRpt,k,0.8099953460041434,noRew,,,0,1028.3416351649794,1029.8428711319866,,,,,,,,,,,,,,,,,,,,,,,,33061,2022-10-28_09h07.49.385,vts_reward_expectancy_bt_OFFLINE,2022.2.4,59.88539827420625,
