LTriangleOpac,LCircleOpac,LHexagonOpac,LStarOpac,RTriangleOpac,RCircleOpac,RHexagonOpac,RStarOpac,LShape_ID,RShape_ID,training_blocks.thisRepN,training_blocks.thisTrialN,training_blocks.thisN,training_blocks.thisIndex,training.thisRepN,training.thisTrialN,training.thisN,training.thisIndex,task1_prac_redo.thisRepN,task1_prac_redo.thisTrialN,task1_prac_redo.thisN,task1_prac_redo.thisIndex,task1_prac_trials.thisRepN,task1_prac_trials.thisTrialN,task1_prac_trials.thisN,task1_prac_trials.thisIndex,task2_prac_redo.thisRepN,task2_prac_redo.thisTrialN,task2_prac_redo.thisN,task2_prac_redo.thisIndex,task2_praac_trials.thisRepN,task2_praac_trials.thisTrialN,task2_praac_trials.thisN,task2_praac_trials.thisIndex,vts_prac_redo.thisRepN,vts_prac_redo.thisTrialN,vts_prac_redo.thisN,vts_prac_redo.thisIndex,vts_practice_trials.thisRepN,vts_practice_trials.thisTrialN,vts_practice_trials.thisN,vts_practice_trials.thisIndex,trials_norew.thisRepN,trials_norew.thisTrialN,trials_norew.thisN,trials_norew.thisIndex,block.thisRepN,block.thisTrialN,block.thisN,block.thisIndex,trials_rew.thisRepN,trials_rew.thisTrialN,trials_rew.thisN,trials_rew.thisIndex,key_resp.started,key_resp.keys,key_resp.rt,left_circle.started,right_circle.started,left_triangle.started,right_triangle.started,left_star.started,right_star.started,left_hexagon.started,right_hexagon.started,training_fix.started,training_resp.started,training_resp.keys,training_resp.rt,points_trial,points_cumul,trainBlock,training_feedback_txt.started,fix.started,training_feedback_txt.stopped,fix.stopped,curr_topStim,curr_bottStim,curr_shape,ISI.started,tgt_fix_prac1.started,top_target_prac1.started,bott_target_prac1.started,target_resp_prac1.started,acc,E1,target_resp_prac1.keys,target_resp_prac1.rt,pracBlock,prac_fback_text.started,prac_fback_text.stopped,tgt_fix_prac2.started,top_target_prac2.started,bott_target_prac2.started,target_resp_prac2.started,target_resp_prac2.keys,target_resp_prac2.rt,star.started,hegagon.started,triangle.started,circle.started,top_target.started,tgt_fix.started,bot_target.started,target_resp.started,star.stopped,hegagon.stopped,triangle.stopped,circle.stopped,alt,task,condition,target_resp.keys,target_resp.rt,rewCond,vts_fback.started,vts_fback.stopped,blockNum,norew_fback.started,norew_fback.stopped,key_resp_2.keys,key_resp_2.rt,rewExpectancy,feedbk_text.started,feedbk_text.stopped,text_3.started,text_3.stopped,button.started,debrief.index,debrief.itemText,debrief.type,debrief.granularity,debrief.font,debrief.markerColor,debrief.response,debrief.rt,button.numClicks,button.timesOn,button.timesOff,participant,date,expName,psychopyVersion,frameRate,
,,,,,,,,,,,,,,,,,,,,,,,,,,,,,,,,,,,,,,,,,,,,,,,,,,,,,,15.393674386999919,space,24.871940273998916,,,,,,,,,,,,,,,,,,,,,,,,,,,,,,,,,,,,,,,,,,,,,,,,,,,,,,,,,,,,,,,,,,,,,,,,,,,,,,,,,,,33343,2022-10-25_13h51.39.109,vts_reward_expectancy_bt_OFFLINE,2022.2.4,60.03338360408699,
0,1,0,0,1,0,0,0,circle,triangle,0,0,0,0,0,0,0,3,,,,,,,,,,,,,,,,,,,,,,,,,,,,,,,,,,,,,,,,70.61591580800086,70.61591580800086,70.61591580800086,70.61591580800086,70.61591580800086,70.61591580800086,70.61591580800086,70.61591580800086,70.61591580800086,70.61591580800086,l,1.8256691639981,10,10,0,72.47799404200123,73.99265290500261,,,,,,,,,,,,,,,,,,,,,,,,,,,,,,,,,,,,,,,,,,,,,,,,,,,,,,,,,,,,,,,,,,33343,2022-10-25_13h51.39.109,vts_reward_expectancy_bt_OFFLINE,2022.2.4,60.03338360408699,
0,0,0,1,1,0,0,0,star,triangle,0,0,0,0,0,1,1,9,,,,,,,,,,,,,,,,,,,,,,,,,,,,,,,,,,,,,,,,74.49275043200032,74.49275043200032,74.49275043200032,74.49275043200032,74.49275043200032,74.49275043200032,74.49275043200032,74.49275043200032,74.49275043200032,74.49275043200032,l,2.460102877997997,1,11,0,76.9779649100019,78.47931961300128,,,,,,,,,,,,,,,,,,,,,,,,,,,,,,,,,,,,,,,,,,,,,,,,,,,,,,,,,,,,,,,,,,33343,2022-10-25_13h51.39.109,vts_reward_expectancy_bt_OFFLINE,2022.2.4,60.03338360408699,
0,0,0,1,0,0,1,0,star,hexagon,0,0,0,0,0,2,2,11,,,,,,,,,,,,,,,,,,,,,,,,,,,,,,,,,,,,,,,,78.97954458000095,78.97954458000095,78.97954458000095,78.97954458000095,78.97954458000095,78.97954458000095,78.97954458000095,78.97954458000095,78.97954458000095,78.97954458000095,a,1.9817259920018842,10,21,0,80.98114720900048,82.48098997100169,82.48098997100169,82.98104884900022,,,,,,,,,,,,,,,,,,,,,,,,,,,,,,,,,,,,,,,,,,,,,,,,,,,,,,,,,,,,,,,,33343,2022-10-25_13h51.39.109,vts_reward_expectancy_bt_OFFLINE,2022.2.4,60.03338360408699,
0,0,1,0,0,1,0,0,hexagon,circle,0,0,0,0,0,3,3,7,,,,,,,,,,,,,,,,,,,,,,,,,,,,,,,,,,,,,,,,82.98104884900022,82.98104884900022,82.98104884900022,82.98104884900022,82.98104884900022,82.98104884900022,82.98104884900022,82.98104884900022,82.98104884900022,82.98104884900022,a,0.8438321089961391,10,31,0,83.85000909600058,85.3504769680003,85.3504769680003,85.85074190500018,,,,,,,,,,,,,,,,,,,,,,,,,,,,,,,,,,,,,,,,,,,,,,,,,,,,,,,,,,,,,,,,33343,2022-10-25_13h51.39.109,vts_reward_expectancy_bt_OFFLINE,2022.2.4,60.03338360408699,
1,0,0,0,0,0,1,0,triangle,hexagon,0,0,0,0,0,4,4,1,,,,,,,,,,,,,,,,,,,,,,,,,,,,,,,,,,,,,,,,85.85074190500018,85.85074190500018,85.85074190500018,85.85074190500018,85.85074190500018,85.85074190500018,85.85074190500018,85.85074190500018,85.85074190500018,85.85074190500018,l,0.9178376009986096,10,41,0,86.80087985000137,88.30329064700345,,,,,,,,,,,,,,,,,,,,,,,,,,,,,,,,,,,,,,,,,,,,,,,,,,,,,,,,,,,,,,,,,,33343,2022-10-25_13h51.39.109,vts_reward_expectancy_bt_OFFLINE,2022.2.4,60.03338360408699,
0,0,0,1,0,1,0,0,star ,circle,0,0,0,0,0,5,5,10,,,,,,,,,,,,,,,,,,,,,,,,,,,,,,,,,,,,,,,,88.80353264600126,88.80353264600126,88.80353264600126,88.80353264600126,88.80353264600126,88.80353264600126,88.80353264600126,88.80353264600126,88.80353264600126,88.80353264600126,a,0.533551811997313,10,51,0,89.3536552550031,90.85404194300281,90.85404194300281,91.35457228800078,,,,,,,,,,,,,,,,,,,,,,,,,,,,,,,,,,,,,,,,,,,,,,,,,,,,,,,,,,,,,,,,33343,2022-10-25_13h51.39.109,vts_reward_expectancy_bt_OFFLINE,2022.2.4,60.03338360408699,
0,0,1,0,1,0,0,0,hexagon,triangle,0,0,0,0,0,6,6,6,,,,,,,,,,,,,,,,,,,,,,,,,,,,,,,,,,,,,,,,91.35457228800078,91.35457228800078,91.35457228800078,91.35457228800078,91.35457228800078,91.35457228800078,91.35457228800078,91.35457228800078,91.35457228800078,91.35457228800078,l,3.222040038999694,1,52,0,94.60911479500282,96.12465463600165,,,,,,,,,,,,,,,,,,,,,,,,,,,,,,,,,,,,,,,,,,,,,,,,,,,,,,,,,,,,,,,,,,33343,2022-10-25_13h51.39.109,vts_reward_expectancy_bt_OFFLINE,2022.2.4,60.03338360408699,
0,0,1,0,0,0,0,1,hexagon,star,0,0,0,0,0,7,7,8,,,,,,,,,,,,,,,,,,,,,,,,,,,,,,,,,,,,,,,,96.62497837500268,96.62497837500268,96.62497837500268,96.62497837500268,96.62497837500268,96.62497837500268,96.62497837500268,96.62497837500268,96.62497837500268,96.62497837500268,l,2.6966546609983197,10,62,0,99.34523652100324,100.84482363900315,100.84482363900315,,,,,,,,,,,,,,,,,,,,,,,,,,,,,,,,,,,,,,,,,,,,,,,,,,,,,,,,,,,,,,,,,33343,2022-10-25_13h51.39.109,vts_reward_expectancy_bt_OFFLINE,2022.2.4,60.03338360408699,
0,1,0,0,0,0,0,1,circle,star,0,0,0,0,0,8,8,5,,,,,,,,,,,,,,,,,,,,,,,,,,,,,,,,,,,,,,,,101.3449935810022,101.3449935810022,101.3449935810022,101.3449935810022,101.3449935810022,101.3449935810022,101.3449935810022,101.3449935810022,101.3449935810022,101.3449935810022,a,2.159709211999143,10,72,0,103.53088154300349,105.03165929800161,105.03165929800161,,,,,,,,,,,,,,,,,,,,,,,,,,,,,,,,,,,,,,,,,,,,,,,,,,,,,,,,,,,,,,,,,33343,2022-10-25_13h51.39.109,vts_reward_expectancy_bt_OFFLINE,2022.2.4,60.03338360408699,
1,0,0,0,0,0,0,1,triangle,star,0,0,0,0,0,9,9,2,,,,,,,,,,,,,,,,,,,,,,,,,,,,,,,,,,,,,,,,105.53164100100184,105.53164100100184,105.53164100100184,105.53164100100184,105.53164100100184,105.53164100100184,105.53164100100184,105.53164100100184,105.53164100100184,105.53164100100184,l,1.1489053029981733,10,82,0,106.6984561370009,108.2009892840033,,,,,,,,,,,,,,,,,,,,,,,,,,,,,,,,,,,,,,,,,,,,,,,,,,,,,,,,,,,,,,,,,,33343,2022-10-25_13h51.39.109,vts_reward_expectancy_bt_OFFLINE,2022.2.4,60.03338360408699,
0,1,0,0,0,0,1,0,circle,hexagon,0,0,0,0,0,10,10,4,,,,,,,,,,,,,,,,,,,,,,,,,,,,,,,,,,,,,,,,108.70144050200179,108.70144050200179,108.70144050200179,108.70144050200179,108.70144050200179,108.70144050200179,108.70144050200179,108.70144050200179,108.70144050200179,108.70144050200179,a,1.6519073439994827,1,83,0,110.3853486750013,111.88595882200025,111.88595882200025,112.3858158410003,,,,,,,,,,,,,,,,,,,,,,,,,,,,,,,,,,,,,,,,,,,,,,,,,,,,,,,,,,,,,,,,33343,2022-10-25_13h51.39.109,vts_reward_expectancy_bt_OFFLINE,2022.2.4,60.03338360408699,
1,0,0,0,0,1,0,0,triangle,circle,0,0,0,0,0,11,11,0,,,,,,,,,,,,,,,,,,,,,,,,,,,,,,,,,,,,,,,,112.3858158410003,112.3858158410003,112.3858158410003,112.3858158410003,112.3858158410003,112.3858158410003,112.3858158410003,112.3858158410003,112.3858158410003,112.3858158410003,a,1.2388816460006637,1,84,0,113.65493664700261,115.15534765800112,115.15534765800112,115.65569727100228,,,,,,,,,,,,,,,,,,,,,,,,,,,,,,,,,,,,,,,,,,,,,,,,,,,,,,,,,,,,,,,,33343,2022-10-25_13h51.39.109,vts_reward_expectancy_bt_OFFLINE,2022.2.4,60.03338360408699,
0,0,1,0,0,1,0,0,hexagon,circle,0,0,0,0,1,0,12,7,,,,,,,,,,,,,,,,,,,,,,,,,,,,,,,,,,,,,,,,115.65569727100228,115.65569727100228,115.65569727100228,115.65569727100228,115.65569727100228,115.65569727100228,115.65569727100228,115.65569727100228,115.65569727100228,115.65569727100228,l,3.6569169770009466,1,85,0,119.34228358400287,120.84257350200278,120.84257350200278,121.3427237490032,,,,,,,,,,,,,,,,,,,,,,,,,,,,,,,,,,,,,,,,,,,,,,,,,,,,,,,,,,,,,,,,33343,2022-10-25_13h51.39.109,vts_reward_expectancy_bt_OFFLINE,2022.2.4,60.03338360408699,
0,1,0,0,0,0,0,1,circle,star,0,0,0,0,1,1,13,5,,,,,,,,,,,,,,,,,,,,,,,,,,,,,,,,,,,,,,,,121.3427237490032,121.3427237490032,121.3427237490032,121.3427237490032,121.3427237490032,121.3427237490032,121.3427237490032,121.3427237490032,121.3427237490032,121.3427237490032,l,0.7778258159996767,10,95,0,122.14438501400218,123.64545988400278,,,,,,,,,,,,,,,,,,,,,,,,,,,,,,,,,,,,,,,,,,,,,,,,,,,,,,,,,,,,,,,,,,33343,2022-10-25_13h51.39.109,vts_reward_expectancy_bt_OFFLINE,2022.2.4,60.03338360408699,
0,0,1,0,0,0,0,1,hexagon,star,0,0,0,0,1,2,14,8,,,,,,,,,,,,,,,,,,,,,,,,,,,,,,,,,,,,,,,,124.14565156800018,124.14565156800018,124.14565156800018,124.14565156800018,124.14565156800018,124.14565156800018,124.14565156800018,124.14565156800018,124.14565156800018,124.14565156800018,l,1.3917986730011762,10,105,0,125.56292288300028,127.06370024300122,127.06370024300122,127.56370696400336,,,,,,,,,,,,,,,,,,,,,,,,,,,,,,,,,,,,,,,,,,,,,,,,,,,,,,,,,,,,,,,,33343,2022-10-25_13h51.39.109,vts_reward_expectancy_bt_OFFLINE,2022.2.4,60.03338360408699,
1,0,0,0,0,0,1,0,triangle,hexagon,0,0,0,0,1,3,15,1,,,,,,,,,,,,,,,,,,,,,,,,,,,,,,,,,,,,,,,,127.56370696400336,127.56370696400336,127.56370696400336,127.56370696400336,127.56370696400336,127.56370696400336,127.56370696400336,127.56370696400336,127.56370696400336,127.56370696400336,l,1.5408472969975264,10,115,0,129.13273116500204,130.63343079200058,130.63343079200058,,,,,,,,,,,,,,,,,,,,,,,,,,,,,,,,,,,,,,,,,,,,,,,,,,,,,,,,,,,,,,,,,33343,2022-10-25_13h51.39.109,vts_reward_expectancy_bt_OFFLINE,2022.2.4,60.03338360408699,
0,0,0,1,0,0,1,0,star,hexagon,0,0,0,0,1,4,16,11,,,,,,,,,,,,,,,,,,,,,,,,,,,,,,,,,,,,,,,,131.13354750400322,131.13354750400322,131.13354750400322,131.13354750400322,131.13354750400322,131.13354750400322,131.13354750400322,131.13354750400322,131.13354750400322,131.13354750400322,a,1.5555685170002107,10,125,0,132.7172872400006,134.2196127870011,,,,,,,,,,,,,,,,,,,,,,,,,,,,,,,,,,,,,,,,,,,,,,,,,,,,,,,,,,,,,,,,,,33343,2022-10-25_13h51.39.109,vts_reward_expectancy_bt_OFFLINE,2022.2.4,60.03338360408699,
0,0,0,1,0,1,0,0,star ,circle,0,0,0,0,1,5,17,10,,,,,,,,,,,,,,,,,,,,,,,,,,,,,,,,,,,,,,,,134.7199670220034,134.7199670220034,134.7199670220034,134.7199670220034,134.7199670220034,134.7199670220034,134.7199670220034,134.7199670220034,134.7199670220034,134.7199670220034,a,2.201122899001348,10,135,0,136.95403698000155,138.45653489500182,,,,,,,,,,,,,,,,,,,,,,,,,,,,,,,,,,,,,,,,,,,,,,,,,,,,,,,,,,,,,,,,,,33343,2022-10-25_13h51.39.109,vts_reward_expectancy_bt_OFFLINE,2022.2.4,60.03338360408699,
0,1,0,0,1,0,0,0,circle,triangle,0,0,0,0,1,6,18,3,,,,,,,,,,,,,,,,,,,,,,,,,,,,,,,,,,,,,,,,138.9564825410016,138.9564825410016,138.9564825410016,138.9564825410016,138.9564825410016,138.9564825410016,138.9564825410016,138.9564825410016,138.9564825410016,138.9564825410016,a,0.6767354750008963,1,136,0,139.65749946300275,141.1572629120019,141.1572629120019,141.65747095200277,,,,,,,,,,,,,,,,,,,,,,,,,,,,,,,,,,,,,,,,,,,,,,,,,,,,,,,,,,,,,,,,33343,2022-10-25_13h51.39.109,vts_reward_expectancy_bt_OFFLINE,2022.2.4,60.03338360408699,
0,0,1,0,1,0,0,0,hexagon,triangle,0,0,0,0,1,7,19,6,,,,,,,,,,,,,,,,,,,,,,,,,,,,,,,,,,,,,,,,141.65747095200277,141.65747095200277,141.65747095200277,141.65747095200277,141.65747095200277,141.65747095200277,141.65747095200277,141.65747095200277,141.65747095200277,141.65747095200277,a,0.9038162669967278,10,146,0,142.59210608700232,144.09387267900092,,,,,,,,,,,,,,,,,,,,,,,,,,,,,,,,,,,,,,,,,,,,,,,,,,,,,,,,,,,,,,,,,,33343,2022-10-25_13h51.39.109,vts_reward_expectancy_bt_OFFLINE,2022.2.4,60.03338360408699,
1,0,0,0,0,1,0,0,triangle,circle,0,0,0,0,1,8,20,0,,,,,,,,,,,,,,,,,,,,,,,,,,,,,,,,,,,,,,,,144.59408488800182,144.59408488800182,144.59408488800182,144.59408488800182,144.59408488800182,144.59408488800182,144.59408488800182,144.59408488800182,144.59408488800182,144.59408488800182,a,0.727355376999185,10,156,0,145.34396537400244,146.84447118700336,146.84447118700336,147.34472101700158,,,,,,,,,,,,,,,,,,,,,,,,,,,,,,,,,,,,,,,,,,,,,,,,,,,,,,,,,,,,,,,,33343,2022-10-25_13h51.39.109,vts_reward_expectancy_bt_OFFLINE,2022.2.4,60.03338360408699,
0,0,0,1,1,0,0,0,star,triangle,0,0,0,0,1,9,21,9,,,,,,,,,,,,,,,,,,,,,,,,,,,,,,,,,,,,,,,,147.34472101700158,147.34472101700158,147.34472101700158,147.34472101700158,147.34472101700158,147.34472101700158,147.34472101700158,147.34472101700158,147.34472101700158,147.34472101700158,a,0.7120322410009976,1,157,0,148.0794317200016,149.58087087600143,,,,,,,,,,,,,,,,,,,,,,,,,,,,,,,,,,,,,,,,,,,,,,,,,,,,,,,,,,,,,,,,,,33343,2022-10-25_13h51.39.109,vts_reward_expectancy_bt_OFFLINE,2022.2.4,60.03338360408699,
1,0,0,0,0,0,0,1,triangle,star,0,0,0,0,1,10,22,2,,,,,,,,,,,,,,,,,,,,,,,,,,,,,,,,,,,,,,,,150.08089312000084,150.08089312000084,150.08089312000084,150.08089312000084,150.08089312000084,150.08089312000084,150.08089312000084,150.08089312000084,150.08089312000084,150.08089312000084,a,4.407584837001195,1,158,0,154.51766764300191,156.018218119003,156.018218119003,156.51849698300066,,,,,,,,,,,,,,,,,,,,,,,,,,,,,,,,,,,,,,,,,,,,,,,,,,,,,,,,,,,,,,,,33343,2022-10-25_13h51.39.109,vts_reward_expectancy_bt_OFFLINE,2022.2.4,60.03338360408699,
0,1,0,0,0,0,1,0,circle,hexagon,0,0,0,0,1,11,23,4,,,,,,,,,,,,,,,,,,,,,,,,,,,,,,,,,,,,,,,,156.51849698300066,156.51849698300066,156.51849698300066,156.51849698300066,156.51849698300066,156.51849698300066,156.51849698300066,156.51849698300066,156.51849698300066,156.51849698300066,l,8.39497108499927,10,168,0,164.94336458700127,166.45902260000003,,,,,,,,,,,,,,,,,,,,,,,,,,,,,,,,,,,,,,,,,,,,,,,,,,,,,,,,,,,,,,,,,,33343,2022-10-25_13h51.39.109,vts_reward_expectancy_bt_OFFLINE,2022.2.4,60.03338360408699,
0,1,0,0,0,0,0,1,circle,star,0,0,0,0,2,0,24,5,,,,,,,,,,,,,,,,,,,,,,,,,,,,,,,,,,,,,,,,166.95926146900092,166.95926146900092,166.95926146900092,166.95926146900092,166.95926146900092,166.95926146900092,166.95926146900092,166.95926146900092,166.95926146900092,166.95926146900092,l,2.169479373998911,10,178,0,169.16188993400283,170.6625457350019,170.6625457350019,171.1625744410012,,,,,,,,,,,,,,,,,,,,,,,,,,,,,,,,,,,,,,,,,,,,,,,,,,,,,,,,,,,,,,,,33343,2022-10-25_13h51.39.109,vts_reward_expectancy_bt_OFFLINE,2022.2.4,60.03338360408699,
0,0,1,0,0,0,0,1,hexagon,star,0,0,0,0,2,1,25,8,,,,,,,,,,,,,,,,,,,,,,,,,,,,,,,,,,,,,,,,171.1625744410012,171.1625744410012,171.1625744410012,171.1625744410012,171.1625744410012,171.1625744410012,171.1625744410012,171.1625744410012,171.1625744410012,171.1625744410012,l,0.7748141800002486,10,188,0,171.96288586300216,173.46505798300132,,,,,,,,,,,,,,,,,,,,,,,,,,,,,,,,,,,,,,,,,,,,,,,,,,,,,,,,,,,,,,,,,,33343,2022-10-25_13h51.39.109,vts_reward_expectancy_bt_OFFLINE,2022.2.4,60.03338360408699,
0,0,0,1,0,1,0,0,star ,circle,0,0,0,0,2,2,26,10,,,,,,,,,,,,,,,,,,,,,,,,,,,,,,,,,,,,,,,,173.96554234600262,173.96554234600262,173.96554234600262,173.96554234600262,173.96554234600262,173.96554234600262,173.96554234600262,173.96554234600262,173.96554234600262,173.96554234600262,l,1.6283170729984704,10,198,0,175.61601173300005,177.116636707,177.116636707,177.61653437100176,,,,,,,,,,,,,,,,,,,,,,,,,,,,,,,,,,,,,,,,,,,,,,,,,,,,,,,,,,,,,,,,33343,2022-10-25_13h51.39.109,vts_reward_expectancy_bt_OFFLINE,2022.2.4,60.03338360408699,
0,0,0,1,0,0,1,0,star,hexagon,0,0,0,0,2,3,27,11,,,,,,,,,,,,,,,,,,,,,,,,,,,,,,,,,,,,,,,,177.61653437100176,177.61653437100176,177.61653437100176,177.61653437100176,177.61653437100176,177.61653437100176,177.61653437100176,177.61653437100176,177.61653437100176,177.61653437100176,l,3.8559890399992582,10,208,0,181.5033095550025,183.0038313820005,183.0038313820005,,,,,,,,,,,,,,,,,,,,,,,,,,,,,,,,,,,,,,,,,,,,,,,,,,,,,,,,,,,,,,,,,33343,2022-10-25_13h51.39.109,vts_reward_expectancy_bt_OFFLINE,2022.2.4,60.03338360408699,
1,0,0,0,0,0,1,0,triangle,hexagon,0,0,0,0,2,4,28,1,,,,,,,,,,,,,,,,,,,,,,,,,,,,,,,,,,,,,,,,183.5058881920013,183.5058881920013,183.5058881920013,183.5058881920013,183.5058881920013,183.5058881920013,183.5058881920013,183.5058881920013,183.5058881920013,183.5058881920013,l,2.318974388999777,10,218,0,185.8567578200018,187.35701386500295,187.35701386500295,187.85739434900097,,,,,,,,,,,,,,,,,,,,,,,,,,,,,,,,,,,,,,,,,,,,,,,,,,,,,,,,,,,,,,,,33343,2022-10-25_13h51.39.109,vts_reward_expectancy_bt_OFFLINE,2022.2.4,60.03338360408699,
1,0,0,0,0,1,0,0,triangle,circle,0,0,0,0,2,5,29,0,,,,,,,,,,,,,,,,,,,,,,,,,,,,,,,,,,,,,,,,187.85739434900097,187.85739434900097,187.85739434900097,187.85739434900097,187.85739434900097,187.85739434900097,187.85739434900097,187.85739434900097,187.85739434900097,187.85739434900097,l,1.895176616999379,1,219,0,189.7782482420007,191.29389402300149,,,,,,,,,,,,,,,,,,,,,,,,,,,,,,,,,,,,,,,,,,,,,,,,,,,,,,,,,,,,,,,,,,33343,2022-10-25_13h51.39.109,vts_reward_expectancy_bt_OFFLINE,2022.2.4,60.03338360408699,
0,0,1,0,0,1,0,0,hexagon,circle,0,0,0,0,2,6,30,7,,,,,,,,,,,,,,,,,,,,,,,,,,,,,,,,,,,,,,,,191.79390971100293,191.79390971100293,191.79390971100293,191.79390971100293,191.79390971100293,191.79390971100293,191.79390971100293,191.79390971100293,191.79390971100293,191.79390971100293,a,2.895412566998857,1,220,0,194.7136415920031,196.21403468300196,196.21403468300196,196.71417580100024,,,,,,,,,,,,,,,,,,,,,,,,,,,,,,,,,,,,,,,,,,,,,,,,,,,,,,,,,,,,,,,,33343,2022-10-25_13h51.39.109,vts_reward_expectancy_bt_OFFLINE,2022.2.4,60.03338360408699,
0,0,1,0,1,0,0,0,hexagon,triangle,0,0,0,0,2,7,31,6,,,,,,,,,,,,,,,,,,,,,,,,,,,,,,,,,,,,,,,,196.71417580100024,196.71417580100024,196.71417580100024,196.71417580100024,196.71417580100024,196.71417580100024,196.71417580100024,196.71417580100024,196.71417580100024,196.71417580100024,a,1.718409649998648,10,230,0,198.4511657760013,199.95058174200312,199.95058174200312,,,,,,,,,,,,,,,,,,,,,,,,,,,,,,,,,,,,,,,,,,,,,,,,,,,,,,,,,,,,,,,,,33343,2022-10-25_13h51.39.109,vts_reward_expectancy_bt_OFFLINE,2022.2.4,60.03338360408699,
0,0,0,1,1,0,0,0,star,triangle,0,0,0,0,2,8,32,9,,,,,,,,,,,,,,,,,,,,,,,,,,,,,,,,,,,,,,,,200.45092188000126,200.45092188000126,200.45092188000126,200.45092188000126,200.45092188000126,200.45092188000126,200.45092188000126,200.45092188000126,200.45092188000126,200.45092188000126,a,0.9264630119978392,10,240,0,201.40117637200092,202.90183527500267,202.90183527500267,,,,,,,,,,,,,,,,,,,,,,,,,,,,,,,,,,,,,,,,,,,,,,,,,,,,,,,,,,,,,,,,,33343,2022-10-25_13h51.39.109,vts_reward_expectancy_bt_OFFLINE,2022.2.4,60.03338360408699,
0,1,0,0,0,0,1,0,circle,hexagon,0,0,0,0,2,9,33,4,,,,,,,,,,,,,,,,,,,,,,,,,,,,,,,,,,,,,,,,203.4036502480012,203.4036502480012,203.4036502480012,203.4036502480012,203.4036502480012,203.4036502480012,203.4036502480012,203.4036502480012,203.4036502480012,203.4036502480012,l,2.8138410700012173,1,241,0,206.2389153510012,207.73864239700197,207.73864239700197,208.23646636100239,,,,,,,,,,,,,,,,,,,,,,,,,,,,,,,,,,,,,,,,,,,,,,,,,,,,,,,,,,,,,,,,33343,2022-10-25_13h51.39.109,vts_reward_expectancy_bt_OFFLINE,2022.2.4,60.03338360408699,
0,1,0,0,1,0,0,0,circle,triangle,0,0,0,0,2,10,34,3,,,,,,,,,,,,,,,,,,,,,,,,,,,,,,,,,,,,,,,,208.23646636100239,208.23646636100239,208.23646636100239,208.23646636100239,208.23646636100239,208.23646636100239,208.23646636100239,208.23646636100239,208.23646636100239,208.23646636100239,l,2.6120136629979243,1,242,0,210.87501735200203,212.3753338500028,,,,,,,,,,,,,,,,,,,,,,,,,,,,,,,,,,,,,,,,,,,,,,,,,,,,,,,,,,,,,,,,,,33343,2022-10-25_13h51.39.109,vts_reward_expectancy_bt_OFFLINE,2022.2.4,60.03338360408699,
1,0,0,0,0,0,0,1,triangle,star,0,0,0,0,2,11,35,2,,,,,,,,,,,,,,,,,,,,,,,,,,,,,,,,,,,,,,,,212.87540291000187,212.87540291000187,212.87540291000187,212.87540291000187,212.87540291000187,212.87540291000187,212.87540291000187,212.87540291000187,212.87540291000187,212.87540291000187,l,3.1736880779972125,10,252,0,216.0793580330028,217.57902887700038,217.57902887700038,218.07931886900042,,,,,,,,,,,,,,,,,,,,,,,,,,,,,,,,,,,,,,,,,,,,,,,,,,,,,,,,,,,,,,,,33343,2022-10-25_13h51.39.109,vts_reward_expectancy_bt_OFFLINE,2022.2.4,60.03338360408699,
0,0,1,0,0,0,0,1,hexagon,star,0,0,0,0,3,0,36,8,,,,,,,,,,,,,,,,,,,,,,,,,,,,,,,,,,,,,,,,218.07931886900042,218.07931886900042,218.07931886900042,218.07931886900042,218.07931886900042,218.07931886900042,218.07931886900042,218.07931886900042,218.07931886900042,218.07931886900042,l,1.1611996149986226,1,253,0,219.26587735400244,220.76563203500336,220.76563203500336,221.26585992000037,,,,,,,,,,,,,,,,,,,,,,,,,,,,,,,,,,,,,,,,,,,,,,,,,,,,,,,,,,,,,,,,33343,2022-10-25_13h51.39.109,vts_reward_expectancy_bt_OFFLINE,2022.2.4,60.03338360408699,
0,0,0,1,0,0,1,0,star,hexagon,0,0,0,0,3,1,37,11,,,,,,,,,,,,,,,,,,,,,,,,,,,,,,,,,,,,,,,,221.26585992000037,221.26585992000037,221.26585992000037,221.26585992000037,221.26585992000037,221.26585992000037,221.26585992000037,221.26585992000037,221.26585992000037,221.26585992000037,a,5.095027125997149,10,263,0,226.38736871100264,227.88640624500113,227.88640624500113,,,,,,,,,,,,,,,,,,,,,,,,,,,,,,,,,,,,,,,,,,,,,,,,,,,,,,,,,,,,,,,,,33343,2022-10-25_13h51.39.109,vts_reward_expectancy_bt_OFFLINE,2022.2.4,60.03338360408699,
0,0,0,1,0,1,0,0,star ,circle,0,0,0,0,3,2,38,10,,,,,,,,,,,,,,,,,,,,,,,,,,,,,,,,,,,,,,,,228.38867746500182,228.38867746500182,228.38867746500182,228.38867746500182,228.38867746500182,228.38867746500182,228.38867746500182,228.38867746500182,228.38867746500182,228.38867746500182,l,2.4768793329967593,1,264,0,230.89038603200243,232.39006218200302,232.39006218200302,232.89022275500247,,,,,,,,,,,,,,,,,,,,,,,,,,,,,,,,,,,,,,,,,,,,,,,,,,,,,,,,,,,,,,,,33343,2022-10-25_13h51.39.109,vts_reward_expectancy_bt_OFFLINE,2022.2.4,60.03338360408699,
0,0,1,0,1,0,0,0,hexagon,triangle,0,0,0,0,3,3,39,6,,,,,,,,,,,,,,,,,,,,,,,,,,,,,,,,,,,,,,,,232.89022275500247,232.89022275500247,232.89022275500247,232.89022275500247,232.89022275500247,232.89022275500247,232.89022275500247,232.89022275500247,232.89022275500247,232.89022275500247,a,1.3191972839995287,10,274,0,234.22747252200134,235.72631105700202,235.72631105700202,236.22663088300033,,,,,,,,,,,,,,,,,,,,,,,,,,,,,,,,,,,,,,,,,,,,,,,,,,,,,,,,,,,,,,,,33343,2022-10-25_13h51.39.109,vts_reward_expectancy_bt_OFFLINE,2022.2.4,60.03338360408699,
0,1,0,0,1,0,0,0,circle,triangle,0,0,0,0,3,4,40,3,,,,,,,,,,,,,,,,,,,,,,,,,,,,,,,,,,,,,,,,236.22663088300033,236.22663088300033,236.22663088300033,236.22663088300033,236.22663088300033,236.22663088300033,236.22663088300033,236.22663088300033,236.22663088300033,236.22663088300033,l,2.590683148999233,1,275,0,238.8473676270005,240.34653991400046,240.34653991400046,240.84660454800178,,,,,,,,,,,,,,,,,,,,,,,,,,,,,,,,,,,,,,,,,,,,,,,,,,,,,,,,,,,,,,,,33343,2022-10-25_13h51.39.109,vts_reward_expectancy_bt_OFFLINE,2022.2.4,60.03338360408699,
0,0,0,1,1,0,0,0,star,triangle,0,0,0,0,3,5,41,9,,,,,,,,,,,,,,,,,,,,,,,,,,,,,,,,,,,,,,,,240.84660454800178,240.84660454800178,240.84660454800178,240.84660454800178,240.84660454800178,240.84660454800178,240.84660454800178,240.84660454800178,240.84660454800178,240.84660454800178,a,2.0740663270007644,10,285,0,242.94823506000102,244.44958909300112,,,,,,,,,,,,,,,,,,,,,,,,,,,,,,,,,,,,,,,,,,,,,,,,,,,,,,,,,,,,,,,,,,33343,2022-10-25_13h51.39.109,vts_reward_expectancy_bt_OFFLINE,2022.2.4,60.03338360408699,
0,1,0,0,0,0,0,1,circle,star,0,0,0,0,3,6,42,5,,,,,,,,,,,,,,,,,,,,,,,,,,,,,,,,,,,,,,,,244.9500228370016,244.9500228370016,244.9500228370016,244.9500228370016,244.9500228370016,244.9500228370016,244.9500228370016,244.9500228370016,244.9500228370016,244.9500228370016,a,1.5791971069993451,1,286,0,246.5516512009999,248.05124481700113,248.05124481700113,,,,,,,,,,,,,,,,,,,,,,,,,,,,,,,,,,,,,,,,,,,,,,,,,,,,,,,,,,,,,,,,,33343,2022-10-25_13h51.39.109,vts_reward_expectancy_bt_OFFLINE,2022.2.4,60.03338360408699,
1,0,0,0,0,1,0,0,triangle,circle,0,0,0,0,3,7,43,0,,,,,,,,,,,,,,,,,,,,,,,,,,,,,,,,,,,,,,,,248.55311803600125,248.55311803600125,248.55311803600125,248.55311803600125,248.55311803600125,248.55311803600125,248.55311803600125,248.55311803600125,248.55311803600125,248.55311803600125,l,3.9443586810011766,1,287,0,252.52127913500226,254.0236521830011,,,,,,,,,,,,,,,,,,,,,,,,,,,,,,,,,,,,,,,,,,,,,,,,,,,,,,,,,,,,,,,,,,33343,2022-10-25_13h51.39.109,vts_reward_expectancy_bt_OFFLINE,2022.2.4,60.03338360408699,
1,0,0,0,0,0,1,0,triangle,hexagon,0,0,0,0,3,8,44,1,,,,,,,,,,,,,,,,,,,,,,,,,,,,,,,,,,,,,,,,254.52370499500103,254.52370499500103,254.52370499500103,254.52370499500103,254.52370499500103,254.52370499500103,254.52370499500103,254.52370499500103,254.52370499500103,254.52370499500103,l,12.877858107000066,10,297,0,267.4330933650017,268.9346097660018,,,,,,,,,,,,,,,,,,,,,,,,,,,,,,,,,,,,,,,,,,,,,,,,,,,,,,,,,,,,,,,,,,33343,2022-10-25_13h51.39.109,vts_reward_expectancy_bt_OFFLINE,2022.2.4,60.03338360408699,
1,0,0,0,0,0,0,1,triangle,star,0,0,0,0,3,9,45,2,,,,,,,,,,,,,,,,,,,,,,,,,,,,,,,,,,,,,,,,269.43478759900245,269.43478759900245,269.43478759900245,269.43478759900245,269.43478759900245,269.43478759900245,269.43478759900245,269.43478759900245,269.43478759900245,269.43478759900245,a,12.854746657998476,1,298,0,282.31083276500067,283.81201448900174,,,,,,,,,,,,,,,,,,,,,,,,,,,,,,,,,,,,,,,,,,,,,,,,,,,,,,,,,,,,,,,,,,33343,2022-10-25_13h51.39.109,vts_reward_expectancy_bt_OFFLINE,2022.2.4,60.03338360408699,
0,1,0,0,0,0,1,0,circle,hexagon,0,0,0,0,3,10,46,4,,,,,,,,,,,,,,,,,,,,,,,,,,,,,,,,,,,,,,,,284.31224082300105,284.31224082300105,284.31224082300105,284.31224082300105,284.31224082300105,284.31224082300105,284.31224082300105,284.31224082300105,284.31224082300105,284.31224082300105,a,4.073268845997518,1,299,0,288.4156493139999,289.9161022690023,289.9161022690023,,,,,,,,,,,,,,,,,,,,,,,,,,,,,,,,,,,,,,,,,,,,,,,,,,,,,,,,,,,,,,,,,33343,2022-10-25_13h51.39.109,vts_reward_expectancy_bt_OFFLINE,2022.2.4,60.03338360408699,
0,0,1,0,0,1,0,0,hexagon,circle,0,0,0,0,3,11,47,7,,,,,,,,,,,,,,,,,,,,,,,,,,,,,,,,,,,,,,,,290.41635050900004,290.41635050900004,290.41635050900004,290.41635050900004,290.41635050900004,290.41635050900004,290.41635050900004,290.41635050900004,290.41635050900004,290.41635050900004,l,2.376860313001089,1,300,0,292.8172086570012,294.31953393300137,,,,,,,,,,,,,,,,,,,,,,,,,,,,,,,,,,,,,,,,,,,,,,,,,,,,,,,,,,,,,,,,,,33343,2022-10-25_13h51.39.109,vts_reward_expectancy_bt_OFFLINE,2022.2.4,60.03338360408699,
0,0,0,1,0,1,0,0,star ,circle,1,0,1,0,0,0,0,10,,,,,,,,,,,,,,,,,,,,,,,,,,,,,,,,,,,,,,,,298.75027780000164,298.75027780000164,298.75027780000164,298.75027780000164,298.75027780000164,298.75027780000164,298.75027780000164,298.75027780000164,298.75027780000164,298.75027780000164,a,0.8347426969994558,1,301,1,299.60671908400036,301.10705884000345,301.10705884000345,301.6073415000028,,,,,,,,,,,,,,,,,,,,,,,,,,,,,,,,,,,,,,,,,,,,,,,,,,,,,,,,,,,,,,,,33343,2022-10-25_13h51.39.109,vts_reward_expectancy_bt_OFFLINE,2022.2.4,60.03338360408699,
0,0,1,0,1,0,0,0,hexagon,triangle,1,0,1,0,0,1,1,6,,,,,,,,,,,,,,,,,,,,,,,,,,,,,,,,,,,,,,,,301.6073415000028,301.6073415000028,301.6073415000028,301.6073415000028,301.6073415000028,301.6073415000028,301.6073415000028,301.6073415000028,301.6073415000028,301.6073415000028,a,0.8652442880011222,1,302,1,302.4910072110033,303.99337161800213,,,,,,,,,,,,,,,,,,,,,,,,,,,,,,,,,,,,,,,,,,,,,,,,,,,,,,,,,,,,,,,,,,33343,2022-10-25_13h51.39.109,vts_reward_expectancy_bt_OFFLINE,2022.2.4,60.03338360408699,
1,0,0,0,0,1,0,0,triangle,circle,1,0,1,0,0,2,2,0,,,,,,,,,,,,,,,,,,,,,,,,,,,,,,,,,,,,,,,,304.49375516500004,304.49375516500004,304.49375516500004,304.49375516500004,304.49375516500004,304.49375516500004,304.49375516500004,304.49375516500004,304.49375516500004,304.49375516500004,a,1.0592904660006752,1,303,1,305.5774086170022,307.07785053500265,307.07785053500265,307.57781086900286,,,,,,,,,,,,,,,,,,,,,,,,,,,,,,,,,,,,,,,,,,,,,,,,,,,,,,,,,,,,,,,,33343,2022-10-25_13h51.39.109,vts_reward_expectancy_bt_OFFLINE,2022.2.4,60.03338360408699,
0,0,1,0,0,0,0,1,hexagon,star,1,0,1,0,0,3,3,8,,,,,,,,,,,,,,,,,,,,,,,,,,,,,,,,,,,,,,,,307.57781086900286,307.57781086900286,307.57781086900286,307.57781086900286,307.57781086900286,307.57781086900286,307.57781086900286,307.57781086900286,307.57781086900286,307.57781086900286,a,1.590862136999931,10,313,1,309.1980396660001,310.6976542540033,310.6976542540033,311.19732793700314,,,,,,,,,,,,,,,,,,,,,,,,,,,,,,,,,,,,,,,,,,,,,,,,,,,,,,,,,,,,,,,,33343,2022-10-25_13h51.39.109,vts_reward_expectancy_bt_OFFLINE,2022.2.4,60.03338360408699,
0,1,0,0,1,0,0,0,circle,triangle,1,0,1,0,0,4,4,3,,,,,,,,,,,,,,,,,,,,,,,,,,,,,,,,,,,,,,,,311.19732793700314,311.19732793700314,311.19732793700314,311.19732793700314,311.19732793700314,311.19732793700314,311.19732793700314,311.19732793700314,311.19732793700314,311.19732793700314,a,0.8600286840010085,10,323,1,312.08149826700173,313.58384992300125,,,,,,,,,,,,,,,,,,,,,,,,,,,,,,,,,,,,,,,,,,,,,,,,,,,,,,,,,,,,,,,,,,33343,2022-10-25_13h51.39.109,vts_reward_expectancy_bt_OFFLINE,2022.2.4,60.03338360408699,
1,0,0,0,0,0,1,0,triangle,hexagon,1,0,1,0,0,5,5,1,,,,,,,,,,,,,,,,,,,,,,,,,,,,,,,,,,,,,,,,314.08392191500025,314.08392191500025,314.08392191500025,314.08392191500025,314.08392191500025,314.08392191500025,314.08392191500025,314.08392191500025,314.08392191500025,314.08392191500025,a,1.1497944539987657,10,333,1,315.25102459700065,316.7516483040017,316.7516483040017,317.25194965000264,,,,,,,,,,,,,,,,,,,,,,,,,,,,,,,,,,,,,,,,,,,,,,,,,,,,,,,,,,,,,,,,33343,2022-10-25_13h51.39.109,vts_reward_expectancy_bt_OFFLINE,2022.2.4,60.03338360408699,
0,1,0,0,0,0,1,0,circle,hexagon,1,0,1,0,0,6,6,4,,,,,,,,,,,,,,,,,,,,,,,,,,,,,,,,,,,,,,,,317.25194965000264,317.25194965000264,317.25194965000264,317.25194965000264,317.25194965000264,317.25194965000264,317.25194965000264,317.25194965000264,317.25194965000264,317.25194965000264,a,0.6447412210000039,1,334,1,317.9197328120026,319.4209574180022,,,,,,,,,,,,,,,,,,,,,,,,,,,,,,,,,,,,,,,,,,,,,,,,,,,,,,,,,,,,,,,,,,33343,2022-10-25_13h51.39.109,vts_reward_expectancy_bt_OFFLINE,2022.2.4,60.03338360408699,
0,1,0,0,0,0,0,1,circle,star,1,0,1,0,0,7,7,5,,,,,,,,,,,,,,,,,,,,,,,,,,,,,,,,,,,,,,,,319.921530155003,319.921530155003,319.921530155003,319.921530155003,319.921530155003,319.921530155003,319.921530155003,319.921530155003,319.921530155003,319.921530155003,l,2.375280362997728,10,344,1,322.32374617400274,323.8244151500003,,,,,,,,,,,,,,,,,,,,,,,,,,,,,,,,,,,,,,,,,,,,,,,,,,,,,,,,,,,,,,,,,,33343,2022-10-25_13h51.39.109,vts_reward_expectancy_bt_OFFLINE,2022.2.4,60.03338360408699,
0,0,1,0,0,1,0,0,hexagon,circle,1,0,1,0,0,8,8,7,,,,,,,,,,,,,,,,,,,,,,,,,,,,,,,,,,,,,,,,324.32484341300005,324.32484341300005,324.32484341300005,324.32484341300005,324.32484341300005,324.32484341300005,324.32484341300005,324.32484341300005,324.32484341300005,324.32484341300005,a,0.7722022480011219,10,354,1,325.1249244740029,326.62545507899995,326.62545507899995,327.12578734100316,,,,,,,,,,,,,,,,,,,,,,,,,,,,,,,,,,,,,,,,,,,,,,,,,,,,,,,,,,,,,,,,33343,2022-10-25_13h51.39.109,vts_reward_expectancy_bt_OFFLINE,2022.2.4,60.03338360408699,
1,0,0,0,0,0,0,1,triangle,star,1,0,1,0,0,9,9,2,,,,,,,,,,,,,,,,,,,,,,,,,,,,,,,,,,,,,,,,327.12578734100316,327.12578734100316,327.12578734100316,327.12578734100316,327.12578734100316,327.12578734100316,327.12578734100316,327.12578734100316,327.12578734100316,327.12578734100316,l,1.130757345999882,10,364,1,328.276025465002,329.7785388950033,,,,,,,,,,,,,,,,,,,,,,,,,,,,,,,,,,,,,,,,,,,,,,,,,,,,,,,,,,,,,,,,,,33343,2022-10-25_13h51.39.109,vts_reward_expectancy_bt_OFFLINE,2022.2.4,60.03338360408699,
0,0,0,1,1,0,0,0,star,triangle,1,0,1,0,0,10,10,9,,,,,,,,,,,,,,,,,,,,,,,,,,,,,,,,,,,,,,,,330.27828916600265,330.27828916600265,330.27828916600265,330.27828916600265,330.27828916600265,330.27828916600265,330.27828916600265,330.27828916600265,330.27828916600265,330.27828916600265,l,1.554797876997327,1,365,1,331.86371905500346,333.3647575820032,,,,,,,,,,,,,,,,,,,,,,,,,,,,,,,,,,,,,,,,,,,,,,,,,,,,,,,,,,,,,,,,,,33343,2022-10-25_13h51.39.109,vts_reward_expectancy_bt_OFFLINE,2022.2.4,60.03338360408699,
0,0,0,1,0,0,1,0,star,hexagon,1,0,1,0,0,11,11,11,,,,,,,,,,,,,,,,,,,,,,,,,,,,,,,,,,,,,,,,333.86515648800196,333.86515648800196,333.86515648800196,333.86515648800196,333.86515648800196,333.86515648800196,333.86515648800196,333.86515648800196,333.86515648800196,333.86515648800196,a,1.007874228998844,10,375,1,334.9000167680024,336.39931151600103,336.39931151600103,336.89955241100324,,,,,,,,,,,,,,,,,,,,,,,,,,,,,,,,,,,,,,,,,,,,,,,,,,,,,,,,,,,,,,,,33343,2022-10-25_13h51.39.109,vts_reward_expectancy_bt_OFFLINE,2022.2.4,60.03338360408699,
0,0,1,0,1,0,0,0,hexagon,triangle,1,0,1,0,1,0,12,6,,,,,,,,,,,,,,,,,,,,,,,,,,,,,,,,,,,,,,,,336.89955241100324,336.89955241100324,336.89955241100324,336.89955241100324,336.89955241100324,336.89955241100324,336.89955241100324,336.89955241100324,336.89955241100324,336.89955241100324,a,0.7422093069981202,10,385,1,337.6664115050007,339.16877342800217,,,,,,,,,,,,,,,,,,,,,,,,,,,,,,,,,,,,,,,,,,,,,,,,,,,,,,,,,,,,,,,,,,33343,2022-10-25_13h51.39.109,vts_reward_expectancy_bt_OFFLINE,2022.2.4,60.03338360408699,
1,0,0,0,0,0,1,0,triangle,hexagon,1,0,1,0,1,1,13,1,,,,,,,,,,,,,,,,,,,,,,,,,,,,,,,,,,,,,,,,339.66907671100125,339.66907671100125,339.66907671100125,339.66907671100125,339.66907671100125,339.66907671100125,339.66907671100125,339.66907671100125,339.66907671100125,339.66907671100125,l,0.7642673129994364,10,395,1,340.45273447900036,341.95304501100327,341.95304501100327,342.45313478700336,,,,,,,,,,,,,,,,,,,,,,,,,,,,,,,,,,,,,,,,,,,,,,,,,,,,,,,,,,,,,,,,33343,2022-10-25_13h51.39.109,vts_reward_expectancy_bt_OFFLINE,2022.2.4,60.03338360408699,
0,0,0,1,0,0,1,0,star,hexagon,1,0,1,0,1,2,14,11,,,,,,,,,,,,,,,,,,,,,,,,,,,,,,,,,,,,,,,,342.45313478700336,342.45313478700336,342.45313478700336,342.45313478700336,342.45313478700336,342.45313478700336,342.45313478700336,342.45313478700336,342.45313478700336,342.45313478700336,a,0.5002375469994149,10,405,1,342.9699593560035,344.47254004700153,,,,,,,,,,,,,,,,,,,,,,,,,,,,,,,,,,,,,,,,,,,,,,,,,,,,,,,,,,,,,,,,,,33343,2022-10-25_13h51.39.109,vts_reward_expectancy_bt_OFFLINE,2022.2.4,60.03338360408699,
0,0,0,1,0,1,0,0,star ,circle,1,0,1,0,1,3,15,10,,,,,,,,,,,,,,,,,,,,,,,,,,,,,,,,,,,,,,,,344.9727288460017,344.9727288460017,344.9727288460017,344.9727288460017,344.9727288460017,344.9727288460017,344.9727288460017,344.9727288460017,344.9727288460017,344.9727288460017,a,0.7238818779987923,10,415,1,345.72315124300076,347.2235218400019,347.2235218400019,347.7239525240002,,,,,,,,,,,,,,,,,,,,,,,,,,,,,,,,,,,,,,,,,,,,,,,,,,,,,,,,,,,,,,,,33343,2022-10-25_13h51.39.109,vts_reward_expectancy_bt_OFFLINE,2022.2.4,60.03338360408699,
0,1,0,0,0,0,1,0,circle,hexagon,1,0,1,0,1,4,16,4,,,,,,,,,,,,,,,,,,,,,,,,,,,,,,,,,,,,,,,,347.7239525240002,347.7239525240002,347.7239525240002,347.7239525240002,347.7239525240002,347.7239525240002,347.7239525240002,347.7239525240002,347.7239525240002,347.7239525240002,l,0.4770983279995562,1,416,1,348.225533912002,349.7264220370016,,,,,,,,,,,,,,,,,,,,,,,,,,,,,,,,,,,,,,,,,,,,,,,,,,,,,,,,,,,,,,,,,,33343,2022-10-25_13h51.39.109,vts_reward_expectancy_bt_OFFLINE,2022.2.4,60.03338360408699,
0,0,1,0,0,0,0,1,hexagon,star,1,0,1,0,1,5,17,8,,,,,,,,,,,,,,,,,,,,,,,,,,,,,,,,,,,,,,,,350.2264461520026,350.2264461520026,350.2264461520026,350.2264461520026,350.2264461520026,350.2264461520026,350.2264461520026,350.2264461520026,350.2264461520026,350.2264461520026,a,0.7827540060025058,10,426,1,351.0283535160015,352.5274681030023,352.5274681030023,353.0274158259999,,,,,,,,,,,,,,,,,,,,,,,,,,,,,,,,,,,,,,,,,,,,,,,,,,,,,,,,,,,,,,,,33343,2022-10-25_13h51.39.109,vts_reward_expectancy_bt_OFFLINE,2022.2.4,60.03338360408699,
0,0,1,0,0,1,0,0,hexagon,circle,1,0,1,0,1,6,18,7,,,,,,,,,,,,,,,,,,,,,,,,,,,,,,,,,,,,,,,,353.0274158259999,353.0274158259999,353.0274158259999,353.0274158259999,353.0274158259999,353.0274158259999,353.0274158259999,353.0274158259999,353.0274158259999,353.0274158259999,l,0.9576705339968612,1,427,1,354.0142061000006,355.5134552290001,355.5134552290001,356.0139015550012,,,,,,,,,,,,,,,,,,,,,,,,,,,,,,,,,,,,,,,,,,,,,,,,,,,,,,,,,,,,,,,,33343,2022-10-25_13h51.39.109,vts_reward_expectancy_bt_OFFLINE,2022.2.4,60.03338360408699,
1,0,0,0,0,1,0,0,triangle,circle,1,0,1,0,1,7,19,0,,,,,,,,,,,,,,,,,,,,,,,,,,,,,,,,,,,,,,,,356.0139015550012,356.0139015550012,356.0139015550012,356.0139015550012,356.0139015550012,356.0139015550012,356.0139015550012,356.0139015550012,356.0139015550012,356.0139015550012,a,0.5865793650009437,1,428,1,356.6307081640007,358.13133285500226,358.13133285500226,,,,,,,,,,,,,,,,,,,,,,,,,,,,,,,,,,,,,,,,,,,,,,,,,,,,,,,,,,,,,,,,,33343,2022-10-25_13h51.39.109,vts_reward_expectancy_bt_OFFLINE,2022.2.4,60.03338360408699,
0,0,0,1,1,0,0,0,star,triangle,1,0,1,0,1,8,20,9,,,,,,,,,,,,,,,,,,,,,,,,,,,,,,,,,,,,,,,,358.63330687300186,358.63330687300186,358.63330687300186,358.63330687300186,358.63330687300186,358.63330687300186,358.63330687300186,358.63330687300186,358.63330687300186,358.63330687300186,l,1.0160888489990612,1,429,1,359.6670176840016,361.167540491002,361.167540491002,361.66763063500184,,,,,,,,,,,,,,,,,,,,,,,,,,,,,,,,,,,,,,,,,,,,,,,,,,,,,,,,,,,,,,,,33343,2022-10-25_13h51.39.109,vts_reward_expectancy_bt_OFFLINE,2022.2.4,60.03338360408699,
0,1,0,0,1,0,0,0,circle,triangle,1,0,1,0,1,9,21,3,,,,,,,,,,,,,,,,,,,,,,,,,,,,,,,,,,,,,,,,361.66763063500184,361.66763063500184,361.66763063500184,361.66763063500184,361.66763063500184,361.66763063500184,361.66763063500184,361.66763063500184,361.66763063500184,361.66763063500184,l,1.164881205000711,10,439,1,362.85260073800237,364.35378233600204,,,,,,,,,,,,,,,,,,,,,,,,,,,,,,,,,,,,,,,,,,,,,,,,,,,,,,,,,,,,,,,,,,33343,2022-10-25_13h51.39.109,vts_reward_expectancy_bt_OFFLINE,2022.2.4,60.03338360408699,
1,0,0,0,0,0,0,1,triangle,star,1,0,1,0,1,10,22,2,,,,,,,,,,,,,,,,,,,,,,,,,,,,,,,,,,,,,,,,364.8541302150006,364.8541302150006,364.8541302150006,364.8541302150006,364.8541302150006,364.8541302150006,364.8541302150006,364.8541302150006,364.8541302150006,364.8541302150006,l,0.8428790979996847,10,449,1,365.7210276950027,367.2216620790023,367.2216620790023,367.7214638470032,,,,,,,,,,,,,,,,,,,,,,,,,,,,,,,,,,,,,,,,,,,,,,,,,,,,,,,,,,,,,,,,33343,2022-10-25_13h51.39.109,vts_reward_expectancy_bt_OFFLINE,2022.2.4,60.03338360408699,
0,1,0,0,0,0,0,1,circle,star,1,0,1,0,1,11,23,5,,,,,,,,,,,,,,,,,,,,,,,,,,,,,,,,,,,,,,,,367.7214638470032,367.7214638470032,367.7214638470032,367.7214638470032,367.7214638470032,367.7214638470032,367.7214638470032,367.7214638470032,367.7214638470032,367.7214638470032,a,7.463186916000268,1,450,1,375.2130229250033,376.728492041002,,,,,,,,,,,,,,,,,,,,,,,,,,,,,,,,,,,,,,,,,,,,,,,,,,,,,,,,,,,,,,,,,,33343,2022-10-25_13h51.39.109,vts_reward_expectancy_bt_OFFLINE,2022.2.4,60.03338360408699,
0,0,0,1,0,1,0,0,star ,circle,1,0,1,0,2,0,24,10,,,,,,,,,,,,,,,,,,,,,,,,,,,,,,,,,,,,,,,,377.228862502001,377.228862502001,377.228862502001,377.228862502001,377.228862502001,377.228862502001,377.228862502001,377.228862502001,377.228862502001,377.228862502001,a,1.1237237969980924,1,451,1,378.3743169380032,379.8818009880015,,,,,,,,,,,,,,,,,,,,,,,,,,,,,,,,,,,,,,,,,,,,,,,,,,,,,,,,,,,,,,,,,,33343,2022-10-25_13h51.39.109,vts_reward_expectancy_bt_OFFLINE,2022.2.4,60.03338360408699,
0,0,1,0,0,1,0,0,hexagon,circle,1,0,1,0,2,1,25,7,,,,,,,,,,,,,,,,,,,,,,,,,,,,,,,,,,,,,,,,380.3816486450014,380.3816486450014,380.3816486450014,380.3816486450014,380.3816486450014,380.3816486450014,380.3816486450014,380.3816486450014,380.3816486450014,380.3816486450014,l,4.5395279319964175,1,452,1,384.95212807999997,386.452482374003,386.452482374003,386.95246339200094,,,,,,,,,,,,,,,,,,,,,,,,,,,,,,,,,,,,,,,,,,,,,,,,,,,,,,,,,,,,,,,,33343,2022-10-25_13h51.39.109,vts_reward_expectancy_bt_OFFLINE,2022.2.4,60.03338360408699,
0,1,0,0,1,0,0,0,circle,triangle,1,0,1,0,2,2,26,3,,,,,,,,,,,,,,,,,,,,,,,,,,,,,,,,,,,,,,,,386.95246339200094,386.95246339200094,386.95246339200094,386.95246339200094,386.95246339200094,386.95246339200094,386.95246339200094,386.95246339200094,386.95246339200094,386.95246339200094,l,2.3686195930022222,10,462,1,389.3402121570034,390.8391077140004,390.8391077140004,391.3393364000003,,,,,,,,,,,,,,,,,,,,,,,,,,,,,,,,,,,,,,,,,,,,,,,,,,,,,,,,,,,,,,,,33343,2022-10-25_13h51.39.109,vts_reward_expectancy_bt_OFFLINE,2022.2.4,60.03338360408699,
1,0,0,0,0,0,1,0,triangle,hexagon,1,0,1,0,2,3,27,1,,,,,,,,,,,,,,,,,,,,,,,,,,,,,,,,,,,,,,,,391.3393364000003,391.3393364000003,391.3393364000003,391.3393364000003,391.3393364000003,391.3393364000003,391.3393364000003,391.3393364000003,391.3393364000003,391.3393364000003,l,4.933742289998918,10,472,1,396.2929587840008,397.79330334300175,397.79330334300175,398.2938054660008,,,,,,,,,,,,,,,,,,,,,,,,,,,,,,,,,,,,,,,,,,,,,,,,,,,,,,,,,,,,,,,,33343,2022-10-25_13h51.39.109,vts_reward_expectancy_bt_OFFLINE,2022.2.4,60.03338360408699,
1,0,0,0,0,1,0,0,triangle,circle,1,0,1,0,2,4,28,0,,,,,,,,,,,,,,,,,,,,,,,,,,,,,,,,,,,,,,,,398.2938054660008,398.2938054660008,398.2938054660008,398.2938054660008,398.2938054660008,398.2938054660008,398.2938054660008,398.2938054660008,398.2938054660008,398.2938054660008,l,1.851926203999028,1,473,1,400.16452312000183,401.6800019140028,,,,,,,,,,,,,,,,,,,,,,,,,,,,,,,,,,,,,,,,,,,,,,,,,,,,,,,,,,,,,,,,,,33343,2022-10-25_13h51.39.109,vts_reward_expectancy_bt_OFFLINE,2022.2.4,60.03338360408699,
0,0,0,1,1,0,0,0,star,triangle,1,0,1,0,2,5,29,9,,,,,,,,,,,,,,,,,,,,,,,,,,,,,,,,,,,,,,,,402.18044963600187,402.18044963600187,402.18044963600187,402.18044963600187,402.18044963600187,402.18044963600187,402.18044963600187,402.18044963600187,402.18044963600187,402.18044963600187,a,0.892707799001073,1,474,1,403.0972941040018,404.59954833600204,,,,,,,,,,,,,,,,,,,,,,,,,,,,,,,,,,,,,,,,,,,,,,,,,,,,,,,,,,,,,,,,,,33343,2022-10-25_13h51.39.109,vts_reward_expectancy_bt_OFFLINE,2022.2.4,60.03338360408699,
0,1,0,0,0,0,0,1,circle,star,1,0,1,0,2,6,30,5,,,,,,,,,,,,,,,,,,,,,,,,,,,,,,,,,,,,,,,,405.10000664400286,405.10000664400286,405.10000664400286,405.10000664400286,405.10000664400286,405.10000664400286,405.10000664400286,405.10000664400286,405.10000664400286,405.10000664400286,l,0.8050740079961543,10,484,1,405.9351542100012,407.45054101900314,,,,,,,,,,,,,,,,,,,,,,,,,,,,,,,,,,,,,,,,,,,,,,,,,,,,,,,,,,,,,,,,,,33343,2022-10-25_13h51.39.109,vts_reward_expectancy_bt_OFFLINE,2022.2.4,60.03338360408699,
0,1,0,0,0,0,1,0,circle,hexagon,1,0,1,0,2,7,31,4,,,,,,,,,,,,,,,,,,,,,,,,,,,,,,,,,,,,,,,,407.95096548400033,407.95096548400033,407.95096548400033,407.95096548400033,407.95096548400033,407.95096548400033,407.95096548400033,407.95096548400033,407.95096548400033,407.95096548400033,l,1.137993465999898,10,494,1,409.1196731960008,410.62035607000144,410.62035607000144,,,,,,,,,,,,,,,,,,,,,,,,,,,,,,,,,,,,,,,,,,,,,,,,,,,,,,,,,,,,,,,,,33343,2022-10-25_13h51.39.109,vts_reward_expectancy_bt_OFFLINE,2022.2.4,60.03338360408699,
0,0,1,0,0,0,0,1,hexagon,star,1,0,1,0,2,8,32,8,,,,,,,,,,,,,,,,,,,,,,,,,,,,,,,,,,,,,,,,411.1205367310031,411.1205367310031,411.1205367310031,411.1205367310031,411.1205367310031,411.1205367310031,411.1205367310031,411.1205367310031,411.1205367310031,411.1205367310031,l,0.8401574390009046,10,504,1,411.98738095000226,413.4899172260011,,,,,,,,,,,,,,,,,,,,,,,,,,,,,,,,,,,,,,,,,,,,,,,,,,,,,,,,,,,,,,,,,,33343,2022-10-25_13h51.39.109,vts_reward_expectancy_bt_OFFLINE,2022.2.4,60.03338360408699,
0,0,1,0,1,0,0,0,hexagon,triangle,1,0,1,0,2,9,33,6,,,,,,,,,,,,,,,,,,,,,,,,,,,,,,,,,,,,,,,,413.98969524900167,413.98969524900167,413.98969524900167,413.98969524900167,413.98969524900167,413.98969524900167,413.98969524900167,413.98969524900167,413.98969524900167,413.98969524900167,l,6.603508845997567,1,505,1,420.6125266320014,422.1114818760034,422.1114818760034,422.61171713300064,,,,,,,,,,,,,,,,,,,,,,,,,,,,,,,,,,,,,,,,,,,,,,,,,,,,,,,,,,,,,,,,33343,2022-10-25_13h51.39.109,vts_reward_expectancy_bt_OFFLINE,2022.2.4,60.03338360408699,
1,0,0,0,0,0,0,1,triangle,star,1,0,1,0,2,10,34,2,,,,,,,,,,,,,,,,,,,,,,,,,,,,,,,,,,,,,,,,422.61171713300064,422.61171713300064,422.61171713300064,422.61171713300064,422.61171713300064,422.61171713300064,422.61171713300064,422.61171713300064,422.61171713300064,422.61171713300064,l,0.8128947539989895,10,515,1,423.4501759210034,424.96440533400164,,,,,,,,,,,,,,,,,,,,,,,,,,,,,,,,,,,,,,,,,,,,,,,,,,,,,,,,,,,,,,,,,,33343,2022-10-25_13h51.39.109,vts_reward_expectancy_bt_OFFLINE,2022.2.4,60.03338360408699,
0,0,0,1,0,0,1,0,star,hexagon,1,0,1,0,2,11,35,11,,,,,,,,,,,,,,,,,,,,,,,,,,,,,,,,,,,,,,,,425.46458366700244,425.46458366700244,425.46458366700244,425.46458366700244,425.46458366700244,425.46458366700244,425.46458366700244,425.46458366700244,425.46458366700244,425.46458366700244,a,1.2799216259991226,10,525,1,426.76499733400124,428.2655383199999,428.2655383199999,,,,,,,,,,,,,,,,,,,,,,,,,,,,,,,,,,,,,,,,,,,,,,,,,,,,,,,,,,,,,,,,,33343,2022-10-25_13h51.39.109,vts_reward_expectancy_bt_OFFLINE,2022.2.4,60.03338360408699,
0,0,0,1,0,0,1,0,star,hexagon,1,0,1,0,3,0,36,11,,,,,,,,,,,,,,,,,,,,,,,,,,,,,,,,,,,,,,,,428.76753869000095,428.76753869000095,428.76753869000095,428.76753869000095,428.76753869000095,428.76753869000095,428.76753869000095,428.76753869000095,428.76753869000095,428.76753869000095,a,1.257040810000035,10,535,1,430.0513059940022,431.5517858050007,431.5517858050007,432.05190007400233,,,,,,,,,,,,,,,,,,,,,,,,,,,,,,,,,,,,,,,,,,,,,,,,,,,,,,,,,,,,,,,,33343,2022-10-25_13h51.39.109,vts_reward_expectancy_bt_OFFLINE,2022.2.4,60.03338360408699,
0,1,0,0,1,0,0,0,circle,triangle,1,0,1,0,3,1,37,3,,,,,,,,,,,,,,,,,,,,,,,,,,,,,,,,,,,,,,,,432.05190007400233,432.05190007400233,432.05190007400233,432.05190007400233,432.05190007400233,432.05190007400233,432.05190007400233,432.05190007400233,432.05190007400233,432.05190007400233,l,2.2528464489987527,1,536,1,434.3233102020022,435.83877166300226,,,,,,,,,,,,,,,,,,,,,,,,,,,,,,,,,,,,,,,,,,,,,,,,,,,,,,,,,,,,,,,,,,33343,2022-10-25_13h51.39.109,vts_reward_expectancy_bt_OFFLINE,2022.2.4,60.03338360408699,
1,0,0,0,0,0,1,0,triangle,hexagon,1,0,1,0,3,2,38,1,,,,,,,,,,,,,,,,,,,,,,,,,,,,,,,,,,,,,,,,436.3387235570008,436.3387235570008,436.3387235570008,436.3387235570008,436.3387235570008,436.3387235570008,436.3387235570008,436.3387235570008,436.3387235570008,436.3387235570008,a,1.2938009409990627,1,537,1,437.65592780800216,439.1582294450018,,,,,,,,,,,,,,,,,,,,,,,,,,,,,,,,,,,,,,,,,,,,,,,,,,,,,,,,,,,,,,,,,,33343,2022-10-25_13h51.39.109,vts_reward_expectancy_bt_OFFLINE,2022.2.4,60.03338360408699,
0,0,0,1,0,1,0,0,star ,circle,1,0,1,0,3,3,39,10,,,,,,,,,,,,,,,,,,,,,,,,,,,,,,,,,,,,,,,,439.65849640000306,439.65849640000306,439.65849640000306,439.65849640000306,439.65849640000306,439.65849640000306,439.65849640000306,439.65849640000306,439.65849640000306,439.65849640000306,a,0.7592796800017823,1,538,1,440.4420237860031,441.9424428170023,441.9424428170023,442.4429030700012,,,,,,,,,,,,,,,,,,,,,,,,,,,,,,,,,,,,,,,,,,,,,,,,,,,,,,,,,,,,,,,,33343,2022-10-25_13h51.39.109,vts_reward_expectancy_bt_OFFLINE,2022.2.4,60.03338360408699,
0,0,0,1,1,0,0,0,star,triangle,1,0,1,0,3,4,40,9,,,,,,,,,,,,,,,,,,,,,,,,,,,,,,,,,,,,,,,,442.4429030700012,442.4429030700012,442.4429030700012,442.4429030700012,442.4429030700012,442.4429030700012,442.4429030700012,442.4429030700012,442.4429030700012,442.4429030700012,a,0.6296387780021178,1,539,1,443.09289745500064,444.59560424200026,,,,,,,,,,,,,,,,,,,,,,,,,,,,,,,,,,,,,,,,,,,,,,,,,,,,,,,,,,,,,,,,,,33343,2022-10-25_13h51.39.109,vts_reward_expectancy_bt_OFFLINE,2022.2.4,60.03338360408699,
0,0,1,0,1,0,0,0,hexagon,triangle,1,0,1,0,3,5,41,6,,,,,,,,,,,,,,,,,,,,,,,,,,,,,,,,,,,,,,,,445.09562629300126,445.09562629300126,445.09562629300126,445.09562629300126,445.09562629300126,445.09562629300126,445.09562629300126,445.09562629300126,445.09562629300126,445.09562629300126,l,1.2416134909981338,1,540,1,446.3626633760032,447.8632896070012,,,,,,,,,,,,,,,,,,,,,,,,,,,,,,,,,,,,,,,,,,,,,,,,,,,,,,,,,,,,,,,,,,33343,2022-10-25_13h51.39.109,vts_reward_expectancy_bt_OFFLINE,2022.2.4,60.03338360408699,
0,0,1,0,0,1,0,0,hexagon,circle,1,0,1,0,3,6,42,7,,,,,,,,,,,,,,,,,,,,,,,,,,,,,,,,,,,,,,,,448.363352665001,448.363352665001,448.363352665001,448.363352665001,448.363352665001,448.363352665001,448.363352665001,448.363352665001,448.363352665001,448.363352665001,a,3.2852454940002644,10,550,1,451.66810948200146,453.1838132940029,,,,,,,,,,,,,,,,,,,,,,,,,,,,,,,,,,,,,,,,,,,,,,,,,,,,,,,,,,,,,,,,,,33343,2022-10-25_13h51.39.109,vts_reward_expectancy_bt_OFFLINE,2022.2.4,60.03338360408699,
1,0,0,0,0,0,0,1,triangle,star,1,0,1,0,3,7,43,2,,,,,,,,,,,,,,,,,,,,,,,,,,,,,,,,,,,,,,,,453.66901834700184,453.66901834700184,453.66901834700184,453.66901834700184,453.66901834700184,453.66901834700184,453.66901834700184,453.66901834700184,453.66901834700184,453.66901834700184,l,0.41975501499837264,10,560,1,454.1191705420024,455.6197296490027,455.6197296490027,456.11966917000245,,,,,,,,,,,,,,,,,,,,,,,,,,,,,,,,,,,,,,,,,,,,,,,,,,,,,,,,,,,,,,,,33343,2022-10-25_13h51.39.109,vts_reward_expectancy_bt_OFFLINE,2022.2.4,60.03338360408699,
0,0,1,0,0,0,0,1,hexagon,star,1,0,1,0,3,8,44,8,,,,,,,,,,,,,,,,,,,,,,,,,,,,,,,,,,,,,,,,456.11966917000245,456.11966917000245,456.11966917000245,456.11966917000245,456.11966917000245,456.11966917000245,456.11966917000245,456.11966917000245,456.11966917000245,456.11966917000245,l,0.505527732999326,1,561,1,456.6552271520013,458.1707220770004,,,,,,,,,,,,,,,,,,,,,,,,,,,,,,,,,,,,,,,,,,,,,,,,,,,,,,,,,,,,,,,,,,33343,2022-10-25_13h51.39.109,vts_reward_expectancy_bt_OFFLINE,2022.2.4,60.03338360408699,
1,0,0,0,0,1,0,0,triangle,circle,1,0,1,0,3,9,45,0,,,,,,,,,,,,,,,,,,,,,,,,,,,,,,,,,,,,,,,,458.6559689920032,458.6559689920032,458.6559689920032,458.6559689920032,458.6559689920032,458.6559689920032,458.6559689920032,458.6559689920032,458.6559689920032,458.6559689920032,a,7.504941648996464,10,571,1,466.1940440230028,467.6944461150015,467.6944461150015,468.1947948950001,,,,,,,,,,,,,,,,,,,,,,,,,,,,,,,,,,,,,,,,,,,,,,,,,,,,,,,,,,,,,,,,33343,2022-10-25_13h51.39.109,vts_reward_expectancy_bt_OFFLINE,2022.2.4,60.03338360408699,
0,1,0,0,0,0,0,1,circle,star,1,0,1,0,3,10,46,5,,,,,,,,,,,,,,,,,,,,,,,,,,,,,,,,,,,,,,,,468.1947948950001,468.1947948950001,468.1947948950001,468.1947948950001,468.1947948950001,468.1947948950001,468.1947948950001,468.1947948950001,468.1947948950001,468.1947948950001,l,13.670900665998488,10,581,1,481.8884283490006,483.3891002820019,483.3891002820019,,,,,,,,,,,,,,,,,,,,,,,,,,,,,,,,,,,,,,,,,,,,,,,,,,,,,,,,,,,,,,,,,33343,2022-10-25_13h51.39.109,vts_reward_expectancy_bt_OFFLINE,2022.2.4,60.03338360408699,
0,1,0,0,0,0,1,0,circle,hexagon,1,0,1,0,3,11,47,4,,,,,,,,,,,,,,,,,,,,,,,,,,,,,,,,,,,,,,,,483.89078751500347,483.89078751500347,483.89078751500347,483.89078751500347,483.89078751500347,483.89078751500347,483.89078751500347,483.89078751500347,483.89078751500347,483.89078751500347,l,5.366523836997658,10,591,1,489.27786421100245,490.77873856800215,490.77873856800215,,,,,,,,,,,,,,,,,,,,,,,,,,,,,,,,,,,,,,,,,,,,,,,,,,,,,,,,,,,,,,,,,33343,2022-10-25_13h51.39.109,vts_reward_expectancy_bt_OFFLINE,2022.2.4,60.03338360408699,
0,1,0,0,0,0,0,1,circle,star,2,0,2,0,0,0,0,5,,,,,,,,,,,,,,,,,,,,,,,,,,,,,,,,,,,,,,,,495.926928486002,495.926928486002,495.926928486002,495.926928486002,495.926928486002,495.926928486002,495.926928486002,495.926928486002,495.926928486002,495.926928486002,l,1.2018269219988724,10,601,2,497.14967122800226,498.6517101040008,,,,,,,,,,,,,,,,,,,,,,,,,,,,,,,,,,,,,,,,,,,,,,,,,,,,,,,,,,,,,,,,,,33343,2022-10-25_13h51.39.109,vts_reward_expectancy_bt_OFFLINE,2022.2.4,60.03338360408699,
0,0,0,1,0,0,1,0,star,hexagon,2,0,2,0,0,1,1,11,,,,,,,,,,,,,,,,,,,,,,,,,,,,,,,,,,,,,,,,499.1519529840007,499.1519529840007,499.1519529840007,499.1519529840007,499.1519529840007,499.1519529840007,499.1519529840007,499.1519529840007,499.1519529840007,499.1519529840007,l,1.2261582619976252,10,611,2,500.4023989280031,501.9025823150005,501.9025823150005,,,,,,,,,,,,,,,,,,,,,,,,,,,,,,,,,,,,,,,,,,,,,,,,,,,,,,,,,,,,,,,,,33343,2022-10-25_13h51.39.109,vts_reward_expectancy_bt_OFFLINE,2022.2.4,60.03338360408699,
0,0,1,0,1,0,0,0,hexagon,triangle,2,0,2,0,0,2,2,6,,,,,,,,,,,,,,,,,,,,,,,,,,,,,,,,,,,,,,,,502.40304116000334,502.40304116000334,502.40304116000334,502.40304116000334,502.40304116000334,502.40304116000334,502.40304116000334,502.40304116000334,502.40304116000334,502.40304116000334,a,2.773919246999867,10,621,2,505.2060874400013,506.70643562700207,506.70643562700207,507.206621972,,,,,,,,,,,,,,,,,,,,,,,,,,,,,,,,,,,,,,,,,,,,,,,,,,,,,,,,,,,,,,,,33343,2022-10-25_13h51.39.109,vts_reward_expectancy_bt_OFFLINE,2022.2.4,60.03338360408699,
1,0,0,0,0,0,1,0,triangle,hexagon,2,0,2,0,0,3,3,1,,,,,,,,,,,,,,,,,,,,,,,,,,,,,,,,,,,,,,,,507.206621972,507.206621972,507.206621972,507.206621972,507.206621972,507.206621972,507.206621972,507.206621972,507.206621972,507.206621972,l,0.8748930119982106,10,631,2,508.10668877800344,509.60952786500275,,,,,,,,,,,,,,,,,,,,,,,,,,,,,,,,,,,,,,,,,,,,,,,,,,,,,,,,,,,,,,,,,,33343,2022-10-25_13h51.39.109,vts_reward_expectancy_bt_OFFLINE,2022.2.4,60.03338360408699,
0,0,0,1,1,0,0,0,star,triangle,2,0,2,0,0,4,4,9,,,,,,,,,,,,,,,,,,,,,,,,,,,,,,,,,,,,,,,,510.1095943950022,510.1095943950022,510.1095943950022,510.1095943950022,510.1095943950022,510.1095943950022,510.1095943950022,510.1095943950022,510.1095943950022,510.1095943950022,a,1.8429812539980048,1,632,2,511.97891258000163,513.4822282980022,,,,,,,,,,,,,,,,,,,,,,,,,,,,,,,,,,,,,,,,,,,,,,,,,,,,,,,,,,,,,,,,,,33343,2022-10-25_13h51.39.109,vts_reward_expectancy_bt_OFFLINE,2022.2.4,60.03338360408699,
1,0,0,0,0,1,0,0,triangle,circle,2,0,2,0,0,5,5,0,,,,,,,,,,,,,,,,,,,,,,,,,,,,,,,,,,,,,,,,513.9792796780021,513.9792796780021,513.9792796780021,513.9792796780021,513.9792796780021,513.9792796780021,513.9792796780021,513.9792796780021,513.9792796780021,513.9792796780021,l,3.037236641997879,1,633,2,517.0472820680006,518.5496222070033,,,,,,,,,,,,,,,,,,,,,,,,,,,,,,,,,,,,,,,,,,,,,,,,,,,,,,,,,,,,,,,,,,33343,2022-10-25_13h51.39.109,vts_reward_expectancy_bt_OFFLINE,2022.2.4,60.03338360408699,
0,0,1,0,0,0,0,1,hexagon,star,2,0,2,0,0,6,6,8,,,,,,,,,,,,,,,,,,,,,,,,,,,,,,,,,,,,,,,,519.0495887300021,519.0495887300021,519.0495887300021,519.0495887300021,519.0495887300021,519.0495887300021,519.0495887300021,519.0495887300021,519.0495887300021,519.0495887300021,l,0.8637522929966508,10,643,2,519.9356162460026,521.4506350250012,,,,,,,,,,,,,,,,,,,,,,,,,,,,,,,,,,,,,,,,,,,,,,,,,,,,,,,,,,,,,,,,,,33343,2022-10-25_13h51.39.109,vts_reward_expectancy_bt_OFFLINE,2022.2.4,60.03338360408699,
0,0,1,0,0,1,0,0,hexagon,circle,2,0,2,0,0,7,7,7,,,,,,,,,,,,,,,,,,,,,,,,,,,,,,,,,,,,,,,,521.950711679001,521.950711679001,521.950711679001,521.950711679001,521.950711679001,521.950711679001,521.950711679001,521.950711679001,521.950711679001,521.950711679001,a,2.1221373839980515,10,653,2,524.1036327890033,525.6038674570009,525.6038674570009,526.1650056930011,,,,,,,,,,,,,,,,,,,,,,,,,,,,,,,,,,,,,,,,,,,,,,,,,,,,,,,,,,,,,,,,33343,2022-10-25_13h51.39.109,vts_reward_expectancy_bt_OFFLINE,2022.2.4,60.03338360408699,
0,1,0,0,0,0,1,0,circle,hexagon,2,0,2,0,0,8,8,4,,,,,,,,,,,,,,,,,,,,,,,,,,,,,,,,,,,,,,,,526.1650056930011,526.1650056930011,526.1650056930011,526.1650056930011,526.1650056930011,526.1650056930011,526.1650056930011,526.1650056930011,526.1650056930011,526.1650056930011,a,1.9641067679986008,1,654,2,528.1566383240024,529.6572076900011,,,,,,,,,,,,,,,,,,,,,,,,,,,,,,,,,,,,,,,,,,,,,,,,,,,,,,,,,,,,,,,,,,33343,2022-10-25_13h51.39.109,vts_reward_expectancy_bt_OFFLINE,2022.2.4,60.03338360408699,
0,1,0,0,1,0,0,0,circle,triangle,2,0,2,0,0,9,9,3,,,,,,,,,,,,,,,,,,,,,,,,,,,,,,,,,,,,,,,,530.1576494220026,530.1576494220026,530.1576494220026,530.1576494220026,530.1576494220026,530.1576494220026,530.1576494220026,530.1576494220026,530.1576494220026,530.1576494220026,a,1.0914818119999836,1,655,2,531.2745986120026,532.7750393340029,532.7750393340029,,,,,,,,,,,,,,,,,,,,,,,,,,,,,,,,,,,,,,,,,,,,,,,,,,,,,,,,,,,,,,,,,33343,2022-10-25_13h51.39.109,vts_reward_expectancy_bt_OFFLINE,2022.2.4,60.03338360408699,
0,0,0,1,0,1,0,0,star ,circle,2,0,2,0,0,10,10,10,,,,,,,,,,,,,,,,,,,,,,,,,,,,,,,,,,,,,,,,533.2752765740006,533.2752765740006,533.2752765740006,533.2752765740006,533.2752765740006,533.2752765740006,533.2752765740006,533.2752765740006,533.2752765740006,533.2752765740006,l,1.854207704000146,1,656,2,535.1609938760012,536.6615745460003,536.6615745460003,537.1616837670008,,,,,,,,,,,,,,,,,,,,,,,,,,,,,,,,,,,,,,,,,,,,,,,,,,,,,,,,,,,,,,,,33343,2022-10-25_13h51.39.109,vts_reward_expectancy_bt_OFFLINE,2022.2.4,60.03338360408699,
1,0,0,0,0,0,0,1,triangle,star,2,0,2,0,0,11,11,2,,,,,,,,,,,,,,,,,,,,,,,,,,,,,,,,,,,,,,,,537.1616837670008,537.1616837670008,537.1616837670008,537.1616837670008,537.1616837670008,537.1616837670008,537.1616837670008,537.1616837670008,537.1616837670008,537.1616837670008,l,1.3834557609989133,1,657,2,538.5642099530014,540.0647221040017,540.0647221040017,540.5648857060005,,,,,,,,,,,,,,,,,,,,,,,,,,,,,,,,,,,,,,,,,,,,,,,,,,,,,,,,,,,,,,,,33343,2022-10-25_13h51.39.109,vts_reward_expectancy_bt_OFFLINE,2022.2.4,60.03338360408699,
0,0,1,0,0,0,0,1,hexagon,star,2,0,2,0,1,0,12,8,,,,,,,,,,,,,,,,,,,,,,,,,,,,,,,,,,,,,,,,540.5648857060005,540.5648857060005,540.5648857060005,540.5648857060005,540.5648857060005,540.5648857060005,540.5648857060005,540.5648857060005,540.5648857060005,540.5648857060005,l,1.6122015449982428,10,667,2,542.2008322050024,543.701209943003,,,,,,,,,,,,,,,,,,,,,,,,,,,,,,,,,,,,,,,,,,,,,,,,,,,,,,,,,,,,,,,,,,33343,2022-10-25_13h51.39.109,vts_reward_expectancy_bt_OFFLINE,2022.2.4,60.03338360408699,
1,0,0,0,0,0,0,1,triangle,star,2,0,2,0,1,1,13,2,,,,,,,,,,,,,,,,,,,,,,,,,,,,,,,,,,,,,,,,544.2012159370024,544.2012159370024,544.2012159370024,544.2012159370024,544.2012159370024,544.2012159370024,544.2012159370024,544.2012159370024,544.2012159370024,544.2012159370024,l,1.3839953739989141,10,677,2,545.6020733880032,547.1023089900009,547.1023089900009,547.6025294930005,,,,,,,,,,,,,,,,,,,,,,,,,,,,,,,,,,,,,,,,,,,,,,,,,,,,,,,,,,,,,,,,33343,2022-10-25_13h51.39.109,vts_reward_expectancy_bt_OFFLINE,2022.2.4,60.03338360408699,
0,0,0,1,1,0,0,0,star,triangle,2,0,2,0,1,2,14,9,,,,,,,,,,,,,,,,,,,,,,,,,,,,,,,,,,,,,,,,547.6025294930005,547.6025294930005,547.6025294930005,547.6025294930005,547.6025294930005,547.6025294930005,547.6025294930005,547.6025294930005,547.6025294930005,547.6025294930005,a,3.4301655769995705,10,687,2,551.0560364170015,552.5561348110023,552.5561348110023,553.0562850599999,,,,,,,,,,,,,,,,,,,,,,,,,,,,,,,,,,,,,,,,,,,,,,,,,,,,,,,,,,,,,,,,33343,2022-10-25_13h51.39.109,vts_reward_expectancy_bt_OFFLINE,2022.2.4,60.03338360408699,
1,0,0,0,0,0,1,0,triangle,hexagon,2,0,2,0,1,3,15,1,,,,,,,,,,,,,,,,,,,,,,,,,,,,,,,,,,,,,,,,553.0562850599999,553.0562850599999,553.0562850599999,553.0562850599999,553.0562850599999,553.0562850599999,553.0562850599999,553.0562850599999,553.0562850599999,553.0562850599999,l,1.057237108998379,10,697,2,554.142104601,555.6425093570033,555.6425093570033,556.1426743740012,,,,,,,,,,,,,,,,,,,,,,,,,,,,,,,,,,,,,,,,,,,,,,,,,,,,,,,,,,,,,,,,33343,2022-10-25_13h51.39.109,vts_reward_expectancy_bt_OFFLINE,2022.2.4,60.03338360408699,
0,1,0,0,0,0,0,1,circle,star,2,0,2,0,1,4,16,5,,,,,,,,,,,,,,,,,,,,,,,,,,,,,,,,,,,,,,,,556.1426743740012,556.1426743740012,556.1426743740012,556.1426743740012,556.1426743740012,556.1426743740012,556.1426743740012,556.1426743740012,556.1426743740012,556.1426743740012,l,1.5303041520019178,10,707,2,557.6934734660026,559.1953622010005,,,,,,,,,,,,,,,,,,,,,,,,,,,,,,,,,,,,,,,,,,,,,,,,,,,,,,,,,,,,,,,,,,33343,2022-10-25_13h51.39.109,vts_reward_expectancy_bt_OFFLINE,2022.2.4,60.03338360408699,
0,0,0,1,0,1,0,0,star ,circle,2,0,2,0,1,5,17,10,,,,,,,,,,,,,,,,,,,,,,,,,,,,,,,,,,,,,,,,559.6960100130018,559.6960100130018,559.6960100130018,559.6960100130018,559.6960100130018,559.6960100130018,559.6960100130018,559.6960100130018,559.6960100130018,559.6960100130018,a,0.8811801339979866,10,717,2,560.5962121700031,562.0967061040028,562.0967061040028,562.5969847510023,,,,,,,,,,,,,,,,,,,,,,,,,,,,,,,,,,,,,,,,,,,,,,,,,,,,,,,,,,,,,,,,33343,2022-10-25_13h51.39.109,vts_reward_expectancy_bt_OFFLINE,2022.2.4,60.03338360408699,
1,0,0,0,0,1,0,0,triangle,circle,2,0,2,0,1,6,18,0,,,,,,,,,,,,,,,,,,,,,,,,,,,,,,,,,,,,,,,,562.5969847510023,562.5969847510023,562.5969847510023,562.5969847510023,562.5969847510023,562.5969847510023,562.5969847510023,562.5969847510023,562.5969847510023,562.5969847510023,a,2.39612237899928,1,718,2,565.0183492330034,566.5334001620031,,,,,,,,,,,,,,,,,,,,,,,,,,,,,,,,,,,,,,,,,,,,,,,,,,,,,,,,,,,,,,,,,,33343,2022-10-25_13h51.39.109,vts_reward_expectancy_bt_OFFLINE,2022.2.4,60.03338360408699,
0,0,0,1,0,0,1,0,star,hexagon,2,0,2,0,1,7,19,11,,,,,,,,,,,,,,,,,,,,,,,,,,,,,,,,,,,,,,,,567.0336222650003,567.0336222650003,567.0336222650003,567.0336222650003,567.0336222650003,567.0336222650003,567.0336222650003,567.0336222650003,567.0336222650003,567.0336222650003,l,2.8387682989996392,10,728,2,569.9054476720012,571.4203137020013,,,,,,,,,,,,,,,,,,,,,,,,,,,,,,,,,,,,,,,,,,,,,,,,,,,,,,,,,,,,,,,,,,33343,2022-10-25_13h51.39.109,vts_reward_expectancy_bt_OFFLINE,2022.2.4,60.03338360408699,
0,1,0,0,0,0,1,0,circle,hexagon,2,0,2,0,1,8,20,4,,,,,,,,,,,,,,,,,,,,,,,,,,,,,,,,,,,,,,,,571.9205934450001,571.9205934450001,571.9205934450001,571.9205934450001,571.9205934450001,571.9205934450001,571.9205934450001,571.9205934450001,571.9205934450001,571.9205934450001,l,3.079977109999163,10,738,2,575.0235362240019,576.5238918370014,576.5238918370014,,,,,,,,,,,,,,,,,,,,,,,,,,,,,,,,,,,,,,,,,,,,,,,,,,,,,,,,,,,,,,,,,33343,2022-10-25_13h51.39.109,vts_reward_expectancy_bt_OFFLINE,2022.2.4,60.03338360408699,
0,1,0,0,1,0,0,0,circle,triangle,2,0,2,0,1,9,21,3,,,,,,,,,,,,,,,,,,,,,,,,,,,,,,,,,,,,,,,,577.0242024550025,577.0242024550025,577.0242024550025,577.0242024550025,577.0242024550025,577.0242024550025,577.0242024550025,577.0242024550025,577.0242024550025,577.0242024550025,l,2.441285250999499,1,739,2,579.4958735710024,581.0107220980026,,,,,,,,,,,,,,,,,,,,,,,,,,,,,,,,,,,,,,,,,,,,,,,,,,,,,,,,,,,,,,,,,,33343,2022-10-25_13h51.39.109,vts_reward_expectancy_bt_OFFLINE,2022.2.4,60.03338360408699,
0,0,1,0,0,1,0,0,hexagon,circle,2,0,2,0,1,10,22,7,,,,,,,,,,,,,,,,,,,,,,,,,,,,,,,,,,,,,,,,581.5108921090032,581.5108921090032,581.5108921090032,581.5108921090032,581.5108921090032,581.5108921090032,581.5108921090032,581.5108921090032,581.5108921090032,581.5108921090032,a,7.873809657998208,10,749,2,589.4176156800022,590.918009756002,590.918009756002,591.4182887100033,,,,,,,,,,,,,,,,,,,,,,,,,,,,,,,,,,,,,,,,,,,,,,,,,,,,,,,,,,,,,,,,33343,2022-10-25_13h51.39.109,vts_reward_expectancy_bt_OFFLINE,2022.2.4,60.03338360408699,
0,0,1,0,1,0,0,0,hexagon,triangle,2,0,2,0,1,11,23,6,,,,,,,,,,,,,,,,,,,,,,,,,,,,,,,,,,,,,,,,591.4182887100033,591.4182887100033,591.4182887100033,591.4182887100033,591.4182887100033,591.4182887100033,591.4182887100033,591.4182887100033,591.4182887100033,591.4182887100033,a,1.9914224139974976,1,750,2,593.4378618540031,594.9378785960034,,,,,,,,,,,,,,,,,,,,,,,,,,,,,,,,,,,,,,,,,,,,,,,,,,,,,,,,,,,,,,,,,,33343,2022-10-25_13h51.39.109,vts_reward_expectancy_bt_OFFLINE,2022.2.4,60.03338360408699,
0,0,1,0,0,1,0,0,hexagon,circle,2,0,2,0,2,0,24,7,,,,,,,,,,,,,,,,,,,,,,,,,,,,,,,,,,,,,,,,595.4380439230008,595.4380439230008,595.4380439230008,595.4380439230008,595.4380439230008,595.4380439230008,595.4380439230008,595.4380439230008,595.4380439230008,595.4380439230008,l,1.2598428589990363,1,751,2,596.7224856370012,598.2224826990023,598.2224826990023,,,,,,,,,,,,,,,,,,,,,,,,,,,,,,,,,,,,,,,,,,,,,,,,,,,,,,,,,,,,,,,,,33343,2022-10-25_13h51.39.109,vts_reward_expectancy_bt_OFFLINE,2022.2.4,60.03338360408699,
0,1,0,0,0,0,0,1,circle,star,2,0,2,0,2,1,25,5,,,,,,,,,,,,,,,,,,,,,,,,,,,,,,,,,,,,,,,,598.7246477990011,598.7246477990011,598.7246477990011,598.7246477990011,598.7246477990011,598.7246477990011,598.7246477990011,598.7246477990011,598.7246477990011,598.7246477990011,l,0.5887210139990202,1,752,2,599.3420509150019,600.8422760250032,600.8422760250032,601.3420023100007,,,,,,,,,,,,,,,,,,,,,,,,,,,,,,,,,,,,,,,,,,,,,,,,,,,,,,,,,,,,,,,,33343,2022-10-25_13h51.39.109,vts_reward_expectancy_bt_OFFLINE,2022.2.4,60.03338360408699,
1,0,0,0,0,0,0,1,triangle,star,2,0,2,0,2,2,26,2,,,,,,,,,,,,,,,,,,,,,,,,,,,,,,,,,,,,,,,,601.3420023100007,601.3420023100007,601.3420023100007,601.3420023100007,601.3420023100007,601.3420023100007,601.3420023100007,601.3420023100007,601.3420023100007,601.3420023100007,l,5.427743284999451,10,762,2,606.7985969360016,608.3131037880012,,,,,,,,,,,,,,,,,,,,,,,,,,,,,,,,,,,,,,,,,,,,,,,,,,,,,,,,,,,,,,,,,,33343,2022-10-25_13h51.39.109,vts_reward_expectancy_bt_OFFLINE,2022.2.4,60.03338360408699,
1,0,0,0,0,0,1,0,triangle,hexagon,2,0,2,0,2,3,27,1,,,,,,,,,,,,,,,,,,,,,,,,,,,,,,,,,,,,,,,,608.7985743200006,608.7985743200006,608.7985743200006,608.7985743200006,608.7985743200006,608.7985743200006,608.7985743200006,608.7985743200006,608.7985743200006,608.7985743200006,l,2.04236335600217,10,772,2,610.8659152750006,612.3664313150002,612.3664313150002,612.8666435010018,,,,,,,,,,,,,,,,,,,,,,,,,,,,,,,,,,,,,,,,,,,,,,,,,,,,,,,,,,,,,,,,33343,2022-10-25_13h51.39.109,vts_reward_expectancy_bt_OFFLINE,2022.2.4,60.03338360408699,
1,0,0,0,0,1,0,0,triangle,circle,2,0,2,0,2,4,28,0,,,,,,,,,,,,,,,,,,,,,,,,,,,,,,,,,,,,,,,,612.8666435010018,612.8666435010018,612.8666435010018,612.8666435010018,612.8666435010018,612.8666435010018,612.8666435010018,612.8666435010018,612.8666435010018,612.8666435010018,a,2.4542216709996865,1,773,2,615.3535857370007,616.8530721770003,616.8530721770003,617.3534310080031,,,,,,,,,,,,,,,,,,,,,,,,,,,,,,,,,,,,,,,,,,,,,,,,,,,,,,,,,,,,,,,,33343,2022-10-25_13h51.39.109,vts_reward_expectancy_bt_OFFLINE,2022.2.4,60.03338360408699,
0,0,1,0,0,0,0,1,hexagon,star,2,0,2,0,2,5,29,8,,,,,,,,,,,,,,,,,,,,,,,,,,,,,,,,,,,,,,,,617.3534310080031,617.3534310080031,617.3534310080031,617.3534310080031,617.3534310080031,617.3534310080031,617.3534310080031,617.3534310080031,617.3534310080031,617.3534310080031,l,0.6232547170002363,10,783,2,618.0058971770013,619.5060115040033,,,,,,,,,,,,,,,,,,,,,,,,,,,,,,,,,,,,,,,,,,,,,,,,,,,,,,,,,,,,,,,,,,33343,2022-10-25_13h51.39.109,vts_reward_expectancy_bt_OFFLINE,2022.2.4,60.03338360408699,
0,1,0,0,0,0,1,0,circle,hexagon,2,0,2,0,2,6,30,4,,,,,,,,,,,,,,,,,,,,,,,,,,,,,,,,,,,,,,,,620.006259922,620.006259922,620.006259922,620.006259922,620.006259922,620.006259922,620.006259922,620.006259922,620.006259922,620.006259922,l,4.826438643001893,10,793,2,624.8599031950034,626.3600432120002,626.3600432120002,626.8605392690006,,,,,,,,,,,,,,,,,,,,,,,,,,,,,,,,,,,,,,,,,,,,,,,,,,,,,,,,,,,,,,,,33343,2022-10-25_13h51.39.109,vts_reward_expectancy_bt_OFFLINE,2022.2.4,60.03338360408699,
0,0,0,1,0,0,1,0,star,hexagon,2,0,2,0,2,7,31,11,,,,,,,,,,,,,,,,,,,,,,,,,,,,,,,,,,,,,,,,626.8605392690006,626.8605392690006,626.8605392690006,626.8605392690006,626.8605392690006,626.8605392690006,626.8605392690006,626.8605392690006,626.8605392690006,626.8605392690006,l,2.7568841309985146,10,803,2,629.6467606590013,631.1471804320026,631.1471804320026,,,,,,,,,,,,,,,,,,,,,,,,,,,,,,,,,,,,,,,,,,,,,,,,,,,,,,,,,,,,,,,,,33343,2022-10-25_13h51.39.109,vts_reward_expectancy_bt_OFFLINE,2022.2.4,60.03338360408699,
0,0,0,1,1,0,0,0,star,triangle,2,0,2,0,2,8,32,9,,,,,,,,,,,,,,,,,,,,,,,,,,,,,,,,,,,,,,,,631.6472957680016,631.6472957680016,631.6472957680016,631.6472957680016,631.6472957680016,631.6472957680016,631.6472957680016,631.6472957680016,631.6472957680016,631.6472957680016,a,0.801871444000426,10,813,2,632.4810062570032,633.9833230500008,633.9833230500008,634.483407650001,,,,,,,,,,,,,,,,,,,,,,,,,,,,,,,,,,,,,,,,,,,,,,,,,,,,,,,,,,,,,,,,33343,2022-10-25_13h51.39.109,vts_reward_expectancy_bt_OFFLINE,2022.2.4,60.03338360408699,
0,0,0,1,0,1,0,0,star ,circle,2,0,2,0,2,9,33,10,,,,,,,,,,,,,,,,,,,,,,,,,,,,,,,,,,,,,,,,634.483407650001,634.483407650001,634.483407650001,634.483407650001,634.483407650001,634.483407650001,634.483407650001,634.483407650001,634.483407650001,634.483407650001,a,1.1662823560000106,10,823,2,635.6677232330003,637.1678790950027,637.1678790950027,637.6678569610012,,,,,,,,,,,,,,,,,,,,,,,,,,,,,,,,,,,,,,,,,,,,,,,,,,,,,,,,,,,,,,,,33343,2022-10-25_13h51.39.109,vts_reward_expectancy_bt_OFFLINE,2022.2.4,60.03338360408699,
0,0,1,0,1,0,0,0,hexagon,triangle,2,0,2,0,2,10,34,6,,,,,,,,,,,,,,,,,,,,,,,,,,,,,,,,,,,,,,,,637.6678569610012,637.6678569610012,637.6678569610012,637.6678569610012,637.6678569610012,637.6678569610012,637.6678569610012,637.6678569610012,637.6678569610012,637.6678569610012,l,1.3172267839981942,10,833,2,639.003841062,640.5042876180014,640.5042876180014,641.0045346340012,,,,,,,,,,,,,,,,,,,,,,,,,,,,,,,,,,,,,,,,,,,,,,,,,,,,,,,,,,,,,,,,33343,2022-10-25_13h51.39.109,vts_reward_expectancy_bt_OFFLINE,2022.2.4,60.03338360408699,
0,1,0,0,1,0,0,0,circle,triangle,2,0,2,0,2,11,35,3,,,,,,,,,,,,,,,,,,,,,,,,,,,,,,,,,,,,,,,,641.0045346340012,641.0045346340012,641.0045346340012,641.0045346340012,641.0045346340012,641.0045346340012,641.0045346340012,641.0045346340012,641.0045346340012,641.0045346340012,a,1.6289099610003177,1,834,2,642.6575355140012,644.1573328390004,,,,,,,,,,,,,,,,,,,,,,,,,,,,,,,,,,,,,,,,,,,,,,,,,,,,,,,,,,,,,,,,,,33343,2022-10-25_13h51.39.109,vts_reward_expectancy_bt_OFFLINE,2022.2.4,60.03338360408699,
1,0,0,0,0,0,0,1,triangle,star,2,0,2,0,3,0,36,2,,,,,,,,,,,,,,,,,,,,,,,,,,,,,,,,,,,,,,,,644.6575893750014,644.6575893750014,644.6575893750014,644.6575893750014,644.6575893750014,644.6575893750014,644.6575893750014,644.6575893750014,644.6575893750014,644.6575893750014,a,2.8069541309996566,1,835,2,647.4922460000016,648.9941639720018,,,,,,,,,,,,,,,,,,,,,,,,,,,,,,,,,,,,,,,,,,,,,,,,,,,,,,,,,,,,,,,,,,33343,2022-10-25_13h51.39.109,vts_reward_expectancy_bt_OFFLINE,2022.2.4,60.03338360408699,
0,0,0,1,0,0,1,0,star,hexagon,2,0,2,0,3,1,37,11,,,,,,,,,,,,,,,,,,,,,,,,,,,,,,,,,,,,,,,,649.4944966570001,649.4944966570001,649.4944966570001,649.4944966570001,649.4944966570001,649.4944966570001,649.4944966570001,649.4944966570001,649.4944966570001,649.4944966570001,l,1.0424934760012547,10,845,2,650.5640546430004,652.0787153360034,,,,,,,,,,,,,,,,,,,,,,,,,,,,,,,,,,,,,,,,,,,,,,,,,,,,,,,,,,,,,,,,,,33343,2022-10-25_13h51.39.109,vts_reward_expectancy_bt_OFFLINE,2022.2.4,60.03338360408699,
0,0,0,1,0,1,0,0,star ,circle,2,0,2,0,3,2,38,10,,,,,,,,,,,,,,,,,,,,,,,,,,,,,,,,,,,,,,,,652.5786591660035,652.5786591660035,652.5786591660035,652.5786591660035,652.5786591660035,652.5786591660035,652.5786591660035,652.5786591660035,652.5786591660035,652.5786591660035,a,2.2378832939975837,10,855,2,654.8482582260003,656.3488652520027,656.3488652520027,656.8488918050025,,,,,,,,,,,,,,,,,,,,,,,,,,,,,,,,,,,,,,,,,,,,,,,,,,,,,,,,,,,,,,,,33343,2022-10-25_13h51.39.109,vts_reward_expectancy_bt_OFFLINE,2022.2.4,60.03338360408699,
0,1,0,0,1,0,0,0,circle,triangle,2,0,2,0,3,3,39,3,,,,,,,,,,,,,,,,,,,,,,,,,,,,,,,,,,,,,,,,656.8488918050025,656.8488918050025,656.8488918050025,656.8488918050025,656.8488918050025,656.8488918050025,656.8488918050025,656.8488918050025,656.8488918050025,656.8488918050025,l,1.1688513449989841,10,865,2,658.0494607670007,659.5517895800003,,,,,,,,,,,,,,,,,,,,,,,,,,,,,,,,,,,,,,,,,,,,,,,,,,,,,,,,,,,,,,,,,,33343,2022-10-25_13h51.39.109,vts_reward_expectancy_bt_OFFLINE,2022.2.4,60.03338360408699,
0,0,0,1,1,0,0,0,star,triangle,2,0,2,0,3,4,40,9,,,,,,,,,,,,,,,,,,,,,,,,,,,,,,,,,,,,,,,,660.0521421600024,660.0521421600024,660.0521421600024,660.0521421600024,660.0521421600024,660.0521421600024,660.0521421600024,660.0521421600024,660.0521421600024,660.0521421600024,a,1.8285105920003843,10,875,2,661.9028494510021,663.403138824,663.403138824,,,,,,,,,,,,,,,,,,,,,,,,,,,,,,,,,,,,,,,,,,,,,,,,,,,,,,,,,,,,,,,,,33343,2022-10-25_13h51.39.109,vts_reward_expectancy_bt_OFFLINE,2022.2.4,60.03338360408699,
1,0,0,0,0,1,0,0,triangle,circle,2,0,2,0,3,5,41,0,,,,,,,,,,,,,,,,,,,,,,,,,,,,,,,,,,,,,,,,663.9051441720003,663.9051441720003,663.9051441720003,663.9051441720003,663.9051441720003,663.9051441720003,663.9051441720003,663.9051441720003,663.9051441720003,663.9051441720003,l,4.519488363999699,1,876,2,668.4577748030024,669.9590136200022,669.9590136200022,670.4593550960017,,,,,,,,,,,,,,,,,,,,,,,,,,,,,,,,,,,,,,,,,,,,,,,,,,,,,,,,,,,,,,,,33343,2022-10-25_13h51.39.109,vts_reward_expectancy_bt_OFFLINE,2022.2.4,60.03338360408699,
0,0,1,0,1,0,0,0,hexagon,triangle,2,0,2,0,3,6,42,6,,,,,,,,,,,,,,,,,,,,,,,,,,,,,,,,,,,,,,,,670.4593550960017,670.4593550960017,670.4593550960017,670.4593550960017,670.4593550960017,670.4593550960017,670.4593550960017,670.4593550960017,670.4593550960017,670.4593550960017,a,1.2053307799978938,10,886,2,671.6955413310025,673.2104046260029,,,,,,,,,,,,,,,,,,,,,,,,,,,,,,,,,,,,,,,,,,,,,,,,,,,,,,,,,,,,,,,,,,33343,2022-10-25_13h51.39.109,vts_reward_expectancy_bt_OFFLINE,2022.2.4,60.03338360408699,
0,0,1,0,0,1,0,0,hexagon,circle,2,0,2,0,3,7,43,7,,,,,,,,,,,,,,,,,,,,,,,,,,,,,,,,,,,,,,,,673.6956509650008,673.6956509650008,673.6956509650008,673.6956509650008,673.6956509650008,673.6956509650008,673.6956509650008,673.6956509650008,673.6956509650008,673.6956509650008,l,1.593284140999458,1,887,2,675.3153622760001,676.8301004420027,,,,,,,,,,,,,,,,,,,,,,,,,,,,,,,,,,,,,,,,,,,,,,,,,,,,,,,,,,,,,,,,,,33343,2022-10-25_13h51.39.109,vts_reward_expectancy_bt_OFFLINE,2022.2.4,60.03338360408699,
1,0,0,0,0,0,1,0,triangle,hexagon,2,0,2,0,3,8,44,1,,,,,,,,,,,,,,,,,,,,,,,,,,,,,,,,,,,,,,,,677.3304227330009,677.3304227330009,677.3304227330009,677.3304227330009,677.3304227330009,677.3304227330009,677.3304227330009,677.3304227330009,677.3304227330009,677.3304227330009,l,1.3347767609993753,10,897,2,678.684868493001,680.2000204100004,,,,,,,,,,,,,,,,,,,,,,,,,,,,,,,,,,,,,,,,,,,,,,,,,,,,,,,,,,,,,,,,,,33343,2022-10-25_13h51.39.109,vts_reward_expectancy_bt_OFFLINE,2022.2.4,60.03338360408699,
0,0,1,0,0,0,0,1,hexagon,star,2,0,2,0,3,9,45,8,,,,,,,,,,,,,,,,,,,,,,,,,,,,,,,,,,,,,,,,680.6999395850034,680.6999395850034,680.6999395850034,680.6999395850034,680.6999395850034,680.6999395850034,680.6999395850034,680.6999395850034,680.6999395850034,680.6999395850034,l,1.7815574369997194,10,907,2,682.5016075610001,684.0031467640001,,,,,,,,,,,,,,,,,,,,,,,,,,,,,,,,,,,,,,,,,,,,,,,,,,,,,,,,,,,,,,,,,,33343,2022-10-25_13h51.39.109,vts_reward_expectancy_bt_OFFLINE,2022.2.4,60.03338360408699,
0,1,0,0,0,0,0,1,circle,star,2,0,2,0,3,10,46,5,,,,,,,,,,,,,,,,,,,,,,,,,,,,,,,,,,,,,,,,684.5033784000007,684.5033784000007,684.5033784000007,684.5033784000007,684.5033784000007,684.5033784000007,684.5033784000007,684.5033784000007,684.5033784000007,684.5033784000007,l,1.8572798850000254,1,908,2,686.3898547220015,687.9044875630025,,,,,,,,,,,,,,,,,,,,,,,,,,,,,,,,,,,,,,,,,,,,,,,,,,,,,,,,,,,,,,,,,,33343,2022-10-25_13h51.39.109,vts_reward_expectancy_bt_OFFLINE,2022.2.4,60.03338360408699,
0,1,0,0,0,0,1,0,circle,hexagon,2,0,2,0,3,11,47,4,,,,,,,,,,,,,,,,,,,,,,,,,,,,,,,,,,,,,,,,688.4046514830006,688.4046514830006,688.4046514830006,688.4046514830006,688.4046514830006,688.4046514830006,688.4046514830006,688.4046514830006,688.4046514830006,688.4046514830006,l,2.003924130996893,1,909,2,690.4404842150034,691.9412790570022,691.9412790570022,692.4460242770001,,,,,,,,,,,,,,,,,,,,,,,,,,,,,,,,,,,,,,,,,,,,,,,,,,,,,,,,,,,,,,,,33343,2022-10-25_13h51.39.109,vts_reward_expectancy_bt_OFFLINE,2022.2.4,60.03338360408699,
,,,,,,,,,,,,,,,,,,0,0,0,0,0,0,0,0,,,,,,,,,,,,,,,,,,,,,,,,,,,,,,,,,,,,,,,,,,,,,,,,738.3244192570019,,,Y,125,hexagon,0.0007805450004525483,734.0178237140026,735.5065175030031,735.5065175030031,735.5065175030031,1,0,f,1.2787040889998025,0,736.8101651920006,,,,,,,,,,,,,,,,,,,,,,,,,,,,,,,,,,,,,,,,,,,,,,,,,,33343,2022-10-25_13h51.39.109,vts_reward_expectancy_bt_OFFLINE,2022.2.4,60.03338360408699,
,,,,,,,,,,,,,,,,,,0,0,0,0,1,0,1,0,,,,,,,,,,,,,,,,,,,,,,,,,,,,,,,,,,,,,,,,,,,,,,,,743.144624812001,,,H,139,circle,0.002140995999070583,739.3057781860007,740.7936588170014,740.7936588170014,740.7936588170014,1,0,d,0.8236283809965244,0,741.6449080480015,743.144624812001,,,,,,,,,,,,,,,,,,,,,,,,,,,,,,,,,,,,,,,,,,,,,,,,,33343,2022-10-25_13h51.39.109,vts_reward_expectancy_bt_OFFLINE,2022.2.4,60.03338360408699,
,,,,,,,,,,,,,,,,,,0,0,0,0,2,0,2,0,,,,,,,,,,,,,,,,,,,,,,,,,,,,,,,,,,,,,,,,,,,,,,,,747.8481570050026,,748.3483990970017,W,167,triangle,0.009584121999068884,744.144725680002,745.6306573830007,745.6306573830007,745.6306573830007,1,0,f,0.6901385359997221,0,746.3480919230024,747.8481570050026,,,,,,,,,,,,,,,,,,,,,,,,,,,,,,,,,,,,,,,,,,,,,,,,,33343,2022-10-25_13h51.39.109,vts_reward_expectancy_bt_OFFLINE,2022.2.4,60.03338360408699,
,,,,,,,,,,,,,,,,,,0,0,0,0,3,0,3,0,,,,,,,,,,,,,,,,,,,,,,,,,,,,,,,,,,,,,,,,,,,,,,,,752.3849070190008,,752.8853323630028,B,181,star,0.000666890999127645,748.8454699100002,750.3342683520023,750.3342683520023,750.3342683520023,1,0,d,0.5224169690009148,0,750.884951676002,752.3849070190008,,,,,,,,,,,,,,,,,,,,,,,,,,,,,,,,,,,,,,,,,,,,,,,,,33343,2022-10-25_13h51.39.109,vts_reward_expectancy_bt_OFFLINE,2022.2.4,60.03338360408699,
,,,,,,,,,,,,,,,,,,0,0,0,0,4,0,4,0,,,,,,,,,,,,,,,,,,,,,,,,,,,,,,,,,,,,,,,,,,,,,,,,757.2218627540024,,757.7220320010019,S,160,hexagon,0.00042468799802009016,753.3812231730008,754.8710146250014,754.8710146250014,754.8710146250014,1,0,f,0.8261090490013885,0,755.7218691650014,757.2218627540024,,,,,,,,,,,,,,,,,,,,,,,,,,,,,,,,,,,,,,,,,,,,,,,,,33343,2022-10-25_13h51.39.109,vts_reward_expectancy_bt_OFFLINE,2022.2.4,60.03338360408699,
,,,,,,,,,,,,,,,,,,0,0,0,0,5,0,5,0,,,,,,,,,,,,,,,,,,,,,,,,,,,,,,,,,,,,,,,,,,,,,,,,762.0087744730008,,762.5090762610016,D,146,circle,0.0002104640007019043,758.2186070400021,759.7077930530031,759.7077930530031,759.7077930530031,1,0,d,0.7814186719988356,0,760.5088079710004,762.0087744730008,,,,,,,,,,,,,,,,,,,,,,,,,,,,,,,,,,,,,,,,,,,,,,,,,33343,2022-10-25_13h51.39.109,vts_reward_expectancy_bt_OFFLINE,2022.2.4,60.03338360408699,
,,,,,,,,,,,,,,,,,,0,0,0,0,6,0,6,0,,,,,,,,,,,,,,,,,,,,,,,,,,,,,,,,,,,,,,,,,,,,,,,,766.8623015360026,,767.3623846780029,U,132,triangle,0.00032771100086392835,763.0053656080017,764.4947762980009,764.4947762980009,764.4947762980009,1,0,f,0.8428524499977357,0,765.3626598840019,766.8623015360026,,,,,,,,,,,,,,,,,,,,,,,,,,,,,,,,,,,,,,,,,,,,,,,,,33343,2022-10-25_13h51.39.109,vts_reward_expectancy_bt_OFFLINE,2022.2.4,60.03338360408699,
,,,,,,,,,,,,,,,,,,0,0,0,0,7,0,7,0,,,,,,,,,,,,,,,,,,,,,,,,,,,,,,,,,,,,,,,,,,,,,,,,771.6659562720015,,772.1659213520034,F,174,star,0.00032445100077893585,767.858810861002,769.3483393189999,769.3483393189999,769.3483393189999,1,0,d,0.788983119000477,0,770.1655721940006,771.6659562720015,,,,,,,,,,,,,,,,,,,,,,,,,,,,,,,,,,,,,,,,,,,,,,,,,33343,2022-10-25_13h51.39.109,vts_reward_expectancy_bt_OFFLINE,2022.2.4,60.03338360408699,
,,,,,,,,,,,,,,,,,,0,0,0,0,8,0,8,0,,,,,,,,,,,,,,,,,,,,,,,,,,,,,,,,,,,,,,,,,,,,,,,,776.5028696090012,,777.0029471580019,Y,125,circle,0.0005274360009934753,772.6617766880008,774.151764102,774.151764102,774.151764102,1,0,f,0.8263573829972302,0,775.0030197910019,776.5028696090012,,,,,,,,,,,,,,,,,,,,,,,,,,,,,,,,,,,,,,,,,,,,,,,,,33343,2022-10-25_13h51.39.109,vts_reward_expectancy_bt_OFFLINE,2022.2.4,60.03338360408699,
,,,,,,,,,,,,,,,,,,0,0,0,0,9,0,9,0,,,,,,,,,,,,,,,,,,,,,,,,,,,,,,,,,,,,,,,,,,,,,,,,781.1396411010028,,781.6499141820022,H,139,star,0.00042080999992322177,777.4986176210004,778.9886023780018,778.9886023780018,778.9886023780018,1,0,d,0.6279414029995678,0,779.639767511002,781.1396411010028,,,,,,,,,,,,,,,,,,,,,,,,,,,,,,,,,,,,,,,,,,,,,,,,,33343,2022-10-25_13h51.39.109,vts_reward_expectancy_bt_OFFLINE,2022.2.4,60.03338360408699,
,,,,,,,,,,,,,,,,,,,,,,,,,,0,0,0,0,0,0,0,0,,,,,,,,,,,,,,,,,,,,,,,,,,,,,,,,,,,,,,,,806.774687481,,807.2749161720021,D,132,triangle,0.0006615339989366475,,,,,1,0,,,1,805.275446857002,806.774687481,802.9344323760015,804.4235242140021,804.4235242140021,804.4235242140021,j,0.833983910997631,,,,,,,,,,,,,,,,,,,,,,,,,,,,,,,,,,,,,,,,,,,33343,2022-10-25_13h51.39.109,vts_reward_expectancy_bt_OFFLINE,2022.2.4,60.03338360408699,
,,,,,,,,,,,,,,,,,,,,,,,,,,0,0,0,0,1,0,1,0,,,,,,,,,,,,,,,,,,,,,,,,,,,,,,,,,,,,,,,,811.3780726900004,,811.8782728100014,W,174,circle,5.190699812374078e-05,,,,,1,0,,,1,809.8783743310014,811.3780726900004,807.7714445840029,809.2607893330023,809.2607893330023,809.2607893330023,k,0.5886186540010385,,,,,,,,,,,,,,,,,,,,,,,,,,,,,,,,,,,,,,,,,,,33343,2022-10-25_13h51.39.109,vts_reward_expectancy_bt_OFFLINE,2022.2.4,60.03338360408699,
,,,,,,,,,,,,,,,,,,,,,,,,,,0,0,0,0,2,0,2,0,,,,,,,,,,,,,,,,,,,,,,,,,,,,,,,,,,,,,,,,816.0151479530032,,816.5151991320017,F,167,star,0.00034131899883504957,,,,,1,0,,,1,814.515215632,816.0151479530032,812.3744304570027,813.8640013410004,813.8640013410004,813.8640013410004,k,0.6250381909994758,,,,,,,,,,,,,,,,,,,,,,,,,,,,,,,,,,,,,,,,,,,33343,2022-10-25_13h51.39.109,vts_reward_expectancy_bt_OFFLINE,2022.2.4,60.03338360408699,
,,,,,,,,,,,,,,,,,,,,,,,,,,0,0,0,0,3,0,3,0,,,,,,,,,,,,,,,,,,,,,,,,,,,,,,,,,,,,,,,,820.8853594710017,,,H,146,hexagon,0.00047855999946477823,,,,,0,0,,,1,819.3715494920034,,817.0114710130001,818.4993133060016,818.4993133060016,818.4993133060016,k,0.8379820689988264,,,,,,,,,,,,,,,,,,,,,,,,,,,,,,,,,,,,,,,,,,,33343,2022-10-25_13h51.39.109,vts_reward_expectancy_bt_OFFLINE,2022.2.4,60.03338360408699,
,,,,,,,,,,,,,,,,,,,,,,,,,,0,0,0,0,4,0,4,0,,,,,,,,,,,,,,,,,,,,,,,,,,,,,,,,,,,,,,,,825.5388700300027,,,S,160,star,0.0004270489989721682,,,,,1,1,,,1,824.0246336770033,,821.8644903620007,823.3528053160007,823.3528053160007,823.3528053160007,k,0.6405998729969724,,,,,,,,,,,,,,,,,,,,,,,,,,,,,,,,,,,,,,,,,,,33343,2022-10-25_13h51.39.109,vts_reward_expectancy_bt_OFFLINE,2022.2.4,60.03338360408699,
,,,,,,,,,,,,,,,,,,,,,,,,,,0,0,0,0,5,0,5,0,,,,,,,,,,,,,,,,,,,,,,,,,,,,,,,,,,,,,,,,830.1256499570009,,,U,125,triangle,0.016987311999400845,,,,,1,0,,,1,828.6238994170017,,826.5349763580016,828.0062090680003,828.0062090680003,828.0062090680003,j,0.5942281479983649,,,,,,,,,,,,,,,,,,,,,,,,,,,,,,,,,,,,,,,,,,,33343,2022-10-25_13h51.39.109,vts_reward_expectancy_bt_OFFLINE,2022.2.4,60.03338360408699,
,,,,,,,,,,,,,,,,,,,,,,,,,,0,0,0,0,6,0,6,0,,,,,,,,,,,,,,,,,,,,,,,,,,,,,,,,,,,,,,,,834.6955955990015,,,Y,181,hexagon,0.002307348000613274,,,,,1,0,,,1,833.1946518889999,,831.1217979230023,832.6100192420017,832.6100192420017,832.6100192420017,k,0.566914082999574,,,,,,,,,,,,,,,,,,,,,,,,,,,,,,,,,,,,,,,,,,,33343,2022-10-25_13h51.39.109,vts_reward_expectancy_bt_OFFLINE,2022.2.4,60.03338360408699,
,,,,,,,,,,,,,,,,,,,,,,,,,,0,0,0,0,7,0,7,0,,,,,,,,,,,,,,,,,,,,,,,,,,,,,,,,,,,,,,,,839.2991376080026,,,B,139,circle,0.001736926999001298,,,,,1,0,,,1,837.7979122280012,,835.6915289480021,837.1801545040034,837.1801545040034,837.1801545040034,j,0.588935345000209,,,,,,,,,,,,,,,,,,,,,,,,,,,,,,,,,,,,,,,,,,,33343,2022-10-25_13h51.39.109,vts_reward_expectancy_bt_OFFLINE,2022.2.4,60.03338360408699,
,,,,,,,,,,,,,,,,,,,,,,,,,,0,0,0,0,8,0,8,0,,,,,,,,,,,,,,,,,,,,,,,,,,,,,,,,,,,,,,,,843.9528507260002,,,D,132,star,0.0016115859980345704,,,,,1,0,,,1,842.4515037360034,,840.2948866280021,841.7834730970026,841.7834730970026,841.7834730970026,j,0.6490877430005639,,,,,,,,,,,,,,,,,,,,,,,,,,,,,,,,,,,,,,,,,,,33343,2022-10-25_13h51.39.109,vts_reward_expectancy_bt_OFFLINE,2022.2.4,60.03338360408699,
,,,,,,,,,,,,,,,,,,,,,,,,,,0,0,0,0,9,0,9,0,,,,,,,,,,,,,,,,,,,,,,,,,,,,,,,,,,,,,,,,848.4877458430019,,,W,174,circle,0.0020603269986168016,,,,,1,0,,,1,846.987832310002,848.4877458430019,844.948354098,846.4370109180018,846.4370109180018,846.4370109180018,k,0.5316580740000063,,,,,,,,,,,,,,,,,,,,,,,,,,,,,,,,,,,,,,,,,,,33343,2022-10-25_13h51.39.109,vts_reward_expectancy_bt_OFFLINE,2022.2.4,60.03338360408699,
,,,,,,,,,,,,,,,,,,,,,,,,,,,,,,,,,,0,0,0,0,0,0,0,0,,,,,,,,,,,,,,,,,,,,,,,,,,,,0,909,,,897.1235332040014,,,S,146,circle,0.0008387490015593357,,,,,1,0,,,2,,,,,,,,,892.451070588002,892.451070588002,892.451070588002,892.451070588002,893.9390762980001,893.9390762980001,893.9390762980001,893.9390762980001,893.9562069660024,893.9562069660024,893.9562069660024,893.9562069660024,-1,letter,NA,f,1.6379433469992364,vtsPrac,895.6099792760033,,,,,,,,,,,,,,,,,,,,,,,,33343,2022-10-25_13h51.39.109,vts_reward_expectancy_bt_OFFLINE,2022.2.4,60.03338360408699,
,,,,,,,,,,,,,,,,,,,,,,,,,,,,,,,,,,0,0,0,0,1,0,1,0,,,,,,,,,,,,,,,,,,,,,,,,,,,,0,909,,,901.9270644280004,,902.4273763790006,U,139,triangle,0.016829893000249285,,,,,1,0,,,2,,,,,,,,,898.1200883510028,898.1200883510028,898.1200883510028,898.1200883510028,899.5929414160018,899.5929414160018,899.5929414160018,899.5929414160018,899.6262875070024,899.6262875070024,899.6262875070024,899.6262875070024,repeat,letter,lettRpt,f,0.8079611069988459,vtsPrac,900.4275269500031,901.9270644280004,,,,,,,,,,,,,,,,,,,,,,,33343,2022-10-25_13h51.39.109,vts_reward_expectancy_bt_OFFLINE,2022.2.4,60.03338360408699,
,,,,,,,,,,,,,,,,,,,,,,,,,,,,,,,,,,0,0,0,0,2,0,2,0,,,,,,,,,,,,,,,,,,,,,,,,,,,,0,909,,,906.6308996540029,,,W,174,star,0.0005989390010654461,,,,,1,0,,,2,,,,,,,,,902.9243172060014,902.9243172060014,902.9243172060014,902.9243172060014,904.4130166790019,904.4130166790019,904.4130166790019,904.4130166790019,904.4299768590026,904.4299768590026,904.4299768590026,904.4299768590026,switch,number,numSwt,k,0.6839127689963789,vtsPrac,905.1149914490015,,,,,,,,,,,,,,,,,,,,,,,,33343,2022-10-25_13h51.39.109,vts_reward_expectancy_bt_OFFLINE,2022.2.4,60.03338360408699,
,,,,,,,,,,,,,,,,,,,,,,,,,,,,,,,,,,0,0,0,0,3,0,3,0,,,,,,,,,,,,,,,,,,,,,,,,,,,,0,909,,,911.3174634650022,,911.8177132480014,B,132,hexagon,0.01632898099705926,,,,,1,0,,,2,,,,,,,,,907.6276457880012,907.6276457880012,907.6276457880012,907.6276457880012,909.1001493520016,909.1001493520016,909.1001493520016,909.1001493520016,909.1333346400024,909.1333346400024,909.1333346400024,909.1333346400024,switch,letter,lettSwt,d,0.6848402789983083,vtsPrac,909.8168454390034,911.3174634650022,,,,,,,,,,,,,,,,,,,,,,,33343,2022-10-25_13h51.39.109,vts_reward_expectancy_bt_OFFLINE,2022.2.4,60.03338360408699,
,,,,,,,,,,,,,,,,,,,,,,,,,,,,,,,,,,0,0,0,0,4,0,4,0,,,,,,,,,,,,,,,,,,,,,,,,,,,,0,909,,,916.7880207240014,,,S,146,hexagon,0.015006927998911124,,,,,1,0,,,2,,,,,,,,,912.3303770880011,912.3303770880011,912.3303770880011,912.3303770880011,913.8036462580021,913.8036462580021,913.8036462580021,913.8036462580021,913.8369188890028,913.8369188890028,913.8369188890028,913.8369188890028,switch,number,numSwt,j,1.4529884189978475,vtsPrac,915.2879841600006,916.7880207240014,,,,,,,,,,,,,,,,,,,,,,,33343,2022-10-25_13h51.39.109,vts_reward_expectancy_bt_OFFLINE,2022.2.4,60.03338360408699,
,,,,,,,,,,,,,,,,,,,,,,,,,,,,,,,,,,0,0,0,0,5,0,5,0,,,,,,,,,,,,,,,,,,,,,,,,,,,,0,909,,,921.5081906660016,,922.0083364590027,U,139,triangle,0.0004087430024810601,,,,,1,0,,,2,,,,,,,,,917.7839847450014,917.7839847450014,917.7839847450014,917.7839847450014,919.2740668630031,919.2740668630031,919.2740668630031,919.2740668630031,919.29053509,919.29053509,919.29053509,919.29053509,switch,letter,lettSwt,f,0.7107583819997672,vtsPrac,920.0086497250013,921.5081906660016,,,,,,,,,,,,,,,,,,,,,,,33343,2022-10-25_13h51.39.109,vts_reward_expectancy_bt_OFFLINE,2022.2.4,60.03338360408699,
,,,,,,,,,,,,,,,,,,,,,,,,,,,,,,,,,,0,0,0,0,6,0,6,0,,,,,,,,,,,,,,,,,,,,,,,,,,,,0,909,,,926.3952104470009,,926.8952483240028,W,174,circle,0.00047799699677852914,,,,,1,0,,,2,,,,,,,,,922.5045057740026,922.5045057740026,922.5045057740026,922.5045057740026,923.9944543550009,923.9944543550009,923.9944543550009,923.9944543550009,924.0108540640031,924.0108540640031,924.0108540640031,924.0108540640031,switch,number,numSwt,k,0.8790841459995136,vtsPrac,924.8956428380006,926.3952104470009,,,,,,,,,,,,,,,,,,,,,,,33343,2022-10-25_13h51.39.109,vts_reward_expectancy_bt_OFFLINE,2022.2.4,60.03338360408699,
,,,,,,,,,,,,,,,,,,,,,,,,,,,,,,,,,,0,0,0,0,7,0,7,0,,,,,,,,,,,,,,,,,,,,,,,,,,,,0,909,,,931.1487086350025,,931.6489125220032,B,132,triangle,0.0006885699986014515,,,,,1,0,,,2,,,,,,,,,927.3914021360033,927.3914021360033,927.3914021360033,927.3914021360033,928.8812930750028,928.8812930750028,928.8812930750028,928.8812930750028,928.8979561200031,928.8979561200031,928.8979561200031,928.8979561200031,repeat,number,numRpt,j,0.736144136000803,vtsPrac,929.6490655390007,931.1487086350025,,,,,,,,,,,,,,,,,,,,,,,33343,2022-10-25_13h51.39.109,vts_reward_expectancy_bt_OFFLINE,2022.2.4,60.03338360408699,
,,,,,,,,,,,,,,,,,,,,,,,,,,,,,,,,,,0,0,0,0,8,0,8,0,,,,,,,,,,,,,,,,,,,,,,,,,,,,0,909,,,935.8353598570029,,936.3358027930008,W,139,hexagon,0.0003228030000173021,,,,,1,0,,,2,,,,,,,,,932.1448632870015,932.1448632870015,932.1448632870015,932.1448632870015,933.6330031970028,933.6330031970028,933.6330031970028,933.6330031970028,933.6493937539999,933.6493937539999,933.6493937539999,933.6493937539999,switch,letter,lettSwt,f,0.6714880379986425,vtsPrac,934.3360524070013,935.8353598570029,,,,,,,,,,,,,,,,,,,,,,,33343,2022-10-25_13h51.39.109,vts_reward_expectancy_bt_OFFLINE,2022.2.4,60.03338360408699,
,,,,,,,,,,,,,,,,,,,,,,,,,,,,,,,,,,0,0,0,0,9,0,9,0,,,,,,,,,,,,,,,,,,,,,,,,,,,,0,909,,,940.6556415990017,,941.1560122420015,F,125,star,0.0006004030001349747,,,,,1,0,,,2,,,,,,,,,936.8320513150029,936.8320513150029,936.8320513150029,936.8320513150029,938.3199043490022,938.3199043490022,938.3199043490022,938.3199043490022,938.3365424020012,938.3365424020012,938.3365424020012,938.3365424020012,repeat,letter,lettRpt,d,0.8086585909986752,vtsPrac,939.1562477550033,940.6556415990017,,,,,,,,,,,,,,,,,,,,,,,33343,2022-10-25_13h51.39.109,vts_reward_expectancy_bt_OFFLINE,2022.2.4,60.03338360408699,
,,,,,,,,,,,,,,,,,,,,,,,,,,,,,,,,,,0,0,0,0,10,0,10,0,,,,,,,,,,,,,,,,,,,,,,,,,,,,0,909,,,945.6095379490034,,,H,146,circle,0.0006455180009652395,,,,,1,0,,,2,,,,,,,,,941.6524699460024,941.6524699460024,941.6524699460024,941.6524699460024,943.1398973570031,943.1398973570031,943.1398973570031,943.1398973570031,943.1565448210022,943.1565448210022,943.1565448210022,943.1565448210022,repeat,letter,lettRpt,d,0.9498493430000963,vtsPrac,944.1099995290024,945.6095379490034,,,,,,,,,,,,,,,,,,,,,,,33343,2022-10-25_13h51.39.109,vts_reward_expectancy_bt_OFFLINE,2022.2.4,60.03338360408699,
,,,,,,,,,,,,,,,,,,,,,,,,,,,,,,,,,,0,0,0,0,11,0,11,0,,,,,,,,,,,,,,,,,,,,,,,,,,,,0,909,,,950.3297154770007,,,B,167,hexagon,0.0004534369982138742,,,,,1,0,,,2,,,,,,,,,946.6056915280024,946.6056915280024,946.6056915280024,946.6056915280024,948.0936122870007,948.0936122870007,948.0936122870007,948.0936122870007,948.1104790600002,948.1104790600002,948.1104790600002,948.1104790600002,switch,number,numSwt,k,0.6989610039963736,vtsPrac,948.815464583,,,,,,,,,,,,,,,,,,,,,,,,33343,2022-10-25_13h51.39.109,vts_reward_expectancy_bt_OFFLINE,2022.2.4,60.03338360408699,
,,,,,,,,,,,,,,,,,,,,,,,,,,,,,,,,,,0,0,0,0,12,0,12,0,,,,,,,,,,,,,,,,,,,,,,,,,,,,0,909,,,955.3666512390009,,,S,125,circle,0.013841243002389092,,,,,1,0,,,2,,,,,,,,,951.3253589070009,951.3253589070009,951.3253589070009,951.3253589070009,952.8138778830034,952.8138778830034,952.8138778830034,952.8138778830034,952.8306511920018,952.8306511920018,952.8306511920018,952.8306511920018,repeat,number,numRpt,j,1.0191183099959744,vtsPrac,953.8513122590011,,,,,,,,,,,,,,,,,,,,,,,,33343,2022-10-25_13h51.39.109,vts_reward_expectancy_bt_OFFLINE,2022.2.4,60.03338360408699,
,,,,,,,,,,,,,,,,,,,,,,,,,,,,,,,,,,0,0,0,0,13,0,13,0,,,,,,,,,,,,,,,,,,,,,,,,,,,,0,909,,,959.8366599650035,,,W,139,star,0.016394827998738037,,,,,1,0,,,2,,,,,,,,,956.3626109330035,956.3626109330035,956.3626109330035,956.3626109330035,957.8341585980015,957.8341585980015,957.8341585980015,957.8341585980015,957.8673277790003,957.8673277790003,957.8673277790003,957.8673277790003,switch,letter,lettSwt,f,0.47837363299913704,vtsPrac,958.335679253003,,,,,,,,,,,,,,,,,,,,,,,,33343,2022-10-25_13h51.39.109,vts_reward_expectancy_bt_OFFLINE,2022.2.4,60.03338360408699,
,,,,,,,,,,,,,,,,,,,,,,,,,,,,,,,,,,0,0,0,0,14,0,14,0,,,,,,,,,,,,,,,,,,,,,,,,,,,,0,909,,,964.390175384,,,H,181,circle,0.0019277979990874883,,,,,1,0,,,2,,,,,,,,,960.8329431730017,960.8329431730017,960.8329431730017,960.8329431730017,962.3209163530009,962.3209163530009,962.3209163530009,962.3209163530009,962.3377861170011,962.3377861170011,962.3377861170011,962.3377861170011,switch,number,numSwt,k,0.5367405260003579,vtsPrac,962.8890696490016,,,,,,,,,,,,,,,,,,,,,,,,33343,2022-10-25_13h51.39.109,vts_reward_expectancy_bt_OFFLINE,2022.2.4,60.03338360408699,
,,,,,,,,,,,,,,,,,,,,,,,,,,,,,,,,,,0,0,0,0,15,0,15,0,,,,,,,,,,,,,,,,,,,,,,,,,,,,0,909,,,969.0604024439999,,,D,174,star,0.0021883319968765136,,,,,1,0,,,2,,,,,,,,,965.3858695710005,965.3858695710005,965.3858695710005,965.3858695710005,966.8744505250033,966.8744505250033,966.8744505250033,966.8744505250033,966.8910510700007,966.8910510700007,966.8910510700007,966.8910510700007,repeat,number,numRpt,k,0.6550647869989916,vtsPrac,967.5591175770023,,,,,,,,,,,,,,,,,,,,,,,,33343,2022-10-25_13h51.39.109,vts_reward_expectancy_bt_OFFLINE,2022.2.4,60.03338360408699,
,,,,,,,,,,,,,,,,,,,,,,,,,,,,,,,,,,,,,,,,,,0,0,0,0,,,,,,,,,,,,,,,,,,,,,,,,0,909,,,1023.7652291620034,,,B,139,star,0.002680176003195811,,,,,1,0,,,,,,,,,,,,1019.5423715830002,1019.5423715830002,1019.5423715830002,1019.5423715830002,1021.030905828,1021.030905828,1021.030905828,1021.030905828,1021.0474434300013,1021.0474434300013,1021.0474434300013,1021.0474434300013,repeat,number,numRpt,j,1.185818564001238,noRew,,,0,1022.250931196002,,,,,,,,,,,,,,,,,,,,,33343,2022-10-25_13h51.39.109,vts_reward_expectancy_bt_OFFLINE,2022.2.4,60.03338360408699,
,,,,,,,,,,,,,,,,,,,,,,,,,,,,,,,,,,,,,,,,,,1,0,1,0,,,,,,,,,,,,,,,,,,,,,,,,0,909,,,1028.6852917740034,,,S,132,hexagon,0.0020295260001148563,,,,,1,0,,,,,,,,,,,,1024.7457308560006,1024.7457308560006,1024.7457308560006,1024.7457308560006,1026.234566272,1026.234566272,1026.234566272,1026.234566272,1026.2511606620028,1026.2511606620028,1026.2511606620028,1026.2511606620028,repeat,number,numRpt,j,0.927033724001376,noRew,,,0,1027.186073019002,1028.6852917740034,,,,,,,,,,,,,,,,,,,,33343,2022-10-25_13h51.39.109,vts_reward_expectancy_bt_OFFLINE,2022.2.4,60.03338360408699,
,,,,,,,,,,,,,,,,,,,,,,,,,,,,,,,,,,,,,,,,,,2,0,2,0,,,,,,,,,,,,,,,,,,,,,,,,0,909,,,1033.388928976001,,,H,174,triangle,0.0023421029982273467,,,,,1,0,,,,,,,,,,,,1029.6830527520033,1029.6830527520033,1029.6830527520033,1029.6830527520033,1031.171260121002,1031.171260121002,1031.171260121002,1031.171260121002,1031.1881566620032,1031.1881566620032,1031.1881566620032,1031.1881566620032,switch,letter,lettSwt,d,0.6940571430022828,noRew,,,0,1031.889846686001,1033.388928976001,,,,,,,,,,,,,,,,,,,,33343,2022-10-25_13h51.39.109,vts_reward_expectancy_bt_OFFLINE,2022.2.4,60.03338360408699,
,,,,,,,,,,,,,,,,,,,,,,,,,,,,,,,,,,,,,,,,,,3,0,3,0,,,,,,,,,,,,,,,,,,,,,,,,0,909,,,1038.3425103240006,,1038.8403887310014,F,146,hexagon,0.0021365920001699124,,,,,1,0,,,,,,,,,,,,1034.386513892001,1034.386513892001,1034.386513892001,1034.386513892001,1035.874996816001,1035.874996816001,1035.874996816001,1035.874996816001,1035.8915213140026,1035.8915213140026,1035.8915213140026,1035.8915213140026,switch,number,numSwt,j,0.9426442209987727,noRew,,,0,1036.8433257160032,1038.3425103240006,,,,,,,,,,,,,,,,,,,,33343,2022-10-25_13h51.39.109,vts_reward_expectancy_bt_OFFLINE,2022.2.4,60.03338360408699,
,,,,,,,,,,,,,,,,,,,,,,,,,,,,,,,,,,,,,,,,,,4,0,4,0,,,,,,,,,,,,,,,,,,,,,,,,0,909,,,1043.7461593450025,,,B,139,circle,0.00048363799942308106,,,,,1,0,,,,,,,,,,,,1039.3501428980016,1039.3501428980016,1039.3501428980016,1039.3501428980016,1040.828516742,1040.828516742,1040.828516742,1040.828516742,1040.8619948740015,1040.8619948740015,1040.8619948740015,1040.8619948740015,switch,letter,lettSwt,d,1.3724048849981045,noRew,,,0,1042.2308450710007,,,,,,,,,,,,,,,,,,,,,33343,2022-10-25_13h51.39.109,vts_reward_expectancy_bt_OFFLINE,2022.2.4,60.03338360408699,
,,,,,,,,,,,,,,,,,,,,,,,,,,,,,,,,,,,,,,,,,,5,0,5,0,,,,,,,,,,,,,,,,,,,,,,,,0,909,,,1048.416441366,,,S,132,hexagon,0.002024737001192989,,,,,1,0,,,,,,,,,,,,1044.7271676200035,1044.7271676200035,1044.7271676200035,1044.7271676200035,1046.2155501940033,1046.2155501940033,1046.2155501940033,1046.2155501940033,1046.2324063320011,1046.2324063320011,1046.2324063320011,1046.2324063320011,repeat,letter,lettRpt,f,0.6732602490010322,noRew,,,0,1046.916856646003,1048.416441366,,,,,,,,,,,,,,,,,,,,33343,2022-10-25_13h51.39.109,vts_reward_expectancy_bt_OFFLINE,2022.2.4,60.03338360408699,
,,,,,,,,,,,,,,,,,,,,,,,,,,,,,,,,,,,,,,,,,,6,0,6,0,,,,,,,,,,,,,,,,,,,,,,,,0,909,,,1053.219857985001,,,H,174,triangle,0.0019463469980109949,,,,,1,0,,,,,,,,,,,,1049.4135028540004,1049.4135028540004,1049.4135028540004,1049.4135028540004,1050.9026218490035,1050.9026218490035,1050.9026218490035,1050.9026218490035,1050.9191823470028,1050.9191823470028,1050.9191823470028,1050.9191823470028,repeat,letter,lettRpt,d,0.794389508999302,noRew,,,0,1051.7132969930026,,,,,,,,,,,,,,,,,,,,,33343,2022-10-25_13h51.39.109,vts_reward_expectancy_bt_OFFLINE,2022.2.4,60.03338360408699,
,,,,,,,,,,,,,,,,,,,,,,,,,,,,,,,,,,,,,,,,,,7,0,7,0,,,,,,,,,,,,,,,,,,,,,,,,0,909,,,1057.9566031390023,,,F,146,circle,0.005626027999824146,,,,,1,0,,,,,,,,,,,,1054.2161954220028,1054.2161954220028,1054.2161954220028,1054.2161954220028,1055.706051854002,1055.706051854002,1055.706051854002,1055.706051854002,1055.7228062300019,1055.7228062300019,1055.7228062300019,1055.7228062300019,repeat,letter,lettRpt,d,0.7106708609971975,noRew,,,0,1056.4413593490026,,,,,,,,,,,,,,,,,,,,,33343,2022-10-25_13h51.39.109,vts_reward_expectancy_bt_OFFLINE,2022.2.4,60.03338360408699,
,,,,,,,,,,,,,,,,,,,,,,,,,,,,,,,,,,,,,,,,,,8,0,8,0,,,,,,,,,,,,,,,,,,,,,,,,0,909,,,1063.1270021520031,,1063.6273353860015,U,160,circle,0.01661645200147177,,,,,1,0,,,,,,,,,,,,1058.953512744003,1058.953512744003,1058.953512744003,1058.953512744003,1060.4262759870035,1060.4262759870035,1060.4262759870035,1060.4262759870035,1060.4596255120014,1060.4596255120014,1060.4596255120014,1060.4596255120014,switch,number,numSwt,k,1.1750558720013942,noRew,,,0,1061.6280474640007,1063.1270021520031,,,,,,,,,,,,,,,,,,,,33343,2022-10-25_13h51.39.109,vts_reward_expectancy_bt_OFFLINE,2022.2.4,60.03338360408699,
,,,,,,,,,,,,,,,,,,,,,,,,,,,,,,,,,,,,,,,,,,9,0,9,0,,,,,,,,,,,,,,,,,,,,,,,,0,909,,,1068.0972223720019,,,W,146,triangle,0.0004382350016385317,,,,,1,0,,,,,,,,,,,,1064.1239190790002,1064.1239190790002,1064.1239190790002,1064.1239190790002,1065.6135440840008,1065.6135440840008,1065.6135440840008,1065.6135440840008,1065.6299541080007,1065.6299541080007,1065.6299541080007,1065.6299541080007,repeat,number,numRpt,j,0.9400706289998197,noRew,,,0,1066.5820030960022,,,,,,,,,,,,,,,,,,,,,33343,2022-10-25_13h51.39.109,vts_reward_expectancy_bt_OFFLINE,2022.2.4,60.03338360408699,
,,,,,,,,,,,,,,,,,,,,,,,,,,,,,,,,,,,,,,,,,,10,0,10,0,,,,,,,,,,,,,,,,,,,,,,,,0,909,,,1073.3678945160027,,1073.865757298001,H,181,star,0.016685970000253292,,,,,1,0,,,,,,,,,,,,1069.093915857,1069.093915857,1069.093915857,1069.093915857,1070.567040148002,1070.567040148002,1070.567040148002,1070.567040148002,1070.6003315240014,1070.6003315240014,1070.6003315240014,1070.6003315240014,repeat,number,numRpt,k,1.281613152998034,noRew,,,0,1071.8687264570035,1073.3678945160027,,,,,,,,,,,,,,,,,,,,33343,2022-10-25_13h51.39.109,vts_reward_expectancy_bt_OFFLINE,2022.2.4,60.03338360408699,
