LTriangleOpac,LCircleOpac,LHexagonOpac,LStarOpac,RTriangleOpac,RCircleOpac,RHexagonOpac,RStarOpac,LShape_ID,RShape_ID,training_blocks.thisRepN,training_blocks.thisTrialN,training_blocks.thisN,training_blocks.thisIndex,training.thisRepN,training.thisTrialN,training.thisN,training.thisIndex,task1_prac_redo.thisRepN,task1_prac_redo.thisTrialN,task1_prac_redo.thisN,task1_prac_redo.thisIndex,task1_prac_trials.thisRepN,task1_prac_trials.thisTrialN,task1_prac_trials.thisN,task1_prac_trials.thisIndex,task2_prac_redo.thisRepN,task2_prac_redo.thisTrialN,task2_prac_redo.thisN,task2_prac_redo.thisIndex,task2_praac_trials.thisRepN,task2_praac_trials.thisTrialN,task2_praac_trials.thisN,task2_praac_trials.thisIndex,vts_prac_redo.thisRepN,vts_prac_redo.thisTrialN,vts_prac_redo.thisN,vts_prac_redo.thisIndex,vts_practice_trials.thisRepN,vts_practice_trials.thisTrialN,vts_practice_trials.thisN,vts_practice_trials.thisIndex,trials_norew.thisRepN,trials_norew.thisTrialN,trials_norew.thisN,trials_norew.thisIndex,block.thisRepN,block.thisTrialN,block.thisN,block.thisIndex,trials_rew.thisRepN,trials_rew.thisTrialN,trials_rew.thisN,trials_rew.thisIndex,key_resp.started,key_resp.keys,key_resp.rt,left_circle.started,right_circle.started,left_triangle.started,right_triangle.started,left_star.started,right_star.started,left_hexagon.started,right_hexagon.started,training_fix.started,training_resp.started,training_resp.keys,training_resp.rt,points_trial,points_cumul,trainBlock,training_feedback_txt.started,training_feedback_txt.stopped,fix.started,fix.stopped,curr_topStim,curr_bottStim,curr_shape,ISI.started,tgt_fix_prac1.started,top_target_prac1.started,bott_target_prac1.started,target_resp_prac1.started,acc,E1,target_resp_prac1.keys,target_resp_prac1.rt,pracBlock,prac_fback_text.started,prac_fback_text.stopped,tgt_fix_prac2.started,top_target_prac2.started,bott_target_prac2.started,target_resp_prac2.started,target_resp_prac2.keys,target_resp_prac2.rt,star.started,hegagon.started,triangle.started,circle.started,top_target.started,tgt_fix.started,bot_target.started,target_resp.started,star.stopped,hegagon.stopped,triangle.stopped,circle.stopped,alt,task,condition,target_resp.keys,target_resp.rt,rewCond,vts_fback.started,vts_fback.stopped,top_target.stopped,tgt_fix.stopped,bot_target.stopped,target_resp.stopped,blockNum,norew_fback.started,norew_fback.stopped,key_resp_2.keys,key_resp_2.rt,rewExpectancy,feedbk_text.started,feedbk_text.stopped,text_3.started,debrief.started,text_3.stopped,button.started,debrief.index,debrief.itemText,debrief.type,debrief.granularity,debrief.font,debrief.markerColor,debrief.response,debrief.rt,button.numClicks,button.timesOn,button.timesOff,participant,date,expName,psychopyVersion,frameRate,
,,,,,,,,,,,,,,,,,,,,,,,,,,,,,,,,,,,,,,,,,,,,,,,,,,,,,,18.212337299017236,space,20.755560020916164,,,,,,,,,,,,,,,,,,,,,,,,,,,,,,,,,,,,,,,,,,,,,,,,,,,,,,,,,,,,,,,,,,,,,,,,,,,,,,,,,,,,,,,,33405,2022-11-28_13h58.11.201,vts_reward_expectancy_bt_OFFLINE,2022.2.4,59.93178409133674,
0,0,0,1,1,0,0,0,star,triangle,0,0,0,0,0,0,0,9,,,,,,,,,,,,,,,,,,,,,,,,,,,,,,,,,,,,,,,,61.1922292719828,61.1922292719828,61.1922292719828,61.1922292719828,61.1922292719828,61.1922292719828,61.1922292719828,61.1922292719828,61.1922292719828,61.1922292719828,a,1.8753738609375432,1,1,0,63.093499863985926,64.59511573705822,64.59511573705822,,,,,,,,,,,,,,,,,,,,,,,,,,,,,,,,,,,,,,,,,,,,,,,,,,,,,,,,,,,,,,,,,,,,,,33405,2022-11-28_13h58.11.201,vts_reward_expectancy_bt_OFFLINE,2022.2.4,59.93178409133674,
0,0,1,0,0,1,0,0,hexagon,circle,0,0,0,0,0,1,1,7,,,,,,,,,,,,,,,,,,,,,,,,,,,,,,,,,,,,,,,,65.09557648003101,65.09557648003101,65.09557648003101,65.09557648003101,65.09557648003101,65.09557648003101,65.09557648003101,65.09557648003101,65.09557648003101,65.09557648003101,l,1.3693735530832782,10,11,0,66.49716908007395,,67.99883341707755,,,,,,,,,,,,,,,,,,,,,,,,,,,,,,,,,,,,,,,,,,,,,,,,,,,,,,,,,,,,,,,,,,,,,,33405,2022-11-28_13h58.11.201,vts_reward_expectancy_bt_OFFLINE,2022.2.4,59.93178409133674,
0,0,0,1,0,0,1,0,star,hexagon,0,0,0,0,0,2,2,11,,,,,,,,,,,,,,,,,,,,,,,,,,,,,,,,,,,,,,,,68.49935713608284,68.49935713608284,68.49935713608284,68.49935713608284,68.49935713608284,68.49935713608284,68.49935713608284,68.49935713608284,68.49935713608284,68.49935713608284,l,1.082084916997701,10,21,0,69.60081337508745,,71.10214171907865,,,,,,,,,,,,,,,,,,,,,,,,,,,,,,,,,,,,,,,,,,,,,,,,,,,,,,,,,,,,,,,,,,,,,,33405,2022-11-28_13h58.11.201,vts_reward_expectancy_bt_OFFLINE,2022.2.4,59.93178409133674,
1,0,0,0,0,1,0,0,triangle,circle,0,0,0,0,0,3,3,0,,,,,,,,,,,,,,,,,,,,,,,,,,,,,,,,,,,,,,,,71.60271924198605,71.60271924198605,71.60271924198605,71.60271924198605,71.60271924198605,71.60271924198605,71.60271924198605,71.60271924198605,71.60271924198605,71.60271924198605,l,0.8591223380062729,10,31,0,72.48697002604604,73.98858054506127,73.98858054506127,,,,,,,,,,,,,,,,,,,,,,,,,,,,,,,,,,,,,,,,,,,,,,,,,,,,,,,,,,,,,,,,,,,,,,33405,2022-11-28_13h58.11.201,vts_reward_expectancy_bt_OFFLINE,2022.2.4,59.93178409133674,
0,1,0,0,0,0,0,1,circle,star,0,0,0,0,0,4,4,5,,,,,,,,,,,,,,,,,,,,,,,,,,,,,,,,,,,,,,,,74.48922020208556,74.48922020208556,74.48922020208556,74.48922020208556,74.48922020208556,74.48922020208556,74.48922020208556,74.48922020208556,74.48922020208556,74.48922020208556,a,1.0201737129827961,10,41,0,75.54035683604889,,77.04198326100595,,,,,,,,,,,,,,,,,,,,,,,,,,,,,,,,,,,,,,,,,,,,,,,,,,,,,,,,,,,,,,,,,,,,,,33405,2022-11-28_13h58.11.201,vts_reward_expectancy_bt_OFFLINE,2022.2.4,59.93178409133674,
0,1,0,0,0,0,1,0,circle,hexagon,0,0,0,0,0,5,5,4,,,,,,,,,,,,,,,,,,,,,,,,,,,,,,,,,,,,,,,,77.54255292902235,77.54255292902235,77.54255292902235,77.54255292902235,77.54255292902235,77.54255292902235,77.54255292902235,77.54255292902235,77.54255292902235,77.54255292902235,a,0.5107061660382897,10,51,0,78.07657395908609,,79.57835458603222,,,,,,,,,,,,,,,,,,,,,,,,,,,,,,,,,,,,,,,,,,,,,,,,,,,,,,,,,,,,,,,,,,,,,,33405,2022-11-28_13h58.11.201,vts_reward_expectancy_bt_OFFLINE,2022.2.4,59.93178409133674,
0,0,1,0,1,0,0,0,hexagon,triangle,0,0,0,0,0,6,6,6,,,,,,,,,,,,,,,,,,,,,,,,,,,,,,,,,,,,,,,,80.07885559205897,80.07885559205897,80.07885559205897,80.07885559205897,80.07885559205897,80.07885559205897,80.07885559205897,80.07885559205897,80.07885559205897,80.07885559205897,l,1.75420971296262,1,52,0,81.8639716540929,,83.36576896102633,,,,,,,,,,,,,,,,,,,,,,,,,,,,,,,,,,,,,,,,,,,,,,,,,,,,,,,,,,,,,,,,,,,,,,33405,2022-11-28_13h58.11.201,vts_reward_expectancy_bt_OFFLINE,2022.2.4,59.93178409133674,
1,0,0,0,0,0,1,0,triangle,hexagon,0,0,0,0,0,7,7,1,,,,,,,,,,,,,,,,,,,,,,,,,,,,,,,,,,,,,,,,83.8662155669881,83.8662155669881,83.8662155669881,83.8662155669881,83.8662155669881,83.8662155669881,83.8662155669881,83.8662155669881,83.8662155669881,83.8662155669881,l,1.331180818961002,10,62,0,85.21777077706065,86.71936758502852,86.71936758502852,,,,,,,,,,,,,,,,,,,,,,,,,,,,,,,,,,,,,,,,,,,,,,,,,,,,,,,,,,,,,,,,,,,,,,33405,2022-11-28_13h58.11.201,vts_reward_expectancy_bt_OFFLINE,2022.2.4,59.93178409133674,
1,0,0,0,0,0,0,1,triangle,star,0,0,0,0,0,8,8,2,,,,,,,,,,,,,,,,,,,,,,,,,,,,,,,,,,,,,,,,87.22002673498355,87.22002673498355,87.22002673498355,87.22002673498355,87.22002673498355,87.22002673498355,87.22002673498355,87.22002673498355,87.22002673498355,87.22002673498355,a,1.7694869010010734,10,72,0,89.02201848605182,,90.52343415201176,,,,,,,,,,,,,,,,,,,,,,,,,,,,,,,,,,,,,,,,,,,,,,,,,,,,,,,,,,,,,,,,,,,,,,33405,2022-11-28_13h58.11.201,vts_reward_expectancy_bt_OFFLINE,2022.2.4,59.93178409133674,
0,0,0,1,0,1,0,0,star ,circle,0,0,0,0,0,9,9,10,,,,,,,,,,,,,,,,,,,,,,,,,,,,,,,,,,,,,,,,91.02403005200904,91.02403005200904,91.02403005200904,91.02403005200904,91.02403005200904,91.02403005200904,91.02403005200904,91.02403005200904,91.02403005200904,91.02403005200904,l,0.7203764570876956,10,82,0,91.77495461702347,,93.27665544208139,,,,,,,,,,,,,,,,,,,,,,,,,,,,,,,,,,,,,,,,,,,,,,,,,,,,,,,,,,,,,,,,,,,,,,33405,2022-11-28_13h58.11.201,vts_reward_expectancy_bt_OFFLINE,2022.2.4,59.93178409133674,
0,1,0,0,1,0,0,0,circle,triangle,0,0,0,0,0,10,10,3,,,,,,,,,,,,,,,,,,,,,,,,,,,,,,,,,,,,,,,,93.77723063598387,93.77723063598387,93.77723063598387,93.77723063598387,93.77723063598387,93.77723063598387,93.77723063598387,93.77723063598387,93.77723063598387,93.77723063598387,a,0.8485814350424334,10,92,0,94.64499242207967,,96.14645588502754,,,,,,,,,,,,,,,,,,,,,,,,,,,,,,,,,,,,,,,,,,,,,,,,,,,,,,,,,,,,,,,,,,,,,,33405,2022-11-28_13h58.11.201,vts_reward_expectancy_bt_OFFLINE,2022.2.4,59.93178409133674,
0,0,1,0,0,0,0,1,hexagon,star,0,0,0,0,0,11,11,8,,,,,,,,,,,,,,,,,,,,,,,,,,,,,,,,,,,,,,,,96.64705235103611,96.64705235103611,96.64705235103611,96.64705235103611,96.64705235103611,96.64705235103611,96.64705235103611,96.64705235103611,96.64705235103611,96.64705235103611,a,0.690270834020339,1,93,0,97.3644952850882,,98.86581175203901,,,,,,,,,,,,,,,,,,,,,,,,,,,,,,,,,,,,,,,,,,,,,,,,,,,,,,,,,,,,,,,,,,,,,,33405,2022-11-28_13h58.11.201,vts_reward_expectancy_bt_OFFLINE,2022.2.4,59.93178409133674,
0,0,1,0,1,0,0,0,hexagon,triangle,0,0,0,0,1,0,12,6,,,,,,,,,,,,,,,,,,,,,,,,,,,,,,,,,,,,,,,,99.36689268006012,99.36689268006012,99.36689268006012,99.36689268006012,99.36689268006012,99.36689268006012,99.36689268006012,99.36689268006012,99.36689268006012,99.36689268006012,a,1.008614823105745,1,94,0,100.40119086008053,,101.90297575609293,,,,,,,,,,,,,,,,,,,,,,,,,,,,,,,,,,,,,,,,,,,,,,,,,,,,,,,,,,,,,,,,,,,,,,33405,2022-11-28_13h58.11.201,vts_reward_expectancy_bt_OFFLINE,2022.2.4,59.93178409133674,
1,0,0,0,0,0,0,1,triangle,star,0,0,0,0,1,1,13,2,,,,,,,,,,,,,,,,,,,,,,,,,,,,,,,,,,,,,,,,102.4034225770738,102.4034225770738,102.4034225770738,102.4034225770738,102.4034225770738,102.4034225770738,102.4034225770738,102.4034225770738,102.4034225770738,102.4034225770738,a,0.9633847640361637,1,95,0,103.3878693440929,,104.88946647406556,,,,,,,,,,,,,,,,,,,,,,,,,,,,,,,,,,,,,,,,,,,,,,,,,,,,,,,,,,,,,,,,,,,,,,33405,2022-11-28_13h58.11.201,vts_reward_expectancy_bt_OFFLINE,2022.2.4,59.93178409133674,
0,0,1,0,0,0,0,1,hexagon,star,0,0,0,0,1,2,14,8,,,,,,,,,,,,,,,,,,,,,,,,,,,,,,,,,,,,,,,,105.39001796906814,105.39001796906814,105.39001796906814,105.39001796906814,105.39001796906814,105.39001796906814,105.39001796906814,105.39001796906814,105.39001796906814,105.39001796906814,l,0.654038161970675,10,105,0,106.07423065707553,,107.57589113607537,,,,,,,,,,,,,,,,,,,,,,,,,,,,,,,,,,,,,,,,,,,,,,,,,,,,,,,,,,,,,,,,,,,,,,33405,2022-11-28_13h58.11.201,vts_reward_expectancy_bt_OFFLINE,2022.2.4,59.93178409133674,
0,0,1,0,0,1,0,0,hexagon,circle,0,0,0,0,1,3,15,7,,,,,,,,,,,,,,,,,,,,,,,,,,,,,,,,,,,,,,,,108.07642808102537,108.07642808102537,108.07642808102537,108.07642808102537,108.07642808102537,108.07642808102537,108.07642808102537,108.07642808102537,108.07642808102537,108.07642808102537,l,0.658056742977351,1,106,0,108.76047960598953,,110.26220864907373,,,,,,,,,,,,,,,,,,,,,,,,,,,,,,,,,,,,,,,,,,,,,,,,,,,,,,,,,,,,,,,,,,,,,,33405,2022-11-28_13h58.11.201,vts_reward_expectancy_bt_OFFLINE,2022.2.4,59.93178409133674,
1,0,0,0,0,0,1,0,triangle,hexagon,0,0,0,0,1,4,16,1,,,,,,,,,,,,,,,,,,,,,,,,,,,,,,,,,,,,,,,,110.76264404703397,110.76264404703397,110.76264404703397,110.76264404703397,110.76264404703397,110.76264404703397,110.76264404703397,110.76264404703397,110.76264404703397,110.76264404703397,a,1.1210462210001424,1,107,0,111.91397135704756,113.41573122004047,113.41573122004047,,,,,,,,,,,,,,,,,,,,,,,,,,,,,,,,,,,,,,,,,,,,,,,,,,,,,,,,,,,,,,,,,,,,,,33405,2022-11-28_13h58.11.201,vts_reward_expectancy_bt_OFFLINE,2022.2.4,59.93178409133674,
0,0,0,1,1,0,0,0,star,triangle,0,0,0,0,1,5,17,9,,,,,,,,,,,,,,,,,,,,,,,,,,,,,,,,,,,,,,,,113.91605500108562,113.91605500108562,113.91605500108562,113.91605500108562,113.91605500108562,113.91605500108562,113.91605500108562,113.91605500108562,113.91605500108562,113.91605500108562,a,0.9944129730574787,1,108,0,114.93383382004686,,116.4357324220473,,,,,,,,,,,,,,,,,,,,,,,,,,,,,,,,,,,,,,,,,,,,,,,,,,,,,,,,,,,,,,,,,,,,,,33405,2022-11-28_13h58.11.201,vts_reward_expectancy_bt_OFFLINE,2022.2.4,59.93178409133674,
0,1,0,0,0,0,0,1,circle,star,0,0,0,0,1,6,18,5,,,,,,,,,,,,,,,,,,,,,,,,,,,,,,,,,,,,,,,,116.93596212402917,116.93596212402917,116.93596212402917,116.93596212402917,116.93596212402917,116.93596212402917,116.93596212402917,116.93596212402917,116.93596212402917,116.93596212402917,a,0.9111456610262394,10,118,0,117.87040148105007,,119.3720009890385,,,,,,,,,,,,,,,,,,,,,,,,,,,,,,,,,,,,,,,,,,,,,,,,,,,,,,,,,,,,,,,,,,,,,,33405,2022-11-28_13h58.11.201,vts_reward_expectancy_bt_OFFLINE,2022.2.4,59.93178409133674,
0,0,0,1,0,1,0,0,star ,circle,0,0,0,0,1,7,19,10,,,,,,,,,,,,,,,,,,,,,,,,,,,,,,,,,,,,,,,,119.87271245499142,119.87271245499142,119.87271245499142,119.87271245499142,119.87271245499142,119.87271245499142,119.87271245499142,119.87271245499142,119.87271245499142,119.87271245499142,l,0.9687418830581009,10,128,0,120.87366334605031,,122.37542389100417,,,,,,,,,,,,,,,,,,,,,,,,,,,,,,,,,,,,,,,,,,,,,,,,,,,,,,,,,,,,,,,,,,,,,,33405,2022-11-28_13h58.11.201,vts_reward_expectancy_bt_OFFLINE,2022.2.4,59.93178409133674,
0,1,0,0,1,0,0,0,circle,triangle,0,0,0,0,1,8,20,3,,,,,,,,,,,,,,,,,,,,,,,,,,,,,,,,,,,,,,,,122.8760560300434,122.8760560300434,122.8760560300434,122.8760560300434,122.8760560300434,122.8760560300434,122.8760560300434,122.8760560300434,122.8760560300434,122.8760560300434,a,0.652198727009818,10,138,0,123.55993352201767,,125.06173875101376,,,,,,,,,,,,,,,,,,,,,,,,,,,,,,,,,,,,,,,,,,,,,,,,,,,,,,,,,,,,,,,,,,,,,,33405,2022-11-28_13h58.11.201,vts_reward_expectancy_bt_OFFLINE,2022.2.4,59.93178409133674,
1,0,0,0,0,1,0,0,triangle,circle,0,0,0,0,1,9,21,0,,,,,,,,,,,,,,,,,,,,,,,,,,,,,,,,,,,,,,,,125.56229979905766,125.56229979905766,125.56229979905766,125.56229979905766,125.56229979905766,125.56229979905766,125.56229979905766,125.56229979905766,125.56229979905766,125.56229979905766,l,0.7230005159508437,10,148,0,126.3129566690186,,127.81488604599144,,,,,,,,,,,,,,,,,,,,,,,,,,,,,,,,,,,,,,,,,,,,,,,,,,,,,,,,,,,,,,,,,,,,,,33405,2022-11-28_13h58.11.201,vts_reward_expectancy_bt_OFFLINE,2022.2.4,59.93178409133674,
0,0,0,1,0,0,1,0,star,hexagon,0,0,0,0,1,10,22,11,,,,,,,,,,,,,,,,,,,,,,,,,,,,,,,,,,,,,,,,128.3155151969986,128.3155151969986,128.3155151969986,128.3155151969986,128.3155151969986,128.3155151969986,128.3155151969986,128.3155151969986,128.3155151969986,128.3155151969986,a,1.760974119999446,1,149,0,130.10059757402632,,131.60251121700276,,,,,,,,,,,,,,,,,,,,,,,,,,,,,,,,,,,,,,,,,,,,,,,,,,,,,,,,,,,,,,,,,,,,,,33405,2022-11-28_13h58.11.201,vts_reward_expectancy_bt_OFFLINE,2022.2.4,59.93178409133674,
0,1,0,0,0,0,1,0,circle,hexagon,0,0,0,0,1,11,23,4,,,,,,,,,,,,,,,,,,,,,,,,,,,,,,,,,,,,,,,,132.10296449705493,132.10296449705493,132.10296449705493,132.10296449705493,132.10296449705493,132.10296449705493,132.10296449705493,132.10296449705493,132.10296449705493,132.10296449705493,l,0.5846536710159853,10,159,0,132.7201457490446,,134.22178316209465,,,,,,,,,,,,,,,,,,,,,,,,,,,,,,,,,,,,,,,,,,,,,,,,,,,,,,,,,,,,,,,,,,,,,,33405,2022-11-28_13h58.11.201,vts_reward_expectancy_bt_OFFLINE,2022.2.4,59.93178409133674,
0,1,0,0,0,0,0,1,circle,star,0,0,0,0,2,0,24,5,,,,,,,,,,,,,,,,,,,,,,,,,,,,,,,,,,,,,,,,134.72229863598477,134.72229863598477,134.72229863598477,134.72229863598477,134.72229863598477,134.72229863598477,134.72229863598477,134.72229863598477,134.72229863598477,134.72229863598477,a,1.5194428930990398,1,160,0,136.2739141510101,,137.77572761208285,,,,,,,,,,,,,,,,,,,,,,,,,,,,,,,,,,,,,,,,,,,,,,,,,,,,,,,,,,,,,,,,,,,,,,33405,2022-11-28_13h58.11.201,vts_reward_expectancy_bt_OFFLINE,2022.2.4,59.93178409133674,
1,0,0,0,0,0,1,0,triangle,hexagon,0,0,0,0,2,1,25,1,,,,,,,,,,,,,,,,,,,,,,,,,,,,,,,,,,,,,,,,138.27625365101267,138.27625365101267,138.27625365101267,138.27625365101267,138.27625365101267,138.27625365101267,138.27625365101267,138.27625365101267,138.27625365101267,138.27625365101267,l,0.6427738009952009,1,161,0,138.94380235101562,,140.44557138509117,,,,,,,,,,,,,,,,,,,,,,,,,,,,,,,,,,,,,,,,,,,,,,,,,,,,,,,,,,,,,,,,,,,,,,33405,2022-11-28_13h58.11.201,vts_reward_expectancy_bt_OFFLINE,2022.2.4,59.93178409133674,
0,0,1,0,0,1,0,0,hexagon,circle,0,0,0,0,2,2,26,7,,,,,,,,,,,,,,,,,,,,,,,,,,,,,,,,,,,,,,,,140.94590088608675,140.94590088608675,140.94590088608675,140.94590088608675,140.94590088608675,140.94590088608675,140.94590088608675,140.94590088608675,140.94590088608675,140.94590088608675,l,0.5392205429961905,1,162,0,141.51328476902563,143.0150207200786,143.0150207200786,,,,,,,,,,,,,,,,,,,,,,,,,,,,,,,,,,,,,,,,,,,,,,,,,,,,,,,,,,,,,,,,,,,,,,33405,2022-11-28_13h58.11.201,vts_reward_expectancy_bt_OFFLINE,2022.2.4,59.93178409133674,
0,1,0,0,0,0,1,0,circle,hexagon,0,0,0,0,2,3,27,4,,,,,,,,,,,,,,,,,,,,,,,,,,,,,,,,,,,,,,,,143.51550266204868,143.51550266204868,143.51550266204868,143.51550266204868,143.51550266204868,143.51550266204868,143.51550266204868,143.51550266204868,143.51550266204868,143.51550266204868,a,0.6016909059835598,10,172,0,144.14937813906,,145.65097969502676,,,,,,,,,,,,,,,,,,,,,,,,,,,,,,,,,,,,,,,,,,,,,,,,,,,,,,,,,,,,,,,,,,,,,,33405,2022-11-28_13h58.11.201,vts_reward_expectancy_bt_OFFLINE,2022.2.4,59.93178409133674,
0,0,0,1,1,0,0,0,star,triangle,0,0,0,0,2,4,28,9,,,,,,,,,,,,,,,,,,,,,,,,,,,,,,,,,,,,,,,,146.15175614401232,146.15175614401232,146.15175614401232,146.15175614401232,146.15175614401232,146.15175614401232,146.15175614401232,146.15175614401232,146.15175614401232,146.15175614401232,l,0.609661262948066,1,173,0,146.78555415407754,,148.2873779790243,,,,,,,,,,,,,,,,,,,,,,,,,,,,,,,,,,,,,,,,,,,,,,,,,,,,,,,,,,,,,,,,,,,,,,33405,2022-11-28_13h58.11.201,vts_reward_expectancy_bt_OFFLINE,2022.2.4,59.93178409133674,
0,0,0,1,0,0,1,0,star,hexagon,0,0,0,0,2,5,29,11,,,,,,,,,,,,,,,,,,,,,,,,,,,,,,,,,,,,,,,,148.78783351602033,148.78783351602033,148.78783351602033,148.78783351602033,148.78783351602033,148.78783351602033,148.78783351602033,148.78783351602033,148.78783351602033,148.78783351602033,l,0.7087648690212518,1,174,0,149.521937669022,,151.0238398440415,,,,,,,,,,,,,,,,,,,,,,,,,,,,,,,,,,,,,,,,,,,,,,,,,,,,,,,,,,,,,,,,,,,,,,33405,2022-11-28_13h58.11.201,vts_reward_expectancy_bt_OFFLINE,2022.2.4,59.93178409133674,
0,0,0,1,0,1,0,0,star ,circle,0,0,0,0,2,6,30,10,,,,,,,,,,,,,,,,,,,,,,,,,,,,,,,,,,,,,,,,151.52433080901392,151.52433080901392,151.52433080901392,151.52433080901392,151.52433080901392,151.52433080901392,151.52433080901392,151.52433080901392,151.52433080901392,151.52433080901392,l,0.5594013980589807,10,184,0,152.10813530208543,,153.60989527706988,,,,,,,,,,,,,,,,,,,,,,,,,,,,,,,,,,,,,,,,,,,,,,,,,,,,,,,,,,,,,,,,,,,,,,33405,2022-11-28_13h58.11.201,vts_reward_expectancy_bt_OFFLINE,2022.2.4,59.93178409133674,
1,0,0,0,0,1,0,0,triangle,circle,0,0,0,0,2,7,31,0,,,,,,,,,,,,,,,,,,,,,,,,,,,,,,,,,,,,,,,,154.1104311690433,154.1104311690433,154.1104311690433,154.1104311690433,154.1104311690433,154.1104311690433,154.1104311690433,154.1104311690433,154.1104311690433,154.1104311690433,l,0.41522029996849597,10,194,0,154.54434531601146,,156.04606478405185,,,,,,,,,,,,,,,,,,,,,,,,,,,,,,,,,,,,,,,,,,,,,,,,,,,,,,,,,,,,,,,,,,,,,,33405,2022-11-28_13h58.11.201,vts_reward_expectancy_bt_OFFLINE,2022.2.4,59.93178409133674,
0,1,0,0,1,0,0,0,circle,triangle,0,0,0,0,2,8,32,3,,,,,,,,,,,,,,,,,,,,,,,,,,,,,,,,,,,,,,,,156.54662052704953,156.54662052704953,156.54662052704953,156.54662052704953,156.54662052704953,156.54662052704953,156.54662052704953,156.54662052704953,156.54662052704953,156.54662052704953,a,0.43162737402599305,10,204,0,156.99702228500973,,158.49863727507181,,,,,,,,,,,,,,,,,,,,,,,,,,,,,,,,,,,,,,,,,,,,,,,,,,,,,,,,,,,,,,,,,,,,,,33405,2022-11-28_13h58.11.201,vts_reward_expectancy_bt_OFFLINE,2022.2.4,59.93178409133674,
0,0,1,0,0,0,0,1,hexagon,star,0,0,0,0,2,9,33,8,,,,,,,,,,,,,,,,,,,,,,,,,,,,,,,,,,,,,,,,158.99926599103492,158.99926599103492,158.99926599103492,158.99926599103492,158.99926599103492,158.99926599103492,158.99926599103492,158.99926599103492,158.99926599103492,158.99926599103492,a,0.7346600079908967,1,205,0,159.7667285890784,,161.2682678590063,,,,,,,,,,,,,,,,,,,,,,,,,,,,,,,,,,,,,,,,,,,,,,,,,,,,,,,,,,,,,,,,,,,,,,33405,2022-11-28_13h58.11.201,vts_reward_expectancy_bt_OFFLINE,2022.2.4,59.93178409133674,
0,0,1,0,1,0,0,0,hexagon,triangle,0,0,0,0,2,10,34,6,,,,,,,,,,,,,,,,,,,,,,,,,,,,,,,,,,,,,,,,161.76870640006382,161.76870640006382,161.76870640006382,161.76870640006382,161.76870640006382,161.76870640006382,161.76870640006382,161.76870640006382,161.76870640006382,161.76870640006382,l,0.5989299160428345,10,215,0,162.38620000204537,,163.88793575402815,,,,,,,,,,,,,,,,,,,,,,,,,,,,,,,,,,,,,,,,,,,,,,,,,,,,,,,,,,,,,,,,,,,,,,33405,2022-11-28_13h58.11.201,vts_reward_expectancy_bt_OFFLINE,2022.2.4,59.93178409133674,
1,0,0,0,0,0,0,1,triangle,star,0,0,0,0,2,11,35,2,,,,,,,,,,,,,,,,,,,,,,,,,,,,,,,,,,,,,,,,164.38862055109348,164.38862055109348,164.38862055109348,164.38862055109348,164.38862055109348,164.38862055109348,164.38862055109348,164.38862055109348,164.38862055109348,164.38862055109348,a,0.858273641904816,10,225,0,165.27287616208196,,166.77459682605695,,,,,,,,,,,,,,,,,,,,,,,,,,,,,,,,,,,,,,,,,,,,,,,,,,,,,,,,,,,,,,,,,,,,,,33405,2022-11-28_13h58.11.201,vts_reward_expectancy_bt_OFFLINE,2022.2.4,59.93178409133674,
1,0,0,0,0,0,0,1,triangle,star,0,0,0,0,3,0,36,2,,,,,,,,,,,,,,,,,,,,,,,,,,,,,,,,,,,,,,,,167.27499135700054,167.27499135700054,167.27499135700054,167.27499135700054,167.27499135700054,167.27499135700054,167.27499135700054,167.27499135700054,167.27499135700054,167.27499135700054,a,0.6847064889734611,10,235,0,167.9925275890855,,169.49401533405762,,,,,,,,,,,,,,,,,,,,,,,,,,,,,,,,,,,,,,,,,,,,,,,,,,,,,,,,,,,,,,,,,,,,,,33405,2022-11-28_13h58.11.201,vts_reward_expectancy_bt_OFFLINE,2022.2.4,59.93178409133674,
1,0,0,0,0,0,1,0,triangle,hexagon,0,0,0,0,3,1,37,1,,,,,,,,,,,,,,,,,,,,,,,,,,,,,,,,,,,,,,,,169.99444840208162,169.99444840208162,169.99444840208162,169.99444840208162,169.99444840208162,169.99444840208162,169.99444840208162,169.99444840208162,169.99444840208162,169.99444840208162,l,0.5286684019956738,10,245,0,170.54541916202288,,172.04703692509793,,,,,,,,,,,,,,,,,,,,,,,,,,,,,,,,,,,,,,,,,,,,,,,,,,,,,,,,,,,,,,,,,,,,,,33405,2022-11-28_13h58.11.201,vts_reward_expectancy_bt_OFFLINE,2022.2.4,59.93178409133674,
0,0,0,1,1,0,0,0,star,triangle,0,0,0,0,3,2,38,9,,,,,,,,,,,,,,,,,,,,,,,,,,,,,,,,,,,,,,,,172.54736366006546,172.54736366006546,172.54736366006546,172.54736366006546,172.54736366006546,172.54736366006546,172.54736366006546,172.54736366006546,172.54736366006546,172.54736366006546,a,0.8779722769977525,1,246,0,173.44846450409386,,174.95012867602054,,,,,,,,,,,,,,,,,,,,,,,,,,,,,,,,,,,,,,,,,,,,,,,,,,,,,,,,,,,,,,,,,,,,,,33405,2022-11-28_13h58.11.201,vts_reward_expectancy_bt_OFFLINE,2022.2.4,59.93178409133674,
0,0,1,0,0,1,0,0,hexagon,circle,0,0,0,0,3,3,39,7,,,,,,,,,,,,,,,,,,,,,,,,,,,,,,,,,,,,,,,,175.4508118890226,175.4508118890226,175.4508118890226,175.4508118890226,175.4508118890226,175.4508118890226,175.4508118890226,175.4508118890226,175.4508118890226,175.4508118890226,l,0.5516807941021398,10,256,0,176.03467649698723,,177.5362216810463,,,,,,,,,,,,,,,,,,,,,,,,,,,,,,,,,,,,,,,,,,,,,,,,,,,,,,,,,,,,,,,,,,,,,,33405,2022-11-28_13h58.11.201,vts_reward_expectancy_bt_OFFLINE,2022.2.4,59.93178409133674,
0,0,0,1,0,1,0,0,star ,circle,0,0,0,0,3,4,40,10,,,,,,,,,,,,,,,,,,,,,,,,,,,,,,,,,,,,,,,,178.03685981105082,178.03685981105082,178.03685981105082,178.03685981105082,178.03685981105082,178.03685981105082,178.03685981105082,178.03685981105082,178.03685981105082,178.03685981105082,l,0.6332460740813985,10,266,0,178.68778995901812,180.1894177320646,180.1894177320646,,,,,,,,,,,,,,,,,,,,,,,,,,,,,,,,,,,,,,,,,,,,,,,,,,,,,,,,,,,,,,,,,,,,,,33405,2022-11-28_13h58.11.201,vts_reward_expectancy_bt_OFFLINE,2022.2.4,59.93178409133674,
0,1,0,0,1,0,0,0,circle,triangle,0,0,0,0,3,5,41,3,,,,,,,,,,,,,,,,,,,,,,,,,,,,,,,,,,,,,,,,180.68997930001933,180.68997930001933,180.68997930001933,180.68997930001933,180.68997930001933,180.68997930001933,180.68997930001933,180.68997930001933,180.68997930001933,180.68997930001933,a,0.6681864690035582,1,267,0,181.3906733150361,,182.8923810570268,,,,,,,,,,,,,,,,,,,,,,,,,,,,,,,,,,,,,,,,,,,,,,,,,,,,,,,,,,,,,,,,,,,,,,33405,2022-11-28_13h58.11.201,vts_reward_expectancy_bt_OFFLINE,2022.2.4,59.93178409133674,
0,0,0,1,0,0,1,0,star,hexagon,0,0,0,0,3,6,42,11,,,,,,,,,,,,,,,,,,,,,,,,,,,,,,,,,,,,,,,,183.39283445000183,183.39283445000183,183.39283445000183,183.39283445000183,183.39283445000183,183.39283445000183,183.39283445000183,183.39283445000183,183.39283445000183,183.39283445000183,l,0.4623008039779961,1,268,0,183.8767617790727,,185.37834219401702,,,,,,,,,,,,,,,,,,,,,,,,,,,,,,,,,,,,,,,,,,,,,,,,,,,,,,,,,,,,,,,,,,,,,,33405,2022-11-28_13h58.11.201,vts_reward_expectancy_bt_OFFLINE,2022.2.4,59.93178409133674,
0,0,1,0,0,0,0,1,hexagon,star,0,0,0,0,3,7,43,8,,,,,,,,,,,,,,,,,,,,,,,,,,,,,,,,,,,,,,,,185.87873591901734,185.87873591901734,185.87873591901734,185.87873591901734,185.87873591901734,185.87873591901734,185.87873591901734,185.87873591901734,185.87873591901734,185.87873591901734,a,0.609831565991044,1,269,0,186.5128587320214,,188.01457536406815,,,,,,,,,,,,,,,,,,,,,,,,,,,,,,,,,,,,,,,,,,,,,,,,,,,,,,,,,,,,,,,,,,,,,,33405,2022-11-28_13h58.11.201,vts_reward_expectancy_bt_OFFLINE,2022.2.4,59.93178409133674,
0,1,0,0,0,0,1,0,circle,hexagon,0,0,0,0,3,8,44,4,,,,,,,,,,,,,,,,,,,,,,,,,,,,,,,,,,,,,,,,188.5149364140816,188.5149364140816,188.5149364140816,188.5149364140816,188.5149364140816,188.5149364140816,188.5149364140816,188.5149364140816,188.5149364140816,188.5149364140816,a,0.5613173469901085,10,279,0,189.09895811404567,,190.6008800470736,,,,,,,,,,,,,,,,,,,,,,,,,,,,,,,,,,,,,,,,,,,,,,,,,,,,,,,,,,,,,,,,,,,,,,33405,2022-11-28_13h58.11.201,vts_reward_expectancy_bt_OFFLINE,2022.2.4,59.93178409133674,
0,0,1,0,1,0,0,0,hexagon,triangle,0,0,0,0,3,9,45,6,,,,,,,,,,,,,,,,,,,,,,,,,,,,,,,,,,,,,,,,191.10116184002254,191.10116184002254,191.10116184002254,191.10116184002254,191.10116184002254,191.10116184002254,191.10116184002254,191.10116184002254,191.10116184002254,191.10116184002254,l,0.4046790710417554,10,289,0,191.5350624450948,,193.03673355199862,,,,,,,,,,,,,,,,,,,,,,,,,,,,,,,,,,,,,,,,,,,,,,,,,,,,,,,,,,,,,,,,,,,,,,33405,2022-11-28_13h58.11.201,vts_reward_expectancy_bt_OFFLINE,2022.2.4,59.93178409133674,
0,1,0,0,0,0,0,1,circle,star,0,0,0,0,3,10,46,5,,,,,,,,,,,,,,,,,,,,,,,,,,,,,,,,,,,,,,,,193.53751576901414,193.53751576901414,193.53751576901414,193.53751576901414,193.53751576901414,193.53751576901414,193.53751576901414,193.53751576901414,193.53751576901414,193.53751576901414,a,0.5571095810737461,10,299,0,194.12153567909263,,195.62287576601375,,,,,,,,,,,,,,,,,,,,,,,,,,,,,,,,,,,,,,,,,,,,,,,,,,,,,,,,,,,,,,,,,,,,,,33405,2022-11-28_13h58.11.201,vts_reward_expectancy_bt_OFFLINE,2022.2.4,59.93178409133674,
1,0,0,0,0,1,0,0,triangle,circle,0,0,0,0,3,11,47,0,,,,,,,,,,,,,,,,,,,,,,,,,,,,,,,,,,,,,,,,196.12349158199504,196.12349158199504,196.12349158199504,196.12349158199504,196.12349158199504,196.12349158199504,196.12349158199504,196.12349158199504,196.12349158199504,196.12349158199504,l,0.8045773659832776,1,300,0,196.95762598409783,,198.45927873905748,,,,,,,,,,,,,,,,,,,,,,,,,,,,,,,,,,,,,,,,,,,,,,,,,,,,,,,,,,,,,,,,,,,,,,33405,2022-11-28_13h58.11.201,vts_reward_expectancy_bt_OFFLINE,2022.2.4,59.93178409133674,
1,0,0,0,0,1,0,0,triangle,circle,1,0,1,0,0,0,0,0,,,,,,,,,,,,,,,,,,,,,,,,,,,,,,,,,,,,,,,,204.082308141049,204.082308141049,204.082308141049,204.082308141049,204.082308141049,204.082308141049,204.082308141049,204.082308141049,204.082308141049,204.082308141049,l,1.4423207609215751,1,301,1,205.5505645420635,,207.05210977606475,,,,,,,,,,,,,,,,,,,,,,,,,,,,,,,,,,,,,,,,,,,,,,,,,,,,,,,,,,,,,,,,,,,,,,33405,2022-11-28_13h58.11.201,vts_reward_expectancy_bt_OFFLINE,2022.2.4,59.93178409133674,
0,0,1,0,0,0,0,1,hexagon,star,1,0,1,0,0,1,1,8,,,,,,,,,,,,,,,,,,,,,,,,,,,,,,,,,,,,,,,,207.55273975105956,207.55273975105956,207.55273975105956,207.55273975105956,207.55273975105956,207.55273975105956,207.55273975105956,207.55273975105956,207.55273975105956,207.55273975105956,l,1.6955728629836813,10,311,1,209.27121123904362,,210.77316373202484,,,,,,,,,,,,,,,,,,,,,,,,,,,,,,,,,,,,,,,,,,,,,,,,,,,,,,,,,,,,,,,,,,,,,,33405,2022-11-28_13h58.11.201,vts_reward_expectancy_bt_OFFLINE,2022.2.4,59.93178409133674,
0,1,0,0,0,0,1,0,circle,hexagon,1,0,1,0,0,2,2,4,,,,,,,,,,,,,,,,,,,,,,,,,,,,,,,,,,,,,,,,211.27357801399194,211.27357801399194,211.27357801399194,211.27357801399194,211.27357801399194,211.27357801399194,211.27357801399194,211.27357801399194,211.27357801399194,211.27357801399194,a,2.0935756670078263,10,321,1,213.39246522204485,,214.8942278859904,,,,,,,,,,,,,,,,,,,,,,,,,,,,,,,,,,,,,,,,,,,,,,,,,,,,,,,,,,,,,,,,,,,,,,33405,2022-11-28_13h58.11.201,vts_reward_expectancy_bt_OFFLINE,2022.2.4,59.93178409133674,
0,1,0,0,1,0,0,0,circle,triangle,1,0,1,0,0,3,3,3,,,,,,,,,,,,,,,,,,,,,,,,,,,,,,,,,,,,,,,,215.39462040702347,215.39462040702347,215.39462040702347,215.39462040702347,215.39462040702347,215.39462040702347,215.39462040702347,215.39462040702347,215.39462040702347,215.39462040702347,a,0.46925487311091274,1,322,1,215.8954199650325,,217.39689020207152,,,,,,,,,,,,,,,,,,,,,,,,,,,,,,,,,,,,,,,,,,,,,,,,,,,,,,,,,,,,,,,,,,,,,,33405,2022-11-28_13h58.11.201,vts_reward_expectancy_bt_OFFLINE,2022.2.4,59.93178409133674,
0,0,0,1,0,1,0,0,star ,circle,1,0,1,0,0,4,4,10,,,,,,,,,,,,,,,,,,,,,,,,,,,,,,,,,,,,,,,,217.8974388310453,217.8974388310453,217.8974388310453,217.8974388310453,217.8974388310453,217.8974388310453,217.8974388310453,217.8974388310453,217.8974388310453,217.8974388310453,a,1.3760785990161821,1,323,1,219.29916594398674,,220.80071784404572,,,,,,,,,,,,,,,,,,,,,,,,,,,,,,,,,,,,,,,,,,,,,,,,,,,,,,,,,,,,,,,,,,,,,,33405,2022-11-28_13h58.11.201,vts_reward_expectancy_bt_OFFLINE,2022.2.4,59.93178409133674,
0,0,0,1,1,0,0,0,star,triangle,1,0,1,0,0,5,5,9,,,,,,,,,,,,,,,,,,,,,,,,,,,,,,,,,,,,,,,,221.30118135898374,221.30118135898374,221.30118135898374,221.30118135898374,221.30118135898374,221.30118135898374,221.30118135898374,221.30118135898374,221.30118135898374,221.30118135898374,l,0.6040903179673478,10,333,1,221.93534775206354,,223.43699046503752,,,,,,,,,,,,,,,,,,,,,,,,,,,,,,,,,,,,,,,,,,,,,,,,,,,,,,,,,,,,,,,,,,,,,,33405,2022-11-28_13h58.11.201,vts_reward_expectancy_bt_OFFLINE,2022.2.4,59.93178409133674,
0,0,1,0,0,1,0,0,hexagon,circle,1,0,1,0,0,6,6,7,,,,,,,,,,,,,,,,,,,,,,,,,,,,,,,,,,,,,,,,223.93744291900657,223.93744291900657,223.93744291900657,223.93744291900657,223.93744291900657,223.93744291900657,223.93744291900657,223.93744291900657,223.93744291900657,223.93744291900657,l,0.5683750950265676,1,334,1,224.53801953000948,,226.03985632408876,,,,,,,,,,,,,,,,,,,,,,,,,,,,,,,,,,,,,,,,,,,,,,,,,,,,,,,,,,,,,,,,,,,,,,33405,2022-11-28_13h58.11.201,vts_reward_expectancy_bt_OFFLINE,2022.2.4,59.93178409133674,
1,0,0,0,0,0,0,1,triangle,star,1,0,1,0,0,7,7,2,,,,,,,,,,,,,,,,,,,,,,,,,,,,,,,,,,,,,,,,226.5404275590554,226.5404275590554,226.5404275590554,226.5404275590554,226.5404275590554,226.5404275590554,226.5404275590554,226.5404275590554,226.5404275590554,226.5404275590554,l,0.9912284319289029,1,335,1,227.55813502206001,,229.05983704607934,,,,,,,,,,,,,,,,,,,,,,,,,,,,,,,,,,,,,,,,,,,,,,,,,,,,,,,,,,,,,,,,,,,,,,33405,2022-11-28_13h58.11.201,vts_reward_expectancy_bt_OFFLINE,2022.2.4,59.93178409133674,
0,1,0,0,0,0,0,1,circle,star,1,0,1,0,0,8,8,5,,,,,,,,,,,,,,,,,,,,,,,,,,,,,,,,,,,,,,,,229.5603284999961,229.5603284999961,229.5603284999961,229.5603284999961,229.5603284999961,229.5603284999961,229.5603284999961,229.5603284999961,229.5603284999961,229.5603284999961,a,0.5920615621143952,10,345,1,230.17786011402495,,231.679517256096,,,,,,,,,,,,,,,,,,,,,,,,,,,,,,,,,,,,,,,,,,,,,,,,,,,,,,,,,,,,,,,,,,,,,,33405,2022-11-28_13h58.11.201,vts_reward_expectancy_bt_OFFLINE,2022.2.4,59.93178409133674,
0,0,0,1,0,0,1,0,star,hexagon,1,0,1,0,0,9,9,11,,,,,,,,,,,,,,,,,,,,,,,,,,,,,,,,,,,,,,,,232.18019003106747,232.18019003106747,232.18019003106747,232.18019003106747,232.18019003106747,232.18019003106747,232.18019003106747,232.18019003106747,232.18019003106747,232.18019003106747,a,0.6845593360485509,10,355,1,232.89729937899392,234.39897108601872,234.39897108601872,,,,,,,,,,,,,,,,,,,,,,,,,,,,,,,,,,,,,,,,,,,,,,,,,,,,,,,,,,,,,,,,,,,,,,33405,2022-11-28_13h58.11.201,vts_reward_expectancy_bt_OFFLINE,2022.2.4,59.93178409133674,
1,0,0,0,0,0,1,0,triangle,hexagon,1,0,1,0,0,10,10,1,,,,,,,,,,,,,,,,,,,,,,,,,,,,,,,,,,,,,,,,234.89947427401785,234.89947427401785,234.89947427401785,234.89947427401785,234.89947427401785,234.89947427401785,234.89947427401785,234.89947427401785,234.89947427401785,234.89947427401785,a,1.1492501739412546,1,356,1,236.0675374059938,,237.56928274501115,,,,,,,,,,,,,,,,,,,,,,,,,,,,,,,,,,,,,,,,,,,,,,,,,,,,,,,,,,,,,,,,,,,,,,33405,2022-11-28_13h58.11.201,vts_reward_expectancy_bt_OFFLINE,2022.2.4,59.93178409133674,
0,0,1,0,1,0,0,0,hexagon,triangle,1,0,1,0,0,11,11,6,,,,,,,,,,,,,,,,,,,,,,,,,,,,,,,,,,,,,,,,238.06967688701116,238.06967688701116,238.06967688701116,238.06967688701116,238.06967688701116,238.06967688701116,238.06967688701116,238.06967688701116,238.06967688701116,238.06967688701116,a,1.4666733340127394,1,357,1,239.5546798770083,241.05631784605794,241.05631784605794,,,,,,,,,,,,,,,,,,,,,,,,,,,,,,,,,,,,,,,,,,,,,,,,,,,,,,,,,,,,,,,,,,,,,,33405,2022-11-28_13h58.11.201,vts_reward_expectancy_bt_OFFLINE,2022.2.4,59.93178409133674,
0,0,0,1,0,1,0,0,star ,circle,1,0,1,0,1,0,12,10,,,,,,,,,,,,,,,,,,,,,,,,,,,,,,,,,,,,,,,,241.55691535398364,241.55691535398364,241.55691535398364,241.55691535398364,241.55691535398364,241.55691535398364,241.55691535398364,241.55691535398364,241.55691535398364,241.55691535398364,a,0.4425414960132912,1,358,1,242.02401305409148,,243.5257556870347,,,,,,,,,,,,,,,,,,,,,,,,,,,,,,,,,,,,,,,,,,,,,,,,,,,,,,,,,,,,,,,,,,,,,,33405,2022-11-28_13h58.11.201,vts_reward_expectancy_bt_OFFLINE,2022.2.4,59.93178409133674,
0,0,1,0,0,1,0,0,hexagon,circle,1,0,1,0,1,1,13,7,,,,,,,,,,,,,,,,,,,,,,,,,,,,,,,,,,,,,,,,244.02646664704662,244.02646664704662,244.02646664704662,244.02646664704662,244.02646664704662,244.02646664704662,244.02646664704662,244.02646664704662,244.02646664704662,244.02646664704662,l,0.48380713805090636,1,359,1,244.52697215403896,246.02852376701776,246.02852376701776,,,,,,,,,,,,,,,,,,,,,,,,,,,,,,,,,,,,,,,,,,,,,,,,,,,,,,,,,,,,,,,,,,,,,,33405,2022-11-28_13h58.11.201,vts_reward_expectancy_bt_OFFLINE,2022.2.4,59.93178409133674,
0,1,0,0,0,0,0,1,circle,star,1,0,1,0,1,2,14,5,,,,,,,,,,,,,,,,,,,,,,,,,,,,,,,,,,,,,,,,246.52907344000414,246.52907344000414,246.52907344000414,246.52907344000414,246.52907344000414,246.52907344000414,246.52907344000414,246.52907344000414,246.52907344000414,246.52907344000414,a,1.286946707055904,1,360,1,247.84723365900572,,249.34873799409252,,,,,,,,,,,,,,,,,,,,,,,,,,,,,,,,,,,,,,,,,,,,,,,,,,,,,,,,,,,,,,,,,,,,,,33405,2022-11-28_13h58.11.201,vts_reward_expectancy_bt_OFFLINE,2022.2.4,59.93178409133674,
0,1,0,0,0,0,1,0,circle,hexagon,1,0,1,0,1,3,15,4,,,,,,,,,,,,,,,,,,,,,,,,,,,,,,,,,,,,,,,,249.84952577902004,249.84952577902004,249.84952577902004,249.84952577902004,249.84952577902004,249.84952577902004,249.84952577902004,249.84952577902004,249.84952577902004,249.84952577902004,l,0.6780189380515367,1,361,1,250.55023991200142,,252.05169830203522,,,,,,,,,,,,,,,,,,,,,,,,,,,,,,,,,,,,,,,,,,,,,,,,,,,,,,,,,,,,,,,,,,,,,,33405,2022-11-28_13h58.11.201,vts_reward_expectancy_bt_OFFLINE,2022.2.4,59.93178409133674,
0,0,1,0,0,0,0,1,hexagon,star,1,0,1,0,1,4,16,8,,,,,,,,,,,,,,,,,,,,,,,,,,,,,,,,,,,,,,,,252.55234705505427,252.55234705505427,252.55234705505427,252.55234705505427,252.55234705505427,252.55234705505427,252.55234705505427,252.55234705505427,252.55234705505427,252.55234705505427,l,0.6862486860482022,1,362,1,253.26993754901923,,254.77164315606933,,,,,,,,,,,,,,,,,,,,,,,,,,,,,,,,,,,,,,,,,,,,,,,,,,,,,,,,,,,,,,,,,,,,,,33405,2022-11-28_13h58.11.201,vts_reward_expectancy_bt_OFFLINE,2022.2.4,59.93178409133674,
0,0,0,1,1,0,0,0,star,triangle,1,0,1,0,1,5,17,9,,,,,,,,,,,,,,,,,,,,,,,,,,,,,,,,,,,,,,,,255.2720527810743,255.2720527810743,255.2720527810743,255.2720527810743,255.2720527810743,255.2720527810743,255.2720527810743,255.2720527810743,255.2720527810743,255.2720527810743,a,1.309273761115037,1,363,1,256.6067872310523,,258.1086744100321,,,,,,,,,,,,,,,,,,,,,,,,,,,,,,,,,,,,,,,,,,,,,,,,,,,,,,,,,,,,,,,,,,,,,,33405,2022-11-28_13h58.11.201,vts_reward_expectancy_bt_OFFLINE,2022.2.4,59.93178409133674,
1,0,0,0,0,1,0,0,triangle,circle,1,0,1,0,1,6,18,0,,,,,,,,,,,,,,,,,,,,,,,,,,,,,,,,,,,,,,,,258.60917273000814,258.60917273000814,258.60917273000814,258.60917273000814,258.60917273000814,258.60917273000814,258.60917273000814,258.60917273000814,258.60917273000814,258.60917273000814,l,0.5822866479866207,10,373,1,259.209718052065,260.7113321260549,260.7113321260549,,,,,,,,,,,,,,,,,,,,,,,,,,,,,,,,,,,,,,,,,,,,,,,,,,,,,,,,,,,,,,,,,,,,,,33405,2022-11-28_13h58.11.201,vts_reward_expectancy_bt_OFFLINE,2022.2.4,59.93178409133674,
1,0,0,0,0,0,1,0,triangle,hexagon,1,0,1,0,1,7,19,1,,,,,,,,,,,,,,,,,,,,,,,,,,,,,,,,,,,,,,,,261.21205157600343,261.21205157600343,261.21205157600343,261.21205157600343,261.21205157600343,261.21205157600343,261.21205157600343,261.21205157600343,261.21205157600343,261.21205157600343,l,0.644742674077861,1,374,1,261.879256261047,,263.38081171701197,,,,,,,,,,,,,,,,,,,,,,,,,,,,,,,,,,,,,,,,,,,,,,,,,,,,,,,,,,,,,,,,,,,,,,33405,2022-11-28_13h58.11.201,vts_reward_expectancy_bt_OFFLINE,2022.2.4,59.93178409133674,
0,0,1,0,1,0,0,0,hexagon,triangle,1,0,1,0,1,8,20,6,,,,,,,,,,,,,,,,,,,,,,,,,,,,,,,,,,,,,,,,263.88154852204025,263.88154852204025,263.88154852204025,263.88154852204025,263.88154852204025,263.88154852204025,263.88154852204025,263.88154852204025,263.88154852204025,263.88154852204025,a,0.42773789598140866,1,375,1,264.33234227402136,,265.83363116905093,,,,,,,,,,,,,,,,,,,,,,,,,,,,,,,,,,,,,,,,,,,,,,,,,,,,,,,,,,,,,,,,,,,,,,33405,2022-11-28_13h58.11.201,vts_reward_expectancy_bt_OFFLINE,2022.2.4,59.93178409133674,
0,1,0,0,1,0,0,0,circle,triangle,1,0,1,0,1,9,21,3,,,,,,,,,,,,,,,,,,,,,,,,,,,,,,,,,,,,,,,,266.3342733060708,266.3342733060708,266.3342733060708,266.3342733060708,266.3342733060708,266.3342733060708,266.3342733060708,266.3342733060708,266.3342733060708,266.3342733060708,a,0.1018023700453341,10,385,1,266.46792627708055,,267.96942384401336,,,,,,,,,,,,,,,,,,,,,,,,,,,,,,,,,,,,,,,,,,,,,,,,,,,,,,,,,,,,,,,,,,,,,,33405,2022-11-28_13h58.11.201,vts_reward_expectancy_bt_OFFLINE,2022.2.4,59.93178409133674,
0,0,0,1,0,0,1,0,star,hexagon,1,0,1,0,1,10,22,11,,,,,,,,,,,,,,,,,,,,,,,,,,,,,,,,,,,,,,,,268.4699463790748,268.4699463790748,268.4699463790748,268.4699463790748,268.4699463790748,268.4699463790748,268.4699463790748,268.4699463790748,268.4699463790748,268.4699463790748,l,0.576636970974505,1,386,1,269.07055526203476,,270.57214874902274,,,,,,,,,,,,,,,,,,,,,,,,,,,,,,,,,,,,,,,,,,,,,,,,,,,,,,,,,,,,,,,,,,,,,,33405,2022-11-28_13h58.11.201,vts_reward_expectancy_bt_OFFLINE,2022.2.4,59.93178409133674,
1,0,0,0,0,0,0,1,triangle,star,1,0,1,0,1,11,23,2,,,,,,,,,,,,,,,,,,,,,,,,,,,,,,,,,,,,,,,,271.07274125900585,271.07274125900585,271.07274125900585,271.07274125900585,271.07274125900585,271.07274125900585,271.07274125900585,271.07274125900585,271.07274125900585,271.07274125900585,a,0.24675591196864843,10,396,1,271.33968276903033,,272.8414878490148,,,,,,,,,,,,,,,,,,,,,,,,,,,,,,,,,,,,,,,,,,,,,,,,,,,,,,,,,,,,,,,,,,,,,,33405,2022-11-28_13h58.11.201,vts_reward_expectancy_bt_OFFLINE,2022.2.4,59.93178409133674,
0,1,0,0,0,0,1,0,circle,hexagon,1,0,1,0,2,0,24,4,,,,,,,,,,,,,,,,,,,,,,,,,,,,,,,,,,,,,,,,273.3421100390842,273.3421100390842,273.3421100390842,273.3421100390842,273.3421100390842,273.3421100390842,273.3421100390842,273.3421100390842,273.3421100390842,273.3421100390842,a,0.4863123210379854,10,406,1,273.8593998410506,,275.36096455703955,,,,,,,,,,,,,,,,,,,,,,,,,,,,,,,,,,,,,,,,,,,,,,,,,,,,,,,,,,,,,,,,,,,,,,33405,2022-11-28_13h58.11.201,vts_reward_expectancy_bt_OFFLINE,2022.2.4,59.93178409133674,
0,0,1,0,0,1,0,0,hexagon,circle,1,0,1,0,2,1,25,7,,,,,,,,,,,,,,,,,,,,,,,,,,,,,,,,,,,,,,,,275.86145867500454,275.86145867500454,275.86145867500454,275.86145867500454,275.86145867500454,275.86145867500454,275.86145867500454,275.86145867500454,275.86145867500454,275.86145867500454,a,0.46521900803782046,10,416,1,276.34535512898583,,277.84692114708014,,,,,,,,,,,,,,,,,,,,,,,,,,,,,,,,,,,,,,,,,,,,,,,,,,,,,,,,,,,,,,,,,,,,,,33405,2022-11-28_13h58.11.201,vts_reward_expectancy_bt_OFFLINE,2022.2.4,59.93178409133674,
1,0,0,0,0,1,0,0,triangle,circle,1,0,1,0,2,2,26,0,,,,,,,,,,,,,,,,,,,,,,,,,,,,,,,,,,,,,,,,278.34745179407764,278.34745179407764,278.34745179407764,278.34745179407764,278.34745179407764,278.34745179407764,278.34745179407764,278.34745179407764,278.34745179407764,278.34745179407764,l,0.6347229800885543,10,426,1,279.01495226903353,,280.5165769390296,,,,,,,,,,,,,,,,,,,,,,,,,,,,,,,,,,,,,,,,,,,,,,,,,,,,,,,,,,,,,,,,,,,,,,33405,2022-11-28_13h58.11.201,vts_reward_expectancy_bt_OFFLINE,2022.2.4,59.93178409133674,
0,0,1,0,1,0,0,0,hexagon,triangle,1,0,1,0,2,3,27,6,,,,,,,,,,,,,,,,,,,,,,,,,,,,,,,,,,,,,,,,281.0172166849952,281.0172166849952,281.0172166849952,281.0172166849952,281.0172166849952,281.0172166849952,281.0172166849952,281.0172166849952,281.0172166849952,281.0172166849952,a,0.5073318680515513,1,427,1,281.55103713902645,,283.0526972800726,,,,,,,,,,,,,,,,,,,,,,,,,,,,,,,,,,,,,,,,,,,,,,,,,,,,,,,,,,,,,,,,,,,,,,33405,2022-11-28_13h58.11.201,vts_reward_expectancy_bt_OFFLINE,2022.2.4,59.93178409133674,
0,0,0,1,0,1,0,0,star ,circle,1,0,1,0,2,4,28,10,,,,,,,,,,,,,,,,,,,,,,,,,,,,,,,,,,,,,,,,283.55323212605435,283.55323212605435,283.55323212605435,283.55323212605435,283.55323212605435,283.55323212605435,283.55323212605435,283.55323212605435,283.55323212605435,283.55323212605435,l,0.4461759580299258,10,437,1,284.02034970605746,,285.5220574589912,,,,,,,,,,,,,,,,,,,,,,,,,,,,,,,,,,,,,,,,,,,,,,,,,,,,,,,,,,,,,,,,,,,,,,33405,2022-11-28_13h58.11.201,vts_reward_expectancy_bt_OFFLINE,2022.2.4,59.93178409133674,
0,0,0,1,0,0,1,0,star,hexagon,1,0,1,0,2,5,29,11,,,,,,,,,,,,,,,,,,,,,,,,,,,,,,,,,,,,,,,,286.0227633770555,286.0227633770555,286.0227633770555,286.0227633770555,286.0227633770555,286.0227633770555,286.0227633770555,286.0227633770555,286.0227633770555,286.0227633770555,a,0.04643101803958416,1,438,1,286.0893167810282,,287.591058826074,,,,,,,,,,,,,,,,,,,,,,,,,,,,,,,,,,,,,,,,,,,,,,,,,,,,,,,,,,,,,,,,,,,,,,33405,2022-11-28_13h58.11.201,vts_reward_expectancy_bt_OFFLINE,2022.2.4,59.93178409133674,
1,0,0,0,0,0,0,1,triangle,star,1,0,1,0,2,6,30,2,,,,,,,,,,,,,,,,,,,,,,,,,,,,,,,,,,,,,,,,288.09163816901855,288.09163816901855,288.09163816901855,288.09163816901855,288.09163816901855,288.09163816901855,288.09163816901855,288.09163816901855,288.09163816901855,288.09163816901855,l,0.4182849880307913,1,439,1,288.5419596020365,,290.04363898700103,,,,,,,,,,,,,,,,,,,,,,,,,,,,,,,,,,,,,,,,,,,,,,,,,,,,,,,,,,,,,,,,,,,,,,33405,2022-11-28_13h58.11.201,vts_reward_expectancy_bt_OFFLINE,2022.2.4,59.93178409133674,
0,1,0,0,1,0,0,0,circle,triangle,1,0,1,0,2,7,31,3,,,,,,,,,,,,,,,,,,,,,,,,,,,,,,,,,,,,,,,,290.5444563140627,290.5444563140627,290.5444563140627,290.5444563140627,290.5444563140627,290.5444563140627,290.5444563140627,290.5444563140627,290.5444563140627,290.5444563140627,a,0.4308979129418731,10,449,1,290.9948568540858,,292.4965776500758,,,,,,,,,,,,,,,,,,,,,,,,,,,,,,,,,,,,,,,,,,,,,,,,,,,,,,,,,,,,,,,,,,,,,,33405,2022-11-28_13h58.11.201,vts_reward_expectancy_bt_OFFLINE,2022.2.4,59.93178409133674,
0,0,1,0,0,0,0,1,hexagon,star,1,0,1,0,2,8,32,8,,,,,,,,,,,,,,,,,,,,,,,,,,,,,,,,,,,,,,,,292.99721782898996,292.99721782898996,292.99721782898996,292.99721782898996,292.99721782898996,292.99721782898996,292.99721782898996,292.99721782898996,292.99721782898996,292.99721782898996,a,0.3281196820316836,10,459,1,293.3472737240372,,294.849014439038,,,,,,,,,,,,,,,,,,,,,,,,,,,,,,,,,,,,,,,,,,,,,,,,,,,,,,,,,,,,,,,,,,,,,,33405,2022-11-28_13h58.11.201,vts_reward_expectancy_bt_OFFLINE,2022.2.4,59.93178409133674,
0,0,0,1,1,0,0,0,star,triangle,1,0,1,0,2,9,33,9,,,,,,,,,,,,,,,,,,,,,,,,,,,,,,,,,,,,,,,,295.3494318299927,295.3494318299927,295.3494318299927,295.3494318299927,295.3494318299927,295.3494318299927,295.3494318299927,295.3494318299927,295.3494318299927,295.3494318299927,l,0.4287574220215902,10,469,1,295.79995057103224,,297.30160874698777,,,,,,,,,,,,,,,,,,,,,,,,,,,,,,,,,,,,,,,,,,,,,,,,,,,,,,,,,,,,,,,,,,,,,,33405,2022-11-28_13h58.11.201,vts_reward_expectancy_bt_OFFLINE,2022.2.4,59.93178409133674,
1,0,0,0,0,0,1,0,triangle,hexagon,1,0,1,0,2,10,34,1,,,,,,,,,,,,,,,,,,,,,,,,,,,,,,,,,,,,,,,,297.80248938209843,297.80248938209843,297.80248938209843,297.80248938209843,297.80248938209843,297.80248938209843,297.80248938209843,297.80248938209843,297.80248938209843,297.80248938209843,l,0.41815723304171115,1,470,1,298.2528221050743,,299.7545562220039,,,,,,,,,,,,,,,,,,,,,,,,,,,,,,,,,,,,,,,,,,,,,,,,,,,,,,,,,,,,,,,,,,,,,,33405,2022-11-28_13h58.11.201,vts_reward_expectancy_bt_OFFLINE,2022.2.4,59.93178409133674,
0,1,0,0,0,0,0,1,circle,star,1,0,1,0,2,11,35,5,,,,,,,,,,,,,,,,,,,,,,,,,,,,,,,,,,,,,,,,300.25514850509353,300.25514850509353,300.25514850509353,300.25514850509353,300.25514850509353,300.25514850509353,300.25514850509353,300.25514850509353,300.25514850509353,300.25514850509353,a,0.3055274620419368,10,480,1,300.5887225060724,,302.09033044602256,,,,,,,,,,,,,,,,,,,,,,,,,,,,,,,,,,,,,,,,,,,,,,,,,,,,,,,,,,,,,,,,,,,,,,33405,2022-11-28_13h58.11.201,vts_reward_expectancy_bt_OFFLINE,2022.2.4,59.93178409133674,
1,0,0,0,0,0,0,1,triangle,star,1,0,1,0,3,0,36,2,,,,,,,,,,,,,,,,,,,,,,,,,,,,,,,,,,,,,,,,302.5909272120334,302.5909272120334,302.5909272120334,302.5909272120334,302.5909272120334,302.5909272120334,302.5909272120334,302.5909272120334,302.5909272120334,302.5909272120334,a,0.3203546029981226,1,481,1,302.94151629006956,304.4428351770621,304.4428351770621,,,,,,,,,,,,,,,,,,,,,,,,,,,,,,,,,,,,,,,,,,,,,,,,,,,,,,,,,,,,,,,,,,,,,,33405,2022-11-28_13h58.11.201,vts_reward_expectancy_bt_OFFLINE,2022.2.4,59.93178409133674,
0,0,0,1,1,0,0,0,star,triangle,1,0,1,0,3,1,37,9,,,,,,,,,,,,,,,,,,,,,,,,,,,,,,,,,,,,,,,,304.9436172640417,304.9436172640417,304.9436172640417,304.9436172640417,304.9436172640417,304.9436172640417,304.9436172640417,304.9436172640417,304.9436172640417,304.9436172640417,a,1.1413681119447574,1,482,1,306.11145890003536,,307.61309307604097,,,,,,,,,,,,,,,,,,,,,,,,,,,,,,,,,,,,,,,,,,,,,,,,,,,,,,,,,,,,,,,,,,,,,,33405,2022-11-28_13h58.11.201,vts_reward_expectancy_bt_OFFLINE,2022.2.4,59.93178409133674,
0,1,0,0,0,0,1,0,circle,hexagon,1,0,1,0,3,2,38,4,,,,,,,,,,,,,,,,,,,,,,,,,,,,,,,,,,,,,,,,308.11357599904295,308.11357599904295,308.11357599904295,308.11357599904295,308.11357599904295,308.11357599904295,308.11357599904295,308.11357599904295,308.11357599904295,308.11357599904295,a,0.7517285270150751,1,483,1,308.8979976110859,,310.3996487420518,,,,,,,,,,,,,,,,,,,,,,,,,,,,,,,,,,,,,,,,,,,,,,,,,,,,,,,,,,,,,,,,,,,,,,33405,2022-11-28_13h58.11.201,vts_reward_expectancy_bt_OFFLINE,2022.2.4,59.93178409133674,
0,1,0,0,1,0,0,0,circle,triangle,1,0,1,0,3,3,39,3,,,,,,,,,,,,,,,,,,,,,,,,,,,,,,,,,,,,,,,,310.9001357119996,310.9001357119996,310.9001357119996,310.9001357119996,310.9001357119996,310.9001357119996,310.9001357119996,310.9001357119996,310.9001357119996,310.9001357119996,l,0.7415156100178137,10,493,1,311.66767050907947,,313.1693584889872,,,,,,,,,,,,,,,,,,,,,,,,,,,,,,,,,,,,,,,,,,,,,,,,,,,,,,,,,,,,,,,,,,,,,,33405,2022-11-28_13h58.11.201,vts_reward_expectancy_bt_OFFLINE,2022.2.4,59.93178409133674,
0,0,0,1,0,1,0,0,star ,circle,1,0,1,0,3,4,40,10,,,,,,,,,,,,,,,,,,,,,,,,,,,,,,,,,,,,,,,,313.66989552101586,313.66989552101586,313.66989552101586,313.66989552101586,313.66989552101586,313.66989552101586,313.66989552101586,313.66989552101586,313.66989552101586,313.66989552101586,l,0.5503586679697037,10,503,1,314.237151214038,315.7387176390039,315.7387176390039,,,,,,,,,,,,,,,,,,,,,,,,,,,,,,,,,,,,,,,,,,,,,,,,,,,,,,,,,,,,,,,,,,,,,,33405,2022-11-28_13h58.11.201,vts_reward_expectancy_bt_OFFLINE,2022.2.4,59.93178409133674,
0,1,0,0,0,0,0,1,circle,star,1,0,1,0,3,5,41,5,,,,,,,,,,,,,,,,,,,,,,,,,,,,,,,,,,,,,,,,316.2392734560417,316.2392734560417,316.2392734560417,316.2392734560417,316.2392734560417,316.2392734560417,316.2392734560417,316.2392734560417,316.2392734560417,316.2392734560417,a,0.6582554270280525,10,513,1,316.9234718660591,,318.42495560098905,,,,,,,,,,,,,,,,,,,,,,,,,,,,,,,,,,,,,,,,,,,,,,,,,,,,,,,,,,,,,,,,,,,,,,33405,2022-11-28_13h58.11.201,vts_reward_expectancy_bt_OFFLINE,2022.2.4,59.93178409133674,
1,0,0,0,0,1,0,0,triangle,circle,1,0,1,0,3,6,42,0,,,,,,,,,,,,,,,,,,,,,,,,,,,,,,,,,,,,,,,,318.9255512240343,318.9255512240343,318.9255512240343,318.9255512240343,318.9255512240343,318.9255512240343,318.9255512240343,318.9255512240343,318.9255512240343,318.9255512240343,l,0.46857782592996955,1,514,1,319.4260811120039,,320.9278737989953,,,,,,,,,,,,,,,,,,,,,,,,,,,,,,,,,,,,,,,,,,,,,,,,,,,,,,,,,,,,,,,,,,,,,,33405,2022-11-28_13h58.11.201,vts_reward_expectancy_bt_OFFLINE,2022.2.4,59.93178409133674,
0,0,1,0,1,0,0,0,hexagon,triangle,1,0,1,0,3,7,43,6,,,,,,,,,,,,,,,,,,,,,,,,,,,,,,,,,,,,,,,,321.4282462520059,321.4282462520059,321.4282462520059,321.4282462520059,321.4282462520059,321.4282462520059,321.4282462520059,321.4282462520059,321.4282462520059,321.4282462520059,a,0.8790980960475281,1,515,1,322.3294856210705,,323.83096995705273,,,,,,,,,,,,,,,,,,,,,,,,,,,,,,,,,,,,,,,,,,,,,,,,,,,,,,,,,,,,,,,,,,,,,,33405,2022-11-28_13h58.11.201,vts_reward_expectancy_bt_OFFLINE,2022.2.4,59.93178409133674,
0,0,1,0,0,0,0,1,hexagon,star,1,0,1,0,3,8,44,8,,,,,,,,,,,,,,,,,,,,,,,,,,,,,,,,,,,,,,,,324.33154039201327,324.33154039201327,324.33154039201327,324.33154039201327,324.33154039201327,324.33154039201327,324.33154039201327,324.33154039201327,324.33154039201327,324.33154039201327,l,0.485105658066459,1,516,1,324.84875495603774,,326.350364890066,,,,,,,,,,,,,,,,,,,,,,,,,,,,,,,,,,,,,,,,,,,,,,,,,,,,,,,,,,,,,,,,,,,,,,33405,2022-11-28_13h58.11.201,vts_reward_expectancy_bt_OFFLINE,2022.2.4,59.93178409133674,
0,0,0,1,0,0,1,0,star,hexagon,1,0,1,0,3,9,45,11,,,,,,,,,,,,,,,,,,,,,,,,,,,,,,,,,,,,,,,,326.85117719403934,326.85117719403934,326.85117719403934,326.85117719403934,326.85117719403934,326.85117719403934,326.85117719403934,326.85117719403934,326.85117719403934,326.85117719403934,l,0.46322932303883135,10,526,1,327.33467526198365,,328.8366803000681,,,,,,,,,,,,,,,,,,,,,,,,,,,,,,,,,,,,,,,,,,,,,,,,,,,,,,,,,,,,,,,,,,,,,,33405,2022-11-28_13h58.11.201,vts_reward_expectancy_bt_OFFLINE,2022.2.4,59.93178409133674,
1,0,0,0,0,0,1,0,triangle,hexagon,1,0,1,0,3,10,46,1,,,,,,,,,,,,,,,,,,,,,,,,,,,,,,,,,,,,,,,,329.33709359006025,329.33709359006025,329.33709359006025,329.33709359006025,329.33709359006025,329.33709359006025,329.33709359006025,329.33709359006025,329.33709359006025,329.33709359006025,a,0.6890422730939463,10,536,1,330.0545241209911,,331.5563387190923,,,,,,,,,,,,,,,,,,,,,,,,,,,,,,,,,,,,,,,,,,,,,,,,,,,,,,,,,,,,,,,,,,,,,,33405,2022-11-28_13h58.11.201,vts_reward_expectancy_bt_OFFLINE,2022.2.4,59.93178409133674,
0,0,1,0,0,1,0,0,hexagon,circle,1,0,1,0,3,11,47,7,,,,,,,,,,,,,,,,,,,,,,,,,,,,,,,,,,,,,,,,332.056671795086,332.056671795086,332.056671795086,332.056671795086,332.056671795086,332.056671795086,332.056671795086,332.056671795086,332.056671795086,332.056671795086,l,0.5018305630655959,1,537,1,332.5907903200714,,334.0921878910158,,,,,,,,,,,,,,,,,,,,,,,,,,,,,,,,,,,,,,,,,,,,,,,,,,,,,,,,,,,,,,,,,,,,,,33405,2022-11-28_13h58.11.201,vts_reward_expectancy_bt_OFFLINE,2022.2.4,59.93178409133674,
0,0,0,1,1,0,0,0,star,triangle,2,0,2,0,0,0,0,9,,,,,,,,,,,,,,,,,,,,,,,,,,,,,,,,,,,,,,,,339.4481861060485,339.4481861060485,339.4481861060485,339.4481861060485,339.4481861060485,339.4481861060485,339.4481861060485,339.4481861060485,339.4481861060485,339.4481861060485,a,1.0083009820664302,1,538,2,340.48278003407177,,341.9843075090321,,,,,,,,,,,,,,,,,,,,,,,,,,,,,,,,,,,,,,,,,,,,,,,,,,,,,,,,,,,,,,,,,,,,,,33405,2022-11-28_13h58.11.201,vts_reward_expectancy_bt_OFFLINE,2022.2.4,59.93178409133674,
0,0,0,1,0,0,1,0,star,hexagon,2,0,2,0,0,1,1,11,,,,,,,,,,,,,,,,,,,,,,,,,,,,,,,,,,,,,,,,342.48481708206236,342.48481708206236,342.48481708206236,342.48481708206236,342.48481708206236,342.48481708206236,342.48481708206236,342.48481708206236,342.48481708206236,342.48481708206236,l,0.31046581105329096,1,539,2,342.8185853420291,,344.3202355960384,,,,,,,,,,,,,,,,,,,,,,,,,,,,,,,,,,,,,,,,,,,,,,,,,,,,,,,,,,,,,,,,,,,,,,33405,2022-11-28_13h58.11.201,vts_reward_expectancy_bt_OFFLINE,2022.2.4,59.93178409133674,
1,0,0,0,0,1,0,0,triangle,circle,2,0,2,0,0,2,2,0,,,,,,,,,,,,,,,,,,,,,,,,,,,,,,,,,,,,,,,,344.82098296901677,344.82098296901677,344.82098296901677,344.82098296901677,344.82098296901677,344.82098296901677,344.82098296901677,344.82098296901677,344.82098296901677,344.82098296901677,l,0.4051611099857837,10,549,2,345.25459415698424,,346.7562851990806,,,,,,,,,,,,,,,,,,,,,,,,,,,,,,,,,,,,,,,,,,,,,,,,,,,,,,,,,,,,,,,,,,,,,,33405,2022-11-28_13h58.11.201,vts_reward_expectancy_bt_OFFLINE,2022.2.4,59.93178409133674,
1,0,0,0,0,0,0,1,triangle,star,2,0,2,0,0,3,3,2,,,,,,,,,,,,,,,,,,,,,,,,,,,,,,,,,,,,,,,,347.2568383490434,347.2568383490434,347.2568383490434,347.2568383490434,347.2568383490434,347.2568383490434,347.2568383490434,347.2568383490434,347.2568383490434,347.2568383490434,a,0.5682458450319245,10,559,2,347.8574700590689,,349.35942825104576,,,,,,,,,,,,,,,,,,,,,,,,,,,,,,,,,,,,,,,,,,,,,,,,,,,,,,,,,,,,,,,,,,,,,,33405,2022-11-28_13h58.11.201,vts_reward_expectancy_bt_OFFLINE,2022.2.4,59.93178409133674,
0,1,0,0,1,0,0,0,circle,triangle,2,0,2,0,0,4,4,3,,,,,,,,,,,,,,,,,,,,,,,,,,,,,,,,,,,,,,,,349.85980551398825,349.85980551398825,349.85980551398825,349.85980551398825,349.85980551398825,349.85980551398825,349.85980551398825,349.85980551398825,349.85980551398825,349.85980551398825,a,0.5530432949308306,10,569,2,350.44371656898875,,351.9455484250793,,,,,,,,,,,,,,,,,,,,,,,,,,,,,,,,,,,,,,,,,,,,,,,,,,,,,,,,,,,,,,,,,,,,,,33405,2022-11-28_13h58.11.201,vts_reward_expectancy_bt_OFFLINE,2022.2.4,59.93178409133674,
1,0,0,0,0,0,1,0,triangle,hexagon,2,0,2,0,0,5,5,1,,,,,,,,,,,,,,,,,,,,,,,,,,,,,,,,,,,,,,,,352.44590849406086,352.44590849406086,352.44590849406086,352.44590849406086,352.44590849406086,352.44590849406086,352.44590849406086,352.44590849406086,352.44590849406086,352.44590849406086,l,0.5673150189686567,1,570,2,353.02999744401313,354.5316456099972,354.5316456099972,,,,,,,,,,,,,,,,,,,,,,,,,,,,,,,,,,,,,,,,,,,,,,,,,,,,,,,,,,,,,,,,,,,,,,33405,2022-11-28_13h58.11.201,vts_reward_expectancy_bt_OFFLINE,2022.2.4,59.93178409133674,
0,0,1,0,1,0,0,0,hexagon,triangle,2,0,2,0,0,6,6,6,,,,,,,,,,,,,,,,,,,,,,,,,,,,,,,,,,,,,,,,355.0320784749929,355.0320784749929,355.0320784749929,355.0320784749929,355.0320784749929,355.0320784749929,355.0320784749929,355.0320784749929,355.0320784749929,355.0320784749929,a,0.5341685720486566,1,571,2,355.5825589670567,357.0843376510311,357.0843376510311,357.5849282220006,,,,,,,,,,,,,,,,,,,,,,,,,,,,,,,,,,,,,,,,,,,,,,,,,,,,,,,,,,,,,,,,,,,,,33405,2022-11-28_13h58.11.201,vts_reward_expectancy_bt_OFFLINE,2022.2.4,59.93178409133674,
0,0,1,0,0,0,0,1,hexagon,star,2,0,2,0,0,7,7,8,,,,,,,,,,,,,,,,,,,,,,,,,,,,,,,,,,,,,,,,357.5849282220006,357.5849282220006,357.5849282220006,357.5849282220006,357.5849282220006,357.5849282220006,357.5849282220006,357.5849282220006,357.5849282220006,357.5849282220006,a,0.6807894870871678,1,572,2,358.2857369160047,,359.78728767705616,,,,,,,,,,,,,,,,,,,,,,,,,,,,,,,,,,,,,,,,,,,,,,,,,,,,,,,,,,,,,,,,,,,,,,33405,2022-11-28_13h58.11.201,vts_reward_expectancy_bt_OFFLINE,2022.2.4,59.93178409133674,
0,0,0,1,0,1,0,0,star ,circle,2,0,2,0,0,8,8,10,,,,,,,,,,,,,,,,,,,,,,,,,,,,,,,,,,,,,,,,360.2879615840502,360.2879615840502,360.2879615840502,360.2879615840502,360.2879615840502,360.2879615840502,360.2879615840502,360.2879615840502,360.2879615840502,360.2879615840502,l,0.8582876981236041,10,582,2,361.17213105002884,,362.673825917067,,,,,,,,,,,,,,,,,,,,,,,,,,,,,,,,,,,,,,,,,,,,,,,,,,,,,,,,,,,,,,,,,,,,,,33405,2022-11-28_13h58.11.201,vts_reward_expectancy_bt_OFFLINE,2022.2.4,59.93178409133674,
0,0,1,0,0,1,0,0,hexagon,circle,2,0,2,0,0,9,9,7,,,,,,,,,,,,,,,,,,,,,,,,,,,,,,,,,,,,,,,,363.17451059503946,363.17451059503946,363.17451059503946,363.17451059503946,363.17451059503946,363.17451059503946,363.17451059503946,363.17451059503946,363.17451059503946,363.17451059503946,l,0.378970441990532,10,592,2,363.57488295203075,,365.076667631045,,,,,,,,,,,,,,,,,,,,,,,,,,,,,,,,,,,,,,,,,,,,,,,,,,,,,,,,,,,,,,,,,,,,,,33405,2022-11-28_13h58.11.201,vts_reward_expectancy_bt_OFFLINE,2022.2.4,59.93178409133674,
0,1,0,0,0,0,1,0,circle,hexagon,2,0,2,0,0,10,10,4,,,,,,,,,,,,,,,,,,,,,,,,,,,,,,,,,,,,,,,,365.5770687290933,365.5770687290933,365.5770687290933,365.5770687290933,365.5770687290933,365.5770687290933,365.5770687290933,365.5770687290933,365.5770687290933,365.5770687290933,a,0.4850263620028272,1,593,2,366.0942935360363,,367.5959395150421,,,,,,,,,,,,,,,,,,,,,,,,,,,,,,,,,,,,,,,,,,,,,,,,,,,,,,,,,,,,,,,,,,,,,,33405,2022-11-28_13h58.11.201,vts_reward_expectancy_bt_OFFLINE,2022.2.4,59.93178409133674,
0,1,0,0,0,0,0,1,circle,star,2,0,2,0,0,11,11,5,,,,,,,,,,,,,,,,,,,,,,,,,,,,,,,,,,,,,,,,368.09641923208255,368.09641923208255,368.09641923208255,368.09641923208255,368.09641923208255,368.09641923208255,368.09641923208255,368.09641923208255,368.09641923208255,368.09641923208255,a,1.0831223679706454,10,603,2,369.19772982108407,,370.6993484350387,,,,,,,,,,,,,,,,,,,,,,,,,,,,,,,,,,,,,,,,,,,,,,,,,,,,,,,,,,,,,,,,,,,,,,33405,2022-11-28_13h58.11.201,vts_reward_expectancy_bt_OFFLINE,2022.2.4,59.93178409133674,
0,1,0,0,0,0,0,1,circle,star,2,0,2,0,1,0,12,5,,,,,,,,,,,,,,,,,,,,,,,,,,,,,,,,,,,,,,,,371.19975272903685,371.19975272903685,371.19975272903685,371.19975272903685,371.19975272903685,371.19975272903685,371.19975272903685,371.19975272903685,371.19975272903685,371.19975272903685,a,0.5110425610328093,1,604,2,371.73369186907075,,373.2357190800831,,,,,,,,,,,,,,,,,,,,,,,,,,,,,,,,,,,,,,,,,,,,,,,,,,,,,,,,,,,,,,,,,,,,,,33405,2022-11-28_13h58.11.201,vts_reward_expectancy_bt_OFFLINE,2022.2.4,59.93178409133674,
0,0,0,1,1,0,0,0,star,triangle,2,0,2,0,1,1,13,9,,,,,,,,,,,,,,,,,,,,,,,,,,,,,,,,,,,,,,,,373.7360574270133,373.7360574270133,373.7360574270133,373.7360574270133,373.7360574270133,373.7360574270133,373.7360574270133,373.7360574270133,373.7360574270133,373.7360574270133,a,1.2476912339916453,10,614,2,375.00411971099675,,376.50594603898935,,,,,,,,,,,,,,,,,,,,,,,,,,,,,,,,,,,,,,,,,,,,,,,,,,,,,,,,,,,,,,,,,,,,,,33405,2022-11-28_13h58.11.201,vts_reward_expectancy_bt_OFFLINE,2022.2.4,59.93178409133674,
0,0,0,1,0,1,0,0,star ,circle,2,0,2,0,1,2,14,10,,,,,,,,,,,,,,,,,,,,,,,,,,,,,,,,,,,,,,,,377.0063615370309,377.0063615370309,377.0063615370309,377.0063615370309,377.0063615370309,377.0063615370309,377.0063615370309,377.0063615370309,377.0063615370309,377.0063615370309,a,0.47486822807695717,10,624,2,377.50709461106453,,379.008742529084,,,,,,,,,,,,,,,,,,,,,,,,,,,,,,,,,,,,,,,,,,,,,,,,,,,,,,,,,,,,,,,,,,,,,,33405,2022-11-28_13h58.11.201,vts_reward_expectancy_bt_OFFLINE,2022.2.4,59.93178409133674,
1,0,0,0,0,1,0,0,triangle,circle,2,0,2,0,1,3,15,0,,,,,,,,,,,,,,,,,,,,,,,,,,,,,,,,,,,,,,,,379.5090551590547,379.5090551590547,379.5090551590547,379.5090551590547,379.5090551590547,379.5090551590547,379.5090551590547,379.5090551590547,379.5090551590547,379.5090551590547,l,0.7747720660408959,10,634,2,380.31011646601837,,381.8115739140194,,,,,,,,,,,,,,,,,,,,,,,,,,,,,,,,,,,,,,,,,,,,,,,,,,,,,,,,,,,,,,,,,,,,,,33405,2022-11-28_13h58.11.201,vts_reward_expectancy_bt_OFFLINE,2022.2.4,59.93178409133674,
1,0,0,0,0,0,1,0,triangle,hexagon,2,0,2,0,1,4,16,1,,,,,,,,,,,,,,,,,,,,,,,,,,,,,,,,,,,,,,,,382.31213038705755,382.31213038705755,382.31213038705755,382.31213038705755,382.31213038705755,382.31213038705755,382.31213038705755,382.31213038705755,382.31213038705755,382.31213038705755,l,0.4016894060187042,1,635,2,382.7459682599874,,384.24761780002154,,,,,,,,,,,,,,,,,,,,,,,,,,,,,,,,,,,,,,,,,,,,,,,,,,,,,,,,,,,,,,,,,,,,,,33405,2022-11-28_13h58.11.201,vts_reward_expectancy_bt_OFFLINE,2022.2.4,59.93178409133674,
1,0,0,0,0,0,0,1,triangle,star,2,0,2,0,1,5,17,2,,,,,,,,,,,,,,,,,,,,,,,,,,,,,,,,,,,,,,,,384.7482935920125,384.7482935920125,384.7482935920125,384.7482935920125,384.7482935920125,384.7482935920125,384.7482935920125,384.7482935920125,384.7482935920125,384.7482935920125,a,0.3954664609627798,10,645,2,385.16539687709883,386.6669612150872,386.6669612150872,,,,,,,,,,,,,,,,,,,,,,,,,,,,,,,,,,,,,,,,,,,,,,,,,,,,,,,,,,,,,,,,,,,,,,33405,2022-11-28_13h58.11.201,vts_reward_expectancy_bt_OFFLINE,2022.2.4,59.93178409133674,
0,0,0,1,0,0,1,0,star,hexagon,2,0,2,0,1,6,18,11,,,,,,,,,,,,,,,,,,,,,,,,,,,,,,,,,,,,,,,,387.167550065089,387.167550065089,387.167550065089,387.167550065089,387.167550065089,387.167550065089,387.167550065089,387.167550065089,387.167550065089,387.167550065089,l,0.42812456807587296,1,646,2,387.6179551850073,,389.11963612004183,,,,,,,,,,,,,,,,,,,,,,,,,,,,,,,,,,,,,,,,,,,,,,,,,,,,,,,,,,,,,,,,,,,,,,33405,2022-11-28_13h58.11.201,vts_reward_expectancy_bt_OFFLINE,2022.2.4,59.93178409133674,
0,0,1,0,0,0,0,1,hexagon,star,2,0,2,0,1,7,19,8,,,,,,,,,,,,,,,,,,,,,,,,,,,,,,,,,,,,,,,,389.6201903190231,389.6201903190231,389.6201903190231,389.6201903190231,389.6201903190231,389.6201903190231,389.6201903190231,389.6201903190231,389.6201903190231,389.6201903190231,a,0.4851652019424364,1,647,2,390.1373874359997,,391.63909800408874,,,,,,,,,,,,,,,,,,,,,,,,,,,,,,,,,,,,,,,,,,,,,,,,,,,,,,,,,,,,,,,,,,,,,,33405,2022-11-28_13h58.11.201,vts_reward_expectancy_bt_OFFLINE,2022.2.4,59.93178409133674,
0,1,0,0,0,0,1,0,circle,hexagon,2,0,2,0,1,8,20,4,,,,,,,,,,,,,,,,,,,,,,,,,,,,,,,,,,,,,,,,392.13957763905637,392.13957763905637,392.13957763905637,392.13957763905637,392.13957763905637,392.13957763905637,392.13957763905637,392.13957763905637,392.13957763905637,392.13957763905637,a,0.6543267359957099,10,657,2,392.82365313603077,,394.32543706998695,,,,,,,,,,,,,,,,,,,,,,,,,,,,,,,,,,,,,,,,,,,,,,,,,,,,,,,,,,,,,,,,,,,,,,33405,2022-11-28_13h58.11.201,vts_reward_expectancy_bt_OFFLINE,2022.2.4,59.93178409133674,
0,0,1,0,1,0,0,0,hexagon,triangle,2,0,2,0,1,9,21,6,,,,,,,,,,,,,,,,,,,,,,,,,,,,,,,,,,,,,,,,394.8260135650635,394.8260135650635,394.8260135650635,394.8260135650635,394.8260135650635,394.8260135650635,394.8260135650635,394.8260135650635,394.8260135650635,394.8260135650635,l,1.0060211500385776,10,667,2,395.86046985699795,397.3620959940599,397.3620959940599,,,,,,,,,,,,,,,,,,,,,,,,,,,,,,,,,,,,,,,,,,,,,,,,,,,,,,,,,,,,,,,,,,,,,,33405,2022-11-28_13h58.11.201,vts_reward_expectancy_bt_OFFLINE,2022.2.4,59.93178409133674,
0,0,1,0,0,1,0,0,hexagon,circle,2,0,2,0,1,10,22,7,,,,,,,,,,,,,,,,,,,,,,,,,,,,,,,,,,,,,,,,397.8626685200725,397.8626685200725,397.8626685200725,397.8626685200725,397.8626685200725,397.8626685200725,397.8626685200725,397.8626685200725,397.8626685200725,397.8626685200725,l,0.9855178979923949,10,677,2,398.88051182904746,,400.38204103906173,,,,,,,,,,,,,,,,,,,,,,,,,,,,,,,,,,,,,,,,,,,,,,,,,,,,,,,,,,,,,,,,,,,,,,33405,2022-11-28_13h58.11.201,vts_reward_expectancy_bt_OFFLINE,2022.2.4,59.93178409133674,
0,1,0,0,1,0,0,0,circle,triangle,2,0,2,0,1,11,23,3,,,,,,,,,,,,,,,,,,,,,,,,,,,,,,,,,,,,,,,,400.8827960040653,400.8827960040653,400.8827960040653,400.8827960040653,400.8827960040653,400.8827960040653,400.8827960040653,400.8827960040653,400.8827960040653,400.8827960040653,a,1.2946795200696215,10,687,2,402.20095393201336,,403.7024419050431,,,,,,,,,,,,,,,,,,,,,,,,,,,,,,,,,,,,,,,,,,,,,,,,,,,,,,,,,,,,,,,,,,,,,,33405,2022-11-28_13h58.11.201,vts_reward_expectancy_bt_OFFLINE,2022.2.4,59.93178409133674,
0,1,0,0,0,0,0,1,circle,star,2,0,2,0,2,0,24,5,,,,,,,,,,,,,,,,,,,,,,,,,,,,,,,,,,,,,,,,404.203192864079,404.203192864079,404.203192864079,404.203192864079,404.203192864079,404.203192864079,404.203192864079,404.203192864079,404.203192864079,404.203192864079,a,0.8674653200432658,10,697,2,405.0872564170277,406.58916986500844,406.58916986500844,,,,,,,,,,,,,,,,,,,,,,,,,,,,,,,,,,,,,,,,,,,,,,,,,,,,,,,,,,,,,,,,,,,,,,33405,2022-11-28_13h58.11.201,vts_reward_expectancy_bt_OFFLINE,2022.2.4,59.93178409133674,
0,0,0,1,0,0,1,0,star,hexagon,2,0,2,0,2,1,25,11,,,,,,,,,,,,,,,,,,,,,,,,,,,,,,,,,,,,,,,,407.08974833902903,407.08974833902903,407.08974833902903,407.08974833902903,407.08974833902903,407.08974833902903,407.08974833902903,407.08974833902903,407.08974833902903,407.08974833902903,l,1.3771885830210522,1,698,2,408.49115751008503,,409.99271153099835,,,,,,,,,,,,,,,,,,,,,,,,,,,,,,,,,,,,,,,,,,,,,,,,,,,,,,,,,,,,,,,,,,,,,,33405,2022-11-28_13h58.11.201,vts_reward_expectancy_bt_OFFLINE,2022.2.4,59.93178409133674,
0,0,0,1,0,1,0,0,star ,circle,2,0,2,0,2,2,26,10,,,,,,,,,,,,,,,,,,,,,,,,,,,,,,,,,,,,,,,,410.4935372520704,410.4935372520704,410.4935372520704,410.4935372520704,410.4935372520704,410.4935372520704,410.4935372520704,410.4935372520704,410.4935372520704,410.4935372520704,l,1.6974405449582264,10,708,2,412.2119076200761,,413.7137361339992,,,,,,,,,,,,,,,,,,,,,,,,,,,,,,,,,,,,,,,,,,,,,,,,,,,,,,,,,,,,,,,,,,,,,,33405,2022-11-28_13h58.11.201,vts_reward_expectancy_bt_OFFLINE,2022.2.4,59.93178409133674,
1,0,0,0,0,0,1,0,triangle,hexagon,2,0,2,0,2,3,27,1,,,,,,,,,,,,,,,,,,,,,,,,,,,,,,,,,,,,,,,,414.2141792800976,414.2141792800976,414.2141792800976,414.2141792800976,414.2141792800976,414.2141792800976,414.2141792800976,414.2141792800976,414.2141792800976,414.2141792800976,a,1.193509747972712,10,718,2,415.43224323901813,,416.93372171907686,,,,,,,,,,,,,,,,,,,,,,,,,,,,,,,,,,,,,,,,,,,,,,,,,,,,,,,,,,,,,,,,,,,,,,33405,2022-11-28_13h58.11.201,vts_reward_expectancy_bt_OFFLINE,2022.2.4,59.93178409133674,
0,0,0,1,1,0,0,0,star,triangle,2,0,2,0,2,4,28,9,,,,,,,,,,,,,,,,,,,,,,,,,,,,,,,,,,,,,,,,417.43431839405093,417.43431839405093,417.43431839405093,417.43431839405093,417.43431839405093,417.43431839405093,417.43431839405093,417.43431839405093,417.43431839405093,417.43431839405093,l,0.8672396671026945,10,728,2,418.3184246690944,419.8203161470592,419.8203161470592,,,,,,,,,,,,,,,,,,,,,,,,,,,,,,,,,,,,,,,,,,,,,,,,,,,,,,,,,,,,,,,,,,,,,,33405,2022-11-28_13h58.11.201,vts_reward_expectancy_bt_OFFLINE,2022.2.4,59.93178409133674,
0,1,0,0,0,0,1,0,circle,hexagon,2,0,2,0,2,5,29,4,,,,,,,,,,,,,,,,,,,,,,,,,,,,,,,,,,,,,,,,420.32093131903093,420.32093131903093,420.32093131903093,420.32093131903093,420.32093131903093,420.32093131903093,420.32093131903093,420.32093131903093,420.32093131903093,420.32093131903093,a,1.1853583680931479,10,738,2,421.5388725770172,,423.04037486901507,,,,,,,,,,,,,,,,,,,,,,,,,,,,,,,,,,,,,,,,,,,,,,,,,,,,,,,,,,,,,,,,,,,,,,33405,2022-11-28_13h58.11.201,vts_reward_expectancy_bt_OFFLINE,2022.2.4,59.93178409133674,
1,0,0,0,0,1,0,0,triangle,circle,2,0,2,0,2,6,30,0,,,,,,,,,,,,,,,,,,,,,,,,,,,,,,,,,,,,,,,,423.54109022708144,423.54109022708144,423.54109022708144,423.54109022708144,423.54109022708144,423.54109022708144,423.54109022708144,423.54109022708144,423.54109022708144,423.54109022708144,l,0.7680537899723276,10,748,2,424.34182726603467,,425.8435298020486,,,,,,,,,,,,,,,,,,,,,,,,,,,,,,,,,,,,,,,,,,,,,,,,,,,,,,,,,,,,,,,,,,,,,,33405,2022-11-28_13h58.11.201,vts_reward_expectancy_bt_OFFLINE,2022.2.4,59.93178409133674,
0,0,1,0,0,0,0,1,hexagon,star,2,0,2,0,2,7,31,8,,,,,,,,,,,,,,,,,,,,,,,,,,,,,,,,,,,,,,,,426.343945325003,426.343945325003,426.343945325003,426.343945325003,426.343945325003,426.343945325003,426.343945325003,426.343945325003,426.343945325003,426.343945325003,a,0.9223903609672561,1,749,2,427.29501346405596,,428.79679863899946,,,,,,,,,,,,,,,,,,,,,,,,,,,,,,,,,,,,,,,,,,,,,,,,,,,,,,,,,,,,,,,,,,,,,,33405,2022-11-28_13h58.11.201,vts_reward_expectancy_bt_OFFLINE,2022.2.4,59.93178409133674,
0,1,0,0,1,0,0,0,circle,triangle,2,0,2,0,2,8,32,3,,,,,,,,,,,,,,,,,,,,,,,,,,,,,,,,,,,,,,,,429.2973527300637,429.2973527300637,429.2973527300637,429.2973527300637,429.2973527300637,429.2973527300637,429.2973527300637,429.2973527300637,429.2973527300637,429.2973527300637,a,1.1526189380092546,10,759,2,430.48212434898596,,431.98372547701,,,,,,,,,,,,,,,,,,,,,,,,,,,,,,,,,,,,,,,,,,,,,,,,,,,,,,,,,,,,,,,,,,,,,,33405,2022-11-28_13h58.11.201,vts_reward_expectancy_bt_OFFLINE,2022.2.4,59.93178409133674,
1,0,0,0,0,0,0,1,triangle,star,2,0,2,0,2,9,33,2,,,,,,,,,,,,,,,,,,,,,,,,,,,,,,,,,,,,,,,,432.48415444104467,432.48415444104467,432.48415444104467,432.48415444104467,432.48415444104467,432.48415444104467,432.48415444104467,432.48415444104467,432.48415444104467,432.48415444104467,a,1.252521910937503,10,769,2,433.76891856000293,,435.27065140905324,,,,,,,,,,,,,,,,,,,,,,,,,,,,,,,,,,,,,,,,,,,,,,,,,,,,,,,,,,,,,,,,,,,,,,33405,2022-11-28_13h58.11.201,vts_reward_expectancy_bt_OFFLINE,2022.2.4,59.93178409133674,
0,0,1,0,0,1,0,0,hexagon,circle,2,0,2,0,2,10,34,7,,,,,,,,,,,,,,,,,,,,,,,,,,,,,,,,,,,,,,,,435.7711845220765,435.7711845220765,435.7711845220765,435.7711845220765,435.7711845220765,435.7711845220765,435.7711845220765,435.7711845220765,435.7711845220765,435.7711845220765,l,1.0924309820402414,10,779,2,436.88927212008275,,438.3908671269892,,,,,,,,,,,,,,,,,,,,,,,,,,,,,,,,,,,,,,,,,,,,,,,,,,,,,,,,,,,,,,,,,,,,,,33405,2022-11-28_13h58.11.201,vts_reward_expectancy_bt_OFFLINE,2022.2.4,59.93178409133674,
0,0,1,0,1,0,0,0,hexagon,triangle,2,0,2,0,2,11,35,6,,,,,,,,,,,,,,,,,,,,,,,,,,,,,,,,,,,,,,,,438.8913526170654,438.8913526170654,438.8913526170654,438.8913526170654,438.8913526170654,438.8913526170654,438.8913526170654,438.8913526170654,438.8913526170654,438.8913526170654,l,0.8520477290730923,1,780,2,439.77559452399146,,441.2774068400031,,,,,,,,,,,,,,,,,,,,,,,,,,,,,,,,,,,,,,,,,,,,,,,,,,,,,,,,,,,,,,,,,,,,,,33405,2022-11-28_13h58.11.201,vts_reward_expectancy_bt_OFFLINE,2022.2.4,59.93178409133674,
0,0,0,1,0,0,1,0,star,hexagon,2,0,2,0,3,0,36,11,,,,,,,,,,,,,,,,,,,,,,,,,,,,,,,,,,,,,,,,441.77802384109236,441.77802384109236,441.77802384109236,441.77802384109236,441.77802384109236,441.77802384109236,441.77802384109236,441.77802384109236,441.77802384109236,441.77802384109236,l,0.824287872062996,1,781,2,442.6289314320311,,444.1303219110705,,,,,,,,,,,,,,,,,,,,,,,,,,,,,,,,,,,,,,,,,,,,,,,,,,,,,,,,,,,,,,,,,,,,,,33405,2022-11-28_13h58.11.201,vts_reward_expectancy_bt_OFFLINE,2022.2.4,59.93178409133674,
0,0,0,1,0,1,0,0,star ,circle,2,0,2,0,3,1,37,10,,,,,,,,,,,,,,,,,,,,,,,,,,,,,,,,,,,,,,,,444.6308847210603,444.6308847210603,444.6308847210603,444.6308847210603,444.6308847210603,444.6308847210603,444.6308847210603,444.6308847210603,444.6308847210603,444.6308847210603,l,0.941465800977312,10,791,2,445.59881645906717,,447.100327400025,,,,,,,,,,,,,,,,,,,,,,,,,,,,,,,,,,,,,,,,,,,,,,,,,,,,,,,,,,,,,,,,,,,,,,33405,2022-11-28_13h58.11.201,vts_reward_expectancy_bt_OFFLINE,2022.2.4,59.93178409133674,
1,0,0,0,0,1,0,0,triangle,circle,2,0,2,0,3,2,38,0,,,,,,,,,,,,,,,,,,,,,,,,,,,,,,,,,,,,,,,,447.6008714060299,447.6008714060299,447.6008714060299,447.6008714060299,447.6008714060299,447.6008714060299,447.6008714060299,447.6008714060299,447.6008714060299,447.6008714060299,l,0.5363093189662322,10,801,2,448.168182447087,,449.670020441059,,,,,,,,,,,,,,,,,,,,,,,,,,,,,,,,,,,,,,,,,,,,,,,,,,,,,,,,,,,,,,,,,,,,,,33405,2022-11-28_13h58.11.201,vts_reward_expectancy_bt_OFFLINE,2022.2.4,59.93178409133674,
0,1,0,0,0,0,0,1,circle,star,2,0,2,0,3,3,39,5,,,,,,,,,,,,,,,,,,,,,,,,,,,,,,,,,,,,,,,,450.1703518499853,450.1703518499853,450.1703518499853,450.1703518499853,450.1703518499853,450.1703518499853,450.1703518499853,450.1703518499853,450.1703518499853,450.1703518499853,a,0.9489654819481075,1,802,2,451.13798263901845,,452.6398621770786,,,,,,,,,,,,,,,,,,,,,,,,,,,,,,,,,,,,,,,,,,,,,,,,,,,,,,,,,,,,,,,,,,,,,,33405,2022-11-28_13h58.11.201,vts_reward_expectancy_bt_OFFLINE,2022.2.4,59.93178409133674,
0,1,0,0,1,0,0,0,circle,triangle,2,0,2,0,3,4,40,3,,,,,,,,,,,,,,,,,,,,,,,,,,,,,,,,,,,,,,,,453.1404043569928,453.1404043569928,453.1404043569928,453.1404043569928,453.1404043569928,453.1404043569928,453.1404043569928,453.1404043569928,453.1404043569928,453.1404043569928,l,1.1617389380699024,10,812,2,454.3252071070019,,455.8267506500706,,,,,,,,,,,,,,,,,,,,,,,,,,,,,,,,,,,,,,,,,,,,,,,,,,,,,,,,,,,,,,,,,,,,,,33405,2022-11-28_13h58.11.201,vts_reward_expectancy_bt_OFFLINE,2022.2.4,59.93178409133674,
0,0,1,0,1,0,0,0,hexagon,triangle,2,0,2,0,3,5,41,6,,,,,,,,,,,,,,,,,,,,,,,,,,,,,,,,,,,,,,,,456.3271738240728,456.3271738240728,456.3271738240728,456.3271738240728,456.3271738240728,456.3271738240728,456.3271738240728,456.3271738240728,456.3271738240728,456.3271738240728,l,1.14763113996014,10,822,2,457.4952612260822,458.9968685560161,458.9968685560161,,,,,,,,,,,,,,,,,,,,,,,,,,,,,,,,,,,,,,,,,,,,,,,,,,,,,,,,,,,,,,,,,,,,,,33405,2022-11-28_13h58.11.201,vts_reward_expectancy_bt_OFFLINE,2022.2.4,59.93178409133674,
0,1,0,0,0,0,1,0,circle,hexagon,2,0,2,0,3,6,42,4,,,,,,,,,,,,,,,,,,,,,,,,,,,,,,,,,,,,,,,,459.49732055398636,459.49732055398636,459.49732055398636,459.49732055398636,459.49732055398636,459.49732055398636,459.49732055398636,459.49732055398636,459.49732055398636,459.49732055398636,a,1.3989922089967877,10,832,2,460.9154907420743,,462.4171643910231,,,,,,,,,,,,,,,,,,,,,,,,,,,,,,,,,,,,,,,,,,,,,,,,,,,,,,,,,,,,,,,,,,,,,,33405,2022-11-28_13h58.11.201,vts_reward_expectancy_bt_OFFLINE,2022.2.4,59.93178409133674,
0,0,1,0,0,0,0,1,hexagon,star,2,0,2,0,3,7,43,8,,,,,,,,,,,,,,,,,,,,,,,,,,,,,,,,,,,,,,,,462.9177012160653,462.9177012160653,462.9177012160653,462.9177012160653,462.9177012160653,462.9177012160653,462.9177012160653,462.9177012160653,462.9177012160653,462.9177012160653,a,1.0841218669665977,1,833,2,464.0194565790007,465.52071107609663,465.52071107609663,,,,,,,,,,,,,,,,,,,,,,,,,,,,,,,,,,,,,,,,,,,,,,,,,,,,,,,,,,,,,,,,,,,,,,33405,2022-11-28_13h58.11.201,vts_reward_expectancy_bt_OFFLINE,2022.2.4,59.93178409133674,
1,0,0,0,0,0,0,1,triangle,star,2,0,2,0,3,8,44,2,,,,,,,,,,,,,,,,,,,,,,,,,,,,,,,,,,,,,,,,466.0211867040489,466.0211867040489,466.0211867040489,466.0211867040489,466.0211867040489,466.0211867040489,466.0211867040489,466.0211867040489,466.0211867040489,466.0211867040489,l,0.7137091580079868,1,834,2,466.7554189640796,,468.257144807023,,,,,,,,,,,,,,,,,,,,,,,,,,,,,,,,,,,,,,,,,,,,,,,,,,,,,,,,,,,,,,,,,,,,,,33405,2022-11-28_13h58.11.201,vts_reward_expectancy_bt_OFFLINE,2022.2.4,59.93178409133674,
1,0,0,0,0,0,1,0,triangle,hexagon,2,0,2,0,3,9,45,1,,,,,,,,,,,,,,,,,,,,,,,,,,,,,,,,,,,,,,,,468.7575067820726,468.7575067820726,468.7575067820726,468.7575067820726,468.7575067820726,468.7575067820726,468.7575067820726,468.7575067820726,468.7575067820726,468.7575067820726,a,1.093571164063178,10,844,2,469.8758947440656,,471.37716589902993,,,,,,,,,,,,,,,,,,,,,,,,,,,,,,,,,,,,,,,,,,,,,,,,,,,,,,,,,,,,,,,,,,,,,,33405,2022-11-28_13h58.11.201,vts_reward_expectancy_bt_OFFLINE,2022.2.4,59.93178409133674,
0,0,0,1,1,0,0,0,star,triangle,2,0,2,0,3,10,46,9,,,,,,,,,,,,,,,,,,,,,,,,,,,,,,,,,,,,,,,,471.8775759959826,471.8775759959826,471.8775759959826,471.8775759959826,471.8775759959826,471.8775759959826,471.8775759959826,471.8775759959826,471.8775759959826,471.8775759959826,l,0.662501423037611,10,854,2,472.56172947899904,,474.0633928440511,,,,,,,,,,,,,,,,,,,,,,,,,,,,,,,,,,,,,,,,,,,,,,,,,,,,,,,,,,,,,,,,,,,,,,33405,2022-11-28_13h58.11.201,vts_reward_expectancy_bt_OFFLINE,2022.2.4,59.93178409133674,
0,0,1,0,0,1,0,0,hexagon,circle,2,0,2,0,3,11,47,7,,,,,,,,,,,,,,,,,,,,,,,,,,,,,,,,,,,,,,,,474.5640299420338,474.5640299420338,474.5640299420338,474.5640299420338,474.5640299420338,474.5640299420338,474.5640299420338,474.5640299420338,474.5640299420338,474.5640299420338,l,0.6083045040722936,10,864,2,475.19791596604045,,476.6996630540816,,,,,,,,,,,,,,,,,,,,,,,,,,,,,,,,,,,,,,,,,,,,,,,,,,,,,,,,,,,,,,,,,,,,,,33405,2022-11-28_13h58.11.201,vts_reward_expectancy_bt_OFFLINE,2022.2.4,59.93178409133674,
,,,,,,,,,,,,,,,,,,0,0,0,0,0,0,0,0,,,,,,,,,,,,,,,,,,,,,,,,,,,,,,,,,,,,,,,,,,,,,,,,,511.8052531690337,,174,F,circle,0.0018366079311817884,506.19947138708085,507.70042973500676,507.70042973500676,507.70042973500676,1,0,f,2.5763817799743265,0,510.3202089900151,,,,,,,,,,,,,,,,,,,,,,,,,,,,,,,,,,,,,,,,,,,,,,,,,,,,,,,33405,2022-11-28_13h58.11.201,vts_reward_expectancy_bt_OFFLINE,2022.2.4,59.93178409133674,
,,,,,,,,,,,,,,,,,,0,0,0,0,1,0,1,0,,,,,,,,,,,,,,,,,,,,,,,,,,,,,,,,,,,,,,,,,,,,,,,,,516.9275929010473,,167,D,star,0.001018012990243733,512.7893794149859,514.2912409050623,514.2912409050623,514.2912409050623,1,0,f,1.1151536479592323,0,515.4256512570428,,,,,,,,,,,,,,,,,,,,,,,,,,,,,,,,,,,,,,,,,,,,,,,,,,,,,,,33405,2022-11-28_13h58.11.201,vts_reward_expectancy_bt_OFFLINE,2022.2.4,59.93178409133674,
,,,,,,,,,,,,,,,,,,0,0,0,0,2,0,2,0,,,,,,,,,,,,,,,,,,,,,,,,,,,,,,,,,,,,,,,,,,,,,,,,,522.033025871031,,125,Y,hexagon,0.0010970070725306869,517.9118270260515,519.4134422090137,519.4134422090137,519.4134422090137,1,0,d,1.1014692860189825,0,520.5314114860957,522.033025871031,,,,,,,,,,,,,,,,,,,,,,,,,,,,,,,,,,,,,,,,,,,,,,,,,,,,,,33405,2022-11-28_13h58.11.201,vts_reward_expectancy_bt_OFFLINE,2022.2.4,59.93178409133674,
,,,,,,,,,,,,,,,,,,0,0,0,0,3,0,3,0,,,,,,,,,,,,,,,,,,,,,,,,,,,,,,,,,,,,,,,,,,,,,,,,,526.8717047760729,,160,S,triangle,0.0006914559053257108,523.0173962960253,524.5192256850423,524.5192256850423,524.5192256850423,1,0,f,0.8207539860159159,0,525.37010637403,,,,,,,,,,,,,,,,,,,,,,,,,,,,,,,,,,,,,,,,,,,,,,,,,,,,,,,33405,2022-11-28_13h58.11.201,vts_reward_expectancy_bt_OFFLINE,2022.2.4,59.93178409133674,
,,,,,,,,,,,,,,,,,,0,0,0,0,4,0,4,0,,,,,,,,,,,,,,,,,,,,,,,,,,,,,,,,,,,,,,,,,,,,,,,,,531.4766901320545,,181,B,hexagon,0.0014567329781129956,527.856366111082,529.3576422610786,529.3576422610786,529.3576422610786,1,0,f,0.5850187269970775,0,529.9752731720218,,,,,,,,,,,,,,,,,,,,,,,,,,,,,,,,,,,,,,,,,,,,,,,,,,,,,,,33405,2022-11-28_13h58.11.201,vts_reward_expectancy_bt_OFFLINE,2022.2.4,59.93178409133674,
,,,,,,,,,,,,,,,,,,0,0,0,0,5,0,5,0,,,,,,,,,,,,,,,,,,,,,,,,,,,,,,,,,,,,,,,,,,,,,,,,,536.832773844013,,146,H,triangle,0.001157288090325892,532.4611846600892,533.9628021500539,533.9628021500539,533.9628021500539,1,0,d,1.3455010660691187,0,535.3310791800031,,,,,,,,,,,,,,,,,,,,,,,,,,,,,,,,,,,,,,,,,,,,,,,,,,,,,,,33405,2022-11-28_13h58.11.201,vts_reward_expectancy_bt_OFFLINE,2022.2.4,59.93178409133674,
,,,,,,,,,,,,,,,,,,0,0,0,0,6,0,6,0,,,,,,,,,,,,,,,,,,,,,,,,,,,,,,,,,,,,,,,,,,,,,,,,,541.5380840559956,,132,W,star,0.001388058066368103,537.8169780040625,539.318624814041,539.318624814041,539.318624814041,1,0,d,0.6926079969853163,0,540.0363601670833,,,,,,,,,,,,,,,,,,,,,,,,,,,,,,,,,,,,,,,,,,,,,,,,,,,,,,,33405,2022-11-28_13h58.11.201,vts_reward_expectancy_bt_OFFLINE,2022.2.4,59.93178409133674,
,,,,,,,,,,,,,,,,,,0,0,0,0,7,0,7,0,,,,,,,,,,,,,,,,,,,,,,,,,,,,,,,,,,,,,,,,,,,,,,,,,546.6101570919855,,139,U,circle,0.001335963956080377,542.5224726300221,544.0241252940614,544.0241252940614,544.0241252940614,1,0,d,1.0604712039930746,0,545.1086691820528,,,,,,,,,,,,,,,,,,,,,,,,,,,,,,,,,,,,,,,,,,,,,,,,,,,,,,,33405,2022-11-28_13h58.11.201,vts_reward_expectancy_bt_OFFLINE,2022.2.4,59.93178409133674,
,,,,,,,,,,,,,,,,,,0,0,0,0,8,0,8,0,,,,,,,,,,,,,,,,,,,,,,,,,,,,,,,,,,,,,,,,,,,,,,,,,551.348666121019,,174,F,circle,0.0013655029470100999,547.5946341040544,549.0960758290021,549.0960758290021,549.0960758290021,1,0,f,0.7257141530280933,0,549.8469360370655,,,,,,,,,,,,,,,,,,,,,,,,,,,,,,,,,,,,,,,,,,,,,,,,,,,,,,,33405,2022-11-28_13h58.11.201,vts_reward_expectancy_bt_OFFLINE,2022.2.4,59.93178409133674,
,,,,,,,,,,,,,,,,,,0,0,0,0,9,0,9,0,,,,,,,,,,,,,,,,,,,,,,,,,,,,,,,,,,,,,,,,,,,,,,,,,556.7380860740086,,167,D,hexagon,0.0010234799701720476,552.3331007560482,553.8347526789876,553.8347526789876,553.8347526789876,1,0,f,1.376346220029518,0,555.2360744210891,556.7380860740086,,,,,,,,,,,,,,,,,,,,,,,,,,,,,,,,,,,,,,,,,,,,,,,,,,,,,,33405,2022-11-28_13h58.11.201,vts_reward_expectancy_bt_OFFLINE,2022.2.4,59.93178409133674,
,,,,,,,,,,,,,,,,,,,,,,,,,,0,0,0,0,0,0,0,0,,,,,,,,,,,,,,,,,,,,,,,,,,,,,,,,,,,,,,,,,576.5597403350985,,167,U,star,0.002439158968627453,,,,,1,0,,,1,575.0581262540072,,572.6555007710122,574.157077876036,574.157077876036,574.157077876036,k,0.8780005499720573,,,,,,,,,,,,,,,,,,,,,,,,,,,,,,,,,,,,,,,,,,,,,,,,33405,2022-11-28_13h58.11.201,vts_reward_expectancy_bt_OFFLINE,2022.2.4,59.93178409133674,
,,,,,,,,,,,,,,,,,,,,,,,,,,0,0,0,0,1,0,1,0,,,,,,,,,,,,,,,,,,,,,,,,,,,,,,,,,,,,,,,,,581.0480842409888,,146,Y,hexagon,0.0011838680366054177,,,,,1,0,,,1,579.5464713360416,,577.5442465899978,579.046023130999,579.046023130999,579.046023130999,k,0.4785484950989485,,,,,,,,,,,,,,,,,,,,,,,,,,,,,,,,,,,,,,,,,,,,,,,,33405,2022-11-28_13h58.11.201,vts_reward_expectancy_bt_OFFLINE,2022.2.4,59.93178409133674,
,,,,,,,,,,,,,,,,,,,,,,,,,,0,0,0,0,2,0,2,0,,,,,,,,,,,,,,,,,,,,,,,,,,,,,,,,,,,,,,,,,585.8870007040678,,132,S,triangle,0.0012547969818115234,,,,,1,0,,,1,584.385092406068,,582.0326939449878,583.534225924057,583.534225924057,583.534225924057,k,0.8281932551180944,,,,,,,,,,,,,,,,,,,,,,,,,,,,,,,,,,,,,,,,,,,,,,,,33405,2022-11-28_13h58.11.201,vts_reward_expectancy_bt_OFFLINE,2022.2.4,59.93178409133674,
,,,,,,,,,,,,,,,,,,,,,,,,,,0,0,0,0,3,0,3,0,,,,,,,,,,,,,,,,,,,,,,,,,,,,,,,,,,,,,,,,,590.5586434690049,,174,H,circle,0.0013902500504627824,,,,,1,0,,,1,589.0568604540313,,586.8713729099836,588.3728143440094,588.3728143440094,588.3728143440094,j,0.6575447500217706,,,,,,,,,,,,,,,,,,,,,,,,,,,,,,,,,,,,,,,,,,,,,,,,33405,2022-11-28_13h58.11.201,vts_reward_expectancy_bt_OFFLINE,2022.2.4,59.93178409133674,
,,,,,,,,,,,,,,,,,,,,,,,,,,0,0,0,0,4,0,4,0,,,,,,,,,,,,,,,,,,,,,,,,,,,,,,,,,,,,,,,,,595.1636331300251,,125,W,star,0.001248684013262391,,,,,1,0,,,1,593.6619176419917,,591.5429438800784,593.0446027000435,593.0446027000435,593.0446027000435,k,0.5879802530398592,,,,,,,,,,,,,,,,,,,,,,,,,,,,,,,,,,,,,,,,,,,,,,,,33405,2022-11-28_13h58.11.201,vts_reward_expectancy_bt_OFFLINE,2022.2.4,59.93178409133674,
,,,,,,,,,,,,,,,,,,,,,,,,,,0,0,0,0,5,0,5,0,,,,,,,,,,,,,,,,,,,,,,,,,,,,,,,,,,,,,,,,,599.8356630019844,,139,F,hexagon,0.0013198059750720859,,,,,1,0,,,1,598.3339048090857,,596.1479211039841,597.64973500208,597.64973500208,597.64973500208,j,0.6625331989489496,,,,,,,,,,,,,,,,,,,,,,,,,,,,,,,,,,,,,,,,,,,,,,,,33405,2022-11-28_13h58.11.201,vts_reward_expectancy_bt_OFFLINE,2022.2.4,59.93178409133674,
,,,,,,,,,,,,,,,,,,,,,,,,,,0,0,0,0,6,0,6,0,,,,,,,,,,,,,,,,,,,,,,,,,,,,,,,,,,,,,,,,,604.5407725020777,,181,B,triangle,0.001400328939780593,,,,,1,0,,,1,603.0391219360754,,600.8200916710775,602.3217559370678,602.3217559370678,602.3217559370678,j,0.6936607949901372,,,,,,,,,,,,,,,,,,,,,,,,,,,,,,,,,,,,,,,,,,,,,,,,33405,2022-11-28_13h58.11.201,vts_reward_expectancy_bt_OFFLINE,2022.2.4,59.93178409133674,
,,,,,,,,,,,,,,,,,,,,,,,,,,0,0,0,0,7,0,7,0,,,,,,,,,,,,,,,,,,,,,,,,,,,,,,,,,,,,,,,,,609.0623160150135,,160,D,circle,0.0012269829167053103,,,,,1,0,,,1,607.5607709370088,609.0623160150135,605.5252675550291,607.0268695150735,607.0268695150735,607.0268695150735,j,0.5015806750161573,,,,,,,,,,,,,,,,,,,,,,,,,,,,,,,,,,,,,,,,,,,,,,,,33405,2022-11-28_13h58.11.201,vts_reward_expectancy_bt_OFFLINE,2022.2.4,59.93178409133674,
,,,,,,,,,,,,,,,,,,,,,,,,,,0,0,0,0,8,0,8,0,,,,,,,,,,,,,,,,,,,,,,,,,,,,,,,,,,,,,,,,,613.6839852090925,,167,U,circle,0.0010405200300738215,,,,,1,0,,,1,612.1824646840105,,610.0468977990095,611.5483739800984,611.5483739800984,611.5483739800984,k,0.6032459499547258,,,,,,,,,,,,,,,,,,,,,,,,,,,,,,,,,,,,,,,,,,,,,,,,33405,2022-11-28_13h58.11.201,vts_reward_expectancy_bt_OFFLINE,2022.2.4,59.93178409133674,
,,,,,,,,,,,,,,,,,,,,,,,,,,0,0,0,0,9,0,9,0,,,,,,,,,,,,,,,,,,,,,,,,,,,,,,,,,,,,,,,,,618.1724134000251,,146,Y,hexagon,0.0014337210450321436,,,,,1,0,,,1,616.6708495990606,,614.6687725560041,616.1702131220372,616.1702131220372,616.1702131220372,k,0.46959608304314315,,,,,,,,,,,,,,,,,,,,,,,,,,,,,,,,,,,,,,,,,,,,,,,,33405,2022-11-28_13h58.11.201,vts_reward_expectancy_bt_OFFLINE,2022.2.4,59.93178409133674,
,,,,,,,,,,,,,,,,,,,,,,,,,,,,,,,,,,0,0,0,0,0,0,0,0,,,,,,,,,,,,,,,,,,,,,,,,,,,,0,864,,,,651.4257718090666,,146,H,star,0.0020306200021877885,,,,,1,0,,,2,,,,,,,,,645.6861502160318,645.6861502160318,645.6861502160318,645.6861502160318,647.1711432840675,647.1711432840675,647.1711432840675,647.1711432840675,647.1877572439844,647.1877572439844,647.1877572439844,647.1877572439844,-1,number,NA,d,2.7158841530326754,vtsPrac,649.9240890920628,,,,,,,,,,,,,,,,,,,,,,,,,,,,,33405,2022-11-28_13h58.11.201,vts_reward_expectancy_bt_OFFLINE,2022.2.4,59.93178409133674,
,,,,,,,,,,,,,,,,,,,,,,,,,,,,,,,,,,0,0,0,0,1,0,1,0,,,,,,,,,,,,,,,,,,,,,,,,,,,,0,864,,,,656.8985282500507,,160,Y,triangle,0.001114455983042717,,,,,1,0,,,2,,,,,,,,,652.3936623090412,652.3936623090412,652.3936623090412,652.3936623090412,653.8951172390953,653.8951172390953,653.8951172390953,653.8951172390953,653.8951172390953,653.8951172390953,653.8951172390953,653.8951172390953,switch,letter,lettSwt,k,1.4828258290654048,vtsPrac,655.3968200490344,,,,,,,,,,,,,,,,,,,,,,,,,,,,,33405,2022-11-28_13h58.11.201,vts_reward_expectancy_bt_OFFLINE,2022.2.4,59.93178409133674,
,,,,,,,,,,,,,,,,,,,,,,,,,,,,,,,,,,0,0,0,0,2,0,2,0,,,,,,,,,,,,,,,,,,,,,,,,,,,,0,864,,,,663.7062716770452,,181,B,circle,0.001117123058065772,,,,,1,0,,,2,,,,,,,,,657.8828623640584,657.8828623640584,657.8828623640584,657.8828623640584,659.3845813310472,659.3845813310472,659.3845813310472,659.3845813310472,659.3845813310472,659.3845813310472,659.3845813310472,659.3845813310472,repeat,letter,lettRpt,j,2.798776317969896,vtsPrac,662.2042163920123,,,,,,,,,,,,,,,,,,,,,,,,,,,,,33405,2022-11-28_13h58.11.201,vts_reward_expectancy_bt_OFFLINE,2022.2.4,59.93178409133674,
,,,,,,,,,,,,,,,,,,,,,,,,,,,,,,,,,,0,0,0,0,3,0,3,0,,,,,,,,,,,,,,,,,,,,,,,,,,,,0,864,,,,668.8450624510879,,167,W,hexagon,0.0013458109460771084,,,,,1,0,,,2,,,,,,,,,664.690251911059,664.690251911059,664.690251911059,664.690251911059,666.1921090000542,666.1921090000542,666.1921090000542,666.1921090000542,666.1921090000542,666.1921090000542,666.1921090000542,666.1921090000542,switch,number,numSwt,f,1.1213742489926517,vtsPrac,667.3433778249891,,,,,,,,,,,,,,,,,,,,,,,,,,,,,33405,2022-11-28_13h58.11.201,vts_reward_expectancy_bt_OFFLINE,2022.2.4,59.93178409133674,
,,,,,,,,,,,,,,,,,,,,,,,,,,,,,,,,,,0,0,0,0,4,0,4,0,,,,,,,,,,,,,,,,,,,,,,,,,,,,0,864,,,,674.0341579919914,,146,H,star,0.0010876100277528167,,,,,1,0,,,2,,,,,,,,,669.8296250320273,669.8296250320273,669.8296250320273,669.8296250320273,671.3310787910596,671.3310787910596,671.3310787910596,671.3310787910596,671.3310787910596,671.3310787910596,671.3310787910596,671.3310787910596,repeat,number,numRpt,d,1.1823335889494047,vtsPrac,672.5325614750618,674.0341579919914,,,,,,,,,,,,,,,,,,,,,,,,,,,,33405,2022-11-28_13h58.11.201,vts_reward_expectancy_bt_OFFLINE,2022.2.4,59.93178409133674,
,,,,,,,,,,,,,,,,,,,,,,,,,,,,,,,,,,0,0,0,0,5,0,5,0,,,,,,,,,,,,,,,,,,,,,,,,,,,,0,864,,,,678.6558422760572,,160,Y,triangle,0.0008535620290786028,,,,,1,0,,,2,,,,,,,,,675.0184493800625,675.0184493800625,675.0184493800625,675.0184493800625,676.520190256997,676.520190256997,676.520190256997,676.520190256997,676.520190256997,676.520190256997,676.520190256997,676.520190256997,switch,letter,lettSwt,k,0.6172828340204433,vtsPrac,677.154378034058,678.6558422760572,,,,,,,,,,,,,,,,,,,,,,,,,,,,33405,2022-11-28_13h58.11.201,vts_reward_expectancy_bt_OFFLINE,2022.2.4,59.93178409133674,
,,,,,,,,,,,,,,,,,,,,,,,,,,,,,,,,,,0,0,0,0,6,0,6,0,,,,,,,,,,,,,,,,,,,,,,,,,,,,0,864,,,,683.2775684189983,,181,B,triangle,0.000772461062297225,,,,,1,0,,,2,,,,,,,,,679.6402727609966,679.6402727609966,679.6402727609966,679.6402727609966,681.2253412940772,681.2253412940772,681.2253412940772,681.2253412940772,681.2253412940772,681.2253412940772,681.2253412940772,681.2253412940772,switch,number,numSwt,f,0.5235641489271075,vtsPrac,681.7761587450514,,,,,,,,,,,,,,,,,,,,,,,,,,,,,33405,2022-11-28_13h58.11.201,vts_reward_expectancy_bt_OFFLINE,2022.2.4,59.93178409133674,
,,,,,,,,,,,,,,,,,,,,,,,,,,,,,,,,,,0,0,0,0,7,0,7,0,,,,,,,,,,,,,,,,,,,,,,,,,,,,0,864,,,,687.9327495520702,,167,W,star,0.0010930480202659965,,,,,1,0,,,2,,,,,,,,,684.2620406370843,684.2620406370843,684.2620406370843,684.2620406370843,685.7639334499836,685.7639334499836,685.7639334499836,685.7639334499836,685.7639334499836,685.7639334499836,685.7639334499836,685.7639334499836,switch,letter,lettSwt,k,0.6430681839119643,vtsPrac,686.4310635150177,,,,,,,,,,,,,,,,,,,,,,,,,,,,,33405,2022-11-28_13h58.11.201,vts_reward_expectancy_bt_OFFLINE,2022.2.4,59.93178409133674,
,,,,,,,,,,,,,,,,,,,,,,,,,,,,,,,,,,0,0,0,0,8,0,8,0,,,,,,,,,,,,,,,,,,,,,,,,,,,,0,864,,,,693.0049625000684,,160,H,triangle,0.0013065499952062964,,,,,1,0,,,2,,,,,,,,,688.9170295150252,688.9170295150252,688.9170295150252,688.9170295150252,690.4188094889978,690.4188094889978,690.4188094889978,690.4188094889978,690.4188094889978,690.4188094889978,690.4188094889978,690.4188094889978,repeat,letter,lettRpt,j,1.061486029997468,vtsPrac,691.5034898460144,,,,,,,,,,,,,,,,,,,,,,,,,,,,,33405,2022-11-28_13h58.11.201,vts_reward_expectancy_bt_OFFLINE,2022.2.4,59.93178409133674,
,,,,,,,,,,,,,,,,,,,,,,,,,,,,,,,,,,0,0,0,0,9,0,9,0,,,,,,,,,,,,,,,,,,,,,,,,,,,,0,864,,,,697.6101274840767,,167,S,star,0.0012013299856334925,,,,,1,0,,,2,,,,,,,,,693.9893377600238,693.9893377600238,693.9893377600238,693.9893377600238,695.491173532093,695.491173532093,695.491173532093,695.491173532093,695.491173532093,695.491173532093,695.491173532093,695.491173532093,repeat,letter,lettRpt,k,0.5905300710583106,vtsPrac,696.1084199700272,,,,,,,,,,,,,,,,,,,,,,,,,,,,,33405,2022-11-28_13h58.11.201,vts_reward_expectancy_bt_OFFLINE,2022.2.4,59.93178409133674,
,,,,,,,,,,,,,,,,,,,,,,,,,,,,,,,,,,0,0,0,0,10,0,10,0,,,,,,,,,,,,,,,,,,,,,,,,,,,,0,864,,,,702.1816943300655,,181,B,hexagon,0.0011800819775089622,,,,,1,0,,,2,,,,,,,,,698.5945672170492,698.5945672170492,698.5945672170492,698.5945672170492,700.0962235600455,700.0962235600455,700.0962235600455,700.0962235600455,700.0962235600455,700.0962235600455,700.0962235600455,700.0962235600455,switch,number,numSwt,f,0.5535172949312255,vtsPrac,700.6801698020427,,,,,,,,,,,,,,,,,,,,,,,,,,,,,33405,2022-11-28_13h58.11.201,vts_reward_expectancy_bt_OFFLINE,2022.2.4,59.93178409133674,
,,,,,,,,,,,,,,,,,,,,,,,,,,,,,,,,,,0,0,0,0,11,0,11,0,,,,,,,,,,,,,,,,,,,,,,,,,,,,0,864,,,,707.0871849959949,,146,D,circle,0.0012311999453231692,,,,,1,0,,,2,,,,,,,,,703.1660343640251,703.1660343640251,703.1660343640251,703.1660343640251,704.667910022079,704.667910022079,704.667910022079,704.667910022079,704.667910022079,704.667910022079,704.667910022079,704.667910022079,repeat,number,numRpt,d,0.8877106209984049,vtsPrac,705.585314281052,,,,,,,,,,,,,,,,,,,,,,,,,,,,,33405,2022-11-28_13h58.11.201,vts_reward_expectancy_bt_OFFLINE,2022.2.4,59.93178409133674,
,,,,,,,,,,,,,,,,,,,,,,,,,,,,,,,,,,0,0,0,0,12,0,12,0,,,,,,,,,,,,,,,,,,,,,,,,,,,,0,864,,,,711.8756506410427,,146,W,star,0.0010956510668620467,,,,,1,0,,,2,,,,,,,,,708.0716716090683,708.0716716090683,708.0716716090683,708.0716716090683,709.5733825090574,709.5733825090574,709.5733825090574,709.5733825090574,709.5733825090574,709.5733825090574,709.5733825090574,709.5733825090574,switch,letter,lettSwt,k,0.7745576900197193,vtsPrac,710.3740705850068,,,,,,,,,,,,,,,,,,,,,,,,,,,,,33405,2022-11-28_13h58.11.201,vts_reward_expectancy_bt_OFFLINE,2022.2.4,59.93178409133674,
,,,,,,,,,,,,,,,,,,,,,,,,,,,,,,,,,,0,0,0,0,13,0,13,0,,,,,,,,,,,,,,,,,,,,,,,,,,,,0,864,,,,717.899011339061,,160,Y,circle,0.0012188859982416034,,,,,1,0,,,2,,,,,,,,,712.8603275890928,712.8603275890928,712.8603275890928,712.8603275890928,714.3619816900464,714.3619816900464,714.3619816900464,714.3619816900464,714.3619816900464,714.3619816900464,714.3619816900464,714.3619816900464,switch,number,numSwt,f,2.0187653939938173,vtsPrac,716.3972470770823,717.899011339061,,,,,,,,,,,,,,,,,,,,,,,,,,,,33405,2022-11-28_13h58.11.201,vts_reward_expectancy_bt_OFFLINE,2022.2.4,59.93178409133674,
,,,,,,,,,,,,,,,,,,,,,,,,,,,,,,,,,,0,0,0,0,14,0,14,0,,,,,,,,,,,,,,,,,,,,,,,,,,,,0,864,,,,722.988157699001,,132,D,triangle,0.0007422040216624737,,,,,1,0,,,2,,,,,,,,,718.8834793390706,718.8834793390706,718.8834793390706,718.8834793390706,720.3851616199827,720.3851616199827,720.3851616199827,720.3851616199827,720.3851616199827,720.3851616199827,720.3851616199827,720.3851616199827,repeat,number,numRpt,d,1.068589350907132,vtsPrac,721.4862028750358,,,,,,,,,,,,,,,,,,,,,,,,,,,,,33405,2022-11-28_13h58.11.201,vts_reward_expectancy_bt_OFFLINE,2022.2.4,59.93178409133674,
,,,,,,,,,,,,,,,,,,,,,,,,,,,,,,,,,,0,0,0,0,15,0,15,0,,,,,,,,,,,,,,,,,,,,,,,,,,,,0,864,,,,729.9959306060337,,174,F,hexagon,0.0020623550517484546,,,,,-1,0,,,2,,,,,,,,,723.972380935098,723.972380935098,723.972380935098,723.972380935098,725.474314384046,725.474314384046,725.474314384046,725.474314384046,725.474314384046,725.474314384046,725.474314384046,725.474314384046,switch,no_choice,NA,None,,vtsPrac,728.4941591250245,,728.4941591250245,728.4941591250245,728.4941591250245,728.4941591250245,,,,,,,,,,,,,,,,,,,,,,,,33405,2022-11-28_13h58.11.201,vts_reward_expectancy_bt_OFFLINE,2022.2.4,59.93178409133674,
,,,,,,,,,,,,,,,,,,,,,,,,,,,,,,,,,,0,0,0,0,16,0,16,0,,,,,,,,,,,,,,,,,,,,,,,,,,,,0,864,,,,734.9513776610838,,146,U,star,0.008827931946143508,,,,,1,0,,,2,,,,,,,,,730.9801818300039,730.9801818300039,730.9801818300039,730.9801818300039,732.4818674250273,732.4818674250273,732.4818674250273,732.4818674250273,732.4818674250273,732.4818674250273,732.4818674250273,732.4818674250273,switch,number,numSwt,d,0.941935779992491,vtsPrac,733.4510153470328,,,,,,,,,,,,,,,,,,,,,,,,,,,,,33405,2022-11-28_13h58.11.201,vts_reward_expectancy_bt_OFFLINE,2022.2.4,59.93178409133674,
,,,,,,,,,,,,,,,,,,,,,,,,,,,,,,,,,,0,0,0,0,17,0,17,0,,,,,,,,,,,,,,,,,,,,,,,,,,,,0,864,,,,739.4395072710468,,132,W,triangle,0.001169186900369823,,,,,1,0,,,2,,,,,,,,,735.9357305670856,735.9357305670856,735.9357305670856,735.9357305670856,737.4373063360108,737.4373063360108,737.4373063360108,737.4373063360108,737.4373063360108,737.4373063360108,737.4373063360108,737.4373063360108,switch,letter,lettSwt,k,0.4755554979201406,vtsPrac,737.9379141110694,,,,,,,,,,,,,,,,,,,,,,,,,,,,,33405,2022-11-28_13h58.11.201,vts_reward_expectancy_bt_OFFLINE,2022.2.4,59.93178409133674,
,,,,,,,,,,,,,,,,,,,,,,,,,,,,,,,,,,0,0,0,0,18,0,18,0,,,,,,,,,,,,,,,,,,,,,,,,,,,,0,864,,,,744.1780537350569,,160,B,hexagon,0.0012752700131386518,,,,,1,0,,,2,,,,,,,,,740.4239572290098,740.4239572290098,740.4239572290098,740.4239572290098,741.9258236450842,741.9258236450842,741.9258236450842,741.9258236450842,741.9258236450842,741.9258236450842,741.9258236450842,741.9258236450842,repeat,letter,lettRpt,j,0.7238173990044743,vtsPrac,742.6767528210767,,,,,,,,,,,,,,,,,,,,,,,,,,,,,33405,2022-11-28_13h58.11.201,vts_reward_expectancy_bt_OFFLINE,2022.2.4,59.93178409133674,
,,,,,,,,,,,,,,,,,,,,,,,,,,,,,,,,,,0,0,0,0,19,0,19,0,,,,,,,,,,,,,,,,,,,,,,,,,,,,0,864,,,,748.732978946995,,139,Y,circle,0.0012359539978206158,,,,,1,0,,,2,,,,,,,,,745.1625901689986,745.1625901689986,745.1625901689986,745.1625901689986,746.6641573550878,746.6641573550878,746.6641573550878,746.6641573550878,746.6641573550878,746.6641573550878,746.6641573550878,746.6641573550878,switch,number,numSwt,d,0.54183013306465,vtsPrac,747.2313553200802,,,,,,,,,,,,,,,,,,,,,,,,,,,,,33405,2022-11-28_13h58.11.201,vts_reward_expectancy_bt_OFFLINE,2022.2.4,59.93178409133674,
,,,,,,,,,,,,,,,,,,,,,,,,,,,,,,,,,,0,0,0,0,20,0,20,0,,,,,,,,,,,,,,,,,,,,,,,,,,,,0,864,,,,753.5883727000328,,167,F,triangle,0.0014421350788325071,,,,,1,0,,,2,,,,,,,,,749.7175722590182,749.7175722590182,749.7175722590182,749.7175722590182,751.2193274470046,751.2193274470046,751.2193274470046,751.2193274470046,751.2193274470046,751.2193274470046,751.2193274470046,751.2193274470046,repeat,number,numRpt,f,0.8477718830108643,vtsPrac,752.0868328510551,,,,,,,,,,,,,,,,,,,,,,,,,,,,,33405,2022-11-28_13h58.11.201,vts_reward_expectancy_bt_OFFLINE,2022.2.4,59.93178409133674,
,,,,,,,,,,,,,,,,,,,,,,,,,,,,,,,,,,0,0,0,0,21,0,21,0,,,,,,,,,,,,,,,,,,,,,,,,,,,,0,864,,,,758.4604918520199,,160,U,hexagon,0.001167396898381412,,,,,1,0,,,2,,,,,,,,,754.5727884559892,754.5727884559892,754.5727884559892,754.5727884559892,756.0744875100208,756.0744875100208,756.0744875100208,756.0744875100208,756.0744875100208,756.0744875100208,756.0744875100208,756.0744875100208,repeat,number,numRpt,f,0.862846949021332,vtsPrac,756.9587906020461,758.4604918520199,,,,,,,,,,,,,,,,,,,,,,,,,,,,33405,2022-11-28_13h58.11.201,vts_reward_expectancy_bt_OFFLINE,2022.2.4,59.93178409133674,
,,,,,,,,,,,,,,,,,,,,,,,,,,,,,,,,,,0,0,0,0,22,0,22,0,,,,,,,,,,,,,,,,,,,,,,,,,,,,0,864,,,,762.8487810590304,,132,B,circle,0.0009888519998639822,,,,,1,0,,,2,,,,,,,,,759.4448865490267,759.4448865490267,759.4448865490267,759.4448865490267,760.9467145750532,760.9467145750532,760.9467145750532,760.9467145750532,760.9467145750532,760.9467145750532,760.9467145750532,760.9467145750532,switch,letter,lettSwt,j,0.36820542195346206,vtsPrac,761.3469527340494,,,,,,,,,,,,,,,,,,,,,,,,,,,,,33405,2022-11-28_13h58.11.201,vts_reward_expectancy_bt_OFFLINE,2022.2.4,59.93178409133674,
,,,,,,,,,,,,,,,,,,,,,,,,,,,,,,,,,,0,0,0,0,23,0,23,0,,,,,,,,,,,,,,,,,,,,,,,,,,,,0,864,,,,767.436943821027,,125,W,triangle,0.001337729045189917,,,,,1,0,,,2,,,,,,,,,763.8330479550641,763.8330479550641,763.8330479550641,763.8330479550641,765.3348402620759,765.3348402620759,765.3348402620759,765.3348402620759,765.3348402620759,765.3348402620759,765.3348402620759,765.3348402620759,repeat,letter,lettRpt,k,0.5693244580179453,vtsPrac,765.935593325994,767.436943821027,,,,,,,,,,,,,,,,,,,,,,,,,,,,33405,2022-11-28_13h58.11.201,vts_reward_expectancy_bt_OFFLINE,2022.2.4,59.93178409133674,
,,,,,,,,,,,,,,,,,,,,,,,,,,,,,,,,,,0,0,0,0,24,0,24,0,,,,,,,,,,,,,,,,,,,,,,,,,,,,0,864,,,,772.375813774066,,146,U,triangle,0.0009736999636515975,,,,,1,0,,,2,,,,,,,,,768.4214345060755,768.4214345060755,768.4214345060755,768.4214345060755,769.9231056260178,769.9231056260178,769.9231056260178,769.9231056260178,769.9231056260178,769.9231056260178,769.9231056260178,769.9231056260178,switch,number,numSwt,d,0.9202725660288706,vtsPrac,770.8739917270141,,,,,,,,,,,,,,,,,,,,,,,,,,,,,33405,2022-11-28_13h58.11.201,vts_reward_expectancy_bt_OFFLINE,2022.2.4,59.93178409133674,
,,,,,,,,,,,,,,,,,,,,,,,,,,,,,,,,,,0,0,0,0,25,0,25,0,,,,,,,,,,,,,,,,,,,,,,,,,,,,0,864,,,,777.9819000300486,,181,F,hexagon,0.001285550999455154,,,,,1,0,,,2,,,,,,,,,773.3603311250918,773.3603311250918,773.3603311250918,773.3603311250918,774.8617637300631,774.8617637300631,774.8617637300631,774.8617637300631,774.8617637300631,774.8617637300631,774.8617637300631,774.8617637300631,switch,letter,lettSwt,j,1.586237175972201,vtsPrac,776.4802925550612,,,,,,,,,,,,,,,,,,,,,,,,,,,,,33405,2022-11-28_13h58.11.201,vts_reward_expectancy_bt_OFFLINE,2022.2.4,59.93178409133674,
,,,,,,,,,,,,,,,,,,,,,,,,,,,,,,,,,,0,0,0,0,26,0,26,0,,,,,,,,,,,,,,,,,,,,,,,,,,,,0,864,,,,784.0720675570192,,139,S,star,0.0012013360392302275,,,,,1,0,,,2,,,,,,,,,778.9664122600807,778.9664122600807,778.9664122600807,778.9664122600807,780.4681814890355,780.4681814890355,780.4681814890355,780.4681814890355,780.4681814890355,780.4681814890355,780.4681814890355,780.4681814890355,switch,number,numSwt,d,2.076212618034333,vtsPrac,782.5704096140107,,,,,,,,,,,,,,,,,,,,,,,,,,,,,33405,2022-11-28_13h58.11.201,vts_reward_expectancy_bt_OFFLINE,2022.2.4,59.93178409133674,
,,,,,,,,,,,,,,,,,,,,,,,,,,,,,,,,,,0,0,0,0,27,0,27,0,,,,,,,,,,,,,,,,,,,,,,,,,,,,0,864,,,,788.860760221025,,125,W,circle,0.001148589071817696,,,,,1,0,,,2,,,,,,,,,785.0566039540572,785.0566039540572,785.0566039540572,785.0566039540572,786.55814254703,786.55814254703,786.55814254703,786.55814254703,786.55814254703,786.55814254703,786.55814254703,786.55814254703,repeat,number,numRpt,d,0.7686879259999841,vtsPrac,787.3592536250362,788.860760221025,,,,,,,,,,,,,,,,,,,,,,,,,,,,33405,2022-11-28_13h58.11.201,vts_reward_expectancy_bt_OFFLINE,2022.2.4,59.93178409133674,
,,,,,,,,,,,,,,,,,,,,,,,,,,,,,,,,,,0,0,0,0,28,0,28,0,,,,,,,,,,,,,,,,,,,,,,,,,,,,0,864,,,,794.2000023149885,,174,Y,hexagon,0.0011891500325873494,,,,,1,0,,,2,,,,,,,,,789.8452404660638,789.8452404660638,789.8452404660638,789.8452404660638,791.3466378860176,791.3466378860176,791.3466378860176,791.3466378860176,791.3466378860176,791.3466378860176,791.3466378860176,791.3466378860176,switch,letter,lettSwt,k,1.3247632080456242,vtsPrac,792.6982100200839,,,,,,,,,,,,,,,,,,,,,,,,,,,,,33405,2022-11-28_13h58.11.201,vts_reward_expectancy_bt_OFFLINE,2022.2.4,59.93178409133674,
