LTriangleOpac,LCircleOpac,LHexagonOpac,LStarOpac,RTriangleOpac,RCircleOpac,RHexagonOpac,RStarOpac,LShape_ID,RShape_ID,training_blocks.thisRepN,training_blocks.thisTrialN,training_blocks.thisN,training_blocks.thisIndex,training.thisRepN,training.thisTrialN,training.thisN,training.thisIndex,task1_prac_redo.thisRepN,task1_prac_redo.thisTrialN,task1_prac_redo.thisN,task1_prac_redo.thisIndex,task1_prac_trials.thisRepN,task1_prac_trials.thisTrialN,task1_prac_trials.thisN,task1_prac_trials.thisIndex,task2_prac_redo.thisRepN,task2_prac_redo.thisTrialN,task2_prac_redo.thisN,task2_prac_redo.thisIndex,task2_praac_trials.thisRepN,task2_praac_trials.thisTrialN,task2_praac_trials.thisN,task2_praac_trials.thisIndex,vts_prac_redo.thisRepN,vts_prac_redo.thisTrialN,vts_prac_redo.thisN,vts_prac_redo.thisIndex,vts_practice_trials.thisRepN,vts_practice_trials.thisTrialN,vts_practice_trials.thisN,vts_practice_trials.thisIndex,trials_norew.thisRepN,trials_norew.thisTrialN,trials_norew.thisN,trials_norew.thisIndex,block.thisRepN,block.thisTrialN,block.thisN,block.thisIndex,trials_rew.thisRepN,trials_rew.thisTrialN,trials_rew.thisN,trials_rew.thisIndex,key_resp.started,key_resp.keys,key_resp.rt,left_circle.started,right_circle.started,left_triangle.started,right_triangle.started,left_star.started,right_star.started,left_hexagon.started,right_hexagon.started,training_fix.started,training_resp.started,training_resp.keys,training_resp.rt,points_trial,points_cumul,trainBlock,training_feedback_txt.started,training_feedback_txt.stopped,fix.started,fix.stopped,curr_topStim,curr_bottStim,curr_shape,ISI.started,tgt_fix_prac1.started,top_target_prac1.started,bott_target_prac1.started,target_resp_prac1.started,acc,E1,target_resp_prac1.keys,target_resp_prac1.rt,pracBlock,prac_fback_text.started,prac_fback_text.stopped,tgt_fix_prac2.started,top_target_prac2.started,bott_target_prac2.started,target_resp_prac2.started,target_resp_prac2.keys,target_resp_prac2.rt,star.started,hegagon.started,triangle.started,circle.started,top_target.started,tgt_fix.started,bot_target.started,target_resp.started,star.stopped,hegagon.stopped,triangle.stopped,circle.stopped,alt,task,condition,target_resp.keys,target_resp.rt,rewCond,vts_fback.started,vts_fback.stopped,top_target.stopped,tgt_fix.stopped,bot_target.stopped,target_resp.stopped,blockNum,norew_fback.started,norew_fback.stopped,key_resp_2.keys,key_resp_2.rt,rewExpectancy,feedbk_text.started,feedbk_text.stopped,text_3.started,debrief.started,text_3.stopped,button.started,debrief.index,debrief.itemText,debrief.type,debrief.granularity,debrief.font,debrief.markerColor,debrief.response,debrief.rt,button.numClicks,button.timesOn,button.timesOff,participant,date,expName,psychopyVersion,frameRate,
,,,,,,,,,,,,,,,,,,,,,,,,,,,,,,,,,,,,,,,,,,,,,,,,,,,,,,18.988742750836536,space,17.254618836101145,,,,,,,,,,,,,,,,,,,,,,,,,,,,,,,,,,,,,,,,,,,,,,,,,,,,,,,,,,,,,,,,,,,,,,,,,,,,,,,,,,,,,,,,33606,2022-11-17_14h05.11.770,vts_reward_expectancy_bt_OFFLINE,2022.2.4,59.9301724871312,
0,1,0,0,0,0,0,1,circle,star,0,0,0,0,0,0,0,5,,,,,,,,,,,,,,,,,,,,,,,,,,,,,,,,,,,,,,,,65.89065212290734,65.89065212290734,65.89065212290734,65.89065212290734,65.89065212290734,65.89065212290734,65.89065212290734,65.89065212290734,65.89065212290734,65.89065212290734,a,1.6407728279009461,10,10,0,67.56007517804392,69.0607396599371,69.0607396599371,69.56113737006672,,,,,,,,,,,,,,,,,,,,,,,,,,,,,,,,,,,,,,,,,,,,,,,,,,,,,,,,,,,,,,,,,,,,,33606,2022-11-17_14h05.11.770,vts_reward_expectancy_bt_OFFLINE,2022.2.4,59.9301724871312,
1,0,0,0,0,0,1,0,triangle,hexagon,0,0,0,0,0,1,1,1,,,,,,,,,,,,,,,,,,,,,,,,,,,,,,,,,,,,,,,,69.56113737006672,69.56113737006672,69.56113737006672,69.56113737006672,69.56113737006672,69.56113737006672,69.56113737006672,69.56113737006672,69.56113737006672,69.56113737006672,l,1.930077726021409,10,20,0,71.51340746995993,,73.0151359308511,,,,,,,,,,,,,,,,,,,,,,,,,,,,,,,,,,,,,,,,,,,,,,,,,,,,,,,,,,,,,,,,,,,,,,33606,2022-11-17_14h05.11.770,vts_reward_expectancy_bt_OFFLINE,2022.2.4,59.9301724871312,
1,0,0,0,0,1,0,0,triangle,circle,0,0,0,0,0,2,2,0,,,,,,,,,,,,,,,,,,,,,,,,,,,,,,,,,,,,,,,,73.51551764598116,73.51551764598116,73.51551764598116,73.51551764598116,73.51551764598116,73.51551764598116,73.51551764598116,73.51551764598116,73.51551764598116,73.51551764598116,a,1.8577768269460648,1,21,0,75.40099821798503,,76.90258645801805,,,,,,,,,,,,,,,,,,,,,,,,,,,,,,,,,,,,,,,,,,,,,,,,,,,,,,,,,,,,,,,,,,,,,,33606,2022-11-17_14h05.11.770,vts_reward_expectancy_bt_OFFLINE,2022.2.4,59.9301724871312,
0,1,0,0,1,0,0,0,circle,triangle,0,0,0,0,0,3,3,3,,,,,,,,,,,,,,,,,,,,,,,,,,,,,,,,,,,,,,,,77.4027958358638,77.4027958358638,77.4027958358638,77.4027958358638,77.4027958358638,77.4027958358638,77.4027958358638,77.4027958358638,77.4027958358638,77.4027958358638,a,2.4375097160227597,1,22,0,79.87249507801607,,81.37419284298085,,,,,,,,,,,,,,,,,,,,,,,,,,,,,,,,,,,,,,,,,,,,,,,,,,,,,,,,,,,,,,,,,,,,,,33606,2022-11-17_14h05.11.770,vts_reward_expectancy_bt_OFFLINE,2022.2.4,59.9301724871312,
0,0,0,1,1,0,0,0,star,triangle,0,0,0,0,0,4,4,9,,,,,,,,,,,,,,,,,,,,,,,,,,,,,,,,,,,,,,,,81.87474632286467,81.87474632286467,81.87474632286467,81.87474632286467,81.87474632286467,81.87474632286467,81.87474632286467,81.87474632286467,81.87474632286467,81.87474632286467,a,2.2286448117811233,10,32,0,84.12730763899162,,85.62905600992963,,,,,,,,,,,,,,,,,,,,,,,,,,,,,,,,,,,,,,,,,,,,,,,,,,,,,,,,,,,,,,,,,,,,,,33606,2022-11-17_14h05.11.770,vts_reward_expectancy_bt_OFFLINE,2022.2.4,59.9301724871312,
0,0,0,1,0,0,1,0,star,hexagon,0,0,0,0,0,5,5,11,,,,,,,,,,,,,,,,,,,,,,,,,,,,,,,,,,,,,,,,86.1295865860302,86.1295865860302,86.1295865860302,86.1295865860302,86.1295865860302,86.1295865860302,86.1295865860302,86.1295865860302,86.1295865860302,86.1295865860302,l,1.3838826268911362,1,33,0,87.53104624291882,,89.03280984098092,,,,,,,,,,,,,,,,,,,,,,,,,,,,,,,,,,,,,,,,,,,,,,,,,,,,,,,,,,,,,,,,,,,,,,33606,2022-11-17_14h05.11.770,vts_reward_expectancy_bt_OFFLINE,2022.2.4,59.9301724871312,
0,0,1,0,0,1,0,0,hexagon,circle,0,0,0,0,0,6,6,7,,,,,,,,,,,,,,,,,,,,,,,,,,,,,,,,,,,,,,,,89.5332965690177,89.5332965690177,89.5332965690177,89.5332965690177,89.5332965690177,89.5332965690177,89.5332965690177,89.5332965690177,89.5332965690177,89.5332965690177,a,1.3670503729954362,10,43,0,90.91791869304143,,92.41979990503751,,,,,,,,,,,,,,,,,,,,,,,,,,,,,,,,,,,,,,,,,,,,,,,,,,,,,,,,,,,,,,,,,,,,,,33606,2022-11-17_14h05.11.770,vts_reward_expectancy_bt_OFFLINE,2022.2.4,59.9301724871312,
0,0,1,0,1,0,0,0,hexagon,triangle,0,0,0,0,0,7,7,6,,,,,,,,,,,,,,,,,,,,,,,,,,,,,,,,,,,,,,,,92.92029700987041,92.92029700987041,92.92029700987041,92.92029700987041,92.92029700987041,92.92029700987041,92.92029700987041,92.92029700987041,92.92029700987041,92.92029700987041,a,1.9719225750304759,10,53,0,94.92252193787135,,96.42435304098763,,,,,,,,,,,,,,,,,,,,,,,,,,,,,,,,,,,,,,,,,,,,,,,,,,,,,,,,,,,,,,,,,,,,,,33606,2022-11-17_14h05.11.770,vts_reward_expectancy_bt_OFFLINE,2022.2.4,59.9301724871312,
1,0,0,0,0,0,0,1,triangle,star,0,0,0,0,0,8,8,2,,,,,,,,,,,,,,,,,,,,,,,,,,,,,,,,,,,,,,,,96.9248472189065,96.9248472189065,96.9248472189065,96.9248472189065,96.9248472189065,96.9248472189065,96.9248472189065,96.9248472189065,96.9248472189065,96.9248472189065,l,1.9389418519567698,1,54,0,98.89359900797717,,100.39543670602143,,,,,,,,,,,,,,,,,,,,,,,,,,,,,,,,,,,,,,,,,,,,,,,,,,,,,,,,,,,,,,,,,,,,,,33606,2022-11-17_14h05.11.770,vts_reward_expectancy_bt_OFFLINE,2022.2.4,59.9301724871312,
0,0,0,1,0,1,0,0,star ,circle,0,0,0,0,0,9,9,10,,,,,,,,,,,,,,,,,,,,,,,,,,,,,,,,,,,,,,,,100.89595575304702,100.89595575304702,100.89595575304702,100.89595575304702,100.89595575304702,100.89595575304702,100.89595575304702,100.89595575304702,100.89595575304702,100.89595575304702,l,1.0621528930496424,10,64,0,101.98037582100369,,103.48211945989169,,,,,,,,,,,,,,,,,,,,,,,,,,,,,,,,,,,,,,,,,,,,,,,,,,,,,,,,,,,,,,,,,,,,,,33606,2022-11-17_14h05.11.770,vts_reward_expectancy_bt_OFFLINE,2022.2.4,59.9301724871312,
0,0,1,0,0,0,0,1,hexagon,star,0,0,0,0,0,10,10,8,,,,,,,,,,,,,,,,,,,,,,,,,,,,,,,,,,,,,,,,103.98256111587398,103.98256111587398,103.98256111587398,103.98256111587398,103.98256111587398,103.98256111587398,103.98256111587398,103.98256111587398,103.98256111587398,103.98256111587398,a,0.97927340795286,1,65,0,104.98371505085379,,106.48524994100444,,,,,,,,,,,,,,,,,,,,,,,,,,,,,,,,,,,,,,,,,,,,,,,,,,,,,,,,,,,,,,,,,,,,,,33606,2022-11-17_14h05.11.770,vts_reward_expectancy_bt_OFFLINE,2022.2.4,59.9301724871312,
0,1,0,0,0,0,1,0,circle,hexagon,0,0,0,0,0,11,11,4,,,,,,,,,,,,,,,,,,,,,,,,,,,,,,,,,,,,,,,,106.98593985987827,106.98593985987827,106.98593985987827,106.98593985987827,106.98593985987827,106.98593985987827,106.98593985987827,106.98593985987827,106.98593985987827,106.98593985987827,l,2.060109573882073,1,66,0,109.07158569386229,,110.57332546403632,,,,,,,,,,,,,,,,,,,,,,,,,,,,,,,,,,,,,,,,,,,,,,,,,,,,,,,,,,,,,,,,,,,,,,33606,2022-11-17_14h05.11.770,vts_reward_expectancy_bt_OFFLINE,2022.2.4,59.9301724871312,
0,1,0,0,1,0,0,0,circle,triangle,0,0,0,0,1,0,12,3,,,,,,,,,,,,,,,,,,,,,,,,,,,,,,,,,,,,,,,,111.0739050609991,111.0739050609991,111.0739050609991,111.0739050609991,111.0739050609991,111.0739050609991,111.0739050609991,111.0739050609991,111.0739050609991,111.0739050609991,a,2.079015566036105,10,76,0,113.17616931395605,,114.67773754289374,,,,,,,,,,,,,,,,,,,,,,,,,,,,,,,,,,,,,,,,,,,,,,,,,,,,,,,,,,,,,,,,,,,,,,33606,2022-11-17_14h05.11.770,vts_reward_expectancy_bt_OFFLINE,2022.2.4,59.9301724871312,
0,0,0,1,1,0,0,0,star,triangle,0,0,0,0,1,1,13,9,,,,,,,,,,,,,,,,,,,,,,,,,,,,,,,,,,,,,,,,115.17813091003336,115.17813091003336,115.17813091003336,115.17813091003336,115.17813091003336,115.17813091003336,115.17813091003336,115.17813091003336,115.17813091003336,115.17813091003336,l,1.4857670420315117,10,86,0,116.6966378800571,118.19842869997956,118.19842869997956,,,,,,,,,,,,,,,,,,,,,,,,,,,,,,,,,,,,,,,,,,,,,,,,,,,,,,,,,,,,,,,,,,,,,,33606,2022-11-17_14h05.11.770,vts_reward_expectancy_bt_OFFLINE,2022.2.4,59.9301724871312,
0,1,0,0,0,0,0,1,circle,star,0,0,0,0,1,2,14,5,,,,,,,,,,,,,,,,,,,,,,,,,,,,,,,,,,,,,,,,118.69890540488996,118.69890540488996,118.69890540488996,118.69890540488996,118.69890540488996,118.69890540488996,118.69890540488996,118.69890540488996,118.69890540488996,118.69890540488996,l,1.5526743789669126,1,87,0,120.28405089303851,,121.78547142003663,,,,,,,,,,,,,,,,,,,,,,,,,,,,,,,,,,,,,,,,,,,,,,,,,,,,,,,,,,,,,,,,,,,,,,33606,2022-11-17_14h05.11.770,vts_reward_expectancy_bt_OFFLINE,2022.2.4,59.9301724871312,
0,0,1,0,1,0,0,0,hexagon,triangle,0,0,0,0,1,3,15,6,,,,,,,,,,,,,,,,,,,,,,,,,,,,,,,,,,,,,,,,122.2860519378446,122.2860519378446,122.2860519378446,122.2860519378446,122.2860519378446,122.2860519378446,122.2860519378446,122.2860519378446,122.2860519378446,122.2860519378446,a,1.2526503500994295,1,88,0,123.57088418584317,,125.07265101792291,,,,,,,,,,,,,,,,,,,,,,,,,,,,,,,,,,,,,,,,,,,,,,,,,,,,,,,,,,,,,,,,,,,,,,33606,2022-11-17_14h05.11.770,vts_reward_expectancy_bt_OFFLINE,2022.2.4,59.9301724871312,
0,0,0,1,0,1,0,0,star ,circle,0,0,0,0,1,4,16,10,,,,,,,,,,,,,,,,,,,,,,,,,,,,,,,,,,,,,,,,125.573067096062,125.573067096062,125.573067096062,125.573067096062,125.573067096062,125.573067096062,125.573067096062,125.573067096062,125.573067096062,125.573067096062,a,1.4973810920491815,1,89,0,127.09145508799702,,128.59285081503913,,,,,,,,,,,,,,,,,,,,,,,,,,,,,,,,,,,,,,,,,,,,,,,,,,,,,,,,,,,,,,,,,,,,,,33606,2022-11-17_14h05.11.770,vts_reward_expectancy_bt_OFFLINE,2022.2.4,59.9301724871312,
1,0,0,0,0,0,0,1,triangle,star,0,0,0,0,1,5,17,2,,,,,,,,,,,,,,,,,,,,,,,,,,,,,,,,,,,,,,,,129.09347983892076,129.09347983892076,129.09347983892076,129.09347983892076,129.09347983892076,129.09347983892076,129.09347983892076,129.09347983892076,129.09347983892076,129.09347983892076,a,1.2050766691099852,10,99,0,130.32832130999304,,131.8297703829594,,,,,,,,,,,,,,,,,,,,,,,,,,,,,,,,,,,,,,,,,,,,,,,,,,,,,,,,,,,,,,,,,,,,,,33606,2022-11-17_14h05.11.770,vts_reward_expectancy_bt_OFFLINE,2022.2.4,59.9301724871312,
0,1,0,0,0,0,1,0,circle,hexagon,0,0,0,0,1,6,18,4,,,,,,,,,,,,,,,,,,,,,,,,,,,,,,,,,,,,,,,,132.33040774101391,132.33040774101391,132.33040774101391,132.33040774101391,132.33040774101391,132.33040774101391,132.33040774101391,132.33040774101391,132.33040774101391,132.33040774101391,l,0.9181162009481341,1,100,0,133.26469529606402,134.76639243005775,134.76639243005775,135.26719842501916,,,,,,,,,,,,,,,,,,,,,,,,,,,,,,,,,,,,,,,,,,,,,,,,,,,,,,,,,,,,,,,,,,,,,33606,2022-11-17_14h05.11.770,vts_reward_expectancy_bt_OFFLINE,2022.2.4,59.9301724871312,
0,0,0,1,0,0,1,0,star,hexagon,0,0,0,0,1,7,19,11,,,,,,,,,,,,,,,,,,,,,,,,,,,,,,,,,,,,,,,,135.26719842501916,135.26719842501916,135.26719842501916,135.26719842501916,135.26719842501916,135.26719842501916,135.26719842501916,135.26719842501916,135.26719842501916,135.26719842501916,a,0.9518701669294387,10,110,0,136.25143595901318,,137.75315010990016,,,,,,,,,,,,,,,,,,,,,,,,,,,,,,,,,,,,,,,,,,,,,,,,,,,,,,,,,,,,,,,,,,,,,,33606,2022-11-17_14h05.11.770,vts_reward_expectancy_bt_OFFLINE,2022.2.4,59.9301724871312,
0,0,1,0,0,0,0,1,hexagon,star,0,0,0,0,1,8,20,8,,,,,,,,,,,,,,,,,,,,,,,,,,,,,,,,,,,,,,,,138.2537264090497,138.2537264090497,138.2537264090497,138.2537264090497,138.2537264090497,138.2537264090497,138.2537264090497,138.2537264090497,138.2537264090497,138.2537264090497,l,1.0460752539802343,1,111,0,139.32153979991563,,140.8231979450211,,,,,,,,,,,,,,,,,,,,,,,,,,,,,,,,,,,,,,,,,,,,,,,,,,,,,,,,,,,,,,,,,,,,,,33606,2022-11-17_14h05.11.770,vts_reward_expectancy_bt_OFFLINE,2022.2.4,59.9301724871312,
1,0,0,0,0,1,0,0,triangle,circle,0,0,0,0,1,9,21,0,,,,,,,,,,,,,,,,,,,,,,,,,,,,,,,,,,,,,,,,141.32389410585165,141.32389410585165,141.32389410585165,141.32389410585165,141.32389410585165,141.32389410585165,141.32389410585165,141.32389410585165,141.32389410585165,141.32389410585165,a,1.475596941076219,1,112,0,142.82558434084058,,144.32710086600855,,,,,,,,,,,,,,,,,,,,,,,,,,,,,,,,,,,,,,,,,,,,,,,,,,,,,,,,,,,,,,,,,,,,,,33606,2022-11-17_14h05.11.770,vts_reward_expectancy_bt_OFFLINE,2022.2.4,59.9301724871312,
1,0,0,0,0,0,1,0,triangle,hexagon,0,0,0,0,1,10,22,1,,,,,,,,,,,,,,,,,,,,,,,,,,,,,,,,,,,,,,,,144.82773513393477,144.82773513393477,144.82773513393477,144.82773513393477,144.82773513393477,144.82773513393477,144.82773513393477,144.82773513393477,144.82773513393477,144.82773513393477,l,0.9750229110941291,10,122,0,145.82876806496643,,147.3303089798428,,,,,,,,,,,,,,,,,,,,,,,,,,,,,,,,,,,,,,,,,,,,,,,,,,,,,,,,,,,,,,,,,,,,,,33606,2022-11-17_14h05.11.770,vts_reward_expectancy_bt_OFFLINE,2022.2.4,59.9301724871312,
0,0,1,0,0,1,0,0,hexagon,circle,0,0,0,0,1,11,23,7,,,,,,,,,,,,,,,,,,,,,,,,,,,,,,,,,,,,,,,,147.83117880788632,147.83117880788632,147.83117880788632,147.83117880788632,147.83117880788632,147.83117880788632,147.83117880788632,147.83117880788632,147.83117880788632,147.83117880788632,l,0.9532307300250977,10,132,0,148.81540852086619,150.3170007748995,150.3170007748995,,,,,,,,,,,,,,,,,,,,,,,,,,,,,,,,,,,,,,,,,,,,,,,,,,,,,,,,,,,,,,,,,,,,,,33606,2022-11-17_14h05.11.770,vts_reward_expectancy_bt_OFFLINE,2022.2.4,59.9301724871312,
0,0,1,0,0,1,0,0,hexagon,circle,0,0,0,0,2,0,24,7,,,,,,,,,,,,,,,,,,,,,,,,,,,,,,,,,,,,,,,,150.81758477305993,150.81758477305993,150.81758477305993,150.81758477305993,150.81758477305993,150.81758477305993,150.81758477305993,150.81758477305993,150.81758477305993,150.81758477305993,a,0.791359341936186,1,133,0,151.63525172905065,,153.136960510863,,,,,,,,,,,,,,,,,,,,,,,,,,,,,,,,,,,,,,,,,,,,,,,,,,,,,,,,,,,,,,,,,,,,,,33606,2022-11-17_14h05.11.770,vts_reward_expectancy_bt_OFFLINE,2022.2.4,59.9301724871312,
0,1,0,0,1,0,0,0,circle,triangle,0,0,0,0,2,1,25,3,,,,,,,,,,,,,,,,,,,,,,,,,,,,,,,,,,,,,,,,153.63761475286447,153.63761475286447,153.63761475286447,153.63761475286447,153.63761475286447,153.63761475286447,153.63761475286447,153.63761475286447,153.63761475286447,153.63761475286447,a,1.7615050829481333,10,143,0,155.4227787659038,,156.92447334784083,,,,,,,,,,,,,,,,,,,,,,,,,,,,,,,,,,,,,,,,,,,,,,,,,,,,,,,,,,,,,,,,,,,,,,33606,2022-11-17_14h05.11.770,vts_reward_expectancy_bt_OFFLINE,2022.2.4,59.9301724871312,
0,0,0,1,0,1,0,0,star ,circle,0,0,0,0,2,2,26,10,,,,,,,,,,,,,,,,,,,,,,,,,,,,,,,,,,,,,,,,157.4248270529788,157.4248270529788,157.4248270529788,157.4248270529788,157.4248270529788,157.4248270529788,157.4248270529788,157.4248270529788,157.4248270529788,157.4248270529788,l,1.2257136080879718,10,153,0,158.67621610104106,,160.17788351792842,,,,,,,,,,,,,,,,,,,,,,,,,,,,,,,,,,,,,,,,,,,,,,,,,,,,,,,,,,,,,,,,,,,,,,33606,2022-11-17_14h05.11.770,vts_reward_expectancy_bt_OFFLINE,2022.2.4,59.9301724871312,
1,0,0,0,0,1,0,0,triangle,circle,0,0,0,0,2,3,27,0,,,,,,,,,,,,,,,,,,,,,,,,,,,,,,,,,,,,,,,,160.67858097795397,160.67858097795397,160.67858097795397,160.67858097795397,160.67858097795397,160.67858097795397,160.67858097795397,160.67858097795397,160.67858097795397,160.67858097795397,l,1.7427588030695915,10,163,0,162.44715707097203,,163.94864553096704,,,,,,,,,,,,,,,,,,,,,,,,,,,,,,,,,,,,,,,,,,,,,,,,,,,,,,,,,,,,,,,,,,,,,,33606,2022-11-17_14h05.11.770,vts_reward_expectancy_bt_OFFLINE,2022.2.4,59.9301724871312,
0,1,0,0,0,0,0,1,circle,star,0,0,0,0,2,4,28,5,,,,,,,,,,,,,,,,,,,,,,,,,,,,,,,,,,,,,,,,164.44916821294464,164.44916821294464,164.44916821294464,164.44916821294464,164.44916821294464,164.44916821294464,164.44916821294464,164.44916821294464,164.44916821294464,164.44916821294464,a,1.4260981818661094,1,164,0,165.9009076289367,,167.40253391303122,,,,,,,,,,,,,,,,,,,,,,,,,,,,,,,,,,,,,,,,,,,,,,,,,,,,,,,,,,,,,,,,,,,,,,33606,2022-11-17_14h05.11.770,vts_reward_expectancy_bt_OFFLINE,2022.2.4,59.9301724871312,
1,0,0,0,0,0,0,1,triangle,star,0,0,0,0,2,5,29,2,,,,,,,,,,,,,,,,,,,,,,,,,,,,,,,,,,,,,,,,167.9029614040628,167.9029614040628,167.9029614040628,167.9029614040628,167.9029614040628,167.9029614040628,167.9029614040628,167.9029614040628,167.9029614040628,167.9029614040628,a,1.516027812846005,10,174,0,169.43798964493908,,170.93989378004335,,,,,,,,,,,,,,,,,,,,,,,,,,,,,,,,,,,,,,,,,,,,,,,,,,,,,,,,,,,,,,,,,,,,,,33606,2022-11-17_14h05.11.770,vts_reward_expectancy_bt_OFFLINE,2022.2.4,59.9301724871312,
0,0,0,1,1,0,0,0,star,triangle,0,0,0,0,2,6,30,9,,,,,,,,,,,,,,,,,,,,,,,,,,,,,,,,,,,,,,,,171.44043130800128,171.44043130800128,171.44043130800128,171.44043130800128,171.44043130800128,171.44043130800128,171.44043130800128,171.44043130800128,171.44043130800128,171.44043130800128,a,2.2867194660939276,10,184,0,173.75947712897323,,175.26120111602359,,,,,,,,,,,,,,,,,,,,,,,,,,,,,,,,,,,,,,,,,,,,,,,,,,,,,,,,,,,,,,,,,,,,,,33606,2022-11-17_14h05.11.770,vts_reward_expectancy_bt_OFFLINE,2022.2.4,59.9301724871312,
0,0,0,1,0,0,1,0,star,hexagon,0,0,0,0,2,7,31,11,,,,,,,,,,,,,,,,,,,,,,,,,,,,,,,,,,,,,,,,175.76169564388692,175.76169564388692,175.76169564388692,175.76169564388692,175.76169564388692,175.76169564388692,175.76169564388692,175.76169564388692,175.76169564388692,175.76169564388692,l,0.9690645521041006,1,185,0,176.76302685006522,,178.26472872891463,,,,,,,,,,,,,,,,,,,,,,,,,,,,,,,,,,,,,,,,,,,,,,,,,,,,,,,,,,,,,,,,,,,,,,33606,2022-11-17_14h05.11.770,vts_reward_expectancy_bt_OFFLINE,2022.2.4,59.9301724871312,
0,0,1,0,0,0,0,1,hexagon,star,0,0,0,0,2,8,32,8,,,,,,,,,,,,,,,,,,,,,,,,,,,,,,,,,,,,,,,,178.76516725495458,178.76516725495458,178.76516725495458,178.76516725495458,178.76516725495458,178.76516725495458,178.76516725495458,178.76516725495458,178.76516725495458,178.76516725495458,a,1.5101034350227565,10,195,0,180.300102771027,,181.80194011796266,,,,,,,,,,,,,,,,,,,,,,,,,,,,,,,,,,,,,,,,,,,,,,,,,,,,,,,,,,,,,,,,,,,,,,33606,2022-11-17_14h05.11.770,vts_reward_expectancy_bt_OFFLINE,2022.2.4,59.9301724871312,
1,0,0,0,0,0,1,0,triangle,hexagon,0,0,0,0,2,9,33,1,,,,,,,,,,,,,,,,,,,,,,,,,,,,,,,,,,,,,,,,182.30236734985374,182.30236734985374,182.30236734985374,182.30236734985374,182.30236734985374,182.30236734985374,182.30236734985374,182.30236734985374,182.30236734985374,182.30236734985374,l,1.3260032860562205,10,205,0,183.65385595988482,185.15538567886688,185.15538567886688,,,,,,,,,,,,,,,,,,,,,,,,,,,,,,,,,,,,,,,,,,,,,,,,,,,,,,,,,,,,,,,,,,,,,,33606,2022-11-17_14h05.11.770,vts_reward_expectancy_bt_OFFLINE,2022.2.4,59.9301724871312,
0,1,0,0,0,0,1,0,circle,hexagon,0,0,0,0,2,10,34,4,,,,,,,,,,,,,,,,,,,,,,,,,,,,,,,,,,,,,,,,185.65602937387303,185.65602937387303,185.65602937387303,185.65602937387303,185.65602937387303,185.65602937387303,185.65602937387303,185.65602937387303,185.65602937387303,185.65602937387303,l,0.5495377848856151,1,206,0,186.22332634287886,,187.7248986759223,,,,,,,,,,,,,,,,,,,,,,,,,,,,,,,,,,,,,,,,,,,,,,,,,,,,,,,,,,,,,,,,,,,,,,33606,2022-11-17_14h05.11.770,vts_reward_expectancy_bt_OFFLINE,2022.2.4,59.9301724871312,
0,0,1,0,1,0,0,0,hexagon,triangle,0,0,0,0,2,11,35,6,,,,,,,,,,,,,,,,,,,,,,,,,,,,,,,,,,,,,,,,188.22545000398532,188.22545000398532,188.22545000398532,188.22545000398532,188.22545000398532,188.22545000398532,188.22545000398532,188.22545000398532,188.22545000398532,188.22545000398532,a,1.4214905889239162,1,207,0,189.67728763795458,,191.1787494700402,,,,,,,,,,,,,,,,,,,,,,,,,,,,,,,,,,,,,,,,,,,,,,,,,,,,,,,,,,,,,,,,,,,,,,33606,2022-11-17_14h05.11.770,vts_reward_expectancy_bt_OFFLINE,2022.2.4,59.9301724871312,
0,0,0,1,0,0,1,0,star,hexagon,0,0,0,0,3,0,36,11,,,,,,,,,,,,,,,,,,,,,,,,,,,,,,,,,,,,,,,,191.67932878388092,191.67932878388092,191.67932878388092,191.67932878388092,191.67932878388092,191.67932878388092,191.67932878388092,191.67932878388092,191.67932878388092,191.67932878388092,l,1.3425180590711534,10,217,0,193.0475667549763,,194.5490576280281,,,,,,,,,,,,,,,,,,,,,,,,,,,,,,,,,,,,,,,,,,,,,,,,,,,,,,,,,,,,,,,,,,,,,,33606,2022-11-17_14h05.11.770,vts_reward_expectancy_bt_OFFLINE,2022.2.4,59.9301724871312,
0,1,0,0,1,0,0,0,circle,triangle,0,0,0,0,3,1,37,3,,,,,,,,,,,,,,,,,,,,,,,,,,,,,,,,,,,,,,,,195.04968458088115,195.04968458088115,195.04968458088115,195.04968458088115,195.04968458088115,195.04968458088115,195.04968458088115,195.04968458088115,195.04968458088115,195.04968458088115,a,2.3841634809505194,10,227,0,197.4525027279742,,198.95395039301366,,,,,,,,,,,,,,,,,,,,,,,,,,,,,,,,,,,,,,,,,,,,,,,,,,,,,,,,,,,,,,,,,,,,,,33606,2022-11-17_14h05.11.770,vts_reward_expectancy_bt_OFFLINE,2022.2.4,59.9301724871312,
0,1,0,0,0,0,1,0,circle,hexagon,0,0,0,0,3,2,38,4,,,,,,,,,,,,,,,,,,,,,,,,,,,,,,,,,,,,,,,,199.45447384985164,199.45447384985164,199.45447384985164,199.45447384985164,199.45447384985164,199.45447384985164,199.45447384985164,199.45447384985164,199.45447384985164,199.45447384985164,l,1.3998762369155884,10,237,0,200.8726782889571,,202.37425389396958,,,,,,,,,,,,,,,,,,,,,,,,,,,,,,,,,,,,,,,,,,,,,,,,,,,,,,,,,,,,,,,,,,,,,,33606,2022-11-17_14h05.11.770,vts_reward_expectancy_bt_OFFLINE,2022.2.4,59.9301724871312,
0,1,0,0,0,0,0,1,circle,star,0,0,0,0,3,3,39,5,,,,,,,,,,,,,,,,,,,,,,,,,,,,,,,,,,,,,,,,202.8749428258743,202.8749428258743,202.8749428258743,202.8749428258743,202.8749428258743,202.8749428258743,202.8749428258743,202.8749428258743,202.8749428258743,202.8749428258743,a,1.1519450340420008,10,247,0,204.05978209292516,,205.56121570290998,,,,,,,,,,,,,,,,,,,,,,,,,,,,,,,,,,,,,,,,,,,,,,,,,,,,,,,,,,,,,,,,,,,,,,33606,2022-11-17_14h05.11.770,vts_reward_expectancy_bt_OFFLINE,2022.2.4,59.9301724871312,
0,0,0,1,0,1,0,0,star ,circle,0,0,0,0,3,4,40,10,,,,,,,,,,,,,,,,,,,,,,,,,,,,,,,,,,,,,,,,206.0619547199458,206.0619547199458,206.0619547199458,206.0619547199458,206.0619547199458,206.0619547199458,206.0619547199458,206.0619547199458,206.0619547199458,206.0619547199458,a,1.5192179740406573,10,257,0,207.6135563829448,,209.11507002497092,,,,,,,,,,,,,,,,,,,,,,,,,,,,,,,,,,,,,,,,,,,,,,,,,,,,,,,,,,,,,,,,,,,,,,33606,2022-11-17_14h05.11.770,vts_reward_expectancy_bt_OFFLINE,2022.2.4,59.9301724871312,
1,0,0,0,0,0,1,0,triangle,hexagon,0,0,0,0,3,5,41,1,,,,,,,,,,,,,,,,,,,,,,,,,,,,,,,,,,,,,,,,209.61577490787022,209.61577490787022,209.61577490787022,209.61577490787022,209.61577490787022,209.61577490787022,209.61577490787022,209.61577490787022,209.61577490787022,209.61577490787022,l,1.0024280969519168,1,258,0,210.65012395498343,,212.15201765298843,,,,,,,,,,,,,,,,,,,,,,,,,,,,,,,,,,,,,,,,,,,,,,,,,,,,,,,,,,,,,,,,,,,,,,33606,2022-11-17_14h05.11.770,vts_reward_expectancy_bt_OFFLINE,2022.2.4,59.9301724871312,
1,0,0,0,0,0,0,1,triangle,star,0,0,0,0,3,6,42,2,,,,,,,,,,,,,,,,,,,,,,,,,,,,,,,,,,,,,,,,212.6525226039812,212.6525226039812,212.6525226039812,212.6525226039812,212.6525226039812,212.6525226039812,212.6525226039812,212.6525226039812,212.6525226039812,212.6525226039812,l,3.0541006720159203,10,268,0,215.7391510780435,,217.24091735389084,,,,,,,,,,,,,,,,,,,,,,,,,,,,,,,,,,,,,,,,,,,,,,,,,,,,,,,,,,,,,,,,,,,,,,33606,2022-11-17_14h05.11.770,vts_reward_expectancy_bt_OFFLINE,2022.2.4,59.9301724871312,
0,0,1,0,0,0,0,1,hexagon,star,0,0,0,0,3,7,43,8,,,,,,,,,,,,,,,,,,,,,,,,,,,,,,,,,,,,,,,,217.74153794604354,217.74153794604354,217.74153794604354,217.74153794604354,217.74153794604354,217.74153794604354,217.74153794604354,217.74153794604354,217.74153794604354,217.74153794604354,a,1.235920863924548,1,269,0,219.00964230904356,,220.51113773905672,,,,,,,,,,,,,,,,,,,,,,,,,,,,,,,,,,,,,,,,,,,,,,,,,,,,,,,,,,,,,,,,,,,,,,33606,2022-11-17_14h05.11.770,vts_reward_expectancy_bt_OFFLINE,2022.2.4,59.9301724871312,
1,0,0,0,0,1,0,0,triangle,circle,0,0,0,0,3,8,44,0,,,,,,,,,,,,,,,,,,,,,,,,,,,,,,,,,,,,,,,,221.01169902295806,221.01169902295806,221.01169902295806,221.01169902295806,221.01169902295806,221.01169902295806,221.01169902295806,221.01169902295806,221.01169902295806,221.01169902295806,a,2.0273275789804757,10,279,0,223.06377934897318,,224.56578161404468,,,,,,,,,,,,,,,,,,,,,,,,,,,,,,,,,,,,,,,,,,,,,,,,,,,,,,,,,,,,,,,,,,,,,,33606,2022-11-17_14h05.11.770,vts_reward_expectancy_bt_OFFLINE,2022.2.4,59.9301724871312,
0,0,1,0,0,1,0,0,hexagon,circle,0,0,0,0,3,9,45,7,,,,,,,,,,,,,,,,,,,,,,,,,,,,,,,,,,,,,,,,225.0661996959243,225.0661996959243,225.0661996959243,225.0661996959243,225.0661996959243,225.0661996959243,225.0661996959243,225.0661996959243,225.0661996959243,225.0661996959243,l,1.349809433100745,10,289,0,226.4344016800169,,227.9359365189448,,,,,,,,,,,,,,,,,,,,,,,,,,,,,,,,,,,,,,,,,,,,,,,,,,,,,,,,,,,,,,,,,,,,,,33606,2022-11-17_14h05.11.770,vts_reward_expectancy_bt_OFFLINE,2022.2.4,59.9301724871312,
0,0,0,1,1,0,0,0,star,triangle,0,0,0,0,3,10,46,9,,,,,,,,,,,,,,,,,,,,,,,,,,,,,,,,,,,,,,,,228.43667721399106,228.43667721399106,228.43667721399106,228.43667721399106,228.43667721399106,228.43667721399106,228.43667721399106,228.43667721399106,228.43667721399106,228.43667721399106,l,1.3311387689318508,1,290,0,229.78820871096104,,231.28968497598544,,,,,,,,,,,,,,,,,,,,,,,,,,,,,,,,,,,,,,,,,,,,,,,,,,,,,,,,,,,,,,,,,,,,,,33606,2022-11-17_14h05.11.770,vts_reward_expectancy_bt_OFFLINE,2022.2.4,59.9301724871312,
0,0,1,0,1,0,0,0,hexagon,triangle,0,0,0,0,3,11,47,6,,,,,,,,,,,,,,,,,,,,,,,,,,,,,,,,,,,,,,,,231.79055041400716,231.79055041400716,231.79055041400716,231.79055041400716,231.79055041400716,231.79055041400716,231.79055041400716,231.79055041400716,231.79055041400716,231.79055041400716,a,1.8473960089031607,10,300,0,233.65903329104185,235.16081765084527,235.16081765084527,,,,,,,,,,,,,,,,,,,,,,,,,,,,,,,,,,,,,,,,,,,,,,,,,,,,,,,,,,,,,,,,,,,,,,33606,2022-11-17_14h05.11.770,vts_reward_expectancy_bt_OFFLINE,2022.2.4,59.9301724871312,
0,0,1,0,0,1,0,0,hexagon,circle,1,0,1,0,0,0,0,7,,,,,,,,,,,,,,,,,,,,,,,,,,,,,,,,,,,,,,,,242.43531491793692,242.43531491793692,242.43531491793692,242.43531491793692,242.43531491793692,242.43531491793692,242.43531491793692,242.43531491793692,242.43531491793692,242.43531491793692,a,1.0250204890035093,1,301,1,243.48644012585282,,244.98805896984413,,,,,,,,,,,,,,,,,,,,,,,,,,,,,,,,,,,,,,,,,,,,,,,,,,,,,,,,,,,,,,,,,,,,,,33606,2022-11-17_14h05.11.770,vts_reward_expectancy_bt_OFFLINE,2022.2.4,59.9301724871312,
0,0,0,1,0,1,0,0,star ,circle,1,0,1,0,0,1,1,10,,,,,,,,,,,,,,,,,,,,,,,,,,,,,,,,,,,,,,,,245.488821829902,245.488821829902,245.488821829902,245.488821829902,245.488821829902,245.488821829902,245.488821829902,245.488821829902,245.488821829902,245.488821829902,a,1.278769925935194,1,302,1,246.79022994590923,,248.29192677000538,,,,,,,,,,,,,,,,,,,,,,,,,,,,,,,,,,,,,,,,,,,,,,,,,,,,,,,,,,,,,,,,,,,,,,33606,2022-11-17_14h05.11.770,vts_reward_expectancy_bt_OFFLINE,2022.2.4,59.9301724871312,
0,0,1,0,0,0,0,1,hexagon,star,1,0,1,0,0,2,2,8,,,,,,,,,,,,,,,,,,,,,,,,,,,,,,,,,,,,,,,,248.79232293902896,248.79232293902896,248.79232293902896,248.79232293902896,248.79232293902896,248.79232293902896,248.79232293902896,248.79232293902896,248.79232293902896,248.79232293902896,l,1.0461410658899695,1,303,1,249.86029371595941,,251.36189245595597,,,,,,,,,,,,,,,,,,,,,,,,,,,,,,,,,,,,,,,,,,,,,,,,,,,,,,,,,,,,,,,,,,,,,,33606,2022-11-17_14h05.11.770,vts_reward_expectancy_bt_OFFLINE,2022.2.4,59.9301724871312,
0,0,0,1,0,0,1,0,star,hexagon,1,0,1,0,0,3,3,11,,,,,,,,,,,,,,,,,,,,,,,,,,,,,,,,,,,,,,,,251.8623591628857,251.8623591628857,251.8623591628857,251.8623591628857,251.8623591628857,251.8623591628857,251.8623591628857,251.8623591628857,251.8623591628857,251.8623591628857,l,0.8245161869563162,1,304,1,252.71343022305518,,254.2151346548926,,,,,,,,,,,,,,,,,,,,,,,,,,,,,,,,,,,,,,,,,,,,,,,,,,,,,,,,,,,,,,,,,,,,,,33606,2022-11-17_14h05.11.770,vts_reward_expectancy_bt_OFFLINE,2022.2.4,59.9301724871312,
0,0,0,1,1,0,0,0,star,triangle,1,0,1,0,0,4,4,9,,,,,,,,,,,,,,,,,,,,,,,,,,,,,,,,,,,,,,,,254.71561891492456,254.71561891492456,254.71561891492456,254.71561891492456,254.71561891492456,254.71561891492456,254.71561891492456,254.71561891492456,254.71561891492456,254.71561891492456,l,0.9290500399656594,1,305,1,255.66659071296453,,257.16822293098085,,,,,,,,,,,,,,,,,,,,,,,,,,,,,,,,,,,,,,,,,,,,,,,,,,,,,,,,,,,,,,,,,,,,,,33606,2022-11-17_14h05.11.770,vts_reward_expectancy_bt_OFFLINE,2022.2.4,59.9301724871312,
0,1,0,0,1,0,0,0,circle,triangle,1,0,1,0,0,5,5,3,,,,,,,,,,,,,,,,,,,,,,,,,,,,,,,,,,,,,,,,257.668637115974,257.668637115974,257.668637115974,257.668637115974,257.668637115974,257.668637115974,257.668637115974,257.668637115974,257.668637115974,257.668637115974,a,0.8216982199810445,10,315,1,258.5198195190169,,260.02156636398286,,,,,,,,,,,,,,,,,,,,,,,,,,,,,,,,,,,,,,,,,,,,,,,,,,,,,,,,,,,,,,,,,,,,,,33606,2022-11-17_14h05.11.770,vts_reward_expectancy_bt_OFFLINE,2022.2.4,59.9301724871312,
0,1,0,0,0,0,1,0,circle,hexagon,1,0,1,0,0,6,6,4,,,,,,,,,,,,,,,,,,,,,,,,,,,,,,,,,,,,,,,,260.52180179883726,260.52180179883726,260.52180179883726,260.52180179883726,260.52180179883726,260.52180179883726,260.52180179883726,260.52180179883726,260.52180179883726,260.52180179883726,a,2.3572460119612515,10,325,1,262.90778184495866,,264.40937400306575,,,,,,,,,,,,,,,,,,,,,,,,,,,,,,,,,,,,,,,,,,,,,,,,,,,,,,,,,,,,,,,,,,,,,,33606,2022-11-17_14h05.11.770,vts_reward_expectancy_bt_OFFLINE,2022.2.4,59.9301724871312,
1,0,0,0,0,1,0,0,triangle,circle,1,0,1,0,0,7,7,0,,,,,,,,,,,,,,,,,,,,,,,,,,,,,,,,,,,,,,,,264.91021741903387,264.91021741903387,264.91021741903387,264.91021741903387,264.91021741903387,264.91021741903387,264.91021741903387,264.91021741903387,264.91021741903387,264.91021741903387,a,0.7024463720154017,1,326,1,265.64408180397004,,267.14576195389964,,,,,,,,,,,,,,,,,,,,,,,,,,,,,,,,,,,,,,,,,,,,,,,,,,,,,,,,,,,,,,,,,,,,,,33606,2022-11-17_14h05.11.770,vts_reward_expectancy_bt_OFFLINE,2022.2.4,59.9301724871312,
0,0,1,0,1,0,0,0,hexagon,triangle,1,0,1,0,0,8,8,6,,,,,,,,,,,,,,,,,,,,,,,,,,,,,,,,,,,,,,,,267.64612764306366,267.64612764306366,267.64612764306366,267.64612764306366,267.64612764306366,267.64612764306366,267.64612764306366,267.64612764306366,267.64612764306366,267.64612764306366,l,1.3194440980441868,1,327,1,268.997923695948,,270.4995081280358,,,,,,,,,,,,,,,,,,,,,,,,,,,,,,,,,,,,,,,,,,,,,,,,,,,,,,,,,,,,,,,,,,,,,,33606,2022-11-17_14h05.11.770,vts_reward_expectancy_bt_OFFLINE,2022.2.4,59.9301724871312,
0,1,0,0,0,0,0,1,circle,star,1,0,1,0,0,9,9,5,,,,,,,,,,,,,,,,,,,,,,,,,,,,,,,,,,,,,,,,271.0001752129756,271.0001752129756,271.0001752129756,271.0001752129756,271.0001752129756,271.0001752129756,271.0001752129756,271.0001752129756,271.0001752129756,271.0001752129756,l,0.9923862109426409,10,337,1,272.01801969786175,,273.5192806860432,,,,,,,,,,,,,,,,,,,,,,,,,,,,,,,,,,,,,,,,,,,,,,,,,,,,,,,,,,,,,,,,,,,,,,33606,2022-11-17_14h05.11.770,vts_reward_expectancy_bt_OFFLINE,2022.2.4,59.9301724871312,
1,0,0,0,0,0,1,0,triangle,hexagon,1,0,1,0,0,10,10,1,,,,,,,,,,,,,,,,,,,,,,,,,,,,,,,,,,,,,,,,274.0200687178876,274.0200687178876,274.0200687178876,274.0200687178876,274.0200687178876,274.0200687178876,274.0200687178876,274.0200687178876,274.0200687178876,274.0200687178876,l,0.7961385198868811,1,338,1,274.83777753985487,,276.3392290859483,,,,,,,,,,,,,,,,,,,,,,,,,,,,,,,,,,,,,,,,,,,,,,,,,,,,,,,,,,,,,,,,,,,,,,33606,2022-11-17_14h05.11.770,vts_reward_expectancy_bt_OFFLINE,2022.2.4,59.9301724871312,
1,0,0,0,0,0,0,1,triangle,star,1,0,1,0,0,11,11,2,,,,,,,,,,,,,,,,,,,,,,,,,,,,,,,,,,,,,,,,276.83993405499496,276.83993405499496,276.83993405499496,276.83993405499496,276.83993405499496,276.83993405499496,276.83993405499496,276.83993405499496,276.83993405499496,276.83993405499496,l,1.3744563609361649,1,339,1,278.24110110104084,,279.7432766938582,,,,,,,,,,,,,,,,,,,,,,,,,,,,,,,,,,,,,,,,,,,,,,,,,,,,,,,,,,,,,,,,,,,,,,33606,2022-11-17_14h05.11.770,vts_reward_expectancy_bt_OFFLINE,2022.2.4,59.9301724871312,
0,1,0,0,0,0,0,1,circle,star,1,0,1,0,1,0,12,5,,,,,,,,,,,,,,,,,,,,,,,,,,,,,,,,,,,,,,,,280.2435066679027,280.2435066679027,280.2435066679027,280.2435066679027,280.2435066679027,280.2435066679027,280.2435066679027,280.2435066679027,280.2435066679027,280.2435066679027,a,0.5125293128658086,10,349,1,280.7776859488804,,282.2794136009179,,,,,,,,,,,,,,,,,,,,,,,,,,,,,,,,,,,,,,,,,,,,,,,,,,,,,,,,,,,,,,,,,,,,,,33606,2022-11-17_14h05.11.770,vts_reward_expectancy_bt_OFFLINE,2022.2.4,59.9301724871312,
1,0,0,0,0,0,0,1,triangle,star,1,0,1,0,1,1,13,2,,,,,,,,,,,,,,,,,,,,,,,,,,,,,,,,,,,,,,,,282.7797729310114,282.7797729310114,282.7797729310114,282.7797729310114,282.7797729310114,282.7797729310114,282.7797729310114,282.7797729310114,282.7797729310114,282.7797729310114,a,1.1261825130786747,1,350,1,283.9312004689127,,285.43256071885116,,,,,,,,,,,,,,,,,,,,,,,,,,,,,,,,,,,,,,,,,,,,,,,,,,,,,,,,,,,,,,,,,,,,,,33606,2022-11-17_14h05.11.770,vts_reward_expectancy_bt_OFFLINE,2022.2.4,59.9301724871312,
0,0,1,0,0,0,0,1,hexagon,star,1,0,1,0,1,2,14,8,,,,,,,,,,,,,,,,,,,,,,,,,,,,,,,,,,,,,,,,285.9334357029293,285.9334357029293,285.9334357029293,285.9334357029293,285.9334357029293,285.9334357029293,285.9334357029293,285.9334357029293,285.9334357029293,285.9334357029293,a,1.349747547879815,1,351,1,287.30154409399256,,288.80285066901706,,,,,,,,,,,,,,,,,,,,,,,,,,,,,,,,,,,,,,,,,,,,,,,,,,,,,,,,,,,,,,,,,,,,,,33606,2022-11-17_14h05.11.770,vts_reward_expectancy_bt_OFFLINE,2022.2.4,59.9301724871312,
1,0,0,0,0,1,0,0,triangle,circle,1,0,1,0,1,3,15,0,,,,,,,,,,,,,,,,,,,,,,,,,,,,,,,,,,,,,,,,289.3037244528532,289.3037244528532,289.3037244528532,289.3037244528532,289.3037244528532,289.3037244528532,289.3037244528532,289.3037244528532,289.3037244528532,289.3037244528532,l,3.1878915019333363,10,361,1,292.52387176803313,,294.02573328488506,,,,,,,,,,,,,,,,,,,,,,,,,,,,,,,,,,,,,,,,,,,,,,,,,,,,,,,,,,,,,,,,,,,,,,33606,2022-11-17_14h05.11.770,vts_reward_expectancy_bt_OFFLINE,2022.2.4,59.9301724871312,
0,0,1,0,0,1,0,0,hexagon,circle,1,0,1,0,1,4,16,7,,,,,,,,,,,,,,,,,,,,,,,,,,,,,,,,,,,,,,,,294.5261368378997,294.5261368378997,294.5261368378997,294.5261368378997,294.5261368378997,294.5261368378997,294.5261368378997,294.5261368378997,294.5261368378997,294.5261368378997,a,1.1157986319158226,10,371,1,295.66090694093145,,297.16231283405796,,,,,,,,,,,,,,,,,,,,,,,,,,,,,,,,,,,,,,,,,,,,,,,,,,,,,,,,,,,,,,,,,,,,,,33606,2022-11-17_14h05.11.770,vts_reward_expectancy_bt_OFFLINE,2022.2.4,59.9301724871312,
0,0,0,1,0,0,1,0,star,hexagon,1,0,1,0,1,5,17,11,,,,,,,,,,,,,,,,,,,,,,,,,,,,,,,,,,,,,,,,297.6628875499591,297.6628875499591,297.6628875499591,297.6628875499591,297.6628875499591,297.6628875499591,297.6628875499591,297.6628875499591,297.6628875499591,297.6628875499591,l,4.8876870789099485,10,381,1,302.5683494140394,304.0699587329291,304.0699587329291,,,,,,,,,,,,,,,,,,,,,,,,,,,,,,,,,,,,,,,,,,,,,,,,,,,,,,,,,,,,,,,,,,,,,,33606,2022-11-17_14h05.11.770,vts_reward_expectancy_bt_OFFLINE,2022.2.4,59.9301724871312,
0,0,0,1,1,0,0,0,star,triangle,1,0,1,0,1,6,18,9,,,,,,,,,,,,,,,,,,,,,,,,,,,,,,,,,,,,,,,,304.5704843800049,304.5704843800049,304.5704843800049,304.5704843800049,304.5704843800049,304.5704843800049,304.5704843800049,304.5704843800049,304.5704843800049,304.5704843800049,a,3.33516525500454,10,391,1,307.92399599496275,,309.4258302480448,,,,,,,,,,,,,,,,,,,,,,,,,,,,,,,,,,,,,,,,,,,,,,,,,,,,,,,,,,,,,,,,,,,,,,33606,2022-11-17_14h05.11.770,vts_reward_expectancy_bt_OFFLINE,2022.2.4,59.9301724871312,
1,0,0,0,0,0,1,0,triangle,hexagon,1,0,1,0,1,7,19,1,,,,,,,,,,,,,,,,,,,,,,,,,,,,,,,,,,,,,,,,309.9263684200123,309.9263684200123,309.9263684200123,309.9263684200123,309.9263684200123,309.9263684200123,309.9263684200123,309.9263684200123,309.9263684200123,309.9263684200123,l,0.8128400738351047,1,392,1,310.7606214948464,,312.26240272284485,,,,,,,,,,,,,,,,,,,,,,,,,,,,,,,,,,,,,,,,,,,,,,,,,,,,,,,,,,,,,,,,,,,,,,33606,2022-11-17_14h05.11.770,vts_reward_expectancy_bt_OFFLINE,2022.2.4,59.9301724871312,
0,1,0,0,0,0,1,0,circle,hexagon,1,0,1,0,1,8,20,4,,,,,,,,,,,,,,,,,,,,,,,,,,,,,,,,,,,,,,,,312.76270865486003,312.76270865486003,312.76270865486003,312.76270865486003,312.76270865486003,312.76270865486003,312.76270865486003,312.76270865486003,312.76270865486003,312.76270865486003,a,0.6429100898094475,10,402,1,313.43024082598276,,314.93189640995115,,,,,,,,,,,,,,,,,,,,,,,,,,,,,,,,,,,,,,,,,,,,,,,,,,,,,,,,,,,,,,,,,,,,,,33606,2022-11-17_14h05.11.770,vts_reward_expectancy_bt_OFFLINE,2022.2.4,59.9301724871312,
0,0,0,1,0,1,0,0,star ,circle,1,0,1,0,1,9,21,10,,,,,,,,,,,,,,,,,,,,,,,,,,,,,,,,,,,,,,,,315.43244446092285,315.43244446092285,315.43244446092285,315.43244446092285,315.43244446092285,315.43244446092285,315.43244446092285,315.43244446092285,315.43244446092285,315.43244446092285,a,0.8664356379304081,10,412,1,316.31673132488504,,317.81853757286444,,,,,,,,,,,,,,,,,,,,,,,,,,,,,,,,,,,,,,,,,,,,,,,,,,,,,,,,,,,,,,,,,,,,,,33606,2022-11-17_14h05.11.770,vts_reward_expectancy_bt_OFFLINE,2022.2.4,59.9301724871312,
0,0,1,0,1,0,0,0,hexagon,triangle,1,0,1,0,1,10,22,6,,,,,,,,,,,,,,,,,,,,,,,,,,,,,,,,,,,,,,,,318.3189830239862,318.3189830239862,318.3189830239862,318.3189830239862,318.3189830239862,318.3189830239862,318.3189830239862,318.3189830239862,318.3189830239862,318.3189830239862,l,0.9167883568443358,10,422,1,319.2532039878424,320.7549734590575,320.7549734590575,,,,,,,,,,,,,,,,,,,,,,,,,,,,,,,,,,,,,,,,,,,,,,,,,,,,,,,,,,,,,,,,,,,,,,33606,2022-11-17_14h05.11.770,vts_reward_expectancy_bt_OFFLINE,2022.2.4,59.9301724871312,
0,1,0,0,1,0,0,0,circle,triangle,1,0,1,0,1,11,23,3,,,,,,,,,,,,,,,,,,,,,,,,,,,,,,,,,,,,,,,,321.25553232594393,321.25553232594393,321.25553232594393,321.25553232594393,321.25553232594393,321.25553232594393,321.25553232594393,321.25553232594393,321.25553232594393,321.25553232594393,l,1.0617025538813323,10,432,1,322.3401525809895,,323.8419848140329,,,,,,,,,,,,,,,,,,,,,,,,,,,,,,,,,,,,,,,,,,,,,,,,,,,,,,,,,,,,,,,,,,,,,,33606,2022-11-17_14h05.11.770,vts_reward_expectancy_bt_OFFLINE,2022.2.4,59.9301724871312,
1,0,0,0,0,0,1,0,triangle,hexagon,1,0,1,0,2,0,24,1,,,,,,,,,,,,,,,,,,,,,,,,,,,,,,,,,,,,,,,,324.34233899391256,324.34233899391256,324.34233899391256,324.34233899391256,324.34233899391256,324.34233899391256,324.34233899391256,324.34233899391256,324.34233899391256,324.34233899391256,a,1.0117573528550565,1,433,1,325.37683347798884,326.87833102885634,326.87833102885634,,,,,,,,,,,,,,,,,,,,,,,,,,,,,,,,,,,,,,,,,,,,,,,,,,,,,,,,,,,,,,,,,,,,,,33606,2022-11-17_14h05.11.770,vts_reward_expectancy_bt_OFFLINE,2022.2.4,59.9301724871312,
0,0,1,0,1,0,0,0,hexagon,triangle,1,0,1,0,2,1,25,6,,,,,,,,,,,,,,,,,,,,,,,,,,,,,,,,,,,,,,,,327.37912995601073,327.37912995601073,327.37912995601073,327.37912995601073,327.37912995601073,327.37912995601073,327.37912995601073,327.37912995601073,327.37912995601073,327.37912995601073,a,0.6301354649476707,10,443,1,328.0297435950488,,329.5315088890493,,,,,,,,,,,,,,,,,,,,,,,,,,,,,,,,,,,,,,,,,,,,,,,,,,,,,,,,,,,,,,,,,,,,,,33606,2022-11-17_14h05.11.770,vts_reward_expectancy_bt_OFFLINE,2022.2.4,59.9301724871312,
0,0,0,1,0,1,0,0,star ,circle,1,0,1,0,2,2,26,10,,,,,,,,,,,,,,,,,,,,,,,,,,,,,,,,,,,,,,,,330.0321157500148,330.0321157500148,330.0321157500148,330.0321157500148,330.0321157500148,330.0321157500148,330.0321157500148,330.0321157500148,330.0321157500148,330.0321157500148,l,1.318959629163146,10,453,1,331.3836048899684,,332.88511739787646,,,,,,,,,,,,,,,,,,,,,,,,,,,,,,,,,,,,,,,,,,,,,,,,,,,,,,,,,,,,,,,,,,,,,,33606,2022-11-17_14h05.11.770,vts_reward_expectancy_bt_OFFLINE,2022.2.4,59.9301724871312,
0,1,0,0,1,0,0,0,circle,triangle,1,0,1,0,2,3,27,3,,,,,,,,,,,,,,,,,,,,,,,,,,,,,,,,,,,,,,,,333.3855606238358,333.3855606238358,333.3855606238358,333.3855606238358,333.3855606238358,333.3855606238358,333.3855606238358,333.3855606238358,333.3855606238358,333.3855606238358,a,1.9373948001302779,10,463,1,335.35441447305493,,336.8563254598994,,,,,,,,,,,,,,,,,,,,,,,,,,,,,,,,,,,,,,,,,,,,,,,,,,,,,,,,,,,,,,,,,,,,,,33606,2022-11-17_14h05.11.770,vts_reward_expectancy_bt_OFFLINE,2022.2.4,59.9301724871312,
1,0,0,0,0,0,0,1,triangle,star,1,0,1,0,2,4,28,2,,,,,,,,,,,,,,,,,,,,,,,,,,,,,,,,,,,,,,,,337.35677426098846,337.35677426098846,337.35677426098846,337.35677426098846,337.35677426098846,337.35677426098846,337.35677426098846,337.35677426098846,337.35677426098846,337.35677426098846,l,1.5341488260310143,10,473,1,338.9083203829359,,340.4099400008563,,,,,,,,,,,,,,,,,,,,,,,,,,,,,,,,,,,,,,,,,,,,,,,,,,,,,,,,,,,,,,,,,,,,,,33606,2022-11-17_14h05.11.770,vts_reward_expectancy_bt_OFFLINE,2022.2.4,59.9301724871312,
0,0,1,0,0,0,0,1,hexagon,star,1,0,1,0,2,5,29,8,,,,,,,,,,,,,,,,,,,,,,,,,,,,,,,,,,,,,,,,340.9104629398789,340.9104629398789,340.9104629398789,340.9104629398789,340.9104629398789,340.9104629398789,340.9104629398789,340.9104629398789,340.9104629398789,340.9104629398789,a,1.6693754270672798,1,474,1,342.61253461102024,,344.11415796284564,,,,,,,,,,,,,,,,,,,,,,,,,,,,,,,,,,,,,,,,,,,,,,,,,,,,,,,,,,,,,,,,,,,,,,33606,2022-11-17_14h05.11.770,vts_reward_expectancy_bt_OFFLINE,2022.2.4,59.9301724871312,
0,0,0,1,0,0,1,0,star,hexagon,1,0,1,0,2,6,30,11,,,,,,,,,,,,,,,,,,,,,,,,,,,,,,,,,,,,,,,,344.61468595289625,344.61468595289625,344.61468595289625,344.61468595289625,344.61468595289625,344.61468595289625,344.61468595289625,344.61468595289625,344.61468595289625,344.61468595289625,a,1.825328113976866,10,484,1,346.4665427908767,,347.9683474400081,,,,,,,,,,,,,,,,,,,,,,,,,,,,,,,,,,,,,,,,,,,,,,,,,,,,,,,,,,,,,,,,,,,,,,33606,2022-11-17_14h05.11.770,vts_reward_expectancy_bt_OFFLINE,2022.2.4,59.9301724871312,
0,0,1,0,0,1,0,0,hexagon,circle,1,0,1,0,2,7,31,7,,,,,,,,,,,,,,,,,,,,,,,,,,,,,,,,,,,,,,,,348.4689579110127,348.4689579110127,348.4689579110127,348.4689579110127,348.4689579110127,348.4689579110127,348.4689579110127,348.4689579110127,348.4689579110127,348.4689579110127,l,1.8741458249278367,10,494,1,350.37123417505063,,351.87281781900674,,,,,,,,,,,,,,,,,,,,,,,,,,,,,,,,,,,,,,,,,,,,,,,,,,,,,,,,,,,,,,,,,,,,,,33606,2022-11-17_14h05.11.770,vts_reward_expectancy_bt_OFFLINE,2022.2.4,59.9301724871312,
1,0,0,0,0,1,0,0,triangle,circle,1,0,1,0,2,8,32,0,,,,,,,,,,,,,,,,,,,,,,,,,,,,,,,,,,,,,,,,352.37343741301447,352.37343741301447,352.37343741301447,352.37343741301447,352.37343741301447,352.37343741301447,352.37343741301447,352.37343741301447,352.37343741301447,352.37343741301447,a,1.8522003351245075,10,504,1,354.24191445088945,355.7435465878807,355.7435465878807,,,,,,,,,,,,,,,,,,,,,,,,,,,,,,,,,,,,,,,,,,,,,,,,,,,,,,,,,,,,,,,,,,,,,,33606,2022-11-17_14h05.11.770,vts_reward_expectancy_bt_OFFLINE,2022.2.4,59.9301724871312,
0,1,0,0,0,0,0,1,circle,star,1,0,1,0,2,9,33,5,,,,,,,,,,,,,,,,,,,,,,,,,,,,,,,,,,,,,,,,356.2441952738445,356.2441952738445,356.2441952738445,356.2441952738445,356.2441952738445,356.2441952738445,356.2441952738445,356.2441952738445,356.2441952738445,356.2441952738445,a,1.1526833628304303,1,505,1,357.4289470098447,358.9304520050064,358.9304520050064,,,,,,,,,,,,,,,,,,,,,,,,,,,,,,,,,,,,,,,,,,,,,,,,,,,,,,,,,,,,,,,,,,,,,,33606,2022-11-17_14h05.11.770,vts_reward_expectancy_bt_OFFLINE,2022.2.4,59.9301724871312,
0,0,0,1,1,0,0,0,star,triangle,1,0,1,0,2,10,34,9,,,,,,,,,,,,,,,,,,,,,,,,,,,,,,,,,,,,,,,,359.43112703296356,359.43112703296356,359.43112703296356,359.43112703296356,359.43112703296356,359.43112703296356,359.43112703296356,359.43112703296356,359.43112703296356,359.43112703296356,a,1.1271465909667313,10,515,1,360.58229668485,,362.08402378088795,,,,,,,,,,,,,,,,,,,,,,,,,,,,,,,,,,,,,,,,,,,,,,,,,,,,,,,,,,,,,,,,,,,,,,33606,2022-11-17_14h05.11.770,vts_reward_expectancy_bt_OFFLINE,2022.2.4,59.9301724871312,
0,1,0,0,0,0,1,0,circle,hexagon,1,0,1,0,2,11,35,4,,,,,,,,,,,,,,,,,,,,,,,,,,,,,,,,,,,,,,,,362.5843743379228,362.5843743379228,362.5843743379228,362.5843743379228,362.5843743379228,362.5843743379228,362.5843743379228,362.5843743379228,362.5843743379228,362.5843743379228,l,0.876800887985155,10,525,1,363.4855332849547,,364.9872383540496,,,,,,,,,,,,,,,,,,,,,,,,,,,,,,,,,,,,,,,,,,,,,,,,,,,,,,,,,,,,,,,,,,,,,,33606,2022-11-17_14h05.11.770,vts_reward_expectancy_bt_OFFLINE,2022.2.4,59.9301724871312,
0,0,1,0,0,0,0,1,hexagon,star,1,0,1,0,3,0,36,8,,,,,,,,,,,,,,,,,,,,,,,,,,,,,,,,,,,,,,,,365.48779127793387,365.48779127793387,365.48779127793387,365.48779127793387,365.48779127793387,365.48779127793387,365.48779127793387,365.48779127793387,365.48779127793387,365.48779127793387,a,0.808910152874887,1,526,1,366.3219713049475,,367.82361158984713,,,,,,,,,,,,,,,,,,,,,,,,,,,,,,,,,,,,,,,,,,,,,,,,,,,,,,,,,,,,,,,,,,,,,,33606,2022-11-17_14h05.11.770,vts_reward_expectancy_bt_OFFLINE,2022.2.4,59.9301724871312,
1,0,0,0,0,1,0,0,triangle,circle,1,0,1,0,3,1,37,0,,,,,,,,,,,,,,,,,,,,,,,,,,,,,,,,,,,,,,,,368.3242238080129,368.3242238080129,368.3242238080129,368.3242238080129,368.3242238080129,368.3242238080129,368.3242238080129,368.3242238080129,368.3242238080129,368.3242238080129,a,1.2691217251121998,1,527,1,369.6255331649445,,371.1273975558579,,,,,,,,,,,,,,,,,,,,,,,,,,,,,,,,,,,,,,,,,,,,,,,,,,,,,,,,,,,,,,,,,,,,,,33606,2022-11-17_14h05.11.770,vts_reward_expectancy_bt_OFFLINE,2022.2.4,59.9301724871312,
0,0,0,1,0,0,1,0,star,hexagon,1,0,1,0,3,2,38,11,,,,,,,,,,,,,,,,,,,,,,,,,,,,,,,,,,,,,,,,371.62787030497566,371.62787030497566,371.62787030497566,371.62787030497566,371.62787030497566,371.62787030497566,371.62787030497566,371.62787030497566,371.62787030497566,371.62787030497566,l,1.1264674190897495,10,537,1,372.77908454090357,,374.2807423758786,,,,,,,,,,,,,,,,,,,,,,,,,,,,,,,,,,,,,,,,,,,,,,,,,,,,,,,,,,,,,,,,,,,,,,33606,2022-11-17_14h05.11.770,vts_reward_expectancy_bt_OFFLINE,2022.2.4,59.9301724871312,
0,1,0,0,0,0,1,0,circle,hexagon,1,0,1,0,3,3,39,4,,,,,,,,,,,,,,,,,,,,,,,,,,,,,,,,,,,,,,,,374.78148457291536,374.78148457291536,374.78148457291536,374.78148457291536,374.78148457291536,374.78148457291536,374.78148457291536,374.78148457291536,374.78148457291536,374.78148457291536,l,1.0889849399682134,1,538,1,375.89929562900215,,377.40099468594417,,,,,,,,,,,,,,,,,,,,,,,,,,,,,,,,,,,,,,,,,,,,,,,,,,,,,,,,,,,,,,,,,,,,,,33606,2022-11-17_14h05.11.770,vts_reward_expectancy_bt_OFFLINE,2022.2.4,59.9301724871312,
0,1,0,0,1,0,0,0,circle,triangle,1,0,1,0,3,4,40,3,,,,,,,,,,,,,,,,,,,,,,,,,,,,,,,,,,,,,,,,377.9014851609245,377.9014851609245,377.9014851609245,377.9014851609245,377.9014851609245,377.9014851609245,377.9014851609245,377.9014851609245,377.9014851609245,377.9014851609245,l,0.8601554930210114,1,539,1,378.7858278688509,,380.2873917738907,,,,,,,,,,,,,,,,,,,,,,,,,,,,,,,,,,,,,,,,,,,,,,,,,,,,,,,,,,,,,,,,,,,,,,33606,2022-11-17_14h05.11.770,vts_reward_expectancy_bt_OFFLINE,2022.2.4,59.9301724871312,
0,1,0,0,0,0,0,1,circle,star,1,0,1,0,3,5,41,5,,,,,,,,,,,,,,,,,,,,,,,,,,,,,,,,,,,,,,,,380.7878242789302,380.7878242789302,380.7878242789302,380.7878242789302,380.7878242789302,380.7878242789302,380.7878242789302,380.7878242789302,380.7878242789302,380.7878242789302,l,1.0022208387963474,1,540,1,381.8224355808925,,383.3240466690622,,,,,,,,,,,,,,,,,,,,,,,,,,,,,,,,,,,,,,,,,,,,,,,,,,,,,,,,,,,,,,,,,,,,,,33606,2022-11-17_14h05.11.770,vts_reward_expectancy_bt_OFFLINE,2022.2.4,59.9301724871312,
1,0,0,0,0,0,1,0,triangle,hexagon,1,0,1,0,3,6,42,1,,,,,,,,,,,,,,,,,,,,,,,,,,,,,,,,,,,,,,,,383.8245918939356,383.8245918939356,383.8245918939356,383.8245918939356,383.8245918939356,383.8245918939356,383.8245918939356,383.8245918939356,383.8245918939356,383.8245918939356,l,1.1701681239064783,10,550,1,385.02589534502476,,386.5276357878465,,,,,,,,,,,,,,,,,,,,,,,,,,,,,,,,,,,,,,,,,,,,,,,,,,,,,,,,,,,,,,,,,,,,,,33606,2022-11-17_14h05.11.770,vts_reward_expectancy_bt_OFFLINE,2022.2.4,59.9301724871312,
0,0,0,1,0,1,0,0,star ,circle,1,0,1,0,3,7,43,10,,,,,,,,,,,,,,,,,,,,,,,,,,,,,,,,,,,,,,,,387.0281408529263,387.0281408529263,387.0281408529263,387.0281408529263,387.0281408529263,387.0281408529263,387.0281408529263,387.0281408529263,387.0281408529263,387.0281408529263,a,0.7585184550844133,10,560,1,387.81233107089065,,389.3139810678549,,,,,,,,,,,,,,,,,,,,,,,,,,,,,,,,,,,,,,,,,,,,,,,,,,,,,,,,,,,,,,,,,,,,,,33606,2022-11-17_14h05.11.770,vts_reward_expectancy_bt_OFFLINE,2022.2.4,59.9301724871312,
1,0,0,0,0,0,0,1,triangle,star,1,0,1,0,3,8,44,2,,,,,,,,,,,,,,,,,,,,,,,,,,,,,,,,,,,,,,,,389.814618190052,389.814618190052,389.814618190052,389.814618190052,389.814618190052,389.814618190052,389.814618190052,389.814618190052,389.814618190052,389.814618190052,l,1.6171852650586516,1,561,1,391.44974355306476,,392.95144901797175,,,,,,,,,,,,,,,,,,,,,,,,,,,,,,,,,,,,,,,,,,,,,,,,,,,,,,,,,,,,,,,,,,,,,,33606,2022-11-17_14h05.11.770,vts_reward_expectancy_bt_OFFLINE,2022.2.4,59.9301724871312,
0,0,0,1,1,0,0,0,star,triangle,1,0,1,0,3,9,45,9,,,,,,,,,,,,,,,,,,,,,,,,,,,,,,,,,,,,,,,,393.4519953308627,393.4519953308627,393.4519953308627,393.4519953308627,393.4519953308627,393.4519953308627,393.4519953308627,393.4519953308627,393.4519953308627,393.4519953308627,a,1.6124204888474196,10,571,1,395.0871221809648,,396.5886528759729,,,,,,,,,,,,,,,,,,,,,,,,,,,,,,,,,,,,,,,,,,,,,,,,,,,,,,,,,,,,,,,,,,,,,,33606,2022-11-17_14h05.11.770,vts_reward_expectancy_bt_OFFLINE,2022.2.4,59.9301724871312,
0,0,1,0,0,1,0,0,hexagon,circle,1,0,1,0,3,10,46,7,,,,,,,,,,,,,,,,,,,,,,,,,,,,,,,,,,,,,,,,397.0892463880591,397.0892463880591,397.0892463880591,397.0892463880591,397.0892463880591,397.0892463880591,397.0892463880591,397.0892463880591,397.0892463880591,397.0892463880591,a,2.9485270609147847,10,581,1,400.05925682606176,,401.560883727856,,,,,,,,,,,,,,,,,,,,,,,,,,,,,,,,,,,,,,,,,,,,,,,,,,,,,,,,,,,,,,,,,,,,,,33606,2022-11-17_14h05.11.770,vts_reward_expectancy_bt_OFFLINE,2022.2.4,59.9301724871312,
0,0,1,0,1,0,0,0,hexagon,triangle,1,0,1,0,3,11,47,6,,,,,,,,,,,,,,,,,,,,,,,,,,,,,,,,,,,,,,,,402.0614449188579,402.0614449188579,402.0614449188579,402.0614449188579,402.0614449188579,402.0614449188579,402.0614449188579,402.0614449188579,402.0614449188579,402.0614449188579,a,2.161391699919477,1,582,1,404.24725035903975,,405.74896193598397,,,,,,,,,,,,,,,,,,,,,,,,,,,,,,,,,,,,,,,,,,,,,,,,,,,,,,,,,,,,,,,,,,,,,,33606,2022-11-17_14h05.11.770,vts_reward_expectancy_bt_OFFLINE,2022.2.4,59.9301724871312,
0,1,0,0,1,0,0,0,circle,triangle,2,0,2,0,0,0,0,3,,,,,,,,,,,,,,,,,,,,,,,,,,,,,,,,,,,,,,,,409.2694163909182,409.2694163909182,409.2694163909182,409.2694163909182,409.2694163909182,409.2694163909182,409.2694163909182,409.2694163909182,409.2694163909182,409.2694163909182,a,2.0305410269647837,10,592,2,411.3216879100073,412.8230668979231,412.8230668979231,,,,,,,,,,,,,,,,,,,,,,,,,,,,,,,,,,,,,,,,,,,,,,,,,,,,,,,,,,,,,,,,,,,,,,33606,2022-11-17_14h05.11.770,vts_reward_expectancy_bt_OFFLINE,2022.2.4,59.9301724871312,
0,0,1,0,0,0,0,1,hexagon,star,2,0,2,0,0,1,1,8,,,,,,,,,,,,,,,,,,,,,,,,,,,,,,,,,,,,,,,,413.3236425728537,413.3236425728537,413.3236425728537,413.3236425728537,413.3236425728537,413.3236425728537,413.3236425728537,413.3236425728537,413.3236425728537,413.3236425728537,l,1.463600818067789,10,602,2,414.8089499210473,,416.3104685000144,,,,,,,,,,,,,,,,,,,,,,,,,,,,,,,,,,,,,,,,,,,,,,,,,,,,,,,,,,,,,,,,,,,,,,33606,2022-11-17_14h05.11.770,vts_reward_expectancy_bt_OFFLINE,2022.2.4,59.9301724871312,
1,0,0,0,0,0,0,1,triangle,star,2,0,2,0,0,2,2,2,,,,,,,,,,,,,,,,,,,,,,,,,,,,,,,,,,,,,,,,416.81107435305603,416.81107435305603,416.81107435305603,416.81107435305603,416.81107435305603,416.81107435305603,416.81107435305603,416.81107435305603,416.81107435305603,416.81107435305603,l,1.5099250939674675,1,603,2,418.3460939738434,,419.8476284679491,,,,,,,,,,,,,,,,,,,,,,,,,,,,,,,,,,,,,,,,,,,,,,,,,,,,,,,,,,,,,,,,,,,,,,33606,2022-11-17_14h05.11.770,vts_reward_expectancy_bt_OFFLINE,2022.2.4,59.9301724871312,
0,1,0,0,0,0,1,0,circle,hexagon,2,0,2,0,0,3,3,4,,,,,,,,,,,,,,,,,,,,,,,,,,,,,,,,,,,,,,,,420.3482469529845,420.3482469529845,420.3482469529845,420.3482469529845,420.3482469529845,420.3482469529845,420.3482469529845,420.3482469529845,420.3482469529845,420.3482469529845,a,1.585349292960018,1,604,2,421.950208083028,423.45159976999275,423.45159976999275,,,,,,,,,,,,,,,,,,,,,,,,,,,,,,,,,,,,,,,,,,,,,,,,,,,,,,,,,,,,,,,,,,,,,,33606,2022-11-17_14h05.11.770,vts_reward_expectancy_bt_OFFLINE,2022.2.4,59.9301724871312,
1,0,0,0,0,0,1,0,triangle,hexagon,2,0,2,0,0,4,4,1,,,,,,,,,,,,,,,,,,,,,,,,,,,,,,,,,,,,,,,,423.95240316796117,423.95240316796117,423.95240316796117,423.95240316796117,423.95240316796117,423.95240316796117,423.95240316796117,423.95240316796117,423.95240316796117,423.95240316796117,l,2.4564558709971607,10,614,2,426.43827628786676,,427.9398560060654,,,,,,,,,,,,,,,,,,,,,,,,,,,,,,,,,,,,,,,,,,,,,,,,,,,,,,,,,,,,,,,,,,,,,,33606,2022-11-17_14h05.11.770,vts_reward_expectancy_bt_OFFLINE,2022.2.4,59.9301724871312,
0,1,0,0,0,0,0,1,circle,star,2,0,2,0,0,5,5,5,,,,,,,,,,,,,,,,,,,,,,,,,,,,,,,,,,,,,,,,428.4404998458922,428.4404998458922,428.4404998458922,428.4404998458922,428.4404998458922,428.4404998458922,428.4404998458922,428.4404998458922,428.4404998458922,428.4404998458922,a,2.581920067081228,1,615,2,431.04424941400066,,432.5450210929848,,,,,,,,,,,,,,,,,,,,,,,,,,,,,,,,,,,,,,,,,,,,,,,,,,,,,,,,,,,,,,,,,,,,,,33606,2022-11-17_14h05.11.770,vts_reward_expectancy_bt_OFFLINE,2022.2.4,59.9301724871312,
0,0,0,1,0,1,0,0,star ,circle,2,0,2,0,0,6,6,10,,,,,,,,,,,,,,,,,,,,,,,,,,,,,,,,,,,,,,,,433.04563766298816,433.04563766298816,433.04563766298816,433.04563766298816,433.04563766298816,433.04563766298816,433.04563766298816,433.04563766298816,433.04563766298816,433.04563766298816,a,0.9688114719465375,1,616,2,434.0466788630001,,435.54854297288693,,,,,,,,,,,,,,,,,,,,,,,,,,,,,,,,,,,,,,,,,,,,,,,,,,,,,,,,,,,,,,,,,,,,,,33606,2022-11-17_14h05.11.770,vts_reward_expectancy_bt_OFFLINE,2022.2.4,59.9301724871312,
0,0,1,0,0,1,0,0,hexagon,circle,2,0,2,0,0,7,7,7,,,,,,,,,,,,,,,,,,,,,,,,,,,,,,,,,,,,,,,,436.04911416885443,436.04911416885443,436.04911416885443,436.04911416885443,436.04911416885443,436.04911416885443,436.04911416885443,436.04911416885443,436.04911416885443,436.04911416885443,l,0.6428856758866459,1,617,2,436.71651579998434,,438.2179191960022,,,,,,,,,,,,,,,,,,,,,,,,,,,,,,,,,,,,,,,,,,,,,,,,,,,,,,,,,,,,,,,,,,,,,,33606,2022-11-17_14h05.11.770,vts_reward_expectancy_bt_OFFLINE,2022.2.4,59.9301724871312,
1,0,0,0,0,1,0,0,triangle,circle,2,0,2,0,0,8,8,0,,,,,,,,,,,,,,,,,,,,,,,,,,,,,,,,,,,,,,,,438.7185852958355,438.7185852958355,438.7185852958355,438.7185852958355,438.7185852958355,438.7185852958355,438.7185852958355,438.7185852958355,438.7185852958355,438.7185852958355,l,1.294529204024002,1,618,2,440.0364515779074,441.5390978688374,441.5390978688374,,,,,,,,,,,,,,,,,,,,,,,,,,,,,,,,,,,,,,,,,,,,,,,,,,,,,,,,,,,,,,,,,,,,,,33606,2022-11-17_14h05.11.770,vts_reward_expectancy_bt_OFFLINE,2022.2.4,59.9301724871312,
0,0,0,1,0,0,1,0,star,hexagon,2,0,2,0,0,9,9,11,,,,,,,,,,,,,,,,,,,,,,,,,,,,,,,,,,,,,,,,442.0389673828613,442.0389673828613,442.0389673828613,442.0389673828613,442.0389673828613,442.0389673828613,442.0389673828613,442.0389673828613,442.0389673828613,442.0389673828613,l,1.2465657428838313,10,628,2,443.3236295359675,,444.825174955884,,,,,,,,,,,,,,,,,,,,,,,,,,,,,,,,,,,,,,,,,,,,,,,,,,,,,,,,,,,,,,,,,,,,,,33606,2022-11-17_14h05.11.770,vts_reward_expectancy_bt_OFFLINE,2022.2.4,59.9301724871312,
0,0,0,1,1,0,0,0,star,triangle,2,0,2,0,0,10,10,9,,,,,,,,,,,,,,,,,,,,,,,,,,,,,,,,,,,,,,,,445.3257925689686,445.3257925689686,445.3257925689686,445.3257925689686,445.3257925689686,445.3257925689686,445.3257925689686,445.3257925689686,445.3257925689686,445.3257925689686,a,4.72251544194296,10,638,2,450.08106491784565,,451.58268640586175,,,,,,,,,,,,,,,,,,,,,,,,,,,,,,,,,,,,,,,,,,,,,,,,,,,,,,,,,,,,,,,,,,,,,,33606,2022-11-17_14h05.11.770,vts_reward_expectancy_bt_OFFLINE,2022.2.4,59.9301724871312,
0,0,1,0,1,0,0,0,hexagon,triangle,2,0,2,0,0,11,11,6,,,,,,,,,,,,,,,,,,,,,,,,,,,,,,,,,,,,,,,,452.08339653001167,452.08339653001167,452.08339653001167,452.08339653001167,452.08339653001167,452.08339653001167,452.08339653001167,452.08339653001167,452.08339653001167,452.08339653001167,a,0.9689931308384985,10,648,2,453.08457275805995,,454.585936747957,,,,,,,,,,,,,,,,,,,,,,,,,,,,,,,,,,,,,,,,,,,,,,,,,,,,,,,,,,,,,,,,,,,,,,33606,2022-11-17_14h05.11.770,vts_reward_expectancy_bt_OFFLINE,2022.2.4,59.9301724871312,
0,1,0,0,0,0,0,1,circle,star,2,0,2,0,1,0,12,5,,,,,,,,,,,,,,,,,,,,,,,,,,,,,,,,,,,,,,,,455.0865717208944,455.0865717208944,455.0865717208944,455.0865717208944,455.0865717208944,455.0865717208944,455.0865717208944,455.0865717208944,455.0865717208944,455.0865717208944,l,1.677914306987077,1,649,2,456.7884385960642,,458.2902834310662,,,,,,,,,,,,,,,,,,,,,,,,,,,,,,,,,,,,,,,,,,,,,,,,,,,,,,,,,,,,,,,,,,,,,,33606,2022-11-17_14h05.11.770,vts_reward_expectancy_bt_OFFLINE,2022.2.4,59.9301724871312,
0,0,1,0,0,0,0,1,hexagon,star,2,0,2,0,1,1,13,8,,,,,,,,,,,,,,,,,,,,,,,,,,,,,,,,,,,,,,,,458.79073871392757,458.79073871392757,458.79073871392757,458.79073871392757,458.79073871392757,458.79073871392757,458.79073871392757,458.79073871392757,458.79073871392757,458.79073871392757,a,1.7648094189353287,1,650,2,460.57585955783725,,462.0774803129025,,,,,,,,,,,,,,,,,,,,,,,,,,,,,,,,,,,,,,,,,,,,,,,,,,,,,,,,,,,,,,,,,,,,,,33606,2022-11-17_14h05.11.770,vts_reward_expectancy_bt_OFFLINE,2022.2.4,59.9301724871312,
0,0,0,1,0,1,0,0,star ,circle,2,0,2,0,1,2,14,10,,,,,,,,,,,,,,,,,,,,,,,,,,,,,,,,,,,,,,,,462.5781809729524,462.5781809729524,462.5781809729524,462.5781809729524,462.5781809729524,462.5781809729524,462.5781809729524,462.5781809729524,462.5781809729524,462.5781809729524,l,1.5684518869966269,10,660,2,464.16395811899565,465.6649807698559,465.6649807698559,,,,,,,,,,,,,,,,,,,,,,,,,,,,,,,,,,,,,,,,,,,,,,,,,,,,,,,,,,,,,,,,,,,,,,33606,2022-11-17_14h05.11.770,vts_reward_expectancy_bt_OFFLINE,2022.2.4,59.9301724871312,
0,0,0,1,1,0,0,0,star,triangle,2,0,2,0,1,3,15,9,,,,,,,,,,,,,,,,,,,,,,,,,,,,,,,,,,,,,,,,466.1655446989462,466.1655446989462,466.1655446989462,466.1655446989462,466.1655446989462,466.1655446989462,466.1655446989462,466.1655446989462,466.1655446989462,466.1655446989462,l,2.8050405418034643,1,661,2,469.00180792505853,,470.50354386586696,,,,,,,,,,,,,,,,,,,,,,,,,,,,,,,,,,,,,,,,,,,,,,,,,,,,,,,,,,,,,,,,,,,,,,33606,2022-11-17_14h05.11.770,vts_reward_expectancy_bt_OFFLINE,2022.2.4,59.9301724871312,
0,1,0,0,1,0,0,0,circle,triangle,2,0,2,0,1,4,16,3,,,,,,,,,,,,,,,,,,,,,,,,,,,,,,,,,,,,,,,,471.004228602862,471.004228602862,471.004228602862,471.004228602862,471.004228602862,471.004228602862,471.004228602862,471.004228602862,471.004228602862,471.004228602862,a,6.755610513035208,10,671,2,477.7784231950063,,479.2798696788959,,,,,,,,,,,,,,,,,,,,,,,,,,,,,,,,,,,,,,,,,,,,,,,,,,,,,,,,,,,,,,,,,,,,,,33606,2022-11-17_14h05.11.770,vts_reward_expectancy_bt_OFFLINE,2022.2.4,59.9301724871312,
0,0,0,1,0,0,1,0,star,hexagon,2,0,2,0,1,5,17,11,,,,,,,,,,,,,,,,,,,,,,,,,,,,,,,,,,,,,,,,479.78056251094677,479.78056251094677,479.78056251094677,479.78056251094677,479.78056251094677,479.78056251094677,479.78056251094677,479.78056251094677,479.78056251094677,479.78056251094677,l,0.9824258650187403,10,681,2,480.78145406395197,,482.28341810405254,,,,,,,,,,,,,,,,,,,,,,,,,,,,,,,,,,,,,,,,,,,,,,,,,,,,,,,,,,,,,,,,,,,,,,33606,2022-11-17_14h05.11.770,vts_reward_expectancy_bt_OFFLINE,2022.2.4,59.9301724871312,
1,0,0,0,0,0,1,0,triangle,hexagon,2,0,2,0,1,6,18,1,,,,,,,,,,,,,,,,,,,,,,,,,,,,,,,,,,,,,,,,482.7839300688356,482.7839300688356,482.7839300688356,482.7839300688356,482.7839300688356,482.7839300688356,482.7839300688356,482.7839300688356,482.7839300688356,482.7839300688356,a,1.0516445378307253,10,691,2,483.8683024379425,,485.3700109978672,,,,,,,,,,,,,,,,,,,,,,,,,,,,,,,,,,,,,,,,,,,,,,,,,,,,,,,,,,,,,,,,,,,,,,33606,2022-11-17_14h05.11.770,vts_reward_expectancy_bt_OFFLINE,2022.2.4,59.9301724871312,
0,1,0,0,0,0,1,0,circle,hexagon,2,0,2,0,1,7,19,4,,,,,,,,,,,,,,,,,,,,,,,,,,,,,,,,,,,,,,,,485.8705612558406,485.8705612558406,485.8705612558406,485.8705612558406,485.8705612558406,485.8705612558406,485.8705612558406,485.8705612558406,485.8705612558406,485.8705612558406,a,0.9213333590887487,10,701,2,486.82165971794166,,488.32338920398615,,,,,,,,,,,,,,,,,,,,,,,,,,,,,,,,,,,,,,,,,,,,,,,,,,,,,,,,,,,,,,,,,,,,,,33606,2022-11-17_14h05.11.770,vts_reward_expectancy_bt_OFFLINE,2022.2.4,59.9301724871312,
0,0,1,0,1,0,0,0,hexagon,triangle,2,0,2,0,1,8,20,6,,,,,,,,,,,,,,,,,,,,,,,,,,,,,,,,,,,,,,,,488.82369699305855,488.82369699305855,488.82369699305855,488.82369699305855,488.82369699305855,488.82369699305855,488.82369699305855,488.82369699305855,488.82369699305855,488.82369699305855,l,1.3684004959650338,1,702,2,490.20959883905016,491.7103913628962,491.7103913628962,,,,,,,,,,,,,,,,,,,,,,,,,,,,,,,,,,,,,,,,,,,,,,,,,,,,,,,,,,,,,,,,,,,,,,33606,2022-11-17_14h05.11.770,vts_reward_expectancy_bt_OFFLINE,2022.2.4,59.9301724871312,
1,0,0,0,0,1,0,0,triangle,circle,2,0,2,0,1,9,21,0,,,,,,,,,,,,,,,,,,,,,,,,,,,,,,,,,,,,,,,,492.210963975871,492.210963975871,492.210963975871,492.210963975871,492.210963975871,492.210963975871,492.210963975871,492.210963975871,492.210963975871,492.210963975871,l,1.9621956280898303,1,703,2,494.1965824740473,,495.6981449900195,,,,,,,,,,,,,,,,,,,,,,,,,,,,,,,,,,,,,,,,,,,,,,,,,,,,,,,,,,,,,,,,,,,,,,33606,2022-11-17_14h05.11.770,vts_reward_expectancy_bt_OFFLINE,2022.2.4,59.9301724871312,
0,0,1,0,0,1,0,0,hexagon,circle,2,0,2,0,1,10,22,7,,,,,,,,,,,,,,,,,,,,,,,,,,,,,,,,,,,,,,,,496.19876479986124,496.19876479986124,496.19876479986124,496.19876479986124,496.19876479986124,496.19876479986124,496.19876479986124,496.19876479986124,496.19876479986124,496.19876479986124,a,1.5085249787662178,1,704,2,497.73359761503525,,499.2353414108511,,,,,,,,,,,,,,,,,,,,,,,,,,,,,,,,,,,,,,,,,,,,,,,,,,,,,,,,,,,,,,,,,,,,,,33606,2022-11-17_14h05.11.770,vts_reward_expectancy_bt_OFFLINE,2022.2.4,59.9301724871312,
1,0,0,0,0,0,0,1,triangle,star,2,0,2,0,1,11,23,2,,,,,,,,,,,,,,,,,,,,,,,,,,,,,,,,,,,,,,,,499.73588907602243,499.73588907602243,499.73588907602243,499.73588907602243,499.73588907602243,499.73588907602243,499.73588907602243,499.73588907602243,499.73588907602243,499.73588907602243,l,0.9078351380303502,10,714,2,500.6705697339494,,502.1719437309075,,,,,,,,,,,,,,,,,,,,,,,,,,,,,,,,,,,,,,,,,,,,,,,,,,,,,,,,,,,,,,,,,,,,,,33606,2022-11-17_14h05.11.770,vts_reward_expectancy_bt_OFFLINE,2022.2.4,59.9301724871312,
0,1,0,0,1,0,0,0,circle,triangle,2,0,2,0,2,0,24,3,,,,,,,,,,,,,,,,,,,,,,,,,,,,,,,,,,,,,,,,502.67235135589726,502.67235135589726,502.67235135589726,502.67235135589726,502.67235135589726,502.67235135589726,502.67235135589726,502.67235135589726,502.67235135589726,502.67235135589726,a,1.5026618230622262,10,724,2,504.20750429993495,,505.709100154927,,,,,,,,,,,,,,,,,,,,,,,,,,,,,,,,,,,,,,,,,,,,,,,,,,,,,,,,,,,,,,,,,,,,,,33606,2022-11-17_14h05.11.770,vts_reward_expectancy_bt_OFFLINE,2022.2.4,59.9301724871312,
0,1,0,0,0,0,1,0,circle,hexagon,2,0,2,0,2,1,25,4,,,,,,,,,,,,,,,,,,,,,,,,,,,,,,,,,,,,,,,,506.20959685905837,506.20959685905837,506.20959685905837,506.20959685905837,506.20959685905837,506.20959685905837,506.20959685905837,506.20959685905837,506.20959685905837,506.20959685905837,l,1.498090737964958,1,725,2,507.72836122103035,,509.22966962098144,,,,,,,,,,,,,,,,,,,,,,,,,,,,,,,,,,,,,,,,,,,,,,,,,,,,,,,,,,,,,,,,,,,,,,33606,2022-11-17_14h05.11.770,vts_reward_expectancy_bt_OFFLINE,2022.2.4,59.9301724871312,
1,0,0,0,0,0,1,0,triangle,hexagon,2,0,2,0,2,2,26,1,,,,,,,,,,,,,,,,,,,,,,,,,,,,,,,,,,,,,,,,509.7300843850244,509.7300843850244,509.7300843850244,509.7300843850244,509.7300843850244,509.7300843850244,509.7300843850244,509.7300843850244,509.7300843850244,509.7300843850244,l,1.5218424580525607,1,726,2,511.28190470393747,,512.7835235090461,,,,,,,,,,,,,,,,,,,,,,,,,,,,,,,,,,,,,,,,,,,,,,,,,,,,,,,,,,,,,,,,,,,,,,33606,2022-11-17_14h05.11.770,vts_reward_expectancy_bt_OFFLINE,2022.2.4,59.9301724871312,
0,0,0,1,0,0,1,0,star,hexagon,2,0,2,0,2,3,27,11,,,,,,,,,,,,,,,,,,,,,,,,,,,,,,,,,,,,,,,,513.2841516928747,513.2841516928747,513.2841516928747,513.2841516928747,513.2841516928747,513.2841516928747,513.2841516928747,513.2841516928747,513.2841516928747,513.2841516928747,a,1.0393053248990327,10,736,2,514.3522904708516,,515.8538160249591,,,,,,,,,,,,,,,,,,,,,,,,,,,,,,,,,,,,,,,,,,,,,,,,,,,,,,,,,,,,,,,,,,,,,,33606,2022-11-17_14h05.11.770,vts_reward_expectancy_bt_OFFLINE,2022.2.4,59.9301724871312,
1,0,0,0,0,1,0,0,triangle,circle,2,0,2,0,2,4,28,0,,,,,,,,,,,,,,,,,,,,,,,,,,,,,,,,,,,,,,,,516.3542588378768,516.3542588378768,516.3542588378768,516.3542588378768,516.3542588378768,516.3542588378768,516.3542588378768,516.3542588378768,516.3542588378768,516.3542588378768,a,0.8942951420322061,1,737,2,517.2723817648366,,518.7736328360625,,,,,,,,,,,,,,,,,,,,,,,,,,,,,,,,,,,,,,,,,,,,,,,,,,,,,,,,,,,,,,,,,,,,,,33606,2022-11-17_14h05.11.770,vts_reward_expectancy_bt_OFFLINE,2022.2.4,59.9301724871312,
0,0,0,1,0,1,0,0,star ,circle,2,0,2,0,2,5,29,10,,,,,,,,,,,,,,,,,,,,,,,,,,,,,,,,,,,,,,,,519.2739922830369,519.2739922830369,519.2739922830369,519.2739922830369,519.2739922830369,519.2739922830369,519.2739922830369,519.2739922830369,519.2739922830369,519.2739922830369,a,0.9106780979782343,1,738,2,520.2083788500167,,521.7100287429057,,,,,,,,,,,,,,,,,,,,,,,,,,,,,,,,,,,,,,,,,,,,,,,,,,,,,,,,,,,,,,,,,,,,,,33606,2022-11-17_14h05.11.770,vts_reward_expectancy_bt_OFFLINE,2022.2.4,59.9301724871312,
0,0,1,0,0,1,0,0,hexagon,circle,2,0,2,0,2,6,30,7,,,,,,,,,,,,,,,,,,,,,,,,,,,,,,,,,,,,,,,,522.2106681410223,522.2106681410223,522.2106681410223,522.2106681410223,522.2106681410223,522.2106681410223,522.2106681410223,522.2106681410223,522.2106681410223,522.2106681410223,a,0.9782086329068989,1,739,2,523.2116833499167,,524.7133726689499,,,,,,,,,,,,,,,,,,,,,,,,,,,,,,,,,,,,,,,,,,,,,,,,,,,,,,,,,,,,,,,,,,,,,,33606,2022-11-17_14h05.11.770,vts_reward_expectancy_bt_OFFLINE,2022.2.4,59.9301724871312,
0,1,0,0,0,0,0,1,circle,star,2,0,2,0,2,7,31,5,,,,,,,,,,,,,,,,,,,,,,,,,,,,,,,,,,,,,,,,525.2140507260337,525.2140507260337,525.2140507260337,525.2140507260337,525.2140507260337,525.2140507260337,525.2140507260337,525.2140507260337,525.2140507260337,525.2140507260337,l,0.5285139929037541,10,749,2,525.7650757948868,,527.2663161240052,,,,,,,,,,,,,,,,,,,,,,,,,,,,,,,,,,,,,,,,,,,,,,,,,,,,,,,,,,,,,,,,,,,,,,33606,2022-11-17_14h05.11.770,vts_reward_expectancy_bt_OFFLINE,2022.2.4,59.9301724871312,
0,0,0,1,1,0,0,0,star,triangle,2,0,2,0,2,8,32,9,,,,,,,,,,,,,,,,,,,,,,,,,,,,,,,,,,,,,,,,527.7668497108389,527.7668497108389,527.7668497108389,527.7668497108389,527.7668497108389,527.7668497108389,527.7668497108389,527.7668497108389,527.7668497108389,527.7668497108389,a,0.7095502188894898,1,750,2,528.5010795160197,,530.0027606310323,,,,,,,,,,,,,,,,,,,,,,,,,,,,,,,,,,,,,,,,,,,,,,,,,,,,,,,,,,,,,,,,,,,,,,33606,2022-11-17_14h05.11.770,vts_reward_expectancy_bt_OFFLINE,2022.2.4,59.9301724871312,
1,0,0,0,0,0,0,1,triangle,star,2,0,2,0,2,9,33,2,,,,,,,,,,,,,,,,,,,,,,,,,,,,,,,,,,,,,,,,530.5030352510512,530.5030352510512,530.5030352510512,530.5030352510512,530.5030352510512,530.5030352510512,530.5030352510512,530.5030352510512,530.5030352510512,530.5030352510512,a,0.6961046829819679,10,760,2,531.2210281898733,,532.7221028800122,,,,,,,,,,,,,,,,,,,,,,,,,,,,,,,,,,,,,,,,,,,,,,,,,,,,,,,,,,,,,,,,,,,,,,33606,2022-11-17_14h05.11.770,vts_reward_expectancy_bt_OFFLINE,2022.2.4,59.9301724871312,
0,0,1,0,1,0,0,0,hexagon,triangle,2,0,2,0,2,10,34,6,,,,,,,,,,,,,,,,,,,,,,,,,,,,,,,,,,,,,,,,533.2226786308456,533.2226786308456,533.2226786308456,533.2226786308456,533.2226786308456,533.2226786308456,533.2226786308456,533.2226786308456,533.2226786308456,533.2226786308456,l,0.6096334720496088,10,770,2,533.8568207749631,,535.3585594550241,,,,,,,,,,,,,,,,,,,,,,,,,,,,,,,,,,,,,,,,,,,,,,,,,,,,,,,,,,,,,,,,,,,,,,33606,2022-11-17_14h05.11.770,vts_reward_expectancy_bt_OFFLINE,2022.2.4,59.9301724871312,
0,0,1,0,0,0,0,1,hexagon,star,2,0,2,0,2,11,35,8,,,,,,,,,,,,,,,,,,,,,,,,,,,,,,,,,,,,,,,,535.8592169878539,535.8592169878539,535.8592169878539,535.8592169878539,535.8592169878539,535.8592169878539,535.8592169878539,535.8592169878539,535.8592169878539,535.8592169878539,l,0.6183624097611755,10,780,2,536.5100033348426,,538.011351604946,,,,,,,,,,,,,,,,,,,,,,,,,,,,,,,,,,,,,,,,,,,,,,,,,,,,,,,,,,,,,,,,,,,,,,33606,2022-11-17_14h05.11.770,vts_reward_expectancy_bt_OFFLINE,2022.2.4,59.9301724871312,
1,0,0,0,0,1,0,0,triangle,circle,2,0,2,0,3,0,36,0,,,,,,,,,,,,,,,,,,,,,,,,,,,,,,,,,,,,,,,,538.5120489438996,538.5120489438996,538.5120489438996,538.5120489438996,538.5120489438996,538.5120489438996,538.5120489438996,538.5120489438996,538.5120489438996,538.5120489438996,a,0.5289741039741784,10,790,2,539.062483195914,,540.5642595379613,,,,,,,,,,,,,,,,,,,,,,,,,,,,,,,,,,,,,,,,,,,,,,,,,,,,,,,,,,,,,,,,,,,,,,33606,2022-11-17_14h05.11.770,vts_reward_expectancy_bt_OFFLINE,2022.2.4,59.9301724871312,
0,0,0,1,0,0,1,0,star,hexagon,2,0,2,0,3,1,37,11,,,,,,,,,,,,,,,,,,,,,,,,,,,,,,,,,,,,,,,,541.0647635429632,541.0647635429632,541.0647635429632,541.0647635429632,541.0647635429632,541.0647635429632,541.0647635429632,541.0647635429632,541.0647635429632,541.0647635429632,l,0.7230159959290177,1,791,2,541.8158494988456,,543.3171712178737,,,,,,,,,,,,,,,,,,,,,,,,,,,,,,,,,,,,,,,,,,,,,,,,,,,,,,,,,,,,,,,,,,,,,,33606,2022-11-17_14h05.11.770,vts_reward_expectancy_bt_OFFLINE,2022.2.4,59.9301724871312,
0,1,0,0,0,0,1,0,circle,hexagon,2,0,2,0,3,2,38,4,,,,,,,,,,,,,,,,,,,,,,,,,,,,,,,,,,,,,,,,543.8178556659259,543.8178556659259,543.8178556659259,543.8178556659259,543.8178556659259,543.8178556659259,543.8178556659259,543.8178556659259,543.8178556659259,543.8178556659259,a,0.40959860500879586,1,792,2,544.2516262580175,,545.7532665948384,,,,,,,,,,,,,,,,,,,,,,,,,,,,,,,,,,,,,,,,,,,,,,,,,,,,,,,,,,,,,,,,,,,,,,33606,2022-11-17_14h05.11.770,vts_reward_expectancy_bt_OFFLINE,2022.2.4,59.9301724871312,
0,0,1,0,1,0,0,0,hexagon,triangle,2,0,2,0,3,3,39,6,,,,,,,,,,,,,,,,,,,,,,,,,,,,,,,,,,,,,,,,546.2539572010282,546.2539572010282,546.2539572010282,546.2539572010282,546.2539572010282,546.2539572010282,546.2539572010282,546.2539572010282,546.2539572010282,546.2539572010282,a,0.5511609800159931,1,793,2,546.8378121929709,,548.3395096808672,,,,,,,,,,,,,,,,,,,,,,,,,,,,,,,,,,,,,,,,,,,,,,,,,,,,,,,,,,,,,,,,,,,,,,33606,2022-11-17_14h05.11.770,vts_reward_expectancy_bt_OFFLINE,2022.2.4,59.9301724871312,
1,0,0,0,0,0,1,0,triangle,hexagon,2,0,2,0,3,4,40,1,,,,,,,,,,,,,,,,,,,,,,,,,,,,,,,,,,,,,,,,548.8399737540167,548.8399737540167,548.8399737540167,548.8399737540167,548.8399737540167,548.8399737540167,548.8399737540167,548.8399737540167,548.8399737540167,548.8399737540167,a,0.6426397669129074,1,794,2,549.5074278740212,,551.0090113049373,,,,,,,,,,,,,,,,,,,,,,,,,,,,,,,,,,,,,,,,,,,,,,,,,,,,,,,,,,,,,,,,,,,,,,33606,2022-11-17_14h05.11.770,vts_reward_expectancy_bt_OFFLINE,2022.2.4,59.9301724871312,
0,0,1,0,0,1,0,0,hexagon,circle,2,0,2,0,3,5,41,7,,,,,,,,,,,,,,,,,,,,,,,,,,,,,,,,,,,,,,,,551.5095492789987,551.5095492789987,551.5095492789987,551.5095492789987,551.5095492789987,551.5095492789987,551.5095492789987,551.5095492789987,551.5095492789987,551.5095492789987,l,0.5508225888479501,1,795,2,552.0770560209639,553.5785939130001,553.5785939130001,,,,,,,,,,,,,,,,,,,,,,,,,,,,,,,,,,,,,,,,,,,,,,,,,,,,,,,,,,,,,,,,,,,,,,33606,2022-11-17_14h05.11.770,vts_reward_expectancy_bt_OFFLINE,2022.2.4,59.9301724871312,
1,0,0,0,0,0,0,1,triangle,star,2,0,2,0,3,6,42,2,,,,,,,,,,,,,,,,,,,,,,,,,,,,,,,,,,,,,,,,554.0791135209147,554.0791135209147,554.0791135209147,554.0791135209147,554.0791135209147,554.0791135209147,554.0791135209147,554.0791135209147,554.0791135209147,554.0791135209147,l,0.5223565849009901,10,805,2,554.6302868758794,,556.1315500540659,,,,,,,,,,,,,,,,,,,,,,,,,,,,,,,,,,,,,,,,,,,,,,,,,,,,,,,,,,,,,,,,,,,,,,33606,2022-11-17_14h05.11.770,vts_reward_expectancy_bt_OFFLINE,2022.2.4,59.9301724871312,
0,0,0,1,1,0,0,0,star,triangle,2,0,2,0,3,7,43,9,,,,,,,,,,,,,,,,,,,,,,,,,,,,,,,,,,,,,,,,556.6319580329582,556.6319580329582,556.6319580329582,556.6319580329582,556.6319580329582,556.6319580329582,556.6319580329582,556.6319580329582,556.6319580329582,556.6319580329582,a,0.5114402309991419,10,815,2,557.1660204960499,,558.6676435058471,,,,,,,,,,,,,,,,,,,,,,,,,,,,,,,,,,,,,,,,,,,,,,,,,,,,,,,,,,,,,,,,,,,,,,33606,2022-11-17_14h05.11.770,vts_reward_expectancy_bt_OFFLINE,2022.2.4,59.9301724871312,
0,1,0,0,1,0,0,0,circle,triangle,2,0,2,0,3,8,44,3,,,,,,,,,,,,,,,,,,,,,,,,,,,,,,,,,,,,,,,,559.1682490729727,559.1682490729727,559.1682490729727,559.1682490729727,559.1682490729727,559.1682490729727,559.1682490729727,559.1682490729727,559.1682490729727,559.1682490729727,a,0.8221435379236937,10,825,2,560.018936634995,,561.520596876042,,,,,,,,,,,,,,,,,,,,,,,,,,,,,,,,,,,,,,,,,,,,,,,,,,,,,,,,,,,,,,,,,,,,,,33606,2022-11-17_14h05.11.770,vts_reward_expectancy_bt_OFFLINE,2022.2.4,59.9301724871312,
0,0,0,1,0,1,0,0,star ,circle,2,0,2,0,3,9,45,10,,,,,,,,,,,,,,,,,,,,,,,,,,,,,,,,,,,,,,,,562.021253101062,562.021253101062,562.021253101062,562.021253101062,562.021253101062,562.021253101062,562.021253101062,562.021253101062,562.021253101062,562.021253101062,l,0.6690012288745493,1,826,2,562.722045263974,,564.2237430310342,,,,,,,,,,,,,,,,,,,,,,,,,,,,,,,,,,,,,,,,,,,,,,,,,,,,,,,,,,,,,,,,,,,,,,33606,2022-11-17_14h05.11.770,vts_reward_expectancy_bt_OFFLINE,2022.2.4,59.9301724871312,
0,0,1,0,0,0,0,1,hexagon,star,2,0,2,0,3,10,46,8,,,,,,,,,,,,,,,,,,,,,,,,,,,,,,,,,,,,,,,,564.724303961033,564.724303961033,564.724303961033,564.724303961033,564.724303961033,564.724303961033,564.724303961033,564.724303961033,564.724303961033,564.724303961033,a,0.9700147381518036,10,836,2,565.7254286599346,,567.2271159410011,,,,,,,,,,,,,,,,,,,,,,,,,,,,,,,,,,,,,,,,,,,,,,,,,,,,,,,,,,,,,,,,,,,,,,33606,2022-11-17_14h05.11.770,vts_reward_expectancy_bt_OFFLINE,2022.2.4,59.9301724871312,
0,1,0,0,0,0,0,1,circle,star,2,0,2,0,3,11,47,5,,,,,,,,,,,,,,,,,,,,,,,,,,,,,,,,,,,,,,,,567.7276096560527,567.7276096560527,567.7276096560527,567.7276096560527,567.7276096560527,567.7276096560527,567.7276096560527,567.7276096560527,567.7276096560527,567.7276096560527,a,1.0610822311136872,1,837,2,568.8124231109396,,570.3136143689044,,,,,,,,,,,,,,,,,,,,,,,,,,,,,,,,,,,,,,,,,,,,,,,,,,,,,,,,,,,,,,,,,,,,,,33606,2022-11-17_14h05.11.770,vts_reward_expectancy_bt_OFFLINE,2022.2.4,59.9301724871312,
,,,,,,,,,,,,,,,,,,0,0,0,0,0,0,0,0,,,,,,,,,,,,,,,,,,,,,,,,,,,,,,,,,,,,,,,,,,,,,,,,,608.6559897740372,,167,F,star,0.0024611351545900106,602.916857275879,604.401169053046,604.401169053046,604.401169053046,1,0,f,2.7297897688113153,0,607.1710201830138,,,,,,,,,,,,,,,,,,,,,,,,,,,,,,,,,,,,,,,,,,,,,,,,,,,,,,,33606,2022-11-17_14h05.11.770,vts_reward_expectancy_bt_OFFLINE,2022.2.4,59.9301724871312,
,,,,,,,,,,,,,,,,,,0,0,0,0,1,0,1,0,,,,,,,,,,,,,,,,,,,,,,,,,,,,,,,,,,,,,,,,,,,,,,,,,613.6614596489817,,125,B,triangle,0.001314770895987749,609.6578476729337,611.141984306043,611.141984306043,611.141984306043,1,0,d,0.996541447006166,0,612.1600189830642,,,,,,,,,,,,,,,,,,,,,,,,,,,,,,,,,,,,,,,,,,,,,,,,,,,,,,,33606,2022-11-17_14h05.11.770,vts_reward_expectancy_bt_OFFLINE,2022.2.4,59.9301724871312,
,,,,,,,,,,,,,,,,,,0,0,0,0,2,0,2,0,,,,,,,,,,,,,,,,,,,,,,,,,,,,,,,,,,,,,,,,,,,,,,,,,618.4335410848726,,146,H,circle,0.0011241608299314976,614.6466023828834,616.1476308000274,616.1476308000274,616.1476308000274,1,0,d,0.7608101079240441,0,616.9318281149026,,,,,,,,,,,,,,,,,,,,,,,,,,,,,,,,,,,,,,,,,,,,,,,,,,,,,,,33606,2022-11-17_14h05.11.770,vts_reward_expectancy_bt_OFFLINE,2022.2.4,59.9301724871312,
,,,,,,,,,,,,,,,,,,0,0,0,0,3,0,3,0,,,,,,,,,,,,,,,,,,,,,,,,,,,,,,,,,,,,,,,,,,,,,,,,,623.0887350060511,,181,Y,hexagon,0.0012194369919598103,619.4179473959375,620.9195508388802,620.9195508388802,620.9195508388802,1,0,f,0.6463934229686856,0,621.5870026398916,,,,,,,,,,,,,,,,,,,,,,,,,,,,,,,,,,,,,,,,,,,,,,,,,,,,,,,33606,2022-11-17_14h05.11.770,vts_reward_expectancy_bt_OFFLINE,2022.2.4,59.9301724871312,
,,,,,,,,,,,,,,,,,,0,0,0,0,4,0,4,0,,,,,,,,,,,,,,,,,,,,,,,,,,,,,,,,,,,,,,,,,,,,,,,,,627.710323483916,,139,D,star,0.0011461330577731133,624.0740603660233,625.574770018924,625.574770018924,625.574770018924,1,0,d,0.6175165309105068,0,626.2086766988505,627.710323483916,,,,,,,,,,,,,,,,,,,,,,,,,,,,,,,,,,,,,,,,,,,,,,,,,,,,,,33606,2022-11-17_14h05.11.770,vts_reward_expectancy_bt_OFFLINE,2022.2.4,59.9301724871312,
,,,,,,,,,,,,,,,,,,0,0,0,0,5,0,5,0,,,,,,,,,,,,,,,,,,,,,,,,,,,,,,,,,,,,,,,,,,,,,,,,,632.4657813129015,,174,U,triangle,0.0005516188684850931,628.6947692700196,630.1965478339698,630.1965478339698,630.1965478339698,1,0,f,0.7410552008077502,0,630.9640325198416,,,,,,,,,,,,,,,,,,,,,,,,,,,,,,,,,,,,,,,,,,,,,,,,,,,,,,,33606,2022-11-17_14h05.11.770,vts_reward_expectancy_bt_OFFLINE,2022.2.4,59.9301724871312,
,,,,,,,,,,,,,,,,,,0,0,0,0,6,0,6,0,,,,,,,,,,,,,,,,,,,,,,,,,,,,,,,,,,,,,,,,,,,,,,,,,637.0874354080297,,160,S,hexagon,0.001142112072557211,633.4501890239771,634.9518089210615,634.9518089210615,634.9518089210615,1,0,f,0.609978545922786,0,635.5858977248427,,,,,,,,,,,,,,,,,,,,,,,,,,,,,,,,,,,,,,,,,,,,,,,,,,,,,,,33606,2022-11-17_14h05.11.770,vts_reward_expectancy_bt_OFFLINE,2022.2.4,59.9301724871312,
,,,,,,,,,,,,,,,,,,0,0,0,0,7,0,7,0,,,,,,,,,,,,,,,,,,,,,,,,,,,,,,,,,,,,,,,,,,,,,,,,,641.6758660010528,,132,W,circle,0.001350834034383297,638.0715185040608,639.5732094128616,639.5732094128616,639.5732094128616,1,0,d,0.5683457469567657,0,640.1742272139527,,,,,,,,,,,,,,,,,,,,,,,,,,,,,,,,,,,,,,,,,,,,,,,,,,,,,,,33606,2022-11-17_14h05.11.770,vts_reward_expectancy_bt_OFFLINE,2022.2.4,59.9301724871312,
,,,,,,,,,,,,,,,,,,0,0,0,0,8,0,8,0,,,,,,,,,,,,,,,,,,,,,,,,,,,,,,,,,,,,,,,,,,,,,,,,,646.2640255738515,,167,F,star,0.0013350611552596092,642.6601467449218,644.1619113178458,644.1619113178458,644.1619113178458,1,0,f,0.5817824529949576,0,644.7626384040341,,,,,,,,,,,,,,,,,,,,,,,,,,,,,,,,,,,,,,,,,,,,,,,,,,,,,,,33606,2022-11-17_14h05.11.770,vts_reward_expectancy_bt_OFFLINE,2022.2.4,59.9301724871312,
,,,,,,,,,,,,,,,,,,0,0,0,0,9,0,9,0,,,,,,,,,,,,,,,,,,,,,,,,,,,,,,,,,,,,,,,,,,,,,,,,,650.7524569309317,,125,B,hexagon,0.0014783970545977354,647.2485044698697,648.7503876700066,648.7503876700066,648.7503876700066,1,0,d,0.4834527699276805,0,649.2507121730596,650.7524569309317,,,,,,,,,,,,,,,,,,,,,,,,,,,,,,,,,,,,,,,,,,,,,,,,,,,,,,33606,2022-11-17_14h05.11.770,vts_reward_expectancy_bt_OFFLINE,2022.2.4,59.9301724871312,
,,,,,,,,,,,,,,,,,,,,,,,,,,0,0,0,0,0,0,0,0,,,,,,,,,,,,,,,,,,,,,,,,,,,,,,,,,,,,,,,,,680.3684222588781,,160,U,triangle,0.0019117139745503664,,,,,1,0,,,1,678.8669829140417,,676.1478294008411,677.6486765239388,677.6486765239388,677.6486765239388,k,1.1954329588916153,,,,,,,,,,,,,,,,,,,,,,,,,,,,,,,,,,,,,,,,,,,,,,,,33606,2022-11-17_14h05.11.770,vts_reward_expectancy_bt_OFFLINE,2022.2.4,59.9301724871312,
,,,,,,,,,,,,,,,,,,,,,,,,,,0,0,0,0,1,0,1,0,,,,,,,,,,,,,,,,,,,,,,,,,,,,,,,,,,,,,,,,,685.1069939888548,,132,W,hexagon,0.0010803178884088993,,,,,1,0,,,1,683.6054424929898,,681.3528106228914,682.85457231896,682.85457231896,682.85457231896,k,0.7266507060267031,,,,,,,,,,,,,,,,,,,,,,,,,,,,,,,,,,,,,,,,,,,,,,,,33606,2022-11-17_14h05.11.770,vts_reward_expectancy_bt_OFFLINE,2022.2.4,59.9301724871312,
,,,,,,,,,,,,,,,,,,,,,,,,,,0,0,0,0,2,0,2,0,,,,,,,,,,,,,,,,,,,,,,,,,,,,,,,,,,,,,,,,,689.8621945660561,,181,H,circle,0.0011988079641014338,,,,,1,0,,,1,688.3605674679857,,686.0915155690163,687.5930795748718,687.5930795748718,687.5930795748718,j,0.7353127498645335,,,,,,,,,,,,,,,,,,,,,,,,,,,,,,,,,,,,,,,,,,,,,,,,33606,2022-11-17_14h05.11.770,vts_reward_expectancy_bt_OFFLINE,2022.2.4,59.9301724871312,
,,,,,,,,,,,,,,,,,,,,,,,,,,0,0,0,0,3,0,3,0,,,,,,,,,,,,,,,,,,,,,,,,,,,,,,,,,,,,,,,,,694.4171743479092,,125,Y,star,0.001296674832701683,,,,,1,0,,,1,692.9157628898975,,690.8466920889914,692.3482703659683,692.3482703659683,692.3482703659683,k,0.5368323361035436,,,,,,,,,,,,,,,,,,,,,,,,,,,,,,,,,,,,,,,,,,,,,,,,33606,2022-11-17_14h05.11.770,vts_reward_expectancy_bt_OFFLINE,2022.2.4,59.9301724871312,
,,,,,,,,,,,,,,,,,,,,,,,,,,0,0,0,0,4,0,4,0,,,,,,,,,,,,,,,,,,,,,,,,,,,,,,,,,,,,,,,,,699.089152402943,,139,S,circle,0.0011458930093795061,,,,,1,0,,,1,697.5874769028742,,695.4017656089272,696.9035676410422,696.9035676410422,696.9035676410422,k,0.6624453151598573,,,,,,,,,,,,,,,,,,,,,,,,,,,,,,,,,,,,,,,,,,,,,,,,33606,2022-11-17_14h05.11.770,vts_reward_expectancy_bt_OFFLINE,2022.2.4,59.9301724871312,
,,,,,,,,,,,,,,,,,,,,,,,,,,0,0,0,0,5,0,5,0,,,,,,,,,,,,,,,,,,,,,,,,,,,,,,,,,,,,,,,,,704.1114230439998,,146,B,triangle,0.0016003299970179796,,,,,2,0,,,1,702.6262975039426,,700.0736691530328,701.575209318893,701.575209318893,701.575209318893,d,1.0090242139995098,,,,,,,,,,,,,,,,,,,,,,,,,,,,,,,,,,,,,,,,,,,,,,,,33606,2022-11-17_14h05.11.770,vts_reward_expectancy_bt_OFFLINE,2022.2.4,59.9301724871312,
,,,,,,,,,,,,,,,,,,,,,,,,,,0,0,0,0,6,0,6,0,,,,,,,,,,,,,,,,,,,,,,,,,,,,,,,,,,,,,,,,,710.5852183899842,,174,F,hexagon,0.0013056769967079163,,,,,1,0,,,1,709.0835694258567,,705.0958332738373,706.5976469998714,706.5976469998714,706.5976469998714,j,2.454911970999092,,,,,,,,,,,,,,,,,,,,,,,,,,,,,,,,,,,,,,,,,,,,,,,,33606,2022-11-17_14h05.11.770,vts_reward_expectancy_bt_OFFLINE,2022.2.4,59.9301724871312,
,,,,,,,,,,,,,,,,,,,,,,,,,,0,0,0,0,7,0,7,0,,,,,,,,,,,,,,,,,,,,,,,,,,,,,,,,,,,,,,,,,716.0243937799241,,167,D,star,0.0012807990424335003,,,,,1,0,,,1,714.5228317088913,,711.569569065934,713.0712405010127,713.0712405010127,713.0712405010127,j,1.4260969019960612,,,,,,,,,,,,,,,,,,,,,,,,,,,,,,,,,,,,,,,,,,,,,,,,33606,2022-11-17_14h05.11.770,vts_reward_expectancy_bt_OFFLINE,2022.2.4,59.9301724871312,
,,,,,,,,,,,,,,,,,,,,,,,,,,0,0,0,0,8,0,8,0,,,,,,,,,,,,,,,,,,,,,,,,,,,,,,,,,,,,,,,,,720.9465626550373,,160,U,triangle,0.0015371148474514484,,,,,1,0,,,1,719.4451532349922,,717.0087262180168,718.5106176359113,718.5106176359113,718.5106176359113,k,0.9034287529066205,,,,,,,,,,,,,,,,,,,,,,,,,,,,,,,,,,,,,,,,,,,,,,,,33606,2022-11-17_14h05.11.770,vts_reward_expectancy_bt_OFFLINE,2022.2.4,59.9301724871312,
,,,,,,,,,,,,,,,,,,,,,,,,,,0,0,0,0,9,0,9,0,,,,,,,,,,,,,,,,,,,,,,,,,,,,,,,,,,,,,,,,,725.4349574130028,,132,W,hexagon,0.0013178810477256775,,,,,1,0,,,1,723.9332070809323,725.4349574130028,721.9309480260126,723.432668833062,723.432668833062,723.432668833062,k,0.4839635470416397,,,,,,,,,,,,,,,,,,,,,,,,,,,,,,,,,,,,,,,,,,,,,,,,33606,2022-11-17_14h05.11.770,vts_reward_expectancy_bt_OFFLINE,2022.2.4,59.9301724871312,
,,,,,,,,,,,,,,,,,,,,,,,,,,,,,,,,,,0,0,0,0,0,0,0,0,,,,,,,,,,,,,,,,,,,,,,,,,,,,0,837,,,,764.1942787859589,,139,Y,hexagon,0.0020082758273929358,,,,,1,0,,,2,,,,,,,,,759.2720079889987,759.2720079889987,759.2720079889987,759.2720079889987,760.6903905188665,760.6903905188665,760.6903905188665,760.6903905188665,760.7741171829402,760.7741171829402,760.7741171829402,760.7741171829402,-1,number,NA,d,1.9717602969612926,vtsPrac,762.6933588390239,764.1942787859589,,,,,,,,,,,,,,,,,,,,,,,,,,,,33606,2022-11-17_14h05.11.770,vts_reward_expectancy_bt_OFFLINE,2022.2.4,59.9301724871312,
,,,,,,,,,,,,,,,,,,,,,,,,,,,,,,,,,,0,0,0,0,1,0,1,0,,,,,,,,,,,,,,,,,,,,,,,,,,,,0,837,,,,769.033020589035,,167,W,star,0.0008910351898521185,,,,,1,0,,,2,,,,,,,,,765.179992942838,765.179992942838,765.179992942838,765.179992942838,766.6802697540261,766.6802697540261,766.6802697540261,766.6802697540261,766.6802697540261,766.6802697540261,766.6802697540261,766.6802697540261,repeat,number,numRpt,f,0.8321009438950568,vtsPrac,767.5312910249922,,,,,,,,,,,,,,,,,,,,,,,,,,,,,33606,2022-11-17_14h05.11.770,vts_reward_expectancy_bt_OFFLINE,2022.2.4,59.9301724871312,
,,,,,,,,,,,,,,,,,,,,,,,,,,,,,,,,,,0,0,0,0,2,0,2,0,,,,,,,,,,,,,,,,,,,,,,,,,,,,0,837,,,,774.2219456110615,,125,B,hexagon,0.001195169985294342,,,,,1,0,,,2,,,,,,,,,770.0181474909186,770.0181474909186,770.0181474909186,770.0181474909186,771.5188933708705,771.5188933708705,771.5188933708705,771.5188933708705,771.5188933708705,771.5188933708705,771.5188933708705,771.5188933708705,switch,letter,lettSwt,j,1.1790134538896382,vtsPrac,772.7201199489646,,,,,,,,,,,,,,,,,,,,,,,,,,,,,33606,2022-11-17_14h05.11.770,vts_reward_expectancy_bt_OFFLINE,2022.2.4,59.9301724871312,
,,,,,,,,,,,,,,,,,,,,,,,,,,,,,,,,,,0,0,0,0,3,0,3,0,,,,,,,,,,,,,,,,,,,,,,,,,,,,0,837,,,,779.3944087340496,,174,F,triangle,0.001075476873666048,,,,,1,0,,,2,,,,,,,,,775.2075687658507,775.2075687658507,775.2075687658507,775.2075687658507,776.7079804190435,776.7079804190435,776.7079804190435,776.7079804190435,776.7079804190435,776.7079804190435,776.7079804190435,776.7079804190435,switch,number,numSwt,f,1.1543195031117648,vtsPrac,777.892693476053,,,,,,,,,,,,,,,,,,,,,,,,,,,,,33606,2022-11-17_14h05.11.770,vts_reward_expectancy_bt_OFFLINE,2022.2.4,59.9301724871312,
,,,,,,,,,,,,,,,,,,,,,,,,,,,,,,,,,,0,0,0,0,4,0,4,0,,,,,,,,,,,,,,,,,,,,,,,,,,,,0,837,,,,784.8171728448942,,139,Y,triangle,0.0016458879690617323,,,,,1,0,,,2,,,,,,,,,780.378743594978,780.378743594978,780.378743594978,780.378743594978,781.8804938648827,781.8804938648827,781.8804938648827,781.8804938648827,781.8804938648827,781.8804938648827,781.8804938648827,781.8804938648827,switch,letter,lettSwt,k,1.4043448029551655,vtsPrac,783.3154714200646,,,,,,,,,,,,,,,,,,,,,,,,,,,,,33606,2022-11-17_14h05.11.770,vts_reward_expectancy_bt_OFFLINE,2022.2.4,59.9301724871312,
,,,,,,,,,,,,,,,,,,,,,,,,,,,,,,,,,,0,0,0,0,5,0,5,0,,,,,,,,,,,,,,,,,,,,,,,,,,,,0,837,,,,790.5234855050221,,167,W,star,0.0012514479458332062,,,,,1,0,,,2,,,,,,,,,785.80132206087,785.80132206087,785.80132206087,785.80132206087,787.3031727708876,787.3031727708876,787.3031727708876,787.3031727708876,787.3031727708876,787.3031727708876,787.3031727708876,787.3031727708876,repeat,letter,lettRpt,k,1.6861664110329002,vtsPrac,789.0218552800361,790.5234855050221,,,,,,,,,,,,,,,,,,,,,,,,,,,,33606,2022-11-17_14h05.11.770,vts_reward_expectancy_bt_OFFLINE,2022.2.4,59.9301724871312,
,,,,,,,,,,,,,,,,,,,,,,,,,,,,,,,,,,0,0,0,0,6,0,6,0,,,,,,,,,,,,,,,,,,,,,,,,,,,,0,837,,,,795.72910830006,,125,B,star,0.001065701013430953,,,,,1,0,,,2,,,,,,,,,791.507865712978,791.507865712978,791.507865712978,791.507865712978,793.0094353249297,793.0094353249297,793.0094353249297,793.0094353249297,793.0094353249297,793.0094353249297,793.0094353249297,793.0094353249297,repeat,letter,lettRpt,j,1.1907158917747438,vtsPrac,794.2274720210116,,,,,,,,,,,,,,,,,,,,,,,,,,,,,33606,2022-11-17_14h05.11.770,vts_reward_expectancy_bt_OFFLINE,2022.2.4,59.9301724871312,
,,,,,,,,,,,,,,,,,,,,,,,,,,,,,,,,,,0,0,0,0,7,0,7,0,,,,,,,,,,,,,,,,,,,,,,,,,,,,0,837,,,,800.3843024538364,,174,F,hexagon,0.0010828250087797642,,,,,1,0,,,2,,,,,,,,,796.7136017340235,796.7136017340235,796.7136017340235,796.7136017340235,798.2153545438778,798.2153545438778,798.2153545438778,798.2153545438778,798.2153545438778,798.2153545438778,798.2153545438778,798.2153545438778,switch,number,numSwt,f,0.6417104927822948,vtsPrac,798.8824225000571,800.3843024538364,,,,,,,,,,,,,,,,,,,,,,,,,,,,33606,2022-11-17_14h05.11.770,vts_reward_expectancy_bt_OFFLINE,2022.2.4,59.9301724871312,
,,,,,,,,,,,,,,,,,,,,,,,,,,,,,,,,,,0,0,0,0,8,0,8,0,,,,,,,,,,,,,,,,,,,,,,,,,,,,0,837,,,,805.022663583979,,167,D,circle,0.0011841228697448969,,,,,1,0,,,2,,,,,,,,,801.368704988854,801.368704988854,801.368704988854,801.368704988854,802.8704219048377,802.8704219048377,802.8704219048377,802.8704219048377,802.8704219048377,802.8704219048377,802.8704219048377,802.8704219048377,repeat,number,numRpt,f,0.6220638749655336,vtsPrac,803.5209234340582,,,,,,,,,,,,,,,,,,,,,,,,,,,,,33606,2022-11-17_14h05.11.770,vts_reward_expectancy_bt_OFFLINE,2022.2.4,59.9301724871312,
,,,,,,,,,,,,,,,,,,,,,,,,,,,,,,,,,,0,0,0,0,9,0,9,0,,,,,,,,,,,,,,,,,,,,,,,,,,,,0,837,,,,809.7613348490559,,181,H,star,0.0013956560287624598,,,,,1,0,,,2,,,,,,,,,806.0079912759829,806.0079912759829,806.0079912759829,806.0079912759829,807.5089863429312,807.5089863429312,807.5089863429312,807.5089863429312,807.5089863429312,807.5089863429312,807.5089863429312,807.5089863429312,repeat,number,numRpt,f,0.7316033998504281,vtsPrac,808.259549304843,,,,,,,,,,,,,,,,,,,,,,,,,,,,,33606,2022-11-17_14h05.11.770,vts_reward_expectancy_bt_OFFLINE,2022.2.4,59.9301724871312,
,,,,,,,,,,,,,,,,,,,,,,,,,,,,,,,,,,0,0,0,0,10,0,10,0,,,,,,,,,,,,,,,,,,,,,,,,,,,,0,837,,,,814.31641020393,,160,F,triangle,0.0012495859991759062,,,,,1,0,,,2,,,,,,,,,810.7458851989359,810.7458851989359,810.7458851989359,810.7458851989359,812.2474341189954,812.2474341189954,812.2474341189954,812.2474341189954,812.2474341189954,812.2474341189954,812.2474341189954,812.2474341189954,switch,letter,lettSwt,j,0.5375827339012176,vtsPrac,812.8145713799167,814.31641020393,,,,,,,,,,,,,,,,,,,,,,,,,,,,33606,2022-11-17_14h05.11.770,vts_reward_expectancy_bt_OFFLINE,2022.2.4,59.9301724871312,
,,,,,,,,,,,,,,,,,,,,,,,,,,,,,,,,,,0,0,0,0,11,0,11,0,,,,,,,,,,,,,,,,,,,,,,,,,,,,0,837,,,,819.0880725679453,,125,W,hexagon,0.0008282698690891266,,,,,1,0,,,2,,,,,,,,,815.3004800379276,815.3004800379276,815.3004800379276,815.3004800379276,816.8021977038588,816.8021977038588,816.8021977038588,816.8021977038588,816.8021977038588,816.8021977038588,816.8021977038588,816.8021977038588,repeat,letter,lettRpt,k,0.7654695077799261,vtsPrac,817.5863284859806,,,,,,,,,,,,,,,,,,,,,,,,,,,,,33606,2022-11-17_14h05.11.770,vts_reward_expectancy_bt_OFFLINE,2022.2.4,59.9301724871312,
,,,,,,,,,,,,,,,,,,,,,,,,,,,,,,,,,,0,0,0,0,12,0,12,0,,,,,,,,,,,,,,,,,,,,,,,,,,,,0,837,,,,824.0768785229884,,132,S,circle,0.0013812589459121227,,,,,1,0,,,2,,,,,,,,,820.07252689288,820.07252689288,820.07252689288,820.07252689288,821.5742497260217,821.5742497260217,821.5742497260217,821.5742497260217,821.5742497260217,821.5742497260217,821.5742497260217,821.5742497260217,repeat,letter,lettRpt,k,0.9766026358120143,vtsPrac,822.5753416100051,824.0768785229884,,,,,,,,,,,,,,,,,,,,,,,,,,,,33606,2022-11-17_14h05.11.770,vts_reward_expectancy_bt_OFFLINE,2022.2.4,59.9301724871312,
,,,,,,,,,,,,,,,,,,,,,,,,,,,,,,,,,,0,0,0,0,13,0,13,0,,,,,,,,,,,,,,,,,,,,,,,,,,,,0,837,,,,829.0492168199271,,146,H,hexagon,0.0012506661005318165,,,,,1,0,,,2,,,,,,,,,825.0614907748532,825.0614907748532,825.0614907748532,825.0614907748532,826.5631105389912,826.5631105389912,826.5631105389912,826.5631105389912,826.5631105389912,826.5631105389912,826.5631105389912,826.5631105389912,repeat,letter,lettRpt,j,0.9599865938071162,vtsPrac,827.5475983228534,,,,,,,,,,,,,,,,,,,,,,,,,,,,,33606,2022-11-17_14h05.11.770,vts_reward_expectancy_bt_OFFLINE,2022.2.4,59.9301724871312,
,,,,,,,,,,,,,,,,,,,,,,,,,,,,,,,,,,0,0,0,0,14,0,14,0,,,,,,,,,,,,,,,,,,,,,,,,,,,,0,837,,,,833.6542949229479,,125,D,star,0.0012241299264132977,,,,,1,0,,,2,,,,,,,,,830.0342988478951,830.0342988478951,830.0342988478951,830.0342988478951,831.5351966710296,831.5351966710296,831.5351966710296,831.5351966710296,831.5351966710296,831.5351966710296,831.5351966710296,831.5351966710296,switch,number,numSwt,d,0.5910240758676082,vtsPrac,832.1525765189435,,,,,,,,,,,,,,,,,,,,,,,,,,,,,33606,2022-11-17_14h05.11.770,vts_reward_expectancy_bt_OFFLINE,2022.2.4,59.9301724871312,
,,,,,,,,,,,,,,,,,,,,,,,,,,,,,,,,,,0,0,0,0,15,0,15,0,,,,,,,,,,,,,,,,,,,,,,,,,,,,0,837,,,,838.5095705080312,,181,U,hexagon,0.0011812378652393818,,,,,1,0,,,2,,,,,,,,,834.6387286758982,834.6387286758982,834.6387286758982,834.6387286758982,836.1401238339022,836.1401238339022,836.1401238339022,836.1401238339022,836.1401238339022,836.1401238339022,836.1401238339022,836.1401238339022,repeat,number,numRpt,f,0.844998582964763,vtsPrac,837.0077832590323,,,,,,,,,,,,,,,,,,,,,,,,,,,,,33606,2022-11-17_14h05.11.770,vts_reward_expectancy_bt_OFFLINE,2022.2.4,59.9301724871312,
,,,,,,,,,,,,,,,,,,,,,,,,,,,,,,,,,,0,0,0,0,16,0,16,0,,,,,,,,,,,,,,,,,,,,,,,,,,,,0,837,,,,843.7319457698613,,181,H,triangle,0.0013390278909355402,,,,,1,0,,,2,,,,,,,,,839.4940187309403,839.4940187309403,839.4940187309403,839.4940187309403,840.9957983109634,840.9957983109634,840.9957983109634,840.9957983109634,840.9957983109634,840.9957983109634,840.9957983109634,840.9957983109634,switch,letter,lettSwt,j,1.2102291819173843,vtsPrac,842.2304723288398,,,,,,,,,,,,,,,,,,,,,,,,,,,,,33606,2022-11-17_14h05.11.770,vts_reward_expectancy_bt_OFFLINE,2022.2.4,59.9301724871312,
,,,,,,,,,,,,,,,,,,,,,,,,,,,,,,,,,,0,0,0,0,17,0,17,0,,,,,,,,,,,,,,,,,,,,,,,,,,,,0,837,,,,848.6543230549432,,146,W,star,0.001223566010594368,,,,,1,0,,,2,,,,,,,,,844.7163896379061,844.7163896379061,844.7163896379061,844.7163896379061,846.218194619054,846.218194619054,846.218194619054,846.218194619054,846.218194619054,846.218194619054,846.218194619054,846.218194619054,repeat,letter,lettRpt,k,0.9045575829222798,vtsPrac,847.1525890999474,,,,,,,,,,,,,,,,,,,,,,,,,,,,,33606,2022-11-17_14h05.11.770,vts_reward_expectancy_bt_OFFLINE,2022.2.4,59.9301724871312,
,,,,,,,,,,,,,,,,,,,,,,,,,,,,,,,,,,0,0,0,0,18,0,18,0,,,,,,,,,,,,,,,,,,,,,,,,,,,,0,837,,,,853.4262318429537,,139,S,circle,0.001106862910091877,,,,,1,0,,,2,,,,,,,,,849.6385232529137,849.6385232529137,849.6385232529137,849.6385232529137,851.1402214309201,851.1402214309201,851.1402214309201,851.1402214309201,851.1402214309201,851.1402214309201,851.1402214309201,851.1402214309201,switch,number,numSwt,d,0.7520998460240662,vtsPrac,851.9243681828957,,,,,,,,,,,,,,,,,,,,,,,,,,,,,33606,2022-11-17_14h05.11.770,vts_reward_expectancy_bt_OFFLINE,2022.2.4,59.9301724871312,
,,,,,,,,,,,,,,,,,,,,,,,,,,,,,,,,,,0,0,0,0,19,0,19,0,,,,,,,,,,,,,,,,,,,,,,,,,,,,0,837,,,,858.3814930459484,,132,Y,hexagon,0.0012742448598146439,,,,,1,0,,,2,,,,,,,,,854.410393330967,854.410393330967,854.410393330967,854.410393330967,855.9120781889651,855.9120781889651,855.9120781889651,855.9120781889651,855.9120781889651,855.9120781889651,855.9120781889651,855.9120781889651,switch,letter,lettSwt,k,0.9422487230040133,vtsPrac,856.8798049278557,858.3814930459484,,,,,,,,,,,,,,,,,,,,,,,,,,,,33606,2022-11-17_14h05.11.770,vts_reward_expectancy_bt_OFFLINE,2022.2.4,59.9301724871312,
,,,,,,,,,,,,,,,,,,,,,,,,,,,,,,,,,,0,0,0,0,20,0,20,0,,,,,,,,,,,,,,,,,,,,,,,,,,,,0,837,,,,863.7708155198488,,125,Y,triangle,0.000840269960463047,,,,,1,0,,,2,,,,,,,,,859.3659049030393,859.3659049030393,859.3659049030393,859.3659049030393,860.8675326129887,860.8675326129887,860.8675326129887,860.8675326129887,860.8675326129887,860.8675326129887,860.8675326129887,860.8675326129887,switch,number,numSwt,d,1.376352653838694,vtsPrac,862.2692447658628,,,,,,,,,,,,,,,,,,,,,,,,,,,,,33606,2022-11-17_14h05.11.770,vts_reward_expectancy_bt_OFFLINE,2022.2.4,59.9301724871312,
,,,,,,,,,,,,,,,,,,,,,,,,,,,,,,,,,,0,0,0,0,21,0,21,0,,,,,,,,,,,,,,,,,,,,,,,,,,,,0,837,,,,868.6094805260655,,174,S,hexagon,0.001210405956953764,,,,,1,0,,,2,,,,,,,,,864.7551942889113,864.7551942889113,864.7551942889113,864.7551942889113,866.2569777530152,866.2569777530152,866.2569777530152,866.2569777530152,866.2569777530152,866.2569777530152,866.2569777530152,866.2569777530152,repeat,number,numRpt,f,0.8247899780981243,vtsPrac,867.1078165948857,,,,,,,,,,,,,,,,,,,,,,,,,,,,,33606,2022-11-17_14h05.11.770,vts_reward_expectancy_bt_OFFLINE,2022.2.4,59.9301724871312,
,,,,,,,,,,,,,,,,,,,,,,,,,,,,,,,,,,0,0,0,0,22,0,22,0,,,,,,,,,,,,,,,,,,,,,,,,,,,,0,837,,,,873.9486437898595,,181,U,circle,0.001299300231039524,,,,,1,0,,,2,,,,,,,,,869.5940570789389,869.5940570789389,869.5940570789389,869.5940570789389,871.0956901810132,871.0956901810132,871.0956901810132,871.0956901810132,871.0956901810132,871.0956901810132,871.0956901810132,871.0956901810132,switch,letter,lettSwt,k,1.3191768329124898,vtsPrac,872.4471674540546,,,,,,,,,,,,,,,,,,,,,,,,,,,,,33606,2022-11-17_14h05.11.770,vts_reward_expectancy_bt_OFFLINE,2022.2.4,59.9301724871312,
,,,,,,,,,,,,,,,,,,,,,,,,,,,,,,,,,,0,0,0,0,23,0,23,0,,,,,,,,,,,,,,,,,,,,,,,,,,,,0,837,,,,878.7206670360174,,132,F,hexagon,0.0010539079084992409,,,,,1,0,,,2,,,,,,,,,874.9331954650115,874.9331954650115,874.9331954650115,874.9331954650115,876.434612262994,876.434612262994,876.434612262994,876.434612262994,876.434612262994,876.434612262994,876.434612262994,876.434612262994,repeat,letter,lettRpt,j,0.7614851058460772,vtsPrac,877.2189967089798,,,,,,,,,,,,,,,,,,,,,,,,,,,,,33606,2022-11-17_14h05.11.770,vts_reward_expectancy_bt_OFFLINE,2022.2.4,59.9301724871312,
,,,,,,,,,,,,,,,,,,,,,,,,,,,,,,,,,,0,0,0,0,24,0,24,0,,,,,,,,,,,,,,,,,,,,,,,,,,,,0,837,,,,885.7283576559275,,146,U,hexagon,0.0012559178285300732,,,,,-1,0,,,2,,,,,,,,,879.7051206938922,879.7051206938922,879.7051206938922,879.7051206938922,881.2066087450366,881.2066087450366,881.2066087450366,881.2066087450366,881.2066087450366,881.2066087450366,881.2066087450366,881.2066087450366,switch,no_choice,NA,None,,vtsPrac,884.2267016579863,,884.2267016579863,884.2267016579863,884.2267016579863,884.2267016579863,,,,,,,,,,,,,,,,,,,,,,,,33606,2022-11-17_14h05.11.770,vts_reward_expectancy_bt_OFFLINE,2022.2.4,59.9301724871312,
,,,,,,,,,,,,,,,,,,,,,,,,,,,,,,,,,,0,0,0,0,25,0,25,0,,,,,,,,,,,,,,,,,,,,,,,,,,,,0,837,,,,891.0510743728373,,132,B,circle,0.009047179948538542,,,,,1,0,,,2,,,,,,,,,886.7130350240041,886.7130350240041,886.7130350240041,886.7130350240041,888.2144303389359,888.2144303389359,888.2144303389359,888.2144303389359,888.2144303389359,888.2144303389359,888.2144303389359,888.2144303389359,switch,number,numSwt,d,1.3022416159510612,vtsPrac,889.5492378708441,,,,,,,,,,,,,,,,,,,,,,,,,,,,,33606,2022-11-17_14h05.11.770,vts_reward_expectancy_bt_OFFLINE,2022.2.4,59.9301724871312,
,,,,,,,,,,,,,,,,,,,,,,,,,,,,,,,,,,0,0,0,0,26,0,26,0,,,,,,,,,,,,,,,,,,,,,,,,,,,,0,837,,,,895.672655279981,,181,F,circle,0.0012030450161546469,,,,,1,0,,,2,,,,,,,,,892.0354018229991,892.0354018229991,892.0354018229991,892.0354018229991,893.537028224906,893.537028224906,893.537028224906,893.537028224906,893.537028224906,893.537028224906,893.537028224906,893.537028224906,repeat,number,numRpt,f,0.6021448539104313,vtsPrac,894.1710170980077,,,,,,,,,,,,,,,,,,,,,,,,,,,,,33606,2022-11-17_14h05.11.770,vts_reward_expectancy_bt_OFFLINE,2022.2.4,59.9301724871312,
,,,,,,,,,,,,,,,,,,,,,,,,,,,,,,,,,,0,0,0,0,27,0,27,0,,,,,,,,,,,,,,,,,,,,,,,,,,,,0,837,,,,900.4781646060292,,160,H,star,0.0013471769634634256,,,,,1,0,,,2,,,,,,,,,896.6570329349488,896.6570329349488,896.6570329349488,896.6570329349488,898.1588019230403,898.1588019230403,898.1588019230403,898.1588019230403,898.1588019230403,898.1588019230403,898.1588019230403,898.1588019230403,switch,letter,lettSwt,j,0.7964710260275751,vtsPrac,898.9763032798655,,,,,,,,,,,,,,,,,,,,,,,,,,,,,33606,2022-11-17_14h05.11.770,vts_reward_expectancy_bt_OFFLINE,2022.2.4,59.9301724871312,
,,,,,,,,,,,,,,,,,,,,,,,,,,,,,,,,,,0,0,0,0,28,0,28,0,,,,,,,,,,,,,,,,,,,,,,,,,,,,0,837,,,,905.2833664680365,,160,D,hexagon,0.001340834191069007,,,,,1,0,,,2,,,,,,,,,901.4623530309182,901.4623530309182,901.4623530309182,901.4623530309182,902.9640232480597,902.9640232480597,902.9640232480597,902.9640232480597,902.9640232480597,902.9640232480597,902.9640232480597,902.9640232480597,repeat,letter,lettRpt,j,0.7851482809055597,vtsPrac,903.7815540300217,,,,,,,,,,,,,,,,,,,,,,,,,,,,,33606,2022-11-17_14h05.11.770,vts_reward_expectancy_bt_OFFLINE,2022.2.4,59.9301724871312,
,,,,,,,,,,,,,,,,,,,,,,,,,,,,,,,,,,0,0,0,0,29,0,29,0,,,,,,,,,,,,,,,,,,,,,,,,,,,,0,837,,,,909.8882572159637,,139,Y,triangle,0.0013911190908402205,,,,,1,0,,,2,,,,,,,,,906.2678541289642,906.2678541289642,906.2678541289642,906.2678541289642,907.7692727679387,907.7692727679387,907.7692727679387,907.7692727679387,907.7692727679387,907.7692727679387,907.7692727679387,907.7692727679387,switch,number,numSwt,d,0.5913219570647925,vtsPrac,908.3868079560343,,,,,,,,,,,,,,,,,,,,,,,,,,,,,33606,2022-11-17_14h05.11.770,vts_reward_expectancy_bt_OFFLINE,2022.2.4,59.9301724871312,
