LTriangleOpac,LCircleOpac,LHexagonOpac,LStarOpac,RTriangleOpac,RCircleOpac,RHexagonOpac,RStarOpac,LShape_ID,RShape_ID,training_blocks.thisRepN,training_blocks.thisTrialN,training_blocks.thisN,training_blocks.thisIndex,training.thisRepN,training.thisTrialN,training.thisN,training.thisIndex,task1_prac_redo.thisRepN,task1_prac_redo.thisTrialN,task1_prac_redo.thisN,task1_prac_redo.thisIndex,task1_prac_trials.thisRepN,task1_prac_trials.thisTrialN,task1_prac_trials.thisN,task1_prac_trials.thisIndex,task2_prac_redo.thisRepN,task2_prac_redo.thisTrialN,task2_prac_redo.thisN,task2_prac_redo.thisIndex,task2_praac_trials.thisRepN,task2_praac_trials.thisTrialN,task2_praac_trials.thisN,task2_praac_trials.thisIndex,vts_prac_redo.thisRepN,vts_prac_redo.thisTrialN,vts_prac_redo.thisN,vts_prac_redo.thisIndex,vts_practice_trials.thisRepN,vts_practice_trials.thisTrialN,vts_practice_trials.thisN,vts_practice_trials.thisIndex,trials_norew.thisRepN,trials_norew.thisTrialN,trials_norew.thisN,trials_norew.thisIndex,block.thisRepN,block.thisTrialN,block.thisN,block.thisIndex,trials_rew.thisRepN,trials_rew.thisTrialN,trials_rew.thisN,trials_rew.thisIndex,key_resp.started,key_resp.keys,key_resp.rt,left_circle.started,right_circle.started,left_triangle.started,right_triangle.started,left_star.started,right_star.started,left_hexagon.started,right_hexagon.started,training_fix.started,training_resp.started,training_resp.keys,training_resp.rt,points_trial,points_cumul,trainBlock,training_feedback_txt.started,training_feedback_txt.stopped,fix.started,fix.stopped,curr_topStim,curr_bottStim,curr_shape,ISI.started,tgt_fix_prac1.started,top_target_prac1.started,bott_target_prac1.started,target_resp_prac1.started,top_target_prac1.stopped,bott_target_prac1.stopped,target_resp_prac1.stopped,acc,E1,target_resp_prac1.keys,pracBlock,prac_fback_text.started,target_resp_prac1.rt,prac_fback_text.stopped,tgt_fix_prac2.started,top_target_prac2.started,bott_target_prac2.started,target_resp_prac2.started,target_resp_prac2.keys,target_resp_prac2.rt,star.started,hegagon.started,triangle.started,circle.started,top_target.started,tgt_fix.started,bot_target.started,target_resp.started,star.stopped,hegagon.stopped,triangle.stopped,circle.stopped,top_target.stopped,tgt_fix.stopped,bot_target.stopped,target_resp.stopped,alt,task,condition,target_resp.keys,rewCond,vts_fback.started,target_resp.rt,vts_fback.stopped,blockNum,norew_fback.started,norew_fback.stopped,key_resp_2.keys,key_resp_2.rt,rewExpectancy,feedbk_text.started,feedbk_text.stopped,text_3.started,debrief.started,text_3.stopped,button.started,debrief.index,debrief.itemText,debrief.type,debrief.granularity,debrief.font,debrief.markerColor,debrief.response,debrief.rt,button.numClicks,button.timesOn,button.timesOff,participant,date,expName,psychopyVersion,frameRate,
,,,,,,,,,,,,,,,,,,,,,,,,,,,,,,,,,,,,,,,,,,,,,,,,,,,,,,724.0067442369182,space,6.186322286957875,,,,,,,,,,,,,,,,,,,,,,,,,,,,,,,,,,,,,,,,,,,,,,,,,,,,,,,,,,,,,,,,,,,,,,,,,,,,,,,,,,,,,,,,,,,34086,2022-11-21_10h34.32.553,vts_reward_expectancy_bt_OFFLINE,2022.2.4,59.67327898778588,
0,1,0,0,1,0,0,0,circle,triangle,0,0,0,0,0,0,0,3,,,,,,,,,,,,,,,,,,,,,,,,,,,,,,,,,,,,,,,,763.0909435229842,763.0909435229842,763.0909435229842,763.0909435229842,763.0909435229842,763.0909435229842,763.0909435229842,763.0909435229842,763.0909435229842,763.0909435229842,a,1.6855230759829283,1,1,0,764.7990169709083,766.2978950010147,766.2978950010147,766.797769082943,,,,,,,,,,,,,,,,,,,,,,,,,,,,,,,,,,,,,,,,,,,,,,,,,,,,,,,,,,,,,,,,,,,,,,,,34086,2022-11-21_10h34.32.553,vts_reward_expectancy_bt_OFFLINE,2022.2.4,59.67327898778588,
0,1,0,0,0,0,0,1,circle,star,0,0,0,0,0,1,1,5,,,,,,,,,,,,,,,,,,,,,,,,,,,,,,,,,,,,,,,,766.797769082943,766.797769082943,766.797769082943,766.797769082943,766.797769082943,766.797769082943,766.797769082943,766.797769082943,766.797769082943,766.797769082943,l,1.2189938249066472,10,11,0,768.0366199170239,,769.5513863970991,,,,,,,,,,,,,,,,,,,,,,,,,,,,,,,,,,,,,,,,,,,,,,,,,,,,,,,,,,,,,,,,,,,,,,,,,34086,2022-11-21_10h34.32.553,vts_reward_expectancy_bt_OFFLINE,2022.2.4,59.67327898778588,
0,0,1,0,1,0,0,0,hexagon,triangle,0,0,0,0,0,2,2,6,,,,,,,,,,,,,,,,,,,,,,,,,,,,,,,,,,,,,,,,770.0516829430126,770.0516829430126,770.0516829430126,770.0516829430126,770.0516829430126,770.0516829430126,770.0516829430126,770.0516829430126,770.0516829430126,770.0516829430126,a,1.2289087488316,1,12,0,771.3019926040433,,772.8036778948735,,,,,,,,,,,,,,,,,,,,,,,,,,,,,,,,,,,,,,,,,,,,,,,,,,,,,,,,,,,,,,,,,,,,,,,,,34086,2022-11-21_10h34.32.553,vts_reward_expectancy_bt_OFFLINE,2022.2.4,59.67327898778588,
0,0,0,1,1,0,0,0,star,triangle,0,0,0,0,0,3,3,9,,,,,,,,,,,,,,,,,,,,,,,,,,,,,,,,,,,,,,,,773.3038756130263,773.3038756130263,773.3038756130263,773.3038756130263,773.3038756130263,773.3038756130263,773.3038756130263,773.3038756130263,773.3038756130263,773.3038756130263,l,0.8445085468702018,1,13,0,774.1708389779087,775.670991916908,775.670991916908,776.1712896090467,,,,,,,,,,,,,,,,,,,,,,,,,,,,,,,,,,,,,,,,,,,,,,,,,,,,,,,,,,,,,,,,,,,,,,,,34086,2022-11-21_10h34.32.553,vts_reward_expectancy_bt_OFFLINE,2022.2.4,59.67327898778588,
1,0,0,0,0,0,1,0,triangle,hexagon,0,0,0,0,0,4,4,1,,,,,,,,,,,,,,,,,,,,,,,,,,,,,,,,,,,,,,,,776.1712896090467,776.1712896090467,776.1712896090467,776.1712896090467,776.1712896090467,776.1712896090467,776.1712896090467,776.1712896090467,776.1712896090467,776.1712896090467,a,1.2070576837286353,10,23,0,777.4064189579803,,778.9078911400866,,,,,,,,,,,,,,,,,,,,,,,,,,,,,,,,,,,,,,,,,,,,,,,,,,,,,,,,,,,,,,,,,,,,,,,,,34086,2022-11-21_10h34.32.553,vts_reward_expectancy_bt_OFFLINE,2022.2.4,59.67327898778588,
0,0,1,0,0,1,0,0,hexagon,circle,0,0,0,0,0,5,5,7,,,,,,,,,,,,,,,,,,,,,,,,,,,,,,,,,,,,,,,,779.4081468139775,779.4081468139775,779.4081468139775,779.4081468139775,779.4081468139775,779.4081468139775,779.4081468139775,779.4081468139775,779.4081468139775,779.4081468139775,l,0.5907669248990715,1,24,0,780.0252250190824,781.5255624270067,781.5255624270067,,,,,,,,,,,,,,,,,,,,,,,,,,,,,,,,,,,,,,,,,,,,,,,,,,,,,,,,,,,,,,,,,,,,,,,,,34086,2022-11-21_10h34.32.553,vts_reward_expectancy_bt_OFFLINE,2022.2.4,59.67327898778588,
0,0,0,1,0,1,0,0,star ,circle,0,0,0,0,0,6,6,10,,,,,,,,,,,,,,,,,,,,,,,,,,,,,,,,,,,,,,,,782.0257283090614,782.0257283090614,782.0257283090614,782.0257283090614,782.0257283090614,782.0257283090614,782.0257283090614,782.0257283090614,782.0257283090614,782.0257283090614,a,0.6507316557690501,1,25,0,782.6967501530889,,784.2114788379986,,,,,,,,,,,,,,,,,,,,,,,,,,,,,,,,,,,,,,,,,,,,,,,,,,,,,,,,,,,,,,,,,,,,,,,,,34086,2022-11-21_10h34.32.553,vts_reward_expectancy_bt_OFFLINE,2022.2.4,59.67327898778588,
1,0,0,0,0,0,0,1,triangle,star,0,0,0,0,0,7,7,2,,,,,,,,,,,,,,,,,,,,,,,,,,,,,,,,,,,,,,,,784.7115691979416,784.7115691979416,784.7115691979416,784.7115691979416,784.7115691979416,784.7115691979416,784.7115691979416,784.7115691979416,784.7115691979416,784.7115691979416,l,0.4176319041289389,1,26,0,785.1619807910174,786.6624028889928,786.6624028889928,787.1626342709642,,,,,,,,,,,,,,,,,,,,,,,,,,,,,,,,,,,,,,,,,,,,,,,,,,,,,,,,,,,,,,,,,,,,,,,,34086,2022-11-21_10h34.32.553,vts_reward_expectancy_bt_OFFLINE,2022.2.4,59.67327898778588,
1,0,0,0,0,1,0,0,triangle,circle,0,0,0,0,0,8,8,0,,,,,,,,,,,,,,,,,,,,,,,,,,,,,,,,,,,,,,,,787.1626342709642,787.1626342709642,787.1626342709642,787.1626342709642,787.1626342709642,787.1626342709642,787.1626342709642,787.1626342709642,787.1626342709642,787.1626342709642,a,0.7901625458616763,1,27,0,787.9812240230385,789.4818245240021,789.4818245240021,789.982275377959,,,,,,,,,,,,,,,,,,,,,,,,,,,,,,,,,,,,,,,,,,,,,,,,,,,,,,,,,,,,,,,,,,,,,,,,34086,2022-11-21_10h34.32.553,vts_reward_expectancy_bt_OFFLINE,2022.2.4,59.67327898778588,
0,1,0,0,0,0,1,0,circle,hexagon,0,0,0,0,0,9,9,4,,,,,,,,,,,,,,,,,,,,,,,,,,,,,,,,,,,,,,,,789.982275377959,789.982275377959,789.982275377959,789.982275377959,789.982275377959,789.982275377959,789.982275377959,789.982275377959,789.982275377959,789.982275377959,l,0.6267347279936075,10,37,0,790.6331842110958,792.1327472990379,792.1327472990379,792.6330298720859,,,,,,,,,,,,,,,,,,,,,,,,,,,,,,,,,,,,,,,,,,,,,,,,,,,,,,,,,,,,,,,,,,,,,,,,34086,2022-11-21_10h34.32.553,vts_reward_expectancy_bt_OFFLINE,2022.2.4,59.67327898778588,
0,0,0,1,0,0,1,0,star,hexagon,0,0,0,0,0,10,10,11,,,,,,,,,,,,,,,,,,,,,,,,,,,,,,,,,,,,,,,,792.6330298720859,792.6330298720859,792.6330298720859,792.6330298720859,792.6330298720859,792.6330298720859,792.6330298720859,792.6330298720859,792.6330298720859,792.6330298720859,a,0.6193804671056569,10,47,0,793.2847594509367,794.7853133759927,794.7853133759927,,,,,,,,,,,,,,,,,,,,,,,,,,,,,,,,,,,,,,,,,,,,,,,,,,,,,,,,,,,,,,,,,,,,,,,,,34086,2022-11-21_10h34.32.553,vts_reward_expectancy_bt_OFFLINE,2022.2.4,59.67327898778588,
0,0,1,0,0,0,0,1,hexagon,star,0,0,0,0,0,11,11,8,,,,,,,,,,,,,,,,,,,,,,,,,,,,,,,,,,,,,,,,795.2856779128779,795.2856779128779,795.2856779128779,795.2856779128779,795.2856779128779,795.2856779128779,795.2856779128779,795.2856779128779,795.2856779128779,795.2856779128779,a,0.8580252251122147,10,57,0,796.1693679720629,797.6677635379601,797.6677635379601,,,,,,,,,,,,,,,,,,,,,,,,,,,,,,,,,,,,,,,,,,,,,,,,,,,,,,,,,,,,,,,,,,,,,,,,,34086,2022-11-21_10h34.32.553,vts_reward_expectancy_bt_OFFLINE,2022.2.4,59.67327898778588,
0,0,1,0,0,0,0,1,hexagon,star,0,0,0,0,1,0,12,8,,,,,,,,,,,,,,,,,,,,,,,,,,,,,,,,,,,,,,,,798.1721988229547,798.1721988229547,798.1721988229547,798.1721988229547,798.1721988229547,798.1721988229547,798.1721988229547,798.1721988229547,798.1721988229547,798.1721988229547,l,0.5030047008767724,10,67,0,798.7054328429513,800.2062539050821,800.2062539050821,800.706259328872,,,,,,,,,,,,,,,,,,,,,,,,,,,,,,,,,,,,,,,,,,,,,,,,,,,,,,,,,,,,,,,,,,,,,,,,34086,2022-11-21_10h34.32.553,vts_reward_expectancy_bt_OFFLINE,2022.2.4,59.67327898778588,
0,0,1,0,1,0,0,0,hexagon,triangle,0,0,0,0,1,1,13,6,,,,,,,,,,,,,,,,,,,,,,,,,,,,,,,,,,,,,,,,800.706259328872,800.706259328872,800.706259328872,800.706259328872,800.706259328872,800.706259328872,800.706259328872,800.706259328872,800.706259328872,800.706259328872,a,0.45596603280864656,10,77,0,801.189899056917,,802.6946448879316,,,,,,,,,,,,,,,,,,,,,,,,,,,,,,,,,,,,,,,,,,,,,,,,,,,,,,,,,,,,,,,,,,,,,,,,,34086,2022-11-21_10h34.32.553,vts_reward_expectancy_bt_OFFLINE,2022.2.4,59.67327898778588,
0,0,0,1,0,1,0,0,star ,circle,0,0,0,0,1,2,14,10,,,,,,,,,,,,,,,,,,,,,,,,,,,,,,,,,,,,,,,,803.1918170219287,803.1918170219287,803.1918170219287,803.1918170219287,803.1918170219287,803.1918170219287,803.1918170219287,803.1918170219287,803.1918170219287,803.1918170219287,a,0.5680295887868851,10,87,0,803.7923741159029,,805.2928520250134,805.7928930979688,,,,,,,,,,,,,,,,,,,,,,,,,,,,,,,,,,,,,,,,,,,,,,,,,,,,,,,,,,,,,,,,,,,,,,,,34086,2022-11-21_10h34.32.553,vts_reward_expectancy_bt_OFFLINE,2022.2.4,59.67327898778588,
0,1,0,0,1,0,0,0,circle,triangle,0,0,0,0,1,3,15,3,,,,,,,,,,,,,,,,,,,,,,,,,,,,,,,,,,,,,,,,805.7928930979688,805.7928930979688,805.7928930979688,805.7928930979688,805.7928930979688,805.7928930979688,805.7928930979688,805.7928930979688,805.7928930979688,805.7928930979688,l,0.6335893750656396,1,88,0,806.4437473320868,,807.9461320228875,,,,,,,,,,,,,,,,,,,,,,,,,,,,,,,,,,,,,,,,,,,,,,,,,,,,,,,,,,,,,,,,,,,,,,,,,34086,2022-11-21_10h34.32.553,vts_reward_expectancy_bt_OFFLINE,2022.2.4,59.67327898778588,
0,0,0,1,0,0,1,0,star,hexagon,0,0,0,0,1,4,16,11,,,,,,,,,,,,,,,,,,,,,,,,,,,,,,,,,,,,,,,,808.4460155880079,808.4460155880079,808.4460155880079,808.4460155880079,808.4460155880079,808.4460155880079,808.4460155880079,808.4460155880079,808.4460155880079,808.4460155880079,a,0.646840118104592,10,98,0,809.113398907939,810.6134712670464,810.6134712670464,811.1136998650618,,,,,,,,,,,,,,,,,,,,,,,,,,,,,,,,,,,,,,,,,,,,,,,,,,,,,,,,,,,,,,,,,,,,,,,,34086,2022-11-21_10h34.32.553,vts_reward_expectancy_bt_OFFLINE,2022.2.4,59.67327898778588,
0,0,1,0,0,1,0,0,hexagon,circle,0,0,0,0,1,5,17,7,,,,,,,,,,,,,,,,,,,,,,,,,,,,,,,,,,,,,,,,811.1136998650618,811.1136998650618,811.1136998650618,811.1136998650618,811.1136998650618,811.1136998650618,811.1136998650618,811.1136998650618,811.1136998650618,811.1136998650618,a,0.18451291206292808,10,108,0,811.3306431090459,,812.8327987170778,,,,,,,,,,,,,,,,,,,,,,,,,,,,,,,,,,,,,,,,,,,,,,,,,,,,,,,,,,,,,,,,,,,,,,,,,34086,2022-11-21_10h34.32.553,vts_reward_expectancy_bt_OFFLINE,2022.2.4,59.67327898778588,
0,0,0,1,1,0,0,0,star,triangle,0,0,0,0,1,6,18,9,,,,,,,,,,,,,,,,,,,,,,,,,,,,,,,,,,,,,,,,813.3329315739684,813.3329315739684,813.3329315739684,813.3329315739684,813.3329315739684,813.3329315739684,813.3329315739684,813.3329315739684,813.3329315739684,813.3329315739684,l,0.39552533300593495,10,118,0,813.7497416089755,815.2499465809669,815.2499465809669,815.750272587873,,,,,,,,,,,,,,,,,,,,,,,,,,,,,,,,,,,,,,,,,,,,,,,,,,,,,,,,,,,,,,,,,,,,,,,,34086,2022-11-21_10h34.32.553,vts_reward_expectancy_bt_OFFLINE,2022.2.4,59.67327898778588,
1,0,0,0,0,0,1,0,triangle,hexagon,0,0,0,0,1,7,19,1,,,,,,,,,,,,,,,,,,,,,,,,,,,,,,,,,,,,,,,,815.750272587873,815.750272587873,815.750272587873,815.750272587873,815.750272587873,815.750272587873,815.750272587873,815.750272587873,815.750272587873,815.750272587873,l,0.5101040760055184,1,119,0,816.2849417750258,,817.7864905020688,,,,,,,,,,,,,,,,,,,,,,,,,,,,,,,,,,,,,,,,,,,,,,,,,,,,,,,,,,,,,,,,,,,,,,,,,34086,2022-11-21_10h34.32.553,vts_reward_expectancy_bt_OFFLINE,2022.2.4,59.67327898778588,
1,0,0,0,0,0,0,1,triangle,star,0,0,0,0,1,8,20,2,,,,,,,,,,,,,,,,,,,,,,,,,,,,,,,,,,,,,,,,818.2868704220746,818.2868704220746,818.2868704220746,818.2868704220746,818.2868704220746,818.2868704220746,818.2868704220746,818.2868704220746,818.2868704220746,818.2868704220746,a,0.3686677417717874,1,120,0,818.6869406930637,820.187803223962,820.187803223962,820.687699287897,,,,,,,,,,,,,,,,,,,,,,,,,,,,,,,,,,,,,,,,,,,,,,,,,,,,,,,,,,,,,,,,,,,,,,,,34086,2022-11-21_10h34.32.553,vts_reward_expectancy_bt_OFFLINE,2022.2.4,59.67327898778588,
0,1,0,0,0,0,1,0,circle,hexagon,0,0,0,0,1,9,21,4,,,,,,,,,,,,,,,,,,,,,,,,,,,,,,,,,,,,,,,,820.687699287897,820.687699287897,820.687699287897,820.687699287897,820.687699287897,820.687699287897,820.687699287897,820.687699287897,820.687699287897,820.687699287897,l,0.904342892812565,1,121,0,821.6209954470396,,823.1238966099918,,,,,,,,,,,,,,,,,,,,,,,,,,,,,,,,,,,,,,,,,,,,,,,,,,,,,,,,,,,,,,,,,,,,,,,,,34086,2022-11-21_10h34.32.553,vts_reward_expectancy_bt_OFFLINE,2022.2.4,59.67327898778588,
1,0,0,0,0,1,0,0,triangle,circle,0,0,0,0,1,10,22,0,,,,,,,,,,,,,,,,,,,,,,,,,,,,,,,,,,,,,,,,823.6241800449789,823.6241800449789,823.6241800449789,823.6241800449789,823.6241800449789,823.6241800449789,823.6241800449789,823.6241800449789,823.6241800449789,823.6241800449789,a,0.7587693687528372,1,122,0,824.4071301019285,825.9075139719062,825.9075139719062,826.4078307580203,,,,,,,,,,,,,,,,,,,,,,,,,,,,,,,,,,,,,,,,,,,,,,,,,,,,,,,,,,,,,,,,,,,,,,,,34086,2022-11-21_10h34.32.553,vts_reward_expectancy_bt_OFFLINE,2022.2.4,59.67327898778588,
0,1,0,0,0,0,0,1,circle,star,0,0,0,0,1,11,23,5,,,,,,,,,,,,,,,,,,,,,,,,,,,,,,,,,,,,,,,,826.4078307580203,826.4078307580203,826.4078307580203,826.4078307580203,826.4078307580203,826.4078307580203,826.4078307580203,826.4078307580203,826.4078307580203,826.4078307580203,a,0.7309328988194466,1,123,0,827.157711942913,,828.6607993599027,,,,,,,,,,,,,,,,,,,,,,,,,,,,,,,,,,,,,,,,,,,,,,,,,,,,,,,,,,,,,,,,,,,,,,,,,34086,2022-11-21_10h34.32.553,vts_reward_expectancy_bt_OFFLINE,2022.2.4,59.67327898778588,
0,0,1,0,1,0,0,0,hexagon,triangle,0,0,0,0,2,0,24,6,,,,,,,,,,,,,,,,,,,,,,,,,,,,,,,,,,,,,,,,829.1611135140993,829.1611135140993,829.1611135140993,829.1611135140993,829.1611135140993,829.1611135140993,829.1611135140993,829.1611135140993,829.1611135140993,829.1611135140993,a,0.8247157419100404,10,133,0,830.0124052020255,831.511790090939,831.511790090939,832.0118028949946,,,,,,,,,,,,,,,,,,,,,,,,,,,,,,,,,,,,,,,,,,,,,,,,,,,,,,,,,,,,,,,,,,,,,,,,34086,2022-11-21_10h34.32.553,vts_reward_expectancy_bt_OFFLINE,2022.2.4,59.67327898778588,
0,0,1,0,0,0,0,1,hexagon,star,0,0,0,0,2,1,25,8,,,,,,,,,,,,,,,,,,,,,,,,,,,,,,,,,,,,,,,,832.0118028949946,832.0118028949946,832.0118028949946,832.0118028949946,832.0118028949946,832.0118028949946,832.0118028949946,832.0118028949946,832.0118028949946,832.0118028949946,l,0.4491912128869444,10,143,0,832.4785186450463,,833.9819095470011,,,,,,,,,,,,,,,,,,,,,,,,,,,,,,,,,,,,,,,,,,,,,,,,,,,,,,,,,,,,,,,,,,,,,,,,,34086,2022-11-21_10h34.32.553,vts_reward_expectancy_bt_OFFLINE,2022.2.4,59.67327898778588,
0,0,0,1,1,0,0,0,star,triangle,0,0,0,0,2,2,26,9,,,,,,,,,,,,,,,,,,,,,,,,,,,,,,,,,,,,,,,,834.4818022619002,834.4818022619002,834.4818022619002,834.4818022619002,834.4818022619002,834.4818022619002,834.4818022619002,834.4818022619002,834.4818022619002,834.4818022619002,l,0.8585144130047411,1,144,0,835.3652996378951,836.8653778000735,836.8653778000735,,,,,,,,,,,,,,,,,,,,,,,,,,,,,,,,,,,,,,,,,,,,,,,,,,,,,,,,,,,,,,,,,,,,,,,,,34086,2022-11-21_10h34.32.553,vts_reward_expectancy_bt_OFFLINE,2022.2.4,59.67327898778588,
1,0,0,0,0,0,0,1,triangle,star,0,0,0,0,2,3,27,2,,,,,,,,,,,,,,,,,,,,,,,,,,,,,,,,,,,,,,,,837.3652756200172,837.3652756200172,837.3652756200172,837.3652756200172,837.3652756200172,837.3652756200172,837.3652756200172,837.3652756200172,837.3652756200172,837.3652756200172,l,0.8213200860191137,10,154,0,838.2187811739277,839.7183879890945,839.7183879890945,840.2184591670521,,,,,,,,,,,,,,,,,,,,,,,,,,,,,,,,,,,,,,,,,,,,,,,,,,,,,,,,,,,,,,,,,,,,,,,,34086,2022-11-21_10h34.32.553,vts_reward_expectancy_bt_OFFLINE,2022.2.4,59.67327898778588,
0,0,0,1,0,1,0,0,star ,circle,0,0,0,0,2,4,28,10,,,,,,,,,,,,,,,,,,,,,,,,,,,,,,,,,,,,,,,,840.2184591670521,840.2184591670521,840.2184591670521,840.2184591670521,840.2184591670521,840.2184591670521,840.2184591670521,840.2184591670521,840.2184591670521,840.2184591670521,a,0.44351947284303606,10,164,0,840.6852607780602,,842.1859001950361,,,,,,,,,,,,,,,,,,,,,,,,,,,,,,,,,,,,,,,,,,,,,,,,,,,,,,,,,,,,,,,,,,,,,,,,,34086,2022-11-21_10h34.32.553,vts_reward_expectancy_bt_OFFLINE,2022.2.4,59.67327898778588,
1,0,0,0,0,0,1,0,triangle,hexagon,0,0,0,0,2,5,29,1,,,,,,,,,,,,,,,,,,,,,,,,,,,,,,,,,,,,,,,,842.6860310218763,842.6860310218763,842.6860310218763,842.6860310218763,842.6860310218763,842.6860310218763,842.6860310218763,842.6860310218763,842.6860310218763,842.6860310218763,l,0.5641639260575175,10,174,0,843.2711612530984,844.7717792480253,844.7717792480253,845.2718540809583,,,,,,,,,,,,,,,,,,,,,,,,,,,,,,,,,,,,,,,,,,,,,,,,,,,,,,,,,,,,,,,,,,,,,,,,34086,2022-11-21_10h34.32.553,vts_reward_expectancy_bt_OFFLINE,2022.2.4,59.67327898778588,
1,0,0,0,0,1,0,0,triangle,circle,0,0,0,0,2,6,30,0,,,,,,,,,,,,,,,,,,,,,,,,,,,,,,,,,,,,,,,,845.2718540809583,845.2718540809583,845.2718540809583,845.2718540809583,845.2718540809583,845.2718540809583,845.2718540809583,845.2718540809583,845.2718540809583,845.2718540809583,l,0.9028879441320896,10,184,0,846.2059354789089,847.7039747270755,847.7039747270755,,,,,,,,,,,,,,,,,,,,,,,,,,,,,,,,,,,,,,,,,,,,,,,,,,,,,,,,,,,,,,,,,,,,,,,,,34086,2022-11-21_10h34.32.553,vts_reward_expectancy_bt_OFFLINE,2022.2.4,59.67327898778588,
0,1,0,0,1,0,0,0,circle,triangle,0,0,0,0,2,7,31,3,,,,,,,,,,,,,,,,,,,,,,,,,,,,,,,,,,,,,,,,848.2085685769562,848.2085685769562,848.2085685769562,848.2085685769562,848.2085685769562,848.2085685769562,848.2085685769562,848.2085685769562,848.2085685769562,848.2085685769562,a,0.5874220370315015,10,194,0,848.8256156549323,850.3257433469407,850.3257433469407,850.8262377548963,,,,,,,,,,,,,,,,,,,,,,,,,,,,,,,,,,,,,,,,,,,,,,,,,,,,,,,,,,,,,,,,,,,,,,,,34086,2022-11-21_10h34.32.553,vts_reward_expectancy_bt_OFFLINE,2022.2.4,59.67327898778588,
0,0,1,0,0,1,0,0,hexagon,circle,0,0,0,0,2,8,32,7,,,,,,,,,,,,,,,,,,,,,,,,,,,,,,,,,,,,,,,,850.8262377548963,850.8262377548963,850.8262377548963,850.8262377548963,850.8262377548963,850.8262377548963,850.8262377548963,850.8262377548963,850.8262377548963,850.8262377548963,l,0.4225613330490887,1,195,0,851.2770542448852,,852.7782449980732,,,,,,,,,,,,,,,,,,,,,,,,,,,,,,,,,,,,,,,,,,,,,,,,,,,,,,,,,,,,,,,,,,,,,,,,,34086,2022-11-21_10h34.32.553,vts_reward_expectancy_bt_OFFLINE,2022.2.4,59.67327898778588,
0,1,0,0,0,0,0,1,circle,star,0,0,0,0,2,9,33,5,,,,,,,,,,,,,,,,,,,,,,,,,,,,,,,,,,,,,,,,853.2783824610524,853.2783824610524,853.2783824610524,853.2783824610524,853.2783824610524,853.2783824610524,853.2783824610524,853.2783824610524,853.2783824610524,853.2783824610524,l,0.4792250329628587,10,205,0,853.7792854129802,855.2791310390458,855.2791310390458,855.7792327809148,,,,,,,,,,,,,,,,,,,,,,,,,,,,,,,,,,,,,,,,,,,,,,,,,,,,,,,,,,,,,,,,,,,,,,,,34086,2022-11-21_10h34.32.553,vts_reward_expectancy_bt_OFFLINE,2022.2.4,59.67327898778588,
0,0,0,1,0,0,1,0,star,hexagon,0,0,0,0,2,10,34,11,,,,,,,,,,,,,,,,,,,,,,,,,,,,,,,,,,,,,,,,855.7792327809148,855.7792327809148,855.7792327809148,855.7792327809148,855.7792327809148,855.7792327809148,855.7792327809148,855.7792327809148,855.7792327809148,855.7792327809148,a,0.45421556290239096,10,215,0,856.2629494250286,,857.7658200389706,,,,,,,,,,,,,,,,,,,,,,,,,,,,,,,,,,,,,,,,,,,,,,,,,,,,,,,,,,,,,,,,,,,,,,,,,34086,2022-11-21_10h34.32.553,vts_reward_expectancy_bt_OFFLINE,2022.2.4,59.67327898778588,
0,1,0,0,0,0,1,0,circle,hexagon,0,0,0,0,2,11,35,4,,,,,,,,,,,,,,,,,,,,,,,,,,,,,,,,,,,,,,,,858.2657230119221,858.2657230119221,858.2657230119221,858.2657230119221,858.2657230119221,858.2657230119221,858.2657230119221,858.2657230119221,858.2657230119221,858.2657230119221,l,0.5431851749308407,10,225,0,858.8329026459251,860.3330792819615,860.3330792819615,860.8332829130813,,,,,,,,,,,,,,,,,,,,,,,,,,,,,,,,,,,,,,,,,,,,,,,,,,,,,,,,,,,,,,,,,,,,,,,,34086,2022-11-21_10h34.32.553,vts_reward_expectancy_bt_OFFLINE,2022.2.4,59.67327898778588,
0,0,1,0,0,1,0,0,hexagon,circle,0,0,0,0,3,0,36,7,,,,,,,,,,,,,,,,,,,,,,,,,,,,,,,,,,,,,,,,860.8332829130813,860.8332829130813,860.8332829130813,860.8332829130813,860.8332829130813,860.8332829130813,860.8332829130813,860.8332829130813,860.8332829130813,860.8332829130813,a,0.8221822578925639,10,235,0,861.6834629429504,,863.1856359750964,,,,,,,,,,,,,,,,,,,,,,,,,,,,,,,,,,,,,,,,,,,,,,,,,,,,,,,,,,,,,,,,,,,,,,,,,34086,2022-11-21_10h34.32.553,vts_reward_expectancy_bt_OFFLINE,2022.2.4,59.67327898778588,
0,1,0,0,1,0,0,0,circle,triangle,0,0,0,0,3,1,37,3,,,,,,,,,,,,,,,,,,,,,,,,,,,,,,,,,,,,,,,,863.685819654027,863.685819654027,863.685819654027,863.685819654027,863.685819654027,863.685819654027,863.685819654027,863.685819654027,863.685819654027,863.685819654027,l,0.47968470701016486,1,236,0,864.1865957749542,865.6864972938783,865.6864972938783,866.1866163189989,,,,,,,,,,,,,,,,,,,,,,,,,,,,,,,,,,,,,,,,,,,,,,,,,,,,,,,,,,,,,,,,,,,,,,,,34086,2022-11-21_10h34.32.553,vts_reward_expectancy_bt_OFFLINE,2022.2.4,59.67327898778588,
0,1,0,0,0,0,0,1,circle,star,0,0,0,0,3,2,38,5,,,,,,,,,,,,,,,,,,,,,,,,,,,,,,,,,,,,,,,,866.1866163189989,866.1866163189989,866.1866163189989,866.1866163189989,866.1866163189989,866.1866163189989,866.1866163189989,866.1866163189989,866.1866163189989,866.1866163189989,l,0.542927763890475,1,237,0,866.754329402931,,868.2562756789848,,,,,,,,,,,,,,,,,,,,,,,,,,,,,,,,,,,,,,,,,,,,,,,,,,,,,,,,,,,,,,,,,,,,,,,,,34086,2022-11-21_10h34.32.553,vts_reward_expectancy_bt_OFFLINE,2022.2.4,59.67327898778588,
0,0,0,1,0,1,0,0,star ,circle,0,0,0,0,3,3,39,10,,,,,,,,,,,,,,,,,,,,,,,,,,,,,,,,,,,,,,,,868.7563424450345,868.7563424450345,868.7563424450345,868.7563424450345,868.7563424450345,868.7563424450345,868.7563424450345,868.7563424450345,868.7563424450345,868.7563424450345,a,0.6620005208533257,1,238,0,869.4400507269893,870.9406455869321,870.9406455869321,871.4408979250584,,,,,,,,,,,,,,,,,,,,,,,,,,,,,,,,,,,,,,,,,,,,,,,,,,,,,,,,,,,,,,,,,,,,,,,,34086,2022-11-21_10h34.32.553,vts_reward_expectancy_bt_OFFLINE,2022.2.4,59.67327898778588,
0,0,0,1,0,0,1,0,star,hexagon,0,0,0,0,3,4,40,11,,,,,,,,,,,,,,,,,,,,,,,,,,,,,,,,,,,,,,,,871.4408979250584,871.4408979250584,871.4408979250584,871.4408979250584,871.4408979250584,871.4408979250584,871.4408979250584,871.4408979250584,871.4408979250584,871.4408979250584,a,1.173148029949516,1,239,0,872.6409743060358,,874.1434673119802,,,,,,,,,,,,,,,,,,,,,,,,,,,,,,,,,,,,,,,,,,,,,,,,,,,,,,,,,,,,,,,,,,,,,,,,,34086,2022-11-21_10h34.32.553,vts_reward_expectancy_bt_OFFLINE,2022.2.4,59.67327898778588,
1,0,0,0,0,0,1,0,triangle,hexagon,0,0,0,0,3,5,41,1,,,,,,,,,,,,,,,,,,,,,,,,,,,,,,,,,,,,,,,,874.6433523080777,874.6433523080777,874.6433523080777,874.6433523080777,874.6433523080777,874.6433523080777,874.6433523080777,874.6433523080777,874.6433523080777,874.6433523080777,l,0.6153254271484911,1,240,0,875.2772658478934,876.7778206400108,876.7778206400108,877.2778935600072,,,,,,,,,,,,,,,,,,,,,,,,,,,,,,,,,,,,,,,,,,,,,,,,,,,,,,,,,,,,,,,,,,,,,,,,34086,2022-11-21_10h34.32.553,vts_reward_expectancy_bt_OFFLINE,2022.2.4,59.67327898778588,
0,1,0,0,0,0,1,0,circle,hexagon,0,0,0,0,3,6,42,4,,,,,,,,,,,,,,,,,,,,,,,,,,,,,,,,,,,,,,,,877.2778935600072,877.2778935600072,877.2778935600072,877.2778935600072,877.2778935600072,877.2778935600072,877.2778935600072,877.2778935600072,877.2778935600072,877.2778935600072,l,2.2210648108739406,10,250,0,879.5311504409183,881.0313103289809,881.0313103289809,881.5314717788715,,,,,,,,,,,,,,,,,,,,,,,,,,,,,,,,,,,,,,,,,,,,,,,,,,,,,,,,,,,,,,,,,,,,,,,,34086,2022-11-21_10h34.32.553,vts_reward_expectancy_bt_OFFLINE,2022.2.4,59.67327898778588,
0,0,1,0,1,0,0,0,hexagon,triangle,0,0,0,0,3,7,43,6,,,,,,,,,,,,,,,,,,,,,,,,,,,,,,,,,,,,,,,,881.5314717788715,881.5314717788715,881.5314717788715,881.5314717788715,881.5314717788715,881.5314717788715,881.5314717788715,881.5314717788715,881.5314717788715,881.5314717788715,a,0.5213253498077393,10,260,0,882.081775238039,,883.5838204789907,,,,,,,,,,,,,,,,,,,,,,,,,,,,,,,,,,,,,,,,,,,,,,,,,,,,,,,,,,,,,,,,,,,,,,,,,34086,2022-11-21_10h34.32.553,vts_reward_expectancy_bt_OFFLINE,2022.2.4,59.67327898778588,
1,0,0,0,0,0,0,1,triangle,star,0,0,0,0,3,8,44,2,,,,,,,,,,,,,,,,,,,,,,,,,,,,,,,,,,,,,,,,884.0842078209389,884.0842078209389,884.0842078209389,884.0842078209389,884.0842078209389,884.0842078209389,884.0842078209389,884.0842078209389,884.0842078209389,884.0842078209389,l,0.47769630909897387,10,270,0,884.5845488649793,886.0848748609424,886.0848748609424,,,,,,,,,,,,,,,,,,,,,,,,,,,,,,,,,,,,,,,,,,,,,,,,,,,,,,,,,,,,,,,,,,,,,,,,,34086,2022-11-21_10h34.32.553,vts_reward_expectancy_bt_OFFLINE,2022.2.4,59.67327898778588,
1,0,0,0,0,1,0,0,triangle,circle,0,0,0,0,3,9,45,0,,,,,,,,,,,,,,,,,,,,,,,,,,,,,,,,,,,,,,,,886.5852973340079,886.5852973340079,886.5852973340079,886.5852973340079,886.5852973340079,886.5852973340079,886.5852973340079,886.5852973340079,886.5852973340079,886.5852973340079,l,0.67664639884606,10,280,0,887.2856055970769,,888.7878814518917,,,,,,,,,,,,,,,,,,,,,,,,,,,,,,,,,,,,,,,,,,,,,,,,,,,,,,,,,,,,,,,,,,,,,,,,,34086,2022-11-21_10h34.32.553,vts_reward_expectancy_bt_OFFLINE,2022.2.4,59.67327898778588,
0,0,0,1,1,0,0,0,star,triangle,0,0,0,0,3,10,46,9,,,,,,,,,,,,,,,,,,,,,,,,,,,,,,,,,,,,,,,,889.2882902119309,889.2882902119309,889.2882902119309,889.2882902119309,889.2882902119309,889.2882902119309,889.2882902119309,889.2882902119309,889.2882902119309,889.2882902119309,l,0.6511142239905894,1,281,0,889.9714359000791,891.4718992169946,891.4718992169946,891.9719382720068,,,,,,,,,,,,,,,,,,,,,,,,,,,,,,,,,,,,,,,,,,,,,,,,,,,,,,,,,,,,,,,,,,,,,,,,34086,2022-11-21_10h34.32.553,vts_reward_expectancy_bt_OFFLINE,2022.2.4,59.67327898778588,
0,0,1,0,0,0,0,1,hexagon,star,0,0,0,0,3,11,47,8,,,,,,,,,,,,,,,,,,,,,,,,,,,,,,,,,,,,,,,,891.9719382720068,891.9719382720068,891.9719382720068,891.9719382720068,891.9719382720068,891.9719382720068,891.9719382720068,891.9719382720068,891.9719382720068,891.9719382720068,l,0.6790218357928097,1,282,0,892.6721054860391,,894.1753293119837,,,,,,,,,,,,,,,,,,,,,,,,,,,,,,,,,,,,,,,,,,,,,,,,,,,,,,,,,,,,,,,,,,,,,,,,,34086,2022-11-21_10h34.32.553,vts_reward_expectancy_bt_OFFLINE,2022.2.4,59.67327898778588,
0,0,1,0,0,1,0,0,hexagon,circle,1,0,1,0,0,0,0,7,,,,,,,,,,,,,,,,,,,,,,,,,,,,,,,,,,,,,,,,902.6375930260401,902.6375930260401,902.6375930260401,902.6375930260401,902.6375930260401,902.6375930260401,902.6375930260401,902.6375930260401,902.6375930260401,902.6375930260401,a,0.7017132327891886,1,283,1,903.3648483210709,904.8653099169023,904.8653099169023,905.3654773519374,,,,,,,,,,,,,,,,,,,,,,,,,,,,,,,,,,,,,,,,,,,,,,,,,,,,,,,,,,,,,,,,,,,,,,,,34086,2022-11-21_10h34.32.553,vts_reward_expectancy_bt_OFFLINE,2022.2.4,59.67327898778588,
0,0,0,1,0,0,1,0,star,hexagon,1,0,1,0,0,1,1,11,,,,,,,,,,,,,,,,,,,,,,,,,,,,,,,,,,,,,,,,905.3654773519374,905.3654773519374,905.3654773519374,905.3654773519374,905.3654773519374,905.3654773519374,905.3654773519374,905.3654773519374,905.3654773519374,905.3654773519374,a,0.5500666010193527,10,293,1,905.9340611319058,,907.4501850518864,,,,,,,,,,,,,,,,,,,,,,,,,,,,,,,,,,,,,,,,,,,,,,,,,,,,,,,,,,,,,,,,,,,,,,,,,34086,2022-11-21_10h34.32.553,vts_reward_expectancy_bt_OFFLINE,2022.2.4,59.67327898778588,
1,0,0,0,0,0,0,1,triangle,star,1,0,1,0,0,2,2,2,,,,,,,,,,,,,,,,,,,,,,,,,,,,,,,,,,,,,,,,907.9354077160824,907.9354077160824,907.9354077160824,907.9354077160824,907.9354077160824,907.9354077160824,907.9354077160824,907.9354077160824,907.9354077160824,907.9354077160824,l,0.44466660800389946,10,303,1,908.4018815299496,,909.9027164739091,910.4029957880266,,,,,,,,,,,,,,,,,,,,,,,,,,,,,,,,,,,,,,,,,,,,,,,,,,,,,,,,,,,,,,,,,,,,,,,,34086,2022-11-21_10h34.32.553,vts_reward_expectancy_bt_OFFLINE,2022.2.4,59.67327898778588,
0,1,0,0,1,0,0,0,circle,triangle,1,0,1,0,0,3,3,3,,,,,,,,,,,,,,,,,,,,,,,,,,,,,,,,,,,,,,,,910.4029957880266,910.4029957880266,910.4029957880266,910.4029957880266,910.4029957880266,910.4029957880266,910.4029957880266,910.4029957880266,910.4029957880266,910.4029957880266,a,0.47507400601170957,1,304,1,910.9042887978721,912.4037053529173,912.4037053529173,,,,,,,,,,,,,,,,,,,,,,,,,,,,,,,,,,,,,,,,,,,,,,,,,,,,,,,,,,,,,,,,,,,,,,,,,34086,2022-11-21_10h34.32.553,vts_reward_expectancy_bt_OFFLINE,2022.2.4,59.67327898778588,
0,1,0,0,0,0,0,1,circle,star,1,0,1,0,0,4,4,5,,,,,,,,,,,,,,,,,,,,,,,,,,,,,,,,,,,,,,,,912.9052640579175,912.9052640579175,912.9052640579175,912.9052640579175,912.9052640579175,912.9052640579175,912.9052640579175,912.9052640579175,912.9052640579175,912.9052640579175,l,0.4355618190020323,10,314,1,913.3721251960378,914.8727324020583,914.8727324020583,915.3728839689866,,,,,,,,,,,,,,,,,,,,,,,,,,,,,,,,,,,,,,,,,,,,,,,,,,,,,,,,,,,,,,,,,,,,,,,,34086,2022-11-21_10h34.32.553,vts_reward_expectancy_bt_OFFLINE,2022.2.4,59.67327898778588,
0,0,0,1,0,1,0,0,star ,circle,1,0,1,0,0,5,5,10,,,,,,,,,,,,,,,,,,,,,,,,,,,,,,,,,,,,,,,,915.3728839689866,915.3728839689866,915.3728839689866,915.3728839689866,915.3728839689866,915.3728839689866,915.3728839689866,915.3728839689866,915.3728839689866,915.3728839689866,a,0.4428933870512992,10,324,1,915.8406212870032,917.3409561489243,917.3409561489243,,,,,,,,,,,,,,,,,,,,,,,,,,,,,,,,,,,,,,,,,,,,,,,,,,,,,,,,,,,,,,,,,,,,,,,,,34086,2022-11-21_10h34.32.553,vts_reward_expectancy_bt_OFFLINE,2022.2.4,59.67327898778588,
0,0,1,0,0,0,0,1,hexagon,star,1,0,1,0,0,6,6,8,,,,,,,,,,,,,,,,,,,,,,,,,,,,,,,,,,,,,,,,917.8423572620377,917.8423572620377,917.8423572620377,917.8423572620377,917.8423572620377,917.8423572620377,917.8423572620377,917.8423572620377,917.8423572620377,917.8423572620377,l,0.505471030017361,10,334,1,918.3758925660513,919.876427348936,919.876427348936,,,,,,,,,,,,,,,,,,,,,,,,,,,,,,,,,,,,,,,,,,,,,,,,,,,,,,,,,,,,,,,,,,,,,,,,,34086,2022-11-21_10h34.32.553,vts_reward_expectancy_bt_OFFLINE,2022.2.4,59.67327898778588,
1,0,0,0,0,1,0,0,triangle,circle,1,0,1,0,0,7,7,0,,,,,,,,,,,,,,,,,,,,,,,,,,,,,,,,,,,,,,,,920.3765515310224,920.3765515310224,920.3765515310224,920.3765515310224,920.3765515310224,920.3765515310224,920.3765515310224,920.3765515310224,920.3765515310224,920.3765515310224,a,0.5594377499073744,10,344,1,920.9605932359118,922.4612678410485,922.4612678410485,,,,,,,,,,,,,,,,,,,,,,,,,,,,,,,,,,,,,,,,,,,,,,,,,,,,,,,,,,,,,,,,,,,,,,,,,34086,2022-11-21_10h34.32.553,vts_reward_expectancy_bt_OFFLINE,2022.2.4,59.67327898778588,
1,0,0,0,0,0,1,0,triangle,hexagon,1,0,1,0,0,8,8,1,,,,,,,,,,,,,,,,,,,,,,,,,,,,,,,,,,,,,,,,922.9632763250265,922.9632763250265,922.9632763250265,922.9632763250265,922.9632763250265,922.9632763250265,922.9632763250265,922.9632763250265,922.9632763250265,922.9632763250265,a,0.48119020787999034,1,345,1,923.4644595410209,924.9637323599309,924.9637323599309,925.463902303949,,,,,,,,,,,,,,,,,,,,,,,,,,,,,,,,,,,,,,,,,,,,,,,,,,,,,,,,,,,,,,,,,,,,,,,,34086,2022-11-21_10h34.32.553,vts_reward_expectancy_bt_OFFLINE,2022.2.4,59.67327898778588,
0,0,1,0,1,0,0,0,hexagon,triangle,1,0,1,0,0,9,9,6,,,,,,,,,,,,,,,,,,,,,,,,,,,,,,,,,,,,,,,,925.463902303949,925.463902303949,925.463902303949,925.463902303949,925.463902303949,925.463902303949,925.463902303949,925.463902303949,925.463902303949,925.463902303949,l,0.7702888119965792,10,355,1,926.2659792099148,927.7621078679804,927.7621078679804,,,,,,,,,,,,,,,,,,,,,,,,,,,,,,,,,,,,,,,,,,,,,,,,,,,,,,,,,,,,,,,,,,,,,,,,,34086,2022-11-21_10h34.32.553,vts_reward_expectancy_bt_OFFLINE,2022.2.4,59.67327898778588,
0,0,0,1,1,0,0,0,star,triangle,1,0,1,0,0,10,10,9,,,,,,,,,,,,,,,,,,,,,,,,,,,,,,,,,,,,,,,,928.2666305529419,928.2666305529419,928.2666305529419,928.2666305529419,928.2666305529419,928.2666305529419,928.2666305529419,928.2666305529419,928.2666305529419,928.2666305529419,a,0.8475975769106299,10,365,1,929.1338440850377,930.6340753471013,930.6340753471013,931.134365563048,,,,,,,,,,,,,,,,,,,,,,,,,,,,,,,,,,,,,,,,,,,,,,,,,,,,,,,,,,,,,,,,,,,,,,,,34086,2022-11-21_10h34.32.553,vts_reward_expectancy_bt_OFFLINE,2022.2.4,59.67327898778588,
0,1,0,0,0,0,1,0,circle,hexagon,1,0,1,0,0,11,11,4,,,,,,,,,,,,,,,,,,,,,,,,,,,,,,,,,,,,,,,,931.134365563048,931.134365563048,931.134365563048,931.134365563048,931.134365563048,931.134365563048,931.134365563048,931.134365563048,931.134365563048,931.134365563048,l,0.7359261147212237,1,366,1,931.9012231728993,,933.404014867032,,,,,,,,,,,,,,,,,,,,,,,,,,,,,,,,,,,,,,,,,,,,,,,,,,,,,,,,,,,,,,,,,,,,,,,,,34086,2022-11-21_10h34.32.553,vts_reward_expectancy_bt_OFFLINE,2022.2.4,59.67327898778588,
0,1,0,0,0,0,1,0,circle,hexagon,1,0,1,0,1,0,12,4,,,,,,,,,,,,,,,,,,,,,,,,,,,,,,,,,,,,,,,,933.9045807579532,933.9045807579532,933.9045807579532,933.9045807579532,933.9045807579532,933.9045807579532,933.9045807579532,933.9045807579532,933.9045807579532,933.9045807579532,l,1.0935751509387046,10,376,1,935.0226155000273,936.5215452169068,936.5215452169068,937.0217009680346,,,,,,,,,,,,,,,,,,,,,,,,,,,,,,,,,,,,,,,,,,,,,,,,,,,,,,,,,,,,,,,,,,,,,,,,34086,2022-11-21_10h34.32.553,vts_reward_expectancy_bt_OFFLINE,2022.2.4,59.67327898778588,
1,0,0,0,0,0,0,1,triangle,star,1,0,1,0,1,1,13,2,,,,,,,,,,,,,,,,,,,,,,,,,,,,,,,,,,,,,,,,937.0217009680346,937.0217009680346,937.0217009680346,937.0217009680346,937.0217009680346,937.0217009680346,937.0217009680346,937.0217009680346,937.0217009680346,937.0217009680346,l,2.3767243889160454,10,386,1,939.4245378579944,940.924738090951,940.924738090951,941.4252759448718,,,,,,,,,,,,,,,,,,,,,,,,,,,,,,,,,,,,,,,,,,,,,,,,,,,,,,,,,,,,,,,,,,,,,,,,34086,2022-11-21_10h34.32.553,vts_reward_expectancy_bt_OFFLINE,2022.2.4,59.67327898778588,
0,0,0,1,1,0,0,0,star,triangle,1,0,1,0,1,2,14,9,,,,,,,,,,,,,,,,,,,,,,,,,,,,,,,,,,,,,,,,941.4252759448718,941.4252759448718,941.4252759448718,941.4252759448718,941.4252759448718,941.4252759448718,941.4252759448718,941.4252759448718,941.4252759448718,941.4252759448718,a,0.6270020548254251,1,387,1,942.0764413790312,,943.5778701230884,,,,,,,,,,,,,,,,,,,,,,,,,,,,,,,,,,,,,,,,,,,,,,,,,,,,,,,,,,,,,,,,,,,,,,,,,34086,2022-11-21_10h34.32.553,vts_reward_expectancy_bt_OFFLINE,2022.2.4,59.67327898778588,
0,0,1,0,0,1,0,0,hexagon,circle,1,0,1,0,1,3,15,7,,,,,,,,,,,,,,,,,,,,,,,,,,,,,,,,,,,,,,,,944.0776316788979,944.0776316788979,944.0776316788979,944.0776316788979,944.0776316788979,944.0776316788979,944.0776316788979,944.0776316788979,944.0776316788979,944.0776316788979,a,0.9230783660896122,10,397,1,945.0304491450079,,946.5452692650724,,,,,,,,,,,,,,,,,,,,,,,,,,,,,,,,,,,,,,,,,,,,,,,,,,,,,,,,,,,,,,,,,,,,,,,,,34086,2022-11-21_10h34.32.553,vts_reward_expectancy_bt_OFFLINE,2022.2.4,59.67327898778588,
0,0,0,1,0,1,0,0,star ,circle,1,0,1,0,1,4,16,10,,,,,,,,,,,,,,,,,,,,,,,,,,,,,,,,,,,,,,,,947.0452305818908,947.0452305818908,947.0452305818908,947.0452305818908,947.0452305818908,947.0452305818908,947.0452305818908,947.0452305818908,947.0452305818908,947.0452305818908,a,1.4878823519684374,10,407,1,948.5646379520185,950.0651792329736,950.0651792329736,950.5652366739232,,,,,,,,,,,,,,,,,,,,,,,,,,,,,,,,,,,,,,,,,,,,,,,,,,,,,,,,,,,,,,,,,,,,,,,,34086,2022-11-21_10h34.32.553,vts_reward_expectancy_bt_OFFLINE,2022.2.4,59.67327898778588,
1,0,0,0,0,0,1,0,triangle,hexagon,1,0,1,0,1,5,17,1,,,,,,,,,,,,,,,,,,,,,,,,,,,,,,,,,,,,,,,,950.5652366739232,950.5652366739232,950.5652366739232,950.5652366739232,950.5652366739232,950.5652366739232,950.5652366739232,950.5652366739232,950.5652366739232,950.5652366739232,a,1.3875313899479806,1,408,1,951.9838716539089,,953.4849103719462,,,,,,,,,,,,,,,,,,,,,,,,,,,,,,,,,,,,,,,,,,,,,,,,,,,,,,,,,,,,,,,,,,,,,,,,,34086,2022-11-21_10h34.32.553,vts_reward_expectancy_bt_OFFLINE,2022.2.4,59.67327898778588,
0,0,0,1,0,0,1,0,star,hexagon,1,0,1,0,1,6,18,11,,,,,,,,,,,,,,,,,,,,,,,,,,,,,,,,,,,,,,,,953.9852879999671,953.9852879999671,953.9852879999671,953.9852879999671,953.9852879999671,953.9852879999671,953.9852879999671,953.9852879999671,953.9852879999671,953.9852879999671,a,0.7582297748886049,10,418,1,954.7699291510507,956.2694879339542,956.2694879339542,,,,,,,,,,,,,,,,,,,,,,,,,,,,,,,,,,,,,,,,,,,,,,,,,,,,,,,,,,,,,,,,,,,,,,,,,34086,2022-11-21_10h34.32.553,vts_reward_expectancy_bt_OFFLINE,2022.2.4,59.67327898778588,
0,0,1,0,1,0,0,0,hexagon,triangle,1,0,1,0,1,7,19,6,,,,,,,,,,,,,,,,,,,,,,,,,,,,,,,,,,,,,,,,956.7698381929658,956.7698381929658,956.7698381929658,956.7698381929658,956.7698381929658,956.7698381929658,956.7698381929658,956.7698381929658,956.7698381929658,956.7698381929658,a,0.9657067181542516,10,428,1,957.7524339619558,,959.2558871419169,,,,,,,,,,,,,,,,,,,,,,,,,,,,,,,,,,,,,,,,,,,,,,,,,,,,,,,,,,,,,,,,,,,,,,,,,34086,2022-11-21_10h34.32.553,vts_reward_expectancy_bt_OFFLINE,2022.2.4,59.67327898778588,
1,0,0,0,0,1,0,0,triangle,circle,1,0,1,0,1,8,20,0,,,,,,,,,,,,,,,,,,,,,,,,,,,,,,,,,,,,,,,,959.7558007759508,959.7558007759508,959.7558007759508,959.7558007759508,959.7558007759508,959.7558007759508,959.7558007759508,959.7558007759508,959.7558007759508,959.7558007759508,a,0.8605935210362077,1,429,1,960.6401591200847,962.1396302510984,962.1396302510984,962.6400514259003,,,,,,,,,,,,,,,,,,,,,,,,,,,,,,,,,,,,,,,,,,,,,,,,,,,,,,,,,,,,,,,,,,,,,,,,34086,2022-11-21_10h34.32.553,vts_reward_expectancy_bt_OFFLINE,2022.2.4,59.67327898778588,
0,1,0,0,1,0,0,0,circle,triangle,1,0,1,0,1,9,21,3,,,,,,,,,,,,,,,,,,,,,,,,,,,,,,,,,,,,,,,,962.6400514259003,962.6400514259003,962.6400514259003,962.6400514259003,962.6400514259003,962.6400514259003,962.6400514259003,962.6400514259003,962.6400514259003,962.6400514259003,l,0.845559936016798,10,439,1,963.5095637398772,965.0094521150459,965.0094521150459,,,,,,,,,,,,,,,,,,,,,,,,,,,,,,,,,,,,,,,,,,,,,,,,,,,,,,,,,,,,,,,,,,,,,,,,,34086,2022-11-21_10h34.32.553,vts_reward_expectancy_bt_OFFLINE,2022.2.4,59.67327898778588,
0,0,1,0,0,0,0,1,hexagon,star,1,0,1,0,1,10,22,8,,,,,,,,,,,,,,,,,,,,,,,,,,,,,,,,,,,,,,,,965.5092301259283,965.5092301259283,965.5092301259283,965.5092301259283,965.5092301259283,965.5092301259283,965.5092301259283,965.5092301259283,965.5092301259283,965.5092301259283,l,0.4739761429373175,10,449,1,966.0094829730224,967.5100008640438,967.5100008640438,,,,,,,,,,,,,,,,,,,,,,,,,,,,,,,,,,,,,,,,,,,,,,,,,,,,,,,,,,,,,,,,,,,,,,,,,34086,2022-11-21_10h34.32.553,vts_reward_expectancy_bt_OFFLINE,2022.2.4,59.67327898778588,
0,1,0,0,0,0,0,1,circle,star,1,0,1,0,1,11,23,5,,,,,,,,,,,,,,,,,,,,,,,,,,,,,,,,,,,,,,,,968.0121703050099,968.0121703050099,968.0121703050099,968.0121703050099,968.0121703050099,968.0121703050099,968.0121703050099,968.0121703050099,968.0121703050099,968.0121703050099,l,0.3897738130763173,10,459,1,968.4288827839773,969.9298191790003,969.9298191790003,970.429838153068,,,,,,,,,,,,,,,,,,,,,,,,,,,,,,,,,,,,,,,,,,,,,,,,,,,,,,,,,,,,,,,,,,,,,,,,34086,2022-11-21_10h34.32.553,vts_reward_expectancy_bt_OFFLINE,2022.2.4,59.67327898778588,
0,0,1,0,0,1,0,0,hexagon,circle,1,0,1,0,2,0,24,7,,,,,,,,,,,,,,,,,,,,,,,,,,,,,,,,,,,,,,,,970.429838153068,970.429838153068,970.429838153068,970.429838153068,970.429838153068,970.429838153068,970.429838153068,970.429838153068,970.429838153068,970.429838153068,a,0.5813979939557612,10,469,1,971.0299015790224,972.5307333879173,972.5307333879173,,,,,,,,,,,,,,,,,,,,,,,,,,,,,,,,,,,,,,,,,,,,,,,,,,,,,,,,,,,,,,,,,,,,,,,,,34086,2022-11-21_10h34.32.553,vts_reward_expectancy_bt_OFFLINE,2022.2.4,59.67327898778588,
0,1,0,0,1,0,0,0,circle,triangle,1,0,1,0,2,1,25,3,,,,,,,,,,,,,,,,,,,,,,,,,,,,,,,,,,,,,,,,973.0332721949089,973.0332721949089,973.0332721949089,973.0332721949089,973.0332721949089,973.0332721949089,973.0332721949089,973.0332721949089,973.0332721949089,973.0332721949089,l,0.6331085318233818,10,479,1,973.6997018270195,,975.2000180990435,975.7001862579491,,,,,,,,,,,,,,,,,,,,,,,,,,,,,,,,,,,,,,,,,,,,,,,,,,,,,,,,,,,,,,,,,,,,,,,,34086,2022-11-21_10h34.32.553,vts_reward_expectancy_bt_OFFLINE,2022.2.4,59.67327898778588,
0,0,0,1,0,0,1,0,star,hexagon,1,0,1,0,2,2,26,11,,,,,,,,,,,,,,,,,,,,,,,,,,,,,,,,,,,,,,,,975.7001862579491,975.7001862579491,975.7001862579491,975.7001862579491,975.7001862579491,975.7001862579491,975.7001862579491,975.7001862579491,975.7001862579491,975.7001862579491,a,0.47617493802681565,10,489,1,976.200393506093,977.7010128360707,977.7010128360707,,,,,,,,,,,,,,,,,,,,,,,,,,,,,,,,,,,,,,,,,,,,,,,,,,,,,,,,,,,,,,,,,,,,,,,,,34086,2022-11-21_10h34.32.553,vts_reward_expectancy_bt_OFFLINE,2022.2.4,59.67327898778588,
0,1,0,0,0,0,1,0,circle,hexagon,1,0,1,0,2,3,27,4,,,,,,,,,,,,,,,,,,,,,,,,,,,,,,,,,,,,,,,,978.2032074818853,978.2032074818853,978.2032074818853,978.2032074818853,978.2032074818853,978.2032074818853,978.2032074818853,978.2032074818853,978.2032074818853,978.2032074818853,l,0.5486156789120287,10,499,1,978.7698135210667,980.2705824449658,980.2705824449658,,,,,,,,,,,,,,,,,,,,,,,,,,,,,,,,,,,,,,,,,,,,,,,,,,,,,,,,,,,,,,,,,,,,,,,,,34086,2022-11-21_10h34.32.553,vts_reward_expectancy_bt_OFFLINE,2022.2.4,59.67327898778588,
1,0,0,0,0,0,0,1,triangle,star,1,0,1,0,2,4,28,2,,,,,,,,,,,,,,,,,,,,,,,,,,,,,,,,,,,,,,,,980.7706408710219,980.7706408710219,980.7706408710219,980.7706408710219,980.7706408710219,980.7706408710219,980.7706408710219,980.7706408710219,980.7706408710219,980.7706408710219,l,0.5129218688234687,1,500,1,981.3052935909946,982.8022413079161,982.8022413079161,,,,,,,,,,,,,,,,,,,,,,,,,,,,,,,,,,,,,,,,,,,,,,,,,,,,,,,,,,,,,,,,,,,,,,,,,34086,2022-11-21_10h34.32.553,vts_reward_expectancy_bt_OFFLINE,2022.2.4,59.67327898778588,
0,0,0,1,1,0,0,0,star,triangle,1,0,1,0,2,5,29,9,,,,,,,,,,,,,,,,,,,,,,,,,,,,,,,,,,,,,,,,983.3064252999611,983.3064252999611,983.3064252999611,983.3064252999611,983.3064252999611,983.3064252999611,983.3064252999611,983.3064252999611,983.3064252999611,983.3064252999611,a,0.5980443798471242,1,501,1,983.9232549960725,985.4238131579477,985.4238131579477,985.9238354160916,,,,,,,,,,,,,,,,,,,,,,,,,,,,,,,,,,,,,,,,,,,,,,,,,,,,,,,,,,,,,,,,,,,,,,,,34086,2022-11-21_10h34.32.553,vts_reward_expectancy_bt_OFFLINE,2022.2.4,59.67327898778588,
0,1,0,0,0,0,0,1,circle,star,1,0,1,0,2,6,30,5,,,,,,,,,,,,,,,,,,,,,,,,,,,,,,,,,,,,,,,,985.9238354160916,985.9238354160916,985.9238354160916,985.9238354160916,985.9238354160916,985.9238354160916,985.9238354160916,985.9238354160916,985.9238354160916,985.9238354160916,l,0.5683560350444168,10,511,1,986.5241777969059,,988.02703930391,,,,,,,,,,,,,,,,,,,,,,,,,,,,,,,,,,,,,,,,,,,,,,,,,,,,,,,,,,,,,,,,,,,,,,,,,34086,2022-11-21_10h34.32.553,vts_reward_expectancy_bt_OFFLINE,2022.2.4,59.67327898778588,
0,0,1,0,1,0,0,0,hexagon,triangle,1,0,1,0,2,7,31,6,,,,,,,,,,,,,,,,,,,,,,,,,,,,,,,,,,,,,,,,988.5271940371022,988.5271940371022,988.5271940371022,988.5271940371022,988.5271940371022,988.5271940371022,988.5271940371022,988.5271940371022,988.5271940371022,988.5271940371022,a,1.171634716913104,1,512,1,989.7287170779891,991.228093531914,991.228093531914,,,,,,,,,,,,,,,,,,,,,,,,,,,,,,,,,,,,,,,,,,,,,,,,,,,,,,,,,,,,,,,,,,,,,,,,,34086,2022-11-21_10h34.32.553,vts_reward_expectancy_bt_OFFLINE,2022.2.4,59.67327898778588,
0,0,1,0,0,0,0,1,hexagon,star,1,0,1,0,2,8,32,8,,,,,,,,,,,,,,,,,,,,,,,,,,,,,,,,,,,,,,,,991.7283539578784,991.7283539578784,991.7283539578784,991.7283539578784,991.7283539578784,991.7283539578784,991.7283539578784,991.7283539578784,991.7283539578784,991.7283539578784,l,0.5351970049086958,10,522,1,992.294777590083,,993.7978076229338,,,,,,,,,,,,,,,,,,,,,,,,,,,,,,,,,,,,,,,,,,,,,,,,,,,,,,,,,,,,,,,,,,,,,,,,,34086,2022-11-21_10h34.32.553,vts_reward_expectancy_bt_OFFLINE,2022.2.4,59.67327898778588,
1,0,0,0,0,0,1,0,triangle,hexagon,1,0,1,0,2,9,33,1,,,,,,,,,,,,,,,,,,,,,,,,,,,,,,,,,,,,,,,,994.2980065839365,994.2980065839365,994.2980065839365,994.2980065839365,994.2980065839365,994.2980065839365,994.2980065839365,994.2980065839365,994.2980065839365,994.2980065839365,l,0.36204201891086996,1,523,1,994.6818993289489,996.1813980210572,996.1813980210572,996.681562700076,,,,,,,,,,,,,,,,,,,,,,,,,,,,,,,,,,,,,,,,,,,,,,,,,,,,,,,,,,,,,,,,,,,,,,,,34086,2022-11-21_10h34.32.553,vts_reward_expectancy_bt_OFFLINE,2022.2.4,59.67327898778588,
0,0,0,1,0,1,0,0,star ,circle,1,0,1,0,2,10,34,10,,,,,,,,,,,,,,,,,,,,,,,,,,,,,,,,,,,,,,,,996.681562700076,996.681562700076,996.681562700076,996.681562700076,996.681562700076,996.681562700076,996.681562700076,996.681562700076,996.681562700076,996.681562700076,l,0.3639366449788213,1,524,1,997.067583933007,,998.567856964888,,,,,,,,,,,,,,,,,,,,,,,,,,,,,,,,,,,,,,,,,,,,,,,,,,,,,,,,,,,,,,,,,,,,,,,,,34086,2022-11-21_10h34.32.553,vts_reward_expectancy_bt_OFFLINE,2022.2.4,59.67327898778588,
1,0,0,0,0,1,0,0,triangle,circle,1,0,1,0,2,11,35,0,,,,,,,,,,,,,,,,,,,,,,,,,,,,,,,,,,,,,,,,999.0680777439848,999.0680777439848,999.0680777439848,999.0680777439848,999.0680777439848,999.0680777439848,999.0680777439848,999.0680777439848,999.0680777439848,999.0680777439848,a,0.45261019212193787,10,534,1,999.5530362429563,,1001.0683597160969,,,,,,,,,,,,,,,,,,,,,,,,,,,,,,,,,,,,,,,,,,,,,,,,,,,,,,,,,,,,,,,,,,,,,,,,,34086,2022-11-21_10h34.32.553,vts_reward_expectancy_bt_OFFLINE,2022.2.4,59.67327898778588,
0,0,0,1,0,0,1,0,star,hexagon,1,0,1,0,3,0,36,11,,,,,,,,,,,,,,,,,,,,,,,,,,,,,,,,,,,,,,,,1001.5688973609358,1001.5688973609358,1001.5688973609358,1001.5688973609358,1001.5688973609358,1001.5688973609358,1001.5688973609358,1001.5688973609358,1001.5688973609358,1001.5688973609358,l,0.31440827483311296,1,535,1,1001.9036111528985,,1003.4048816990107,,,,,,,,,,,,,,,,,,,,,,,,,,,,,,,,,,,,,,,,,,,,,,,,,,,,,,,,,,,,,,,,,,,,,,,,,34086,2022-11-21_10h34.32.553,vts_reward_expectancy_bt_OFFLINE,2022.2.4,59.67327898778588,
1,0,0,0,0,0,0,1,triangle,star,1,0,1,0,3,1,37,2,,,,,,,,,,,,,,,,,,,,,,,,,,,,,,,,,,,,,,,,1003.9054696750827,1003.9054696750827,1003.9054696750827,1003.9054696750827,1003.9054696750827,1003.9054696750827,1003.9054696750827,1003.9054696750827,1003.9054696750827,1003.9054696750827,a,0.47528277593664825,10,545,1,1004.4067067690194,,1005.9222171918955,,,,,,,,,,,,,,,,,,,,,,,,,,,,,,,,,,,,,,,,,,,,,,,,,,,,,,,,,,,,,,,,,,,,,,,,,34086,2022-11-21_10h34.32.553,vts_reward_expectancy_bt_OFFLINE,2022.2.4,59.67327898778588,
1,0,0,0,0,0,1,0,triangle,hexagon,1,0,1,0,3,2,38,1,,,,,,,,,,,,,,,,,,,,,,,,,,,,,,,,,,,,,,,,1006.4222896310966,1006.4222896310966,1006.4222896310966,1006.4222896310966,1006.4222896310966,1006.4222896310966,1006.4222896310966,1006.4222896310966,1006.4222896310966,1006.4222896310966,l,0.603011050960049,10,555,1,1007.0563675391022,,1008.5581941320561,,,,,,,,,,,,,,,,,,,,,,,,,,,,,,,,,,,,,,,,,,,,,,,,,,,,,,,,,,,,,,,,,,,,,,,,,34086,2022-11-21_10h34.32.553,vts_reward_expectancy_bt_OFFLINE,2022.2.4,59.67327898778588,
1,0,0,0,0,1,0,0,triangle,circle,1,0,1,0,3,3,39,0,,,,,,,,,,,,,,,,,,,,,,,,,,,,,,,,,,,,,,,,1009.0583766850177,1009.0583766850177,1009.0583766850177,1009.0583766850177,1009.0583766850177,1009.0583766850177,1009.0583766850177,1009.0583766850177,1009.0583766850177,1009.0583766850177,a,0.36345044802874327,10,565,1,1009.4418202410452,1010.9426531039644,1010.9426531039644,1011.4423001969699,,,,,,,,,,,,,,,,,,,,,,,,,,,,,,,,,,,,,,,,,,,,,,,,,,,,,,,,,,,,,,,,,,,,,,,,34086,2022-11-21_10h34.32.553,vts_reward_expectancy_bt_OFFLINE,2022.2.4,59.67327898778588,
0,0,0,1,1,0,0,0,star,triangle,1,0,1,0,3,4,40,9,,,,,,,,,,,,,,,,,,,,,,,,,,,,,,,,,,,,,,,,1011.4423001969699,1011.4423001969699,1011.4423001969699,1011.4423001969699,1011.4423001969699,1011.4423001969699,1011.4423001969699,1011.4423001969699,1011.4423001969699,1011.4423001969699,l,0.39732673787511885,10,575,1,1011.8592893439345,,1013.3622743219603,,,,,,,,,,,,,,,,,,,,,,,,,,,,,,,,,,,,,,,,,,,,,,,,,,,,,,,,,,,,,,,,,,,,,,,,,34086,2022-11-21_10h34.32.553,vts_reward_expectancy_bt_OFFLINE,2022.2.4,59.67327898778588,
0,0,1,0,0,0,0,1,hexagon,star,1,0,1,0,3,5,41,8,,,,,,,,,,,,,,,,,,,,,,,,,,,,,,,,,,,,,,,,1013.862311122939,1013.862311122939,1013.862311122939,1013.862311122939,1013.862311122939,1013.862311122939,1013.862311122939,1013.862311122939,1013.862311122939,1013.862311122939,a,0.3630068108905107,10,585,1,1014.2452780338936,1015.7459943029098,1015.7459943029098,1016.2458040260244,,,,,,,,,,,,,,,,,,,,,,,,,,,,,,,,,,,,,,,,,,,,,,,,,,,,,,,,,,,,,,,,,,,,,,,,34086,2022-11-21_10h34.32.553,vts_reward_expectancy_bt_OFFLINE,2022.2.4,59.67327898778588,
0,1,0,0,1,0,0,0,circle,triangle,1,0,1,0,3,6,42,3,,,,,,,,,,,,,,,,,,,,,,,,,,,,,,,,,,,,,,,,1016.2458040260244,1016.2458040260244,1016.2458040260244,1016.2458040260244,1016.2458040260244,1016.2458040260244,1016.2458040260244,1016.2458040260244,1016.2458040260244,1016.2458040260244,l,0.30793458595871925,1,586,1,1016.5818113570567,,1018.0822305949405,,,,,,,,,,,,,,,,,,,,,,,,,,,,,,,,,,,,,,,,,,,,,,,,,,,,,,,,,,,,,,,,,,,,,,,,,34086,2022-11-21_10h34.32.553,vts_reward_expectancy_bt_OFFLINE,2022.2.4,59.67327898778588,
0,0,1,0,0,1,0,0,hexagon,circle,1,0,1,0,3,7,43,7,,,,,,,,,,,,,,,,,,,,,,,,,,,,,,,,,,,,,,,,1018.5823404700495,1018.5823404700495,1018.5823404700495,1018.5823404700495,1018.5823404700495,1018.5823404700495,1018.5823404700495,1018.5823404700495,1018.5823404700495,1018.5823404700495,l,0.34545352193526924,10,596,1,1018.9514704449102,,1020.4662389729638,,,,,,,,,,,,,,,,,,,,,,,,,,,,,,,,,,,,,,,,,,,,,,,,,,,,,,,,,,,,,,,,,,,,,,,,,34086,2022-11-21_10h34.32.553,vts_reward_expectancy_bt_OFFLINE,2022.2.4,59.67327898778588,
0,0,0,1,0,1,0,0,star ,circle,1,0,1,0,3,8,44,10,,,,,,,,,,,,,,,,,,,,,,,,,,,,,,,,,,,,,,,,1020.9664018210024,1020.9664018210024,1020.9664018210024,1020.9664018210024,1020.9664018210024,1020.9664018210024,1020.9664018210024,1020.9664018210024,1020.9664018210024,1020.9664018210024,l,0.042443941812962294,1,597,1,1021.0366003820673,,1022.5338475869503,,,,,,,,,,,,,,,,,,,,,,,,,,,,,,,,,,,,,,,,,,,,,,,,,,,,,,,,,,,,,,,,,,,,,,,,,34086,2022-11-21_10h34.32.553,vts_reward_expectancy_bt_OFFLINE,2022.2.4,59.67327898778588,
0,1,0,0,0,0,0,1,circle,star,1,0,1,0,3,9,45,5,,,,,,,,,,,,,,,,,,,,,,,,,,,,,,,,,,,,,,,,1023.0358955990523,1023.0358955990523,1023.0358955990523,1023.0358955990523,1023.0358955990523,1023.0358955990523,1023.0358955990523,1023.0358955990523,1023.0358955990523,1023.0358955990523,l,0.11150236800312996,1,598,1,1023.1691063200124,1024.6693371168803,1024.6693371168803,,,,,,,,,,,,,,,,,,,,,,,,,,,,,,,,,,,,,,,,,,,,,,,,,,,,,,,,,,,,,,,,,,,,,,,,,34086,2022-11-21_10h34.32.553,vts_reward_expectancy_bt_OFFLINE,2022.2.4,59.67327898778588,
0,1,0,0,0,0,1,0,circle,hexagon,1,0,1,0,3,10,46,4,,,,,,,,,,,,,,,,,,,,,,,,,,,,,,,,,,,,,,,,1025.169796718983,1025.169796718983,1025.169796718983,1025.169796718983,1025.169796718983,1025.169796718983,1025.169796718983,1025.169796718983,1025.169796718983,1025.169796718983,a,0.6654805259313434,1,599,1,1025.8532097109128,1027.353940435918,1027.353940435918,,,,,,,,,,,,,,,,,,,,,,,,,,,,,,,,,,,,,,,,,,,,,,,,,,,,,,,,,,,,,,,,,,,,,,,,,34086,2022-11-21_10h34.32.553,vts_reward_expectancy_bt_OFFLINE,2022.2.4,59.67327898778588,
0,0,1,0,1,0,0,0,hexagon,triangle,1,0,1,0,3,11,47,6,,,,,,,,,,,,,,,,,,,,,,,,,,,,,,,,,,,,,,,,1027.8593480989803,1027.8593480989803,1027.8593480989803,1027.8593480989803,1027.8593480989803,1027.8593480989803,1027.8593480989803,1027.8593480989803,1027.8593480989803,1027.8593480989803,l,0.338721077889204,1,600,1,1028.223265571054,1029.7235317020677,1029.7235317020677,1030.2289792599622,,,,,,,,,,,,,,,,,,,,,,,,,,,,,,,,,,,,,,,,,,,,,,,,,,,,,,,,,,,,,,,,,,,,,,,,34086,2022-11-21_10h34.32.553,vts_reward_expectancy_bt_OFFLINE,2022.2.4,59.67327898778588,
0,0,0,1,1,0,0,0,star,triangle,2,0,2,0,0,0,0,9,,,,,,,,,,,,,,,,,,,,,,,,,,,,,,,,,,,,,,,,1032.735501626972,1032.735501626972,1032.735501626972,1032.735501626972,1032.735501626972,1032.735501626972,1032.735501626972,1032.735501626972,1032.735501626972,1032.735501626972,a,0.8183349641039968,1,601,2,1033.5770108439028,1035.0775330970064,1035.0775330970064,1035.5776999839582,,,,,,,,,,,,,,,,,,,,,,,,,,,,,,,,,,,,,,,,,,,,,,,,,,,,,,,,,,,,,,,,,,,,,,,,34086,2022-11-21_10h34.32.553,vts_reward_expectancy_bt_OFFLINE,2022.2.4,59.67327898778588,
0,1,0,0,0,0,1,0,circle,hexagon,2,0,2,0,0,1,1,4,,,,,,,,,,,,,,,,,,,,,,,,,,,,,,,,,,,,,,,,1035.5776999839582,1035.5776999839582,1035.5776999839582,1035.5776999839582,1035.5776999839582,1035.5776999839582,1035.5776999839582,1035.5776999839582,1035.5776999839582,1035.5776999839582,l,0.41699280100874603,10,611,2,1036.0277732650284,1037.528277155012,1037.528277155012,,,,,,,,,,,,,,,,,,,,,,,,,,,,,,,,,,,,,,,,,,,,,,,,,,,,,,,,,,,,,,,,,,,,,,,,,34086,2022-11-21_10h34.32.553,vts_reward_expectancy_bt_OFFLINE,2022.2.4,59.67327898778588,
1,0,0,0,0,0,0,1,triangle,star,2,0,2,0,0,2,2,2,,,,,,,,,,,,,,,,,,,,,,,,,,,,,,,,,,,,,,,,1038.0296941339038,1038.0296941339038,1038.0296941339038,1038.0296941339038,1038.0296941339038,1038.0296941339038,1038.0296941339038,1038.0296941339038,1038.0296941339038,1038.0296941339038,l,0.46263605589047074,10,621,2,1038.5140158920549,1040.0145385758951,1040.0145385758951,1040.514408991905,,,,,,,,,,,,,,,,,,,,,,,,,,,,,,,,,,,,,,,,,,,,,,,,,,,,,,,,,,,,,,,,,,,,,,,,34086,2022-11-21_10h34.32.553,vts_reward_expectancy_bt_OFFLINE,2022.2.4,59.67327898778588,
0,0,0,1,0,1,0,0,star ,circle,2,0,2,0,0,3,3,10,,,,,,,,,,,,,,,,,,,,,,,,,,,,,,,,,,,,,,,,1040.514408991905,1040.514408991905,1040.514408991905,1040.514408991905,1040.514408991905,1040.514408991905,1040.514408991905,1040.514408991905,1040.514408991905,1040.514408991905,a,1.2518301950767636,10,631,2,1041.7979010050185,,1043.3000330459327,,,,,,,,,,,,,,,,,,,,,,,,,,,,,,,,,,,,,,,,,,,,,,,,,,,,,,,,,,,,,,,,,,,,,,,,,34086,2022-11-21_10h34.32.553,vts_reward_expectancy_bt_OFFLINE,2022.2.4,59.67327898778588,
0,0,1,0,1,0,0,0,hexagon,triangle,2,0,2,0,0,4,4,6,,,,,,,,,,,,,,,,,,,,,,,,,,,,,,,,,,,,,,,,1043.8006387169007,1043.8006387169007,1043.8006387169007,1043.8006387169007,1043.8006387169007,1043.8006387169007,1043.8006387169007,1043.8006387169007,1043.8006387169007,1043.8006387169007,a,0.6999707920476794,10,641,2,1044.5171846549492,1046.0174229440745,1046.0174229440745,1046.5177966209594,,,,,,,,,,,,,,,,,,,,,,,,,,,,,,,,,,,,,,,,,,,,,,,,,,,,,,,,,,,,,,,,,,,,,,,,34086,2022-11-21_10h34.32.553,vts_reward_expectancy_bt_OFFLINE,2022.2.4,59.67327898778588,
0,0,0,1,0,0,1,0,star,hexagon,2,0,2,0,0,5,5,11,,,,,,,,,,,,,,,,,,,,,,,,,,,,,,,,,,,,,,,,1046.5177966209594,1046.5177966209594,1046.5177966209594,1046.5177966209594,1046.5177966209594,1046.5177966209594,1046.5177966209594,1046.5177966209594,1046.5177966209594,1046.5177966209594,a,0.6936289928853512,10,651,2,1047.2355324369855,,1048.7377481190488,,,,,,,,,,,,,,,,,,,,,,,,,,,,,,,,,,,,,,,,,,,,,,,,,,,,,,,,,,,,,,,,,,,,,,,,,34086,2022-11-21_10h34.32.553,vts_reward_expectancy_bt_OFFLINE,2022.2.4,59.67327898778588,
1,0,0,0,0,0,1,0,triangle,hexagon,2,0,2,0,0,6,6,1,,,,,,,,,,,,,,,,,,,,,,,,,,,,,,,,,,,,,,,,1049.2373588429764,1049.2373588429764,1049.2373588429764,1049.2373588429764,1049.2373588429764,1049.2373588429764,1049.2373588429764,1049.2373588429764,1049.2373588429764,1049.2373588429764,l,0.5064725419506431,1,652,2,1049.7729659369215,,1051.2883050080854,,,,,,,,,,,,,,,,,,,,,,,,,,,,,,,,,,,,,,,,,,,,,,,,,,,,,,,,,,,,,,,,,,,,,,,,,34086,2022-11-21_10h34.32.553,vts_reward_expectancy_bt_OFFLINE,2022.2.4,59.67327898778588,
0,1,0,0,0,0,0,1,circle,star,2,0,2,0,0,7,7,5,,,,,,,,,,,,,,,,,,,,,,,,,,,,,,,,,,,,,,,,1051.7720216189045,1051.7720216189045,1051.7720216189045,1051.7720216189045,1051.7720216189045,1051.7720216189045,1051.7720216189045,1051.7720216189045,1051.7720216189045,1051.7720216189045,a,0.45744767086580396,10,662,2,1052.2572821350768,,1053.7575427670963,,,,,,,,,,,,,,,,,,,,,,,,,,,,,,,,,,,,,,,,,,,,,,,,,,,,,,,,,,,,,,,,,,,,,,,,,34086,2022-11-21_10h34.32.553,vts_reward_expectancy_bt_OFFLINE,2022.2.4,59.67327898778588,
0,0,1,0,0,0,0,1,hexagon,star,2,0,2,0,0,8,8,8,,,,,,,,,,,,,,,,,,,,,,,,,,,,,,,,,,,,,,,,1054.2579116208944,1054.2579116208944,1054.2579116208944,1054.2579116208944,1054.2579116208944,1054.2579116208944,1054.2579116208944,1054.2579116208944,1054.2579116208944,1054.2579116208944,l,0.4239069640170783,10,672,2,1054.7085850848816,1056.2084612750914,1056.2084612750914,1056.708983479999,,,,,,,,,,,,,,,,,,,,,,,,,,,,,,,,,,,,,,,,,,,,,,,,,,,,,,,,,,,,,,,,,,,,,,,,34086,2022-11-21_10h34.32.553,vts_reward_expectancy_bt_OFFLINE,2022.2.4,59.67327898778588,
0,1,0,0,1,0,0,0,circle,triangle,2,0,2,0,0,9,9,3,,,,,,,,,,,,,,,,,,,,,,,,,,,,,,,,,,,,,,,,1056.708983479999,1056.708983479999,1056.708983479999,1056.708983479999,1056.708983479999,1056.708983479999,1056.708983479999,1056.708983479999,1056.708983479999,1056.708983479999,l,0.32439989503473043,1,673,2,1057.0619772549253,,1058.5614257669076,,,,,,,,,,,,,,,,,,,,,,,,,,,,,,,,,,,,,,,,,,,,,,,,,,,,,,,,,,,,,,,,,,,,,,,,,34086,2022-11-21_10h34.32.553,vts_reward_expectancy_bt_OFFLINE,2022.2.4,59.67327898778588,
1,0,0,0,0,1,0,0,triangle,circle,2,0,2,0,0,10,10,0,,,,,,,,,,,,,,,,,,,,,,,,,,,,,,,,,,,,,,,,1059.0616137490142,1059.0616137490142,1059.0616137490142,1059.0616137490142,1059.0616137490142,1059.0616137490142,1059.0616137490142,1059.0616137490142,1059.0616137490142,1059.0616137490142,a,0.2675765638705343,1,674,2,1059.3619071019348,1060.8622006829828,1060.8622006829828,1061.3625232670456,,,,,,,,,,,,,,,,,,,,,,,,,,,,,,,,,,,,,,,,,,,,,,,,,,,,,,,,,,,,,,,,,,,,,,,,34086,2022-11-21_10h34.32.553,vts_reward_expectancy_bt_OFFLINE,2022.2.4,59.67327898778588,
0,0,1,0,0,1,0,0,hexagon,circle,2,0,2,0,0,11,11,7,,,,,,,,,,,,,,,,,,,,,,,,,,,,,,,,,,,,,,,,1061.3625232670456,1061.3625232670456,1061.3625232670456,1061.3625232670456,1061.3625232670456,1061.3625232670456,1061.3625232670456,1061.3625232670456,1061.3625232670456,1061.3625232670456,l,0.43034336483106017,1,675,2,1061.8127293579746,,1063.314822735032,,,,,,,,,,,,,,,,,,,,,,,,,,,,,,,,,,,,,,,,,,,,,,,,,,,,,,,,,,,,,,,,,,,,,,,,,34086,2022-11-21_10h34.32.553,vts_reward_expectancy_bt_OFFLINE,2022.2.4,59.67327898778588,
0,0,1,0,0,0,0,1,hexagon,star,2,0,2,0,1,0,12,8,,,,,,,,,,,,,,,,,,,,,,,,,,,,,,,,,,,,,,,,1063.8149442609865,1063.8149442609865,1063.8149442609865,1063.8149442609865,1063.8149442609865,1063.8149442609865,1063.8149442609865,1063.8149442609865,1063.8149442609865,1063.8149442609865,l,0.6777295379433781,1,676,2,1064.515743827913,1066.0158062758856,1066.0158062758856,1066.5159743819386,,,,,,,,,,,,,,,,,,,,,,,,,,,,,,,,,,,,,,,,,,,,,,,,,,,,,,,,,,,,,,,,,,,,,,,,34086,2022-11-21_10h34.32.553,vts_reward_expectancy_bt_OFFLINE,2022.2.4,59.67327898778588,
0,0,0,1,1,0,0,0,star,triangle,2,0,2,0,1,1,13,9,,,,,,,,,,,,,,,,,,,,,,,,,,,,,,,,,,,,,,,,1066.5159743819386,1066.5159743819386,1066.5159743819386,1066.5159743819386,1066.5159743819386,1066.5159743819386,1066.5159743819386,1066.5159743819386,1066.5159743819386,1066.5159743819386,a,0.5650697080418468,10,686,2,1067.1014518020675,,1068.6018072050065,,,,,,,,,,,,,,,,,,,,,,,,,,,,,,,,,,,,,,,,,,,,,,,,,,,,,,,,,,,,,,,,,,,,,,,,,34086,2022-11-21_10h34.32.553,vts_reward_expectancy_bt_OFFLINE,2022.2.4,59.67327898778588,
0,0,1,0,1,0,0,0,hexagon,triangle,2,0,2,0,1,2,14,6,,,,,,,,,,,,,,,,,,,,,,,,,,,,,,,,,,,,,,,,1069.102331213886,1069.102331213886,1069.102331213886,1069.102331213886,1069.102331213886,1069.102331213886,1069.102331213886,1069.102331213886,1069.102331213886,1069.102331213886,l,0.4755997979082167,10,696,2,1069.6023886320181,1071.1028436538763,1071.1028436538763,,,,,,,,,,,,,,,,,,,,,,,,,,,,,,,,,,,,,,,,,,,,,,,,,,,,,,,,,,,,,,,,,,,,,,,,,34086,2022-11-21_10h34.32.553,vts_reward_expectancy_bt_OFFLINE,2022.2.4,59.67327898778588,
1,0,0,0,0,0,1,0,triangle,hexagon,2,0,2,0,1,3,15,1,,,,,,,,,,,,,,,,,,,,,,,,,,,,,,,,,,,,,,,,1071.6027876879089,1071.6027876879089,1071.6027876879089,1071.6027876879089,1071.6027876879089,1071.6027876879089,1071.6027876879089,1071.6027876879089,1071.6027876879089,1071.6027876879089,l,0.3262845608405769,1,697,2,1071.9557285790797,,1073.4559496219736,,,,,,,,,,,,,,,,,,,,,,,,,,,,,,,,,,,,,,,,,,,,,,,,,,,,,,,,,,,,,,,,,,,,,,,,,34086,2022-11-21_10h34.32.553,vts_reward_expectancy_bt_OFFLINE,2022.2.4,59.67327898778588,
1,0,0,0,0,1,0,0,triangle,circle,2,0,2,0,1,4,16,0,,,,,,,,,,,,,,,,,,,,,,,,,,,,,,,,,,,,,,,,1073.9562110928819,1073.9562110928819,1073.9562110928819,1073.9562110928819,1073.9562110928819,1073.9562110928819,1073.9562110928819,1073.9562110928819,1073.9562110928819,1073.9562110928819,a,0.3364143460057676,10,707,2,1074.325280762976,,1075.8392715191003,,,,,,,,,,,,,,,,,,,,,,,,,,,,,,,,,,,,,,,,,,,,,,,,,,,,,,,,,,,,,,,,,,,,,,,,,34086,2022-11-21_10h34.32.553,vts_reward_expectancy_bt_OFFLINE,2022.2.4,59.67327898778588,
0,1,0,0,1,0,0,0,circle,triangle,2,0,2,0,1,5,17,3,,,,,,,,,,,,,,,,,,,,,,,,,,,,,,,,,,,,,,,,1076.3393444919493,1076.3393444919493,1076.3393444919493,1076.3393444919493,1076.3393444919493,1076.3393444919493,1076.3393444919493,1076.3393444919493,1076.3393444919493,1076.3393444919493,a,0.3151681339368224,1,708,2,1076.6758011910133,,1078.1757477470674,,,,,,,,,,,,,,,,,,,,,,,,,,,,,,,,,,,,,,,,,,,,,,,,,,,,,,,,,,,,,,,,,,,,,,,,,34086,2022-11-21_10h34.32.553,vts_reward_expectancy_bt_OFFLINE,2022.2.4,59.67327898778588,
0,0,0,1,0,1,0,0,star ,circle,2,0,2,0,1,6,18,10,,,,,,,,,,,,,,,,,,,,,,,,,,,,,,,,,,,,,,,,1078.6758394069038,1078.6758394069038,1078.6758394069038,1078.6758394069038,1078.6758394069038,1078.6758394069038,1078.6758394069038,1078.6758394069038,1078.6758394069038,1078.6758394069038,l,0.5328204587567598,1,709,2,1079.2262206729501,1080.726646353025,1080.726646353025,1081.2268620969262,,,,,,,,,,,,,,,,,,,,,,,,,,,,,,,,,,,,,,,,,,,,,,,,,,,,,,,,,,,,,,,,,,,,,,,,34086,2022-11-21_10h34.32.553,vts_reward_expectancy_bt_OFFLINE,2022.2.4,59.67327898778588,
0,1,0,0,0,0,1,0,circle,hexagon,2,0,2,0,1,7,19,4,,,,,,,,,,,,,,,,,,,,,,,,,,,,,,,,,,,,,,,,1081.2268620969262,1081.2268620969262,1081.2268620969262,1081.2268620969262,1081.2268620969262,1081.2268620969262,1081.2268620969262,1081.2268620969262,1081.2268620969262,1081.2268620969262,l,0.7604559978935868,10,719,2,1082.012592786923,,1083.5134240118787,,,,,,,,,,,,,,,,,,,,,,,,,,,,,,,,,,,,,,,,,,,,,,,,,,,,,,,,,,,,,,,,,,,,,,,,,34086,2022-11-21_10h34.32.553,vts_reward_expectancy_bt_OFFLINE,2022.2.4,59.67327898778588,
1,0,0,0,0,0,0,1,triangle,star,2,0,2,0,1,8,20,2,,,,,,,,,,,,,,,,,,,,,,,,,,,,,,,,,,,,,,,,1084.013851010939,1084.013851010939,1084.013851010939,1084.013851010939,1084.013851010939,1084.013851010939,1084.013851010939,1084.013851010939,1084.013851010939,1084.013851010939,l,0.4258747030980885,10,729,2,1084.4636470410042,1085.9642806600314,1085.9642806600314,1086.4642868440133,,,,,,,,,,,,,,,,,,,,,,,,,,,,,,,,,,,,,,,,,,,,,,,,,,,,,,,,,,,,,,,,,,,,,,,,34086,2022-11-21_10h34.32.553,vts_reward_expectancy_bt_OFFLINE,2022.2.4,59.67327898778588,
0,1,0,0,0,0,0,1,circle,star,2,0,2,0,1,9,21,5,,,,,,,,,,,,,,,,,,,,,,,,,,,,,,,,,,,,,,,,1086.4642868440133,1086.4642868440133,1086.4642868440133,1086.4642868440133,1086.4642868440133,1086.4642868440133,1086.4642868440133,1086.4642868440133,1086.4642868440133,1086.4642868440133,l,0.36169445188716054,10,739,2,1086.8471077489667,,1088.349808956962,,,,,,,,,,,,,,,,,,,,,,,,,,,,,,,,,,,,,,,,,,,,,,,,,,,,,,,,,,,,,,,,,,,,,,,,,34086,2022-11-21_10h34.32.553,vts_reward_expectancy_bt_OFFLINE,2022.2.4,59.67327898778588,
0,0,1,0,0,1,0,0,hexagon,circle,2,0,2,0,1,10,22,7,,,,,,,,,,,,,,,,,,,,,,,,,,,,,,,,,,,,,,,,1088.8498884239234,1088.8498884239234,1088.8498884239234,1088.8498884239234,1088.8498884239234,1088.8498884239234,1088.8498884239234,1088.8498884239234,1088.8498884239234,1088.8498884239234,a,0.822116909082979,10,749,2,1089.7005120359827,1091.2007474920247,1091.2007474920247,1091.7009998240974,,,,,,,,,,,,,,,,,,,,,,,,,,,,,,,,,,,,,,,,,,,,,,,,,,,,,,,,,,,,,,,,,,,,,,,,34086,2022-11-21_10h34.32.553,vts_reward_expectancy_bt_OFFLINE,2022.2.4,59.67327898778588,
0,0,0,1,0,0,1,0,star,hexagon,2,0,2,0,1,11,23,11,,,,,,,,,,,,,,,,,,,,,,,,,,,,,,,,,,,,,,,,1091.7009998240974,1091.7009998240974,1091.7009998240974,1091.7009998240974,1091.7009998240974,1091.7009998240974,1091.7009998240974,1091.7009998240974,1091.7009998240974,1091.7009998240974,a,0.6375057289842516,10,759,2,1092.3678153990768,,1093.870795621071,,,,,,,,,,,,,,,,,,,,,,,,,,,,,,,,,,,,,,,,,,,,,,,,,,,,,,,,,,,,,,,,,,,,,,,,,34086,2022-11-21_10h34.32.553,vts_reward_expectancy_bt_OFFLINE,2022.2.4,59.67327898778588,
1,0,0,0,0,0,0,1,triangle,star,2,0,2,0,2,0,24,2,,,,,,,,,,,,,,,,,,,,,,,,,,,,,,,,,,,,,,,,1094.3708480230998,1094.3708480230998,1094.3708480230998,1094.3708480230998,1094.3708480230998,1094.3708480230998,1094.3708480230998,1094.3708480230998,1094.3708480230998,1094.3708480230998,l,0.38646265398710966,10,769,2,1094.7878366480581,1096.2875748230144,1096.2875748230144,,,,,,,,,,,,,,,,,,,,,,,,,,,,,,,,,,,,,,,,,,,,,,,,,,,,,,,,,,,,,,,,,,,,,,,,,34086,2022-11-21_10h34.32.553,vts_reward_expectancy_bt_OFFLINE,2022.2.4,59.67327898778588,
1,0,0,0,0,0,1,0,triangle,hexagon,2,0,2,0,2,1,25,1,,,,,,,,,,,,,,,,,,,,,,,,,,,,,,,,,,,,,,,,1096.7878351230174,1096.7878351230174,1096.7878351230174,1096.7878351230174,1096.7878351230174,1096.7878351230174,1096.7878351230174,1096.7878351230174,1096.7878351230174,1096.7878351230174,l,0.5452569320332259,1,770,2,1097.3560865409672,,1098.8573021830525,,,,,,,,,,,,,,,,,,,,,,,,,,,,,,,,,,,,,,,,,,,,,,,,,,,,,,,,,,,,,,,,,,,,,,,,,34086,2022-11-21_10h34.32.553,vts_reward_expectancy_bt_OFFLINE,2022.2.4,59.67327898778588,
1,0,0,0,0,1,0,0,triangle,circle,2,0,2,0,2,2,26,0,,,,,,,,,,,,,,,,,,,,,,,,,,,,,,,,,,,,,,,,1099.3575929389335,1099.3575929389335,1099.3575929389335,1099.3575929389335,1099.3575929389335,1099.3575929389335,1099.3575929389335,1099.3575929389335,1099.3575929389335,1099.3575929389335,a,0.7318202520254999,1,771,2,1100.1081322690006,1101.6084601979237,1101.6084601979237,1102.1086640970316,,,,,,,,,,,,,,,,,,,,,,,,,,,,,,,,,,,,,,,,,,,,,,,,,,,,,,,,,,,,,,,,,,,,,,,,34086,2022-11-21_10h34.32.553,vts_reward_expectancy_bt_OFFLINE,2022.2.4,59.67327898778588,
0,0,1,0,1,0,0,0,hexagon,triangle,2,0,2,0,2,3,27,6,,,,,,,,,,,,,,,,,,,,,,,,,,,,,,,,,,,,,,,,1102.1086640970316,1102.1086640970316,1102.1086640970316,1102.1086640970316,1102.1086640970316,1102.1086640970316,1102.1086640970316,1102.1086640970316,1102.1086640970316,1102.1086640970316,a,0.8945063778664917,10,781,2,1103.0296953979414,,1104.5443994980305,,,,,,,,,,,,,,,,,,,,,,,,,,,,,,,,,,,,,,,,,,,,,,,,,,,,,,,,,,,,,,,,,,,,,,,,,34086,2022-11-21_10h34.32.553,vts_reward_expectancy_bt_OFFLINE,2022.2.4,59.67327898778588,
0,1,0,0,0,0,0,1,circle,star,2,0,2,0,2,4,28,5,,,,,,,,,,,,,,,,,,,,,,,,,,,,,,,,,,,,,,,,1105.0445956739131,1105.0445956739131,1105.0445956739131,1105.0445956739131,1105.0445956739131,1105.0445956739131,1105.0445956739131,1105.0445956739131,1105.0445956739131,1105.0445956739131,l,0.49111456307582557,1,782,2,1105.5631985189393,,1107.079067941988,,,,,,,,,,,,,,,,,,,,,,,,,,,,,,,,,,,,,,,,,,,,,,,,,,,,,,,,,,,,,,,,,,,,,,,,,34086,2022-11-21_10h34.32.553,vts_reward_expectancy_bt_OFFLINE,2022.2.4,59.67327898778588,
0,0,0,1,0,0,1,0,star,hexagon,2,0,2,0,2,5,29,11,,,,,,,,,,,,,,,,,,,,,,,,,,,,,,,,,,,,,,,,1107.57926773699,1107.57926773699,1107.57926773699,1107.57926773699,1107.57926773699,1107.57926773699,1107.57926773699,1107.57926773699,1107.57926773699,1107.57926773699,a,0.4647782819811255,10,792,2,1108.0665928509552,,1109.5816027910914,,,,,,,,,,,,,,,,,,,,,,,,,,,,,,,,,,,,,,,,,,,,,,,,,,,,,,,,,,,,,,,,,,,,,,,,,34086,2022-11-21_10h34.32.553,vts_reward_expectancy_bt_OFFLINE,2022.2.4,59.67327898778588,
0,0,1,0,0,1,0,0,hexagon,circle,2,0,2,0,2,6,30,7,,,,,,,,,,,,,,,,,,,,,,,,,,,,,,,,,,,,,,,,1110.0817074270453,1110.0817074270453,1110.0817074270453,1110.0817074270453,1110.0817074270453,1110.0817074270453,1110.0817074270453,1110.0817074270453,1110.0817074270453,1110.0817074270453,l,0.4264532779343426,1,793,2,1110.5334347540047,1112.0320123010315,1112.0320123010315,1112.5325850590598,,,,,,,,,,,,,,,,,,,,,,,,,,,,,,,,,,,,,,,,,,,,,,,,,,,,,,,,,,,,,,,,,,,,,,,,34086,2022-11-21_10h34.32.553,vts_reward_expectancy_bt_OFFLINE,2022.2.4,59.67327898778588,
0,1,0,0,1,0,0,0,circle,triangle,2,0,2,0,2,7,31,3,,,,,,,,,,,,,,,,,,,,,,,,,,,,,,,,,,,,,,,,1112.5325850590598,1112.5325850590598,1112.5325850590598,1112.5325850590598,1112.5325850590598,1112.5325850590598,1112.5325850590598,1112.5325850590598,1112.5325850590598,1112.5325850590598,l,0.5851803449913859,1,794,2,1113.1362877530046,,1114.65188132599,,,,,,,,,,,,,,,,,,,,,,,,,,,,,,,,,,,,,,,,,,,,,,,,,,,,,,,,,,,,,,,,,,,,,,,,,34086,2022-11-21_10h34.32.553,vts_reward_expectancy_bt_OFFLINE,2022.2.4,59.67327898778588,
0,0,0,1,1,0,0,0,star,triangle,2,0,2,0,2,8,32,9,,,,,,,,,,,,,,,,,,,,,,,,,,,,,,,,,,,,,,,,1115.1520124441013,1115.1520124441013,1115.1520124441013,1115.1520124441013,1115.1520124441013,1115.1520124441013,1115.1520124441013,1115.1520124441013,1115.1520124441013,1115.1520124441013,a,0.4524628578219563,10,804,2,1115.6360178010073,1117.1362517350353,1117.1362517350353,1117.6364127299748,,,,,,,,,,,,,,,,,,,,,,,,,,,,,,,,,,,,,,,,,,,,,,,,,,,,,,,,,,,,,,,,,,,,,,,,34086,2022-11-21_10h34.32.553,vts_reward_expectancy_bt_OFFLINE,2022.2.4,59.67327898778588,
0,1,0,0,0,0,1,0,circle,hexagon,2,0,2,0,2,9,33,4,,,,,,,,,,,,,,,,,,,,,,,,,,,,,,,,,,,,,,,,1117.6364127299748,1117.6364127299748,1117.6364127299748,1117.6364127299748,1117.6364127299748,1117.6364127299748,1117.6364127299748,1117.6364127299748,1117.6364127299748,1117.6364127299748,l,0.4321794849820435,10,814,2,1118.0879940930754,1119.5885630350094,1119.5885630350094,1120.0886952879373,,,,,,,,,,,,,,,,,,,,,,,,,,,,,,,,,,,,,,,,,,,,,,,,,,,,,,,,,,,,,,,,,,,,,,,,34086,2022-11-21_10h34.32.553,vts_reward_expectancy_bt_OFFLINE,2022.2.4,59.67327898778588,
0,0,1,0,0,0,0,1,hexagon,star,2,0,2,0,2,10,34,8,,,,,,,,,,,,,,,,,,,,,,,,,,,,,,,,,,,,,,,,1120.0886952879373,1120.0886952879373,1120.0886952879373,1120.0886952879373,1120.0886952879373,1120.0886952879373,1120.0886952879373,1120.0886952879373,1120.0886952879373,1120.0886952879373,l,0.4881136519834399,1,815,2,1120.6079768729396,,1122.1232793440577,,,,,,,,,,,,,,,,,,,,,,,,,,,,,,,,,,,,,,,,,,,,,,,,,,,,,,,,,,,,,,,,,,,,,,,,,34086,2022-11-21_10h34.32.553,vts_reward_expectancy_bt_OFFLINE,2022.2.4,59.67327898778588,
0,0,0,1,0,1,0,0,star ,circle,2,0,2,0,2,11,35,10,,,,,,,,,,,,,,,,,,,,,,,,,,,,,,,,,,,,,,,,1122.6232692669146,1122.6232692669146,1122.6232692669146,1122.6232692669146,1122.6232692669146,1122.6232692669146,1122.6232692669146,1122.6232692669146,1122.6232692669146,1122.6232692669146,a,0.4847398770507425,1,816,2,1123.1246469749603,,1124.6252981938887,,,,,,,,,,,,,,,,,,,,,,,,,,,,,,,,,,,,,,,,,,,,,,,,,,,,,,,,,,,,,,,,,,,,,,,,,34086,2022-11-21_10h34.32.553,vts_reward_expectancy_bt_OFFLINE,2022.2.4,59.67327898778588,
0,0,1,0,1,0,0,0,hexagon,triangle,2,0,2,0,3,0,36,6,,,,,,,,,,,,,,,,,,,,,,,,,,,,,,,,,,,,,,,,1125.1255168830976,1125.1255168830976,1125.1255168830976,1125.1255168830976,1125.1255168830976,1125.1255168830976,1125.1255168830976,1125.1255168830976,1125.1255168830976,1125.1255168830976,a,0.626749434042722,10,826,2,1125.7786389249377,,1127.2938865670003,,,,,,,,,,,,,,,,,,,,,,,,,,,,,,,,,,,,,,,,,,,,,,,,,,,,,,,,,,,,,,,,,,,,,,,,,34086,2022-11-21_10h34.32.553,vts_reward_expectancy_bt_OFFLINE,2022.2.4,59.67327898778588,
0,1,0,0,0,0,1,0,circle,hexagon,2,0,2,0,3,1,37,4,,,,,,,,,,,,,,,,,,,,,,,,,,,,,,,,,,,,,,,,1127.7937435728963,1127.7937435728963,1127.7937435728963,1127.7937435728963,1127.7937435728963,1127.7937435728963,1127.7937435728963,1127.7937435728963,1127.7937435728963,1127.7937435728963,l,0.5014357608743012,1,827,2,1128.3148375758901,,1129.8292996699456,,,,,,,,,,,,,,,,,,,,,,,,,,,,,,,,,,,,,,,,,,,,,,,,,,,,,,,,,,,,,,,,,,,,,,,,,34086,2022-11-21_10h34.32.553,vts_reward_expectancy_bt_OFFLINE,2022.2.4,59.67327898778588,
0,1,0,0,0,0,0,1,circle,star,2,0,2,0,3,2,38,5,,,,,,,,,,,,,,,,,,,,,,,,,,,,,,,,,,,,,,,,1130.3130175909027,1130.3130175909027,1130.3130175909027,1130.3130175909027,1130.3130175909027,1130.3130175909027,1130.3130175909027,1130.3130175909027,1130.3130175909027,1130.3130175909027,a,0.5244347639381886,1,828,2,1130.8631040430628,,1132.3636634470895,1132.8637542079668,,,,,,,,,,,,,,,,,,,,,,,,,,,,,,,,,,,,,,,,,,,,,,,,,,,,,,,,,,,,,,,,,,,,,,,,34086,2022-11-21_10h34.32.553,vts_reward_expectancy_bt_OFFLINE,2022.2.4,59.67327898778588,
1,0,0,0,0,1,0,0,triangle,circle,2,0,2,0,3,3,39,0,,,,,,,,,,,,,,,,,,,,,,,,,,,,,,,,,,,,,,,,1132.8637542079668,1132.8637542079668,1132.8637542079668,1132.8637542079668,1132.8637542079668,1132.8637542079668,1132.8637542079668,1132.8637542079668,1132.8637542079668,1132.8637542079668,a,0.8311613239347935,1,829,2,1133.7164621369448,1135.2164166879375,1135.2164166879375,1135.7167492660228,,,,,,,,,,,,,,,,,,,,,,,,,,,,,,,,,,,,,,,,,,,,,,,,,,,,,,,,,,,,,,,,,,,,,,,,34086,2022-11-21_10h34.32.553,vts_reward_expectancy_bt_OFFLINE,2022.2.4,59.67327898778588,
1,0,0,0,0,0,0,1,triangle,star,2,0,2,0,3,4,40,2,,,,,,,,,,,,,,,,,,,,,,,,,,,,,,,,,,,,,,,,1135.7167492660228,1135.7167492660228,1135.7167492660228,1135.7167492660228,1135.7167492660228,1135.7167492660228,1135.7167492660228,1135.7167492660228,1135.7167492660228,1135.7167492660228,l,0.3864860739558935,1,830,2,1136.1334112440236,1137.6336466700304,1137.6336466700304,,,,,,,,,,,,,,,,,,,,,,,,,,,,,,,,,,,,,,,,,,,,,,,,,,,,,,,,,,,,,,,,,,,,,,,,,34086,2022-11-21_10h34.32.553,vts_reward_expectancy_bt_OFFLINE,2022.2.4,59.67327898778588,
0,0,0,1,0,1,0,0,star ,circle,2,0,2,0,3,5,41,10,,,,,,,,,,,,,,,,,,,,,,,,,,,,,,,,,,,,,,,,1138.1360800310504,1138.1360800310504,1138.1360800310504,1138.1360800310504,1138.1360800310504,1138.1360800310504,1138.1360800310504,1138.1360800310504,1138.1360800310504,1138.1360800310504,a,0.3635627080220729,1,831,2,1138.521660573082,,1140.0366372619756,,,,,,,,,,,,,,,,,,,,,,,,,,,,,,,,,,,,,,,,,,,,,,,,,,,,,,,,,,,,,,,,,,,,,,,,,34086,2022-11-21_10h34.32.553,vts_reward_expectancy_bt_OFFLINE,2022.2.4,59.67327898778588,
0,0,1,0,0,0,0,1,hexagon,star,2,0,2,0,3,6,42,8,,,,,,,,,,,,,,,,,,,,,,,,,,,,,,,,,,,,,,,,1140.537024605088,1140.537024605088,1140.537024605088,1140.537024605088,1140.537024605088,1140.537024605088,1140.537024605088,1140.537024605088,1140.537024605088,1140.537024605088,l,0.5719550200738013,10,841,2,1141.1395118369255,,1142.6543788369745,,,,,,,,,,,,,,,,,,,,,,,,,,,,,,,,,,,,,,,,,,,,,,,,,,,,,,,,,,,,,,,,,,,,,,,,,34086,2022-11-21_10h34.32.553,vts_reward_expectancy_bt_OFFLINE,2022.2.4,59.67327898778588,
0,0,1,0,0,1,0,0,hexagon,circle,2,0,2,0,3,7,43,7,,,,,,,,,,,,,,,,,,,,,,,,,,,,,,,,,,,,,,,,1143.1392749429215,1143.1392749429215,1143.1392749429215,1143.1392749429215,1143.1392749429215,1143.1392749429215,1143.1392749429215,1143.1392749429215,1143.1392749429215,1143.1392749429215,a,0.5918203580658883,10,851,2,1143.7570157879964,,1145.2577063529752,,,,,,,,,,,,,,,,,,,,,,,,,,,,,,,,,,,,,,,,,,,,,,,,,,,,,,,,,,,,,,,,,,,,,,,,,34086,2022-11-21_10h34.32.553,vts_reward_expectancy_bt_OFFLINE,2022.2.4,59.67327898778588,
1,0,0,0,0,0,1,0,triangle,hexagon,2,0,2,0,3,8,44,1,,,,,,,,,,,,,,,,,,,,,,,,,,,,,,,,,,,,,,,,1145.7578173039947,1145.7578173039947,1145.7578173039947,1145.7578173039947,1145.7578173039947,1145.7578173039947,1145.7578173039947,1145.7578173039947,1145.7578173039947,1145.7578173039947,l,0.4260440608486533,1,852,2,1146.2097968689632,,1147.7244032060262,,,,,,,,,,,,,,,,,,,,,,,,,,,,,,,,,,,,,,,,,,,,,,,,,,,,,,,,,,,,,,,,,,,,,,,,,34086,2022-11-21_10h34.32.553,vts_reward_expectancy_bt_OFFLINE,2022.2.4,59.67327898778588,
0,1,0,0,1,0,0,0,circle,triangle,2,0,2,0,3,9,45,3,,,,,,,,,,,,,,,,,,,,,,,,,,,,,,,,,,,,,,,,1148.2101758969948,1148.2101758969948,1148.2101758969948,1148.2101758969948,1148.2101758969948,1148.2101758969948,1148.2101758969948,1148.2101758969948,1148.2101758969948,1148.2101758969948,l,0.5491859309840947,10,862,2,1148.77936972701,,1150.2942989030853,,,,,,,,,,,,,,,,,,,,,,,,,,,,,,,,,,,,,,,,,,,,,,,,,,,,,,,,,,,,,,,,,,,,,,,,,34086,2022-11-21_10h34.32.553,vts_reward_expectancy_bt_OFFLINE,2022.2.4,59.67327898778588,
0,0,0,1,0,0,1,0,star,hexagon,2,0,2,0,3,10,46,11,,,,,,,,,,,,,,,,,,,,,,,,,,,,,,,,,,,,,,,,1150.7943635359406,1150.7943635359406,1150.7943635359406,1150.7943635359406,1150.7943635359406,1150.7943635359406,1150.7943635359406,1150.7943635359406,1150.7943635359406,1150.7943635359406,l,0.710185281932354,1,863,2,1151.5300086739007,,1153.0302710940596,,,,,,,,,,,,,,,,,,,,,,,,,,,,,,,,,,,,,,,,,,,,,,,,,,,,,,,,,,,,,,,,,,,,,,,,,34086,2022-11-21_10h34.32.553,vts_reward_expectancy_bt_OFFLINE,2022.2.4,59.67327898778588,
0,0,0,1,1,0,0,0,star,triangle,2,0,2,0,3,11,47,9,,,,,,,,,,,,,,,,,,,,,,,,,,,,,,,,,,,,,,,,1153.530372563051,1153.530372563051,1153.530372563051,1153.530372563051,1153.530372563051,1153.530372563051,1153.530372563051,1153.530372563051,1153.530372563051,1153.530372563051,a,0.36019843304529786,10,873,2,1153.9162715389393,,1155.431050601881,,,,,,,,,,,,,,,,,,,,,,,,,,,,,,,,,,,,,,,,,,,,,,,,,,,,,,,,,,,,,,,,,,,,,,,,,34086,2022-11-21_10h34.32.553,vts_reward_expectancy_bt_OFFLINE,2022.2.4,59.67327898778588,
,,,,,,,,,,,,,,,,,,0,0,0,0,0,0,0,0,,,,,,,,,,,,,,,,,,,,,,,,,,,,,,,,,,,,,,,,,,,,,,,,,1195.4103800209705,,132,Y,star,0.0020760439801961184,1189.401758338092,1190.8899318990298,1190.8899318990298,1190.8899318990298,1193.8937244510744,1193.8937244510744,1193.8937244510744,0,0,None,0,1193.9101913999766,,,,,,,,,,,,,,,,,,,,,,,,,,,,,,,,,,,,,,,,,,,,,,,,,,,,,,,,34086,2022-11-21_10h34.32.553,vts_reward_expectancy_bt_OFFLINE,2022.2.4,59.67327898778588,
,,,,,,,,,,,,,,,,,,0,0,0,0,1,0,1,0,,,,,,,,,,,,,,,,,,,,,,,,,,,,,,,,,,,,,,,,,,,,,,,,,1200.8138056290336,1201.3142352269497,181,H,triangle,0.006805954035371542,1196.4067084789276,1197.8947913278826,1197.8947913278826,1197.8947913278826,,,,0,1,d,0,1199.3140063560568,1.3922210289165378,1200.8138056290336,,,,,,,,,,,,,,,,,,,,,,,,,,,,,,,,,,,,,,,,,,,,,,,,,,,,,,34086,2022-11-21_10h34.32.553,vts_reward_expectancy_bt_OFFLINE,2022.2.4,59.67327898778588,
,,,,,,,,,,,,,,,,,,0,0,0,0,2,0,2,0,,,,,,,,,,,,,,,,,,,,,,,,,,,,,,,,,,,,,,,,,,,,,,,,,1205.8676390419714,,125,B,circle,0.00031846691854298115,1201.8100896570832,1203.3007084720302,1203.3007084720302,1203.3007084720302,,,,0,1,f,0,1204.3536616719794,1.0255777090787888,,,,,,,,,,,,,,,,,,,,,,,,,,,,,,,,,,,,,,,,,,,,,,,,,,,,,,,34086,2022-11-21_10h34.32.553,vts_reward_expectancy_bt_OFFLINE,2022.2.4,59.67327898778588,
,,,,,,,,,,,,,,,,,,0,0,0,0,3,0,3,0,,,,,,,,,,,,,,,,,,,,,,,,,,,,,,,,,,,,,,,,,,,,,,,,,1210.571320836898,1211.0713088219054,174,D,hexagon,0.00036165607161819935,1206.8473775980528,1208.3366341548972,1208.3366341548972,1208.3366341548972,,,,0,1,d,0,1209.0714288090821,0.7154275588691235,1210.571320836898,,,,,,,,,,,,,,,,,,,,,,,,,,,,,,,,,,,,,,,,,,,,,,,,,,,,,,34086,2022-11-21_10h34.32.553,vts_reward_expectancy_bt_OFFLINE,2022.2.4,59.67327898778588,
,,,,,,,,,,,,,,,,,,0,0,0,0,4,0,4,0,,,,,,,,,,,,,,,,,,,,,,,,,,,,,,,,,,,,,,,,,,,,,,,,,1216.424676045077,,167,U,star,0.00029531517066061497,1211.5680194869637,1213.057663216954,1213.057663216954,1213.057663216954,,,,1,1,f,0,1214.9111509809736,1.833187183830887,,,,,,,,,,,,,,,,,,,,,,,,,,,,,,,,,,,,,,,,,,,,,,,,,,,,,,,34086,2022-11-21_10h34.32.553,vts_reward_expectancy_bt_OFFLINE,2022.2.4,59.67327898778588,
,,,,,,,,,,,,,,,,,,0,0,0,0,5,0,5,0,,,,,,,,,,,,,,,,,,,,,,,,,,,,,,,,,,,,,,,,,,,,,,,,,1221.3951922559645,,146,W,hexagon,0.016002085991203785,1217.4210229809396,1218.894234834006,1218.894234834006,1218.894234834006,,,,1,0,d,0,1219.8947758150753,0.9701859650667757,1221.3951922559645,,,,,,,,,,,,,,,,,,,,,,,,,,,,,,,,,,,,,,,,,,,,,,,,,,,,,,34086,2022-11-21_10h34.32.553,vts_reward_expectancy_bt_OFFLINE,2022.2.4,59.67327898778588,
,,,,,,,,,,,,,,,,,,0,0,0,0,6,0,6,0,,,,,,,,,,,,,,,,,,,,,,,,,,,,,,,,,,,,,,,,,,,,,,,,,1226.2660142520908,1226.7661915859208,139,F,triangle,0.0004024389199912548,1222.391628477024,1223.8814566619694,1223.8814566619694,1223.8814566619694,,,,1,0,d,0,1224.7660160039086,0.8649844620376825,1226.2660142520908,,,,,,,,,,,,,,,,,,,,,,,,,,,,,,,,,,,,,,,,,,,,,,,,,,,,,,34086,2022-11-21_10h34.32.553,vts_reward_expectancy_bt_OFFLINE,2022.2.4,59.67327898778588,
,,,,,,,,,,,,,,,,,,0,0,0,0,7,0,7,0,,,,,,,,,,,,,,,,,,,,,,,,,,,,,,,,,,,,,,,,,,,,,,,,,1230.8688942540903,,160,S,circle,0.0004446539096534252,1227.2615286509972,1228.751961800037,1228.751961800037,1228.751961800037,,,,1,0,f,0,1229.3539392258972,0.5739140168298036,,,,,,,,,,,,,,,,,,,,,,,,,,,,,,,,,,,,,,,,,,,,,,,,,,,,,,,34086,2022-11-21_10h34.32.553,vts_reward_expectancy_bt_OFFLINE,2022.2.4,59.67327898778588,
,,,,,,,,,,,,,,,,,,0,0,0,0,8,0,8,0,,,,,,,,,,,,,,,,,,,,,,,,,,,,,,,,,,,,,,,,,,,,,,,,,1235.6894320319407,,132,Y,hexagon,0.015998964896425605,1231.8644460479263,1233.3387274430133,1233.3387274430133,1233.3387274430133,,,,1,0,d,0,1234.1897025411017,0.8246947198640555,,,,,,,,,,,,,,,,,,,,,,,,,,,,,,,,,,,,,,,,,,,,,,,,,,,,,,,34086,2022-11-21_10h34.32.553,vts_reward_expectancy_bt_OFFLINE,2022.2.4,59.67327898778588,
,,,,,,,,,,,,,,,,,,0,0,0,0,9,0,9,0,,,,,,,,,,,,,,,,,,,,,,,,,,,,,,,,,,,,,,,,,,,,,,,,,1240.2762682898901,,181,H,triangle,0.0005493930075317621,1236.6854423920158,1238.1755607039668,1238.1755607039668,1238.1755607039668,,,,1,0,f,0,1238.7761691890191,0.5774680569302291,1240.2762682898901,,,,,,,,,,,,,,,,,,,,,,,,,,,,,,,,,,,,,,,,,,,,,,,,,,,,,,34086,2022-11-21_10h34.32.553,vts_reward_expectancy_bt_OFFLINE,2022.2.4,59.67327898778588,
,,,,,,,,,,,,,,,,,,1,0,1,0,0,0,0,0,,,,,,,,,,,,,,,,,,,,,,,,,,,,,,,,,,,,,,,,,,,,,,,,,1256.1379548409022,1256.6382747860625,146,H,triangle,0.0006413948722183704,1252.3634391650558,1253.8534109320026,1253.8534109320026,1253.8534109320026,,,,1,0,d,1,1254.6378492549993,0.7526723798364401,1256.1379548409022,,,,,,,,,,,,,,,,,,,,,,,,,,,,,,,,,,,,,,,,,,,,,,,,,,,,,,34086,2022-11-21_10h34.32.553,vts_reward_expectancy_bt_OFFLINE,2022.2.4,59.67327898778588,
,,,,,,,,,,,,,,,,,,1,0,1,0,1,0,1,0,,,,,,,,,,,,,,,,,,,,,,,,,,,,,,,,,,,,,,,,,,,,,,,,,1260.807579925051,1261.3078308959957,139,W,circle,0.0002513581421226263,1257.1338003610726,1258.6235136289615,1258.6235136289615,1258.6235136289615,,,,1,0,d,1,1259.3068296578713,0.6513957798015326,1260.807579925051,,,,,,,,,,,,,,,,,,,,,,,,,,,,,,,,,,,,,,,,,,,,,,,,,,,,,,34086,2022-11-21_10h34.32.553,vts_reward_expectancy_bt_OFFLINE,2022.2.4,59.67327898778588,
,,,,,,,,,,,,,,,,,,1,0,1,0,2,0,2,0,,,,,,,,,,,,,,,,,,,,,,,,,,,,,,,,,,,,,,,,,,,,,,,,,1265.2952346319798,,132,D,star,-0.0005471168551594019,1261.8036915229168,1263.294507716084,1263.294507716084,1263.294507716084,,,,1,0,d,1,1263.7945669069886,0.4686659760773182,1265.2952346319798,,,,,,,,,,,,,,,,,,,,,,,,,,,,,,,,,,,,,,,,,,,,,,,,,,,,,,34086,2022-11-21_10h34.32.553,vts_reward_expectancy_bt_OFFLINE,2022.2.4,59.67327898778588,
,,,,,,,,,,,,,,,,,,1,0,1,0,3,0,3,0,,,,,,,,,,,,,,,,,,,,,,,,,,,,,,,,,,,,,,,,,,,,,,,,,1269.8145375680178,1270.3149182319175,174,U,hexagon,0.01770224911160767,1266.307497224072,1267.7783154940698,1267.7783154940698,1267.7783154940698,,,,1,0,f,1,1268.3148976790253,0.5076319519430399,1269.8145375680178,,,,,,,,,,,,,,,,,,,,,,,,,,,,,,,,,,,,,,,,,,,,,,,,,,,,,,34086,2022-11-21_10h34.32.553,vts_reward_expectancy_bt_OFFLINE,2022.2.4,59.67327898778588,
,,,,,,,,,,,,,,,,,,1,0,1,0,4,0,4,0,,,,,,,,,,,,,,,,,,,,,,,,,,,,,,,,,,,,,,,,,,,,,,,,,1274.568168347003,,181,Y,triangle,0.00034886901266872883,1270.810583010083,1272.298715173034,1272.298715173034,1272.298715173034,,,,1,0,f,1,1273.054233238101,0.7359981399495155,,,,,,,,,,,,,,,,,,,,,,,,,,,,,,,,,,,,,,,,,,,,,,,,,,,,,,,34086,2022-11-21_10h34.32.553,vts_reward_expectancy_bt_OFFLINE,2022.2.4,59.67327898778588,
,,,,,,,,,,,,,,,,,,1,0,1,0,5,0,5,0,,,,,,,,,,,,,,,,,,,,,,,,,,,,,,,,,,,,,,,,,,,,,,,,,1279.3380256870296,,167,B,star,0.013882494997233152,1275.5630541420542,1277.052244961029,1277.052244961029,1277.052244961029,,,,0,0,d,1,1277.8369777309708,0.7521826978772879,,,,,,,,,,,,,,,,,,,,,,,,,,,,,,,,,,,,,,,,,,,,,,,,,,,,,,,34086,2022-11-21_10h34.32.553,vts_reward_expectancy_bt_OFFLINE,2022.2.4,59.67327898778588,
,,,,,,,,,,,,,,,,,,1,0,1,0,6,0,6,0,,,,,,,,,,,,,,,,,,,,,,,,,,,,,,,,,,,,,,,,,,,,,,,,,1284.2587623579893,,125,F,circle,0.0011467370204627514,1280.33402401302,1281.8225574200042,1281.8225574200042,1281.8225574200042,,,,1,1,d,1,1282.7595576809254,0.9090818699914962,,,,,,,,,,,,,,,,,,,,,,,,,,,,,,,,,,,,,,,,,,,,,,,,,,,,,,,34086,2022-11-21_10h34.32.553,vts_reward_expectancy_bt_OFFLINE,2022.2.4,59.67327898778588,
,,,,,,,,,,,,,,,,,,1,0,1,0,7,0,7,0,,,,,,,,,,,,,,,,,,,,,,,,,,,,,,,,,,,,,,,,,,,,,,,,,1288.9449294658843,,160,S,hexagon,0.0016464649233967066,1285.2543918238953,1286.742806558963,1286.742806558963,1286.742806558963,,,,1,0,f,1,1287.443672738038,0.6806746509391814,,,,,,,,,,,,,,,,,,,,,,,,,,,,,,,,,,,,,,,,,,,,,,,,,,,,,,,34086,2022-11-21_10h34.32.553,vts_reward_expectancy_bt_OFFLINE,2022.2.4,59.67327898778588,
,,,,,,,,,,,,,,,,,,1,0,1,0,8,0,8,0,,,,,,,,,,,,,,,,,,,,,,,,,,,,,,,,,,,,,,,,,,,,,,,,,1294.248894769,,146,H,star,0.0019996280316263437,1289.9410071480088,1291.429065088043,1291.429065088043,1291.429065088043,,,,1,0,d,1,1292.7472784260754,1.2935551959089935,,,,,,,,,,,,,,,,,,,,,,,,,,,,,,,,,,,,,,,,,,,,,,,,,,,,,,,34086,2022-11-21_10h34.32.553,vts_reward_expectancy_bt_OFFLINE,2022.2.4,59.67327898778588,
,,,,,,,,,,,,,,,,,,1,0,1,0,9,0,9,0,,,,,,,,,,,,,,,,,,,,,,,,,,,,,,,,,,,,,,,,,,,,,,,,,1298.9361773279961,,139,W,hexagon,0.001964002847671509,1295.244620801881,1296.7333627410699,1296.7333627410699,1296.7333627410699,,,,1,0,d,1,1297.4345826080535,0.6695977300405502,,,,,,,,,,,,,,,,,,,,,,,,,,,,,,,,,,,,,,,,,,,,,,,,,,,,,,,34086,2022-11-21_10h34.32.553,vts_reward_expectancy_bt_OFFLINE,2022.2.4,59.67327898778588,
,,,,,,,,,,,,,,,,,,,,,,,,,,0,0,0,0,0,0,0,0,,,,,,,,,,,,,,,,,,,,,,,,,,,,,,,,,,,,,,,,,1315.081122119911,1315.581466350006,160,F,circle,0.0033388459123671055,,,,,,,,1,0,,2,1313.5806311210617,,1315.081122119911,1310.072560094064,1311.5611098399386,1311.5611098399386,1311.5611098399386,j,1.9861697480082512,,,,,,,,,,,,,,,,,,,,,,,,,,,,,,,,,,,,,,,,,,,,,,,,34086,2022-11-21_10h34.32.553,vts_reward_expectancy_bt_OFFLINE,2022.2.4,59.67327898778588,
,,,,,,,,,,,,,,,,,,,,,,,,,,0,0,0,0,1,0,1,0,,,,,,,,,,,,,,,,,,,,,,,,,,,,,,,,,,,,,,,,,1320.600905938074,,167,U,star,0.014166137902066112,,,,,,,,1,0,,2,1319.1040022959933,,,1316.0933767310344,1317.5818806239404,1317.5818806239404,1317.5818806239404,k,1.4904150909278542,,,,,,,,,,,,,,,,,,,,,,,,,,,,,,,,,,,,,,,,,,,,,,,,34086,2022-11-21_10h34.32.553,vts_reward_expectancy_bt_OFFLINE,2022.2.4,59.67327898778588,
,,,,,,,,,,,,,,,,,,,,,,,,,,0,0,0,0,2,0,2,0,,,,,,,,,,,,,,,,,,,,,,,,,,,,,,,,,,,,,,,,,1325.371396258939,1325.8716354439966,181,B,hexagon,0.0011160699650645256,,,,,,,,1,0,,2,1323.8716495300177,,1325.371396258939,1321.5970250628889,1323.1039508660324,1323.1039508660324,1323.1039508660324,j,0.7487897640094161,,,,,,,,,,,,,,,,,,,,,,,,,,,,,,,,,,,,,,,,,,,,,,,,34086,2022-11-21_10h34.32.553,vts_reward_expectancy_bt_OFFLINE,2022.2.4,59.67327898778588,
,,,,,,,,,,,,,,,,,,,,,,,,,,0,0,0,0,3,0,3,0,,,,,,,,,,,,,,,,,,,,,,,,,,,,,,,,,,,,,,,,,1330.1418636299204,1330.6421885739546,146,Y,triangle,0.00044464203529059887,,,,,,,,1,0,,2,1328.6420337290037,,1330.1418636299204,1326.3674008490052,1327.8553017280065,1327.8553017280065,1327.8553017280065,k,0.7677594530396163,,,,,,,,,,,,,,,,,,,,,,,,,,,,,,,,,,,,,,,,,,,,,,,,34086,2022-11-21_10h34.32.553,vts_reward_expectancy_bt_OFFLINE,2022.2.4,59.67327898778588,
,,,,,,,,,,,,,,,,,,,,,,,,,,0,0,0,0,4,0,4,0,,,,,,,,,,,,,,,,,,,,,,,,,,,,,,,,,,,,,,,,,1334.8116765220184,,125,D,triangle,0.0005507639143615961,,,,,,,,1,0,,2,1333.3117398009636,,,1331.1369029788766,1332.625767136924,1332.625767136924,1332.625767136924,j,0.6672003578860313,,,,,,,,,,,,,,,,,,,,,,,,,,,,,,,,,,,,,,,,,,,,,,,,34086,2022-11-21_10h34.32.553,vts_reward_expectancy_bt_OFFLINE,2022.2.4,59.67327898778588,
,,,,,,,,,,,,,,,,,,,,,,,,,,0,0,0,0,5,0,5,0,,,,,,,,,,,,,,,,,,,,,,,,,,,,,,,,,,,,,,,,,1339.448611262953,,139,S,hexagon,0.00031295279040932655,,,,,,,,1,0,,2,1337.9469993440434,,,1335.807336216094,1337.296382078901,1337.296382078901,1337.296382078901,k,0.6307516319211572,,,,,,,,,,,,,,,,,,,,,,,,,,,,,,,,,,,,,,,,,,,,,,,,34086,2022-11-21_10h34.32.553,vts_reward_expectancy_bt_OFFLINE,2022.2.4,59.67327898778588,
,,,,,,,,,,,,,,,,,,,,,,,,,,0,0,0,0,6,0,6,0,,,,,,,,,,,,,,,,,,,,,,,,,,,,,,,,,,,,,,,,,1344.1186342919245,,174,W,circle,0.002629094058647752,,,,,,,,1,0,,2,1342.6178485869896,,,1340.444059572881,1341.9329502619803,1341.9329502619803,1341.9329502619803,k,0.663287634961307,,,,,,,,,,,,,,,,,,,,,,,,,,,,,,,,,,,,,,,,,,,,,,,,34086,2022-11-21_10h34.32.553,vts_reward_expectancy_bt_OFFLINE,2022.2.4,59.67327898778588,
,,,,,,,,,,,,,,,,,,,,,,,,,,0,0,0,0,7,0,7,0,,,,,,,,,,,,,,,,,,,,,,,,,,,,,,,,,,,,,,,,,1349.205883835908,,132,H,star,0.0025706079322844744,,,,,,,,1,0,,2,1347.7039603490848,,,1345.1146506969817,1346.6035703180823,1346.6035703180823,1346.6035703180823,j,1.0667506859172136,,,,,,,,,,,,,,,,,,,,,,,,,,,,,,,,,,,,,,,,,,,,,,,,34086,2022-11-21_10h34.32.553,vts_reward_expectancy_bt_OFFLINE,2022.2.4,59.67327898778588,
,,,,,,,,,,,,,,,,,,,,,,,,,,0,0,0,0,8,0,8,0,,,,,,,,,,,,,,,,,,,,,,,,,,,,,,,,,,,,,,,,,1354.0423572990112,,160,F,hexagon,0.0014637620188295841,,,,,,,,1,0,,2,1352.5411423989572,,,1350.2013452199753,1351.690531350905,1351.690531350905,1351.690531350905,j,0.8286881768144667,,,,,,,,,,,,,,,,,,,,,,,,,,,,,,,,,,,,,,,,,,,,,,,,34086,2022-11-21_10h34.32.553,vts_reward_expectancy_bt_OFFLINE,2022.2.4,59.67327898778588,
,,,,,,,,,,,,,,,,,,,,,,,,,,0,0,0,0,9,0,9,0,,,,,,,,,,,,,,,,,,,,,,,,,,,,,,,,,,,,,,,,,1358.6460667920765,,167,U,circle,0.002471327083185315,,,,,,,,1,0,,2,1357.1443588919938,,,1355.0381814190187,1356.5269099529833,1356.5269099529833,1356.5269099529833,k,0.5939142669085413,,,,,,,,,,,,,,,,,,,,,,,,,,,,,,,,,,,,,,,,,,,,,,,,34086,2022-11-21_10h34.32.553,vts_reward_expectancy_bt_OFFLINE,2022.2.4,59.67327898778588,
,,,,,,,,,,,,,,,,,,,,,,,,,,,,,,,,,,0,0,0,0,0,0,0,0,,,,,,,,,,,,,,,,,,,,,,,,,,,,0,873,,,,1402.7264439230785,,125,F,triangle,0.01721387403085828,,,,,,,,-1,0,,3,,,,,,,,,,1396.736232199939,1396.736232199939,1396.736232199939,1396.736232199939,1398.2085394279566,1398.2085394279566,1398.2085394279566,1398.2085394279566,1398.2417754600756,1398.2417754600756,1398.2417754600756,1398.2417754600756,1401.2127649679314,1401.2127649679314,1401.2127649679314,1401.2127649679314,-1,no_choice,NA,None,vtsPrac,1401.2127649679314,,,,,,,,,,,,,,,,,,,,,,,,,,34086,2022-11-21_10h34.32.553,vts_reward_expectancy_bt_OFFLINE,2022.2.4,59.67327898778588,
,,,,,,,,,,,,,,,,,,,,,,,,,,,,,,,,,,0,0,0,0,1,0,1,0,,,,,,,,,,,,,,,,,,,,,,,,,,,,0,873,,,,1408.0303278649226,,181,H,hexagon,0.006437746109440923,,,,,,,,0,0,,3,,,,,,,,,,1403.7242796989158,1403.7242796989158,1403.7242796989158,1403.7242796989158,1405.212778304005,1405.212778304005,1405.212778304005,1405.212778304005,1405.229536297964,1405.229536297964,1405.229536297964,1405.229536297964,,,,,switch,letter,NA,k,vtsPrac,1406.5351287839003,1.287939601810649,,,,,,,,,,,,,,,,,,,,,,,,,34086,2022-11-21_10h34.32.553,vts_reward_expectancy_bt_OFFLINE,2022.2.4,59.67327898778588,
,,,,,,,,,,,,,,,,,,,,,,,,,,,,,,,,,,0,0,0,0,2,0,2,0,,,,,,,,,,,,,,,,,,,,,,,,,,,,0,873,,,,1414.90326483408,,146,W,hexagon,0.0020802270155400038,,,,,,,,1,1,,3,,,,,,,,,,1409.0285656540655,1409.0285656540655,1409.0285656540655,1409.0285656540655,1410.5165850729682,1410.5165850729682,1410.5165850729682,1410.5165850729682,1410.533207670087,1410.533207670087,1410.533207670087,1410.533207670087,,,,,switch,number,numSwt,d,vtsPrac,1413.4066084409133,2.85843635792844,,,,,,,,,,,,,,,,,,,,,,,,,34086,2022-11-21_10h34.32.553,vts_reward_expectancy_bt_OFFLINE,2022.2.4,59.67327898778588,
,,,,,,,,,,,,,,,,,,,,,,,,,,,,,,,,,,0,0,0,0,3,0,3,0,,,,,,,,,,,,,,,,,,,,,,,,,,,,0,873,,,,1420.9079716969281,,167,Y,triangle,0.0010619128588587046,,,,,,,,1,0,,3,,,,,,,,,,1415.899920979049,1415.899920979049,1415.899920979049,1415.899920979049,1417.3878101659939,1417.3878101659939,1417.3878101659939,1417.3878101659939,1417.4047305360436,1417.4047305360436,1417.4047305360436,1417.4047305360436,,,,,repeat,number,numRpt,f,vtsPrac,1419.3932928498834,1.9714891728945076,,,,,,,,,,,,,,,,,,,,,,,,,34086,2022-11-21_10h34.32.553,vts_reward_expectancy_bt_OFFLINE,2022.2.4,59.67327898778588,
,,,,,,,,,,,,,,,,,,,,,,,,,,,,,,,,,,0,0,0,0,4,0,4,0,,,,,,,,,,,,,,,,,,,,,,,,,,,,0,873,,,,1427.2447934621014,1427.7448969609104,125,F,star,0.016733821015805006,,,,,,,,1,0,,3,,,,,,,,,,1421.90337636997,1421.90337636997,1421.90337636997,1421.90337636997,1423.376721021952,1423.376721021952,1423.376721021952,1423.376721021952,1423.4099076648708,1423.4099076648708,1423.4099076648708,1423.4099076648708,,,,,repeat,number,numRpt,d,vtsPrac,1425.74523700797,2.3503643148578703,1427.2447934621014,,,,,,,,,,,,,,,,,,,,,,,,34086,2022-11-21_10h34.32.553,vts_reward_expectancy_bt_OFFLINE,2022.2.4,59.67327898778588,
,,,,,,,,,,,,,,,,,,,,,,,,,,,,,,,,,,0,0,0,0,5,0,5,0,,,,,,,,,,,,,,,,,,,,,,,,,,,,0,873,,,,1432.4650759489741,1432.9650805210695,181,H,triangle,0.0005888829473406076,,,,,,,,1,0,,3,,,,,,,,,,1428.2413461080287,1428.2413461080287,1428.2413461080287,1428.2413461080287,1429.730907900026,1429.730907900026,1429.730907900026,1429.730907900026,1429.7476904198993,1429.7476904198993,1429.7476904198993,1429.7476904198993,,,,,switch,letter,lettSwt,j,vtsPrac,1430.965851947898,1.2169237937778234,1432.4650759489741,,,,,,,,,,,,,,,,,,,,,,,,34086,2022-11-21_10h34.32.553,vts_reward_expectancy_bt_OFFLINE,2022.2.4,59.67327898778588,
,,,,,,,,,,,,,,,,,,,,,,,,,,,,,,,,,,0,0,0,0,6,0,6,0,,,,,,,,,,,,,,,,,,,,,,,,,,,,0,873,,,,1437.7021238380112,,146,W,circle,6.128102540969849e-05,,,,,,,,1,0,,3,,,,,,,,,,1433.4614275649656,1433.4614275649656,1433.4614275649656,1433.4614275649656,1434.9512791428715,1434.9512791428715,1434.9512791428715,1434.9512791428715,1434.9672854358796,1434.9672854358796,1434.9672854358796,1434.9672854358796,,,,,switch,number,numSwt,d,vtsPrac,1436.1863222019747,1.2161625849548727,,,,,,,,,,,,,,,,,,,,,,,,,34086,2022-11-21_10h34.32.553,vts_reward_expectancy_bt_OFFLINE,2022.2.4,59.67327898778588,
,,,,,,,,,,,,,,,,,,,,,,,,,,,,,,,,,,0,0,0,0,7,0,7,0,,,,,,,,,,,,,,,,,,,,,,,,,,,,0,873,,,,1443.2078970840666,,167,Y,star,0.0027466630563139915,,,,,,,,1,0,,3,,,,,,,,,,1438.6830277119298,1438.6830277119298,1438.6830277119298,1438.6830277119298,1440.1721912629437,1440.1721912629437,1440.1721912629437,1440.1721912629437,1440.1883098520339,1440.1883098520339,1440.1883098520339,1440.1883098520339,,,,,switch,letter,lettSwt,k,vtsPrac,1441.706214346923,1.5084938628133386,,,,,,,,,,,,,,,,,,,,,,,,,34086,2022-11-21_10h34.32.553,vts_reward_expectancy_bt_OFFLINE,2022.2.4,59.67327898778588,
,,,,,,,,,,,,,,,,,,,,,,,,,,,,,,,,,,0,0,0,0,8,0,8,0,,,,,,,,,,,,,,,,,,,,,,,,,,,,0,873,,,,1448.561610332923,,181,W,hexagon,0.0014949759934097528,,,,,,,,1,0,,3,,,,,,,,,,1444.202615458984,1444.202615458984,1444.202615458984,1444.202615458984,1445.69236886804,1445.69236886804,1445.69236886804,1445.69236886804,1445.7083987039514,1445.7083987039514,1445.7083987039514,1445.7083987039514,,,,,repeat,letter,lettRpt,k,vtsPrac,1447.0630202970933,1.3441958168987185,,,,,,,,,,,,,,,,,,,,,,,,,34086,2022-11-21_10h34.32.553,vts_reward_expectancy_bt_OFFLINE,2022.2.4,59.67327898778588,
,,,,,,,,,,,,,,,,,,,,,,,,,,,,,,,,,,0,0,0,0,9,0,9,0,,,,,,,,,,,,,,,,,,,,,,,,,,,,0,873,,,,1454.015002144035,,167,D,star,0.0018092039972543716,,,,,,,,1,0,,3,,,,,,,,,,1449.5572551679797,1449.5572551679797,1449.5572551679797,1449.5572551679797,1451.045613969909,1451.045613969909,1451.045613969909,1451.045613969909,1451.0625225319527,1451.0625225319527,1451.0625225319527,1451.0625225319527,,,,,repeat,letter,lettRpt,j,vtsPrac,1452.513086176943,1.4353779149241745,1454.015002144035,,,,,,,,,,,,,,,,,,,,,,,,34086,2022-11-21_10h34.32.553,vts_reward_expectancy_bt_OFFLINE,2022.2.4,59.67327898778588,
,,,,,,,,,,,,,,,,,,,,,,,,,,,,,,,,,,0,0,0,0,10,0,10,0,,,,,,,,,,,,,,,,,,,,,,,,,,,,0,873,,,,1459.2692909489851,,160,F,circle,0.0006558687891811132,,,,,,,,1,0,,3,,,,,,,,,,1455.0107893950772,1455.0107893950772,1455.0107893950772,1455.0107893950772,1456.499907559948,1456.499907559948,1456.499907559948,1456.499907559948,1456.516210932983,1456.516210932983,1456.516210932983,1456.516210932983,,,,,switch,number,numSwt,f,vtsPrac,1457.767873850884,1.2463993339333683,,,,,,,,,,,,,,,,,,,,,,,,,34086,2022-11-21_10h34.32.553,vts_reward_expectancy_bt_OFFLINE,2022.2.4,59.67327898778588,
,,,,,,,,,,,,,,,,,,,,,,,,,,,,,,,,,,0,0,0,0,11,0,11,0,,,,,,,,,,,,,,,,,,,,,,,,,,,,0,873,,,,1465.1727754899766,,139,B,hexagon,0.002113393973559141,,,,,,,,1,0,,3,,,,,,,,,,1460.2652014279738,1460.2652014279738,1460.2652014279738,1460.2652014279738,1461.7537506879307,1461.7537506879307,1461.7537506879307,1461.7537506879307,1461.7697939130012,1461.7697939130012,1461.7697939130012,1461.7697939130012,,,,,repeat,number,numRpt,d,vtsPrac,1463.6732161359396,1.8992090357933193,1465.1727754899766,,,,,,,,,,,,,,,,,,,,,,,,34086,2022-11-21_10h34.32.553,vts_reward_expectancy_bt_OFFLINE,2022.2.4,59.67327898778588,
,,,,,,,,,,,,,,,,,,,,,,,,,,,,,,,,,,0,0,0,0,12,0,12,0,,,,,,,,,,,,,,,,,,,,,,,,,,,,0,873,,,,1470.5763952990528,1471.076652803924,174,B,star,0.0007368060760200024,,,,,,,,1,0,,3,,,,,,,,,,1466.1683481109794,1466.1683481109794,1466.1683481109794,1466.1683481109794,1467.6573950310703,1467.6573950310703,1467.6573950310703,1467.6573950310703,1467.67412337102,1467.67412337102,1467.67412337102,1467.67412337102,,,,,switch,letter,lettSwt,j,vtsPrac,1469.0775537050795,1.396292599849403,1470.5763952990528,,,,,,,,,,,,,,,,,,,,,,,,34086,2022-11-21_10h34.32.553,vts_reward_expectancy_bt_OFFLINE,2022.2.4,59.67327898778588,
,,,,,,,,,,,,,,,,,,,,,,,,,,,,,,,,,,0,0,0,0,13,0,13,0,,,,,,,,,,,,,,,,,,,,,,,,,,,,0,873,,,,1475.6972889038734,,167,Y,triangle,0.00011017592623829842,,,,,,,,0,0,,3,,,,,,,,,,1471.5727652849164,1471.5727652849164,1471.5727652849164,1471.5727652849164,1473.0610177640337,1473.0610177640337,1473.0610177640337,1473.0610177640337,1473.0780146599282,1473.0780146599282,1473.0780146599282,1473.0780146599282,,,,,switch,number,NA,d,vtsPrac,1474.183165942086,1.0999156688340008,,,,,,,,,,,,,,,,,,,,,,,,,34086,2022-11-21_10h34.32.553,vts_reward_expectancy_bt_OFFLINE,2022.2.4,59.67327898778588,
,,,,,,,,,,,,,,,,,,,,,,,,,,,,,,,,,,0,0,0,0,14,0,14,0,,,,,,,,,,,,,,,,,,,,,,,,,,,,0,873,,,,1481.3012419710867,,139,W,star,0.016793641028925776,,,,,,,,1,1,,3,,,,,,,,,,1476.693417429924,1476.693417429924,1476.693417429924,1476.693417429924,1478.162432516925,1478.162432516925,1478.162432516925,1478.162432516925,1478.200225252891,1478.200225252891,1478.200225252891,1478.200225252891,,,,,switch,letter,lettSwt,k,vtsPrac,1479.7877994689625,1.5899209699127823,,,,,,,,,,,,,,,,,,,,,,,,,34086,2022-11-21_10h34.32.553,vts_reward_expectancy_bt_OFFLINE,2022.2.4,59.67327898778588,
,,,,,,,,,,,,,,,,,,,,,,,,,,,,,,,,,,0,0,0,0,15,0,15,0,,,,,,,,,,,,,,,,,,,,,,,,,,,,0,873,,,,1486.604605853092,,160,U,triangle,0.01445135404355824,,,,,,,,0,0,,3,,,,,,,,,,1482.2972995101009,1482.2972995101009,1482.2972995101009,1482.2972995101009,1483.7707333820872,1483.7707333820872,1483.7707333820872,1483.7707333820872,1483.8033892009407,1483.8033892009407,1483.8033892009407,1483.8033892009407,,,,,switch,number,NA,d,vtsPrac,1485.0936614419334,1.2920115848537534,,,,,,,,,,,,,,,,,,,,,,,,,34086,2022-11-21_10h34.32.553,vts_reward_expectancy_bt_OFFLINE,2022.2.4,59.67327898778588,
,,,,,,,,,,,,,,,,,,,,,,,,,,,,,,,,,,0,0,0,0,16,0,16,0,,,,,,,,,,,,,,,,,,,,,,,,,,,,0,873,,,,1492.8089889530092,,139,H,triangle,0.016923750983551145,,,,,,,,0,1,,3,,,,,,,,,,1487.600686952006,1487.600686952006,1487.600686952006,1487.600686952006,1489.0742317938711,1489.0742317938711,1489.0742317938711,1489.0742317938711,1489.1075894199312,1489.1075894199312,1489.1075894199312,1489.1075894199312,,,,,repeat,number,NA,f,vtsPrac,1491.3100283250678,2.21104451501742,1492.8089889530092,,,,,,,,,,,,,,,,,,,,,,,,34086,2022-11-21_10h34.32.553,vts_reward_expectancy_bt_OFFLINE,2022.2.4,59.67327898778588,
