LTriangleOpac,LCircleOpac,LHexagonOpac,LStarOpac,RTriangleOpac,RCircleOpac,RHexagonOpac,RStarOpac,LShape_ID,RShape_ID,training_blocks.thisRepN,training_blocks.thisTrialN,training_blocks.thisN,training_blocks.thisIndex,training.thisRepN,training.thisTrialN,training.thisN,training.thisIndex,task1_prac_redo.thisRepN,task1_prac_redo.thisTrialN,task1_prac_redo.thisN,task1_prac_redo.thisIndex,task1_prac_trials.thisRepN,task1_prac_trials.thisTrialN,task1_prac_trials.thisN,task1_prac_trials.thisIndex,task2_prac_redo.thisRepN,task2_prac_redo.thisTrialN,task2_prac_redo.thisN,task2_prac_redo.thisIndex,task2_praac_trials.thisRepN,task2_praac_trials.thisTrialN,task2_praac_trials.thisN,task2_praac_trials.thisIndex,vts_prac_redo.thisRepN,vts_prac_redo.thisTrialN,vts_prac_redo.thisN,vts_prac_redo.thisIndex,vts_practice_trials.thisRepN,vts_practice_trials.thisTrialN,vts_practice_trials.thisN,vts_practice_trials.thisIndex,trials_norew.thisRepN,trials_norew.thisTrialN,trials_norew.thisN,trials_norew.thisIndex,block.thisRepN,block.thisTrialN,block.thisN,block.thisIndex,trials_rew.thisRepN,trials_rew.thisTrialN,trials_rew.thisN,trials_rew.thisIndex,key_resp.started,key_resp.keys,key_resp.rt,left_circle.started,right_circle.started,left_triangle.started,right_triangle.started,left_star.started,right_star.started,left_hexagon.started,right_hexagon.started,training_fix.started,training_resp.started,training_resp.keys,training_resp.rt,points_trial,points_cumul,trainBlock,training_feedback_txt.started,training_feedback_txt.stopped,fix.started,curr_topStim,curr_bottStim,curr_shape,ISI.started,tgt_fix_prac1.started,top_target_prac1.started,bott_target_prac1.started,target_resp_prac1.started,acc,E1,target_resp_prac1.keys,target_resp_prac1.rt,pracBlock,prac_fback_text.started,prac_fback_text.stopped,fix.stopped,tgt_fix_prac2.started,top_target_prac2.started,bott_target_prac2.started,target_resp_prac2.started,target_resp_prac2.keys,target_resp_prac2.rt,star.started,hegagon.started,triangle.started,circle.started,top_target.started,tgt_fix.started,bot_target.started,target_resp.started,star.stopped,hegagon.stopped,triangle.stopped,circle.stopped,top_target.stopped,tgt_fix.stopped,bot_target.stopped,target_resp.stopped,alt,task,condition,target_resp.keys,rewCond,vts_fback.started,target_resp.rt,vts_fback.stopped,blockNum,norew_fback.started,norew_fback.stopped,key_resp_2.keys,key_resp_2.rt,rewExpectancy,feedbk_text.started,feedbk_text.stopped,text_3.started,text_3.stopped,button.started,debrief.index,debrief.itemText,debrief.type,debrief.granularity,debrief.font,debrief.markerColor,debrief.response,debrief.rt,button.numClicks,button.timesOn,button.timesOff,participant,date,expName,psychopyVersion,frameRate,
,,,,,,,,,,,,,,,,,,,,,,,,,,,,,,,,,,,,,,,,,,,,,,,,,,,,,,17.07037375200889,space,29.140912981994916,,,,,,,,,,,,,,,,,,,,,,,,,,,,,,,,,,,,,,,,,,,,,,,,,,,,,,,,,,,,,,,,,,,,,,,,,,,,,,,,,,,,,,,35177,2022-10-27_13h55.24.854,vts_reward_expectancy_bt_OFFLINE,2022.2.4,60.04948738307094,
0,0,1,0,1,0,0,0,hexagon,triangle,0,0,0,0,0,0,0,6,,,,,,,,,,,,,,,,,,,,,,,,,,,,,,,,,,,,,,,,84.3458012729825,84.3458012729825,84.3458012729825,84.3458012729825,84.3458012729825,84.3458012729825,84.3458012729825,84.3458012729825,84.3458012729825,84.3458012729825,a,3.9044334259815514,10,10,0,88.28203924899572,89.783856361988,89.783856361988,,,,,,,,,,,,,,,,,,,,,,,,,,,,,,,,,,,,,,,,,,,,,,,,,,,,,,,,,,,,,,,,,,,,,35177,2022-10-27_13h55.24.854,vts_reward_expectancy_bt_OFFLINE,2022.2.4,60.04948738307094,
0,0,0,1,0,1,0,0,star ,circle,0,0,0,0,0,1,1,10,,,,,,,,,,,,,,,,,,,,,,,,,,,,,,,,,,,,,,,,90.28446220300975,90.28446220300975,90.28446220300975,90.28446220300975,90.28446220300975,90.28446220300975,90.28446220300975,90.28446220300975,90.28446220300975,90.28446220300975,a,0.9417596450075507,10,20,0,91.25220678999904,,92.75354356499156,,,,,,,,,,,,,,,,,,,,,,,,,,,,,,,,,,,,,,,,,,,,,,,,,,,,,,,,,,,,,,,,,,,,,35177,2022-10-27_13h55.24.854,vts_reward_expectancy_bt_OFFLINE,2022.2.4,60.04948738307094,
0,1,0,0,0,0,0,1,circle,star,0,0,0,0,0,2,2,5,,,,,,,,,,,,,,,,,,,,,,,,,,,,,,,,,,,,,,,,93.25430005899398,93.25430005899398,93.25430005899398,93.25430005899398,93.25430005899398,93.25430005899398,93.25430005899398,93.25430005899398,93.25430005899398,93.25430005899398,l,0.7498068040004,1,21,0,94.02183196498663,95.52341612699092,95.52341612699092,,,,,,,,,,,,,,,,,,,,,,,,,,,,,,,,,,,,,,,,,,,,,,,,,,,,,,,,,,,,,,,,,,,,,35177,2022-10-27_13h55.24.854,vts_reward_expectancy_bt_OFFLINE,2022.2.4,60.04948738307094,
0,0,0,1,1,0,0,0,star,triangle,0,0,0,0,0,3,3,9,,,,,,,,,,,,,,,,,,,,,,,,,,,,,,,,,,,,,,,,96.02398512201034,96.02398512201034,96.02398512201034,96.02398512201034,96.02398512201034,96.02398512201034,96.02398512201034,96.02398512201034,96.02398512201034,96.02398512201034,a,0.8350504210102372,1,22,0,96.89144469998428,,98.39317559398478,,,,,,,,,,,,,,,,,,,,,,,,,,,,,,,,,,,,,,,,,,,,,,,,,,,,,,,,,,,,,,,,,,,,,35177,2022-10-27_13h55.24.854,vts_reward_expectancy_bt_OFFLINE,2022.2.4,60.04948738307094,
0,1,0,0,1,0,0,0,circle,triangle,0,0,0,0,0,4,4,3,,,,,,,,,,,,,,,,,,,,,,,,,,,,,,,,,,,,,,,,98.89395325200167,98.89395325200167,98.89395325200167,98.89395325200167,98.89395325200167,98.89395325200167,98.89395325200167,98.89395325200167,98.89395325200167,98.89395325200167,l,1.0447366920125205,1,23,0,99.96164816699456,,101.46333343200968,,,,,,,,,,,,,,,,,,,,,,,,,,,,,,,,,,,,,,,,,,,,,,,,,,,,,,,,,,,,,,,,,,,,,35177,2022-10-27_13h55.24.854,vts_reward_expectancy_bt_OFFLINE,2022.2.4,60.04948738307094,
0,0,1,0,0,1,0,0,hexagon,circle,0,0,0,0,0,5,5,7,,,,,,,,,,,,,,,,,,,,,,,,,,,,,,,,,,,,,,,,101.96372891700594,101.96372891700594,101.96372891700594,101.96372891700594,101.96372891700594,101.96372891700594,101.96372891700594,101.96372891700594,101.96372891700594,101.96372891700594,l,1.0002148609783035,10,33,0,102.98154325899668,104.48346897898591,104.48346897898591,,,,,,,,,,,,,,,,,,,,,,,,,,,,,,,,,,,,,,,,,,,,,,,,,,,,,,,,,,,,,,,,,,,,,35177,2022-10-27_13h55.24.854,vts_reward_expectancy_bt_OFFLINE,2022.2.4,60.04948738307094,
0,0,1,0,0,0,0,1,hexagon,star,0,0,0,0,0,6,6,8,,,,,,,,,,,,,,,,,,,,,,,,,,,,,,,,,,,,,,,,104.98383705999004,104.98383705999004,104.98383705999004,104.98383705999004,104.98383705999004,104.98383705999004,104.98383705999004,104.98383705999004,104.98383705999004,104.98383705999004,a,0.9390148120000958,1,34,0,105.95148047999828,,107.45315126000787,,,,,,,,,,,,,,,,,,,,,,,,,,,,,,,,,,,,,,,,,,,,,,,,,,,,,,,,,,,,,,,,,,,,,35177,2022-10-27_13h55.24.854,vts_reward_expectancy_bt_OFFLINE,2022.2.4,60.04948738307094,
1,0,0,0,0,0,0,1,triangle,star,0,0,0,0,0,7,7,2,,,,,,,,,,,,,,,,,,,,,,,,,,,,,,,,,,,,,,,,107.95364987000357,107.95364987000357,107.95364987000357,107.95364987000357,107.95364987000357,107.95364987000357,107.95364987000357,107.95364987000357,107.95364987000357,107.95364987000357,l,1.0421240849827882,1,35,0,109.02157268300653,,110.5232247899985,,,,,,,,,,,,,,,,,,,,,,,,,,,,,,,,,,,,,,,,,,,,,,,,,,,,,,,,,,,,,,,,,,,,,35177,2022-10-27_13h55.24.854,vts_reward_expectancy_bt_OFFLINE,2022.2.4,60.04948738307094,
0,1,0,0,0,0,1,0,circle,hexagon,0,0,0,0,0,8,8,4,,,,,,,,,,,,,,,,,,,,,,,,,,,,,,,,,,,,,,,,111.0238931599888,111.0238931599888,111.0238931599888,111.0238931599888,111.0238931599888,111.0238931599888,111.0238931599888,111.0238931599888,111.0238931599888,111.0238931599888,l,0.8103603849885985,10,45,0,111.85795341199264,,113.35961220500758,,,,,,,,,,,,,,,,,,,,,,,,,,,,,,,,,,,,,,,,,,,,,,,,,,,,,,,,,,,,,,,,,,,,,35177,2022-10-27_13h55.24.854,vts_reward_expectancy_bt_OFFLINE,2022.2.4,60.04948738307094,
0,0,0,1,0,0,1,0,star,hexagon,0,0,0,0,0,9,9,11,,,,,,,,,,,,,,,,,,,,,,,,,,,,,,,,,,,,,,,,113.86038750398438,113.86038750398438,113.86038750398438,113.86038750398438,113.86038750398438,113.86038750398438,113.86038750398438,113.86038750398438,113.86038750398438,113.86038750398438,l,0.3427541200071573,1,46,0,114.22748555499129,,115.72918044499238,,,,,,,,,,,,,,,,,,,,,,,,,,,,,,,,,,,,,,,,,,,,,,,,,,,,,,,,,,,,,,,,,,,,,35177,2022-10-27_13h55.24.854,vts_reward_expectancy_bt_OFFLINE,2022.2.4,60.04948738307094,
1,0,0,0,0,1,0,0,triangle,circle,0,0,0,0,0,10,10,0,,,,,,,,,,,,,,,,,,,,,,,,,,,,,,,,,,,,,,,,116.2297806449933,116.2297806449933,116.2297806449933,116.2297806449933,116.2297806449933,116.2297806449933,116.2297806449933,116.2297806449933,116.2297806449933,116.2297806449933,l,0.5976706840156112,10,56,0,116.846814583987,,118.34873099200195,,,,,,,,,,,,,,,,,,,,,,,,,,,,,,,,,,,,,,,,,,,,,,,,,,,,,,,,,,,,,,,,,,,,,35177,2022-10-27_13h55.24.854,vts_reward_expectancy_bt_OFFLINE,2022.2.4,60.04948738307094,
1,0,0,0,0,0,1,0,triangle,hexagon,0,0,0,0,0,11,11,1,,,,,,,,,,,,,,,,,,,,,,,,,,,,,,,,,,,,,,,,118.84931973199127,118.84931973199127,118.84931973199127,118.84931973199127,118.84931973199127,118.84931973199127,118.84931973199127,118.84931973199127,118.84931973199127,118.84931973199127,l,0.3208679709932767,1,57,0,119.1997088319913,,120.70137683898793,,,,,,,,,,,,,,,,,,,,,,,,,,,,,,,,,,,,,,,,,,,,,,,,,,,,,,,,,,,,,,,,,,,,,35177,2022-10-27_13h55.24.854,vts_reward_expectancy_bt_OFFLINE,2022.2.4,60.04948738307094,
0,0,0,1,0,0,1,0,star,hexagon,0,0,0,0,1,0,12,11,,,,,,,,,,,,,,,,,,,,,,,,,,,,,,,,,,,,,,,,121.20169604700641,121.20169604700641,121.20169604700641,121.20169604700641,121.20169604700641,121.20169604700641,121.20169604700641,121.20169604700641,121.20169604700641,121.20169604700641,a,0.3527888980170246,1,58,0,121.58553118898999,,123.08740066899918,,,,,,,,,,,,,,,,,,,,,,,,,,,,,,,,,,,,,,,,,,,,,,,,,,,,,,,,,,,,,,,,,,,,,35177,2022-10-27_13h55.24.854,vts_reward_expectancy_bt_OFFLINE,2022.2.4,60.04948738307094,
1,0,0,0,0,1,0,0,triangle,circle,0,0,0,0,1,1,13,0,,,,,,,,,,,,,,,,,,,,,,,,,,,,,,,,,,,,,,,,123.58798347198172,123.58798347198172,123.58798347198172,123.58798347198172,123.58798347198172,123.58798347198172,123.58798347198172,123.58798347198172,123.58798347198172,123.58798347198172,a,0.74263374201837,10,68,0,124.35540755998227,,125.85691032200702,,,,,,,,,,,,,,,,,,,,,,,,,,,,,,,,,,,,,,,,,,,,,,,,,,,,,,,,,,,,,,,,,,,,,35177,2022-10-27_13h55.24.854,vts_reward_expectancy_bt_OFFLINE,2022.2.4,60.04948738307094,
0,1,0,0,1,0,0,0,circle,triangle,0,0,0,0,1,2,14,3,,,,,,,,,,,,,,,,,,,,,,,,,,,,,,,,,,,,,,,,126.35737334899022,126.35737334899022,126.35737334899022,126.35737334899022,126.35737334899022,126.35737334899022,126.35737334899022,126.35737334899022,126.35737334899022,126.35737334899022,a,1.709974355995655,10,78,0,128.092560849007,,129.59433224899112,,,,,,,,,,,,,,,,,,,,,,,,,,,,,,,,,,,,,,,,,,,,,,,,,,,,,,,,,,,,,,,,,,,,,35177,2022-10-27_13h55.24.854,vts_reward_expectancy_bt_OFFLINE,2022.2.4,60.04948738307094,
0,0,1,0,0,0,0,1,hexagon,star,0,0,0,0,1,3,15,8,,,,,,,,,,,,,,,,,,,,,,,,,,,,,,,,,,,,,,,,130.0948085350101,130.0948085350101,130.0948085350101,130.0948085350101,130.0948085350101,130.0948085350101,130.0948085350101,130.0948085350101,130.0948085350101,130.0948085350101,l,1.0924788950069342,10,88,0,131.2127313769888,,132.71456234698417,,,,,,,,,,,,,,,,,,,,,,,,,,,,,,,,,,,,,,,,,,,,,,,,,,,,,,,,,,,,,,,,,,,,,35177,2022-10-27_13h55.24.854,vts_reward_expectancy_bt_OFFLINE,2022.2.4,60.04948738307094,
0,0,1,0,0,1,0,0,hexagon,circle,0,0,0,0,1,4,16,7,,,,,,,,,,,,,,,,,,,,,,,,,,,,,,,,,,,,,,,,133.21492152000428,133.21492152000428,133.21492152000428,133.21492152000428,133.21492152000428,133.21492152000428,133.21492152000428,133.21492152000428,133.21492152000428,133.21492152000428,l,0.5711792799993418,10,98,0,133.8155923569866,,135.3172052569862,,,,,,,,,,,,,,,,,,,,,,,,,,,,,,,,,,,,,,,,,,,,,,,,,,,,,,,,,,,,,,,,,,,,,35177,2022-10-27_13h55.24.854,vts_reward_expectancy_bt_OFFLINE,2022.2.4,60.04948738307094,
0,0,0,1,1,0,0,0,star,triangle,0,0,0,0,1,5,17,9,,,,,,,,,,,,,,,,,,,,,,,,,,,,,,,,,,,,,,,,135.81796088899137,135.81796088899137,135.81796088899137,135.81796088899137,135.81796088899137,135.81796088899137,135.81796088899137,135.81796088899137,135.81796088899137,135.81796088899137,l,0.6807233360013925,10,108,0,136.51877604299807,,138.0202345069847,,,,,,,,,,,,,,,,,,,,,,,,,,,,,,,,,,,,,,,,,,,,,,,,,,,,,,,,,,,,,,,,,,,,,35177,2022-10-27_13h55.24.854,vts_reward_expectancy_bt_OFFLINE,2022.2.4,60.04948738307094,
0,1,0,0,0,0,1,0,circle,hexagon,0,0,0,0,1,6,18,4,,,,,,,,,,,,,,,,,,,,,,,,,,,,,,,,,,,,,,,,138.52088474400807,138.52088474400807,138.52088474400807,138.52088474400807,138.52088474400807,138.52088474400807,138.52088474400807,138.52088474400807,138.52088474400807,138.52088474400807,a,0.9063651140022557,1,109,0,139.45537756299018,,140.956922716985,,,,,,,,,,,,,,,,,,,,,,,,,,,,,,,,,,,,,,,,,,,,,,,,,,,,,,,,,,,,,,,,,,,,,35177,2022-10-27_13h55.24.854,vts_reward_expectancy_bt_OFFLINE,2022.2.4,60.04948738307094,
0,0,1,0,1,0,0,0,hexagon,triangle,0,0,0,0,1,7,19,6,,,,,,,,,,,,,,,,,,,,,,,,,,,,,,,,,,,,,,,,141.45737047400326,141.45737047400326,141.45737047400326,141.45737047400326,141.45737047400326,141.45737047400326,141.45737047400326,141.45737047400326,141.45737047400326,141.45737047400326,a,0.44361903599929065,1,110,0,141.92459253498237,,143.42637766798725,,,,,,,,,,,,,,,,,,,,,,,,,,,,,,,,,,,,,,,,,,,,,,,,,,,,,,,,,,,,,,,,,,,,,35177,2022-10-27_13h55.24.854,vts_reward_expectancy_bt_OFFLINE,2022.2.4,60.04948738307094,
1,0,0,0,0,0,0,1,triangle,star,0,0,0,0,1,8,20,2,,,,,,,,,,,,,,,,,,,,,,,,,,,,,,,,,,,,,,,,143.92690078698797,143.92690078698797,143.92690078698797,143.92690078698797,143.92690078698797,143.92690078698797,143.92690078698797,143.92690078698797,143.92690078698797,143.92690078698797,l,0.2595947259978857,1,111,0,144.21071289398242,,145.71210847300244,,,,,,,,,,,,,,,,,,,,,,,,,,,,,,,,,,,,,,,,,,,,,,,,,,,,,,,,,,,,,,,,,,,,,35177,2022-10-27_13h55.24.854,vts_reward_expectancy_bt_OFFLINE,2022.2.4,60.04948738307094,
0,1,0,0,0,0,0,1,circle,star,0,0,0,0,1,9,21,5,,,,,,,,,,,,,,,,,,,,,,,,,,,,,,,,,,,,,,,,146.21266910398845,146.21266910398845,146.21266910398845,146.21266910398845,146.21266910398845,146.21266910398845,146.21266910398845,146.21266910398845,146.21266910398845,146.21266910398845,l,0.2307916040008422,1,112,0,146.4628874649934,,147.9646443949896,,,,,,,,,,,,,,,,,,,,,,,,,,,,,,,,,,,,,,,,,,,,,,,,,,,,,,,,,,,,,,,,,,,,,35177,2022-10-27_13h55.24.854,vts_reward_expectancy_bt_OFFLINE,2022.2.4,60.04948738307094,
0,0,0,1,0,1,0,0,star ,circle,0,0,0,0,1,10,22,10,,,,,,,,,,,,,,,,,,,,,,,,,,,,,,,,,,,,,,,,148.46513434898225,148.46513434898225,148.46513434898225,148.46513434898225,148.46513434898225,148.46513434898225,148.46513434898225,148.46513434898225,148.46513434898225,148.46513434898225,l,0.32181886601028964,10,122,0,148.81565243998193,,150.31706974300323,,,,,,,,,,,,,,,,,,,,,,,,,,,,,,,,,,,,,,,,,,,,,,,,,,,,,,,,,,,,,,,,,,,,,35177,2022-10-27_13h55.24.854,vts_reward_expectancy_bt_OFFLINE,2022.2.4,60.04948738307094,
1,0,0,0,0,0,1,0,triangle,hexagon,0,0,0,0,1,11,23,1,,,,,,,,,,,,,,,,,,,,,,,,,,,,,,,,,,,,,,,,150.81750404299237,150.81750404299237,150.81750404299237,150.81750404299237,150.81750404299237,150.81750404299237,150.81750404299237,150.81750404299237,150.81750404299237,150.81750404299237,l,0.45131778097129427,1,123,0,151.3015756639943,,152.80349899400608,,,,,,,,,,,,,,,,,,,,,,,,,,,,,,,,,,,,,,,,,,,,,,,,,,,,,,,,,,,,,,,,,,,,,35177,2022-10-27_13h55.24.854,vts_reward_expectancy_bt_OFFLINE,2022.2.4,60.04948738307094,
0,0,1,0,0,1,0,0,hexagon,circle,0,0,0,0,2,0,24,7,,,,,,,,,,,,,,,,,,,,,,,,,,,,,,,,,,,,,,,,153.30371317500249,153.30371317500249,153.30371317500249,153.30371317500249,153.30371317500249,153.30371317500249,153.30371317500249,153.30371317500249,153.30371317500249,153.30371317500249,a,0.45131516599212773,1,124,0,153.78751867701067,,155.28933141499874,,,,,,,,,,,,,,,,,,,,,,,,,,,,,,,,,,,,,,,,,,,,,,,,,,,,,,,,,,,,,,,,,,,,,35177,2022-10-27_13h55.24.854,vts_reward_expectancy_bt_OFFLINE,2022.2.4,60.04948738307094,
0,0,1,0,1,0,0,0,hexagon,triangle,0,0,0,0,2,1,25,6,,,,,,,,,,,,,,,,,,,,,,,,,,,,,,,,,,,,,,,,155.78984618498362,155.78984618498362,155.78984618498362,155.78984618498362,155.78984618498362,155.78984618498362,155.78984618498362,155.78984618498362,155.78984618498362,155.78984618498362,a,0.2933517569908872,1,125,0,156.10689370299224,,157.6085256630031,,,,,,,,,,,,,,,,,,,,,,,,,,,,,,,,,,,,,,,,,,,,,,,,,,,,,,,,,,,,,,,,,,,,,35177,2022-10-27_13h55.24.854,vts_reward_expectancy_bt_OFFLINE,2022.2.4,60.04948738307094,
1,0,0,0,0,0,1,0,triangle,hexagon,0,0,0,0,2,2,26,1,,,,,,,,,,,,,,,,,,,,,,,,,,,,,,,,,,,,,,,,158.10927411998273,158.10927411998273,158.10927411998273,158.10927411998273,158.10927411998273,158.10927411998273,158.10927411998273,158.10927411998273,158.10927411998273,158.10927411998273,a,0.6610704959894065,1,126,0,158.79343929700553,,160.29482717000064,,,,,,,,,,,,,,,,,,,,,,,,,,,,,,,,,,,,,,,,,,,,,,,,,,,,,,,,,,,,,,,,,,,,,35177,2022-10-27_13h55.24.854,vts_reward_expectancy_bt_OFFLINE,2022.2.4,60.04948738307094,
1,0,0,0,0,1,0,0,triangle,circle,0,0,0,0,2,3,27,0,,,,,,,,,,,,,,,,,,,,,,,,,,,,,,,,,,,,,,,,160.79556997399777,160.79556997399777,160.79556997399777,160.79556997399777,160.79556997399777,160.79556997399777,160.79556997399777,160.79556997399777,160.79556997399777,160.79556997399777,l,0.5027243669901509,10,136,0,161.32924571400508,,162.8310282829916,,,,,,,,,,,,,,,,,,,,,,,,,,,,,,,,,,,,,,,,,,,,,,,,,,,,,,,,,,,,,,,,,,,,,35177,2022-10-27_13h55.24.854,vts_reward_expectancy_bt_OFFLINE,2022.2.4,60.04948738307094,
0,0,0,1,0,1,0,0,star ,circle,0,0,0,0,2,4,28,10,,,,,,,,,,,,,,,,,,,,,,,,,,,,,,,,,,,,,,,,163.33152311199228,163.33152311199228,163.33152311199228,163.33152311199228,163.33152311199228,163.33152311199228,163.33152311199228,163.33152311199228,163.33152311199228,163.33152311199228,l,0.3755570570065174,10,146,0,163.73183456499828,,165.23353732199757,,,,,,,,,,,,,,,,,,,,,,,,,,,,,,,,,,,,,,,,,,,,,,,,,,,,,,,,,,,,,,,,,,,,,35177,2022-10-27_13h55.24.854,vts_reward_expectancy_bt_OFFLINE,2022.2.4,60.04948738307094,
0,1,0,0,0,0,1,0,circle,hexagon,0,0,0,0,2,5,29,4,,,,,,,,,,,,,,,,,,,,,,,,,,,,,,,,,,,,,,,,165.73426609500893,165.73426609500893,165.73426609500893,165.73426609500893,165.73426609500893,165.73426609500893,165.73426609500893,165.73426609500893,165.73426609500893,165.73426609500893,l,1.3965575899928808,10,156,0,167.15234301800956,,168.65401377898525,,,,,,,,,,,,,,,,,,,,,,,,,,,,,,,,,,,,,,,,,,,,,,,,,,,,,,,,,,,,,,,,,,,,,35177,2022-10-27_13h55.24.854,vts_reward_expectancy_bt_OFFLINE,2022.2.4,60.04948738307094,
0,0,0,1,1,0,0,0,star,triangle,0,0,0,0,2,6,30,9,,,,,,,,,,,,,,,,,,,,,,,,,,,,,,,,,,,,,,,,169.1547034929972,169.1547034929972,169.1547034929972,169.1547034929972,169.1547034929972,169.1547034929972,169.1547034929972,169.1547034929972,169.1547034929972,169.1547034929972,l,1.4408869019825943,10,166,0,170.62284102500416,,172.1247285429854,,,,,,,,,,,,,,,,,,,,,,,,,,,,,,,,,,,,,,,,,,,,,,,,,,,,,,,,,,,,,,,,,,,,,35177,2022-10-27_13h55.24.854,vts_reward_expectancy_bt_OFFLINE,2022.2.4,60.04948738307094,
0,1,0,0,1,0,0,0,circle,triangle,0,0,0,0,2,7,31,3,,,,,,,,,,,,,,,,,,,,,,,,,,,,,,,,,,,,,,,,172.6251127430005,172.6251127430005,172.6251127430005,172.6251127430005,172.6251127430005,172.6251127430005,172.6251127430005,172.6251127430005,172.6251127430005,172.6251127430005,a,1.105433524993714,10,176,0,173.7597110630013,,175.26136022398714,,,,,,,,,,,,,,,,,,,,,,,,,,,,,,,,,,,,,,,,,,,,,,,,,,,,,,,,,,,,,,,,,,,,,35177,2022-10-27_13h55.24.854,vts_reward_expectancy_bt_OFFLINE,2022.2.4,60.04948738307094,
0,0,1,0,0,0,0,1,hexagon,star,0,0,0,0,2,8,32,8,,,,,,,,,,,,,,,,,,,,,,,,,,,,,,,,,,,,,,,,175.76201310299803,175.76201310299803,175.76201310299803,175.76201310299803,175.76201310299803,175.76201310299803,175.76201310299803,175.76201310299803,175.76201310299803,175.76201310299803,a,0.7602172800106928,1,177,0,176.54639696498634,,178.04798527399544,,,,,,,,,,,,,,,,,,,,,,,,,,,,,,,,,,,,,,,,,,,,,,,,,,,,,,,,,,,,,,,,,,,,,35177,2022-10-27_13h55.24.854,vts_reward_expectancy_bt_OFFLINE,2022.2.4,60.04948738307094,
0,0,0,1,0,0,1,0,star,hexagon,0,0,0,0,2,9,33,11,,,,,,,,,,,,,,,,,,,,,,,,,,,,,,,,,,,,,,,,178.54857292200904,178.54857292200904,178.54857292200904,178.54857292200904,178.54857292200904,178.54857292200904,178.54857292200904,178.54857292200904,178.54857292200904,178.54857292200904,l,0.4072576219914481,1,178,0,178.9822265119874,,180.4839833730075,,,,,,,,,,,,,,,,,,,,,,,,,,,,,,,,,,,,,,,,,,,,,,,,,,,,,,,,,,,,,,,,,,,,,35177,2022-10-27_13h55.24.854,vts_reward_expectancy_bt_OFFLINE,2022.2.4,60.04948738307094,
0,1,0,0,0,0,0,1,circle,star,0,0,0,0,2,10,34,5,,,,,,,,,,,,,,,,,,,,,,,,,,,,,,,,,,,,,,,,180.98458609200316,180.98458609200316,180.98458609200316,180.98458609200316,180.98458609200316,180.98458609200316,180.98458609200316,180.98458609200316,180.98458609200316,180.98458609200316,l,0.8018727269954979,1,179,0,181.81859837198863,,183.320199365,,,,,,,,,,,,,,,,,,,,,,,,,,,,,,,,,,,,,,,,,,,,,,,,,,,,,,,,,,,,,,,,,,,,,35177,2022-10-27_13h55.24.854,vts_reward_expectancy_bt_OFFLINE,2022.2.4,60.04948738307094,
1,0,0,0,0,0,0,1,triangle,star,0,0,0,0,2,11,35,2,,,,,,,,,,,,,,,,,,,,,,,,,,,,,,,,,,,,,,,,183.82076131898793,183.82076131898793,183.82076131898793,183.82076131898793,183.82076131898793,183.82076131898793,183.82076131898793,183.82076131898793,183.82076131898793,183.82076131898793,a,0.6697048109781463,10,189,0,184.5216781969939,,186.02314922300866,,,,,,,,,,,,,,,,,,,,,,,,,,,,,,,,,,,,,,,,,,,,,,,,,,,,,,,,,,,,,,,,,,,,,35177,2022-10-27_13h55.24.854,vts_reward_expectancy_bt_OFFLINE,2022.2.4,60.04948738307094,
0,0,0,1,0,0,1,0,star,hexagon,0,0,0,0,3,0,36,11,,,,,,,,,,,,,,,,,,,,,,,,,,,,,,,,,,,,,,,,186.52373200800503,186.52373200800503,186.52373200800503,186.52373200800503,186.52373200800503,186.52373200800503,186.52373200800503,186.52373200800503,186.52373200800503,186.52373200800503,l,0.6547665699908976,10,199,0,187.20790688498528,,188.7094965520082,,,,,,,,,,,,,,,,,,,,,,,,,,,,,,,,,,,,,,,,,,,,,,,,,,,,,,,,,,,,,,,,,,,,,35177,2022-10-27_13h55.24.854,vts_reward_expectancy_bt_OFFLINE,2022.2.4,60.04948738307094,
0,0,1,0,0,0,0,1,hexagon,star,0,0,0,0,3,1,37,8,,,,,,,,,,,,,,,,,,,,,,,,,,,,,,,,,,,,,,,,189.21001881899429,189.21001881899429,189.21001881899429,189.21001881899429,189.21001881899429,189.21001881899429,189.21001881899429,189.21001881899429,189.21001881899429,189.21001881899429,a,0.665977622003993,1,200,0,189.89403405899066,,191.39577799499966,,,,,,,,,,,,,,,,,,,,,,,,,,,,,,,,,,,,,,,,,,,,,,,,,,,,,,,,,,,,,,,,,,,,,35177,2022-10-27_13h55.24.854,vts_reward_expectancy_bt_OFFLINE,2022.2.4,60.04948738307094,
0,1,0,0,0,0,0,1,circle,star,0,0,0,0,3,2,38,5,,,,,,,,,,,,,,,,,,,,,,,,,,,,,,,,,,,,,,,,191.89641687998665,191.89641687998665,191.89641687998665,191.89641687998665,191.89641687998665,191.89641687998665,191.89641687998665,191.89641687998665,191.89641687998665,191.89641687998665,a,1.4186813779815566,10,210,0,193.3313460490026,194.83300672200858,194.83300672200858,,,,,,,,,,,,,,,,,,,,,,,,,,,,,,,,,,,,,,,,,,,,,,,,,,,,,,,,,,,,,,,,,,,,,35177,2022-10-27_13h55.24.854,vts_reward_expectancy_bt_OFFLINE,2022.2.4,60.04948738307094,
1,0,0,0,0,0,0,1,triangle,star,0,0,0,0,3,3,39,2,,,,,,,,,,,,,,,,,,,,,,,,,,,,,,,,,,,,,,,,195.3336189799884,195.3336189799884,195.3336189799884,195.3336189799884,195.3336189799884,195.3336189799884,195.3336189799884,195.3336189799884,195.3336189799884,195.3336189799884,a,0.5819804079947062,10,220,0,195.934437177988,,197.4358607089962,,,,,,,,,,,,,,,,,,,,,,,,,,,,,,,,,,,,,,,,,,,,,,,,,,,,,,,,,,,,,,,,,,,,,35177,2022-10-27_13h55.24.854,vts_reward_expectancy_bt_OFFLINE,2022.2.4,60.04948738307094,
0,0,0,1,0,1,0,0,star ,circle,0,0,0,0,3,4,40,10,,,,,,,,,,,,,,,,,,,,,,,,,,,,,,,,,,,,,,,,197.93654468498426,197.93654468498426,197.93654468498426,197.93654468498426,197.93654468498426,197.93654468498426,197.93654468498426,197.93654468498426,197.93654468498426,197.93654468498426,a,1.6992964309756644,10,230,0,199.65506398899015,,201.15665373500087,,,,,,,,,,,,,,,,,,,,,,,,,,,,,,,,,,,,,,,,,,,,,,,,,,,,,,,,,,,,,,,,,,,,,35177,2022-10-27_13h55.24.854,vts_reward_expectancy_bt_OFFLINE,2022.2.4,60.04948738307094,
0,0,1,0,0,1,0,0,hexagon,circle,0,0,0,0,3,5,41,7,,,,,,,,,,,,,,,,,,,,,,,,,,,,,,,,,,,,,,,,201.65742292898358,201.65742292898358,201.65742292898358,201.65742292898358,201.65742292898358,201.65742292898358,201.65742292898358,201.65742292898358,201.65742292898358,201.65742292898358,a,1.0352447160112206,10,240,0,202.72492222400615,,204.22657957699266,,,,,,,,,,,,,,,,,,,,,,,,,,,,,,,,,,,,,,,,,,,,,,,,,,,,,,,,,,,,,,,,,,,,,35177,2022-10-27_13h55.24.854,vts_reward_expectancy_bt_OFFLINE,2022.2.4,60.04948738307094,
0,1,0,0,1,0,0,0,circle,triangle,0,0,0,0,3,6,42,3,,,,,,,,,,,,,,,,,,,,,,,,,,,,,,,,,,,,,,,,204.7273356730002,204.7273356730002,204.7273356730002,204.7273356730002,204.7273356730002,204.7273356730002,204.7273356730002,204.7273356730002,204.7273356730002,204.7273356730002,l,1.12470275699161,1,241,0,205.87849419898703,,207.38008433199138,,,,,,,,,,,,,,,,,,,,,,,,,,,,,,,,,,,,,,,,,,,,,,,,,,,,,,,,,,,,,,,,,,,,,35177,2022-10-27_13h55.24.854,vts_reward_expectancy_bt_OFFLINE,2022.2.4,60.04948738307094,
1,0,0,0,0,1,0,0,triangle,circle,0,0,0,0,3,7,43,0,,,,,,,,,,,,,,,,,,,,,,,,,,,,,,,,,,,,,,,,207.88052289900952,207.88052289900952,207.88052289900952,207.88052289900952,207.88052289900952,207.88052289900952,207.88052289900952,207.88052289900952,207.88052289900952,207.88052289900952,l,0.8513753790175542,10,251,0,208.74847670298186,210.24991953998688,210.24991953998688,,,,,,,,,,,,,,,,,,,,,,,,,,,,,,,,,,,,,,,,,,,,,,,,,,,,,,,,,,,,,,,,,,,,,35177,2022-10-27_13h55.24.854,vts_reward_expectancy_bt_OFFLINE,2022.2.4,60.04948738307094,
0,0,1,0,1,0,0,0,hexagon,triangle,0,0,0,0,3,8,44,6,,,,,,,,,,,,,,,,,,,,,,,,,,,,,,,,,,,,,,,,210.75037868498475,210.75037868498475,210.75037868498475,210.75037868498475,210.75037868498475,210.75037868498475,210.75037868498475,210.75037868498475,210.75037868498475,210.75037868498475,a,0.5251782839768566,1,252,0,211.30128899301053,212.80295325699262,212.80295325699262,,,,,,,,,,,,,,,,,,,,,,,,,,,,,,,,,,,,,,,,,,,,,,,,,,,,,,,,,,,,,,,,,,,,,35177,2022-10-27_13h55.24.854,vts_reward_expectancy_bt_OFFLINE,2022.2.4,60.04948738307094,
0,0,0,1,1,0,0,0,star,triangle,0,0,0,0,3,9,45,9,,,,,,,,,,,,,,,,,,,,,,,,,,,,,,,,,,,,,,,,213.30322161398362,213.30322161398362,213.30322161398362,213.30322161398362,213.30322161398362,213.30322161398362,213.30322161398362,213.30322161398362,213.30322161398362,213.30322161398362,a,0.403932528977748,10,262,0,213.73729133300367,,215.23895241200808,,,,,,,,,,,,,,,,,,,,,,,,,,,,,,,,,,,,,,,,,,,,,,,,,,,,,,,,,,,,,,,,,,,,,35177,2022-10-27_13h55.24.854,vts_reward_expectancy_bt_OFFLINE,2022.2.4,60.04948738307094,
1,0,0,0,0,0,1,0,triangle,hexagon,0,0,0,0,3,10,46,1,,,,,,,,,,,,,,,,,,,,,,,,,,,,,,,,,,,,,,,,215.7392844069982,215.7392844069982,215.7392844069982,215.7392844069982,215.7392844069982,215.7392844069982,215.7392844069982,215.7392844069982,215.7392844069982,215.7392844069982,l,1.2161333489930257,1,263,0,216.9741433970048,,218.47604400999262,,,,,,,,,,,,,,,,,,,,,,,,,,,,,,,,,,,,,,,,,,,,,,,,,,,,,,,,,,,,,,,,,,,,,35177,2022-10-27_13h55.24.854,vts_reward_expectancy_bt_OFFLINE,2022.2.4,60.04948738307094,
0,1,0,0,0,0,1,0,circle,hexagon,0,0,0,0,3,11,47,4,,,,,,,,,,,,,,,,,,,,,,,,,,,,,,,,,,,,,,,,218.9762785769999,218.9762785769999,218.9762785769999,218.9762785769999,218.9762785769999,218.9762785769999,218.9762785769999,218.9762785769999,218.9762785769999,218.9762785769999,l,0.4844665570126381,1,264,0,219.49347395199584,,220.9951628719864,,,,,,,,,,,,,,,,,,,,,,,,,,,,,,,,,,,,,,,,,,,,,,,,,,,,,,,,,,,,,,,,,,,,,35177,2022-10-27_13h55.24.854,vts_reward_expectancy_bt_OFFLINE,2022.2.4,60.04948738307094,
0,0,0,1,0,0,1,0,star,hexagon,1,0,1,0,0,0,0,11,,,,,,,,,,,,,,,,,,,,,,,,,,,,,,,,,,,,,,,,245.92271550899022,245.92271550899022,245.92271550899022,245.92271550899022,245.92271550899022,245.92271550899022,245.92271550899022,245.92271550899022,245.92271550899022,245.92271550899022,a,1.1926600500009954,1,265,1,247.1406351439946,,248.6424585339846,,,,,,,,,,,,,,,,,,,,,,,,,,,,,,,,,,,,,,,,,,,,,,,,,,,,,,,,,,,,,,,,,,,,,35177,2022-10-27_13h55.24.854,vts_reward_expectancy_bt_OFFLINE,2022.2.4,60.04948738307094,
0,0,0,1,0,1,0,0,star ,circle,1,0,1,0,0,1,1,10,,,,,,,,,,,,,,,,,,,,,,,,,,,,,,,,,,,,,,,,249.14283525300561,249.14283525300561,249.14283525300561,249.14283525300561,249.14283525300561,249.14283525300561,249.14283525300561,249.14283525300561,249.14283525300561,249.14283525300561,l,0.6846976480155718,10,275,1,249.86027661000844,,251.36203093500808,,,,,,,,,,,,,,,,,,,,,,,,,,,,,,,,,,,,,,,,,,,,,,,,,,,,,,,,,,,,,,,,,,,,,35177,2022-10-27_13h55.24.854,vts_reward_expectancy_bt_OFFLINE,2022.2.4,60.04948738307094,
0,0,0,1,1,0,0,0,star,triangle,1,0,1,0,0,2,2,9,,,,,,,,,,,,,,,,,,,,,,,,,,,,,,,,,,,,,,,,251.86246508199838,251.86246508199838,251.86246508199838,251.86246508199838,251.86246508199838,251.86246508199838,251.86246508199838,251.86246508199838,251.86246508199838,251.86246508199838,l,0.3085700399824418,1,276,1,252.1961970749835,,253.69803390200832,,,,,,,,,,,,,,,,,,,,,,,,,,,,,,,,,,,,,,,,,,,,,,,,,,,,,,,,,,,,,,,,,,,,,35177,2022-10-27_13h55.24.854,vts_reward_expectancy_bt_OFFLINE,2022.2.4,60.04948738307094,
0,0,1,0,0,0,0,1,hexagon,star,1,0,1,0,0,3,3,8,,,,,,,,,,,,,,,,,,,,,,,,,,,,,,,,,,,,,,,,254.19847110498813,254.19847110498813,254.19847110498813,254.19847110498813,254.19847110498813,254.19847110498813,254.19847110498813,254.19847110498813,254.19847110498813,254.19847110498813,a,0.2762775079754647,1,277,1,254.49870796498726,,256.00054022998665,,,,,,,,,,,,,,,,,,,,,,,,,,,,,,,,,,,,,,,,,,,,,,,,,,,,,,,,,,,,,,,,,,,,,35177,2022-10-27_13h55.24.854,vts_reward_expectancy_bt_OFFLINE,2022.2.4,60.04948738307094,
0,0,1,0,0,1,0,0,hexagon,circle,1,0,1,0,0,4,4,7,,,,,,,,,,,,,,,,,,,,,,,,,,,,,,,,,,,,,,,,256.50110083800973,256.50110083800973,256.50110083800973,256.50110083800973,256.50110083800973,256.50110083800973,256.50110083800973,256.50110083800973,256.50110083800973,256.50110083800973,l,0.2215339819667861,10,287,1,256.7513398579904,,258.2529562439886,,,,,,,,,,,,,,,,,,,,,,,,,,,,,,,,,,,,,,,,,,,,,,,,,,,,,,,,,,,,,,,,,,,,,35177,2022-10-27_13h55.24.854,vts_reward_expectancy_bt_OFFLINE,2022.2.4,60.04948738307094,
0,1,0,0,0,0,1,0,circle,hexagon,1,0,1,0,0,5,5,4,,,,,,,,,,,,,,,,,,,,,,,,,,,,,,,,,,,,,,,,258.753560120007,258.753560120007,258.753560120007,258.753560120007,258.753560120007,258.753560120007,258.753560120007,258.753560120007,258.753560120007,258.753560120007,a,0.2414621369971428,10,297,1,259.02065768500324,,260.52212351199705,,,,,,,,,,,,,,,,,,,,,,,,,,,,,,,,,,,,,,,,,,,,,,,,,,,,,,,,,,,,,,,,,,,,,35177,2022-10-27_13h55.24.854,vts_reward_expectancy_bt_OFFLINE,2022.2.4,60.04948738307094,
0,1,0,0,1,0,0,0,circle,triangle,1,0,1,0,0,6,6,3,,,,,,,,,,,,,,,,,,,,,,,,,,,,,,,,,,,,,,,,261.0228429469862,261.0228429469862,261.0228429469862,261.0228429469862,261.0228429469862,261.0228429469862,261.0228429469862,261.0228429469862,261.0228429469862,261.0228429469862,l,0.2512738599907607,10,307,1,261.30623760298477,,262.807982163009,,,,,,,,,,,,,,,,,,,,,,,,,,,,,,,,,,,,,,,,,,,,,,,,,,,,,,,,,,,,,,,,,,,,,35177,2022-10-27_13h55.24.854,vts_reward_expectancy_bt_OFFLINE,2022.2.4,60.04948738307094,
0,0,1,0,1,0,0,0,hexagon,triangle,1,0,1,0,0,7,7,6,,,,,,,,,,,,,,,,,,,,,,,,,,,,,,,,,,,,,,,,263.3086476479948,263.3086476479948,263.3086476479948,263.3086476479948,263.3086476479948,263.3086476479948,263.3086476479948,263.3086476479948,263.3086476479948,263.3086476479948,a,0.18374879600014538,10,317,1,263.5089178769849,265.0104136070004,265.0104136070004,,,,,,,,,,,,,,,,,,,,,,,,,,,,,,,,,,,,,,,,,,,,,,,,,,,,,,,,,,,,,,,,,,,,,35177,2022-10-27_13h55.24.854,vts_reward_expectancy_bt_OFFLINE,2022.2.4,60.04948738307094,
1,0,0,0,0,1,0,0,triangle,circle,1,0,1,0,0,8,8,0,,,,,,,,,,,,,,,,,,,,,,,,,,,,,,,,,,,,,,,,265.510958792991,265.510958792991,265.510958792991,265.510958792991,265.510958792991,265.510958792991,265.510958792991,265.510958792991,265.510958792991,265.510958792991,l,0.23603740899125114,10,327,1,265.77804682499846,,267.27966247999575,,,,,,,,,,,,,,,,,,,,,,,,,,,,,,,,,,,,,,,,,,,,,,,,,,,,,,,,,,,,,,,,,,,,,35177,2022-10-27_13h55.24.854,vts_reward_expectancy_bt_OFFLINE,2022.2.4,60.04948738307094,
1,0,0,0,0,0,1,0,triangle,hexagon,1,0,1,0,0,9,9,1,,,,,,,,,,,,,,,,,,,,,,,,,,,,,,,,,,,,,,,,267.78030435400433,267.78030435400433,267.78030435400433,267.78030435400433,267.78030435400433,267.78030435400433,267.78030435400433,267.78030435400433,267.78030435400433,267.78030435400433,a,0.2388663970050402,10,337,1,268.0471272779978,,269.54875330399955,,,,,,,,,,,,,,,,,,,,,,,,,,,,,,,,,,,,,,,,,,,,,,,,,,,,,,,,,,,,,,,,,,,,,35177,2022-10-27_13h55.24.854,vts_reward_expectancy_bt_OFFLINE,2022.2.4,60.04948738307094,
1,0,0,0,0,0,0,1,triangle,star,1,0,1,0,0,10,10,2,,,,,,,,,,,,,,,,,,,,,,,,,,,,,,,,,,,,,,,,270.0493362440029,270.0493362440029,270.0493362440029,270.0493362440029,270.0493362440029,270.0493362440029,270.0493362440029,270.0493362440029,270.0493362440029,270.0493362440029,l,0.2675473790150136,1,338,1,270.3496582999942,,271.85134027700406,,,,,,,,,,,,,,,,,,,,,,,,,,,,,,,,,,,,,,,,,,,,,,,,,,,,,,,,,,,,,,,,,,,,,35177,2022-10-27_13h55.24.854,vts_reward_expectancy_bt_OFFLINE,2022.2.4,60.04948738307094,
0,1,0,0,0,0,0,1,circle,star,1,0,1,0,0,11,11,5,,,,,,,,,,,,,,,,,,,,,,,,,,,,,,,,,,,,,,,,272.35172161398805,272.35172161398805,272.35172161398805,272.35172161398805,272.35172161398805,272.35172161398805,272.35172161398805,272.35172161398805,272.35172161398805,272.35172161398805,l,0.3009679189999588,1,339,1,272.6855542539852,,274.1872679780063,,,,,,,,,,,,,,,,,,,,,,,,,,,,,,,,,,,,,,,,,,,,,,,,,,,,,,,,,,,,,,,,,,,,,35177,2022-10-27_13h55.24.854,vts_reward_expectancy_bt_OFFLINE,2022.2.4,60.04948738307094,
0,1,0,0,1,0,0,0,circle,triangle,1,0,1,0,1,0,12,3,,,,,,,,,,,,,,,,,,,,,,,,,,,,,,,,,,,,,,,,274.68782117398223,274.68782117398223,274.68782117398223,274.68782117398223,274.68782117398223,274.68782117398223,274.68782117398223,274.68782117398223,274.68782117398223,274.68782117398223,l,0.2748792300117202,10,349,1,274.988016755,,276.48974459499004,,,,,,,,,,,,,,,,,,,,,,,,,,,,,,,,,,,,,,,,,,,,,,,,,,,,,,,,,,,,,,,,,,,,,35177,2022-10-27_13h55.24.854,vts_reward_expectancy_bt_OFFLINE,2022.2.4,60.04948738307094,
0,1,0,0,0,0,1,0,circle,hexagon,1,0,1,0,1,1,13,4,,,,,,,,,,,,,,,,,,,,,,,,,,,,,,,,,,,,,,,,276.99015624501044,276.99015624501044,276.99015624501044,276.99015624501044,276.99015624501044,276.99015624501044,276.99015624501044,276.99015624501044,276.99015624501044,276.99015624501044,l,0.29257844798848964,1,350,1,277.30731507300516,,278.80891489898204,,,,,,,,,,,,,,,,,,,,,,,,,,,,,,,,,,,,,,,,,,,,,,,,,,,,,,,,,,,,,,,,,,,,,35177,2022-10-27_13h55.24.854,vts_reward_expectancy_bt_OFFLINE,2022.2.4,60.04948738307094,
0,0,1,0,0,1,0,0,hexagon,circle,1,0,1,0,1,2,14,7,,,,,,,,,,,,,,,,,,,,,,,,,,,,,,,,,,,,,,,,279.30946235999,279.30946235999,279.30946235999,279.30946235999,279.30946235999,279.30946235999,279.30946235999,279.30946235999,279.30946235999,279.30946235999,a,0.2772336489870213,1,351,1,279.61006293300306,,281.11156152398326,,,,,,,,,,,,,,,,,,,,,,,,,,,,,,,,,,,,,,,,,,,,,,,,,,,,,,,,,,,,,,,,,,,,,35177,2022-10-27_13h55.24.854,vts_reward_expectancy_bt_OFFLINE,2022.2.4,60.04948738307094,
0,0,1,0,1,0,0,0,hexagon,triangle,1,0,1,0,1,3,15,6,,,,,,,,,,,,,,,,,,,,,,,,,,,,,,,,,,,,,,,,281.61244158499176,281.61244158499176,281.61244158499176,281.61244158499176,281.61244158499176,281.61244158499176,281.61244158499176,281.61244158499176,281.61244158499176,281.61244158499176,l,0.2460595739830751,10,361,1,281.879260029993,,283.3807889620075,,,,,,,,,,,,,,,,,,,,,,,,,,,,,,,,,,,,,,,,,,,,,,,,,,,,,,,,,,,,,,,,,,,,,35177,2022-10-27_13h55.24.854,vts_reward_expectancy_bt_OFFLINE,2022.2.4,60.04948738307094,
1,0,0,0,0,1,0,0,triangle,circle,1,0,1,0,1,4,16,0,,,,,,,,,,,,,,,,,,,,,,,,,,,,,,,,,,,,,,,,283.8813789499982,283.8813789499982,283.8813789499982,283.8813789499982,283.8813789499982,283.8813789499982,283.8813789499982,283.8813789499982,283.8813789499982,283.8813789499982,a,0.2669803159951698,1,362,1,284.1649945079989,285.666689812002,285.666689812002,,,,,,,,,,,,,,,,,,,,,,,,,,,,,,,,,,,,,,,,,,,,,,,,,,,,,,,,,,,,,,,,,,,,,35177,2022-10-27_13h55.24.854,vts_reward_expectancy_bt_OFFLINE,2022.2.4,60.04948738307094,
0,0,1,0,0,0,0,1,hexagon,star,1,0,1,0,1,5,17,8,,,,,,,,,,,,,,,,,,,,,,,,,,,,,,,,,,,,,,,,286.1671153999923,286.1671153999923,286.1671153999923,286.1671153999923,286.1671153999923,286.1671153999923,286.1671153999923,286.1671153999923,286.1671153999923,286.1671153999923,l,0.2849098540027626,1,363,1,286.48420512798475,,287.98584001199924,,,,,,,,,,,,,,,,,,,,,,,,,,,,,,,,,,,,,,,,,,,,,,,,,,,,,,,,,,,,,,,,,,,,,35177,2022-10-27_13h55.24.854,vts_reward_expectancy_bt_OFFLINE,2022.2.4,60.04948738307094,
0,0,0,1,0,0,1,0,star,hexagon,1,0,1,0,1,6,18,11,,,,,,,,,,,,,,,,,,,,,,,,,,,,,,,,,,,,,,,,288.4865991619881,288.4865991619881,288.4865991619881,288.4865991619881,288.4865991619881,288.4865991619881,288.4865991619881,288.4865991619881,288.4865991619881,288.4865991619881,l,0.33375493399216793,1,364,1,288.8368877090106,290.33842248798464,290.33842248798464,,,,,,,,,,,,,,,,,,,,,,,,,,,,,,,,,,,,,,,,,,,,,,,,,,,,,,,,,,,,,,,,,,,,,35177,2022-10-27_13h55.24.854,vts_reward_expectancy_bt_OFFLINE,2022.2.4,60.04948738307094,
1,0,0,0,0,0,1,0,triangle,hexagon,1,0,1,0,1,7,19,1,,,,,,,,,,,,,,,,,,,,,,,,,,,,,,,,,,,,,,,,290.8388919849822,290.8388919849822,290.8388919849822,290.8388919849822,290.8388919849822,290.8388919849822,290.8388919849822,290.8388919849822,290.8388919849822,290.8388919849822,l,0.34943365899380296,1,365,1,291.2061273329891,292.70766475299024,292.70766475299024,,,,,,,,,,,,,,,,,,,,,,,,,,,,,,,,,,,,,,,,,,,,,,,,,,,,,,,,,,,,,,,,,,,,,35177,2022-10-27_13h55.24.854,vts_reward_expectancy_bt_OFFLINE,2022.2.4,60.04948738307094,
0,0,0,1,1,0,0,0,star,triangle,1,0,1,0,1,8,20,9,,,,,,,,,,,,,,,,,,,,,,,,,,,,,,,,,,,,,,,,293.20821935799904,293.20821935799904,293.20821935799904,293.20821935799904,293.20821935799904,293.20821935799904,293.20821935799904,293.20821935799904,293.20821935799904,293.20821935799904,l,0.30806308100000024,1,366,1,293.5418340920005,,295.0435799479892,,,,,,,,,,,,,,,,,,,,,,,,,,,,,,,,,,,,,,,,,,,,,,,,,,,,,,,,,,,,,,,,,,,,,35177,2022-10-27_13h55.24.854,vts_reward_expectancy_bt_OFFLINE,2022.2.4,60.04948738307094,
0,1,0,0,0,0,0,1,circle,star,1,0,1,0,1,9,21,5,,,,,,,,,,,,,,,,,,,,,,,,,,,,,,,,,,,,,,,,295.5439881430066,295.5439881430066,295.5439881430066,295.5439881430066,295.5439881430066,295.5439881430066,295.5439881430066,295.5439881430066,295.5439881430066,295.5439881430066,l,0.30153627999243326,1,367,1,295.8777502469893,,297.3795553499949,,,,,,,,,,,,,,,,,,,,,,,,,,,,,,,,,,,,,,,,,,,,,,,,,,,,,,,,,,,,,,,,,,,,,35177,2022-10-27_13h55.24.854,vts_reward_expectancy_bt_OFFLINE,2022.2.4,60.04948738307094,
0,0,0,1,0,1,0,0,star ,circle,1,0,1,0,1,10,22,10,,,,,,,,,,,,,,,,,,,,,,,,,,,,,,,,,,,,,,,,297.8800111330056,297.8800111330056,297.8800111330056,297.8800111330056,297.8800111330056,297.8800111330056,297.8800111330056,297.8800111330056,297.8800111330056,297.8800111330056,a,0.4916768769908231,1,368,1,298.3971819439903,,299.8989517079899,,,,,,,,,,,,,,,,,,,,,,,,,,,,,,,,,,,,,,,,,,,,,,,,,,,,,,,,,,,,,,,,,,,,,35177,2022-10-27_13h55.24.854,vts_reward_expectancy_bt_OFFLINE,2022.2.4,60.04948738307094,
1,0,0,0,0,0,0,1,triangle,star,1,0,1,0,1,11,23,2,,,,,,,,,,,,,,,,,,,,,,,,,,,,,,,,,,,,,,,,300.39949185200385,300.39949185200385,300.39949185200385,300.39949185200385,300.39949185200385,300.39949185200385,300.39949185200385,300.39949185200385,300.39949185200385,300.39949185200385,l,0.7948581889795605,1,369,1,301.2171981380088,,302.7185600119992,,,,,,,,,,,,,,,,,,,,,,,,,,,,,,,,,,,,,,,,,,,,,,,,,,,,,,,,,,,,,,,,,,,,,35177,2022-10-27_13h55.24.854,vts_reward_expectancy_bt_OFFLINE,2022.2.4,60.04948738307094,
0,0,0,1,1,0,0,0,star,triangle,1,0,1,0,2,0,24,9,,,,,,,,,,,,,,,,,,,,,,,,,,,,,,,,,,,,,,,,303.21916466898983,303.21916466898983,303.21916466898983,303.21916466898983,303.21916466898983,303.21916466898983,303.21916466898983,303.21916466898983,303.21916466898983,303.21916466898983,a,0.21743605198571458,1,370,1,303.4696991989913,,304.9712125599908,,,,,,,,,,,,,,,,,,,,,,,,,,,,,,,,,,,,,,,,,,,,,,,,,,,,,,,,,,,,,,,,,,,,,35177,2022-10-27_13h55.24.854,vts_reward_expectancy_bt_OFFLINE,2022.2.4,60.04948738307094,
0,0,0,1,0,0,1,0,star,hexagon,1,0,1,0,2,1,25,11,,,,,,,,,,,,,,,,,,,,,,,,,,,,,,,,,,,,,,,,305.4716257780092,305.4716257780092,305.4716257780092,305.4716257780092,305.4716257780092,305.4716257780092,305.4716257780092,305.4716257780092,305.4716257780092,305.4716257780092,a,0.30127485099365003,1,371,1,305.8056146730087,,307.3071062589879,,,,,,,,,,,,,,,,,,,,,,,,,,,,,,,,,,,,,,,,,,,,,,,,,,,,,,,,,,,,,,,,,,,,,35177,2022-10-27_13h55.24.854,vts_reward_expectancy_bt_OFFLINE,2022.2.4,60.04948738307094,
0,0,1,0,1,0,0,0,hexagon,triangle,1,0,1,0,2,2,26,6,,,,,,,,,,,,,,,,,,,,,,,,,,,,,,,,,,,,,,,,307.80756004998693,307.80756004998693,307.80756004998693,307.80756004998693,307.80756004998693,307.80756004998693,307.80756004998693,307.80756004998693,307.80756004998693,307.80756004998693,l,0.20268307300284505,1,372,1,308.0411451490072,,309.5428021569969,,,,,,,,,,,,,,,,,,,,,,,,,,,,,,,,,,,,,,,,,,,,,,,,,,,,,,,,,,,,,,,,,,,,,35177,2022-10-27_13h55.24.854,vts_reward_expectancy_bt_OFFLINE,2022.2.4,60.04948738307094,
1,0,0,0,0,0,1,0,triangle,hexagon,1,0,1,0,2,3,27,1,,,,,,,,,,,,,,,,,,,,,,,,,,,,,,,,,,,,,,,,310.04360527699464,310.04360527699464,310.04360527699464,310.04360527699464,310.04360527699464,310.04360527699464,310.04360527699464,310.04360527699464,310.04360527699464,310.04360527699464,a,0.607897111971397,10,382,1,310.67753643199103,,312.17915243000607,,,,,,,,,,,,,,,,,,,,,,,,,,,,,,,,,,,,,,,,,,,,,,,,,,,,,,,,,,,,,,,,,,,,,35177,2022-10-27_13h55.24.854,vts_reward_expectancy_bt_OFFLINE,2022.2.4,60.04948738307094,
1,0,0,0,0,0,0,1,triangle,star,1,0,1,0,2,4,28,2,,,,,,,,,,,,,,,,,,,,,,,,,,,,,,,,,,,,,,,,312.6799397349823,312.6799397349823,312.6799397349823,312.6799397349823,312.6799397349823,312.6799397349823,312.6799397349823,312.6799397349823,312.6799397349823,312.6799397349823,a,0.34003951199701987,10,392,1,313.04656259701005,,314.54814019499463,,,,,,,,,,,,,,,,,,,,,,,,,,,,,,,,,,,,,,,,,,,,,,,,,,,,,,,,,,,,,,,,,,,,,35177,2022-10-27_13h55.24.854,vts_reward_expectancy_bt_OFFLINE,2022.2.4,60.04948738307094,
0,1,0,0,0,0,1,0,circle,hexagon,1,0,1,0,2,5,29,4,,,,,,,,,,,,,,,,,,,,,,,,,,,,,,,,,,,,,,,,315.048829278996,315.048829278996,315.048829278996,315.048829278996,315.048829278996,315.048829278996,315.048829278996,315.048829278996,315.048829278996,315.048829278996,a,0.2994963649834972,1,393,1,315.36585737299174,,316.8675107040035,,,,,,,,,,,,,,,,,,,,,,,,,,,,,,,,,,,,,,,,,,,,,,,,,,,,,,,,,,,,,,,,,,,,,35177,2022-10-27_13h55.24.854,vts_reward_expectancy_bt_OFFLINE,2022.2.4,60.04948738307094,
1,0,0,0,0,1,0,0,triangle,circle,1,0,1,0,2,6,30,0,,,,,,,,,,,,,,,,,,,,,,,,,,,,,,,,,,,,,,,,317.36820123999496,317.36820123999496,317.36820123999496,317.36820123999496,317.36820123999496,317.36820123999496,317.36820123999496,317.36820123999496,317.36820123999496,317.36820123999496,l,0.5548843219876289,10,403,1,317.9520036079921,,319.4538089240086,,,,,,,,,,,,,,,,,,,,,,,,,,,,,,,,,,,,,,,,,,,,,,,,,,,,,,,,,,,,,,,,,,,,,35177,2022-10-27_13h55.24.854,vts_reward_expectancy_bt_OFFLINE,2022.2.4,60.04948738307094,
0,0,1,0,0,0,0,1,hexagon,star,1,0,1,0,2,7,31,8,,,,,,,,,,,,,,,,,,,,,,,,,,,,,,,,,,,,,,,,319.9542288570083,319.9542288570083,319.9542288570083,319.9542288570083,319.9542288570083,319.9542288570083,319.9542288570083,319.9542288570083,319.9542288570083,319.9542288570083,a,0.37633405000087805,1,404,1,320.35474325800897,,321.85650368899223,,,,,,,,,,,,,,,,,,,,,,,,,,,,,,,,,,,,,,,,,,,,,,,,,,,,,,,,,,,,,,,,,,,,,35177,2022-10-27_13h55.24.854,vts_reward_expectancy_bt_OFFLINE,2022.2.4,60.04948738307094,
0,0,1,0,0,1,0,0,hexagon,circle,1,0,1,0,2,8,32,7,,,,,,,,,,,,,,,,,,,,,,,,,,,,,,,,,,,,,,,,322.3569991090044,322.3569991090044,322.3569991090044,322.3569991090044,322.3569991090044,322.3569991090044,322.3569991090044,322.3569991090044,322.3569991090044,322.3569991090044,l,0.2941402369760908,10,414,1,322.6741740379948,,324.1757972089981,,,,,,,,,,,,,,,,,,,,,,,,,,,,,,,,,,,,,,,,,,,,,,,,,,,,,,,,,,,,,,,,,,,,,35177,2022-10-27_13h55.24.854,vts_reward_expectancy_bt_OFFLINE,2022.2.4,60.04948738307094,
0,1,0,0,0,0,0,1,circle,star,1,0,1,0,2,9,33,5,,,,,,,,,,,,,,,,,,,,,,,,,,,,,,,,,,,,,,,,324.6762110290001,324.6762110290001,324.6762110290001,324.6762110290001,324.6762110290001,324.6762110290001,324.6762110290001,324.6762110290001,324.6762110290001,324.6762110290001,l,0.518162480002502,1,415,1,325.2270570929977,,326.72856765499455,,,,,,,,,,,,,,,,,,,,,,,,,,,,,,,,,,,,,,,,,,,,,,,,,,,,,,,,,,,,,,,,,,,,,35177,2022-10-27_13h55.24.854,vts_reward_expectancy_bt_OFFLINE,2022.2.4,60.04948738307094,
0,1,0,0,1,0,0,0,circle,triangle,1,0,1,0,2,10,34,3,,,,,,,,,,,,,,,,,,,,,,,,,,,,,,,,,,,,,,,,327.22913254998275,327.22913254998275,327.22913254998275,327.22913254998275,327.22913254998275,327.22913254998275,327.22913254998275,327.22913254998275,327.22913254998275,327.22913254998275,a,0.4457412709889468,10,425,1,327.6962724089972,,329.197812133003,,,,,,,,,,,,,,,,,,,,,,,,,,,,,,,,,,,,,,,,,,,,,,,,,,,,,,,,,,,,,,,,,,,,,35177,2022-10-27_13h55.24.854,vts_reward_expectancy_bt_OFFLINE,2022.2.4,60.04948738307094,
0,0,0,1,0,1,0,0,star ,circle,1,0,1,0,2,11,35,10,,,,,,,,,,,,,,,,,,,,,,,,,,,,,,,,,,,,,,,,329.6984938099922,329.6984938099922,329.6984938099922,329.6984938099922,329.6984938099922,329.6984938099922,329.6984938099922,329.6984938099922,329.6984938099922,329.6984938099922,a,0.38485642499290407,10,435,1,330.11575775398524,,331.61716248400626,,,,,,,,,,,,,,,,,,,,,,,,,,,,,,,,,,,,,,,,,,,,,,,,,,,,,,,,,,,,,,,,,,,,,35177,2022-10-27_13h55.24.854,vts_reward_expectancy_bt_OFFLINE,2022.2.4,60.04948738307094,
0,0,0,1,0,0,1,0,star,hexagon,1,0,1,0,3,0,36,11,,,,,,,,,,,,,,,,,,,,,,,,,,,,,,,,,,,,,,,,332.11793920898344,332.11793920898344,332.11793920898344,332.11793920898344,332.11793920898344,332.11793920898344,332.11793920898344,332.11793920898344,332.11793920898344,332.11793920898344,a,0.5819844820071012,1,436,1,332.71825857198564,,334.21992712499923,,,,,,,,,,,,,,,,,,,,,,,,,,,,,,,,,,,,,,,,,,,,,,,,,,,,,,,,,,,,,,,,,,,,,35177,2022-10-27_13h55.24.854,vts_reward_expectancy_bt_OFFLINE,2022.2.4,60.04948738307094,
1,0,0,0,0,0,1,0,triangle,hexagon,1,0,1,0,3,1,37,1,,,,,,,,,,,,,,,,,,,,,,,,,,,,,,,,,,,,,,,,334.7208057399839,334.7208057399839,334.7208057399839,334.7208057399839,334.7208057399839,334.7208057399839,334.7208057399839,334.7208057399839,334.7208057399839,334.7208057399839,a,0.5698361440154258,10,446,1,335.3213558069838,,336.82288481498836,,,,,,,,,,,,,,,,,,,,,,,,,,,,,,,,,,,,,,,,,,,,,,,,,,,,,,,,,,,,,,,,,,,,,35177,2022-10-27_13h55.24.854,vts_reward_expectancy_bt_OFFLINE,2022.2.4,60.04948738307094,
0,1,0,0,1,0,0,0,circle,triangle,1,0,1,0,3,2,38,3,,,,,,,,,,,,,,,,,,,,,,,,,,,,,,,,,,,,,,,,337.3233770180086,337.3233770180086,337.3233770180086,337.3233770180086,337.3233770180086,337.3233770180086,337.3233770180086,337.3233770180086,337.3233770180086,337.3233770180086,l,0.6173468159977347,10,456,1,337.9576420649828,,339.45911708299536,,,,,,,,,,,,,,,,,,,,,,,,,,,,,,,,,,,,,,,,,,,,,,,,,,,,,,,,,,,,,,,,,,,,,35177,2022-10-27_13h55.24.854,vts_reward_expectancy_bt_OFFLINE,2022.2.4,60.04948738307094,
0,0,0,1,0,1,0,0,star ,circle,1,0,1,0,3,3,39,10,,,,,,,,,,,,,,,,,,,,,,,,,,,,,,,,,,,,,,,,339.9596453740087,339.9596453740087,339.9596453740087,339.9596453740087,339.9596453740087,339.9596453740087,339.9596453740087,339.9596453740087,339.9596453740087,339.9596453740087,l,0.7245784350088798,10,466,1,340.7106236499967,,342.2123264230031,,,,,,,,,,,,,,,,,,,,,,,,,,,,,,,,,,,,,,,,,,,,,,,,,,,,,,,,,,,,,,,,,,,,,35177,2022-10-27_13h55.24.854,vts_reward_expectancy_bt_OFFLINE,2022.2.4,60.04948738307094,
1,0,0,0,0,1,0,0,triangle,circle,1,0,1,0,3,4,40,0,,,,,,,,,,,,,,,,,,,,,,,,,,,,,,,,,,,,,,,,342.71276663898607,342.71276663898607,342.71276663898607,342.71276663898607,342.71276663898607,342.71276663898607,342.71276663898607,342.71276663898607,342.71276663898607,342.71276663898607,l,0.33003562601516023,1,467,1,343.0631357569946,,344.5648415820033,,,,,,,,,,,,,,,,,,,,,,,,,,,,,,,,,,,,,,,,,,,,,,,,,,,,,,,,,,,,,,,,,,,,,35177,2022-10-27_13h55.24.854,vts_reward_expectancy_bt_OFFLINE,2022.2.4,60.04948738307094,
0,0,1,0,0,1,0,0,hexagon,circle,1,0,1,0,3,5,41,7,,,,,,,,,,,,,,,,,,,,,,,,,,,,,,,,,,,,,,,,345.06539235200034,345.06539235200034,345.06539235200034,345.06539235200034,345.06539235200034,345.06539235200034,345.06539235200034,345.06539235200034,345.06539235200034,345.06539235200034,a,0.2505666789948009,1,468,1,345.33249775800505,346.83397112000966,346.83397112000966,,,,,,,,,,,,,,,,,,,,,,,,,,,,,,,,,,,,,,,,,,,,,,,,,,,,,,,,,,,,,,,,,,,,,35177,2022-10-27_13h55.24.854,vts_reward_expectancy_bt_OFFLINE,2022.2.4,60.04948738307094,
0,1,0,0,0,0,0,1,circle,star,1,0,1,0,3,6,42,5,,,,,,,,,,,,,,,,,,,,,,,,,,,,,,,,,,,,,,,,347.33455310499994,347.33455310499994,347.33455310499994,347.33455310499994,347.33455310499994,347.33455310499994,347.33455310499994,347.33455310499994,347.33455310499994,347.33455310499994,l,0.4042851400154177,1,469,1,347.7685316319985,,349.2701263369818,,,,,,,,,,,,,,,,,,,,,,,,,,,,,,,,,,,,,,,,,,,,,,,,,,,,,,,,,,,,,,,,,,,,,35177,2022-10-27_13h55.24.854,vts_reward_expectancy_bt_OFFLINE,2022.2.4,60.04948738307094,
0,1,0,0,0,0,1,0,circle,hexagon,1,0,1,0,3,7,43,4,,,,,,,,,,,,,,,,,,,,,,,,,,,,,,,,,,,,,,,,349.7705246770056,349.7705246770056,349.7705246770056,349.7705246770056,349.7705246770056,349.7705246770056,349.7705246770056,349.7705246770056,349.7705246770056,349.7705246770056,l,0.368129232985666,1,470,1,350.1712164519995,,351.67291559200385,,,,,,,,,,,,,,,,,,,,,,,,,,,,,,,,,,,,,,,,,,,,,,,,,,,,,,,,,,,,,,,,,,,,,35177,2022-10-27_13h55.24.854,vts_reward_expectancy_bt_OFFLINE,2022.2.4,60.04948738307094,
0,0,1,0,0,0,0,1,hexagon,star,1,0,1,0,3,8,44,8,,,,,,,,,,,,,,,,,,,,,,,,,,,,,,,,,,,,,,,,352.1733767029946,352.1733767029946,352.1733767029946,352.1733767029946,352.1733767029946,352.1733767029946,352.1733767029946,352.1733767029946,352.1733767029946,352.1733767029946,a,0.30992533700191416,1,471,1,352.5069910750026,,354.0086823029851,,,,,,,,,,,,,,,,,,,,,,,,,,,,,,,,,,,,,,,,,,,,,,,,,,,,,,,,,,,,,,,,,,,,,35177,2022-10-27_13h55.24.854,vts_reward_expectancy_bt_OFFLINE,2022.2.4,60.04948738307094,
0,0,1,0,1,0,0,0,hexagon,triangle,1,0,1,0,3,9,45,6,,,,,,,,,,,,,,,,,,,,,,,,,,,,,,,,,,,,,,,,354.50909192700055,354.50909192700055,354.50909192700055,354.50909192700055,354.50909192700055,354.50909192700055,354.50909192700055,354.50909192700055,354.50909192700055,354.50909192700055,l,0.23748764497577213,10,481,1,354.77644182299264,,356.2777689989889,,,,,,,,,,,,,,,,,,,,,,,,,,,,,,,,,,,,,,,,,,,,,,,,,,,,,,,,,,,,,,,,,,,,,35177,2022-10-27_13h55.24.854,vts_reward_expectancy_bt_OFFLINE,2022.2.4,60.04948738307094,
1,0,0,0,0,0,0,1,triangle,star,1,0,1,0,3,10,46,2,,,,,,,,,,,,,,,,,,,,,,,,,,,,,,,,,,,,,,,,356.77836543499143,356.77836543499143,356.77836543499143,356.77836543499143,356.77836543499143,356.77836543499143,356.77836543499143,356.77836543499143,356.77836543499143,356.77836543499143,a,0.31182115798583254,10,491,1,357.1121569570096,,358.61369922501035,,,,,,,,,,,,,,,,,,,,,,,,,,,,,,,,,,,,,,,,,,,,,,,,,,,,,,,,,,,,,,,,,,,,,35177,2022-10-27_13h55.24.854,vts_reward_expectancy_bt_OFFLINE,2022.2.4,60.04948738307094,
0,0,0,1,1,0,0,0,star,triangle,1,0,1,0,3,11,47,9,,,,,,,,,,,,,,,,,,,,,,,,,,,,,,,,,,,,,,,,359.1142000980035,359.1142000980035,359.1142000980035,359.1142000980035,359.1142000980035,359.1142000980035,359.1142000980035,359.1142000980035,359.1142000980035,359.1142000980035,l,0.6253146319941152,10,501,1,359.76491028498276,,361.2667009389843,,,,,,,,,,,,,,,,,,,,,,,,,,,,,,,,,,,,,,,,,,,,,,,,,,,,,,,,,,,,,,,,,,,,,35177,2022-10-27_13h55.24.854,vts_reward_expectancy_bt_OFFLINE,2022.2.4,60.04948738307094,
1,0,0,0,0,0,1,0,triangle,hexagon,2,0,2,0,0,0,0,1,,,,,,,,,,,,,,,,,,,,,,,,,,,,,,,,,,,,,,,,385.2263298690086,385.2263298690086,385.2263298690086,385.2263298690086,385.2263298690086,385.2263298690086,385.2263298690086,385.2263298690086,385.2263298690086,385.2263298690086,l,1.4964191649924032,1,502,2,386.74466079700505,,388.24641737298225,,,,,,,,,,,,,,,,,,,,,,,,,,,,,,,,,,,,,,,,,,,,,,,,,,,,,,,,,,,,,,,,,,,,,35177,2022-10-27_13h55.24.854,vts_reward_expectancy_bt_OFFLINE,2022.2.4,60.04948738307094,
0,0,0,1,1,0,0,0,star,triangle,2,0,2,0,0,1,1,9,,,,,,,,,,,,,,,,,,,,,,,,,,,,,,,,,,,,,,,,388.74702530898503,388.74702530898503,388.74702530898503,388.74702530898503,388.74702530898503,388.74702530898503,388.74702530898503,388.74702530898503,388.74702530898503,388.74702530898503,a,0.2645052720035892,1,503,2,389.0304943480005,,390.53226835199166,,,,,,,,,,,,,,,,,,,,,,,,,,,,,,,,,,,,,,,,,,,,,,,,,,,,,,,,,,,,,,,,,,,,,35177,2022-10-27_13h55.24.854,vts_reward_expectancy_bt_OFFLINE,2022.2.4,60.04948738307094,
0,0,0,1,0,1,0,0,star ,circle,2,0,2,0,0,2,2,10,,,,,,,,,,,,,,,,,,,,,,,,,,,,,,,,,,,,,,,,391.03268919399125,391.03268919399125,391.03268919399125,391.03268919399125,391.03268919399125,391.03268919399125,391.03268919399125,391.03268919399125,391.03268919399125,391.03268919399125,l,0.6680760830058716,1,504,2,391.73345842800336,,393.2351595379878,,,,,,,,,,,,,,,,,,,,,,,,,,,,,,,,,,,,,,,,,,,,,,,,,,,,,,,,,,,,,,,,,,,,,35177,2022-10-27_13h55.24.854,vts_reward_expectancy_bt_OFFLINE,2022.2.4,60.04948738307094,
1,0,0,0,0,0,0,1,triangle,star,2,0,2,0,0,3,3,2,,,,,,,,,,,,,,,,,,,,,,,,,,,,,,,,,,,,,,,,393.7358990290086,393.7358990290086,393.7358990290086,393.7358990290086,393.7358990290086,393.7358990290086,393.7358990290086,393.7358990290086,393.7358990290086,393.7358990290086,l,0.27559088499401696,1,505,2,394.03616578300716,,395.5378666589968,,,,,,,,,,,,,,,,,,,,,,,,,,,,,,,,,,,,,,,,,,,,,,,,,,,,,,,,,,,,,,,,,,,,,35177,2022-10-27_13h55.24.854,vts_reward_expectancy_bt_OFFLINE,2022.2.4,60.04948738307094,
0,1,0,0,0,0,1,0,circle,hexagon,2,0,2,0,0,4,4,4,,,,,,,,,,,,,,,,,,,,,,,,,,,,,,,,,,,,,,,,396.0383155239979,396.0383155239979,396.0383155239979,396.0383155239979,396.0383155239979,396.0383155239979,396.0383155239979,396.0383155239979,396.0383155239979,396.0383155239979,l,0.18892517499625683,10,515,2,396.2552545100043,,397.75680538700544,,,,,,,,,,,,,,,,,,,,,,,,,,,,,,,,,,,,,,,,,,,,,,,,,,,,,,,,,,,,,,,,,,,,,35177,2022-10-27_13h55.24.854,vts_reward_expectancy_bt_OFFLINE,2022.2.4,60.04948738307094,
1,0,0,0,0,1,0,0,triangle,circle,2,0,2,0,0,5,5,0,,,,,,,,,,,,,,,,,,,,,,,,,,,,,,,,,,,,,,,,398.2576064640016,398.2576064640016,398.2576064640016,398.2576064640016,398.2576064640016,398.2576064640016,398.2576064640016,398.2576064640016,398.2576064640016,398.2576064640016,a,0.4180363909981679,10,525,2,398.70819422698696,,400.20971115800785,,,,,,,,,,,,,,,,,,,,,,,,,,,,,,,,,,,,,,,,,,,,,,,,,,,,,,,,,,,,,,,,,,,,,35177,2022-10-27_13h55.24.854,vts_reward_expectancy_bt_OFFLINE,2022.2.4,60.04948738307094,
0,0,1,0,0,0,0,1,hexagon,star,2,0,2,0,0,6,6,8,,,,,,,,,,,,,,,,,,,,,,,,,,,,,,,,,,,,,,,,400.7102185130061,400.7102185130061,400.7102185130061,400.7102185130061,400.7102185130061,400.7102185130061,400.7102185130061,400.7102185130061,400.7102185130061,400.7102185130061,l,0.30791506299283355,1,526,2,401.0438392829965,,402.5455691519892,,,,,,,,,,,,,,,,,,,,,,,,,,,,,,,,,,,,,,,,,,,,,,,,,,,,,,,,,,,,,,,,,,,,,35177,2022-10-27_13h55.24.854,vts_reward_expectancy_bt_OFFLINE,2022.2.4,60.04948738307094,
0,1,0,0,1,0,0,0,circle,triangle,2,0,2,0,0,7,7,3,,,,,,,,,,,,,,,,,,,,,,,,,,,,,,,,,,,,,,,,403.0459695140016,403.0459695140016,403.0459695140016,403.0459695140016,403.0459695140016,403.0459695140016,403.0459695140016,403.0459695140016,403.0459695140016,403.0459695140016,a,0.2612002979731187,10,536,2,403.32954159998917,,404.83120276700356,,,,,,,,,,,,,,,,,,,,,,,,,,,,,,,,,,,,,,,,,,,,,,,,,,,,,,,,,,,,,,,,,,,,,35177,2022-10-27_13h55.24.854,vts_reward_expectancy_bt_OFFLINE,2022.2.4,60.04948738307094,
0,1,0,0,0,0,0,1,circle,star,2,0,2,0,0,8,8,5,,,,,,,,,,,,,,,,,,,,,,,,,,,,,,,,,,,,,,,,405.33192083300673,405.33192083300673,405.33192083300673,405.33192083300673,405.33192083300673,405.33192083300673,405.33192083300673,405.33192083300673,405.33192083300673,405.33192083300673,l,0.3266483629704453,1,537,2,405.682069692004,,407.1841043699824,,,,,,,,,,,,,,,,,,,,,,,,,,,,,,,,,,,,,,,,,,,,,,,,,,,,,,,,,,,,,,,,,,,,,35177,2022-10-27_13h55.24.854,vts_reward_expectancy_bt_OFFLINE,2022.2.4,60.04948738307094,
0,0,0,1,0,0,1,0,star,hexagon,2,0,2,0,0,9,9,11,,,,,,,,,,,,,,,,,,,,,,,,,,,,,,,,,,,,,,,,407.6846306739899,407.6846306739899,407.6846306739899,407.6846306739899,407.6846306739899,407.6846306739899,407.6846306739899,407.6846306739899,407.6846306739899,407.6846306739899,l,0.3744171349972021,1,538,2,408.0849137149926,409.5866709749971,409.5866709749971,,,,,,,,,,,,,,,,,,,,,,,,,,,,,,,,,,,,,,,,,,,,,,,,,,,,,,,,,,,,,,,,,,,,,35177,2022-10-27_13h55.24.854,vts_reward_expectancy_bt_OFFLINE,2022.2.4,60.04948738307094,
0,0,1,0,0,1,0,0,hexagon,circle,2,0,2,0,0,10,10,7,,,,,,,,,,,,,,,,,,,,,,,,,,,,,,,,,,,,,,,,410.08743839900126,410.08743839900126,410.08743839900126,410.08743839900126,410.08743839900126,410.08743839900126,410.08743839900126,410.08743839900126,410.08743839900126,410.08743839900126,a,0.2909263350011315,1,539,2,410.40409771498526,,411.90585350900074,,,,,,,,,,,,,,,,,,,,,,,,,,,,,,,,,,,,,,,,,,,,,,,,,,,,,,,,,,,,,,,,,,,,,35177,2022-10-27_13h55.24.854,vts_reward_expectancy_bt_OFFLINE,2022.2.4,60.04948738307094,
0,0,1,0,1,0,0,0,hexagon,triangle,2,0,2,0,0,11,11,6,,,,,,,,,,,,,,,,,,,,,,,,,,,,,,,,,,,,,,,,412.40645137199317,412.40645137199317,412.40645137199317,412.40645137199317,412.40645137199317,412.40645137199317,412.40645137199317,412.40645137199317,412.40645137199317,412.40645137199317,l,0.636105133977253,10,549,2,413.0737132729846,,414.5753388449957,,,,,,,,,,,,,,,,,,,,,,,,,,,,,,,,,,,,,,,,,,,,,,,,,,,,,,,,,,,,,,,,,,,,,35177,2022-10-27_13h55.24.854,vts_reward_expectancy_bt_OFFLINE,2022.2.4,60.04948738307094,
0,1,0,0,0,0,0,1,circle,star,2,0,2,0,1,0,12,5,,,,,,,,,,,,,,,,,,,,,,,,,,,,,,,,,,,,,,,,415.0759429500031,415.0759429500031,415.0759429500031,415.0759429500031,415.0759429500031,415.0759429500031,415.0759429500031,415.0759429500031,415.0759429500031,415.0759429500031,a,0.27863884798716754,10,559,2,415.37633652900695,,416.8781249689928,,,,,,,,,,,,,,,,,,,,,,,,,,,,,,,,,,,,,,,,,,,,,,,,,,,,,,,,,,,,,,,,,,,,,35177,2022-10-27_13h55.24.854,vts_reward_expectancy_bt_OFFLINE,2022.2.4,60.04948738307094,
0,0,0,1,0,1,0,0,star ,circle,2,0,2,0,1,1,13,10,,,,,,,,,,,,,,,,,,,,,,,,,,,,,,,,,,,,,,,,417.3785024980025,417.3785024980025,417.3785024980025,417.3785024980025,417.3785024980025,417.3785024980025,417.3785024980025,417.3785024980025,417.3785024980025,417.3785024980025,l,0.24111733600148,1,560,2,417.64563671298674,,419.1471440870082,,,,,,,,,,,,,,,,,,,,,,,,,,,,,,,,,,,,,,,,,,,,,,,,,,,,,,,,,,,,,,,,,,,,,35177,2022-10-27_13h55.24.854,vts_reward_expectancy_bt_OFFLINE,2022.2.4,60.04948738307094,
1,0,0,0,0,0,0,1,triangle,star,2,0,2,0,1,2,14,2,,,,,,,,,,,,,,,,,,,,,,,,,,,,,,,,,,,,,,,,419.64775352500146,419.64775352500146,419.64775352500146,419.64775352500146,419.64775352500146,419.64775352500146,419.64775352500146,419.64775352500146,419.64775352500146,419.64775352500146,a,0.2276213789882604,10,570,2,419.89812890498433,,421.3997740680061,,,,,,,,,,,,,,,,,,,,,,,,,,,,,,,,,,,,,,,,,,,,,,,,,,,,,,,,,,,,,,,,,,,,,35177,2022-10-27_13h55.24.854,vts_reward_expectancy_bt_OFFLINE,2022.2.4,60.04948738307094,
0,0,1,0,0,0,0,1,hexagon,star,2,0,2,0,1,3,15,8,,,,,,,,,,,,,,,,,,,,,,,,,,,,,,,,,,,,,,,,421.90034480698523,421.90034480698523,421.90034480698523,421.90034480698523,421.90034480698523,421.90034480698523,421.90034480698523,421.90034480698523,421.90034480698523,421.90034480698523,l,0.5843295130180195,1,571,2,422.51765278200037,,424.01917873500497,,,,,,,,,,,,,,,,,,,,,,,,,,,,,,,,,,,,,,,,,,,,,,,,,,,,,,,,,,,,,,,,,,,,,35177,2022-10-27_13h55.24.854,vts_reward_expectancy_bt_OFFLINE,2022.2.4,60.04948738307094,
0,0,0,1,1,0,0,0,star,triangle,2,0,2,0,1,4,16,9,,,,,,,,,,,,,,,,,,,,,,,,,,,,,,,,,,,,,,,,424.51978943898575,424.51978943898575,424.51978943898575,424.51978943898575,424.51978943898575,424.51978943898575,424.51978943898575,424.51978943898575,424.51978943898575,424.51978943898575,l,0.2345254239917267,1,572,2,424.78667362898705,,426.2884267339832,,,,,,,,,,,,,,,,,,,,,,,,,,,,,,,,,,,,,,,,,,,,,,,,,,,,,,,,,,,,,,,,,,,,,35177,2022-10-27_13h55.24.854,vts_reward_expectancy_bt_OFFLINE,2022.2.4,60.04948738307094,
1,0,0,0,0,1,0,0,triangle,circle,2,0,2,0,1,5,17,0,,,,,,,,,,,,,,,,,,,,,,,,,,,,,,,,,,,,,,,,426.7891519879922,426.7891519879922,426.7891519879922,426.7891519879922,426.7891519879922,426.7891519879922,426.7891519879922,426.7891519879922,426.7891519879922,426.7891519879922,l,0.22188225298305042,1,573,2,427.0390302579908,,428.5408699219988,,,,,,,,,,,,,,,,,,,,,,,,,,,,,,,,,,,,,,,,,,,,,,,,,,,,,,,,,,,,,,,,,,,,,35177,2022-10-27_13h55.24.854,vts_reward_expectancy_bt_OFFLINE,2022.2.4,60.04948738307094,
0,1,0,0,0,0,1,0,circle,hexagon,2,0,2,0,1,6,18,4,,,,,,,,,,,,,,,,,,,,,,,,,,,,,,,,,,,,,,,,429.04112238198286,429.04112238198286,429.04112238198286,429.04112238198286,429.04112238198286,429.04112238198286,429.04112238198286,429.04112238198286,429.04112238198286,429.04112238198286,a,0.2347219669900369,1,574,2,429.3081425350101,,430.8100596400036,,,,,,,,,,,,,,,,,,,,,,,,,,,,,,,,,,,,,,,,,,,,,,,,,,,,,,,,,,,,,,,,,,,,,35177,2022-10-27_13h55.24.854,vts_reward_expectancy_bt_OFFLINE,2022.2.4,60.04948738307094,
0,1,0,0,1,0,0,0,circle,triangle,2,0,2,0,1,7,19,3,,,,,,,,,,,,,,,,,,,,,,,,,,,,,,,,,,,,,,,,431.3103548490035,431.3103548490035,431.3103548490035,431.3103548490035,431.3103548490035,431.3103548490035,431.3103548490035,431.3103548490035,431.3103548490035,431.3103548490035,a,0.21248376497533172,10,584,2,431.5439581479877,,433.0458652499947,,,,,,,,,,,,,,,,,,,,,,,,,,,,,,,,,,,,,,,,,,,,,,,,,,,,,,,,,,,,,,,,,,,,,35177,2022-10-27_13h55.24.854,vts_reward_expectancy_bt_OFFLINE,2022.2.4,60.04948738307094,
0,0,0,1,0,0,1,0,star,hexagon,2,0,2,0,1,8,20,11,,,,,,,,,,,,,,,,,,,,,,,,,,,,,,,,,,,,,,,,433.5461650239886,433.5461650239886,433.5461650239886,433.5461650239886,433.5461650239886,433.5461650239886,433.5461650239886,433.5461650239886,433.5461650239886,433.5461650239886,l,0.23396971198963,1,585,2,433.7969215869962,435.2981776020024,435.2981776020024,,,,,,,,,,,,,,,,,,,,,,,,,,,,,,,,,,,,,,,,,,,,,,,,,,,,,,,,,,,,,,,,,,,,,35177,2022-10-27_13h55.24.854,vts_reward_expectancy_bt_OFFLINE,2022.2.4,60.04948738307094,
1,0,0,0,0,0,1,0,triangle,hexagon,2,0,2,0,1,9,21,1,,,,,,,,,,,,,,,,,,,,,,,,,,,,,,,,,,,,,,,,435.79882117398665,435.79882117398665,435.79882117398665,435.79882117398665,435.79882117398665,435.79882117398665,435.79882117398665,435.79882117398665,435.79882117398665,435.79882117398665,a,0.5872595329710748,10,595,2,436.41629258400644,,437.91780252498575,,,,,,,,,,,,,,,,,,,,,,,,,,,,,,,,,,,,,,,,,,,,,,,,,,,,,,,,,,,,,,,,,,,,,35177,2022-10-27_13h55.24.854,vts_reward_expectancy_bt_OFFLINE,2022.2.4,60.04948738307094,
0,0,1,0,1,0,0,0,hexagon,triangle,2,0,2,0,1,10,22,6,,,,,,,,,,,,,,,,,,,,,,,,,,,,,,,,,,,,,,,,438.4185225550027,438.4185225550027,438.4185225550027,438.4185225550027,438.4185225550027,438.4185225550027,438.4185225550027,438.4185225550027,438.4185225550027,438.4185225550027,l,0.7124871219857596,10,605,2,439.15250510399346,,440.65410675900057,,,,,,,,,,,,,,,,,,,,,,,,,,,,,,,,,,,,,,,,,,,,,,,,,,,,,,,,,,,,,,,,,,,,,35177,2022-10-27_13h55.24.854,vts_reward_expectancy_bt_OFFLINE,2022.2.4,60.04948738307094,
0,0,1,0,0,1,0,0,hexagon,circle,2,0,2,0,1,11,23,7,,,,,,,,,,,,,,,,,,,,,,,,,,,,,,,,,,,,,,,,441.15480151301017,441.15480151301017,441.15480151301017,441.15480151301017,441.15480151301017,441.15480151301017,441.15480151301017,441.15480151301017,441.15480151301017,441.15480151301017,a,0.2646140249853488,1,606,2,441.43828818699694,,442.94019204500364,,,,,,,,,,,,,,,,,,,,,,,,,,,,,,,,,,,,,,,,,,,,,,,,,,,,,,,,,,,,,,,,,,,,,35177,2022-10-27_13h55.24.854,vts_reward_expectancy_bt_OFFLINE,2022.2.4,60.04948738307094,
0,0,0,1,0,1,0,0,star ,circle,2,0,2,0,2,0,24,10,,,,,,,,,,,,,,,,,,,,,,,,,,,,,,,,,,,,,,,,443.44053028398775,443.44053028398775,443.44053028398775,443.44053028398775,443.44053028398775,443.44053028398775,443.44053028398775,443.44053028398775,443.44053028398775,443.44053028398775,l,0.05077161398367025,10,616,2,443.52414735400816,,445.0256376339821,,,,,,,,,,,,,,,,,,,,,,,,,,,,,,,,,,,,,,,,,,,,,,,,,,,,,,,,,,,,,,,,,,,,,35177,2022-10-27_13h55.24.854,vts_reward_expectancy_bt_OFFLINE,2022.2.4,60.04948738307094,
1,0,0,0,0,0,0,1,triangle,star,2,0,2,0,2,1,25,2,,,,,,,,,,,,,,,,,,,,,,,,,,,,,,,,,,,,,,,,445.526312003989,445.526312003989,445.526312003989,445.526312003989,445.526312003989,445.526312003989,445.526312003989,445.526312003989,445.526312003989,445.526312003989,l,0.6439208569936454,1,617,2,446.19385285000317,,447.6951306219853,,,,,,,,,,,,,,,,,,,,,,,,,,,,,,,,,,,,,,,,,,,,,,,,,,,,,,,,,,,,,,,,,,,,,35177,2022-10-27_13h55.24.854,vts_reward_expectancy_bt_OFFLINE,2022.2.4,60.04948738307094,
1,0,0,0,0,1,0,0,triangle,circle,2,0,2,0,2,2,26,0,,,,,,,,,,,,,,,,,,,,,,,,,,,,,,,,,,,,,,,,448.19582936898223,448.19582936898223,448.19582936898223,448.19582936898223,448.19582936898223,448.19582936898223,448.19582936898223,448.19582936898223,448.19582936898223,448.19582936898223,a,0.05433326298953034,10,627,2,448.27932296699146,,449.78062448400306,,,,,,,,,,,,,,,,,,,,,,,,,,,,,,,,,,,,,,,,,,,,,,,,,,,,,,,,,,,,,,,,,,,,,35177,2022-10-27_13h55.24.854,vts_reward_expectancy_bt_OFFLINE,2022.2.4,60.04948738307094,
0,0,1,0,0,1,0,0,hexagon,circle,2,0,2,0,2,3,27,7,,,,,,,,,,,,,,,,,,,,,,,,,,,,,,,,,,,,,,,,450.28147030898253,450.28147030898253,450.28147030898253,450.28147030898253,450.28147030898253,450.28147030898253,450.28147030898253,450.28147030898253,450.28147030898253,450.28147030898253,a,0.3777115079865325,1,628,2,450.68229202198563,,452.1832462500024,,,,,,,,,,,,,,,,,,,,,,,,,,,,,,,,,,,,,,,,,,,,,,,,,,,,,,,,,,,,,,,,,,,,,35177,2022-10-27_13h55.24.854,vts_reward_expectancy_bt_OFFLINE,2022.2.4,60.04948738307094,
0,0,1,0,1,0,0,0,hexagon,triangle,2,0,2,0,2,4,28,6,,,,,,,,,,,,,,,,,,,,,,,,,,,,,,,,,,,,,,,,452.68402504900587,452.68402504900587,452.68402504900587,452.68402504900587,452.68402504900587,452.68402504900587,452.68402504900587,452.68402504900587,452.68402504900587,452.68402504900587,l,0.3348495249811094,10,638,2,453.0511282939988,454.55267532300786,454.55267532300786,,,,,,,,,,,,,,,,,,,,,,,,,,,,,,,,,,,,,,,,,,,,,,,,,,,,,,,,,,,,,,,,,,,,,35177,2022-10-27_13h55.24.854,vts_reward_expectancy_bt_OFFLINE,2022.2.4,60.04948738307094,
1,0,0,0,0,0,1,0,triangle,hexagon,2,0,2,0,2,5,29,1,,,,,,,,,,,,,,,,,,,,,,,,,,,,,,,,,,,,,,,,455.0533705400012,455.0533705400012,455.0533705400012,455.0533705400012,455.0533705400012,455.0533705400012,455.0533705400012,455.0533705400012,455.0533705400012,455.0533705400012,a,0.3906625710078515,1,639,2,455.47059029201046,,456.97207427900867,,,,,,,,,,,,,,,,,,,,,,,,,,,,,,,,,,,,,,,,,,,,,,,,,,,,,,,,,,,,,,,,,,,,,35177,2022-10-27_13h55.24.854,vts_reward_expectancy_bt_OFFLINE,2022.2.4,60.04948738307094,
0,1,0,0,1,0,0,0,circle,triangle,2,0,2,0,2,6,30,3,,,,,,,,,,,,,,,,,,,,,,,,,,,,,,,,,,,,,,,,457.4727969839878,457.4727969839878,457.4727969839878,457.4727969839878,457.4727969839878,457.4727969839878,457.4727969839878,457.4727969839878,457.4727969839878,457.4727969839878,l,0.19398832600563765,10,649,2,457.68993876999593,,459.191369638982,,,,,,,,,,,,,,,,,,,,,,,,,,,,,,,,,,,,,,,,,,,,,,,,,,,,,,,,,,,,,,,,,,,,,35177,2022-10-27_13h55.24.854,vts_reward_expectancy_bt_OFFLINE,2022.2.4,60.04948738307094,
0,1,0,0,0,0,1,0,circle,hexagon,2,0,2,0,2,7,31,4,,,,,,,,,,,,,,,,,,,,,,,,,,,,,,,,,,,,,,,,459.6918275920034,459.6918275920034,459.6918275920034,459.6918275920034,459.6918275920034,459.6918275920034,459.6918275920034,459.6918275920034,459.6918275920034,459.6918275920034,a,0.24790702600148506,10,659,2,459.95883058800246,,461.4606153630011,,,,,,,,,,,,,,,,,,,,,,,,,,,,,,,,,,,,,,,,,,,,,,,,,,,,,,,,,,,,,,,,,,,,,35177,2022-10-27_13h55.24.854,vts_reward_expectancy_bt_OFFLINE,2022.2.4,60.04948738307094,
0,0,0,1,0,0,1,0,star,hexagon,2,0,2,0,2,8,32,11,,,,,,,,,,,,,,,,,,,,,,,,,,,,,,,,,,,,,,,,461.96099099199637,461.96099099199637,461.96099099199637,461.96099099199637,461.96099099199637,461.96099099199637,461.96099099199637,461.96099099199637,461.96099099199637,461.96099099199637,l,0.49122703200555407,1,660,2,462.4782329330046,,463.98001478399965,,,,,,,,,,,,,,,,,,,,,,,,,,,,,,,,,,,,,,,,,,,,,,,,,,,,,,,,,,,,,,,,,,,,,35177,2022-10-27_13h55.24.854,vts_reward_expectancy_bt_OFFLINE,2022.2.4,60.04948738307094,
0,0,0,1,1,0,0,0,star,triangle,2,0,2,0,2,9,33,9,,,,,,,,,,,,,,,,,,,,,,,,,,,,,,,,,,,,,,,,464.48064599899226,464.48064599899226,464.48064599899226,464.48064599899226,464.48064599899226,464.48064599899226,464.48064599899226,464.48064599899226,464.48064599899226,464.48064599899226,a,0.4582097099919338,1,661,2,464.9643899000075,,466.46605075499974,,,,,,,,,,,,,,,,,,,,,,,,,,,,,,,,,,,,,,,,,,,,,,,,,,,,,,,,,,,,,,,,,,,,,35177,2022-10-27_13h55.24.854,vts_reward_expectancy_bt_OFFLINE,2022.2.4,60.04948738307094,
0,1,0,0,0,0,0,1,circle,star,2,0,2,0,2,10,34,5,,,,,,,,,,,,,,,,,,,,,,,,,,,,,,,,,,,,,,,,466.9663390890055,466.9663390890055,466.9663390890055,466.9663390890055,466.9663390890055,466.9663390890055,466.9663390890055,466.9663390890055,466.9663390890055,466.9663390890055,l,0.2928567919880152,1,662,2,467.2836045199947,,468.7853654589853,,,,,,,,,,,,,,,,,,,,,,,,,,,,,,,,,,,,,,,,,,,,,,,,,,,,,,,,,,,,,,,,,,,,,35177,2022-10-27_13h55.24.854,vts_reward_expectancy_bt_OFFLINE,2022.2.4,60.04948738307094,
0,0,1,0,0,0,0,1,hexagon,star,2,0,2,0,2,11,35,8,,,,,,,,,,,,,,,,,,,,,,,,,,,,,,,,,,,,,,,,469.28583156201057,469.28583156201057,469.28583156201057,469.28583156201057,469.28583156201057,469.28583156201057,469.28583156201057,469.28583156201057,469.28583156201057,469.28583156201057,a,0.2845175910042599,1,663,2,469.6029300399823,,471.10457112200675,,,,,,,,,,,,,,,,,,,,,,,,,,,,,,,,,,,,,,,,,,,,,,,,,,,,,,,,,,,,,,,,,,,,,35177,2022-10-27_13h55.24.854,vts_reward_expectancy_bt_OFFLINE,2022.2.4,60.04948738307094,
0,0,1,0,1,0,0,0,hexagon,triangle,2,0,2,0,3,0,36,6,,,,,,,,,,,,,,,,,,,,,,,,,,,,,,,,,,,,,,,,471.6051831700024,471.6051831700024,471.6051831700024,471.6051831700024,471.6051831700024,471.6051831700024,471.6051831700024,471.6051831700024,471.6051831700024,471.6051831700024,a,0.22135249400162138,1,664,2,471.8553629730013,,473.3571819970093,,,,,,,,,,,,,,,,,,,,,,,,,,,,,,,,,,,,,,,,,,,,,,,,,,,,,,,,,,,,,,,,,,,,,35177,2022-10-27_13h55.24.854,vts_reward_expectancy_bt_OFFLINE,2022.2.4,60.04948738307094,
0,1,0,0,1,0,0,0,circle,triangle,2,0,2,0,3,1,37,3,,,,,,,,,,,,,,,,,,,,,,,,,,,,,,,,,,,,,,,,473.8574981330021,473.8574981330021,473.8574981330021,473.8574981330021,473.8574981330021,473.8574981330021,473.8574981330021,473.8574981330021,473.8574981330021,473.8574981330021,a,0.201541440008441,10,674,2,474.0911946950073,,475.5927777629986,,,,,,,,,,,,,,,,,,,,,,,,,,,,,,,,,,,,,,,,,,,,,,,,,,,,,,,,,,,,,,,,,,,,,35177,2022-10-27_13h55.24.854,vts_reward_expectancy_bt_OFFLINE,2022.2.4,60.04948738307094,
0,1,0,0,0,0,0,1,circle,star,2,0,2,0,3,2,38,5,,,,,,,,,,,,,,,,,,,,,,,,,,,,,,,,,,,,,,,,476.09329386698664,476.09329386698664,476.09329386698664,476.09329386698664,476.09329386698664,476.09329386698664,476.09329386698664,476.09329386698664,476.09329386698664,476.09329386698664,l,0.29286053698160686,1,675,2,476.4103942399961,,477.91199058198254,,,,,,,,,,,,,,,,,,,,,,,,,,,,,,,,,,,,,,,,,,,,,,,,,,,,,,,,,,,,,,,,,,,,,35177,2022-10-27_13h55.24.854,vts_reward_expectancy_bt_OFFLINE,2022.2.4,60.04948738307094,
0,0,1,0,0,1,0,0,hexagon,circle,2,0,2,0,3,3,39,7,,,,,,,,,,,,,,,,,,,,,,,,,,,,,,,,,,,,,,,,478.41247834198293,478.41247834198293,478.41247834198293,478.41247834198293,478.41247834198293,478.41247834198293,478.41247834198293,478.41247834198293,478.41247834198293,478.41247834198293,l,0.5349123530031648,10,685,2,478.97990935700363,,480.4817977389903,,,,,,,,,,,,,,,,,,,,,,,,,,,,,,,,,,,,,,,,,,,,,,,,,,,,,,,,,,,,,,,,,,,,,35177,2022-10-27_13h55.24.854,vts_reward_expectancy_bt_OFFLINE,2022.2.4,60.04948738307094,
1,0,0,0,0,0,0,1,triangle,star,2,0,2,0,3,4,40,2,,,,,,,,,,,,,,,,,,,,,,,,,,,,,,,,,,,,,,,,480.98210142800235,480.98210142800235,480.98210142800235,480.98210142800235,480.98210142800235,480.98210142800235,480.98210142800235,480.98210142800235,480.98210142800235,480.98210142800235,a,0.22813862698967569,1,686,2,481.2326993639872,,482.73398745199665,,,,,,,,,,,,,,,,,,,,,,,,,,,,,,,,,,,,,,,,,,,,,,,,,,,,,,,,,,,,,,,,,,,,,35177,2022-10-27_13h55.24.854,vts_reward_expectancy_bt_OFFLINE,2022.2.4,60.04948738307094,
0,0,1,0,0,0,0,1,hexagon,star,2,0,2,0,3,5,41,8,,,,,,,,,,,,,,,,,,,,,,,,,,,,,,,,,,,,,,,,483.23461013799533,483.23461013799533,483.23461013799533,483.23461013799533,483.23461013799533,483.23461013799533,483.23461013799533,483.23461013799533,483.23461013799533,483.23461013799533,l,0.28753376999520697,1,687,2,483.55167857400374,,485.0531573490007,,,,,,,,,,,,,,,,,,,,,,,,,,,,,,,,,,,,,,,,,,,,,,,,,,,,,,,,,,,,,,,,,,,,,35177,2022-10-27_13h55.24.854,vts_reward_expectancy_bt_OFFLINE,2022.2.4,60.04948738307094,
1,0,0,0,0,0,1,0,triangle,hexagon,2,0,2,0,3,6,42,1,,,,,,,,,,,,,,,,,,,,,,,,,,,,,,,,,,,,,,,,485.55393085299875,485.55393085299875,485.55393085299875,485.55393085299875,485.55393085299875,485.55393085299875,485.55393085299875,485.55393085299875,485.55393085299875,485.55393085299875,a,0.05766665199189447,10,697,2,485.6374562419951,,487.1388809979835,,,,,,,,,,,,,,,,,,,,,,,,,,,,,,,,,,,,,,,,,,,,,,,,,,,,,,,,,,,,,,,,,,,,,35177,2022-10-27_13h55.24.854,vts_reward_expectancy_bt_OFFLINE,2022.2.4,60.04948738307094,
0,0,0,1,0,1,0,0,star ,circle,2,0,2,0,3,7,43,10,,,,,,,,,,,,,,,,,,,,,,,,,,,,,,,,,,,,,,,,487.63932246898185,487.63932246898185,487.63932246898185,487.63932246898185,487.63932246898185,487.63932246898185,487.63932246898185,487.63932246898185,487.63932246898185,487.63932246898185,a,0.28399744298076257,10,707,2,487.93965185200796,489.44140028898255,489.44140028898255,,,,,,,,,,,,,,,,,,,,,,,,,,,,,,,,,,,,,,,,,,,,,,,,,,,,,,,,,,,,,,,,,,,,,35177,2022-10-27_13h55.24.854,vts_reward_expectancy_bt_OFFLINE,2022.2.4,60.04948738307094,
0,0,0,1,0,0,1,0,star,hexagon,2,0,2,0,3,8,44,11,,,,,,,,,,,,,,,,,,,,,,,,,,,,,,,,,,,,,,,,489.9418862689927,489.9418862689927,489.9418862689927,489.9418862689927,489.9418862689927,489.9418862689927,489.9418862689927,489.9418862689927,489.9418862689927,489.9418862689927,a,0.09313207698869519,10,717,2,490.0588306169957,,491.56035724500543,,,,,,,,,,,,,,,,,,,,,,,,,,,,,,,,,,,,,,,,,,,,,,,,,,,,,,,,,,,,,,,,,,,,,35177,2022-10-27_13h55.24.854,vts_reward_expectancy_bt_OFFLINE,2022.2.4,60.04948738307094,
0,0,0,1,1,0,0,0,star,triangle,2,0,2,0,3,9,45,9,,,,,,,,,,,,,,,,,,,,,,,,,,,,,,,,,,,,,,,,492.0609019990079,492.0609019990079,492.0609019990079,492.0609019990079,492.0609019990079,492.0609019990079,492.0609019990079,492.0609019990079,492.0609019990079,492.0609019990079,a,0.1905843919957988,10,727,2,492.27792344699265,,493.77959114400437,,,,,,,,,,,,,,,,,,,,,,,,,,,,,,,,,,,,,,,,,,,,,,,,,,,,,,,,,,,,,,,,,,,,,35177,2022-10-27_13h55.24.854,vts_reward_expectancy_bt_OFFLINE,2022.2.4,60.04948738307094,
1,0,0,0,0,1,0,0,triangle,circle,2,0,2,0,3,10,46,0,,,,,,,,,,,,,,,,,,,,,,,,,,,,,,,,,,,,,,,,494.2801989619911,494.2801989619911,494.2801989619911,494.2801989619911,494.2801989619911,494.2801989619911,494.2801989619911,494.2801989619911,494.2801989619911,494.2801989619911,a,0.19415043899789453,10,737,2,494.4968744829821,,495.9987120649894,,,,,,,,,,,,,,,,,,,,,,,,,,,,,,,,,,,,,,,,,,,,,,,,,,,,,,,,,,,,,,,,,,,,,35177,2022-10-27_13h55.24.854,vts_reward_expectancy_bt_OFFLINE,2022.2.4,60.04948738307094,
0,1,0,0,0,0,1,0,circle,hexagon,2,0,2,0,3,11,47,4,,,,,,,,,,,,,,,,,,,,,,,,,,,,,,,,,,,,,,,,496.49920603999635,496.49920603999635,496.49920603999635,496.49920603999635,496.49920603999635,496.49920603999635,496.49920603999635,496.49920603999635,496.49920603999635,496.49920603999635,a,0.2008112679759506,10,747,2,496.73270177000086,,498.234366588993,,,,,,,,,,,,,,,,,,,,,,,,,,,,,,,,,,,,,,,,,,,,,,,,,,,,,,,,,,,,,,,,,,,,,35177,2022-10-27_13h55.24.854,vts_reward_expectancy_bt_OFFLINE,2022.2.4,60.04948738307094,
,,,,,,,,,,,,,,,,,,0,0,0,0,0,0,0,0,,,,,,,,,,,,,,,,,,,,,,,,,,,,,,,,,,,,,,,,,,,,,,,,,563.7232801200007,139,H,hexagon,0.0019052029820159078,559.6203480070108,561.1204072780092,561.1204072780092,561.1204072780092,1,0,d,1.083466137002688,0,562.2384465399955,,,,,,,,,,,,,,,,,,,,,,,,,,,,,,,,,,,,,,,,,,,,,,,,,,,,,,,35177,2022-10-27_13h55.24.854,vts_reward_expectancy_bt_OFFLINE,2022.2.4,60.04948738307094,
,,,,,,,,,,,,,,,,,,0,0,0,0,1,0,1,0,,,,,,,,,,,,,,,,,,,,,,,,,,,,,,,,,,,,,,,,,,,,,,,,,568.3283222040045,132,S,star,0.0009783999994397163,564.7075227029854,566.209377702995,566.209377702995,566.209377702995,1,0,d,0.5850388770049904,0,566.8267495269829,,,,,,,,,,,,,,,,,,,,,,,,,,,,,,,,,,,,,,,,,,,,,,,,,,,,,,,35177,2022-10-27_13h55.24.854,vts_reward_expectancy_bt_OFFLINE,2022.2.4,60.04948738307094,
,,,,,,,,,,,,,,,,,,0,0,0,0,2,0,2,0,,,,,,,,,,,,,,,,,,,,,,,,,,,,,,,,,,,,,,,,,,,,,,,,,572.8001152240031,167,U,triangle,0.0014414280012715608,569.3138391739922,570.8145718229935,570.8145718229935,570.8145718229935,1,0,f,0.45211303199175745,0,571.298246011982,,,,,,,,,,,,,,,,,,,,,,,,,,,,,,,,,,,,,,,,,,,,,,,,,,,,,,,35177,2022-10-27_13h55.24.854,vts_reward_expectancy_bt_OFFLINE,2022.2.4,60.04948738307094,
,,,,,,,,,,,,,,,,,,0,0,0,0,3,0,3,0,,,,,,,,,,,,,,,,,,,,,,,,,,,,,,,,,,,,,,,,,,,,,,,,,577.5384629769833,160,F,circle,0.001142295979661867,573.7843464220059,575.2860784929944,575.2860784929944,575.2860784929944,1,0,f,0.7184082029853016,0,576.0369533069897,,,,,,,,,,,,,,,,,,,,,,,,,,,,,,,,,,,,,,,,,,,,,,,,,,,,,,,35177,2022-10-27_13h55.24.854,vts_reward_expectancy_bt_OFFLINE,2022.2.4,60.04948738307094,
,,,,,,,,,,,,,,,,,,0,0,0,0,4,0,4,0,,,,,,,,,,,,,,,,,,,,,,,,,,,,,,,,,,,,,,,,,,,,,,,,,582.160441193002,181,D,circle,0.0015555050049442798,578.5236661249946,580.0245805739833,580.0245805739833,580.0245805739833,1,0,f,0.6018455919693224,0,580.6585790969839,,,,,,,,,,,,,,,,,,,,,,,,,,,,,,,,,,,,,,,,,,,,,,,,,,,,,,,35177,2022-10-27_13h55.24.854,vts_reward_expectancy_bt_OFFLINE,2022.2.4,60.04948738307094,
,,,,,,,,,,,,,,,,,,0,0,0,0,5,0,5,0,,,,,,,,,,,,,,,,,,,,,,,,,,,,,,,,,,,,,,,,,,,,,,,,,586.8320767219993,146,B,triangle,0.001200878992676735,583.1460149429913,584.6463619050046,584.6463619050046,584.6463619050046,1,0,d,0.6523943329812028,0,585.3306043370103,586.8320767219993,587.3327848629851,,,,,,,,,,,,,,,,,,,,,,,,,,,,,,,,,,,,,,,,,,,,,,,,,,,,,35177,2022-10-27_13h55.24.854,vts_reward_expectancy_bt_OFFLINE,2022.2.4,60.04948738307094,
,,,,,,,,,,,,,,,,,,0,0,0,0,6,0,6,0,,,,,,,,,,,,,,,,,,,,,,,,,,,,,,,,,,,,,,,,,,,,,,,,,591.4704676499823,125,Y,hexagon,0.0007295509858522564,587.8164170079981,589.3181817980076,589.3181817980076,589.3181817980076,1,0,d,0.6210104069905356,0,589.9689952920016,,,,,,,,,,,,,,,,,,,,,,,,,,,,,,,,,,,,,,,,,,,,,,,,,,,,,,,35177,2022-10-27_13h55.24.854,vts_reward_expectancy_bt_OFFLINE,2022.2.4,60.04948738307094,
,,,,,,,,,,,,,,,,,,0,0,0,0,7,0,7,0,,,,,,,,,,,,,,,,,,,,,,,,,,,,,,,,,,,,,,,,,,,,,,,,,596.0089796749817,174,W,star,0.001281442993786186,592.4549425700097,593.9565736739896,593.9565736739896,593.9565736739896,1,0,f,0.5184377879777458,0,594.5074075940065,,,,,,,,,,,,,,,,,,,,,,,,,,,,,,,,,,,,,,,,,,,,,,,,,,,,,,,35177,2022-10-27_13h55.24.854,vts_reward_expectancy_bt_OFFLINE,2022.2.4,60.04948738307094,
,,,,,,,,,,,,,,,,,,0,0,0,0,8,0,8,0,,,,,,,,,,,,,,,,,,,,,,,,,,,,,,,,,,,,,,,,,,,,,,,,,601.4314801220025,139,H,circle,0.0012243759992998093,596.9935228569957,598.4950596150011,598.4950596150011,598.4950596150011,1,0,d,1.412324063014239,0,599.929921892006,,,,,,,,,,,,,,,,,,,,,,,,,,,,,,,,,,,,,,,,,,,,,,,,,,,,,,,35177,2022-10-27_13h55.24.854,vts_reward_expectancy_bt_OFFLINE,2022.2.4,60.04948738307094,
,,,,,,,,,,,,,,,,,,0,0,0,0,9,0,9,0,,,,,,,,,,,,,,,,,,,,,,,,,,,,,,,,,,,,,,,,,,,,,,,,,606.2870186319924,132,S,hexagon,0.0012526400096248835,602.4159244030016,603.917563969997,603.917563969997,603.917563969997,1,0,d,0.837314748991048,0,604.7852122040058,,,,,,,,,,,,,,,,,,,,,,,,,,,,,,,,,,,,,,,,,,,,,,,,,,,,,,,35177,2022-10-27_13h55.24.854,vts_reward_expectancy_bt_OFFLINE,2022.2.4,60.04948738307094,
,,,,,,,,,,,,,,,,,,,,,,,,,,0,0,0,0,0,0,0,0,,,,,,,,,,,,,,,,,,,,,,,,,,,,,,,,,,,,,,,,,631.3647558520024,146,H,hexagon,0.001940311980433762,,,,,1,0,,,1,629.8630002400023,,,626.9436630329874,628.4448384779971,628.4448384779971,628.4448384779971,j,1.3979330679867417,,,,,,,,,,,,,,,,,,,,,,,,,,,,,,,,,,,,,,,,,,,,,,,35177,2022-10-27_13h55.24.854,vts_reward_expectancy_bt_OFFLINE,2022.2.4,60.04948738307094,
,,,,,,,,,,,,,,,,,,,,,,,,,,0,0,0,0,1,0,1,0,,,,,,,,,,,,,,,,,,,,,,,,,,,,,,,,,,,,,,,,,636.0864192440058,139,W,triangle,0.0012165360094513744,,,,,1,0,,,1,634.5849866000062,,,632.3490355440008,633.8506406199886,633.8506406199886,633.8506406199886,k,0.7125295639852993,,,,,,,,,,,,,,,,,,,,,,,,,,,,,,,,,,,,,,,,,,,,,,,35177,2022-10-27_13h55.24.854,vts_reward_expectancy_bt_OFFLINE,2022.2.4,60.04948738307094,
,,,,,,,,,,,,,,,,,,,,,,,,,,0,0,0,0,2,0,2,0,,,,,,,,,,,,,,,,,,,,,,,,,,,,,,,,,,,,,,,,,640.641743463988,160,Y,circle,0.00147350097540766,,,,,1,0,,,1,639.1398268119956,,,637.0708396240079,638.5725914349896,638.5725914349896,638.5725914349896,k,0.5415925959823653,,,,,,,,,,,,,,,,,,,,,,,,,,,,,,,,,,,,,,,,,,,,,,,35177,2022-10-27_13h55.24.854,vts_reward_expectancy_bt_OFFLINE,2022.2.4,60.04948738307094,
,,,,,,,,,,,,,,,,,,,,,,,,,,0,0,0,0,3,0,3,0,,,,,,,,,,,,,,,,,,,,,,,,,,,,,,,,,,,,,,,,,645.2799010739836,181,B,star,0.0011895079805981368,,,,,1,0,,,1,643.7783841789933,,,641.6258543069998,643.1277437180106,643.1277437180106,643.1277437180106,j,0.6184485739795491,,,,,,,,,,,,,,,,,,,,,,,,,,,,,,,,,,,,,,,,,,,,,,,35177,2022-10-27_13h55.24.854,vts_reward_expectancy_bt_OFFLINE,2022.2.4,60.04948738307094,
,,,,,,,,,,,,,,,,,,,,,,,,,,0,0,0,0,4,0,4,0,,,,,,,,,,,,,,,,,,,,,,,,,,,,,,,,,,,,,,,,,649.7516167319845,167,D,star,0.0014406740083359182,,,,,1,0,,,1,648.249843683996,,,646.2643162790046,647.7662060919974,647.7662060919974,647.7662060919974,j,0.4519494319683872,,,,,,,,,,,,,,,,,,,,,,,,,,,,,,,,,,,,,,,,,,,,,,,35177,2022-10-27_13h55.24.854,vts_reward_expectancy_bt_OFFLINE,2022.2.4,60.04948738307094,
,,,,,,,,,,,,,,,,,,,,,,,,,,0,0,0,0,5,0,5,0,,,,,,,,,,,,,,,,,,,,,,,,,,,,,,,,,,,,,,,,,654.8405714939872,125,S,circle,0.0013630879984702915,,,,,1,0,,,1,653.3389226080035,,,650.7360358450096,652.2375996389892,652.2375996389892,652.2375996389892,k,1.0692709439899772,,,,,,,,,,,,,,,,,,,,,,,,,,,,,,,,,,,,,,,,,,,,,,,35177,2022-10-27_13h55.24.854,vts_reward_expectancy_bt_OFFLINE,2022.2.4,60.04948738307094,
,,,,,,,,,,,,,,,,,,,,,,,,,,0,0,0,0,6,0,6,0,,,,,,,,,,,,,,,,,,,,,,,,,,,,,,,,,,,,,,,,,659.5122539929871,174,F,triangle,0.0014618249842897058,,,,,1,0,,,1,658.0108645319997,,,655.8248139549978,657.3265341549995,657.3265341549995,657.3265341549995,j,0.6597088569833431,,,,,,,,,,,,,,,,,,,,,,,,,,,,,,,,,,,,,,,,,,,,,,,35177,2022-10-27_13h55.24.854,vts_reward_expectancy_bt_OFFLINE,2022.2.4,60.04948738307094,
,,,,,,,,,,,,,,,,,,,,,,,,,,0,0,0,0,7,0,7,0,,,,,,,,,,,,,,,,,,,,,,,,,,,,,,,,,,,,,,,,,664.0840382720053,132,U,hexagon,0.0009419980051461607,,,,,1,0,,,1,662.5824308430019,,,660.4968887319847,661.9983882439847,661.9983882439847,661.9983882439847,k,0.5649433390062768,,,,,,,,,,,,,,,,,,,,,,,,,,,,,,,,,,,,,,,,,,,,,,,35177,2022-10-27_13h55.24.854,vts_reward_expectancy_bt_OFFLINE,2022.2.4,60.04948738307094,
,,,,,,,,,,,,,,,,,,,,,,,,,,0,0,0,0,8,0,8,0,,,,,,,,,,,,,,,,,,,,,,,,,,,,,,,,,,,,,,,,,668.8391983589972,146,H,hexagon,0.0012972879922017455,,,,,1,0,,,1,667.3377888579853,,,665.0685656100104,666.5702704249998,666.5702704249998,666.5702704249998,j,0.7365494020050392,,,,,,,,,,,,,,,,,,,,,,,,,,,,,,,,,,,,,,,,,,,,,,,35177,2022-10-27_13h55.24.854,vts_reward_expectancy_bt_OFFLINE,2022.2.4,60.04948738307094,
,,,,,,,,,,,,,,,,,,,,,,,,,,0,0,0,0,9,0,9,0,,,,,,,,,,,,,,,,,,,,,,,,,,,,,,,,,,,,,,,,,673.4777623169939,139,W,triangle,0.0012352849880699068,,,,,1,0,,,1,671.9759135890054,,,669.823777499987,671.3254600240034,671.3254600240034,671.3254600240034,k,0.6293168059783056,,,,,,,,,,,,,,,,,,,,,,,,,,,,,,,,,,,,,,,,,,,,,,,35177,2022-10-27_13h55.24.854,vts_reward_expectancy_bt_OFFLINE,2022.2.4,60.04948738307094,
,,,,,,,,,,,,,,,,,,,,,,,,,,,,,,,,,,0,0,0,0,0,0,0,0,,,,,,,,,,,,,,,,,,,,,,,,,,,,0,747,,,,718.7442755420052,174,B,star,0.00212597701465711,,,,,-1,0,,,2,,,,,,,,,,712.7376350490085,712.7376350490085,712.7376350490085,712.7376350490085,714.2227630800044,714.2227630800044,714.2227630800044,714.2227630800044,714.2392751300067,714.2392751300067,714.2392751300067,714.2392751300067,717.2426277039922,717.2426277039922,717.2426277039922,717.2426277039922,-1,no_choice,NA,None,vtsPrac,717.2426277039922,,,,,,,,,,,,,,,,,,,,,,,,,35177,2022-10-27_13h55.24.854,vts_reward_expectancy_bt_OFFLINE,2022.2.4,60.04948738307094,
,,,,,,,,,,,,,,,,,,,,,,,,,,,,,,,,,,0,0,0,0,1,0,1,0,,,,,,,,,,,,,,,,,,,,,,,,,,,,0,747,,,,724.0668069199892,167,D,circle,0.009401029004948214,,,,,1,0,,,2,,,,,,,,,,719.7294286570104,719.7294286570104,719.7294286570104,719.7294286570104,721.2305173430068,721.2305173430068,721.2305173430068,721.2305173430068,721.2305173430068,721.2305173430068,721.2305173430068,721.2305173430068,,,,,switch,number,numSwt,f,vtsPrac,722.56521306801,1.3017891019990202,,,,,,,,,,,,,,,,,,,,,,,,35177,2022-10-27_13h55.24.854,vts_reward_expectancy_bt_OFFLINE,2022.2.4,60.04948738307094,
,,,,,,,,,,,,,,,,,,,,,,,,,,,,,,,,,,0,0,0,0,2,0,2,0,,,,,,,,,,,,,,,,,,,,,,,,,,,,0,747,,,,729.8732292139903,146,W,circle,0.017013984004734084,,,,,1,0,,,2,,,,,,,,,,725.0511700229836,725.0511700229836,725.0511700229836,725.0511700229836,726.5364091490046,726.5364091490046,726.5364091490046,726.5364091490046,726.5528680039861,726.5528680039861,726.5528680039861,726.5528680039861,,,,,repeat,number,numRpt,d,vtsPrac,728.3715037200018,1.8026319319906179,,,,,,,,,,,,,,,,,,,,,,,,35177,2022-10-27_13h55.24.854,vts_reward_expectancy_bt_OFFLINE,2022.2.4,60.04948738307094,
,,,,,,,,,,,,,,,,,,,,,,,,,,,,,,,,,,0,0,0,0,3,0,3,0,,,,,,,,,,,,,,,,,,,,,,,,,,,,0,747,,,,734.4450102440023,125,U,triangle,0.0012515779817476869,,,,,1,0,,,2,,,,,,,,,,730.8583676819981,730.8583676819981,730.8583676819981,730.8583676819981,732.3593836899963,732.3593836899963,732.3593836899963,732.3593836899963,732.3593836899963,732.3593836899963,732.3593836899963,732.3593836899963,,,,,repeat,number,numRpt,d,vtsPrac,732.9433831379865,0.5635399500024505,734.4450102440023,,,,,,,,,,,,,,,,,,,,,,,35177,2022-10-27_13h55.24.854,vts_reward_expectancy_bt_OFFLINE,2022.2.4,60.04948738307094,
,,,,,,,,,,,,,,,,,,,,,,,,,,,,,,,,,,0,0,0,0,4,0,4,0,,,,,,,,,,,,,,,,,,,,,,,,,,,,0,747,,,,738.983513034007,174,B,circle,0.0013054239971097559,,,,,1,0,,,2,,,,,,,,,,735.4295400420087,735.4295400420087,735.4295400420087,735.4295400420087,736.9310872939823,736.9310872939823,736.9310872939823,736.9310872939823,736.9310872939823,736.9310872939823,736.9310872939823,736.9310872939823,,,,,switch,letter,lettSwt,j,vtsPrac,737.4819815990049,0.5195834779879078,738.983513034007,,,,,,,,,,,,,,,,,,,,,,,35177,2022-10-27_13h55.24.854,vts_reward_expectancy_bt_OFFLINE,2022.2.4,60.04948738307094,
,,,,,,,,,,,,,,,,,,,,,,,,,,,,,,,,,,0,0,0,0,5,0,5,0,,,,,,,,,,,,,,,,,,,,,,,,,,,,0,747,,,,743.8554798749974,167,D,triangle,0.0008244229829870164,,,,,1,0,,,2,,,,,,,,,,739.9677317519963,739.9677317519963,739.9677317519963,739.9677317519963,741.4694413119869,741.4694413119869,741.4694413119869,741.4694413119869,741.4694413119869,741.4694413119869,741.4694413119869,741.4694413119869,,,,,repeat,letter,lettRpt,j,vtsPrac,742.3539083999931,0.8532858770049643,,,,,,,,,,,,,,,,,,,,,,,,35177,2022-10-27_13h55.24.854,vts_reward_expectancy_bt_OFFLINE,2022.2.4,60.04948738307094,
,,,,,,,,,,,,,,,,,,,,,,,,,,,,,,,,,,0,0,0,0,6,0,6,0,,,,,,,,,,,,,,,,,,,,,,,,,,,,0,747,,,,748.6941595189855,146,W,triangle,0.001301878015510738,,,,,1,0,,,2,,,,,,,,,,744.839953852992,744.839953852992,744.839953852992,744.839953852992,746.3415552139923,746.3415552139923,746.3415552139923,746.3415552139923,746.3415552139923,746.3415552139923,746.3415552139923,746.3415552139923,,,,,repeat,letter,lettRpt,k,vtsPrac,747.1923096700048,0.821342312003253,748.6941595189855,,,,,,,,,,,,,,,,,,,,,,,35177,2022-10-27_13h55.24.854,vts_reward_expectancy_bt_OFFLINE,2022.2.4,60.04948738307094,
,,,,,,,,,,,,,,,,,,,,,,,,,,,,,,,,,,0,0,0,0,7,0,7,0,,,,,,,,,,,,,,,,,,,,,,,,,,,,0,747,,,,753.2990502250032,125,U,circle,0.0010700919956434518,,,,,1,0,,,2,,,,,,,,,,749.6784489429847,749.6784489429847,749.6784489429847,749.6784489429847,751.1802546319959,751.1802546319959,751.1802546319959,751.1802546319959,751.1802546319959,751.1802546319959,751.1802546319959,751.1802546319959,,,,,switch,number,numSwt,d,vtsPrac,751.7973865649838,0.5995366389979608,753.2990502250032,,,,,,,,,,,,,,,,,,,,,,,35177,2022-10-27_13h55.24.854,vts_reward_expectancy_bt_OFFLINE,2022.2.4,60.04948738307094,
,,,,,,,,,,,,,,,,,,,,,,,,,,,,,,,,,,0,0,0,0,8,0,8,0,,,,,,,,,,,,,,,,,,,,,,,,,,,,0,747,,,,758.0877945169923,160,F,triangle,0.0010545649856794626,,,,,1,0,,,2,,,,,,,,,,754.2838115519844,754.2838115519844,754.2838115519844,754.2838115519844,755.7853732719959,755.7853732719959,755.7853732719959,755.7853732719959,755.7853732719959,755.7853732719959,755.7853732719959,755.7853732719959,,,,,repeat,number,numRpt,f,vtsPrac,756.5863372639869,0.7696387639734894,758.0877945169923,,,,,,,,,,,,,,,,,,,,,,,35177,2022-10-27_13h55.24.854,vts_reward_expectancy_bt_OFFLINE,2022.2.4,60.04948738307094,
,,,,,,,,,,,,,,,,,,,,,,,,,,,,,,,,,,0,0,0,0,9,0,9,0,,,,,,,,,,,,,,,,,,,,,,,,,,,,0,747,,,,762.7596069680003,125,B,circle,0.0009963430056814104,,,,,1,0,,,2,,,,,,,,,,759.0720421629958,759.0720421629958,759.0720421629958,759.0720421629958,760.5738706380071,760.5738706380071,760.5738706380071,760.5738706380071,760.5738706380071,760.5738706380071,760.5738706380071,760.5738706380071,,,,,repeat,number,numRpt,d,vtsPrac,761.2578981780098,0.6531069389893673,,,,,,,,,,,,,,,,,,,,,,,,35177,2022-10-27_13h55.24.854,vts_reward_expectancy_bt_OFFLINE,2022.2.4,60.04948738307094,
,,,,,,,,,,,,,,,,,,,,,,,,,,,,,,,,,,0,0,0,0,10,0,10,0,,,,,,,,,,,,,,,,,,,,,,,,,,,,0,747,,,,767.4647146939824,146,D,triangle,0.0011639540025498718,,,,,1,0,,,2,,,,,,,,,,763.7439797729894,763.7439797729894,763.7439797729894,763.7439797729894,765.2455102849926,765.2455102849926,765.2455102849926,765.2455102849926,765.2455102849926,765.2455102849926,765.2455102849926,765.2455102849926,,,,,switch,letter,lettSwt,j,vtsPrac,765.963285995007,0.6932718250027392,,,,,,,,,,,,,,,,,,,,,,,,35177,2022-10-27_13h55.24.854,vts_reward_expectancy_bt_OFFLINE,2022.2.4,60.04948738307094,
,,,,,,,,,,,,,,,,,,,,,,,,,,,,,,,,,,0,0,0,0,11,0,11,0,,,,,,,,,,,,,,,,,,,,,,,,,,,,0,747,,,,772.2033545080048,139,U,circle,0.0011852149909827858,,,,,1,0,,,2,,,,,,,,,,768.4495160149818,768.4495160149818,768.4495160149818,768.4495160149818,769.9508941549866,769.9508941549866,769.9508941549866,769.9508941549866,769.9508941549866,769.9508941549866,769.9508941549866,769.9508941549866,,,,,repeat,letter,lettRpt,k,vtsPrac,770.7016560680058,0.7337933519738726,,,,,,,,,,,,,,,,,,,,,,,,35177,2022-10-27_13h55.24.854,vts_reward_expectancy_bt_OFFLINE,2022.2.4,60.04948738307094,
,,,,,,,,,,,,,,,,,,,,,,,,,,,,,,,,,,0,0,0,0,12,0,12,0,,,,,,,,,,,,,,,,,,,,,,,,,,,,0,747,,,,776.7751164119982,160,W,hexagon,0.0009376069938298315,,,,,1,0,,,2,,,,,,,,,,773.1878858300042,773.1878858300042,773.1878858300042,773.1878858300042,774.6893821129925,774.6893821129925,774.6893821129925,774.6893821129925,774.6893821129925,774.6893821129925,774.6893821129925,774.6893821129925,,,,,repeat,letter,lettRpt,k,vtsPrac,775.2732966349868,0.552829810010735,,,,,,,,,,,,,,,,,,,,,,,,35177,2022-10-27_13h55.24.854,vts_reward_expectancy_bt_OFFLINE,2022.2.4,60.04948738307094,
,,,,,,,,,,,,,,,,,,,,,,,,,,,,,,,,,,0,0,0,0,13,0,13,0,,,,,,,,,,,,,,,,,,,,,,,,,,,,0,747,,,,781.6136472900107,167,F,circle,0.0010098330094479024,,,,,1,0,,,2,,,,,,,,,,777.7595739690005,777.7595739690005,777.7595739690005,777.7595739690005,779.2610959179874,779.2610959179874,779.2610959179874,779.2610959179874,779.2610959179874,779.2610959179874,779.2610959179874,779.2610959179874,,,,,repeat,letter,lettRpt,j,vtsPrac,780.1122682800051,0.830054495978402,781.6136472900107,,,,,,,,,,,,,,,,,,,,,,,35177,2022-10-27_13h55.24.854,vts_reward_expectancy_bt_OFFLINE,2022.2.4,60.04948738307094,
,,,,,,,,,,,,,,,,,,,,,,,,,,,,,,,,,,0,0,0,0,14,0,14,0,,,,,,,,,,,,,,,,,,,,,,,,,,,,0,747,,,,786.218778104987,139,U,star,0.0009518399892840534,,,,,1,0,,,2,,,,,,,,,,782.5980461940053,782.5980461940053,782.5980461940053,782.5980461940053,784.0996313150099,784.0996313150099,784.0996313150099,784.0996313150099,784.0996313150099,784.0996313150099,784.0996313150099,784.0996313150099,,,,,switch,number,numSwt,d,vtsPrac,784.7171015619824,0.6007916700036731,786.218778104987,,,,,,,,,,,,,,,,,,,,,,,35177,2022-10-27_13h55.24.854,vts_reward_expectancy_bt_OFFLINE,2022.2.4,60.04948738307094,
,,,,,,,,,,,,,,,,,,,,,,,,,,,,,,,,,,0,0,0,0,15,0,15,0,,,,,,,,,,,,,,,,,,,,,,,,,,,,0,747,,,,790.7570440220006,132,B,hexagon,0.0007384009950328618,,,,,1,0,,,2,,,,,,,,,,787.2031203329971,787.2031203329971,787.2031203329971,787.2031203329971,788.7049917450058,788.7049917450058,788.7049917450058,788.7049917450058,788.7049917450058,788.7049917450058,788.7049917450058,788.7049917450058,,,,,repeat,number,numRpt,d,vtsPrac,789.2555230649887,0.5232905079901684,,,,,,,,,,,,,,,,,,,,,,,,35177,2022-10-27_13h55.24.854,vts_reward_expectancy_bt_OFFLINE,2022.2.4,60.04948738307094,
,,,,,,,,,,,,,,,,,,,,,,,,,,,,,,,,,,,,,,,,,,0,0,0,0,,,,,,,,,,,,,,,,,,,,,,,,0,747,,,,827.6144393789873,146,F,circle,0.0019734849920496345,,,,,1,0,,,,,,,,,,,,,823.8603730229952,823.8603730229952,823.8603730229952,823.8603730229952,825.361915794987,825.361915794987,825.361915794987,825.361915794987,825.361915794987,825.361915794987,825.361915794987,825.361915794987,,,,,repeat,number,numRpt,d,noRew,,0.7207464819948655,,0,826.1146628650022,827.6144393789873,,,,,,,,,,,,,,,,,,,,35177,2022-10-27_13h55.24.854,vts_reward_expectancy_bt_OFFLINE,2022.2.4,60.04948738307094,
,,,,,,,,,,,,,,,,,,,,,,,,,,,,,,,,,,,,,,,,,,1,0,1,0,,,,,,,,,,,,,,,,,,,,,,,,0,747,,,,832.2029605300049,132,S,triangle,0.001166102010756731,,,,,1,0,,,,,,,,,,,,,828.5988524789864,828.5988524789864,828.5988524789864,828.5988524789864,830.1004184689955,830.1004184689955,830.1004184689955,830.1004184689955,830.1004184689955,830.1004184689955,830.1004184689955,830.1004184689955,,,,,repeat,number,numRpt,d,noRew,,0.5844019219803158,,0,830.7015950919886,832.2029605300049,,,,,,,,,,,,,,,,,,,,35177,2022-10-27_13h55.24.854,vts_reward_expectancy_bt_OFFLINE,2022.2.4,60.04948738307094,
,,,,,,,,,,,,,,,,,,,,,,,,,,,,,,,,,,,,,,,,,,2,0,2,0,,,,,,,,,,,,,,,,,,,,,,,,0,747,,,,836.8246617300028,174,Y,circle,0.0007259029953274876,,,,,1,0,,,,,,,,,,,,,833.187083131983,833.187083131983,833.187083131983,833.187083131983,834.6888792919926,834.6888792919926,834.6888792919926,834.6888792919926,834.6888792919926,834.6888792919926,834.6888792919926,834.6888792919926,,,,,switch,letter,lettSwt,k,noRew,,0.6019209139922168,,0,835.3228886699944,,,,,,,,,,,,,,,,,,,,,35177,2022-10-27_13h55.24.854,vts_reward_expectancy_bt_OFFLINE,2022.2.4,60.04948738307094,
,,,,,,,,,,,,,,,,,,,,,,,,,,,,,,,,,,,,,,,,,,3,0,3,0,,,,,,,,,,,,,,,,,,,,,,,,0,747,,,,842.1636806669994,160,W,star,0.001154142984887585,,,,,1,0,,,,,,,,,,,,,837.8090445919952,837.8090445919952,837.8090445919952,837.8090445919952,839.3106490570062,839.3106490570062,839.3106490570062,839.3106490570062,839.3106490570062,839.3106490570062,839.3106490570062,839.3106490570062,,,,,switch,number,numSwt,f,noRew,,1.3028833039861638,,0,840.6621999880008,842.1636806669994,,,,,,,,,,,,,,,,,,,,35177,2022-10-27_13h55.24.854,vts_reward_expectancy_bt_OFFLINE,2022.2.4,60.04948738307094,
,,,,,,,,,,,,,,,,,,,,,,,,,,,,,,,,,,,,,,,,,,4,0,4,0,,,,,,,,,,,,,,,,,,,,,,,,0,747,,,,847.3195084889885,146,F,hexagon,0.017545021983096376,,,,,1,0,,,,,,,,,,,,,843.16476920899,843.16476920899,843.16476920899,843.16476920899,844.6497569549829,844.6497569549829,844.6497569549829,844.6497569549829,844.6665868069977,844.6665868069977,844.6665868069977,844.6665868069977,,,,,switch,letter,lettSwt,j,noRew,,1.1452852909860667,,0,845.8178809189994,847.3195084889885,,,,,,,,,,,,,,,,,,,,35177,2022-10-27_13h55.24.854,vts_reward_expectancy_bt_OFFLINE,2022.2.4,60.04948738307094,
,,,,,,,,,,,,,,,,,,,,,,,,,,,,,,,,,,,,,,,,,,5,0,5,0,,,,,,,,,,,,,,,,,,,,,,,,0,747,,,,851.8745697989943,132,S,circle,0.0010355129779782146,,,,,1,0,,,,,,,,,,,,,848.3040622829867,848.3040622829867,848.3040622829867,848.3040622829867,849.8056381249917,849.8056381249917,849.8056381249917,849.8056381249917,849.8056381249917,849.8056381249917,849.8056381249917,849.8056381249917,,,,,repeat,letter,lettRpt,k,noRew,,0.5409996389935259,,0,850.3728283550008,851.8745697989943,,,,,,,,,,,,,,,,,,,,35177,2022-10-27_13h55.24.854,vts_reward_expectancy_bt_OFFLINE,2022.2.4,60.04948738307094,
,,,,,,,,,,,,,,,,,,,,,,,,,,,,,,,,,,,,,,,,,,6,0,6,0,,,,,,,,,,,,,,,,,,,,,,,,0,747,,,,856.746438896982,174,Y,star,0.0010788329818751663,,,,,1,0,,,,,,,,,,,,,852.8590848819877,852.8590848819877,852.8590848819877,852.8590848819877,854.3604765039927,854.3604765039927,854.3604765039927,854.3604765039927,854.3604765039927,854.3604765039927,854.3604765039927,854.3604765039927,,,,,repeat,letter,lettRpt,k,noRew,,0.8586784949875437,,0,855.2449414689909,,,,,,,,,,,,,,,,,,,,,35177,2022-10-27_13h55.24.854,vts_reward_expectancy_bt_OFFLINE,2022.2.4,60.04948738307094,
,,,,,,,,,,,,,,,,,,,,,,,,,,,,,,,,,,,,,,,,,,7,0,7,0,,,,,,,,,,,,,,,,,,,,,,,,0,747,,,,861.2346509780036,160,W,triangle,0.0013793479884043336,,,,,1,0,,,,,,861.7352505720046,,,,,,,857.7308688379999,857.7308688379999,857.7308688379999,857.7308688379999,859.2325348629965,859.2325348629965,859.2325348629965,859.2325348629965,859.2325348629965,859.2325348629965,859.2325348629965,859.2325348629965,,,,,switch,number,numSwt,f,noRew,,0.4840328819991555,,0,859.7332430539827,861.2346509780036,,,,,,,,,,,,,,,,,,,,35177,2022-10-27_13h55.24.854,vts_reward_expectancy_bt_OFFLINE,2022.2.4,60.04948738307094,
,,,,,,,,,,,,,,,,,,,,,,,,,,,,,,,,,,,,,,,,,,8,0,8,0,,,,,,,,,,,,,,,,,,,,,,,,0,747,,,,865.7398828029982,181,B,hexagon,0.0011535419907886535,,,,,1,0,,,,,,,,,,,,,862.2192649669887,862.2192649669887,862.2192649669887,862.2192649669887,863.7208541400032,863.7208541400032,863.7208541400032,863.7208541400032,863.7208541400032,863.7208541400032,863.7208541400032,863.7208541400032,,,,,repeat,number,numRpt,f,noRew,,0.4901082100113854,,0,864.2380998180015,865.7398828029982,,,,,,,,,,,,,,,,,,,,35177,2022-10-27_13h55.24.854,vts_reward_expectancy_bt_OFFLINE,2022.2.4,60.04948738307094,
,,,,,,,,,,,,,,,,,,,,,,,,,,,,,,,,,,,,,,,,,,9,0,9,0,,,,,,,,,,,,,,,,,,,,,,,,0,747,,,,870.4285057969973,167,S,triangle,0.0013028300018049777,,,,,1,0,,,,,,,,,,,,,866.7241786539962,866.7241786539962,866.7241786539962,866.7241786539962,868.2258127999958,868.2258127999958,868.2258127999958,868.2258127999958,868.2258127999958,868.2258127999958,868.2258127999958,868.2258127999958,,,,,repeat,number,numRpt,f,noRew,,0.6821107489813585,,0,868.92675228999,870.4285057969973,,,,,,,,,,,,,,,,,,,,35177,2022-10-27_13h55.24.854,vts_reward_expectancy_bt_OFFLINE,2022.2.4,60.04948738307094,
,,,,,,,,,,,,,,,,,,,,,,,,,,,,,,,,,,,,,,,,,,10,0,10,0,,,,,,,,,,,,,,,,,,,,,,,,0,747,,,,875.5173015100008,160,U,triangle,0.0011966000020038337,,,,,1,0,,,,,,,,,,,,,871.4126293289883,871.4126293289883,871.4126293289883,871.4126293289883,872.914521942992,872.914521942992,872.914521942992,872.914521942992,872.914521942992,872.914521942992,872.914521942992,872.914521942992,,,,,repeat,number,numRpt,f,noRew,,1.0807427839899901,,0,874.0154021939961,,,,,,,,,,,,,,,,,,,,,35177,2022-10-27_13h55.24.854,vts_reward_expectancy_bt_OFFLINE,2022.2.4,60.04948738307094,
,,,,,,,,,,,,,,,,,,,,,,,,,,,,,,,,,,,,,,,,,,11,0,11,0,,,,,,,,,,,,,,,,,,,,,,,,0,747,,,,880.1223903500068,146,F,hexagon,0.0012118539889343083,,,,,1,0,,,,,,,,,,,,,876.5016752989904,876.5016752989904,876.5016752989904,876.5016752989904,878.003185916983,878.003185916983,878.003185916983,878.003185916983,878.003185916983,878.003185916983,878.003185916983,878.003185916983,,,,,switch,letter,lettSwt,j,noRew,,0.5852221089880913,,0,878.6205179370008,880.1223903500068,,,,,,,,,,,,,,,,,,,,35177,2022-10-27_13h55.24.854,vts_reward_expectancy_bt_OFFLINE,2022.2.4,60.04948738307094,
,,,,,,,,,,,,,,,,,,,,,,,,,,,,,,,,,,,,,,,,,,12,0,12,0,,,,,,,,,,,,,,,,,,,,,,,,0,747,,,,884.8943819729902,174,D,star,0.0012313799816183746,,,,,1,0,,,,,,,,,,,,,881.1067781579914,881.1067781579914,881.1067781579914,881.1067781579914,882.6084410350013,882.6084410350013,882.6084410350013,882.6084410350013,882.6084410350013,882.6084410350013,882.6084410350013,882.6084410350013,,,,,repeat,letter,lettRpt,j,noRew,,0.7538098309887573,,0,883.3927836100047,884.8943819729902,,,,,,,,,,,,,,,,,,,,35177,2022-10-27_13h55.24.854,vts_reward_expectancy_bt_OFFLINE,2022.2.4,60.04948738307094,
