LTriangleOpac,LCircleOpac,LHexagonOpac,LStarOpac,RTriangleOpac,RCircleOpac,RHexagonOpac,RStarOpac,LShape_ID,RShape_ID,training_blocks.thisRepN,training_blocks.thisTrialN,training_blocks.thisN,training_blocks.thisIndex,training.thisRepN,training.thisTrialN,training.thisN,training.thisIndex,task1_prac_redo.thisRepN,task1_prac_redo.thisTrialN,task1_prac_redo.thisN,task1_prac_redo.thisIndex,task1_prac_trials.thisRepN,task1_prac_trials.thisTrialN,task1_prac_trials.thisN,task1_prac_trials.thisIndex,task2_prac_redo.thisRepN,task2_prac_redo.thisTrialN,task2_prac_redo.thisN,task2_prac_redo.thisIndex,task2_praac_trials.thisRepN,task2_praac_trials.thisTrialN,task2_praac_trials.thisN,task2_praac_trials.thisIndex,vts_prac_redo.thisRepN,vts_prac_redo.thisTrialN,vts_prac_redo.thisN,vts_prac_redo.thisIndex,vts_practice_trials.thisRepN,vts_practice_trials.thisTrialN,vts_practice_trials.thisN,vts_practice_trials.thisIndex,trials_norew.thisRepN,trials_norew.thisTrialN,trials_norew.thisN,trials_norew.thisIndex,block.thisRepN,block.thisTrialN,block.thisN,block.thisIndex,trials_rew.thisRepN,trials_rew.thisTrialN,trials_rew.thisN,trials_rew.thisIndex,key_resp.started,key_resp.keys,key_resp.rt,left_circle.started,right_circle.started,left_triangle.started,right_triangle.started,left_star.started,right_star.started,left_hexagon.started,right_hexagon.started,training_fix.started,training_resp.started,training_resp.keys,training_resp.rt,points_trial,points_cumul,trainBlock,training_feedback_txt.started,training_feedback_txt.stopped,fix.started,fix.stopped,curr_topStim,curr_bottStim,curr_shape,ISI.started,tgt_fix_prac1.started,top_target_prac1.started,bott_target_prac1.started,target_resp_prac1.started,top_target_prac1.stopped,tgt_fix_prac1.stopped,bott_target_prac1.stopped,target_resp_prac1.stopped,acc,E1,target_resp_prac1.keys,pracBlock,prac_fback_text.started,prac_fback_text.stopped,target_resp_prac1.rt,tgt_fix_prac2.started,top_target_prac2.started,bott_target_prac2.started,target_resp_prac2.started,target_resp_prac2.keys,target_resp_prac2.rt,star.started,hegagon.started,triangle.started,circle.started,top_target.started,tgt_fix.started,bot_target.started,target_resp.started,star.stopped,hegagon.stopped,triangle.stopped,circle.stopped,alt,task,condition,target_resp.keys,target_resp.rt,rewCond,vts_fback.started,vts_fback.stopped,top_target.stopped,tgt_fix.stopped,bot_target.stopped,target_resp.stopped,blockNum,norew_fback.started,norew_fback.stopped,key_resp_2.keys,key_resp_2.rt,rewExpectancy,feedbk_text.started,feedbk_text.stopped,text_3.started,debrief.started,text_3.stopped,button.started,debrief.index,debrief.itemText,debrief.type,debrief.granularity,debrief.font,debrief.markerColor,debrief.response,debrief.rt,button.numClicks,button.timesOn,button.timesOff,participant,date,expName,psychopyVersion,frameRate,
,,,,,,,,,,,,,,,,,,,,,,,,,,,,,,,,,,,,,,,,,,,,,,,,,,,,,,974.4819632520084,space,18.370870932994876,,,,,,,,,,,,,,,,,,,,,,,,,,,,,,,,,,,,,,,,,,,,,,,,,,,,,,,,,,,,,,,,,,,,,,,,,,,,,,,,,,,,,,,,,,,,37040,2022-11-22_10h17.54.641,vts_reward_expectancy_bt_OFFLINE,2022.2.4,60.063949969640696,
0,0,1,0,0,0,0,1,hexagon,star,0,0,0,0,0,0,0,8,,,,,,,,,,,,,,,,,,,,,,,,,,,,,,,,,,,,,,,,1022.2690848970087,1022.2690848970087,1022.2690848970087,1022.2690848970087,1022.2690848970087,1022.2690848970087,1022.2690848970087,1022.2690848970087,1022.2690848970087,1022.2690848970087,a,1.8841492659703363,1,1,0,1024.1697209810081,1025.6716741929995,1025.6716741929995,,,,,,,,,,,,,,,,,,,,,,,,,,,,,,,,,,,,,,,,,,,,,,,,,,,,,,,,,,,,,,,,,,,,,,,,,,37040,2022-11-22_10h17.54.641,vts_reward_expectancy_bt_OFFLINE,2022.2.4,60.063949969640696,
0,0,0,1,0,1,0,0,star ,circle,0,0,0,0,0,1,1,10,,,,,,,,,,,,,,,,,,,,,,,,,,,,,,,,,,,,,,,,1026.172105456004,1026.172105456004,1026.172105456004,1026.172105456004,1026.172105456004,1026.172105456004,1026.172105456004,1026.172105456004,1026.172105456004,1026.172105456004,l,1.445165455021197,10,11,0,1027.6403363110148,,1029.1419718320249,,,,,,,,,,,,,,,,,,,,,,,,,,,,,,,,,,,,,,,,,,,,,,,,,,,,,,,,,,,,,,,,,,,,,,,,,,37040,2022-11-22_10h17.54.641,vts_reward_expectancy_bt_OFFLINE,2022.2.4,60.063949969640696,
0,0,0,1,0,0,1,0,star,hexagon,0,0,0,0,0,2,2,11,,,,,,,,,,,,,,,,,,,,,,,,,,,,,,,,,,,,,,,,1029.642583962006,1029.642583962006,1029.642583962006,1029.642583962006,1029.642583962006,1029.642583962006,1029.642583962006,1029.642583962006,1029.642583962006,1029.642583962006,l,1.1024901889904868,10,21,0,1030.777114615019,,1032.2788449980144,,,,,,,,,,,,,,,,,,,,,,,,,,,,,,,,,,,,,,,,,,,,,,,,,,,,,,,,,,,,,,,,,,,,,,,,,,37040,2022-11-22_10h17.54.641,vts_reward_expectancy_bt_OFFLINE,2022.2.4,60.063949969640696,
0,1,0,0,0,0,1,0,circle,hexagon,0,0,0,0,0,3,3,4,,,,,,,,,,,,,,,,,,,,,,,,,,,,,,,,,,,,,,,,1032.7794291900063,1032.7794291900063,1032.7794291900063,1032.7794291900063,1032.7794291900063,1032.7794291900063,1032.7794291900063,1032.7794291900063,1032.7794291900063,1032.7794291900063,l,1.836056481988635,10,31,0,1034.6481462630036,,1036.1497255350114,,,,,,,,,,,,,,,,,,,,,,,,,,,,,,,,,,,,,,,,,,,,,,,,,,,,,,,,,,,,,,,,,,,,,,,,,,37040,2022-11-22_10h17.54.641,vts_reward_expectancy_bt_OFFLINE,2022.2.4,60.063949969640696,
0,0,1,0,1,0,0,0,hexagon,triangle,0,0,0,0,0,4,4,6,,,,,,,,,,,,,,,,,,,,,,,,,,,,,,,,,,,,,,,,1036.650364590023,1036.650364590023,1036.650364590023,1036.650364590023,1036.650364590023,1036.650364590023,1036.650364590023,1036.650364590023,1036.650364590023,1036.650364590023,a,1.1265031580114737,1,32,0,1037.8016684400209,,1039.303320586012,,,,,,,,,,,,,,,,,,,,,,,,,,,,,,,,,,,,,,,,,,,,,,,,,,,,,,,,,,,,,,,,,,,,,,,,,,37040,2022-11-22_10h17.54.641,vts_reward_expectancy_bt_OFFLINE,2022.2.4,60.063949969640696,
0,1,0,0,1,0,0,0,circle,triangle,0,0,0,0,0,5,5,3,,,,,,,,,,,,,,,,,,,,,,,,,,,,,,,,,,,,,,,,1039.803744247998,1039.803744247998,1039.803744247998,1039.803744247998,1039.803744247998,1039.803744247998,1039.803744247998,1039.803744247998,1039.803744247998,1039.803744247998,a,1.6635436190117616,1,33,0,1041.4888739160087,,1042.9906912550214,,,,,,,,,,,,,,,,,,,,,,,,,,,,,,,,,,,,,,,,,,,,,,,,,,,,,,,,,,,,,,,,,,,,,,,,,,37040,2022-11-22_10h17.54.641,vts_reward_expectancy_bt_OFFLINE,2022.2.4,60.063949969640696,
1,0,0,0,0,0,0,1,triangle,star,0,0,0,0,0,6,6,2,,,,,,,,,,,,,,,,,,,,,,,,,,,,,,,,,,,,,,,,1043.4912435550068,1043.4912435550068,1043.4912435550068,1043.4912435550068,1043.4912435550068,1043.4912435550068,1043.4912435550068,1043.4912435550068,1043.4912435550068,1043.4912435550068,a,0.9464284749992657,1,34,0,1044.4590651460167,,1045.9605519280012,,,,,,,,,,,,,,,,,,,,,,,,,,,,,,,,,,,,,,,,,,,,,,,,,,,,,,,,,,,,,,,,,,,,,,,,,,37040,2022-11-22_10h17.54.641,vts_reward_expectancy_bt_OFFLINE,2022.2.4,60.063949969640696,
1,0,0,0,0,1,0,0,triangle,circle,0,0,0,0,0,7,7,0,,,,,,,,,,,,,,,,,,,,,,,,,,,,,,,,,,,,,,,,1046.4611907979997,1046.4611907979997,1046.4611907979997,1046.4611907979997,1046.4611907979997,1046.4611907979997,1046.4611907979997,1046.4611907979997,1046.4611907979997,1046.4611907979997,a,1.1039373139792588,1,35,0,1047.5956987920217,,1049.0974429600174,,,,,,,,,,,,,,,,,,,,,,,,,,,,,,,,,,,,,,,,,,,,,,,,,,,,,,,,,,,,,,,,,,,,,,,,,,37040,2022-11-22_10h17.54.641,vts_reward_expectancy_bt_OFFLINE,2022.2.4,60.063949969640696,
0,1,0,0,0,0,0,1,circle,star,0,0,0,0,0,8,8,5,,,,,,,,,,,,,,,,,,,,,,,,,,,,,,,,,,,,,,,,1049.597931922006,1049.597931922006,1049.597931922006,1049.597931922006,1049.597931922006,1049.597931922006,1049.597931922006,1049.597931922006,1049.597931922006,1049.597931922006,l,1.016971884004306,1,36,0,1050.6323750450101,,1052.1342139110202,,,,,,,,,,,,,,,,,,,,,,,,,,,,,,,,,,,,,,,,,,,,,,,,,,,,,,,,,,,,,,,,,,,,,,,,,,37040,2022-11-22_10h17.54.641,vts_reward_expectancy_bt_OFFLINE,2022.2.4,60.063949969640696,
0,0,1,0,0,1,0,0,hexagon,circle,0,0,0,0,0,9,9,7,,,,,,,,,,,,,,,,,,,,,,,,,,,,,,,,,,,,,,,,1052.6345932050026,1052.6345932050026,1052.6345932050026,1052.6345932050026,1052.6345932050026,1052.6345932050026,1052.6345932050026,1052.6345932050026,1052.6345932050026,1052.6345932050026,a,1.1973367260070518,10,46,0,1053.8525898310181,,1055.3541268210101,,,,,,,,,,,,,,,,,,,,,,,,,,,,,,,,,,,,,,,,,,,,,,,,,,,,,,,,,,,,,,,,,,,,,,,,,,37040,2022-11-22_10h17.54.641,vts_reward_expectancy_bt_OFFLINE,2022.2.4,60.063949969640696,
1,0,0,0,0,0,1,0,triangle,hexagon,0,0,0,0,0,10,10,1,,,,,,,,,,,,,,,,,,,,,,,,,,,,,,,,,,,,,,,,1055.8548948530224,1055.8548948530224,1055.8548948530224,1055.8548948530224,1055.8548948530224,1055.8548948530224,1055.8548948530224,1055.8548948530224,1055.8548948530224,1055.8548948530224,l,1.0488901500066277,1,47,0,1056.922681377997,,1058.4243516050046,,,,,,,,,,,,,,,,,,,,,,,,,,,,,,,,,,,,,,,,,,,,,,,,,,,,,,,,,,,,,,,,,,,,,,,,,,37040,2022-11-22_10h17.54.641,vts_reward_expectancy_bt_OFFLINE,2022.2.4,60.063949969640696,
0,0,0,1,1,0,0,0,star,triangle,0,0,0,0,0,11,11,9,,,,,,,,,,,,,,,,,,,,,,,,,,,,,,,,,,,,,,,,1058.92506637302,1058.92506637302,1058.92506637302,1058.92506637302,1058.92506637302,1058.92506637302,1058.92506637302,1058.92506637302,1058.92506637302,1058.92506637302,a,1.2969211979943793,1,48,0,1060.2430943880172,,1061.744536437007,,,,,,,,,,,,,,,,,,,,,,,,,,,,,,,,,,,,,,,,,,,,,,,,,,,,,,,,,,,,,,,,,,,,,,,,,,37040,2022-11-22_10h17.54.641,vts_reward_expectancy_bt_OFFLINE,2022.2.4,60.063949969640696,
0,0,0,1,1,0,0,0,star,triangle,0,0,0,0,1,0,12,9,,,,,,,,,,,,,,,,,,,,,,,,,,,,,,,,,,,,,,,,1062.24504474501,1062.24504474501,1062.24504474501,1062.24504474501,1062.24504474501,1062.24504474501,1062.24504474501,1062.24504474501,1062.24504474501,1062.24504474501,l,0.992137836990878,10,58,0,1063.2628760230145,,1064.7647748379968,,,,,,,,,,,,,,,,,,,,,,,,,,,,,,,,,,,,,,,,,,,,,,,,,,,,,,,,,,,,,,,,,,,,,,,,,,37040,2022-11-22_10h17.54.641,vts_reward_expectancy_bt_OFFLINE,2022.2.4,60.063949969640696,
0,1,0,0,1,0,0,0,circle,triangle,0,0,0,0,1,1,13,3,,,,,,,,,,,,,,,,,,,,,,,,,,,,,,,,,,,,,,,,1065.265272885008,1065.265272885008,1065.265272885008,1065.265272885008,1065.265272885008,1065.265272885008,1065.265272885008,1065.265272885008,1065.265272885008,1065.265272885008,l,0.9084343010035809,1,59,0,1066.1996918650111,,1067.701358426013,,,,,,,,,,,,,,,,,,,,,,,,,,,,,,,,,,,,,,,,,,,,,,,,,,,,,,,,,,,,,,,,,,,,,,,,,,37040,2022-11-22_10h17.54.641,vts_reward_expectancy_bt_OFFLINE,2022.2.4,60.063949969640696,
0,0,0,1,0,0,1,0,star,hexagon,0,0,0,0,1,2,14,11,,,,,,,,,,,,,,,,,,,,,,,,,,,,,,,,,,,,,,,,1068.2016693170008,1068.2016693170008,1068.2016693170008,1068.2016693170008,1068.2016693170008,1068.2016693170008,1068.2016693170008,1068.2016693170008,1068.2016693170008,1068.2016693170008,l,1.0550002510135528,1,60,0,1069.2861224900116,,1070.787954422005,,,,,,,,,,,,,,,,,,,,,,,,,,,,,,,,,,,,,,,,,,,,,,,,,,,,,,,,,,,,,,,,,,,,,,,,,,37040,2022-11-22_10h17.54.641,vts_reward_expectancy_bt_OFFLINE,2022.2.4,60.063949969640696,
0,0,1,0,0,0,0,1,hexagon,star,0,0,0,0,1,3,15,8,,,,,,,,,,,,,,,,,,,,,,,,,,,,,,,,,,,,,,,,1071.2886542780034,1071.2886542780034,1071.2886542780034,1071.2886542780034,1071.2886542780034,1071.2886542780034,1071.2886542780034,1071.2886542780034,1071.2886542780034,1071.2886542780034,a,1.018749240989564,10,70,0,1072.3396509770246,,1073.8413261910027,,,,,,,,,,,,,,,,,,,,,,,,,,,,,,,,,,,,,,,,,,,,,,,,,,,,,,,,,,,,,,,,,,,,,,,,,,37040,2022-11-22_10h17.54.641,vts_reward_expectancy_bt_OFFLINE,2022.2.4,60.063949969640696,
0,0,1,0,0,1,0,0,hexagon,circle,0,0,0,0,1,4,16,7,,,,,,,,,,,,,,,,,,,,,,,,,,,,,,,,,,,,,,,,1074.342054970999,1074.342054970999,1074.342054970999,1074.342054970999,1074.342054970999,1074.342054970999,1074.342054970999,1074.342054970999,1074.342054970999,1074.342054970999,a,1.385037549014669,10,80,0,1075.7436455330171,1077.2451550630212,1077.2451550630212,,,,,,,,,,,,,,,,,,,,,,,,,,,,,,,,,,,,,,,,,,,,,,,,,,,,,,,,,,,,,,,,,,,,,,,,,,37040,2022-11-22_10h17.54.641,vts_reward_expectancy_bt_OFFLINE,2022.2.4,60.063949969640696,
1,0,0,0,0,0,1,0,triangle,hexagon,0,0,0,0,1,5,17,1,,,,,,,,,,,,,,,,,,,,,,,,,,,,,,,,,,,,,,,,1077.745759842015,1077.745759842015,1077.745759842015,1077.745759842015,1077.745759842015,1077.745759842015,1077.745759842015,1077.745759842015,1077.745759842015,1077.745759842015,l,1.2536529219942167,10,90,0,1079.0304672030034,,1080.532001421001,,,,,,,,,,,,,,,,,,,,,,,,,,,,,,,,,,,,,,,,,,,,,,,,,,,,,,,,,,,,,,,,,,,,,,,,,,37040,2022-11-22_10h17.54.641,vts_reward_expectancy_bt_OFFLINE,2022.2.4,60.063949969640696,
0,0,1,0,1,0,0,0,hexagon,triangle,0,0,0,0,1,6,18,6,,,,,,,,,,,,,,,,,,,,,,,,,,,,,,,,,,,,,,,,1081.0325121619971,1081.0325121619971,1081.0325121619971,1081.0325121619971,1081.0325121619971,1081.0325121619971,1081.0325121619971,1081.0325121619971,1081.0325121619971,1081.0325121619971,a,1.5110976739961188,10,100,0,1082.567510901019,,1084.0692104850023,,,,,,,,,,,,,,,,,,,,,,,,,,,,,,,,,,,,,,,,,,,,,,,,,,,,,,,,,,,,,,,,,,,,,,,,,,37040,2022-11-22_10h17.54.641,vts_reward_expectancy_bt_OFFLINE,2022.2.4,60.063949969640696,
1,0,0,0,0,1,0,0,triangle,circle,0,0,0,0,1,7,19,0,,,,,,,,,,,,,,,,,,,,,,,,,,,,,,,,,,,,,,,,1084.5697875760088,1084.5697875760088,1084.5697875760088,1084.5697875760088,1084.5697875760088,1084.5697875760088,1084.5697875760088,1084.5697875760088,1084.5697875760088,1084.5697875760088,a,1.4726162159931846,1,101,0,1086.0715053750027,,1087.5730356080167,,,,,,,,,,,,,,,,,,,,,,,,,,,,,,,,,,,,,,,,,,,,,,,,,,,,,,,,,,,,,,,,,,,,,,,,,,37040,2022-11-22_10h17.54.641,vts_reward_expectancy_bt_OFFLINE,2022.2.4,60.063949969640696,
0,0,0,1,0,1,0,0,star ,circle,0,0,0,0,1,8,20,10,,,,,,,,,,,,,,,,,,,,,,,,,,,,,,,,,,,,,,,,1088.0736379180162,1088.0736379180162,1088.0736379180162,1088.0736379180162,1088.0736379180162,1088.0736379180162,1088.0736379180162,1088.0736379180162,1088.0736379180162,1088.0736379180162,l,0.9182777520036325,1,102,0,1089.024544917018,,1090.5264710269985,,,,,,,,,,,,,,,,,,,,,,,,,,,,,,,,,,,,,,,,,,,,,,,,,,,,,,,,,,,,,,,,,,,,,,,,,,37040,2022-11-22_10h17.54.641,vts_reward_expectancy_bt_OFFLINE,2022.2.4,60.063949969640696,
0,1,0,0,0,0,0,1,circle,star,0,0,0,0,1,9,21,5,,,,,,,,,,,,,,,,,,,,,,,,,,,,,,,,,,,,,,,,1091.0268422620138,1091.0268422620138,1091.0268422620138,1091.0268422620138,1091.0268422620138,1091.0268422620138,1091.0268422620138,1091.0268422620138,1091.0268422620138,1091.0268422620138,l,1.1024094510066789,10,112,0,1092.1614654080186,,1093.6631431530113,,,,,,,,,,,,,,,,,,,,,,,,,,,,,,,,,,,,,,,,,,,,,,,,,,,,,,,,,,,,,,,,,,,,,,,,,,37040,2022-11-22_10h17.54.641,vts_reward_expectancy_bt_OFFLINE,2022.2.4,60.063949969640696,
0,1,0,0,0,0,1,0,circle,hexagon,0,0,0,0,1,10,22,4,,,,,,,,,,,,,,,,,,,,,,,,,,,,,,,,,,,,,,,,1094.1636117880116,1094.1636117880116,1094.1636117880116,1094.1636117880116,1094.1636117880116,1094.1636117880116,1094.1636117880116,1094.1636117880116,1094.1636117880116,1094.1636117880116,l,0.8117216160171665,1,113,0,1094.9979241550027,,1096.4996442280244,,,,,,,,,,,,,,,,,,,,,,,,,,,,,,,,,,,,,,,,,,,,,,,,,,,,,,,,,,,,,,,,,,,,,,,,,,37040,2022-11-22_10h17.54.641,vts_reward_expectancy_bt_OFFLINE,2022.2.4,60.063949969640696,
1,0,0,0,0,0,0,1,triangle,star,0,0,0,0,1,11,23,2,,,,,,,,,,,,,,,,,,,,,,,,,,,,,,,,,,,,,,,,1097.000233644998,1097.000233644998,1097.000233644998,1097.000233644998,1097.000233644998,1097.000233644998,1097.000233644998,1097.000233644998,1097.000233644998,1097.000233644998,a,0.8784157289774157,1,114,0,1097.9012661300076,,1099.4028366160055,,,,,,,,,,,,,,,,,,,,,,,,,,,,,,,,,,,,,,,,,,,,,,,,,,,,,,,,,,,,,,,,,,,,,,,,,,37040,2022-11-22_10h17.54.641,vts_reward_expectancy_bt_OFFLINE,2022.2.4,60.063949969640696,
0,0,1,0,0,0,0,1,hexagon,star,0,0,0,0,2,0,24,8,,,,,,,,,,,,,,,,,,,,,,,,,,,,,,,,,,,,,,,,1099.9033368420205,1099.9033368420205,1099.9033368420205,1099.9033368420205,1099.9033368420205,1099.9033368420205,1099.9033368420205,1099.9033368420205,1099.9033368420205,1099.9033368420205,a,0.7877170249994379,1,115,0,1100.7209817510156,,1102.2228547430132,,,,,,,,,,,,,,,,,,,,,,,,,,,,,,,,,,,,,,,,,,,,,,,,,,,,,,,,,,,,,,,,,,,,,,,,,,37040,2022-11-22_10h17.54.641,vts_reward_expectancy_bt_OFFLINE,2022.2.4,60.063949969640696,
0,1,0,0,0,0,1,0,circle,hexagon,0,0,0,0,2,1,25,4,,,,,,,,,,,,,,,,,,,,,,,,,,,,,,,,,,,,,,,,1102.72324846001,1102.72324846001,1102.72324846001,1102.72324846001,1102.72324846001,1102.72324846001,1102.72324846001,1102.72324846001,1102.72324846001,1102.72324846001,l,0.6016147659975104,10,125,0,1103.3572766830039,,1104.8589519080124,,,,,,,,,,,,,,,,,,,,,,,,,,,,,,,,,,,,,,,,,,,,,,,,,,,,,,,,,,,,,,,,,,,,,,,,,,37040,2022-11-22_10h17.54.641,vts_reward_expectancy_bt_OFFLINE,2022.2.4,60.063949969640696,
0,0,0,1,1,0,0,0,star,triangle,0,0,0,0,2,2,26,9,,,,,,,,,,,,,,,,,,,,,,,,,,,,,,,,,,,,,,,,1105.3595887670235,1105.3595887670235,1105.3595887670235,1105.3595887670235,1105.3595887670235,1105.3595887670235,1105.3595887670235,1105.3595887670235,1105.3595887670235,1105.3595887670235,a,1.9698940020170994,10,135,0,1107.361557087017,,1108.8633854070213,,,,,,,,,,,,,,,,,,,,,,,,,,,,,,,,,,,,,,,,,,,,,,,,,,,,,,,,,,,,,,,,,,,,,,,,,,37040,2022-11-22_10h17.54.641,vts_reward_expectancy_bt_OFFLINE,2022.2.4,60.063949969640696,
0,1,0,0,1,0,0,0,circle,triangle,0,0,0,0,2,3,27,3,,,,,,,,,,,,,,,,,,,,,,,,,,,,,,,,,,,,,,,,1109.3637505560182,1109.3637505560182,1109.3637505560182,1109.3637505560182,1109.3637505560182,1109.3637505560182,1109.3637505560182,1109.3637505560182,1109.3637505560182,1109.3637505560182,a,0.9691239960084204,1,136,0,1110.3648057070095,,1111.866706847999,,,,,,,,,,,,,,,,,,,,,,,,,,,,,,,,,,,,,,,,,,,,,,,,,,,,,,,,,,,,,,,,,,,,,,,,,,37040,2022-11-22_10h17.54.641,vts_reward_expectancy_bt_OFFLINE,2022.2.4,60.063949969640696,
0,1,0,0,0,0,0,1,circle,star,0,0,0,0,2,4,28,5,,,,,,,,,,,,,,,,,,,,,,,,,,,,,,,,,,,,,,,,1112.3672026610002,1112.3672026610002,1112.3672026610002,1112.3672026610002,1112.3672026610002,1112.3672026610002,1112.3672026610002,1112.3672026610002,1112.3672026610002,1112.3672026610002,a,1.4425430400006007,1,137,0,1113.8353992580087,,1115.3371316630219,,,,,,,,,,,,,,,,,,,,,,,,,,,,,,,,,,,,,,,,,,,,,,,,,,,,,,,,,,,,,,,,,,,,,,,,,,37040,2022-11-22_10h17.54.641,vts_reward_expectancy_bt_OFFLINE,2022.2.4,60.063949969640696,
1,0,0,0,0,0,0,1,triangle,star,0,0,0,0,2,5,29,2,,,,,,,,,,,,,,,,,,,,,,,,,,,,,,,,,,,,,,,,1115.8376237600169,1115.8376237600169,1115.8376237600169,1115.8376237600169,1115.8376237600169,1115.8376237600169,1115.8376237600169,1115.8376237600169,1115.8376237600169,1115.8376237600169,l,1.335838856000919,1,138,0,1117.2057563410199,,1118.7075018660107,,,,,,,,,,,,,,,,,,,,,,,,,,,,,,,,,,,,,,,,,,,,,,,,,,,,,,,,,,,,,,,,,,,,,,,,,,37040,2022-11-22_10h17.54.641,vts_reward_expectancy_bt_OFFLINE,2022.2.4,60.063949969640696,
1,0,0,0,0,0,1,0,triangle,hexagon,0,0,0,0,2,6,30,1,,,,,,,,,,,,,,,,,,,,,,,,,,,,,,,,,,,,,,,,1119.2079960170086,1119.2079960170086,1119.2079960170086,1119.2079960170086,1119.2079960170086,1119.2079960170086,1119.2079960170086,1119.2079960170086,1119.2079960170086,1119.2079960170086,l,1.6012712810188532,10,148,0,1120.8264388020034,1122.3282229560136,1122.3282229560136,1122.828739360004,,,,,,,,,,,,,,,,,,,,,,,,,,,,,,,,,,,,,,,,,,,,,,,,,,,,,,,,,,,,,,,,,,,,,,,,,37040,2022-11-22_10h17.54.641,vts_reward_expectancy_bt_OFFLINE,2022.2.4,60.063949969640696,
0,0,1,0,0,1,0,0,hexagon,circle,0,0,0,0,2,7,31,7,,,,,,,,,,,,,,,,,,,,,,,,,,,,,,,,,,,,,,,,1122.828739360004,1122.828739360004,1122.828739360004,1122.828739360004,1122.828739360004,1122.828739360004,1122.828739360004,1122.828739360004,1122.828739360004,1122.828739360004,a,0.9935148840013426,10,158,0,1123.8465072450053,,1125.3480210950074,,,,,,,,,,,,,,,,,,,,,,,,,,,,,,,,,,,,,,,,,,,,,,,,,,,,,,,,,,,,,,,,,,,,,,,,,,37040,2022-11-22_10h17.54.641,vts_reward_expectancy_bt_OFFLINE,2022.2.4,60.063949969640696,
1,0,0,0,0,1,0,0,triangle,circle,0,0,0,0,2,8,32,0,,,,,,,,,,,,,,,,,,,,,,,,,,,,,,,,,,,,,,,,1125.8486384720018,1125.8486384720018,1125.8486384720018,1125.8486384720018,1125.8486384720018,1125.8486384720018,1125.8486384720018,1125.8486384720018,1125.8486384720018,1125.8486384720018,a,2.250369576009689,10,168,0,1128.1178193630185,,1129.6194736949983,,,,,,,,,,,,,,,,,,,,,,,,,,,,,,,,,,,,,,,,,,,,,,,,,,,,,,,,,,,,,,,,,,,,,,,,,,37040,2022-11-22_10h17.54.641,vts_reward_expectancy_bt_OFFLINE,2022.2.4,60.063949969640696,
0,0,0,1,0,1,0,0,star ,circle,0,0,0,0,2,9,33,10,,,,,,,,,,,,,,,,,,,,,,,,,,,,,,,,,,,,,,,,1130.120227448002,1130.120227448002,1130.120227448002,1130.120227448002,1130.120227448002,1130.120227448002,1130.120227448002,1130.120227448002,1130.120227448002,1130.120227448002,a,1.9610706429812126,10,178,0,1132.105594718014,,1133.607414468017,,,,,,,,,,,,,,,,,,,,,,,,,,,,,,,,,,,,,,,,,,,,,,,,,,,,,,,,,,,,,,,,,,,,,,,,,,37040,2022-11-22_10h17.54.641,vts_reward_expectancy_bt_OFFLINE,2022.2.4,60.063949969640696,
0,0,0,1,0,0,1,0,star,hexagon,0,0,0,0,2,10,34,11,,,,,,,,,,,,,,,,,,,,,,,,,,,,,,,,,,,,,,,,1134.1078145980136,1134.1078145980136,1134.1078145980136,1134.1078145980136,1134.1078145980136,1134.1078145980136,1134.1078145980136,1134.1078145980136,1134.1078145980136,1134.1078145980136,l,0.7086253019806463,10,188,0,1134.842005486018,,1136.3437506520131,,,,,,,,,,,,,,,,,,,,,,,,,,,,,,,,,,,,,,,,,,,,,,,,,,,,,,,,,,,,,,,,,,,,,,,,,,37040,2022-11-22_10h17.54.641,vts_reward_expectancy_bt_OFFLINE,2022.2.4,60.063949969640696,
0,0,1,0,1,0,0,0,hexagon,triangle,0,0,0,0,2,11,35,6,,,,,,,,,,,,,,,,,,,,,,,,,,,,,,,,,,,,,,,,1136.8443899679987,1136.8443899679987,1136.8443899679987,1136.8443899679987,1136.8443899679987,1136.8443899679987,1136.8443899679987,1136.8443899679987,1136.8443899679987,1136.8443899679987,a,1.289043713011779,1,189,0,1138.162379565998,,1139.6642514230043,,,,,,,,,,,,,,,,,,,,,,,,,,,,,,,,,,,,,,,,,,,,,,,,,,,,,,,,,,,,,,,,,,,,,,,,,,37040,2022-11-22_10h17.54.641,vts_reward_expectancy_bt_OFFLINE,2022.2.4,60.063949969640696,
1,0,0,0,0,0,0,1,triangle,star,0,0,0,0,3,0,36,2,,,,,,,,,,,,,,,,,,,,,,,,,,,,,,,,,,,,,,,,1140.1644330080017,1140.1644330080017,1140.1644330080017,1140.1644330080017,1140.1644330080017,1140.1644330080017,1140.1644330080017,1140.1644330080017,1140.1644330080017,1140.1644330080017,a,1.1754947560257278,10,199,0,1141.3656555570196,,1142.867441563023,,,,,,,,,,,,,,,,,,,,,,,,,,,,,,,,,,,,,,,,,,,,,,,,,,,,,,,,,,,,,,,,,,,,,,,,,,37040,2022-11-22_10h17.54.641,vts_reward_expectancy_bt_OFFLINE,2022.2.4,60.063949969640696,
0,0,0,1,0,0,1,0,star,hexagon,0,0,0,0,3,1,37,11,,,,,,,,,,,,,,,,,,,,,,,,,,,,,,,,,,,,,,,,1143.3679336410132,1143.3679336410132,1143.3679336410132,1143.3679336410132,1143.3679336410132,1143.3679336410132,1143.3679336410132,1143.3679336410132,1143.3679336410132,1143.3679336410132,l,2.438508051011013,10,209,0,1145.8374904230004,,1147.3390338630124,,,,,,,,,,,,,,,,,,,,,,,,,,,,,,,,,,,,,,,,,,,,,,,,,,,,,,,,,,,,,,,,,,,,,,,,,,37040,2022-11-22_10h17.54.641,vts_reward_expectancy_bt_OFFLINE,2022.2.4,60.063949969640696,
0,0,1,0,0,1,0,0,hexagon,circle,0,0,0,0,3,2,38,7,,,,,,,,,,,,,,,,,,,,,,,,,,,,,,,,,,,,,,,,1147.839522727998,1147.839522727998,1147.839522727998,1147.839522727998,1147.839522727998,1147.839522727998,1147.839522727998,1147.839522727998,1147.839522727998,1147.839522727998,a,2.0629648710018955,10,219,0,1149.9252669630223,,1151.4270666149969,,,,,,,,,,,,,,,,,,,,,,,,,,,,,,,,,,,,,,,,,,,,,,,,,,,,,,,,,,,,,,,,,,,,,,,,,,37040,2022-11-22_10h17.54.641,vts_reward_expectancy_bt_OFFLINE,2022.2.4,60.063949969640696,
1,0,0,0,0,1,0,0,triangle,circle,0,0,0,0,3,3,39,0,,,,,,,,,,,,,,,,,,,,,,,,,,,,,,,,,,,,,,,,1151.9275213720102,1151.9275213720102,1151.9275213720102,1151.9275213720102,1151.9275213720102,1151.9275213720102,1151.9275213720102,1151.9275213720102,1151.9275213720102,1151.9275213720102,a,3.4784957619849592,1,220,0,1155.4314771250065,1156.9329149800178,1156.9329149800178,,,,,,,,,,,,,,,,,,,,,,,,,,,,,,,,,,,,,,,,,,,,,,,,,,,,,,,,,,,,,,,,,,,,,,,,,,37040,2022-11-22_10h17.54.641,vts_reward_expectancy_bt_OFFLINE,2022.2.4,60.063949969640696,
0,1,0,0,0,0,0,1,circle,star,0,0,0,0,3,4,40,5,,,,,,,,,,,,,,,,,,,,,,,,,,,,,,,,,,,,,,,,1157.4334274280118,1157.4334274280118,1157.4334274280118,1157.4334274280118,1157.4334274280118,1157.4334274280118,1157.4334274280118,1157.4334274280118,1157.4334274280118,1157.4334274280118,l,1.4597016810148489,1,221,0,1158.91847331202,,1160.4203374360222,,,,,,,,,,,,,,,,,,,,,,,,,,,,,,,,,,,,,,,,,,,,,,,,,,,,,,,,,,,,,,,,,,,,,,,,,,37040,2022-11-22_10h17.54.641,vts_reward_expectancy_bt_OFFLINE,2022.2.4,60.063949969640696,
0,0,1,0,0,0,0,1,hexagon,star,0,0,0,0,3,5,41,8,,,,,,,,,,,,,,,,,,,,,,,,,,,,,,,,,,,,,,,,1160.9208638980053,1160.9208638980053,1160.9208638980053,1160.9208638980053,1160.9208638980053,1160.9208638980053,1160.9208638980053,1160.9208638980053,1160.9208638980053,1160.9208638980053,a,0.9972361859981902,1,222,0,1161.9387330450118,,1163.4401798120234,,,,,,,,,,,,,,,,,,,,,,,,,,,,,,,,,,,,,,,,,,,,,,,,,,,,,,,,,,,,,,,,,,,,,,,,,,37040,2022-11-22_10h17.54.641,vts_reward_expectancy_bt_OFFLINE,2022.2.4,60.063949969640696,
0,1,0,0,1,0,0,0,circle,triangle,0,0,0,0,3,6,42,3,,,,,,,,,,,,,,,,,,,,,,,,,,,,,,,,,,,,,,,,1163.940655895014,1163.940655895014,1163.940655895014,1163.940655895014,1163.940655895014,1163.940655895014,1163.940655895014,1163.940655895014,1163.940655895014,1163.940655895014,a,0.8253366529825144,1,223,0,1164.7916215830192,,1166.2934073720244,,,,,,,,,,,,,,,,,,,,,,,,,,,,,,,,,,,,,,,,,,,,,,,,,,,,,,,,,,,,,,,,,,,,,,,,,,37040,2022-11-22_10h17.54.641,vts_reward_expectancy_bt_OFFLINE,2022.2.4,60.063949969640696,
0,1,0,0,0,0,1,0,circle,hexagon,0,0,0,0,3,7,43,4,,,,,,,,,,,,,,,,,,,,,,,,,,,,,,,,,,,,,,,,1166.7938379950065,1166.7938379950065,1166.7938379950065,1166.7938379950065,1166.7938379950065,1166.7938379950065,1166.7938379950065,1166.7938379950065,1166.7938379950065,1166.7938379950065,l,0.6029765570128802,1,224,0,1167.4281418230094,,1168.929681892012,,,,,,,,,,,,,,,,,,,,,,,,,,,,,,,,,,,,,,,,,,,,,,,,,,,,,,,,,,,,,,,,,,,,,,,,,,37040,2022-11-22_10h17.54.641,vts_reward_expectancy_bt_OFFLINE,2022.2.4,60.063949969640696,
0,0,0,1,0,1,0,0,star ,circle,0,0,0,0,3,8,44,10,,,,,,,,,,,,,,,,,,,,,,,,,,,,,,,,,,,,,,,,1169.4303175850073,1169.4303175850073,1169.4303175850073,1169.4303175850073,1169.4303175850073,1169.4303175850073,1169.4303175850073,1169.4303175850073,1169.4303175850073,1169.4303175850073,l,1.2296559030073695,10,234,0,1170.681619592011,,1172.1831023810082,,,,,,,,,,,,,,,,,,,,,,,,,,,,,,,,,,,,,,,,,,,,,,,,,,,,,,,,,,,,,,,,,,,,,,,,,,37040,2022-11-22_10h17.54.641,vts_reward_expectancy_bt_OFFLINE,2022.2.4,60.063949969640696,
0,0,0,1,1,0,0,0,star,triangle,0,0,0,0,3,9,45,9,,,,,,,,,,,,,,,,,,,,,,,,,,,,,,,,,,,,,,,,1172.6836474010197,1172.6836474010197,1172.6836474010197,1172.6836474010197,1172.6836474010197,1172.6836474010197,1172.6836474010197,1172.6836474010197,1172.6836474010197,1172.6836474010197,l,2.2061084139859304,1,235,0,1174.9194462510059,,1176.4212296850164,,,,,,,,,,,,,,,,,,,,,,,,,,,,,,,,,,,,,,,,,,,,,,,,,,,,,,,,,,,,,,,,,,,,,,,,,,37040,2022-11-22_10h17.54.641,vts_reward_expectancy_bt_OFFLINE,2022.2.4,60.063949969640696,
1,0,0,0,0,0,1,0,triangle,hexagon,0,0,0,0,3,10,46,1,,,,,,,,,,,,,,,,,,,,,,,,,,,,,,,,,,,,,,,,1176.9217499430233,1176.9217499430233,1176.9217499430233,1176.9217499430233,1176.9217499430233,1176.9217499430233,1176.9217499430233,1176.9217499430233,1176.9217499430233,1176.9217499430233,l,1.2424391060194466,1,236,0,1178.1897630320163,,1179.6915087860252,,,,,,,,,,,,,,,,,,,,,,,,,,,,,,,,,,,,,,,,,,,,,,,,,,,,,,,,,,,,,,,,,,,,,,,,,,37040,2022-11-22_10h17.54.641,vts_reward_expectancy_bt_OFFLINE,2022.2.4,60.063949969640696,
0,0,1,0,1,0,0,0,hexagon,triangle,0,0,0,0,3,11,47,6,,,,,,,,,,,,,,,,,,,,,,,,,,,,,,,,,,,,,,,,1180.191977267008,1180.191977267008,1180.191977267008,1180.191977267008,1180.191977267008,1180.191977267008,1180.191977267008,1180.191977267008,1180.191977267008,1180.191977267008,a,1.1689382259792183,10,246,0,1181.3934220470255,,1182.8950295780087,,,,,,,,,,,,,,,,,,,,,,,,,,,,,,,,,,,,,,,,,,,,,,,,,,,,,,,,,,,,,,,,,,,,,,,,,,37040,2022-11-22_10h17.54.641,vts_reward_expectancy_bt_OFFLINE,2022.2.4,60.063949969640696,
0,0,1,0,0,0,0,1,hexagon,star,1,0,1,0,0,0,0,8,,,,,,,,,,,,,,,,,,,,,,,,,,,,,,,,,,,,,,,,1192.9560276160191,1192.9560276160191,1192.9560276160191,1192.9560276160191,1192.9560276160191,1192.9560276160191,1192.9560276160191,1192.9560276160191,1192.9560276160191,1192.9560276160191,a,1.2971129960205872,1,247,1,1194.2742040970188,,1195.7759134470252,,,,,,,,,,,,,,,,,,,,,,,,,,,,,,,,,,,,,,,,,,,,,,,,,,,,,,,,,,,,,,,,,,,,,,,,,,37040,2022-11-22_10h17.54.641,vts_reward_expectancy_bt_OFFLINE,2022.2.4,60.063949969640696,
0,0,0,1,0,0,1,0,star,hexagon,1,0,1,0,0,1,1,11,,,,,,,,,,,,,,,,,,,,,,,,,,,,,,,,,,,,,,,,1196.2763877300022,1196.2763877300022,1196.2763877300022,1196.2763877300022,1196.2763877300022,1196.2763877300022,1196.2763877300022,1196.2763877300022,1196.2763877300022,1196.2763877300022,l,0.6773822089890018,1,248,1,1196.9771118170174,1198.4787284570048,1198.4787284570048,,,,,,,,,,,,,,,,,,,,,,,,,,,,,,,,,,,,,,,,,,,,,,,,,,,,,,,,,,,,,,,,,,,,,,,,,,37040,2022-11-22_10h17.54.641,vts_reward_expectancy_bt_OFFLINE,2022.2.4,60.063949969640696,
0,0,1,0,1,0,0,0,hexagon,triangle,1,0,1,0,0,2,2,6,,,,,,,,,,,,,,,,,,,,,,,,,,,,,,,,,,,,,,,,1198.979153398017,1198.979153398017,1198.979153398017,1198.979153398017,1198.979153398017,1198.979153398017,1198.979153398017,1198.979153398017,1198.979153398017,1198.979153398017,a,0.9786169400031213,10,258,1,1199.9803953020019,,1201.4820701080025,,,,,,,,,,,,,,,,,,,,,,,,,,,,,,,,,,,,,,,,,,,,,,,,,,,,,,,,,,,,,,,,,,,,,,,,,,37040,2022-11-22_10h17.54.641,vts_reward_expectancy_bt_OFFLINE,2022.2.4,60.063949969640696,
0,0,1,0,0,1,0,0,hexagon,circle,1,0,1,0,0,3,3,7,,,,,,,,,,,,,,,,,,,,,,,,,,,,,,,,,,,,,,,,1201.9826065580128,1201.9826065580128,1201.9826065580128,1201.9826065580128,1201.9826065580128,1201.9826065580128,1201.9826065580128,1201.9826065580128,1201.9826065580128,1201.9826065580128,a,2.003032037988305,1,259,1,1204.0182960469974,,1205.5198378710193,,,,,,,,,,,,,,,,,,,,,,,,,,,,,,,,,,,,,,,,,,,,,,,,,,,,,,,,,,,,,,,,,,,,,,,,,,37040,2022-11-22_10h17.54.641,vts_reward_expectancy_bt_OFFLINE,2022.2.4,60.063949969640696,
1,0,0,0,0,1,0,0,triangle,circle,1,0,1,0,0,4,4,0,,,,,,,,,,,,,,,,,,,,,,,,,,,,,,,,,,,,,,,,1206.0203868300014,1206.0203868300014,1206.0203868300014,1206.0203868300014,1206.0203868300014,1206.0203868300014,1206.0203868300014,1206.0203868300014,1206.0203868300014,1206.0203868300014,l,1.4975324030092452,1,260,1,1207.5389702370157,,1209.0404436420067,,,,,,,,,,,,,,,,,,,,,,,,,,,,,,,,,,,,,,,,,,,,,,,,,,,,,,,,,,,,,,,,,,,,,,,,,,37040,2022-11-22_10h17.54.641,vts_reward_expectancy_bt_OFFLINE,2022.2.4,60.063949969640696,
0,1,0,0,0,0,0,1,circle,star,1,0,1,0,0,5,5,5,,,,,,,,,,,,,,,,,,,,,,,,,,,,,,,,,,,,,,,,1209.541111996019,1209.541111996019,1209.541111996019,1209.541111996019,1209.541111996019,1209.541111996019,1209.541111996019,1209.541111996019,1209.541111996019,1209.541111996019,a,6.540669526992133,1,261,1,1216.09825435502,1217.5999765029992,1217.5999765029992,,,,,,,,,,,,,,,,,,,,,,,,,,,,,,,,,,,,,,,,,,,,,,,,,,,,,,,,,,,,,,,,,,,,,,,,,,37040,2022-11-22_10h17.54.641,vts_reward_expectancy_bt_OFFLINE,2022.2.4,60.063949969640696,
0,1,0,0,1,0,0,0,circle,triangle,1,0,1,0,0,6,6,3,,,,,,,,,,,,,,,,,,,,,,,,,,,,,,,,,,,,,,,,1218.100417321024,1218.100417321024,1218.100417321024,1218.100417321024,1218.100417321024,1218.100417321024,1218.100417321024,1218.100417321024,1218.100417321024,1218.100417321024,a,1.5691888380097225,10,271,1,1219.7021998550044,,1221.2039277779986,,,,,,,,,,,,,,,,,,,,,,,,,,,,,,,,,,,,,,,,,,,,,,,,,,,,,,,,,,,,,,,,,,,,,,,,,,37040,2022-11-22_10h17.54.641,vts_reward_expectancy_bt_OFFLINE,2022.2.4,60.063949969640696,
0,0,0,1,1,0,0,0,star,triangle,1,0,1,0,0,7,7,9,,,,,,,,,,,,,,,,,,,,,,,,,,,,,,,,,,,,,,,,1221.7044285080046,1221.7044285080046,1221.7044285080046,1221.7044285080046,1221.7044285080046,1221.7044285080046,1221.7044285080046,1221.7044285080046,1221.7044285080046,1221.7044285080046,l,1.3619471669953782,1,272,1,1223.0892546700197,,1224.5912146570045,,,,,,,,,,,,,,,,,,,,,,,,,,,,,,,,,,,,,,,,,,,,,,,,,,,,,,,,,,,,,,,,,,,,,,,,,,37040,2022-11-22_10h17.54.641,vts_reward_expectancy_bt_OFFLINE,2022.2.4,60.063949969640696,
1,0,0,0,0,0,0,1,triangle,star,1,0,1,0,0,8,8,2,,,,,,,,,,,,,,,,,,,,,,,,,,,,,,,,,,,,,,,,1225.0916934980196,1225.0916934980196,1225.0916934980196,1225.0916934980196,1225.0916934980196,1225.0916934980196,1225.0916934980196,1225.0916934980196,1225.0916934980196,1225.0916934980196,a,2.217259812023258,10,282,1,1227.3274338070187,1228.8291437060107,1228.8291437060107,,,,,,,,,,,,,,,,,,,,,,,,,,,,,,,,,,,,,,,,,,,,,,,,,,,,,,,,,,,,,,,,,,,,,,,,,,37040,2022-11-22_10h17.54.641,vts_reward_expectancy_bt_OFFLINE,2022.2.4,60.063949969640696,
1,0,0,0,0,0,1,0,triangle,hexagon,1,0,1,0,0,9,9,1,,,,,,,,,,,,,,,,,,,,,,,,,,,,,,,,,,,,,,,,1229.3293079520226,1229.3293079520226,1229.3293079520226,1229.3293079520226,1229.3293079520226,1229.3293079520226,1229.3293079520226,1229.3293079520226,1229.3293079520226,1229.3293079520226,l,1.297887922002701,10,292,1,1230.6476143430045,,1232.1492424560129,,,,,,,,,,,,,,,,,,,,,,,,,,,,,,,,,,,,,,,,,,,,,,,,,,,,,,,,,,,,,,,,,,,,,,,,,,37040,2022-11-22_10h17.54.641,vts_reward_expectancy_bt_OFFLINE,2022.2.4,60.063949969640696,
0,0,0,1,0,1,0,0,star ,circle,1,0,1,0,0,10,10,10,,,,,,,,,,,,,,,,,,,,,,,,,,,,,,,,,,,,,,,,1232.650123755011,1232.650123755011,1232.650123755011,1232.650123755011,1232.650123755011,1232.650123755011,1232.650123755011,1232.650123755011,1232.650123755011,1232.650123755011,l,3.2544028599804733,1,293,1,1235.9367620510166,1237.438381451997,1237.438381451997,,,,,,,,,,,,,,,,,,,,,,,,,,,,,,,,,,,,,,,,,,,,,,,,,,,,,,,,,,,,,,,,,,,,,,,,,,37040,2022-11-22_10h17.54.641,vts_reward_expectancy_bt_OFFLINE,2022.2.4,60.063949969640696,
0,1,0,0,0,0,1,0,circle,hexagon,1,0,1,0,0,11,11,4,,,,,,,,,,,,,,,,,,,,,,,,,,,,,,,,,,,,,,,,1237.9390762850235,1237.9390762850235,1237.9390762850235,1237.9390762850235,1237.9390762850235,1237.9390762850235,1237.9390762850235,1237.9390762850235,1237.9390762850235,1237.9390762850235,l,1.3191802490036935,1,294,1,1239.290579588007,,1240.7921919960063,,,,,,,,,,,,,,,,,,,,,,,,,,,,,,,,,,,,,,,,,,,,,,,,,,,,,,,,,,,,,,,,,,,,,,,,,,37040,2022-11-22_10h17.54.641,vts_reward_expectancy_bt_OFFLINE,2022.2.4,60.063949969640696,
0,0,0,1,0,0,1,0,star,hexagon,1,0,1,0,1,0,12,11,,,,,,,,,,,,,,,,,,,,,,,,,,,,,,,,,,,,,,,,1241.29276978501,1241.29276978501,1241.29276978501,1241.29276978501,1241.29276978501,1241.29276978501,1241.29276978501,1241.29276978501,1241.29276978501,1241.29276978501,l,1.6092144800059032,1,295,1,1242.9279586550256,,1244.4295782580157,,,,,,,,,,,,,,,,,,,,,,,,,,,,,,,,,,,,,,,,,,,,,,,,,,,,,,,,,,,,,,,,,,,,,,,,,,37040,2022-11-22_10h17.54.641,vts_reward_expectancy_bt_OFFLINE,2022.2.4,60.063949969640696,
0,0,1,0,1,0,0,0,hexagon,triangle,1,0,1,0,1,1,13,6,,,,,,,,,,,,,,,,,,,,,,,,,,,,,,,,,,,,,,,,1244.9300585500023,1244.9300585500023,1244.9300585500023,1244.9300585500023,1244.9300585500023,1244.9300585500023,1244.9300585500023,1244.9300585500023,1244.9300585500023,1244.9300585500023,a,1.1549384570098482,1,296,1,1246.114948094997,,1247.6165658330137,,,,,,,,,,,,,,,,,,,,,,,,,,,,,,,,,,,,,,,,,,,,,,,,,,,,,,,,,,,,,,,,,,,,,,,,,,37040,2022-11-22_10h17.54.641,vts_reward_expectancy_bt_OFFLINE,2022.2.4,60.063949969640696,
1,0,0,0,0,0,0,1,triangle,star,1,0,1,0,1,2,14,2,,,,,,,,,,,,,,,,,,,,,,,,,,,,,,,,,,,,,,,,1248.1170482410234,1248.1170482410234,1248.1170482410234,1248.1170482410234,1248.1170482410234,1248.1170482410234,1248.1170482410234,1248.1170482410234,1248.1170482410234,1248.1170482410234,l,1.2656007729819976,1,297,1,1249.4015691880195,,1250.9032508310047,,,,,,,,,,,,,,,,,,,,,,,,,,,,,,,,,,,,,,,,,,,,,,,,,,,,,,,,,,,,,,,,,,,,,,,,,,37040,2022-11-22_10h17.54.641,vts_reward_expectancy_bt_OFFLINE,2022.2.4,60.063949969640696,
1,0,0,0,0,0,1,0,triangle,hexagon,1,0,1,0,1,3,15,1,,,,,,,,,,,,,,,,,,,,,,,,,,,,,,,,,,,,,,,,1251.4038680200174,1251.4038680200174,1251.4038680200174,1251.4038680200174,1251.4038680200174,1251.4038680200174,1251.4038680200174,1251.4038680200174,1251.4038680200174,1251.4038680200174,l,0.5880786720081232,10,307,1,1252.0213279279997,,1253.5229785050033,,,,,,,,,,,,,,,,,,,,,,,,,,,,,,,,,,,,,,,,,,,,,,,,,,,,,,,,,,,,,,,,,,,,,,,,,,37040,2022-11-22_10h17.54.641,vts_reward_expectancy_bt_OFFLINE,2022.2.4,60.063949969640696,
0,0,1,0,0,1,0,0,hexagon,circle,1,0,1,0,1,4,16,7,,,,,,,,,,,,,,,,,,,,,,,,,,,,,,,,,,,,,,,,1254.0236184399982,1254.0236184399982,1254.0236184399982,1254.0236184399982,1254.0236184399982,1254.0236184399982,1254.0236184399982,1254.0236184399982,1254.0236184399982,1254.0236184399982,l,1.4911235359904822,10,317,1,1255.5418610130146,,1257.0435546730005,,,,,,,,,,,,,,,,,,,,,,,,,,,,,,,,,,,,,,,,,,,,,,,,,,,,,,,,,,,,,,,,,,,,,,,,,,37040,2022-11-22_10h17.54.641,vts_reward_expectancy_bt_OFFLINE,2022.2.4,60.063949969640696,
1,0,0,0,0,1,0,0,triangle,circle,1,0,1,0,1,5,17,0,,,,,,,,,,,,,,,,,,,,,,,,,,,,,,,,,,,,,,,,1257.5438632210135,1257.5438632210135,1257.5438632210135,1257.5438632210135,1257.5438632210135,1257.5438632210135,1257.5438632210135,1257.5438632210135,1257.5438632210135,1257.5438632210135,l,0.9750487100100145,10,327,1,1258.5449904850102,1260.046654905018,1260.046654905018,,,,,,,,,,,,,,,,,,,,,,,,,,,,,,,,,,,,,,,,,,,,,,,,,,,,,,,,,,,,,,,,,,,,,,,,,,37040,2022-11-22_10h17.54.641,vts_reward_expectancy_bt_OFFLINE,2022.2.4,60.063949969640696,
0,0,0,1,1,0,0,0,star,triangle,1,0,1,0,1,6,18,9,,,,,,,,,,,,,,,,,,,,,,,,,,,,,,,,,,,,,,,,1260.5471771820157,1260.5471771820157,1260.5471771820157,1260.5471771820157,1260.5471771820157,1260.5471771820157,1260.5471771820157,1260.5471771820157,1260.5471771820157,1260.5471771820157,l,2.898413064016495,10,337,1,1263.467178677005,,1264.9687470380159,,,,,,,,,,,,,,,,,,,,,,,,,,,,,,,,,,,,,,,,,,,,,,,,,,,,,,,,,,,,,,,,,,,,,,,,,,37040,2022-11-22_10h17.54.641,vts_reward_expectancy_bt_OFFLINE,2022.2.4,60.063949969640696,
0,0,0,1,0,1,0,0,star ,circle,1,0,1,0,1,7,19,10,,,,,,,,,,,,,,,,,,,,,,,,,,,,,,,,,,,,,,,,1265.4695322400075,1265.4695322400075,1265.4695322400075,1265.4695322400075,1265.4695322400075,1265.4695322400075,1265.4695322400075,1265.4695322400075,1265.4695322400075,1265.4695322400075,l,5.040820238995366,10,347,1,1270.5417759780248,,1272.04322865,,,,,,,,,,,,,,,,,,,,,,,,,,,,,,,,,,,,,,,,,,,,,,,,,,,,,,,,,,,,,,,,,,,,,,,,,,37040,2022-11-22_10h17.54.641,vts_reward_expectancy_bt_OFFLINE,2022.2.4,60.063949969640696,
0,1,0,0,1,0,0,0,circle,triangle,1,0,1,0,1,8,20,3,,,,,,,,,,,,,,,,,,,,,,,,,,,,,,,,,,,,,,,,1272.5440954150108,1272.5440954150108,1272.5440954150108,1272.5440954150108,1272.5440954150108,1272.5440954150108,1272.5440954150108,1272.5440954150108,1272.5440954150108,1272.5440954150108,a,5.764175324991811,10,357,1,1278.333656080009,,1279.8353362060152,,,,,,,,,,,,,,,,,,,,,,,,,,,,,,,,,,,,,,,,,,,,,,,,,,,,,,,,,,,,,,,,,,,,,,,,,,37040,2022-11-22_10h17.54.641,vts_reward_expectancy_bt_OFFLINE,2022.2.4,60.063949969640696,
0,1,0,0,0,0,0,1,circle,star,1,0,1,0,1,9,21,5,,,,,,,,,,,,,,,,,,,,,,,,,,,,,,,,,,,,,,,,1280.33589180102,1280.33589180102,1280.33589180102,1280.33589180102,1280.33589180102,1280.33589180102,1280.33589180102,1280.33589180102,1280.33589180102,1280.33589180102,a,1.2689802340173628,1,358,1,1281.6372956770065,,1283.1388159870112,,,,,,,,,,,,,,,,,,,,,,,,,,,,,,,,,,,,,,,,,,,,,,,,,,,,,,,,,,,,,,,,,,,,,,,,,,37040,2022-11-22_10h17.54.641,vts_reward_expectancy_bt_OFFLINE,2022.2.4,60.063949969640696,
0,0,1,0,0,0,0,1,hexagon,star,1,0,1,0,1,10,22,8,,,,,,,,,,,,,,,,,,,,,,,,,,,,,,,,,,,,,,,,1283.6394792270148,1283.6394792270148,1283.6394792270148,1283.6394792270148,1283.6394792270148,1283.6394792270148,1283.6394792270148,1283.6394792270148,1283.6394792270148,1283.6394792270148,a,4.0186684879881795,10,368,1,1287.6772802620253,,1289.1787672920036,,,,,,,,,,,,,,,,,,,,,,,,,,,,,,,,,,,,,,,,,,,,,,,,,,,,,,,,,,,,,,,,,,,,,,,,,,37040,2022-11-22_10h17.54.641,vts_reward_expectancy_bt_OFFLINE,2022.2.4,60.063949969640696,
0,1,0,0,0,0,1,0,circle,hexagon,1,0,1,0,1,11,23,4,,,,,,,,,,,,,,,,,,,,,,,,,,,,,,,,,,,,,,,,1289.679536420008,1289.679536420008,1289.679536420008,1289.679536420008,1289.679536420008,1289.679536420008,1289.679536420008,1289.679536420008,1289.679536420008,1289.679536420008,a,3.3780600470199715,1,369,1,1293.083181251015,,1294.584863126016,,,,,,,,,,,,,,,,,,,,,,,,,,,,,,,,,,,,,,,,,,,,,,,,,,,,,,,,,,,,,,,,,,,,,,,,,,37040,2022-11-22_10h17.54.641,vts_reward_expectancy_bt_OFFLINE,2022.2.4,60.063949969640696,
0,0,0,1,0,1,0,0,star ,circle,1,0,1,0,2,0,24,10,,,,,,,,,,,,,,,,,,,,,,,,,,,,,,,,,,,,,,,,1295.085449856997,1295.085449856997,1295.085449856997,1295.085449856997,1295.085449856997,1295.085449856997,1295.085449856997,1295.085449856997,1295.085449856997,1295.085449856997,l,1.0344176040089224,1,370,1,1296.136435485998,1297.6381015870138,1297.6381015870138,,,,,,,,,,,,,,,,,,,,,,,,,,,,,,,,,,,,,,,,,,,,,,,,,,,,,,,,,,,,,,,,,,,,,,,,,,37040,2022-11-22_10h17.54.641,vts_reward_expectancy_bt_OFFLINE,2022.2.4,60.063949969640696,
0,1,0,0,0,0,1,0,circle,hexagon,1,0,1,0,2,1,25,4,,,,,,,,,,,,,,,,,,,,,,,,,,,,,,,,,,,,,,,,1298.1388590030256,1298.1388590030256,1298.1388590030256,1298.1388590030256,1298.1388590030256,1298.1388590030256,1298.1388590030256,1298.1388590030256,1298.1388590030256,1298.1388590030256,l,1.0852604529936798,10,380,1,1299.2566364509985,,1300.758302962,,,,,,,,,,,,,,,,,,,,,,,,,,,,,,,,,,,,,,,,,,,,,,,,,,,,,,,,,,,,,,,,,,,,,,,,,,37040,2022-11-22_10h17.54.641,vts_reward_expectancy_bt_OFFLINE,2022.2.4,60.063949969640696,
0,0,1,0,1,0,0,0,hexagon,triangle,1,0,1,0,2,2,26,6,,,,,,,,,,,,,,,,,,,,,,,,,,,,,,,,,,,,,,,,1301.258880792011,1301.258880792011,1301.258880792011,1301.258880792011,1301.258880792011,1301.258880792011,1301.258880792011,1301.258880792011,1301.258880792011,1301.258880792011,a,1.5864984180079773,10,390,1,1302.8775510819978,,1304.3789318269992,,,,,,,,,,,,,,,,,,,,,,,,,,,,,,,,,,,,,,,,,,,,,,,,,,,,,,,,,,,,,,,,,,,,,,,,,,37040,2022-11-22_10h17.54.641,vts_reward_expectancy_bt_OFFLINE,2022.2.4,60.063949969640696,
1,0,0,0,0,0,1,0,triangle,hexagon,1,0,1,0,2,3,27,1,,,,,,,,,,,,,,,,,,,,,,,,,,,,,,,,,,,,,,,,1304.8794308750075,1304.8794308750075,1304.8794308750075,1304.8794308750075,1304.8794308750075,1304.8794308750075,1304.8794308750075,1304.8794308750075,1304.8794308750075,1304.8794308750075,l,0.9825533510011155,10,400,1,1305.8805689770088,,1307.3823496080004,,,,,,,,,,,,,,,,,,,,,,,,,,,,,,,,,,,,,,,,,,,,,,,,,,,,,,,,,,,,,,,,,,,,,,,,,,37040,2022-11-22_10h17.54.641,vts_reward_expectancy_bt_OFFLINE,2022.2.4,60.063949969640696,
0,0,0,1,0,0,1,0,star,hexagon,1,0,1,0,2,4,28,11,,,,,,,,,,,,,,,,,,,,,,,,,,,,,,,,,,,,,,,,1307.8829420410038,1307.8829420410038,1307.8829420410038,1307.8829420410038,1307.8829420410038,1307.8829420410038,1307.8829420410038,1307.8829420410038,1307.8829420410038,1307.8829420410038,a,1.96122229800676,1,401,1,1309.8684639320127,,1311.3701488250226,,,,,,,,,,,,,,,,,,,,,,,,,,,,,,,,,,,,,,,,,,,,,,,,,,,,,,,,,,,,,,,,,,,,,,,,,,37040,2022-11-22_10h17.54.641,vts_reward_expectancy_bt_OFFLINE,2022.2.4,60.063949969640696,
0,1,0,0,1,0,0,0,circle,triangle,1,0,1,0,2,5,29,3,,,,,,,,,,,,,,,,,,,,,,,,,,,,,,,,,,,,,,,,1311.870643518021,1311.870643518021,1311.870643518021,1311.870643518021,1311.870643518021,1311.870643518021,1311.870643518021,1311.870643518021,1311.870643518021,1311.870643518021,a,1.5862610240001231,10,411,1,1313.4891196430253,,1314.9906409280084,,,,,,,,,,,,,,,,,,,,,,,,,,,,,,,,,,,,,,,,,,,,,,,,,,,,,,,,,,,,,,,,,,,,,,,,,,37040,2022-11-22_10h17.54.641,vts_reward_expectancy_bt_OFFLINE,2022.2.4,60.063949969640696,
0,0,0,1,1,0,0,0,star,triangle,1,0,1,0,2,6,30,9,,,,,,,,,,,,,,,,,,,,,,,,,,,,,,,,,,,,,,,,1315.491217716015,1315.491217716015,1315.491217716015,1315.491217716015,1315.491217716015,1315.491217716015,1315.491217716015,1315.491217716015,1315.491217716015,1315.491217716015,a,1.295004751009401,10,421,1,1316.8093004080001,,1318.3109917260008,,,,,,,,,,,,,,,,,,,,,,,,,,,,,,,,,,,,,,,,,,,,,,,,,,,,,,,,,,,,,,,,,,,,,,,,,,37040,2022-11-22_10h17.54.641,vts_reward_expectancy_bt_OFFLINE,2022.2.4,60.063949969640696,
1,0,0,0,0,0,0,1,triangle,star,1,0,1,0,2,7,31,2,,,,,,,,,,,,,,,,,,,,,,,,,,,,,,,,,,,,,,,,1318.8116715310025,1318.8116715310025,1318.8116715310025,1318.8116715310025,1318.8116715310025,1318.8116715310025,1318.8116715310025,1318.8116715310025,1318.8116715310025,1318.8116715310025,l,0.8766615269996691,1,422,1,1319.7127522230148,,1321.214333425014,,,,,,,,,,,,,,,,,,,,,,,,,,,,,,,,,,,,,,,,,,,,,,,,,,,,,,,,,,,,,,,,,,,,,,,,,,37040,2022-11-22_10h17.54.641,vts_reward_expectancy_bt_OFFLINE,2022.2.4,60.063949969640696,
1,0,0,0,0,1,0,0,triangle,circle,1,0,1,0,2,8,32,0,,,,,,,,,,,,,,,,,,,,,,,,,,,,,,,,,,,,,,,,1321.7149052550085,1321.7149052550085,1321.7149052550085,1321.7149052550085,1321.7149052550085,1321.7149052550085,1321.7149052550085,1321.7149052550085,1321.7149052550085,1321.7149052550085,a,2.058135403000051,1,423,1,1323.8004405380052,,1325.3019805430085,,,,,,,,,,,,,,,,,,,,,,,,,,,,,,,,,,,,,,,,,,,,,,,,,,,,,,,,,,,,,,,,,,,,,,,,,,37040,2022-11-22_10h17.54.641,vts_reward_expectancy_bt_OFFLINE,2022.2.4,60.063949969640696,
0,0,1,0,0,0,0,1,hexagon,star,1,0,1,0,2,9,33,8,,,,,,,,,,,,,,,,,,,,,,,,,,,,,,,,,,,,,,,,1325.8026429980237,1325.8026429980237,1325.8026429980237,1325.8026429980237,1325.8026429980237,1325.8026429980237,1325.8026429980237,1325.8026429980237,1325.8026429980237,1325.8026429980237,a,1.175742176012136,10,433,1,1327.0038832850114,,1328.5058378230024,,,,,,,,,,,,,,,,,,,,,,,,,,,,,,,,,,,,,,,,,,,,,,,,,,,,,,,,,,,,,,,,,,,,,,,,,,37040,2022-11-22_10h17.54.641,vts_reward_expectancy_bt_OFFLINE,2022.2.4,60.063949969640696,
0,1,0,0,0,0,0,1,circle,star,1,0,1,0,2,10,34,5,,,,,,,,,,,,,,,,,,,,,,,,,,,,,,,,,,,,,,,,1329.0062409510138,1329.0062409510138,1329.0062409510138,1329.0062409510138,1329.0062409510138,1329.0062409510138,1329.0062409510138,1329.0062409510138,1329.0062409510138,1329.0062409510138,a,1.2590639920090325,10,443,1,1330.2908747170004,,1331.7926127420214,,,,,,,,,,,,,,,,,,,,,,,,,,,,,,,,,,,,,,,,,,,,,,,,,,,,,,,,,,,,,,,,,,,,,,,,,,37040,2022-11-22_10h17.54.641,vts_reward_expectancy_bt_OFFLINE,2022.2.4,60.063949969640696,
0,0,1,0,0,1,0,0,hexagon,circle,1,0,1,0,2,11,35,7,,,,,,,,,,,,,,,,,,,,,,,,,,,,,,,,,,,,,,,,1332.2931051080232,1332.2931051080232,1332.2931051080232,1332.2931051080232,1332.2931051080232,1332.2931051080232,1332.2931051080232,1332.2931051080232,1332.2931051080232,1332.2931051080232,l,0.918753056001151,1,444,1,1333.2440772730042,,1334.7459546550235,,,,,,,,,,,,,,,,,,,,,,,,,,,,,,,,,,,,,,,,,,,,,,,,,,,,,,,,,,,,,,,,,,,,,,,,,,37040,2022-11-22_10h17.54.641,vts_reward_expectancy_bt_OFFLINE,2022.2.4,60.063949969640696,
0,0,1,0,0,0,0,1,hexagon,star,1,0,1,0,3,0,36,8,,,,,,,,,,,,,,,,,,,,,,,,,,,,,,,,,,,,,,,,1335.2462784910167,1335.2462784910167,1335.2462784910167,1335.2462784910167,1335.2462784910167,1335.2462784910167,1335.2462784910167,1335.2462784910167,1335.2462784910167,1335.2462784910167,a,2.085163976007607,10,454,1,1337.3488028920256,,1338.850488725002,,,,,,,,,,,,,,,,,,,,,,,,,,,,,,,,,,,,,,,,,,,,,,,,,,,,,,,,,,,,,,,,,,,,,,,,,,37040,2022-11-22_10h17.54.641,vts_reward_expectancy_bt_OFFLINE,2022.2.4,60.063949969640696,
0,1,0,0,0,0,1,0,circle,hexagon,1,0,1,0,3,1,37,4,,,,,,,,,,,,,,,,,,,,,,,,,,,,,,,,,,,,,,,,1339.350864795997,1339.350864795997,1339.350864795997,1339.350864795997,1339.350864795997,1339.350864795997,1339.350864795997,1339.350864795997,1339.350864795997,1339.350864795997,l,1.3204599060118198,10,464,1,1340.7024595420226,,1342.203938006016,,,,,,,,,,,,,,,,,,,,,,,,,,,,,,,,,,,,,,,,,,,,,,,,,,,,,,,,,,,,,,,,,,,,,,,,,,37040,2022-11-22_10h17.54.641,vts_reward_expectancy_bt_OFFLINE,2022.2.4,60.063949969640696,
0,0,0,1,0,1,0,0,star ,circle,1,0,1,0,3,2,38,10,,,,,,,,,,,,,,,,,,,,,,,,,,,,,,,,,,,,,,,,1342.7046213209978,1342.7046213209978,1342.7046213209978,1342.7046213209978,1342.7046213209978,1342.7046213209978,1342.7046213209978,1342.7046213209978,1342.7046213209978,1342.7046213209978,l,1.0514636459993199,10,474,1,1343.772484629997,1345.2741234850255,1345.2741234850255,,,,,,,,,,,,,,,,,,,,,,,,,,,,,,,,,,,,,,,,,,,,,,,,,,,,,,,,,,,,,,,,,,,,,,,,,,37040,2022-11-22_10h17.54.641,vts_reward_expectancy_bt_OFFLINE,2022.2.4,60.063949969640696,
0,0,1,0,0,1,0,0,hexagon,circle,1,0,1,0,3,3,39,7,,,,,,,,,,,,,,,,,,,,,,,,,,,,,,,,,,,,,,,,1345.774775271013,1345.774775271013,1345.774775271013,1345.774775271013,1345.774775271013,1345.774775271013,1345.774775271013,1345.774775271013,1345.774775271013,1345.774775271013,l,1.2092508689966053,1,475,1,1347.0093594720238,,1348.5109800409991,,,,,,,,,,,,,,,,,,,,,,,,,,,,,,,,,,,,,,,,,,,,,,,,,,,,,,,,,,,,,,,,,,,,,,,,,,37040,2022-11-22_10h17.54.641,vts_reward_expectancy_bt_OFFLINE,2022.2.4,60.063949969640696,
0,0,1,0,1,0,0,0,hexagon,triangle,1,0,1,0,3,4,40,6,,,,,,,,,,,,,,,,,,,,,,,,,,,,,,,,,,,,,,,,1349.0117295980162,1349.0117295980162,1349.0117295980162,1349.0117295980162,1349.0117295980162,1349.0117295980162,1349.0117295980162,1349.0117295980162,1349.0117295980162,1349.0117295980162,a,1.886489950993564,10,485,1,1350.930397026008,,1352.4321556270006,,,,,,,,,,,,,,,,,,,,,,,,,,,,,,,,,,,,,,,,,,,,,,,,,,,,,,,,,,,,,,,,,,,,,,,,,,37040,2022-11-22_10h17.54.641,vts_reward_expectancy_bt_OFFLINE,2022.2.4,60.063949969640696,
0,1,0,0,1,0,0,0,circle,triangle,1,0,1,0,3,5,41,3,,,,,,,,,,,,,,,,,,,,,,,,,,,,,,,,,,,,,,,,1352.9324947670102,1352.9324947670102,1352.9324947670102,1352.9324947670102,1352.9324947670102,1352.9324947670102,1352.9324947670102,1352.9324947670102,1352.9324947670102,1352.9324947670102,a,8.27120351602207,1,486,1,1361.2249847530038,,1362.7266275910079,,,,,,,,,,,,,,,,,,,,,,,,,,,,,,,,,,,,,,,,,,,,,,,,,,,,,,,,,,,,,,,,,,,,,,,,,,37040,2022-11-22_10h17.54.641,vts_reward_expectancy_bt_OFFLINE,2022.2.4,60.063949969640696,
0,1,0,0,0,0,0,1,circle,star,1,0,1,0,3,6,42,5,,,,,,,,,,,,,,,,,,,,,,,,,,,,,,,,,,,,,,,,1363.2273100480088,1363.2273100480088,1363.2273100480088,1363.2273100480088,1363.2273100480088,1363.2273100480088,1363.2273100480088,1363.2273100480088,1363.2273100480088,1363.2273100480088,a,1.0159500819863752,10,496,1,1364.2615641320008,,1365.7633055230253,,,,,,,,,,,,,,,,,,,,,,,,,,,,,,,,,,,,,,,,,,,,,,,,,,,,,,,,,,,,,,,,,,,,,,,,,,37040,2022-11-22_10h17.54.641,vts_reward_expectancy_bt_OFFLINE,2022.2.4,60.063949969640696,
0,0,0,1,1,0,0,0,star,triangle,1,0,1,0,3,7,43,9,,,,,,,,,,,,,,,,,,,,,,,,,,,,,,,,,,,,,,,,1366.2640882260166,1366.2640882260166,1366.2640882260166,1366.2640882260166,1366.2640882260166,1366.2640882260166,1366.2640882260166,1366.2640882260166,1366.2640882260166,1366.2640882260166,l,1.9841345059976447,10,506,1,1368.2661308860115,,1369.7679745850037,,,,,,,,,,,,,,,,,,,,,,,,,,,,,,,,,,,,,,,,,,,,,,,,,,,,,,,,,,,,,,,,,,,,,,,,,,37040,2022-11-22_10h17.54.641,vts_reward_expectancy_bt_OFFLINE,2022.2.4,60.063949969640696,
0,0,0,1,0,0,1,0,star,hexagon,1,0,1,0,3,8,44,11,,,,,,,,,,,,,,,,,,,,,,,,,,,,,,,,,,,,,,,,1370.2686138700228,1370.2686138700228,1370.2686138700228,1370.2686138700228,1370.2686138700228,1370.2686138700228,1370.2686138700228,1370.2686138700228,1370.2686138700228,1370.2686138700228,l,1.4101952239871025,1,507,1,1371.703437033022,,1373.205082378001,,,,,,,,,,,,,,,,,,,,,,,,,,,,,,,,,,,,,,,,,,,,,,,,,,,,,,,,,,,,,,,,,,,,,,,,,,37040,2022-11-22_10h17.54.641,vts_reward_expectancy_bt_OFFLINE,2022.2.4,60.063949969640696,
1,0,0,0,0,0,0,1,triangle,star,1,0,1,0,3,9,45,2,,,,,,,,,,,,,,,,,,,,,,,,,,,,,,,,,,,,,,,,1373.7056690750178,1373.7056690750178,1373.7056690750178,1373.7056690750178,1373.7056690750178,1373.7056690750178,1373.7056690750178,1373.7056690750178,1373.7056690750178,1373.7056690750178,a,2.069631522987038,1,508,1,1375.8077139120142,,1377.3094321450044,,,,,,,,,,,,,,,,,,,,,,,,,,,,,,,,,,,,,,,,,,,,,,,,,,,,,,,,,,,,,,,,,,,,,,,,,,37040,2022-11-22_10h17.54.641,vts_reward_expectancy_bt_OFFLINE,2022.2.4,60.063949969640696,
1,0,0,0,0,0,1,0,triangle,hexagon,1,0,1,0,3,10,46,1,,,,,,,,,,,,,,,,,,,,,,,,,,,,,,,,,,,,,,,,1377.8101073510188,1377.8101073510188,1377.8101073510188,1377.8101073510188,1377.8101073510188,1377.8101073510188,1377.8101073510188,1377.8101073510188,1377.8101073510188,1377.8101073510188,l,1.2157286759756971,1,509,1,1379.0446985220187,,1380.5465489380003,,,,,,,,,,,,,,,,,,,,,,,,,,,,,,,,,,,,,,,,,,,,,,,,,,,,,,,,,,,,,,,,,,,,,,,,,,37040,2022-11-22_10h17.54.641,vts_reward_expectancy_bt_OFFLINE,2022.2.4,60.063949969640696,
1,0,0,0,0,1,0,0,triangle,circle,1,0,1,0,3,11,47,0,,,,,,,,,,,,,,,,,,,,,,,,,,,,,,,,,,,,,,,,1381.0469449600205,1381.0469449600205,1381.0469449600205,1381.0469449600205,1381.0469449600205,1381.0469449600205,1381.0469449600205,1381.0469449600205,1381.0469449600205,1381.0469449600205,l,1.6587983319768682,1,510,1,1382.732111571997,,1384.2337884820008,,,,,,,,,,,,,,,,,,,,,,,,,,,,,,,,,,,,,,,,,,,,,,,,,,,,,,,,,,,,,,,,,,,,,,,,,,37040,2022-11-22_10h17.54.641,vts_reward_expectancy_bt_OFFLINE,2022.2.4,60.063949969640696,
0,1,0,0,0,0,0,1,circle,star,2,0,2,0,0,0,0,5,,,,,,,,,,,,,,,,,,,,,,,,,,,,,,,,,,,,,,,,1399.1335979500145,1399.1335979500145,1399.1335979500145,1399.1335979500145,1399.1335979500145,1399.1335979500145,1399.1335979500145,1399.1335979500145,1399.1335979500145,1399.1335979500145,l,2.1232727430178784,1,511,2,1401.285996193008,,1402.7875237450062,,,,,,,,,,,,,,,,,,,,,,,,,,,,,,,,,,,,,,,,,,,,,,,,,,,,,,,,,,,,,,,,,,,,,,,,,,37040,2022-11-22_10h17.54.641,vts_reward_expectancy_bt_OFFLINE,2022.2.4,60.063949969640696,
1,0,0,0,0,0,0,1,triangle,star,2,0,2,0,0,1,1,2,,,,,,,,,,,,,,,,,,,,,,,,,,,,,,,,,,,,,,,,1403.2880534350115,1403.2880534350115,1403.2880534350115,1403.2880534350115,1403.2880534350115,1403.2880534350115,1403.2880534350115,1403.2880534350115,1403.2880534350115,1403.2880534350115,a,1.096665627002949,1,512,2,1404.4061437050113,,1405.907776403008,,,,,,,,,,,,,,,,,,,,,,,,,,,,,,,,,,,,,,,,,,,,,,,,,,,,,,,,,,,,,,,,,,,,,,,,,,37040,2022-11-22_10h17.54.641,vts_reward_expectancy_bt_OFFLINE,2022.2.4,60.063949969640696,
0,0,1,0,1,0,0,0,hexagon,triangle,2,0,2,0,0,2,2,6,,,,,,,,,,,,,,,,,,,,,,,,,,,,,,,,,,,,,,,,1406.4082658510015,1406.4082658510015,1406.4082658510015,1406.4082658510015,1406.4082658510015,1406.4082658510015,1406.4082658510015,1406.4082658510015,1406.4082658510015,1406.4082658510015,a,4.773038949992042,10,522,2,1411.2135936460108,,1412.7151208730065,,,,,,,,,,,,,,,,,,,,,,,,,,,,,,,,,,,,,,,,,,,,,,,,,,,,,,,,,,,,,,,,,,,,,,,,,,37040,2022-11-22_10h17.54.641,vts_reward_expectancy_bt_OFFLINE,2022.2.4,60.063949969640696,
0,0,0,1,0,0,1,0,star,hexagon,2,0,2,0,0,3,3,11,,,,,,,,,,,,,,,,,,,,,,,,,,,,,,,,,,,,,,,,1413.2155600120022,1413.2155600120022,1413.2155600120022,1413.2155600120022,1413.2155600120022,1413.2155600120022,1413.2155600120022,1413.2155600120022,1413.2155600120022,1413.2155600120022,l,1.3395788689958863,1,523,2,1414.583824116009,,1416.0855146730028,,,,,,,,,,,,,,,,,,,,,,,,,,,,,,,,,,,,,,,,,,,,,,,,,,,,,,,,,,,,,,,,,,,,,,,,,,37040,2022-11-22_10h17.54.641,vts_reward_expectancy_bt_OFFLINE,2022.2.4,60.063949969640696,
0,0,1,0,0,0,0,1,hexagon,star,2,0,2,0,0,4,4,8,,,,,,,,,,,,,,,,,,,,,,,,,,,,,,,,,,,,,,,,1416.5861353910004,1416.5861353910004,1416.5861353910004,1416.5861353910004,1416.5861353910004,1416.5861353910004,1416.5861353910004,1416.5861353910004,1416.5861353910004,1416.5861353910004,l,2.51442843300174,10,533,2,1419.1222817210073,,1420.624147280003,,,,,,,,,,,,,,,,,,,,,,,,,,,,,,,,,,,,,,,,,,,,,,,,,,,,,,,,,,,,,,,,,,,,,,,,,,37040,2022-11-22_10h17.54.641,vts_reward_expectancy_bt_OFFLINE,2022.2.4,60.063949969640696,
0,1,0,0,0,0,1,0,circle,hexagon,2,0,2,0,0,5,5,4,,,,,,,,,,,,,,,,,,,,,,,,,,,,,,,,,,,,,,,,1421.1245673700178,1421.1245673700178,1421.1245673700178,1421.1245673700178,1421.1245673700178,1421.1245673700178,1421.1245673700178,1421.1245673700178,1421.1245673700178,1421.1245673700178,l,3.9960013430099934,10,543,2,1425.1455149870017,1426.6470692510193,1426.6470692510193,,,,,,,,,,,,,,,,,,,,,,,,,,,,,,,,,,,,,,,,,,,,,,,,,,,,,,,,,,,,,,,,,,,,,,,,,,37040,2022-11-22_10h17.54.641,vts_reward_expectancy_bt_OFFLINE,2022.2.4,60.063949969640696,
1,0,0,0,0,0,1,0,triangle,hexagon,2,0,2,0,0,6,6,1,,,,,,,,,,,,,,,,,,,,,,,,,,,,,,,,,,,,,,,,1427.1477466250071,1427.1477466250071,1427.1477466250071,1427.1477466250071,1427.1477466250071,1427.1477466250071,1427.1477466250071,1427.1477466250071,1427.1477466250071,1427.1477466250071,l,4.463731378986267,10,553,2,1431.6360931680247,,1433.1378366550198,,,,,,,,,,,,,,,,,,,,,,,,,,,,,,,,,,,,,,,,,,,,,,,,,,,,,,,,,,,,,,,,,,,,,,,,,,37040,2022-11-22_10h17.54.641,vts_reward_expectancy_bt_OFFLINE,2022.2.4,60.063949969640696,
0,0,0,1,1,0,0,0,star,triangle,2,0,2,0,0,7,7,9,,,,,,,,,,,,,,,,,,,,,,,,,,,,,,,,,,,,,,,,1433.638008585025,1433.638008585025,1433.638008585025,1433.638008585025,1433.638008585025,1433.638008585025,1433.638008585025,1433.638008585025,1433.638008585025,1433.638008585025,l,1.405295643984573,1,554,2,1435.0732666859985,,1436.5748166929989,,,,,,,,,,,,,,,,,,,,,,,,,,,,,,,,,,,,,,,,,,,,,,,,,,,,,,,,,,,,,,,,,,,,,,,,,,37040,2022-11-22_10h17.54.641,vts_reward_expectancy_bt_OFFLINE,2022.2.4,60.063949969640696,
0,0,1,0,0,1,0,0,hexagon,circle,2,0,2,0,0,8,8,7,,,,,,,,,,,,,,,,,,,,,,,,,,,,,,,,,,,,,,,,1437.0753670660197,1437.0753670660197,1437.0753670660197,1437.0753670660197,1437.0753670660197,1437.0753670660197,1437.0753670660197,1437.0753670660197,1437.0753670660197,1437.0753670660197,a,1.2644039439910557,10,564,2,1438.3600331070193,1439.861936530011,1439.861936530011,,,,,,,,,,,,,,,,,,,,,,,,,,,,,,,,,,,,,,,,,,,,,,,,,,,,,,,,,,,,,,,,,,,,,,,,,,37040,2022-11-22_10h17.54.641,vts_reward_expectancy_bt_OFFLINE,2022.2.4,60.063949969640696,
0,0,0,1,0,1,0,0,star ,circle,2,0,2,0,0,9,9,10,,,,,,,,,,,,,,,,,,,,,,,,,,,,,,,,,,,,,,,,1440.362248682999,1440.362248682999,1440.362248682999,1440.362248682999,1440.362248682999,1440.362248682999,1440.362248682999,1440.362248682999,1440.362248682999,1440.362248682999,l,1.8595300180022605,10,574,2,1442.2476230449975,,1443.7494874810218,,,,,,,,,,,,,,,,,,,,,,,,,,,,,,,,,,,,,,,,,,,,,,,,,,,,,,,,,,,,,,,,,,,,,,,,,,37040,2022-11-22_10h17.54.641,vts_reward_expectancy_bt_OFFLINE,2022.2.4,60.063949969640696,
0,1,0,0,1,0,0,0,circle,triangle,2,0,2,0,0,10,10,3,,,,,,,,,,,,,,,,,,,,,,,,,,,,,,,,,,,,,,,,1444.2500244020193,1444.2500244020193,1444.2500244020193,1444.2500244020193,1444.2500244020193,1444.2500244020193,1444.2500244020193,1444.2500244020193,1444.2500244020193,1444.2500244020193,l,2.9208802210050635,1,575,2,1447.203225723002,,1448.7049854580255,,,,,,,,,,,,,,,,,,,,,,,,,,,,,,,,,,,,,,,,,,,,,,,,,,,,,,,,,,,,,,,,,,,,,,,,,,37040,2022-11-22_10h17.54.641,vts_reward_expectancy_bt_OFFLINE,2022.2.4,60.063949969640696,
1,0,0,0,0,1,0,0,triangle,circle,2,0,2,0,0,11,11,0,,,,,,,,,,,,,,,,,,,,,,,,,,,,,,,,,,,,,,,,1449.2053356080141,1449.2053356080141,1449.2053356080141,1449.2053356080141,1449.2053356080141,1449.2053356080141,1449.2053356080141,1449.2053356080141,1449.2053356080141,1449.2053356080141,a,1.4540623629873153,1,576,2,1450.690256168018,,1452.1921334000072,,,,,,,,,,,,,,,,,,,,,,,,,,,,,,,,,,,,,,,,,,,,,,,,,,,,,,,,,,,,,,,,,,,,,,,,,,37040,2022-11-22_10h17.54.641,vts_reward_expectancy_bt_OFFLINE,2022.2.4,60.063949969640696,
0,0,1,0,0,0,0,1,hexagon,star,2,0,2,0,1,0,12,8,,,,,,,,,,,,,,,,,,,,,,,,,,,,,,,,,,,,,,,,1452.692588136997,1452.692588136997,1452.692588136997,1452.692588136997,1452.692588136997,1452.692588136997,1452.692588136997,1452.692588136997,1452.692588136997,1452.692588136997,a,4.232753363001393,1,577,2,1456.9488729910227,,1458.4490055020142,,,,,,,,,,,,,,,,,,,,,,,,,,,,,,,,,,,,,,,,,,,,,,,,,,,,,,,,,,,,,,,,,,,,,,,,,,37040,2022-11-22_10h17.54.641,vts_reward_expectancy_bt_OFFLINE,2022.2.4,60.063949969640696,
0,1,0,0,0,0,1,0,circle,hexagon,2,0,2,0,1,1,13,4,,,,,,,,,,,,,,,,,,,,,,,,,,,,,,,,,,,,,,,,1458.949710581015,1458.949710581015,1458.949710581015,1458.949710581015,1458.949710581015,1458.949710581015,1458.949710581015,1458.949710581015,1458.949710581015,1458.949710581015,l,2.622530458989786,1,578,2,1461.602536241,,1463.104083578015,,,,,,,,,,,,,,,,,,,,,,,,,,,,,,,,,,,,,,,,,,,,,,,,,,,,,,,,,,,,,,,,,,,,,,,,,,37040,2022-11-22_10h17.54.641,vts_reward_expectancy_bt_OFFLINE,2022.2.4,60.063949969640696,
0,0,0,1,0,0,1,0,star,hexagon,2,0,2,0,1,2,14,11,,,,,,,,,,,,,,,,,,,,,,,,,,,,,,,,,,,,,,,,1463.6046335510036,1463.6046335510036,1463.6046335510036,1463.6046335510036,1463.6046335510036,1463.6046335510036,1463.6046335510036,1463.6046335510036,1463.6046335510036,1463.6046335510036,l,3.08761675801361,10,588,2,1466.724770394998,,1468.2263951630157,,,,,,,,,,,,,,,,,,,,,,,,,,,,,,,,,,,,,,,,,,,,,,,,,,,,,,,,,,,,,,,,,,,,,,,,,,37040,2022-11-22_10h17.54.641,vts_reward_expectancy_bt_OFFLINE,2022.2.4,60.063949969640696,
0,0,1,0,1,0,0,0,hexagon,triangle,2,0,2,0,1,3,15,6,,,,,,,,,,,,,,,,,,,,,,,,,,,,,,,,,,,,,,,,1468.7270072460233,1468.7270072460233,1468.7270072460233,1468.7270072460233,1468.7270072460233,1468.7270072460233,1468.7270072460233,1468.7270072460233,1468.7270072460233,1468.7270072460233,a,1.4635278309870046,1,589,2,1470.2119515119994,,1471.713704327005,,,,,,,,,,,,,,,,,,,,,,,,,,,,,,,,,,,,,,,,,,,,,,,,,,,,,,,,,,,,,,,,,,,,,,,,,,37040,2022-11-22_10h17.54.641,vts_reward_expectancy_bt_OFFLINE,2022.2.4,60.063949969640696,
0,1,0,0,0,0,0,1,circle,star,2,0,2,0,1,4,16,5,,,,,,,,,,,,,,,,,,,,,,,,,,,,,,,,,,,,,,,,1472.2142090560228,1472.2142090560228,1472.2142090560228,1472.2142090560228,1472.2142090560228,1472.2142090560228,1472.2142090560228,1472.2142090560228,1472.2142090560228,1472.2142090560228,a,1.3291183950204868,1,590,2,1473.5655808760202,,1475.067257798015,,,,,,,,,,,,,,,,,,,,,,,,,,,,,,,,,,,,,,,,,,,,,,,,,,,,,,,,,,,,,,,,,,,,,,,,,,37040,2022-11-22_10h17.54.641,vts_reward_expectancy_bt_OFFLINE,2022.2.4,60.063949969640696,
0,0,1,0,0,1,0,0,hexagon,circle,2,0,2,0,1,5,17,7,,,,,,,,,,,,,,,,,,,,,,,,,,,,,,,,,,,,,,,,1475.5677794470103,1475.5677794470103,1475.5677794470103,1475.5677794470103,1475.5677794470103,1475.5677794470103,1475.5677794470103,1475.5677794470103,1475.5677794470103,1475.5677794470103,a,1.3522207970090676,1,591,2,1476.9528375049995,,1478.4542646160116,,,,,,,,,,,,,,,,,,,,,,,,,,,,,,,,,,,,,,,,,,,,,,,,,,,,,,,,,,,,,,,,,,,,,,,,,,37040,2022-11-22_10h17.54.641,vts_reward_expectancy_bt_OFFLINE,2022.2.4,60.063949969640696,
1,0,0,0,0,1,0,0,triangle,circle,2,0,2,0,1,6,18,0,,,,,,,,,,,,,,,,,,,,,,,,,,,,,,,,,,,,,,,,1478.9549006970192,1478.9549006970192,1478.9549006970192,1478.9549006970192,1478.9549006970192,1478.9549006970192,1478.9549006970192,1478.9549006970192,1478.9549006970192,1478.9549006970192,a,1.4284003850189038,10,601,2,1480.4066102460201,,1481.9082175370131,,,,,,,,,,,,,,,,,,,,,,,,,,,,,,,,,,,,,,,,,,,,,,,,,,,,,,,,,,,,,,,,,,,,,,,,,,37040,2022-11-22_10h17.54.641,vts_reward_expectancy_bt_OFFLINE,2022.2.4,60.063949969640696,
0,0,0,1,0,1,0,0,star ,circle,2,0,2,0,1,7,19,10,,,,,,,,,,,,,,,,,,,,,,,,,,,,,,,,,,,,,,,,1482.4088902170188,1482.4088902170188,1482.4088902170188,1482.4088902170188,1482.4088902170188,1482.4088902170188,1482.4088902170188,1482.4088902170188,1482.4088902170188,1482.4088902170188,l,0.991219515010016,10,611,2,1483.4265284080175,,1484.9280861150182,,,,,,,,,,,,,,,,,,,,,,,,,,,,,,,,,,,,,,,,,,,,,,,,,,,,,,,,,,,,,,,,,,,,,,,,,,37040,2022-11-22_10h17.54.641,vts_reward_expectancy_bt_OFFLINE,2022.2.4,60.063949969640696,
1,0,0,0,0,0,0,1,triangle,star,2,0,2,0,1,8,20,2,,,,,,,,,,,,,,,,,,,,,,,,,,,,,,,,,,,,,,,,1485.42892339002,1485.42892339002,1485.42892339002,1485.42892339002,1485.42892339002,1485.42892339002,1485.42892339002,1485.42892339002,1485.42892339002,1485.42892339002,l,2.0198737699829508,10,621,2,1487.4809095600212,,1488.9826126380067,,,,,,,,,,,,,,,,,,,,,,,,,,,,,,,,,,,,,,,,,,,,,,,,,,,,,,,,,,,,,,,,,,,,,,,,,,37040,2022-11-22_10h17.54.641,vts_reward_expectancy_bt_OFFLINE,2022.2.4,60.063949969640696,
0,0,0,1,1,0,0,0,star,triangle,2,0,2,0,1,9,21,9,,,,,,,,,,,,,,,,,,,,,,,,,,,,,,,,,,,,,,,,1489.4831598480232,1489.4831598480232,1489.4831598480232,1489.4831598480232,1489.4831598480232,1489.4831598480232,1489.4831598480232,1489.4831598480232,1489.4831598480232,1489.4831598480232,a,2.97200630401494,1,622,2,1492.4864386580011,,1493.9881147350243,,,,,,,,,,,,,,,,,,,,,,,,,,,,,,,,,,,,,,,,,,,,,,,,,,,,,,,,,,,,,,,,,,,,,,,,,,37040,2022-11-22_10h17.54.641,vts_reward_expectancy_bt_OFFLINE,2022.2.4,60.063949969640696,
1,0,0,0,0,0,1,0,triangle,hexagon,2,0,2,0,1,10,22,1,,,,,,,,,,,,,,,,,,,,,,,,,,,,,,,,,,,,,,,,1494.488693782012,1494.488693782012,1494.488693782012,1494.488693782012,1494.488693782012,1494.488693782012,1494.488693782012,1494.488693782012,1494.488693782012,1494.488693782012,l,3.378427687974181,10,632,2,1497.8925487160159,,1499.394139696,,,,,,,,,,,,,,,,,,,,,,,,,,,,,,,,,,,,,,,,,,,,,,,,,,,,,,,,,,,,,,,,,,,,,,,,,,37040,2022-11-22_10h17.54.641,vts_reward_expectancy_bt_OFFLINE,2022.2.4,60.063949969640696,
0,1,0,0,1,0,0,0,circle,triangle,2,0,2,0,1,11,23,3,,,,,,,,,,,,,,,,,,,,,,,,,,,,,,,,,,,,,,,,1499.8947175000212,1499.8947175000212,1499.8947175000212,1499.8947175000212,1499.8947175000212,1499.8947175000212,1499.8947175000212,1499.8947175000212,1499.8947175000212,1499.8947175000212,a,1.213147241011029,1,633,2,1501.1292505730235,,1502.6310586860054,,,,,,,,,,,,,,,,,,,,,,,,,,,,,,,,,,,,,,,,,,,,,,,,,,,,,,,,,,,,,,,,,,,,,,,,,,37040,2022-11-22_10h17.54.641,vts_reward_expectancy_bt_OFFLINE,2022.2.4,60.063949969640696,
0,1,0,0,1,0,0,0,circle,triangle,2,0,2,0,2,0,24,3,,,,,,,,,,,,,,,,,,,,,,,,,,,,,,,,,,,,,,,,1503.1315649250173,1503.1315649250173,1503.1315649250173,1503.1315649250173,1503.1315649250173,1503.1315649250173,1503.1315649250173,1503.1315649250173,1503.1315649250173,1503.1315649250173,a,3.4886475160019472,1,634,2,1506.6520712980127,,1508.1539479750209,,,,,,,,,,,,,,,,,,,,,,,,,,,,,,,,,,,,,,,,,,,,,,,,,,,,,,,,,,,,,,,,,,,,,,,,,,37040,2022-11-22_10h17.54.641,vts_reward_expectancy_bt_OFFLINE,2022.2.4,60.063949969640696,
0,0,1,0,0,1,0,0,hexagon,circle,2,0,2,0,2,1,25,7,,,,,,,,,,,,,,,,,,,,,,,,,,,,,,,,,,,,,,,,1508.6544506060018,1508.6544506060018,1508.6544506060018,1508.6544506060018,1508.6544506060018,1508.6544506060018,1508.6544506060018,1508.6544506060018,1508.6544506060018,1508.6544506060018,l,1.1046465449908283,10,644,2,1509.7888599520084,,1511.2906571700005,,,,,,,,,,,,,,,,,,,,,,,,,,,,,,,,,,,,,,,,,,,,,,,,,,,,,,,,,,,,,,,,,,,,,,,,,,37040,2022-11-22_10h17.54.641,vts_reward_expectancy_bt_OFFLINE,2022.2.4,60.063949969640696,
1,0,0,0,0,1,0,0,triangle,circle,2,0,2,0,2,2,26,0,,,,,,,,,,,,,,,,,,,,,,,,,,,,,,,,,,,,,,,,1511.7913962530147,1511.7913962530147,1511.7913962530147,1511.7913962530147,1511.7913962530147,1511.7913962530147,1511.7913962530147,1511.7913962530147,1511.7913962530147,1511.7913962530147,l,1.0407365720020607,10,654,2,1512.8592191570206,,1514.360741253011,,,,,,,,,,,,,,,,,,,,,,,,,,,,,,,,,,,,,,,,,,,,,,,,,,,,,,,,,,,,,,,,,,,,,,,,,,37040,2022-11-22_10h17.54.641,vts_reward_expectancy_bt_OFFLINE,2022.2.4,60.063949969640696,
1,0,0,0,0,0,1,0,triangle,hexagon,2,0,2,0,2,3,27,1,,,,,,,,,,,,,,,,,,,,,,,,,,,,,,,,,,,,,,,,1514.8611793570162,1514.8611793570162,1514.8611793570162,1514.8611793570162,1514.8611793570162,1514.8611793570162,1514.8611793570162,1514.8611793570162,1514.8611793570162,1514.8611793570162,a,2.1888234929938335,10,664,2,1517.0803204000113,,1518.5819023530057,,,,,,,,,,,,,,,,,,,,,,,,,,,,,,,,,,,,,,,,,,,,,,,,,,,,,,,,,,,,,,,,,,,,,,,,,,37040,2022-11-22_10h17.54.641,vts_reward_expectancy_bt_OFFLINE,2022.2.4,60.063949969640696,
0,0,0,1,0,0,1,0,star,hexagon,2,0,2,0,2,4,28,11,,,,,,,,,,,,,,,,,,,,,,,,,,,,,,,,,,,,,,,,1519.0825844010105,1519.0825844010105,1519.0825844010105,1519.0825844010105,1519.0825844010105,1519.0825844010105,1519.0825844010105,1519.0825844010105,1519.0825844010105,1519.0825844010105,l,1.4688372740056366,10,674,2,1520.58421558002,,1522.0859603779973,,,,,,,,,,,,,,,,,,,,,,,,,,,,,,,,,,,,,,,,,,,,,,,,,,,,,,,,,,,,,,,,,,,,,,,,,,37040,2022-11-22_10h17.54.641,vts_reward_expectancy_bt_OFFLINE,2022.2.4,60.063949969640696,
1,0,0,0,0,0,0,1,triangle,star,2,0,2,0,2,5,29,2,,,,,,,,,,,,,,,,,,,,,,,,,,,,,,,,,,,,,,,,1522.5864025970222,1522.5864025970222,1522.5864025970222,1522.5864025970222,1522.5864025970222,1522.5864025970222,1522.5864025970222,1522.5864025970222,1522.5864025970222,1522.5864025970222,a,7.075637716014171,1,675,2,1529.6943416920258,,1531.1959532129986,,,,,,,,,,,,,,,,,,,,,,,,,,,,,,,,,,,,,,,,,,,,,,,,,,,,,,,,,,,,,,,,,,,,,,,,,,37040,2022-11-22_10h17.54.641,vts_reward_expectancy_bt_OFFLINE,2022.2.4,60.063949969640696,
0,0,0,1,1,0,0,0,star,triangle,2,0,2,0,2,6,30,9,,,,,,,,,,,,,,,,,,,,,,,,,,,,,,,,,,,,,,,,1531.6966250630212,1531.6966250630212,1531.6966250630212,1531.6966250630212,1531.6966250630212,1531.6966250630212,1531.6966250630212,1531.6966250630212,1531.6966250630212,1531.6966250630212,l,0.9353606499789748,1,676,2,1532.6642248050193,,1534.1657909680216,,,,,,,,,,,,,,,,,,,,,,,,,,,,,,,,,,,,,,,,,,,,,,,,,,,,,,,,,,,,,,,,,,,,,,,,,,37040,2022-11-22_10h17.54.641,vts_reward_expectancy_bt_OFFLINE,2022.2.4,60.063949969640696,
0,0,1,0,0,0,0,1,hexagon,star,2,0,2,0,2,7,31,8,,,,,,,,,,,,,,,,,,,,,,,,,,,,,,,,,,,,,,,,1534.6663317810162,1534.6663317810162,1534.6663317810162,1534.6663317810162,1534.6663317810162,1534.6663317810162,1534.6663317810162,1534.6663317810162,1534.6663317810162,1534.6663317810162,a,1.3302555470145307,10,686,2,1536.0178276720108,,1537.5196157830069,,,,,,,,,,,,,,,,,,,,,,,,,,,,,,,,,,,,,,,,,,,,,,,,,,,,,,,,,,,,,,,,,,,,,,,,,,37040,2022-11-22_10h17.54.641,vts_reward_expectancy_bt_OFFLINE,2022.2.4,60.063949969640696,
0,0,0,1,0,1,0,0,star ,circle,2,0,2,0,2,8,32,10,,,,,,,,,,,,,,,,,,,,,,,,,,,,,,,,,,,,,,,,1538.0200652799977,1538.0200652799977,1538.0200652799977,1538.0200652799977,1538.0200652799977,1538.0200652799977,1538.0200652799977,1538.0200652799977,1538.0200652799977,1538.0200652799977,l,0.9354474910069257,1,687,2,1538.988065100013,,1540.4895965199976,,,,,,,,,,,,,,,,,,,,,,,,,,,,,,,,,,,,,,,,,,,,,,,,,,,,,,,,,,,,,,,,,,,,,,,,,,37040,2022-11-22_10h17.54.641,vts_reward_expectancy_bt_OFFLINE,2022.2.4,60.063949969640696,
0,1,0,0,0,0,1,0,circle,hexagon,2,0,2,0,2,9,33,4,,,,,,,,,,,,,,,,,,,,,,,,,,,,,,,,,,,,,,,,1540.9900777580042,1540.9900777580042,1540.9900777580042,1540.9900777580042,1540.9900777580042,1540.9900777580042,1540.9900777580042,1540.9900777580042,1540.9900777580042,1540.9900777580042,a,1.6691051480011083,1,688,2,1542.6918622470112,1544.1935695060238,1544.1935695060238,,,,,,,,,,,,,,,,,,,,,,,,,,,,,,,,,,,,,,,,,,,,,,,,,,,,,,,,,,,,,,,,,,,,,,,,,,37040,2022-11-22_10h17.54.641,vts_reward_expectancy_bt_OFFLINE,2022.2.4,60.063949969640696,
0,0,1,0,1,0,0,0,hexagon,triangle,2,0,2,0,2,10,34,6,,,,,,,,,,,,,,,,,,,,,,,,,,,,,,,,,,,,,,,,1544.6942904780153,1544.6942904780153,1544.6942904780153,1544.6942904780153,1544.6942904780153,1544.6942904780153,1544.6942904780153,1544.6942904780153,1544.6942904780153,1544.6942904780153,l,1.2587451830040663,1,689,2,1545.978939366003,,1547.4804046710196,,,,,,,,,,,,,,,,,,,,,,,,,,,,,,,,,,,,,,,,,,,,,,,,,,,,,,,,,,,,,,,,,,,,,,,,,,37040,2022-11-22_10h17.54.641,vts_reward_expectancy_bt_OFFLINE,2022.2.4,60.063949969640696,
0,1,0,0,0,0,0,1,circle,star,2,0,2,0,2,11,35,5,,,,,,,,,,,,,,,,,,,,,,,,,,,,,,,,,,,,,,,,1547.981135037,1547.981135037,1547.981135037,1547.981135037,1547.981135037,1547.981135037,1547.981135037,1547.981135037,1547.981135037,1547.981135037,l,2.3840957570064347,10,699,2,1550.3841168660147,,1551.8856078330136,,,,,,,,,,,,,,,,,,,,,,,,,,,,,,,,,,,,,,,,,,,,,,,,,,,,,,,,,,,,,,,,,,,,,,,,,,37040,2022-11-22_10h17.54.641,vts_reward_expectancy_bt_OFFLINE,2022.2.4,60.063949969640696,
1,0,0,0,0,0,1,0,triangle,hexagon,2,0,2,0,3,0,36,1,,,,,,,,,,,,,,,,,,,,,,,,,,,,,,,,,,,,,,,,1552.3860730300075,1552.3860730300075,1552.3860730300075,1552.3860730300075,1552.3860730300075,1552.3860730300075,1552.3860730300075,1552.3860730300075,1552.3860730300075,1552.3860730300075,l,1.0377907830115873,10,709,2,1553.4538045530207,,1554.9554892610176,,,,,,,,,,,,,,,,,,,,,,,,,,,,,,,,,,,,,,,,,,,,,,,,,,,,,,,,,,,,,,,,,,,,,,,,,,37040,2022-11-22_10h17.54.641,vts_reward_expectancy_bt_OFFLINE,2022.2.4,60.063949969640696,
0,0,1,0,0,1,0,0,hexagon,circle,2,0,2,0,3,1,37,7,,,,,,,,,,,,,,,,,,,,,,,,,,,,,,,,,,,,,,,,1555.456138383015,1555.456138383015,1555.456138383015,1555.456138383015,1555.456138383015,1555.456138383015,1555.456138383015,1555.456138383015,1555.456138383015,1555.456138383015,a,1.2653171869751532,1,710,2,1556.7408469100192,,1558.242288456997,,,,,,,,,,,,,,,,,,,,,,,,,,,,,,,,,,,,,,,,,,,,,,,,,,,,,,,,,,,,,,,,,,,,,,,,,,37040,2022-11-22_10h17.54.641,vts_reward_expectancy_bt_OFFLINE,2022.2.4,60.063949969640696,
0,1,0,0,0,0,1,0,circle,hexagon,2,0,2,0,3,2,38,4,,,,,,,,,,,,,,,,,,,,,,,,,,,,,,,,,,,,,,,,1558.7429276810144,1558.7429276810144,1558.7429276810144,1558.7429276810144,1558.7429276810144,1558.7429276810144,1558.7429276810144,1558.7429276810144,1558.7429276810144,1558.7429276810144,l,1.7256455080059823,10,720,2,1560.4950680410257,,1561.9967388549994,,,,,,,,,,,,,,,,,,,,,,,,,,,,,,,,,,,,,,,,,,,,,,,,,,,,,,,,,,,,,,,,,,,,,,,,,,37040,2022-11-22_10h17.54.641,vts_reward_expectancy_bt_OFFLINE,2022.2.4,60.063949969640696,
0,1,0,0,1,0,0,0,circle,triangle,2,0,2,0,3,3,39,3,,,,,,,,,,,,,,,,,,,,,,,,,,,,,,,,,,,,,,,,1562.4970917400206,1562.4970917400206,1562.4970917400206,1562.4970917400206,1562.4970917400206,1562.4970917400206,1562.4970917400206,1562.4970917400206,1562.4970917400206,1562.4970917400206,a,1.9643589059996884,1,721,2,1564.4827133710205,,1565.9844939800096,,,,,,,,,,,,,,,,,,,,,,,,,,,,,,,,,,,,,,,,,,,,,,,,,,,,,,,,,,,,,,,,,,,,,,,,,,37040,2022-11-22_10h17.54.641,vts_reward_expectancy_bt_OFFLINE,2022.2.4,60.063949969640696,
0,0,0,1,0,0,1,0,star,hexagon,2,0,2,0,3,4,40,11,,,,,,,,,,,,,,,,,,,,,,,,,,,,,,,,,,,,,,,,1566.484888468025,1566.484888468025,1566.484888468025,1566.484888468025,1566.484888468025,1566.484888468025,1566.484888468025,1566.484888468025,1566.484888468025,1566.484888468025,l,2.3638966150174383,1,722,2,1568.8707378660038,,1570.3724901580135,,,,,,,,,,,,,,,,,,,,,,,,,,,,,,,,,,,,,,,,,,,,,,,,,,,,,,,,,,,,,,,,,,,,,,,,,,37040,2022-11-22_10h17.54.641,vts_reward_expectancy_bt_OFFLINE,2022.2.4,60.063949969640696,
1,0,0,0,0,0,0,1,triangle,star,2,0,2,0,3,5,41,2,,,,,,,,,,,,,,,,,,,,,,,,,,,,,,,,,,,,,,,,1570.8729653680057,1570.8729653680057,1570.8729653680057,1570.8729653680057,1570.8729653680057,1570.8729653680057,1570.8729653680057,1570.8729653680057,1570.8729653680057,1570.8729653680057,a,1.2382650380022824,10,732,2,1572.1411018400104,,1573.6427770450246,,,,,,,,,,,,,,,,,,,,,,,,,,,,,,,,,,,,,,,,,,,,,,,,,,,,,,,,,,,,,,,,,,,,,,,,,,37040,2022-11-22_10h17.54.641,vts_reward_expectancy_bt_OFFLINE,2022.2.4,60.063949969640696,
0,0,1,0,0,0,0,1,hexagon,star,2,0,2,0,3,6,42,8,,,,,,,,,,,,,,,,,,,,,,,,,,,,,,,,,,,,,,,,1574.1434702970146,1574.1434702970146,1574.1434702970146,1574.1434702970146,1574.1434702970146,1574.1434702970146,1574.1434702970146,1574.1434702970146,1574.1434702970146,1574.1434702970146,l,1.5791759479907341,10,742,2,1575.7451632530137,,1577.2466205100063,,,,,,,,,,,,,,,,,,,,,,,,,,,,,,,,,,,,,,,,,,,,,,,,,,,,,,,,,,,,,,,,,,,,,,,,,,37040,2022-11-22_10h17.54.641,vts_reward_expectancy_bt_OFFLINE,2022.2.4,60.063949969640696,
0,0,0,1,0,1,0,0,star ,circle,2,0,2,0,3,7,43,10,,,,,,,,,,,,,,,,,,,,,,,,,,,,,,,,,,,,,,,,1577.7471492020122,1577.7471492020122,1577.7471492020122,1577.7471492020122,1577.7471492020122,1577.7471492020122,1577.7471492020122,1577.7471492020122,1577.7471492020122,1577.7471492020122,a,2.25330123398453,10,752,2,1580.033108447009,,1581.5346846930042,,,,,,,,,,,,,,,,,,,,,,,,,,,,,,,,,,,,,,,,,,,,,,,,,,,,,,,,,,,,,,,,,,,,,,,,,,37040,2022-11-22_10h17.54.641,vts_reward_expectancy_bt_OFFLINE,2022.2.4,60.063949969640696,
0,0,1,0,1,0,0,0,hexagon,triangle,2,0,2,0,3,8,44,6,,,,,,,,,,,,,,,,,,,,,,,,,,,,,,,,,,,,,,,,1582.0351237010036,1582.0351237010036,1582.0351237010036,1582.0351237010036,1582.0351237010036,1582.0351237010036,1582.0351237010036,1582.0351237010036,1582.0351237010036,1582.0351237010036,a,1.4189890730194747,1,753,2,1583.486894695001,,1584.9884885350184,,,,,,,,,,,,,,,,,,,,,,,,,,,,,,,,,,,,,,,,,,,,,,,,,,,,,,,,,,,,,,,,,,,,,,,,,,37040,2022-11-22_10h17.54.641,vts_reward_expectancy_bt_OFFLINE,2022.2.4,60.063949969640696,
0,1,0,0,0,0,0,1,circle,star,2,0,2,0,3,9,45,5,,,,,,,,,,,,,,,,,,,,,,,,,,,,,,,,,,,,,,,,1585.4890076200245,1585.4890076200245,1585.4890076200245,1585.4890076200245,1585.4890076200245,1585.4890076200245,1585.4890076200245,1585.4890076200245,1585.4890076200245,1585.4890076200245,l,0.6749664579983801,1,754,2,1586.189728377998,,1587.6918327120075,,,,,,,,,,,,,,,,,,,,,,,,,,,,,,,,,,,,,,,,,,,,,,,,,,,,,,,,,,,,,,,,,,,,,,,,,,37040,2022-11-22_10h17.54.641,vts_reward_expectancy_bt_OFFLINE,2022.2.4,60.063949969640696,
1,0,0,0,0,1,0,0,triangle,circle,2,0,2,0,3,10,46,0,,,,,,,,,,,,,,,,,,,,,,,,,,,,,,,,,,,,,,,,1588.1921729050227,1588.1921729050227,1588.1921729050227,1588.1921729050227,1588.1921729050227,1588.1921729050227,1588.1921729050227,1588.1921729050227,1588.1921729050227,1588.1921729050227,a,1.9775886810093652,10,764,2,1590.194808197004,1591.6959556180227,1591.6959556180227,,,,,,,,,,,,,,,,,,,,,,,,,,,,,,,,,,,,,,,,,,,,,,,,,,,,,,,,,,,,,,,,,,,,,,,,,,37040,2022-11-22_10h17.54.641,vts_reward_expectancy_bt_OFFLINE,2022.2.4,60.063949969640696,
0,0,0,1,1,0,0,0,star,triangle,2,0,2,0,3,11,47,9,,,,,,,,,,,,,,,,,,,,,,,,,,,,,,,,,,,,,,,,1592.1964383730083,1592.1964383730083,1592.1964383730083,1592.1964383730083,1592.1964383730083,1592.1964383730083,1592.1964383730083,1592.1964383730083,1592.1964383730083,1592.1964383730083,l,1.3362834980071057,1,765,2,1593.5646503800235,,1595.0664602130128,,,,,,,,,,,,,,,,,,,,,,,,,,,,,,,,,,,,,,,,,,,,,,,,,,,,,,,,,,,,,,,,,,,,,,,,,,37040,2022-11-22_10h17.54.641,vts_reward_expectancy_bt_OFFLINE,2022.2.4,60.063949969640696,
,,,,,,,,,,,,,,,,,,0,0,0,0,0,0,0,0,,,,,,,,,,,,,,,,,,,,,,,,,,,,,,,,,,,,,,,,,,,,,,,,,1657.8855662000133,1658.386356795003,132,U,hexagon,0.002062187995761633,1651.8800783450133,1653.3808784730209,1653.3808784730209,1653.3808784730209,1656.3841328319977,1656.3841328319977,1656.3841328319977,1656.3841328319977,0,0,None,0,1656.3841328319977,1657.8855662000133,,,,,,,,,,,,,,,,,,,,,,,,,,,,,,,,,,,,,,,,,,,,,,,,,,,,,,,37040,2022-11-22_10h17.54.641,vts_reward_expectancy_bt_OFFLINE,2022.2.4,60.063949969640696,
,,,,,,,,,,,,,,,,,,0,0,0,0,1,0,1,0,,,,,,,,,,,,,,,,,,,,,,,,,,,,,,,,,,,,,,,,,,,,,,,,,1662.9912455660233,,174,W,triangle,0.009155171981547028,1658.8870335200045,1660.3884607350046,1660.3884607350046,1660.3884607350046,,,,,1,1,f,0,1661.489456787007,,1.0682883070257958,,,,,,,,,,,,,,,,,,,,,,,,,,,,,,,,,,,,,,,,,,,,,,,,,,,,,,37040,2022-11-22_10h17.54.641,vts_reward_expectancy_bt_OFFLINE,2022.2.4,60.063949969640696,
,,,,,,,,,,,,,,,,,,0,0,0,0,2,0,2,0,,,,,,,,,,,,,,,,,,,,,,,,,,,,,,,,,,,,,,,,,,,,,,,,,1668.5141354380175,,181,Y,star,0.0012136389850638807,1663.9756312060053,1665.4774231100164,1665.4774231100164,1665.4774231100164,,,,,1,0,f,0,1667.0122203470091,,1.512459157005651,,,,,,,,,,,,,,,,,,,,,,,,,,,,,,,,,,,,,,,,,,,,,,,,,,,,,,37040,2022-11-22_10h17.54.641,vts_reward_expectancy_bt_OFFLINE,2022.2.4,60.063949969640696,
,,,,,,,,,,,,,,,,,,0,0,0,0,3,0,3,0,,,,,,,,,,,,,,,,,,,,,,,,,,,,,,,,,,,,,,,,,,,,,,,,,1673.6699499899987,,160,D,circle,0.0014191740192472935,1669.4988443019975,1671.0000627880218,1671.0000627880218,1671.0000627880218,,,,,1,0,f,0,1672.1679982269998,,1.142550916003529,,,,,,,,,,,,,,,,,,,,,,,,,,,,,,,,,,,,,,,,,,,,,,,,,,,,,,37040,2022-11-22_10h17.54.641,vts_reward_expectancy_bt_OFFLINE,2022.2.4,60.063949969640696,
,,,,,,,,,,,,,,,,,,0,0,0,0,4,0,4,0,,,,,,,,,,,,,,,,,,,,,,,,,,,,,,,,,,,,,,,,,,,,,,,,,1678.7085946720035,,125,H,hexagon,0.001717828999971971,1674.6543351610017,1676.1558996160165,1676.1558996160165,1676.1558996160165,,,,,1,0,d,0,1677.2071111859987,,1.026641981996363,,,,,,,,,,,,,,,,,,,,,,,,,,,,,,,,,,,,,,,,,,,,,,,,,,,,,,37040,2022-11-22_10h17.54.641,vts_reward_expectancy_bt_OFFLINE,2022.2.4,60.063949969640696,
,,,,,,,,,,,,,,,,,,0,0,0,0,5,0,5,0,,,,,,,,,,,,,,,,,,,,,,,,,,,,,,,,,,,,,,,,,,,,,,,,,1683.9478990880016,,167,F,triangle,0.00135710698668845,1679.693174576998,1681.194724777015,1681.194724777015,1681.194724777015,,,,,1,0,f,0,1682.4458551720018,,1.2201891610166058,,,,,,,,,,,,,,,,,,,,,,,,,,,,,,,,,,,,,,,,,,,,,,,,,,,,,,37040,2022-11-22_10h17.54.641,vts_reward_expectancy_bt_OFFLINE,2022.2.4,60.063949969640696,
,,,,,,,,,,,,,,,,,,0,0,0,0,6,0,6,0,,,,,,,,,,,,,,,,,,,,,,,,,,,,,,,,,,,,,,,,,,,,,,,,,1688.8199116870237,,139,B,star,0.0010825979989022017,1684.9324892930163,1686.4337642320024,1686.4337642320024,1686.4337642320024,,,,,1,0,d,0,1687.318231532001,,0.8643362979928497,,,,,,,,,,,,,,,,,,,,,,,,,,,,,,,,,,,,,,,,,,,,,,,,,,,,,,37040,2022-11-22_10h17.54.641,vts_reward_expectancy_bt_OFFLINE,2022.2.4,60.063949969640696,
,,,,,,,,,,,,,,,,,,0,0,0,0,7,0,7,0,,,,,,,,,,,,,,,,,,,,,,,,,,,,,,,,,,,,,,,,,,,,,,,,,1693.8587017760146,,146,S,circle,0.0009659070055931807,1689.804440937005,1691.3058235800127,1691.3058235800127,1691.3058235800127,,,,,1,0,d,0,1692.3569926610216,1693.8587017760146,1.0333902680140454,,,,,,,,,,,,,,,,,,,,,,,,,,,,,,,,,,,,,,,,,,,,,,,,,,,,,,37040,2022-11-22_10h17.54.641,vts_reward_expectancy_bt_OFFLINE,2022.2.4,60.063949969640696,
,,,,,,,,,,,,,,,,,,0,0,0,0,8,0,8,0,,,,,,,,,,,,,,,,,,,,,,,,,,,,,,,,,,,,,,,,,,,,,,,,,1699.114566862001,,132,U,hexagon,0.0010461219935677946,1694.8431239900237,1696.344961373019,1696.344961373019,1696.344961373019,,,,,1,0,d,0,1697.612825595017,,1.2469411339843646,,,,,,,,,,,,,,,,,,,,,,,,,,,,,,,,,,,,,,,,,,,,,,,,,,,,,,37040,2022-11-22_10h17.54.641,vts_reward_expectancy_bt_OFFLINE,2022.2.4,60.063949969640696,
,,,,,,,,,,,,,,,,,,0,0,0,0,9,0,9,0,,,,,,,,,,,,,,,,,,,,,,,,,,,,,,,,,,,,,,,,,,,,,,,,,1704.3535795580246,,174,W,circle,0.0011719010071828961,1700.0990804170142,1701.6005682109972,1701.6005682109972,1701.6005682109972,,,,,1,0,f,0,1702.852054220013,,1.224147859000368,,,,,,,,,,,,,,,,,,,,,,,,,,,,,,,,,,,,,,,,,,,,,,,,,,,,,,37040,2022-11-22_10h17.54.641,vts_reward_expectancy_bt_OFFLINE,2022.2.4,60.063949969640696,
,,,,,,,,,,,,,,,,,,,,,,,,,,0,0,0,0,0,0,0,0,,,,,,,,,,,,,,,,,,,,,,,,,,,,,,,,,,,,,,,,,1734.2865840680024,,174,D,star,0.0018844610021915287,,,,,,,,,1,0,,1,1732.7849791420158,,,1729.6317710810108,1731.133175251016,1731.133175251016,1731.133175251016,j,1.6190413369913585,,,,,,,,,,,,,,,,,,,,,,,,,,,,,,,,,,,,,,,,,,,,,,,,37040,2022-11-22_10h17.54.641,vts_reward_expectancy_bt_OFFLINE,2022.2.4,60.063949969640696,
,,,,,,,,,,,,,,,,,,,,,,,,,,0,0,0,0,1,0,1,0,,,,,,,,,,,,,,,,,,,,,,,,,,,,,,,,,,,,,,,,,1739.0253033120243,,132,U,circle,0.001103135000448674,,,,,,,,,1,0,,1,1737.5232919550035,,,1735.2711342170078,1736.7723846480076,1736.7723846480076,1736.7723846480076,k,0.72580245800782,,,,,,,,,,,,,,,,,,,,,,,,,,,,,,,,,,,,,,,,,,,,,,,,37040,2022-11-22_10h17.54.641,vts_reward_expectancy_bt_OFFLINE,2022.2.4,60.063949969640696,
,,,,,,,,,,,,,,,,,,,,,,,,,,0,0,0,0,2,0,2,0,,,,,,,,,,,,,,,,,,,,,,,,,,,,,,,,,,,,,,,,,1744.1644331980206,,167,Y,triangle,0.001182831998448819,,,,,,,,,1,0,,1,1742.6626185050118,,,1740.0094894450158,1741.5114211580076,1741.5114211580076,1741.5114211580076,k,1.1187008950219024,,,,,,,,,,,,,,,,,,,,,,,,,,,,,,,,,,,,,,,,,,,,,,,,37040,2022-11-22_10h17.54.641,vts_reward_expectancy_bt_OFFLINE,2022.2.4,60.063949969640696,
,,,,,,,,,,,,,,,,,,,,,,,,,,0,0,0,0,3,0,3,0,,,,,,,,,,,,,,,,,,,,,,,,,,,,,,,,,,,,,,,,,1748.9530498850218,,181,B,hexagon,0.0013214159989729524,,,,,,,,,1,0,,1,1747.4513959820033,,,1745.148740923003,1746.6502856920124,1746.6502856920124,1746.6502856920124,j,0.7724995149765164,,,,,,,,,,,,,,,,,,,,,,,,,,,,,,,,,,,,,,,,,,,,,,,,37040,2022-11-22_10h17.54.641,vts_reward_expectancy_bt_OFFLINE,2022.2.4,60.063949969640696,
,,,,,,,,,,,,,,,,,,,,,,,,,,0,0,0,0,4,0,4,0,,,,,,,,,,,,,,,,,,,,,,,,,,,,,,,,,,,,,,,,,1753.7580606430129,,125,F,triangle,0.0012451930087991059,,,,,,,,,1,0,,1,1752.2566667460196,,,1749.9372649830184,1751.4391405460192,1751.4391405460192,1751.4391405460192,j,0.7862755070091225,,,,,,,,,,,,,,,,,,,,,,,,,,,,,,,,,,,,,,,,,,,,,,,,37040,2022-11-22_10h17.54.641,vts_reward_expectancy_bt_OFFLINE,2022.2.4,60.063949969640696,
,,,,,,,,,,,,,,,,,,,,,,,,,,0,0,0,0,5,0,5,0,,,,,,,,,,,,,,,,,,,,,,,,,,,,,,,,,,,,,,,,,1758.4965215270058,,139,H,circle,0.0012781829864252359,,,,,,,,,1,0,,1,1756.995050152007,,,1754.742574436008,1756.244139101007,1756.244139101007,1756.244139101007,j,0.7186263149778824,,,,,,,,,,,,,,,,,,,,,,,,,,,,,,,,,,,,,,,,,,,,,,,,37040,2022-11-22_10h17.54.641,vts_reward_expectancy_bt_OFFLINE,2022.2.4,60.063949969640696,
,,,,,,,,,,,,,,,,,,,,,,,,,,0,0,0,0,6,0,6,0,,,,,,,,,,,,,,,,,,,,,,,,,,,,,,,,,,,,,,,,,1762.9349252270185,,146,S,star,0.001361591974273324,,,,,,,,,1,0,,1,1761.4331304510124,,,1759.4811080850195,1760.9826163950202,1760.9826163950202,1760.9826163950202,k,0.42407726499368437,,,,,,,,,,,,,,,,,,,,,,,,,,,,,,,,,,,,,,,,,,,,,,,,37040,2022-11-22_10h17.54.641,vts_reward_expectancy_bt_OFFLINE,2022.2.4,60.063949969640696,
,,,,,,,,,,,,,,,,,,,,,,,,,,0,0,0,0,7,0,7,0,,,,,,,,,,,,,,,,,,,,,,,,,,,,,,,,,,,,,,,,,1767.8237718180171,,160,W,hexagon,0.0016648200107738376,,,,,,,,,1,0,,1,1766.3221280500002,,,1763.919593307015,1765.4208903030085,1765.4208903030085,1765.4208903030085,k,0.8801338280027267,,,,,,,,,,,,,,,,,,,,,,,,,,,,,,,,,,,,,,,,,,,,,,,,37040,2022-11-22_10h17.54.641,vts_reward_expectancy_bt_OFFLINE,2022.2.4,60.063949969640696,
,,,,,,,,,,,,,,,,,,,,,,,,,,0,0,0,0,8,0,8,0,,,,,,,,,,,,,,,,,,,,,,,,,,,,,,,,,,,,,,,,,1772.6624942799972,,174,D,triangle,0.0012971769901923835,,,,,,,,,1,0,,1,1771.1603274750232,,,1768.808127021999,1770.3093974680232,1770.3093974680232,1770.3093974680232,j,0.8286810010031331,,,,,,,,,,,,,,,,,,,,,,,,,,,,,,,,,,,,,,,,,,,,,,,,37040,2022-11-22_10h17.54.641,vts_reward_expectancy_bt_OFFLINE,2022.2.4,60.063949969640696,
,,,,,,,,,,,,,,,,,,,,,,,,,,0,0,0,0,9,0,9,0,,,,,,,,,,,,,,,,,,,,,,,,,,,,,,,,,,,,,,,,,1777.4009113950015,,132,U,star,0.0017683070036582649,,,,,,,,,1,0,,1,1775.899186005001,,,1773.6467359850067,1775.1484864719969,1775.1484864719969,1775.1484864719969,k,0.7267345759901218,,,,,,,,,,,,,,,,,,,,,,,,,,,,,,,,,,,,,,,,,,,,,,,,37040,2022-11-22_10h17.54.641,vts_reward_expectancy_bt_OFFLINE,2022.2.4,60.063949969640696,
,,,,,,,,,,,,,,,,,,,,,,,,,,,,,,,,,,0,0,0,0,0,0,0,0,,,,,,,,,,,,,,,,,,,,,,,,,,,,0,765,,,,1815.409309203009,,174,U,triangle,0.0007340009906329215,,,,,,,,,1,0,,2,,,,,,,,,,1809.653239406005,1809.653239406005,1809.653239406005,1809.653239406005,1811.138205226016,1811.138205226016,1811.138205226016,1811.138205226016,1811.1549111350032,1811.1549111350032,1811.1549111350032,1811.1549111350032,-1,number,NA,f,2.7315631009987555,vtsPrac,1813.9078377850237,,,,,,,,,,,,,,,,,,,,,,,,,,,,,37040,2022-11-22_10h17.54.641,vts_reward_expectancy_bt_OFFLINE,2022.2.4,60.063949969640696,
,,,,,,,,,,,,,,,,,,,,,,,,,,,,,,,,,,0,0,0,0,1,0,1,0,,,,,,,,,,,,,,,,,,,,,,,,,,,,0,765,,,,1821.8330847800244,,160,W,circle,0.001067559001967311,,,,,,,,,1,0,,2,,,,,,,,,,1816.378520327009,1816.378520327009,1816.378520327009,1816.378520327009,1817.8790252480248,1817.8790252480248,1817.8790252480248,1817.8790252480248,1817.8790252480248,1817.8790252480248,1817.8790252480248,1817.8790252480248,repeat,number,numRpt,f,2.4256778779963497,vtsPrac,1820.3317086910247,1821.8330847800244,,,,,,,,,,,,,,,,,,,,,,,,,,,,37040,2022-11-22_10h17.54.641,vts_reward_expectancy_bt_OFFLINE,2022.2.4,60.063949969640696,
,,,,,,,,,,,,,,,,,,,,,,,,,,,,,,,,,,0,0,0,0,2,0,2,0,,,,,,,,,,,,,,,,,,,,,,,,,,,,0,765,,,,1826.855315325025,,125,B,star,0.0012679740029852837,,,,,,,,,1,0,,2,,,,,,,,,,1822.818090202025,1822.818090202025,1822.818090202025,1822.818090202025,1824.3192647770047,1824.3192647770047,1824.3192647770047,1824.3192647770047,1824.3192647770047,1824.3192647770047,1824.3192647770047,1824.3192647770047,switch,letter,lettSwt,j,1.0031165819964372,vtsPrac,1825.3536268160096,1826.855315325025,,,,,,,,,,,,,,,,,,,,,,,,,,,,37040,2022-11-22_10h17.54.641,vts_reward_expectancy_bt_OFFLINE,2022.2.4,60.063949969640696,
,,,,,,,,,,,,,,,,,,,,,,,,,,,,,,,,,,0,0,0,0,3,0,3,0,,,,,,,,,,,,,,,,,,,,,,,,,,,,0,765,,,,1833.8632090860046,,146,S,triangle,0.0011284270149189979,,,,,,,,,-1,0,,2,,,,,,,,,,1827.8400419870159,1827.8400419870159,1827.8400419870159,1827.8400419870159,1829.3416144700022,1829.3416144700022,1829.3416144700022,1829.3416144700022,1829.3416144700022,1829.3416144700022,1829.3416144700022,1829.3416144700022,switch,no_choice,NA,None,,vtsPrac,1832.3618063610047,,1832.3618063610047,1832.3618063610047,1832.3618063610047,1832.3618063610047,,,,,,,,,,,,,,,,,,,,,,,,37040,2022-11-22_10h17.54.641,vts_reward_expectancy_bt_OFFLINE,2022.2.4,60.063949969640696,
,,,,,,,,,,,,,,,,,,,,,,,,,,,,,,,,,,0,0,0,0,4,0,4,0,,,,,,,,,,,,,,,,,,,,,,,,,,,,0,765,,,,1839.0520932229992,,174,U,triangle,0.008921828994061798,,,,,,,,,1,0,,2,,,,,,,,,,1834.8475310600188,1834.8475310600188,1834.8475310600188,1834.8475310600188,1836.3491946430004,1836.3491946430004,1836.3491946430004,1836.3491946430004,1836.3491946430004,1836.3491946430004,1836.3491946430004,1836.3491946430004,switch,letter,lettSwt,k,1.1690955070080236,vtsPrac,1837.550567487022,,,,,,,,,,,,,,,,,,,,,,,,,,,,,37040,2022-11-22_10h17.54.641,vts_reward_expectancy_bt_OFFLINE,2022.2.4,60.063949969640696,
,,,,,,,,,,,,,,,,,,,,,,,,,,,,,,,,,,0,0,0,0,5,0,5,0,,,,,,,,,,,,,,,,,,,,,,,,,,,,0,765,,,,1843.7572825649986,,160,W,circle,0.0012452499940991402,,,,,,,,,1,0,,2,,,,,,,,,,1840.0365446210199,1840.0365446210199,1840.0365446210199,1840.0365446210199,1841.5382092049986,1841.5382092049986,1841.5382092049986,1841.5382092049986,1841.5382092049986,1841.5382092049986,1841.5382092049986,1841.5382092049986,repeat,letter,lettRpt,k,0.6852585870074108,vtsPrac,1842.2556248000183,,,,,,,,,,,,,,,,,,,,,,,,,,,,,37040,2022-11-22_10h17.54.641,vts_reward_expectancy_bt_OFFLINE,2022.2.4,60.063949969640696,
,,,,,,,,,,,,,,,,,,,,,,,,,,,,,,,,,,0,0,0,0,6,0,6,0,,,,,,,,,,,,,,,,,,,,,,,,,,,,0,765,,,,1848.5629605450085,,125,B,triangle,0.0012627349933609366,,,,,,,,,1,0,,2,,,,,,,,,,1844.7419156150136,1844.7419156150136,1844.7419156150136,1844.7419156150136,1846.2435492680233,1846.2435492680233,1846.2435492680233,1846.2435492680233,1846.2435492680233,1846.2435492680233,1846.2435492680233,1846.2435492680233,switch,number,numSwt,d,0.7930645830056164,vtsPrac,1847.061159281002,1848.5629605450085,,,,,,,,,,,,,,,,,,,,,,,,,,,,37040,2022-11-22_10h17.54.641,vts_reward_expectancy_bt_OFFLINE,2022.2.4,60.063949969640696,
,,,,,,,,,,,,,,,,,,,,,,,,,,,,,,,,,,0,0,0,0,7,0,7,0,,,,,,,,,,,,,,,,,,,,,,,,,,,,0,765,,,,1853.1844521599996,,146,S,hexagon,0.0013016779848840088,,,,,,,,,1,0,,2,,,,,,,,,,1849.5469996730099,1849.5469996730099,1849.5469996730099,1849.5469996730099,1851.048756268021,1851.048756268021,1851.048756268021,1851.048756268021,1851.048756268021,1851.048756268021,1851.048756268021,1851.048756268021,switch,letter,lettSwt,k,0.6018970810109749,vtsPrac,1851.6829959310126,,,,,,,,,,,,,,,,,,,,,,,,,,,,,37040,2022-11-22_10h17.54.641,vts_reward_expectancy_bt_OFFLINE,2022.2.4,60.063949969640696,
,,,,,,,,,,,,,,,,,,,,,,,,,,,,,,,,,,0,0,0,0,8,0,8,0,,,,,,,,,,,,,,,,,,,,,,,,,,,,0,765,,,,1857.939620248013,,160,F,triangle,0.0012340579996816814,,,,,,,,,1,0,,2,,,,,,,,,,1854.168819270999,1854.168819270999,1854.168819270999,1854.168819270999,1855.6707085950184,1855.6707085950184,1855.6707085950184,1855.6707085950184,1855.6707085950184,1855.6707085950184,1855.6707085950184,1855.6707085950184,switch,number,numSwt,f,0.7510321100126021,vtsPrac,1856.4380650250241,1857.939620248013,,,,,,,,,,,,,,,,,,,,,,,,,,,,37040,2022-11-22_10h17.54.641,vts_reward_expectancy_bt_OFFLINE,2022.2.4,60.063949969640696,
,,,,,,,,,,,,,,,,,,,,,,,,,,,,,,,,,,0,0,0,0,9,0,9,0,,,,,,,,,,,,,,,,,,,,,,,,,,,,0,765,,,,1862.9117946510087,,139,S,circle,0.000670409994199872,,,,,,,,,1,0,,2,,,,,,,,,,1858.9240108400118,1858.9240108400118,1858.9240108400118,1858.9240108400118,1860.4257253370015,1860.4257253370015,1860.4257253370015,1860.4257253370015,1860.4257253370015,1860.4257253370015,1860.4257253370015,1860.4257253370015,repeat,number,numRpt,d,0.9572189890022855,vtsPrac,1861.4101524970029,,,,,,,,,,,,,,,,,,,,,,,,,,,,,37040,2022-11-22_10h17.54.641,vts_reward_expectancy_bt_OFFLINE,2022.2.4,60.063949969640696,
,,,,,,,,,,,,,,,,,,,,,,,,,,,,,,,,,,0,0,0,0,10,0,10,0,,,,,,,,,,,,,,,,,,,,,,,,,,,,0,765,,,,1867.4837273380253,,181,U,hexagon,0.001308273000176996,,,,,,,,,1,0,,2,,,,,,,,,,1863.8964697600168,1863.8964697600168,1863.8964697600168,1863.8964697600168,1865.398040893022,1865.398040893022,1865.398040893022,1865.398040893022,1865.398040893022,1865.398040893022,1865.398040893022,1865.398040893022,repeat,number,numRpt,f,0.5519349869864527,vtsPrac,1865.9818443930126,,,,,,,,,,,,,,,,,,,,,,,,,,,,,37040,2022-11-22_10h17.54.641,vts_reward_expectancy_bt_OFFLINE,2022.2.4,60.063949969640696,
,,,,,,,,,,,,,,,,,,,,,,,,,,,,,,,,,,0,0,0,0,11,0,11,0,,,,,,,,,,,,,,,,,,,,,,,,,,,,0,765,,,,1872.689302415005,,132,D,star,0.001323665987001732,,,,,,,,,1,0,,2,,,,,,,,,,1868.4680346750247,1868.4680346750247,1868.4680346750247,1868.4680346750247,1869.9699544080067,1869.9699544080067,1869.9699544080067,1869.9699544080067,1869.9699544080067,1869.9699544080067,1869.9699544080067,1869.9699544080067,switch,letter,lettSwt,j,1.1882341550081037,vtsPrac,1871.1876075020118,1872.689302415005,,,,,,,,,,,,,,,,,,,,,,,,,,,,37040,2022-11-22_10h17.54.641,vts_reward_expectancy_bt_OFFLINE,2022.2.4,60.063949969640696,
,,,,,,,,,,,,,,,,,,,,,,,,,,,,,,,,,,0,0,0,0,12,0,12,0,,,,,,,,,,,,,,,,,,,,,,,,,,,,0,765,,,,1877.3277954460063,1877.8282600320235,125,S,hexagon,0.0011754749866668135,,,,,,,,,1,0,,2,,,,,,,,,,1873.6738287420012,1873.6738287420012,1873.6738287420012,1873.6738287420012,1875.1755570080131,1875.1755570080131,1875.1755570080131,1875.1755570080131,1875.1755570080131,1875.1755570080131,1875.1755570080131,1875.1755570080131,repeat,letter,lettRpt,k,0.6295315230090637,vtsPrac,1875.8260427570203,1877.3277954460063,,,,,,,,,,,,,,,,,,,,,,,,,,,,37040,2022-11-22_10h17.54.641,vts_reward_expectancy_bt_OFFLINE,2022.2.4,60.063949969640696,
,,,,,,,,,,,,,,,,,,,,,,,,,,,,,,,,,,0,0,0,0,13,0,13,0,,,,,,,,,,,,,,,,,,,,,,,,,,,,0,765,,,,1882.0998289220151,,181,F,circle,0.0010034730075858533,,,,,,,,,1,0,,2,,,,,,,,,,1878.3124438320228,1878.3124438320228,1878.3124438320228,1878.3124438320228,1879.813783880003,1879.813783880003,1879.813783880003,1879.813783880003,1879.813783880003,1879.813783880003,1879.813783880003,1879.813783880003,repeat,letter,lettRpt,j,0.7520734549907502,vtsPrac,1880.5979950510082,,,,,,,,,,,,,,,,,,,,,,,,,,,,,37040,2022-11-22_10h17.54.641,vts_reward_expectancy_bt_OFFLINE,2022.2.4,60.063949969640696,
,,,,,,,,,,,,,,,,,,,,,,,,,,,,,,,,,,0,0,0,0,14,0,14,0,,,,,,,,,,,,,,,,,,,,,,,,,,,,0,765,,,,1886.75478032502,,174,Y,hexagon,0.0011106180027127266,,,,,,,,,1,0,,2,,,,,,,,,,1883.083978295006,1883.083978295006,1883.083978295006,1883.083978295006,1884.5859939630027,1884.5859939630027,1884.5859939630027,1884.5859939630027,1884.5859939630027,1884.5859939630027,1884.5859939630027,1884.5859939630027,repeat,letter,lettRpt,k,0.6478854889865033,vtsPrac,1885.2532112210174,,,,,,,,,,,,,,,,,,,,,,,,,,,,,37040,2022-11-22_10h17.54.641,vts_reward_expectancy_bt_OFFLINE,2022.2.4,60.063949969640696,
,,,,,,,,,,,,,,,,,,,,,,,,,,,,,,,,,,0,0,0,0,15,0,15,0,,,,,,,,,,,,,,,,,,,,,,,,,,,,0,765,,,,1891.6269187750004,,146,B,star,0.0011730179830919951,,,,,,,,,1,0,,2,,,,,,,,,,1887.7391424960224,1887.7391424960224,1887.7391424960224,1887.7391424960224,1889.240866355016,1889.240866355016,1889.240866355016,1889.240866355016,1889.240866355016,1889.240866355016,1889.240866355016,1889.240866355016,switch,number,numSwt,d,0.8639613540144637,vtsPrac,1890.1253052680113,1891.6269187750004,,,,,,,,,,,,,,,,,,,,,,,,,,,,37040,2022-11-22_10h17.54.641,vts_reward_expectancy_bt_OFFLINE,2022.2.4,60.063949969640696,
,,,,,,,,,,,,,,,,,,,,,,,,,,,,,,,,,,0,0,0,0,16,0,16,0,,,,,,,,,,,,,,,,,,,,,,,,,,,,0,765,,,,1897.3166182670102,,132,F,circle,0.0009420879941899329,,,,,,,,,1,0,,2,,,,,,,,,,1892.6114115550008,1892.6114115550008,1892.6114115550008,1892.6114115550008,1894.1128860629979,1894.1128860629979,1894.1128860629979,1894.1128860629979,1894.1128860629979,1894.1128860629979,1894.1128860629979,1894.1128860629979,repeat,number,numRpt,d,1.6748260229942389,vtsPrac,1895.8146373830095,,,,,,,,,,,,,,,,,,,,,,,,,,,,,37040,2022-11-22_10h17.54.641,vts_reward_expectancy_bt_OFFLINE,2022.2.4,60.063949969640696,
,,,,,,,,,,,,,,,,,,,,,,,,,,,,,,,,,,0,0,0,0,17,0,17,0,,,,,,,,,,,,,,,,,,,,,,,,,,,,0,765,,,,1901.921469221008,,181,D,star,0.0014150429924484342,,,,,,,,,1,0,,2,,,,,,,,,,1898.3009235080099,1898.3009235080099,1898.3009235080099,1898.3009235080099,1899.802594571025,1899.802594571025,1899.802594571025,1899.802594571025,1899.802594571025,1899.802594571025,1899.802594571025,1899.802594571025,switch,letter,lettSwt,j,0.5969383290212136,vtsPrac,1900.4199355180026,,,,,,,,,,,,,,,,,,,,,,,,,,,,,37040,2022-11-22_10h17.54.641,vts_reward_expectancy_bt_OFFLINE,2022.2.4,60.063949969640696,
,,,,,,,,,,,,,,,,,,,,,,,,,,,,,,,,,,0,0,0,0,18,0,18,0,,,,,,,,,,,,,,,,,,,,,,,,,,,,0,765,,,,1907.3110043310153,,167,H,circle,0.0011014759948011488,,,,,,,,,0,0,,2,,,,,,,,,,1902.9061554130167,1902.9061554130167,1902.9061554130167,1902.9061554130167,1904.4075060170144,1904.4075060170144,1904.4075060170144,1904.4075060170144,1904.4075060170144,1904.4075060170144,1904.4075060170144,1904.4075060170144,switch,number,NA,d,1.3805606160021853,vtsPrac,1905.8111076430068,,,,,,,,,,,,,,,,,,,,,,,,,,,,,37040,2022-11-22_10h17.54.641,vts_reward_expectancy_bt_OFFLINE,2022.2.4,60.063949969640696,
,,,,,,,,,,,,,,,,,,,,,,,,,,,,,,,,,,0,0,0,0,19,0,19,0,,,,,,,,,,,,,,,,,,,,,,,,,,,,0,765,,,,1912.1997053960222,,146,B,hexagon,0.0014659180014859885,,,,,,,,,1,1,,2,,,,,,,,,,1908.2951791160158,1908.2951791160158,1908.2951791160158,1908.2951791160158,1909.796944480011,1909.796944480011,1909.796944480011,1909.796944480011,1909.796944480011,1909.796944480011,1909.796944480011,1909.796944480011,repeat,number,numRpt,d,0.8741700619866606,vtsPrac,1910.698971867998,,,,,,,,,,,,,,,,,,,,,,,,,,,,,37040,2022-11-22_10h17.54.641,vts_reward_expectancy_bt_OFFLINE,2022.2.4,60.063949969640696,
,,,,,,,,,,,,,,,,,,,,,,,,,,,,,,,,,,0,0,0,0,20,0,20,0,,,,,,,,,,,,,,,,,,,,,,,,,,,,0,765,,,,1917.6056526720058,,181,S,hexagon,0.0013049260014668107,,,,,,,,,1,0,,2,,,,,,,,,,1913.1840396810148,1913.1840396810148,1913.1840396810148,1913.1840396810148,1914.685817117017,1914.685817117017,1914.685817117017,1914.685817117017,1914.685817117017,1914.685817117017,1914.685817117017,1914.685817117017,switch,letter,lettSwt,k,1.3976917919935659,vtsPrac,1916.1040308170195,1917.6056526720058,,,,,,,,,,,,,,,,,,,,,,,,,,,,37040,2022-11-22_10h17.54.641,vts_reward_expectancy_bt_OFFLINE,2022.2.4,60.063949969640696,
,,,,,,,,,,,,,,,,,,,,,,,,,,,,,,,,,,0,0,0,0,21,0,21,0,,,,,,,,,,,,,,,,,,,,,,,,,,,,0,765,,,,1923.578691436007,,125,B,circle,0.0012379300023894757,,,,,,,,,1,0,,2,,,,,,,,,,1918.590046533005,1918.590046533005,1918.590046533005,1918.590046533005,1920.091474736022,1920.091474736022,1920.091474736022,1920.091474736022,1920.091474736022,1920.091474736022,1920.091474736022,1920.091474736022,repeat,letter,lettRpt,j,1.9545018679928035,vtsPrac,1922.0770369870006,,,,,,,,,,,,,,,,,,,,,,,,,,,,,37040,2022-11-22_10h17.54.641,vts_reward_expectancy_bt_OFFLINE,2022.2.4,60.063949969640696,
,,,,,,,,,,,,,,,,,,,,,,,,,,,,,,,,,,0,0,0,0,22,0,22,0,,,,,,,,,,,,,,,,,,,,,,,,,,,,0,765,,,,1928.5009644310048,,146,F,hexagon,0.001382062997436151,,,,,,,,,1,0,,2,,,,,,,,,,1924.5632797380094,1924.5632797380094,1924.5632797380094,1924.5632797380094,1926.0650580630172,1926.0650580630172,1926.0650580630172,1926.0650580630172,1926.0650580630172,1926.0650580630172,1926.0650580630172,1926.0650580630172,switch,number,numSwt,d,0.908095714985393,vtsPrac,1926.9991764060105,,,,,,,,,,,,,,,,,,,,,,,,,,,,,37040,2022-11-22_10h17.54.641,vts_reward_expectancy_bt_OFFLINE,2022.2.4,60.063949969640696,
,,,,,,,,,,,,,,,,,,,,,,,,,,,,,,,,,,0,0,0,0,23,0,23,0,,,,,,,,,,,,,,,,,,,,,,,,,,,,0,765,,,,1933.222842365998,,174,H,circle,0.0011807350092567503,,,,,,,,,1,0,,2,,,,,,,,,,1929.485256667016,1929.485256667016,1929.485256667016,1929.485256667016,1930.9868562250049,1930.9868562250049,1930.9868562250049,1930.9868562250049,1930.9868562250049,1930.9868562250049,1930.9868562250049,1930.9868562250049,repeat,number,numRpt,f,0.7017082830134314,vtsPrac,1931.7210141350224,,,,,,,,,,,,,,,,,,,,,,,,,,,,,37040,2022-11-22_10h17.54.641,vts_reward_expectancy_bt_OFFLINE,2022.2.4,60.063949969640696,
,,,,,,,,,,,,,,,,,,,,,,,,,,,,,,,,,,0,0,0,0,24,0,24,0,,,,,,,,,,,,,,,,,,,,,,,,,,,,0,765,,,,1938.0446724870126,,125,B,circle,0.0014224750048015267,,,,,,,,,1,0,,2,,,,,,,,,,1934.2072671170172,1934.2072671170172,1934.2072671170172,1934.2072671170172,1935.7089206850214,1935.7089206850214,1935.7089206850214,1935.7089206850214,1935.7089206850214,1935.7089206850214,1935.7089206850214,1935.7089206850214,repeat,number,numRpt,d,0.8068613880022895,vtsPrac,1936.5429865230108,,,,,,,,,,,,,,,,,,,,,,,,,,,,,37040,2022-11-22_10h17.54.641,vts_reward_expectancy_bt_OFFLINE,2022.2.4,60.063949969640696,
,,,,,,,,,,,,,,,,,,,,,,,,,,,,,,,,,,0,0,0,0,25,0,25,0,,,,,,,,,,,,,,,,,,,,,,,,,,,,0,765,,,,1943.100302646024,,139,U,star,0.0011195130064152181,,,,,,,,,1,0,,2,,,,,,,,,,1939.0295131930034,1939.0295131930034,1939.0295131930034,1939.0295131930034,1940.5307665560103,1940.5307665560103,1940.5307665560103,1940.5307665560103,1940.5307665560103,1940.5307665560103,1940.5307665560103,1940.5307665560103,switch,letter,lettSwt,k,1.0356217740045395,vtsPrac,1941.5986390670005,,,,,,,,,,,,,,,,,,,,,,,,,,,,,37040,2022-11-22_10h17.54.641,vts_reward_expectancy_bt_OFFLINE,2022.2.4,60.063949969640696,
