LTriangleOpac,LCircleOpac,LHexagonOpac,LStarOpac,RTriangleOpac,RCircleOpac,RHexagonOpac,RStarOpac,LShape_ID,RShape_ID,trainBlock,training_blocks.thisRepN,training_blocks.thisTrialN,training_blocks.thisN,training_blocks.thisIndex,training.thisRepN,training.thisTrialN,training.thisN,training.thisIndex,left_circle.started,right_circle.started,left_triangle.started,right_triangle.started,left_star.started,right_star.started,left_hexagon.started,right_hexagon.started,training_fix.started,training_resp.started,training_resp.keys,training_resp.rt,task1_prac_redo.thisRepN,task1_prac_redo.thisTrialN,task1_prac_redo.thisN,task1_prac_redo.thisIndex,task1_prac_trials.thisRepN,task1_prac_trials.thisTrialN,task1_prac_trials.thisN,task1_prac_trials.thisIndex,task2_prac_redo.thisRepN,task2_prac_redo.thisTrialN,task2_prac_redo.thisN,task2_prac_redo.thisIndex,task2_praac_trials.thisRepN,task2_praac_trials.thisTrialN,task2_praac_trials.thisN,task2_praac_trials.thisIndex,vts_prac_redo.thisRepN,vts_prac_redo.thisTrialN,vts_prac_redo.thisN,vts_prac_redo.thisIndex,vts_practice_trials.thisRepN,vts_practice_trials.thisTrialN,vts_practice_trials.thisN,vts_practice_trials.thisIndex,trials_norew.thisRepN,trials_norew.thisTrialN,trials_norew.thisN,trials_norew.thisIndex,block.thisRepN,block.thisTrialN,block.thisN,block.thisIndex,trials_rew.thisRepN,trials_rew.thisTrialN,trials_rew.thisN,trials_rew.thisIndex,key_resp.started,key_resp.keys,key_resp.rt,curr_topStim,curr_bottStim,curr_shape,ISI.started,tgt_fix_prac1.started,top_target_prac1.started,bott_target_prac1.started,target_resp_prac1.started,top_target_prac1.stopped,tgt_fix_prac1.stopped,bott_target_prac1.stopped,target_resp_prac1.stopped,acc,E1,target_resp_prac1.keys,pracBlock,prac_fback_text.started,prac_fback_text.stopped,fix.started,fix.stopped,target_resp_prac1.rt,tgt_fix_prac2.started,top_target_prac2.started,bott_target_prac2.started,target_resp_prac2.started,target_resp_prac2.keys,target_resp_prac2.rt,star.started,hegagon.started,triangle.started,circle.started,top_target.started,tgt_fix.started,bot_target.started,target_resp.started,star.stopped,hegagon.stopped,triangle.stopped,circle.stopped,alt,task,condition,target_resp.keys,target_resp.rt,rewCond,points_trial,points_cumul,vts_fback.started,vts_fback.stopped,blockNum,norew_fback.started,norew_fback.stopped,key_resp_2.keys,key_resp_2.rt,rewExpectancy,feedbk_text.started,feedbk_text.stopped,text_3.started,text_3.stopped,button.started,debrief.index,debrief.itemText,debrief.type,debrief.granularity,debrief.font,debrief.markerColor,debrief.response,debrief.rt,button.numClicks,button.timesOn,button.timesOff,participant,date,expName,psychopyVersion,frameRate
,,,,,,,,,,,,,,,,,,,,,,,,,,,,,,,,,,,,,,,,,,,,,,,,,,,,,,,,,,,,,,,,,,,,,,,,,,,,,,,,,,,,,,,,,,,,,,,,,,,,,,,,,,,,,,,,,,,,,,,,,,,,,,,,,,,,,,,,,,,,,37688,2022-10-25_10h29.05.330,vts_reward_expectancy_bt_OFFLINE,2022.2.4,59.99429622
0,0,0,1,0,1,0,0,star ,circle,0,0,0,0,0,0,0,0,10,582.0777467,582.0777467,582.0777467,582.0777467,582.0777467,582.0777467,582.0777467,582.0777467,582.0777467,582.0777467,a,3.615002166,,,,,,,,,,,,,,,,,,,,,,,,,,,,,,,,,,,,,,,,,,,,,,,,,,,,,,,,,,,,,,,,,,,,,,,,,,,,,,,,,,,,,0,0,,,,,,,,,,,,,,,,,,,,,,,,,37688,2022-10-25_10h29.05.330,vts_reward_expectancy_bt_OFFLINE,2022.2.4,59.99429622
0,0,1,0,0,1,0,0,hexagon,circle,0,0,0,0,0,0,1,1,7,587.717546,587.717546,587.717546,587.717546,587.717546,587.717546,587.717546,587.717546,587.717546,587.717546,l,1.385239929,,,,,,,,,,,,,,,,,,,,,,,,,,,,,,,,,,,,,,,,,,,,,,,,,,,,,,,,,,,,,,,,,,,,,,,,,,,,,,,,,,,,,1,1,,,,,,,,,,,,,,,,,,,,,,,,,37688,2022-10-25_10h29.05.330,vts_reward_expectancy_bt_OFFLINE,2022.2.4,59.99429622
0,1,0,0,0,0,1,0,circle,hexagon,0,0,0,0,0,0,2,2,4,591.1213788,591.1213788,591.1213788,591.1213788,591.1213788,591.1213788,591.1213788,591.1213788,591.1213788,591.1213788,a,1.275816986,,,,,,,,,,,,,,,,,,,,,,,,,,,,,,,,,,,,,,,,,,,,,,,,,,,,,,,,,,,,,,,,,,,,,,,,,,,,,,,,,,,,,10,11,,,,,,,,,,,,,,,,,,,,,,,,,37688,2022-10-25_10h29.05.330,vts_reward_expectancy_bt_OFFLINE,2022.2.4,59.99429622
0,0,1,0,0,0,0,1,hexagon,star,0,0,0,0,0,0,3,3,8,594.4249743,594.4249743,594.4249743,594.4249743,594.4249743,594.4249743,594.4249743,594.4249743,594.4249743,594.4249743,a,3.054243305,,,,,,,,,,,,,,,,,,,,,,,,,,,,,,,,,,,,,,,,,,,,,,,,,,,,,,,,,,,,,,,,,,,,,,,,,,,,,,,,,,,,,1,12,,,,,,,,,,,,,,,,,,,,,,,,,37688,2022-10-25_10h29.05.330,vts_reward_expectancy_bt_OFFLINE,2022.2.4,59.99429622
1,0,0,0,0,1,0,0,triangle,circle,0,0,0,0,0,0,4,4,0,599.5138045,599.5138045,599.5138045,599.5138045,599.5138045,599.5138045,599.5138045,599.5138045,599.5138045,599.5138045,l,1.642932084,,,,,,,,,,,,,,,,,,,,,,,,,,,,,,,,,,,,,,,,,,,,,,,,,,,,,,,,,,,,,,,,,,,,,,,,,,,,,,,,,,,,,1,13,,,,,,,,,,,,,,,,,,,,,,,,,37688,2022-10-25_10h29.05.330,vts_reward_expectancy_bt_OFFLINE,2022.2.4,59.99429622
1,0,0,0,0,0,1,0,triangle,hexagon,0,0,0,0,0,0,5,5,1,603.1846948,603.1846948,603.1846948,603.1846948,603.1846948,603.1846948,603.1846948,603.1846948,603.1846948,603.1846948,l,1.285452389,,,,,,,,,,,,,,,,,,,,,,,,,,,,,,,,,,,,,,,,,,,,,,,,,,,,,,,,,,,,,,,,,,,,,,,,,,,,,,,,,,,,,1,14,,,,,,,,,,,,,,,,,,,,,,,,,37688,2022-10-25_10h29.05.330,vts_reward_expectancy_bt_OFFLINE,2022.2.4,59.99429622
0,0,0,1,0,0,1,0,star,hexagon,0,0,0,0,0,0,6,6,11,606.505132,606.505132,606.505132,606.505132,606.505132,606.505132,606.505132,606.505132,606.505132,606.505132,a,0.603958301,,,,,,,,,,,,,,,,,,,,,,,,,,,,,,,,,,,,,,,,,,,,,,,,,,,,,,,,,,,,,,,,,,,,,,,,,,,,,,,,,,,,,10,24,,,,,,,,,,,,,,,,,,,,,,,,,37688,2022-10-25_10h29.05.330,vts_reward_expectancy_bt_OFFLINE,2022.2.4,59.99429622
0,0,0,1,1,0,0,0,star,triangle,0,0,0,0,0,0,7,7,9,609.1412202,609.1412202,609.1412202,609.1412202,609.1412202,609.1412202,609.1412202,609.1412202,609.1412202,609.1412202,a,3.153938925,,,,,,,,,,,,,,,,,,,,,,,,,,,,,,,,,,,,,,,,,,,,,,,,,,,,,,,,,,,,,,,,,,,,,,,,,,,,,,,,,,,,,1,25,,,,,,,,,,,,,,,,,,,,,,,,,37688,2022-10-25_10h29.05.330,vts_reward_expectancy_bt_OFFLINE,2022.2.4,59.99429622
0,0,1,0,1,0,0,0,hexagon,triangle,0,0,0,0,0,0,8,8,6,614.3304398,614.3304398,614.3304398,614.3304398,614.3304398,614.3304398,614.3304398,614.3304398,614.3304398,614.3304398,l,1.452012514,,,,,,,,,,,,,,,,,,,,,,,,,,,,,,,,,,,,,,,,,,,,,,,,,,,,,,,,,,,,,,,,,,,,,,,,,,,,,,,,,,,,,10,35,,,,,,,,,,,,,,,,,,,,,,,,,37688,2022-10-25_10h29.05.330,vts_reward_expectancy_bt_OFFLINE,2022.2.4,59.99429622
1,0,0,0,0,0,0,1,triangle,star,0,0,0,0,0,0,9,9,2,617.8176245,617.8176245,617.8176245,617.8176245,617.8176245,617.8176245,617.8176245,617.8176245,617.8176245,617.8176245,a,1.804208074,,,,,,,,,,,,,,,,,,,,,,,,,,,,,,,,,,,,,,,,,,,,,,,,,,,,,,,,,,,,,,,,,,,,,,,,,,,,,,,,,,,,,10,45,,,,,,,,,,,,,,,,,,,,,,,,,37688,2022-10-25_10h29.05.330,vts_reward_expectancy_bt_OFFLINE,2022.2.4,59.99429622
0,1,0,0,0,0,0,1,circle,star,0,0,0,0,0,0,10,10,5,621.6551805,621.6551805,621.6551805,621.6551805,621.6551805,621.6551805,621.6551805,621.6551805,621.6551805,621.6551805,a,1.19903256,,,,,,,,,,,,,,,,,,,,,,,,,,,,,,,,,,,,,,,,,,,,,,,,,,,,,,,,,,,,,,,,,,,,,,,,,,,,,,,,,,,,,10,55,,,,,,,,,,,,,,,,,,,,,,,,,37688,2022-10-25_10h29.05.330,vts_reward_expectancy_bt_OFFLINE,2022.2.4,59.99429622
0,1,0,0,1,0,0,0,circle,triangle,0,0,0,0,0,0,11,11,3,624.8752298,624.8752298,624.8752298,624.8752298,624.8752298,624.8752298,624.8752298,624.8752298,624.8752298,624.8752298,l,2.026930451,,,,,,,,,,,,,,,,,,,,,,,,,,,,,,,,,,,,,,,,,,,,,,,,,,,,,,,,,,,,,,,,,,,,,,,,,,,,,,,,,,,,,10,65,,,,,,,,,,,,,,,,,,,,,,,,,37688,2022-10-25_10h29.05.330,vts_reward_expectancy_bt_OFFLINE,2022.2.4,59.99429622
0,0,1,0,1,0,0,0,hexagon,triangle,0,0,0,0,0,1,0,12,6,628.9297183,628.9297183,628.9297183,628.9297183,628.9297183,628.9297183,628.9297183,628.9297183,628.9297183,628.9297183,l,1.387014134,,,,,,,,,,,,,,,,,,,,,,,,,,,,,,,,,,,,,,,,,,,,,,,,,,,,,,,,,,,,,,,,,,,,,,,,,,,,,,,,,,,,,1,66,,,,,,,,,,,,,,,,,,,,,,,,,37688,2022-10-25_10h29.05.330,vts_reward_expectancy_bt_OFFLINE,2022.2.4,59.99429622
0,0,0,1,0,1,0,0,star ,circle,0,0,0,0,0,1,1,13,10,632.3502051,632.3502051,632.3502051,632.3502051,632.3502051,632.3502051,632.3502051,632.3502051,632.3502051,632.3502051,l,1.254542802,,,,,,,,,,,,,,,,,,,,,,,,,,,,,,,,,,,,,,,,,,,,,,,,,,,,,,,,,,,,,,,,,,,,,,,,,,,,,,,,,,,,,1,67,,,,,,,,,,,,,,,,,,,,,,,,,37688,2022-10-25_10h29.05.330,vts_reward_expectancy_bt_OFFLINE,2022.2.4,59.99429622
0,1,0,0,0,0,1,0,circle,hexagon,0,0,0,0,0,1,2,14,4,635.6368222,635.6368222,635.6368222,635.6368222,635.6368222,635.6368222,635.6368222,635.6368222,635.6368222,635.6368222,a,2.520922519,,,,,,,,,,,,,,,,,,,,,,,,,,,,,,,,,,,,,,,,,,,,,,,,,,,,,,,,,,,,,,,,,,,,,,,,,,,,,,,,,,,,,1,68,,,,,,,,,,,,,,,,,,,,,,,,,37688,2022-10-25_10h29.05.330,vts_reward_expectancy_bt_OFFLINE,2022.2.4,59.99429622
1,0,0,0,0,0,1,0,triangle,hexagon,0,0,0,0,0,1,3,15,1,640.1921135,640.1921135,640.1921135,640.1921135,640.1921135,640.1921135,640.1921135,640.1921135,640.1921135,640.1921135,a,1.166470038,,,,,,,,,,,,,,,,,,,,,,,,,,,,,,,,,,,,,,,,,,,,,,,,,,,,,,,,,,,,,,,,,,,,,,,,,,,,,,,,,,,,,1,69,,,,,,,,,,,,,,,,,,,,,,,,,37688,2022-10-25_10h29.05.330,vts_reward_expectancy_bt_OFFLINE,2022.2.4,59.99429622
0,1,0,0,0,0,0,1,circle,star,0,0,0,0,0,1,4,16,5,643.3790508,643.3790508,643.3790508,643.3790508,643.3790508,643.3790508,643.3790508,643.3790508,643.3790508,643.3790508,l,1.730408619,,,,,,,,,,,,,,,,,,,,,,,,,,,,,,,,,,,,,,,,,,,,,,,,,,,,,,,,,,,,,,,,,,,,,,,,,,,,,,,,,,,,,1,70,,,,,,,,,,,,,,,,,,,,,,,,,37688,2022-10-25_10h29.05.330,vts_reward_expectancy_bt_OFFLINE,2022.2.4,59.99429622
0,0,1,0,0,0,0,1,hexagon,star,0,0,0,0,0,1,5,17,8,647.133319,647.133319,647.133319,647.133319,647.133319,647.133319,647.133319,647.133319,647.133319,647.133319,a,1.552294364,,,,,,,,,,,,,,,,,,,,,,,,,,,,,,,,,,,,,,,,,,,,,,,,,,,,,,,,,,,,,,,,,,,,,,,,,,,,,,,,,,,,,1,71,,,,,,,,,,,,,,,,,,,,,,,,,37688,2022-10-25_10h29.05.330,vts_reward_expectancy_bt_OFFLINE,2022.2.4,59.99429622
0,0,1,0,0,1,0,0,hexagon,circle,0,0,0,0,0,1,6,18,7,650.7205002,650.7205002,650.7205002,650.7205002,650.7205002,650.7205002,650.7205002,650.7205002,650.7205002,650.7205002,l,0.612317781,,,,,,,,,,,,,,,,,,,,,,,,,,,,,,,,,,,,,,,,,,,,,,,,,,,,,,,,,,,,,,,,,,,,,,,,,,,,,,,,,,,,,1,72,,,,,,,,,,,,,,,,,,,,,,,,,37688,2022-10-25_10h29.05.330,vts_reward_expectancy_bt_OFFLINE,2022.2.4,59.99429622
0,0,0,1,0,0,1,0,star,hexagon,0,0,0,0,0,1,7,19,11,653.3564985,653.3564985,653.3564985,653.3564985,653.3564985,653.3564985,653.3564985,653.3564985,653.3564985,653.3564985,l,1.809713421,,,,,,,,,,,,,,,,,,,,,,,,,,,,,,,,,,,,,,,,,,,,,,,,,,,,,,,,,,,,,,,,,,,,,,,,,,,,,,,,,,,,,10,82,,,,,,,,,,,,,,,,,,,,,,,,,37688,2022-10-25_10h29.05.330,vts_reward_expectancy_bt_OFFLINE,2022.2.4,59.99429622
1,0,0,0,0,0,0,1,triangle,star,0,0,0,0,0,1,8,20,2,657.1942001,657.1942001,657.1942001,657.1942001,657.1942001,657.1942001,657.1942001,657.1942001,657.1942001,657.1942001,l,1.771266164,,,,,,,,,,,,,,,,,,,,,,,,,,,,,,,,,,,,,,,,,,,,,,,,,,,,,,,,,,,,,,,,,,,,,,,,,,,,,,,,,,,,,1,83,,,,,,,,,,,,,,,,,,,,,,,,,37688,2022-10-25_10h29.05.330,vts_reward_expectancy_bt_OFFLINE,2022.2.4,59.99429622
0,0,0,1,1,0,0,0,star,triangle,0,0,0,0,0,1,9,21,9,660.9983126,660.9983126,660.9983126,660.9983126,660.9983126,660.9983126,660.9983126,660.9983126,660.9983126,660.9983126,a,1.319228219,,,,,,,,,,,,,,,,,,,,,,,,,,,,,,,,,,,,,,,,,,,,,,,,,,,,,,,,,,,,,,,,,,,,,,,,,,,,,,,,,,,,,1,84,,,,,,,,,,,,,,,,,,,,,,,,,37688,2022-10-25_10h29.05.330,vts_reward_expectancy_bt_OFFLINE,2022.2.4,59.99429622
1,0,0,0,0,1,0,0,triangle,circle,0,0,0,0,0,1,10,22,0,664.3522062,664.3522062,664.3522062,664.3522062,664.3522062,664.3522062,664.3522062,664.3522062,664.3522062,664.3522062,l,1.036623178,,,,,,,,,,,,,,,,,,,,,,,,,,,,,,,,,,,,,,,,,,,,,,,,,,,,,,,,,,,,,,,,,,,,,,,,,,,,,,,,,,,,,10,94,,,,,,,,,,,,,,,,,,,,,,,,,37688,2022-10-25_10h29.05.330,vts_reward_expectancy_bt_OFFLINE,2022.2.4,59.99429622
0,1,0,0,1,0,0,0,circle,triangle,0,0,0,0,0,1,11,23,3,667.4222589,667.4222589,667.4222589,667.4222589,667.4222589,667.4222589,667.4222589,667.4222589,667.4222589,667.4222589,a,1.559045541,,,,,,,,,,,,,,,,,,,,,,,,,,,,,,,,,,,,,,,,,,,,,,,,,,,,,,,,,,,,,,,,,,,,,,,,,,,,,,,,,,,,,10,104,,,,,,,,,,,,,,,,,,,,,,,,,37688,2022-10-25_10h29.05.330,vts_reward_expectancy_bt_OFFLINE,2022.2.4,59.99429622
0,0,0,1,0,1,0,0,star ,circle,0,0,0,0,0,2,0,24,10,671.0095171,671.0095171,671.0095171,671.0095171,671.0095171,671.0095171,671.0095171,671.0095171,671.0095171,671.0095171,a,1.340022472,,,,,,,,,,,,,,,,,,,,,,,,,,,,,,,,,,,,,,,,,,,,,,,,,,,,,,,,,,,,,,,,,,,,,,,,,,,,,,,,,,,,,10,114,,,,,,,,,,,,,,,,,,,,,,,,,37688,2022-10-25_10h29.05.330,vts_reward_expectancy_bt_OFFLINE,2022.2.4,59.99429622
0,1,0,0,0,0,1,0,circle,hexagon,0,0,0,0,0,2,1,25,4,674.3798173,674.3798173,674.3798173,674.3798173,674.3798173,674.3798173,674.3798173,674.3798173,674.3798173,674.3798173,l,0.697021983,,,,,,,,,,,,,,,,,,,,,,,,,,,,,,,,,,,,,,,,,,,,,,,,,,,,,,,,,,,,,,,,,,,,,,,,,,,,,,,,,,,,,10,124,,,,,,,,,,,,,,,,,,,,,,,,,37688,2022-10-25_10h29.05.330,vts_reward_expectancy_bt_OFFLINE,2022.2.4,59.99429622
0,0,0,1,0,0,1,0,star,hexagon,0,0,0,0,0,2,2,26,11,677.0994208,677.0994208,677.0994208,677.0994208,677.0994208,677.0994208,677.0994208,677.0994208,677.0994208,677.0994208,l,1.585801418,,,,,,,,,,,,,,,,,,,,,,,,,,,,,,,,,,,,,,,,,,,,,,,,,,,,,,,,,,,,,,,,,,,,,,,,,,,,,,,,,,,,,1,125,,,,,,,,,,,,,,,,,,,,,,,,,37688,2022-10-25_10h29.05.330,vts_reward_expectancy_bt_OFFLINE,2022.2.4,59.99429622
0,0,1,0,1,0,0,0,hexagon,triangle,0,0,0,0,0,2,3,27,6,680.7201494,680.7201494,680.7201494,680.7201494,680.7201494,680.7201494,680.7201494,680.7201494,680.7201494,680.7201494,a,0.988570099,,,,,,,,,,,,,,,,,,,,,,,,,,,,,,,,,,,,,,,,,,,,,,,,,,,,,,,,,,,,,,,,,,,,,,,,,,,,,,,,,,,,,1,126,,,,,,,,,,,,,,,,,,,,,,,,,37688,2022-10-25_10h29.05.330,vts_reward_expectancy_bt_OFFLINE,2022.2.4,59.99429622
0,0,0,1,1,0,0,0,star,triangle,0,0,0,0,0,2,4,28,9,683.7402916,683.7402916,683.7402916,683.7402916,683.7402916,683.7402916,683.7402916,683.7402916,683.7402916,683.7402916,l,2.042379553,,,,,,,,,,,,,,,,,,,,,,,,,,,,,,,,,,,,,,,,,,,,,,,,,,,,,,,,,,,,,,,,,,,,,,,,,,,,,,,,,,,,,1,127,,,,,,,,,,,,,,,,,,,,,,,,,37688,2022-10-25_10h29.05.330,vts_reward_expectancy_bt_OFFLINE,2022.2.4,59.99429622
1,0,0,0,0,0,0,1,triangle,star,0,0,0,0,0,2,5,29,2,687.81125,687.81125,687.81125,687.81125,687.81125,687.81125,687.81125,687.81125,687.81125,687.81125,l,0.882935477,,,,,,,,,,,,,,,,,,,,,,,,,,,,,,,,,,,,,,,,,,,,,,,,,,,,,,,,,,,,,,,,,,,,,,,,,,,,,,,,,,,,,10,137,,,,,,,,,,,,,,,,,,,,,,,,,37688,2022-10-25_10h29.05.330,vts_reward_expectancy_bt_OFFLINE,2022.2.4,59.99429622
0,0,1,0,0,1,0,0,hexagon,circle,0,0,0,0,0,2,6,30,7,690.714485,690.714485,690.714485,690.714485,690.714485,690.714485,690.714485,690.714485,690.714485,690.714485,a,1.347325773,,,,,,,,,,,,,,,,,,,,,,,,,,,,,,,,,,,,,,,,,,,,,,,,,,,,,,,,,,,,,,,,,,,,,,,,,,,,,,,,,,,,,1,138,,,,,,,,,,,,,,,,,,,,,,,,,37688,2022-10-25_10h29.05.330,vts_reward_expectancy_bt_OFFLINE,2022.2.4,59.99429622
0,1,0,0,1,0,0,0,circle,triangle,0,0,0,0,0,2,7,31,3,694.0847636,694.0847636,694.0847636,694.0847636,694.0847636,694.0847636,694.0847636,694.0847636,694.0847636,694.0847636,l,0.618472153,,,,,,,,,,,,,,,,,,,,,,,,,,,,,,,,,,,,,,,,,,,,,,,,,,,,,,,,,,,,,,,,,,,,,,,,,,,,,,,,,,,,,1,139,,,,,,,,,,,,,,,,,,,,,,,,,37688,2022-10-25_10h29.05.330,vts_reward_expectancy_bt_OFFLINE,2022.2.4,59.99429622
0,1,0,0,0,0,0,1,circle,star,0,0,0,0,0,2,8,32,5,696.7377754,696.7377754,696.7377754,696.7377754,696.7377754,696.7377754,696.7377754,696.7377754,696.7377754,696.7377754,a,1.963973754,,,,,,,,,,,,,,,,,,,,,,,,,,,,,,,,,,,,,,,,,,,,,,,,,,,,,,,,,,,,,,,,,,,,,,,,,,,,,,,,,,,,,1,140,,,,,,,,,,,,,,,,,,,,,,,,,37688,2022-10-25_10h29.05.330,vts_reward_expectancy_bt_OFFLINE,2022.2.4,59.99429622
1,0,0,0,0,1,0,0,triangle,circle,0,0,0,0,0,2,9,33,0,700.7257162,700.7257162,700.7257162,700.7257162,700.7257162,700.7257162,700.7257162,700.7257162,700.7257162,700.7257162,l,1.087119952,,,,,,,,,,,,,,,,,,,,,,,,,,,,,,,,,,,,,,,,,,,,,,,,,,,,,,,,,,,,,,,,,,,,,,,,,,,,,,,,,,,,,1,141,,,,,,,,,,,,,,,,,,,,,,,,,37688,2022-10-25_10h29.05.330,vts_reward_expectancy_bt_OFFLINE,2022.2.4,59.99429622
1,0,0,0,0,0,1,0,triangle,hexagon,0,0,0,0,0,2,10,34,1,703.8456736,703.8456736,703.8456736,703.8456736,703.8456736,703.8456736,703.8456736,703.8456736,703.8456736,703.8456736,l,4.231964857,,,,,,,,,,,,,,,,,,,,,,,,,,,,,,,,,,,,,,,,,,,,,,,,,,,,,,,,,,,,,,,,,,,,,,,,,,,,,,,,,,,,,10,151,,,,,,,,,,,,,,,,,,,,,,,,,37688,2022-10-25_10h29.05.330,vts_reward_expectancy_bt_OFFLINE,2022.2.4,59.99429622
0,0,1,0,0,0,0,1,hexagon,star,0,0,0,0,0,2,11,35,8,710.1023602,710.1023602,710.1023602,710.1023602,710.1023602,710.1023602,710.1023602,710.1023602,710.1023602,710.1023602,l,1.270806874,,,,,,,,,,,,,,,,,,,,,,,,,,,,,,,,,,,,,,,,,,,,,,,,,,,,,,,,,,,,,,,,,,,,,,,,,,,,,,,,,,,,,10,161,,,,,,,,,,,,,,,,,,,,,,,,,37688,2022-10-25_10h29.05.330,vts_reward_expectancy_bt_OFFLINE,2022.2.4,59.99429622
0,0,0,1,1,0,0,0,star,triangle,0,0,0,0,0,3,0,36,9,713.4062905,713.4062905,713.4062905,713.4062905,713.4062905,713.4062905,713.4062905,713.4062905,713.4062905,713.4062905,a,2.08675159,,,,,,,,,,,,,,,,,,,,,,,,,,,,,,,,,,,,,,,,,,,,,,,,,,,,,,,,,,,,,,,,,,,,,,,,,,,,,,,,,,,,,10,171,,,,,,,,,,,,,,,,,,,,,,,,,37688,2022-10-25_10h29.05.330,vts_reward_expectancy_bt_OFFLINE,2022.2.4,59.99429622
0,1,0,0,1,0,0,0,circle,triangle,0,0,0,0,0,3,1,37,3,717.5274021,717.5274021,717.5274021,717.5274021,717.5274021,717.5274021,717.5274021,717.5274021,717.5274021,717.5274021,l,1.125390959,,,,,,,,,,,,,,,,,,,,,,,,,,,,,,,,,,,,,,,,,,,,,,,,,,,,,,,,,,,,,,,,,,,,,,,,,,,,,,,,,,,,,1,172,,,,,,,,,,,,,,,,,,,,,,,,,37688,2022-10-25_10h29.05.330,vts_reward_expectancy_bt_OFFLINE,2022.2.4,59.99429622
1,0,0,0,0,1,0,0,triangle,circle,0,0,0,0,0,3,2,38,0,720.6806304,720.6806304,720.6806304,720.6806304,720.6806304,720.6806304,720.6806304,720.6806304,720.6806304,720.6806304,l,1.444206799,,,,,,,,,,,,,,,,,,,,,,,,,,,,,,,,,,,,,,,,,,,,,,,,,,,,,,,,,,,,,,,,,,,,,,,,,,,,,,,,,,,,,1,173,,,,,,,,,,,,,,,,,,,,,,,,,37688,2022-10-25_10h29.05.330,vts_reward_expectancy_bt_OFFLINE,2022.2.4,59.99429622
1,0,0,0,0,0,0,1,triangle,star,0,0,0,0,0,3,3,39,2,724.1514762,724.1514762,724.1514762,724.1514762,724.1514762,724.1514762,724.1514762,724.1514762,724.1514762,724.1514762,a,1.062001444,,,,,,,,,,,,,,,,,,,,,,,,,,,,,,,,,,,,,,,,,,,,,,,,,,,,,,,,,,,,,,,,,,,,,,,,,,,,,,,,,,,,,10,183,,,,,,,,,,,,,,,,,,,,,,,,,37688,2022-10-25_10h29.05.330,vts_reward_expectancy_bt_OFFLINE,2022.2.4,59.99429622
0,0,0,1,0,0,1,0,star,hexagon,0,0,0,0,0,3,4,40,11,727.2381939,727.2381939,727.2381939,727.2381939,727.2381939,727.2381939,727.2381939,727.2381939,727.2381939,727.2381939,a,2.447699742,,,,,,,,,,,,,,,,,,,,,,,,,,,,,,,,,,,,,,,,,,,,,,,,,,,,,,,,,,,,,,,,,,,,,,,,,,,,,,,,,,,,,1,184,,,,,,,,,,,,,,,,,,,,,,,,,37688,2022-10-25_10h29.05.330,vts_reward_expectancy_bt_OFFLINE,2022.2.4,59.99429622
0,0,1,0,1,0,0,0,hexagon,triangle,0,0,0,0,0,3,5,41,6,731.7099648,731.7099648,731.7099648,731.7099648,731.7099648,731.7099648,731.7099648,731.7099648,731.7099648,731.7099648,a,0.992347573,,,,,,,,,,,,,,,,,,,,,,,,,,,,,,,,,,,,,,,,,,,,,,,,,,,,,,,,,,,,,,,,,,,,,,,,,,,,,,,,,,,,,10,194,,,,,,,,,,,,,,,,,,,,,,,,,37688,2022-10-25_10h29.05.330,vts_reward_expectancy_bt_OFFLINE,2022.2.4,59.99429622
0,0,0,1,0,1,0,0,star ,circle,0,0,0,0,0,3,6,42,10,734.7297544,734.7297544,734.7297544,734.7297544,734.7297544,734.7297544,734.7297544,734.7297544,734.7297544,734.7297544,l,0.771406936,,,,,,,,,,,,,,,,,,,,,,,,,,,,,,,,,,,,,,,,,,,,,,,,,,,,,,,,,,,,,,,,,,,,,,,,,,,,,,,,,,,,,1,195,,,,,,,,,,,,,,,,,,,,,,,,,37688,2022-10-25_10h29.05.330,vts_reward_expectancy_bt_OFFLINE,2022.2.4,59.99429622
0,1,0,0,0,0,0,1,circle,star,0,0,0,0,0,3,7,43,5,737.5329106,737.5329106,737.5329106,737.5329106,737.5329106,737.5329106,737.5329106,737.5329106,737.5329106,737.5329106,l,0.42498629,,,,,,,,,,,,,,,,,,,,,,,,,,,,,,,,,,,,,,,,,,,,,,,,,,,,,,,,,,,,,,,,,,,,,,,,,,,,,,,,,,,,,10,205,,,,,,,,,,,,,,,,,,,,,,,,,37688,2022-10-25_10h29.05.330,vts_reward_expectancy_bt_OFFLINE,2022.2.4,59.99429622
1,0,0,0,0,0,1,0,triangle,hexagon,0,0,0,0,0,3,8,44,1,739.9857552,739.9857552,739.9857552,739.9857552,739.9857552,739.9857552,739.9857552,739.9857552,739.9857552,739.9857552,a,1.155025554,,,,,,,,,,,,,,,,,,,,,,,,,,,,,,,,,,,,,,,,,,,,,,,,,,,,,,,,,,,,,,,,,,,,,,,,,,,,,,,,,,,,,1,206,,,,,,,,,,,,,,,,,,,,,,,,,37688,2022-10-25_10h29.05.330,vts_reward_expectancy_bt_OFFLINE,2022.2.4,59.99429622
0,1,0,0,0,0,1,0,circle,hexagon,0,0,0,0,0,3,9,45,4,743.172417,743.172417,743.172417,743.172417,743.172417,743.172417,743.172417,743.172417,743.172417,743.172417,l,2.529268358,,,,,,,,,,,,,,,,,,,,,,,,,,,,,,,,,,,,,,,,,,,,,,,,,,,,,,,,,,,,,,,,,,,,,,,,,,,,,,,,,,,,,1,207,,,,,,,,,,,,,,,,,,,,,,,,,37688,2022-10-25_10h29.05.330,vts_reward_expectancy_bt_OFFLINE,2022.2.4,59.99429622
0,0,1,0,0,0,0,1,hexagon,star,0,0,0,0,0,3,10,46,8,747.7275662,747.7275662,747.7275662,747.7275662,747.7275662,747.7275662,747.7275662,747.7275662,747.7275662,747.7275662,l,1.358098145,,,,,,,,,,,,,,,,,,,,,,,,,,,,,,,,,,,,,,,,,,,,,,,,,,,,,,,,,,,,,,,,,,,,,,,,,,,,,,,,,,,,,10,217,,,,,,,,,,,,,,,,,,,,,,,,,37688,2022-10-25_10h29.05.330,vts_reward_expectancy_bt_OFFLINE,2022.2.4,59.99429622
0,0,1,0,0,1,0,0,hexagon,circle,0,0,0,0,0,3,11,47,7,751.1146414,751.1146414,751.1146414,751.1146414,751.1146414,751.1146414,751.1146414,751.1146414,751.1146414,751.1146414,l,1.978629587,,,,,,,,,,,,,,,,,,,,,,,,,,,,,,,,,,,,,,,,,,,,,,,,,,,,,,,,,,,,,,,,,,,,,,,,,,,,,,,,,,,,,1,218,,,,,,,,,,,,,,,,,,,,,,,,,37688,2022-10-25_10h29.05.330,vts_reward_expectancy_bt_OFFLINE,2022.2.4,59.99429622
1,0,0,0,0,0,1,0,triangle,hexagon,1,1,0,1,0,0,0,0,1,768.7672243,768.7672243,768.7672243,768.7672243,768.7672243,768.7672243,768.7672243,768.7672243,768.7672243,768.7672243,a,3.021651276,,,,,,,,,,,,,,,,,,,,,,,,,,,,,,,,,,,,,,,,,,,,,,,,,,,,,,,,,,,,,,,,,,,,,,,,,,,,,,,,,,,,,1,219,,,,,,,,,,,,,,,,,,,,,,,,,37688,2022-10-25_10h29.05.330,vts_reward_expectancy_bt_OFFLINE,2022.2.4,59.99429622
0,1,0,0,1,0,0,0,circle,triangle,1,1,0,1,0,0,1,1,3,773.8229032,773.8229032,773.8229032,773.8229032,773.8229032,773.8229032,773.8229032,773.8229032,773.8229032,773.8229032,a,2.029975623,,,,,,,,,,,,,,,,,,,,,,,,,,,,,,,,,,,,,,,,,,,,,,,,,,,,,,,,,,,,,,,,,,,,,,,,,,,,,,,,,,,,,10,229,,,,,,,,,,,,,,,,,,,,,,,,,37688,2022-10-25_10h29.05.330,vts_reward_expectancy_bt_OFFLINE,2022.2.4,59.99429622
1,0,0,0,0,1,0,0,triangle,circle,1,1,0,1,0,0,2,2,0,777.8772818,777.8772818,777.8772818,777.8772818,777.8772818,777.8772818,777.8772818,777.8772818,777.8772818,777.8772818,a,1.719893444,,,,,,,,,,,,,,,,,,,,,,,,,,,,,,,,,,,,,,,,,,,,,,,,,,,,,,,,,,,,,,,,,,,,,,,,,,,,,,,,,,,,,10,239,,,,,,,,,,,,,,,,,,,,,,,,,37688,2022-10-25_10h29.05.330,vts_reward_expectancy_bt_OFFLINE,2022.2.4,59.99429622
0,0,0,1,0,0,1,0,star,hexagon,1,1,0,1,0,0,3,3,11,781.6316501,781.6316501,781.6316501,781.6316501,781.6316501,781.6316501,781.6316501,781.6316501,781.6316501,781.6316501,l,1.477924516,,,,,,,,,,,,,,,,,,,,,,,,,,,,,,,,,,,,,,,,,,,,,,,,,,,,,,,,,,,,,,,,,,,,,,,,,,,,,,,,,,,,,10,249,,,,,,,,,,,,,,,,,,,,,,,,,37688,2022-10-25_10h29.05.330,vts_reward_expectancy_bt_OFFLINE,2022.2.4,59.99429622
0,0,0,1,1,0,0,0,star,triangle,1,1,0,1,0,0,4,4,9,785.1354136,785.1354136,785.1354136,785.1354136,785.1354136,785.1354136,785.1354136,785.1354136,785.1354136,785.1354136,l,2.478037481,,,,,,,,,,,,,,,,,,,,,,,,,,,,,,,,,,,,,,,,,,,,,,,,,,,,,,,,,,,,,,,,,,,,,,,,,,,,,,,,,,,,,1,250,,,,,,,,,,,,,,,,,,,,,,,,,37688,2022-10-25_10h29.05.330,vts_reward_expectancy_bt_OFFLINE,2022.2.4,59.99429622
0,0,1,0,0,0,0,1,hexagon,star,1,1,0,1,0,0,5,5,8,789.6402471,789.6402471,789.6402471,789.6402471,789.6402471,789.6402471,789.6402471,789.6402471,789.6402471,789.6402471,a,1.341597591,,,,,,,,,,,,,,,,,,,,,,,,,,,,,,,,,,,,,,,,,,,,,,,,,,,,,,,,,,,,,,,,,,,,,,,,,,,,,,,,,,,,,1,251,,,,,,,,,,,,,,,,,,,,,,,,,37688,2022-10-25_10h29.05.330,vts_reward_expectancy_bt_OFFLINE,2022.2.4,59.99429622
0,1,0,0,0,0,0,1,circle,star,1,1,0,1,0,0,6,6,5,793.0106402,793.0106402,793.0106402,793.0106402,793.0106402,793.0106402,793.0106402,793.0106402,793.0106402,793.0106402,a,1.468958137,,,,,,,,,,,,,,,,,,,,,,,,,,,,,,,,,,,,,,,,,,,,,,,,,,,,,,,,,,,,,,,,,,,,,,,,,,,,,,,,,,,,,1,252,,,,,,,,,,,,,,,,,,,,,,,,,37688,2022-10-25_10h29.05.330,vts_reward_expectancy_bt_OFFLINE,2022.2.4,59.99429622
0,0,0,1,0,1,0,0,star ,circle,1,1,0,1,0,0,7,7,10,796.5145367,796.5145367,796.5145367,796.5145367,796.5145367,796.5145367,796.5145367,796.5145367,796.5145367,796.5145367,a,0.916175164,,,,,,,,,,,,,,,,,,,,,,,,,,,,,,,,,,,,,,,,,,,,,,,,,,,,,,,,,,,,,,,,,,,,,,,,,,,,,,,,,,,,,1,253,,,,,,,,,,,,,,,,,,,,,,,,,37688,2022-10-25_10h29.05.330,vts_reward_expectancy_bt_OFFLINE,2022.2.4,59.99429622
0,0,1,0,0,1,0,0,hexagon,circle,1,1,0,1,0,0,8,8,7,799.4510662,799.4510662,799.4510662,799.4510662,799.4510662,799.4510662,799.4510662,799.4510662,799.4510662,799.4510662,a,1.810772231,,,,,,,,,,,,,,,,,,,,,,,,,,,,,,,,,,,,,,,,,,,,,,,,,,,,,,,,,,,,,,,,,,,,,,,,,,,,,,,,,,,,,10,263,,,,,,,,,,,,,,,,,,,,,,,,,37688,2022-10-25_10h29.05.330,vts_reward_expectancy_bt_OFFLINE,2022.2.4,59.99429622
0,1,0,0,0,0,1,0,circle,hexagon,1,1,0,1,0,0,9,9,4,803.2886547,803.2886547,803.2886547,803.2886547,803.2886547,803.2886547,803.2886547,803.2886547,803.2886547,803.2886547,l,1.709018145,,,,,,,,,,,,,,,,,,,,,,,,,,,,,,,,,,,,,,,,,,,,,,,,,,,,,,,,,,,,,,,,,,,,,,,,,,,,,,,,,,,,,10,273,,,,,,,,,,,,,,,,,,,,,,,,,37688,2022-10-25_10h29.05.330,vts_reward_expectancy_bt_OFFLINE,2022.2.4,59.99429622
1,0,0,0,0,0,0,1,triangle,star,1,1,0,1,0,0,10,10,2,807.0262379,807.0262379,807.0262379,807.0262379,807.0262379,807.0262379,807.0262379,807.0262379,807.0262379,807.0262379,l,0.707616349,,,,,,,,,,,,,,,,,,,,,,,,,,,,,,,,,,,,,,,,,,,,,,,,,,,,,,,,,,,,,,,,,,,,,,,,,,,,,,,,,,,,,1,274,,,,,,,,,,,,,,,,,,,,,,,,,37688,2022-10-25_10h29.05.330,vts_reward_expectancy_bt_OFFLINE,2022.2.4,59.99429622
0,0,1,0,1,0,0,0,hexagon,triangle,1,1,0,1,0,0,11,11,6,809.7625271,809.7625271,809.7625271,809.7625271,809.7625271,809.7625271,809.7625271,809.7625271,809.7625271,809.7625271,a,2.068272307,,,,,,,,,,,,,,,,,,,,,,,,,,,,,,,,,,,,,,,,,,,,,,,,,,,,,,,,,,,,,,,,,,,,,,,,,,,,,,,,,,,,,10,284,,,,,,,,,,,,,,,,,,,,,,,,,37688,2022-10-25_10h29.05.330,vts_reward_expectancy_bt_OFFLINE,2022.2.4,59.99429622
1,0,0,0,0,0,1,0,triangle,hexagon,1,1,0,1,0,1,0,12,1,813.8502997,813.8502997,813.8502997,813.8502997,813.8502997,813.8502997,813.8502997,813.8502997,813.8502997,813.8502997,a,2.252565477,,,,,,,,,,,,,,,,,,,,,,,,,,,,,,,,,,,,,,,,,,,,,,,,,,,,,,,,,,,,,,,,,,,,,,,,,,,,,,,,,,,,,1,285,,,,,,,,,,,,,,,,,,,,,,,,,37688,2022-10-25_10h29.05.330,vts_reward_expectancy_bt_OFFLINE,2022.2.4,59.99429622
1,0,0,0,0,0,0,1,triangle,star,1,1,0,1,0,1,1,13,2,818.1216501,818.1216501,818.1216501,818.1216501,818.1216501,818.1216501,818.1216501,818.1216501,818.1216501,818.1216501,a,1.48529647,,,,,,,,,,,,,,,,,,,,,,,,,,,,,,,,,,,,,,,,,,,,,,,,,,,,,,,,,,,,,,,,,,,,,,,,,,,,,,,,,,,,,1,286,,,,,,,,,,,,,,,,,,,,,,,,,37688,2022-10-25_10h29.05.330,vts_reward_expectancy_bt_OFFLINE,2022.2.4,59.99429622
0,0,1,0,0,1,0,0,hexagon,circle,1,1,0,1,0,1,2,14,7,821.6258058,821.6258058,821.6258058,821.6258058,821.6258058,821.6258058,821.6258058,821.6258058,821.6258058,821.6258058,a,1.524219042,,,,,,,,,,,,,,,,,,,,,,,,,,,,,,,,,,,,,,,,,,,,,,,,,,,,,,,,,,,,,,,,,,,,,,,,,,,,,,,,,,,,,1,287,,,,,,,,,,,,,,,,,,,,,,,,,37688,2022-10-25_10h29.05.330,vts_reward_expectancy_bt_OFFLINE,2022.2.4,59.99429622
0,0,1,0,0,0,0,1,hexagon,star,1,1,0,1,0,1,3,15,8,825.1795342,825.1795342,825.1795342,825.1795342,825.1795342,825.1795342,825.1795342,825.1795342,825.1795342,825.1795342,l,0.585247237,,,,,,,,,,,,,,,,,,,,,,,,,,,,,,,,,,,,,,,,,,,,,,,,,,,,,,,,,,,,,,,,,,,,,,,,,,,,,,,,,,,,,10,297,,,,,,,,,,,,,,,,,,,,,,,,,37688,2022-10-25_10h29.05.330,vts_reward_expectancy_bt_OFFLINE,2022.2.4,59.99429622
0,0,1,0,1,0,0,0,hexagon,triangle,1,1,0,1,0,1,4,16,6,827.7990492,827.7990492,827.7990492,827.7990492,827.7990492,827.7990492,827.7990492,827.7990492,827.7990492,827.7990492,l,1.39817894,,,,,,,,,,,,,,,,,,,,,,,,,,,,,,,,,,,,,,,,,,,,,,,,,,,,,,,,,,,,,,,,,,,,,,,,,,,,,,,,,,,,,1,298,,,,,,,,,,,,,,,,,,,,,,,,,37688,2022-10-25_10h29.05.330,vts_reward_expectancy_bt_OFFLINE,2022.2.4,59.99429622
0,1,0,0,0,0,0,1,circle,star,1,1,0,1,0,1,5,17,5,831.2196347,831.2196347,831.2196347,831.2196347,831.2196347,831.2196347,831.2196347,831.2196347,831.2196347,831.2196347,l,1.521751073,,,,,,,,,,,,,,,,,,,,,,,,,,,,,,,,,,,,,,,,,,,,,,,,,,,,,,,,,,,,,,,,,,,,,,,,,,,,,,,,,,,,,1,299,,,,,,,,,,,,,,,,,,,,,,,,,37688,2022-10-25_10h29.05.330,vts_reward_expectancy_bt_OFFLINE,2022.2.4,59.99429622
0,0,0,1,0,1,0,0,star ,circle,1,1,0,1,0,1,6,18,10,834.7736049,834.7736049,834.7736049,834.7736049,834.7736049,834.7736049,834.7736049,834.7736049,834.7736049,834.7736049,a,0.687589714,,,,,,,,,,,,,,,,,,,,,,,,,,,,,,,,,,,,,,,,,,,,,,,,,,,,,,,,,,,,,,,,,,,,,,,,,,,,,,,,,,,,,1,300,,,,,,,,,,,,,,,,,,,,,,,,,37688,2022-10-25_10h29.05.330,vts_reward_expectancy_bt_OFFLINE,2022.2.4,59.99429622
0,1,0,0,1,0,0,0,circle,triangle,1,1,0,1,0,1,7,19,3,837.4932931,837.4932931,837.4932931,837.4932931,837.4932931,837.4932931,837.4932931,837.4932931,837.4932931,837.4932931,a,2.336397405,,,,,,,,,,,,,,,,,,,,,,,,,,,,,,,,,,,,,,,,,,,,,,,,,,,,,,,,,,,,,,,,,,,,,,,,,,,,,,,,,,,,,1,301,,,,,,,,,,,,,,,,,,,,,,,,,37688,2022-10-25_10h29.05.330,vts_reward_expectancy_bt_OFFLINE,2022.2.4,59.99429622
1,0,0,0,0,1,0,0,triangle,circle,1,1,0,1,0,1,8,20,0,841.8646729,841.8646729,841.8646729,841.8646729,841.8646729,841.8646729,841.8646729,841.8646729,841.8646729,841.8646729,l,0.701612792,,,,,,,,,,,,,,,,,,,,,,,,,,,,,,,,,,,,,,,,,,,,,,,,,,,,,,,,,,,,,,,,,,,,,,,,,,,,,,,,,,,,,10,311,,,,,,,,,,,,,,,,,,,,,,,,,37688,2022-10-25_10h29.05.330,vts_reward_expectancy_bt_OFFLINE,2022.2.4,59.99429622
0,1,0,0,0,0,1,0,circle,hexagon,1,1,0,1,0,1,9,21,4,844.6008535,844.6008535,844.6008535,844.6008535,844.6008535,844.6008535,844.6008535,844.6008535,844.6008535,844.6008535,l,6.541573828,,,,,,,,,,,,,,,,,,,,,,,,,,,,,,,,,,,,,,,,,,,,,,,,,,,,,,,,,,,,,,,,,,,,,,,,,,,,,,,,,,,,,1,312,,,,,,,,,,,,,,,,,,,,,,,,,37688,2022-10-25_10h29.05.330,vts_reward_expectancy_bt_OFFLINE,2022.2.4,59.99429622
0,0,0,1,0,0,1,0,star,hexagon,1,1,0,1,0,1,10,22,11,853.1769907,853.1769907,853.1769907,853.1769907,853.1769907,853.1769907,853.1769907,853.1769907,853.1769907,853.1769907,a,2.627833864,,,,,,,,,,,,,,,,,,,,,,,,,,,,,,,,,,,,,,,,,,,,,,,,,,,,,,,,,,,,,,,,,,,,,,,,,,,,,,,,,,,,,10,322,,,,,,,,,,,,,,,,,,,,,,,,,37688,2022-10-25_10h29.05.330,vts_reward_expectancy_bt_OFFLINE,2022.2.4,59.99429622
0,0,0,1,1,0,0,0,star,triangle,1,1,0,1,0,1,11,23,9,857.8324476,857.8324476,857.8324476,857.8324476,857.8324476,857.8324476,857.8324476,857.8324476,857.8324476,857.8324476,l,1.365595025,,,,,,,,,,,,,,,,,,,,,,,,,,,,,,,,,,,,,,,,,,,,,,,,,,,,,,,,,,,,,,,,,,,,,,,,,,,,,,,,,,,,,10,332,,,,,,,,,,,,,,,,,,,,,,,,,37688,2022-10-25_10h29.05.330,vts_reward_expectancy_bt_OFFLINE,2022.2.4,59.99429622
1,0,0,0,0,1,0,0,triangle,circle,1,1,0,1,0,2,0,24,0,861.2193103,861.2193103,861.2193103,861.2193103,861.2193103,861.2193103,861.2193103,861.2193103,861.2193103,861.2193103,a,1.506313027,,,,,,,,,,,,,,,,,,,,,,,,,,,,,,,,,,,,,,,,,,,,,,,,,,,,,,,,,,,,,,,,,,,,,,,,,,,,,,,,,,,,,1,333,,,,,,,,,,,,,,,,,,,,,,,,,37688,2022-10-25_10h29.05.330,vts_reward_expectancy_bt_OFFLINE,2022.2.4,59.99429622
0,0,0,1,0,1,0,0,star ,circle,1,1,0,1,0,2,1,25,10,864.7563227,864.7563227,864.7563227,864.7563227,864.7563227,864.7563227,864.7563227,864.7563227,864.7563227,864.7563227,a,4.106011999,,,,,,,,,,,,,,,,,,,,,,,,,,,,,,,,,,,,,,,,,,,,,,,,,,,,,,,,,,,,,,,,,,,,,,,,,,,,,,,,,,,,,1,334,,,,,,,,,,,,,,,,,,,,,,,,,37688,2022-10-25_10h29.05.330,vts_reward_expectancy_bt_OFFLINE,2022.2.4,59.99429622
0,1,0,0,0,0,0,1,circle,star,1,1,0,1,0,2,2,26,5,870.8966505,870.8966505,870.8966505,870.8966505,870.8966505,870.8966505,870.8966505,870.8966505,870.8966505,870.8966505,a,1.828737859,,,,,,,,,,,,,,,,,,,,,,,,,,,,,,,,,,,,,,,,,,,,,,,,,,,,,,,,,,,,,,,,,,,,,,,,,,,,,,,,,,,,,1,335,,,,,,,,,,,,,,,,,,,,,,,,,37688,2022-10-25_10h29.05.330,vts_reward_expectancy_bt_OFFLINE,2022.2.4,59.99429622
1,0,0,0,0,0,1,0,triangle,hexagon,1,1,0,1,0,2,3,27,1,874.7508999,874.7508999,874.7508999,874.7508999,874.7508999,874.7508999,874.7508999,874.7508999,874.7508999,874.7508999,a,1.302750797,,,,,,,,,,,,,,,,,,,,,,,,,,,,,,,,,,,,,,,,,,,,,,,,,,,,,,,,,,,,,,,,,,,,,,,,,,,,,,,,,,,,,1,336,,,,,,,,,,,,,,,,,,,,,,,,,37688,2022-10-25_10h29.05.330,vts_reward_expectancy_bt_OFFLINE,2022.2.4,59.99429622
0,0,0,1,1,0,0,0,star,triangle,1,1,0,1,0,2,4,28,9,878.0881816,878.0881816,878.0881816,878.0881816,878.0881816,878.0881816,878.0881816,878.0881816,878.0881816,878.0881816,a,0.877540587,,,,,,,,,,,,,,,,,,,,,,,,,,,,,,,,,,,,,,,,,,,,,,,,,,,,,,,,,,,,,,,,,,,,,,,,,,,,,,,,,,,,,10,346,,,,,,,,,,,,,,,,,,,,,,,,,37688,2022-10-25_10h29.05.330,vts_reward_expectancy_bt_OFFLINE,2022.2.4,59.99429622
0,1,0,0,0,0,1,0,circle,hexagon,1,1,0,1,0,2,5,29,4,880.9911677,880.9911677,880.9911677,880.9911677,880.9911677,880.9911677,880.9911677,880.9911677,880.9911677,880.9911677,l,2.551168029,,,,,,,,,,,,,,,,,,,,,,,,,,,,,,,,,,,,,,,,,,,,,,,,,,,,,,,,,,,,,,,,,,,,,,,,,,,,,,,,,,,,,10,356,,,,,,,,,,,,,,,,,,,,,,,,,37688,2022-10-25_10h29.05.330,vts_reward_expectancy_bt_OFFLINE,2022.2.4,59.99429622
0,0,0,1,0,0,1,0,star,hexagon,1,1,0,1,0,2,6,30,11,885.5630501,885.5630501,885.5630501,885.5630501,885.5630501,885.5630501,885.5630501,885.5630501,885.5630501,885.5630501,a,1.426797979,,,,,,,,,,,,,,,,,,,,,,,,,,,,,,,,,,,,,,,,,,,,,,,,,,,,,,,,,,,,,,,,,,,,,,,,,,,,,,,,,,,,,1,357,,,,,,,,,,,,,,,,,,,,,,,,,37688,2022-10-25_10h29.05.330,vts_reward_expectancy_bt_OFFLINE,2022.2.4,59.99429622
0,0,1,0,1,0,0,0,hexagon,triangle,1,1,0,1,0,2,7,31,6,889.0167927,889.0167927,889.0167927,889.0167927,889.0167927,889.0167927,889.0167927,889.0167927,889.0167927,889.0167927,a,0.773076609,,,,,,,,,,,,,,,,,,,,,,,,,,,,,,,,,,,,,,,,,,,,,,,,,,,,,,,,,,,,,,,,,,,,,,,,,,,,,,,,,,,,,1,358,,,,,,,,,,,,,,,,,,,,,,,,,37688,2022-10-25_10h29.05.330,vts_reward_expectancy_bt_OFFLINE,2022.2.4,59.99429622
1,0,0,0,0,0,0,1,triangle,star,1,1,0,1,0,2,8,32,2,891.8198092,891.8198092,891.8198092,891.8198092,891.8198092,891.8198092,891.8198092,891.8198092,891.8198092,891.8198092,a,1.586091841,,,,,,,,,,,,,,,,,,,,,,,,,,,,,,,,,,,,,,,,,,,,,,,,,,,,,,,,,,,,,,,,,,,,,,,,,,,,,,,,,,,,,10,368,,,,,,,,,,,,,,,,,,,,,,,,,37688,2022-10-25_10h29.05.330,vts_reward_expectancy_bt_OFFLINE,2022.2.4,59.99429622
0,0,1,0,0,1,0,0,hexagon,circle,1,1,0,1,0,2,9,33,7,895.4405029,895.4405029,895.4405029,895.4405029,895.4405029,895.4405029,895.4405029,895.4405029,895.4405029,895.4405029,l,2.428917431,,,,,,,,,,,,,,,,,,,,,,,,,,,,,,,,,,,,,,,,,,,,,,,,,,,,,,,,,,,,,,,,,,,,,,,,,,,,,,,,,,,,,10,378,,,,,,,,,,,,,,,,,,,,,,,,,37688,2022-10-25_10h29.05.330,vts_reward_expectancy_bt_OFFLINE,2022.2.4,59.99429622
0,1,0,0,1,0,0,0,circle,triangle,1,1,0,1,0,2,10,34,3,899.895392,899.895392,899.895392,899.895392,899.895392,899.895392,899.895392,899.895392,899.895392,899.895392,l,1.302475072,,,,,,,,,,,,,,,,,,,,,,,,,,,,,,,,,,,,,,,,,,,,,,,,,,,,,,,,,,,,,,,,,,,,,,,,,,,,,,,,,,,,,1,379,,,,,,,,,,,,,,,,,,,,,,,,,37688,2022-10-25_10h29.05.330,vts_reward_expectancy_bt_OFFLINE,2022.2.4,59.99429622
0,0,1,0,0,0,0,1,hexagon,star,1,1,0,1,0,2,11,35,8,903.2322662,903.2322662,903.2322662,903.2322662,903.2322662,903.2322662,903.2322662,903.2322662,903.2322662,903.2322662,l,1.412548693,,,,,,,,,,,,,,,,,,,,,,,,,,,,,,,,,,,,,,,,,,,,,,,,,,,,,,,,,,,,,,,,,,,,,,,,,,,,,,,,,,,,,10,389,,,,,,,,,,,,,,,,,,,,,,,,,37688,2022-10-25_10h29.05.330,vts_reward_expectancy_bt_OFFLINE,2022.2.4,59.99429622
1,0,0,0,0,1,0,0,triangle,circle,1,1,0,1,0,3,0,36,0,906.6693866,906.6693866,906.6693866,906.6693866,906.6693866,906.6693866,906.6693866,906.6693866,906.6693866,906.6693866,a,1.319662702,,,,,,,,,,,,,,,,,,,,,,,,,,,,,,,,,,,,,,,,,,,,,,,,,,,,,,,,,,,,,,,,,,,,,,,,,,,,,,,,,,,,,1,390,,,,,,,,,,,,,,,,,,,,,,,,,37688,2022-10-25_10h29.05.330,vts_reward_expectancy_bt_OFFLINE,2022.2.4,59.99429622
0,0,0,1,0,1,0,0,star ,circle,1,1,0,1,0,3,1,37,10,910.023266,910.023266,910.023266,910.023266,910.023266,910.023266,910.023266,910.023266,910.023266,910.023266,a,0.974552954,,,,,,,,,,,,,,,,,,,,,,,,,,,,,,,,,,,,,,,,,,,,,,,,,,,,,,,,,,,,,,,,,,,,,,,,,,,,,,,,,,,,,1,391,,,,,,,,,,,,,,,,,,,,,,,,,37688,2022-10-25_10h29.05.330,vts_reward_expectancy_bt_OFFLINE,2022.2.4,59.99429622
0,1,0,0,0,0,1,0,circle,hexagon,1,1,0,1,0,3,2,38,4,913.0264252,913.0264252,913.0264252,913.0264252,913.0264252,913.0264252,913.0264252,913.0264252,913.0264252,913.0264252,a,0.701255234,,,,,,,,,,,,,,,,,,,,,,,,,,,,,,,,,,,,,,,,,,,,,,,,,,,,,,,,,,,,,,,,,,,,,,,,,,,,,,,,,,,,,1,392,,,,,,,,,,,,,,,,,,,,,,,,,37688,2022-10-25_10h29.05.330,vts_reward_expectancy_bt_OFFLINE,2022.2.4,59.99429622
0,0,1,0,0,0,0,1,hexagon,star,1,1,0,1,0,3,3,39,8,915.7629091,915.7629091,915.7629091,915.7629091,915.7629091,915.7629091,915.7629091,915.7629091,915.7629091,915.7629091,a,0.884505233,,,,,,,,,,,,,,,,,,,,,,,,,,,,,,,,,,,,,,,,,,,,,,,,,,,,,,,,,,,,,,,,,,,,,,,,,,,,,,,,,,,,,10,402,,,,,,,,,,,,,,,,,,,,,,,,,37688,2022-10-25_10h29.05.330,vts_reward_expectancy_bt_OFFLINE,2022.2.4,59.99429622
1,0,0,0,0,0,0,1,triangle,star,1,1,0,1,0,3,4,40,2,918.6659502,918.6659502,918.6659502,918.6659502,918.6659502,918.6659502,918.6659502,918.6659502,918.6659502,918.6659502,a,0.708270541,,,,,,,,,,,,,,,,,,,,,,,,,,,,,,,,,,,,,,,,,,,,,,,,,,,,,,,,,,,,,,,,,,,,,,,,,,,,,,,,,,,,,1,403,,,,,,,,,,,,,,,,,,,,,,,,,37688,2022-10-25_10h29.05.330,vts_reward_expectancy_bt_OFFLINE,2022.2.4,59.99429622
0,0,1,0,1,0,0,0,hexagon,triangle,1,1,0,1,0,3,5,41,6,921.402322,921.402322,921.402322,921.402322,921.402322,921.402322,921.402322,921.402322,921.402322,921.402322,a,1.842625798,,,,,,,,,,,,,,,,,,,,,,,,,,,,,,,,,,,,,,,,,,,,,,,,,,,,,,,,,,,,,,,,,,,,,,,,,,,,,,,,,,,,,10,413,,,,,,,,,,,,,,,,,,,,,,,,,37688,2022-10-25_10h29.05.330,vts_reward_expectancy_bt_OFFLINE,2022.2.4,59.99429622
0,1,0,0,1,0,0,0,circle,triangle,1,1,0,1,0,3,6,42,3,925.2732759,925.2732759,925.2732759,925.2732759,925.2732759,925.2732759,925.2732759,925.2732759,925.2732759,925.2732759,a,2.347605303,,,,,,,,,,,,,,,,,,,,,,,,,,,,,,,,,,,,,,,,,,,,,,,,,,,,,,,,,,,,,,,,,,,,,,,,,,,,,,,,,,,,,10,423,,,,,,,,,,,,,,,,,,,,,,,,,37688,2022-10-25_10h29.05.330,vts_reward_expectancy_bt_OFFLINE,2022.2.4,59.99429622
1,0,0,0,0,0,1,0,triangle,hexagon,1,1,0,1,0,3,7,43,1,929.6447055,929.6447055,929.6447055,929.6447055,929.6447055,929.6447055,929.6447055,929.6447055,929.6447055,929.6447055,a,1.577176627,,,,,,,,,,,,,,,,,,,,,,,,,,,,,,,,,,,,,,,,,,,,,,,,,,,,,,,,,,,,,,,,,,,,,,,,,,,,,,,,,,,,,1,424,,,,,,,,,,,,,,,,,,,,,,,,,37688,2022-10-25_10h29.05.330,vts_reward_expectancy_bt_OFFLINE,2022.2.4,59.99429622
0,0,0,1,0,0,1,0,star,hexagon,1,1,0,1,0,3,8,44,11,933.2487898,933.2487898,933.2487898,933.2487898,933.2487898,933.2487898,933.2487898,933.2487898,933.2487898,933.2487898,a,1.501974345,,,,,,,,,,,,,,,,,,,,,,,,,,,,,,,,,,,,,,,,,,,,,,,,,,,,,,,,,,,,,,,,,,,,,,,,,,,,,,,,,,,,,10,434,,,,,,,,,,,,,,,,,,,,,,,,,37688,2022-10-25_10h29.05.330,vts_reward_expectancy_bt_OFFLINE,2022.2.4,59.99429622
0,0,1,0,0,1,0,0,hexagon,circle,1,1,0,1,0,3,9,45,7,936.7694379,936.7694379,936.7694379,936.7694379,936.7694379,936.7694379,936.7694379,936.7694379,936.7694379,936.7694379,l,1.268934628,,,,,,,,,,,,,,,,,,,,,,,,,,,,,,,,,,,,,,,,,,,,,,,,,,,,,,,,,,,,,,,,,,,,,,,,,,,,,,,,,,,,,1,435,,,,,,,,,,,,,,,,,,,,,,,,,37688,2022-10-25_10h29.05.330,vts_reward_expectancy_bt_OFFLINE,2022.2.4,59.99429622
0,1,0,0,0,0,0,1,circle,star,1,1,0,1,0,3,10,46,5,940.0729394,940.0729394,940.0729394,940.0729394,940.0729394,940.0729394,940.0729394,940.0729394,940.0729394,940.0729394,a,1.052443624,,,,,,,,,,,,,,,,,,,,,,,,,,,,,,,,,,,,,,,,,,,,,,,,,,,,,,,,,,,,,,,,,,,,,,,,,,,,,,,,,,,,,1,436,,,,,,,,,,,,,,,,,,,,,,,,,37688,2022-10-25_10h29.05.330,vts_reward_expectancy_bt_OFFLINE,2022.2.4,59.99429622
0,0,0,1,1,0,0,0,star,triangle,1,1,0,1,0,3,11,47,9,943.1596588,943.1596588,943.1596588,943.1596588,943.1596588,943.1596588,943.1596588,943.1596588,943.1596588,943.1596588,a,0.735341592,,,,,,,,,,,,,,,,,,,,,,,,,,,,,,,,,,,,,,,,,,,,,,,,,,,,,,,,,,,,,,,,,,,,,,,,,,,,,,,,,,,,,1,437,,,,,,,,,,,,,,,,,,,,,,,,,37688,2022-10-25_10h29.05.330,vts_reward_expectancy_bt_OFFLINE,2022.2.4,59.99429622
0,0,1,0,1,0,0,0,hexagon,triangle,2,2,0,2,0,0,0,0,6,963.115039,963.115039,963.115039,963.115039,963.115039,963.115039,963.115039,963.115039,963.115039,963.115039,l,2.090690008,,,,,,,,,,,,,,,,,,,,,,,,,,,,,,,,,,,,,,,,,,,,,,,,,,,,,,,,,,,,,,,,,,,,,,,,,,,,,,,,,,,,,1,438,,,,,,,,,,,,,,,,,,,,,,,,,37688,2022-10-25_10h29.05.330,vts_reward_expectancy_bt_OFFLINE,2022.2.4,59.99429622
0,1,0,0,0,0,0,1,circle,star,2,2,0,2,0,0,1,1,5,967.2362189,967.2362189,967.2362189,967.2362189,967.2362189,967.2362189,967.2362189,967.2362189,967.2362189,967.2362189,l,2.626574261,,,,,,,,,,,,,,,,,,,,,,,,,,,,,,,,,,,,,,,,,,,,,,,,,,,,,,,,,,,,,,,,,,,,,,,,,,,,,,,,,,,,,10,448,,,,,,,,,,,,,,,,,,,,,,,,,37688,2022-10-25_10h29.05.330,vts_reward_expectancy_bt_OFFLINE,2022.2.4,59.99429622
0,0,1,0,0,1,0,0,hexagon,circle,2,2,0,2,0,0,2,2,7,971.8915404,971.8915404,971.8915404,971.8915404,971.8915404,971.8915404,971.8915404,971.8915404,971.8915404,971.8915404,a,0.626057758,,,,,,,,,,,,,,,,,,,,,,,,,,,,,,,,,,,,,,,,,,,,,,,,,,,,,,,,,,,,,,,,,,,,,,,,,,,,,,,,,,,,,10,458,,,,,,,,,,,,,,,,,,,,,,,,,37688,2022-10-25_10h29.05.330,vts_reward_expectancy_bt_OFFLINE,2022.2.4,59.99429622
1,0,0,0,0,0,0,1,triangle,star,2,2,0,2,0,0,3,3,2,974.5443904,974.5443904,974.5443904,974.5443904,974.5443904,974.5443904,974.5443904,974.5443904,974.5443904,974.5443904,a,3.020877269,,,,,,,,,,,,,,,,,,,,,,,,,,,,,,,,,,,,,,,,,,,,,,,,,,,,,,,,,,,,,,,,,,,,,,,,,,,,,,,,,,,,,10,468,,,,,,,,,,,,,,,,,,,,,,,,,37688,2022-10-25_10h29.05.330,vts_reward_expectancy_bt_OFFLINE,2022.2.4,59.99429622
1,0,0,0,0,1,0,0,triangle,circle,2,2,0,2,0,0,4,4,0,979.5998317,979.5998317,979.5998317,979.5998317,979.5998317,979.5998317,979.5998317,979.5998317,979.5998317,979.5998317,l,0.461711909,,,,,,,,,,,,,,,,,,,,,,,,,,,,,,,,,,,,,,,,,,,,,,,,,,,,,,,,,,,,,,,,,,,,,,,,,,,,,,,,,,,,,1,469,,,,,,,,,,,,,,,,,,,,,,,,,37688,2022-10-25_10h29.05.330,vts_reward_expectancy_bt_OFFLINE,2022.2.4,59.99429622
0,0,0,1,0,0,1,0,star,hexagon,2,2,0,2,0,0,5,5,11,982.0860488,982.0860488,982.0860488,982.0860488,982.0860488,982.0860488,982.0860488,982.0860488,982.0860488,982.0860488,a,1.263338497,,,,,,,,,,,,,,,,,,,,,,,,,,,,,,,,,,,,,,,,,,,,,,,,,,,,,,,,,,,,,,,,,,,,,,,,,,,,,,,,,,,,,10,479,,,,,,,,,,,,,,,,,,,,,,,,,37688,2022-10-25_10h29.05.330,vts_reward_expectancy_bt_OFFLINE,2022.2.4,59.99429622
0,0,0,1,1,0,0,0,star,triangle,2,2,0,2,0,0,6,6,9,985.3729399,985.3729399,985.3729399,985.3729399,985.3729399,985.3729399,985.3729399,985.3729399,985.3729399,985.3729399,l,2.480888444,,,,,,,,,,,,,,,,,,,,,,,,,,,,,,,,,,,,,,,,,,,,,,,,,,,,,,,,,,,,,,,,,,,,,,,,,,,,,,,,,,,,,1,480,,,,,,,,,,,,,,,,,,,,,,,,,37688,2022-10-25_10h29.05.330,vts_reward_expectancy_bt_OFFLINE,2022.2.4,59.99429622
0,0,1,0,0,0,0,1,hexagon,star,2,2,0,2,0,0,7,7,8,989.8779053,989.8779053,989.8779053,989.8779053,989.8779053,989.8779053,989.8779053,989.8779053,989.8779053,989.8779053,a,0.417475534,,,,,,,,,,,,,,,,,,,,,,,,,,,,,,,,,,,,,,,,,,,,,,,,,,,,,,,,,,,,,,,,,,,,,,,,,,,,,,,,,,,,,10,490,,,,,,,,,,,,,,,,,,,,,,,,,37688,2022-10-25_10h29.05.330,vts_reward_expectancy_bt_OFFLINE,2022.2.4,59.99429622
0,1,0,0,1,0,0,0,circle,triangle,2,2,0,2,0,0,8,8,3,992.3139573,992.3139573,992.3139573,992.3139573,992.3139573,992.3139573,992.3139573,992.3139573,992.3139573,992.3139573,a,0.332062938,,,,,,,,,,,,,,,,,,,,,,,,,,,,,,,,,,,,,,,,,,,,,,,,,,,,,,,,,,,,,,,,,,,,,,,,,,,,,,,,,,,,,10,500,,,,,,,,,,,,,,,,,,,,,,,,,37688,2022-10-25_10h29.05.330,vts_reward_expectancy_bt_OFFLINE,2022.2.4,59.99429622
0,0,0,1,0,1,0,0,star ,circle,2,2,0,2,0,0,9,9,10,994.6664598,994.6664598,994.6664598,994.6664598,994.6664598,994.6664598,994.6664598,994.6664598,994.6664598,994.6664598,l,0.651292143,,,,,,,,,,,,,,,,,,,,,,,,,,,,,,,,,,,,,,,,,,,,,,,,,,,,,,,,,,,,,,,,,,,,,,,,,,,,,,,,,,,,,10,510,,,,,,,,,,,,,,,,,,,,,,,,,37688,2022-10-25_10h29.05.330,vts_reward_expectancy_bt_OFFLINE,2022.2.4,59.99429622
0,1,0,0,0,0,1,0,circle,hexagon,2,2,0,2,0,0,10,10,4,997.3526241,997.3526241,997.3526241,997.3526241,997.3526241,997.3526241,997.3526241,997.3526241,997.3526241,997.3526241,a,0.566082395,,,,,,,,,,,,,,,,,,,,,,,,,,,,,,,,,,,,,,,,,,,,,,,,,,,,,,,,,,,,,,,,,,,,,,,,,,,,,,,,,,,,,1,511,,,,,,,,,,,,,,,,,,,,,,,,,37688,2022-10-25_10h29.05.330,vts_reward_expectancy_bt_OFFLINE,2022.2.4,59.99429622
1,0,0,0,0,0,1,0,triangle,hexagon,2,2,0,2,0,0,11,11,1,999.9390246,999.9390246,999.9390246,999.9390246,999.9390246,999.9390246,999.9390246,999.9390246,999.9390246,999.9390246,l,0.545681888,,,,,,,,,,,,,,,,,,,,,,,,,,,,,,,,,,,,,,,,,,,,,,,,,,,,,,,,,,,,,,,,,,,,,,,,,,,,,,,,,,,,,1,512,,,,,,,,,,,,,,,,,,,,,,,,,37688,2022-10-25_10h29.05.330,vts_reward_expectancy_bt_OFFLINE,2022.2.4,59.99429622
0,0,1,0,1,0,0,0,hexagon,triangle,2,2,0,2,0,1,0,12,6,1002.508506,1002.508506,1002.508506,1002.508506,1002.508506,1002.508506,1002.508506,1002.508506,1002.508506,1002.508506,l,0.736290208,,,,,,,,,,,,,,,,,,,,,,,,,,,,,,,,,,,,,,,,,,,,,,,,,,,,,,,,,,,,,,,,,,,,,,,,,,,,,,,,,,,,,1,513,,,,,,,,,,,,,,,,,,,,,,,,,37688,2022-10-25_10h29.05.330,vts_reward_expectancy_bt_OFFLINE,2022.2.4,59.99429622
0,0,1,0,0,0,0,1,hexagon,star,2,2,0,2,0,1,1,13,8,1005.278142,1005.278142,1005.278142,1005.278142,1005.278142,1005.278142,1005.278142,1005.278142,1005.278142,1005.278142,l,2.407778074,,,,,,,,,,,,,,,,,,,,,,,,,,,,,,,,,,,,,,,,,,,,,,,,,,,,,,,,,,,,,,,,,,,,,,,,,,,,,,,,,,,,,10,523,,,,,,,,,,,,,,,,,,,,,,,,,37688,2022-10-25_10h29.05.330,vts_reward_expectancy_bt_OFFLINE,2022.2.4,59.99429622
0,1,0,0,0,0,1,0,circle,hexagon,2,2,0,2,0,1,2,14,4,1009.716431,1009.716431,1009.716431,1009.716431,1009.716431,1009.716431,1009.716431,1009.716431,1009.716431,1009.716431,l,1.360646023,,,,,,,,,,,,,,,,,,,,,,,,,,,,,,,,,,,,,,,,,,,,,,,,,,,,,,,,,,,,,,,,,,,,,,,,,,,,,,,,,,,,,1,524,,,,,,,,,,,,,,,,,,,,,,,,,37688,2022-10-25_10h29.05.330,vts_reward_expectancy_bt_OFFLINE,2022.2.4,59.99429622
1,0,0,0,0,0,0,1,triangle,star,2,2,0,2,0,1,3,15,2,1013.103592,1013.103592,1013.103592,1013.103592,1013.103592,1013.103592,1013.103592,1013.103592,1013.103592,1013.103592,a,1.358863592,,,,,,,,,,,,,,,,,,,,,,,,,,,,,,,,,,,,,,,,,,,,,,,,,,,,,,,,,,,,,,,,,,,,,,,,,,,,,,,,,,,,,10,534,,,,,,,,,,,,,,,,,,,,,,,,,37688,2022-10-25_10h29.05.330,vts_reward_expectancy_bt_OFFLINE,2022.2.4,59.99429622
0,0,0,1,0,0,1,0,star,hexagon,2,2,0,2,0,1,4,16,11,1016.490459,1016.490459,1016.490459,1016.490459,1016.490459,1016.490459,1016.490459,1016.490459,1016.490459,1016.490459,a,0.594291655,,,,,,,,,,,,,,,,,,,,,,,,,,,,,,,,,,,,,,,,,,,,,,,,,,,,,,,,,,,,,,,,,,,,,,,,,,,,,,,,,,,,,1,535,,,,,,,,,,,,,,,,,,,,,,,,,37688,2022-10-25_10h29.05.330,vts_reward_expectancy_bt_OFFLINE,2022.2.4,59.99429622
0,0,0,1,1,0,0,0,star,triangle,2,2,0,2,0,1,5,17,9,1019.110221,1019.110221,1019.110221,1019.110221,1019.110221,1019.110221,1019.110221,1019.110221,1019.110221,1019.110221,a,1.600203042,,,,,,,,,,,,,,,,,,,,,,,,,,,,,,,,,,,,,,,,,,,,,,,,,,,,,,,,,,,,,,,,,,,,,,,,,,,,,,,,,,,,,10,545,,,,,,,,,,,,,,,,,,,,,,,,,37688,2022-10-25_10h29.05.330,vts_reward_expectancy_bt_OFFLINE,2022.2.4,59.99429622
0,0,1,0,0,1,0,0,hexagon,circle,2,2,0,2,0,1,6,18,7,1022.730898,1022.730898,1022.730898,1022.730898,1022.730898,1022.730898,1022.730898,1022.730898,1022.730898,1022.730898,a,0.626525924,,,,,,,,,,,,,,,,,,,,,,,,,,,,,,,,,,,,,,,,,,,,,,,,,,,,,,,,,,,,,,,,,,,,,,,,,,,,,,,,,,,,,1,546,,,,,,,,,,,,,,,,,,,,,,,,,37688,2022-10-25_10h29.05.330,vts_reward_expectancy_bt_OFFLINE,2022.2.4,59.99429622
0,1,0,0,0,0,0,1,circle,star,2,2,0,2,0,1,7,19,5,1025.383711,1025.383711,1025.383711,1025.383711,1025.383711,1025.383711,1025.383711,1025.383711,1025.383711,1025.383711,a,1.014047317,,,,,,,,,,,,,,,,,,,,,,,,,,,,,,,,,,,,,,,,,,,,,,,,,,,,,,,,,,,,,,,,,,,,,,,,,,,,,,,,,,,,,10,556,,,,,,,,,,,,,,,,,,,,,,,,,37688,2022-10-25_10h29.05.330,vts_reward_expectancy_bt_OFFLINE,2022.2.4,59.99429622
0,0,0,1,0,1,0,0,star ,circle,2,2,0,2,0,1,8,20,10,1028.420279,1028.420279,1028.420279,1028.420279,1028.420279,1028.420279,1028.420279,1028.420279,1028.420279,1028.420279,l,1.001783649,,,,,,,,,,,,,,,,,,,,,,,,,,,,,,,,,,,,,,,,,,,,,,,,,,,,,,,,,,,,,,,,,,,,,,,,,,,,,,,,,,,,,10,566,,,,,,,,,,,,,,,,,,,,,,,,,37688,2022-10-25_10h29.05.330,vts_reward_expectancy_bt_OFFLINE,2022.2.4,59.99429622
0,1,0,0,1,0,0,0,circle,triangle,2,2,0,2,0,1,9,21,3,1031.457311,1031.457311,1031.457311,1031.457311,1031.457311,1031.457311,1031.457311,1031.457311,1031.457311,1031.457311,l,2.019735831,,,,,,,,,,,,,,,,,,,,,,,,,,,,,,,,,,,,,,,,,,,,,,,,,,,,,,,,,,,,,,,,,,,,,,,,,,,,,,,,,,,,,1,567,,,,,,,,,,,,,,,,,,,,,,,,,37688,2022-10-25_10h29.05.330,vts_reward_expectancy_bt_OFFLINE,2022.2.4,59.99429622
1,0,0,0,0,1,0,0,triangle,circle,2,2,0,2,0,1,10,22,0,1035.511645,1035.511645,1035.511645,1035.511645,1035.511645,1035.511645,1035.511645,1035.511645,1035.511645,1035.511645,a,0.877466927,,,,,,,,,,,,,,,,,,,,,,,,,,,,,,,,,,,,,,,,,,,,,,,,,,,,,,,,,,,,,,,,,,,,,,,,,,,,,,,,,,,,,1,568,,,,,,,,,,,,,,,,,,,,,,,,,37688,2022-10-25_10h29.05.330,vts_reward_expectancy_bt_OFFLINE,2022.2.4,59.99429622
1,0,0,0,0,0,1,0,triangle,hexagon,2,2,0,2,0,1,11,23,1,1038.415051,1038.415051,1038.415051,1038.415051,1038.415051,1038.415051,1038.415051,1038.415051,1038.415051,1038.415051,a,0.878645368,,,,,,,,,,,,,,,,,,,,,,,,,,,,,,,,,,,,,,,,,,,,,,,,,,,,,,,,,,,,,,,,,,,,,,,,,,,,,,,,,,,,,10,578,,,,,,,,,,,,,,,,,,,,,,,,,37688,2022-10-25_10h29.05.330,vts_reward_expectancy_bt_OFFLINE,2022.2.4,59.99429622
0,0,0,1,0,0,1,0,star,hexagon,2,2,0,2,0,2,0,24,11,1041.317951,1041.317951,1041.317951,1041.317951,1041.317951,1041.317951,1041.317951,1041.317951,1041.317951,1041.317951,a,11.18415586,,,,,,,,,,,,,,,,,,,,,,,,,,,,,,,,,,,,,,,,,,,,,,,,,,,,,,,,,,,,,,,,,,,,,,,,,,,,,,,,,,,,,1,579,,,,,,,,,,,,,,,,,,,,,,,,,37688,2022-10-25_10h29.05.330,vts_reward_expectancy_bt_OFFLINE,2022.2.4,59.99429622
1,0,0,0,0,0,1,0,triangle,hexagon,2,2,0,2,0,2,1,25,1,1054.532491,1054.532491,1054.532491,1054.532491,1054.532491,1054.532491,1054.532491,1054.532491,1054.532491,1054.532491,a,3.18615463,,,,,,,,,,,,,,,,,,,,,,,,,,,,,,,,,,,,,,,,,,,,,,,,,,,,,,,,,,,,,,,,,,,,,,,,,,,,,,,,,,,,,10,589,,,,,,,,,,,,,,,,,,,,,,,,,37688,2022-10-25_10h29.05.330,vts_reward_expectancy_bt_OFFLINE,2022.2.4,59.99429622
1,0,0,0,0,0,0,1,triangle,star,2,2,0,2,0,2,2,26,2,1059.738345,1059.738345,1059.738345,1059.738345,1059.738345,1059.738345,1059.738345,1059.738345,1059.738345,1059.738345,a,1.66866898,,,,,,,,,,,,,,,,,,,,,,,,,,,,,,,,,,,,,,,,,,,,,,,,,,,,,,,,,,,,,,,,,,,,,,,,,,,,,,,,,,,,,10,599,,,,,,,,,,,,,,,,,,,,,,,,,37688,2022-10-25_10h29.05.330,vts_reward_expectancy_bt_OFFLINE,2022.2.4,59.99429622
0,1,0,0,0,0,1,0,circle,hexagon,2,2,0,2,0,2,3,27,4,1063.425635,1063.425635,1063.425635,1063.425635,1063.425635,1063.425635,1063.425635,1063.425635,1063.425635,1063.425635,a,2.236421899,,,,,,,,,,,,,,,,,,,,,,,,,,,,,,,,,,,,,,,,,,,,,,,,,,,,,,,,,,,,,,,,,,,,,,,,,,,,,,,,,,,,,1,600,,,,,,,,,,,,,,,,,,,,,,,,,37688,2022-10-25_10h29.05.330,vts_reward_expectancy_bt_OFFLINE,2022.2.4,59.99429622
0,1,0,0,0,0,0,1,circle,star,2,2,0,2,0,2,4,28,5,1067.697112,1067.697112,1067.697112,1067.697112,1067.697112,1067.697112,1067.697112,1067.697112,1067.697112,1067.697112,l,2.486163665,,,,,,,,,,,,,,,,,,,,,,,,,,,,,,,,,,,,,,,,,,,,,,,,,,,,,,,,,,,,,,,,,,,,,,,,,,,,,,,,,,,,,1,601,,,,,,,,,,,,,,,,,,,,,,,,,37688,2022-10-25_10h29.05.330,vts_reward_expectancy_bt_OFFLINE,2022.2.4,59.99429622
0,0,1,0,0,0,0,1,hexagon,star,2,2,0,2,0,2,5,29,8,1072.202035,1072.202035,1072.202035,1072.202035,1072.202035,1072.202035,1072.202035,1072.202035,1072.202035,1072.202035,l,0.635313914,,,,,,,,,,,,,,,,,,,,,,,,,,,,,,,,,,,,,,,,,,,,,,,,,,,,,,,,,,,,,,,,,,,,,,,,,,,,,,,,,,,,,1,602,,,,,,,,,,,,,,,,,,,,,,,,,37688,2022-10-25_10h29.05.330,vts_reward_expectancy_bt_OFFLINE,2022.2.4,59.99429622
0,1,0,0,1,0,0,0,circle,triangle,2,2,0,2,0,2,6,30,3,1074.871776,1074.871776,1074.871776,1074.871776,1074.871776,1074.871776,1074.871776,1074.871776,1074.871776,1074.871776,l,0.341230182,,,,,,,,,,,,,,,,,,,,,,,,,,,,,,,,,,,,,,,,,,,,,,,,,,,,,,,,,,,,,,,,,,,,,,,,,,,,,,,,,,,,,1,603,,,,,,,,,,,,,,,,,,,,,,,,,37688,2022-10-25_10h29.05.330,vts_reward_expectancy_bt_OFFLINE,2022.2.4,59.99429622
0,0,1,0,0,1,0,0,hexagon,circle,2,2,0,2,0,2,7,31,7,1077.241043,1077.241043,1077.241043,1077.241043,1077.241043,1077.241043,1077.241043,1077.241043,1077.241043,1077.241043,l,0.717652559,,,,,,,,,,,,,,,,,,,,,,,,,,,,,,,,,,,,,,,,,,,,,,,,,,,,,,,,,,,,,,,,,,,,,,,,,,,,,,,,,,,,,10,613,,,,,,,,,,,,,,,,,,,,,,,,,37688,2022-10-25_10h29.05.330,vts_reward_expectancy_bt_OFFLINE,2022.2.4,59.99429622
1,0,0,0,0,1,0,0,triangle,circle,2,2,0,2,0,2,8,32,0,1079.977216,1079.977216,1079.977216,1079.977216,1079.977216,1079.977216,1079.977216,1079.977216,1079.977216,1079.977216,a,0.33398783,,,,,,,,,,,,,,,,,,,,,,,,,,,,,,,,,,,,,,,,,,,,,,,,,,,,,,,,,,,,,,,,,,,,,,,,,,,,,,,,,,,,,1,614,,,,,,,,,,,,,,,,,,,,,,,,,37688,2022-10-25_10h29.05.330,vts_reward_expectancy_bt_OFFLINE,2022.2.4,59.99429622
0,0,0,1,1,0,0,0,star,triangle,2,2,0,2,0,2,9,33,9,1082.329894,1082.329894,1082.329894,1082.329894,1082.329894,1082.329894,1082.329894,1082.329894,1082.329894,1082.329894,a,0.627513682,,,,,,,,,,,,,,,,,,,,,,,,,,,,,,,,,,,,,,,,,,,,,,,,,,,,,,,,,,,,,,,,,,,,,,,,,,,,,,,,,,,,,10,624,,,,,,,,,,,,,,,,,,,,,,,,,37688,2022-10-25_10h29.05.330,vts_reward_expectancy_bt_OFFLINE,2022.2.4,59.99429622
0,0,1,0,1,0,0,0,hexagon,triangle,2,2,0,2,0,2,10,34,6,1084.982751,1084.982751,1084.982751,1084.982751,1084.982751,1084.982751,1084.982751,1084.982751,1084.982751,1084.982751,a,0.367910258,,,,,,,,,,,,,,,,,,,,,,,,,,,,,,,,,,,,,,,,,,,,,,,,,,,,,,,,,,,,,,,,,,,,,,,,,,,,,,,,,,,,,1,625,,,,,,,,,,,,,,,,,,,,,,,,,37688,2022-10-25_10h29.05.330,vts_reward_expectancy_bt_OFFLINE,2022.2.4,59.99429622
0,0,0,1,0,1,0,0,star ,circle,2,2,0,2,0,2,11,35,10,1087.385363,1087.385363,1087.385363,1087.385363,1087.385363,1087.385363,1087.385363,1087.385363,1087.385363,1087.385363,a,0.691413703,,,,,,,,,,,,,,,,,,,,,,,,,,,,,,,,,,,,,,,,,,,,,,,,,,,,,,,,,,,,,,,,,,,,,,,,,,,,,,,,,,,,,1,626,,,,,,,,,,,,,,,,,,,,,,,,,37688,2022-10-25_10h29.05.330,vts_reward_expectancy_bt_OFFLINE,2022.2.4,59.99429622
1,0,0,0,0,1,0,0,triangle,circle,2,2,0,2,0,3,0,36,0,1090.105267,1090.105267,1090.105267,1090.105267,1090.105267,1090.105267,1090.105267,1090.105267,1090.105267,1090.105267,l,0.403721422,,,,,,,,,,,,,,,,,,,,,,,,,,,,,,,,,,,,,,,,,,,,,,,,,,,,,,,,,,,,,,,,,,,,,,,,,,,,,,,,,,,,,10,636,,,,,,,,,,,,,,,,,,,,,,,,,37688,2022-10-25_10h29.05.330,vts_reward_expectancy_bt_OFFLINE,2022.2.4,59.99429622
0,0,1,0,1,0,0,0,hexagon,triangle,2,2,0,2,0,3,1,37,6,1092.54114,1092.54114,1092.54114,1092.54114,1092.54114,1092.54114,1092.54114,1092.54114,1092.54114,1092.54114,a,9.455787619,,,,,,,,,,,,,,,,,,,,,,,,,,,,,,,,,,,,,,,,,,,,,,,,,,,,,,,,,,,,,,,,,,,,,,,,,,,,,,,,,,,,,10,646,,,,,,,,,,,,,,,,,,,,,,,,,37688,2022-10-25_10h29.05.330,vts_reward_expectancy_bt_OFFLINE,2022.2.4,59.99429622
0,1,0,0,0,0,1,0,circle,hexagon,2,2,0,2,0,3,2,38,4,1104.020361,1104.020361,1104.020361,1104.020361,1104.020361,1104.020361,1104.020361,1104.020361,1104.020361,1104.020361,a,1.297365222,,,,,,,,,,,,,,,,,,,,,,,,,,,,,,,,,,,,,,,,,,,,,,,,,,,,,,,,,,,,,,,,,,,,,,,,,,,,,,,,,,,,,1,647,,,,,,,,,,,,,,,,,,,,,,,,,37688,2022-10-25_10h29.05.330,vts_reward_expectancy_bt_OFFLINE,2022.2.4,59.99429622
0,0,0,1,0,1,0,0,star ,circle,2,2,0,2,0,3,3,39,10,1107.340932,1107.340932,1107.340932,1107.340932,1107.340932,1107.340932,1107.340932,1107.340932,1107.340932,1107.340932,a,0.842001249,,,,,,,,,,,,,,,,,,,,,,,,,,,,,,,,,,,,,,,,,,,,,,,,,,,,,,,,,,,,,,,,,,,,,,,,,,,,,,,,,,,,,1,648,,,,,,,,,,,,,,,,,,,,,,,,,37688,2022-10-25_10h29.05.330,vts_reward_expectancy_bt_OFFLINE,2022.2.4,59.99429622
1,0,0,0,0,0,1,0,triangle,hexagon,2,2,0,2,0,3,4,40,1,1110.210749,1110.210749,1110.210749,1110.210749,1110.210749,1110.210749,1110.210749,1110.210749,1110.210749,1110.210749,a,2.036081245,,,,,,,,,,,,,,,,,,,,,,,,,,,,,,,,,,,,,,,,,,,,,,,,,,,,,,,,,,,,,,,,,,,,,,,,,,,,,,,,,,,,,1,649,,,,,,,,,,,,,,,,,,,,,,,,,37688,2022-10-25_10h29.05.330,vts_reward_expectancy_bt_OFFLINE,2022.2.4,59.99429622
0,0,0,1,1,0,0,0,star,triangle,2,2,0,2,0,3,5,41,9,1114.281792,1114.281792,1114.281792,1114.281792,1114.281792,1114.281792,1114.281792,1114.281792,1114.281792,1114.281792,a,0.948469952,,,,,,,,,,,,,,,,,,,,,,,,,,,,,,,,,,,,,,,,,,,,,,,,,,,,,,,,,,,,,,,,,,,,,,,,,,,,,,,,,,,,,1,650,,,,,,,,,,,,,,,,,,,,,,,,,37688,2022-10-25_10h29.05.330,vts_reward_expectancy_bt_OFFLINE,2022.2.4,59.99429622
1,0,0,0,0,0,0,1,triangle,star,2,2,0,2,0,3,6,42,2,1117.251932,1117.251932,1117.251932,1117.251932,1117.251932,1117.251932,1117.251932,1117.251932,1117.251932,1117.251932,l,1.697927974,,,,,,,,,,,,,,,,,,,,,,,,,,,,,,,,,,,,,,,,,,,,,,,,,,,,,,,,,,,,,,,,,,,,,,,,,,,,,,,,,,,,,1,651,,,,,,,,,,,,,,,,,,,,,,,,,37688,2022-10-25_10h29.05.330,vts_reward_expectancy_bt_OFFLINE,2022.2.4,59.99429622
0,0,0,1,0,0,1,0,star,hexagon,2,2,0,2,0,3,7,43,11,1120.972476,1120.972476,1120.972476,1120.972476,1120.972476,1120.972476,1120.972476,1120.972476,1120.972476,1120.972476,a,6.400582188,,,,,,,,,,,,,,,,,,,,,,,,,,,,,,,,,,,,,,,,,,,,,,,,,,,,,,,,,,,,,,,,,,,,,,,,,,,,,,,,,,,,,10,661,,,,,,,,,,,,,,,,,,,,,,,,,37688,2022-10-25_10h29.05.330,vts_reward_expectancy_bt_OFFLINE,2022.2.4,59.99429622
0,0,1,0,0,1,0,0,hexagon,circle,2,2,0,2,0,3,8,44,7,1129.398679,1129.398679,1129.398679,1129.398679,1129.398679,1129.398679,1129.398679,1129.398679,1129.398679,1129.398679,a,2.063122729,,,,,,,,,,,,,,,,,,,,,,,,,,,,,,,,,,,,,,,,,,,,,,,,,,,,,,,,,,,,,,,,,,,,,,,,,,,,,,,,,,,,,1,662,,,,,,,,,,,,,,,,,,,,,,,,,37688,2022-10-25_10h29.05.330,vts_reward_expectancy_bt_OFFLINE,2022.2.4,59.99429622
0,0,1,0,0,0,0,1,hexagon,star,2,2,0,2,0,3,9,45,8,1133.486359,1133.486359,1133.486359,1133.486359,1133.486359,1133.486359,1133.486359,1133.486359,1133.486359,1133.486359,a,5.103834993,,,,,,,,,,,,,,,,,,,,,,,,,,,,,,,,,,,,,,,,,,,,,,,,,,,,,,,,,,,,,,,,,,,,,,,,,,,,,,,,,,,,,1,663,,,,,,,,,,,,,,,,,,,,,,,,,37688,2022-10-25_10h29.05.330,vts_reward_expectancy_bt_OFFLINE,2022.2.4,59.99429622
0,1,0,0,1,0,0,0,circle,triangle,2,2,0,2,0,3,10,46,3,1140.610785,1140.610785,1140.610785,1140.610785,1140.610785,1140.610785,1140.610785,1140.610785,1140.610785,1140.610785,a,0.500587078,,,,,,,,,,,,,,,,,,,,,,,,,,,,,,,,,,,,,,,,,,,,,,,,,,,,,,,,,,,,,,,,,,,,,,,,,,,,,,,,,,,,,1,664,,,,,,,,,,,,,,,,,,,,,,,,,37688,2022-10-25_10h29.05.330,vts_reward_expectancy_bt_OFFLINE,2022.2.4,59.99429622
0,1,0,0,0,0,0,1,circle,star,2,2,0,2,0,3,11,47,5,1143.130195,1143.130195,1143.130195,1143.130195,1143.130195,1143.130195,1143.130195,1143.130195,1143.130195,1143.130195,a,0.643205336,,,,,,,,,,,,,,,,,,,,,,,,,,,,,,,,,,,,,13.81597022,space,5.170940827,,,,,,,,,,,,,,,,,,,,,,,,,,,,,,,,,,,,,,,,,,,,,,10,674,,,,,,,,,,,,,,,,,,,,,,,,,37688,2022-10-25_10h29.05.330,vts_reward_expectancy_bt_OFFLINE,2022.2.4,59.99429622
,,,,,,,,,,,,,,,,,,,,,,,,,,,,,,,0,0,0,0,0,0,0,0,,,,,,,,,,,,,,,,,,,,,,,,,,,,,,,,H,132,star,0.002002343,59.63089526,61.13118956,61.13118956,61.13118956,64.13452925,64.13452925,64.13452925,64.13452925,0,0,None,0,64.13452925,65.63610153,65.63610153,66.13661247,,,,,,,,,,,,,,,,,,,,,,,,,,,674,,,,,,,,,,,,,,,,,,,,,,,,,37688,2022-10-25_10h29.05.330,vts_reward_expectancy_bt_OFFLINE,2022.2.4,59.99429622
,,,,,,,,,,,,,,,,,,,,,,,,,,,,,,,0,0,0,0,1,0,1,0,,,,,,,,,,,,,,,,,,,,,,,,,,,,,,,,F,174,hexagon,0.00895807,66.6375206,68.13880286,68.13880286,68.13880286,,,,,1,1,d,0,68.58975387,,70.09110746,,0.418350509,,,,,,,,,,,,,,,,,,,,,,,,,,674,,,,,,,,,,,,,,,,,,,,,,,,,37688,2022-10-25_10h29.05.330,vts_reward_expectancy_bt_OFFLINE,2022.2.4,59.99429622
,,,,,,,,,,,,,,,,,,,,,,,,,,,,,,,0,0,0,0,2,0,2,0,,,,,,,,,,,,,,,,,,,,,,,,,,,,,,,,W,181,hexagon,0.001419418,71.07638331,72.57704832,72.57704832,72.57704832,,,,,1,0,f,0,73.21090862,,74.71257954,,0.609727153,,,,,,,,,,,,,,,,,,,,,,,,,,674,,,,,,,,,,,,,,,,,,,,,,,,,37688,2022-10-25_10h29.05.330,vts_reward_expectancy_bt_OFFLINE,2022.2.4,59.99429622
,,,,,,,,,,,,,,,,,,,,,,,,,,,,,,,0,0,0,0,3,0,3,0,,,,,,,,,,,,,,,,,,,,,,,,,,,,,,,,U,167,star,0.001207733,75.69730157,77.19882105,77.19882105,77.19882105,,,,,1,0,f,0,77.83276305,,79.33470826,,0.603746547,,,,,,,,,,,,,,,,,,,,,,,,,,674,,,,,,,,,,,,,,,,,,,,,,,,,37688,2022-10-25_10h29.05.330,vts_reward_expectancy_bt_OFFLINE,2022.2.4,59.99429622
,,,,,,,,,,,,,,,,,,,,,,,,,,,,,,,0,0,0,0,4,0,4,0,,,,,,,,,,,,,,,,,,,,,,,,,,,,,,,,Y,160,hexagon,0.001348252,80.31927613,81.82045059,81.82045059,81.82045059,,,,,1,0,f,0,82.38797731,,83.88964109,,0.541595317,,,,,,,,,,,,,,,,,,,,,,,,,,674,,,,,,,,,,,,,,,,,,,,,,,,,37688,2022-10-25_10h29.05.330,vts_reward_expectancy_bt_OFFLINE,2022.2.4,59.99429622
,,,,,,,,,,,,,,,,,,,,,,,,,,,,,,,0,0,0,0,5,0,5,0,,,,,,,,,,,,,,,,,,,,,,,,,,,,,,,,D,146,hexagon,0.001379302,84.87382181,86.37575226,86.37575226,86.37575226,,,,,1,0,d,0,86.87600181,88.37795735,88.37795735,,0.484014157,,,,,,,,,,,,,,,,,,,,,,,,,,674,,,,,,,,,,,,,,,,,,,,,,,,,37688,2022-10-25_10h29.05.330,vts_reward_expectancy_bt_OFFLINE,2022.2.4,59.99429622
,,,,,,,,,,,,,,,,,,,,,,,,,,,,,,,0,0,0,0,6,0,6,0,,,,,,,,,,,,,,,,,,,,,,,,,,,,,,,,B,139,star,0.000565327,89.3629817,90.86399484,90.86399484,90.86399484,,,,,1,0,d,0,91.31445783,,92.8159769,,0.418233286,,,,,,,,,,,,,,,,,,,,,,,,,,674,,,,,,,,,,,,,,,,,,,,,,,,,37688,2022-10-25_10h29.05.330,vts_reward_expectancy_bt_OFFLINE,2022.2.4,59.99429622
,,,,,,,,,,,,,,,,,,,,,,,,,,,,,,,0,0,0,0,7,0,7,0,,,,,,,,,,,,,,,,,,,,,,,,,,,,,,,,S,125,star,0.001208604,93.80037876,95.30196316,95.30196316,95.30196316,,,,,1,0,f,0,95.85277868,,97.35427397,,0.517931364,,,,,,,,,,,,,,,,,,,,,,,,,,674,,,,,,,,,,,,,,,,,,,,,,,,,37688,2022-10-25_10h29.05.330,vts_reward_expectancy_bt_OFFLINE,2022.2.4,59.99429622
,,,,,,,,,,,,,,,,,,,,,,,,,,,,,,,0,0,0,0,8,0,8,0,,,,,,,,,,,,,,,,,,,,,,,,,,,,,,,,H,132,star,0.001422568,98.33877964,99.84049364,99.84049364,99.84049364,,,,,1,0,d,0,100.4576128,,101.9594496,,0.59361884,,,,,,,,,,,,,,,,,,,,,,,,,,674,,,,,,,,,,,,,,,,,,,,,,,,,37688,2022-10-25_10h29.05.330,vts_reward_expectancy_bt_OFFLINE,2022.2.4,59.99429622
,,,,,,,,,,,,,,,,,,,,,,,,,,,,,,,0,0,0,0,9,0,9,0,,,,,,,,,,,,,,,,,,,,,,,,,,,,,,,,F,174,hexagon,0.001081281,102.9437119,104.4456432,104.4456432,104.4456432,,,,,1,0,d,0,104.9962041,,106.4978218,,0.517857109,,,,,,,,,,,,,,,,,,,,,,,,,,674,,,,,,,,,,,,,,,,,,,,,,,,,37688,2022-10-25_10h29.05.330,vts_reward_expectancy_bt_OFFLINE,2022.2.4,59.99429622
,,,,,,,,,,,,,,,,,,,,,,,,,,,,,,,,,,,,,,,0,0,0,0,0,0,0,0,,,,,,,,,,,,,,,,,,,,,,,,F,160,hexagon,0.001759149,,,,,,,,,1,0,,1,142.9045851,,144.4063083,,,140.7023614,142.2036983,142.2036983,142.2036983,k,0.670585427,,,,,,,,,,,,,,,,,,,,674,,,,,,,,,,,,,,,,,,,,,,,,,37688,2022-10-25_10h29.05.330,vts_reward_expectancy_bt_OFFLINE,2022.2.4,59.99429622
,,,,,,,,,,,,,,,,,,,,,,,,,,,,,,,,,,,,,,,0,0,0,0,1,0,1,0,,,,,,,,,,,,,,,,,,,,,,,,D,146,hexagon,0.001365336,,,,,,,,,1,0,,1,147.3429788,,148.8446383,,,145.390836,146.8924984,146.8924984,146.8924984,j,0.431042521,,,,,,,,,,,,,,,,,,,,674,,,,,,,,,,,,,,,,,,,,,,,,,37688,2022-10-25_10h29.05.330,vts_reward_expectancy_bt_OFFLINE,2022.2.4,59.99429622
,,,,,,,,,,,,,,,,,,,,,,,,,,,,,,,,,,,,,,,0,0,0,0,2,0,2,0,,,,,,,,,,,,,,,,,,,,,,,,S,181,star,0.001356811,,,,,,,,,1,0,,1,151.881194,,153.3828914,,,149.8289268,151.3307502,151.3307502,151.3307502,k,0.519839236,,,,,,,,,,,,,,,,,,,,674,,,,,,,,,,,,,,,,,,,,,,,,,37688,2022-10-25_10h29.05.330,vts_reward_expectancy_bt_OFFLINE,2022.2.4,59.99429622
,,,,,,,,,,,,,,,,,,,,,,,,,,,,,,,,,,,,,,,0,0,0,0,3,0,3,0,,,,,,,,,,,,,,,,,,,,,,,,Y,132,star,0.001210933,,,,,,,,,1,0,,1,156.3194807,,157.8211722,,,154.3673059,155.8690668,155.8690668,155.8690668,j,0.422839687,,,,,,,,,,,,,,,,,,,,674,,,,,,,,,,,,,,,,,,,,,,,,,37688,2022-10-25_10h29.05.330,vts_reward_expectancy_bt_OFFLINE,2022.2.4,59.99429622
,,,,,,,,,,,,,,,,,,,,,,,,,,,,,,,,,,,,,,,0,0,0,0,4,0,4,0,,,,,,,,,,,,,,,,,,,,,,,,U,125,hexagon,0.001290243,,,,,,,,,1,0,,1,160.7905415,,162.2926975,,,158.8052909,160.3070939,160.3070939,160.3070939,j,0.456135498,,,,,,,,,,,,,,,,,,,,674,,,,,,,,,,,,,,,,,,,,,,,,,37688,2022-10-25_10h29.05.330,vts_reward_expectancy_bt_OFFLINE,2022.2.4,59.99429622
,,,,,,,,,,,,,,,,,,,,,,,,,,,,,,,,,,,,,,,0,0,0,0,5,0,5,0,,,,,,,,,,,,,,,,,,,,,,,,B,174,star,0.00181196,,,,,,,,,1,0,,1,165.312489,,166.8144504,,,163.2771953,164.7787583,164.7787583,164.7787583,k,0.503784006,,,,,,,,,,,,,,,,,,,,674,,,,,,,,,,,,,,,,,,,,,,,,,37688,2022-10-25_10h29.05.330,vts_reward_expectancy_bt_OFFLINE,2022.2.4,59.99429622
,,,,,,,,,,,,,,,,,,,,,,,,,,,,,,,,,,,,,,,0,0,0,0,6,0,6,0,,,,,,,,,,,,,,,,,,,,,,,,H,139,hexagon,0.001531326,,,,,,,,,1,0,,1,169.7175435,,171.219115,,,167.7987512,169.3003935,169.3003935,169.3003935,j,0.390210217,,,,,,,,,,,,,,,,,,,,674,,,,,,,,,,,,,,,,,,,,,,,,,37688,2022-10-25_10h29.05.330,vts_reward_expectancy_bt_OFFLINE,2022.2.4,59.99429622
,,,,,,,,,,,,,,,,,,,,,,,,,,,,,,,,,,,,,,,0,0,0,0,7,0,7,0,,,,,,,,,,,,,,,,,,,,,,,,W,167,star,0.001227904,,,,,,,,,1,0,,1,174.1557694,,175.6573601,,,172.2036968,173.7053886,173.7053886,173.7053886,k,0.425184606,,,,,,,,,,,,,,,,,,,,674,,,,,,,,,,,,,,,,,,,,,,,,,37688,2022-10-25_10h29.05.330,vts_reward_expectancy_bt_OFFLINE,2022.2.4,59.99429622
,,,,,,,,,,,,,,,,,,,,,,,,,,,,,,,,,,,,,,,0,0,0,0,8,0,8,0,,,,,,,,,,,,,,,,,,,,,,,,F,160,star,0.001223809,,,,,,,,,1,0,,1,178.6608843,180.1624843,180.1624843,,,176.6418609,178.1435581,178.1435581,178.1435581,k,0.500463723,,,,,,,,,,,,,,,,,,,,674,,,,,,,,,,,,,,,,,,,,,,,,,37688,2022-10-25_10h29.05.330,vts_reward_expectancy_bt_OFFLINE,2022.2.4,59.99429622
,,,,,,,,,,,,,,,,,,,,,,,,,,,,,,,,,,,,,,,0,0,0,0,9,0,9,0,,,,,,,,,,,,,,,,,,,,,,,,D,146,hexagon,0.000696,,,,,,,,,1,0,,1,183.048788,,184.5504644,,,181.1467046,182.6484523,182.6484523,182.6484523,j,0.378729071,,,,,,,,,,,,,,,,,,,,674,,,,,,,,,,,,,,,,,,,,,,,,,37688,2022-10-25_10h29.05.330,vts_reward_expectancy_bt_OFFLINE,2022.2.4,59.99429622
,,,,,,,,,,,,,,,,,,,,,,,,,,,,,,,,,,,,,,,,,,,,,,,0,0,0,0,0,0,0,0,,,,,,,,,,,,,,,,B,132,star,0.002030023,,,,,,,,,1,0,,2,,,218.1043764,,,,,,,,,213.9997105,213.9997105,213.9997105,213.9997105,215.484752,215.484752,215.484752,215.484752,215.5017032,215.5017032,215.5017032,215.5017032,-1,letter,NA,d,1.085727401,vtsPrac,0,674,216.6024008,,,,,,,,,,,,,,,,,,,,,,,,37688,2022-10-25_10h29.05.330,vts_reward_expectancy_bt_OFFLINE,2022.2.4,59.99429622
,,,,,,,,,,,,,,,,,,,,,,,,,,,,,,,,,,,,,,,,,,,,,,,0,0,0,0,1,0,1,0,,,,,,,,,,,,,,,,F,146,hexagon,0.001210595,,,,,,,,,1,0,,2,,,223.0429527,,,,,,,,,219.0901089,219.0901089,219.0901089,219.0901089,220.5902316,220.5902316,220.5902316,220.5902316,220.5902316,220.5902316,220.5902316,220.5902316,repeat,letter,lettRpt,d,0.934508999,vtsPrac,0,674,221.541512,223.0429527,,,,,,,,,,,,,,,,,,,,,,,37688,2022-10-25_10h29.05.330,vts_reward_expectancy_bt_OFFLINE,2022.2.4,59.99429622
,,,,,,,,,,,,,,,,,,,,,,,,,,,,,,,,,,,,,,,,,,,,,,,0,0,0,0,2,0,2,0,,,,,,,,,,,,,,,,W,125,star,0.000721111,,,,,,,,,1,0,,2,,,227.7148606,,,,,,,,,224.0283396,224.0283396,224.0283396,224.0283396,225.5290323,225.5290323,225.5290323,225.5290323,225.5290323,225.5290323,225.5290323,225.5290323,repeat,letter,lettRpt,f,0.667457653,vtsPrac,0,674,226.2132469,227.7148606,,,,,,,,,,,,,,,,,,,,,,,37688,2022-10-25_10h29.05.330,vts_reward_expectancy_bt_OFFLINE,2022.2.4,59.99429622
,,,,,,,,,,,,,,,,,,,,,,,,,,,,,,,,,,,,,,,,,,,,,,,0,0,0,0,3,0,3,0,,,,,,,,,,,,,,,,D,181,hexagon,0.000832379,,,,,,,,,1,0,,2,,,232.1699828,,,,,,,,,228.6997536,228.6997536,228.6997536,228.6997536,230.2009354,230.2009354,230.2009354,230.2009354,230.2009354,230.2009354,230.2009354,230.2009354,repeat,letter,lettRpt,d,0.450882141,vtsPrac,0,674,230.6683655,232.1699828,,,,,,,,,,,,,,,,,,,,,,,37688,2022-10-25_10h29.05.330,vts_reward_expectancy_bt_OFFLINE,2022.2.4,59.99429622
,,,,,,,,,,,,,,,,,,,,,,,,,,,,,,,,,,,,,,,,,,,,,,,0,0,0,0,4,0,4,0,,,,,,,,,,,,,,,,B,132,hexagon,0.000750201,,,,,,,,,1,0,,2,,,236.3408771,,,,,,,,,233.1540971,233.1540971,233.1540971,233.1540971,234.656126,234.656126,234.656126,234.656126,234.656126,234.656126,234.656126,234.656126,repeat,letter,lettRpt,d,0.155438894,vtsPrac,0,674,234.8392014,,,,,,,,,,,,,,,,,,,,,,,,37688,2022-10-25_10h29.05.330,vts_reward_expectancy_bt_OFFLINE,2022.2.4,59.99429622
,,,,,,,,,,,,,,,,,,,,,,,,,,,,,,,,,,,,,,,,,,,,,,,0,0,0,0,5,0,5,0,,,,,,,,,,,,,,,,F,146,star,0.001386907,,,,,,,,,0,0,,2,,,240.5957446,,,,,,,,,237.3255153,237.3255153,237.3255153,237.3255153,238.8270764,238.8270764,238.8270764,238.8270764,238.8270764,238.8270764,238.8270764,238.8270764,repeat,letter,NA,f,0.240396396,vtsPrac,0,674,239.093995,240.5957446,,,,,,,,,,,,,,,,,,,,,,,37688,2022-10-25_10h29.05.330,vts_reward_expectancy_bt_OFFLINE,2022.2.4,59.99429622
,,,,,,,,,,,,,,,,,,,,,,,,,,,,,,,,,,,,,,,,,,,,,,,0,0,0,0,6,0,6,0,,,,,,,,,,,,,,,,W,125,star,0.000732845,,,,,,,,,1,1,,2,,,244.9838674,,,,,,,,,241.5799899,241.5799899,241.5799899,241.5799899,243.0817192,243.0817192,243.0817192,243.0817192,243.0817192,243.0817192,243.0817192,243.0817192,repeat,letter,lettRpt,f,0.368378874,vtsPrac,0,674,243.4821332,,,,,,,,,,,,,,,,,,,,,,,,37688,2022-10-25_10h29.05.330,vts_reward_expectancy_bt_OFFLINE,2022.2.4,59.99429622
,,,,,,,,,,,,,,,,,,,,,,,,,,,,,,,,,,,,,,,,,,,,,,,0,0,0,0,7,0,7,0,,,,,,,,,,,,,,,,D,181,hexagon,0.001128104,,,,,,,,,1,0,,2,,,249.5221807,,,,,,,,,245.9683093,245.9683093,245.9683093,245.9683093,247.4699681,247.4699681,247.4699681,247.4699681,247.4699681,247.4699681,247.4699681,247.4699681,repeat,letter,lettRpt,d,0.51798684,vtsPrac,0,674,248.0206213,,,,,,,,,,,,,,,,,,,,,,,,37688,2022-10-25_10h29.05.330,vts_reward_expectancy_bt_OFFLINE,2022.2.4,59.99429622
,,,,,,,,,,,,,,,,,,,,,,,,,,,,,,,,,,,,,,,,,,,,,,,0,0,0,0,8,0,8,0,,,,,,,,,,,,,,,,W,167,hexagon,0.001410898,,,,,,,,,1,0,,2,,,254.0103998,,,,,,,,,250.5076115,250.5076115,250.5076115,250.5076115,252.0083136,252.0083136,252.0083136,252.0083136,252.0083136,252.0083136,252.0083136,252.0083136,repeat,letter,lettRpt,f,0.468092157,vtsPrac,0,674,252.5089919,,,,,,,,,,,,,,,,,,,,,,,,37688,2022-10-25_10h29.05.330,vts_reward_expectancy_bt_OFFLINE,2022.2.4,59.99429622
,,,,,,,,,,,,,,,,,,,,,,,,,,,,,,,,,,,,,,,,,,,,,,,0,0,0,0,9,0,9,0,,,,,,,,,,,,,,,,Y,146,hexagon,0.001171751,,,,,,,,,1,0,,2,,,258.5988377,,,,,,,,,254.9948393,254.9948393,254.9948393,254.9948393,256.4964696,256.4964696,256.4964696,256.4964696,256.4964696,256.4964696,256.4964696,256.4964696,repeat,letter,lettRpt,f,0.577646138,vtsPrac,0,674,257.0972955,,,,,,,,,,,,,,,,,,,,,,,,37688,2022-10-25_10h29.05.330,vts_reward_expectancy_bt_OFFLINE,2022.2.4,59.99429622
,,,,,,,,,,,,,,,,,,,,,,,,,,,,,,,,,,,,,,,,,,,,,,,0,0,0,0,10,0,10,0,,,,,,,,,,,,,,,,H,139,hexagon,0.001876811,,,,,,,,,1,0,,2,,,263.0872205,,,,,,,,,259.5836702,259.5836702,259.5836702,259.5836702,261.0849536,261.0849536,261.0849536,261.0849536,261.0849536,261.0849536,261.0849536,261.0849536,repeat,letter,lettRpt,d,0.469419315,vtsPrac,0,674,261.5855136,,,,,,,,,,,,,,,,,,,,,,,,37688,2022-10-25_10h29.05.330,vts_reward_expectancy_bt_OFFLINE,2022.2.4,59.99429622
,,,,,,,,,,,,,,,,,,,,,,,,,,,,,,,,,,,,,,,,,,,,,,,0,0,0,0,11,0,11,0,,,,,,,,,,,,,,,,B,160,hexagon,0.001310117,,,,,,,,,1,0,,2,,,267.7423906,,,,,,,,,264.0715727,264.0715727,264.0715727,264.0715727,265.573418,265.573418,265.573418,265.573418,265.573418,265.573418,265.573418,265.573418,repeat,letter,lettRpt,d,0.637260788,vtsPrac,0,674,266.240774,,,,,,,,,,,,,,,,,,,,,,,,37688,2022-10-25_10h29.05.330,vts_reward_expectancy_bt_OFFLINE,2022.2.4,59.99429622
,,,,,,,,,,,,,,,,,,,,,,,,,,,,,,,,,,,,,,,,,,,,,,,0,0,0,0,12,0,12,0,,,,,,,,,,,,,,,,D,174,hexagon,0.001189622,,,,,,,,,1,0,,2,,,272.2141508,,,,,,,,,268.7267515,268.7267515,268.7267515,268.7267515,270.2287089,270.2287089,270.2287089,270.2287089,270.2287089,270.2287089,270.2287089,270.2287089,repeat,letter,lettRpt,d,0.453356442,vtsPrac,0,674,270.7124779,,,,,,,,,,,,,,,,,,,,,,,,37688,2022-10-25_10h29.05.330,vts_reward_expectancy_bt_OFFLINE,2022.2.4,59.99429622
,,,,,,,,,,,,,,,,,,,,,,,,,,,,,,,,,,,,,,,,,,,,,,,0,0,0,0,13,0,13,0,,,,,,,,,,,,,,,,B,146,star,0.001098205,,,,,,,,,1,0,,2,,,276.8024751,,,,,,,,,273.1983452,273.1983452,273.1983452,273.1983452,274.6999038,274.6999038,274.6999038,274.6999038,274.6999038,274.6999038,274.6999038,274.6999038,repeat,letter,lettRpt,d,0.568271935,vtsPrac,0,674,275.3008488,,,,,,,,,,,,,,,,,,,,,,,,37688,2022-10-25_10h29.05.330,vts_reward_expectancy_bt_OFFLINE,2022.2.4,59.99429622
,,,,,,,,,,,,,,,,,,,,,,,,,,,,,,,,,,,,,,,,,,,,,,,0,0,0,0,14,0,14,0,,,,,,,,,,,,,,,,W,125,hexagon,0.00116381,,,,,,,,,1,0,,2,,,281.2908088,,,,,,,,,277.7868163,277.7868163,277.7868163,277.7868163,279.2883172,279.2883172,279.2883172,279.2883172,279.2883172,279.2883172,279.2883172,279.2883172,repeat,letter,lettRpt,f,0.474900092,vtsPrac,0,674,279.7891154,,,,,,,,,,,,,,,,,,,,,,,,37688,2022-10-25_10h29.05.330,vts_reward_expectancy_bt_OFFLINE,2022.2.4,59.99429622
,,,,,,,,,,,,,,,,,,,,,,,,,,,,,,,,,,,,,,,,,,,,,,,0,0,0,0,15,0,15,0,,,,,,,,,,,,,,,,H,160,hexagon,0.001149962,,,,,,,,,1,0,,2,,,285.8289814,,,,,,,,,282.2750214,282.2750214,282.2750214,282.2750214,283.7768569,283.7768569,283.7768569,283.7768569,283.7768569,283.7768569,283.7768569,283.7768569,repeat,letter,lettRpt,d,0.529462123,vtsPrac,0,674,284.327275,,,,,,,,,,,,,,,,,,,,,,,,37688,2022-10-25_10h29.05.330,vts_reward_expectancy_bt_OFFLINE,2022.2.4,59.99429622
,,,,,,,,,,,,,,,,,,,,,,,,,,,,,,,,,,,,,,,,,,,,,,,1,0,1,0,0,0,0,0,,,,,,,,,,,,,,,,S,139,star,0.002033225,,,,,,,,,1,0,,3,,,307.1356845,,,,,,,,,303.5655756,303.5655756,303.5655756,303.5655756,305.0667086,305.0667086,305.0667086,305.0667086,305.0667086,305.0667086,305.0667086,305.0667086,repeat,letter,lettRpt,f,0.543472377,vtsPrac,0,674,305.6341059,,,,,,,,,,,,,,,,,,,,,,,,37688,2022-10-25_10h29.05.330,vts_reward_expectancy_bt_OFFLINE,2022.2.4,59.99429622
,,,,,,,,,,,,,,,,,,,,,,,,,,,,,,,,,,,,,,,,,,,,,,,1,0,1,0,1,0,1,0,,,,,,,,,,,,,,,,U,125,star,0.001099477,,,,,,,,,1,0,,3,,,312.1581478,,,,,,,,,308.1203132,308.1203132,308.1203132,308.1203132,309.6217546,309.6217546,309.6217546,309.6217546,309.6217546,309.6217546,309.6217546,309.6217546,switch,number,numSwt,j,1.004777403,vtsPrac,0,674,310.6564645,,,,,,,,,,,,,,,,,,,,,,,,37688,2022-10-25_10h29.05.330,vts_reward_expectancy_bt_OFFLINE,2022.2.4,59.99429622
,,,,,,,,,,,,,,,,,,,,,,,,,,,,,,,,,,,,,,,,,,,,,,,1,0,1,0,2,0,2,0,,,,,,,,,,,,,,,,B,181,hexagon,0.001277113,,,,,,,,,1,0,,3,,,316.6462084,,,,,,,,,313.1425481,313.1425481,313.1425481,313.1425481,314.6440187,314.6440187,314.6440187,314.6440187,314.6440187,314.6440187,314.6440187,314.6440187,switch,letter,lettSwt,d,0.471263923,vtsPrac,0,674,315.1446443,,,,,,,,,,,,,,,,,,,,,,,,37688,2022-10-25_10h29.05.330,vts_reward_expectancy_bt_OFFLINE,2022.2.4,59.99429622
,,,,,,,,,,,,,,,,,,,,,,,,,,,,,,,,,,,,,,,,,,,,,,,1,0,1,0,3,0,3,0,,,,,,,,,,,,,,,,D,174,hexagon,0.001256756,,,,,,,,,1,0,,3,,,321.2347135,,,,,,,,,317.6307844,317.6307844,317.6307844,317.6307844,319.1324339,319.1324339,319.1324339,319.1324339,319.1324339,319.1324339,319.1324339,319.1324339,switch,number,numSwt,k,0.567820677,vtsPrac,0,674,319.7333266,,,,,,,,,,,,,,,,,,,,,,,,37688,2022-10-25_10h29.05.330,vts_reward_expectancy_bt_OFFLINE,2022.2.4,59.99429622
,,,,,,,,,,,,,,,,,,,,,,,,,,,,,,,,,,,,,,,,,,,,,,,1,0,1,0,4,0,4,0,,,,,,,,,,,,,,,,S,139,star,0.00138569,,,,,,,,,1,0,,3,,,325.7395397,,,,,,,,,322.219087,322.219087,322.219087,322.219087,323.7207496,323.7207496,323.7207496,323.7207496,323.7207496,323.7207496,323.7207496,323.7207496,switch,letter,lettSwt,f,0.490248325,vtsPrac,0,674,324.2379441,,,,,,,,,,,,,,,,,,,,,,,,37688,2022-10-25_10h29.05.330,vts_reward_expectancy_bt_OFFLINE,2022.2.4,59.99429622
,,,,,,,,,,,,,,,,,,,,,,,,,,,,,,,,,,,,,,,,,,,,,,,1,0,1,0,5,0,5,0,,,,,,,,,,,,,,,,U,125,star,0.001359551,,,,,,,,,0,0,,3,,,330.4279873,,,,,,,,,326.7241209,326.7241209,326.7241209,326.7241209,328.2257123,328.2257123,328.2257123,328.2257123,328.2257123,328.2257123,328.2257123,328.2257123,switch,number,NA,k,0.673513091,vtsPrac,0,674,328.9264265,,,,,,,,,,,,,,,,,,,,,,,,37688,2022-10-25_10h29.05.330,vts_reward_expectancy_bt_OFFLINE,2022.2.4,59.99429622
,,,,,,,,,,,,,,,,,,,,,,,,,,,,,,,,,,,,,,,,,,,,,,,1,0,1,0,6,0,6,0,,,,,,,,,,,,,,,,B,181,star,0.001419954,,,,,,,,,1,1,,3,,,335.3503806,,,,,,,,,331.4126246,331.4126246,331.4126246,331.4126246,332.9141834,332.9141834,332.9141834,332.9141834,332.9141834,332.9141834,332.9141834,332.9141834,repeat,number,numRpt,k,0.912885511,vtsPrac,0,674,333.8488033,,,,,,,,,,,,,,,,,,,,,,,,37688,2022-10-25_10h29.05.330,vts_reward_expectancy_bt_OFFLINE,2022.2.4,59.99429622
,,,,,,,,,,,,,,,,,,,,,,,,,,,,,,,,,,,,,,,,,,,,,,,1,0,1,0,7,0,7,0,,,,,,,,,,,,,,,,D,174,hexagon,0.001223589,,,,,,,,,0,0,,3,,,340.3891949,,,,,,,,,336.3347952,336.3347952,336.3347952,336.3347952,337.8363932,337.8363932,337.8363932,337.8363932,337.8363932,337.8363932,337.8363932,337.8363932,switch,letter,NA,f,1.023203872,vtsPrac,0,674,338.8875994,,,,,,,,,,,,,,,,,,,,,,,,37688,2022-10-25_10h29.05.330,vts_reward_expectancy_bt_OFFLINE,2022.2.4,59.99429622
,,,,,,,,,,,,,,,,,,,,,,,,,,,,,,,,,,,,,,,,,,,,,,,1,0,1,0,8,0,8,0,,,,,,,,,,,,,,,,U,167,hexagon,0.001365549,,,,,,,,,1,1,,3,,,345.4448283,,,,,,,,,341.373559,341.373559,341.373559,341.373559,342.8753304,342.8753304,342.8753304,342.8753304,342.8753304,342.8753304,342.8753304,342.8753304,repeat,letter,lettRpt,f,1.040160776,vtsPrac,0,674,343.942927,,,,,,,,,,,,,,,,,,,,,,,,37688,2022-10-25_10h29.05.330,vts_reward_expectancy_bt_OFFLINE,2022.2.4,59.99429622
,,,,,,,,,,,,,,,,,,,,,,,,,,,,,,,,,,,,,,,,,,,,,,,1,0,1,0,9,0,9,0,,,,,,,,,,,,,,,,F,132,hexagon,0.001196173,,,,,,,,,1,0,,3,,,350.1999964,,,,,,,,,346.4290274,346.4290274,346.4290274,346.4290274,347.9307606,347.9307606,347.9307606,347.9307606,347.9307606,347.9307606,347.9307606,347.9307606,switch,number,numSwt,j,0.735454592,vtsPrac,0,674,348.6984107,,,,,,,,,,,,,,,,,,,,,,,,37688,2022-10-25_10h29.05.330,vts_reward_expectancy_bt_OFFLINE,2022.2.4,59.99429622
,,,,,,,,,,,,,,,,,,,,,,,,,,,,,,,,,,,,,,,,,,,,,,,1,0,1,0,10,0,10,0,,,,,,,,,,,,,,,,B,139,hexagon,0.0011621,,,,,,,,,1,0,,3,,,355.0720417,,,,,,,,,351.1844501,351.1844501,351.1844501,351.1844501,352.7695888,352.7695888,352.7695888,352.7695888,352.7695888,352.7695888,352.7695888,352.7695888,switch,letter,lettSwt,d,0.768772642,vtsPrac,0,674,353.5703389,,,,,,,,,,,,,,,,,,,,,,,,37688,2022-10-25_10h29.05.330,vts_reward_expectancy_bt_OFFLINE,2022.2.4,59.99429622
,,,,,,,,,,,,,,,,,,,,,,,,,,,,,,,,,,,,,,,,,,,,,,,1,0,1,0,11,0,11,0,,,,,,,,,,,,,,,,H,174,star,0.001233887,,,,,,,,,1,0,,3,,,359.8274295,,,,,,,,,356.0566133,356.0566133,356.0566133,356.0566133,357.5582199,357.5582199,357.5582199,357.5582199,357.5582199,357.5582199,357.5582199,357.5582199,switch,number,numSwt,k,0.740162246,vtsPrac,0,674,358.3256903,,,,,,,,,,,,,,,,,,,,,,,,37688,2022-10-25_10h29.05.330,vts_reward_expectancy_bt_OFFLINE,2022.2.4,59.99429622
,,,,,,,,,,,,,,,,,,,,,,,,,,,,,,,,,,,,,,,,,,,,,,,1,0,1,0,12,0,12,0,,,,,,,,,,,,,,,,B,132,hexagon,0.00114005,,,,,,,,,1,0,,3,,,364.9996456,,,,,,,,,360.8118467,360.8118467,360.8118467,360.8118467,362.3133601,362.3133601,362.3133601,362.3133601,362.3133601,362.3133601,362.3133601,362.3133601,switch,letter,lettSwt,d,1.161633968,vtsPrac,0,674,363.4979105,,,,,,,,,,,,,,,,,,,,,,,,37688,2022-10-25_10h29.05.330,vts_reward_expectancy_bt_OFFLINE,2022.2.4,59.99429622
,,,,,,,,,,,,,,,,,,,,,,,,,,,,,,,,,,,,,,,,,,,,,,,1,0,1,0,13,0,13,0,,,,,,,,,,,,,,,,Y,167,hexagon,0.001417383,,,,,,,,,1,0,,3,,,369.6214924,,,,,,,,,365.9839202,365.9839202,365.9839202,365.9839202,367.4857825,367.4857825,367.4857825,367.4857825,367.4857825,367.4857825,367.4857825,367.4857825,switch,number,numSwt,k,0.613101181,vtsPrac,0,674,368.1197613,,,,,,,,,,,,,,,,,,,,,,,,37688,2022-10-25_10h29.05.330,vts_reward_expectancy_bt_OFFLINE,2022.2.4,59.99429622
,,,,,,,,,,,,,,,,,,,,,,,,,,,,,,,,,,,,,,,,,,,,,,,1,0,1,0,14,0,14,0,,,,,,,,,,,,,,,,W,174,star,0.001285033,,,,,,,,,1,0,,3,,,374.5100591,,,,,,,,,370.6058757,370.6058757,370.6058757,370.6058757,372.1075994,372.1075994,372.1075994,372.1075994,372.1075994,372.1075994,372.1075994,372.1075994,switch,letter,lettSwt,f,0.871188035,vtsPrac,0,674,373.0085489,,,,,,,,,,,,,,,,,,,,,,,,37688,2022-10-25_10h29.05.330,vts_reward_expectancy_bt_OFFLINE,2022.2.4,59.99429622
,,,,,,,,,,,,,,,,,,,,,,,,,,,,,,,,,,,,,,,,,,,,,,,1,0,1,0,15,0,15,0,,,,,,,,,,,,,,,,S,125,star,0.001499262,,,,,,,,,1,0,,3,,,378.9814713,,,,,,,,,375.4947835,375.4947835,375.4947835,375.4947835,376.9960464,376.9960464,376.9960464,376.9960464,376.9960464,376.9960464,376.9960464,376.9960464,switch,number,numSwt,j,0.462597427,vtsPrac,0,674,377.4799901,,,,,,,,,,,,,,,,,,,,,,,,37688,2022-10-25_10h29.05.330,vts_reward_expectancy_bt_OFFLINE,2022.2.4,59.99429622
,,,,,,,,,,,,,,,,,,,,,,,,,,,,,,,,,,,,,,,,,,,,,,,2,0,2,0,0,0,0,0,,,,,,,,,,,,,,,,F,167,hexagon,0.002038838,,,,,,,,,1,0,,4,,,414.5041601,,,,,,,,,410.8002711,410.8002711,410.8002711,410.8002711,412.3019267,412.3019267,412.3019267,412.3019267,412.3019267,412.3019267,412.3019267,412.3019267,switch,letter,lettSwt,d,0.668350746,vtsPrac,0,674,413.002549,,,,,,,,,,,,,,,,,,,,,,,,37688,2022-10-25_10h29.05.330,vts_reward_expectancy_bt_OFFLINE,2022.2.4,59.99429622
,,,,,,,,,,,,,,,,,,,,,,,,,,,,,,,,,,,,,,,,,,,,,,,2,0,2,0,1,0,1,0,,,,,,,,,,,,,,,,D,160,star,0.001178781,,,,,,,,,1,0,,4,,,419.7769903,,,,,,,,,415.4885214,415.4885214,415.4885214,415.4885214,416.9903864,416.9903864,416.9903864,416.9903864,416.9903864,416.9903864,416.9903864,416.9903864,repeat,letter,lettRpt,d,1.252401156,vtsPrac,0,674,418.2749241,,,,,,,,,,,,,,,,,,,,,,,,37688,2022-10-25_10h29.05.330,vts_reward_expectancy_bt_OFFLINE,2022.2.4,59.99429622
,,,,,,,,,,,,,,,,,,,,,,,,,,,,,,,,,,,,,,,,,,,,,,,2,0,2,0,2,0,2,0,,,,,,,,,,,,,,,,W,139,star,0.001568213,,,,,,,,,1,0,,4,,,424.2317286,,,,,,,,,420.7612253,420.7612253,420.7612253,420.7612253,422.2628125,422.2628125,422.2628125,422.2628125,422.2628125,422.2628125,422.2628125,422.2628125,repeat,letter,lettRpt,f,0.435993715,vtsPrac,0,674,422.7301184,424.2317286,,,,,,,,,,,,,,,,,,,,,,,37688,2022-10-25_10h29.05.330,vts_reward_expectancy_bt_OFFLINE,2022.2.4,59.99429622
,,,,,,,,,,,,,,,,,,,,,,,,,,,,,,,,,,,,,,,,,,,,,,,2,0,2,0,3,0,3,0,,,,,,,,,,,,,,,,U,146,star,0.000972562,,,,,,,,,1,0,,4,,,429.1703888,,,,,,,,,425.2164476,425.2164476,425.2164476,425.2164476,426.7175047,426.7175047,426.7175047,426.7175047,426.7175047,426.7175047,426.7175047,426.7175047,switch,number,numSwt,j,0.918860898,vtsPrac,0,674,427.6685862,,,,,,,,,,,,,,,,,,,,,,,,37688,2022-10-25_10h29.05.330,vts_reward_expectancy_bt_OFFLINE,2022.2.4,59.99429622
,,,,,,,,,,,,,,,,,,,,,,,,,,,,,,,,,,,,,,,,,,,,,,,2,0,2,0,4,0,4,0,,,,,,,,,,,,,,,,F,167,star,0.00122418,,,,,,,,,1,0,,4,,,433.6753611,,,,,,,,,430.1550171,430.1550171,430.1550171,430.1550171,431.656559,431.656559,431.656559,431.656559,431.656559,431.656559,431.656559,431.656559,repeat,number,numRpt,k,0.490313864,vtsPrac,0,674,432.1738247,,,,,,,,,,,,,,,,,,,,,,,,37688,2022-10-25_10h29.05.330,vts_reward_expectancy_bt_OFFLINE,2022.2.4,59.99429622
,,,,,,,,,,,,,,,,,,,,,,,,,,,,,,,,,,,,,,,,,,,,,,,2,0,2,0,5,0,5,0,,,,,,,,,,,,,,,,D,160,hexagon,0.001452125,,,,,,,,,1,0,,4,,,438.2472965,,,,,,,,,434.6598475,434.6598475,434.6598475,434.6598475,436.1615861,436.1615861,436.1615861,436.1615861,436.1615861,436.1615861,436.1615861,436.1615861,repeat,number,numRpt,k,0.56118619,vtsPrac,0,674,436.745417,,,,,,,,,,,,,,,,,,,,,,,,37688,2022-10-25_10h29.05.330,vts_reward_expectancy_bt_OFFLINE,2022.2.4,59.99429622
,,,,,,,,,,,,,,,,,,,,,,,,,,,,,,,,,,,,,,,,,,,,,,,2,0,2,0,6,0,6,0,,,,,,,,,,,,,,,,W,139,star,0.001242282,,,,,,,,,1,0,,4,,,443.9700224,444.4707334,,,,,,,,439.2317203,439.2317203,439.2317203,439.2317203,440.7331833,440.7331833,440.7331833,440.7331833,440.7331833,440.7331833,440.7331833,440.7331833,switch,letter,lettSwt,f,1.718891009,vtsPrac,0,674,442.4685785,443.9700224,,,,,,,,,,,,,,,,,,,,,,,37688,2022-10-25_10h29.05.330,vts_reward_expectancy_bt_OFFLINE,2022.2.4,59.99429622
,,,,,,,,,,,,,,,,,,,,,,,,,,,,,,,,,,,,,,,,,,,,,,,2,0,2,0,7,0,7,0,,,,,,,,,,,,,,,,U,146,hexagon,0.000736414,,,,,,,,,0,0,,4,,,448.8755895,,,,,,,,,444.9546082,444.9546082,444.9546082,444.9546082,446.4559801,446.4559801,446.4559801,446.4559801,446.4559801,446.4559801,446.4559801,446.4559801,repeat,letter,NA,d,0.890821655,vtsPrac,0,674,447.3738287,,,,,,,,,,,,,,,,,,,,,,,,37688,2022-10-25_10h29.05.330,vts_reward_expectancy_bt_OFFLINE,2022.2.4,59.99429622
,,,,,,,,,,,,,,,,,,,,,,,,,,,,,,,,,,,,,,,,,,,,,,,2,0,2,0,8,0,8,0,,,,,,,,,,,,,,,,U,167,star,0.001430351,,,,,,,,,1,1,,4,,,453.8309754,,,,,,,,,449.8599744,449.8599744,449.8599744,449.8599744,451.3616419,451.3616419,451.3616419,451.3616419,451.3616419,451.3616419,451.3616419,451.3616419,repeat,letter,lettRpt,f,0.945295832,vtsPrac,0,674,452.3295817,,,,,,,,,,,,,,,,,,,,,,,,37688,2022-10-25_10h29.05.330,vts_reward_expectancy_bt_OFFLINE,2022.2.4,59.99429622
,,,,,,,,,,,,,,,,,,,,,,,,,,,,,,,,,,,,,,,,,,,,,,,2,0,2,0,9,0,9,0,,,,,,,,,,,,,,,,S,125,hexagon,0.001404127,,,,,,,,,1,0,,4,,,458.6030638,,,,,,,,,454.8155245,454.8155245,454.8155245,454.8155245,456.3170991,456.3170991,456.3170991,456.3170991,456.3170991,456.3170991,456.3170991,456.3170991,switch,number,numSwt,j,0.757861621,vtsPrac,0,674,457.1012614,,,,,,,,,,,,,,,,,,,,,,,,37688,2022-10-25_10h29.05.330,vts_reward_expectancy_bt_OFFLINE,2022.2.4,59.99429622
,,,,,,,,,,,,,,,,,,,,,,,,,,,,,,,,,,,,,,,,,,,,,,,2,0,2,0,10,0,10,0,,,,,,,,,,,,,,,,D,146,star,0.001246445,,,,,,,,,1,0,,4,,,463.408389,,,,,,,,,459.5873073,459.5873073,459.5873073,459.5873073,461.0891101,461.0891101,461.0891101,461.0891101,461.0891101,461.0891101,461.0891101,461.0891101,repeat,number,numRpt,j,0.785394892,vtsPrac,0,674,461.9065698,,,,,,,,,,,,,,,,,,,,,,,,37688,2022-10-25_10h29.05.330,vts_reward_expectancy_bt_OFFLINE,2022.2.4,59.99429622
,,,,,,,,,,,,,,,,,,,,,,,,,,,,,,,,,,,,,,,,,,,,,,,2,0,2,0,11,0,11,0,,,,,,,,,,,,,,,,Y,139,hexagon,0.001547365,,,,,,,,,1,0,,4,,,468.2802143,,,,,,,,,464.3926306,464.3926306,464.3926306,464.3926306,465.894414,465.894414,465.894414,465.894414,465.894414,465.894414,465.894414,465.894414,repeat,number,numRpt,j,0.852054787,vtsPrac,0,674,466.7788107,,,,,,,,,,,,,,,,,,,,,,,,37688,2022-10-25_10h29.05.330,vts_reward_expectancy_bt_OFFLINE,2022.2.4,59.99429622
,,,,,,,,,,,,,,,,,,,,,,,,,,,,,,,,,,,,,,,,,,,,,,,2,0,2,0,12,0,12,0,,,,,,,,,,,,,,,,D,146,hexagon,0.001056045,,,,,,,,,1,0,,4,,,473.7028177,,,,,,,,,469.2646198,469.2646198,469.2646198,469.2646198,470.7662519,470.7662519,470.7662519,470.7662519,470.7662519,470.7662519,470.7662519,470.7662519,switch,letter,lettSwt,d,1.412672807,vtsPrac,0,674,472.2011868,,,,,,,,,,,,,,,,,,,,,,,,37688,2022-10-25_10h29.05.330,vts_reward_expectancy_bt_OFFLINE,2022.2.4,59.99429622
,,,,,,,,,,,,,,,,,,,,,,,,,,,,,,,,,,,,,,,,,,,,,,,2,0,2,0,13,0,13,0,,,,,,,,,,,,,,,,F,160,star,0.001266315,,,,,,,,,1,0,,4,,,478.3915685,,,,,,,,,474.6874645,474.6874645,474.6874645,474.6874645,476.1890858,476.1890858,476.1890858,476.1890858,476.1890858,476.1890858,476.1890858,476.1890858,repeat,letter,lettRpt,d,0.677697272,vtsPrac,0,674,476.8898003,,,,,,,,,,,,,,,,,,,,,,,,37688,2022-10-25_10h29.05.330,vts_reward_expectancy_bt_OFFLINE,2022.2.4,59.99429622
,,,,,,,,,,,,,,,,,,,,,,,,,,,,,,,,,,,,,,,,,,,,,,,2,0,2,0,14,0,14,0,,,,,,,,,,,,,,,,W,181,hexagon,0.001071914,,,,,,,,,1,0,,4,,,483.5972108,,,,,,,,,479.3757743,479.3757743,479.3757743,479.3757743,480.8775818,480.8775818,480.8775818,480.8775818,480.8775818,480.8775818,480.8775818,480.8775818,repeat,letter,lettRpt,f,1.190235812,vtsPrac,0,674,482.0954734,,,,,,,,,,,,,,,,,,,,,,,,37688,2022-10-25_10h29.05.330,vts_reward_expectancy_bt_OFFLINE,2022.2.4,59.99429622
,,,,,,,,,,,,,,,,,,,,,,,,,,,,,,,,,,,,,,,,,,,,,,,2,0,2,0,15,0,15,0,,,,,,,,,,,,,,,,H,174,star,0.001383438,,,,,,,,,1,0,,4,,,488.3526426,,,,,,,,,484.5815853,484.5815853,484.5815853,484.5815853,486.0832925,486.0832925,486.0832925,486.0832925,486.0832925,486.0832925,486.0832925,486.0832925,switch,number,numSwt,k,0.735387171,vtsPrac,0,674,486.8507621,,,,,,,,,,,,,,,,,,,,,,,,37688,2022-10-25_10h29.05.330,vts_reward_expectancy_bt_OFFLINE,2022.2.4,59.99429622
,,,,,,,,,,,,,,,,,,,,,,,,,,,,,,,,,,,,,,,,,,,,,,,,,,,,,,,0,0,0,0,,,,,,,,,,,,S,174,star,0.002436444,,,,,,,,,1,0,,,,,562.8847158,,,,,,,,,558.7633436,558.7633436,558.7633436,558.7633436,560.2649359,560.2649359,560.2649359,560.2649359,560.2649359,560.2649359,560.2649359,560.2649359,switch,letter,lettSwt,f,1.09108409,noRew,0,674,,,0,561.382952,,,,,,,,,,,,,,,,,,,,,37688,2022-10-25_10h29.05.330,vts_reward_expectancy_bt_OFFLINE,2022.2.4,59.99429622
,,,,,,,,,,,,,,,,,,,,,,,,,,,,,,,,,,,,,,,,,,,,,,,,,,,,,,,1,0,1,0,,,,,,,,,,,,W,146,hexagon,0.00095603,,,,,,,,,1,0,,,,,567.739971,,,,,,,,,563.8689835,563.8689835,563.8689835,563.8689835,565.3707838,565.3707838,565.3707838,565.3707838,565.3707838,565.3707838,565.3707838,565.3707838,repeat,letter,lettRpt,f,0.848640196,noRew,0,674,,,0,566.2382598,567.739971,,,,,,,,,,,,,,,,,,,,37688,2022-10-25_10h29.05.330,vts_reward_expectancy_bt_OFFLINE,2022.2.4,59.99429622
,,,,,,,,,,,,,,,,,,,,,,,,,,,,,,,,,,,,,,,,,,,,,,,,,,,,,,,2,0,2,0,,,,,,,,,,,,B,160,star,0.001292832,,,,,,,,,1,0,,,,,572.7455312,,,,,,,,,568.7243512,568.7243512,568.7243512,568.7243512,570.2261743,570.2261743,570.2261743,570.2261743,570.2261743,570.2261743,570.2261743,570.2261743,switch,number,numSwt,k,0.985171783,noRew,0,674,,,0,571.2439225,,,,,,,,,,,,,,,,,,,,,37688,2022-10-25_10h29.05.330,vts_reward_expectancy_bt_OFFLINE,2022.2.4,59.99429622
,,,,,,,,,,,,,,,,,,,,,,,,,,,,,,,,,,,,,,,,,,,,,,,,,,,,,,,3,0,3,0,,,,,,,,,,,,U,125,star,0.001187366,,,,,,,,,1,0,,,,,577.5175481,,,,,,,,,573.729793,573.729793,573.729793,573.729793,575.2316276,575.2316276,575.2316276,575.2316276,575.2316276,575.2316276,575.2316276,575.2316276,repeat,number,numRpt,j,0.75601212,noRew,0,674,,,0,576.0158309,,,,,,,,,,,,,,,,,,,,,37688,2022-10-25_10h29.05.330,vts_reward_expectancy_bt_OFFLINE,2022.2.4,59.99429622
,,,,,,,,,,,,,,,,,,,,,,,,,,,,,,,,,,,,,,,,,,,,,,,,,,,,,,,4,0,4,0,,,,,,,,,,,,S,174,star,0.001272576,,,,,,,,,1,0,,,,,582.1226509,,,,,,,,,578.5018869,578.5018869,578.5018869,578.5018869,580.003536,580.003536,580.003536,580.003536,580.003536,580.003536,580.003536,580.003536,switch,letter,lettSwt,f,0.590824942,noRew,0,674,,,0,580.6205774,,,,,,,,,,,,,,,,,,,,,37688,2022-10-25_10h29.05.330,vts_reward_expectancy_bt_OFFLINE,2022.2.4,59.99429622
,,,,,,,,,,,,,,,,,,,,,,,,,,,,,,,,,,,,,,,,,,,,,,,,,,,,,,,5,0,5,0,,,,,,,,,,,,W,146,star,0.001365831,,,,,,,,,1,0,,,,,587.0447593,,,,,,,,,583.1070815,583.1070815,583.1070815,583.1070815,584.6087464,584.6087464,584.6087464,584.6087464,584.6087464,584.6087464,584.6087464,584.6087464,repeat,letter,lettRpt,f,0.913704301,noRew,0,674,,,0,585.5428506,,,,,,,,,,,,,,,,,,,,,37688,2022-10-25_10h29.05.330,vts_reward_expectancy_bt_OFFLINE,2022.2.4,59.99429622
,,,,,,,,,,,,,,,,,,,,,,,,,,,,,,,,,,,,,,,,,,,,,,,,,,,,,,,6,0,6,0,,,,,,,,,,,,B,160,star,0.001663056,,,,,,,,,0,0,,,,,592.3503163,,,,,,,,,588.0289774,588.0289774,588.0289774,588.0289774,589.5307612,589.5307612,589.5307612,589.5307612,589.5307612,589.5307612,589.5307612,589.5307612,switch,number,NA,j,1.296441229,noRew,0,674,,,0,590.8485874,592.3503163,,,,,,,,,,,,,,,,,,,,37688,2022-10-25_10h29.05.330,vts_reward_expectancy_bt_OFFLINE,2022.2.4,59.99429622
,,,,,,,,,,,,,,,,,,,,,,,,,,,,,,,,,,,,,,,,,,,,,,,,,,,,,,,7,0,7,0,,,,,,,,,,,,U,125,hexagon,0.001093182,,,,,,,,,1,1,,,,,597.0888786,,,,,,,,,593.3348414,593.3348414,593.3348414,593.3348414,594.8363893,594.8363893,594.8363893,594.8363893,594.8363893,594.8363893,594.8363893,594.8363893,repeat,number,numRpt,j,0.718512174,noRew,0,674,,,0,595.5873292,597.0888786,,,,,,,,,,,,,,,,,,,,37688,2022-10-25_10h29.05.330,vts_reward_expectancy_bt_OFFLINE,2022.2.4,59.99429622
,,,,,,,,,,,,,,,,,,,,,,,,,,,,,,,,,,,,,,,,,,,,,,,,,,,,,,,8,0,8,0,,,,,,,,,,,,B,174,hexagon,0.001137979,,,,,,,,,1,0,,,,,601.7443602,,,,,,,,,598.0733062,598.0733062,598.0733062,598.0733062,599.5753198,599.5753198,599.5753198,599.5753198,599.5753198,599.5753198,599.5753198,599.5753198,switch,letter,lettSwt,d,0.63492694,noRew,0,674,,,0,600.2425241,601.7443602,,,,,,,,,,,,,,,,,,,,37688,2022-10-25_10h29.05.330,vts_reward_expectancy_bt_OFFLINE,2022.2.4,59.99429622
,,,,,,,,,,,,,,,,,,,,,,,,,,,,,,,,,,,,,,,,,,,,,,,,,,,,,,,9,0,9,0,,,,,,,,,,,,D,146,star,0.001455548,,,,,,,,,1,0,,,,,606.2993469,,,,,,,,,602.7284099,602.7284099,602.7284099,602.7284099,604.2304184,604.2304184,604.2304184,604.2304184,604.2304184,604.2304184,604.2304184,604.2304184,repeat,letter,lettRpt,d,0.549443891,noRew,0,674,,,0,604.7976769,606.2993469,,,,,,,,,,,,,,,,,,,,37688,2022-10-25_10h29.05.330,vts_reward_expectancy_bt_OFFLINE,2022.2.4,59.99429622
,,,,,,,,,,,,,,,,,,,,,,,,,,,,,,,,,,,,,,,,,,,,,,,,,,,,,,,10,0,10,0,,,,,,,,,,,,S,139,hexagon,0.000913581,,,,,,,,,1,0,,,,,611.171368,,,,,,,,,607.2836147,607.2836147,607.2836147,607.2836147,608.7853766,608.7853766,608.7853766,608.7853766,608.7853766,608.7853766,608.7853766,608.7853766,switch,number,numSwt,j,0.851419579,noRew,0,674,,,0,609.6695425,,,,,,,,,,,,,,,,,,,,,37688,2022-10-25_10h29.05.330,vts_reward_expectancy_bt_OFFLINE,2022.2.4,59.99429622
,,,,,,,,,,,,,,,,,,,,,,,,,,,,,,,,,,,,,,,,,,,,,,,,,,,,,,,11,0,11,0,,,,,,,,,,,,H,181,hexagon,0.001494667,,,,,,,,,1,0,,,,,616.1435061,,,,,,,,,612.1557787,612.1557787,612.1557787,612.1557787,613.6574398,613.6574398,613.6574398,613.6574398,613.6574398,613.6574398,613.6574398,613.6574398,repeat,number,numRpt,k,0.96121864,noRew,0,674,,,0,614.641835,,,,,,,,,,,,,,,,,,,,,37688,2022-10-25_10h29.05.330,vts_reward_expectancy_bt_OFFLINE,2022.2.4,59.99429622
,,,,,,,,,,,,,,,,,,,,,,,,,,,,,,,,,,,,,,,,,,,,,,,,,,,,,,,12,0,12,0,,,,,,,,,,,,W,132,hexagon,0.001219361,,,,,,,,,1,0,,,,,620.965355,,,,,,,,,617.1277501,617.1277501,617.1277501,617.1277501,618.6294405,618.6294405,618.6294405,618.6294405,618.6294405,618.6294405,618.6294405,618.6294405,switch,letter,lettSwt,f,0.806271013,noRew,0,674,,,0,619.463601,,,,,,,,,,,,,,,,,,,,,37688,2022-10-25_10h29.05.330,vts_reward_expectancy_bt_OFFLINE,2022.2.4,59.99429622
,,,,,,,,,,,,,,,,,,,,,,,,,,,,,,,,,,,,,,,,,,,,,,,,,,,,,,,13,0,13,0,,,,,,,,,,,,D,174,star,0.00126166,,,,,,,,,1,0,,,,,626.0044174,,,,,,,,,621.9497312,621.9497312,621.9497312,621.9497312,623.4512915,623.4512915,623.4512915,623.4512915,623.4512915,623.4512915,623.4512915,623.4512915,repeat,letter,lettRpt,d,1.024256567,noRew,0,674,,,0,624.5028716,626.0044174,,,,,,,,,,,,,,,,,,,,37688,2022-10-25_10h29.05.330,vts_reward_expectancy_bt_OFFLINE,2022.2.4,59.99429622
,,,,,,,,,,,,,,,,,,,,,,,,,,,,,,,,,,,,,,,,,,,,,,,,,,,,,,,14,0,14,0,,,,,,,,,,,,B,160,hexagon,0.000840102,,,,,,,,,1,0,,,,,631.1266333,,,,,,,,,626.9888877,626.9888877,626.9888877,626.9888877,628.490529,628.490529,628.490529,628.490529,628.490529,628.490529,628.490529,628.490529,switch,number,numSwt,k,1.112054581,noRew,0,674,,,0,629.6250016,631.1266333,,,,,,,,,,,,,,,,,,,,37688,2022-10-25_10h29.05.330,vts_reward_expectancy_bt_OFFLINE,2022.2.4,59.99429622
,,,,,,,,,,,,,,,,,,,,,,,,,,,,,,,,,,,,,,,,,,,,,,,,,,,,,,,15,0,15,0,,,,,,,,,,,,U,125,star,0.001358411,,,,,,,,,1,0,,,,,635.7316835,,,,,,,,,632.111046,632.111046,632.111046,632.111046,633.6128027,633.6128027,633.6128027,633.6128027,633.6128027,633.6128027,633.6128027,633.6128027,repeat,number,numRpt,j,0.598837005,noRew,0,674,,,0,634.2301671,635.7316835,,,,,,,,,,,,,,,,,,,,37688,2022-10-25_10h29.05.330,vts_reward_expectancy_bt_OFFLINE,2022.2.4,59.99429622
,,,,,,,,,,,,,,,,,,,,,,,,,,,,,,,,,,,,,,,,,,,,,,,,,,,,,,,16,0,16,0,,,,,,,,,,,,F,132,star,0.001334011,,,,,,,,,1,0,,,,,641.37114,,,,,,,,,636.716184,636.716184,636.716184,636.716184,638.2177605,638.2177605,638.2177605,638.2177605,638.2177605,638.2177605,638.2177605,638.2177605,switch,letter,lettSwt,d,1.624988529,noRew,0,674,,,0,639.869523,641.37114,,,,,,,,,,,,,,,,,,,,37688,2022-10-25_10h29.05.330,vts_reward_expectancy_bt_OFFLINE,2022.2.4,59.99429622
,,,,,,,,,,,,,,,,,,,,,,,,,,,,,,,,,,,,,,,,,,,,,,,,,,,,,,,17,0,17,0,,,,,,,,,,,,H,146,hexagon,0.00120138,,,,,,,,,1,0,,,,,645.9431573,,,,,,,,,642.3557123,642.3557123,642.3557123,642.3557123,643.8571835,643.8571835,643.8571835,643.8571835,643.8571835,643.8571835,643.8571835,643.8571835,repeat,letter,lettRpt,d,0.561085387,noRew,0,674,,,0,644.4415333,,,,,,,,,,,,,,,,,,,,,37688,2022-10-25_10h29.05.330,vts_reward_expectancy_bt_OFFLINE,2022.2.4,59.99429622
,,,,,,,,,,,,,,,,,,,,,,,,,,,,,,,,,,,,,,,,,,,,,,,,,,,,,,,18,0,18,0,,,,,,,,,,,,B,167,hexagon,0.001495342,,,,,,,,,1,0,,,,,650.9819301,,,,,,,,,646.927503,646.927503,646.927503,646.927503,648.4291635,648.4291635,648.4291635,648.4291635,648.4291635,648.4291635,648.4291635,648.4291635,switch,number,numSwt,k,1.029955965,noRew,0,674,,,0,649.4801226,,,,,,,,,,,,,,,,,,,,,37688,2022-10-25_10h29.05.330,vts_reward_expectancy_bt_OFFLINE,2022.2.4,59.99429622
,,,,,,,,,,,,,,,,,,,,,,,,,,,,,,,,,,,,,,,,,,,,,,,,,,,,,,,19,0,19,0,,,,,,,,,,,,W,139,hexagon,0.00136708,,,,,,,,,1,0,,,,,656.3042911,,,,,,,,,651.9664942,651.9664942,651.9664942,651.9664942,653.4678794,653.4678794,653.4678794,653.4678794,653.4678794,653.4678794,653.4678794,653.4678794,repeat,number,numRpt,j,1.302645811,noRew,0,674,,,0,654.8028323,656.3042911,,,,,,,,,,,,,,,,,,,,37688,2022-10-25_10h29.05.330,vts_reward_expectancy_bt_OFFLINE,2022.2.4,59.99429622
,,,,,,,,,,,,,,,,,,,,,,,,,,,,,,,,,,,,,,,,,,,,,,,,,,,,,,,20,0,20,0,,,,,,,,,,,,H,167,hexagon,0.001236557,,,,,,,,,1,0,,,,,660.9929466,,,,,,,,,657.2887562,657.2887562,657.2887562,657.2887562,658.7904145,658.7904145,658.7904145,658.7904145,658.7904145,658.7904145,658.7904145,658.7904145,switch,letter,lettSwt,d,0.67642128,noRew,0,674,,,0,659.4912767,660.9929466,,,,,,,,,,,,,,,,,,,,37688,2022-10-25_10h29.05.330,vts_reward_expectancy_bt_OFFLINE,2022.2.4,59.99429622
,,,,,,,,,,,,,,,,,,,,,,,,,,,,,,,,,,,,,,,,,,,,,,,,,,,,,,,21,0,21,0,,,,,,,,,,,,D,174,hexagon,0.001018614,,,,,,,,,1,0,,,,,665.6813727,,,,,,,,,661.9773635,661.9773635,661.9773635,661.9773635,663.4791227,663.4791227,663.4791227,663.4791227,663.4791227,663.4791227,663.4791227,663.4791227,repeat,letter,lettRpt,d,0.668118012,noRew,0,674,,,0,664.1798839,,,,,,,,,,,,,,,,,,,,,37688,2022-10-25_10h29.05.330,vts_reward_expectancy_bt_OFFLINE,2022.2.4,59.99429622
,,,,,,,,,,,,,,,,,,,,,,,,,,,,,,,,,,,,,,,,,,,,,,,,,,,,,,,22,0,22,0,,,,,,,,,,,,U,181,hexagon,0.001382344,,,,,,,,,1,0,,,,,670.4865333,,,,,,,,,666.6659306,666.6659306,666.6659306,666.6659306,668.1674399,668.1674399,668.1674399,668.1674399,668.1674399,668.1674399,668.1674399,668.1674399,switch,number,numSwt,k,0.794832427,noRew,0,674,,,0,668.9849133,,,,,,,,,,,,,,,,,,,,,37688,2022-10-25_10h29.05.330,vts_reward_expectancy_bt_OFFLINE,2022.2.4,59.99429622
,,,,,,,,,,,,,,,,,,,,,,,,,,,,,,,,,,,,,,,,,,,,,,,,,,,,,,,23,0,23,0,,,,,,,,,,,,B,132,star,0.001402379,,,,,,,,,1,0,,,,,675.0749996,,,,,,,,,671.4713706,671.4713706,671.4713706,671.4713706,672.9728416,672.9728416,672.9728416,672.9728416,672.9728416,672.9728416,672.9728416,672.9728416,repeat,number,numRpt,j,0.574135257,noRew,0,674,,,0,673.5733557,,,,,,,,,,,,,,,,,,,,,37688,2022-10-25_10h29.05.330,vts_reward_expectancy_bt_OFFLINE,2022.2.4,59.99429622
,,,,,,,,,,,,,,,,,,,,,,,,,,,,,,,,,,,,,,,,,,,,,,,,,,,,,,,24,0,24,0,,,,,,,,,,,,U,174,hexagon,0.001109055,,,,,,,,,1,0,,,,,679.913901,,,,,,,,,676.0593556,676.0593556,676.0593556,676.0593556,677.5610504,677.5610504,677.5610504,677.5610504,677.5610504,677.5610504,677.5610504,677.5610504,switch,letter,lettSwt,f,0.818255535,noRew,0,674,,,0,678.4120066,,,,,,,,,,,,,,,,,,,,,37688,2022-10-25_10h29.05.330,vts_reward_expectancy_bt_OFFLINE,2022.2.4,59.99429622
,,,,,,,,,,,,,,,,,,,,,,,,,,,,,,,,,,,,,,,,,,,,,,,,,,,,,,,25,0,25,0,,,,,,,,,,,,B,146,star,0.001221352,,,,,,,,,1,0,,,,,685.0861579,,,,,,,,,680.8982982,680.8982982,680.8982982,680.8982982,682.3998235,682.3998235,682.3998235,682.3998235,682.3998235,682.3998235,682.3998235,682.3998235,repeat,letter,lettRpt,d,1.16314889,noRew,0,674,,,0,683.5845058,685.0861579,,,,,,,,,,,,,,,,,,,,37688,2022-10-25_10h29.05.330,vts_reward_expectancy_bt_OFFLINE,2022.2.4,59.99429622
,,,,,,,,,,,,,,,,,,,,,,,,,,,,,,,,,,,,,,,,,,,,,,,,,,,,,,,26,0,26,0,,,,,,,,,,,,S,167,star,0.0009792,,,,,,,,,1,0,,,,,690.4088606,,,,,,,,,686.0705118,686.0705118,686.0705118,686.0705118,687.5722187,687.5722187,687.5722187,687.5722187,687.5722187,687.5722187,687.5722187,687.5722187,switch,number,numSwt,k,1.302624131,noRew,0,674,,,0,688.9069455,,,,,,,,,,,,,,,,,,,,,37688,2022-10-25_10h29.05.330,vts_reward_expectancy_bt_OFFLINE,2022.2.4,59.99429622
,,,,,,,,,,,,,,,,,,,,,,,,,,,,,,,,,,,,,,,,,,,,,,,,,,,,,,,27,0,27,0,,,,,,,,,,,,F,132,hexagon,0.001287028,,,,,,,,,1,0,,,,,695.2472444,,,,,,,,,691.3931908,691.3931908,691.3931908,691.3931908,692.8946671,692.8946671,692.8946671,692.8946671,692.8946671,692.8946671,692.8946671,692.8946671,repeat,number,numRpt,j,0.820100646,noRew,0,674,,,0,693.7457214,,,,,,,,,,,,,,,,,,,,,37688,2022-10-25_10h29.05.330,vts_reward_expectancy_bt_OFFLINE,2022.2.4,59.99429622
,,,,,,,,,,,,,,,,,,,,,,,,,,,,,,,,,,,,,,,,,,,,,,,,,,,,,,,28,0,28,0,,,,,,,,,,,,F,181,hexagon,0.001269216,,,,,,,,,1,0,,,,,700.419722,,,,,,,,,696.2316116,696.2316116,696.2316116,696.2316116,697.73326,697.73326,697.73326,697.73326,697.73326,697.73326,697.73326,697.73326,switch,letter,lettSwt,d,1.166071463,noRew,0,674,,,0,698.9180319,700.419722,,,,,,,,,,,,,,,,,,,,37688,2022-10-25_10h29.05.330,vts_reward_expectancy_bt_OFFLINE,2022.2.4,59.99429622
