LTriangleOpac,LCircleOpac,LHexagonOpac,LStarOpac,RTriangleOpac,RCircleOpac,RHexagonOpac,RStarOpac,LShape_ID,RShape_ID,training_blocks.thisRepN,training_blocks.thisTrialN,training_blocks.thisN,training_blocks.thisIndex,training.thisRepN,training.thisTrialN,training.thisN,training.thisIndex,task1_prac_redo.thisRepN,task1_prac_redo.thisTrialN,task1_prac_redo.thisN,task1_prac_redo.thisIndex,task1_prac_trials.thisRepN,task1_prac_trials.thisTrialN,task1_prac_trials.thisN,task1_prac_trials.thisIndex,task2_prac_redo.thisRepN,task2_prac_redo.thisTrialN,task2_prac_redo.thisN,task2_prac_redo.thisIndex,task2_praac_trials.thisRepN,task2_praac_trials.thisTrialN,task2_praac_trials.thisN,task2_praac_trials.thisIndex,vts_prac_redo.thisRepN,vts_prac_redo.thisTrialN,vts_prac_redo.thisN,vts_prac_redo.thisIndex,vts_practice_trials.thisRepN,vts_practice_trials.thisTrialN,vts_practice_trials.thisN,vts_practice_trials.thisIndex,trials_norew.thisRepN,trials_norew.thisTrialN,trials_norew.thisN,trials_norew.thisIndex,block.thisRepN,block.thisTrialN,block.thisN,block.thisIndex,trials_rew.thisRepN,trials_rew.thisTrialN,trials_rew.thisN,trials_rew.thisIndex,key_resp.started,key_resp.keys,key_resp.rt,left_circle.started,right_circle.started,left_triangle.started,right_triangle.started,left_star.started,right_star.started,left_hexagon.started,right_hexagon.started,training_fix.started,training_resp.started,training_resp.keys,training_resp.rt,points_trial,points_cumul,trainBlock,training_feedback_txt.started,fix.started,training_feedback_txt.stopped,fix.stopped,curr_topStim,curr_bottStim,curr_shape,ISI.started,tgt_fix_prac1.started,top_target_prac1.started,bott_target_prac1.started,target_resp_prac1.started,acc,E1,target_resp_prac1.keys,target_resp_prac1.rt,pracBlock,prac_fback_text.started,prac_fback_text.stopped,tgt_fix_prac2.started,top_target_prac2.started,bott_target_prac2.started,target_resp_prac2.started,target_resp_prac2.keys,target_resp_prac2.rt,star.started,hegagon.started,triangle.started,circle.started,star.stopped,hegagon.stopped,triangle.stopped,circle.stopped,top_target.started,tgt_fix.started,bot_target.started,target_resp.started,alt,task,condition,target_resp.keys,target_resp.rt,rewCond,vts_fback.started,vts_fback.stopped,blockNum,norew_fback.started,norew_fback.stopped,key_resp_2.keys,key_resp_2.rt,rewExpectancy,feedbk_text.started,feedbk_text.stopped,text_3.started,debrief.started,text_3.stopped,button.started,debrief.index,debrief.itemText,debrief.type,debrief.granularity,debrief.font,debrief.markerColor,debrief.response,debrief.rt,button.numClicks,button.timesOn,button.timesOff,participant,date,expName,psychopyVersion,frameRate,
,,,,,,,,,,,,,,,,,,,,,,,,,,,,,,,,,,,,,,,,,,,,,,,,,,,,,,19.018481790990336,space,26.46215555301751,,,,,,,,,,,,,,,,,,,,,,,,,,,,,,,,,,,,,,,,,,,,,,,,,,,,,,,,,,,,,,,,,,,,,,,,,,,,,,,,,,,,38547,2022-11-22_14h01.26.924,vts_reward_expectancy_bt_OFFLINE,2022.2.4,59.97644641382636,
0,0,0,1,0,0,1,0,star,hexagon,0,0,0,0,0,0,0,11,,,,,,,,,,,,,,,,,,,,,,,,,,,,,,,,,,,,,,,,71.06217402699986,71.06217402699986,71.06217402699986,71.06217402699986,71.06217402699986,71.06217402699986,71.06217402699986,71.06217402699986,71.06217402699986,71.06217402699986,l,3.6227993830107152,1,1,0,74.70695882799919,76.20834833299159,,,,,,,,,,,,,,,,,,,,,,,,,,,,,,,,,,,,,,,,,,,,,,,,,,,,,,,,,,,,,,,,,,,38547,2022-11-22_14h01.26.924,vts_reward_expectancy_bt_OFFLINE,2022.2.4,59.97644641382636,
0,0,0,1,1,0,0,0,star,triangle,0,0,0,0,0,1,1,9,,,,,,,,,,,,,,,,,,,,,,,,,,,,,,,,,,,,,,,,76.7091686729982,76.7091686729982,76.7091686729982,76.7091686729982,76.7091686729982,76.7091686729982,76.7091686729982,76.7091686729982,76.7091686729982,76.7091686729982,a,1.553397430019686,10,11,0,78.29414276400348,79.79569330898812,,,,,,,,,,,,,,,,,,,,,,,,,,,,,,,,,,,,,,,,,,,,,,,,,,,,,,,,,,,,,,,,,,,38547,2022-11-22_14h01.26.924,vts_reward_expectancy_bt_OFFLINE,2022.2.4,59.97644641382636,
0,1,0,0,1,0,0,0,circle,triangle,0,0,0,0,0,2,2,3,,,,,,,,,,,,,,,,,,,,,,,,,,,,,,,,,,,,,,,,80.29622039198875,80.29622039198875,80.29622039198875,80.29622039198875,80.29622039198875,80.29622039198875,80.29622039198875,80.29622039198875,80.29622039198875,80.29622039198875,a,3.4562849230132997,10,21,0,83.7834929350065,85.28502847297932,,,,,,,,,,,,,,,,,,,,,,,,,,,,,,,,,,,,,,,,,,,,,,,,,,,,,,,,,,,,,,,,,,,38547,2022-11-22_14h01.26.924,vts_reward_expectancy_bt_OFFLINE,2022.2.4,59.97644641382636,
0,0,1,0,1,0,0,0,hexagon,triangle,0,0,0,0,0,3,3,6,,,,,,,,,,,,,,,,,,,,,,,,,,,,,,,,,,,,,,,,85.78572207698016,85.78572207698016,85.78572207698016,85.78572207698016,85.78572207698016,85.78572207698016,85.78572207698016,85.78572207698016,85.78572207698016,85.78572207698016,a,2.6255804029933643,10,31,0,88.43844479499967,89.94001007598126,,,,,,,,,,,,,,,,,,,,,,,,,,,,,,,,,,,,,,,,,,,,,,,,,,,,,,,,,,,,,,,,,,,38547,2022-11-22_14h01.26.924,vts_reward_expectancy_bt_OFFLINE,2022.2.4,59.97644641382636,
0,0,1,0,0,1,0,0,hexagon,circle,0,0,0,0,0,4,4,7,,,,,,,,,,,,,,,,,,,,,,,,,,,,,,,,,,,,,,,,90.44074882299174,90.44074882299174,90.44074882299174,90.44074882299174,90.44074882299174,90.44074882299174,90.44074882299174,90.44074882299174,90.44074882299174,90.44074882299174,a,3.1214363779872656,1,32,0,93.59404140900006,95.09561646799557,,,,,,,,,,,,,,,,,,,,,,,,,,,,,,,,,,,,,,,,,,,,,,,,,,,,,,,,,,,,,,,,,,,38547,2022-11-22_14h01.26.924,vts_reward_expectancy_bt_OFFLINE,2022.2.4,59.97644641382636,
0,0,0,1,0,1,0,0,star ,circle,0,0,0,0,0,5,5,10,,,,,,,,,,,,,,,,,,,,,,,,,,,,,,,,,,,,,,,,95.5963071169972,95.5963071169972,95.5963071169972,95.5963071169972,95.5963071169972,95.5963071169972,95.5963071169972,95.5963071169972,95.5963071169972,95.5963071169972,a,1.7462846700218506,1,33,0,97.36495032100356,98.86668975200155,,,,,,,,,,,,,,,,,,,,,,,,,,,,,,,,,,,,,,,,,,,,,,,,,,,,,,,,,,,,,,,,,,,38547,2022-11-22_14h01.26.924,vts_reward_expectancy_bt_OFFLINE,2022.2.4,59.97644641382636,
1,0,0,0,0,0,0,1,triangle,star,0,0,0,0,0,6,6,2,,,,,,,,,,,,,,,,,,,,,,,,,,,,,,,,,,,,,,,,99.36649934999878,99.36649934999878,99.36649934999878,99.36649934999878,99.36649934999878,99.36649934999878,99.36649934999878,99.36649934999878,99.36649934999878,99.36649934999878,a,0.9252238850167487,1,34,0,100.31828573398525,101.82010352399084,,,,,,,,,,,,,,,,,,,,,,,,,,,,,,,,,,,,,,,,,,,,,,,,,,,,,,,,,,,,,,,,,,,38547,2022-11-22_14h01.26.924,vts_reward_expectancy_bt_OFFLINE,2022.2.4,59.97644641382636,
0,0,1,0,0,0,0,1,hexagon,star,0,0,0,0,0,7,7,8,,,,,,,,,,,,,,,,,,,,,,,,,,,,,,,,,,,,,,,,102.32050228500157,102.32050228500157,102.32050228500157,102.32050228500157,102.32050228500157,102.32050228500157,102.32050228500157,102.32050228500157,102.32050228500157,102.32050228500157,a,1.8621776619984303,1,35,0,104.20608797299792,105.7075681819988,,,,,,,,,,,,,,,,,,,,,,,,,,,,,,,,,,,,,,,,,,,,,,,,,,,,,,,,,,,,,,,,,,,38547,2022-11-22_14h01.26.924,vts_reward_expectancy_bt_OFFLINE,2022.2.4,59.97644641382636,
0,1,0,0,0,0,1,0,circle,hexagon,0,0,0,0,0,8,8,4,,,,,,,,,,,,,,,,,,,,,,,,,,,,,,,,,,,,,,,,106.20795516399085,106.20795516399085,106.20795516399085,106.20795516399085,106.20795516399085,106.20795516399085,106.20795516399085,106.20795516399085,106.20795516399085,106.20795516399085,l,1.1359485329885501,10,45,0,107.37602120300289,108.87772650300758,,,,,,,,,,,,,,,,,,,,,,,,,,,,,,,,,,,,,,,,,,,,,,,,,,,,,,,,,,,,,,,,,,,38547,2022-11-22_14h01.26.924,vts_reward_expectancy_bt_OFFLINE,2022.2.4,59.97644641382636,
1,0,0,0,0,1,0,0,triangle,circle,0,0,0,0,0,9,9,0,,,,,,,,,,,,,,,,,,,,,,,,,,,,,,,,,,,,,,,,109.37811786300153,109.37811786300153,109.37811786300153,109.37811786300153,109.37811786300153,109.37811786300153,109.37811786300153,109.37811786300153,109.37811786300153,109.37811786300153,a,1.6455138500314206,1,46,0,111.04668639099691,112.54830018099165,,,,,,,,,,,,,,,,,,,,,,,,,,,,,,,,,,,,,,,,,,,,,,,,,,,,,,,,,,,,,,,,,,,38547,2022-11-22_14h01.26.924,vts_reward_expectancy_bt_OFFLINE,2022.2.4,59.97644641382636,
0,1,0,0,0,0,0,1,circle,star,0,0,0,0,0,10,10,5,,,,,,,,,,,,,,,,,,,,,,,,,,,,,,,,,,,,,,,,113.04895349498838,113.04895349498838,113.04895349498838,113.04895349498838,113.04895349498838,113.04895349498838,113.04895349498838,113.04895349498838,113.04895349498838,113.04895349498838,a,0.9443869539827574,10,56,0,114.01668989198515,115.51832147099776,,,,,,,,,,,,,,,,,,,,,,,,,,,,,,,,,,,,,,,,,,,,,,,,,,,,,,,,,,,,,,,,,,,38547,2022-11-22_14h01.26.924,vts_reward_expectancy_bt_OFFLINE,2022.2.4,59.97644641382636,
1,0,0,0,0,0,1,0,triangle,hexagon,0,0,0,0,0,11,11,1,,,,,,,,,,,,,,,,,,,,,,,,,,,,,,,,,,,,,,,,116.01920620398596,116.01920620398596,116.01920620398596,116.01920620398596,116.01920620398596,116.01920620398596,116.01920620398596,116.01920620398596,116.01920620398596,116.01920620398596,l,1.6411267520161346,1,57,0,117.68743648999953,119.18882606798434,,,,,,,,,,,,,,,,,,,,,,,,,,,,,,,,,,,,,,,,,,,,,,,,,,,,,,,,,,,,,,,,,,,38547,2022-11-22_14h01.26.924,vts_reward_expectancy_bt_OFFLINE,2022.2.4,59.97644641382636,
0,1,0,0,1,0,0,0,circle,triangle,0,0,0,0,1,0,12,3,,,,,,,,,,,,,,,,,,,,,,,,,,,,,,,,,,,,,,,,119.68941543300753,119.68941543300753,119.68941543300753,119.68941543300753,119.68941543300753,119.68941543300753,119.68941543300753,119.68941543300753,119.68941543300753,119.68941543300753,a,1.6523156400071457,1,58,0,121.35789101099363,122.85957605499425,,,,,,,,,,,,,,,,,,,,,,,,,,,,,,,,,,,,,,,,,,,,,,,,,,,,,,,,,,,,,,,,,,,38547,2022-11-22_14h01.26.924,vts_reward_expectancy_bt_OFFLINE,2022.2.4,59.97644641382636,
0,0,1,0,1,0,0,0,hexagon,triangle,0,0,0,0,1,1,13,6,,,,,,,,,,,,,,,,,,,,,,,,,,,,,,,,,,,,,,,,123.36045174699393,123.36045174699393,123.36045174699393,123.36045174699393,123.36045174699393,123.36045174699393,123.36045174699393,123.36045174699393,123.36045174699393,123.36045174699393,l,0.7574038190068677,1,59,0,124.14453299099114,125.64689347799867,,,,,,,,,,,,,,,,,,,,,,,,,,,,,,,,,,,,,,,,,,,,,,,,,,,,,,,,,,,,,,,,,,,38547,2022-11-22_14h01.26.924,vts_reward_expectancy_bt_OFFLINE,2022.2.4,59.97644641382636,
0,1,0,0,0,0,0,1,circle,star,0,0,0,0,1,2,14,5,,,,,,,,,,,,,,,,,,,,,,,,,,,,,,,,,,,,,,,,126.14803438200033,126.14803438200033,126.14803438200033,126.14803438200033,126.14803438200033,126.14803438200033,126.14803438200033,126.14803438200033,126.14803438200033,126.14803438200033,a,0.9402982849860564,10,69,0,127.1143774369848,128.6163026629947,,,,,,,,,,,,,,,,,,,,,,,,,,,,,,,,,,,,,,,,,,,,,,,,,,,,,,,,,,,,,,,,,,,38547,2022-11-22_14h01.26.924,vts_reward_expectancy_bt_OFFLINE,2022.2.4,59.97644641382636,
0,0,0,1,0,1,0,0,star ,circle,0,0,0,0,1,3,15,10,,,,,,,,,,,,,,,,,,,,,,,,,,,,,,,,,,,,,,,,129.11831580399303,129.11831580399303,129.11831580399303,129.11831580399303,129.11831580399303,129.11831580399303,129.11831580399303,129.11831580399303,129.11831580399303,129.11831580399303,a,1.6508389429945964,10,79,0,130.8020344709803,132.30374259798555,,,,,,,,,,,,,,,,,,,,,,,,,,,,,,,,,,,,,,,,,,,,,,,,,,,,,,,,,,,,,,,,,,,38547,2022-11-22_14h01.26.924,vts_reward_expectancy_bt_OFFLINE,2022.2.4,59.97644641382636,
0,0,1,0,0,0,0,1,hexagon,star,0,0,0,0,1,4,16,8,,,,,,,,,,,,,,,,,,,,,,,,,,,,,,,,,,,,,,,,132.80446329998085,132.80446329998085,132.80446329998085,132.80446329998085,132.80446329998085,132.80446329998085,132.80446329998085,132.80446329998085,132.80446329998085,132.80446329998085,a,1.0023712610127404,1,80,0,133.83860590000404,135.3401110759878,,,,,,,,,,,,,,,,,,,,,,,,,,,,,,,,,,,,,,,,,,,,,,,,,,,,,,,,,,,,,,,,,,,38547,2022-11-22_14h01.26.924,vts_reward_expectancy_bt_OFFLINE,2022.2.4,59.97644641382636,
0,0,0,1,0,0,1,0,star,hexagon,0,0,0,0,1,5,17,11,,,,,,,,,,,,,,,,,,,,,,,,,,,,,,,,,,,,,,,,135.84091506598634,135.84091506598634,135.84091506598634,135.84091506598634,135.84091506598634,135.84091506598634,135.84091506598634,135.84091506598634,135.84091506598634,135.84091506598634,a,1.3054069880163297,10,90,0,137.17570676698233,138.67720021598507,,,,,,,,,,,,,,,,,,,,,,,,,,,,,,,,,,,,,,,,,,,,,,,,,,,,,,,,,,,,,,,,,,,38547,2022-11-22_14h01.26.924,vts_reward_expectancy_bt_OFFLINE,2022.2.4,59.97644641382636,
1,0,0,0,0,0,1,0,triangle,hexagon,0,0,0,0,1,6,18,1,,,,,,,,,,,,,,,,,,,,,,,,,,,,,,,,,,,,,,,,139.1779112239892,139.1779112239892,139.1779112239892,139.1779112239892,139.1779112239892,139.1779112239892,139.1779112239892,139.1779112239892,139.1779112239892,139.1779112239892,l,0.6119788470095955,1,91,0,139.81208619999234,141.313337028987,,,,,,,,,,,,,,,,,,,,,,,,,,,,,,,,,,,,,,,,,,,,,,,,,,,,,,,,,,,,,,,,,,,38547,2022-11-22_14h01.26.924,vts_reward_expectancy_bt_OFFLINE,2022.2.4,59.97644641382636,
0,0,1,0,0,1,0,0,hexagon,circle,0,0,0,0,1,7,19,7,,,,,,,,,,,,,,,,,,,,,,,,,,,,,,,,,,,,,,,,141.81396845699055,141.81396845699055,141.81396845699055,141.81396845699055,141.81396845699055,141.81396845699055,141.81396845699055,141.81396845699055,141.81396845699055,141.81396845699055,l,0.8790901660104282,10,101,0,142.71511493099388,144.2165258169989,,,,,,,,,,,,,,,,,,,,,,,,,,,,,,,,,,,,,,,,,,,,,,,,,,,,,,,,,,,,,,,,,,,38547,2022-11-22_14h01.26.924,vts_reward_expectancy_bt_OFFLINE,2022.2.4,59.97644641382636,
0,1,0,0,0,0,1,0,circle,hexagon,0,0,0,0,1,8,20,4,,,,,,,,,,,,,,,,,,,,,,,,,,,,,,,,,,,,,,,,144.71708151698112,144.71708151698112,144.71708151698112,144.71708151698112,144.71708151698112,144.71708151698112,144.71708151698112,144.71708151698112,144.71708151698112,144.71708151698112,a,1.755370582017349,10,111,0,146.50248627600376,148.00416934699751,,,,,,,,,,,,,,,,,,,,,,,,,,,,,,,,,,,,,,,,,,,,,,,,,,,,,,,,,,,,,,,,,,,38547,2022-11-22_14h01.26.924,vts_reward_expectancy_bt_OFFLINE,2022.2.4,59.97644641382636,
1,0,0,0,0,1,0,0,triangle,circle,0,0,0,0,1,9,21,0,,,,,,,,,,,,,,,,,,,,,,,,,,,,,,,,,,,,,,,,148.50471496599494,148.50471496599494,148.50471496599494,148.50471496599494,148.50471496599494,148.50471496599494,148.50471496599494,148.50471496599494,148.50471496599494,148.50471496599494,l,1.0855652580212336,10,121,0,149.6226843970071,151.124517113989,,,,,,,,,,,,,,,,,,,,,,,,,,,,,,,,,,,,,,,,,,,,,,,,,,,,,,,,,,,,,,,,,,,38547,2022-11-22_14h01.26.924,vts_reward_expectancy_bt_OFFLINE,2022.2.4,59.97644641382636,
0,0,0,1,1,0,0,0,star,triangle,0,0,0,0,1,10,22,9,,,,,,,,,,,,,,,,,,,,,,,,,,,,,,,,,,,,,,,,151.62478859099792,151.62478859099792,151.62478859099792,151.62478859099792,151.62478859099792,151.62478859099792,151.62478859099792,151.62478859099792,151.62478859099792,151.62478859099792,a,0.8225064029975329,1,122,0,152.47582905198215,153.97740279199206,,,,,,,,,,,,,,,,,,,,,,,,,,,,,,,,,,,,,,,,,,,,,,,,,,,,,,,,,,,,,,,,,,,38547,2022-11-22_14h01.26.924,vts_reward_expectancy_bt_OFFLINE,2022.2.4,59.97644641382636,
1,0,0,0,0,0,0,1,triangle,star,0,0,0,0,1,11,23,2,,,,,,,,,,,,,,,,,,,,,,,,,,,,,,,,,,,,,,,,154.47797925700434,154.47797925700434,154.47797925700434,154.47797925700434,154.47797925700434,154.47797925700434,154.47797925700434,154.47797925700434,154.47797925700434,154.47797925700434,l,1.1748049549933057,10,132,0,155.67933897400508,157.1808357310074,,,,,,,,,,,,,,,,,,,,,,,,,,,,,,,,,,,,,,,,,,,,,,,,,,,,,,,,,,,,,,,,,,,38547,2022-11-22_14h01.26.924,vts_reward_expectancy_bt_OFFLINE,2022.2.4,59.97644641382636,
0,0,1,0,0,1,0,0,hexagon,circle,0,0,0,0,2,0,24,7,,,,,,,,,,,,,,,,,,,,,,,,,,,,,,,,,,,,,,,,157.68156863900367,157.68156863900367,157.68156863900367,157.68156863900367,157.68156863900367,157.68156863900367,157.68156863900367,157.68156863900367,157.68156863900367,157.68156863900367,l,1.807972744019935,10,142,0,159.51681010099128,161.01852198099368,,,,,,,,,,,,,,,,,,,,,,,,,,,,,,,,,,,,,,,,,,,,,,,,,,,,,,,,,,,,,,,,,,,38547,2022-11-22_14h01.26.924,vts_reward_expectancy_bt_OFFLINE,2022.2.4,59.97644641382636,
0,0,1,0,0,0,0,1,hexagon,star,0,0,0,0,2,1,25,8,,,,,,,,,,,,,,,,,,,,,,,,,,,,,,,,,,,,,,,,161.51921687400318,161.51921687400318,161.51921687400318,161.51921687400318,161.51921687400318,161.51921687400318,161.51921687400318,161.51921687400318,161.51921687400318,161.51921687400318,a,0.5914969270233996,10,152,0,162.13677541998914,163.6380342009943,,,,,,,,,,,,,,,,,,,,,,,,,,,,,,,,,,,,,,,,,,,,,,,,,,,,,,,,,,,,,,,,,,,38547,2022-11-22_14h01.26.924,vts_reward_expectancy_bt_OFFLINE,2022.2.4,59.97644641382636,
0,0,0,1,0,0,1,0,star,hexagon,0,0,0,0,2,2,26,11,,,,,,,,,,,,,,,,,,,,,,,,,,,,,,,,,,,,,,,,164.1386019019992,164.1386019019992,164.1386019019992,164.1386019019992,164.1386019019992,164.1386019019992,164.1386019019992,164.1386019019992,164.1386019019992,164.1386019019992,a,0.8970147969957907,10,162,0,165.0561647779832,166.55787519199657,,,,,,,,,,,,,,,,,,,,,,,,,,,,,,,,,,,,,,,,,,,,,,,,,,,,,,,,,,,,,,,,,,,38547,2022-11-22_14h01.26.924,vts_reward_expectancy_bt_OFFLINE,2022.2.4,59.97644641382636,
0,1,0,0,0,0,1,0,circle,hexagon,0,0,0,0,2,3,27,4,,,,,,,,,,,,,,,,,,,,,,,,,,,,,,,,,,,,,,,,167.0584261949989,167.0584261949989,167.0584261949989,167.0584261949989,167.0584261949989,167.0584261949989,167.0584261949989,167.0584261949989,167.0584261949989,167.0584261949989,l,1.4203301579982508,1,163,0,168.51008868098143,170.01160551299108,,,,,,,,,,,,,,,,,,,,,,,,,,,,,,,,,,,,,,,,,,,,,,,,,,,,,,,,,,,,,,,,,,,38547,2022-11-22_14h01.26.924,vts_reward_expectancy_bt_OFFLINE,2022.2.4,59.97644641382636,
0,1,0,0,0,0,0,1,circle,star,0,0,0,0,2,4,28,5,,,,,,,,,,,,,,,,,,,,,,,,,,,,,,,,,,,,,,,,170.51234949499485,170.51234949499485,170.51234949499485,170.51234949499485,170.51234949499485,170.51234949499485,170.51234949499485,170.51234949499485,170.51234949499485,170.51234949499485,a,2.1960982469900046,10,173,0,172.73162666798453,174.23319539098884,,,,,,,,,,,,,,,,,,,,,,,,,,,,,,,,,,,,,,,,,,,,,,,,,,,,,,,,,,,,,,,,,,,38547,2022-11-22_14h01.26.924,vts_reward_expectancy_bt_OFFLINE,2022.2.4,59.97644641382636,
0,0,0,1,1,0,0,0,star,triangle,0,0,0,0,2,5,29,9,,,,,,,,,,,,,,,,,,,,,,,,,,,,,,,,,,,,,,,,174.7336565029982,174.7336565029982,174.7336565029982,174.7336565029982,174.7336565029982,174.7336565029982,174.7336565029982,174.7336565029982,174.7336565029982,174.7336565029982,a,0.6986459759937134,10,183,0,175.4510839190043,176.95279059899622,,,,,,,,,,,,,,,,,,,,,,,,,,,,,,,,,,,,,,,,,,,,,,,,,,,,,,,,,,,,,,,,,,,38547,2022-11-22_14h01.26.924,vts_reward_expectancy_bt_OFFLINE,2022.2.4,59.97644641382636,
1,0,0,0,0,0,0,1,triangle,star,0,0,0,0,2,6,30,2,,,,,,,,,,,,,,,,,,,,,,,,,,,,,,,,,,,,,,,,177.4533740519837,177.4533740519837,177.4533740519837,177.4533740519837,177.4533740519837,177.4533740519837,177.4533740519837,177.4533740519837,177.4533740519837,177.4533740519837,a,1.1405609209905379,1,184,0,178.62151144698146,180.12286025698995,,,,,,,,,,,,,,,,,,,,,,,,,,,,,,,,,,,,,,,,,,,,,,,,,,,,,,,,,,,,,,,,,,,38547,2022-11-22_14h01.26.924,vts_reward_expectancy_bt_OFFLINE,2022.2.4,59.97644641382636,
1,0,0,0,0,1,0,0,triangle,circle,0,0,0,0,2,7,31,0,,,,,,,,,,,,,,,,,,,,,,,,,,,,,,,,,,,,,,,,180.62359350000042,180.62359350000042,180.62359350000042,180.62359350000042,180.62359350000042,180.62359350000042,180.62359350000042,180.62359350000042,180.62359350000042,180.62359350000042,a,1.2087631349859294,10,194,0,181.8581759769877,183.35985105700092,,,,,,,,,,,,,,,,,,,,,,,,,,,,,,,,,,,,,,,,,,,,,,,,,,,,,,,,,,,,,,,,,,,38547,2022-11-22_14h01.26.924,vts_reward_expectancy_bt_OFFLINE,2022.2.4,59.97644641382636,
0,0,0,1,0,1,0,0,star ,circle,0,0,0,0,2,8,32,10,,,,,,,,,,,,,,,,,,,,,,,,,,,,,,,,,,,,,,,,183.8603684679838,183.8603684679838,183.8603684679838,183.8603684679838,183.8603684679838,183.8603684679838,183.8603684679838,183.8603684679838,183.8603684679838,183.8603684679838,l,0.53790264800773,10,204,0,184.42746596600045,185.92927489400608,,,,,,,,,,,,,,,,,,,,,,,,,,,,,,,,,,,,,,,,,,,,,,,,,,,,,,,,,,,,,,,,,,,38547,2022-11-22_14h01.26.924,vts_reward_expectancy_bt_OFFLINE,2022.2.4,59.97644641382636,
1,0,0,0,0,0,1,0,triangle,hexagon,0,0,0,0,2,9,33,1,,,,,,,,,,,,,,,,,,,,,,,,,,,,,,,,,,,,,,,,186.4298268169805,186.4298268169805,186.4298268169805,186.4298268169805,186.4298268169805,186.4298268169805,186.4298268169805,186.4298268169805,186.4298268169805,186.4298268169805,l,1.5244228180090431,1,205,0,187.9816558570019,189.48324847099138,,,,,,,,,,,,,,,,,,,,,,,,,,,,,,,,,,,,,,,,,,,,,,,,,,,,,,,,,,,,,,,,,,,38547,2022-11-22_14h01.26.924,vts_reward_expectancy_bt_OFFLINE,2022.2.4,59.97644641382636,
0,1,0,0,1,0,0,0,circle,triangle,0,0,0,0,2,10,34,3,,,,,,,,,,,,,,,,,,,,,,,,,,,,,,,,,,,,,,,,189.98410580700147,189.98410580700147,189.98410580700147,189.98410580700147,189.98410580700147,189.98410580700147,189.98410580700147,189.98410580700147,189.98410580700147,189.98410580700147,a,1.0735590330150444,10,215,0,191.0849951590062,192.5869117009861,,,,,,,,,,,,,,,,,,,,,,,,,,,,,,,,,,,,,,,,,,,,,,,,,,,,,,,,,,,,,,,,,,,38547,2022-11-22_14h01.26.924,vts_reward_expectancy_bt_OFFLINE,2022.2.4,59.97644641382636,
0,0,1,0,1,0,0,0,hexagon,triangle,0,0,0,0,2,11,35,6,,,,,,,,,,,,,,,,,,,,,,,,,,,,,,,,,,,,,,,,193.08750000898726,193.08750000898726,193.08750000898726,193.08750000898726,193.08750000898726,193.08750000898726,193.08750000898726,193.08750000898726,193.08750000898726,193.08750000898726,l,0.7846634620218538,1,216,0,193.88830998999765,195.38971022499027,195.38971022499027,,,,,,,,,,,,,,,,,,,,,,,,,,,,,,,,,,,,,,,,,,,,,,,,,,,,,,,,,,,,,,,,,,38547,2022-11-22_14h01.26.924,vts_reward_expectancy_bt_OFFLINE,2022.2.4,59.97644641382636,
1,0,0,0,0,0,0,1,triangle,star,0,0,0,0,3,0,36,2,,,,,,,,,,,,,,,,,,,,,,,,,,,,,,,,,,,,,,,,195.89027891599108,195.89027891599108,195.89027891599108,195.89027891599108,195.89027891599108,195.89027891599108,195.89027891599108,195.89027891599108,195.89027891599108,195.89027891599108,a,1.8614090410119388,1,217,0,197.77577345000464,199.2773301859852,,,,,,,,,,,,,,,,,,,,,,,,,,,,,,,,,,,,,,,,,,,,,,,,,,,,,,,,,,,,,,,,,,,38547,2022-11-22_14h01.26.924,vts_reward_expectancy_bt_OFFLINE,2022.2.4,59.97644641382636,
1,0,0,0,0,1,0,0,triangle,circle,0,0,0,0,3,1,37,0,,,,,,,,,,,,,,,,,,,,,,,,,,,,,,,,,,,,,,,,199.7778364229889,199.7778364229889,199.7778364229889,199.7778364229889,199.7778364229889,199.7778364229889,199.7778364229889,199.7778364229889,199.7778364229889,199.7778364229889,a,1.3156355289975181,10,227,0,201.11269369898946,202.6143379219866,,,,,,,,,,,,,,,,,,,,,,,,,,,,,,,,,,,,,,,,,,,,,,,,,,,,,,,,,,,,,,,,,,,38547,2022-11-22_14h01.26.924,vts_reward_expectancy_bt_OFFLINE,2022.2.4,59.97644641382636,
1,0,0,0,0,0,1,0,triangle,hexagon,0,0,0,0,3,2,38,1,,,,,,,,,,,,,,,,,,,,,,,,,,,,,,,,,,,,,,,,203.11499314400135,203.11499314400135,203.11499314400135,203.11499314400135,203.11499314400135,203.11499314400135,203.11499314400135,203.11499314400135,203.11499314400135,203.11499314400135,l,0.9595966490160208,1,228,0,204.09961624600692,205.60121882299427,,,,,,,,,,,,,,,,,,,,,,,,,,,,,,,,,,,,,,,,,,,,,,,,,,,,,,,,,,,,,,,,,,,38547,2022-11-22_14h01.26.924,vts_reward_expectancy_bt_OFFLINE,2022.2.4,59.97644641382636,
0,0,1,0,0,0,0,1,hexagon,star,0,0,0,0,3,3,39,8,,,,,,,,,,,,,,,,,,,,,,,,,,,,,,,,,,,,,,,,206.10156676199404,206.10156676199404,206.10156676199404,206.10156676199404,206.10156676199404,206.10156676199404,206.10156676199404,206.10156676199404,206.10156676199404,206.10156676199404,l,0.32403042301302776,1,229,0,206.4518986149924,207.9535470510018,,,,,,,,,,,,,,,,,,,,,,,,,,,,,,,,,,,,,,,,,,,,,,,,,,,,,,,,,,,,,,,,,,,38547,2022-11-22_14h01.26.924,vts_reward_expectancy_bt_OFFLINE,2022.2.4,59.97644641382636,
0,0,0,1,0,0,1,0,star,hexagon,0,0,0,0,3,4,40,11,,,,,,,,,,,,,,,,,,,,,,,,,,,,,,,,,,,,,,,,208.45417459699092,208.45417459699092,208.45417459699092,208.45417459699092,208.45417459699092,208.45417459699092,208.45417459699092,208.45417459699092,208.45417459699092,208.45417459699092,a,0.9423825220146682,10,239,0,209.42183412899612,210.92339531498146,,,,,,,,,,,,,,,,,,,,,,,,,,,,,,,,,,,,,,,,,,,,,,,,,,,,,,,,,,,,,,,,,,,38547,2022-11-22_14h01.26.924,vts_reward_expectancy_bt_OFFLINE,2022.2.4,59.97644641382636,
0,0,0,1,0,1,0,0,star ,circle,0,0,0,0,3,5,41,10,,,,,,,,,,,,,,,,,,,,,,,,,,,,,,,,,,,,,,,,211.4239342789806,211.4239342789806,211.4239342789806,211.4239342789806,211.4239342789806,211.4239342789806,211.4239342789806,211.4239342789806,211.4239342789806,211.4239342789806,a,1.0431402609974612,10,249,0,212.49187960100244,213.99371334098396,,,,,,,,,,,,,,,,,,,,,,,,,,,,,,,,,,,,,,,,,,,,,,,,,,,,,,,,,,,,,,,,,,,38547,2022-11-22_14h01.26.924,vts_reward_expectancy_bt_OFFLINE,2022.2.4,59.97644641382636,
0,0,1,0,1,0,0,0,hexagon,triangle,0,0,0,0,3,6,42,6,,,,,,,,,,,,,,,,,,,,,,,,,,,,,,,,,,,,,,,,214.49413115897914,214.49413115897914,214.49413115897914,214.49413115897914,214.49413115897914,214.49413115897914,214.49413115897914,214.49413115897914,214.49413115897914,214.49413115897914,l,0.7300080530112609,1,250,0,215.24508256898844,216.74687290599104,,,,,,,,,,,,,,,,,,,,,,,,,,,,,,,,,,,,,,,,,,,,,,,,,,,,,,,,,,,,,,,,,,,38547,2022-11-22_14h01.26.924,vts_reward_expectancy_bt_OFFLINE,2022.2.4,59.97644641382636,
0,0,0,1,1,0,0,0,star,triangle,0,0,0,0,3,7,43,9,,,,,,,,,,,,,,,,,,,,,,,,,,,,,,,,,,,,,,,,217.24754170599044,217.24754170599044,217.24754170599044,217.24754170599044,217.24754170599044,217.24754170599044,217.24754170599044,217.24754170599044,217.24754170599044,217.24754170599044,a,0.49664018501061946,10,260,0,217.76426264600013,219.2661424120015,,,,,,,,,,,,,,,,,,,,,,,,,,,,,,,,,,,,,,,,,,,,,,,,,,,,,,,,,,,,,,,,,,,38547,2022-11-22_14h01.26.924,vts_reward_expectancy_bt_OFFLINE,2022.2.4,59.97644641382636,
0,1,0,0,1,0,0,0,circle,triangle,0,0,0,0,3,8,44,3,,,,,,,,,,,,,,,,,,,,,,,,,,,,,,,,,,,,,,,,219.7667021569796,219.7667021569796,219.7667021569796,219.7667021569796,219.7667021569796,219.7667021569796,219.7667021569796,219.7667021569796,219.7667021569796,219.7667021569796,a,0.5526008350134362,10,270,0,220.35066535999067,221.8522478719824,,,,,,,,,,,,,,,,,,,,,,,,,,,,,,,,,,,,,,,,,,,,,,,,,,,,,,,,,,,,,,,,,,,38547,2022-11-22_14h01.26.924,vts_reward_expectancy_bt_OFFLINE,2022.2.4,59.97644641382636,
0,1,0,0,0,0,0,1,circle,star,0,0,0,0,3,9,45,5,,,,,,,,,,,,,,,,,,,,,,,,,,,,,,,,,,,,,,,,222.3530074909795,222.3530074909795,222.3530074909795,222.3530074909795,222.3530074909795,222.3530074909795,222.3530074909795,222.3530074909795,222.3530074909795,222.3530074909795,a,0.6016112940269522,10,280,0,222.98693693999667,224.48861643899,,,,,,,,,,,,,,,,,,,,,,,,,,,,,,,,,,,,,,,,,,,,,,,,,,,,,,,,,,,,,,,,,,,38547,2022-11-22_14h01.26.924,vts_reward_expectancy_bt_OFFLINE,2022.2.4,59.97644641382636,
0,1,0,0,0,0,1,0,circle,hexagon,0,0,0,0,3,10,46,4,,,,,,,,,,,,,,,,,,,,,,,,,,,,,,,,,,,,,,,,224.98894008700154,224.98894008700154,224.98894008700154,224.98894008700154,224.98894008700154,224.98894008700154,224.98894008700154,224.98894008700154,224.98894008700154,224.98894008700154,a,0.4514942770183552,10,290,0,225.4729579029954,226.97455128000001,,,,,,,,,,,,,,,,,,,,,,,,,,,,,,,,,,,,,,,,,,,,,,,,,,,,,,,,,,,,,,,,,,,38547,2022-11-22_14h01.26.924,vts_reward_expectancy_bt_OFFLINE,2022.2.4,59.97644641382636,
0,0,1,0,0,1,0,0,hexagon,circle,0,0,0,0,3,11,47,7,,,,,,,,,,,,,,,,,,,,,,,,,,,,,,,,,,,,,,,,227.47509666299447,227.47509666299447,227.47509666299447,227.47509666299447,227.47509666299447,227.47509666299447,227.47509666299447,227.47509666299447,227.47509666299447,227.47509666299447,l,1.181947069009766,10,300,0,228.67640827500145,230.1781108189898,,,,,,,,,,,,,,,,,,,,,,,,,,,,,,,,,,,,,,,,,,,,,,,,,,,,,,,,,,,,,,,,,,,38547,2022-11-22_14h01.26.924,vts_reward_expectancy_bt_OFFLINE,2022.2.4,59.97644641382636,
0,0,1,0,0,1,0,0,hexagon,circle,1,0,1,0,0,0,0,7,,,,,,,,,,,,,,,,,,,,,,,,,,,,,,,,,,,,,,,,244.71636773098726,244.71636773098726,244.71636773098726,244.71636773098726,244.71636773098726,244.71636773098726,244.71636773098726,244.71636773098726,244.71636773098726,244.71636773098726,l,1.209623520000605,10,310,1,245.94556873998954,247.44715393899241,,,,,,,,,,,,,,,,,,,,,,,,,,,,,,,,,,,,,,,,,,,,,,,,,,,,,,,,,,,,,,,,,,,38547,2022-11-22_14h01.26.924,vts_reward_expectancy_bt_OFFLINE,2022.2.4,59.97644641382636,
1,0,0,0,0,1,0,0,triangle,circle,1,0,1,0,0,1,1,0,,,,,,,,,,,,,,,,,,,,,,,,,,,,,,,,,,,,,,,,247.9479074080009,247.9479074080009,247.9479074080009,247.9479074080009,247.9479074080009,247.9479074080009,247.9479074080009,247.9479074080009,247.9479074080009,247.9479074080009,a,1.4325696410087403,1,311,1,249.39942552600405,250.9009730249818,250.9009730249818,,,,,,,,,,,,,,,,,,,,,,,,,,,,,,,,,,,,,,,,,,,,,,,,,,,,,,,,,,,,,,,,,,38547,2022-11-22_14h01.26.924,vts_reward_expectancy_bt_OFFLINE,2022.2.4,59.97644641382636,
1,0,0,0,0,0,1,0,triangle,hexagon,1,0,1,0,0,2,2,1,,,,,,,,,,,,,,,,,,,,,,,,,,,,,,,,,,,,,,,,251.40201620498556,251.40201620498556,251.40201620498556,251.40201620498556,251.40201620498556,251.40201620498556,251.40201620498556,251.40201620498556,251.40201620498556,251.40201620498556,l,2.9721903490135446,10,321,1,254.40493588199024,255.90661379499943,,,,,,,,,,,,,,,,,,,,,,,,,,,,,,,,,,,,,,,,,,,,,,,,,,,,,,,,,,,,,,,,,,,38547,2022-11-22_14h01.26.924,vts_reward_expectancy_bt_OFFLINE,2022.2.4,59.97644641382636,
0,0,0,1,0,1,0,0,star ,circle,1,0,1,0,0,3,3,10,,,,,,,,,,,,,,,,,,,,,,,,,,,,,,,,,,,,,,,,256.4070034369943,256.4070034369943,256.4070034369943,256.4070034369943,256.4070034369943,256.4070034369943,256.4070034369943,256.4070034369943,256.4070034369943,256.4070034369943,l,1.713940398010891,10,331,1,258.1423340360052,259.64401520299725,,,,,,,,,,,,,,,,,,,,,,,,,,,,,,,,,,,,,,,,,,,,,,,,,,,,,,,,,,,,,,,,,,,38547,2022-11-22_14h01.26.924,vts_reward_expectancy_bt_OFFLINE,2022.2.4,59.97644641382636,
0,0,1,0,1,0,0,0,hexagon,triangle,1,0,1,0,0,4,4,6,,,,,,,,,,,,,,,,,,,,,,,,,,,,,,,,,,,,,,,,260.14457199399476,260.14457199399476,260.14457199399476,260.14457199399476,260.14457199399476,260.14457199399476,260.14457199399476,260.14457199399476,260.14457199399476,260.14457199399476,a,1.340967571013607,1,332,1,261.5126733710058,263.01431688299635,,,,,,,,,,,,,,,,,,,,,,,,,,,,,,,,,,,,,,,,,,,,,,,,,,,,,,,,,,,,,,,,,,,38547,2022-11-22_14h01.26.924,vts_reward_expectancy_bt_OFFLINE,2022.2.4,59.97644641382636,
0,0,1,0,0,0,0,1,hexagon,star,1,0,1,0,0,5,5,8,,,,,,,,,,,,,,,,,,,,,,,,,,,,,,,,,,,,,,,,263.51512850198196,263.51512850198196,263.51512850198196,263.51512850198196,263.51512850198196,263.51512850198196,263.51512850198196,263.51512850198196,263.51512850198196,263.51512850198196,l,1.6160258869931567,10,342,1,265.1501773489872,266.6517620199884,,,,,,,,,,,,,,,,,,,,,,,,,,,,,,,,,,,,,,,,,,,,,,,,,,,,,,,,,,,,,,,,,,,38547,2022-11-22_14h01.26.924,vts_reward_expectancy_bt_OFFLINE,2022.2.4,59.97644641382636,
0,1,0,0,0,0,0,1,circle,star,1,0,1,0,0,6,6,5,,,,,,,,,,,,,,,,,,,,,,,,,,,,,,,,,,,,,,,,267.1522837319935,267.1522837319935,267.1522837319935,267.1522837319935,267.1522837319935,267.1522837319935,267.1522837319935,267.1522837319935,267.1522837319935,267.1522837319935,a,1.0853642370202579,10,352,1,268.2702811079798,269.77167946699774,,,,,,,,,,,,,,,,,,,,,,,,,,,,,,,,,,,,,,,,,,,,,,,,,,,,,,,,,,,,,,,,,,,38547,2022-11-22_14h01.26.924,vts_reward_expectancy_bt_OFFLINE,2022.2.4,59.97644641382636,
0,0,0,1,0,0,1,0,star,hexagon,1,0,1,0,0,7,7,11,,,,,,,,,,,,,,,,,,,,,,,,,,,,,,,,,,,,,,,,270.27236519299913,270.27236519299913,270.27236519299913,270.27236519299913,270.27236519299913,270.27236519299913,270.27236519299913,270.27236519299913,270.27236519299913,270.27236519299913,l,1.7091264450282324,1,353,1,272.0076190980035,273.50920307199704,,,,,,,,,,,,,,,,,,,,,,,,,,,,,,,,,,,,,,,,,,,,,,,,,,,,,,,,,,,,,,,,,,,38547,2022-11-22_14h01.26.924,vts_reward_expectancy_bt_OFFLINE,2022.2.4,59.97644641382636,
0,1,0,0,1,0,0,0,circle,triangle,1,0,1,0,0,8,8,3,,,,,,,,,,,,,,,,,,,,,,,,,,,,,,,,,,,,,,,,274.0097574319807,274.0097574319807,274.0097574319807,274.0097574319807,274.0097574319807,274.0097574319807,274.0097574319807,274.0097574319807,274.0097574319807,274.0097574319807,a,0.6730804629914928,10,363,1,274.71102917499957,276.21236597100506,,,,,,,,,,,,,,,,,,,,,,,,,,,,,,,,,,,,,,,,,,,,,,,,,,,,,,,,,,,,,,,,,,,38547,2022-11-22_14h01.26.924,vts_reward_expectancy_bt_OFFLINE,2022.2.4,59.97644641382636,
1,0,0,0,0,0,0,1,triangle,star,1,0,1,0,0,9,9,2,,,,,,,,,,,,,,,,,,,,,,,,,,,,,,,,,,,,,,,,276.7128329999978,276.7128329999978,276.7128329999978,276.7128329999978,276.7128329999978,276.7128329999978,276.7128329999978,276.7128329999978,276.7128329999978,276.7128329999978,l,1.8612774460052606,10,373,1,278.5983625410008,280.09996002100524,,,,,,,,,,,,,,,,,,,,,,,,,,,,,,,,,,,,,,,,,,,,,,,,,,,,,,,,,,,,,,,,,,,38547,2022-11-22_14h01.26.924,vts_reward_expectancy_bt_OFFLINE,2022.2.4,59.97644641382636,
0,0,0,1,1,0,0,0,star,triangle,1,0,1,0,0,10,10,9,,,,,,,,,,,,,,,,,,,,,,,,,,,,,,,,,,,,,,,,280.60032672499074,280.60032672499074,280.60032672499074,280.60032672499074,280.60032672499074,280.60032672499074,280.60032672499074,280.60032672499074,280.60032672499074,280.60032672499074,a,1.452832821989432,10,383,1,282.08552639500704,283.58711743398453,,,,,,,,,,,,,,,,,,,,,,,,,,,,,,,,,,,,,,,,,,,,,,,,,,,,,,,,,,,,,,,,,,,38547,2022-11-22_14h01.26.924,vts_reward_expectancy_bt_OFFLINE,2022.2.4,59.97644641382636,
0,1,0,0,0,0,1,0,circle,hexagon,1,0,1,0,0,11,11,4,,,,,,,,,,,,,,,,,,,,,,,,,,,,,,,,,,,,,,,,284.0876631150022,284.0876631150022,284.0876631150022,284.0876631150022,284.0876631150022,284.0876631150022,284.0876631150022,284.0876631150022,284.0876631150022,284.0876631150022,a,0.9903644380101468,10,393,1,285.10533315700013,286.6069237589836,,,,,,,,,,,,,,,,,,,,,,,,,,,,,,,,,,,,,,,,,,,,,,,,,,,,,,,,,,,,,,,,,,,38547,2022-11-22_14h01.26.924,vts_reward_expectancy_bt_OFFLINE,2022.2.4,59.97644641382636,
0,0,0,1,1,0,0,0,star,triangle,1,0,1,0,1,0,12,9,,,,,,,,,,,,,,,,,,,,,,,,,,,,,,,,,,,,,,,,287.10759245598456,287.10759245598456,287.10759245598456,287.10759245598456,287.10759245598456,287.10759245598456,287.10759245598456,287.10759245598456,287.10759245598456,287.10759245598456,a,1.1529593660088722,1,394,1,288.2922237709863,289.79422217598767,,,,,,,,,,,,,,,,,,,,,,,,,,,,,,,,,,,,,,,,,,,,,,,,,,,,,,,,,,,,,,,,,,,38547,2022-11-22_14h01.26.924,vts_reward_expectancy_bt_OFFLINE,2022.2.4,59.97644641382636,
0,1,0,0,0,0,1,0,circle,hexagon,1,0,1,0,1,1,13,4,,,,,,,,,,,,,,,,,,,,,,,,,,,,,,,,,,,,,,,,290.2944290860032,290.2944290860032,290.2944290860032,290.2944290860032,290.2944290860032,290.2944290860032,290.2944290860032,290.2944290860032,290.2944290860032,290.2944290860032,a,0.8125080260215327,10,404,1,291.1286446909944,292.6303296769911,,,,,,,,,,,,,,,,,,,,,,,,,,,,,,,,,,,,,,,,,,,,,,,,,,,,,,,,,,,,,,,,,,,38547,2022-11-22_14h01.26.924,vts_reward_expectancy_bt_OFFLINE,2022.2.4,59.97644641382636,
1,0,0,0,0,1,0,0,triangle,circle,1,0,1,0,1,2,14,0,,,,,,,,,,,,,,,,,,,,,,,,,,,,,,,,,,,,,,,,293.1310983969888,293.1310983969888,293.1310983969888,293.1310983969888,293.1310983969888,293.1310983969888,293.1310983969888,293.1310983969888,293.1310983969888,293.1310983969888,l,0.8014272210130002,10,414,1,293.96507325800485,295.4667291229998,,,,,,,,,,,,,,,,,,,,,,,,,,,,,,,,,,,,,,,,,,,,,,,,,,,,,,,,,,,,,,,,,,,38547,2022-11-22_14h01.26.924,vts_reward_expectancy_bt_OFFLINE,2022.2.4,59.97644641382636,
1,0,0,0,0,0,0,1,triangle,star,1,0,1,0,1,3,15,2,,,,,,,,,,,,,,,,,,,,,,,,,,,,,,,,,,,,,,,,295.96740100099123,295.96740100099123,295.96740100099123,295.96740100099123,295.96740100099123,295.96740100099123,295.96740100099123,295.96740100099123,295.96740100099123,295.96740100099123,l,1.3515293150267098,10,424,1,297.335353425995,298.83716303500114,,,,,,,,,,,,,,,,,,,,,,,,,,,,,,,,,,,,,,,,,,,,,,,,,,,,,,,,,,,,,,,,,,,38547,2022-11-22_14h01.26.924,vts_reward_expectancy_bt_OFFLINE,2022.2.4,59.97644641382636,
1,0,0,0,0,0,1,0,triangle,hexagon,1,0,1,0,1,4,16,1,,,,,,,,,,,,,,,,,,,,,,,,,,,,,,,,,,,,,,,,299.3377504759992,299.3377504759992,299.3377504759992,299.3377504759992,299.3377504759992,299.3377504759992,299.3377504759992,299.3377504759992,299.3377504759992,299.3377504759992,l,1.107309521001298,1,425,1,300.4723417570058,301.97407353000017,,,,,,,,,,,,,,,,,,,,,,,,,,,,,,,,,,,,,,,,,,,,,,,,,,,,,,,,,,,,,,,,,,,38547,2022-11-22_14h01.26.924,vts_reward_expectancy_bt_OFFLINE,2022.2.4,59.97644641382636,
0,0,1,0,0,0,0,1,hexagon,star,1,0,1,0,1,5,17,8,,,,,,,,,,,,,,,,,,,,,,,,,,,,,,,,,,,,,,,,302.47452490997966,302.47452490997966,302.47452490997966,302.47452490997966,302.47452490997966,302.47452490997966,302.47452490997966,302.47452490997966,302.47452490997966,302.47452490997966,a,1.1880821490194649,1,426,1,303.6924300339888,305.19417716099997,,,,,,,,,,,,,,,,,,,,,,,,,,,,,,,,,,,,,,,,,,,,,,,,,,,,,,,,,,,,,,,,,,,38547,2022-11-22_14h01.26.924,vts_reward_expectancy_bt_OFFLINE,2022.2.4,59.97644641382636,
0,0,1,0,0,1,0,0,hexagon,circle,1,0,1,0,1,6,18,7,,,,,,,,,,,,,,,,,,,,,,,,,,,,,,,,,,,,,,,,305.6945969609951,305.6945969609951,305.6945969609951,305.6945969609951,305.6945969609951,305.6945969609951,305.6945969609951,305.6945969609951,305.6945969609951,305.6945969609951,l,0.5214947720232885,10,436,1,306.24525418897974,307.74730079600704,,,,,,,,,,,,,,,,,,,,,,,,,,,,,,,,,,,,,,,,,,,,,,,,,,,,,,,,,,,,,,,,,,,38547,2022-11-22_14h01.26.924,vts_reward_expectancy_bt_OFFLINE,2022.2.4,59.97644641382636,
0,0,0,1,0,1,0,0,star ,circle,1,0,1,0,1,7,19,10,,,,,,,,,,,,,,,,,,,,,,,,,,,,,,,,,,,,,,,,308.2476180710073,308.2476180710073,308.2476180710073,308.2476180710073,308.2476180710073,308.2476180710073,308.2476180710073,308.2476180710073,308.2476180710073,308.2476180710073,l,0.9614354569930583,1,437,1,309.23211933500716,310.7337518459826,,,,,,,,,,,,,,,,,,,,,,,,,,,,,,,,,,,,,,,,,,,,,,,,,,,,,,,,,,,,,,,,,,,38547,2022-11-22_14h01.26.924,vts_reward_expectancy_bt_OFFLINE,2022.2.4,59.97644641382636,
0,1,0,0,1,0,0,0,circle,triangle,1,0,1,0,1,8,20,3,,,,,,,,,,,,,,,,,,,,,,,,,,,,,,,,,,,,,,,,311.234257271979,311.234257271979,311.234257271979,311.234257271979,311.234257271979,311.234257271979,311.234257271979,311.234257271979,311.234257271979,311.234257271979,a,0.5732455660181586,10,447,1,311.83493670797907,313.3366557660047,,,,,,,,,,,,,,,,,,,,,,,,,,,,,,,,,,,,,,,,,,,,,,,,,,,,,,,,,,,,,,,,,,,38547,2022-11-22_14h01.26.924,vts_reward_expectancy_bt_OFFLINE,2022.2.4,59.97644641382636,
0,0,0,1,0,0,1,0,star,hexagon,1,0,1,0,1,9,21,11,,,,,,,,,,,,,,,,,,,,,,,,,,,,,,,,,,,,,,,,313.8371491970029,313.8371491970029,313.8371491970029,313.8371491970029,313.8371491970029,313.8371491970029,313.8371491970029,313.8371491970029,313.8371491970029,313.8371491970029,a,0.9857984519912861,10,457,1,314.8549652019865,316.3568416409835,,,,,,,,,,,,,,,,,,,,,,,,,,,,,,,,,,,,,,,,,,,,,,,,,,,,,,,,,,,,,,,,,,,38547,2022-11-22_14h01.26.924,vts_reward_expectancy_bt_OFFLINE,2022.2.4,59.97644641382636,
0,0,1,0,1,0,0,0,hexagon,triangle,1,0,1,0,1,10,22,6,,,,,,,,,,,,,,,,,,,,,,,,,,,,,,,,,,,,,,,,316.85742954100715,316.85742954100715,316.85742954100715,316.85742954100715,316.85742954100715,316.85742954100715,316.85742954100715,316.85742954100715,316.85742954100715,316.85742954100715,l,2.2874058049928863,1,458,1,319.1762806249899,320.67829039198114,,,,,,,,,,,,,,,,,,,,,,,,,,,,,,,,,,,,,,,,,,,,,,,,,,,,,,,,,,,,,,,,,,,38547,2022-11-22_14h01.26.924,vts_reward_expectancy_bt_OFFLINE,2022.2.4,59.97644641382636,
0,1,0,0,0,0,0,1,circle,star,1,0,1,0,1,11,23,5,,,,,,,,,,,,,,,,,,,,,,,,,,,,,,,,,,,,,,,,321.1786386629974,321.1786386629974,321.1786386629974,321.1786386629974,321.1786386629974,321.1786386629974,321.1786386629974,321.1786386629974,321.1786386629974,321.1786386629974,a,1.0135721580300014,10,468,1,322.21335952100344,323.7147984849871,,,,,,,,,,,,,,,,,,,,,,,,,,,,,,,,,,,,,,,,,,,,,,,,,,,,,,,,,,,,,,,,,,,38547,2022-11-22_14h01.26.924,vts_reward_expectancy_bt_OFFLINE,2022.2.4,59.97644641382636,
0,1,0,0,0,0,1,0,circle,hexagon,1,0,1,0,2,0,24,4,,,,,,,,,,,,,,,,,,,,,,,,,,,,,,,,,,,,,,,,324.21526148499106,324.21526148499106,324.21526148499106,324.21526148499106,324.21526148499106,324.21526148499106,324.21526148499106,324.21526148499106,324.21526148499106,324.21526148499106,a,0.710130699997535,10,478,1,324.94950083698495,326.45101051797974,,,,,,,,,,,,,,,,,,,,,,,,,,,,,,,,,,,,,,,,,,,,,,,,,,,,,,,,,,,,,,,,,,,38547,2022-11-22_14h01.26.924,vts_reward_expectancy_bt_OFFLINE,2022.2.4,59.97644641382636,
0,0,1,0,0,1,0,0,hexagon,circle,1,0,1,0,2,1,25,7,,,,,,,,,,,,,,,,,,,,,,,,,,,,,,,,,,,,,,,,326.9515198789886,326.9515198789886,326.9515198789886,326.9515198789886,326.9515198789886,326.9515198789886,326.9515198789886,326.9515198789886,326.9515198789886,326.9515198789886,l,0.6298497260140721,10,488,1,327.60230365698226,329.1037798599864,,,,,,,,,,,,,,,,,,,,,,,,,,,,,,,,,,,,,,,,,,,,,,,,,,,,,,,,,,,,,,,,,,,38547,2022-11-22_14h01.26.924,vts_reward_expectancy_bt_OFFLINE,2022.2.4,59.97644641382636,
0,0,1,0,0,0,0,1,hexagon,star,1,0,1,0,2,2,26,8,,,,,,,,,,,,,,,,,,,,,,,,,,,,,,,,,,,,,,,,329.60454792599194,329.60454792599194,329.60454792599194,329.60454792599194,329.60454792599194,329.60454792599194,329.60454792599194,329.60454792599194,329.60454792599194,329.60454792599194,a,1.8122378480329644,10,498,1,331.43980879499577,332.94148779599345,,,,,,,,,,,,,,,,,,,,,,,,,,,,,,,,,,,,,,,,,,,,,,,,,,,,,,,,,,,,,,,,,,,38547,2022-11-22_14h01.26.924,vts_reward_expectancy_bt_OFFLINE,2022.2.4,59.97644641382636,
1,0,0,0,0,1,0,0,triangle,circle,1,0,1,0,2,3,27,0,,,,,,,,,,,,,,,,,,,,,,,,,,,,,,,,,,,,,,,,333.44242747098906,333.44242747098906,333.44242747098906,333.44242747098906,333.44242747098906,333.44242747098906,333.44242747098906,333.44242747098906,333.44242747098906,333.44242747098906,l,1.9697274609934539,10,508,1,335.44447282198234,336.9459562819975,,,,,,,,,,,,,,,,,,,,,,,,,,,,,,,,,,,,,,,,,,,,,,,,,,,,,,,,,,,,,,,,,,,38547,2022-11-22_14h01.26.924,vts_reward_expectancy_bt_OFFLINE,2022.2.4,59.97644641382636,
0,0,0,1,1,0,0,0,star,triangle,1,0,1,0,2,4,28,9,,,,,,,,,,,,,,,,,,,,,,,,,,,,,,,,,,,,,,,,337.4464348079928,337.4464348079928,337.4464348079928,337.4464348079928,337.4464348079928,337.4464348079928,337.4464348079928,337.4464348079928,337.4464348079928,337.4464348079928,a,1.3282125930127222,1,509,1,338.7980905250006,340.2995781819918,,,,,,,,,,,,,,,,,,,,,,,,,,,,,,,,,,,,,,,,,,,,,,,,,,,,,,,,,,,,,,,,,,,38547,2022-11-22_14h01.26.924,vts_reward_expectancy_bt_OFFLINE,2022.2.4,59.97644641382636,
0,0,1,0,1,0,0,0,hexagon,triangle,1,0,1,0,2,5,29,6,,,,,,,,,,,,,,,,,,,,,,,,,,,,,,,,,,,,,,,,340.8001780420018,340.8001780420018,340.8001780420018,340.8001780420018,340.8001780420018,340.8001780420018,340.8001780420018,340.8001780420018,340.8001780420018,340.8001780420018,a,2.2835659539850894,1,510,1,343.10294420900755,344.60432218798087,,,,,,,,,,,,,,,,,,,,,,,,,,,,,,,,,,,,,,,,,,,,,,,,,,,,,,,,,,,,,,,,,,,38547,2022-11-22_14h01.26.924,vts_reward_expectancy_bt_OFFLINE,2022.2.4,59.97644641382636,
0,1,0,0,1,0,0,0,circle,triangle,1,0,1,0,2,6,30,3,,,,,,,,,,,,,,,,,,,,,,,,,,,,,,,,,,,,,,,,345.105036317982,345.105036317982,345.105036317982,345.105036317982,345.105036317982,345.105036317982,345.105036317982,345.105036317982,345.105036317982,345.105036317982,a,0.6688412430230528,10,520,1,345.80568915998447,347.30743682497996,,,,,,,,,,,,,,,,,,,,,,,,,,,,,,,,,,,,,,,,,,,,,,,,,,,,,,,,,,,,,,,,,,,38547,2022-11-22_14h01.26.924,vts_reward_expectancy_bt_OFFLINE,2022.2.4,59.97644641382636,
0,0,0,1,0,1,0,0,star ,circle,1,0,1,0,2,7,31,10,,,,,,,,,,,,,,,,,,,,,,,,,,,,,,,,,,,,,,,,347.80792556199594,347.80792556199594,347.80792556199594,347.80792556199594,347.80792556199594,347.80792556199594,347.80792556199594,347.80792556199594,347.80792556199594,347.80792556199594,a,0.5067502630117815,10,530,1,348.3423032909923,349.84362350200536,,,,,,,,,,,,,,,,,,,,,,,,,,,,,,,,,,,,,,,,,,,,,,,,,,,,,,,,,,,,,,,,,,,38547,2022-11-22_14h01.26.924,vts_reward_expectancy_bt_OFFLINE,2022.2.4,59.97644641382636,
0,1,0,0,0,0,0,1,circle,star,1,0,1,0,2,8,32,5,,,,,,,,,,,,,,,,,,,,,,,,,,,,,,,,,,,,,,,,350.3440883680014,350.3440883680014,350.3440883680014,350.3440883680014,350.3440883680014,350.3440883680014,350.3440883680014,350.3440883680014,350.3440883680014,350.3440883680014,a,1.0653669350140262,10,540,1,351.4284900749917,352.9302130669821,,,,,,,,,,,,,,,,,,,,,,,,,,,,,,,,,,,,,,,,,,,,,,,,,,,,,,,,,,,,,,,,,,,38547,2022-11-22_14h01.26.924,vts_reward_expectancy_bt_OFFLINE,2022.2.4,59.97644641382636,
0,0,0,1,0,0,1,0,star,hexagon,1,0,1,0,2,9,33,11,,,,,,,,,,,,,,,,,,,,,,,,,,,,,,,,,,,,,,,,353.43070601898944,353.43070601898944,353.43070601898944,353.43070601898944,353.43070601898944,353.43070601898944,353.43070601898944,353.43070601898944,353.43070601898944,353.43070601898944,a,0.9035768579924479,10,550,1,354.3649286929867,355.86667843698524,,,,,,,,,,,,,,,,,,,,,,,,,,,,,,,,,,,,,,,,,,,,,,,,,,,,,,,,,,,,,,,,,,,38547,2022-11-22_14h01.26.924,vts_reward_expectancy_bt_OFFLINE,2022.2.4,59.97644641382636,
1,0,0,0,0,0,0,1,triangle,star,1,0,1,0,2,10,34,2,,,,,,,,,,,,,,,,,,,,,,,,,,,,,,,,,,,,,,,,356.3672331989801,356.3672331989801,356.3672331989801,356.3672331989801,356.3672331989801,356.3672331989801,356.3672331989801,356.3672331989801,356.3672331989801,356.3672331989801,a,1.736620561016025,1,551,1,358.1359061480034,359.63763588599977,,,,,,,,,,,,,,,,,,,,,,,,,,,,,,,,,,,,,,,,,,,,,,,,,,,,,,,,,,,,,,,,,,,38547,2022-11-22_14h01.26.924,vts_reward_expectancy_bt_OFFLINE,2022.2.4,59.97644641382636,
1,0,0,0,0,0,1,0,triangle,hexagon,1,0,1,0,2,11,35,1,,,,,,,,,,,,,,,,,,,,,,,,,,,,,,,,,,,,,,,,360.1381672970019,360.1381672970019,360.1381672970019,360.1381672970019,360.1381672970019,360.1381672970019,360.1381672970019,360.1381672970019,360.1381672970019,360.1381672970019,a,1.5084198390250094,1,552,1,361.67337196698645,363.17487230399274,,,,,,,,,,,,,,,,,,,,,,,,,,,,,,,,,,,,,,,,,,,,,,,,,,,,,,,,,,,,,,,,,,,38547,2022-11-22_14h01.26.924,vts_reward_expectancy_bt_OFFLINE,2022.2.4,59.97644641382636,
0,0,0,1,1,0,0,0,star,triangle,1,0,1,0,3,0,36,9,,,,,,,,,,,,,,,,,,,,,,,,,,,,,,,,,,,,,,,,363.6753391599923,363.6753391599923,363.6753391599923,363.6753391599923,363.6753391599923,363.6753391599923,363.6753391599923,363.6753391599923,363.6753391599923,363.6753391599923,a,0.5359817900171038,10,562,1,364.24266814198927,365.7445006170019,,,,,,,,,,,,,,,,,,,,,,,,,,,,,,,,,,,,,,,,,,,,,,,,,,,,,,,,,,,,,,,,,,,38547,2022-11-22_14h01.26.924,vts_reward_expectancy_bt_OFFLINE,2022.2.4,59.97644641382636,
1,0,0,0,0,0,0,1,triangle,star,1,0,1,0,3,1,37,2,,,,,,,,,,,,,,,,,,,,,,,,,,,,,,,,,,,,,,,,366.244962872006,366.244962872006,366.244962872006,366.244962872006,366.244962872006,366.244962872006,366.244962872006,366.244962872006,366.244962872006,366.244962872006,l,1.7913687569962349,10,572,1,368.0638552949822,369.5652747080021,,,,,,,,,,,,,,,,,,,,,,,,,,,,,,,,,,,,,,,,,,,,,,,,,,,,,,,,,,,,,,,,,,,38547,2022-11-22_14h01.26.924,vts_reward_expectancy_bt_OFFLINE,2022.2.4,59.97644641382636,
0,0,0,1,0,0,1,0,star,hexagon,1,0,1,0,3,2,38,11,,,,,,,,,,,,,,,,,,,,,,,,,,,,,,,,,,,,,,,,370.06585628099856,370.06585628099856,370.06585628099856,370.06585628099856,370.06585628099856,370.06585628099856,370.06585628099856,370.06585628099856,370.06585628099856,370.06585628099856,a,0.7281919520173687,10,582,1,370.81665182398865,372.3183200159983,,,,,,,,,,,,,,,,,,,,,,,,,,,,,,,,,,,,,,,,,,,,,,,,,,,,,,,,,,,,,,,,,,,38547,2022-11-22_14h01.26.924,vts_reward_expectancy_bt_OFFLINE,2022.2.4,59.97644641382636,
0,0,1,0,1,0,0,0,hexagon,triangle,1,0,1,0,3,3,39,6,,,,,,,,,,,,,,,,,,,,,,,,,,,,,,,,,,,,,,,,372.8189432309882,372.8189432309882,372.8189432309882,372.8189432309882,372.8189432309882,372.8189432309882,372.8189432309882,372.8189432309882,372.8189432309882,372.8189432309882,a,1.0457759670098312,1,583,1,373.8867710369814,375.38839803499286,,,,,,,,,,,,,,,,,,,,,,,,,,,,,,,,,,,,,,,,,,,,,,,,,,,,,,,,,,,,,,,,,,,38547,2022-11-22_14h01.26.924,vts_reward_expectancy_bt_OFFLINE,2022.2.4,59.97644641382636,
0,1,0,0,1,0,0,0,circle,triangle,1,0,1,0,3,4,40,3,,,,,,,,,,,,,,,,,,,,,,,,,,,,,,,,,,,,,,,,375.8888520189794,375.8888520189794,375.8888520189794,375.8888520189794,375.8888520189794,375.8888520189794,375.8888520189794,375.8888520189794,375.8888520189794,375.8888520189794,l,0.7883794400258921,1,584,1,376.70650621899404,378.2081118839851,,,,,,,,,,,,,,,,,,,,,,,,,,,,,,,,,,,,,,,,,,,,,,,,,,,,,,,,,,,,,,,,,,,38547,2022-11-22_14h01.26.924,vts_reward_expectancy_bt_OFFLINE,2022.2.4,59.97644641382636,
0,0,0,1,0,1,0,0,star ,circle,1,0,1,0,3,5,41,10,,,,,,,,,,,,,,,,,,,,,,,,,,,,,,,,,,,,,,,,378.7085508859891,378.7085508859891,378.7085508859891,378.7085508859891,378.7085508859891,378.7085508859891,378.7085508859891,378.7085508859891,378.7085508859891,378.7085508859891,a,0.7594370240112767,1,585,1,379.49312345698127,380.9945296960068,,,,,,,,,,,,,,,,,,,,,,,,,,,,,,,,,,,,,,,,,,,,,,,,,,,,,,,,,,,,,,,,,,,38547,2022-11-22_14h01.26.924,vts_reward_expectancy_bt_OFFLINE,2022.2.4,59.97644641382636,
1,0,0,0,0,0,1,0,triangle,hexagon,1,0,1,0,3,6,42,1,,,,,,,,,,,,,,,,,,,,,,,,,,,,,,,,,,,,,,,,381.4949641349958,381.4949641349958,381.4949641349958,381.4949641349958,381.4949641349958,381.4949641349958,381.4949641349958,381.4949641349958,381.4949641349958,381.4949641349958,a,1.8420324159960728,1,586,1,383.363766984985,384.8654143519816,,,,,,,,,,,,,,,,,,,,,,,,,,,,,,,,,,,,,,,,,,,,,,,,,,,,,,,,,,,,,,,,,,,38547,2022-11-22_14h01.26.924,vts_reward_expectancy_bt_OFFLINE,2022.2.4,59.97644641382636,
1,0,0,0,0,1,0,0,triangle,circle,1,0,1,0,3,7,43,0,,,,,,,,,,,,,,,,,,,,,,,,,,,,,,,,,,,,,,,,385.3659912139992,385.3659912139992,385.3659912139992,385.3659912139992,385.3659912139992,385.3659912139992,385.3659912139992,385.3659912139992,385.3659912139992,385.3659912139992,l,1.178151311003603,10,596,1,386.56725951097906,388.0689641989884,,,,,,,,,,,,,,,,,,,,,,,,,,,,,,,,,,,,,,,,,,,,,,,,,,,,,,,,,,,,,,,,,,,38547,2022-11-22_14h01.26.924,vts_reward_expectancy_bt_OFFLINE,2022.2.4,59.97644641382636,
0,0,1,0,0,0,0,1,hexagon,star,1,0,1,0,3,8,44,8,,,,,,,,,,,,,,,,,,,,,,,,,,,,,,,,,,,,,,,,388.56967028899817,388.56967028899817,388.56967028899817,388.56967028899817,388.56967028899817,388.56967028899817,388.56967028899817,388.56967028899817,388.56967028899817,388.56967028899817,a,1.652720568003133,1,597,1,390.2548160759907,391.75701242798823,,,,,,,,,,,,,,,,,,,,,,,,,,,,,,,,,,,,,,,,,,,,,,,,,,,,,,,,,,,,,,,,,,,38547,2022-11-22_14h01.26.924,vts_reward_expectancy_bt_OFFLINE,2022.2.4,59.97644641382636,
0,1,0,0,0,0,0,1,circle,star,1,0,1,0,3,9,45,5,,,,,,,,,,,,,,,,,,,,,,,,,,,,,,,,,,,,,,,,392.2571378480061,392.2571378480061,392.2571378480061,392.2571378480061,392.2571378480061,392.2571378480061,392.2571378480061,392.2571378480061,392.2571378480061,392.2571378480061,a,0.5187363229924813,1,598,1,392.8075715290033,394.3089977769996,,,,,,,,,,,,,,,,,,,,,,,,,,,,,,,,,,,,,,,,,,,,,,,,,,,,,,,,,,,,,,,,,,,38547,2022-11-22_14h01.26.924,vts_reward_expectancy_bt_OFFLINE,2022.2.4,59.97644641382636,
0,0,1,0,0,1,0,0,hexagon,circle,1,0,1,0,3,10,46,7,,,,,,,,,,,,,,,,,,,,,,,,,,,,,,,,,,,,,,,,394.8096299470053,394.8096299470053,394.8096299470053,394.8096299470053,394.8096299470053,394.8096299470053,394.8096299470053,394.8096299470053,394.8096299470053,394.8096299470053,l,0.5094096690008882,10,608,1,395.34344132000115,396.8454555950011,,,,,,,,,,,,,,,,,,,,,,,,,,,,,,,,,,,,,,,,,,,,,,,,,,,,,,,,,,,,,,,,,,,38547,2022-11-22_14h01.26.924,vts_reward_expectancy_bt_OFFLINE,2022.2.4,59.97644641382636,
0,1,0,0,0,0,1,0,circle,hexagon,1,0,1,0,3,11,47,4,,,,,,,,,,,,,,,,,,,,,,,,,,,,,,,,,,,,,,,,397.3459969259857,397.3459969259857,397.3459969259857,397.3459969259857,397.3459969259857,397.3459969259857,397.3459969259857,397.3459969259857,397.3459969259857,397.3459969259857,a,0.8301677670096979,1,609,1,398.1968246969918,399.698628979997,,,,,,,,,,,,,,,,,,,,,,,,,,,,,,,,,,,,,,,,,,,,,,,,,,,,,,,,,,,,,,,,,,,38547,2022-11-22_14h01.26.924,vts_reward_expectancy_bt_OFFLINE,2022.2.4,59.97644641382636,
0,0,1,0,1,0,0,0,hexagon,triangle,2,0,2,0,0,0,0,6,,,,,,,,,,,,,,,,,,,,,,,,,,,,,,,,,,,,,,,,422.14529610497993,422.14529610497993,422.14529610497993,422.14529610497993,422.14529610497993,422.14529610497993,422.14529610497993,422.14529610497993,422.14529610497993,422.14529610497993,l,1.5470583920250647,1,610,2,423.72491758299293,425.226713526994,,,,,,,,,,,,,,,,,,,,,,,,,,,,,,,,,,,,,,,,,,,,,,,,,,,,,,,,,,,,,,,,,,,38547,2022-11-22_14h01.26.924,vts_reward_expectancy_bt_OFFLINE,2022.2.4,59.97644641382636,
1,0,0,0,0,1,0,0,triangle,circle,2,0,2,0,0,1,1,0,,,,,,,,,,,,,,,,,,,,,,,,,,,,,,,,,,,,,,,,425.7272803240048,425.7272803240048,425.7272803240048,425.7272803240048,425.7272803240048,425.7272803240048,425.7272803240048,425.7272803240048,425.7272803240048,425.7272803240048,a,0.4967175110068638,1,611,2,426.2442337269895,427.745941975998,,,,,,,,,,,,,,,,,,,,,,,,,,,,,,,,,,,,,,,,,,,,,,,,,,,,,,,,,,,,,,,,,,,38547,2022-11-22_14h01.26.924,vts_reward_expectancy_bt_OFFLINE,2022.2.4,59.97644641382636,
0,1,0,0,1,0,0,0,circle,triangle,2,0,2,0,0,2,2,3,,,,,,,,,,,,,,,,,,,,,,,,,,,,,,,,,,,,,,,,428.2465026099817,428.2465026099817,428.2465026099817,428.2465026099817,428.2465026099817,428.2465026099817,428.2465026099817,428.2465026099817,428.2465026099817,428.2465026099817,a,0.6552354209998157,1,612,2,428.93065245100297,430.43242615798954,,,,,,,,,,,,,,,,,,,,,,,,,,,,,,,,,,,,,,,,,,,,,,,,,,,,,,,,,,,,,,,,,,,38547,2022-11-22_14h01.26.924,vts_reward_expectancy_bt_OFFLINE,2022.2.4,59.97644641382636,
0,1,0,0,0,0,0,1,circle,star,2,0,2,0,0,3,3,5,,,,,,,,,,,,,,,,,,,,,,,,,,,,,,,,,,,,,,,,430.93311392498435,430.93311392498435,430.93311392498435,430.93311392498435,430.93311392498435,430.93311392498435,430.93311392498435,430.93311392498435,430.93311392498435,430.93311392498435,l,0.27418818400474265,10,622,2,431.23331532700104,432.73486443498405,,,,,,,,,,,,,,,,,,,,,,,,,,,,,,,,,,,,,,,,,,,,,,,,,,,,,,,,,,,,,,,,,,,38547,2022-11-22_14h01.26.924,vts_reward_expectancy_bt_OFFLINE,2022.2.4,59.97644641382636,
1,0,0,0,0,0,0,1,triangle,star,2,0,2,0,0,4,4,2,,,,,,,,,,,,,,,,,,,,,,,,,,,,,,,,,,,,,,,,433.23547494699596,433.23547494699596,433.23547494699596,433.23547494699596,433.23547494699596,433.23547494699596,433.23547494699596,433.23547494699596,433.23547494699596,433.23547494699596,l,0.8294614189944696,1,623,2,434.0862264839816,435.5879439160053,,,,,,,,,,,,,,,,,,,,,,,,,,,,,,,,,,,,,,,,,,,,,,,,,,,,,,,,,,,,,,,,,,,38547,2022-11-22_14h01.26.924,vts_reward_expectancy_bt_OFFLINE,2022.2.4,59.97644641382636,
0,0,0,1,0,1,0,0,star ,circle,2,0,2,0,0,5,5,10,,,,,,,,,,,,,,,,,,,,,,,,,,,,,,,,,,,,,,,,436.0884973589855,436.0884973589855,436.0884973589855,436.0884973589855,436.0884973589855,436.0884973589855,436.0884973589855,436.0884973589855,436.0884973589855,436.0884973589855,l,0.7907017550314777,10,633,2,436.9059723879909,438.4077937399852,,,,,,,,,,,,,,,,,,,,,,,,,,,,,,,,,,,,,,,,,,,,,,,,,,,,,,,,,,,,,,,,,,,38547,2022-11-22_14h01.26.924,vts_reward_expectancy_bt_OFFLINE,2022.2.4,59.97644641382636,
0,0,1,0,0,0,0,1,hexagon,star,2,0,2,0,0,6,6,8,,,,,,,,,,,,,,,,,,,,,,,,,,,,,,,,,,,,,,,,438.9083104149904,438.9083104149904,438.9083104149904,438.9083104149904,438.9083104149904,438.9083104149904,438.9083104149904,438.9083104149904,438.9083104149904,438.9083104149904,l,0.8616896249877755,10,643,2,439.7925887159945,441.2941508000076,,,,,,,,,,,,,,,,,,,,,,,,,,,,,,,,,,,,,,,,,,,,,,,,,,,,,,,,,,,,,,,,,,,38547,2022-11-22_14h01.26.924,vts_reward_expectancy_bt_OFFLINE,2022.2.4,59.97644641382636,
1,0,0,0,0,0,1,0,triangle,hexagon,2,0,2,0,0,7,7,1,,,,,,,,,,,,,,,,,,,,,,,,,,,,,,,,,,,,,,,,441.7948960149952,441.7948960149952,441.7948960149952,441.7948960149952,441.7948960149952,441.7948960149952,441.7948960149952,441.7948960149952,441.7948960149952,441.7948960149952,a,0.40384200401604176,1,644,2,442.22855682100635,443.7305061669904,,,,,,,,,,,,,,,,,,,,,,,,,,,,,,,,,,,,,,,,,,,,,,,,,,,,,,,,,,,,,,,,,,,38547,2022-11-22_14h01.26.924,vts_reward_expectancy_bt_OFFLINE,2022.2.4,59.97644641382636,
0,1,0,0,0,0,1,0,circle,hexagon,2,0,2,0,0,8,8,4,,,,,,,,,,,,,,,,,,,,,,,,,,,,,,,,,,,,,,,,444.23106535497936,444.23106535497936,444.23106535497936,444.23106535497936,444.23106535497936,444.23106535497936,444.23106535497936,444.23106535497936,444.23106535497936,444.23106535497936,a,0.5107555400172714,10,654,2,444.76477465897915,446.26640462499927,,,,,,,,,,,,,,,,,,,,,,,,,,,,,,,,,,,,,,,,,,,,,,,,,,,,,,,,,,,,,,,,,,,38547,2022-11-22_14h01.26.924,vts_reward_expectancy_bt_OFFLINE,2022.2.4,59.97644641382636,
0,0,0,1,0,0,1,0,star,hexagon,2,0,2,0,0,9,9,11,,,,,,,,,,,,,,,,,,,,,,,,,,,,,,,,,,,,,,,,446.7670267109934,446.7670267109934,446.7670267109934,446.7670267109934,446.7670267109934,446.7670267109934,446.7670267109934,446.7670267109934,446.7670267109934,446.7670267109934,l,0.6074622879968956,1,655,2,447.4012667789939,448.90277166099986,,,,,,,,,,,,,,,,,,,,,,,,,,,,,,,,,,,,,,,,,,,,,,,,,,,,,,,,,,,,,,,,,,,38547,2022-11-22_14h01.26.924,vts_reward_expectancy_bt_OFFLINE,2022.2.4,59.97644641382636,
0,0,0,1,1,0,0,0,star,triangle,2,0,2,0,0,10,10,9,,,,,,,,,,,,,,,,,,,,,,,,,,,,,,,,,,,,,,,,449.4032041259925,449.4032041259925,449.4032041259925,449.4032041259925,449.4032041259925,449.4032041259925,449.4032041259925,449.4032041259925,449.4032041259925,449.4032041259925,l,0.4913174130197149,10,665,2,449.9206423519936,451.42195840599015,,,,,,,,,,,,,,,,,,,,,,,,,,,,,,,,,,,,,,,,,,,,,,,,,,,,,,,,,,,,,,,,,,,38547,2022-11-22_14h01.26.924,vts_reward_expectancy_bt_OFFLINE,2022.2.4,59.97644641382636,
0,0,1,0,0,1,0,0,hexagon,circle,2,0,2,0,0,11,11,7,,,,,,,,,,,,,,,,,,,,,,,,,,,,,,,,,,,,,,,,451.92252044100314,451.92252044100314,451.92252044100314,451.92252044100314,451.92252044100314,451.92252044100314,451.92252044100314,451.92252044100314,451.92252044100314,451.92252044100314,l,0.6163229930098169,10,675,2,452.55677954800194,454.05834337699343,,,,,,,,,,,,,,,,,,,,,,,,,,,,,,,,,,,,,,,,,,,,,,,,,,,,,,,,,,,,,,,,,,,38547,2022-11-22_14h01.26.924,vts_reward_expectancy_bt_OFFLINE,2022.2.4,59.97644641382636,
0,1,0,0,0,0,1,0,circle,hexagon,2,0,2,0,1,0,12,4,,,,,,,,,,,,,,,,,,,,,,,,,,,,,,,,,,,,,,,,454.5590236519929,454.5590236519929,454.5590236519929,454.5590236519929,454.5590236519929,454.5590236519929,454.5590236519929,454.5590236519929,454.5590236519929,454.5590236519929,a,0.3186585869989358,1,676,2,454.9096060869924,456.4112370759831,,,,,,,,,,,,,,,,,,,,,,,,,,,,,,,,,,,,,,,,,,,,,,,,,,,,,,,,,,,,,,,,,,,38547,2022-11-22_14h01.26.924,vts_reward_expectancy_bt_OFFLINE,2022.2.4,59.97644641382636,
0,1,0,0,0,0,0,1,circle,star,2,0,2,0,1,1,13,5,,,,,,,,,,,,,,,,,,,,,,,,,,,,,,,,,,,,,,,,456.91188374799094,456.91188374799094,456.91188374799094,456.91188374799094,456.91188374799094,456.91188374799094,456.91188374799094,456.91188374799094,456.91188374799094,456.91188374799094,l,0.3175747139903251,10,686,2,457.2620327420009,458.76354949898086,,,,,,,,,,,,,,,,,,,,,,,,,,,,,,,,,,,,,,,,,,,,,,,,,,,,,,,,,,,,,,,,,,,38547,2022-11-22_14h01.26.924,vts_reward_expectancy_bt_OFFLINE,2022.2.4,59.97644641382636,
0,0,0,1,0,1,0,0,star ,circle,2,0,2,0,1,2,14,10,,,,,,,,,,,,,,,,,,,,,,,,,,,,,,,,,,,,,,,,459.2643175929843,459.2643175929843,459.2643175929843,459.2643175929843,459.2643175929843,459.2643175929843,459.2643175929843,459.2643175929843,459.2643175929843,459.2643175929843,l,0.4073295049893204,10,696,2,459.6980080700014,461.19954212900484,,,,,,,,,,,,,,,,,,,,,,,,,,,,,,,,,,,,,,,,,,,,,,,,,,,,,,,,,,,,,,,,,,,38547,2022-11-22_14h01.26.924,vts_reward_expectancy_bt_OFFLINE,2022.2.4,59.97644641382636,
0,0,1,0,0,1,0,0,hexagon,circle,2,0,2,0,1,3,15,7,,,,,,,,,,,,,,,,,,,,,,,,,,,,,,,,,,,,,,,,461.700161811983,461.700161811983,461.700161811983,461.700161811983,461.700161811983,461.700161811983,461.700161811983,461.700161811983,461.700161811983,461.700161811983,a,0.23469824300264008,10,706,2,461.9671564169985,463.4691519489861,,,,,,,,,,,,,,,,,,,,,,,,,,,,,,,,,,,,,,,,,,,,,,,,,,,,,,,,,,,,,,,,,,,38547,2022-11-22_14h01.26.924,vts_reward_expectancy_bt_OFFLINE,2022.2.4,59.97644641382636,
1,0,0,0,0,0,1,0,triangle,hexagon,2,0,2,0,1,4,16,1,,,,,,,,,,,,,,,,,,,,,,,,,,,,,,,,,,,,,,,,463.96953252798994,463.96953252798994,463.96953252798994,463.96953252798994,463.96953252798994,463.96953252798994,463.96953252798994,463.96953252798994,463.96953252798994,463.96953252798994,a,0.7079737629974261,10,716,2,464.7036722699995,466.2050470429822,,,,,,,,,,,,,,,,,,,,,,,,,,,,,,,,,,,,,,,,,,,,,,,,,,,,,,,,,,,,,,,,,,,38547,2022-11-22_14h01.26.924,vts_reward_expectancy_bt_OFFLINE,2022.2.4,59.97644641382636,
0,0,0,1,1,0,0,0,star,triangle,2,0,2,0,1,5,17,9,,,,,,,,,,,,,,,,,,,,,,,,,,,,,,,,,,,,,,,,466.7055906679889,466.7055906679889,466.7055906679889,466.7055906679889,466.7055906679889,466.7055906679889,466.7055906679889,466.7055906679889,466.7055906679889,466.7055906679889,l,0.4916832970047835,10,726,2,467.22303791099694,468.72472017098335,,,,,,,,,,,,,,,,,,,,,,,,,,,,,,,,,,,,,,,,,,,,,,,,,,,,,,,,,,,,,,,,,,,38547,2022-11-22_14h01.26.924,vts_reward_expectancy_bt_OFFLINE,2022.2.4,59.97644641382636,
1,0,0,0,0,0,0,1,triangle,star,2,0,2,0,1,6,18,2,,,,,,,,,,,,,,,,,,,,,,,,,,,,,,,,,,,,,,,,469.2250998579839,469.2250998579839,469.2250998579839,469.2250998579839,469.2250998579839,469.2250998579839,469.2250998579839,469.2250998579839,469.2250998579839,469.2250998579839,a,0.7618251210078597,1,727,2,470.0094568209897,471.51121197798057,,,,,,,,,,,,,,,,,,,,,,,,,,,,,,,,,,,,,,,,,,,,,,,,,,,,,,,,,,,,,,,,,,,38547,2022-11-22_14h01.26.924,vts_reward_expectancy_bt_OFFLINE,2022.2.4,59.97644641382636,
0,0,0,1,0,0,1,0,star,hexagon,2,0,2,0,1,7,19,11,,,,,,,,,,,,,,,,,,,,,,,,,,,,,,,,,,,,,,,,472.01186514200526,472.01186514200526,472.01186514200526,472.01186514200526,472.01186514200526,472.01186514200526,472.01186514200526,472.01186514200526,472.01186514200526,472.01186514200526,a,0.7200613220047671,10,737,2,472.76233203097945,474.2639547949948,,,,,,,,,,,,,,,,,,,,,,,,,,,,,,,,,,,,,,,,,,,,,,,,,,,,,,,,,,,,,,,,,,,38547,2022-11-22_14h01.26.924,vts_reward_expectancy_bt_OFFLINE,2022.2.4,59.97644641382636,
0,1,0,0,1,0,0,0,circle,triangle,2,0,2,0,1,8,20,3,,,,,,,,,,,,,,,,,,,,,,,,,,,,,,,,,,,,,,,,474.76455161499325,474.76455161499325,474.76455161499325,474.76455161499325,474.76455161499325,474.76455161499325,474.76455161499325,474.76455161499325,474.76455161499325,474.76455161499325,a,0.30786112500936724,10,747,2,475.09814385999925,476.5998497949913,,,,,,,,,,,,,,,,,,,,,,,,,,,,,,,,,,,,,,,,,,,,,,,,,,,,,,,,,,,,,,,,,,,38547,2022-11-22_14h01.26.924,vts_reward_expectancy_bt_OFFLINE,2022.2.4,59.97644641382636,
0,0,1,0,0,0,0,1,hexagon,star,2,0,2,0,1,9,21,8,,,,,,,,,,,,,,,,,,,,,,,,,,,,,,,,,,,,,,,,477.1004941529827,477.1004941529827,477.1004941529827,477.1004941529827,477.1004941529827,477.1004941529827,477.1004941529827,477.1004941529827,477.1004941529827,477.1004941529827,l,0.3013500229862984,10,757,2,477.4342041029886,478.93592041698867,,,,,,,,,,,,,,,,,,,,,,,,,,,,,,,,,,,,,,,,,,,,,,,,,,,,,,,,,,,,,,,,,,,38547,2022-11-22_14h01.26.924,vts_reward_expectancy_bt_OFFLINE,2022.2.4,59.97644641382636,
1,0,0,0,0,1,0,0,triangle,circle,2,0,2,0,1,10,22,0,,,,,,,,,,,,,,,,,,,,,,,,,,,,,,,,,,,,,,,,479.43666260998,479.43666260998,479.43666260998,479.43666260998,479.43666260998,479.43666260998,479.43666260998,479.43666260998,479.43666260998,479.43666260998,l,0.27270364001742564,10,767,2,479.73686282199924,481.23840395198204,,,,,,,,,,,,,,,,,,,,,,,,,,,,,,,,,,,,,,,,,,,,,,,,,,,,,,,,,,,,,,,,,,,38547,2022-11-22_14h01.26.924,vts_reward_expectancy_bt_OFFLINE,2022.2.4,59.97644641382636,
0,0,1,0,1,0,0,0,hexagon,triangle,2,0,2,0,1,11,23,6,,,,,,,,,,,,,,,,,,,,,,,,,,,,,,,,,,,,,,,,481.7390027749934,481.7390027749934,481.7390027749934,481.7390027749934,481.7390027749934,481.7390027749934,481.7390027749934,481.7390027749934,481.7390027749934,481.7390027749934,a,0.2856296390236821,1,768,2,482.0559770450054,483.55762414398487,,,,,,,,,,,,,,,,,,,,,,,,,,,,,,,,,,,,,,,,,,,,,,,,,,,,,,,,,,,,,,,,,,,38547,2022-11-22_14h01.26.924,vts_reward_expectancy_bt_OFFLINE,2022.2.4,59.97644641382636,
1,0,0,0,0,0,1,0,triangle,hexagon,2,0,2,0,2,0,24,1,,,,,,,,,,,,,,,,,,,,,,,,,,,,,,,,,,,,,,,,484.05830141398474,484.05830141398474,484.05830141398474,484.05830141398474,484.05830141398474,484.05830141398474,484.05830141398474,484.05830141398474,484.05830141398474,484.05830141398474,a,0.28449823599657975,1,769,2,484.37523297200096,485.87683760299115,,,,,,,,,,,,,,,,,,,,,,,,,,,,,,,,,,,,,,,,,,,,,,,,,,,,,,,,,,,,,,,,,,,38547,2022-11-22_14h01.26.924,vts_reward_expectancy_bt_OFFLINE,2022.2.4,59.97644641382636,
0,0,0,1,0,1,0,0,star ,circle,2,0,2,0,2,1,25,10,,,,,,,,,,,,,,,,,,,,,,,,,,,,,,,,,,,,,,,,486.3774195869919,486.3774195869919,486.3774195869919,486.3774195869919,486.3774195869919,486.3774195869919,486.3774195869919,486.3774195869919,486.3774195869919,486.3774195869919,a,0.2603165740147233,1,770,2,486.6611374419881,488.16280541499145,,,,,,,,,,,,,,,,,,,,,,,,,,,,,,,,,,,,,,,,,,,,,,,,,,,,,,,,,,,,,,,,,,,38547,2022-11-22_14h01.26.924,vts_reward_expectancy_bt_OFFLINE,2022.2.4,59.97644641382636,
0,1,0,0,0,0,0,1,circle,star,2,0,2,0,2,2,26,5,,,,,,,,,,,,,,,,,,,,,,,,,,,,,,,,,,,,,,,,488.66338717599865,488.66338717599865,488.66338717599865,488.66338717599865,488.66338717599865,488.66338717599865,488.66338717599865,488.66338717599865,488.66338717599865,488.66338717599865,a,0.49540606001392007,10,780,2,489.1807208060054,490.68231653800467,,,,,,,,,,,,,,,,,,,,,,,,,,,,,,,,,,,,,,,,,,,,,,,,,,,,,,,,,,,,,,,,,,,38547,2022-11-22_14h01.26.924,vts_reward_expectancy_bt_OFFLINE,2022.2.4,59.97644641382636,
0,0,1,0,0,0,0,1,hexagon,star,2,0,2,0,2,3,27,8,,,,,,,,,,,,,,,,,,,,,,,,,,,,,,,,,,,,,,,,491.1829449759971,491.1829449759971,491.1829449759971,491.1829449759971,491.1829449759971,491.1829449759971,491.1829449759971,491.1829449759971,491.1829449759971,491.1829449759971,a,0.28233855799771845,1,781,2,491.482947373006,492.98483079398284,492.98483079398284,493.48530282999855,,,,,,,,,,,,,,,,,,,,,,,,,,,,,,,,,,,,,,,,,,,,,,,,,,,,,,,,,,,,,,,,,38547,2022-11-22_14h01.26.924,vts_reward_expectancy_bt_OFFLINE,2022.2.4,59.97644641382636,
0,0,1,0,1,0,0,0,hexagon,triangle,2,0,2,0,2,4,28,6,,,,,,,,,,,,,,,,,,,,,,,,,,,,,,,,,,,,,,,,493.48530282999855,493.48530282999855,493.48530282999855,493.48530282999855,493.48530282999855,493.48530282999855,493.48530282999855,493.48530282999855,493.48530282999855,493.48530282999855,l,0.3861709419870749,10,791,2,493.90262453097966,495.40421627199976,,,,,,,,,,,,,,,,,,,,,,,,,,,,,,,,,,,,,,,,,,,,,,,,,,,,,,,,,,,,,,,,,,,38547,2022-11-22_14h01.26.924,vts_reward_expectancy_bt_OFFLINE,2022.2.4,59.97644641382636,
0,0,0,1,0,0,1,0,star,hexagon,2,0,2,0,2,5,29,11,,,,,,,,,,,,,,,,,,,,,,,,,,,,,,,,,,,,,,,,495.90458073999616,495.90458073999616,495.90458073999616,495.90458073999616,495.90458073999616,495.90458073999616,495.90458073999616,495.90458073999616,495.90458073999616,495.90458073999616,l,0.29604896099772304,1,792,2,496.22160663999966,497.7232114519866,,,,,,,,,,,,,,,,,,,,,,,,,,,,,,,,,,,,,,,,,,,,,,,,,,,,,,,,,,,,,,,,,,,38547,2022-11-22_14h01.26.924,vts_reward_expectancy_bt_OFFLINE,2022.2.4,59.97644641382636,
1,0,0,0,0,0,0,1,triangle,star,2,0,2,0,2,6,30,2,,,,,,,,,,,,,,,,,,,,,,,,,,,,,,,,,,,,,,,,498.22435631798,498.22435631798,498.22435631798,498.22435631798,498.22435631798,498.22435631798,498.22435631798,498.22435631798,498.22435631798,498.22435631798,a,0.3279952410084661,1,793,2,498.57409013199504,500.0758624349837,,,,,,,,,,,,,,,,,,,,,,,,,,,,,,,,,,,,,,,,,,,,,,,,,,,,,,,,,,,,,,,,,,,38547,2022-11-22_14h01.26.924,vts_reward_expectancy_bt_OFFLINE,2022.2.4,59.97644641382636,
0,0,1,0,0,1,0,0,hexagon,circle,2,0,2,0,2,7,31,7,,,,,,,,,,,,,,,,,,,,,,,,,,,,,,,,,,,,,,,,500.5763897160068,500.5763897160068,500.5763897160068,500.5763897160068,500.5763897160068,500.5763897160068,500.5763897160068,500.5763897160068,500.5763897160068,500.5763897160068,l,0.7431502410036046,1,794,2,501.34410394798033,502.845669953007,,,,,,,,,,,,,,,,,,,,,,,,,,,,,,,,,,,,,,,,,,,,,,,,,,,,,,,,,,,,,,,,,,,38547,2022-11-22_14h01.26.924,vts_reward_expectancy_bt_OFFLINE,2022.2.4,59.97644641382636,
0,1,0,0,1,0,0,0,circle,triangle,2,0,2,0,2,8,32,3,,,,,,,,,,,,,,,,,,,,,,,,,,,,,,,,,,,,,,,,503.34607087800396,503.34607087800396,503.34607087800396,503.34607087800396,503.34607087800396,503.34607087800396,503.34607087800396,503.34607087800396,503.34607087800396,503.34607087800396,a,0.6959237950213719,10,804,2,504.0635338090069,505.56549756298773,,,,,,,,,,,,,,,,,,,,,,,,,,,,,,,,,,,,,,,,,,,,,,,,,,,,,,,,,,,,,,,,,,,38547,2022-11-22_14h01.26.924,vts_reward_expectancy_bt_OFFLINE,2022.2.4,59.97644641382636,
0,1,0,0,0,0,1,0,circle,hexagon,2,0,2,0,2,9,33,4,,,,,,,,,,,,,,,,,,,,,,,,,,,,,,,,,,,,,,,,506.06561647498165,506.06561647498165,506.06561647498165,506.06561647498165,506.06561647498165,506.06561647498165,506.06561647498165,506.06561647498165,506.06561647498165,506.06561647498165,l,0.5193778870161623,1,805,2,506.6164002409787,508.11851940199267,,,,,,,,,,,,,,,,,,,,,,,,,,,,,,,,,,,,,,,,,,,,,,,,,,,,,,,,,,,,,,,,,,,38547,2022-11-22_14h01.26.924,vts_reward_expectancy_bt_OFFLINE,2022.2.4,59.97644641382636,
1,0,0,0,0,1,0,0,triangle,circle,2,0,2,0,2,10,34,0,,,,,,,,,,,,,,,,,,,,,,,,,,,,,,,,,,,,,,,,508.6186045529903,508.6186045529903,508.6186045529903,508.6186045529903,508.6186045529903,508.6186045529903,508.6186045529903,508.6186045529903,508.6186045529903,508.6186045529903,a,0.5432760460244026,1,806,2,509.18616803898476,510.68751462898217,,,,,,,,,,,,,,,,,,,,,,,,,,,,,,,,,,,,,,,,,,,,,,,,,,,,,,,,,,,,,,,,,,,38547,2022-11-22_14h01.26.924,vts_reward_expectancy_bt_OFFLINE,2022.2.4,59.97644641382636,
0,0,0,1,1,0,0,0,star,triangle,2,0,2,0,2,11,35,9,,,,,,,,,,,,,,,,,,,,,,,,,,,,,,,,,,,,,,,,511.18807929797913,511.18807929797913,511.18807929797913,511.18807929797913,511.18807929797913,511.18807929797913,511.18807929797913,511.18807929797913,511.18807929797913,511.18807929797913,l,0.3697216220025439,1,807,2,511.5885094459809,513.0901555089804,,,,,,,,,,,,,,,,,,,,,,,,,,,,,,,,,,,,,,,,,,,,,,,,,,,,,,,,,,,,,,,,,,,38547,2022-11-22_14h01.26.924,vts_reward_expectancy_bt_OFFLINE,2022.2.4,59.97644641382636,
0,0,1,0,0,0,0,1,hexagon,star,2,0,2,0,3,0,36,8,,,,,,,,,,,,,,,,,,,,,,,,,,,,,,,,,,,,,,,,513.5907253269979,513.5907253269979,513.5907253269979,513.5907253269979,513.5907253269979,513.5907253269979,513.5907253269979,513.5907253269979,513.5907253269979,513.5907253269979,a,0.3516113040095661,1,808,2,513.9744757229928,515.4761779109831,,,,,,,,,,,,,,,,,,,,,,,,,,,,,,,,,,,,,,,,,,,,,,,,,,,,,,,,,,,,,,,,,,,38547,2022-11-22_14h01.26.924,vts_reward_expectancy_bt_OFFLINE,2022.2.4,59.97644641382636,
0,0,0,1,1,0,0,0,star,triangle,2,0,2,0,3,1,37,9,,,,,,,,,,,,,,,,,,,,,,,,,,,,,,,,,,,,,,,,515.9768361269962,515.9768361269962,515.9768361269962,515.9768361269962,515.9768361269962,515.9768361269962,515.9768361269962,515.9768361269962,515.9768361269962,515.9768361269962,l,0.5427147120062727,1,809,2,516.5443116090028,518.0457110809803,,,,,,,,,,,,,,,,,,,,,,,,,,,,,,,,,,,,,,,,,,,,,,,,,,,,,,,,,,,,,,,,,,,38547,2022-11-22_14h01.26.924,vts_reward_expectancy_bt_OFFLINE,2022.2.4,59.97644641382636,
0,0,1,0,0,1,0,0,hexagon,circle,2,0,2,0,3,2,38,7,,,,,,,,,,,,,,,,,,,,,,,,,,,,,,,,,,,,,,,,518.5462916359829,518.5462916359829,518.5462916359829,518.5462916359829,518.5462916359829,518.5462916359829,518.5462916359829,518.5462916359829,518.5462916359829,518.5462916359829,l,0.23507474799407646,1,810,2,518.8129970610025,520.3147438580054,,,,,,,,,,,,,,,,,,,,,,,,,,,,,,,,,,,,,,,,,,,,,,,,,,,,,,,,,,,,,,,,,,,38547,2022-11-22_14h01.26.924,vts_reward_expectancy_bt_OFFLINE,2022.2.4,59.97644641382636,
0,1,0,0,0,0,1,0,circle,hexagon,2,0,2,0,3,3,39,4,,,,,,,,,,,,,,,,,,,,,,,,,,,,,,,,,,,,,,,,520.8151926199789,520.8151926199789,520.8151926199789,520.8151926199789,520.8151926199789,520.8151926199789,520.8151926199789,520.8151926199789,520.8151926199789,520.8151926199789,a,0.2601201600045897,10,820,2,521.0989565110067,522.6005463369947,,,,,,,,,,,,,,,,,,,,,,,,,,,,,,,,,,,,,,,,,,,,,,,,,,,,,,,,,,,,,,,,,,,38547,2022-11-22_14h01.26.924,vts_reward_expectancy_bt_OFFLINE,2022.2.4,59.97644641382636,
1,0,0,0,0,1,0,0,triangle,circle,2,0,2,0,3,4,40,0,,,,,,,,,,,,,,,,,,,,,,,,,,,,,,,,,,,,,,,,523.1015566909919,523.1015566909919,523.1015566909919,523.1015566909919,523.1015566909919,523.1015566909919,523.1015566909919,523.1015566909919,523.1015566909919,523.1015566909919,l,0.49378874199464917,10,830,2,523.6183238780068,525.1200552640075,,,,,,,,,,,,,,,,,,,,,,,,,,,,,,,,,,,,,,,,,,,,,,,,,,,,,,,,,,,,,,,,,,,38547,2022-11-22_14h01.26.924,vts_reward_expectancy_bt_OFFLINE,2022.2.4,59.97644641382636,
0,0,1,0,1,0,0,0,hexagon,triangle,2,0,2,0,3,5,41,6,,,,,,,,,,,,,,,,,,,,,,,,,,,,,,,,,,,,,,,,525.6209487019805,525.6209487019805,525.6209487019805,525.6209487019805,525.6209487019805,525.6209487019805,525.6209487019805,525.6209487019805,525.6209487019805,525.6209487019805,l,0.4055180760042276,10,840,2,526.0545419789851,527.5561704669963,,,,,,,,,,,,,,,,,,,,,,,,,,,,,,,,,,,,,,,,,,,,,,,,,,,,,,,,,,,,,,,,,,,38547,2022-11-22_14h01.26.924,vts_reward_expectancy_bt_OFFLINE,2022.2.4,59.97644641382636,
1,0,0,0,0,0,0,1,triangle,star,2,0,2,0,3,6,42,2,,,,,,,,,,,,,,,,,,,,,,,,,,,,,,,,,,,,,,,,528.0567165789835,528.0567165789835,528.0567165789835,528.0567165789835,528.0567165789835,528.0567165789835,528.0567165789835,528.0567165789835,528.0567165789835,528.0567165789835,a,0.41007541699218564,1,841,2,528.4905355309893,529.9925374139857,,,,,,,,,,,,,,,,,,,,,,,,,,,,,,,,,,,,,,,,,,,,,,,,,,,,,,,,,,,,,,,,,,,38547,2022-11-22_14h01.26.924,vts_reward_expectancy_bt_OFFLINE,2022.2.4,59.97644641382636,
1,0,0,0,0,0,1,0,triangle,hexagon,2,0,2,0,3,7,43,1,,,,,,,,,,,,,,,,,,,,,,,,,,,,,,,,,,,,,,,,530.4926447509788,530.4926447509788,530.4926447509788,530.4926447509788,530.4926447509788,530.4926447509788,530.4926447509788,530.4926447509788,530.4926447509788,530.4926447509788,l,0.32514840000658296,1,842,2,530.8430290539982,532.344880967983,,,,,,,,,,,,,,,,,,,,,,,,,,,,,,,,,,,,,,,,,,,,,,,,,,,,,,,,,,,,,,,,,,,38547,2022-11-22_14h01.26.924,vts_reward_expectancy_bt_OFFLINE,2022.2.4,59.97644641382636,
0,1,0,0,0,0,0,1,circle,star,2,0,2,0,3,8,44,5,,,,,,,,,,,,,,,,,,,,,,,,,,,,,,,,,,,,,,,,532.8453701229882,532.8453701229882,532.8453701229882,532.8453701229882,532.8453701229882,532.8453701229882,532.8453701229882,532.8453701229882,532.8453701229882,532.8453701229882,a,0.2789167040027678,1,843,2,533.1455596669985,534.6472487959836,,,,,,,,,,,,,,,,,,,,,,,,,,,,,,,,,,,,,,,,,,,,,,,,,,,,,,,,,,,,,,,,,,,38547,2022-11-22_14h01.26.924,vts_reward_expectancy_bt_OFFLINE,2022.2.4,59.97644641382636,
0,0,0,1,0,1,0,0,star ,circle,2,0,2,0,3,9,45,10,,,,,,,,,,,,,,,,,,,,,,,,,,,,,,,,,,,,,,,,535.1481561730034,535.1481561730034,535.1481561730034,535.1481561730034,535.1481561730034,535.1481561730034,535.1481561730034,535.1481561730034,535.1481561730034,535.1481561730034,a,0.31751977899693884,1,844,2,535.4981482769945,536.9998065010004,,,,,,,,,,,,,,,,,,,,,,,,,,,,,,,,,,,,,,,,,,,,,,,,,,,,,,,,,,,,,,,,,,,38547,2022-11-22_14h01.26.924,vts_reward_expectancy_bt_OFFLINE,2022.2.4,59.97644641382636,
0,0,0,1,0,0,1,0,star,hexagon,2,0,2,0,3,10,46,11,,,,,,,,,,,,,,,,,,,,,,,,,,,,,,,,,,,,,,,,537.5003111599945,537.5003111599945,537.5003111599945,537.5003111599945,537.5003111599945,537.5003111599945,537.5003111599945,537.5003111599945,537.5003111599945,537.5003111599945,a,0.24801286202273332,10,854,2,537.7673910519807,539.2691328710061,,,,,,,,,,,,,,,,,,,,,,,,,,,,,,,,,,,,,,,,,,,,,,,,,,,,,,,,,,,,,,,,,,,38547,2022-11-22_14h01.26.924,vts_reward_expectancy_bt_OFFLINE,2022.2.4,59.97644641382636,
0,1,0,0,1,0,0,0,circle,triangle,2,0,2,0,3,11,47,3,,,,,,,,,,,,,,,,,,,,,,,,,,,,,,,,,,,,,,,,539.7699197439943,539.7699197439943,539.7699197439943,539.7699197439943,539.7699197439943,539.7699197439943,539.7699197439943,539.7699197439943,539.7699197439943,539.7699197439943,l,0.1607813129958231,1,855,2,539.9538864349888,541.4548246249906,,,,,,,,,,,,,,,,,,,,,,,,,,,,,,,,,,,,,,,,,,,,,,,,,,,,,,,,,,,,,,,,,,,38547,2022-11-22_14h01.26.924,vts_reward_expectancy_bt_OFFLINE,2022.2.4,59.97644641382636,
,,,,,,,,,,,,,,,,,,0,0,0,0,0,0,0,0,,,,,,,,,,,,,,,,,,,,,,,,,,,,,,,,,,,,,,,,,,,,,,,,599.301832712983,,,B,125,circle,0.0020681790192611516,595.4930739759875,596.9994227529969,596.9994227529969,596.9994227529969,1,0,d,0.7687248740112409,0,597.800246756,,,,,,,,,,,,,,,,,,,,,,,,,,,,,,,,,,,,,,,,,,,,,,,,,,,38547,2022-11-22_14h01.26.924,vts_reward_expectancy_bt_OFFLINE,2022.2.4,59.97644641382636,
,,,,,,,,,,,,,,,,,,0,0,0,0,1,0,1,0,,,,,,,,,,,,,,,,,,,,,,,,,,,,,,,,,,,,,,,,,,,,,,,,604.0572799069923,,604.5579285069834,F,132,hexagon,0.0014747329987585545,600.2809520739829,601.7879908219911,601.7879908219911,601.7879908219911,1,0,d,0.7534545140224509,0,602.5556964919961,604.0572799069923,,,,,,,,,,,,,,,,,,,,,,,,,,,,,,,,,,,,,,,,,,,,,,,,,,38547,2022-11-22_14h01.26.924,vts_reward_expectancy_bt_OFFLINE,2022.2.4,59.97644641382636,
,,,,,,,,,,,,,,,,,,0,0,0,0,2,0,2,0,,,,,,,,,,,,,,,,,,,,,,,,,,,,,,,,,,,,,,,,,,,,,,,,608.7790774199821,,,S,181,star,0.014733768010046333,605.0524541880004,606.5432469619846,606.5432469619846,606.5432469619846,1,0,f,0.7103659250133205,0,607.2774939200026,,,,,,,,,,,,,,,,,,,,,,,,,,,,,,,,,,,,,,,,,,,,,,,,,,,38547,2022-11-22_14h01.26.924,vts_reward_expectancy_bt_OFFLINE,2022.2.4,59.97644641382636,
,,,,,,,,,,,,,,,,,,0,0,0,0,3,0,3,0,,,,,,,,,,,,,,,,,,,,,,,,,,,,,,,,,,,,,,,,,,,,,,,,613.4007934450055,,,D,167,triangle,0.0011351489811204374,609.7577603469836,611.2649649420055,611.2649649420055,611.2649649420055,1,0,d,0.6021196609945036,0,611.8989811479987,,,,,,,,,,,,,,,,,,,,,,,,,,,,,,,,,,,,,,,,,,,,,,,,,,,38547,2022-11-22_14h01.26.924,vts_reward_expectancy_bt_OFFLINE,2022.2.4,59.97644641382636,
,,,,,,,,,,,,,,,,,,0,0,0,0,4,0,4,0,,,,,,,,,,,,,,,,,,,,,,,,,,,,,,,,,,,,,,,,,,,,,,,,618.0893171929929,,,W,139,circle,0.0019231420010328293,614.3798576830013,615.8870978789928,615.8870978789928,615.8870978789928,1,0,f,0.6693990119965747,0,616.5876713909965,,,,,,,,,,,,,,,,,,,,,,,,,,,,,,,,,,,,,,,,,,,,,,,,,,,38547,2022-11-22_14h01.26.924,vts_reward_expectancy_bt_OFFLINE,2022.2.4,59.97644641382636,
,,,,,,,,,,,,,,,,,,0,0,0,0,5,0,5,0,,,,,,,,,,,,,,,,,,,,,,,,,,,,,,,,,,,,,,,,,,,,,,,,622.7277285220043,,,U,160,hexagon,0.0015119739982765168,619.0671765529842,620.5753834699863,620.5753834699863,620.5753834699863,1,0,f,0.6186026590003166,0,621.2261326109874,,,,,,,,,,,,,,,,,,,,,,,,,,,,,,,,,,,,,,,,,,,,,,,,,,,38547,2022-11-22_14h01.26.924,vts_reward_expectancy_bt_OFFLINE,2022.2.4,59.97644641382636,
,,,,,,,,,,,,,,,,,,0,0,0,0,6,0,6,0,,,,,,,,,,,,,,,,,,,,,,,,,,,,,,,,,,,,,,,,,,,,,,,,627.2494830649812,,,H,174,triangle,0.0016311990038957447,623.7075300059805,625.2141186079825,625.2141186079825,625.2141186079825,0,0,f,0.5018477450066712,0,625.7477413419983,,,,,,,,,,,,,,,,,,,,,,,,,,,,,,,,,,,,,,,,,,,,,,,,,,,38547,2022-11-22_14h01.26.924,vts_reward_expectancy_bt_OFFLINE,2022.2.4,59.97644641382636,
,,,,,,,,,,,,,,,,,,0,0,0,0,7,0,7,0,,,,,,,,,,,,,,,,,,,,,,,,,,,,,,,,,,,,,,,,,,,,,,,,631.938077445986,,,Y,146,star,0.0014544280129484832,628.2280481999915,629.7355583029857,629.7355583029857,629.7355583029857,1,1,f,0.6816757280030288,0,630.4363552719878,631.938077445986,,,,,,,,,,,,,,,,,,,,,,,,,,,,,,,,,,,,,,,,,,,,,,,,,,38547,2022-11-22_14h01.26.924,vts_reward_expectancy_bt_OFFLINE,2022.2.4,59.97644641382636,
,,,,,,,,,,,,,,,,,,0,0,0,0,8,0,8,0,,,,,,,,,,,,,,,,,,,,,,,,,,,,,,,,,,,,,,,,,,,,,,,,636.4260404660017,,,B,125,hexagon,0.0008696309814695269,632.9154040020076,634.4239939959953,634.4239939959953,634.4239939959953,1,0,d,0.48429013398708776,0,634.9246392979985,636.4260404660017,,,,,,,,,,,,,,,,,,,,,,,,,,,,,,,,,,,,,,,,,,,,,,,,,,38547,2022-11-22_14h01.26.924,vts_reward_expectancy_bt_OFFLINE,2022.2.4,59.97644641382636,
,,,,,,,,,,,,,,,,,,0,0,0,0,9,0,9,0,,,,,,,,,,,,,,,,,,,,,,,,,,,,,,,,,,,,,,,,,,,,,,,,641.0478376109968,,,F,132,circle,0.0007021390192676336,637.403183921997,638.9122277160059,638.9122277160059,638.9122277160059,1,0,d,0.605984954017913,0,639.5461948099837,,,,,,,,,,,,,,,,,,,,,,,,,,,,,,,,,,,,,,,,,,,,,,,,,,,38547,2022-11-22_14h01.26.924,vts_reward_expectancy_bt_OFFLINE,2022.2.4,59.97644641382636,
,,,,,,,,,,,,,,,,,,,,,,,,,,0,0,0,0,0,0,0,0,,,,,,,,,,,,,,,,,,,,,,,,,,,,,,,,,,,,,,,,660.135625809984,,,H,146,hexagon,0.002231580001534894,,,,,1,0,,,1,658.6341066719906,,655.9922589089838,657.4996287219983,657.4996287219983,657.4996287219983,j,1.1120845179830212,,,,,,,,,,,,,,,,,,,,,,,,,,,,,,,,,,,,,,,,,,,,38547,2022-11-22_14h01.26.924,vts_reward_expectancy_bt_OFFLINE,2022.2.4,59.97644641382636,
,,,,,,,,,,,,,,,,,,,,,,,,,,0,0,0,0,1,0,1,0,,,,,,,,,,,,,,,,,,,,,,,,,,,,,,,,,,,,,,,,664.690556764981,,,W,160,triangle,0.0014237150026019663,,,,,1,0,,,1,663.1890870469797,,661.1136804679991,662.6218842520029,662.6218842520029,662.6218842520029,k,0.5351663730107248,,,,,,,,,,,,,,,,,,,,,,,,,,,,,,,,,,,,,,,,,,,,38547,2022-11-22_14h01.26.924,vts_reward_expectancy_bt_OFFLINE,2022.2.4,59.97644641382636,
,,,,,,,,,,,,,,,,,,,,,,,,,,0,0,0,0,2,0,2,0,,,,,,,,,,,,,,,,,,,,,,,,,,,,,,,,,,,,,,,,669.396042834007,,,B,132,star,0.0015754029736854136,,,,,1,0,,,1,667.8942169719958,,665.6685659099894,667.1767474649823,667.1767474649823,667.1767474649823,j,0.692716580000706,,,,,,,,,,,,,,,,,,,,,,,,,,,,,,,,,,,,,,,,,,,,38547,2022-11-22_14h01.26.924,vts_reward_expectancy_bt_OFFLINE,2022.2.4,59.97644641382636,
,,,,,,,,,,,,,,,,,,,,,,,,,,0,0,0,0,3,0,3,0,,,,,,,,,,,,,,,,,,,,,,,,,,,,,,,,,,,,,,,,674.1510628589895,,,Y,181,circle,0.0015358269738499075,,,,,1,0,,,1,672.6495391759963,,670.3737835919892,671.8819538170064,671.8819538170064,671.8819538170064,k,0.746438300004229,,,,,,,,,,,,,,,,,,,,,,,,,,,,,,,,,,,,,,,,,,,,38547,2022-11-22_14h01.26.924,vts_reward_expectancy_bt_OFFLINE,2022.2.4,59.97644641382636,
,,,,,,,,,,,,,,,,,,,,,,,,,,0,0,0,0,4,0,4,0,,,,,,,,,,,,,,,,,,,,,,,,,,,,,,,,,,,,,,,,678.7394893229939,,,S,125,triangle,0.0014654170081485063,,,,,1,0,,,1,677.2378557009797,,675.1278377359849,676.6372317929927,676.6372317929927,676.6372317929927,j,0.5813663870212622,,,,,,,,,,,,,,,,,,,,,,,,,,,,,,,,,,,,,,,,,,,,38547,2022-11-22_14h01.26.924,vts_reward_expectancy_bt_OFFLINE,2022.2.4,59.97644641382636,
,,,,,,,,,,,,,,,,,,,,,,,,,,0,0,0,0,5,0,5,0,,,,,,,,,,,,,,,,,,,,,,,,,,,,,,,,,,,,,,,,683.2612085279834,,,U,167,hexagon,0.001117756008170545,,,,,1,0,,,1,681.7595595080056,683.2612085279834,679.7164047389815,681.2256111250026,681.2256111250026,681.2256111250026,k,0.5176020629878622,,,,,,,,,,,,,,,,,,,,,,,,,,,,,,,,,,,,,,,,,,,,38547,2022-11-22_14h01.26.924,vts_reward_expectancy_bt_OFFLINE,2022.2.4,59.97644641382636,
,,,,,,,,,,,,,,,,,,,,,,,,,,0,0,0,0,6,0,6,0,,,,,,,,,,,,,,,,,,,,,,,,,,,,,,,,,,,,,,,,688.3000309189956,,,D,139,circle,0.0009778230160009116,,,,,1,0,,,1,686.7983086679887,,684.2383591579855,685.7473462499911,685.7473462499911,685.7473462499911,j,1.0239263390249107,,,,,,,,,,,,,,,,,,,,,,,,,,,,,,,,,,,,,,,,,,,,38547,2022-11-22_14h01.26.924,vts_reward_expectancy_bt_OFFLINE,2022.2.4,59.97644641382636,
,,,,,,,,,,,,,,,,,,,,,,,,,,0,0,0,0,7,0,7,0,,,,,,,,,,,,,,,,,,,,,,,,,,,,,,,,,,,,,,,,692.9385331230005,,,F,174,star,0.001586352998856455,,,,,1,0,,,1,691.4368955429818,,689.2770822729799,690.7863280409947,690.7863280409947,690.7863280409947,k,0.6193460779904854,,,,,,,,,,,,,,,,,,,,,,,,,,,,,,,,,,,,,,,,,,,,38547,2022-11-22_14h01.26.924,vts_reward_expectancy_bt_OFFLINE,2022.2.4,59.97644641382636,
,,,,,,,,,,,,,,,,,,,,,,,,,,0,0,0,0,8,0,8,0,,,,,,,,,,,,,,,,,,,,,,,,,,,,,,,,,,,,,,,,697.5768210300012,,,H,146,hexagon,0.0013951750006526709,,,,,1,0,,,1,696.0753069229831,,693.9157575829886,695.4244843100023,695.4244843100023,695.4244843100023,j,0.6278604829858523,,,,,,,,,,,,,,,,,,,,,,,,,,,,,,,,,,,,,,,,,,,,38547,2022-11-22_14h01.26.924,vts_reward_expectancy_bt_OFFLINE,2022.2.4,59.97644641382636,
,,,,,,,,,,,,,,,,,,,,,,,,,,0,0,0,0,9,0,9,0,,,,,,,,,,,,,,,,,,,,,,,,,,,,,,,,,,,,,,,,702.0653544130037,,,W,160,star,0.0014586939942091703,,,,,1,0,,,1,700.5635134939803,,698.553893039003,700.0630743640068,700.0630743640068,700.0630743640068,k,0.4779941250162665,,,,,,,,,,,,,,,,,,,,,,,,,,,,,,,,,,,,,,,,,,,,38547,2022-11-22_14h01.26.924,vts_reward_expectancy_bt_OFFLINE,2022.2.4,59.97644641382636,
,,,,,,,,,,,,,,,,,,,,,,,,,,,,,,,,,,0,0,0,0,0,0,0,0,,,,,,,,,,,,,,,,,,,,,,,,,,,,0,855,,,752.938075271988,,,H,181,star,0.002079689991660416,,,,,1,0,,,2,,,,,,,,,748.0459488769993,748.0459488769993,748.0459488769993,748.0459488769993,749.5510684599867,749.5510684599867,749.5510684599867,749.5510684599867,749.5510684599867,749.5510684599867,749.5510684599867,749.5510684599867,-1,number,NA,k,1.8534376460011117,vtsPrac,751.436334087979,,,,,,,,,,,,,,,,,,,,,,,,,38547,2022-11-22_14h01.26.924,vts_reward_expectancy_bt_OFFLINE,2022.2.4,59.97644641382636,
,,,,,,,,,,,,,,,,,,,,,,,,,,,,,,,,,,0,0,0,0,1,0,1,0,,,,,,,,,,,,,,,,,,,,,,,,,,,,0,855,,,757.9103269400075,,,W,139,circle,0.0011751599959097803,,,,,1,0,,,2,,,,,,,,,753.9174581349944,753.9174581349944,753.9174581349944,753.9174581349944,755.4242013430048,755.4242013430048,755.4242013430048,755.4242013430048,755.4242013430048,755.4242013430048,755.4242013430048,755.4242013430048,repeat,number,numRpt,j,0.9639303179865237,vtsPrac,756.4084679799853,,,,,,,,,,,,,,,,,,,,,,,,,38547,2022-11-22_14h01.26.924,vts_reward_expectancy_bt_OFFLINE,2022.2.4,59.97644641382636,
,,,,,,,,,,,,,,,,,,,,,,,,,,,,,,,,,,0,0,0,0,2,0,2,0,,,,,,,,,,,,,,,,,,,,,,,,,,,,0,855,,,762.5318064120074,,,S,174,hexagon,0.0012729319860227406,,,,,1,0,,,2,,,,,,,,,758.8894762769924,758.8894762769924,758.8894762769924,758.8894762769924,760.3962416379945,760.3962416379945,760.3962416379945,760.3962416379945,760.3962416379945,760.3962416379945,760.3962416379945,760.3962416379945,repeat,number,numRpt,k,0.614906039001653,vtsPrac,761.0302377560001,,,,,,,,,,,,,,,,,,,,,,,,,38547,2022-11-22_14h01.26.924,vts_reward_expectancy_bt_OFFLINE,2022.2.4,59.97644641382636,
,,,,,,,,,,,,,,,,,,,,,,,,,,,,,,,,,,0,0,0,0,3,0,3,0,,,,,,,,,,,,,,,,,,,,,,,,,,,,0,855,,,767.1704101119831,,,F,132,circle,0.0010735590185504407,,,,,1,0,,,2,,,,,,,,,763.5109059099923,763.5109059099923,763.5109059099923,763.5109059099923,765.0179792669951,765.0179792669951,765.0179792669951,765.0179792669951,765.0179792669951,765.0179792669951,765.0179792669951,765.0179792669951,switch,letter,lettSwt,d,0.6283957879932132,vtsPrac,765.6687479959801,,,,,,,,,,,,,,,,,,,,,,,,,38547,2022-11-22_14h01.26.924,vts_reward_expectancy_bt_OFFLINE,2022.2.4,59.97644641382636,
,,,,,,,,,,,,,,,,,,,,,,,,,,,,,,,,,,0,0,0,0,4,0,4,0,,,,,,,,,,,,,,,,,,,,,,,,,,,,0,855,,,771.7587448419945,,,H,181,circle,0.0016148430004250258,,,,,1,0,,,2,,,,,,,,,768.148571755999,768.148571755999,768.148571755999,768.148571755999,769.6565780339879,769.6565780339879,769.6565780339879,769.6565780339879,769.6565780339879,769.6565780339879,769.6565780339879,769.6565780339879,switch,number,numSwt,k,0.5681969310098793,vtsPrac,770.2571007969964,,,,,,,,,,,,,,,,,,,,,,,,,38547,2022-11-22_14h01.26.924,vts_reward_expectancy_bt_OFFLINE,2022.2.4,59.97644641382636,
,,,,,,,,,,,,,,,,,,,,,,,,,,,,,,,,,,0,0,0,0,5,0,5,0,,,,,,,,,,,,,,,,,,,,,,,,,,,,0,855,,,776.463824098988,,,W,139,triangle,0.0018342830007895827,,,,,1,0,,,2,,,,,,,,,772.7364570259815,772.7364570259815,772.7364570259815,772.7364570259815,774.2447726840037,774.2447726840037,774.2447726840037,774.2447726840037,774.2447726840037,774.2447726840037,774.2447726840037,774.2447726840037,repeat,number,numRpt,j,0.6938674220000394,vtsPrac,774.9621557609935,,,,,,,,,,,,,,,,,,,,,,,,,38547,2022-11-22_14h01.26.924,vts_reward_expectancy_bt_OFFLINE,2022.2.4,59.97644641382636,
,,,,,,,,,,,,,,,,,,,,,,,,,,,,,,,,,,0,0,0,0,6,0,6,0,,,,,,,,,,,,,,,,,,,,,,,,,,,,0,855,,,781.2026036760071,,,S,174,hexagon,0.0016002980119083077,,,,,1,0,,,2,,,,,,,,,777.441418219998,777.441418219998,777.441418219998,777.441418219998,778.9501141129876,778.9501141129876,778.9501141129876,778.9501141129876,778.9501141129876,778.9501141129876,778.9501141129876,778.9501141129876,switch,letter,lettSwt,f,0.7261624010279775,vtsPrac,779.7008691609954,,,,,,,,,,,,,,,,,,,,,,,,,38547,2022-11-22_14h01.26.924,vts_reward_expectancy_bt_OFFLINE,2022.2.4,59.97644641382636,
,,,,,,,,,,,,,,,,,,,,,,,,,,,,,,,,,,0,0,0,0,7,0,7,0,,,,,,,,,,,,,,,,,,,,,,,,,,,,0,855,,,785.8575500549923,,,F,132,star,0.001709099014988169,,,,,1,0,,,2,,,,,,,,,782.1797609519854,782.1797609519854,782.1797609519854,782.1797609519854,783.6886418779904,783.6886418779904,783.6886418779904,783.6886418779904,783.6886418779904,783.6886418779904,783.6886418779904,783.6886418779904,repeat,letter,lettRpt,d,0.6357451020157896,vtsPrac,784.355996600003,,,,,,,,,,,,,,,,,,,,,,,,,38547,2022-11-22_14h01.26.924,vts_reward_expectancy_bt_OFFLINE,2022.2.4,59.97644641382636,
,,,,,,,,,,,,,,,,,,,,,,,,,,,,,,,,,,0,0,0,0,8,0,8,0,,,,,,,,,,,,,,,,,,,,,,,,,,,,0,855,,,790.5462236609892,,,S,160,star,0.0015301080129574984,,,,,1,0,,,2,,,,,,,,,786.8366932789795,786.8366932789795,786.8366932789795,786.8366932789795,788.3437128049845,788.3437128049845,788.3437128049845,788.3437128049845,788.3437128049845,788.3437128049845,788.3437128049845,788.3437128049845,repeat,letter,lettRpt,f,0.6698923899966758,vtsPrac,789.0446168209892,,,,,,,,,,,,,,,,,,,,,,,,,38547,2022-11-22_14h01.26.924,vts_reward_expectancy_bt_OFFLINE,2022.2.4,59.97644641382636,
,,,,,,,,,,,,,,,,,,,,,,,,,,,,,,,,,,0,0,0,0,9,0,9,0,,,,,,,,,,,,,,,,,,,,,,,,,,,,0,855,,,795.2180751700071,,,D,139,hexagon,0.0014476320066023618,,,,,1,0,,,2,,,,,,,,,791.5233991389978,791.5233991389978,791.5233991389978,791.5233991389978,793.032109125983,793.032109125983,793.032109125983,793.032109125983,793.032109125983,793.032109125983,793.032109125983,793.032109125983,repeat,letter,lettRpt,d,0.651959776005242,vtsPrac,793.7164152019832,,,,,,,,,,,,,,,,,,,,,,,,,38547,2022-11-22_14h01.26.924,vts_reward_expectancy_bt_OFFLINE,2022.2.4,59.97644641382636,
,,,,,,,,,,,,,,,,,,,,,,,,,,,,,,,,,,0,0,0,0,10,0,10,0,,,,,,,,,,,,,,,,,,,,,,,,,,,,0,855,,,800.1902086969931,,,U,146,circle,0.001900319999549538,,,,,1,0,,,2,,,,,,,,,796.1965719409927,796.1965719409927,796.1965719409927,796.1965719409927,797.7041111279977,797.7041111279977,797.7041111279977,797.7041111279977,797.7041111279977,797.7041111279977,797.7041111279977,797.7041111279977,switch,number,numSwt,j,0.9521302150096744,vtsPrac,798.688590892998,,,,,,,,,,,,,,,,,,,,,,,,,38547,2022-11-22_14h01.26.924,vts_reward_expectancy_bt_OFFLINE,2022.2.4,59.97644641382636,
,,,,,,,,,,,,,,,,,,,,,,,,,,,,,,,,,,0,0,0,0,11,0,11,0,,,,,,,,,,,,,,,,,,,,,,,,,,,,0,855,,,804.9454805720015,,,H,181,triangle,0.0020041110110469162,,,,,1,0,,,2,,,,,,,,,801.1681180899905,801.1681180899905,801.1681180899905,801.1681180899905,802.6762511509878,802.6762511509878,802.6762511509878,802.6762511509878,802.6762511509878,802.6762511509878,802.6762511509878,802.6762511509878,switch,letter,lettSwt,d,0.7372954000311438,vtsPrac,803.4438364539819,,,,,,,,,,,,,,,,,,,,,,,,,38547,2022-11-22_14h01.26.924,vts_reward_expectancy_bt_OFFLINE,2022.2.4,59.97644641382636,
,,,,,,,,,,,,,,,,,,,,,,,,,,,,,,,,,,0,0,0,0,12,0,12,0,,,,,,,,,,,,,,,,,,,,,,,,,,,,0,855,,,809.6672715589812,,,H,181,star,0.0017852690070867538,,,,,1,0,,,2,,,,,,,,,805.9219215369958,805.9219215369958,805.9219215369958,805.9219215369958,807.4318368249806,807.4318368249806,807.4318368249806,807.4318368249806,807.4318368249806,807.4318368249806,807.4318368249806,807.4318368249806,switch,number,numSwt,k,0.7068263980036136,vtsPrac,808.1656234099937,,,,,,,,,,,,,,,,,,,,,,,,,38547,2022-11-22_14h01.26.924,vts_reward_expectancy_bt_OFFLINE,2022.2.4,59.97644641382636,
,,,,,,,,,,,,,,,,,,,,,,,,,,,,,,,,,,0,0,0,0,13,0,13,0,,,,,,,,,,,,,,,,,,,,,,,,,,,,0,855,,,814.3056291340035,,,S,132,circle,0.0014734590076841414,,,,,1,0,,,2,,,,,,,,,810.6451645909983,810.6451645909983,810.6451645909983,810.6451645909983,812.1537590539956,812.1537590539956,812.1537590539956,812.1537590539956,812.1537590539956,812.1537590539956,812.1537590539956,812.1537590539956,repeat,number,numRpt,j,0.6315505350066815,vtsPrac,812.8040930709976,814.3056291340035,,,,,,,,,,,,,,,,,,,,,,,,38547,2022-11-22_14h01.26.924,vts_reward_expectancy_bt_OFFLINE,2022.2.4,59.97644641382636,
,,,,,,,,,,,,,,,,,,,,,,,,,,,,,,,,,,0,0,0,0,14,0,14,0,,,,,,,,,,,,,,,,,,,,,,,,,,,,0,855,,,818.7940994389937,,,F,160,circle,0.0009301339741796255,,,,,1,0,,,2,,,,,,,,,815.283591651998,815.283591651998,815.283591651998,815.283591651998,816.7918172119826,816.7918172119826,816.7918172119826,816.7918172119826,816.7918172119826,816.7918172119826,816.7918172119826,816.7918172119826,switch,letter,lettSwt,d,0.472339058003854,vtsPrac,817.2926348239998,,,,,,,,,,,,,,,,,,,,,,,,,38547,2022-11-22_14h01.26.924,vts_reward_expectancy_bt_OFFLINE,2022.2.4,59.97644641382636,
,,,,,,,,,,,,,,,,,,,,,,,,,,,,,,,,,,0,0,0,0,15,0,15,0,,,,,,,,,,,,,,,,,,,,,,,,,,,,0,855,,,823.5325815170072,,,W,139,star,0.0010193779889959842,,,,,1,0,,,2,,,,,,,,,819.7711710949952,819.7711710949952,819.7711710949952,819.7711710949952,821.2800018340058,821.2800018340058,821.2800018340058,821.2800018340058,821.2800018340058,821.2800018340058,821.2800018340058,821.2800018340058,repeat,letter,lettRpt,f,0.7303016940131783,vtsPrac,822.0308956289955,,,,,,,,,,,,,,,,,,,,,,,,,38547,2022-11-22_14h01.26.924,vts_reward_expectancy_bt_OFFLINE,2022.2.4,59.97644641382636,
,,,,,,,,,,,,,,,,,,,,,,,,,,,,,,,,,,0,0,0,0,16,0,16,0,,,,,,,,,,,,,,,,,,,,,,,,,,,,0,855,,,828.1209300459886,,,W,174,circle,0.0015098369913175702,,,,,1,0,,,2,,,,,,,,,824.5089916199795,824.5089916199795,824.5089916199795,824.5089916199795,826.0187027250067,826.0187027250067,826.0187027250067,826.0187027250067,826.0187027250067,826.0187027250067,826.0187027250067,826.0187027250067,switch,number,numSwt,k,0.5701125269988552,vtsPrac,826.6194435170037,,,,,,,,,,,,,,,,,,,,,,,,,38547,2022-11-22_14h01.26.924,vts_reward_expectancy_bt_OFFLINE,2022.2.4,59.97644641382636,
,,,,,,,,,,,,,,,,,,,,,,,,,,,,,,,,,,0,0,0,0,17,0,17,0,,,,,,,,,,,,,,,,,,,,,,,,,,,,0,855,,,832.8260374520032,,,S,167,hexagon,0.0017017979989759624,,,,,1,0,,,2,,,,,,,,,829.0984708319884,829.0984708319884,829.0984708319884,829.0984708319884,830.6070022860076,830.6070022860076,830.6070022860076,830.6070022860076,830.6070022860076,830.6070022860076,830.6070022860076,830.6070022860076,repeat,number,numRpt,k,0.695593901007669,vtsPrac,831.3244760079833,,,,,,,,,,,,,,,,,,,,,,,,,38547,2022-11-22_14h01.26.924,vts_reward_expectancy_bt_OFFLINE,2022.2.4,59.97644641382636,
,,,,,,,,,,,,,,,,,,,,,,,,,,,,,,,,,,0,0,0,0,18,0,18,0,,,,,,,,,,,,,,,,,,,,,,,,,,,,0,855,,,837.5647524289961,,,Y,181,circle,0.0014967159950174391,,,,,1,0,,,2,,,,,,,,,833.8039152249985,833.8039152249985,833.8039152249985,833.8039152249985,835.3122666089912,835.3122666089912,835.3122666089912,835.3122666089912,835.3122666089912,835.3122666089912,835.3122666089912,835.3122666089912,switch,letter,lettSwt,f,0.7271813200204633,vtsPrac,836.0632076939801,,,,,,,,,,,,,,,,,,,,,,,,,38547,2022-11-22_14h01.26.924,vts_reward_expectancy_bt_OFFLINE,2022.2.4,59.97644641382636,
,,,,,,,,,,,,,,,,,,,,,,,,,,,,,,,,,,0,0,0,0,19,0,19,0,,,,,,,,,,,,,,,,,,,,,,,,,,,,0,855,,,842.0865721239825,,,U,132,triangle,0.0014513490023091435,,,,,1,0,,,2,,,,,,,,,838.5421219209966,838.5421219209966,838.5421219209966,838.5421219209966,840.0509262179839,840.0509262179839,840.0509262179839,840.0509262179839,840.0509262179839,840.0509262179839,840.0509262179839,840.0509262179839,switch,number,numSwt,j,0.502277669031173,vtsPrac,840.5848538529826,,,,,,,,,,,,,,,,,,,,,,,,,38547,2022-11-22_14h01.26.924,vts_reward_expectancy_bt_OFFLINE,2022.2.4,59.97644641382636,
,,,,,,,,,,,,,,,,,,,,,,,,,,,,,,,,,,0,0,0,0,20,0,20,0,,,,,,,,,,,,,,,,,,,,,,,,,,,,0,855,,,846.6414545069856,,,B,139,circle,0.0015353430062532425,,,,,1,0,,,2,,,,,,,,,843.0639400399814,843.0639400399814,843.0639400399814,843.0639400399814,844.5725014960044,844.5725014960044,844.5725014960044,844.5725014960044,844.5725014960044,844.5725014960044,844.5725014960044,844.5725014960044,switch,letter,lettSwt,d,0.5351524600118864,vtsPrac,845.139859094983,,,,,,,,,,,,,,,,,,,,,,,,,38547,2022-11-22_14h01.26.924,vts_reward_expectancy_bt_OFFLINE,2022.2.4,59.97644641382636,
,,,,,,,,,,,,,,,,,,,,,,,,,,,,,,,,,,0,0,0,0,21,0,21,0,,,,,,,,,,,,,,,,,,,,,,,,,,,,0,855,,,851.180060262006,,,S,125,triangle,0.0015407030005007982,,,,,1,0,,,2,,,,,,,,,847.6199214189837,847.6199214189837,847.6199214189837,847.6199214189837,849.1276865190011,849.1276865190011,849.1276865190011,849.1276865190011,849.1276865190011,849.1276865190011,849.1276865190011,849.1276865190011,repeat,letter,lettRpt,f,0.5249768840149045,vtsPrac,849.6781953749887,,,,,,,,,,,,,,,,,,,,,,,,,38547,2022-11-22_14h01.26.924,vts_reward_expectancy_bt_OFFLINE,2022.2.4,59.97644641382636,
,,,,,,,,,,,,,,,,,,,,,,,,,,,,,,,,,,0,0,0,0,22,0,22,0,,,,,,,,,,,,,,,,,,,,,,,,,,,,0,855,,,856.1018391629914,,,Y,146,circle,0.0014569979975931346,,,,,1,0,,,2,,,,,,,,,852.1575305279985,852.1575305279985,852.1575305279985,852.1575305279985,853.6659364480001,853.6659364480001,853.6659364480001,853.6659364480001,853.6659364480001,853.6659364480001,853.6659364480001,853.6659364480001,repeat,letter,lettRpt,f,0.9033714640245307,vtsPrac,854.6006564539857,,,,,,,,,,,,,,,,,,,,,,,,,38547,2022-11-22_14h01.26.924,vts_reward_expectancy_bt_OFFLINE,2022.2.4,59.97644641382636,
,,,,,,,,,,,,,,,,,,,,,,,,,,,,,,,,,,0,0,0,0,23,0,23,0,,,,,,,,,,,,,,,,,,,,,,,,,,,,0,855,,,860.907231463003,,,W,181,star,0.0011956370144616812,,,,,1,0,,,2,,,,,,,,,857.0793305669795,857.0793305669795,857.0793305669795,857.0793305669795,858.5879601299821,858.5879601299821,858.5879601299821,858.5879601299821,858.5879601299821,858.5879601299821,858.5879601299821,858.5879601299821,repeat,letter,lettRpt,f,0.7856136300251819,vtsPrac,859.405577070982,,,,,,,,,,,,,,,,,,,,,,,,,38547,2022-11-22_14h01.26.924,vts_reward_expectancy_bt_OFFLINE,2022.2.4,59.97644641382636,
,,,,,,,,,,,,,,,,,,,,,,,,,,,,,,,,,,0,0,0,0,24,0,24,0,,,,,,,,,,,,,,,,,,,,,,,,,,,,0,855,,,865.5289166069997,,,H,181,triangle,0.0013853039999958128,,,,,1,0,,,2,,,,,,,,,861.8844953579828,861.8844953579828,861.8844953579828,861.8844953579828,863.3934368490009,863.3934368490009,863.3934368490009,863.3934368490009,863.3934368490009,863.3934368490009,863.3934368490009,863.3934368490009,switch,number,numSwt,k,0.6026235850004014,vtsPrac,864.0272107429919,,,,,,,,,,,,,,,,,,,,,,,,,38547,2022-11-22_14h01.26.924,vts_reward_expectancy_bt_OFFLINE,2022.2.4,59.97644641382636,
,,,,,,,,,,,,,,,,,,,,,,,,,,,,,,,,,,0,0,0,0,25,0,25,0,,,,,,,,,,,,,,,,,,,,,,,,,,,,0,855,,,870.4677294989815,,,U,146,circle,0.0016165949928108603,,,,,1,0,,,2,,,,,,,,,866.5067697009945,866.5067697009945,866.5067697009945,866.5067697009945,868.0149906569859,868.0149906569859,868.0149906569859,868.0149906569859,868.0149906569859,868.0149906569859,868.0149906569859,868.0149906569859,repeat,number,numRpt,j,0.9208140480041038,vtsPrac,868.9661366340006,,,,,,,,,,,,,,,,,,,,,,,,,38547,2022-11-22_14h01.26.924,vts_reward_expectancy_bt_OFFLINE,2022.2.4,59.97644641382636,
,,,,,,,,,,,,,,,,,,,,,,,,,,,,,,,,,,0,0,0,0,26,0,26,0,,,,,,,,,,,,,,,,,,,,,,,,,,,,0,855,,,875.1729785229836,,,W,139,hexagon,0.0012356980005279183,,,,,1,0,,,2,,,,,,,,,871.4453803969955,871.4453803969955,871.4453803969955,871.4453803969955,872.9537209399859,872.9537209399859,872.9537209399859,872.9537209399859,872.9537209399859,872.9537209399859,872.9537209399859,872.9537209399859,switch,letter,lettSwt,f,0.6855305830249563,vtsPrac,873.6711356589803,,,,,,,,,,,,,,,,,,,,,,,,,38547,2022-11-22_14h01.26.924,vts_reward_expectancy_bt_OFFLINE,2022.2.4,59.97644641382636,
,,,,,,,,,,,,,,,,,,,,,,,,,,,,,,,,,,0,0,0,0,27,0,27,0,,,,,,,,,,,,,,,,,,,,,,,,,,,,0,855,,,879.9115430270031,,,F,125,circle,0.001461953012039885,,,,,1,0,,,2,,,,,,,,,876.1495242289966,876.1495242289966,876.1495242289966,876.1495242289966,877.6591711920046,877.6591711920046,877.6591711920046,877.6591711920046,877.6591711920046,877.6591711920046,877.6591711920046,877.6591711920046,repeat,letter,lettRpt,d,0.727392183005577,vtsPrac,878.4099723789841,,,,,,,,,,,,,,,,,,,,,,,,,38547,2022-11-22_14h01.26.924,vts_reward_expectancy_bt_OFFLINE,2022.2.4,59.97644641382636,
,,,,,,,,,,,,,,,,,,,,,,,,,,,,,,,,,,0,0,0,0,28,0,28,0,,,,,,,,,,,,,,,,,,,,,,,,,,,,0,855,,,884.7671120089944,,,Y,146,hexagon,0.001856581016909331,,,,,1,0,,,2,,,,,,,,,880.888850229996,880.888850229996,880.888850229996,880.888850229996,882.3973925869795,882.3973925869795,882.3973925869795,882.3973925869795,882.3973925869795,882.3973925869795,882.3973925869795,882.3973925869795,switch,number,numSwt,j,0.8496306489978451,vtsPrac,883.2652568639896,,,,,,,,,,,,,,,,,,,,,,,,,38547,2022-11-22_14h01.26.924,vts_reward_expectancy_bt_OFFLINE,2022.2.4,59.97644641382636,
,,,,,,,,,,,,,,,,,,,,,,,,,,,,,,,,,,0,0,0,0,29,0,29,0,,,,,,,,,,,,,,,,,,,,,,,,,,,,0,855,,,889.4553679990058,,,W,167,star,0.001362755981972441,,,,,1,0,,,2,,,,,,,,,885.7445329669863,885.7445329669863,885.7445329669863,885.7445329669863,887.2531484419887,887.2531484419887,887.2531484419887,887.2531484419887,887.2531484419887,887.2531484419887,887.2531484419887,887.2531484419887,repeat,number,numRpt,k,0.6729158920061309,vtsPrac,887.9537846419844,,,,,,,,,,,,,,,,,,,,,,,,,38547,2022-11-22_14h01.26.924,vts_reward_expectancy_bt_OFFLINE,2022.2.4,59.97644641382636,
,,,,,,,,,,,,,,,,,,,,,,,,,,,,,,,,,,0,0,0,0,30,0,30,0,,,,,,,,,,,,,,,,,,,,,,,,,,,,0,855,,,894.3773467369901,,,U,174,star,0.001585220015840605,,,,,1,0,,,2,,,,,,,,,890.4329623579979,890.4329623579979,890.4329623579979,890.4329623579979,891.9412594969908,891.9412594969908,891.9412594969908,891.9412594969908,891.9412594969908,891.9412594969908,891.9412594969908,891.9412594969908,switch,letter,lettSwt,f,0.9023893859994132,vtsPrac,892.8756948070077,,,,,,,,,,,,,,,,,,,,,,,,,38547,2022-11-22_14h01.26.924,vts_reward_expectancy_bt_OFFLINE,2022.2.4,59.97644641382636,
,,,,,,,,,,,,,,,,,,,,,,,,,,,,,,,,,,0,0,0,0,31,0,31,0,,,,,,,,,,,,,,,,,,,,,,,,,,,,0,855,,,899.416231730982,,,H,160,circle,0.001846224011387676,,,,,1,0,,,2,,,,,,,,,895.3551568919793,895.3551568919793,895.3551568919793,895.3551568919793,896.8634607669956,896.8634607669956,896.8634607669956,896.8634607669956,896.8634607669956,896.8634607669956,896.8634607669956,896.8634607669956,switch,number,numSwt,k,1.0303742770047393,vtsPrac,897.9147325469821,,,,,,,,,,,,,,,,,,,,,,,,,38547,2022-11-22_14h01.26.924,vts_reward_expectancy_bt_OFFLINE,2022.2.4,59.97644641382636,
