LTriangleOpac,LCircleOpac,LHexagonOpac,LStarOpac,RTriangleOpac,RCircleOpac,RHexagonOpac,RStarOpac,LShape_ID,RShape_ID,trainBlock,training_blocks.thisRepN,training_blocks.thisTrialN,training_blocks.thisN,training_blocks.thisIndex,training.thisRepN,training.thisTrialN,training.thisN,training.thisIndex,left_circle.started,right_circle.started,left_triangle.started,right_triangle.started,left_star.started,right_star.started,left_hexagon.started,right_hexagon.started,training_fix.started,training_resp.started,training_resp.keys,training_resp.rt,task1_prac_redo.thisRepN,task1_prac_redo.thisTrialN,task1_prac_redo.thisN,task1_prac_redo.thisIndex,task1_prac_trials.thisRepN,task1_prac_trials.thisTrialN,task1_prac_trials.thisN,task1_prac_trials.thisIndex,task2_prac_redo.thisRepN,task2_prac_redo.thisTrialN,task2_prac_redo.thisN,task2_prac_redo.thisIndex,task2_praac_trials.thisRepN,task2_praac_trials.thisTrialN,task2_praac_trials.thisN,task2_praac_trials.thisIndex,vts_prac_redo.thisRepN,vts_prac_redo.thisTrialN,vts_prac_redo.thisN,vts_prac_redo.thisIndex,vts_practice_trials.thisRepN,vts_practice_trials.thisTrialN,vts_practice_trials.thisN,vts_practice_trials.thisIndex,trials_norew.thisRepN,trials_norew.thisTrialN,trials_norew.thisN,trials_norew.thisIndex,block.thisRepN,block.thisTrialN,block.thisN,block.thisIndex,trials_rew.thisRepN,trials_rew.thisTrialN,trials_rew.thisN,trials_rew.thisIndex,key_resp.started,key_resp.keys,key_resp.rt,curr_topStim,curr_bottStim,curr_shape,ISI.started,tgt_fix_prac1.started,top_target_prac1.started,bott_target_prac1.started,target_resp_prac1.started,acc,E1,target_resp_prac1.keys,target_resp_prac1.rt,pracBlock,prac_fback_text.started,fix.started,top_target_prac1.stopped,tgt_fix_prac1.stopped,bott_target_prac1.stopped,target_resp_prac1.stopped,prac_fback_text.stopped,fix.stopped,tgt_fix_prac2.started,top_target_prac2.started,bott_target_prac2.started,target_resp_prac2.started,target_resp_prac2.keys,target_resp_prac2.rt,top_target_prac2.stopped,tgt_fix_prac2.stopped,bott_target_prac2.stopped,target_resp_prac2.stopped,star.started,hegagon.started,triangle.started,circle.started,star.stopped,hegagon.stopped,triangle.stopped,circle.stopped,top_target.started,tgt_fix.started,bot_target.started,target_resp.started,alt,task,condition,target_resp.keys,target_resp.rt,rewCond,points_trial,points_cumul,vts_fback.started,blockNum,norew_fback.started,norew_fback.stopped,key_resp_2.keys,key_resp_2.rt,rewExpectancy,feedbk_text.started,feedbk_text.stopped,text_3.started,text_3.stopped,button.started,debrief.index,debrief.itemText,debrief.type,debrief.granularity,debrief.font,debrief.markerColor,debrief.response,debrief.rt,button.numClicks,button.timesOn,button.timesOff,participant,date,expName,psychopyVersion,frameRate
,,,,,,,,,,,,,,,,,,,,,,,,,,,,,,,,,,,,,,,,,,,,,,,,,,,,,,,,,,,,,,,,,,,,,,,,,,,,,,,,,,,,,,,,,,,,,,,,,,,,,,,,,,,,,,,,,,,,,,,,,,,,,,,,,,,,,,,,,,,,,,,,39022,2022-10-25_10h28.10.269,vts_reward_expectancy_bt_OFFLINE,2022.2.4,59.97592842
1,0,0,0,0,0,0,1,triangle,star,0,0,0,0,0,0,0,0,2,59.49714409,59.49714409,59.49714409,59.49714409,59.49714409,59.49714409,59.49714409,59.49714409,59.49714409,59.49714409,l,1.514727857,,,,,,,,,,,,,,,,,,,,,,,,,,,,,,,,,,,,,,,,,,,,,,,,,,,,,,,,,,,,,,,,,,,,,,,,,,,,,,,,,,,,,,,,,1,1,,,,,,,,,,,,,,,,,,,,,,,,39022,2022-10-25_10h28.10.269,vts_reward_expectancy_bt_OFFLINE,2022.2.4,59.97592842
0,0,1,0,0,1,0,0,hexagon,circle,0,0,0,0,0,0,1,1,7,63.04208624,63.04208624,63.04208624,63.04208624,63.04208624,63.04208624,63.04208624,63.04208624,63.04208624,63.04208624,a,0.434427622,,,,,,,,,,,,,,,,,,,,,,,,,,,,,,,,,,,,,,,,,,,,,,,,,,,,,,,,,,,,,,,,,,,,,,,,,,,,,,,,,,,,,,,,,1,2,,,,,,,,,,,,,,,,,,,,,,,,39022,2022-10-25_10h28.10.269,vts_reward_expectancy_bt_OFFLINE,2022.2.4,59.97592842
0,0,0,1,1,0,0,0,star,triangle,0,0,0,0,0,0,2,2,9,65.51165724,65.51165724,65.51165724,65.51165724,65.51165724,65.51165724,65.51165724,65.51165724,65.51165724,65.51165724,a,0.251374618,,,,,,,,,,,,,,,,,,,,,,,,,,,,,,,,,,,,,,,,,,,,,,,,,,,,,,,,,,,,,,,,,,,,,,,,,,,,,,,,,,,,,,,,,10,12,,,,,,,,,,,,,,,,,,,,,,,,39022,2022-10-25_10h28.10.269,vts_reward_expectancy_bt_OFFLINE,2022.2.4,59.97592842
0,1,0,0,1,0,0,0,circle,triangle,0,0,0,0,0,0,3,3,3,67.79768173,67.79768173,67.79768173,67.79768173,67.79768173,67.79768173,67.79768173,67.79768173,67.79768173,67.79768173,a,0.334155249,,,,,,,,,,,,,,,,,,,,,,,,,,,,,,,,,,,,,,,,,,,,,,,,,,,,,,,,,,,,,,,,,,,,,,,,,,,,,,,,,,,,,,,,,1,13,,,,,,,,,,,,,,,,,,,,,,,,39022,2022-10-25_10h28.10.269,vts_reward_expectancy_bt_OFFLINE,2022.2.4,59.97592842
0,0,0,1,0,0,1,0,star,hexagon,0,0,0,0,0,0,4,4,11,70.16669343,70.16669343,70.16669343,70.16669343,70.16669343,70.16669343,70.16669343,70.16669343,70.16669343,70.16669343,a,0.595920117,,,,,,,,,,,,,,,,,,,,,,,,,,,,,,,,,,,,,,,,,,,,,,,,,,,,,,,,,,,,,,,,,,,,,,,,,,,,,,,,,,,,,,,,,1,14,,,,,,,,,,,,,,,,,,,,,,,,39022,2022-10-25_10h28.10.269,vts_reward_expectancy_bt_OFFLINE,2022.2.4,59.97592842
1,0,0,0,0,0,1,0,triangle,hexagon,0,0,0,0,0,0,5,5,1,72.78647111,72.78647111,72.78647111,72.78647111,72.78647111,72.78647111,72.78647111,72.78647111,72.78647111,72.78647111,a,1.191791051,,,,,,,,,,,,,,,,,,,,,,,,,,,,,,,,,,,,,,,,,,,,,,,,,,,,,,,,,,,,,,,,,,,,,,,,,,,,,,,,,,,,,,,,,1,15,,,,,,,,,,,,,,,,,,,,,,,,39022,2022-10-25_10h28.10.269,vts_reward_expectancy_bt_OFFLINE,2022.2.4,59.97592842
0,0,1,0,1,0,0,0,hexagon,triangle,0,0,0,0,0,0,6,6,6,76.0064913,76.0064913,76.0064913,76.0064913,76.0064913,76.0064913,76.0064913,76.0064913,76.0064913,76.0064913,a,0.581987922,,,,,,,,,,,,,,,,,,,,,,,,,,,,,,,,,,,,,,,,,,,,,,,,,,,,,,,,,,,,,,,,,,,,,,,,,,,,,,,,,,,,,,,,,1,16,,,,,,,,,,,,,,,,,,,,,,,,39022,2022-10-25_10h28.10.269,vts_reward_expectancy_bt_OFFLINE,2022.2.4,59.97592842
0,1,0,0,0,0,0,1,circle,star,0,0,0,0,0,0,7,7,5,78.60929664,78.60929664,78.60929664,78.60929664,78.60929664,78.60929664,78.60929664,78.60929664,78.60929664,78.60929664,l,0.322566053,,,,,,,,,,,,,,,,,,,,,,,,,,,,,,,,,,,,,,,,,,,,,,,,,,,,,,,,,,,,,,,,,,,,,,,,,,,,,,,,,,,,,,,,,1,17,,,,,,,,,,,,,,,,,,,,,,,,39022,2022-10-25_10h28.10.269,vts_reward_expectancy_bt_OFFLINE,2022.2.4,59.97592842
0,0,1,0,0,0,0,1,hexagon,star,0,0,0,0,0,0,8,8,8,80.96189946,80.96189946,80.96189946,80.96189946,80.96189946,80.96189946,80.96189946,80.96189946,80.96189946,80.96189946,a,0.297531236,,,,,,,,,,,,,,,,,,,,,,,,,,,,,,,,,,,,,,,,,,,,,,,,,,,,,,,,,,,,,,,,,,,,,,,,,,,,,,,,,,,,,,,,,10,27,,,,,,,,,,,,,,,,,,,,,,,,39022,2022-10-25_10h28.10.269,vts_reward_expectancy_bt_OFFLINE,2022.2.4,59.97592842
0,0,0,1,0,1,0,0,star ,circle,0,0,0,0,0,0,9,9,10,83.28105187,83.28105187,83.28105187,83.28105187,83.28105187,83.28105187,83.28105187,83.28105187,83.28105187,83.28105187,l,1.026434681,,,,,,,,,,,,,,,,,,,,,,,,,,,,,,,,,,,,,,,,,,,,,,,,,,,,,,,,,,,,,,,,,,,,,,,,,,,,,,,,,,,,,,,,,1,28,,,,,,,,,,,,,,,,,,,,,,,,39022,2022-10-25_10h28.10.269,vts_reward_expectancy_bt_OFFLINE,2022.2.4,59.97592842
1,0,0,0,0,1,0,0,triangle,circle,0,0,0,0,0,0,10,10,0,86.33439076,86.33439076,86.33439076,86.33439076,86.33439076,86.33439076,86.33439076,86.33439076,86.33439076,86.33439076,l,0.940545436,,,,,,,,,,,,,,,,,,,,,,,,,,,,,,,,,,,,,,,,,,,,,,,,,,,,,,,,,,,,,,,,,,,,,,,,,,,,,,,,,,,,,,,,,1,29,,,,,,,,,,,,,,,,,,,,,,,,39022,2022-10-25_10h28.10.269,vts_reward_expectancy_bt_OFFLINE,2022.2.4,59.97592842
0,1,0,0,0,0,1,0,circle,hexagon,0,0,0,0,0,0,11,11,4,89.30433821,89.30433821,89.30433821,89.30433821,89.30433821,89.30433821,89.30433821,89.30433821,89.30433821,89.30433821,a,0.523340843,,,,,,,,,,,,,,,,,,,,,,,,,,,,,,,,,,,,,,,,,,,,,,,,,,,,,,,,,,,,,,,,,,,,,,,,,,,,,,,,,,,,,,,,,1,30,,,,,,,,,,,,,,,,,,,,,,,,39022,2022-10-25_10h28.10.269,vts_reward_expectancy_bt_OFFLINE,2022.2.4,59.97592842
0,1,0,0,1,0,0,0,circle,triangle,0,0,0,0,0,1,0,12,3,91.85727644,91.85727644,91.85727644,91.85727644,91.85727644,91.85727644,91.85727644,91.85727644,91.85727644,91.85727644,l,0.26718497,,,,,,,,,,,,,,,,,,,,,,,,,,,,,,,,,,,,,,,,,,,,,,,,,,,,,,,,,,,,,,,,,,,,,,,,,,,,,,,,,,,,,,,,,1,31,,,,,,,,,,,,,,,,,,,,,,,,39022,2022-10-25_10h28.10.269,vts_reward_expectancy_bt_OFFLINE,2022.2.4,59.97592842
0,0,1,0,0,1,0,0,hexagon,circle,0,0,0,0,0,1,1,13,7,94.14304943,94.14304943,94.14304943,94.14304943,94.14304943,94.14304943,94.14304943,94.14304943,94.14304943,94.14304943,a,0.284441776,,,,,,,,,,,,,,,,,,,,,,,,,,,,,,,,,,,,,,,,,,,,,,,,,,,,,,,,,,,,,,,,,,,,,,,,,,,,,,,,,,,,,,,,,1,32,,,,,,,,,,,,,,,,,,,,,,,,39022,2022-10-25_10h28.10.269,vts_reward_expectancy_bt_OFFLINE,2022.2.4,59.97592842
0,0,1,0,1,0,0,0,hexagon,triangle,0,0,0,0,0,1,2,14,6,96.46219679,96.46219679,96.46219679,96.46219679,96.46219679,96.46219679,96.46219679,96.46219679,96.46219679,96.46219679,a,0.244600483,,,,,,,,,,,,,,,,,,,,,,,,,,,,,,,,,,,,,,,,,,,,,,,,,,,,,,,,,,,,,,,,,,,,,,,,,,,,,,,,,,,,,,,,,1,33,,,,,,,,,,,,,,,,,,,,,,,,39022,2022-10-25_10h28.10.269,vts_reward_expectancy_bt_OFFLINE,2022.2.4,59.97592842
1,0,0,0,0,0,0,1,triangle,star,0,0,0,0,0,1,3,15,2,98.73135945,98.73135945,98.73135945,98.73135945,98.73135945,98.73135945,98.73135945,98.73135945,98.73135945,98.73135945,a,0.351709193,,,,,,,,,,,,,,,,,,,,,,,,,,,,,,,,,,,,,,,,,,,,,,,,,,,,,,,,,,,,,,,,,,,,,,,,,,,,,,,,,,,,,,,,,10,43,,,,,,,,,,,,,,,,,,,,,,,,39022,2022-10-25_10h28.10.269,vts_reward_expectancy_bt_OFFLINE,2022.2.4,59.97592842
0,1,0,0,0,0,1,0,circle,hexagon,0,0,0,0,0,1,4,16,4,101.1176106,101.1176106,101.1176106,101.1176106,101.1176106,101.1176106,101.1176106,101.1176106,101.1176106,101.1176106,l,0.668669764,,,,,,,,,,,,,,,,,,,,,,,,,,,,,,,,,,,,,,,,,,,,,,,,,,,,,,,,,,,,,,,,,,,,,,,,,,,,,,,,,,,,,,,,,1,44,,,,,,,,,,,,,,,,,,,,,,,,39022,2022-10-25_10h28.10.269,vts_reward_expectancy_bt_OFFLINE,2022.2.4,59.97592842
0,1,0,0,0,0,0,1,circle,star,0,0,0,0,0,1,5,17,5,103.8205097,103.8205097,103.8205097,103.8205097,103.8205097,103.8205097,103.8205097,103.8205097,103.8205097,103.8205097,a,0.486576165,,,,,,,,,,,,,,,,,,,,,,,,,,,,,,,,,,,,,,,,,,,,,,,,,,,,,,,,,,,,,,,,,,,,,,,,,,,,,,,,,,,,,,,,,1,45,,,,,,,,,,,,,,,,,,,,,,,,39022,2022-10-25_10h28.10.269,vts_reward_expectancy_bt_OFFLINE,2022.2.4,59.97592842
0,0,0,1,0,0,1,0,star,hexagon,0,0,0,0,0,1,6,18,11,106.3397874,106.3397874,106.3397874,106.3397874,106.3397874,106.3397874,106.3397874,106.3397874,106.3397874,106.3397874,a,0.319493822,,,,,,,,,,,,,,,,,,,,,,,,,,,,,,,,,,,,,,,,,,,,,,,,,,,,,,,,,,,,,,,,,,,,,,,,,,,,,,,,,,,,,,,,,10,55,,,,,,,,,,,,,,,,,,,,,,,,39022,2022-10-25_10h28.10.269,vts_reward_expectancy_bt_OFFLINE,2022.2.4,59.97592842
0,0,0,1,0,1,0,0,star ,circle,0,0,0,0,0,1,7,19,10,108.6924077,108.6924077,108.6924077,108.6924077,108.6924077,108.6924077,108.6924077,108.6924077,108.6924077,108.6924077,a,0.310892046,,,,,,,,,,,,,,,,,,,,,,,,,,,,,,,,,,,,,,,,,,,,,,,,,,,,,,,,,,,,,,,,,,,,,,,,,,,,,,,,,,,,,,,,,10,65,,,,,,,,,,,,,,,,,,,,,,,,39022,2022-10-25_10h28.10.269,vts_reward_expectancy_bt_OFFLINE,2022.2.4,59.97592842
0,0,1,0,0,0,0,1,hexagon,star,0,0,0,0,0,1,8,20,8,111.0283513,111.0283513,111.0283513,111.0283513,111.0283513,111.0283513,111.0283513,111.0283513,111.0283513,111.0283513,l,0.558402157,,,,,,,,,,,,,,,,,,,,,,,,,,,,,,,,,,,,,,,,,,,,,,,,,,,,,,,,,,,,,,,,,,,,,,,,,,,,,,,,,,,,,,,,,1,66,,,,,,,,,,,,,,,,,,,,,,,,39022,2022-10-25_10h28.10.269,vts_reward_expectancy_bt_OFFLINE,2022.2.4,59.97592842
1,0,0,0,0,1,0,0,triangle,circle,0,0,0,0,0,1,9,21,0,113.6144529,113.6144529,113.6144529,113.6144529,113.6144529,113.6144529,113.6144529,113.6144529,113.6144529,113.6144529,a,0.29301572,,,,,,,,,,,,,,,,,,,,,,,,,,,,,,,,,,,,,,,,,,,,,,,,,,,,,,,,,,,,,,,,,,,,,,,,,,,,,,,,,,,,,,,,,10,76,,,,,,,,,,,,,,,,,,,,,,,,39022,2022-10-25_10h28.10.269,vts_reward_expectancy_bt_OFFLINE,2022.2.4,59.97592842
0,0,0,1,1,0,0,0,star,triangle,0,0,0,0,0,1,10,22,9,115.9339155,115.9339155,115.9339155,115.9339155,115.9339155,115.9339155,115.9339155,115.9339155,115.9339155,115.9339155,a,0.309389511,,,,,,,,,,,,,,,,,,,,,,,,,,,,,,,,,,,,,,,,,,,,,,,,,,,,,,,,,,,,,,,,,,,,,,,,,,,,,,,,,,,,,,,,,10,86,,,,,,,,,,,,,,,,,,,,,,,,39022,2022-10-25_10h28.10.269,vts_reward_expectancy_bt_OFFLINE,2022.2.4,59.97592842
1,0,0,0,0,0,1,0,triangle,hexagon,0,0,0,0,0,1,11,23,1,118.2697696,118.2697696,118.2697696,118.2697696,118.2697696,118.2697696,118.2697696,118.2697696,118.2697696,118.2697696,a,0.301280934,,,,,,,,,,,,,,,,,,,,,,,,,,,,,,,,,,,,,,,,,,,,,,,,,,,,,,,,,,,,,,,,,,,,,,,,,,,,,,,,,,,,,,,,,10,96,,,,,,,,,,,,,,,,,,,,,,,,39022,2022-10-25_10h28.10.269,vts_reward_expectancy_bt_OFFLINE,2022.2.4,59.97592842
0,0,1,0,0,0,0,1,hexagon,star,0,0,0,0,0,2,0,24,8,120.605708,120.605708,120.605708,120.605708,120.605708,120.605708,120.605708,120.605708,120.605708,120.605708,l,0.284585141,,,,,,,,,,,,,,,,,,,,,,,,,,,,,,,,,,,,,,,,,,,,,,,,,,,,,,,,,,,,,,,,,,,,,,,,,,,,,,,,,,,,,,,,,1,97,,,,,,,,,,,,,,,,,,,,,,,,39022,2022-10-25_10h28.10.269,vts_reward_expectancy_bt_OFFLINE,2022.2.4,59.97592842
1,0,0,0,0,0,0,1,triangle,star,0,0,0,0,0,2,1,25,2,122.9249248,122.9249248,122.9249248,122.9249248,122.9249248,122.9249248,122.9249248,122.9249248,122.9249248,122.9249248,l,0.294794139,,,,,,,,,,,,,,,,,,,,,,,,,,,,,,,,,,,,,,,,,,,,,,,,,,,,,,,,,,,,,,,,,,,,,,,,,,,,,,,,,,,,,,,,,1,98,,,,,,,,,,,,,,,,,,,,,,,,39022,2022-10-25_10h28.10.269,vts_reward_expectancy_bt_OFFLINE,2022.2.4,59.97592842
0,0,1,0,1,0,0,0,hexagon,triangle,0,0,0,0,0,2,2,26,6,125.2439964,125.2439964,125.2439964,125.2439964,125.2439964,125.2439964,125.2439964,125.2439964,125.2439964,125.2439964,a,0.279446121,,,,,,,,,,,,,,,,,,,,,,,,,,,,,,,,,,,,,,,,,,,,,,,,,,,,,,,,,,,,,,,,,,,,,,,,,,,,,,,,,,,,,,,,,10,108,,,,,,,,,,,,,,,,,,,,,,,,39022,2022-10-25_10h28.10.269,vts_reward_expectancy_bt_OFFLINE,2022.2.4,59.97592842
0,0,0,1,0,1,0,0,star ,circle,0,0,0,0,0,2,3,27,10,127.5464988,127.5464988,127.5464988,127.5464988,127.5464988,127.5464988,127.5464988,127.5464988,127.5464988,127.5464988,a,0.311881027,,,,,,,,,,,,,,,,,,,,,,,,,,,,,,,,,,,,,,,,,,,,,,,,,,,,,,,,,,,,,,,,,,,,,,,,,,,,,,,,,,,,,,,,,10,118,,,,,,,,,,,,,,,,,,,,,,,,39022,2022-10-25_10h28.10.269,vts_reward_expectancy_bt_OFFLINE,2022.2.4,59.97592842
0,0,0,1,1,0,0,0,star,triangle,0,0,0,0,0,2,4,28,9,129.8825599,129.8825599,129.8825599,129.8825599,129.8825599,129.8825599,129.8825599,129.8825599,129.8825599,129.8825599,a,0.465015325,,,,,,,,,,,,,,,,,,,,,,,,,,,,,,,,,,,,,,,,,,,,,,,,,,,,,,,,,,,,,,,,,,,,,,,,,,,,,,,,,,,,,,,,,10,128,,,,,,,,,,,,,,,,,,,,,,,,39022,2022-10-25_10h28.10.269,vts_reward_expectancy_bt_OFFLINE,2022.2.4,59.97592842
0,0,1,0,0,1,0,0,hexagon,circle,0,0,0,0,0,2,5,29,7,132.3685266,132.3685266,132.3685266,132.3685266,132.3685266,132.3685266,132.3685266,132.3685266,132.3685266,132.3685266,a,0.331104415,,,,,,,,,,,,,,,,,,,,,,,,,,,,,,,,,,,,,,,,,,,,,,,,,,,,,,,,,,,,,,,,,,,,,,,,,,,,,,,,,,,,,,,,,10,138,,,,,,,,,,,,,,,,,,,,,,,,39022,2022-10-25_10h28.10.269,vts_reward_expectancy_bt_OFFLINE,2022.2.4,59.97592842
1,0,0,0,0,0,1,0,triangle,hexagon,0,0,0,0,0,2,6,30,1,134.7211912,134.7211912,134.7211912,134.7211912,134.7211912,134.7211912,134.7211912,134.7211912,134.7211912,134.7211912,a,0.3384426,,,,,,,,,,,,,,,,,,,,,,,,,,,,,,,,,,,,,,,,,,,,,,,,,,,,,,,,,,,,,,,,,,,,,,,,,,,,,,,,,,,,,,,,,1,139,,,,,,,,,,,,,,,,,,,,,,,,39022,2022-10-25_10h28.10.269,vts_reward_expectancy_bt_OFFLINE,2022.2.4,59.97592842
0,1,0,0,0,0,1,0,circle,hexagon,0,0,0,0,0,2,7,31,4,137.0905164,137.0905164,137.0905164,137.0905164,137.0905164,137.0905164,137.0905164,137.0905164,137.0905164,137.0905164,l,0.280531879,,,,,,,,,,,,,,,,,,,,,,,,,,,,,,,,,,,,,,,,,,,,,,,,,,,,,,,,,,,,,,,,,,,,,,,,,,,,,,,,,,,,,,,,,1,140,,,,,,,,,,,,,,,,,,,,,,,,39022,2022-10-25_10h28.10.269,vts_reward_expectancy_bt_OFFLINE,2022.2.4,59.97592842
0,0,0,1,0,0,1,0,star,hexagon,0,0,0,0,0,2,8,32,11,139.3928883,139.3928883,139.3928883,139.3928883,139.3928883,139.3928883,139.3928883,139.3928883,139.3928883,139.3928883,a,0.306440026,,,,,,,,,,,,,,,,,,,,,,,,,,,,,,,,,,,,,,,,,,,,,,,,,,,,,,,,,,,,,,,,,,,,,,,,,,,,,,,,,,,,,,,,,1,141,,,,,,,,,,,,,,,,,,,,,,,,39022,2022-10-25_10h28.10.269,vts_reward_expectancy_bt_OFFLINE,2022.2.4,59.97592842
1,0,0,0,0,1,0,0,triangle,circle,0,0,0,0,0,2,9,33,0,141.729003,141.729003,141.729003,141.729003,141.729003,141.729003,141.729003,141.729003,141.729003,141.729003,a,0.314284905,,,,,,,,,,,,,,,,,,,,,,,,,,,,,,,,,,,,,,,,,,,,,,,,,,,,,,,,,,,,,,,,,,,,,,,,,,,,,,,,,,,,,,,,,10,151,,,,,,,,,,,,,,,,,,,,,,,,39022,2022-10-25_10h28.10.269,vts_reward_expectancy_bt_OFFLINE,2022.2.4,59.97592842
0,1,0,0,1,0,0,0,circle,triangle,0,0,0,0,0,2,10,34,3,144.0649018,144.0649018,144.0649018,144.0649018,144.0649018,144.0649018,144.0649018,144.0649018,144.0649018,144.0649018,a,0.330111602,,,,,,,,,,,,,,,,,,,,,,,,,,,,,,,,,,,,,,,,,,,,,,,,,,,,,,,,,,,,,,,,,,,,,,,,,,,,,,,,,,,,,,,,,10,161,,,,,,,,,,,,,,,,,,,,,,,,39022,2022-10-25_10h28.10.269,vts_reward_expectancy_bt_OFFLINE,2022.2.4,59.97592842
0,1,0,0,0,0,0,1,circle,star,0,0,0,0,0,2,11,35,5,146.4174311,146.4174311,146.4174311,146.4174311,146.4174311,146.4174311,146.4174311,146.4174311,146.4174311,146.4174311,a,0.506234946,,,,,,,,,,,,,,,,,,,,,,,,,,,,,,,,,,,,,,,,,,,,,,,,,,,,,,,,,,,,,,,,,,,,,,,,,,,,,,,,,,,,,,,,,1,162,,,,,,,,,,,,,,,,,,,,,,,,39022,2022-10-25_10h28.10.269,vts_reward_expectancy_bt_OFFLINE,2022.2.4,59.97592842
0,0,1,0,0,0,0,1,hexagon,star,0,0,0,0,0,3,0,36,8,148.9536423,148.9536423,148.9536423,148.9536423,148.9536423,148.9536423,148.9536423,148.9536423,148.9536423,148.9536423,a,0.281227809,,,,,,,,,,,,,,,,,,,,,,,,,,,,,,,,,,,,,,,,,,,,,,,,,,,,,,,,,,,,,,,,,,,,,,,,,,,,,,,,,,,,,,,,,1,163,,,,,,,,,,,,,,,,,,,,,,,,39022,2022-10-25_10h28.10.269,vts_reward_expectancy_bt_OFFLINE,2022.2.4,59.97592842
0,0,0,1,0,0,1,0,star,hexagon,0,0,0,0,0,3,1,37,11,151.2561421,151.2561421,151.2561421,151.2561421,151.2561421,151.2561421,151.2561421,151.2561421,151.2561421,151.2561421,a,0.290284147,,,,,,,,,,,,,,,,,,,,,,,,,,,,,,,,,,,,,,,,,,,,,,,,,,,,,,,,,,,,,,,,,,,,,,,,,,,,,,,,,,,,,,,,,10,173,,,,,,,,,,,,,,,,,,,,,,,,39022,2022-10-25_10h28.10.269,vts_reward_expectancy_bt_OFFLINE,2022.2.4,59.97592842
0,0,0,1,0,1,0,0,star ,circle,0,0,0,0,0,3,2,38,10,153.575364,153.575364,153.575364,153.575364,153.575364,153.575364,153.575364,153.575364,153.575364,153.575364,a,0.331738151,,,,,,,,,,,,,,,,,,,,,,,,,,,,,,,,,,,,,,,,,,,,,,,,,,,,,,,,,,,,,,,,,,,,,,,,,,,,,,,,,,,,,,,,,10,183,,,,,,,,,,,,,,,,,,,,,,,,39022,2022-10-25_10h28.10.269,vts_reward_expectancy_bt_OFFLINE,2022.2.4,59.97592842
0,0,0,1,1,0,0,0,star,triangle,0,0,0,0,0,3,3,39,9,155.927889,155.927889,155.927889,155.927889,155.927889,155.927889,155.927889,155.927889,155.927889,155.927889,l,0.290859582,,,,,,,,,,,,,,,,,,,,,,,,,,,,,,,,,,,,,,,,,,,,,,,,,,,,,,,,,,,,,,,,,,,,,,,,,,,,,,,,,,,,,,,,,10,193,,,,,,,,,,,,,,,,,,,,,,,,39022,2022-10-25_10h28.10.269,vts_reward_expectancy_bt_OFFLINE,2022.2.4,59.97592842
0,1,0,0,0,0,1,0,circle,hexagon,0,0,0,0,0,3,4,40,4,158.2470413,158.2470413,158.2470413,158.2470413,158.2470413,158.2470413,158.2470413,158.2470413,158.2470413,158.2470413,l,0.30117306,,,,,,,,,,,,,,,,,,,,,,,,,,,,,,,,,,,,,,,,,,,,,,,,,,,,,,,,,,,,,,,,,,,,,,,,,,,,,,,,,,,,,,,,,1,194,,,,,,,,,,,,,,,,,,,,,,,,39022,2022-10-25_10h28.10.269,vts_reward_expectancy_bt_OFFLINE,2022.2.4,59.97592842
0,0,1,0,1,0,0,0,hexagon,triangle,0,0,0,0,0,3,5,41,6,160.5830608,160.5830608,160.5830608,160.5830608,160.5830608,160.5830608,160.5830608,160.5830608,160.5830608,160.5830608,a,0.40434667,,,,,,,,,,,,,,,,,,,,,,,,,,,,,,,,,,,,,,,,,,,,,,,,,,,,,,,,,,,,,,,,,,,,,,,,,,,,,,,,,,,,,,,,,10,204,,,,,,,,,,,,,,,,,,,,,,,,39022,2022-10-25_10h28.10.269,vts_reward_expectancy_bt_OFFLINE,2022.2.4,59.97592842
0,1,0,0,0,0,0,1,circle,star,0,0,0,0,0,3,6,42,5,163.0192316,163.0192316,163.0192316,163.0192316,163.0192316,163.0192316,163.0192316,163.0192316,163.0192316,163.0192316,a,0.312149526,,,,,,,,,,,,,,,,,,,,,,,,,,,,,,,,,,,,,,,,,,,,,,,,,,,,,,,,,,,,,,,,,,,,,,,,,,,,,,,,,,,,,,,,,1,205,,,,,,,,,,,,,,,,,,,,,,,,39022,2022-10-25_10h28.10.269,vts_reward_expectancy_bt_OFFLINE,2022.2.4,59.97592842
1,0,0,0,0,0,0,1,triangle,star,0,0,0,0,0,3,7,43,2,165.3550511,165.3550511,165.3550511,165.3550511,165.3550511,165.3550511,165.3550511,165.3550511,165.3550511,165.3550511,a,0.407739501,,,,,,,,,,,,,,,,,,,,,,,,,,,,,,,,,,,,,,,,,,,,,,,,,,,,,,,,,,,,,,,,,,,,,,,,,,,,,,,,,,,,,,,,,1,206,,,,,,,,,,,,,,,,,,,,,,,,39022,2022-10-25_10h28.10.269,vts_reward_expectancy_bt_OFFLINE,2022.2.4,59.97592842
1,0,0,0,0,1,0,0,triangle,circle,0,0,0,0,0,3,8,44,0,167.7910882,167.7910882,167.7910882,167.7910882,167.7910882,167.7910882,167.7910882,167.7910882,167.7910882,167.7910882,l,0.123237982,,,,,,,,,,,,,,,,,,,,,,,,,,,,,,,,,,,,,,,,,,,,,,,,,,,,,,,,,,,,,,,,,,,,,,,,,,,,,,,,,,,,,,,,,1,207,,,,,,,,,,,,,,,,,,,,,,,,39022,2022-10-25_10h28.10.269,vts_reward_expectancy_bt_OFFLINE,2022.2.4,59.97592842
0,1,0,0,1,0,0,0,circle,triangle,0,0,0,0,0,3,9,45,3,169.9434169,169.9434169,169.9434169,169.9434169,169.9434169,169.9434169,169.9434169,169.9434169,169.9434169,169.9434169,l,0.084291484,,,,,,,,,,,,,,,,,,,,,,,,,,,,,,,,,,,,,,,,,,,,,,,,,,,,,,,,,,,,,,,,,,,,,,,,,,,,,,,,,,,,,,,,,10,217,,,,,,,,,,,,,,,,,,,,,,,,39022,2022-10-25_10h28.10.269,vts_reward_expectancy_bt_OFFLINE,2022.2.4,59.97592842
0,0,1,0,0,1,0,0,hexagon,circle,0,0,0,0,0,3,10,46,7,172.0625658,172.0625658,172.0625658,172.0625658,172.0625658,172.0625658,172.0625658,172.0625658,172.0625658,172.0625658,a,0.307884781,,,,,,,,,,,,,,,,,,,,,,,,,,,,,,,,,,,,,,,,,,,,,,,,,,,,,,,,,,,,,,,,,,,,,,,,,,,,,,,,,,,,,,,,,1,218,,,,,,,,,,,,,,,,,,,,,,,,39022,2022-10-25_10h28.10.269,vts_reward_expectancy_bt_OFFLINE,2022.2.4,59.97592842
1,0,0,0,0,0,1,0,triangle,hexagon,0,0,0,0,0,3,11,47,1,174.3983093,174.3983093,174.3983093,174.3983093,174.3983093,174.3983093,174.3983093,174.3983093,174.3983093,174.3983093,l,0.133959046,,,,,,,,,,,,,,,,,,,,,,,,,,,,,,,,,,,,,,,,,,,,,,,,,,,,,,,,,,,,,,,,,,,,,,,,,,,,,,,,,,,,,,,,,1,219,,,,,,,,,,,,,,,,,,,,,,,,39022,2022-10-25_10h28.10.269,vts_reward_expectancy_bt_OFFLINE,2022.2.4,59.97592842
0,0,1,0,0,1,0,0,hexagon,circle,1,1,0,1,0,0,0,0,7,181.795626,181.795626,181.795626,181.795626,181.795626,181.795626,181.795626,181.795626,181.795626,181.795626,l,0.902837597,,,,,,,,,,,,,,,,,,,,,,,,,,,,,,,,,,,,,,,,,,,,,,,,,,,,,,,,,,,,,,,,,,,,,,,,,,,,,,,,,,,,,,,,,1,220,,,,,,,,,,,,,,,,,,,,,,,,39022,2022-10-25_10h28.10.269,vts_reward_expectancy_bt_OFFLINE,2022.2.4,59.97592842
1,0,0,0,0,0,1,0,triangle,hexagon,1,1,0,1,0,0,1,1,1,184.7265459,184.7265459,184.7265459,184.7265459,184.7265459,184.7265459,184.7265459,184.7265459,184.7265459,184.7265459,a,0.389412643,,,,,,,,,,,,,,,,,,,,,,,,,,,,,,,,,,,,,,,,,,,,,,,,,,,,,,,,,,,,,,,,,,,,,,,,,,,,,,,,,,,,,,,,,10,230,,,,,,,,,,,,,,,,,,,,,,,,39022,2022-10-25_10h28.10.269,vts_reward_expectancy_bt_OFFLINE,2022.2.4,59.97592842
1,0,0,0,0,1,0,0,triangle,circle,1,1,0,1,0,0,2,2,0,187.1458533,187.1458533,187.1458533,187.1458533,187.1458533,187.1458533,187.1458533,187.1458533,187.1458533,187.1458533,a,0.297530057,,,,,,,,,,,,,,,,,,,,,,,,,,,,,,,,,,,,,,,,,,,,,,,,,,,,,,,,,,,,,,,,,,,,,,,,,,,,,,,,,,,,,,,,,10,240,,,,,,,,,,,,,,,,,,,,,,,,39022,2022-10-25_10h28.10.269,vts_reward_expectancy_bt_OFFLINE,2022.2.4,59.97592842
0,0,1,0,0,0,0,1,hexagon,star,1,1,0,1,0,0,3,3,8,189.4650846,189.4650846,189.4650846,189.4650846,189.4650846,189.4650846,189.4650846,189.4650846,189.4650846,189.4650846,a,0.282802979,,,,,,,,,,,,,,,,,,,,,,,,,,,,,,,,,,,,,,,,,,,,,,,,,,,,,,,,,,,,,,,,,,,,,,,,,,,,,,,,,,,,,,,,,10,250,,,,,,,,,,,,,,,,,,,,,,,,39022,2022-10-25_10h28.10.269,vts_reward_expectancy_bt_OFFLINE,2022.2.4,59.97592842
0,1,0,0,0,0,1,0,circle,hexagon,1,1,0,1,0,0,4,4,4,191.76741,191.76741,191.76741,191.76741,191.76741,191.76741,191.76741,191.76741,191.76741,191.76741,a,0.307063841,,,,,,,,,,,,,,,,,,,,,,,,,,,,,,,,,,,,,,,,,,,,,,,,,,,,,,,,,,,,,,,,,,,,,,,,,,,,,,,,,,,,,,,,,1,251,,,,,,,,,,,,,,,,,,,,,,,,39022,2022-10-25_10h28.10.269,vts_reward_expectancy_bt_OFFLINE,2022.2.4,59.97592842
0,0,0,1,1,0,0,0,star,triangle,1,1,0,1,0,0,5,5,9,194.1034078,194.1034078,194.1034078,194.1034078,194.1034078,194.1034078,194.1034078,194.1034078,194.1034078,194.1034078,l,0.332292333,,,,,,,,,,,,,,,,,,,,,,,,,,,,,,,,,,,,,,,,,,,,,,,,,,,,,,,,,,,,,,,,,,,,,,,,,,,,,,,,,,,,,,,,,10,261,,,,,,,,,,,,,,,,,,,,,,,,39022,2022-10-25_10h28.10.269,vts_reward_expectancy_bt_OFFLINE,2022.2.4,59.97592842
1,0,0,0,0,0,0,1,triangle,star,1,1,0,1,0,0,6,6,2,196.4560068,196.4560068,196.4560068,196.4560068,196.4560068,196.4560068,196.4560068,196.4560068,196.4560068,196.4560068,l,0.29146674,,,,,,,,,,,,,,,,,,,,,,,,,,,,,,,,,,,,,,,,,,,,,,,,,,,,,,,,,,,,,,,,,,,,,,,,,,,,,,,,,,,,,,,,,1,262,,,,,,,,,,,,,,,,,,,,,,,,39022,2022-10-25_10h28.10.269,vts_reward_expectancy_bt_OFFLINE,2022.2.4,59.97592842
0,0,0,1,0,1,0,0,star ,circle,1,1,0,1,0,0,7,7,10,198.7751354,198.7751354,198.7751354,198.7751354,198.7751354,198.7751354,198.7751354,198.7751354,198.7751354,198.7751354,l,0.419986502,,,,,,,,,,,,,,,,,,,,,,,,,,,,,,,,,,,,,,,,,,,,,,,,,,,,,,,,,,,,,,,,,,,,,,,,,,,,,,,,,,,,,,,,,1,263,,,,,,,,,,,,,,,,,,,,,,,,39022,2022-10-25_10h28.10.269,vts_reward_expectancy_bt_OFFLINE,2022.2.4,59.97592842
0,1,0,0,0,0,0,1,circle,star,1,1,0,1,0,0,8,8,5,201.2283095,201.2283095,201.2283095,201.2283095,201.2283095,201.2283095,201.2283095,201.2283095,201.2283095,201.2283095,a,0.295235737,,,,,,,,,,,,,,,,,,,,,,,,,,,,,,,,,,,,,,,,,,,,,,,,,,,,,,,,,,,,,,,,,,,,,,,,,,,,,,,,,,,,,,,,,1,264,,,,,,,,,,,,,,,,,,,,,,,,39022,2022-10-25_10h28.10.269,vts_reward_expectancy_bt_OFFLINE,2022.2.4,59.97592842
0,1,0,0,1,0,0,0,circle,triangle,1,1,0,1,0,0,9,9,3,203.5471384,203.5471384,203.5471384,203.5471384,203.5471384,203.5471384,203.5471384,203.5471384,203.5471384,203.5471384,l,0.304323505,,,,,,,,,,,,,,,,,,,,,,,,,,,,,,,,,,,,,,,,,,,,,,,,,,,,,,,,,,,,,,,,,,,,,,,,,,,,,,,,,,,,,,,,,10,274,,,,,,,,,,,,,,,,,,,,,,,,39022,2022-10-25_10h28.10.269,vts_reward_expectancy_bt_OFFLINE,2022.2.4,59.97592842
0,0,0,1,0,0,1,0,star,hexagon,1,1,0,1,0,0,10,10,11,205.8830861,205.8830861,205.8830861,205.8830861,205.8830861,205.8830861,205.8830861,205.8830861,205.8830861,205.8830861,l,0.343659895,,,,,,,,,,,,,,,,,,,,,,,,,,,,,,,,,,,,,,,,,,,,,,,,,,,,,,,,,,,,,,,,,,,,,,,,,,,,,,,,,,,,,,,,,10,284,,,,,,,,,,,,,,,,,,,,,,,,39022,2022-10-25_10h28.10.269,vts_reward_expectancy_bt_OFFLINE,2022.2.4,59.97592842
0,0,1,0,1,0,0,0,hexagon,triangle,1,1,0,1,0,0,11,11,6,208.2523105,208.2523105,208.2523105,208.2523105,208.2523105,208.2523105,208.2523105,208.2523105,208.2523105,208.2523105,l,0.478885782,,,,,,,,,,,,,,,,,,,,,,,,,,,,,,,,,,,,,,,,,,,,,,,,,,,,,,,,,,,,,,,,,,,,,,,,,,,,,,,,,,,,,,,,,10,294,,,,,,,,,,,,,,,,,,,,,,,,39022,2022-10-25_10h28.10.269,vts_reward_expectancy_bt_OFFLINE,2022.2.4,59.97592842
0,0,1,0,0,1,0,0,hexagon,circle,1,1,0,1,0,1,0,12,7,210.7550708,210.7550708,210.7550708,210.7550708,210.7550708,210.7550708,210.7550708,210.7550708,210.7550708,210.7550708,l,0.344376671,,,,,,,,,,,,,,,,,,,,,,,,,,,,,,,,,,,,,,,,,,,,,,,,,,,,,,,,,,,,,,,,,,,,,,,,,,,,,,,,,,,,,,,,,10,304,,,,,,,,,,,,,,,,,,,,,,,,39022,2022-10-25_10h28.10.269,vts_reward_expectancy_bt_OFFLINE,2022.2.4,59.97592842
0,0,1,0,1,0,0,0,hexagon,triangle,1,1,0,1,0,1,1,13,6,213.1243376,213.1243376,213.1243376,213.1243376,213.1243376,213.1243376,213.1243376,213.1243376,213.1243376,213.1243376,a,0.326059458,,,,,,,,,,,,,,,,,,,,,,,,,,,,,,,,,,,,,,,,,,,,,,,,,,,,,,,,,,,,,,,,,,,,,,,,,,,,,,,,,,,,,,,,,1,305,,,,,,,,,,,,,,,,,,,,,,,,39022,2022-10-25_10h28.10.269,vts_reward_expectancy_bt_OFFLINE,2022.2.4,59.97592842
0,1,0,0,1,0,0,0,circle,triangle,1,1,0,1,0,1,2,14,3,215.476867,215.476867,215.476867,215.476867,215.476867,215.476867,215.476867,215.476867,215.476867,215.476867,l,0.351566362,,,,,,,,,,,,,,,,,,,,,,,,,,,,,,,,,,,,,,,,,,,,,,,,,,,,,,,,,,,,,,,,,,,,,,,,,,,,,,,,,,,,,,,,,10,315,,,,,,,,,,,,,,,,,,,,,,,,39022,2022-10-25_10h28.10.269,vts_reward_expectancy_bt_OFFLINE,2022.2.4,59.97592842
0,0,0,1,0,0,1,0,star,hexagon,1,1,0,1,0,1,3,15,11,217.862936,217.862936,217.862936,217.862936,217.862936,217.862936,217.862936,217.862936,217.862936,217.862936,l,0.443944584,,,,,,,,,,,,,,,,,,,,,,,,,,,,,,,,,,,,,,,,,,,,,,,,,,,,,,,,,,,,,,,,,,,,,,,,,,,,,,,,,,,,,,,,,1,316,,,,,,,,,,,,,,,,,,,,,,,,39022,2022-10-25_10h28.10.269,vts_reward_expectancy_bt_OFFLINE,2022.2.4,59.97592842
0,1,0,0,0,0,0,1,circle,star,1,1,0,1,0,1,4,16,5,220.3323131,220.3323131,220.3323131,220.3323131,220.3323131,220.3323131,220.3323131,220.3323131,220.3323131,220.3323131,l,0.406690523,,,,,,,,,,,,,,,,,,,,,,,,,,,,,,,,,,,,,,,,,,,,,,,,,,,,,,,,,,,,,,,,,,,,,,,,,,,,,,,,,,,,,,,,,10,326,,,,,,,,,,,,,,,,,,,,,,,,39022,2022-10-25_10h28.10.269,vts_reward_expectancy_bt_OFFLINE,2022.2.4,59.97592842
0,0,1,0,0,0,0,1,hexagon,star,1,1,0,1,0,1,5,17,8,222.7682321,222.7682321,222.7682321,222.7682321,222.7682321,222.7682321,222.7682321,222.7682321,222.7682321,222.7682321,l,0.41046832,,,,,,,,,,,,,,,,,,,,,,,,,,,,,,,,,,,,,,,,,,,,,,,,,,,,,,,,,,,,,,,,,,,,,,,,,,,,,,,,,,,,,,,,,10,336,,,,,,,,,,,,,,,,,,,,,,,,39022,2022-10-25_10h28.10.269,vts_reward_expectancy_bt_OFFLINE,2022.2.4,59.97592842
0,0,0,1,0,1,0,0,star ,circle,1,1,0,1,0,1,6,18,10,225.2045703,225.2045703,225.2045703,225.2045703,225.2045703,225.2045703,225.2045703,225.2045703,225.2045703,225.2045703,l,0.783859374,,,,,,,,,,,,,,,,,,,,,,,,,,,,,,,,,,,,,,,,,,,,,,,,,,,,,,,,,,,,,,,,,,,,,,,,,,,,,,,,,,,,,,,,,1,337,,,,,,,,,,,,,,,,,,,,,,,,39022,2022-10-25_10h28.10.269,vts_reward_expectancy_bt_OFFLINE,2022.2.4,59.97592842
1,0,0,0,0,0,1,0,triangle,hexagon,1,1,0,1,0,1,7,19,1,228.0075069,228.0075069,228.0075069,228.0075069,228.0075069,228.0075069,228.0075069,228.0075069,228.0075069,228.0075069,a,0.387472415,,,,,,,,,,,,,,,,,,,,,,,,,,,,,,,,,,,,,,,,,,,,,,,,,,,,,,,,,,,,,,,,,,,,,,,,,,,,,,,,,,,,,,,,,1,338,,,,,,,,,,,,,,,,,,,,,,,,39022,2022-10-25_10h28.10.269,vts_reward_expectancy_bt_OFFLINE,2022.2.4,59.97592842
1,0,0,0,0,0,0,1,triangle,star,1,1,0,1,0,1,8,20,2,230.426709,230.426709,230.426709,230.426709,230.426709,230.426709,230.426709,230.426709,230.426709,230.426709,l,0.449078029,,,,,,,,,,,,,,,,,,,,,,,,,,,,,,,,,,,,,,,,,,,,,,,,,,,,,,,,,,,,,,,,,,,,,,,,,,,,,,,,,,,,,,,,,10,348,,,,,,,,,,,,,,,,,,,,,,,,39022,2022-10-25_10h28.10.269,vts_reward_expectancy_bt_OFFLINE,2022.2.4,59.97592842
0,1,0,0,0,0,1,0,circle,hexagon,1,1,0,1,0,1,9,21,4,232.8962472,232.8962472,232.8962472,232.8962472,232.8962472,232.8962472,232.8962472,232.8962472,232.8962472,232.8962472,l,0.402779031,,,,,,,,,,,,,,,,,,,,,,,,,,,,,,,,,,,,,,,,,,,,,,,,,,,,,,,,,,,,,,,,,,,,,,,,,,,,,,,,,,,,,,,,,1,349,,,,,,,,,,,,,,,,,,,,,,,,39022,2022-10-25_10h28.10.269,vts_reward_expectancy_bt_OFFLINE,2022.2.4,59.97592842
0,0,0,1,1,0,0,0,star,triangle,1,1,0,1,0,1,10,22,9,235.332172,235.332172,235.332172,235.332172,235.332172,235.332172,235.332172,235.332172,235.332172,235.332172,a,0.311367069,,,,,,,,,,,,,,,,,,,,,,,,,,,,,,,,,,,,,,,,,,,,,,,,,,,,,,,,,,,,,,,,,,,,,,,,,,,,,,,,,,,,,,,,,1,350,,,,,,,,,,,,,,,,,,,,,,,,39022,2022-10-25_10h28.10.269,vts_reward_expectancy_bt_OFFLINE,2022.2.4,59.97592842
1,0,0,0,0,1,0,0,triangle,circle,1,1,0,1,0,1,11,23,0,237.6681408,237.6681408,237.6681408,237.6681408,237.6681408,237.6681408,237.6681408,237.6681408,237.6681408,237.6681408,l,0.302065741,,,,,,,,,,,,,,,,,,,,,,,,,,,,,,,,,,,,,,,,,,,,,,,,,,,,,,,,,,,,,,,,,,,,,,,,,,,,,,,,,,,,,,,,,10,360,,,,,,,,,,,,,,,,,,,,,,,,39022,2022-10-25_10h28.10.269,vts_reward_expectancy_bt_OFFLINE,2022.2.4,59.97592842
0,1,0,0,0,0,1,0,circle,hexagon,1,1,0,1,0,2,0,24,4,240.0040098,240.0040098,240.0040098,240.0040098,240.0040098,240.0040098,240.0040098,240.0040098,240.0040098,240.0040098,l,0.35136217,,,,,,,,,,,,,,,,,,,,,,,,,,,,,,,,,,,,,,,,,,,,,,,,,,,,,,,,,,,,,,,,,,,,,,,,,,,,,,,,,,,,,,,,,1,361,,,,,,,,,,,,,,,,,,,,,,,,39022,2022-10-25_10h28.10.269,vts_reward_expectancy_bt_OFFLINE,2022.2.4,59.97592842
1,0,0,0,0,0,1,0,triangle,hexagon,1,1,0,1,0,2,1,25,1,242.3900171,242.3900171,242.3900171,242.3900171,242.3900171,242.3900171,242.3900171,242.3900171,242.3900171,242.3900171,a,0.150413205,,,,,,,,,,,,,,,,,,,,,,,,,,,,,,,,,,,,,,,,,,,,,,,,,,,,,,,,,,,,,,,,,,,,,,,,,,,,,,,,,,,,,,,,,10,371,,,,,,,,,,,,,,,,,,,,,,,,39022,2022-10-25_10h28.10.269,vts_reward_expectancy_bt_OFFLINE,2022.2.4,59.97592842
0,0,1,0,1,0,0,0,hexagon,triangle,1,1,0,1,0,2,2,26,6,244.5594147,244.5594147,244.5594147,244.5594147,244.5594147,244.5594147,244.5594147,244.5594147,244.5594147,244.5594147,l,0.316719259,,,,,,,,,,,,,,,,,,,,,,,,,,,,,,,,,,,,,,,,,,,,,,,,,,,,,,,,,,,,,,,,,,,,,,,,,,,,,,,,,,,,,,,,,10,381,,,,,,,,,,,,,,,,,,,,,,,,39022,2022-10-25_10h28.10.269,vts_reward_expectancy_bt_OFFLINE,2022.2.4,59.97592842
1,0,0,0,0,0,0,1,triangle,star,1,1,0,1,0,2,3,27,2,246.8950374,246.8950374,246.8950374,246.8950374,246.8950374,246.8950374,246.8950374,246.8950374,246.8950374,246.8950374,a,0.356541883,,,,,,,,,,,,,,,,,,,,,,,,,,,,,,,,,,,,,,,,,,,,,,,,,,,,,,,,,,,,,,,,,,,,,,,,,,,,,,,,,,,,,,,,,1,382,,,,,,,,,,,,,,,,,,,,,,,,39022,2022-10-25_10h28.10.269,vts_reward_expectancy_bt_OFFLINE,2022.2.4,59.97592842
0,1,0,0,1,0,0,0,circle,triangle,1,1,0,1,0,2,4,28,3,249.2809815,249.2809815,249.2809815,249.2809815,249.2809815,249.2809815,249.2809815,249.2809815,249.2809815,249.2809815,l,0.522730923,,,,,,,,,,,,,,,,,,,,,,,,,,,,,,,,,,,,,,,,,,,,,,,,,,,,,,,,,,,,,,,,,,,,,,,,,,,,,,,,,,,,,,,,,1,383,,,,,,,,,,,,,,,,,,,,,,,,39022,2022-10-25_10h28.10.269,vts_reward_expectancy_bt_OFFLINE,2022.2.4,59.97592842
1,0,0,0,0,1,0,0,triangle,circle,1,1,0,1,0,2,5,29,0,251.833808,251.833808,251.833808,251.833808,251.833808,251.833808,251.833808,251.833808,251.833808,251.833808,a,0.297688349,,,,,,,,,,,,,,,,,,,,,,,,,,,,,,,,,,,,,,,,,,,,,,,,,,,,,,,,,,,,,,,,,,,,,,,,,,,,,,,,,,,,,,,,,1,384,,,,,,,,,,,,,,,,,,,,,,,,39022,2022-10-25_10h28.10.269,vts_reward_expectancy_bt_OFFLINE,2022.2.4,59.97592842
0,0,1,0,0,0,0,1,hexagon,star,1,1,0,1,0,2,6,30,8,254.153009,254.153009,254.153009,254.153009,254.153009,254.153009,254.153009,254.153009,254.153009,254.153009,l,0.290130188,,,,,,,,,,,,,,,,,,,,,,,,,,,,,,,,,,,,,,,,,,,,,,,,,,,,,,,,,,,,,,,,,,,,,,,,,,,,,,,,,,,,,,,,,1,385,,,,,,,,,,,,,,,,,,,,,,,,39022,2022-10-25_10h28.10.269,vts_reward_expectancy_bt_OFFLINE,2022.2.4,59.97592842
0,0,0,1,0,0,1,0,star,hexagon,1,1,0,1,0,2,7,31,11,256.4722011,256.4722011,256.4722011,256.4722011,256.4722011,256.4722011,256.4722011,256.4722011,256.4722011,256.4722011,a,0.330896514,,,,,,,,,,,,,,,,,,,,,,,,,,,,,,,,,,,,,,,,,,,,,,,,,,,,,,,,,,,,,,,,,,,,,,,,,,,,,,,,,,,,,,,,,1,386,,,,,,,,,,,,,,,,,,,,,,,,39022,2022-10-25_10h28.10.269,vts_reward_expectancy_bt_OFFLINE,2022.2.4,59.97592842
0,1,0,0,0,0,0,1,circle,star,1,1,0,1,0,2,8,32,5,258.8248081,258.8248081,258.8248081,258.8248081,258.8248081,258.8248081,258.8248081,258.8248081,258.8248081,258.8248081,l,0.561524842,,,,,,,,,,,,,,,,,,,,,,,,,,,,,,,,,,,,,,,,,,,,,,,,,,,,,,,,,,,,,,,,,,,,,,,,,,,,,,,,,,,,,,,,,1,387,,,,,,,,,,,,,,,,,,,,,,,,39022,2022-10-25_10h28.10.269,vts_reward_expectancy_bt_OFFLINE,2022.2.4,59.97592842
0,0,1,0,0,1,0,0,hexagon,circle,1,1,0,1,0,2,9,33,7,261.4110316,261.4110316,261.4110316,261.4110316,261.4110316,261.4110316,261.4110316,261.4110316,261.4110316,261.4110316,l,0.336074968,,,,,,,,,,,,,,,,,,,,,,,,,,,,,,,,,,,,,,,,,,,,,,,,,,,,,,,,,,,,,,,,,,,,,,,,,,,,,,,,,,,,,,,,,10,397,,,,,,,,,,,,,,,,,,,,,,,,39022,2022-10-25_10h28.10.269,vts_reward_expectancy_bt_OFFLINE,2022.2.4,59.97592842
0,0,0,1,1,0,0,0,star,triangle,1,1,0,1,0,2,10,34,9,263.7802523,263.7802523,263.7802523,263.7802523,263.7802523,263.7802523,263.7802523,263.7802523,263.7802523,263.7802523,l,0.440121917,,,,,,,,,,,,,,,,,,,,,,,,,,,,,,,,,,,,,,,,,,,,,,,,,,,,,,,,,,,,,,,,,,,,,,,,,,,,,,,,,,,,,,,,,10,407,,,,,,,,,,,,,,,,,,,,,,,,39022,2022-10-25_10h28.10.269,vts_reward_expectancy_bt_OFFLINE,2022.2.4,59.97592842
0,0,0,1,0,1,0,0,star ,circle,1,1,0,1,0,2,11,35,10,266.249754,266.249754,266.249754,266.249754,266.249754,266.249754,266.249754,266.249754,266.249754,266.249754,l,0.28922541,,,,,,,,,,,,,,,,,,,,,,,,,,,,,,,,,,,,,,,,,,,,,,,,,,,,,,,,,,,,,,,,,,,,,,,,,,,,,,,,,,,,,,,,,1,408,,,,,,,,,,,,,,,,,,,,,,,,39022,2022-10-25_10h28.10.269,vts_reward_expectancy_bt_OFFLINE,2022.2.4,59.97592842
0,0,1,0,0,0,0,1,hexagon,star,1,1,0,1,0,3,0,36,8,268.5688691,268.5688691,268.5688691,268.5688691,268.5688691,268.5688691,268.5688691,268.5688691,268.5688691,268.5688691,a,0.498174175,,,,,,,,,,,,,,,,,,,,,,,,,,,,,,,,,,,,,,,,,,,,,,,,,,,,,,,,,,,,,,,,,,,,,,,,,,,,,,,,,,,,,,,,,10,418,,,,,,,,,,,,,,,,,,,,,,,,39022,2022-10-25_10h28.10.269,vts_reward_expectancy_bt_OFFLINE,2022.2.4,59.97592842
0,1,0,0,0,0,1,0,circle,hexagon,1,1,0,1,0,3,1,37,4,271.0885722,271.0885722,271.0885722,271.0885722,271.0885722,271.0885722,271.0885722,271.0885722,271.0885722,271.0885722,a,0.425926625,,,,,,,,,,,,,,,,,,,,,,,,,,,,,,,,,,,,,,,,,,,,,,,,,,,,,,,,,,,,,,,,,,,,,,,,,,,,,,,,,,,,,,,,,10,428,,,,,,,,,,,,,,,,,,,,,,,,39022,2022-10-25_10h28.10.269,vts_reward_expectancy_bt_OFFLINE,2022.2.4,59.97592842
0,0,0,1,0,0,1,0,star,hexagon,1,1,0,1,0,3,2,38,11,273.5411792,273.5411792,273.5411792,273.5411792,273.5411792,273.5411792,273.5411792,273.5411792,273.5411792,273.5411792,a,0.357487527,,,,,,,,,,,,,,,,,,,,,,,,,,,,,,,,,,,,,,,,,,,,,,,,,,,,,,,,,,,,,,,,,,,,,,,,,,,,,,,,,,,,,,,,,10,438,,,,,,,,,,,,,,,,,,,,,,,,39022,2022-10-25_10h28.10.269,vts_reward_expectancy_bt_OFFLINE,2022.2.4,59.97592842
0,0,1,0,1,0,0,0,hexagon,triangle,1,1,0,1,0,3,3,39,6,275.9270264,275.9270264,275.9270264,275.9270264,275.9270264,275.9270264,275.9270264,275.9270264,275.9270264,275.9270264,l,0.333144513,,,,,,,,,,,,,,,,,,,,,,,,,,,,,,,,,,,,,,,,,,,,,,,,,,,,,,,,,,,,,,,,,,,,,,,,,,,,,,,,,,,,,,,,,1,439,,,,,,,,,,,,,,,,,,,,,,,,39022,2022-10-25_10h28.10.269,vts_reward_expectancy_bt_OFFLINE,2022.2.4,59.97592842
0,1,0,0,0,0,0,1,circle,star,1,1,0,1,0,3,4,40,5,278.2798254,278.2798254,278.2798254,278.2798254,278.2798254,278.2798254,278.2798254,278.2798254,278.2798254,278.2798254,a,0.371815749,,,,,,,,,,,,,,,,,,,,,,,,,,,,,,,,,,,,,,,,,,,,,,,,,,,,,,,,,,,,,,,,,,,,,,,,,,,,,,,,,,,,,,,,,10,449,,,,,,,,,,,,,,,,,,,,,,,,39022,2022-10-25_10h28.10.269,vts_reward_expectancy_bt_OFFLINE,2022.2.4,59.97592842
0,0,0,1,1,0,0,0,star,triangle,1,1,0,1,0,3,5,41,9,280.6823144,280.6823144,280.6823144,280.6823144,280.6823144,280.6823144,280.6823144,280.6823144,280.6823144,280.6823144,a,0.34449274,,,,,,,,,,,,,,,,,,,,,,,,,,,,,,,,,,,,,,,,,,,,,,,,,,,,,,,,,,,,,,,,,,,,,,,,,,,,,,,,,,,,,,,,,10,459,,,,,,,,,,,,,,,,,,,,,,,,39022,2022-10-25_10h28.10.269,vts_reward_expectancy_bt_OFFLINE,2022.2.4,59.97592842
1,0,0,0,0,0,0,1,triangle,star,1,1,0,1,0,3,6,42,2,283.0514707,283.0514707,283.0514707,283.0514707,283.0514707,283.0514707,283.0514707,283.0514707,283.0514707,283.0514707,a,0.280008573,,,,,,,,,,,,,,,,,,,,,,,,,,,,,,,,,,,,,,,,,,,,,,,,,,,,,,,,,,,,,,,,,,,,,,,,,,,,,,,,,,,,,,,,,10,469,,,,,,,,,,,,,,,,,,,,,,,,39022,2022-10-25_10h28.10.269,vts_reward_expectancy_bt_OFFLINE,2022.2.4,59.97592842
0,0,0,1,0,1,0,0,star ,circle,1,1,0,1,0,3,7,43,10,285.354089,285.354089,285.354089,285.354089,285.354089,285.354089,285.354089,285.354089,285.354089,285.354089,l,0.320567979,,,,,,,,,,,,,,,,,,,,,,,,,,,,,,,,,,,,,,,,,,,,,,,,,,,,,,,,,,,,,,,,,,,,,,,,,,,,,,,,,,,,,,,,,1,470,,,,,,,,,,,,,,,,,,,,,,,,39022,2022-10-25_10h28.10.269,vts_reward_expectancy_bt_OFFLINE,2022.2.4,59.97592842
1,0,0,0,0,1,0,0,triangle,circle,1,1,0,1,0,3,8,44,0,287.7067028,287.7067028,287.7067028,287.7067028,287.7067028,287.7067028,287.7067028,287.7067028,287.7067028,287.7067028,a,0.360574154,,,,,,,,,,,,,,,,,,,,,,,,,,,,,,,,,,,,,,,,,,,,,,,,,,,,,,,,,,,,,,,,,,,,,,,,,,,,,,,,,,,,,,,,,10,480,,,,,,,,,,,,,,,,,,,,,,,,39022,2022-10-25_10h28.10.269,vts_reward_expectancy_bt_OFFLINE,2022.2.4,59.97592842
0,0,1,0,0,1,0,0,hexagon,circle,1,1,0,1,0,3,9,45,7,290.0928002,290.0928002,290.0928002,290.0928002,290.0928002,290.0928002,290.0928002,290.0928002,290.0928002,290.0928002,a,0.326032038,,,,,,,,,,,,,,,,,,,,,,,,,,,,,,,,,,,,,,,,,,,,,,,,,,,,,,,,,,,,,,,,,,,,,,,,,,,,,,,,,,,,,,,,,1,481,,,,,,,,,,,,,,,,,,,,,,,,39022,2022-10-25_10h28.10.269,vts_reward_expectancy_bt_OFFLINE,2022.2.4,59.97592842
1,0,0,0,0,0,1,0,triangle,hexagon,1,1,0,1,0,3,10,46,1,292.4452859,292.4452859,292.4452859,292.4452859,292.4452859,292.4452859,292.4452859,292.4452859,292.4452859,292.4452859,l,0.309240442,,,,,,,,,,,,,,,,,,,,,,,,,,,,,,,,,,,,,,,,,,,,,,,,,,,,,,,,,,,,,,,,,,,,,,,,,,,,,,,,,,,,,,,,,1,482,,,,,,,,,,,,,,,,,,,,,,,,39022,2022-10-25_10h28.10.269,vts_reward_expectancy_bt_OFFLINE,2022.2.4,59.97592842
0,1,0,0,1,0,0,0,circle,triangle,1,1,0,1,0,3,11,47,3,294.7811839,294.7811839,294.7811839,294.7811839,294.7811839,294.7811839,294.7811839,294.7811839,294.7811839,294.7811839,a,0.438497822,,,,,,,,,,,,,,,,,,,,,,,,,,,,,,,,,,,,,,,,,,,,,,,,,,,,,,,,,,,,,,,,,,,,,,,,,,,,,,,,,,,,,,,,,1,483,,,,,,,,,,,,,,,,,,,,,,,,39022,2022-10-25_10h28.10.269,vts_reward_expectancy_bt_OFFLINE,2022.2.4,59.97592842
1,0,0,0,0,0,0,1,triangle,star,2,2,0,2,0,0,0,0,2,299.4392726,299.4392726,299.4392726,299.4392726,299.4392726,299.4392726,299.4392726,299.4392726,299.4392726,299.4392726,l,0.811648483,,,,,,,,,,,,,,,,,,,,,,,,,,,,,,,,,,,,,,,,,,,,,,,,,,,,,,,,,,,,,,,,,,,,,,,,,,,,,,,,,,,,,,,,,10,493,,,,,,,,,,,,,,,,,,,,,,,,39022,2022-10-25_10h28.10.269,vts_reward_expectancy_bt_OFFLINE,2022.2.4,59.97592842
1,0,0,0,0,0,1,0,triangle,hexagon,2,2,0,2,0,0,1,1,1,302.2727751,302.2727751,302.2727751,302.2727751,302.2727751,302.2727751,302.2727751,302.2727751,302.2727751,302.2727751,l,0.746443186,,,,,,,,,,,,,,,,,,,,,,,,,,,,,,,,,,,,,,,,,,,,,,,,,,,,,,,,,,,,,,,,,,,,,,,,,,,,,,,,,,,,,,,,,1,494,,,,,,,,,,,,,,,,,,,,,,,,39022,2022-10-25_10h28.10.269,vts_reward_expectancy_bt_OFFLINE,2022.2.4,59.97592842
0,1,0,0,0,0,1,0,circle,hexagon,2,2,0,2,0,0,2,2,4,305.042552,305.042552,305.042552,305.042552,305.042552,305.042552,305.042552,305.042552,305.042552,305.042552,a,0.575833312,,,,,,,,,,,,,,,,,,,,,,,,,,,,,,,,,,,,,,,,,,,,,,,,,,,,,,,,,,,,,,,,,,,,,,,,,,,,,,,,,,,,,,,,,1,495,,,,,,,,,,,,,,,,,,,,,,,,39022,2022-10-25_10h28.10.269,vts_reward_expectancy_bt_OFFLINE,2022.2.4,59.97592842
0,0,0,1,0,1,0,0,star ,circle,2,2,0,2,0,0,3,3,10,307.6452915,307.6452915,307.6452915,307.6452915,307.6452915,307.6452915,307.6452915,307.6452915,307.6452915,307.6452915,a,0.52605817,,,,,,,,,,,,,,,,,,,,,,,,,,,,,,,,,,,,,,,,,,,,,,,,,,,,,,,,,,,,,,,,,,,,,,,,,,,,,,,,,,,,,,,,,1,496,,,,,,,,,,,,,,,,,,,,,,,,39022,2022-10-25_10h28.10.269,vts_reward_expectancy_bt_OFFLINE,2022.2.4,59.97592842
0,0,0,1,1,0,0,0,star,triangle,2,2,0,2,0,0,4,4,9,310.1982273,310.1982273,310.1982273,310.1982273,310.1982273,310.1982273,310.1982273,310.1982273,310.1982273,310.1982273,a,0.844532403,,,,,,,,,,,,,,,,,,,,,,,,,,,,,,,,,,,,,,,,,,,,,,,,,,,,,,,,,,,,,,,,,,,,,,,,,,,,,,,,,,,,,,,,,10,506,,,,,,,,,,,,,,,,,,,,,,,,39022,2022-10-25_10h28.10.269,vts_reward_expectancy_bt_OFFLINE,2022.2.4,59.97592842
0,0,1,0,0,1,0,0,hexagon,circle,2,2,0,2,0,0,5,5,7,313.0678254,313.0678254,313.0678254,313.0678254,313.0678254,313.0678254,313.0678254,313.0678254,313.0678254,313.0678254,l,0.886727927,,,,,,,,,,,,,,,,,,,,,,,,,,,,,,,,,,,,,,,,,,,,,,,,,,,,,,,,,,,,,,,,,,,,,,,,,,,,,,,,,,,,,,,,,10,516,,,,,,,,,,,,,,,,,,,,,,,,39022,2022-10-25_10h28.10.269,vts_reward_expectancy_bt_OFFLINE,2022.2.4,59.97592842
1,0,0,0,0,1,0,0,triangle,circle,2,2,0,2,0,0,6,6,0,315.9879964,315.9879964,315.9879964,315.9879964,315.9879964,315.9879964,315.9879964,315.9879964,315.9879964,315.9879964,l,0.584259135,,,,,,,,,,,,,,,,,,,,,,,,,,,,,,,,,,,,,,,,,,,,,,,,,,,,,,,,,,,,,,,,,,,,,,,,,,,,,,,,,,,,,,,,,10,526,,,,,,,,,,,,,,,,,,,,,,,,39022,2022-10-25_10h28.10.269,vts_reward_expectancy_bt_OFFLINE,2022.2.4,59.97592842
0,0,1,0,0,0,0,1,hexagon,star,2,2,0,2,0,0,7,7,8,318.5906692,318.5906692,318.5906692,318.5906692,318.5906692,318.5906692,318.5906692,318.5906692,318.5906692,318.5906692,l,1.085251083,,,,,,,,,,,,,,,,,,,,,,,,,,,,,,,,,,,,,,,,,,,,,,,,,,,,,,,,,,,,,,,,,,,,,,,,,,,,,,,,,,,,,,,,,10,536,,,,,,,,,,,,,,,,,,,,,,,,39022,2022-10-25_10h28.10.269,vts_reward_expectancy_bt_OFFLINE,2022.2.4,59.97592842
0,1,0,0,0,0,0,1,circle,star,2,2,0,2,0,0,8,8,5,321.6940524,321.6940524,321.6940524,321.6940524,321.6940524,321.6940524,321.6940524,321.6940524,321.6940524,321.6940524,a,0.540711055,,,,,,,,,,,,,,,,,,,,,,,,,,,,,,,,,,,,,,,,,,,,,,,,,,,,,,,,,,,,,,,,,,,,,,,,,,,,,,,,,,,,,,,,,1,537,,,,,,,,,,,,,,,,,,,,,,,,39022,2022-10-25_10h28.10.269,vts_reward_expectancy_bt_OFFLINE,2022.2.4,59.97592842
0,0,0,1,0,0,1,0,star,hexagon,2,2,0,2,0,0,9,9,11,324.2636309,324.2636309,324.2636309,324.2636309,324.2636309,324.2636309,324.2636309,324.2636309,324.2636309,324.2636309,a,0.747300513,,,,,,,,,,,,,,,,,,,,,,,,,,,,,,,,,,,,,,,,,,,,,,,,,,,,,,,,,,,,,,,,,,,,,,,,,,,,,,,,,,,,,,,,,1,538,,,,,,,,,,,,,,,,,,,,,,,,39022,2022-10-25_10h28.10.269,vts_reward_expectancy_bt_OFFLINE,2022.2.4,59.97592842
0,0,1,0,1,0,0,0,hexagon,triangle,2,2,0,2,0,0,10,10,6,327.0331981,327.0331981,327.0331981,327.0331981,327.0331981,327.0331981,327.0331981,327.0331981,327.0331981,327.0331981,a,0.898156284,,,,,,,,,,,,,,,,,,,,,,,,,,,,,,,,,,,,,,,,,,,,,,,,,,,,,,,,,,,,,,,,,,,,,,,,,,,,,,,,,,,,,,,,,1,539,,,,,,,,,,,,,,,,,,,,,,,,39022,2022-10-25_10h28.10.269,vts_reward_expectancy_bt_OFFLINE,2022.2.4,59.97592842
0,1,0,0,1,0,0,0,circle,triangle,2,2,0,2,0,0,11,11,3,329.9531354,329.9531354,329.9531354,329.9531354,329.9531354,329.9531354,329.9531354,329.9531354,329.9531354,329.9531354,a,0.914088352,,,,,,,,,,,,,,,,,,,,,,,,,,,,,,,,,,,,,,,,,,,,,,,,,,,,,,,,,,,,,,,,,,,,,,,,,,,,,,,,,,,,,,,,,10,549,,,,,,,,,,,,,,,,,,,,,,,,39022,2022-10-25_10h28.10.269,vts_reward_expectancy_bt_OFFLINE,2022.2.4,59.97592842
0,0,1,0,0,0,0,1,hexagon,star,2,2,0,2,0,1,0,12,8,332.8898587,332.8898587,332.8898587,332.8898587,332.8898587,332.8898587,332.8898587,332.8898587,332.8898587,332.8898587,l,1.257401433,,,,,,,,,,,,,,,,,,,,,,,,,,,,,,,,,,,,,,,,,,,,,,,,,,,,,,,,,,,,,,,,,,,,,,,,,,,,,,,,,,,,,,,,,10,559,,,,,,,,,,,,,,,,,,,,,,,,39022,2022-10-25_10h28.10.269,vts_reward_expectancy_bt_OFFLINE,2022.2.4,59.97592842
0,0,1,0,0,1,0,0,hexagon,circle,2,2,0,2,0,1,1,13,7,336.1768247,336.1768247,336.1768247,336.1768247,336.1768247,336.1768247,336.1768247,336.1768247,336.1768247,336.1768247,l,0.635306551,,,,,,,,,,,,,,,,,,,,,,,,,,,,,,,,,,,,,,,,,,,,,,,,,,,,,,,,,,,,,,,,,,,,,,,,,,,,,,,,,,,,,,,,,1,560,,,,,,,,,,,,,,,,,,,,,,,,39022,2022-10-25_10h28.10.269,vts_reward_expectancy_bt_OFFLINE,2022.2.4,59.97592842
0,1,0,0,0,0,0,1,circle,star,2,2,0,2,0,1,2,14,5,338.8452236,338.8452236,338.8452236,338.8452236,338.8452236,338.8452236,338.8452236,338.8452236,338.8452236,338.8452236,l,0.870209478,,,,,,,,,,,,,,,,,,,,,,,,,,,,,,,,,,,,,,,,,,,,,,,,,,,,,,,,,,,,,,,,,,,,,,,,,,,,,,,,,,,,,,,,,10,570,,,,,,,,,,,,,,,,,,,,,,,,39022,2022-10-25_10h28.10.269,vts_reward_expectancy_bt_OFFLINE,2022.2.4,59.97592842
0,0,0,1,1,0,0,0,star,triangle,2,2,0,2,0,1,3,15,9,341.7495617,341.7495617,341.7495617,341.7495617,341.7495617,341.7495617,341.7495617,341.7495617,341.7495617,341.7495617,a,1.260813615,,,,,,,,,,,,,,,,,,,,,,,,,,,,,,,,,,,,,,,,,,,,,,,,,,,,,,,,,,,,,,,,,,,,,,,,,,,,,,,,,,,,,,,,,10,580,,,,,,,,,,,,,,,,,,,,,,,,39022,2022-10-25_10h28.10.269,vts_reward_expectancy_bt_OFFLINE,2022.2.4,59.97592842
1,0,0,0,0,1,0,0,triangle,circle,2,2,0,2,0,1,4,16,0,345.0349124,345.0349124,345.0349124,345.0349124,345.0349124,345.0349124,345.0349124,345.0349124,345.0349124,345.0349124,l,1.127775182,,,,,,,,,,,,,,,,,,,,,,,,,,,,,,,,,,,,,,,,,,,,,,,,,,,,,,,,,,,,,,,,,,,,,,,,,,,,,,,,,,,,,,,,,10,590,,,,,,,,,,,,,,,,,,,,,,,,39022,2022-10-25_10h28.10.269,vts_reward_expectancy_bt_OFFLINE,2022.2.4,59.97592842
0,0,0,1,0,1,0,0,star ,circle,2,2,0,2,0,1,5,17,10,348.1899687,348.1899687,348.1899687,348.1899687,348.1899687,348.1899687,348.1899687,348.1899687,348.1899687,348.1899687,l,0.741286673,,,,,,,,,,,,,,,,,,,,,,,,,,,,,,,,,,,,,,,,,,,,,,,,,,,,,,,,,,,,,,,,,,,,,,,,,,,,,,,,,,,,,,,,,10,600,,,,,,,,,,,,,,,,,,,,,,,,39022,2022-10-25_10h28.10.269,vts_reward_expectancy_bt_OFFLINE,2022.2.4,59.97592842
0,1,0,0,1,0,0,0,circle,triangle,2,2,0,2,0,1,6,18,3,350.9598248,350.9598248,350.9598248,350.9598248,350.9598248,350.9598248,350.9598248,350.9598248,350.9598248,350.9598248,a,0.5952865,,,,,,,,,,,,,,,,,,,,,,,,,,,,,,,,,,,,,,,,,,,,,,,,,,,,,,,,,,,,,,,,,,,,,,,,,,,,,,,,,,,,,,,,,10,610,,,,,,,,,,,,,,,,,,,,,,,,39022,2022-10-25_10h28.10.269,vts_reward_expectancy_bt_OFFLINE,2022.2.4,59.97592842
0,0,1,0,1,0,0,0,hexagon,triangle,2,2,0,2,0,1,7,19,6,353.5792446,353.5792446,353.5792446,353.5792446,353.5792446,353.5792446,353.5792446,353.5792446,353.5792446,353.5792446,a,1.495251385,,,,,,,,,,,,,,,,,,,,,,,,,,,,,,,,,,,,,,,,,,,,,,,,,,,,,,,,,,,,,,,,,,,,,,,,,,,,,,,,,,,,,,,,,10,620,,,,,,,,,,,,,,,,,,,,,,,,39022,2022-10-25_10h28.10.269,vts_reward_expectancy_bt_OFFLINE,2022.2.4,59.97592842
1,0,0,0,0,0,0,1,triangle,star,2,2,0,2,0,1,8,20,2,357.0999339,357.0999339,357.0999339,357.0999339,357.0999339,357.0999339,357.0999339,357.0999339,357.0999339,357.0999339,l,0.768178537,,,,,,,,,,,,,,,,,,,,,,,,,,,,,,,,,,,,,,,,,,,,,,,,,,,,,,,,,,,,,,,,,,,,,,,,,,,,,,,,,,,,,,,,,1,621,,,,,,,,,,,,,,,,,,,,,,,,39022,2022-10-25_10h28.10.269,vts_reward_expectancy_bt_OFFLINE,2022.2.4,59.97592842
0,0,0,1,0,0,1,0,star,hexagon,2,2,0,2,0,1,9,21,11,359.9030642,359.9030642,359.9030642,359.9030642,359.9030642,359.9030642,359.9030642,359.9030642,359.9030642,359.9030642,a,0.811627607,,,,,,,,,,,,,,,,,,,,,,,,,,,,,,,,,,,,,,,,,,,,,,,,,,,,,,,,,,,,,,,,,,,,,,,,,,,,,,,,,,,,,,,,,10,631,,,,,,,,,,,,,,,,,,,,,,,,39022,2022-10-25_10h28.10.269,vts_reward_expectancy_bt_OFFLINE,2022.2.4,59.97592842
0,1,0,0,0,0,1,0,circle,hexagon,2,2,0,2,0,1,10,22,4,362.7393649,362.7393649,362.7393649,362.7393649,362.7393649,362.7393649,362.7393649,362.7393649,362.7393649,362.7393649,a,0.702790929,,,,,,,,,,,,,,,,,,,,,,,,,,,,,,,,,,,,,,,,,,,,,,,,,,,,,,,,,,,,,,,,,,,,,,,,,,,,,,,,,,,,,,,,,10,641,,,,,,,,,,,,,,,,,,,,,,,,39022,2022-10-25_10h28.10.269,vts_reward_expectancy_bt_OFFLINE,2022.2.4,59.97592842
1,0,0,0,0,0,1,0,triangle,hexagon,2,2,0,2,0,1,11,23,1,365.4759874,365.4759874,365.4759874,365.4759874,365.4759874,365.4759874,365.4759874,365.4759874,365.4759874,365.4759874,a,1.968864652,,,,,,,,,,,,,,,,,,,,,,,,,,,,,,,,,,,,,,,,,,,,,,,,,,,,,,,,,,,,,,,,,,,,,,,,,,,,,,,,,,,,,,,,,10,651,,,,,,,,,,,,,,,,,,,,,,,,39022,2022-10-25_10h28.10.269,vts_reward_expectancy_bt_OFFLINE,2022.2.4,59.97592842
0,0,1,0,0,0,0,1,hexagon,star,2,2,0,2,0,2,0,24,8,369.4634748,369.4634748,369.4634748,369.4634748,369.4634748,369.4634748,369.4634748,369.4634748,369.4634748,369.4634748,a,1.547949431,,,,,,,,,,,,,,,,,,,,,,,,,,,,,,,,,,,,,,,,,,,,,,,,,,,,,,,,,,,,,,,,,,,,,,,,,,,,,,,,,,,,,,,,,10,661,,,,,,,,,,,,,,,,,,,,,,,,39022,2022-10-25_10h28.10.269,vts_reward_expectancy_bt_OFFLINE,2022.2.4,59.97592842
1,0,0,0,0,0,0,1,triangle,star,2,2,0,2,0,2,1,25,2,373.0341967,373.0341967,373.0341967,373.0341967,373.0341967,373.0341967,373.0341967,373.0341967,373.0341967,373.0341967,l,1.008450324,,,,,,,,,,,,,,,,,,,,,,,,,,,,,,,,,,,,,,,,,,,,,,,,,,,,,,,,,,,,,,,,,,,,,,,,,,,,,,,,,,,,,,,,,10,671,,,,,,,,,,,,,,,,,,,,,,,,39022,2022-10-25_10h28.10.269,vts_reward_expectancy_bt_OFFLINE,2022.2.4,59.97592842
0,0,0,1,0,1,0,0,star ,circle,2,2,0,2,0,2,2,26,10,376.070807,376.070807,376.070807,376.070807,376.070807,376.070807,376.070807,376.070807,376.070807,376.070807,a,1.011842457,,,,,,,,,,,,,,,,,,,,,,,,,,,,,,,,,,,,,,,,,,,,,,,,,,,,,,,,,,,,,,,,,,,,,,,,,,,,,,,,,,,,,,,,,10,681,,,,,,,,,,,,,,,,,,,,,,,,39022,2022-10-25_10h28.10.269,vts_reward_expectancy_bt_OFFLINE,2022.2.4,59.97592842
0,0,1,0,1,0,0,0,hexagon,triangle,2,2,0,2,0,2,3,27,6,379.1074778,379.1074778,379.1074778,379.1074778,379.1074778,379.1074778,379.1074778,379.1074778,379.1074778,379.1074778,a,1.59164237,,,,,,,,,,,,,,,,,,,,,,,,,,,,,,,,,,,,,,,,,,,,,,,,,,,,,,,,,,,,,,,,,,,,,,,,,,,,,,,,,,,,,,,,,1,682,,,,,,,,,,,,,,,,,,,,,,,,39022,2022-10-25_10h28.10.269,vts_reward_expectancy_bt_OFFLINE,2022.2.4,59.97592842
0,1,0,0,1,0,0,0,circle,triangle,2,2,0,2,0,2,4,28,3,382.7280634,382.7280634,382.7280634,382.7280634,382.7280634,382.7280634,382.7280634,382.7280634,382.7280634,382.7280634,a,0.915093092,,,,,,,,,,,,,,,,,,,,,,,,,,,,,,,,,,,,,,,,,,,,,,,,,,,,,,,,,,,,,,,,,,,,,,,,,,,,,,,,,,,,,,,,,1,683,,,,,,,,,,,,,,,,,,,,,,,,39022,2022-10-25_10h28.10.269,vts_reward_expectancy_bt_OFFLINE,2022.2.4,59.97592842
0,0,0,1,1,0,0,0,star,triangle,2,2,0,2,0,2,5,29,9,385.6649054,385.6649054,385.6649054,385.6649054,385.6649054,385.6649054,385.6649054,385.6649054,385.6649054,385.6649054,a,1.235077895,,,,,,,,,,,,,,,,,,,,,,,,,,,,,,,,,,,,,,,,,,,,,,,,,,,,,,,,,,,,,,,,,,,,,,,,,,,,,,,,,,,,,,,,,10,693,,,,,,,,,,,,,,,,,,,,,,,,39022,2022-10-25_10h28.10.269,vts_reward_expectancy_bt_OFFLINE,2022.2.4,59.97592842
0,0,1,0,0,1,0,0,hexagon,circle,2,2,0,2,0,2,6,30,7,388.9185009,388.9185009,388.9185009,388.9185009,388.9185009,388.9185009,388.9185009,388.9185009,388.9185009,388.9185009,l,0.973374336,,,,,,,,,,,,,,,,,,,,,,,,,,,,,,,,,,,,,,,,,,,,,,,,,,,,,,,,,,,,,,,,,,,,,,,,,,,,,,,,,,,,,,,,,1,694,,,,,,,,,,,,,,,,,,,,,,,,39022,2022-10-25_10h28.10.269,vts_reward_expectancy_bt_OFFLINE,2022.2.4,59.97592842
0,1,0,0,0,0,0,1,circle,star,2,2,0,2,0,2,7,31,5,391.9214038,391.9214038,391.9214038,391.9214038,391.9214038,391.9214038,391.9214038,391.9214038,391.9214038,391.9214038,a,0.809607858,,,,,,,,,,,,,,,,,,,,,,,,,,,,,,,,,,,,,,,,,,,,,,,,,,,,,,,,,,,,,,,,,,,,,,,,,,,,,,,,,,,,,,,,,1,695,,,,,,,,,,,,,,,,,,,,,,,,39022,2022-10-25_10h28.10.269,vts_reward_expectancy_bt_OFFLINE,2022.2.4,59.97592842
1,0,0,0,0,0,1,0,triangle,hexagon,2,2,0,2,0,2,8,32,1,394.7580467,394.7580467,394.7580467,394.7580467,394.7580467,394.7580467,394.7580467,394.7580467,394.7580467,394.7580467,l,1.22849938,,,,,,,,,,,,,,,,,,,,,,,,,,,,,,,,,,,,,,,,,,,,,,,,,,,,,,,,,,,,,,,,,,,,,,,,,,,,,,,,,,,,,,,,,1,696,,,,,,,,,,,,,,,,,,,,,,,,39022,2022-10-25_10h28.10.269,vts_reward_expectancy_bt_OFFLINE,2022.2.4,59.97592842
0,1,0,0,0,0,1,0,circle,hexagon,2,2,0,2,0,2,9,33,4,398.011816,398.011816,398.011816,398.011816,398.011816,398.011816,398.011816,398.011816,398.011816,398.011816,a,0.558933899,,,,,,,,,,,,,,,,,,,,,,,,,,,,,,,,,,,,,,,,,,,,,,,,,,,,,,,,,,,,,,,,,,,,,,,,,,,,,,,,,,,,,,,,,10,706,,,,,,,,,,,,,,,,,,,,,,,,39022,2022-10-25_10h28.10.269,vts_reward_expectancy_bt_OFFLINE,2022.2.4,59.97592842
1,0,0,0,0,1,0,0,triangle,circle,2,2,0,2,0,2,10,34,0,400.5979899,400.5979899,400.5979899,400.5979899,400.5979899,400.5979899,400.5979899,400.5979899,400.5979899,400.5979899,l,0.877097922,,,,,,,,,,,,,,,,,,,,,,,,,,,,,,,,,,,,,,,,,,,,,,,,,,,,,,,,,,,,,,,,,,,,,,,,,,,,,,,,,,,,,,,,,10,716,,,,,,,,,,,,,,,,,,,,,,,,39022,2022-10-25_10h28.10.269,vts_reward_expectancy_bt_OFFLINE,2022.2.4,59.97592842
0,0,0,1,0,0,1,0,star,hexagon,2,2,0,2,0,2,11,35,11,403.5010738,403.5010738,403.5010738,403.5010738,403.5010738,403.5010738,403.5010738,403.5010738,403.5010738,403.5010738,a,1.270253647,,,,,,,,,,,,,,,,,,,,,,,,,,,,,,,,,,,,,,,,,,,,,,,,,,,,,,,,,,,,,,,,,,,,,,,,,,,,,,,,,,,,,,,,,10,726,,,,,,,,,,,,,,,,,,,,,,,,39022,2022-10-25_10h28.10.269,vts_reward_expectancy_bt_OFFLINE,2022.2.4,59.97592842
0,0,0,1,1,0,0,0,star,triangle,2,2,0,2,0,3,0,36,9,406.8049366,406.8049366,406.8049366,406.8049366,406.8049366,406.8049366,406.8049366,406.8049366,406.8049366,406.8049366,a,0.493634521,,,,,,,,,,,,,,,,,,,,,,,,,,,,,,,,,,,,,,,,,,,,,,,,,,,,,,,,,,,,,,,,,,,,,,,,,,,,,,,,,,,,,,,,,1,727,,,,,,,,,,,,,,,,,,,,,,,,39022,2022-10-25_10h28.10.269,vts_reward_expectancy_bt_OFFLINE,2022.2.4,59.97592842
0,1,0,0,0,0,1,0,circle,hexagon,2,2,0,2,0,3,1,37,4,409.3243602,409.3243602,409.3243602,409.3243602,409.3243602,409.3243602,409.3243602,409.3243602,409.3243602,409.3243602,a,0.886307824,,,,,,,,,,,,,,,,,,,,,,,,,,,,,,,,,,,,,,,,,,,,,,,,,,,,,,,,,,,,,,,,,,,,,,,,,,,,,,,,,,,,,,,,,10,737,,,,,,,,,,,,,,,,,,,,,,,,39022,2022-10-25_10h28.10.269,vts_reward_expectancy_bt_OFFLINE,2022.2.4,59.97592842
0,0,0,1,0,0,1,0,star,hexagon,2,2,0,2,0,3,2,38,11,412.2440151,412.2440151,412.2440151,412.2440151,412.2440151,412.2440151,412.2440151,412.2440151,412.2440151,412.2440151,a,0.663178045,,,,,,,,,,,,,,,,,,,,,,,,,,,,,,,,,,,,,,,,,,,,,,,,,,,,,,,,,,,,,,,,,,,,,,,,,,,,,,,,,,,,,,,,,1,738,,,,,,,,,,,,,,,,,,,,,,,,39022,2022-10-25_10h28.10.269,vts_reward_expectancy_bt_OFFLINE,2022.2.4,59.97592842
1,0,0,0,0,1,0,0,triangle,circle,2,2,0,2,0,3,3,39,0,414.9304773,414.9304773,414.9304773,414.9304773,414.9304773,414.9304773,414.9304773,414.9304773,414.9304773,414.9304773,l,0.528616398,,,,,,,,,,,,,,,,,,,,,,,,,,,,,,,,,,,,,,,,,,,,,,,,,,,,,,,,,,,,,,,,,,,,,,,,,,,,,,,,,,,,,,,,,1,739,,,,,,,,,,,,,,,,,,,,,,,,39022,2022-10-25_10h28.10.269,vts_reward_expectancy_bt_OFFLINE,2022.2.4,59.97592842
1,0,0,0,0,0,0,1,triangle,star,2,2,0,2,0,3,4,40,2,417.4831895,417.4831895,417.4831895,417.4831895,417.4831895,417.4831895,417.4831895,417.4831895,417.4831895,417.4831895,l,0.695286108,,,,,,,,,,,,,,,,,,,,,,,,,,,,,,,,,,,,,,,,,,,,,,,,,,,,,,,,,,,,,,,,,,,,,,,,,,,,,,,,,,,,,,,,,10,749,,,,,,,,,,,,,,,,,,,,,,,,39022,2022-10-25_10h28.10.269,vts_reward_expectancy_bt_OFFLINE,2022.2.4,59.97592842
0,0,1,0,0,1,0,0,hexagon,circle,2,2,0,2,0,3,5,41,7,420.2028306,420.2028306,420.2028306,420.2028306,420.2028306,420.2028306,420.2028306,420.2028306,420.2028306,420.2028306,l,0.623415352,,,,,,,,,,,,,,,,,,,,,,,,,,,,,,,,,,,,,,,,,,,,,,,,,,,,,,,,,,,,,,,,,,,,,,,,,,,,,,,,,,,,,,,,,1,750,,,,,,,,,,,,,,,,,,,,,,,,39022,2022-10-25_10h28.10.269,vts_reward_expectancy_bt_OFFLINE,2022.2.4,59.97592842
0,0,1,0,0,0,0,1,hexagon,star,2,2,0,2,0,3,6,42,8,422.8556384,422.8556384,422.8556384,422.8556384,422.8556384,422.8556384,422.8556384,422.8556384,422.8556384,422.8556384,a,0.52383623,,,,,,,,,,,,,,,,,,,,,,,,,,,,,,,,,,,,,,,,,,,,,,,,,,,,,,,,,,,,,,,,,,,,,,,,,,,,,,,,,,,,,,,,,1,751,,,,,,,,,,,,,,,,,,,,,,,,39022,2022-10-25_10h28.10.269,vts_reward_expectancy_bt_OFFLINE,2022.2.4,59.97592842
0,1,0,0,1,0,0,0,circle,triangle,2,2,0,2,0,3,7,43,3,425.4084856,425.4084856,425.4084856,425.4084856,425.4084856,425.4084856,425.4084856,425.4084856,425.4084856,425.4084856,l,1.178283858,,,,,,,,,,,,,,,,,,,,,,,,,,,,,,,,,,,,,,,,,,,,,,,,,,,,,,,,,,,,,,,,,,,,,,,,,,,,,,,,,,,,,,,,,10,761,,,,,,,,,,,,,,,,,,,,,,,,39022,2022-10-25_10h28.10.269,vts_reward_expectancy_bt_OFFLINE,2022.2.4,59.97592842
0,0,0,1,0,1,0,0,star ,circle,2,2,0,2,0,3,8,44,10,428.6122867,428.6122867,428.6122867,428.6122867,428.6122867,428.6122867,428.6122867,428.6122867,428.6122867,428.6122867,l,0.584333279,,,,,,,,,,,,,,,,,,,,,,,,,,,,,,,,,,,,,,,,,,,,,,,,,,,,,,,,,,,,,,,,,,,,,,,,,,,,,,,,,,,,,,,,,10,771,,,,,,,,,,,,,,,,,,,,,,,,39022,2022-10-25_10h28.10.269,vts_reward_expectancy_bt_OFFLINE,2022.2.4,59.97592842
0,1,0,0,0,0,0,1,circle,star,2,2,0,2,0,3,9,45,5,431.2150406,431.2150406,431.2150406,431.2150406,431.2150406,431.2150406,431.2150406,431.2150406,431.2150406,431.2150406,a,0.484467138,,,,,,,,,,,,,,,,,,,,,,,,,,,,,,,,,,,,,,,,,,,,,,,,,,,,,,,,,,,,,,,,,,,,,,,,,,,,,,,,,,,,,,,,,1,772,,,,,,,,,,,,,,,,,,,,,,,,39022,2022-10-25_10h28.10.269,vts_reward_expectancy_bt_OFFLINE,2022.2.4,59.97592842
1,0,0,0,0,0,1,0,triangle,hexagon,2,2,0,2,0,3,10,46,1,433.7343803,433.7343803,433.7343803,433.7343803,433.7343803,433.7343803,433.7343803,433.7343803,433.7343803,433.7343803,l,0.524980757,,,,,,,,,,,,,,,,,,,,,,,,,,,,,,,,,,,,,,,,,,,,,,,,,,,,,,,,,,,,,,,,,,,,,,,,,,,,,,,,,,,,,,,,,10,782,,,,,,,,,,,,,,,,,,,,,,,,39022,2022-10-25_10h28.10.269,vts_reward_expectancy_bt_OFFLINE,2022.2.4,59.97592842
0,0,1,0,1,0,0,0,hexagon,triangle,2,2,0,2,0,3,11,47,6,436.2872325,436.2872325,436.2872325,436.2872325,436.2872325,436.2872325,436.2872325,436.2872325,436.2872325,436.2872325,l,0.717306742,,,,,,,,,,,,,,,,,,,,,,,,,,,,,,,,,,,,,,,,,,,,,,,,,,,,,,,,,,,,,,,,,,,,,,,,,,,,,,,,,,,,,,,,,10,792,,,,,,,,,,,,,,,,,,,,,,,,39022,2022-10-25_10h28.10.269,vts_reward_expectancy_bt_OFFLINE,2022.2.4,59.97592842
,,,,,,,,,,,,,,,,,,,,,,,,,,,,,,,,,,,,,,,,,,,,,,,,,,,,,,,,,,,,,,,,,,,20.73794819,space,4.437495898,,,,,,,,,,,,,,,,,,,,,,,,,,,,,,,,,,,,,,,,,,,,,,,,,,,792,,,,,,,,,,,,,,,,,,,,,,,,39022,2022-10-25_10h28.10.269,vts_reward_expectancy_bt_OFFLINE,2022.2.4,59.97592842
,,,,,,,,,,,,,,,,,,,,,,,,,,,,,,,0,0,0,0,0,0,0,0,,,,,,,,,,,,,,,,,,,,,,,,,,,,,,,,181,S,hexagon,0.001799609,29.4267479,30.93424249,30.93424249,30.93424249,1,0,f,2.705010581,0,33.67072901,35.17243594,,,,,,,,,,,,,,,,,,,,,,,,,,,,,,,,,,,,792,,,,,,,,,,,,,,,,,,,,,,,,39022,2022-10-25_10h28.10.269,vts_reward_expectancy_bt_OFFLINE,2022.2.4,59.97592842
,,,,,,,,,,,,,,,,,,,,,,,,,,,,,,,0,0,0,0,1,0,1,0,,,,,,,,,,,,,,,,,,,,,,,,,,,,,,,,160,Y,circle,0.001762433,36.15253516,37.65832439,37.65832439,37.65832439,1,0,f,0.902168852,0,38.59269181,40.09472963,,,,,,,,,,,,,,,,,,,,,,,,,,,,,,,,,,,,792,,,,,,,,,,,,,,,,,,,,,,,,39022,2022-10-25_10h28.10.269,vts_reward_expectancy_bt_OFFLINE,2022.2.4,59.97592842
,,,,,,,,,,,,,,,,,,,,,,,,,,,,,,,0,0,0,0,2,0,2,0,,,,,,,,,,,,,,,,,,,,,,,,,,,,,,,,139,U,star,0.00105967,41.0737995,42.58022276,42.58022276,42.58022276,1,0,d,0.843792279,0,43.44795915,44.94965684,,,,,,,,,,,,,,,,,,,,,,,,,,,,,,,,,,,,792,,,,,,,,,,,,,,,,,,,,,,,,39022,2022-10-25_10h28.10.269,vts_reward_expectancy_bt_OFFLINE,2022.2.4,59.97592842
,,,,,,,,,,,,,,,,,,,,,,,,,,,,,,,0,0,0,0,3,0,3,0,,,,,,,,,,,,,,,,,,,,,,,,,,,,,,,,132,D,triangle,0.001849142,45.92812465,47.43573336,47.43573336,47.43573336,0,0,None,,0,50.43906741,51.94093941,50.43906741,50.43906741,50.43906741,50.43906741,51.94093941,52.44109714,,,,,,,,,,,,,,,,,,,,,,,,,,,,,,792,,,,,,,,,,,,,,,,,,,,,,,,39022,2022-10-25_10h28.10.269,vts_reward_expectancy_bt_OFFLINE,2022.2.4,59.97592842
,,,,,,,,,,,,,,,,,,,,,,,,,,,,,,,0,0,0,0,4,0,4,0,,,,,,,,,,,,,,,,,,,,,,,,,,,,,,,,174,W,star,0.009057505,52.93773459,54.44332172,54.44332172,54.44332172,1,1,f,0.627966793,0,55.09399734,56.5957959,,,,,,,,,,,,,,,,,,,,,,,,,,,,,,,,,,,,792,,,,,,,,,,,,,,,,,,,,,,,,39022,2022-10-25_10h28.10.269,vts_reward_expectancy_bt_OFFLINE,2022.2.4,59.97592842
,,,,,,,,,,,,,,,,,,,,,,,,,,,,,,,0,0,0,0,5,0,5,0,,,,,,,,,,,,,,,,,,,,,,,,,,,,,,,,146,B,circle,0.001955422,57.57453043,59.08198759,59.08198759,59.08198759,0,0,f,1.068937493,0,60.1831395,61.68498218,,,,,,,,,,,,,,,,,,,,,,,,,,,,,,,,,,,,792,,,,,,,,,,,,,,,,,,,,,,,,39022,2022-10-25_10h28.10.269,vts_reward_expectancy_bt_OFFLINE,2022.2.4,59.97592842
,,,,,,,,,,,,,,,,,,,,,,,,,,,,,,,0,0,0,0,6,0,6,0,,,,,,,,,,,,,,,,,,,,,,,,,,,,,,,,167,H,hexagon,0.001278546,62.6631251,64.17104703,64.17104703,64.17104703,1,1,f,0.702055178,0,64.90524235,66.40666828,,,,,,,,,,,,,,,,,,,,,,,,,,,,,,,,,,,,792,,,,,,,,,,,,,,,,,,,,,,,,39022,2022-10-25_10h28.10.269,vts_reward_expectancy_bt_OFFLINE,2022.2.4,59.97592842
,,,,,,,,,,,,,,,,,,,,,,,,,,,,,,,0,0,0,0,7,0,7,0,,,,,,,,,,,,,,,,,,,,,,,,,,,,,,,,125,F,triangle,0.001636588,67.38537052,68.89294246,68.89294246,68.89294246,1,0,d,0.714738847,0,69.62688725,71.12845795,,,,,,,,,,,,,,,,,,,,,,,,,,,,,,,,,,,,792,,,,,,,,,,,,,,,,,,,,,,,,39022,2022-10-25_10h28.10.269,vts_reward_expectancy_bt_OFFLINE,2022.2.4,59.97592842
,,,,,,,,,,,,,,,,,,,,,,,,,,,,,,,0,0,0,0,8,0,8,0,,,,,,,,,,,,,,,,,,,,,,,,,,,,,,,,181,S,hexagon,0.001304852,72.1061586,73.61451035,73.61451035,73.61451035,1,0,f,0.665198602,0,74.29872045,75.80018801,,,,,,,,,,,,,,,,,,,,,,,,,,,,,,,,,,,,792,,,,,,,,,,,,,,,,,,,,,,,,39022,2022-10-25_10h28.10.269,vts_reward_expectancy_bt_OFFLINE,2022.2.4,59.97592842
,,,,,,,,,,,,,,,,,,,,,,,,,,,,,,,0,0,0,0,9,0,9,0,,,,,,,,,,,,,,,,,,,,,,,,,,,,,,,,160,Y,circle,0.000988397,76.77810829,78.28665061,78.28665061,78.28665061,1,0,f,0.496468265,0,78.80377042,80.30529737,,,,,,,,,,,,,,,,,,,,,,,,,,,,,,,,,,,,792,,,,,,,,,,,,,,,,,,,,,,,,39022,2022-10-25_10h28.10.269,vts_reward_expectancy_bt_OFFLINE,2022.2.4,59.97592842
,,,,,,,,,,,,,,,,,,,,,,,,,,,,,,,1,0,1,0,0,0,0,0,,,,,,,,,,,,,,,,,,,,,,,,,,,,,,,,181,U,circle,0.001714853,92.29644961,93.80363812,93.80363812,93.80363812,1,0,f,0.524046145,1,94.35421939,95.85585186,,,,,,,,,,,,,,,,,,,,,,,,,,,,,,,,,,,,792,,,,,,,,,,,,,,,,,,,,,,,,39022,2022-10-25_10h28.10.269,vts_reward_expectancy_bt_OFFLINE,2022.2.4,59.97592842
,,,,,,,,,,,,,,,,,,,,,,,,,,,,,,,1,0,1,0,1,0,1,0,,,,,,,,,,,,,,,,,,,,,,,,,,,,,,,,132,F,hexagon,0.001536595,96.83354188,98.34171449,98.34171449,98.34171449,1,0,d,0.851399898,1,99.20938903,100.7110133,,,,,,,,,,,,,,,,,,,,,,,,,,,,,,,,,,,,792,,,,,,,,,,,,,,,,,,,,,,,,39022,2022-10-25_10h28.10.269,vts_reward_expectancy_bt_OFFLINE,2022.2.4,59.97592842
,,,,,,,,,,,,,,,,,,,,,,,,,,,,,,,1,0,1,0,2,0,2,0,,,,,,,,,,,,,,,,,,,,,,,,,,,,,,,,125,H,star,0.000926499,101.6891071,103.1972158,103.1972158,103.1972158,1,0,d,0.771025854,1,103.9981351,105.4998021,,,,,,,,,,,,,,,,,,,,,,,,,,,,,,,,,,,,792,,,,,,,,,,,,,,,,,,,,,,,,39022,2022-10-25_10h28.10.269,vts_reward_expectancy_bt_OFFLINE,2022.2.4,59.97592842
,,,,,,,,,,,,,,,,,,,,,,,,,,,,,,,1,0,1,0,3,0,3,0,,,,,,,,,,,,,,,,,,,,,,,,,,,,,,,,160,Y,triangle,0.00164613,106.4778775,107.9858711,107.9858711,107.9858711,1,0,f,1.022641026,1,109.0372773,110.5386548,,,,,,,,,,,,,,,,,,,,,,,,,,,,,,,,,,,,792,,,,,,,,,,,,,,,,,,,,,,,,39022,2022-10-25_10h28.10.269,vts_reward_expectancy_bt_OFFLINE,2022.2.4,59.97592842
,,,,,,,,,,,,,,,,,,,,,,,,,,,,,,,1,0,1,0,4,0,4,0,,,,,,,,,,,,,,,,,,,,,,,,,,,,,,,,174,W,circle,0.002103712,111.5178392,113.0247668,113.0247668,113.0247668,1,0,f,0.727345518,1,113.7755472,115.2772268,,,,,,,,,,,,,,,,,,,,,,,,,,,,,,,,,,,,792,,,,,,,,,,,,,,,,,,,,,,,,39022,2022-10-25_10h28.10.269,vts_reward_expectancy_bt_OFFLINE,2022.2.4,59.97592842
,,,,,,,,,,,,,,,,,,,,,,,,,,,,,,,1,0,1,0,5,0,5,0,,,,,,,,,,,,,,,,,,,,,,,,,,,,,,,,139,D,star,0.001720724,116.2551385,117.7632171,117.7632171,117.7632171,1,0,d,0.995942435,1,118.7812022,120.2827883,,,,,,,,,,,,,,,,,,,,,,,,,,,,,,,,,,,,792,,,,,,,,,,,,,,,,,,,,,,,,39022,2022-10-25_10h28.10.269,vts_reward_expectancy_bt_OFFLINE,2022.2.4,59.97592842
,,,,,,,,,,,,,,,,,,,,,,,,,,,,,,,1,0,1,0,6,0,6,0,,,,,,,,,,,,,,,,,,,,,,,,,,,,,,,,167,B,triangle,0.00189153,121.261342,122.7689405,122.7689405,122.7689405,1,0,f,0.59972529,1,123.3863604,124.8878541,,,,,,,,,,,,,,,,,,,,,,,,,,,,,,,,,,,,792,,,,,,,,,,,,,,,,,,,,,,,,39022,2022-10-25_10h28.10.269,vts_reward_expectancy_bt_OFFLINE,2022.2.4,59.97592842
,,,,,,,,,,,,,,,,,,,,,,,,,,,,,,,1,0,1,0,7,0,7,0,,,,,,,,,,,,,,,,,,,,,,,,,,,,,,,,146,S,hexagon,0.000937828,125.8659,127.3738782,127.3738782,127.3738782,1,0,d,0.968997434,1,128.3748626,129.8768919,,,,,,,,,,,,,,,,,,,,,,,,,,,,,,,,,,,,792,,,,,,,,,,,,,,,,,,,,,,,,39022,2022-10-25_10h28.10.269,vts_reward_expectancy_bt_OFFLINE,2022.2.4,59.97592842
,,,,,,,,,,,,,,,,,,,,,,,,,,,,,,,1,0,1,0,8,0,8,0,,,,,,,,,,,,,,,,,,,,,,,,,,,,,,,,181,U,triangle,0.001646942,130.8536169,132.362728,132.362728,132.362728,1,0,f,0.934407265,1,133.313779,134.8153868,,,,,,,,,,,,,,,,,,,,,,,,,,,,,,,,,,,,792,,,,,,,,,,,,,,,,,,,,,,,,39022,2022-10-25_10h28.10.269,vts_reward_expectancy_bt_OFFLINE,2022.2.4,59.97592842
,,,,,,,,,,,,,,,,,,,,,,,,,,,,,,,1,0,1,0,9,0,9,0,,,,,,,,,,,,,,,,,,,,,,,,,,,,,,,,132,F,star,0.000969691,135.7914045,137.3015826,137.3015826,137.3015826,1,0,d,1.010194969,1,138.3359956,139.8377151,,,,,,,,,,,,,,,,,,,,,,,,,,,,,,,,,,,,792,,,,,,,,,,,,,,,,,,,,,,,,39022,2022-10-25_10h28.10.269,vts_reward_expectancy_bt_OFFLINE,2022.2.4,59.97592842
,,,,,,,,,,,,,,,,,,,,,,,,,,,,,,,,,,,,,,,0,0,0,0,0,0,0,0,,,,,,,,,,,,,,,,,,,,,,,,181,S,triangle,0.001565071,,,,,2,0,,,2,154.7045095,156.2056911,,,,,,,151.3771746,152.8854497,152.8854497,152.8854497,f,1.786502069,,,,,,,,,,,,,,,,,,,,,,,,792,,,,,,,,,,,,,,,,,,,,,,,,39022,2022-10-25_10h28.10.269,vts_reward_expectancy_bt_OFFLINE,2022.2.4,59.97592842
,,,,,,,,,,,,,,,,,,,,,,,,,,,,,,,,,,,,,,,0,0,0,0,1,0,1,0,,,,,,,,,,,,,,,,,,,,,,,,174,U,star,0.001669359,,,,,2,0,,,2,160.3767877,161.8785553,,,,,161.8785553,,157.1827142,158.6918583,158.6918583,158.6918583,f,1.668982706,,,,,,,,,,,,,,,,,,,,,,,,792,,,,,,,,,,,,,,,,,,,,,,,,39022,2022-10-25_10h28.10.269,vts_reward_expectancy_bt_OFFLINE,2022.2.4,59.97592842
,,,,,,,,,,,,,,,,,,,,,,,,,,,,,,,,,,,,,,,0,0,0,0,2,0,2,0,,,,,,,,,,,,,,,,,,,,,,,,146,H,hexagon,0.000952087,,,,,2,0,,,2,165.7671093,167.2679668,,,,,,,162.8635316,164.3646985,164.3646985,164.3646985,d,1.370875853,,,,,,,,,,,,,,,,,,,,,,,,792,,,,,,,,,,,,,,,,,,,,,,,,39022,2022-10-25_10h28.10.269,vts_reward_expectancy_bt_OFFLINE,2022.2.4,59.97592842
,,,,,,,,,,,,,,,,,,,,,,,,,,,,,,,,,,,,,,,0,0,0,0,3,0,3,0,,,,,,,,,,,,,,,,,,,,,,,,167,D,circle,0.003002937,,,,,2,0,,,2,170.504839,172.0065036,,,,,,,168.2449958,169.7539466,169.7539466,169.7539466,f,0.71827001,,,,,,,,,,,,,,,,,,,,,,,,792,,,,,,,,,,,,,,,,,,,,,,,,39022,2022-10-25_10h28.10.269,vts_reward_expectancy_bt_OFFLINE,2022.2.4,59.97592842
,,,,,,,,,,,,,,,,,,,,,,,,,,,,,,,,,,,,,,,0,0,0,0,4,0,4,0,,,,,,,,,,,,,,,,,,,,,,,,139,F,triangle,0.001444842,,,,,2,0,,,2,175.3601326,176.8617579,,,,,,,172.9834357,174.4925243,174.4925243,174.4925243,d,0.835455042,,,,,,,,,,,,,,,,,,,,,,,,792,,,,,,,,,,,,,,,,,,,,,,,,39022,2022-10-25_10h28.10.269,vts_reward_expectancy_bt_OFFLINE,2022.2.4,59.97592842
,,,,,,,,,,,,,,,,,,,,,,,,,,,,,,,,,,,,,,,0,0,0,0,5,0,5,0,,,,,,,,,,,,,,,,,,,,,,,,125,B,circle,0.001745354,,,,,2,0,,,2,181.4835404,182.9856611,,,,,,,177.8383755,179.3478882,179.3478882,179.3478882,d,2.116384217,,,,,,,,,,,,,,,,,,,,,,,,792,,,,,,,,,,,,,,,,,,,,,,,,39022,2022-10-25_10h28.10.269,vts_reward_expectancy_bt_OFFLINE,2022.2.4,59.97592842
,,,,,,,,,,,,,,,,,,,,,,,,,,,,,,,,,,,,,,,0,0,0,0,6,0,6,0,,,,,,,,,,,,,,,,,,,,,,,,132,Y,star,0.001543699,,,,,0,0,,,2,188.4744484,189.9761661,,,,,189.9761661,190.476784,183.9628242,185.4713629,185.4713629,185.4713629,None,,188.4744484,188.4744484,188.4744484,188.4744484,,,,,,,,,,,,,,,,,,,,792,,,,,,,,,,,,,,,,,,,,,,,,39022,2022-10-25_10h28.10.269,vts_reward_expectancy_bt_OFFLINE,2022.2.4,59.97592842
,,,,,,,,,,,,,,,,,,,,,,,,,,,,,,,,,,,,,,,0,0,0,0,7,0,7,0,,,,,,,,,,,,,,,,,,,,,,,,160,W,hexagon,0.008724294,,,,,2,1,,,2,193.8139265,195.3154988,,,,,,,190.9695991,192.4789791,192.4789791,192.4789791,f,1.303953615,,,,,,,,,,,,,,,,,,,,,,,,792,,,,,,,,,,,,,,,,,,,,,,,,39022,2022-10-25_10h28.10.269,vts_reward_expectancy_bt_OFFLINE,2022.2.4,59.97592842
,,,,,,,,,,,,,,,,,,,,,,,,,,,,,,,,,,,,,,,0,0,0,0,8,0,8,0,,,,,,,,,,,,,,,,,,,,,,,,181,S,triangle,0.001576464,,,,,2,0,,,2,198.3355441,199.8371842,,,,,,,196.292297,197.8014278,197.8014278,197.8014278,f,0.501592485,,,,,,,,,,,,,,,,,,,,,,,,792,,,,,,,,,,,,,,,,,,,,,,,,39022,2022-10-25_10h28.10.269,vts_reward_expectancy_bt_OFFLINE,2022.2.4,59.97592842
,,,,,,,,,,,,,,,,,,,,,,,,,,,,,,,,,,,,,,,0,0,0,0,9,0,9,0,,,,,,,,,,,,,,,,,,,,,,,,174,U,circle,0.001716259,,,,,2,0,,,2,203.3745454,204.8761911,,,,,,,200.8144814,202.323373,202.323373,202.323373,d,1.020185848,,,,,,,,,,,,,,,,,,,,,,,,792,,,,,,,,,,,,,,,,,,,,,,,,39022,2022-10-25_10h28.10.269,vts_reward_expectancy_bt_OFFLINE,2022.2.4,59.97592842
,,,,,,,,,,,,,,,,,,,,,,,,,,,,,,,,,,,,,,,1,0,1,0,0,0,0,0,,,,,,,,,,,,,,,,,,,,,,,,174,Y,triangle,0.001941385,,,,,1,0,,,3,220.6100174,222.1117351,,,,,,,218.2994495,219.8093039,219.8093039,219.8093039,k,0.783973076,,,,,,,,,,,,,,,,,,,,,,,,792,,,,,,,,,,,,,,,,,,,,,,,,39022,2022-10-25_10h28.10.269,vts_reward_expectancy_bt_OFFLINE,2022.2.4,59.97592842
,,,,,,,,,,,,,,,,,,,,,,,,,,,,,,,,,,,,,,,1,0,1,0,1,0,1,0,,,,,,,,,,,,,,,,,,,,,,,,132,D,star,0.001170667,,,,,1,0,,,3,225.5490545,227.0508576,,,,,,,223.0884428,224.5978718,224.5978718,224.5978718,j,0.930109687,,,,,,,,,,,,,,,,,,,,,,,,792,,,,,,,,,,,,,,,,,,,,,,,,39022,2022-10-25_10h28.10.269,vts_reward_expectancy_bt_OFFLINE,2022.2.4,59.97592842
,,,,,,,,,,,,,,,,,,,,,,,,,,,,,,,,,,,,,,,1,0,1,0,2,0,2,0,,,,,,,,,,,,,,,,,,,,,,,,125,H,hexagon,0.001807222,,,,,1,0,,,3,230.7210801,232.2227136,,,,,,,228.0336762,229.5366876,229.5366876,229.5366876,j,1.158366702,,,,,,,,,,,,,,,,,,,,,,,,792,,,,,,,,,,,,,,,,,,,,,,,,39022,2022-10-25_10h28.10.269,vts_reward_expectancy_bt_OFFLINE,2022.2.4,59.97592842
,,,,,,,,,,,,,,,,,,,,,,,,,,,,,,,,,,,,,,,1,0,1,0,3,0,3,0,,,,,,,,,,,,,,,,,,,,,,,,181,U,circle,0.001740083,,,,,1,0,,,3,235.8267846,237.3286403,,,,,,,233.2001807,234.7088767,234.7088767,234.7088767,k,1.09855561,,,,,,,,,,,,,,,,,,,,,,,,792,,,,,,,,,,,,,,,,,,,,,,,,39022,2022-10-25_10h28.10.269,vts_reward_expectancy_bt_OFFLINE,2022.2.4,59.97592842
,,,,,,,,,,,,,,,,,,,,,,,,,,,,,,,,,,,,,,,1,0,1,0,4,0,4,0,,,,,,,,,,,,,,,,,,,,,,,,146,S,circle,0.00141119,,,,,1,0,,,3,240.6989263,242.2005908,,,,,,,238.3054509,239.8146183,239.8146183,239.8146183,k,0.865182605,,,,,,,,,,,,,,,,,,,,,,,,792,,,,,,,,,,,,,,,,,,,,,,,,39022,2022-10-25_10h28.10.269,vts_reward_expectancy_bt_OFFLINE,2022.2.4,59.97592842
,,,,,,,,,,,,,,,,,,,,,,,,,,,,,,,,,,,,,,,1,0,1,0,5,0,5,0,,,,,,,,,,,,,,,,,,,,,,,,160,B,hexagon,0.001479329,,,,,1,0,,,3,245.4377093,246.939426,,,,,,,243.1782265,244.6866429,244.6866429,244.6866429,j,0.7284184,,,,,,,,,,,,,,,,,,,,,,,,792,,,,,,,,,,,,,,,,,,,,,,,,39022,2022-10-25_10h28.10.269,vts_reward_expectancy_bt_OFFLINE,2022.2.4,59.97592842
,,,,,,,,,,,,,,,,,,,,,,,,,,,,,,,,,,,,,,,1,0,1,0,6,0,6,0,,,,,,,,,,,,,,,,,,,,,,,,139,F,triangle,0.001666879,,,,,1,0,,,3,251.3776561,252.8789191,,,,,,,247.9160082,249.4252455,249.4252455,249.4252455,j,1.919561753,,,,,,,,,,,,,,,,,,,,,,,,792,,,,,,,,,,,,,,,,,,,,,,,,39022,2022-10-25_10h28.10.269,vts_reward_expectancy_bt_OFFLINE,2022.2.4,59.97592842
,,,,,,,,,,,,,,,,,,,,,,,,,,,,,,,,,,,,,,,1,0,1,0,7,0,7,0,,,,,,,,,,,,,,,,,,,,,,,,167,W,star,0.001680529,,,,,1,0,,,3,256.2327229,257.7342742,,,,,,,253.855307,255.3656815,255.3656815,255.3656815,k,0.834491228,,,,,,,,,,,,,,,,,,,,,,,,792,,,,,,,,,,,,,,,,,,,,,,,,39022,2022-10-25_10h28.10.269,vts_reward_expectancy_bt_OFFLINE,2022.2.4,59.97592842
,,,,,,,,,,,,,,,,,,,,,,,,,,,,,,,,,,,,,,,1,0,1,0,8,0,8,0,,,,,,,,,,,,,,,,,,,,,,,,174,Y,star,0.001863135,,,,,1,0,,,3,261.3874809,262.8904214,,,,,,,258.7114762,260.2203865,260.2203865,260.2203865,k,1.147114452,,,,,,,,,,,,,,,,,,,,,,,,792,,,,,,,,,,,,,,,,,,,,,,,,39022,2022-10-25_10h28.10.269,vts_reward_expectancy_bt_OFFLINE,2022.2.4,59.97592842
,,,,,,,,,,,,,,,,,,,,,,,,,,,,,,,,,,,,,,,1,0,1,0,9,0,9,0,,,,,,,,,,,,,,,,,,,,,,,,132,D,hexagon,0.001065443,,,,,1,0,,,3,266.3939088,267.8954905,,,,,,,263.8676624,265.3764287,265.3764287,265.3764287,j,1.000838071,,,,,,,,,,,,,,,,,,,,,,,,792,,,,,,,,,,,,,,,,,,,,,,,,39022,2022-10-25_10h28.10.269,vts_reward_expectancy_bt_OFFLINE,2022.2.4,59.97592842
,,,,,,,,,,,,,,,,,,,,,,,,,,,,,,,,,,,,,,,,,,,,,,,0,0,0,0,0,0,0,0,,,,,,,,,,,,,,,,174,S,circle,0.001524643,,,,,1,0,,,4,,305.9543474,,,,,,,,,,,,,,,,,301.0130336,301.0130336,301.0130336,301.0130336,302.5171366,302.5171366,302.5171366,302.5171366,302.5171366,302.5171366,302.5171366,302.5171366,-1,number,NA,f,1.907498455,vtsPrac,0,792,304.4524916,,,,,,,,,,,,,,,,,,,,,,,39022,2022-10-25_10h28.10.269,vts_reward_expectancy_bt_OFFLINE,2022.2.4,59.97592842
,,,,,,,,,,,,,,,,,,,,,,,,,,,,,,,,,,,,,,,,,,,,,,,0,0,0,0,1,0,1,0,,,,,,,,,,,,,,,,132,Y,triangle,0.001556612,,,,,1,0,,,4,,312.178116,,,,,,,,,,,,,,,,,306.9345068,306.9345068,306.9345068,306.9345068,308.4403658,308.4403658,308.4403658,308.4403658,308.4403658,308.4403658,308.4403658,308.4403658,switch,letter,lettSwt,k,2.215694393,vtsPrac,0,792,310.6762328,,,,,,,,,,,,,,,,,,,,,,,39022,2022-10-25_10h28.10.269,vts_reward_expectancy_bt_OFFLINE,2022.2.4,59.97592842
,,,,,,,,,,,,,,,,,,,,,,,,,,,,,,,,,,,,,,,,,,,,,,,0,0,0,0,2,0,2,0,,,,,,,,,,,,,,,,125,F,triangle,0.001344231,,,,,1,0,,,4,,316.9330405,,,,,,,,,,,,,,,,,313.1569116,313.1569116,313.1569116,313.1569116,314.6638184,314.6638184,314.6638184,314.6638184,314.6638184,314.6638184,314.6638184,314.6638184,repeat,letter,lettRpt,j,0.743498546,vtsPrac,0,792,315.4312023,,,,,,,,,,,,,,,,,,,,,,,39022,2022-10-25_10h28.10.269,vts_reward_expectancy_bt_OFFLINE,2022.2.4,59.97592842
,,,,,,,,,,,,,,,,,,,,,,,,,,,,,,,,,,,,,,,,,,,,,,,0,0,0,0,3,0,3,0,,,,,,,,,,,,,,,,160,B,hexagon,0.001605383,,,,,1,0,,,4,,321.6383989,,,,,,,,,,,,,,,,,317.9132497,317.9132497,317.9132497,317.9132497,319.4192815,319.4192815,319.4192815,319.4192815,319.4192815,319.4192815,319.4192815,319.4192815,repeat,letter,lettRpt,j,0.692365511,vtsPrac,0,792,320.1366573,,,,,,,,,,,,,,,,,,,,,,,39022,2022-10-25_10h28.10.269,vts_reward_expectancy_bt_OFFLINE,2022.2.4,59.97592842
,,,,,,,,,,,,,,,,,,,,,,,,,,,,,,,,,,,,,,,,,,,,,,,0,0,0,0,4,0,4,0,,,,,,,,,,,,,,,,174,S,star,0.001555523,,,,,1,0,,,4,,326.1764395,,,,,,,,,,,,,,,,,322.6151122,322.6151122,322.6151122,322.6151122,324.12409,324.12409,324.12409,324.12409,324.12409,324.12409,324.12409,324.12409,switch,number,numSwt,f,0.531768658,vtsPrac,0,792,324.674925,,,,,,,,,,,,,,,,,,,,,,,39022,2022-10-25_10h28.10.269,vts_reward_expectancy_bt_OFFLINE,2022.2.4,59.97592842
,,,,,,,,,,,,,,,,,,,,,,,,,,,,,,,,,,,,,,,,,,,,,,,0,0,0,0,5,0,5,0,,,,,,,,,,,,,,,,132,Y,circle,0.001115181,,,,,1,0,,,4,,331.2655495,,,,,,,,,,,,,,,,,327.1549807,327.1549807,327.1549807,327.1549807,328.6626409,328.6626409,328.6626409,328.6626409,328.6626409,328.6626409,328.6626409,328.6626409,repeat,number,numRpt,d,1.081511588,vtsPrac,0,792,329.7637964,,,,,,,,,,,,,,,,,,,,,,,39022,2022-10-25_10h28.10.269,vts_reward_expectancy_bt_OFFLINE,2022.2.4,59.97592842
,,,,,,,,,,,,,,,,,,,,,,,,,,,,,,,,,,,,,,,,,,,,,,,0,0,0,0,6,0,6,0,,,,,,,,,,,,,,,,125,F,hexagon,0.001461471,,,,,1,0,,,4,,335.9706103,,,,,,,,,,,,,,,,,332.2431298,332.2431298,332.2431298,332.2431298,333.7517242,333.7517242,333.7517242,333.7517242,333.7517242,333.7517242,333.7517242,333.7517242,repeat,number,numRpt,d,0.696154962,vtsPrac,0,792,334.4691683,,,,,,,,,,,,,,,,,,,,,,,39022,2022-10-25_10h28.10.269,vts_reward_expectancy_bt_OFFLINE,2022.2.4,59.97592842
,,,,,,,,,,,,,,,,,,,,,,,,,,,,,,,,,,,,,,,,,,,,,,,0,0,0,0,7,0,7,0,,,,,,,,,,,,,,,,160,B,star,0.001757509,,,,,1,0,,,4,,340.7091162,,,,,,,,,,,,,,,,,336.9479916,336.9479916,336.9479916,336.9479916,338.4566792,338.4566792,338.4566792,338.4566792,338.4566792,338.4566792,338.4566792,338.4566792,repeat,number,numRpt,f,0.726756444,vtsPrac,0,792,339.2075977,,,,,,,,,,,,,,,,,,,,,,,39022,2022-10-25_10h28.10.269,vts_reward_expectancy_bt_OFFLINE,2022.2.4,59.97592842
,,,,,,,,,,,,,,,,,,,,,,,,,,,,,,,,,,,,,,,,,,,,,,,0,0,0,0,8,0,8,0,,,,,,,,,,,,,,,,125,D,triangle,0.001614189,,,,,1,0,,,4,,345.3310376,,,,,,,,,,,,,,,,,341.6869842,341.6869842,341.6869842,341.6869842,343.1952163,343.1952163,343.1952163,343.1952163,343.1952163,343.1952163,343.1952163,343.1952163,switch,letter,lettSwt,j,0.605226317,vtsPrac,0,792,343.8294561,,,,,,,,,,,,,,,,,,,,,,,39022,2022-10-25_10h28.10.269,vts_reward_expectancy_bt_OFFLINE,2022.2.4,59.97592842
,,,,,,,,,,,,,,,,,,,,,,,,,,,,,,,,,,,,,,,,,,,,,,,0,0,0,0,9,0,9,0,,,,,,,,,,,,,,,,139,U,circle,0.001644619,,,,,1,0,,,4,,350.1529158,,,,,,,,,,,,,,,,,346.3100575,346.3100575,346.3100575,346.3100575,347.8172147,347.8172147,347.8172147,347.8172147,347.8172147,347.8172147,347.8172147,347.8172147,repeat,letter,lettRpt,k,0.814788666,vtsPrac,0,792,348.6513727,,,,,,,,,,,,,,,,,,,,,,,39022,2022-10-25_10h28.10.269,vts_reward_expectancy_bt_OFFLINE,2022.2.4,59.97592842
,,,,,,,,,,,,,,,,,,,,,,,,,,,,,,,,,,,,,,,,,,,,,,,0,0,0,0,10,0,10,0,,,,,,,,,,,,,,,,167,S,circle,0.00147114,,,,,1,0,,,4,,355.0251197,,,,,,,,,,,,,,,,,351.1306932,351.1306932,351.1306932,351.1306932,352.6394473,352.6394473,352.6394473,352.6394473,352.6394473,352.6394473,352.6394473,352.6394473,repeat,letter,lettRpt,k,0.864898322,vtsPrac,0,792,353.5235325,,,,,,,,,,,,,,,,,,,,,,,39022,2022-10-25_10h28.10.269,vts_reward_expectancy_bt_OFFLINE,2022.2.4,59.97592842
,,,,,,,,,,,,,,,,,,,,,,,,,,,,,,,,,,,,,,,,,,,,,,,0,0,0,0,11,0,11,0,,,,,,,,,,,,,,,,174,W,star,0.001478947,,,,,1,0,,,4,,359.6969679,,,,,,,,,,,,,,,,,356.0034633,356.0034633,356.0034633,356.0034633,357.5111911,357.5111911,357.5111911,357.5111911,357.5111911,357.5111911,357.5111911,357.5111911,switch,number,numSwt,f,0.664862467,vtsPrac,0,792,358.1952431,,,,,,,,,,,,,,,,,,,,,,,39022,2022-10-25_10h28.10.269,vts_reward_expectancy_bt_OFFLINE,2022.2.4,59.97592842
,,,,,,,,,,,,,,,,,,,,,,,,,,,,,,,,,,,,,,,,,,,,,,,0,0,0,0,12,0,12,0,,,,,,,,,,,,,,,,125,W,triangle,0.001253819,,,,,1,0,,,4,,364.3523397,,,,,,,,,,,,,,,,,360.6736528,360.6736528,360.6736528,360.6736528,362.1831164,362.1831164,362.1831164,362.1831164,362.1831164,362.1831164,362.1831164,362.1831164,repeat,number,numRpt,d,0.64848792,vtsPrac,0,792,362.8494628,,,,,,,,,,,,,,,,,,,,,,,39022,2022-10-25_10h28.10.269,vts_reward_expectancy_bt_OFFLINE,2022.2.4,59.97592842
,,,,,,,,,,,,,,,,,,,,,,,,,,,,,,,,,,,,,,,,,,,,,,,0,0,0,0,13,0,13,0,,,,,,,,,,,,,,,,139,U,hexagon,0.00258085,,,,,1,0,,,4,,369.3908976,,,,,,,,,,,,,,,,,365.3297509,365.3297509,365.3297509,365.3297509,366.8381176,366.8381176,366.8381176,366.8381176,366.8381176,366.8381176,366.8381176,366.8381176,repeat,number,numRpt,d,1.024981057,vtsPrac,0,792,367.8890701,,,,,,,,,,,,,,,,,,,,,,,39022,2022-10-25_10h28.10.269,vts_reward_expectancy_bt_OFFLINE,2022.2.4,59.97592842
,,,,,,,,,,,,,,,,,,,,,,,,,,,,,,,,,,,,,,,,,,,,,,,0,0,0,0,14,0,14,0,,,,,,,,,,,,,,,,167,F,triangle,0.001654594,,,,,1,0,,,4,,374.196169,,,,,,,,,,,,,,,,,370.3686553,370.3686553,370.3686553,370.3686553,371.876841,371.876841,371.876841,371.876841,371.876841,371.876841,371.876841,371.876841,switch,letter,lettSwt,j,0.795183478,vtsPrac,0,792,372.6946787,,,,,,,,,,,,,,,,,,,,,,,39022,2022-10-25_10h28.10.269,vts_reward_expectancy_bt_OFFLINE,2022.2.4,59.97592842
,,,,,,,,,,,,,,,,,,,,,,,,,,,,,,,,,,,,,,,,,,,,,,,0,0,0,0,15,0,15,0,,,,,,,,,,,,,,,,146,S,hexagon,0.001500095,,,,,0,0,,,4,,379.668812,,,,,,,,,,,,,,,,,375.1727872,375.1727872,375.1727872,375.1727872,376.6822708,376.6822708,376.6822708,376.6822708,376.6822708,376.6822708,376.6822708,376.6822708,switch,number,NA,f,1.461562713,vtsPrac,0,792,378.1673067,,,,,,,,,,,,,,,,,,,,,,,39022,2022-10-25_10h28.10.269,vts_reward_expectancy_bt_OFFLINE,2022.2.4,59.97592842
,,,,,,,,,,,,,,,,,,,,,,,,,,,,,,,,,,,,,,,,,,,,,,,,,,,,,,,0,0,0,0,,,,,,,,,,,,132,U,triangle,0.002272271,,,,,1,1,,,,,404.0624274,,,,,,,,,,,,,,,,,399.7845237,399.7845237,399.7845237,399.7845237,401.2928636,401.2928636,401.2928636,401.2928636,401.2928636,401.2928636,401.2928636,401.2928636,repeat,number,numRpt,d,1.235658085,noRew,0,792,,0,402.5608288,,,,,,,,,,,,,,,,,,,,,39022,2022-10-25_10h28.10.269,vts_reward_expectancy_bt_OFFLINE,2022.2.4,59.97592842
,,,,,,,,,,,,,,,,,,,,,,,,,,,,,,,,,,,,,,,,,,,,,,,,,,,,,,,1,0,1,0,,,,,,,,,,,,174,W,circle,0.001189561,,,,,1,0,,,,,409.5854943,,,,,,,,,,,,,,,,,405.0394524,405.0394524,405.0394524,405.0394524,406.5484758,406.5484758,406.5484758,406.5484758,406.5484758,406.5484758,406.5484758,406.5484758,switch,letter,lettSwt,k,1.507215091,noRew,0,792,,0,408.0840154,,,,,,,,,,,,,,,,,,,,,39022,2022-10-25_10h28.10.269,vts_reward_expectancy_bt_OFFLINE,2022.2.4,59.97592842
,,,,,,,,,,,,,,,,,,,,,,,,,,,,,,,,,,,,,,,,,,,,,,,,,,,,,,,2,0,2,0,,,,,,,,,,,,146,B,star,0.00156064,,,,,1,0,,,,,414.1402638,,,,,,,,,,,,,,,,,410.563394,410.563394,410.563394,410.563394,412.0715493,412.0715493,412.0715493,412.0715493,412.0715493,412.0715493,412.0715493,412.0715493,repeat,letter,lettRpt,j,0.536163417,noRew,0,792,,0,412.63883,,,,,,,,,,,,,,,,,,,,,39022,2022-10-25_10h28.10.269,vts_reward_expectancy_bt_OFFLINE,2022.2.4,59.97592842
,,,,,,,,,,,,,,,,,,,,,,,,,,,,,,,,,,,,,,,,,,,,,,,,,,,,,,,3,0,3,0,,,,,,,,,,,,160,F,triangle,0.001703006,,,,,1,0,,,,,418.6952614,,,,,,,,,,,,,,,,,415.1175191,415.1175191,415.1175191,415.1175191,416.6263275,416.6263275,416.6263275,416.6263275,416.6263275,416.6263275,416.6263275,416.6263275,repeat,letter,lettRpt,j,0.550505969,noRew,0,792,,0,417.1937161,,,,,,,,,,,,,,,,,,,,,39022,2022-10-25_10h28.10.269,vts_reward_expectancy_bt_OFFLINE,2022.2.4,59.97592842
,,,,,,,,,,,,,,,,,,,,,,,,,,,,,,,,,,,,,,,,,,,,,,,,,,,,,,,4,0,4,0,,,,,,,,,,,,132,U,circle,0.00101637,,,,,1,0,,,,,423.517325,,,,,,,,,,,,,,,,,419.6733401,419.6733401,419.6733401,419.6733401,421.1814269,421.1814269,421.1814269,421.1814269,421.1814269,421.1814269,421.1814269,421.1814269,switch,number,numSwt,d,0.809816927,noRew,0,792,,0,422.0157078,,,,,,,,,,,,,,,,,,,,,39022,2022-10-25_10h28.10.269,vts_reward_expectancy_bt_OFFLINE,2022.2.4,59.97592842
,,,,,,,,,,,,,,,,,,,,,,,,,,,,,,,,,,,,,,,,,,,,,,,,,,,,,,,5,0,5,0,,,,,,,,,,,,174,W,hexagon,0.001518916,,,,,1,0,,,,,428.3223315,,,,,,,,,,,,,,,,,424.4950176,424.4950176,424.4950176,424.4950176,426.0033649,426.0033649,426.0033649,426.0033649,426.0033649,426.0033649,426.0033649,426.0033649,switch,letter,lettSwt,k,0.78896156,noRew,0,792,,0,426.8208821,,,,,,,,,,,,,,,,,,,,,39022,2022-10-25_10h28.10.269,vts_reward_expectancy_bt_OFFLINE,2022.2.4,59.97592842
,,,,,,,,,,,,,,,,,,,,,,,,,,,,,,,,,,,,,,,,,,,,,,,,,,,,,,,6,0,6,0,,,,,,,,,,,,146,B,hexagon,0.001235194,,,,,0,0,,,,,433.5282229,,,,,,,,,,,,,,,,,429.2999202,429.2999202,429.2999202,429.2999202,430.8086166,430.8086166,430.8086166,430.8086166,430.8086166,430.8086166,430.8086166,430.8086166,switch,number,NA,f,1.191286101,noRew,0,792,,0,432.0265625,,,,,,,,,,,,,,,,,,,,,39022,2022-10-25_10h28.10.269,vts_reward_expectancy_bt_OFFLINE,2022.2.4,59.97592842
,,,,,,,,,,,,,,,,,,,,,,,,,,,,,,,,,,,,,,,,,,,,,,,,,,,,,,,7,0,7,0,,,,,,,,,,,,160,F,star,0.001503271,,,,,1,1,,,,,438.784048,,,,,,,,,,,,,,,,,434.5053757,434.5053757,434.5053757,434.5053757,436.0145655,436.0145655,436.0145655,436.0145655,436.0145655,436.0145655,436.0145655,436.0145655,repeat,number,numRpt,f,1.249681553,noRew,0,792,,0,437.282423,,,,,,,,,,,,,,,,,,,,,39022,2022-10-25_10h28.10.269,vts_reward_expectancy_bt_OFFLINE,2022.2.4,59.97592842
,,,,,,,,,,,,,,,,,,,,,,,,,,,,,,,,,,,,,,,,,,,,,,,,,,,,,,,8,0,8,0,,,,,,,,,,,,146,U,hexagon,0.001165248,,,,,1,0,,,,,444.4735934,,,,,,,,,,,,,,,,,439.7612639,439.7612639,439.7612639,439.7612639,441.2702323,441.2702323,441.2702323,441.2702323,441.2702323,441.2702323,441.2702323,441.2702323,repeat,number,numRpt,d,1.673859529,noRew,0,792,,0,442.9719678,,,,,,,,,,,,,,,,,,,,,39022,2022-10-25_10h28.10.269,vts_reward_expectancy_bt_OFFLINE,2022.2.4,59.97592842
,,,,,,,,,,,,,,,,,,,,,,,,,,,,,,,,,,,,,,,,,,,,,,,,,,,,,,,9,0,9,0,,,,,,,,,,,,160,B,circle,0.001442525,,,,,1,0,,,,,449.3123085,,,,,,,,,,,,,,,,,445.4515868,445.4515868,445.4515868,445.4515868,446.9596623,446.9596623,446.9596623,446.9596623,446.9596623,446.9596623,446.9596623,446.9596623,switch,letter,lettSwt,j,0.82399973,noRew,0,792,,0,447.8108529,,,,,,,,,,,,,,,,,,,,,39022,2022-10-25_10h28.10.269,vts_reward_expectancy_bt_OFFLINE,2022.2.4,59.97592842
,,,,,,,,,,,,,,,,,,,,,,,,,,,,,,,,,,,,,,,,,,,,,,,,,,,,,,,10,0,10,0,,,,,,,,,,,,132,Y,circle,0.001713863,,,,,1,0,,,,,454.1509566,,,,,,,,,,,,,,,,,450.2914177,450.2914177,450.2914177,450.2914177,451.798611,451.798611,451.798611,451.798611,451.798611,451.798611,451.798611,451.798611,repeat,letter,lettRpt,k,0.834528393,noRew,0,792,,0,452.6496093,454.1509566,,,,,,,,,,,,,,,,,,,,39022,2022-10-25_10h28.10.269,vts_reward_expectancy_bt_OFFLINE,2022.2.4,59.97592842
,,,,,,,,,,,,,,,,,,,,,,,,,,,,,,,,,,,,,,,,,,,,,,,,,,,,,,,11,0,11,0,,,,,,,,,,,,125,D,star,0.00059982,,,,,1,0,,,,,458.8062355,,,,,,,,,,,,,,,,,455.1355703,455.1355703,455.1355703,455.1355703,456.6372506,456.6372506,456.6372506,456.6372506,456.6372506,456.6372506,456.6372506,456.6372506,repeat,letter,lettRpt,j,0.634748007,noRew,0,792,,0,457.3046322,,,,,,,,,,,,,,,,,,,,,39022,2022-10-25_10h28.10.269,vts_reward_expectancy_bt_OFFLINE,2022.2.4,59.97592842
,,,,,,,,,,,,,,,,,,,,,,,,,,,,,,,,,,,,,,,,,,,,,,,,,,,,,,,12,0,12,0,,,,,,,,,,,,160,B,hexagon,0.001689246,,,,,1,0,,,,,463.54477,,,,,,,,,,,,,,,,,459.7853139,459.7853139,459.7853139,459.7853139,461.2921687,461.2921687,461.2921687,461.2921687,461.2921687,461.2921687,461.2921687,461.2921687,switch,number,numSwt,f,0.722907245,noRew,0,792,,0,462.0432296,,,,,,,,,,,,,,,,,,,,,39022,2022-10-25_10h28.10.269,vts_reward_expectancy_bt_OFFLINE,2022.2.4,59.97592842
,,,,,,,,,,,,,,,,,,,,,,,,,,,,,,,,,,,,,,,,,,,,,,,,,,,,,,,13,0,13,0,,,,,,,,,,,,167,U,star,0.001713954,,,,,1,0,,,,,468.5670077,,,,,,,,,,,,,,,,,464.5220649,464.5220649,464.5220649,464.5220649,466.0309445,466.0309445,466.0309445,466.0309445,466.0309445,466.0309445,466.0309445,466.0309445,repeat,number,numRpt,f,1.001755564,noRew,0,792,,0,467.0654156,,,,,,,,,,,,,,,,,,,,,39022,2022-10-25_10h28.10.269,vts_reward_expectancy_bt_OFFLINE,2022.2.4,59.97592842
,,,,,,,,,,,,,,,,,,,,,,,,,,,,,,,,,,,,,,,,,,,,,,,,,,,,,,,14,0,14,0,,,,,,,,,,,,139,S,hexagon,0.001952735,,,,,1,0,,,,,473.9728584,,,,,,,,,,,,,,,,,469.5449353,469.5449353,469.5449353,469.5449353,471.053218,471.053218,471.053218,471.053218,471.053218,471.053218,471.053218,471.053218,repeat,number,numRpt,d,1.394097219,noRew,0,792,,0,472.4713824,,,,,,,,,,,,,,,,,,,,,39022,2022-10-25_10h28.10.269,vts_reward_expectancy_bt_OFFLINE,2022.2.4,59.97592842
,,,,,,,,,,,,,,,,,,,,,,,,,,,,,,,,,,,,,,,,,,,,,,,,,,,,,,,15,0,15,0,,,,,,,,,,,,181,D,triangle,0.001415488,,,,,1,0,,,,,479.3125203,,,,,,,,,,,,,,,,,474.9513304,474.9513304,474.9513304,474.9513304,476.4589336,476.4589336,476.4589336,476.4589336,476.4589336,476.4589336,476.4589336,476.4589336,repeat,number,numRpt,f,1.32512945,noRew,0,792,,0,477.8109397,,,,,,,,,,,,,,,,,,,,,39022,2022-10-25_10h28.10.269,vts_reward_expectancy_bt_OFFLINE,2022.2.4,59.97592842
,,,,,,,,,,,,,,,,,,,,,,,,,,,,,,,,,,,,,,,,,,,,,,,,,,,,,,,16,0,16,0,,,,,,,,,,,,139,D,triangle,0.001836354,,,,,1,0,,,,,484.2341096,,,,,,,,,,,,,,,,,480.2894941,480.2894941,480.2894941,480.2894941,481.7985472,481.7985472,481.7985472,481.7985472,481.7985472,481.7985472,481.7985472,481.7985472,switch,letter,lettSwt,j,0.905486578,noRew,0,792,,0,482.7324302,,,,,,,,,,,,,,,,,,,,,39022,2022-10-25_10h28.10.269,vts_reward_expectancy_bt_OFFLINE,2022.2.4,59.97592842
,,,,,,,,,,,,,,,,,,,,,,,,,,,,,,,,,,,,,,,,,,,,,,,,,,,,,,,17,0,17,0,,,,,,,,,,,,132,U,star,0.00150242,,,,,1,0,,,,,489.1232949,,,,,,,,,,,,,,,,,485.2119831,485.2119831,485.2119831,485.2119831,486.7203817,486.7203817,486.7203817,486.7203817,486.7203817,486.7203817,486.7203817,486.7203817,repeat,letter,lettRpt,k,0.872416516,noRew,0,792,,0,487.6213386,,,,,,,,,,,,,,,,,,,,,39022,2022-10-25_10h28.10.269,vts_reward_expectancy_bt_OFFLINE,2022.2.4,59.97592842
,,,,,,,,,,,,,,,,,,,,,,,,,,,,,,,,,,,,,,,,,,,,,,,,,,,,,,,18,0,18,0,,,,,,,,,,,,167,Y,circle,0.001283218,,,,,1,0,,,,,494.1618764,,,,,,,,,,,,,,,,,490.100751,490.100751,490.100751,490.100751,491.608928,491.608928,491.608928,491.608928,491.608928,491.608928,491.608928,491.608928,repeat,letter,lettRpt,k,1.030653802,noRew,0,792,,0,492.6602893,,,,,,,,,,,,,,,,,,,,,39022,2022-10-25_10h28.10.269,vts_reward_expectancy_bt_OFFLINE,2022.2.4,59.97592842
,,,,,,,,,,,,,,,,,,,,,,,,,,,,,,,,,,,,,,,,,,,,,,,,,,,,,,,19,0,19,0,,,,,,,,,,,,146,S,hexagon,0.001683361,,,,,1,0,,,,,499.1673176,,,,,,,,,,,,,,,,,495.1394613,495.1394613,495.1394613,495.1394613,496.6479148,496.6479148,496.6479148,496.6479148,496.6479148,496.6479148,496.6479148,496.6479148,repeat,letter,lettRpt,k,0.985490733,noRew,0,792,,0,497.6656673,,,,,,,,,,,,,,,,,,,,,39022,2022-10-25_10h28.10.269,vts_reward_expectancy_bt_OFFLINE,2022.2.4,59.97592842
,,,,,,,,,,,,,,,,,,,,,,,,,,,,,,,,,,,,,,,,,,,,,,,,,,,,,,,20,0,20,0,,,,,,,,,,,,174,S,circle,0.001603683,,,,,1,0,,,,,503.8223953,,,,,,,,,,,,,,,,,500.144174,500.144174,500.144174,500.144174,501.6534487,501.6534487,501.6534487,501.6534487,501.6534487,501.6534487,501.6534487,501.6534487,switch,number,numSwt,f,0.634795287,noRew,0,792,,0,502.321141,,,,,,,,,,,,,,,,,,,,,39022,2022-10-25_10h28.10.269,vts_reward_expectancy_bt_OFFLINE,2022.2.4,59.97592842
,,,,,,,,,,,,,,,,,,,,,,,,,,,,,,,,,,,,,,,,,,,,,,,,,,,,,,,21,0,21,0,,,,,,,,,,,,181,W,hexagon,0.00153016,,,,,1,0,,,,,508.6277494,,,,,,,,,,,,,,,,,504.7994192,504.7994192,504.7994192,504.7994192,506.3085175,506.3085175,506.3085175,506.3085175,506.3085175,506.3085175,506.3085175,506.3085175,switch,letter,lettSwt,k,0.794897313,noRew,0,792,,0,507.1260668,,,,,,,,,,,,,,,,,,,,,39022,2022-10-25_10h28.10.269,vts_reward_expectancy_bt_OFFLINE,2022.2.4,59.97592842
,,,,,,,,,,,,,,,,,,,,,,,,,,,,,,,,,,,,,,,,,,,,,,,,,,,,,,,22,0,22,0,,,,,,,,,,,,139,Y,circle,0.001726223,,,,,1,0,,,,,515.5186406,,,,,,,,,,,,,,,,,509.6061083,509.6061083,509.6061083,509.6061083,511.1138836,511.1138836,511.1138836,511.1138836,511.1138836,511.1138836,511.1138836,511.1138836,switch,number,numSwt,d,2.870727375,noRew,0,792,,0,514.0170935,,,,,,,,,,,,,,,,,,,,,39022,2022-10-25_10h28.10.269,vts_reward_expectancy_bt_OFFLINE,2022.2.4,59.97592842
,,,,,,,,,,,,,,,,,,,,,,,,,,,,,,,,,,,,,,,,,,,,,,,,,,,,,,,23,0,23,0,,,,,,,,,,,,132,F,hexagon,0.001658675,,,,,1,0,,,,,520.2573303,,,,,,,,,,,,,,,,,516.4964291,516.4964291,516.4964291,516.4964291,518.0047522,518.0047522,518.0047522,518.0047522,518.0047522,518.0047522,518.0047522,518.0047522,switch,letter,lettSwt,j,0.722959745,noRew,0,792,,0,518.7557841,,,,,,,,,,,,,,,,,,,,,39022,2022-10-25_10h28.10.269,vts_reward_expectancy_bt_OFFLINE,2022.2.4,59.97592842
,,,,,,,,,,,,,,,,,,,,,,,,,,,,,,,,,,,,,,,,,,,,,,,,,,,,,,,24,0,24,0,,,,,,,,,,,,181,F,star,0.001074108,,,,,1,0,,,,,525.0292249,,,,,,,,,,,,,,,,,521.2344692,521.2344692,521.2344692,521.2344692,522.7433329,522.7433329,522.7433329,522.7433329,522.7433329,522.7433329,522.7433329,522.7433329,repeat,letter,lettRpt,j,0.760796688,noRew,0,792,,0,523.5275842,,,,,,,,,,,,,,,,,,,,,39022,2022-10-25_10h28.10.269,vts_reward_expectancy_bt_OFFLINE,2022.2.4,59.97592842
,,,,,,,,,,,,,,,,,,,,,,,,,,,,,,,,,,,,,,,,,,,,,,,,,,,,,,,25,0,25,0,,,,,,,,,,,,139,D,hexagon,0.001472667,,,,,1,0,,,,,530.2015719,,,,,,,,,,,,,,,,,526.0071754,526.0071754,526.0071754,526.0071754,527.5155664,527.5155664,527.5155664,527.5155664,527.5155664,527.5155664,527.5155664,527.5155664,repeat,letter,lettRpt,j,1.156698846,noRew,0,792,,0,528.7002261,,,,,,,,,,,,,,,,,,,,,39022,2022-10-25_10h28.10.269,vts_reward_expectancy_bt_OFFLINE,2022.2.4,59.97592842
,,,,,,,,,,,,,,,,,,,,,,,,,,,,,,,,,,,,,,,,,,,,,,,,,,,,,,,26,0,26,0,,,,,,,,,,,,167,B,hexagon,0.001512656,,,,,1,0,,,,,534.856809,,,,,,,,,,,,,,,,,531.1788723,531.1788723,531.1788723,531.1788723,532.6877948,532.6877948,532.6877948,532.6877948,532.6877948,532.6877948,532.6877948,532.6877948,repeat,letter,lettRpt,j,0.648085194,noRew,0,792,,0,533.3551774,,,,,,,,,,,,,,,,,,,,,39022,2022-10-25_10h28.10.269,vts_reward_expectancy_bt_OFFLINE,2022.2.4,59.97592842
,,,,,,,,,,,,,,,,,,,,,,,,,,,,,,,,,,,,,,,,,,,,,,,,,,,,,,,27,0,27,0,,,,,,,,,,,,174,U,circle,0.001248412,,,,,1,0,,,,,539.6620438,,,,,,,,,,,,,,,,,535.8345883,535.8345883,535.8345883,535.8345883,537.3429703,537.3429703,537.3429703,537.3429703,537.3429703,537.3429703,537.3429703,537.3429703,repeat,letter,lettRpt,k,0.793122962,noRew,0,792,,0,538.1591568,,,,,,,,,,,,,,,,,,,,,39022,2022-10-25_10h28.10.269,vts_reward_expectancy_bt_OFFLINE,2022.2.4,59.97592842
,,,,,,,,,,,,,,,,,,,,,,,,,,,,,,,,,,,,,,,,,,,,,,,,,,,,,,,28,0,28,0,,,,,,,,,,,,160,D,circle,0.003416087,,,,,1,0,,,,,544.7179676,,,,,,,,,,,,,,,,,540.6406011,540.6406011,540.6406011,540.6406011,542.1481181,542.1481181,542.1481181,542.1481181,542.1481181,542.1481181,542.1481181,542.1481181,repeat,letter,lettRpt,j,1.043977273,noRew,0,792,,0,543.2159328,,,,,,,,,,,,,,,,,,,,,39022,2022-10-25_10h28.10.269,vts_reward_expectancy_bt_OFFLINE,2022.2.4,59.97592842
,,,,,,,,,,,,,,,,,,,,,,,,,,,,,,,,,,,,,,,,,,,,,,,,,,,,,,,29,0,29,0,,,,,,,,,,,,146,H,hexagon,0.001399006,,,,,1,0,,,,,549.5062064,,,,,,,,,,,,,,,,,545.6970555,545.6970555,545.6970555,545.6970555,547.2036998,547.2036998,547.2036998,547.2036998,547.2036998,547.2036998,547.2036998,547.2036998,repeat,letter,lettRpt,j,0.780008167,noRew,0,792,,0,548.0046497,,,,,,,,,,,,,,,,,,,,,39022,2022-10-25_10h28.10.269,vts_reward_expectancy_bt_OFFLINE,2022.2.4,59.97592842
,,,,,,,,,,,,,,,,,,,,,,,,,,,,,,,,,,,,,,,,,,,,,,,,,,,,,,,30,0,30,0,,,,,,,,,,,,125,U,triangle,0.001446692,,,,,1,0,,,,,554.4783936,,,,,,,,,,,,,,,,,550.4844256,550.4844256,550.4844256,550.4844256,551.9923352,551.9923352,551.9923352,551.9923352,551.9923352,551.9923352,551.9923352,551.9923352,switch,number,numSwt,d,0.959293893,noRew,0,792,,0,552.9766737,,,,,,,,,,,,,,,,,,,,,39022,2022-10-25_10h28.10.269,vts_reward_expectancy_bt_OFFLINE,2022.2.4,59.97592842
,,,,,,,,,,,,,,,,,,,,,,,,,,,,,,,,,,,,,,,,,,,,,,,,,,,,,,,31,0,31,0,,,,,,,,,,,,174,S,hexagon,0.001680117,,,,,1,0,,,,,559.8676627,,,,,,,,,,,,,,,,,555.4549858,555.4549858,555.4549858,555.4549858,556.9644858,556.9644858,556.9644858,556.9644858,556.9644858,556.9644858,556.9644858,556.9644858,repeat,number,numRpt,f,1.370856911,noRew,0,792,,0,558.3659913,,,,,,,,,,,,,,,,,,,,,39022,2022-10-25_10h28.10.269,vts_reward_expectancy_bt_OFFLINE,2022.2.4,59.97592842
,,,,,,,,,,,,,,,,,,,,,,,,,,,,,,,,,,,,,,,,,,,,,,,,,,,,,,,32,0,32,0,,,,,,,,,,,,146,F,star,0.001499659,,,,,1,0,,,,,564.6062732,,,,,,,,,,,,,,,,,560.8447627,560.8447627,560.8447627,560.8447627,562.3537565,562.3537565,562.3537565,562.3537565,562.3537565,562.3537565,562.3537565,562.3537565,switch,letter,lettSwt,j,0.734641064,noRew,0,792,,0,563.1046643,564.6062732,,,,,,,,,,,,,,,,,,,,39022,2022-10-25_10h28.10.269,vts_reward_expectancy_bt_OFFLINE,2022.2.4,59.97592842
,,,,,,,,,,,,,,,,,,,,,,,,,,,,,,,,,,,,,,,,,,,,,,,,,,,,,,,33,0,33,0,,,,,,,,,,,,125,U,triangle,0.000811602,,,,,1,0,,,,,569.7784715,,,,,,,,,,,,,,,,,565.5903498,565.5903498,565.5903498,565.5903498,567.092491,567.092491,567.092491,567.092491,567.092491,567.092491,567.092491,567.092491,switch,number,numSwt,d,1.15574955,noRew,0,792,,0,568.2771424,,,,,,,,,,,,,,,,,,,,,39022,2022-10-25_10h28.10.269,vts_reward_expectancy_bt_OFFLINE,2022.2.4,59.97592842
,,,,,,,,,,,,,,,,,,,,,,,,,,,,,,,,,,,,,,,,,,,,,,,,,,,,,,,34,0,34,0,,,,,,,,,,,,139,D,circle,0.001682736,,,,,1,0,,,,,574.8006408,,,,,,,,,,,,,,,,,570.7559497,570.7559497,570.7559497,570.7559497,572.2647274,572.2647274,572.2647274,572.2647274,572.2647274,572.2647274,572.2647274,572.2647274,repeat,number,numRpt,d,1.006427174,noRew,0,792,,0,573.2991321,,,,,,,,,,,,,,,,,,,,,39022,2022-10-25_10h28.10.269,vts_reward_expectancy_bt_OFFLINE,2022.2.4,59.97592842
,,,,,,,,,,,,,,,,,,,,,,,,,,,,,,,,,,,,,,,,,,,,,,,,,,,,,,,35,0,35,0,,,,,,,,,,,,174,H,triangle,0.001596359,,,,,1,0,,,,,579.8397971,,,,,,,,,,,,,,,,,575.7786382,575.7786382,575.7786382,575.7786382,577.2866977,577.2866977,577.2866977,577.2866977,577.2866977,577.2866977,577.2866977,577.2866977,switch,letter,lettSwt,j,1.034687364,noRew,0,792,,0,578.3382269,,,,,,,,,,,,,,,,,,,,,39022,2022-10-25_10h28.10.269,vts_reward_expectancy_bt_OFFLINE,2022.2.4,59.97592842
,,,,,,,,,,,,,,,,,,,,,,,,,,,,,,,,,,,,,,,,,,,,,,,,,,,,,,,36,0,36,0,,,,,,,,,,,,146,D,triangle,0.001234766,,,,,1,0,,,,,584.6116665,,,,,,,,,,,,,,,,,580.8184703,580.8184703,580.8184703,580.8184703,582.3257964,582.3257964,582.3257964,582.3257964,582.3257964,582.3257964,582.3257964,582.3257964,repeat,letter,lettRpt,j,0.762167487,noRew,0,792,,0,583.1098368,,,,,,,,,,,,,,,,,,,,,39022,2022-10-25_10h28.10.269,vts_reward_expectancy_bt_OFFLINE,2022.2.4,59.97592842
,,,,,,,,,,,,,,,,,,,,,,,,,,,,,,,,,,,,,,,,,,,,,,,,,,,,,,,37,0,37,0,,,,,,,,,,,,139,U,star,0.001759427,,,,,1,0,,,,,590.2679812,,,,,,,,,,,,,,,,,585.5895646,585.5895646,585.5895646,585.5895646,587.0977106,587.0977106,587.0977106,587.0977106,587.0977106,587.0977106,587.0977106,587.0977106,repeat,letter,lettRpt,k,1.646301743,noRew,0,792,,0,588.7662247,,,,,,,,,,,,,,,,,,,,,39022,2022-10-25_10h28.10.269,vts_reward_expectancy_bt_OFFLINE,2022.2.4,59.97592842
,,,,,,,,,,,,,,,,,,,,,,,,,,,,,,,,,,,,,,,,,,,,,,,,,,,,,,,38,0,38,0,,,,,,,,,,,,181,F,circle,0.001591685,,,,,1,0,,,,,595.2234494,,,,,,,,,,,,,,,,,591.2455679,591.2455679,591.2455679,591.2455679,592.7543731,592.7543731,592.7543731,592.7543731,592.7543731,592.7543731,592.7543731,592.7543731,repeat,letter,lettRpt,j,0.94061893,noRew,0,792,,0,593.7216748,,,,,,,,,,,,,,,,,,,,,39022,2022-10-25_10h28.10.269,vts_reward_expectancy_bt_OFFLINE,2022.2.4,59.97592842
,,,,,,,,,,,,,,,,,,,,,,,,,,,,,,,,,,,,,,,,,,,,,,,,,,,,,,,39,0,39,0,,,,,,,,,,,,160,Y,star,0.001683829,,,,,1,0,,,,,600.128762,,,,,,,,,,,,,,,,,596.2011867,596.2011867,596.2011867,596.2011867,597.7095383,597.7095383,597.7095383,597.7095383,597.7095383,597.7095383,597.7095383,597.7095383,repeat,letter,lettRpt,k,0.88921251,noRew,0,792,,0,598.6273609,,,,,,,,,,,,,,,,,,,,,39022,2022-10-25_10h28.10.269,vts_reward_expectancy_bt_OFFLINE,2022.2.4,59.97592842
,,,,,,,,,,,,,,,,,,,,,,,,,,,,,,,,,,,,,,,,,,,,,,,,,,,,,,,40,0,40,0,,,,,,,,,,,,160,S,hexagon,0.001606926,,,,,1,0,,,,,605.4680042,,,,,,,,,,,,,,,,,601.1068982,601.1068982,601.1068982,601.1068982,602.6148485,602.6148485,602.6148485,602.6148485,602.6148485,602.6148485,602.6148485,602.6148485,switch,number,numSwt,f,1.320304454,noRew,0,792,,0,603.9663084,,,,,,,,,,,,,,,,,,,,,39022,2022-10-25_10h28.10.269,vts_reward_expectancy_bt_OFFLINE,2022.2.4,59.97592842
,,,,,,,,,,,,,,,,,,,,,,,,,,,,,,,,,,,,,,,,,,,,,,,,,,,,,,,41,0,41,0,,,,,,,,,,,,174,D,circle,0.001560268,,,,,1,0,,,,,610.6068518,,,,,,,,,,,,,,,,,606.4458854,606.4458854,606.4458854,606.4458854,607.9541189,607.9541189,607.9541189,607.9541189,607.9541189,607.9541189,607.9541189,607.9541189,repeat,number,numRpt,f,1.126048884,noRew,0,792,,0,609.1054462,,,,,,,,,,,,,,,,,,,,,39022,2022-10-25_10h28.10.269,vts_reward_expectancy_bt_OFFLINE,2022.2.4,59.97592842
,,,,,,,,,,,,,,,,,,,,,,,,,,,,,,,,,,,,,,,,,,,,,,,,,,,,,,,42,0,42,0,,,,,,,,,,,,146,U,hexagon,0.001688824,,,,,1,0,,,,,615.8294984,,,,,,,,,,,,,,,,,611.5838172,611.5838172,611.5838172,611.5838172,613.0932149,613.0932149,613.0932149,613.0932149,613.0932149,613.0932149,613.0932149,613.0932149,repeat,number,numRpt,d,1.210799868,noRew,0,792,,0,614.3277446,,,,,,,,,,,,,,,,,,,,,39022,2022-10-25_10h28.10.269,vts_reward_expectancy_bt_OFFLINE,2022.2.4,59.97592842
,,,,,,,,,,,,,,,,,,,,,,,,,,,,,,,,,,,,,,,,,,,,,,,,,,,,,,,43,0,43,0,,,,,,,,,,,,132,Y,triangle,0.001539194,,,,,1,0,,,,,620.7014467,,,,,,,,,,,,,,,,,616.8069677,616.8069677,616.8069677,616.8069677,618.3157887,618.3157887,618.3157887,618.3157887,618.3157887,618.3157887,618.3157887,618.3157887,switch,letter,lettSwt,k,0.851516343,noRew,0,792,,0,619.1998413,,,,,,,,,,,,,,,,,,,,,39022,2022-10-25_10h28.10.269,vts_reward_expectancy_bt_OFFLINE,2022.2.4,59.97592842
