LTriangleOpac,LCircleOpac,LHexagonOpac,LStarOpac,RTriangleOpac,RCircleOpac,RHexagonOpac,RStarOpac,LShape_ID,RShape_ID,training_blocks.thisRepN,training_blocks.thisTrialN,training_blocks.thisN,training_blocks.thisIndex,training.thisRepN,training.thisTrialN,training.thisN,training.thisIndex,task1_prac_redo.thisRepN,task1_prac_redo.thisTrialN,task1_prac_redo.thisN,task1_prac_redo.thisIndex,task1_prac_trials.thisRepN,task1_prac_trials.thisTrialN,task1_prac_trials.thisN,task1_prac_trials.thisIndex,task2_prac_redo.thisRepN,task2_prac_redo.thisTrialN,task2_prac_redo.thisN,task2_prac_redo.thisIndex,task2_praac_trials.thisRepN,task2_praac_trials.thisTrialN,task2_praac_trials.thisN,task2_praac_trials.thisIndex,vts_prac_redo.thisRepN,vts_prac_redo.thisTrialN,vts_prac_redo.thisN,vts_prac_redo.thisIndex,vts_practice_trials.thisRepN,vts_practice_trials.thisTrialN,vts_practice_trials.thisN,vts_practice_trials.thisIndex,trials_norew.thisRepN,trials_norew.thisTrialN,trials_norew.thisN,trials_norew.thisIndex,block.thisRepN,block.thisTrialN,block.thisN,block.thisIndex,trials_rew.thisRepN,trials_rew.thisTrialN,trials_rew.thisN,trials_rew.thisIndex,key_resp.started,key_resp.keys,key_resp.rt,left_circle.started,right_circle.started,left_triangle.started,right_triangle.started,left_star.started,right_star.started,left_hexagon.started,right_hexagon.started,training_fix.started,training_resp.started,training_resp.keys,training_resp.rt,points_trial,points_cumul,trainBlock,training_feedback_txt.started,fix.started,training_feedback_txt.stopped,fix.stopped,curr_topStim,curr_bottStim,curr_shape,ISI.started,tgt_fix_prac1.started,top_target_prac1.started,bott_target_prac1.started,target_resp_prac1.started,acc,E1,target_resp_prac1.keys,target_resp_prac1.rt,pracBlock,prac_fback_text.started,top_target_prac1.stopped,bott_target_prac1.stopped,target_resp_prac1.stopped,prac_fback_text.stopped,tgt_fix_prac2.started,top_target_prac2.started,bott_target_prac2.started,target_resp_prac2.started,target_resp_prac2.keys,target_resp_prac2.rt,star.started,hegagon.started,triangle.started,circle.started,top_target.started,tgt_fix.started,bot_target.started,target_resp.started,star.stopped,hegagon.stopped,triangle.stopped,circle.stopped,alt,task,condition,target_resp.keys,target_resp.rt,rewCond,vts_fback.started,vts_fback.stopped,blockNum,norew_fback.started,norew_fback.stopped,key_resp_2.keys,key_resp_2.rt,rewExpectancy,feedbk_text.started,feedbk_text.stopped,text_3.started,text_3.stopped,button.started,debrief.index,debrief.itemText,debrief.type,debrief.granularity,debrief.font,debrief.markerColor,debrief.response,debrief.rt,button.numClicks,button.timesOn,button.timesOff,participant,date,expName,psychopyVersion,frameRate,
,,,,,,,,,,,,,,,,,,,,,,,,,,,,,,,,,,,,,,,,,,,,,,,,,,,,,,13.801891966999392,space,23.093492885003798,,,,,,,,,,,,,,,,,,,,,,,,,,,,,,,,,,,,,,,,,,,,,,,,,,,,,,,,,,,,,,,,,,,,,,,,,,,,,,,,,,,,,,40134,2022-10-26_10h17.28.658,vts_reward_expectancy_bt_OFFLINE,2022.2.4,59.941981557265514,
0,1,0,0,0,0,0,1,circle,star,0,0,0,0,0,0,0,5,,,,,,,,,,,,,,,,,,,,,,,,,,,,,,,,,,,,,,,,72.25535791799484,72.25535791799484,72.25535791799484,72.25535791799484,72.25535791799484,72.25535791799484,72.25535791799484,72.25535791799484,72.25535791799484,72.25535791799484,a,1.2879770890140207,10,10,0,73.56423633800296,75.07084424899949,,,,,,,,,,,,,,,,,,,,,,,,,,,,,,,,,,,,,,,,,,,,,,,,,,,,,,,,,,,,,,,,,,,,,40134,2022-10-26_10h17.28.658,vts_reward_expectancy_bt_OFFLINE,2022.2.4,59.941981557265514,
0,0,1,0,0,0,0,1,hexagon,star,0,0,0,0,0,1,1,8,,,,,,,,,,,,,,,,,,,,,,,,,,,,,,,,,,,,,,,,75.56330437299039,75.56330437299039,75.56330437299039,75.56330437299039,75.56330437299039,75.56330437299039,75.56330437299039,75.56330437299039,75.56330437299039,75.56330437299039,a,1.4353957900166279,10,20,0,77.03082283199183,78.53113562299404,78.53113562299404,79.03115860099206,,,,,,,,,,,,,,,,,,,,,,,,,,,,,,,,,,,,,,,,,,,,,,,,,,,,,,,,,,,,,,,,,,,40134,2022-10-26_10h17.28.658,vts_reward_expectancy_bt_OFFLINE,2022.2.4,59.941981557265514,
1,0,0,0,0,0,0,1,triangle,star,0,0,0,0,0,2,2,2,,,,,,,,,,,,,,,,,,,,,,,,,,,,,,,,,,,,,,,,79.03115860099206,79.03115860099206,79.03115860099206,79.03115860099206,79.03115860099206,79.03115860099206,79.03115860099206,79.03115860099206,79.03115860099206,79.03115860099206,a,0.8796183180238586,10,30,0,79.93191853100143,81.43432790099178,,,,,,,,,,,,,,,,,,,,,,,,,,,,,,,,,,,,,,,,,,,,,,,,,,,,,,,,,,,,,,,,,,,,,40134,2022-10-26_10h17.28.658,vts_reward_expectancy_bt_OFFLINE,2022.2.4,59.941981557265514,
0,1,0,0,0,0,1,0,circle,hexagon,0,0,0,0,0,3,3,4,,,,,,,,,,,,,,,,,,,,,,,,,,,,,,,,,,,,,,,,81.93420921899087,81.93420921899087,81.93420921899087,81.93420921899087,81.93420921899087,81.93420921899087,81.93420921899087,81.93420921899087,81.93420921899087,81.93420921899087,a,0.8005312810128089,1,31,0,82.75353603500116,84.26850795499922,,,,,,,,,,,,,,,,,,,,,,,,,,,,,,,,,,,,,,,,,,,,,,,,,,,,,,,,,,,,,,,,,,,,,40134,2022-10-26_10h17.28.658,vts_reward_expectancy_bt_OFFLINE,2022.2.4,59.941981557265514,
0,0,0,1,0,0,1,0,star,hexagon,0,0,0,0,0,4,4,11,,,,,,,,,,,,,,,,,,,,,,,,,,,,,,,,,,,,,,,,84.7684487009974,84.7684487009974,84.7684487009974,84.7684487009974,84.7684487009974,84.7684487009974,84.7684487009974,84.7684487009974,84.7684487009974,84.7684487009974,l,0.7820055379997939,1,32,0,85.57082410799921,87.0712784639909,87.0712784639909,87.57145227899309,,,,,,,,,,,,,,,,,,,,,,,,,,,,,,,,,,,,,,,,,,,,,,,,,,,,,,,,,,,,,,,,,,,40134,2022-10-26_10h17.28.658,vts_reward_expectancy_bt_OFFLINE,2022.2.4,59.941981557265514,
0,0,1,0,1,0,0,0,hexagon,triangle,0,0,0,0,0,5,5,6,,,,,,,,,,,,,,,,,,,,,,,,,,,,,,,,,,,,,,,,87.57145227899309,87.57145227899309,87.57145227899309,87.57145227899309,87.57145227899309,87.57145227899309,87.57145227899309,87.57145227899309,87.57145227899309,87.57145227899309,a,2.067486459010979,10,42,0,89.65774283699284,91.15820756099129,,,,,,,,,,,,,,,,,,,,,,,,,,,,,,,,,,,,,,,,,,,,,,,,,,,,,,,,,,,,,,,,,,,,,40134,2022-10-26_10h17.28.658,vts_reward_expectancy_bt_OFFLINE,2022.2.4,59.941981557265514,
1,0,0,0,0,0,1,0,triangle,hexagon,0,0,0,0,0,6,6,1,,,,,,,,,,,,,,,,,,,,,,,,,,,,,,,,,,,,,,,,91.65803081799822,91.65803081799822,91.65803081799822,91.65803081799822,91.65803081799822,91.65803081799822,91.65803081799822,91.65803081799822,91.65803081799822,91.65803081799822,l,1.1892141470016213,1,43,0,92.87651500699576,94.37578958399536,,,,,,,,,,,,,,,,,,,,,,,,,,,,,,,,,,,,,,,,,,,,,,,,,,,,,,,,,,,,,,,,,,,,,40134,2022-10-26_10h17.28.658,vts_reward_expectancy_bt_OFFLINE,2022.2.4,59.941981557265514,
0,1,0,0,1,0,0,0,circle,triangle,0,0,0,0,0,7,7,3,,,,,,,,,,,,,,,,,,,,,,,,,,,,,,,,,,,,,,,,94.87569223999162,94.87569223999162,94.87569223999162,94.87569223999162,94.87569223999162,94.87569223999162,94.87569223999162,94.87569223999162,94.87569223999162,94.87569223999162,a,0.8907065610110294,10,53,0,95.79691104899393,97.31211105998955,,,,,,,,,,,,,,,,,,,,,,,,,,,,,,,,,,,,,,,,,,,,,,,,,,,,,,,,,,,,,,,,,,,,,40134,2022-10-26_10h17.28.658,vts_reward_expectancy_bt_OFFLINE,2022.2.4,59.941981557265514,
1,0,0,0,0,1,0,0,triangle,circle,0,0,0,0,0,8,8,0,,,,,,,,,,,,,,,,,,,,,,,,,,,,,,,,,,,,,,,,97.81230422199587,97.81230422199587,97.81230422199587,97.81230422199587,97.81230422199587,97.81230422199587,97.81230422199587,97.81230422199587,97.81230422199587,97.81230422199587,a,1.674569753013202,10,63,0,99.51266474599834,101.01501577899035,,,,,,,,,,,,,,,,,,,,,,,,,,,,,,,,,,,,,,,,,,,,,,,,,,,,,,,,,,,,,,,,,,,,,40134,2022-10-26_10h17.28.658,vts_reward_expectancy_bt_OFFLINE,2022.2.4,59.941981557265514,
0,0,0,1,1,0,0,0,star,triangle,0,0,0,0,0,9,9,9,,,,,,,,,,,,,,,,,,,,,,,,,,,,,,,,,,,,,,,,101.5158902760013,101.5158902760013,101.5158902760013,101.5158902760013,101.5158902760013,101.5158902760013,101.5158902760013,101.5158902760013,101.5158902760013,101.5158902760013,a,1.3148602800065419,10,73,0,102.84919948899187,104.34974938299274,104.34974938299274,,,,,,,,,,,,,,,,,,,,,,,,,,,,,,,,,,,,,,,,,,,,,,,,,,,,,,,,,,,,,,,,,,,,40134,2022-10-26_10h17.28.658,vts_reward_expectancy_bt_OFFLINE,2022.2.4,59.941981557265514,
0,0,0,1,0,1,0,0,star ,circle,0,0,0,0,0,10,10,10,,,,,,,,,,,,,,,,,,,,,,,,,,,,,,,,,,,,,,,,104.84994764000294,104.84994764000294,104.84994764000294,104.84994764000294,104.84994764000294,104.84994764000294,104.84994764000294,104.84994764000294,104.84994764000294,104.84994764000294,a,0.9489458520110929,10,83,0,105.81877422399702,107.31934362200263,107.31934362200263,107.81956945999991,,,,,,,,,,,,,,,,,,,,,,,,,,,,,,,,,,,,,,,,,,,,,,,,,,,,,,,,,,,,,,,,,,,40134,2022-10-26_10h17.28.658,vts_reward_expectancy_bt_OFFLINE,2022.2.4,59.941981557265514,
0,0,1,0,0,1,0,0,hexagon,circle,0,0,0,0,0,11,11,7,,,,,,,,,,,,,,,,,,,,,,,,,,,,,,,,,,,,,,,,107.81956945999991,107.81956945999991,107.81956945999991,107.81956945999991,107.81956945999991,107.81956945999991,107.81956945999991,107.81956945999991,107.81956945999991,107.81956945999991,a,1.2437088250153465,1,84,0,109.08802510499663,110.58893823799735,,,,,,,,,,,,,,,,,,,,,,,,,,,,,,,,,,,,,,,,,,,,,,,,,,,,,,,,,,,,,,,,,,,,,40134,2022-10-26_10h17.28.658,vts_reward_expectancy_bt_OFFLINE,2022.2.4,59.941981557265514,
0,1,0,0,0,0,1,0,circle,hexagon,0,0,0,0,1,0,12,4,,,,,,,,,,,,,,,,,,,,,,,,,,,,,,,,,,,,,,,,111.08928800399008,111.08928800399008,111.08928800399008,111.08928800399008,111.08928800399008,111.08928800399008,111.08928800399008,111.08928800399008,111.08928800399008,111.08928800399008,l,1.0620926940027857,1,85,0,112.17295911499241,113.67337087899796,113.67337087899796,,,,,,,,,,,,,,,,,,,,,,,,,,,,,,,,,,,,,,,,,,,,,,,,,,,,,,,,,,,,,,,,,,,,40134,2022-10-26_10h17.28.658,vts_reward_expectancy_bt_OFFLINE,2022.2.4,59.941981557265514,
1,0,0,0,0,0,0,1,triangle,star,0,0,0,0,1,1,13,2,,,,,,,,,,,,,,,,,,,,,,,,,,,,,,,,,,,,,,,,114.17345350199321,114.17345350199321,114.17345350199321,114.17345350199321,114.17345350199321,114.17345350199321,114.17345350199321,114.17345350199321,114.17345350199321,114.17345350199321,a,1.6973275820055278,1,86,0,115.89261912299844,117.39351038499444,117.39351038499444,117.89361164098955,,,,,,,,,,,,,,,,,,,,,,,,,,,,,,,,,,,,,,,,,,,,,,,,,,,,,,,,,,,,,,,,,,,40134,2022-10-26_10h17.28.658,vts_reward_expectancy_bt_OFFLINE,2022.2.4,59.941981557265514,
0,0,0,1,1,0,0,0,star,triangle,0,0,0,0,1,2,14,9,,,,,,,,,,,,,,,,,,,,,,,,,,,,,,,,,,,,,,,,117.89361164098955,117.89361164098955,117.89361164098955,117.89361164098955,117.89361164098955,117.89361164098955,117.89361164098955,117.89361164098955,117.89361164098955,117.89361164098955,a,1.0576557530002901,10,96,0,118.97904270500294,120.47933438500331,,,,,,,,,,,,,,,,,,,,,,,,,,,,,,,,,,,,,,,,,,,,,,,,,,,,,,,,,,,,,,,,,,,,,40134,2022-10-26_10h17.28.658,vts_reward_expectancy_bt_OFFLINE,2022.2.4,59.941981557265514,
0,1,0,0,1,0,0,0,circle,triangle,0,0,0,0,1,3,15,3,,,,,,,,,,,,,,,,,,,,,,,,,,,,,,,,,,,,,,,,120.9796785619983,120.9796785619983,120.9796785619983,120.9796785619983,120.9796785619983,120.9796785619983,120.9796785619983,120.9796785619983,120.9796785619983,120.9796785619983,a,1.747143901011441,1,97,0,122.749083126997,124.26446565300284,,,,,,,,,,,,,,,,,,,,,,,,,,,,,,,,,,,,,,,,,,,,,,,,,,,,,,,,,,,,,,,,,,,,,40134,2022-10-26_10h17.28.658,vts_reward_expectancy_bt_OFFLINE,2022.2.4,59.941981557265514,
0,1,0,0,0,0,0,1,circle,star,0,0,0,0,1,4,16,5,,,,,,,,,,,,,,,,,,,,,,,,,,,,,,,,,,,,,,,,124.76442104199668,124.76442104199668,124.76442104199668,124.76442104199668,124.76442104199668,124.76442104199668,124.76442104199668,124.76442104199668,124.76442104199668,124.76442104199668,l,1.1699523870047415,10,107,0,125.9676525429968,127.46746344899293,127.46746344899293,127.96736511000199,,,,,,,,,,,,,,,,,,,,,,,,,,,,,,,,,,,,,,,,,,,,,,,,,,,,,,,,,,,,,,,,,,,40134,2022-10-26_10h17.28.658,vts_reward_expectancy_bt_OFFLINE,2022.2.4,59.941981557265514,
0,0,1,0,0,1,0,0,hexagon,circle,0,0,0,0,1,5,17,7,,,,,,,,,,,,,,,,,,,,,,,,,,,,,,,,,,,,,,,,127.96736511000199,127.96736511000199,127.96736511000199,127.96736511000199,127.96736511000199,127.96736511000199,127.96736511000199,127.96736511000199,127.96736511000199,127.96736511000199,a,1.1839929679990746,1,108,0,129.17030229099328,130.67019672499737,,,,,,,,,,,,,,,,,,,,,,,,,,,,,,,,,,,,,,,,,,,,,,,,,,,,,,,,,,,,,,,,,,,,,40134,2022-10-26_10h17.28.658,vts_reward_expectancy_bt_OFFLINE,2022.2.4,59.941981557265514,
0,0,0,1,0,0,1,0,star,hexagon,0,0,0,0,1,6,18,11,,,,,,,,,,,,,,,,,,,,,,,,,,,,,,,,,,,,,,,,131.17047632198955,131.17047632198955,131.17047632198955,131.17047632198955,131.17047632198955,131.17047632198955,131.17047632198955,131.17047632198955,131.17047632198955,131.17047632198955,a,0.932569267009967,1,109,0,132.1207069989905,133.62132410499908,133.62132410499908,134.12142625800334,,,,,,,,,,,,,,,,,,,,,,,,,,,,,,,,,,,,,,,,,,,,,,,,,,,,,,,,,,,,,,,,,,,40134,2022-10-26_10h17.28.658,vts_reward_expectancy_bt_OFFLINE,2022.2.4,59.941981557265514,
0,0,0,1,0,1,0,0,star ,circle,0,0,0,0,1,7,19,10,,,,,,,,,,,,,,,,,,,,,,,,,,,,,,,,,,,,,,,,134.12142625800334,134.12142625800334,134.12142625800334,134.12142625800334,134.12142625800334,134.12142625800334,134.12142625800334,134.12142625800334,134.12142625800334,134.12142625800334,a,1.261065127007896,1,110,0,135.4070242329908,136.9077546359913,136.9077546359913,,,,,,,,,,,,,,,,,,,,,,,,,,,,,,,,,,,,,,,,,,,,,,,,,,,,,,,,,,,,,,,,,,,,40134,2022-10-26_10h17.28.658,vts_reward_expectancy_bt_OFFLINE,2022.2.4,59.941981557265514,
0,0,1,0,1,0,0,0,hexagon,triangle,0,0,0,0,1,8,20,6,,,,,,,,,,,,,,,,,,,,,,,,,,,,,,,,,,,,,,,,137.4078477860021,137.4078477860021,137.4078477860021,137.4078477860021,137.4078477860021,137.4078477860021,137.4078477860021,137.4078477860021,137.4078477860021,137.4078477860021,l,1.2476838319998933,10,120,0,138.67684089500108,140.17740272099036,,,,,,,,,,,,,,,,,,,,,,,,,,,,,,,,,,,,,,,,,,,,,,,,,,,,,,,,,,,,,,,,,,,,,40134,2022-10-26_10h17.28.658,vts_reward_expectancy_bt_OFFLINE,2022.2.4,59.941981557265514,
1,0,0,0,0,0,1,0,triangle,hexagon,0,0,0,0,1,9,21,1,,,,,,,,,,,,,,,,,,,,,,,,,,,,,,,,,,,,,,,,140.6774435970001,140.6774435970001,140.6774435970001,140.6774435970001,140.6774435970001,140.6774435970001,140.6774435970001,140.6774435970001,140.6774435970001,140.6774435970001,l,1.713545011007227,10,130,0,142.4119789779943,143.91226744800224,143.91226744800224,144.41233213800297,,,,,,,,,,,,,,,,,,,,,,,,,,,,,,,,,,,,,,,,,,,,,,,,,,,,,,,,,,,,,,,,,,,40134,2022-10-26_10h17.28.658,vts_reward_expectancy_bt_OFFLINE,2022.2.4,59.941981557265514,
1,0,0,0,0,1,0,0,triangle,circle,0,0,0,0,1,10,22,0,,,,,,,,,,,,,,,,,,,,,,,,,,,,,,,,,,,,,,,,144.41233213800297,144.41233213800297,144.41233213800297,144.41233213800297,144.41233213800297,144.41233213800297,144.41233213800297,144.41233213800297,144.41233213800297,144.41233213800297,l,1.2740044080128428,10,140,0,145.71452406600292,147.21505028600222,147.21505028600222,147.7153875669901,,,,,,,,,,,,,,,,,,,,,,,,,,,,,,,,,,,,,,,,,,,,,,,,,,,,,,,,,,,,,,,,,,,40134,2022-10-26_10h17.28.658,vts_reward_expectancy_bt_OFFLINE,2022.2.4,59.941981557265514,
0,0,1,0,0,0,0,1,hexagon,star,0,0,0,0,1,11,23,8,,,,,,,,,,,,,,,,,,,,,,,,,,,,,,,,,,,,,,,,147.7153875669901,147.7153875669901,147.7153875669901,147.7153875669901,147.7153875669901,147.7153875669901,147.7153875669901,147.7153875669901,147.7153875669901,147.7153875669901,l,2.059821824004757,1,141,0,149.8014313110034,151.30198950899648,,,,,,,,,,,,,,,,,,,,,,,,,,,,,,,,,,,,,,,,,,,,,,,,,,,,,,,,,,,,,,,,,,,,,40134,2022-10-26_10h17.28.658,vts_reward_expectancy_bt_OFFLINE,2022.2.4,59.941981557265514,
0,0,1,0,1,0,0,0,hexagon,triangle,0,0,0,0,2,0,24,6,,,,,,,,,,,,,,,,,,,,,,,,,,,,,,,,,,,,,,,,151.80198380599904,151.80198380599904,151.80198380599904,151.80198380599904,151.80198380599904,151.80198380599904,151.80198380599904,151.80198380599904,151.80198380599904,151.80198380599904,a,1.6770510480127996,10,151,0,153.50451575699844,155.01994364499114,,,,,,,,,,,,,,,,,,,,,,,,,,,,,,,,,,,,,,,,,,,,,,,,,,,,,,,,,,,,,,,,,,,,,40134,2022-10-26_10h17.28.658,vts_reward_expectancy_bt_OFFLINE,2022.2.4,59.941981557265514,
0,0,1,0,0,1,0,0,hexagon,circle,0,0,0,0,2,1,25,7,,,,,,,,,,,,,,,,,,,,,,,,,,,,,,,,,,,,,,,,155.50528338899312,155.50528338899312,155.50528338899312,155.50528338899312,155.50528338899312,155.50528338899312,155.50528338899312,155.50528338899312,155.50528338899312,155.50528338899312,a,2.1735688900080277,1,152,0,157.70822160599346,159.22305428500113,,,,,,,,,,,,,,,,,,,,,,,,,,,,,,,,,,,,,,,,,,,,,,,,,,,,,,,,,,,,,,,,,,,,,40134,2022-10-26_10h17.28.658,vts_reward_expectancy_bt_OFFLINE,2022.2.4,59.941981557265514,
0,0,0,1,0,0,1,0,star,hexagon,0,0,0,0,2,2,26,11,,,,,,,,,,,,,,,,,,,,,,,,,,,,,,,,,,,,,,,,159.72297185499338,159.72297185499338,159.72297185499338,159.72297185499338,159.72297185499338,159.72297185499338,159.72297185499338,159.72297185499338,159.72297185499338,159.72297185499338,a,1.2436423920007655,10,162,0,160.99444246799976,162.50947025099595,,,,,,,,,,,,,,,,,,,,,,,,,,,,,,,,,,,,,,,,,,,,,,,,,,,,,,,,,,,,,,,,,,,,,40134,2022-10-26_10h17.28.658,vts_reward_expectancy_bt_OFFLINE,2022.2.4,59.941981557265514,
1,0,0,0,0,1,0,0,triangle,circle,0,0,0,0,2,3,27,0,,,,,,,,,,,,,,,,,,,,,,,,,,,,,,,,,,,,,,,,163.00930894599878,163.00930894599878,163.00930894599878,163.00930894599878,163.00930894599878,163.00930894599878,163.00930894599878,163.00930894599878,163.00930894599878,163.00930894599878,l,0.7977825650159502,10,172,0,163.8265911799972,165.32900773799338,,,,,,,,,,,,,,,,,,,,,,,,,,,,,,,,,,,,,,,,,,,,,,,,,,,,,,,,,,,,,,,,,,,,,40134,2022-10-26_10h17.28.658,vts_reward_expectancy_bt_OFFLINE,2022.2.4,59.941981557265514,
0,1,0,0,1,0,0,0,circle,triangle,0,0,0,0,2,4,28,3,,,,,,,,,,,,,,,,,,,,,,,,,,,,,,,,,,,,,,,,165.82928866599104,165.82928866599104,165.82928866599104,165.82928866599104,165.82928866599104,165.82928866599104,165.82928866599104,165.82928866599104,165.82928866599104,165.82928866599104,l,1.6411762720090337,1,173,0,167.49803362900275,169.01366673900338,,,,,,,,,,,,,,,,,,,,,,,,,,,,,,,,,,,,,,,,,,,,,,,,,,,,,,,,,,,,,,,,,,,,,40134,2022-10-26_10h17.28.658,vts_reward_expectancy_bt_OFFLINE,2022.2.4,59.941981557265514,
0,1,0,0,0,0,1,0,circle,hexagon,0,0,0,0,2,5,29,4,,,,,,,,,,,,,,,,,,,,,,,,,,,,,,,,,,,,,,,,169.49720935799996,169.49720935799996,169.49720935799996,169.49720935799996,169.49720935799996,169.49720935799996,169.49720935799996,169.49720935799996,169.49720935799996,169.49720935799996,l,1.765214178012684,10,183,0,171.28516579399002,172.80016197600344,,,,,,,,,,,,,,,,,,,,,,,,,,,,,,,,,,,,,,,,,,,,,,,,,,,,,,,,,,,,,,,,,,,,,40134,2022-10-26_10h17.28.658,vts_reward_expectancy_bt_OFFLINE,2022.2.4,59.941981557265514,
1,0,0,0,0,0,1,0,triangle,hexagon,0,0,0,0,2,6,30,1,,,,,,,,,,,,,,,,,,,,,,,,,,,,,,,,,,,,,,,,173.3001900859963,173.3001900859963,173.3001900859963,173.3001900859963,173.3001900859963,173.3001900859963,173.3001900859963,173.3001900859963,173.3001900859963,173.3001900859963,l,3.2831571380083915,1,184,0,176.60553798200272,178.12038568299613,,,,,,,,,,,,,,,,,,,,,,,,,,,,,,,,,,,,,,,,,,,,,,,,,,,,,,,,,,,,,,,,,,,,,40134,2022-10-26_10h17.28.658,vts_reward_expectancy_bt_OFFLINE,2022.2.4,59.941981557265514,
0,0,0,1,0,1,0,0,star ,circle,0,0,0,0,2,7,31,10,,,,,,,,,,,,,,,,,,,,,,,,,,,,,,,,,,,,,,,,178.6208107929997,178.6208107929997,178.6208107929997,178.6208107929997,178.6208107929997,178.6208107929997,178.6208107929997,178.6208107929997,178.6208107929997,178.6208107929997,a,1.1534160160081228,1,185,0,179.8045409990009,181.30676764900272,,,,,,,,,,,,,,,,,,,,,,,,,,,,,,,,,,,,,,,,,,,,,,,,,,,,,,,,,,,,,,,,,,,,,40134,2022-10-26_10h17.28.658,vts_reward_expectancy_bt_OFFLINE,2022.2.4,59.941981557265514,
0,1,0,0,0,0,0,1,circle,star,0,0,0,0,2,8,32,5,,,,,,,,,,,,,,,,,,,,,,,,,,,,,,,,,,,,,,,,181.80691304100037,181.80691304100037,181.80691304100037,181.80691304100037,181.80691304100037,181.80691304100037,181.80691304100037,181.80691304100037,181.80691304100037,181.80691304100037,l,2.2236995820130687,1,186,0,184.0585849630006,185.559828767,,,,,,,,,,,,,,,,,,,,,,,,,,,,,,,,,,,,,,,,,,,,,,,,,,,,,,,,,,,,,,,,,,,,,40134,2022-10-26_10h17.28.658,vts_reward_expectancy_bt_OFFLINE,2022.2.4,59.941981557265514,
0,0,0,1,1,0,0,0,star,triangle,0,0,0,0,2,9,33,9,,,,,,,,,,,,,,,,,,,,,,,,,,,,,,,,,,,,,,,,186.0604696419905,186.0604696419905,186.0604696419905,186.0604696419905,186.0604696419905,186.0604696419905,186.0604696419905,186.0604696419905,186.0604696419905,186.0604696419905,a,1.2986975330131827,10,196,0,187.37973424399388,188.8947856290033,,,,,,,,,,,,,,,,,,,,,,,,,,,,,,,,,,,,,,,,,,,,,,,,,,,,,,,,,,,,,,,,,,,,,40134,2022-10-26_10h17.28.658,vts_reward_expectancy_bt_OFFLINE,2022.2.4,59.941981557265514,
1,0,0,0,0,0,0,1,triangle,star,0,0,0,0,2,10,34,2,,,,,,,,,,,,,,,,,,,,,,,,,,,,,,,,,,,,,,,,189.39470095299475,189.39470095299475,189.39470095299475,189.39470095299475,189.39470095299475,189.39470095299475,189.39470095299475,189.39470095299475,189.39470095299475,189.39470095299475,a,1.5807943780091591,10,206,0,190.99782872499782,192.49789538299956,192.49789538299956,192.99802739699953,,,,,,,,,,,,,,,,,,,,,,,,,,,,,,,,,,,,,,,,,,,,,,,,,,,,,,,,,,,,,,,,,,,40134,2022-10-26_10h17.28.658,vts_reward_expectancy_bt_OFFLINE,2022.2.4,59.941981557265514,
0,0,1,0,0,0,0,1,hexagon,star,0,0,0,0,2,11,35,8,,,,,,,,,,,,,,,,,,,,,,,,,,,,,,,,,,,,,,,,192.99802739699953,192.99802739699953,192.99802739699953,192.99802739699953,192.99802739699953,192.99802739699953,192.99802739699953,192.99802739699953,192.99802739699953,192.99802739699953,a,1.7686644510104088,10,216,0,194.79873558800318,196.30092189399875,,,,,,,,,,,,,,,,,,,,,,,,,,,,,,,,,,,,,,,,,,,,,,,,,,,,,,,,,,,,,,,,,,,,,40134,2022-10-26_10h17.28.658,vts_reward_expectancy_bt_OFFLINE,2022.2.4,59.941981557265514,
1,0,0,0,0,0,1,0,triangle,hexagon,0,0,0,0,3,0,36,1,,,,,,,,,,,,,,,,,,,,,,,,,,,,,,,,,,,,,,,,196.80133113398915,196.80133113398915,196.80133113398915,196.80133113398915,196.80133113398915,196.80133113398915,196.80133113398915,196.80133113398915,196.80133113398915,196.80133113398915,l,2.3018437790160533,10,226,0,199.13560899399454,200.63760025899683,,,,,,,,,,,,,,,,,,,,,,,,,,,,,,,,,,,,,,,,,,,,,,,,,,,,,,,,,,,,,,,,,,,,,40134,2022-10-26_10h17.28.658,vts_reward_expectancy_bt_OFFLINE,2022.2.4,59.941981557265514,
0,0,0,1,0,1,0,0,star ,circle,0,0,0,0,3,1,37,10,,,,,,,,,,,,,,,,,,,,,,,,,,,,,,,,,,,,,,,,201.13805367799068,201.13805367799068,201.13805367799068,201.13805367799068,201.13805367799068,201.13805367799068,201.13805367799068,201.13805367799068,201.13805367799068,201.13805367799068,a,1.1888406290090643,10,236,0,202.35537397999724,203.8556862580008,203.8556862580008,204.35571161498956,,,,,,,,,,,,,,,,,,,,,,,,,,,,,,,,,,,,,,,,,,,,,,,,,,,,,,,,,,,,,,,,,,,40134,2022-10-26_10h17.28.658,vts_reward_expectancy_bt_OFFLINE,2022.2.4,59.941981557265514,
0,1,0,0,1,0,0,0,circle,triangle,0,0,0,0,3,2,38,3,,,,,,,,,,,,,,,,,,,,,,,,,,,,,,,,,,,,,,,,204.35571161498956,204.35571161498956,204.35571161498956,204.35571161498956,204.35571161498956,204.35571161498956,204.35571161498956,204.35571161498956,204.35571161498956,204.35571161498956,a,1.0186033320205752,1,237,0,205.3934589799901,206.90873090398964,,,,,,,,,,,,,,,,,,,,,,,,,,,,,,,,,,,,,,,,,,,,,,,,,,,,,,,,,,,,,,,,,,,,,40134,2022-10-26_10h17.28.658,vts_reward_expectancy_bt_OFFLINE,2022.2.4,59.941981557265514,
0,0,1,0,1,0,0,0,hexagon,triangle,0,0,0,0,3,3,39,6,,,,,,,,,,,,,,,,,,,,,,,,,,,,,,,,,,,,,,,,207.40894103499886,207.40894103499886,207.40894103499886,207.40894103499886,207.40894103499886,207.40894103499886,207.40894103499886,207.40894103499886,207.40894103499886,207.40894103499886,l,1.1013450550090056,1,238,0,208.5423136140016,210.04337426098937,210.04337426098937,,,,,,,,,,,,,,,,,,,,,,,,,,,,,,,,,,,,,,,,,,,,,,,,,,,,,,,,,,,,,,,,,,,,40134,2022-10-26_10h17.28.658,vts_reward_expectancy_bt_OFFLINE,2022.2.4,59.941981557265514,
1,0,0,0,0,1,0,0,triangle,circle,0,0,0,0,3,4,40,0,,,,,,,,,,,,,,,,,,,,,,,,,,,,,,,,,,,,,,,,210.54477850199328,210.54477850199328,210.54477850199328,210.54477850199328,210.54477850199328,210.54477850199328,210.54477850199328,210.54477850199328,210.54477850199328,210.54477850199328,a,1.5582152520219097,1,239,0,212.1291856099997,213.62928850798926,213.62928850798926,214.12967037199996,,,,,,,,,,,,,,,,,,,,,,,,,,,,,,,,,,,,,,,,,,,,,,,,,,,,,,,,,,,,,,,,,,,40134,2022-10-26_10h17.28.658,vts_reward_expectancy_bt_OFFLINE,2022.2.4,59.941981557265514,
0,1,0,0,0,0,1,0,circle,hexagon,0,0,0,0,3,5,41,4,,,,,,,,,,,,,,,,,,,,,,,,,,,,,,,,,,,,,,,,214.12967037199996,214.12967037199996,214.12967037199996,214.12967037199996,214.12967037199996,214.12967037199996,214.12967037199996,214.12967037199996,214.12967037199996,214.12967037199996,a,1.3251165200053947,1,240,0,215.48215184100263,216.98280376699404,,,,,,,,,,,,,,,,,,,,,,,,,,,,,,,,,,,,,,,,,,,,,,,,,,,,,,,,,,,,,,,,,,,,,40134,2022-10-26_10h17.28.658,vts_reward_expectancy_bt_OFFLINE,2022.2.4,59.941981557265514,
0,0,1,0,0,1,0,0,hexagon,circle,0,0,0,0,3,6,42,7,,,,,,,,,,,,,,,,,,,,,,,,,,,,,,,,,,,,,,,,217.4829277099925,217.4829277099925,217.4829277099925,217.4829277099925,217.4829277099925,217.4829277099925,217.4829277099925,217.4829277099925,217.4829277099925,217.4829277099925,l,1.6042242749972502,1,241,0,219.11659831600264,220.61881228900165,,,,,,,,,,,,,,,,,,,,,,,,,,,,,,,,,,,,,,,,,,,,,,,,,,,,,,,,,,,,,,,,,,,,,40134,2022-10-26_10h17.28.658,vts_reward_expectancy_bt_OFFLINE,2022.2.4,59.941981557265514,
0,0,0,1,1,0,0,0,star,triangle,0,0,0,0,3,7,43,9,,,,,,,,,,,,,,,,,,,,,,,,,,,,,,,,,,,,,,,,221.11926268300158,221.11926268300158,221.11926268300158,221.11926268300158,221.11926268300158,221.11926268300158,221.11926268300158,221.11926268300158,221.11926268300158,221.11926268300158,a,1.3191645910119405,1,242,0,222.4700001399906,223.97029824399215,223.97029824399215,224.47050547899562,,,,,,,,,,,,,,,,,,,,,,,,,,,,,,,,,,,,,,,,,,,,,,,,,,,,,,,,,,,,,,,,,,,40134,2022-10-26_10h17.28.658,vts_reward_expectancy_bt_OFFLINE,2022.2.4,59.941981557265514,
1,0,0,0,0,0,0,1,triangle,star,0,0,0,0,3,8,44,2,,,,,,,,,,,,,,,,,,,,,,,,,,,,,,,,,,,,,,,,224.47050547899562,224.47050547899562,224.47050547899562,224.47050547899562,224.47050547899562,224.47050547899562,224.47050547899562,224.47050547899562,224.47050547899562,224.47050547899562,l,4.391994817007799,1,243,0,228.89065108299837,230.39301752399479,,,,,,,,,,,,,,,,,,,,,,,,,,,,,,,,,,,,,,,,,,,,,,,,,,,,,,,,,,,,,,,,,,,,,40134,2022-10-26_10h17.28.658,vts_reward_expectancy_bt_OFFLINE,2022.2.4,59.941981557265514,
0,0,0,1,0,0,1,0,star,hexagon,0,0,0,0,3,9,45,11,,,,,,,,,,,,,,,,,,,,,,,,,,,,,,,,,,,,,,,,230.89295077099814,230.89295077099814,230.89295077099814,230.89295077099814,230.89295077099814,230.89295077099814,230.89295077099814,230.89295077099814,230.89295077099814,230.89295077099814,a,1.7376277250150451,1,244,0,232.6607884989935,234.1608200280025,234.1608200280025,234.66091622499516,,,,,,,,,,,,,,,,,,,,,,,,,,,,,,,,,,,,,,,,,,,,,,,,,,,,,,,,,,,,,,,,,,,40134,2022-10-26_10h17.28.658,vts_reward_expectancy_bt_OFFLINE,2022.2.4,59.941981557265514,
0,0,1,0,0,0,0,1,hexagon,star,0,0,0,0,3,10,46,8,,,,,,,,,,,,,,,,,,,,,,,,,,,,,,,,,,,,,,,,234.66091622499516,234.66091622499516,234.66091622499516,234.66091622499516,234.66091622499516,234.66091622499516,234.66091622499516,234.66091622499516,234.66091622499516,234.66091622499516,a,1.2584775730065303,1,245,0,235.94743912799458,237.44745714199962,237.44745714199962,237.94738184499147,,,,,,,,,,,,,,,,,,,,,,,,,,,,,,,,,,,,,,,,,,,,,,,,,,,,,,,,,,,,,,,,,,,40134,2022-10-26_10h17.28.658,vts_reward_expectancy_bt_OFFLINE,2022.2.4,59.941981557265514,
0,1,0,0,0,0,0,1,circle,star,0,0,0,0,3,11,47,5,,,,,,,,,,,,,,,,,,,,,,,,,,,,,,,,,,,,,,,,237.94738184499147,237.94738184499147,237.94738184499147,237.94738184499147,237.94738184499147,237.94738184499147,237.94738184499147,237.94738184499147,237.94738184499147,237.94738184499147,a,1.283817108022049,1,246,0,239.24858663599298,240.75025409700174,,,,,,,,,,,,,,,,,,,,,,,,,,,,,,,,,,,,,,,,,,,,,,,,,,,,,,,,,,,,,,,,,,,,,40134,2022-10-26_10h17.28.658,vts_reward_expectancy_bt_OFFLINE,2022.2.4,59.941981557265514,
1,0,0,0,0,0,0,1,triangle,star,1,0,1,0,0,0,0,2,,,,,,,,,,,,,,,,,,,,,,,,,,,,,,,,,,,,,,,,250.2685394220025,250.2685394220025,250.2685394220025,250.2685394220025,250.2685394220025,250.2685394220025,250.2685394220025,250.2685394220025,250.2685394220025,250.2685394220025,l,1.6827033400186338,1,247,1,251.97503256399068,253.47515306399146,253.47515306399146,253.97533400000248,,,,,,,,,,,,,,,,,,,,,,,,,,,,,,,,,,,,,,,,,,,,,,,,,,,,,,,,,,,,,,,,,,,40134,2022-10-26_10h17.28.658,vts_reward_expectancy_bt_OFFLINE,2022.2.4,59.941981557265514,
0,0,1,0,1,0,0,0,hexagon,triangle,1,0,1,0,0,1,1,6,,,,,,,,,,,,,,,,,,,,,,,,,,,,,,,,,,,,,,,,253.97533400000248,253.97533400000248,253.97533400000248,253.97533400000248,253.97533400000248,253.97533400000248,253.97533400000248,253.97533400000248,253.97533400000248,253.97533400000248,a,2.3912416730017867,1,248,1,256.39512464198924,257.895466973001,257.895466973001,258.3956538689963,,,,,,,,,,,,,,,,,,,,,,,,,,,,,,,,,,,,,,,,,,,,,,,,,,,,,,,,,,,,,,,,,,,40134,2022-10-26_10h17.28.658,vts_reward_expectancy_bt_OFFLINE,2022.2.4,59.941981557265514,
0,1,0,0,1,0,0,0,circle,triangle,1,0,1,0,0,2,2,3,,,,,,,,,,,,,,,,,,,,,,,,,,,,,,,,,,,,,,,,258.3956538689963,258.3956538689963,258.3956538689963,258.3956538689963,258.3956538689963,258.3956538689963,258.3956538689963,258.3956538689963,258.3956538689963,258.3956538689963,a,0.8834702830063179,10,258,1,259.29860511199513,260.7978823960002,,,,,,,,,,,,,,,,,,,,,,,,,,,,,,,,,,,,,,,,,,,,,,,,,,,,,,,,,,,,,,,,,,,,,40134,2022-10-26_10h17.28.658,vts_reward_expectancy_bt_OFFLINE,2022.2.4,59.941981557265514,
0,0,0,1,0,1,0,0,star ,circle,1,0,1,0,0,3,3,10,,,,,,,,,,,,,,,,,,,,,,,,,,,,,,,,,,,,,,,,261.29842613000073,261.29842613000073,261.29842613000073,261.29842613000073,261.29842613000073,261.29842613000073,261.29842613000073,261.29842613000073,261.29842613000073,261.29842613000073,a,1.81979617702018,10,268,1,263.14916249900125,264.64969617300085,264.64969617300085,,,,,,,,,,,,,,,,,,,,,,,,,,,,,,,,,,,,,,,,,,,,,,,,,,,,,,,,,,,,,,,,,,,,40134,2022-10-26_10h17.28.658,vts_reward_expectancy_bt_OFFLINE,2022.2.4,59.941981557265514,
0,1,0,0,0,0,1,0,circle,hexagon,1,0,1,0,0,4,4,4,,,,,,,,,,,,,,,,,,,,,,,,,,,,,,,,,,,,,,,,265.14965257199947,265.14965257199947,265.14965257199947,265.14965257199947,265.14965257199947,265.14965257199947,265.14965257199947,265.14965257199947,265.14965257199947,265.14965257199947,l,1.3367552840063581,1,269,1,266.5199176820024,268.01928626598965,268.01928626598965,268.5197111919988,,,,,,,,,,,,,,,,,,,,,,,,,,,,,,,,,,,,,,,,,,,,,,,,,,,,,,,,,,,,,,,,,,,40134,2022-10-26_10h17.28.658,vts_reward_expectancy_bt_OFFLINE,2022.2.4,59.941981557265514,
1,0,0,0,0,0,1,0,triangle,hexagon,1,0,1,0,0,5,5,1,,,,,,,,,,,,,,,,,,,,,,,,,,,,,,,,,,,,,,,,268.5197111919988,268.5197111919988,268.5197111919988,268.5197111919988,268.5197111919988,268.5197111919988,268.5197111919988,268.5197111919988,268.5197111919988,268.5197111919988,a,1.7348199250118341,10,279,1,270.2752296010003,271.78912598900206,,,,,,,,,,,,,,,,,,,,,,,,,,,,,,,,,,,,,,,,,,,,,,,,,,,,,,,,,,,,,,,,,,,,,40134,2022-10-26_10h17.28.658,vts_reward_expectancy_bt_OFFLINE,2022.2.4,59.941981557265514,
0,0,1,0,0,0,0,1,hexagon,star,1,0,1,0,0,6,6,8,,,,,,,,,,,,,,,,,,,,,,,,,,,,,,,,,,,,,,,,272.289389380996,272.289389380996,272.289389380996,272.289389380996,272.289389380996,272.289389380996,272.289389380996,272.289389380996,272.289389380996,272.289389380996,a,1.9097213900095085,1,280,1,274.2257817899954,275.72577805999026,,,,,,,,,,,,,,,,,,,,,,,,,,,,,,,,,,,,,,,,,,,,,,,,,,,,,,,,,,,,,,,,,,,,,40134,2022-10-26_10h17.28.658,vts_reward_expectancy_bt_OFFLINE,2022.2.4,59.941981557265514,
0,0,1,0,0,1,0,0,hexagon,circle,1,0,1,0,0,7,7,7,,,,,,,,,,,,,,,,,,,,,,,,,,,,,,,,,,,,,,,,276.2260573340027,276.2260573340027,276.2260573340027,276.2260573340027,276.2260573340027,276.2260573340027,276.2260573340027,276.2260573340027,276.2260573340027,276.2260573340027,l,1.9164274720096728,1,281,1,278.1599845659948,279.6604417810013,279.6604417810013,,,,,,,,,,,,,,,,,,,,,,,,,,,,,,,,,,,,,,,,,,,,,,,,,,,,,,,,,,,,,,,,,,,,40134,2022-10-26_10h17.28.658,vts_reward_expectancy_bt_OFFLINE,2022.2.4,59.941981557265514,
0,0,0,1,1,0,0,0,star,triangle,1,0,1,0,0,8,8,9,,,,,,,,,,,,,,,,,,,,,,,,,,,,,,,,,,,,,,,,280.1607516859949,280.1607516859949,280.1607516859949,280.1607516859949,280.1607516859949,280.1607516859949,280.1607516859949,280.1607516859949,280.1607516859949,280.1607516859949,a,1.5106112270004814,1,282,1,281.6970734429924,283.1968952689931,283.1968952689931,283.6970830109931,,,,,,,,,,,,,,,,,,,,,,,,,,,,,,,,,,,,,,,,,,,,,,,,,,,,,,,,,,,,,,,,,,,40134,2022-10-26_10h17.28.658,vts_reward_expectancy_bt_OFFLINE,2022.2.4,59.941981557265514,
0,0,0,1,0,0,1,0,star,hexagon,1,0,1,0,0,9,9,11,,,,,,,,,,,,,,,,,,,,,,,,,,,,,,,,,,,,,,,,283.6970830109931,283.6970830109931,283.6970830109931,283.6970830109931,283.6970830109931,283.6970830109931,283.6970830109931,283.6970830109931,283.6970830109931,283.6970830109931,a,1.318104926016531,10,292,1,285.048889519996,286.5501697459986,,,,,,,,,,,,,,,,,,,,,,,,,,,,,,,,,,,,,,,,,,,,,,,,,,,,,,,,,,,,,,,,,,,,,40134,2022-10-26_10h17.28.658,vts_reward_expectancy_bt_OFFLINE,2022.2.4,59.941981557265514,
0,1,0,0,0,0,0,1,circle,star,1,0,1,0,0,10,10,5,,,,,,,,,,,,,,,,,,,,,,,,,,,,,,,,,,,,,,,,287.0501824949897,287.0501824949897,287.0501824949897,287.0501824949897,287.0501824949897,287.0501824949897,287.0501824949897,287.0501824949897,287.0501824949897,287.0501824949897,a,2.484251405010582,10,302,1,289.55168823199347,291.05363117999514,,,,,,,,,,,,,,,,,,,,,,,,,,,,,,,,,,,,,,,,,,,,,,,,,,,,,,,,,,,,,,,,,,,,,40134,2022-10-26_10h17.28.658,vts_reward_expectancy_bt_OFFLINE,2022.2.4,59.941981557265514,
1,0,0,0,0,1,0,0,triangle,circle,1,0,1,0,0,11,11,0,,,,,,,,,,,,,,,,,,,,,,,,,,,,,,,,,,,,,,,,291.55380589498964,291.55380589498964,291.55380589498964,291.55380589498964,291.55380589498964,291.55380589498964,291.55380589498964,291.55380589498964,291.55380589498964,291.55380589498964,l,1.3165544010116719,10,312,1,292.88784856299753,294.3880421149952,294.3880421149952,,,,,,,,,,,,,,,,,,,,,,,,,,,,,,,,,,,,,,,,,,,,,,,,,,,,,,,,,,,,,,,,,,,,40134,2022-10-26_10h17.28.658,vts_reward_expectancy_bt_OFFLINE,2022.2.4,59.941981557265514,
0,1,0,0,1,0,0,0,circle,triangle,1,0,1,0,1,0,12,3,,,,,,,,,,,,,,,,,,,,,,,,,,,,,,,,,,,,,,,,294.8880240669969,294.8880240669969,294.8880240669969,294.8880240669969,294.8880240669969,294.8880240669969,294.8880240669969,294.8880240669969,294.8880240669969,294.8880240669969,a,2.0791988970158854,1,313,1,296.9931749259995,298.5076042889996,,,,,,,,,,,,,,,,,,,,,,,,,,,,,,,,,,,,,,,,,,,,,,,,,,,,,,,,,,,,,,,,,,,,,40134,2022-10-26_10h17.28.658,vts_reward_expectancy_bt_OFFLINE,2022.2.4,59.941981557265514,
0,0,1,0,0,1,0,0,hexagon,circle,1,0,1,0,1,1,13,7,,,,,,,,,,,,,,,,,,,,,,,,,,,,,,,,,,,,,,,,298.99127770299674,298.99127770299674,298.99127770299674,298.99127770299674,298.99127770299674,298.99127770299674,298.99127770299674,298.99127770299674,298.99127770299674,298.99127770299674,l,2.7515835170197533,10,323,1,301.76376541999343,303.27811175100214,,,,,,,,,,,,,,,,,,,,,,,,,,,,,,,,,,,,,,,,,,,,,,,,,,,,,,,,,,,,,,,,,,,,,40134,2022-10-26_10h17.28.658,vts_reward_expectancy_bt_OFFLINE,2022.2.4,59.941981557265514,
0,0,1,0,0,0,0,1,hexagon,star,1,0,1,0,1,2,14,8,,,,,,,,,,,,,,,,,,,,,,,,,,,,,,,,,,,,,,,,303.77834134000295,303.77834134000295,303.77834134000295,303.77834134000295,303.77834134000295,303.77834134000295,303.77834134000295,303.77834134000295,303.77834134000295,303.77834134000295,a,2.1960829600138823,1,324,1,306.0000987289968,307.5151504779933,,,,,,,,,,,,,,,,,,,,,,,,,,,,,,,,,,,,,,,,,,,,,,,,,,,,,,,,,,,,,,,,,,,,,40134,2022-10-26_10h17.28.658,vts_reward_expectancy_bt_OFFLINE,2022.2.4,59.941981557265514,
0,0,1,0,1,0,0,0,hexagon,triangle,1,0,1,0,1,3,15,6,,,,,,,,,,,,,,,,,,,,,,,,,,,,,,,,,,,,,,,,308.0151385200006,308.0151385200006,308.0151385200006,308.0151385200006,308.0151385200006,308.0151385200006,308.0151385200006,308.0151385200006,308.0151385200006,308.0151385200006,l,1.9437110310100252,1,325,1,309.9827790619893,311.48474176799937,,,,,,,,,,,,,,,,,,,,,,,,,,,,,,,,,,,,,,,,,,,,,,,,,,,,,,,,,,,,,,,,,,,,,40134,2022-10-26_10h17.28.658,vts_reward_expectancy_bt_OFFLINE,2022.2.4,59.941981557265514,
1,0,0,0,0,0,0,1,triangle,star,1,0,1,0,1,4,16,2,,,,,,,,,,,,,,,,,,,,,,,,,,,,,,,,,,,,,,,,311.9850344669976,311.9850344669976,311.9850344669976,311.9850344669976,311.9850344669976,311.9850344669976,311.9850344669976,311.9850344669976,311.9850344669976,311.9850344669976,l,1.4220905370020773,10,335,1,313.43786762199306,314.95275724299427,,,,,,,,,,,,,,,,,,,,,,,,,,,,,,,,,,,,,,,,,,,,,,,,,,,,,,,,,,,,,,,,,,,,,40134,2022-10-26_10h17.28.658,vts_reward_expectancy_bt_OFFLINE,2022.2.4,59.941981557265514,
0,0,0,1,0,0,1,0,star,hexagon,1,0,1,0,1,5,17,11,,,,,,,,,,,,,,,,,,,,,,,,,,,,,,,,,,,,,,,,315.43833751000057,315.43833751000057,315.43833751000057,315.43833751000057,315.43833751000057,315.43833751000057,315.43833751000057,315.43833751000057,315.43833751000057,315.43833751000057,a,1.2000749850121792,10,345,1,316.65580180899997,318.1554426349903,318.1554426349903,318.6558061209944,,,,,,,,,,,,,,,,,,,,,,,,,,,,,,,,,,,,,,,,,,,,,,,,,,,,,,,,,,,,,,,,,,,40134,2022-10-26_10h17.28.658,vts_reward_expectancy_bt_OFFLINE,2022.2.4,59.941981557265514,
0,1,0,0,0,0,0,1,circle,star,1,0,1,0,1,6,18,5,,,,,,,,,,,,,,,,,,,,,,,,,,,,,,,,,,,,,,,,318.6558061209944,318.6558061209944,318.6558061209944,318.6558061209944,318.6558061209944,318.6558061209944,318.6558061209944,318.6558061209944,318.6558061209944,318.6558061209944,l,1.934585507013253,1,346,1,320.6109177659964,322.1254164229904,,,,,,,,,,,,,,,,,,,,,,,,,,,,,,,,,,,,,,,,,,,,,,,,,,,,,,,,,,,,,,,,,,,,,40134,2022-10-26_10h17.28.658,vts_reward_expectancy_bt_OFFLINE,2022.2.4,59.941981557265514,
1,0,0,0,0,0,1,0,triangle,hexagon,1,0,1,0,1,7,19,1,,,,,,,,,,,,,,,,,,,,,,,,,,,,,,,,,,,,,,,,322.62578425899846,322.62578425899846,322.62578425899846,322.62578425899846,322.62578425899846,322.62578425899846,322.62578425899846,322.62578425899846,322.62578425899846,322.62578425899846,l,1.8764959510008339,1,347,1,324.52693221998925,326.0286964620027,,,,,,,,,,,,,,,,,,,,,,,,,,,,,,,,,,,,,,,,,,,,,,,,,,,,,,,,,,,,,,,,,,,,,40134,2022-10-26_10h17.28.658,vts_reward_expectancy_bt_OFFLINE,2022.2.4,59.941981557265514,
0,0,0,1,0,1,0,0,star ,circle,1,0,1,0,1,8,20,10,,,,,,,,,,,,,,,,,,,,,,,,,,,,,,,,,,,,,,,,326.52927725898917,326.52927725898917,326.52927725898917,326.52927725898917,326.52927725898917,326.52927725898917,326.52927725898917,326.52927725898917,326.52927725898917,326.52927725898917,a,2.317220826007542,1,348,1,328.8639912200015,330.3654675500002,,,,,,,,,,,,,,,,,,,,,,,,,,,,,,,,,,,,,,,,,,,,,,,,,,,,,,,,,,,,,,,,,,,,,40134,2022-10-26_10h17.28.658,vts_reward_expectancy_bt_OFFLINE,2022.2.4,59.941981557265514,
0,1,0,0,0,0,1,0,circle,hexagon,1,0,1,0,1,9,21,4,,,,,,,,,,,,,,,,,,,,,,,,,,,,,,,,,,,,,,,,330.86590739099483,330.86590739099483,330.86590739099483,330.86590739099483,330.86590739099483,330.86590739099483,330.86590739099483,330.86590739099483,330.86590739099483,330.86590739099483,a,1.3246193410013802,1,349,1,332.2168535809906,333.7167816699948,333.7167816699948,334.21715495499666,,,,,,,,,,,,,,,,,,,,,,,,,,,,,,,,,,,,,,,,,,,,,,,,,,,,,,,,,,,,,,,,,,,40134,2022-10-26_10h17.28.658,vts_reward_expectancy_bt_OFFLINE,2022.2.4,59.941981557265514,
1,0,0,0,0,1,0,0,triangle,circle,1,0,1,0,1,10,22,0,,,,,,,,,,,,,,,,,,,,,,,,,,,,,,,,,,,,,,,,334.21715495499666,334.21715495499666,334.21715495499666,334.21715495499666,334.21715495499666,334.21715495499666,334.21715495499666,334.21715495499666,334.21715495499666,334.21715495499666,l,1.765264534013113,1,350,1,336.0032545349968,337.50343751600303,337.50343751600303,338.0036418779928,,,,,,,,,,,,,,,,,,,,,,,,,,,,,,,,,,,,,,,,,,,,,,,,,,,,,,,,,,,,,,,,,,,40134,2022-10-26_10h17.28.658,vts_reward_expectancy_bt_OFFLINE,2022.2.4,59.941981557265514,
0,0,0,1,1,0,0,0,star,triangle,1,0,1,0,1,11,23,9,,,,,,,,,,,,,,,,,,,,,,,,,,,,,,,,,,,,,,,,338.0036418779928,338.0036418779928,338.0036418779928,338.0036418779928,338.0036418779928,338.0036418779928,338.0036418779928,338.0036418779928,338.0036418779928,338.0036418779928,a,2.7946430670126574,10,360,1,340.825328602994,342.34032899700105,,,,,,,,,,,,,,,,,,,,,,,,,,,,,,,,,,,,,,,,,,,,,,,,,,,,,,,,,,,,,,,,,,,,,40134,2022-10-26_10h17.28.658,vts_reward_expectancy_bt_OFFLINE,2022.2.4,59.941981557265514,
1,0,0,0,0,0,1,0,triangle,hexagon,1,0,1,0,2,0,24,1,,,,,,,,,,,,,,,,,,,,,,,,,,,,,,,,,,,,,,,,342.84042097299243,342.84042097299243,342.84042097299243,342.84042097299243,342.84042097299243,342.84042097299243,342.84042097299243,342.84042097299243,342.84042097299243,342.84042097299243,l,1.8380050560081145,1,361,1,344.7103305560013,346.2101150689996,,,,,,,,,,,,,,,,,,,,,,,,,,,,,,,,,,,,,,,,,,,,,,,,,,,,,,,,,,,,,,,,,,,,,40134,2022-10-26_10h17.28.658,vts_reward_expectancy_bt_OFFLINE,2022.2.4,59.941981557265514,
0,1,0,0,0,0,1,0,circle,hexagon,1,0,1,0,2,1,25,4,,,,,,,,,,,,,,,,,,,,,,,,,,,,,,,,,,,,,,,,346.71031912599574,346.71031912599574,346.71031912599574,346.71031912599574,346.71031912599574,346.71031912599574,346.71031912599574,346.71031912599574,346.71031912599574,346.71031912599574,a,3.416925004014047,1,362,1,350.14584212399495,351.6471606029954,,,,,,,,,,,,,,,,,,,,,,,,,,,,,,,,,,,,,,,,,,,,,,,,,,,,,,,,,,,,,,,,,,,,,40134,2022-10-26_10h17.28.658,vts_reward_expectancy_bt_OFFLINE,2022.2.4,59.941981557265514,
1,0,0,0,0,0,0,1,triangle,star,1,0,1,0,2,2,26,2,,,,,,,,,,,,,,,,,,,,,,,,,,,,,,,,,,,,,,,,352.14759645400045,352.14759645400045,352.14759645400045,352.14759645400045,352.14759645400045,352.14759645400045,352.14759645400045,352.14759645400045,352.14759645400045,352.14759645400045,l,1.6356764340016525,1,363,1,353.814814679994,355.31720102299005,,355.8173249329993,,,,,,,,,,,,,,,,,,,,,,,,,,,,,,,,,,,,,,,,,,,,,,,,,,,,,,,,,,,,,,,,,,,40134,2022-10-26_10h17.28.658,vts_reward_expectancy_bt_OFFLINE,2022.2.4,59.941981557265514,
1,0,0,0,0,1,0,0,triangle,circle,1,0,1,0,2,3,27,0,,,,,,,,,,,,,,,,,,,,,,,,,,,,,,,,,,,,,,,,355.8173249329993,355.8173249329993,355.8173249329993,355.8173249329993,355.8173249329993,355.8173249329993,355.8173249329993,355.8173249329993,355.8173249329993,355.8173249329993,l,2.6451947730092797,10,373,1,358.48758253699634,360.0018221700011,,,,,,,,,,,,,,,,,,,,,,,,,,,,,,,,,,,,,,,,,,,,,,,,,,,,,,,,,,,,,,,,,,,,,40134,2022-10-26_10h17.28.658,vts_reward_expectancy_bt_OFFLINE,2022.2.4,59.941981557265514,
0,0,0,1,0,1,0,0,star ,circle,1,0,1,0,2,4,28,10,,,,,,,,,,,,,,,,,,,,,,,,,,,,,,,,,,,,,,,,360.4872029120015,360.4872029120015,360.4872029120015,360.4872029120015,360.4872029120015,360.4872029120015,360.4872029120015,360.4872029120015,360.4872029120015,360.4872029120015,a,2.039595950001967,10,383,1,362.5560622549965,364.0553653270035,364.0553653270035,364.55559952899057,,,,,,,,,,,,,,,,,,,,,,,,,,,,,,,,,,,,,,,,,,,,,,,,,,,,,,,,,,,,,,,,,,,40134,2022-10-26_10h17.28.658,vts_reward_expectancy_bt_OFFLINE,2022.2.4,59.941981557265514,
0,0,0,1,1,0,0,0,star,triangle,1,0,1,0,2,5,29,9,,,,,,,,,,,,,,,,,,,,,,,,,,,,,,,,,,,,,,,,364.55559952899057,364.55559952899057,364.55559952899057,364.55559952899057,364.55559952899057,364.55559952899057,364.55559952899057,364.55559952899057,364.55559952899057,364.55559952899057,l,2.7068091120163444,1,384,1,367.29447548299504,368.80929475500307,,,,,,,,,,,,,,,,,,,,,,,,,,,,,,,,,,,,,,,,,,,,,,,,,,,,,,,,,,,,,,,,,,,,,40134,2022-10-26_10h17.28.658,vts_reward_expectancy_bt_OFFLINE,2022.2.4,59.941981557265514,
0,1,0,0,1,0,0,0,circle,triangle,1,0,1,0,2,6,30,3,,,,,,,,,,,,,,,,,,,,,,,,,,,,,,,,,,,,,,,,369.29243474599207,369.29243474599207,369.29243474599207,369.29243474599207,369.29243474599207,369.29243474599207,369.29243474599207,369.29243474599207,369.29243474599207,369.29243474599207,a,2.1063683340034913,1,385,1,371.428814407991,372.9286956930009,372.9286956930009,,,,,,,,,,,,,,,,,,,,,,,,,,,,,,,,,,,,,,,,,,,,,,,,,,,,,,,,,,,,,,,,,,,,40134,2022-10-26_10h17.28.658,vts_reward_expectancy_bt_OFFLINE,2022.2.4,59.941981557265514,
0,0,1,0,0,1,0,0,hexagon,circle,1,0,1,0,2,7,31,7,,,,,,,,,,,,,,,,,,,,,,,,,,,,,,,,,,,,,,,,373.4292851299979,373.4292851299979,373.4292851299979,373.4292851299979,373.4292851299979,373.4292851299979,373.4292851299979,373.4292851299979,373.4292851299979,373.4292851299979,a,2.225126346020261,1,386,1,375.68318757999805,377.18241219800257,377.18241219800257,377.6826908419898,,,,,,,,,,,,,,,,,,,,,,,,,,,,,,,,,,,,,,,,,,,,,,,,,,,,,,,,,,,,,,,,,,,40134,2022-10-26_10h17.28.658,vts_reward_expectancy_bt_OFFLINE,2022.2.4,59.941981557265514,
0,0,1,0,1,0,0,0,hexagon,triangle,1,0,1,0,2,8,32,6,,,,,,,,,,,,,,,,,,,,,,,,,,,,,,,,,,,,,,,,377.6826908419898,377.6826908419898,377.6826908419898,377.6826908419898,377.6826908419898,377.6826908419898,377.6826908419898,377.6826908419898,377.6826908419898,377.6826908419898,l,1.5327190130046802,10,396,1,379.2355185310007,380.73582512899884,,,,,,,,,,,,,,,,,,,,,,,,,,,,,,,,,,,,,,,,,,,,,,,,,,,,,,,,,,,,,,,,,,,,,40134,2022-10-26_10h17.28.658,vts_reward_expectancy_bt_OFFLINE,2022.2.4,59.941981557265514,
0,0,0,1,0,0,1,0,star,hexagon,1,0,1,0,2,9,33,11,,,,,,,,,,,,,,,,,,,,,,,,,,,,,,,,,,,,,,,,381.2355768120033,381.2355768120033,381.2355768120033,381.2355768120033,381.2355768120033,381.2355768120033,381.2355768120033,381.2355768120033,381.2355768120033,381.2355768120033,a,3.4987722520163516,10,406,1,384.75392055200064,386.25618702899374,,,,,,,,,,,,,,,,,,,,,,,,,,,,,,,,,,,,,,,,,,,,,,,,,,,,,,,,,,,,,,,,,,,,,40134,2022-10-26_10h17.28.658,vts_reward_expectancy_bt_OFFLINE,2022.2.4,59.941981557265514,
0,0,1,0,0,0,0,1,hexagon,star,1,0,1,0,2,10,34,8,,,,,,,,,,,,,,,,,,,,,,,,,,,,,,,,,,,,,,,,386.7560552089999,386.7560552089999,386.7560552089999,386.7560552089999,386.7560552089999,386.7560552089999,386.7560552089999,386.7560552089999,386.7560552089999,386.7560552089999,l,2.1383484920079354,10,416,1,388.9244639009994,390.4258802609984,,,,,,,,,,,,,,,,,,,,,,,,,,,,,,,,,,,,,,,,,,,,,,,,,,,,,,,,,,,,,,,,,,,,,40134,2022-10-26_10h17.28.658,vts_reward_expectancy_bt_OFFLINE,2022.2.4,59.941981557265514,
0,1,0,0,0,0,0,1,circle,star,1,0,1,0,2,11,35,5,,,,,,,,,,,,,,,,,,,,,,,,,,,,,,,,,,,,,,,,390.92610034199606,390.92610034199606,390.92610034199606,390.92610034199606,390.92610034199606,390.92610034199606,390.92610034199606,390.92610034199606,390.92610034199606,390.92610034199606,l,1.7609676710126223,10,426,1,392.71100707000005,394.21077046799473,394.21077046799473,394.7109880819917,,,,,,,,,,,,,,,,,,,,,,,,,,,,,,,,,,,,,,,,,,,,,,,,,,,,,,,,,,,,,,,,,,,40134,2022-10-26_10h17.28.658,vts_reward_expectancy_bt_OFFLINE,2022.2.4,59.941981557265514,
0,0,1,0,0,1,0,0,hexagon,circle,1,0,1,0,3,0,36,7,,,,,,,,,,,,,,,,,,,,,,,,,,,,,,,,,,,,,,,,394.7109880819917,394.7109880819917,394.7109880819917,394.7109880819917,394.7109880819917,394.7109880819917,394.7109880819917,394.7109880819917,394.7109880819917,394.7109880819917,a,3.7763050200155703,1,427,1,398.51688346899755,400.03126694000093,,,,,,,,,,,,,,,,,,,,,,,,,,,,,,,,,,,,,,,,,,,,,,,,,,,,,,,,,,,,,,,,,,,,,40134,2022-10-26_10h17.28.658,vts_reward_expectancy_bt_OFFLINE,2022.2.4,59.941981557265514,
0,0,0,1,1,0,0,0,star,triangle,1,0,1,0,3,1,37,9,,,,,,,,,,,,,,,,,,,,,,,,,,,,,,,,,,,,,,,,400.5164403300005,400.5164403300005,400.5164403300005,400.5164403300005,400.5164403300005,400.5164403300005,400.5164403300005,400.5164403300005,400.5164403300005,400.5164403300005,a,2.1459364500042284,10,437,1,402.6868963769957,404.2013281339896,,,,,,,,,,,,,,,,,,,,,,,,,,,,,,,,,,,,,,,,,,,,,,,,,,,,,,,,,,,,,,,,,,,,,40134,2022-10-26_10h17.28.658,vts_reward_expectancy_bt_OFFLINE,2022.2.4,59.941981557265514,
0,0,0,1,0,1,0,0,star ,circle,1,0,1,0,3,2,38,10,,,,,,,,,,,,,,,,,,,,,,,,,,,,,,,,,,,,,,,,404.7013356249954,404.7013356249954,404.7013356249954,404.7013356249954,404.7013356249954,404.7013356249954,404.7013356249954,404.7013356249954,404.7013356249954,404.7013356249954,l,1.2330096549994778,1,438,1,405.95686797899543,407.47079976099485,,,,,,,,,,,,,,,,,,,,,,,,,,,,,,,,,,,,,,,,,,,,,,,,,,,,,,,,,,,,,,,,,,,,,40134,2022-10-26_10h17.28.658,vts_reward_expectancy_bt_OFFLINE,2022.2.4,59.941981557265514,
0,1,0,0,1,0,0,0,circle,triangle,1,0,1,0,3,3,39,3,,,,,,,,,,,,,,,,,,,,,,,,,,,,,,,,,,,,,,,,407.9711371070007,407.9711371070007,407.9711371070007,407.9711371070007,407.9711371070007,407.9711371070007,407.9711371070007,407.9711371070007,407.9711371070007,407.9711371070007,l,1.9632584280043375,10,448,1,409.95811971699004,411.45784528099466,,,,,,,,,,,,,,,,,,,,,,,,,,,,,,,,,,,,,,,,,,,,,,,,,,,,,,,,,,,,,,,,,,,,,40134,2022-10-26_10h17.28.658,vts_reward_expectancy_bt_OFFLINE,2022.2.4,59.941981557265514,
0,0,1,0,0,0,0,1,hexagon,star,1,0,1,0,3,4,40,8,,,,,,,,,,,,,,,,,,,,,,,,,,,,,,,,,,,,,,,,411.95798045099946,411.95798045099946,411.95798045099946,411.95798045099946,411.95798045099946,411.95798045099946,411.95798045099946,411.95798045099946,411.95798045099946,411.95798045099946,l,3.5688676169957034,10,458,1,415.54519645999244,417.04487521300325,417.04487521300325,417.5451558259956,,,,,,,,,,,,,,,,,,,,,,,,,,,,,,,,,,,,,,,,,,,,,,,,,,,,,,,,,,,,,,,,,,,40134,2022-10-26_10h17.28.658,vts_reward_expectancy_bt_OFFLINE,2022.2.4,59.941981557265514,
1,0,0,0,0,1,0,0,triangle,circle,1,0,1,0,3,5,41,0,,,,,,,,,,,,,,,,,,,,,,,,,,,,,,,,,,,,,,,,417.5451558259956,417.5451558259956,417.5451558259956,417.5451558259956,417.5451558259956,417.5451558259956,417.5451558259956,417.5451558259956,417.5451558259956,417.5451558259956,a,1.5260522680182476,10,468,1,419.0962314130011,420.59784691799723,,,,,,,,,,,,,,,,,,,,,,,,,,,,,,,,,,,,,,,,,,,,,,,,,,,,,,,,,,,,,,,,,,,,,40134,2022-10-26_10h17.28.658,vts_reward_expectancy_bt_OFFLINE,2022.2.4,59.941981557265514,
0,1,0,0,0,0,1,0,circle,hexagon,1,0,1,0,3,6,42,4,,,,,,,,,,,,,,,,,,,,,,,,,,,,,,,,,,,,,,,,421.0978831079992,421.0978831079992,421.0978831079992,421.0978831079992,421.0978831079992,421.0978831079992,421.0978831079992,421.0978831079992,421.0978831079992,421.0978831079992,l,2.372501611011103,1,469,1,423.5131928889896,425.0159670189896,,,,,,,,,,,,,,,,,,,,,,,,,,,,,,,,,,,,,,,,,,,,,,,,,,,,,,,,,,,,,,,,,,,,,40134,2022-10-26_10h17.28.658,vts_reward_expectancy_bt_OFFLINE,2022.2.4,59.941981557265514,
1,0,0,0,0,0,0,1,triangle,star,1,0,1,0,3,7,43,2,,,,,,,,,,,,,,,,,,,,,,,,,,,,,,,,,,,,,,,,425.5012150679977,425.5012150679977,425.5012150679977,425.5012150679977,425.5012150679977,425.5012150679977,425.5012150679977,425.5012150679977,425.5012150679977,425.5012150679977,l,2.625405070008128,10,479,1,428.15521491199615,429.6695724129968,,,,,,,,,,,,,,,,,,,,,,,,,,,,,,,,,,,,,,,,,,,,,,,,,,,,,,,,,,,,,,,,,,,,,40134,2022-10-26_10h17.28.658,vts_reward_expectancy_bt_OFFLINE,2022.2.4,59.941981557265514,
0,0,0,1,0,0,1,0,star,hexagon,1,0,1,0,3,8,44,11,,,,,,,,,,,,,,,,,,,,,,,,,,,,,,,,,,,,,,,,430.1698067519901,430.1698067519901,430.1698067519901,430.1698067519901,430.1698067519901,430.1698067519901,430.1698067519901,430.1698067519901,430.1698067519901,430.1698067519901,a,2.1018040850176476,1,480,1,432.2921880979993,433.80615549099457,,,,,,,,,,,,,,,,,,,,,,,,,,,,,,,,,,,,,,,,,,,,,,,,,,,,,,,,,,,,,,,,,,,,,40134,2022-10-26_10h17.28.658,vts_reward_expectancy_bt_OFFLINE,2022.2.4,59.941981557265514,
0,1,0,0,0,0,0,1,circle,star,1,0,1,0,3,9,45,5,,,,,,,,,,,,,,,,,,,,,,,,,,,,,,,,,,,,,,,,434.30632968599093,434.30632968599093,434.30632968599093,434.30632968599093,434.30632968599093,434.30632968599093,434.30632968599093,434.30632968599093,434.30632968599093,434.30632968599093,l,1.468049367002095,10,490,1,435.79476690899173,437.309343076995,,,,,,,,,,,,,,,,,,,,,,,,,,,,,,,,,,,,,,,,,,,,,,,,,,,,,,,,,,,,,,,,,,,,,40134,2022-10-26_10h17.28.658,vts_reward_expectancy_bt_OFFLINE,2022.2.4,59.941981557265514,
0,0,1,0,1,0,0,0,hexagon,triangle,1,0,1,0,3,10,46,6,,,,,,,,,,,,,,,,,,,,,,,,,,,,,,,,,,,,,,,,437.8096539389953,437.8096539389953,437.8096539389953,437.8096539389953,437.8096539389953,437.8096539389953,437.8096539389953,437.8096539389953,437.8096539389953,437.8096539389953,a,1.9891878410126083,1,491,1,439.83004040700325,441.32943612200324,,,,,,,,,,,,,,,,,,,,,,,,,,,,,,,,,,,,,,,,,,,,,,,,,,,,,,,,,,,,,,,,,,,,,40134,2022-10-26_10h17.28.658,vts_reward_expectancy_bt_OFFLINE,2022.2.4,59.941981557265514,
1,0,0,0,0,0,1,0,triangle,hexagon,1,0,1,0,3,11,47,1,,,,,,,,,,,,,,,,,,,,,,,,,,,,,,,,,,,,,,,,441.82970273499086,441.82970273499086,441.82970273499086,441.82970273499086,441.82970273499086,441.82970273499086,441.82970273499086,441.82970273499086,441.82970273499086,441.82970273499086,a,2.424990338011412,1,492,1,444.2810791480006,445.7826325920032,,,,,,,,,,,,,,,,,,,,,,,,,,,,,,,,,,,,,,,,,,,,,,,,,,,,,,,,,,,,,,,,,,,,,40134,2022-10-26_10h17.28.658,vts_reward_expectancy_bt_OFFLINE,2022.2.4,59.941981557265514,
0,1,0,0,1,0,0,0,circle,triangle,2,0,2,0,0,0,0,3,,,,,,,,,,,,,,,,,,,,,,,,,,,,,,,,,,,,,,,,452.0354778100009,452.0354778100009,452.0354778100009,452.0354778100009,452.0354778100009,452.0354778100009,452.0354778100009,452.0354778100009,452.0354778100009,452.0354778100009,l,2.0751409090153174,10,502,2,454.1520763239969,455.64017686399166,,,,,,,,,,,,,,,,,,,,,,,,,,,,,,,,,,,,,,,,,,,,,,,,,,,,,,,,,,,,,,,,,,,,,40134,2022-10-26_10h17.28.658,vts_reward_expectancy_bt_OFFLINE,2022.2.4,59.941981557265514,
0,0,1,0,0,0,0,1,hexagon,star,2,0,2,0,0,1,1,8,,,,,,,,,,,,,,,,,,,,,,,,,,,,,,,,,,,,,,,,456.14017165399855,456.14017165399855,456.14017165399855,456.14017165399855,456.14017165399855,456.14017165399855,456.14017165399855,456.14017165399855,456.14017165399855,456.14017165399855,l,1.8028619880060432,1,503,2,457.9764292570035,459.4916255129938,,,,,,,,,,,,,,,,,,,,,,,,,,,,,,,,,,,,,,,,,,,,,,,,,,,,,,,,,,,,,,,,,,,,,40134,2022-10-26_10h17.28.658,vts_reward_expectancy_bt_OFFLINE,2022.2.4,59.941981557265514,
1,0,0,0,0,0,0,1,triangle,star,2,0,2,0,0,2,2,2,,,,,,,,,,,,,,,,,,,,,,,,,,,,,,,,,,,,,,,,459.99146325899346,459.99146325899346,459.99146325899346,459.99146325899346,459.99146325899346,459.99146325899346,459.99146325899346,459.99146325899346,459.99146325899346,459.99146325899346,l,2.751365464020637,10,513,2,462.7752864549984,464.2783245519968,,,,,,,,,,,,,,,,,,,,,,,,,,,,,,,,,,,,,,,,,,,,,,,,,,,,,,,,,,,,,,,,,,,,,40134,2022-10-26_10h17.28.658,vts_reward_expectancy_bt_OFFLINE,2022.2.4,59.941981557265514,
0,1,0,0,0,0,1,0,circle,hexagon,2,0,2,0,0,3,3,4,,,,,,,,,,,,,,,,,,,,,,,,,,,,,,,,,,,,,,,,464.778328528002,464.778328528002,464.778328528002,464.778328528002,464.778328528002,464.778328528002,464.778328528002,464.778328528002,464.778328528002,464.778328528002,l,2.188531308012898,1,514,2,467.00052902799507,468.51492899798905,,,,,,,,,,,,,,,,,,,,,,,,,,,,,,,,,,,,,,,,,,,,,,,,,,,,,,,,,,,,,,,,,,,,,40134,2022-10-26_10h17.28.658,vts_reward_expectancy_bt_OFFLINE,2022.2.4,59.941981557265514,
0,0,1,0,0,1,0,0,hexagon,circle,2,0,2,0,0,4,4,7,,,,,,,,,,,,,,,,,,,,,,,,,,,,,,,,,,,,,,,,468.9984035429952,468.9984035429952,468.9984035429952,468.9984035429952,468.9984035429952,468.9984035429952,468.9984035429952,468.9984035429952,468.9984035429952,468.9984035429952,l,1.3210990530060371,1,515,2,470.34679518500343,471.8513324009982,,,,,,,,,,,,,,,,,,,,,,,,,,,,,,,,,,,,,,,,,,,,,,,,,,,,,,,,,,,,,,,,,,,,,40134,2022-10-26_10h17.28.658,vts_reward_expectancy_bt_OFFLINE,2022.2.4,59.941981557265514,
0,0,0,1,0,0,1,0,star,hexagon,2,0,2,0,0,5,5,11,,,,,,,,,,,,,,,,,,,,,,,,,,,,,,,,,,,,,,,,472.3514532019908,472.3514532019908,472.3514532019908,472.3514532019908,472.3514532019908,472.3514532019908,472.3514532019908,472.3514532019908,472.3514532019908,472.3514532019908,a,3.6069880910072243,10,525,2,476.00227056699805,477.5051772329898,,,,,,,,,,,,,,,,,,,,,,,,,,,,,,,,,,,,,,,,,,,,,,,,,,,,,,,,,,,,,,,,,,,,,40134,2022-10-26_10h17.28.658,vts_reward_expectancy_bt_OFFLINE,2022.2.4,59.941981557265514,
0,1,0,0,0,0,0,1,circle,star,2,0,2,0,0,6,6,5,,,,,,,,,,,,,,,,,,,,,,,,,,,,,,,,,,,,,,,,477.9888520109962,477.9888520109962,477.9888520109962,477.9888520109962,477.9888520109962,477.9888520109962,477.9888520109962,477.9888520109962,477.9888520109962,477.9888520109962,l,2.7373695250134915,10,535,2,480.7584546080034,482.2586377370026,482.2586377370026,482.75909450599283,,,,,,,,,,,,,,,,,,,,,,,,,,,,,,,,,,,,,,,,,,,,,,,,,,,,,,,,,,,,,,,,,,,40134,2022-10-26_10h17.28.658,vts_reward_expectancy_bt_OFFLINE,2022.2.4,59.941981557265514,
1,0,0,0,0,1,0,0,triangle,circle,2,0,2,0,0,7,7,0,,,,,,,,,,,,,,,,,,,,,,,,,,,,,,,,,,,,,,,,482.75909450599283,482.75909450599283,482.75909450599283,482.75909450599283,482.75909450599283,482.75909450599283,482.75909450599283,482.75909450599283,482.75909450599283,482.75909450599283,l,2.3832982840103796,10,545,2,485.16071107699827,486.6622670539946,,,,,,,,,,,,,,,,,,,,,,,,,,,,,,,,,,,,,,,,,,,,,,,,,,,,,,,,,,,,,,,,,,,,,40134,2022-10-26_10h17.28.658,vts_reward_expectancy_bt_OFFLINE,2022.2.4,59.941981557265514,
0,0,0,1,1,0,0,0,star,triangle,2,0,2,0,0,8,8,9,,,,,,,,,,,,,,,,,,,,,,,,,,,,,,,,,,,,,,,,487.16230026799894,487.16230026799894,487.16230026799894,487.16230026799894,487.16230026799894,487.16230026799894,487.16230026799894,487.16230026799894,487.16230026799894,487.16230026799894,a,2.8921902700094506,1,546,2,490.08316761499736,491.58239839698945,,,,,,,,,,,,,,,,,,,,,,,,,,,,,,,,,,,,,,,,,,,,,,,,,,,,,,,,,,,,,,,,,,,,,40134,2022-10-26_10h17.28.658,vts_reward_expectancy_bt_OFFLINE,2022.2.4,59.941981557265514,
0,0,0,1,0,1,0,0,star ,circle,2,0,2,0,0,9,9,10,,,,,,,,,,,,,,,,,,,,,,,,,,,,,,,,,,,,,,,,492.0826796969923,492.0826796969923,492.0826796969923,492.0826796969923,492.0826796969923,492.0826796969923,492.0826796969923,492.0826796969923,492.0826796969923,492.0826796969923,a,2.6996777610183926,1,547,2,494.8012394730031,496.3025255879911,,,,,,,,,,,,,,,,,,,,,,,,,,,,,,,,,,,,,,,,,,,,,,,,,,,,,,,,,,,,,,,,,,,,,40134,2022-10-26_10h17.28.658,vts_reward_expectancy_bt_OFFLINE,2022.2.4,59.941981557265514,
0,0,1,0,1,0,0,0,hexagon,triangle,2,0,2,0,0,10,10,6,,,,,,,,,,,,,,,,,,,,,,,,,,,,,,,,,,,,,,,,496.80271916899073,496.80271916899073,496.80271916899073,496.80271916899073,496.80271916899073,496.80271916899073,496.80271916899073,496.80271916899073,496.80271916899073,496.80271916899073,l,2.011715536020347,1,548,2,498.83811545999197,500.33739563799463,500.33739563799463,,,,,,,,,,,,,,,,,,,,,,,,,,,,,,,,,,,,,,,,,,,,,,,,,,,,,,,,,,,,,,,,,,,,40134,2022-10-26_10h17.28.658,vts_reward_expectancy_bt_OFFLINE,2022.2.4,59.941981557265514,
1,0,0,0,0,0,1,0,triangle,hexagon,2,0,2,0,0,11,11,1,,,,,,,,,,,,,,,,,,,,,,,,,,,,,,,,,,,,,,,,500.8393899799994,500.8393899799994,500.8393899799994,500.8393899799994,500.8393899799994,500.8393899799994,500.8393899799994,500.8393899799994,500.8393899799994,500.8393899799994,l,1.7435634310095338,1,549,2,502.6081540719897,504.1072022099979,504.1072022099979,504.60764599899994,,,,,,,,,,,,,,,,,,,,,,,,,,,,,,,,,,,,,,,,,,,,,,,,,,,,,,,,,,,,,,,,,,,40134,2022-10-26_10h17.28.658,vts_reward_expectancy_bt_OFFLINE,2022.2.4,59.941981557265514,
0,0,1,0,1,0,0,0,hexagon,triangle,2,0,2,0,1,0,12,6,,,,,,,,,,,,,,,,,,,,,,,,,,,,,,,,,,,,,,,,504.60764599899994,504.60764599899994,504.60764599899994,504.60764599899994,504.60764599899994,504.60764599899994,504.60764599899994,504.60764599899994,504.60764599899994,504.60764599899994,a,2.239016295017791,1,550,2,506.87755694199586,508.3773628479976,508.3773628479976,,,,,,,,,,,,,,,,,,,,,,,,,,,,,,,,,,,,,,,,,,,,,,,,,,,,,,,,,,,,,,,,,,,,40134,2022-10-26_10h17.28.658,vts_reward_expectancy_bt_OFFLINE,2022.2.4,59.941981557265514,
0,0,0,1,0,0,1,0,star,hexagon,2,0,2,0,1,1,13,11,,,,,,,,,,,,,,,,,,,,,,,,,,,,,,,,,,,,,,,,508.8777151789982,508.8777151789982,508.8777151789982,508.8777151789982,508.8777151789982,508.8777151789982,508.8777151789982,508.8777151789982,508.8777151789982,508.8777151789982,a,1.3206389289989602,1,551,2,510.22878130400204,511.7306121809961,,,,,,,,,,,,,,,,,,,,,,,,,,,,,,,,,,,,,,,,,,,,,,,,,,,,,,,,,,,,,,,,,,,,,40134,2022-10-26_10h17.28.658,vts_reward_expectancy_bt_OFFLINE,2022.2.4,59.941981557265514,
0,0,1,0,0,1,0,0,hexagon,circle,2,0,2,0,1,2,14,7,,,,,,,,,,,,,,,,,,,,,,,,,,,,,,,,,,,,,,,,512.2306555760006,512.2306555760006,512.2306555760006,512.2306555760006,512.2306555760006,512.2306555760006,512.2306555760006,512.2306555760006,512.2306555760006,512.2306555760006,l,2.0958154770050896,10,561,2,514.3506689060014,515.8502774689987,,,,,,,,,,,,,,,,,,,,,,,,,,,,,,,,,,,,,,,,,,,,,,,,,,,,,,,,,,,,,,,,,,,,,40134,2022-10-26_10h17.28.658,vts_reward_expectancy_bt_OFFLINE,2022.2.4,59.941981557265514,
0,0,0,1,1,0,0,0,star,triangle,2,0,2,0,1,3,15,9,,,,,,,,,,,,,,,,,,,,,,,,,,,,,,,,,,,,,,,,516.3506221839925,516.3506221839925,516.3506221839925,516.3506221839925,516.3506221839925,516.3506221839925,516.3506221839925,516.3506221839925,516.3506221839925,516.3506221839925,l,3.360031271004118,1,562,2,519.7384534180019,521.237366907997,,,,,,,,,,,,,,,,,,,,,,,,,,,,,,,,,,,,,,,,,,,,,,,,,,,,,,,,,,,,,,,,,,,,,40134,2022-10-26_10h17.28.658,vts_reward_expectancy_bt_OFFLINE,2022.2.4,59.941981557265514,
0,1,0,0,0,0,0,1,circle,star,2,0,2,0,1,4,16,5,,,,,,,,,,,,,,,,,,,,,,,,,,,,,,,,,,,,,,,,521.7376049110026,521.7376049110026,521.7376049110026,521.7376049110026,521.7376049110026,521.7376049110026,521.7376049110026,521.7376049110026,521.7376049110026,521.7376049110026,l,3.0854836870130384,10,572,2,524.8574066269939,526.3577285359934,526.3577285359934,526.857908001999,,,,,,,,,,,,,,,,,,,,,,,,,,,,,,,,,,,,,,,,,,,,,,,,,,,,,,,,,,,,,,,,,,,40134,2022-10-26_10h17.28.658,vts_reward_expectancy_bt_OFFLINE,2022.2.4,59.941981557265514,
0,0,1,0,0,0,0,1,hexagon,star,2,0,2,0,1,5,17,8,,,,,,,,,,,,,,,,,,,,,,,,,,,,,,,,,,,,,,,,526.857908001999,526.857908001999,526.857908001999,526.857908001999,526.857908001999,526.857908001999,526.857908001999,526.857908001999,526.857908001999,526.857908001999,a,2.061002249014564,1,573,2,528.9452872300026,530.4447936740034,,,,,,,,,,,,,,,,,,,,,,,,,,,,,,,,,,,,,,,,,,,,,,,,,,,,,,,,,,,,,,,,,,,,,40134,2022-10-26_10h17.28.658,vts_reward_expectancy_bt_OFFLINE,2022.2.4,59.941981557265514,
0,1,0,0,0,0,1,0,circle,hexagon,2,0,2,0,1,6,18,4,,,,,,,,,,,,,,,,,,,,,,,,,,,,,,,,,,,,,,,,530.944634421001,530.944634421001,530.944634421001,530.944634421001,530.944634421001,530.944634421001,530.944634421001,530.944634421001,530.944634421001,530.944634421001,l,1.8624161010084208,1,574,2,532.8301414239977,534.3291865579959,534.3291865579959,534.8293534529948,,,,,,,,,,,,,,,,,,,,,,,,,,,,,,,,,,,,,,,,,,,,,,,,,,,,,,,,,,,,,,,,,,,40134,2022-10-26_10h17.28.658,vts_reward_expectancy_bt_OFFLINE,2022.2.4,59.941981557265514,
1,0,0,0,0,0,0,1,triangle,star,2,0,2,0,1,7,19,2,,,,,,,,,,,,,,,,,,,,,,,,,,,,,,,,,,,,,,,,534.8293534529948,534.8293534529948,534.8293534529948,534.8293534529948,534.8293534529948,534.8293534529948,534.8293534529948,534.8293534529948,534.8293534529948,534.8293534529948,l,2.3048913680104306,1,575,2,537.1666461830027,538.6657505689946,538.6657505689946,539.1662069750018,,,,,,,,,,,,,,,,,,,,,,,,,,,,,,,,,,,,,,,,,,,,,,,,,,,,,,,,,,,,,,,,,,,40134,2022-10-26_10h17.28.658,vts_reward_expectancy_bt_OFFLINE,2022.2.4,59.941981557265514,
0,1,0,0,1,0,0,0,circle,triangle,2,0,2,0,1,8,20,3,,,,,,,,,,,,,,,,,,,,,,,,,,,,,,,,,,,,,,,,539.1662069750018,539.1662069750018,539.1662069750018,539.1662069750018,539.1662069750018,539.1662069750018,539.1662069750018,539.1662069750018,539.1662069750018,539.1662069750018,a,1.1842167120048543,1,576,2,540.3829904229933,541.885797572002,,542.3856401719968,,,,,,,,,,,,,,,,,,,,,,,,,,,,,,,,,,,,,,,,,,,,,,,,,,,,,,,,,,,,,,,,,,,40134,2022-10-26_10h17.28.658,vts_reward_expectancy_bt_OFFLINE,2022.2.4,59.941981557265514,
1,0,0,0,0,1,0,0,triangle,circle,2,0,2,0,1,9,21,0,,,,,,,,,,,,,,,,,,,,,,,,,,,,,,,,,,,,,,,,542.3856401719968,542.3856401719968,542.3856401719968,542.3856401719968,542.3856401719968,542.3856401719968,542.3856401719968,542.3856401719968,542.3856401719968,542.3856401719968,l,1.5890365920204204,1,577,2,544.004000735993,545.5052173379954,,,,,,,,,,,,,,,,,,,,,,,,,,,,,,,,,,,,,,,,,,,,,,,,,,,,,,,,,,,,,,,,,,,,,40134,2022-10-26_10h17.28.658,vts_reward_expectancy_bt_OFFLINE,2022.2.4,59.941981557265514,
0,0,0,1,0,1,0,0,star ,circle,2,0,2,0,1,10,22,10,,,,,,,,,,,,,,,,,,,,,,,,,,,,,,,,,,,,,,,,546.0055827749893,546.0055827749893,546.0055827749893,546.0055827749893,546.0055827749893,546.0055827749893,546.0055827749893,546.0055827749893,546.0055827749893,546.0055827749893,a,1.4173308380122762,1,578,2,547.4413150799955,548.9564353469905,,,,,,,,,,,,,,,,,,,,,,,,,,,,,,,,,,,,,,,,,,,,,,,,,,,,,,,,,,,,,,,,,,,,,40134,2022-10-26_10h17.28.658,vts_reward_expectancy_bt_OFFLINE,2022.2.4,59.941981557265514,
1,0,0,0,0,0,1,0,triangle,hexagon,2,0,2,0,1,11,23,1,,,,,,,,,,,,,,,,,,,,,,,,,,,,,,,,,,,,,,,,549.4566874169977,549.4566874169977,549.4566874169977,549.4566874169977,549.4566874169977,549.4566874169977,549.4566874169977,549.4566874169977,549.4566874169977,549.4566874169977,l,1.533986405003816,1,579,2,551.0116486240004,552.5264150430012,,,,,,,,,,,,,,,,,,,,,,,,,,,,,,,,,,,,,,,,,,,,,,,,,,,,,,,,,,,,,,,,,,,,,40134,2022-10-26_10h17.28.658,vts_reward_expectancy_bt_OFFLINE,2022.2.4,59.941981557265514,
0,0,1,0,1,0,0,0,hexagon,triangle,2,0,2,0,2,0,24,6,,,,,,,,,,,,,,,,,,,,,,,,,,,,,,,,,,,,,,,,553.0265849529969,553.0265849529969,553.0265849529969,553.0265849529969,553.0265849529969,553.0265849529969,553.0265849529969,553.0265849529969,553.0265849529969,553.0265849529969,a,4.420018369011814,1,580,2,557.46471943699,558.9637842719967,558.9637842719967,559.4642733999935,,,,,,,,,,,,,,,,,,,,,,,,,,,,,,,,,,,,,,,,,,,,,,,,,,,,,,,,,,,,,,,,,,,40134,2022-10-26_10h17.28.658,vts_reward_expectancy_bt_OFFLINE,2022.2.4,59.941981557265514,
0,1,0,0,1,0,0,0,circle,triangle,2,0,2,0,2,1,25,3,,,,,,,,,,,,,,,,,,,,,,,,,,,,,,,,,,,,,,,,559.4642733999935,559.4642733999935,559.4642733999935,559.4642733999935,559.4642733999935,559.4642733999935,559.4642733999935,559.4642733999935,559.4642733999935,559.4642733999935,a,2.8623400760116056,1,581,2,562.3513301030034,563.8507187389914,563.8507187389914,,,,,,,,,,,,,,,,,,,,,,,,,,,,,,,,,,,,,,,,,,,,,,,,,,,,,,,,,,,,,,,,,,,,40134,2022-10-26_10h17.28.658,vts_reward_expectancy_bt_OFFLINE,2022.2.4,59.941981557265514,
0,1,0,0,0,0,1,0,circle,hexagon,2,0,2,0,2,2,26,4,,,,,,,,,,,,,,,,,,,,,,,,,,,,,,,,,,,,,,,,564.3511013359966,564.3511013359966,564.3511013359966,564.3511013359966,564.3511013359966,564.3511013359966,564.3511013359966,564.3511013359966,564.3511013359966,564.3511013359966,l,1.663573277008254,10,591,2,566.0400428449939,567.5541642509925,,,,,,,,,,,,,,,,,,,,,,,,,,,,,,,,,,,,,,,,,,,,,,,,,,,,,,,,,,,,,,,,,,,,,40134,2022-10-26_10h17.28.658,vts_reward_expectancy_bt_OFFLINE,2022.2.4,59.941981557265514,
0,0,0,1,0,1,0,0,star ,circle,2,0,2,0,2,3,27,10,,,,,,,,,,,,,,,,,,,,,,,,,,,,,,,,,,,,,,,,568.0377050219977,568.0377050219977,568.0377050219977,568.0377050219977,568.0377050219977,568.0377050219977,568.0377050219977,568.0377050219977,568.0377050219977,568.0377050219977,a,1.1296859710128047,10,601,2,569.1895698820008,570.6902920269931,,,,,,,,,,,,,,,,,,,,,,,,,,,,,,,,,,,,,,,,,,,,,,,,,,,,,,,,,,,,,,,,,,,,,40134,2022-10-26_10h17.28.658,vts_reward_expectancy_bt_OFFLINE,2022.2.4,59.941981557265514,
1,0,0,0,0,0,0,1,triangle,star,2,0,2,0,2,4,28,2,,,,,,,,,,,,,,,,,,,,,,,,,,,,,,,,,,,,,,,,571.1901706819917,571.1901706819917,571.1901706819917,571.1901706819917,571.1901706819917,571.1901706819917,571.1901706819917,571.1901706819917,571.1901706819917,571.1901706819917,l,2.2881544880074216,10,611,2,573.5089565550006,575.0088815380004,575.0088815380004,,,,,,,,,,,,,,,,,,,,,,,,,,,,,,,,,,,,,,,,,,,,,,,,,,,,,,,,,,,,,,,,,,,,40134,2022-10-26_10h17.28.658,vts_reward_expectancy_bt_OFFLINE,2022.2.4,59.941981557265514,
0,0,1,0,0,0,0,1,hexagon,star,2,0,2,0,2,5,29,8,,,,,,,,,,,,,,,,,,,,,,,,,,,,,,,,,,,,,,,,575.5106428610015,575.5106428610015,575.5106428610015,575.5106428610015,575.5106428610015,575.5106428610015,575.5106428610015,575.5106428610015,575.5106428610015,575.5106428610015,a,1.391813935013488,10,621,2,576.9291429470031,578.4452747079922,,,,,,,,,,,,,,,,,,,,,,,,,,,,,,,,,,,,,,,,,,,,,,,,,,,,,,,,,,,,,,,,,,,,,40134,2022-10-26_10h17.28.658,vts_reward_expectancy_bt_OFFLINE,2022.2.4,59.941981557265514,
1,0,0,0,0,0,1,0,triangle,hexagon,2,0,2,0,2,6,30,1,,,,,,,,,,,,,,,,,,,,,,,,,,,,,,,,,,,,,,,,578.9453420929931,578.9453420929931,578.9453420929931,578.9453420929931,578.9453420929931,578.9453420929931,578.9453420929931,578.9453420929931,578.9453420929931,578.9453420929931,l,1.2370451230090111,1,622,2,580.2156954840029,581.7145565340033,,,,,,,,,,,,,,,,,,,,,,,,,,,,,,,,,,,,,,,,,,,,,,,,,,,,,,,,,,,,,,,,,,,,,40134,2022-10-26_10h17.28.658,vts_reward_expectancy_bt_OFFLINE,2022.2.4,59.941981557265514,
0,0,0,1,0,0,1,0,star,hexagon,2,0,2,0,2,7,31,11,,,,,,,,,,,,,,,,,,,,,,,,,,,,,,,,,,,,,,,,582.2148394139949,582.2148394139949,582.2148394139949,582.2148394139949,582.2148394139949,582.2148394139949,582.2148394139949,582.2148394139949,582.2148394139949,582.2148394139949,a,2.7999826700106496,1,623,2,585.033721328,586.5349255320034,,,,,,,,,,,,,,,,,,,,,,,,,,,,,,,,,,,,,,,,,,,,,,,,,,,,,,,,,,,,,,,,,,,,,40134,2022-10-26_10h17.28.658,vts_reward_expectancy_bt_OFFLINE,2022.2.4,59.941981557265514,
0,0,0,1,1,0,0,0,star,triangle,2,0,2,0,2,8,32,9,,,,,,,,,,,,,,,,,,,,,,,,,,,,,,,,,,,,,,,,587.0350194630009,587.0350194630009,587.0350194630009,587.0350194630009,587.0350194630009,587.0350194630009,587.0350194630009,587.0350194630009,587.0350194630009,587.0350194630009,a,0.907741924005677,10,633,2,587.9719616549992,589.4692801199999,,,,,,,,,,,,,,,,,,,,,,,,,,,,,,,,,,,,,,,,,,,,,,,,,,,,,,,,,,,,,,,,,,,,,40134,2022-10-26_10h17.28.658,vts_reward_expectancy_bt_OFFLINE,2022.2.4,59.941981557265514,
0,1,0,0,0,0,0,1,circle,star,2,0,2,0,2,9,33,5,,,,,,,,,,,,,,,,,,,,,,,,,,,,,,,,,,,,,,,,589.9696349809965,589.9696349809965,589.9696349809965,589.9696349809965,589.9696349809965,589.9696349809965,589.9696349809965,589.9696349809965,589.9696349809965,589.9696349809965,l,0.9980120840191375,1,634,2,590.9916228929942,592.5057046199945,,,,,,,,,,,,,,,,,,,,,,,,,,,,,,,,,,,,,,,,,,,,,,,,,,,,,,,,,,,,,,,,,,,,,40134,2022-10-26_10h17.28.658,vts_reward_expectancy_bt_OFFLINE,2022.2.4,59.941981557265514,
0,0,1,0,0,1,0,0,hexagon,circle,2,0,2,0,2,10,34,7,,,,,,,,,,,,,,,,,,,,,,,,,,,,,,,,,,,,,,,,592.9892607770016,592.9892607770016,592.9892607770016,592.9892607770016,592.9892607770016,592.9892607770016,592.9892607770016,592.9892607770016,592.9892607770016,592.9892607770016,l,1.2176649090106366,10,644,2,594.2426842849964,595.7584412720025,,,,,,,,,,,,,,,,,,,,,,,,,,,,,,,,,,,,,,,,,,,,,,,,,,,,,,,,,,,,,,,,,,,,,40134,2022-10-26_10h17.28.658,vts_reward_expectancy_bt_OFFLINE,2022.2.4,59.941981557265514,
1,0,0,0,0,1,0,0,triangle,circle,2,0,2,0,2,11,35,0,,,,,,,,,,,,,,,,,,,,,,,,,,,,,,,,,,,,,,,,596.2588160629966,596.2588160629966,596.2588160629966,596.2588160629966,596.2588160629966,596.2588160629966,596.2588160629966,596.2588160629966,596.2588160629966,596.2588160629966,l,1.3322486280085286,1,645,2,597.6127175339934,599.1262188029941,,,,,,,,,,,,,,,,,,,,,,,,,,,,,,,,,,,,,,,,,,,,,,,,,,,,,,,,,,,,,,,,,,,,,40134,2022-10-26_10h17.28.658,vts_reward_expectancy_bt_OFFLINE,2022.2.4,59.941981557265514,
0,1,0,0,1,0,0,0,circle,triangle,2,0,2,0,3,0,36,3,,,,,,,,,,,,,,,,,,,,,,,,,,,,,,,,,,,,,,,,599.6263698550028,599.6263698550028,599.6263698550028,599.6263698550028,599.6263698550028,599.6263698550028,599.6263698550028,599.6263698550028,599.6263698550028,599.6263698550028,a,1.5328492870175978,10,655,2,601.181828640998,602.6795603880018,,,,,,,,,,,,,,,,,,,,,,,,,,,,,,,,,,,,,,,,,,,,,,,,,,,,,,,,,,,,,,,,,,,,,40134,2022-10-26_10h17.28.658,vts_reward_expectancy_bt_OFFLINE,2022.2.4,59.941981557265514,
0,0,0,1,0,0,1,0,star,hexagon,2,0,2,0,3,1,37,11,,,,,,,,,,,,,,,,,,,,,,,,,,,,,,,,,,,,,,,,603.1796956280014,603.1796956280014,603.1796956280014,603.1796956280014,603.1796956280014,603.1796956280014,603.1796956280014,603.1796956280014,603.1796956280014,603.1796956280014,l,4.963415029007592,1,656,2,608.1698166589922,609.6674468819983,,,,,,,,,,,,,,,,,,,,,,,,,,,,,,,,,,,,,,,,,,,,,,,,,,,,,,,,,,,,,,,,,,,,,40134,2022-10-26_10h17.28.658,vts_reward_expectancy_bt_OFFLINE,2022.2.4,59.941981557265514,
1,0,0,0,0,0,1,0,triangle,hexagon,2,0,2,0,3,2,38,1,,,,,,,,,,,,,,,,,,,,,,,,,,,,,,,,,,,,,,,,610.1671717939898,610.1671717939898,610.1671717939898,610.1671717939898,610.1671717939898,610.1671717939898,610.1671717939898,610.1671717939898,610.1671717939898,610.1671717939898,a,2.4156728660018416,10,666,2,612.6068114469963,614.1206151959923,,,,,,,,,,,,,,,,,,,,,,,,,,,,,,,,,,,,,,,,,,,,,,,,,,,,,,,,,,,,,,,,,,,,,40134,2022-10-26_10h17.28.658,vts_reward_expectancy_bt_OFFLINE,2022.2.4,59.941981557265514,
0,0,0,1,1,0,0,0,star,triangle,2,0,2,0,3,3,39,9,,,,,,,,,,,,,,,,,,,,,,,,,,,,,,,,,,,,,,,,614.6040811919956,614.6040811919956,614.6040811919956,614.6040811919956,614.6040811919956,614.6040811919956,614.6040811919956,614.6040811919956,614.6040811919956,614.6040811919956,a,1.7551004260021728,10,676,2,616.3920596009993,617.9071555830014,,,,,,,,,,,,,,,,,,,,,,,,,,,,,,,,,,,,,,,,,,,,,,,,,,,,,,,,,,,,,,,,,,,,,40134,2022-10-26_10h17.28.658,vts_reward_expectancy_bt_OFFLINE,2022.2.4,59.941981557265514,
0,0,0,1,0,1,0,0,star ,circle,2,0,2,0,3,4,40,10,,,,,,,,,,,,,,,,,,,,,,,,,,,,,,,,,,,,,,,,618.4073164619913,618.4073164619913,618.4073164619913,618.4073164619913,618.4073164619913,618.4073164619913,618.4073164619913,618.4073164619913,618.4073164619913,618.4073164619913,a,1.479770277015632,10,686,2,619.9089234929997,621.4102307189896,,,,,,,,,,,,,,,,,,,,,,,,,,,,,,,,,,,,,,,,,,,,,,,,,,,,,,,,,,,,,,,,,,,,,40134,2022-10-26_10h17.28.658,vts_reward_expectancy_bt_OFFLINE,2022.2.4,59.941981557265514,
1,0,0,0,0,1,0,0,triangle,circle,2,0,2,0,3,5,41,0,,,,,,,,,,,,,,,,,,,,,,,,,,,,,,,,,,,,,,,,621.9103812849935,621.9103812849935,621.9103812849935,621.9103812849935,621.9103812849935,621.9103812849935,621.9103812849935,621.9103812849935,621.9103812849935,621.9103812849935,l,0.936490114996559,10,696,2,622.8791240299906,624.3781346129981,624.3781346129981,624.8782662759913,,,,,,,,,,,,,,,,,,,,,,,,,,,,,,,,,,,,,,,,,,,,,,,,,,,,,,,,,,,,,,,,,,,40134,2022-10-26_10h17.28.658,vts_reward_expectancy_bt_OFFLINE,2022.2.4,59.941981557265514,
0,0,1,0,1,0,0,0,hexagon,triangle,2,0,2,0,3,6,42,6,,,,,,,,,,,,,,,,,,,,,,,,,,,,,,,,,,,,,,,,624.8782662759913,624.8782662759913,624.8782662759913,624.8782662759913,624.8782662759913,624.8782662759913,624.8782662759913,624.8782662759913,624.8782662759913,624.8782662759913,a,1.608314267010428,1,697,2,626.517609262999,628.0314213940001,,,,,,,,,,,,,,,,,,,,,,,,,,,,,,,,,,,,,,,,,,,,,,,,,,,,,,,,,,,,,,,,,,,,,40134,2022-10-26_10h17.28.658,vts_reward_expectancy_bt_OFFLINE,2022.2.4,59.941981557265514,
0,0,1,0,0,1,0,0,hexagon,circle,2,0,2,0,3,7,43,7,,,,,,,,,,,,,,,,,,,,,,,,,,,,,,,,,,,,,,,,628.5314999690017,628.5314999690017,628.5314999690017,628.5314999690017,628.5314999690017,628.5314999690017,628.5314999690017,628.5314999690017,628.5314999690017,628.5314999690017,a,1.547663919016486,10,707,2,630.1019702399935,631.6009704949975,,,,,,,,,,,,,,,,,,,,,,,,,,,,,,,,,,,,,,,,,,,,,,,,,,,,,,,,,,,,,,,,,,,,,40134,2022-10-26_10h17.28.658,vts_reward_expectancy_bt_OFFLINE,2022.2.4,59.941981557265514,
0,1,0,0,0,0,1,0,circle,hexagon,2,0,2,0,3,8,44,4,,,,,,,,,,,,,,,,,,,,,,,,,,,,,,,,,,,,,,,,632.1012038689951,632.1012038689951,632.1012038689951,632.1012038689951,632.1012038689951,632.1012038689951,632.1012038689951,632.1012038689951,632.1012038689951,632.1012038689951,l,1.6172215350088663,10,717,2,633.7370640699955,635.252331205993,,,,,,,,,,,,,,,,,,,,,,,,,,,,,,,,,,,,,,,,,,,,,,,,,,,,,,,,,,,,,,,,,,,,,40134,2022-10-26_10h17.28.658,vts_reward_expectancy_bt_OFFLINE,2022.2.4,59.941981557265514,
1,0,0,0,0,0,0,1,triangle,star,2,0,2,0,3,9,45,2,,,,,,,,,,,,,,,,,,,,,,,,,,,,,,,,,,,,,,,,635.7374397340027,635.7374397340027,635.7374397340027,635.7374397340027,635.7374397340027,635.7374397340027,635.7374397340027,635.7374397340027,635.7374397340027,635.7374397340027,l,1.3258016070030862,10,727,2,637.0898662429972,638.6055397320015,,,,,,,,,,,,,,,,,,,,,,,,,,,,,,,,,,,,,,,,,,,,,,,,,,,,,,,,,,,,,,,,,,,,,40134,2022-10-26_10h17.28.658,vts_reward_expectancy_bt_OFFLINE,2022.2.4,59.941981557265514,
0,0,1,0,0,0,0,1,hexagon,star,2,0,2,0,3,10,46,8,,,,,,,,,,,,,,,,,,,,,,,,,,,,,,,,,,,,,,,,639.1057570449921,639.1057570449921,639.1057570449921,639.1057570449921,639.1057570449921,639.1057570449921,639.1057570449921,639.1057570449921,639.1057570449921,639.1057570449921,l,2.6935548260080395,1,728,2,641.828447131993,643.342006588995,,,,,,,,,,,,,,,,,,,,,,,,,,,,,,,,,,,,,,,,,,,,,,,,,,,,,,,,,,,,,,,,,,,,,40134,2022-10-26_10h17.28.658,vts_reward_expectancy_bt_OFFLINE,2022.2.4,59.941981557265514,
0,1,0,0,0,0,0,1,circle,star,2,0,2,0,3,11,47,5,,,,,,,,,,,,,,,,,,,,,,,,,,,,,,,,,,,,,,,,643.8422783069982,643.8422783069982,643.8422783069982,643.8422783069982,643.8422783069982,643.8422783069982,643.8422783069982,643.8422783069982,643.8422783069982,643.8422783069982,l,1.308411309015355,10,738,2,645.1795067409985,646.6783874419925,,,,,,,,,,,,,,,,,,,,,,,,,,,,,,,,,,,,,,,,,,,,,,,,,,,,,,,,,,,,,,,,,,,,,40134,2022-10-26_10h17.28.658,vts_reward_expectancy_bt_OFFLINE,2022.2.4,59.941981557265514,
,,,,,,,,,,,,,,,,,,0,0,0,0,0,0,0,0,,,,,,,,,,,,,,,,,,,,,,,,,,,,,,,,,,,,,,,,,,,,,,,,686.3573018929892,,,B,181,star,0.0026183919981122017,681.7996719520015,683.2881818309979,683.2881818309979,683.2881818309979,1,0,d,1.5427089620061452,0,684.8589609170012,,,,,,,,,,,,,,,,,,,,,,,,,,,,,,,,,,,,,,,,,,,,,,,,,,,,,40134,2022-10-26_10h17.28.658,vts_reward_expectancy_bt_OFFLINE,2022.2.4,59.941981557265514,
,,,,,,,,,,,,,,,,,,0,0,0,0,1,0,1,0,,,,,,,,,,,,,,,,,,,,,,,,,,,,,,,,,,,,,,,,,,,,,,,,693.3617508180032,,,W,160,circle,0.0019558880012482405,687.3530324019957,688.8418245039938,688.8418245039938,688.8418245039938,0,0,None,,0,691.861871563,691.8448866099934,691.8448866099934,691.8448866099934,,,,,,,,,,,,,,,,,,,,,,,,,,,,,,,,,,,,,,,,,,,,,,,,,,40134,2022-10-26_10h17.28.658,vts_reward_expectancy_bt_OFFLINE,2022.2.4,59.941981557265514,
,,,,,,,,,,,,,,,,,,0,0,0,0,2,0,2,0,,,,,,,,,,,,,,,,,,,,,,,,,,,,,,,,,,,,,,,,,,,,,,,,698.8158004549914,,,F,174,triangle,0.006138853001175448,694.357786773995,695.8477122309996,695.8477122309996,695.8477122309996,1,1,d,1.431138534011552,0,697.3020182369946,,,,,,,,,,,,,,,,,,,,,,,,,,,,,,,,,,,,,,,,,,,,,,,,,,,,,40134,2022-10-26_10h17.28.658,vts_reward_expectancy_bt_OFFLINE,2022.2.4,59.941981557265514,
,,,,,,,,,,,,,,,,,,0,0,0,0,3,0,3,0,,,,,,,,,,,,,,,,,,,,,,,,,,,,,,,,,,,,,,,,,,,,,,,,703.486064894998,,,D,139,hexagon,0.01671002099465113,699.811876901993,701.2850163539988,701.2850163539988,701.2850163539988,1,0,d,0.6658895730070071,0,701.9704053589958,,,,,,,,,,,,,,,,,,,,,,,,,,,,,,,,,,,,,,,,,,,,,,,,,,,,,40134,2022-10-26_10h17.28.658,vts_reward_expectancy_bt_OFFLINE,2022.2.4,59.941981557265514,
,,,,,,,,,,,,,,,,,,0,0,0,0,4,0,4,0,,,,,,,,,,,,,,,,,,,,,,,,,,,,,,,,,,,,,,,,,,,,,,,,708.1892204239994,,,U,132,star,0.01662708999356255,704.4820238709945,705.955153279996,705.955153279996,705.955153279996,1,0,f,0.6996845050161937,0,706.6739676720026,,,,,,,,,,,,,,,,,,,,,,,,,,,,,,,,,,,,,,,,,,,,,,,,,,,,,40134,2022-10-26_10h17.28.658,vts_reward_expectancy_bt_OFFLINE,2022.2.4,59.941981557265514,
,,,,,,,,,,,,,,,,,,0,0,0,0,5,0,5,0,,,,,,,,,,,,,,,,,,,,,,,,,,,,,,,,,,,,,,,,,,,,,,,,712.8929380979971,,,Y,146,circle,0.016765941996709444,709.1851864589989,710.6584608319972,710.6584608319972,710.6584608319972,1,0,f,0.7163777500099968,0,711.3938016619941,,,,712.8929380979971,,,,,,,,,,,,,,,,,,,,,,,,,,,,,,,,,,,,,,,,,,,,,,,,,40134,2022-10-26_10h17.28.658,vts_reward_expectancy_bt_OFFLINE,2022.2.4,59.941981557265514,
,,,,,,,,,,,,,,,,,,0,0,0,0,6,0,6,0,,,,,,,,,,,,,,,,,,,,,,,,,,,,,,,,,,,,,,,,,,,,,,,,718.2800213790033,,,S,125,hexagon,0.0005770970019511878,713.8889874879969,715.3772233479976,715.3772233479976,715.3772233479976,0,0,d,1.3652065520145698,0,716.7664263319894,,,,,,,,,,,,,,,,,,,,,,,,,,,,,,,,,,,,,,,,,,,,,,,,,,,,,40134,2022-10-26_10h17.28.658,vts_reward_expectancy_bt_OFFLINE,2022.2.4,59.941981557265514,
,,,,,,,,,,,,,,,,,,0,0,0,0,7,0,7,0,,,,,,,,,,,,,,,,,,,,,,,,,,,,,,,,,,,,,,,,,,,,,,,,723.1003558169905,,,H,167,triangle,0.016787703993031755,719.2760027199984,720.749282535995,720.749282535995,720.749282535995,1,1,d,0.8094665920070838,0,721.5864252559986,,,,,,,,,,,,,,,,,,,,,,,,,,,,,,,,,,,,,,,,,,,,,,,,,,,,,40134,2022-10-26_10h17.28.658,vts_reward_expectancy_bt_OFFLINE,2022.2.4,59.941981557265514,
,,,,,,,,,,,,,,,,,,0,0,0,0,8,0,8,0,,,,,,,,,,,,,,,,,,,,,,,,,,,,,,,,,,,,,,,,,,,,,,,,727.7871330839989,,,B,181,hexagon,0.01642290900053922,724.09584652599,725.5715758979932,725.5715758979932,725.5715758979932,1,0,d,0.6667282440030249,0,726.2717553190014,,,,,,,,,,,,,,,,,,,,,,,,,,,,,,,,,,,,,,,,,,,,,,,,,,,,,40134,2022-10-26_10h17.28.658,vts_reward_expectancy_bt_OFFLINE,2022.2.4,59.941981557265514,
,,,,,,,,,,,,,,,,,,0,0,0,0,9,0,9,0,,,,,,,,,,,,,,,,,,,,,,,,,,,,,,,,,,,,,,,,,,,,,,,,732.9412115930027,,,W,160,circle,0.016753478994360194,728.7822155679896,730.2547064039973,730.2547064039973,730.2547064039973,1,0,f,1.144595586010837,0,731.4255819769896,,,,,,,,,,,,,,,,,,,,,,,,,,,,,,,,,,,,,,,,,,,,,,,,,,,,,40134,2022-10-26_10h17.28.658,vts_reward_expectancy_bt_OFFLINE,2022.2.4,59.941981557265514,
,,,,,,,,,,,,,,,,,,1,0,1,0,0,0,0,0,,,,,,,,,,,,,,,,,,,,,,,,,,,,,,,,,,,,,,,,,,,,,,,,763.9461062789924,,,H,139,triangle,0.0009611990099074319,758.655341574995,760.1431170659926,760.1431170659926,760.1431170659926,1,0,d,2.2560518969985424,1,762.4310922089935,,,,,,,,,,,,,,,,,,,,,,,,,,,,,,,,,,,,,,,,,,,,,,,,,,,,,40134,2022-10-26_10h17.28.658,vts_reward_expectancy_bt_OFFLINE,2022.2.4,59.941981557265514,
,,,,,,,,,,,,,,,,,,1,0,1,0,1,0,1,0,,,,,,,,,,,,,,,,,,,,,,,,,,,,,,,,,,,,,,,,,,,,,,,,769.25026067,,,W,167,circle,0.017057167991879396,764.9426134279929,766.4156447159912,766.4156447159912,766.4156447159912,1,0,f,1.2869134659995325,1,767.7351681239961,,,,,,,,,,,,,,,,,,,,,,,,,,,,,,,,,,,,,,,,,,,,,,,,,,,,,40134,2022-10-26_10h17.28.658,vts_reward_expectancy_bt_OFFLINE,2022.2.4,59.941981557265514,
,,,,,,,,,,,,,,,,,,1,0,1,0,2,0,2,0,,,,,,,,,,,,,,,,,,,,,,,,,,,,,,,,,,,,,,,,,,,,,,,,774.0868651219935,,,Y,181,hexagon,0.01677333099360112,770.2461431679985,771.7194573960005,771.7194573960005,771.7194573960005,1,0,f,0.8318667840067064,1,772.5757488259987,,,,,,,,,,,,,,,,,,,,,,,,,,,,,,,,,,,,,,,,,,,,,,,,,,,,,40134,2022-10-26_10h17.28.658,vts_reward_expectancy_bt_OFFLINE,2022.2.4,59.941981557265514,
,,,,,,,,,,,,,,,,,,1,0,1,0,3,0,3,0,,,,,,,,,,,,,,,,,,,,,,,,,,,,,,,,,,,,,,,,,,,,,,,,778.8739724799962,,779.3739304269984,S,160,star,0.009356273993034847,775.0827081879979,776.5730725600006,776.5730725600006,776.5730725600006,0,0,d,0.778462001006119,1,777.3766759040009,,,,,,,,,,,,,,,,,,,,,,,,,,,,,,,,,,,,,,,,,,,,,,,,,,,,,40134,2022-10-26_10h17.28.658,vts_reward_expectancy_bt_OFFLINE,2022.2.4,59.941981557265514,
,,,,,,,,,,,,,,,,,,1,0,1,0,4,0,4,0,,,,,,,,,,,,,,,,,,,,,,,,,,,,,,,,,,,,,,,,,,,,,,,,783.5106684229977,,,D,146,circle,0.0005665610078722239,779.8700116580003,781.3596661170013,781.3596661170013,781.3596661170013,1,1,d,0.6148664670035942,1,781.9967468800023,,,,,,,,,,,,,,,,,,,,,,,,,,,,,,,,,,,,,,,,,,,,,,,,,,,,,40134,2022-10-26_10h17.28.658,vts_reward_expectancy_bt_OFFLINE,2022.2.4,59.941981557265514,
,,,,,,,,,,,,,,,,,,1,0,1,0,5,0,5,0,,,,,,,,,,,,,,,,,,,,,,,,,,,,,,,,,,,,,,,,,,,,,,,,789.1814406369958,,,F,174,hexagon,0.016688396004610695,784.5060027739964,785.9801316789963,785.9801316789963,785.9801316789963,1,0,d,1.6673080300097354,1,787.6661705890001,,,,,,,,,,,,,,,,,,,,,,,,,,,,,,,,,,,,,,,,,,,,,,,,,,,,,40134,2022-10-26_10h17.28.658,vts_reward_expectancy_bt_OFFLINE,2022.2.4,59.941981557265514,
,,,,,,,,,,,,,,,,,,1,0,1,0,6,0,6,0,,,,,,,,,,,,,,,,,,,,,,,,,,,,,,,,,,,,,,,,,,,,,,,,793.7346204069909,,794.2349791489978,B,132,star,0.01688813699001912,790.1771520479961,791.6506594879902,791.6506594879902,791.6506594879902,1,0,d,0.5563294880121248,1,792.235828031,,,,,,,,,,,,,,,,,,,,,,,,,,,,,,,,,,,,,,,,,,,,,,,,,,,,,40134,2022-10-26_10h17.28.658,vts_reward_expectancy_bt_OFFLINE,2022.2.4,59.941981557265514,
,,,,,,,,,,,,,,,,,,1,0,1,0,7,0,7,0,,,,,,,,,,,,,,,,,,,,,,,,,,,,,,,,,,,,,,,,,,,,,,,,798.6382347049948,,,U,125,triangle,0.0004662229912355542,794.7304414340033,796.2206060019962,796.2206060019962,796.2206060019962,1,0,f,0.8823051060171565,1,797.1228678119951,,,,,,,,,,,,,,,,,,,,,,,,,,,,,,,,,,,,,,,,,,,,,,,,,,,,,40134,2022-10-26_10h17.28.658,vts_reward_expectancy_bt_OFFLINE,2022.2.4,59.941981557265514,
,,,,,,,,,,,,,,,,,,1,0,1,0,8,0,8,0,,,,,,,,,,,,,,,,,,,,,,,,,,,,,,,,,,,,,,,,,,,,,,,,803.391747103,,,H,139,triangle,0.017186664990731515,799.6335979970027,801.1075884979946,801.1075884979946,801.1075884979946,1,0,d,0.7388823510118527,1,801.8764435549965,,,,,,,,,,,,,,,,,,,,,,,,,,,,,,,,,,,,,,,,,,,,,,,,,,,,,40134,2022-10-26_10h17.28.658,vts_reward_expectancy_bt_OFFLINE,2022.2.4,59.941981557265514,
,,,,,,,,,,,,,,,,,,1,0,1,0,9,0,9,0,,,,,,,,,,,,,,,,,,,,,,,,,,,,,,,,,,,,,,,,,,,,,,,,808.6791046879953,,,W,167,hexagon,0.01674569300666917,804.3871640369907,805.861375523993,805.861375523993,805.861375523993,1,0,f,1.2731110800232273,1,807.1636923030019,,,,,,,,,,,,,,,,,,,,,,,,,,,,,,,,,,,,,,,,,,,,,,,,,,,,,40134,2022-10-26_10h17.28.658,vts_reward_expectancy_bt_OFFLINE,2022.2.4,59.941981557265514,
,,,,,,,,,,,,,,,,,,,,,,,,,,0,0,0,0,0,0,0,0,,,,,,,,,,,,,,,,,,,,,,,,,,,,,,,,,,,,,,,,850.0085851170006,,,S,125,circle,0.004693283000960946,,,,,1,0,,,2,848.4935459709959,,,,,846.0651039660006,847.5575402019895,847.5575402019895,847.5575402019895,j,0.9131562360125827,,,,,,,,,,,,,,,,,,,,,,,,,,,,,,,,,,,,,,,,,,,40134,2022-10-26_10h17.28.658,vts_reward_expectancy_bt_OFFLINE,2022.2.4,59.941981557265514,
,,,,,,,,,,,,,,,,,,,,,,,,,,0,0,0,0,1,0,1,0,,,,,,,,,,,,,,,,,,,,,,,,,,,,,,,,,,,,,,,,854.9453308489901,,,B,160,hexagon,0.016810390006867237,,,,,1,0,,,2,853.4299232460035,,,,,851.0040275259962,852.4781130600022,852.4781130600022,852.4781130600022,k,0.928370828012703,,,,,,,,,,,,,,,,,,,,,,,,,,,,,,,,,,,,,,,,,,,40134,2022-10-26_10h17.28.658,vts_reward_expectancy_bt_OFFLINE,2022.2.4,59.941981557265514,
,,,,,,,,,,,,,,,,,,,,,,,,,,0,0,0,0,2,0,2,0,,,,,,,,,,,,,,,,,,,,,,,,,,,,,,,,,,,,,,,,860.3493278079986,,,D,174,star,0.0003859429998556152,,,,,1,0,,,2,858.8340502689971,,,,,855.9243514839909,857.4150387150003,857.4150387150003,857.4150387150003,k,1.3926218370179413,,,,,,,,,,,,,,,,,,,,,,,,,,,,,,,,,,,,,,,,,,,40134,2022-10-26_10h17.28.658,vts_reward_expectancy_bt_OFFLINE,2022.2.4,59.941981557265514,
,,,,,,,,,,,,,,,,,,,,,,,,,,0,0,0,0,3,0,3,0,,,,,,,,,,,,,,,,,,,,,,,,,,,,,,,,,,,,,,,,865.4193281129992,,,U,146,triangle,0.0020946300064679235,,,,,1,0,,,2,863.9044576000015,,,,,861.3290679119964,862.8188374399906,862.8188374399906,862.8188374399906,j,1.0526401680108393,,,,,,,,,,,,,,,,,,,,,,,,,,,,,,,,,,,,,,,,,,,40134,2022-10-26_10h17.28.658,vts_reward_expectancy_bt_OFFLINE,2022.2.4,59.941981557265514,
,,,,,,,,,,,,,,,,,,,,,,,,,,0,0,0,0,4,0,4,0,,,,,,,,,,,,,,,,,,,,,,,,,,,,,,,,,,,,,,,,870.2400125999993,,,H,139,star,0.001881624004454352,,,,,1,0,,,2,868.7247879630013,,,,,866.3996716289985,867.889021474999,867.889021474999,867.889021474999,j,0.8138334500108613,,,,,,,,,,,,,,,,,,,,,,,,,,,,,,,,,,,,,,,,,,,40134,2022-10-26_10h17.28.658,vts_reward_expectancy_bt_OFFLINE,2022.2.4,59.941981557265514,
,,,,,,,,,,,,,,,,,,,,,,,,,,0,0,0,0,5,0,5,0,,,,,,,,,,,,,,,,,,,,,,,,,,,,,,,,,,,,,,,,874.8932732199901,,,F,181,hexagon,0.0017940580000868067,,,,,1,0,,,2,873.3786095599935,,,,,871.219725485993,872.7095607689989,872.7095607689989,872.7095607689989,k,0.6488377190107713,,,,,,,,,,,,,,,,,,,,,,,,,,,,,,,,,,,,,,,,,,,40134,2022-10-26_10h17.28.658,vts_reward_expectancy_bt_OFFLINE,2022.2.4,59.941981557265514,
,,,,,,,,,,,,,,,,,,,,,,,,,,0,0,0,0,6,0,6,0,,,,,,,,,,,,,,,,,,,,,,,,,,,,,,,,,,,,,,,,879.6803288459923,,,W,167,circle,0.016595200999290682,,,,,1,0,,,2,878.1653316699958,,,,,875.8890880349936,877.3628242479899,877.3628242479899,877.3628242479899,k,0.7714797630178509,,,,,,,,,,,,,,,,,,,,,,,,,,,,,,,,,,,,,,,,,,,40134,2022-10-26_10h17.28.658,vts_reward_expectancy_bt_OFFLINE,2022.2.4,59.941981557265514,
,,,,,,,,,,,,,,,,,,,,,,,,,,0,0,0,0,7,0,7,0,,,,,,,,,,,,,,,,,,,,,,,,,,,,,,,,,,,,,,,,884.3836545779923,,,Y,132,triangle,0.01675170799717307,,,,,1,0,,,2,882.8684414509917,,,,,880.6754242519964,882.1494873399934,882.1494873399934,882.1494873399934,j,0.6890242480149027,,,,,,,,,,,,,,,,,,,,,,,,,,,,,,,,,,,,,,,,,,,40134,2022-10-26_10h17.28.658,vts_reward_expectancy_bt_OFFLINE,2022.2.4,59.941981557265514,
,,,,,,,,,,,,,,,,,,,,,,,,,,0,0,0,0,8,0,8,0,,,,,,,,,,,,,,,,,,,,,,,,,,,,,,,,,,,,,,,,889.0038352470001,,889.5039178570005,S,125,hexagon,0.016675980004947633,,,,,1,0,,,2,887.503711213998,,,,889.0038352470001,885.3789108850033,886.8530862359912,886.8530862359912,886.8530862359912,j,0.618373261007946,,,,,,,,,,,,,,,,,,,,,,,,,,,,,,,,,,,,,,,,,,,40134,2022-10-26_10h17.28.658,vts_reward_expectancy_bt_OFFLINE,2022.2.4,59.941981557265514,
,,,,,,,,,,,,,,,,,,,,,,,,,,0,0,0,0,9,0,9,0,,,,,,,,,,,,,,,,,,,,,,,,,,,,,,,,,,,,,,,,894.1910330230021,,,B,160,triangle,0.014222935002180748,,,,,1,0,,,2,892.6756422609906,,,,,890.0159667519911,891.4898784599936,891.4898784599936,891.4898784599936,k,1.1566722550051054,,,,,,,,,,,,,,,,,,,,,,,,,,,,,,,,,,,,,,,,,,,40134,2022-10-26_10h17.28.658,vts_reward_expectancy_bt_OFFLINE,2022.2.4,59.941981557265514,
,,,,,,,,,,,,,,,,,,,,,,,,,,,,,,,,,,0,0,0,0,0,0,0,0,,,,,,,,,,,,,,,,,,,,,,,,,,,,0,738,,,936.622654879,,,U,139,triangle,0.0025024540082085878,,,,,1,0,,,3,,,,,,,,,,,,931.4152421239996,931.4152421239996,931.4152421239996,931.4152421239996,932.9027057200001,932.9027057200001,932.9027057200001,932.9027057200001,932.9195729839994,932.9195729839994,932.9195729839994,932.9195729839994,-1,number,NA,j,2.199709921012982,vtsPrac,935.1244000189909,,,,,,,,,,,,,,,,,,,,,,,,40134,2022-10-26_10h17.28.658,vts_reward_expectancy_bt_OFFLINE,2022.2.4,59.941981557265514,
,,,,,,,,,,,,,,,,,,,,,,,,,,,,,,,,,,0,0,0,0,1,0,1,0,,,,,,,,,,,,,,,,,,,,,,,,,,,,0,738,,,943.143572105997,,,H,167,circle,0.0016631719918223098,,,,,1,0,,,3,,,,,,,,,,,,937.6185177169973,937.6185177169973,937.6185177169973,937.6185177169973,939.1068222390022,939.1068222390022,939.1068222390022,939.1068222390022,939.1234751199954,939.1234751199954,939.1234751199954,939.1234751199954,switch,letter,lettSwt,d,2.4927310240163933,vtsPrac,941.6286482769938,,,,,,,,,,,,,,,,,,,,,,,,40134,2022-10-26_10h17.28.658,vts_reward_expectancy_bt_OFFLINE,2022.2.4,59.941981557265514,
,,,,,,,,,,,,,,,,,,,,,,,,,,,,,,,,,,0,0,0,0,2,0,2,0,,,,,,,,,,,,,,,,,,,,,,,,,,,,0,738,,,949.530831170996,,,W,132,star,0.01682687900029123,,,,,1,0,,,3,,,,,,,,,,,,944.139849026993,944.139849026993,944.139849026993,944.139849026993,945.6108627499925,945.6108627499925,945.6108627499925,945.6108627499925,945.6443570050033,945.6443570050033,945.6443570050033,945.6443570050033,switch,number,numSwt,j,2.3800641170237213,vtsPrac,948.0163130220026,,,,,,,,,,,,,,,,,,,,,,,,40134,2022-10-26_10h17.28.658,vts_reward_expectancy_bt_OFFLINE,2022.2.4,59.941981557265514,
,,,,,,,,,,,,,,,,,,,,,,,,,,,,,,,,,,0,0,0,0,3,0,3,0,,,,,,,,,,,,,,,,,,,,,,,,,,,,0,738,,,954.8014377989894,,,F,181,hexagon,0.016596693007159047,,,,,1,0,,,3,,,,,,,,,,,,950.5271007150004,950.5271007150004,950.5271007150004,950.5271007150004,952.0005102029972,952.0005102029972,952.0005102029972,952.0005102029972,952.0336449960014,952.0336449960014,952.0336449960014,952.0336449960014,switch,letter,lettSwt,d,1.254657223020331,vtsPrac,953.2865571220027,,,,,,,,,,,,,,,,,,,,,,,,40134,2022-10-26_10h17.28.658,vts_reward_expectancy_bt_OFFLINE,2022.2.4,59.941981557265514,
,,,,,,,,,,,,,,,,,,,,,,,,,,,,,,,,,,0,0,0,0,4,0,4,0,,,,,,,,,,,,,,,,,,,,,,,,,,,,0,738,,,960.7903189380013,,,U,139,triangle,0.0003457650018390268,,,,,1,0,,,3,,,,,,,,,,,,955.7808262820035,955.7808262820035,955.7808262820035,955.7808262820035,957.2707444219996,957.2707444219996,957.2707444219996,957.2707444219996,957.2876850350003,957.2876850350003,957.2876850350003,957.2876850350003,repeat,letter,lettRpt,f,1.9996001930121565,vtsPrac,959.2907044839958,,,,,,,,,,,,,,,,,,,,,,,,40134,2022-10-26_10h17.28.658,vts_reward_expectancy_bt_OFFLINE,2022.2.4,59.941981557265514,
,,,,,,,,,,,,,,,,,,,,,,,,,,,,,,,,,,0,0,0,0,5,0,5,0,,,,,,,,,,,,,,,,,,,,,,,,,,,,0,738,,,967.2283542849909,,,H,167,star,0.0019080530037172139,,,,,0,0,,,3,,,,,,,,,,,,961.7855087829957,961.7855087829957,961.7855087829957,961.7855087829957,963.2749079709902,963.2749079709902,963.2749079709902,963.2749079709902,963.2916413089988,963.2916413089988,963.2916413089988,963.2916413089988,repeat,letter,NA,f,2.427437391001149,vtsPrac,965.7244129180035,,,,,,,,,,,,,,,,,,,,,,,,40134,2022-10-26_10h17.28.658,vts_reward_expectancy_bt_OFFLINE,2022.2.4,59.941981557265514,
,,,,,,,,,,,,,,,,,,,,,,,,,,,,,,,,,,0,0,0,0,6,0,6,0,,,,,,,,,,,,,,,,,,,,,,,,,,,,0,738,,,971.9482432799996,,972.4486321739969,W,132,star,0.00525063399982173,,,,,1,1,,,3,,,,,,,,,,,,968.2236137299915,968.2236137299915,968.2236137299915,968.2236137299915,969.7123070109956,969.7123070109956,969.7123070109956,969.7123070109956,969.7290403189982,969.7290403189982,969.7290403189982,969.7290403189982,switch,number,numSwt,j,0.7019474450062262,vtsPrac,970.4489187119907,971.9482432799996,,,,,,,,,,,,,,,,,,,,,,,40134,2022-10-26_10h17.28.658,vts_reward_expectancy_bt_OFFLINE,2022.2.4,59.941981557265514,
,,,,,,,,,,,,,,,,,,,,,,,,,,,,,,,,,,0,0,0,0,7,0,7,0,,,,,,,,,,,,,,,,,,,,,,,,,,,,0,738,,,977.5357147369941,,,F,181,hexagon,-0.0005028509913245216,,,,,1,0,,,3,,,,,,,,,,,,972.9437055149901,972.9437055149901,972.9437055149901,972.9437055149901,974.4324414419971,974.4324414419971,974.4324414419971,974.4324414419971,974.4493261519965,974.4493261519965,974.4493261519965,974.4493261519965,switch,letter,lettSwt,d,1.5671410010108957,vtsPrac,976.020094270003,,,,,,,,,,,,,,,,,,,,,,,,40134,2022-10-26_10h17.28.658,vts_reward_expectancy_bt_OFFLINE,2022.2.4,59.941981557265514,
,,,,,,,,,,,,,,,,,,,,,,,,,,,,,,,,,,0,0,0,0,8,0,8,0,,,,,,,,,,,,,,,,,,,,,,,,,,,,0,738,,,982.6559566279902,,,F,132,hexagon,0.017197947992826812,,,,,1,0,,,3,,,,,,,,,,,,978.5307223989948,978.5307223989948,978.5307223989948,978.5307223989948,980.0029085790011,980.0029085790011,980.0029085790011,980.0029085790011,980.036500628994,980.036500628994,980.036500628994,980.036500628994,repeat,letter,lettRpt,d,1.1159696100075962,vtsPrac,981.1407216880034,,,,,,,,,,,,,,,,,,,,,,,,40134,2022-10-26_10h17.28.658,vts_reward_expectancy_bt_OFFLINE,2022.2.4,59.941981557265514,
,,,,,,,,,,,,,,,,,,,,,,,,,,,,,,,,,,0,0,0,0,9,0,9,0,,,,,,,,,,,,,,,,,,,,,,,,,,,,0,738,,,987.3761264380009,,,D,174,star,0.017110578002757393,,,,,1,0,,,3,,,,,,,,,,,,983.6520929249964,983.6520929249964,983.6520929249964,983.6520929249964,985.123093007991,985.123093007991,985.123093007991,985.123093007991,985.1567498980003,985.1567498980003,985.1567498980003,985.1567498980003,switch,number,numSwt,k,0.7160638230125187,vtsPrac,985.8614557249966,,,,,,,,,,,,,,,,,,,,,,,,40134,2022-10-26_10h17.28.658,vts_reward_expectancy_bt_OFFLINE,2022.2.4,59.941981557265514,
,,,,,,,,,,,,,,,,,,,,,,,,,,,,,,,,,,0,0,0,0,10,0,10,0,,,,,,,,,,,,,,,,,,,,,,,,,,,,0,738,,,993.8469497600017,,,H,146,triangle,0.016664932991261594,,,,,1,0,,,3,,,,,,,,,,,,988.3717245430016,988.3717245430016,988.3717245430016,988.3717245430016,989.8435502819921,989.8435502819921,989.8435502819921,989.8435502819921,989.8770475359925,989.8770475359925,989.8770475359925,989.8770475359925,switch,letter,lettSwt,d,2.4676764060131973,vtsPrac,992.3322757290007,,,,,,,,,,,,,,,,,,,,,,,,40134,2022-10-26_10h17.28.658,vts_reward_expectancy_bt_OFFLINE,2022.2.4,59.941981557265514,
,,,,,,,,,,,,,,,,,,,,,,,,,,,,,,,,,,0,0,0,0,11,0,11,0,,,,,,,,,,,,,,,,,,,,,,,,,,,,0,738,,,999.2507072659937,,,S,167,hexagon,0.01675910899939481,,,,,1,0,,,3,,,,,,,,,,,,994.8426555549959,994.8426555549959,994.8426555549959,994.8426555549959,996.3159864530026,996.3159864530026,996.3159864530026,996.3159864530026,996.3494091070024,996.3494091070024,996.3494091070024,996.3494091070024,repeat,letter,lettRpt,f,1.3947618790116394,vtsPrac,997.736020256998,,,,,,,,,,,,,,,,,,,,,,,,40134,2022-10-26_10h17.28.658,vts_reward_expectancy_bt_OFFLINE,2022.2.4,59.941981557265514,
,,,,,,,,,,,,,,,,,,,,,,,,,,,,,,,,,,0,0,0,0,12,0,12,0,,,,,,,,,,,,,,,,,,,,,,,,,,,,0,738,,,1004.058307690997,,,H,132,triangle,0.01617621300101746,,,,,1,0,,,3,,,,,,,,,,,,1000.2464412129921,1000.2464412129921,1000.2464412129921,1000.2464412129921,1001.7200565139938,1001.7200565139938,1001.7200565139938,1001.7200565139938,1001.7533756780031,1001.7533756780031,1001.7533756780031,1001.7533756780031,switch,number,numSwt,j,0.8147082320065238,vtsPrac,1002.5581743810035,,,,,,,,,,,,,,,,,,,,,,,,40134,2022-10-26_10h17.28.658,vts_reward_expectancy_bt_OFFLINE,2022.2.4,59.941981557265514,
,,,,,,,,,,,,,,,,,,,,,,,,,,,,,,,,,,0,0,0,0,13,0,13,0,,,,,,,,,,,,,,,,,,,,,,,,,,,,0,738,,,1008.9076424130035,,1009.4078790549975,U,181,circle,0.002480925992131233,,,,,1,0,,,3,,,,,,,,,,,,1005.0524598499906,1005.0524598499906,1005.0524598499906,1005.0524598499906,1006.5568968829903,1006.5568968829903,1006.5568968829903,1006.5568968829903,1006.5568968829903,1006.5568968829903,1006.5568968829903,1006.5568968829903,repeat,number,numRpt,k,0.8185302680067252,vtsPrac,1007.4079667530023,1008.9076424130035,,,,,,,,,,,,,,,,,,,,,,,40134,2022-10-26_10h17.28.658,vts_reward_expectancy_bt_OFFLINE,2022.2.4,59.941981557265514,
,,,,,,,,,,,,,,,,,,,,,,,,,,,,,,,,,,0,0,0,0,14,0,14,0,,,,,,,,,,,,,,,,,,,,,,,,,,,,0,738,,,1013.9779954989936,,,D,174,hexagon,0.01383177399111446,,,,,1,0,,,3,,,,,,,,,,,,1009.920234167992,1009.920234167992,1009.920234167992,1009.920234167992,1011.3936906210001,1011.3936906210001,1011.3936906210001,1011.3936906210001,1011.4272389609978,1011.4272389609978,1011.4272389609978,1011.4272389609978,switch,letter,lettSwt,d,1.0455274220003048,vtsPrac,1012.4631809279963,,,,,,,,,,,,,,,,,,,,,,,,40134,2022-10-26_10h17.28.658,vts_reward_expectancy_bt_OFFLINE,2022.2.4,59.941981557265514,
,,,,,,,,,,,,,,,,,,,,,,,,,,,,,,,,,,0,0,0,0,15,0,15,0,,,,,,,,,,,,,,,,,,,,,,,,,,,,0,738,,,1019.2318008500006,,,Y,160,triangle,0.01679789400077425,,,,,1,0,,,3,,,,,,,,,,,,1014.974488708991,1014.974488708991,1014.974488708991,1014.974488708991,1016.4475854319899,1016.4475854319899,1016.4475854319899,1016.4475854319899,1016.4806738289917,1016.4806738289917,1016.4806738289917,1016.4806738289917,repeat,letter,lettRpt,f,1.2467800110171083,vtsPrac,1017.7167052329896,,,,,,,,,,,,,,,,,,,,,,,,40134,2022-10-26_10h17.28.658,vts_reward_expectancy_bt_OFFLINE,2022.2.4,59.941981557265514,
,,,,,,,,,,,,,,,,,,,,,,,,,,,,,,,,,,,,,,,,,,0,0,0,0,,,,,,,,,,,,,,,,,,,,,,,,0,738,,,1060.4447974679933,,,Y,139,hexagon,0.0008887089934432879,,,,,1,0,,,,,,,,,,,,,,,1056.281934368002,1056.281934368002,1056.281934368002,1056.281934368002,1057.7603924639989,1057.7603924639989,1057.7603924639989,1057.7603924639989,1057.7939059249911,1057.7939059249911,1057.7939059249911,1057.7939059249911,repeat,letter,lettRpt,f,1.134175111015793,noRew,,,0,1058.9439716089983,,,,,,,,,,,,,,,,,,,,,40134,2022-10-26_10h17.28.658,vts_reward_expectancy_bt_OFFLINE,2022.2.4,59.941981557265514,
,,,,,,,,,,,,,,,,,,,,,,,,,,,,,,,,,,,,,,,,,,1,0,1,0,,,,,,,,,,,,,,,,,,,,,,,,0,738,,,1066.717331531996,,1067.217258773002,U,167,star,0.004206323996186256,,,,,1,0,,,,,,,,,,,,,,,1061.4413819609908,1061.4413819609908,1061.4413819609908,1061.4413819609908,1062.9308943959913,1062.9308943959913,1062.9308943959913,1062.9308943959913,1062.947523031995,1062.947523031995,1062.947523031995,1062.947523031995,switch,number,numSwt,k,2.251854756017565,noRew,,,0,1065.2161266839976,1066.717331531996,,,,,,,,,,,,,,,,,,,,40134,2022-10-26_10h17.28.658,vts_reward_expectancy_bt_OFFLINE,2022.2.4,59.941981557265514,
,,,,,,,,,,,,,,,,,,,,,,,,,,,,,,,,,,,,,,,,,,2,0,2,0,,,,,,,,,,,,,,,,,,,,,,,,0,738,,,1072.4377055109944,,,F,132,triangle,-0.00037650400190614164,,,,,1,0,,,,,,,,,,,,,,,1067.724744659994,1067.724744659994,1067.724744659994,1067.724744659994,1069.201815234992,1069.201815234992,1069.201815234992,1069.201815234992,1069.2348358689924,1069.2348358689924,1069.2348358689924,1069.2348358689924,repeat,number,numRpt,j,1.6928885520028416,noRew,,,0,1070.9234988789976,,,,,,,,,,,,,,,,,,,,,40134,2022-10-26_10h17.28.658,vts_reward_expectancy_bt_OFFLINE,2022.2.4,59.941981557265514,
,,,,,,,,,,,,,,,,,,,,,,,,,,,,,,,,,,,,,,,,,,3,0,3,0,,,,,,,,,,,,,,,,,,,,,,,,0,738,,,1077.2414266650012,,,B,146,star,0.017188552010338753,,,,,1,0,,,,,,,,,,,,,,,1073.434026390998,1073.434026390998,1073.434026390998,1073.434026390998,1074.9052092920028,1074.9052092920028,1074.9052092920028,1074.9052092920028,1074.9388928819972,1074.9388928819972,1074.9388928819972,1074.9388928819972,switch,letter,lettSwt,d,0.8058454250131035,noRew,,,0,1075.7534515610023,,,,,,,,,,,,,,,,,,,,,40134,2022-10-26_10h17.28.658,vts_reward_expectancy_bt_OFFLINE,2022.2.4,59.941981557265514,
,,,,,,,,,,,,,,,,,,,,,,,,,,,,,,,,,,,,,,,,,,4,0,4,0,,,,,,,,,,,,,,,,,,,,,,,,0,738,,,1082.0615230149997,,,Y,139,circle,0.0020740390027640387,,,,,1,0,,,,,,,,,,,,,,,1078.2372432209959,1078.2372432209959,1078.2372432209959,1078.2372432209959,1079.725457501001,1079.725457501001,1079.725457501001,1079.725457501001,1079.742160077003,1079.742160077003,1079.742160077003,1079.742160077003,repeat,letter,lettRpt,f,0.8096160670102108,noRew,,,0,1080.562256114994,,,,,,,,,,,,,,,,,,,,,40134,2022-10-26_10h17.28.658,vts_reward_expectancy_bt_OFFLINE,2022.2.4,59.941981557265514,
