LTriangleOpac,LCircleOpac,LHexagonOpac,LStarOpac,RTriangleOpac,RCircleOpac,RHexagonOpac,RStarOpac,LShape_ID,RShape_ID,training_blocks.thisRepN,training_blocks.thisTrialN,training_blocks.thisN,training_blocks.thisIndex,training.thisRepN,training.thisTrialN,training.thisN,training.thisIndex,task1_prac_redo.thisRepN,task1_prac_redo.thisTrialN,task1_prac_redo.thisN,task1_prac_redo.thisIndex,task1_prac_trials.thisRepN,task1_prac_trials.thisTrialN,task1_prac_trials.thisN,task1_prac_trials.thisIndex,task2_prac_redo.thisRepN,task2_prac_redo.thisTrialN,task2_prac_redo.thisN,task2_prac_redo.thisIndex,task2_praac_trials.thisRepN,task2_praac_trials.thisTrialN,task2_praac_trials.thisN,task2_praac_trials.thisIndex,vts_prac_redo.thisRepN,vts_prac_redo.thisTrialN,vts_prac_redo.thisN,vts_prac_redo.thisIndex,vts_practice_trials.thisRepN,vts_practice_trials.thisTrialN,vts_practice_trials.thisN,vts_practice_trials.thisIndex,trials_norew.thisRepN,trials_norew.thisTrialN,trials_norew.thisN,trials_norew.thisIndex,block.thisRepN,block.thisTrialN,block.thisN,block.thisIndex,trials_rew.thisRepN,trials_rew.thisTrialN,trials_rew.thisN,trials_rew.thisIndex,key_resp.started,key_resp.keys,key_resp.rt,left_circle.started,right_circle.started,left_triangle.started,right_triangle.started,left_star.started,right_star.started,left_hexagon.started,right_hexagon.started,training_fix.started,training_resp.started,training_resp.keys,training_resp.rt,points_trial,points_cumul,trainBlock,training_feedback_txt.started,fix.started,curr_topStim,curr_bottStim,curr_shape,ISI.started,tgt_fix_prac1.started,top_target_prac1.started,bott_target_prac1.started,target_resp_prac1.started,top_target_prac1.stopped,tgt_fix_prac1.stopped,bott_target_prac1.stopped,target_resp_prac1.stopped,acc,E1,target_resp_prac1.keys,pracBlock,prac_fback_text.started,prac_fback_text.stopped,fix.stopped,target_resp_prac1.rt,tgt_fix_prac2.started,top_target_prac2.started,bott_target_prac2.started,target_resp_prac2.started,target_resp_prac2.keys,target_resp_prac2.rt,star.started,hegagon.started,triangle.started,circle.started,star.stopped,hegagon.stopped,triangle.stopped,circle.stopped,top_target.started,tgt_fix.started,bot_target.started,target_resp.started,alt,task,condition,target_resp.keys,target_resp.rt,rewCond,vts_fback.started,blockNum,norew_fback.started,norew_fback.stopped,key_resp_2.keys,key_resp_2.rt,rewExpectancy,feedbk_text.started,feedbk_text.stopped,text_3.started,debrief.started,text_3.stopped,button.started,debrief.index,debrief.itemText,debrief.type,debrief.granularity,debrief.font,debrief.markerColor,debrief.response,debrief.rt,button.numClicks,button.timesOn,button.timesOff,participant,date,expName,psychopyVersion,frameRate,
,,,,,,,,,,,,,,,,,,,,,,,,,,,,,,,,,,,,,,,,,,,,,,,,,,,,,,318.67505927200546,space,13.346299630997237,,,,,,,,,,,,,,,,,,,,,,,,,,,,,,,,,,,,,,,,,,,,,,,,,,,,,,,,,,,,,,,,,,,,,,,,,,,,,,,,,,,,,,40147,2022-11-28_10h36.06.595,vts_reward_expectancy_bt_OFFLINE,2022.2.4,59.884980833583164,
0,0,1,0,0,1,0,0,hexagon,circle,0,0,0,0,0,0,0,7,,,,,,,,,,,,,,,,,,,,,,,,,,,,,,,,,,,,,,,,361.7079854180047,361.7079854180047,361.7079854180047,361.7079854180047,361.7079854180047,361.7079854180047,361.7079854180047,361.7079854180047,361.7079854180047,361.7079854180047,a,2.578195120993769,1,1,0,364.31050193699775,365.81208664301084,,,,,,,,,,,,,,,,,,,,,,,,,,,,,,,,,,,,,,,,,,,,,,,,,,,,,,,,,,,,,,,,,,,,,40147,2022-11-28_10h36.06.595,vts_reward_expectancy_bt_OFFLINE,2022.2.4,59.884980833583164,
0,0,1,0,0,0,0,1,hexagon,star,0,0,0,0,0,1,1,8,,,,,,,,,,,,,,,,,,,,,,,,,,,,,,,,,,,,,,,,366.31253447401104,366.31253447401104,366.31253447401104,366.31253447401104,366.31253447401104,366.31253447401104,366.31253447401104,366.31253447401104,366.31253447401104,366.31253447401104,l,1.3839811989746522,10,11,0,367.7142066160159,369.21605192599236,,,,,,,,,,,,,,,,,,,,,,,,,,,,,,,,,,,,,,,,,,,,,,,,,,,,,,,,,,,,,,,,,,,,,40147,2022-11-28_10h36.06.595,vts_reward_expectancy_bt_OFFLINE,2022.2.4,59.884980833583164,
0,0,0,1,0,1,0,0,star ,circle,0,0,0,0,0,2,2,10,,,,,,,,,,,,,,,,,,,,,,,,,,,,,,,,,,,,,,,,369.71644530899357,369.71644530899357,369.71644530899357,369.71644530899357,369.71644530899357,369.71644530899357,369.71644530899357,369.71644530899357,369.71644530899357,369.71644530899357,a,1.0733876009762753,10,21,0,370.817541633005,372.3193755779939,,,,,,,,,,,,,,,,,,,,,,,,,,,,,,,,,,,,,,,,,,,,,,,,,,,,,,,,,,,,,,,,,,,,,40147,2022-11-28_10h36.06.595,vts_reward_expectancy_bt_OFFLINE,2022.2.4,59.884980833583164,
0,0,1,0,1,0,0,0,hexagon,triangle,0,0,0,0,0,3,3,6,,,,,,,,,,,,,,,,,,,,,,,,,,,,,,,,,,,,,,,,372.81974310800433,372.81974310800433,372.81974310800433,372.81974310800433,372.81974310800433,372.81974310800433,372.81974310800433,372.81974310800433,372.81974310800433,372.81974310800433,l,3.955511813983321,1,22,0,376.8076536979934,378.3093014170008,,,,,,,,,,,,,,,,,,,,,,,,,,,,,,,,,,,,,,,,,,,,,,,,,,,,,,,,,,,,,,,,,,,,,40147,2022-11-28_10h36.06.595,vts_reward_expectancy_bt_OFFLINE,2022.2.4,59.884980833583164,
1,0,0,0,0,0,1,0,triangle,hexagon,0,0,0,0,0,4,4,1,,,,,,,,,,,,,,,,,,,,,,,,,,,,,,,,,,,,,,,,378.80972750199726,378.80972750199726,378.80972750199726,378.80972750199726,378.80972750199726,378.80972750199726,378.80972750199726,378.80972750199726,378.80972750199726,378.80972750199726,l,2.137430853006663,1,23,0,380.9788476059912,382.4806355370092,,,,,,,,,,,,,,,,,,,,,,,,,,,,,,,,,,,,,,,,,,,,,,,,,,,,,,,,,,,,,,,,,,,,,40147,2022-11-28_10h36.06.595,vts_reward_expectancy_bt_OFFLINE,2022.2.4,59.884980833583164,
0,1,0,0,0,0,0,1,circle,star,0,0,0,0,0,5,5,5,,,,,,,,,,,,,,,,,,,,,,,,,,,,,,,,,,,,,,,,382.9811427179957,382.9811427179957,382.9811427179957,382.9811427179957,382.9811427179957,382.9811427179957,382.9811427179957,382.9811427179957,382.9811427179957,382.9811427179957,l,1.1405460239911918,10,33,0,384.14900328801014,385.65071303601144,,,,,,,,,,,,,,,,,,,,,,,,,,,,,,,,,,,,,,,,,,,,,,,,,,,,,,,,,,,,,,,,,,,,,40147,2022-11-28_10h36.06.595,vts_reward_expectancy_bt_OFFLINE,2022.2.4,59.884980833583164,
0,1,0,0,1,0,0,0,circle,triangle,0,0,0,0,0,6,6,3,,,,,,,,,,,,,,,,,,,,,,,,,,,,,,,,,,,,,,,,386.15128067100886,386.15128067100886,386.15128067100886,386.15128067100886,386.15128067100886,386.15128067100886,386.15128067100886,386.15128067100886,386.15128067100886,386.15128067100886,a,1.3901989820005838,10,43,0,387.569545277016,389.0711857280112,,,,,,,,,,,,,,,,,,,,,,,,,,,,,,,,,,,,,,,,,,,,,,,,,,,,,,,,,,,,,,,,,,,,,40147,2022-11-28_10h36.06.595,vts_reward_expectancy_bt_OFFLINE,2022.2.4,59.884980833583164,
0,0,0,1,0,0,1,0,star,hexagon,0,0,0,0,0,7,7,11,,,,,,,,,,,,,,,,,,,,,,,,,,,,,,,,,,,,,,,,389.5716674750147,389.5716674750147,389.5716674750147,389.5716674750147,389.5716674750147,389.5716674750147,389.5716674750147,389.5716674750147,389.5716674750147,389.5716674750147,a,1.502633086987771,1,44,0,391.10667524000746,392.60847916599596,,,,,,,,,,,,,,,,,,,,,,,,,,,,,,,,,,,,,,,,,,,,,,,,,,,,,,,,,,,,,,,,,,,,,40147,2022-11-28_10h36.06.595,vts_reward_expectancy_bt_OFFLINE,2022.2.4,59.884980833583164,
0,0,0,1,1,0,0,0,star,triangle,0,0,0,0,0,8,8,9,,,,,,,,,,,,,,,,,,,,,,,,,,,,,,,,,,,,,,,,393.1089069969894,393.1089069969894,393.1089069969894,393.1089069969894,393.1089069969894,393.1089069969894,393.1089069969894,393.1089069969894,393.1089069969894,393.1089069969894,a,1.0922111789695919,1,45,0,394.2268247019965,395.72853789301007,,,,,,,,,,,,,,,,,,,,,,,,,,,,,,,,,,,,,,,,,,,,,,,,,,,,,,,,,,,,,,,,,,,,,40147,2022-11-28_10h36.06.595,vts_reward_expectancy_bt_OFFLINE,2022.2.4,59.884980833583164,
1,0,0,0,0,0,0,1,triangle,star,0,0,0,0,0,9,9,2,,,,,,,,,,,,,,,,,,,,,,,,,,,,,,,,,,,,,,,,396.22893599901,396.22893599901,396.22893599901,396.22893599901,396.22893599901,396.22893599901,396.22893599901,396.22893599901,396.22893599901,396.22893599901,l,1.8204052029759623,1,46,0,398.08104012699914,399.5828452350106,,,,,,,,,,,,,,,,,,,,,,,,,,,,,,,,,,,,,,,,,,,,,,,,,,,,,,,,,,,,,,,,,,,,,40147,2022-11-28_10h36.06.595,vts_reward_expectancy_bt_OFFLINE,2022.2.4,59.884980833583164,
1,0,0,0,0,1,0,0,triangle,circle,0,0,0,0,0,10,10,0,,,,,,,,,,,,,,,,,,,,,,,,,,,,,,,,,,,,,,,,400.08327801301493,400.08327801301493,400.08327801301493,400.08327801301493,400.08327801301493,400.08327801301493,400.08327801301493,400.08327801301493,400.08327801301493,400.08327801301493,l,1.5533313589985482,10,56,0,401.66841997299343,403.1699700280151,,,,,,,,,,,,,,,,,,,,,,,,,,,,,,,,,,,,,,,,,,,,,,,,,,,,,,,,,,,,,,,,,,,,,40147,2022-11-28_10h36.06.595,vts_reward_expectancy_bt_OFFLINE,2022.2.4,59.884980833583164,
0,1,0,0,0,0,1,0,circle,hexagon,0,0,0,0,0,11,11,4,,,,,,,,,,,,,,,,,,,,,,,,,,,,,,,,,,,,,,,,403.67068270000163,403.67068270000163,403.67068270000163,403.67068270000163,403.67068270000163,403.67068270000163,403.67068270000163,403.67068270000163,403.67068270000163,403.67068270000163,a,0.6448968939948827,1,57,0,404.33798950500204,405.83958687700215,,,,,,,,,,,,,,,,,,,,,,,,,,,,,,,,,,,,,,,,,,,,,,,,,,,,,,,,,,,,,,,,,,,,,40147,2022-11-28_10h36.06.595,vts_reward_expectancy_bt_OFFLINE,2022.2.4,59.884980833583164,
0,0,0,1,0,1,0,0,star ,circle,0,0,0,0,1,0,12,10,,,,,,,,,,,,,,,,,,,,,,,,,,,,,,,,,,,,,,,,406.3401850129885,406.3401850129885,406.3401850129885,406.3401850129885,406.3401850129885,406.3401850129885,406.3401850129885,406.3401850129885,406.3401850129885,406.3401850129885,l,1.361847913969541,10,67,0,407.72492384299403,409.22666027900414,,,,,,,,,,,,,,,,,,,,,,,,,,,,,,,,,,,,,,,,,,,,,,,,,,,,,,,,,,,,,,,,,,,,,40147,2022-11-28_10h36.06.595,vts_reward_expectancy_bt_OFFLINE,2022.2.4,59.884980833583164,
0,0,1,0,0,0,0,1,hexagon,star,0,0,0,0,1,1,13,8,,,,,,,,,,,,,,,,,,,,,,,,,,,,,,,,,,,,,,,,409.7272006550047,409.7272006550047,409.7272006550047,409.7272006550047,409.7272006550047,409.7272006550047,409.7272006550047,409.7272006550047,409.7272006550047,409.7272006550047,l,1.4850213849858847,1,68,0,411.2288225819939,412.73048534200643,,,,,,,,,,,,,,,,,,,,,,,,,,,,,,,,,,,,,,,,,,,,,,,,,,,,,,,,,,,,,,,,,,,,,40147,2022-11-28_10h36.06.595,vts_reward_expectancy_bt_OFFLINE,2022.2.4,59.884980833583164,
0,0,0,1,1,0,0,0,star,triangle,0,0,0,0,1,2,14,9,,,,,,,,,,,,,,,,,,,,,,,,,,,,,,,,,,,,,,,,413.23112209799,413.23112209799,413.23112209799,413.23112209799,413.23112209799,413.23112209799,413.23112209799,413.23112209799,413.23112209799,413.23112209799,a,0.8371707649785094,1,69,0,414.09877151899855,415.6003385480144,,,,,,,,,,,,,,,,,,,,,,,,,,,,,,,,,,,,,,,,,,,,,,,,,,,,,,,,,,,,,,,,,,,,,40147,2022-11-28_10h36.06.595,vts_reward_expectancy_bt_OFFLINE,2022.2.4,59.884980833583164,
0,1,0,0,0,0,1,0,circle,hexagon,0,0,0,0,1,3,15,4,,,,,,,,,,,,,,,,,,,,,,,,,,,,,,,,,,,,,,,,416.10087759498856,416.10087759498856,416.10087759498856,416.10087759498856,416.10087759498856,416.10087759498856,416.10087759498856,416.10087759498856,416.10087759498856,416.10087759498856,a,0.8600096139998641,10,79,0,416.9851833030116,418.4868434089876,,,,,,,,,,,,,,,,,,,,,,,,,,,,,,,,,,,,,,,,,,,,,,,,,,,,,,,,,,,,,,,,,,,,,40147,2022-11-28_10h36.06.595,vts_reward_expectancy_bt_OFFLINE,2022.2.4,59.884980833583164,
0,0,1,0,1,0,0,0,hexagon,triangle,0,0,0,0,1,4,16,6,,,,,,,,,,,,,,,,,,,,,,,,,,,,,,,,,,,,,,,,418.9873495300126,418.9873495300126,418.9873495300126,418.9873495300126,418.9873495300126,418.9873495300126,418.9873495300126,418.9873495300126,418.9873495300126,418.9873495300126,l,1.7416070550098084,10,89,0,420.75599398699705,422.25783550099004,,,,,,,,,,,,,,,,,,,,,,,,,,,,,,,,,,,,,,,,,,,,,,,,,,,,,,,,,,,,,,,,,,,,,40147,2022-11-28_10h36.06.595,vts_reward_expectancy_bt_OFFLINE,2022.2.4,59.884980833583164,
0,1,0,0,0,0,0,1,circle,star,0,0,0,0,1,5,17,5,,,,,,,,,,,,,,,,,,,,,,,,,,,,,,,,,,,,,,,,422.75821354199434,422.75821354199434,422.75821354199434,422.75821354199434,422.75821354199434,422.75821354199434,422.75821354199434,422.75821354199434,422.75821354199434,422.75821354199434,a,1.5944649089942686,10,99,0,424.37660231100745,425.87841622999986,,,,,,,,,,,,,,,,,,,,,,,,,,,,,,,,,,,,,,,,,,,,,,,,,,,,,,,,,,,,,,,,,,,,,40147,2022-11-28_10h36.06.595,vts_reward_expectancy_bt_OFFLINE,2022.2.4,59.884980833583164,
1,0,0,0,0,0,0,1,triangle,star,0,0,0,0,1,6,18,2,,,,,,,,,,,,,,,,,,,,,,,,,,,,,,,,,,,,,,,,426.37887415400473,426.37887415400473,426.37887415400473,426.37887415400473,426.37887415400473,426.37887415400473,426.37887415400473,426.37887415400473,426.37887415400473,426.37887415400473,a,1.6964735129731707,10,109,0,428.09769669899833,429.5993213870097,,,,,,,,,,,,,,,,,,,,,,,,,,,,,,,,,,,,,,,,,,,,,,,,,,,,,,,,,,,,,,,,,,,,,40147,2022-11-28_10h36.06.595,vts_reward_expectancy_bt_OFFLINE,2022.2.4,59.884980833583164,
0,0,0,1,0,0,1,0,star,hexagon,0,0,0,0,1,7,19,11,,,,,,,,,,,,,,,,,,,,,,,,,,,,,,,,,,,,,,,,430.09966294199694,430.09966294199694,430.09966294199694,430.09966294199694,430.09966294199694,430.09966294199694,430.09966294199694,430.09966294199694,430.09966294199694,430.09966294199694,a,1.0581568799971137,1,110,0,431.18425324201235,432.68590619499446,,,,,,,,,,,,,,,,,,,,,,,,,,,,,,,,,,,,,,,,,,,,,,,,,,,,,,,,,,,,,,,,,,,,,40147,2022-11-28_10h36.06.595,vts_reward_expectancy_bt_OFFLINE,2022.2.4,59.884980833583164,
0,1,0,0,1,0,0,0,circle,triangle,0,0,0,0,1,8,20,3,,,,,,,,,,,,,,,,,,,,,,,,,,,,,,,,,,,,,,,,433.186408167996,433.186408167996,433.186408167996,433.186408167996,433.186408167996,433.186408167996,433.186408167996,433.186408167996,433.186408167996,433.186408167996,a,1.7416970469930675,10,120,0,434.95515802298905,436.4567279990006,,,,,,,,,,,,,,,,,,,,,,,,,,,,,,,,,,,,,,,,,,,,,,,,,,,,,,,,,,,,,,,,,,,,,40147,2022-11-28_10h36.06.595,vts_reward_expectancy_bt_OFFLINE,2022.2.4,59.884980833583164,
0,0,1,0,0,1,0,0,hexagon,circle,0,0,0,0,1,9,21,7,,,,,,,,,,,,,,,,,,,,,,,,,,,,,,,,,,,,,,,,436.95727286301553,436.95727286301553,436.95727286301553,436.95727286301553,436.95727286301553,436.95727286301553,436.95727286301553,436.95727286301553,436.95727286301553,436.95727286301553,l,1.2778354849724565,10,130,0,438.2587874220044,439.7602453599975,,,,,,,,,,,,,,,,,,,,,,,,,,,,,,,,,,,,,,,,,,,,,,,,,,,,,,,,,,,,,,,,,,,,,40147,2022-11-28_10h36.06.595,vts_reward_expectancy_bt_OFFLINE,2022.2.4,59.884980833583164,
1,0,0,0,0,1,0,0,triangle,circle,0,0,0,0,1,10,22,0,,,,,,,,,,,,,,,,,,,,,,,,,,,,,,,,,,,,,,,,440.2608263299917,440.2608263299917,440.2608263299917,440.2608263299917,440.2608263299917,440.2608263299917,440.2608263299917,440.2608263299917,440.2608263299917,440.2608263299917,l,1.0681864469952416,10,140,0,441.36196124900016,442.86359644000186,,,,,,,,,,,,,,,,,,,,,,,,,,,,,,,,,,,,,,,,,,,,,,,,,,,,,,,,,,,,,,,,,,,,,40147,2022-11-28_10h36.06.595,vts_reward_expectancy_bt_OFFLINE,2022.2.4,59.884980833583164,
1,0,0,0,0,0,1,0,triangle,hexagon,0,0,0,0,1,11,23,1,,,,,,,,,,,,,,,,,,,,,,,,,,,,,,,,,,,,,,,,443.3643823110033,443.3643823110033,443.3643823110033,443.3643823110033,443.3643823110033,443.3643823110033,443.3643823110033,443.3643823110033,443.3643823110033,443.3643823110033,a,1.0352500949811656,10,150,0,444.43202534201555,445.93379055100377,,,,,,,,,,,,,,,,,,,,,,,,,,,,,,,,,,,,,,,,,,,,,,,,,,,,,,,,,,,,,,,,,,,,,40147,2022-11-28_10h36.06.595,vts_reward_expectancy_bt_OFFLINE,2022.2.4,59.884980833583164,
0,0,1,0,0,1,0,0,hexagon,circle,0,0,0,0,2,0,24,7,,,,,,,,,,,,,,,,,,,,,,,,,,,,,,,,,,,,,,,,446.43442383199,446.43442383199,446.43442383199,446.43442383199,446.43442383199,446.43442383199,446.43442383199,446.43442383199,446.43442383199,446.43442383199,l,0.7564382049895357,1,151,0,447.2185796230042,448.7203510719992,,,,,,,,,,,,,,,,,,,,,,,,,,,,,,,,,,,,,,,,,,,,,,,,,,,,,,,,,,,,,,,,,,,,,40147,2022-11-28_10h36.06.595,vts_reward_expectancy_bt_OFFLINE,2022.2.4,59.884980833583164,
0,0,0,1,0,0,1,0,star,hexagon,0,0,0,0,2,1,25,11,,,,,,,,,,,,,,,,,,,,,,,,,,,,,,,,,,,,,,,,449.22088511599577,449.22088511599577,449.22088511599577,449.22088511599577,449.22088511599577,449.22088511599577,449.22088511599577,449.22088511599577,449.22088511599577,449.22088511599577,l,1.1976695680059493,1,152,0,450.4387962179899,451.94059439899866,,,,,,,,,,,,,,,,,,,,,,,,,,,,,,,,,,,,,,,,,,,,,,,,,,,,,,,,,,,,,,,,,,,,,40147,2022-11-28_10h36.06.595,vts_reward_expectancy_bt_OFFLINE,2022.2.4,59.884980833583164,
0,0,0,1,0,1,0,0,star ,circle,0,0,0,0,2,2,26,10,,,,,,,,,,,,,,,,,,,,,,,,,,,,,,,,,,,,,,,,452.4409996230097,452.4409996230097,452.4409996230097,452.4409996230097,452.4409996230097,452.4409996230097,452.4409996230097,452.4409996230097,452.4409996230097,452.4409996230097,a,0.8353333759878296,1,153,0,453.30876243900275,454.8104932490096,,,,,,,,,,,,,,,,,,,,,,,,,,,,,,,,,,,,,,,,,,,,,,,,,,,,,,,,,,,,,,,,,,,,,40147,2022-11-28_10h36.06.595,vts_reward_expectancy_bt_OFFLINE,2022.2.4,59.884980833583164,
0,1,0,0,1,0,0,0,circle,triangle,0,0,0,0,2,3,27,3,,,,,,,,,,,,,,,,,,,,,,,,,,,,,,,,,,,,,,,,455.3107945850061,455.3107945850061,455.3107945850061,455.3107945850061,455.3107945850061,455.3107945850061,455.3107945850061,455.3107945850061,455.3107945850061,455.3107945850061,a,0.6090883869910613,10,163,0,455.94494459001,457.4465849469998,,,,,,,,,,,,,,,,,,,,,,,,,,,,,,,,,,,,,,,,,,,,,,,,,,,,,,,,,,,,,,,,,,,,,40147,2022-11-28_10h36.06.595,vts_reward_expectancy_bt_OFFLINE,2022.2.4,59.884980833583164,
1,0,0,0,0,0,0,1,triangle,star,0,0,0,0,2,4,28,2,,,,,,,,,,,,,,,,,,,,,,,,,,,,,,,,,,,,,,,,457.9470791450003,457.9470791450003,457.9470791450003,457.9470791450003,457.9470791450003,457.9470791450003,457.9470791450003,457.9470791450003,457.9470791450003,457.9470791450003,l,0.6278138859779574,10,173,0,458.59784449101426,460.0994284719927,,,,,,,,,,,,,,,,,,,,,,,,,,,,,,,,,,,,,,,,,,,,,,,,,,,,,,,,,,,,,,,,,,,,,40147,2022-11-28_10h36.06.595,vts_reward_expectancy_bt_OFFLINE,2022.2.4,59.884980833583164,
1,0,0,0,0,1,0,0,triangle,circle,0,0,0,0,2,5,29,0,,,,,,,,,,,,,,,,,,,,,,,,,,,,,,,,,,,,,,,,460.6002303340065,460.6002303340065,460.6002303340065,460.6002303340065,460.6002303340065,460.6002303340065,460.6002303340065,460.6002303340065,460.6002303340065,460.6002303340065,l,1.203265313000884,10,183,0,461.834879617003,463.336488157016,,,,,,,,,,,,,,,,,,,,,,,,,,,,,,,,,,,,,,,,,,,,,,,,,,,,,,,,,,,,,,,,,,,,,40147,2022-11-28_10h36.06.595,vts_reward_expectancy_bt_OFFLINE,2022.2.4,59.884980833583164,
1,0,0,0,0,0,1,0,triangle,hexagon,0,0,0,0,2,6,30,1,,,,,,,,,,,,,,,,,,,,,,,,,,,,,,,,,,,,,,,,463.8370215239993,463.8370215239993,463.8370215239993,463.8370215239993,463.8370215239993,463.8370215239993,463.8370215239993,463.8370215239993,463.8370215239993,463.8370215239993,a,1.488199547980912,10,193,0,465.35535193100804,466.8568572610093,,,,,,,,,,,,,,,,,,,,,,,,,,,,,,,,,,,,,,,,,,,,,,,,,,,,,,,,,,,,,,,,,,,,,40147,2022-11-28_10h36.06.595,vts_reward_expectancy_bt_OFFLINE,2022.2.4,59.884980833583164,
0,1,0,0,0,0,0,1,circle,star,0,0,0,0,2,7,31,5,,,,,,,,,,,,,,,,,,,,,,,,,,,,,,,,,,,,,,,,467.3575550359965,467.3575550359965,467.3575550359965,467.3575550359965,467.3575550359965,467.3575550359965,467.3575550359965,467.3575550359965,467.3575550359965,467.3575550359965,l,2.546847149002133,1,194,0,469.9269364270149,471.4286627979891,,,,,,,,,,,,,,,,,,,,,,,,,,,,,,,,,,,,,,,,,,,,,,,,,,,,,,,,,,,,,,,,,,,,,40147,2022-11-28_10h36.06.595,vts_reward_expectancy_bt_OFFLINE,2022.2.4,59.884980833583164,
0,0,1,0,1,0,0,0,hexagon,triangle,0,0,0,0,2,8,32,6,,,,,,,,,,,,,,,,,,,,,,,,,,,,,,,,,,,,,,,,471.92929915801506,471.92929915801506,471.92929915801506,471.92929915801506,471.92929915801506,471.92929915801506,471.92929915801506,471.92929915801506,471.92929915801506,471.92929915801506,l,1.1814146419928875,1,195,0,473.1305684290128,474.63218511999,,,,,,,,,,,,,,,,,,,,,,,,,,,,,,,,,,,,,,,,,,,,,,,,,,,,,,,,,,,,,,,,,,,,,40147,2022-11-28_10h36.06.595,vts_reward_expectancy_bt_OFFLINE,2022.2.4,59.884980833583164,
0,0,0,1,1,0,0,0,star,triangle,0,0,0,0,2,9,33,9,,,,,,,,,,,,,,,,,,,,,,,,,,,,,,,,,,,,,,,,475.13278505101334,475.13278505101334,475.13278505101334,475.13278505101334,475.13278505101334,475.13278505101334,475.13278505101334,475.13278505101334,475.13278505101334,475.13278505101334,l,2.0278235450095963,10,205,0,477.1848809630028,478.6865912039939,,,,,,,,,,,,,,,,,,,,,,,,,,,,,,,,,,,,,,,,,,,,,,,,,,,,,,,,,,,,,,,,,,,,,40147,2022-11-28_10h36.06.595,vts_reward_expectancy_bt_OFFLINE,2022.2.4,59.884980833583164,
0,0,1,0,0,0,0,1,hexagon,star,0,0,0,0,2,10,34,8,,,,,,,,,,,,,,,,,,,,,,,,,,,,,,,,,,,,,,,,479.18707253801404,479.18707253801404,479.18707253801404,479.18707253801404,479.18707253801404,479.18707253801404,479.18707253801404,479.18707253801404,479.18707253801404,479.18707253801404,a,2.2481651559937745,1,206,0,481.45633955899393,482.95803118598997,,,,,,,,,,,,,,,,,,,,,,,,,,,,,,,,,,,,,,,,,,,,,,,,,,,,,,,,,,,,,,,,,,,,,40147,2022-11-28_10h36.06.595,vts_reward_expectancy_bt_OFFLINE,2022.2.4,59.884980833583164,
0,1,0,0,0,0,1,0,circle,hexagon,0,0,0,0,2,11,35,4,,,,,,,,,,,,,,,,,,,,,,,,,,,,,,,,,,,,,,,,483.4585941930127,483.4585941930127,483.4585941930127,483.4585941930127,483.4585941930127,483.4585941930127,483.4585941930127,483.4585941930127,483.4585941930127,483.4585941930127,a,0.6335516489925794,1,207,0,484.1092574649956,485.6109413999948,,,,,,,,,,,,,,,,,,,,,,,,,,,,,,,,,,,,,,,,,,,,,,,,,,,,,,,,,,,,,,,,,,,,,40147,2022-11-28_10h36.06.595,vts_reward_expectancy_bt_OFFLINE,2022.2.4,59.884980833583164,
0,0,1,0,1,0,0,0,hexagon,triangle,0,0,0,0,3,0,36,6,,,,,,,,,,,,,,,,,,,,,,,,,,,,,,,,,,,,,,,,486.1114695559954,486.1114695559954,486.1114695559954,486.1114695559954,486.1114695559954,486.1114695559954,486.1114695559954,486.1114695559954,486.1114695559954,486.1114695559954,l,1.6136097939743195,10,217,0,487.7465631439991,489.2483016740007,,,,,,,,,,,,,,,,,,,,,,,,,,,,,,,,,,,,,,,,,,,,,,,,,,,,,,,,,,,,,,,,,,,,,40147,2022-11-28_10h36.06.595,vts_reward_expectancy_bt_OFFLINE,2022.2.4,59.884980833583164,
0,1,0,0,1,0,0,0,circle,triangle,0,0,0,0,3,1,37,3,,,,,,,,,,,,,,,,,,,,,,,,,,,,,,,,,,,,,,,,489.748893993994,489.748893993994,489.748893993994,489.748893993994,489.748893993994,489.748893993994,489.748893993994,489.748893993994,489.748893993994,489.748893993994,l,1.8129471159772947,1,218,0,491.5842677009932,493.08572124299826,,,,,,,,,,,,,,,,,,,,,,,,,,,,,,,,,,,,,,,,,,,,,,,,,,,,,,,,,,,,,,,,,,,,,40147,2022-11-28_10h36.06.595,vts_reward_expectancy_bt_OFFLINE,2022.2.4,59.884980833583164,
1,0,0,0,0,0,0,1,triangle,star,0,0,0,0,3,2,38,2,,,,,,,,,,,,,,,,,,,,,,,,,,,,,,,,,,,,,,,,493.5864489109954,493.5864489109954,493.5864489109954,493.5864489109954,493.5864489109954,493.5864489109954,493.5864489109954,493.5864489109954,493.5864489109954,493.5864489109954,a,5.309654053009581,10,228,0,498.9255374940112,500.42727293400094,,,,,,,,,,,,,,,,,,,,,,,,,,,,,,,,,,,,,,,,,,,,,,,,,,,,,,,,,,,,,,,,,,,,,40147,2022-11-28_10h36.06.595,vts_reward_expectancy_bt_OFFLINE,2022.2.4,59.884980833583164,
0,0,1,0,0,1,0,0,hexagon,circle,0,0,0,0,3,3,39,7,,,,,,,,,,,,,,,,,,,,,,,,,,,,,,,,,,,,,,,,500.92786237900145,500.92786237900145,500.92786237900145,500.92786237900145,500.92786237900145,500.92786237900145,500.92786237900145,500.92786237900145,500.92786237900145,500.92786237900145,a,1.8618945939815603,1,229,0,502.8132863850042,504.3150490199914,,,,,,,,,,,,,,,,,,,,,,,,,,,,,,,,,,,,,,,,,,,,,,,,,,,,,,,,,,,,,,,,,,,,,40147,2022-11-28_10h36.06.595,vts_reward_expectancy_bt_OFFLINE,2022.2.4,59.884980833583164,
0,1,0,0,0,0,0,1,circle,star,0,0,0,0,3,4,40,5,,,,,,,,,,,,,,,,,,,,,,,,,,,,,,,,,,,,,,,,504.8154305370117,504.8154305370117,504.8154305370117,504.8154305370117,504.8154305370117,504.8154305370117,504.8154305370117,504.8154305370117,504.8154305370117,504.8154305370117,a,0.4943736419954803,1,230,0,505.33287926900084,506.8343082710053,,,,,,,,,,,,,,,,,,,,,,,,,,,,,,,,,,,,,,,,,,,,,,,,,,,,,,,,,,,,,,,,,,,,,40147,2022-11-28_10h36.06.595,vts_reward_expectancy_bt_OFFLINE,2022.2.4,59.884980833583164,
0,1,0,0,0,0,1,0,circle,hexagon,0,0,0,0,3,5,41,4,,,,,,,,,,,,,,,,,,,,,,,,,,,,,,,,,,,,,,,,507.3350511569879,507.3350511569879,507.3350511569879,507.3350511569879,507.3350511569879,507.3350511569879,507.3350511569879,507.3350511569879,507.3350511569879,507.3350511569879,a,1.1137259799870662,10,240,0,508.4695254880062,509.97127064701635,,,,,,,,,,,,,,,,,,,,,,,,,,,,,,,,,,,,,,,,,,,,,,,,,,,,,,,,,,,,,,,,,,,,,40147,2022-11-28_10h36.06.595,vts_reward_expectancy_bt_OFFLINE,2022.2.4,59.884980833583164,
1,0,0,0,0,1,0,0,triangle,circle,0,0,0,0,3,6,42,0,,,,,,,,,,,,,,,,,,,,,,,,,,,,,,,,,,,,,,,,510.4717585509934,510.4717585509934,510.4717585509934,510.4717585509934,510.4717585509934,510.4717585509934,510.4717585509934,510.4717585509934,510.4717585509934,510.4717585509934,a,2.826360532984836,10,250,0,513.3248962520156,514.8264251520159,,,,,,,,,,,,,,,,,,,,,,,,,,,,,,,,,,,,,,,,,,,,,,,,,,,,,,,,,,,,,,,,,,,,,40147,2022-11-28_10h36.06.595,vts_reward_expectancy_bt_OFFLINE,2022.2.4,59.884980833583164,
0,0,1,0,0,0,0,1,hexagon,star,0,0,0,0,3,7,43,8,,,,,,,,,,,,,,,,,,,,,,,,,,,,,,,,,,,,,,,,515.3270946860139,515.3270946860139,515.3270946860139,515.3270946860139,515.3270946860139,515.3270946860139,515.3270946860139,515.3270946860139,515.3270946860139,515.3270946860139,a,1.9750592200143728,1,251,0,517.3292738219898,518.8308810919989,,,,,,,,,,,,,,,,,,,,,,,,,,,,,,,,,,,,,,,,,,,,,,,,,,,,,,,,,,,,,,,,,,,,,40147,2022-11-28_10h36.06.595,vts_reward_expectancy_bt_OFFLINE,2022.2.4,59.884980833583164,
1,0,0,0,0,0,1,0,triangle,hexagon,0,0,0,0,3,8,44,1,,,,,,,,,,,,,,,,,,,,,,,,,,,,,,,,,,,,,,,,519.3313449970155,519.3313449970155,519.3313449970155,519.3313449970155,519.3313449970155,519.3313449970155,519.3313449970155,519.3313449970155,519.3313449970155,519.3313449970155,a,3.6872174000018276,10,261,0,523.0354531590128,524.5371489750105,,,,,,,,,,,,,,,,,,,,,,,,,,,,,,,,,,,,,,,,,,,,,,,,,,,,,,,,,,,,,,,,,,,,,40147,2022-11-28_10h36.06.595,vts_reward_expectancy_bt_OFFLINE,2022.2.4,59.884980833583164,
0,0,0,1,1,0,0,0,star,triangle,0,0,0,0,3,9,45,9,,,,,,,,,,,,,,,,,,,,,,,,,,,,,,,,,,,,,,,,525.0377137449977,525.0377137449977,525.0377137449977,525.0377137449977,525.0377137449977,525.0377137449977,525.0377137449977,525.0377137449977,525.0377137449977,525.0377137449977,l,2.26657829497708,10,271,0,527.3235817780078,528.8253654520086,,,,,,,,,,,,,,,,,,,,,,,,,,,,,,,,,,,,,,,,,,,,,,,,,,,,,,,,,,,,,,,,,,,,,40147,2022-11-28_10h36.06.595,vts_reward_expectancy_bt_OFFLINE,2022.2.4,59.884980833583164,
0,0,0,1,0,1,0,0,star ,circle,0,0,0,0,3,10,46,10,,,,,,,,,,,,,,,,,,,,,,,,,,,,,,,,,,,,,,,,529.3258624729933,529.3258624729933,529.3258624729933,529.3258624729933,529.3258624729933,529.3258624729933,529.3258624729933,529.3258624729933,529.3258624729933,529.3258624729933,l,1.330308528005844,10,281,0,530.6772421860078,532.1789047910133,,,,,,,,,,,,,,,,,,,,,,,,,,,,,,,,,,,,,,,,,,,,,,,,,,,,,,,,,,,,,,,,,,,,,40147,2022-11-28_10h36.06.595,vts_reward_expectancy_bt_OFFLINE,2022.2.4,59.884980833583164,
0,0,0,1,0,0,1,0,star,hexagon,0,0,0,0,3,11,47,11,,,,,,,,,,,,,,,,,,,,,,,,,,,,,,,,,,,,,,,,532.6795494499966,532.6795494499966,532.6795494499966,532.6795494499966,532.6795494499966,532.6795494499966,532.6795494499966,532.6795494499966,532.6795494499966,532.6795494499966,a,2.736029408988543,1,282,0,535.432726767991,536.934233300999,,,,,,,,,,,,,,,,,,,,,,,,,,,,,,,,,,,,,,,,,,,,,,,,,,,,,,,,,,,,,,,,,,,,,40147,2022-11-28_10h36.06.595,vts_reward_expectancy_bt_OFFLINE,2022.2.4,59.884980833583164,
0,0,1,0,0,0,0,1,hexagon,star,1,0,1,0,0,0,0,8,,,,,,,,,,,,,,,,,,,,,,,,,,,,,,,,,,,,,,,,549.1551125970145,549.1551125970145,549.1551125970145,549.1551125970145,549.1551125970145,549.1551125970145,549.1551125970145,549.1551125970145,549.1551125970145,549.1551125970145,l,1.3926934339979198,1,283,1,550.565934504004,552.0675088510034,,,,,,,,,,,,,,,,,,,,,,,,,,,,,,,,,,,,,,,,,,,,,,,,,,,,,,,,,,,,,,,,,,,,,40147,2022-11-28_10h36.06.595,vts_reward_expectancy_bt_OFFLINE,2022.2.4,59.884980833583164,
0,0,0,1,0,1,0,0,star ,circle,1,0,1,0,0,1,1,10,,,,,,,,,,,,,,,,,,,,,,,,,,,,,,,,,,,,,,,,552.5681066710094,552.5681066710094,552.5681066710094,552.5681066710094,552.5681066710094,552.5681066710094,552.5681066710094,552.5681066710094,552.5681066710094,552.5681066710094,l,1.3080938819912262,10,293,1,553.9028941210127,555.4046050499892,,,,,,,,,,,,,,,,,,,,,,,,,,,,,,,,,,,,,,,,,,,,,,,,,,,,,,,,,,,,,,,,,,,,,40147,2022-11-28_10h36.06.595,vts_reward_expectancy_bt_OFFLINE,2022.2.4,59.884980833583164,
0,0,0,1,1,0,0,0,star,triangle,1,0,1,0,0,2,2,9,,,,,,,,,,,,,,,,,,,,,,,,,,,,,,,,,,,,,,,,555.9050571830012,555.9050571830012,555.9050571830012,555.9050571830012,555.9050571830012,555.9050571830012,555.9050571830012,555.9050571830012,555.9050571830012,555.9050571830012,l,6.18445465300465,10,303,1,562.1118548990053,563.6136935279937,,,,,,,,,,,,,,,,,,,,,,,,,,,,,,,,,,,,,,,,,,,,,,,,,,,,,,,,,,,,,,,,,,,,,40147,2022-11-28_10h36.06.595,vts_reward_expectancy_bt_OFFLINE,2022.2.4,59.884980833583164,
1,0,0,0,0,0,1,0,triangle,hexagon,1,0,1,0,0,3,3,1,,,,,,,,,,,,,,,,,,,,,,,,,,,,,,,,,,,,,,,,564.1142605130153,564.1142605130153,564.1142605130153,564.1142605130153,564.1142605130153,564.1142605130153,564.1142605130153,564.1142605130153,564.1142605130153,564.1142605130153,a,2.1499516339972615,10,313,1,566.2831104109937,567.7848392940068,,,,,,,,,,,,,,,,,,,,,,,,,,,,,,,,,,,,,,,,,,,,,,,,,,,,,,,,,,,,,,,,,,,,,40147,2022-11-28_10h36.06.595,vts_reward_expectancy_bt_OFFLINE,2022.2.4,59.884980833583164,
1,0,0,0,0,0,0,1,triangle,star,1,0,1,0,0,4,4,2,,,,,,,,,,,,,,,,,,,,,,,,,,,,,,,,,,,,,,,,568.285332414991,568.285332414991,568.285332414991,568.285332414991,568.285332414991,568.285332414991,568.285332414991,568.285332414991,568.285332414991,568.285332414991,a,1.7252979039913043,10,323,1,570.0373575609992,571.538979717996,,,,,,,,,,,,,,,,,,,,,,,,,,,,,,,,,,,,,,,,,,,,,,,,,,,,,,,,,,,,,,,,,,,,,40147,2022-11-28_10h36.06.595,vts_reward_expectancy_bt_OFFLINE,2022.2.4,59.884980833583164,
1,0,0,0,0,1,0,0,triangle,circle,1,0,1,0,0,5,5,0,,,,,,,,,,,,,,,,,,,,,,,,,,,,,,,,,,,,,,,,572.0395906330086,572.0395906330086,572.0395906330086,572.0395906330086,572.0395906330086,572.0395906330086,572.0395906330086,572.0395906330086,572.0395906330086,572.0395906330086,l,0.6934637999802362,10,333,1,572.7571430990065,574.2586873490072,,,,,,,,,,,,,,,,,,,,,,,,,,,,,,,,,,,,,,,,,,,,,,,,,,,,,,,,,,,,,,,,,,,,,40147,2022-11-28_10h36.06.595,vts_reward_expectancy_bt_OFFLINE,2022.2.4,59.884980833583164,
0,0,1,0,1,0,0,0,hexagon,triangle,1,0,1,0,0,6,6,6,,,,,,,,,,,,,,,,,,,,,,,,,,,,,,,,,,,,,,,,574.759280283004,574.759280283004,574.759280283004,574.759280283004,574.759280283004,574.759280283004,574.759280283004,574.759280283004,574.759280283004,574.759280283004,l,1.302530620014295,1,334,1,576.0940712919983,577.5957854299922,,,,,,,,,,,,,,,,,,,,,,,,,,,,,,,,,,,,,,,,,,,,,,,,,,,,,,,,,,,,,,,,,,,,,40147,2022-11-28_10h36.06.595,vts_reward_expectancy_bt_OFFLINE,2022.2.4,59.884980833583164,
0,0,0,1,0,0,1,0,star,hexagon,1,0,1,0,0,7,7,11,,,,,,,,,,,,,,,,,,,,,,,,,,,,,,,,,,,,,,,,578.0962082429905,578.0962082429905,578.0962082429905,578.0962082429905,578.0962082429905,578.0962082429905,578.0962082429905,578.0962082429905,578.0962082429905,578.0962082429905,l,2.0949905019951984,1,335,1,580.2153037739918,581.7168894039933,,,,,,,,,,,,,,,,,,,,,,,,,,,,,,,,,,,,,,,,,,,,,,,,,,,,,,,,,,,,,,,,,,,,,40147,2022-11-28_10h36.06.595,vts_reward_expectancy_bt_OFFLINE,2022.2.4,59.884980833583164,
0,1,0,0,1,0,0,0,circle,triangle,1,0,1,0,0,8,8,3,,,,,,,,,,,,,,,,,,,,,,,,,,,,,,,,,,,,,,,,582.2174176019907,582.2174176019907,582.2174176019907,582.2174176019907,582.2174176019907,582.2174176019907,582.2174176019907,582.2174176019907,582.2174176019907,582.2174176019907,a,0.8088633439911064,10,345,1,583.0518188640126,584.5534074110037,,,,,,,,,,,,,,,,,,,,,,,,,,,,,,,,,,,,,,,,,,,,,,,,,,,,,,,,,,,,,,,,,,,,,40147,2022-11-28_10h36.06.595,vts_reward_expectancy_bt_OFFLINE,2022.2.4,59.884980833583164,
0,1,0,0,0,0,1,0,circle,hexagon,1,0,1,0,0,9,9,4,,,,,,,,,,,,,,,,,,,,,,,,,,,,,,,,,,,,,,,,585.0539858950069,585.0539858950069,585.0539858950069,585.0539858950069,585.0539858950069,585.0539858950069,585.0539858950069,585.0539858950069,585.0539858950069,585.0539858950069,a,1.0217350149760023,10,355,1,586.1049255100079,587.6066690500011,,,,,,,,,,,,,,,,,,,,,,,,,,,,,,,,,,,,,,,,,,,,,,,,,,,,,,,,,,,,,,,,,,,,,40147,2022-11-28_10h36.06.595,vts_reward_expectancy_bt_OFFLINE,2022.2.4,59.884980833583164,
0,1,0,0,0,0,0,1,circle,star,1,0,1,0,0,10,10,5,,,,,,,,,,,,,,,,,,,,,,,,,,,,,,,,,,,,,,,,588.1072154949943,588.1072154949943,588.1072154949943,588.1072154949943,588.1072154949943,588.1072154949943,588.1072154949943,588.1072154949943,588.1072154949943,588.1072154949943,a,1.1636261410021689,10,365,1,589.2917269990139,590.793556427001,,,,,,,,,,,,,,,,,,,,,,,,,,,,,,,,,,,,,,,,,,,,,,,,,,,,,,,,,,,,,,,,,,,,,40147,2022-11-28_10h36.06.595,vts_reward_expectancy_bt_OFFLINE,2022.2.4,59.884980833583164,
0,0,1,0,0,1,0,0,hexagon,circle,1,0,1,0,0,11,11,7,,,,,,,,,,,,,,,,,,,,,,,,,,,,,,,,,,,,,,,,591.2941654640017,591.2941654640017,591.2941654640017,591.2941654640017,591.2941654640017,591.2941654640017,591.2941654640017,591.2941654640017,591.2941654640017,591.2941654640017,l,0.9691871129907668,1,366,1,592.2951486959937,593.7969400369911,,,,,,,,,,,,,,,,,,,,,,,,,,,,,,,,,,,,,,,,,,,,,,,,,,,,,,,,,,,,,,,,,,,,,40147,2022-11-28_10h36.06.595,vts_reward_expectancy_bt_OFFLINE,2022.2.4,59.884980833583164,
0,1,0,0,0,0,1,0,circle,hexagon,1,0,1,0,1,0,12,4,,,,,,,,,,,,,,,,,,,,,,,,,,,,,,,,,,,,,,,,594.2973885390093,594.2973885390093,594.2973885390093,594.2973885390093,594.2973885390093,594.2973885390093,594.2973885390093,594.2973885390093,594.2973885390093,594.2973885390093,a,2.1963395600032527,10,376,1,596.5167131980124,598.0183175500133,,,,,,,,,,,,,,,,,,,,,,,,,,,,,,,,,,,,,,,,,,,,,,,,,,,,,,,,,,,,,,,,,,,,,40147,2022-11-28_10h36.06.595,vts_reward_expectancy_bt_OFFLINE,2022.2.4,59.884980833583164,
0,0,0,1,0,0,1,0,star,hexagon,1,0,1,0,1,1,13,11,,,,,,,,,,,,,,,,,,,,,,,,,,,,,,,,,,,,,,,,598.5188354540151,598.5188354540151,598.5188354540151,598.5188354540151,598.5188354540151,598.5188354540151,598.5188354540151,598.5188354540151,598.5188354540151,598.5188354540151,a,1.3613187619776,1,377,1,599.9035908509977,601.405400668009,,,,,,,,,,,,,,,,,,,,,,,,,,,,,,,,,,,,,,,,,,,,,,,,,,,,,,,,,,,,,,,,,,,,,40147,2022-11-28_10h36.06.595,vts_reward_expectancy_bt_OFFLINE,2022.2.4,59.884980833583164,
0,1,0,0,0,0,0,1,circle,star,1,0,1,0,1,2,14,5,,,,,,,,,,,,,,,,,,,,,,,,,,,,,,,,,,,,,,,,601.9058589950146,601.9058589950146,601.9058589950146,601.9058589950146,601.9058589950146,601.9058589950146,601.9058589950146,601.9058589950146,601.9058589950146,601.9058589950146,a,0.5735716799972579,10,387,1,602.5064795379876,604.008176147996,,,,,,,,,,,,,,,,,,,,,,,,,,,,,,,,,,,,,,,,,,,,,,,,,,,,,,,,,,,,,,,,,,,,,40147,2022-11-28_10h36.06.595,vts_reward_expectancy_bt_OFFLINE,2022.2.4,59.884980833583164,
1,0,0,0,0,0,0,1,triangle,star,1,0,1,0,1,3,15,2,,,,,,,,,,,,,,,,,,,,,,,,,,,,,,,,,,,,,,,,604.5086367950134,604.5086367950134,604.5086367950134,604.5086367950134,604.5086367950134,604.5086367950134,604.5086367950134,604.5086367950134,604.5086367950134,604.5086367950134,a,1.3344773009885103,10,397,1,605.8601331700047,607.3619516949984,,,,,,,,,,,,,,,,,,,,,,,,,,,,,,,,,,,,,,,,,,,,,,,,,,,,,,,,,,,,,,,,,,,,,40147,2022-11-28_10h36.06.595,vts_reward_expectancy_bt_OFFLINE,2022.2.4,59.884980833583164,
0,1,0,0,1,0,0,0,circle,triangle,1,0,1,0,1,4,16,3,,,,,,,,,,,,,,,,,,,,,,,,,,,,,,,,,,,,,,,,607.8624546650099,607.8624546650099,607.8624546650099,607.8624546650099,607.8624546650099,607.8624546650099,607.8624546650099,607.8624546650099,607.8624546650099,607.8624546650099,a,2.671058973966865,10,407,1,610.5653927380044,612.0671316249936,,,,,,,,,,,,,,,,,,,,,,,,,,,,,,,,,,,,,,,,,,,,,,,,,,,,,,,,,,,,,,,,,,,,,40147,2022-11-28_10h36.06.595,vts_reward_expectancy_bt_OFFLINE,2022.2.4,59.884980833583164,
0,0,0,1,0,1,0,0,star ,circle,1,0,1,0,1,5,17,10,,,,,,,,,,,,,,,,,,,,,,,,,,,,,,,,,,,,,,,,612.5675786749925,612.5675786749925,612.5675786749925,612.5675786749925,612.5675786749925,612.5675786749925,612.5675786749925,612.5675786749925,612.5675786749925,612.5675786749925,l,0.6543477579834871,10,417,1,613.2518972500111,614.7533155819983,,,,,,,,,,,,,,,,,,,,,,,,,,,,,,,,,,,,,,,,,,,,,,,,,,,,,,,,,,,,,,,,,,,,,40147,2022-11-28_10h36.06.595,vts_reward_expectancy_bt_OFFLINE,2022.2.4,59.884980833583164,
1,0,0,0,0,1,0,0,triangle,circle,1,0,1,0,1,6,18,0,,,,,,,,,,,,,,,,,,,,,,,,,,,,,,,,,,,,,,,,615.253897210001,615.253897210001,615.253897210001,615.253897210001,615.253897210001,615.253897210001,615.253897210001,615.253897210001,615.253897210001,615.253897210001,l,1.0964922019920778,1,418,1,616.3720677550009,617.8734681450005,,,,,,,,,,,,,,,,,,,,,,,,,,,,,,,,,,,,,,,,,,,,,,,,,,,,,,,,,,,,,,,,,,,,,40147,2022-11-28_10h36.06.595,vts_reward_expectancy_bt_OFFLINE,2022.2.4,59.884980833583164,
0,0,1,0,0,1,0,0,hexagon,circle,1,0,1,0,1,7,19,7,,,,,,,,,,,,,,,,,,,,,,,,,,,,,,,,,,,,,,,,618.3742401890049,618.3742401890049,618.3742401890049,618.3742401890049,618.3742401890049,618.3742401890049,618.3742401890049,618.3742401890049,618.3742401890049,618.3742401890049,l,0.7769565259804949,10,428,1,619.1748915170028,620.676588236005,,,,,,,,,,,,,,,,,,,,,,,,,,,,,,,,,,,,,,,,,,,,,,,,,,,,,,,,,,,,,,,,,,,,,40147,2022-11-28_10h36.06.595,vts_reward_expectancy_bt_OFFLINE,2022.2.4,59.884980833583164,
0,0,1,0,1,0,0,0,hexagon,triangle,1,0,1,0,1,8,20,6,,,,,,,,,,,,,,,,,,,,,,,,,,,,,,,,,,,,,,,,621.1770309699932,621.1770309699932,621.1770309699932,621.1770309699932,621.1770309699932,621.1770309699932,621.1770309699932,621.1770309699932,621.1770309699932,621.1770309699932,l,1.6417196759721264,10,438,1,622.8456842800078,624.3474622459908,,,,,,,,,,,,,,,,,,,,,,,,,,,,,,,,,,,,,,,,,,,,,,,,,,,,,,,,,,,,,,,,,,,,,40147,2022-11-28_10h36.06.595,vts_reward_expectancy_bt_OFFLINE,2022.2.4,59.884980833583164,
1,0,0,0,0,0,1,0,triangle,hexagon,1,0,1,0,1,9,21,1,,,,,,,,,,,,,,,,,,,,,,,,,,,,,,,,,,,,,,,,624.8477399290132,624.8477399290132,624.8477399290132,624.8477399290132,624.8477399290132,624.8477399290132,624.8477399290132,624.8477399290132,624.8477399290132,624.8477399290132,l,2.876885272009531,1,439,1,627.7509794429934,629.2527618409949,,,,,,,,,,,,,,,,,,,,,,,,,,,,,,,,,,,,,,,,,,,,,,,,,,,,,,,,,,,,,,,,,,,,,40147,2022-11-28_10h36.06.595,vts_reward_expectancy_bt_OFFLINE,2022.2.4,59.884980833583164,
0,0,0,1,1,0,0,0,star,triangle,1,0,1,0,1,10,22,9,,,,,,,,,,,,,,,,,,,,,,,,,,,,,,,,,,,,,,,,629.7532961360121,629.7532961360121,629.7532961360121,629.7532961360121,629.7532961360121,629.7532961360121,629.7532961360121,629.7532961360121,629.7532961360121,629.7532961360121,l,1.5941397049755324,10,449,1,631.371665632003,632.8733110660105,,,,,,,,,,,,,,,,,,,,,,,,,,,,,,,,,,,,,,,,,,,,,,,,,,,,,,,,,,,,,,,,,,,,,40147,2022-11-28_10h36.06.595,vts_reward_expectancy_bt_OFFLINE,2022.2.4,59.884980833583164,
0,0,1,0,0,0,0,1,hexagon,star,1,0,1,0,1,11,23,8,,,,,,,,,,,,,,,,,,,,,,,,,,,,,,,,,,,,,,,,633.3739859990019,633.3739859990019,633.3739859990019,633.3739859990019,633.3739859990019,633.3739859990019,633.3739859990019,633.3739859990019,633.3739859990019,633.3739859990019,a,2.787473055999726,1,450,1,636.1938160179998,637.6953093330085,,,,,,,,,,,,,,,,,,,,,,,,,,,,,,,,,,,,,,,,,,,,,,,,,,,,,,,,,,,,,,,,,,,,,40147,2022-11-28_10h36.06.595,vts_reward_expectancy_bt_OFFLINE,2022.2.4,59.884980833583164,
0,0,1,0,0,1,0,0,hexagon,circle,1,0,1,0,2,0,24,7,,,,,,,,,,,,,,,,,,,,,,,,,,,,,,,,,,,,,,,,638.1958495689905,638.1958495689905,638.1958495689905,638.1958495689905,638.1958495689905,638.1958495689905,638.1958495689905,638.1958495689905,638.1958495689905,638.1958495689905,l,0.7781805520062335,10,460,1,638.9967626839934,640.4984559910081,,,,,,,,,,,,,,,,,,,,,,,,,,,,,,,,,,,,,,,,,,,,,,,,,,,,,,,,,,,,,,,,,,,,,40147,2022-11-28_10h36.06.595,vts_reward_expectancy_bt_OFFLINE,2022.2.4,59.884980833583164,
0,0,0,1,0,0,1,0,star,hexagon,1,0,1,0,2,1,25,11,,,,,,,,,,,,,,,,,,,,,,,,,,,,,,,,,,,,,,,,640.9988934579887,640.9988934579887,640.9988934579887,640.9988934579887,640.9988934579887,640.9988934579887,640.9988934579887,640.9988934579887,640.9988934579887,640.9988934579887,a,1.1701564969844185,1,461,1,642.2002866769908,643.701919574989,,,,,,,,,,,,,,,,,,,,,,,,,,,,,,,,,,,,,,,,,,,,,,,,,,,,,,,,,,,,,,,,,,,,,40147,2022-11-28_10h36.06.595,vts_reward_expectancy_bt_OFFLINE,2022.2.4,59.884980833583164,
0,0,1,0,0,0,0,1,hexagon,star,1,0,1,0,2,2,26,8,,,,,,,,,,,,,,,,,,,,,,,,,,,,,,,,,,,,,,,,644.2023817560112,644.2023817560112,644.2023817560112,644.2023817560112,644.2023817560112,644.2023817560112,644.2023817560112,644.2023817560112,644.2023817560112,644.2023817560112,a,1.7141697139886674,1,462,1,645.9376409910037,647.4393333420157,,,,,,,,,,,,,,,,,,,,,,,,,,,,,,,,,,,,,,,,,,,,,,,,,,,,,,,,,,,,,,,,,,,,,40147,2022-11-28_10h36.06.595,vts_reward_expectancy_bt_OFFLINE,2022.2.4,59.884980833583164,
0,0,1,0,1,0,0,0,hexagon,triangle,1,0,1,0,2,3,27,6,,,,,,,,,,,,,,,,,,,,,,,,,,,,,,,,,,,,,,,,647.939900405996,647.939900405996,647.939900405996,647.939900405996,647.939900405996,647.939900405996,647.939900405996,647.939900405996,647.939900405996,647.939900405996,l,1.05895773897646,10,472,1,649.0248149090039,650.5261408140068,,,,,,,,,,,,,,,,,,,,,,,,,,,,,,,,,,,,,,,,,,,,,,,,,,,,,,,,,,,,,,,,,,,,,40147,2022-11-28_10h36.06.595,vts_reward_expectancy_bt_OFFLINE,2022.2.4,59.884980833583164,
1,0,0,0,0,1,0,0,triangle,circle,1,0,1,0,2,4,28,0,,,,,,,,,,,,,,,,,,,,,,,,,,,,,,,,,,,,,,,,651.0268175890087,651.0268175890087,651.0268175890087,651.0268175890087,651.0268175890087,651.0268175890087,651.0268175890087,651.0268175890087,651.0268175890087,651.0268175890087,l,1.0329185060109012,10,482,1,652.0778535800055,653.5787689239951,,,,,,,,,,,,,,,,,,,,,,,,,,,,,,,,,,,,,,,,,,,,,,,,,,,,,,,,,,,,,,,,,,,,,40147,2022-11-28_10h36.06.595,vts_reward_expectancy_bt_OFFLINE,2022.2.4,59.884980833583164,
0,0,0,1,0,1,0,0,star ,circle,1,0,1,0,2,5,29,10,,,,,,,,,,,,,,,,,,,,,,,,,,,,,,,,,,,,,,,,654.0802649779944,654.0802649779944,654.0802649779944,654.0802649779944,654.0802649779944,654.0802649779944,654.0802649779944,654.0802649779944,654.0802649779944,654.0802649779944,l,0.509323748992756,10,492,1,654.6140024240012,656.1157149490027,,,,,,,,,,,,,,,,,,,,,,,,,,,,,,,,,,,,,,,,,,,,,,,,,,,,,,,,,,,,,,,,,,,,,40147,2022-11-28_10h36.06.595,vts_reward_expectancy_bt_OFFLINE,2022.2.4,59.884980833583164,
0,1,0,0,0,0,1,0,circle,hexagon,1,0,1,0,2,6,30,4,,,,,,,,,,,,,,,,,,,,,,,,,,,,,,,,,,,,,,,,656.616124283988,656.616124283988,656.616124283988,656.616124283988,656.616124283988,656.616124283988,656.616124283988,656.616124283988,656.616124283988,656.616124283988,a,0.5173961299879011,10,502,1,657.1502065960085,658.6516577510047,,,,,,,,,,,,,,,,,,,,,,,,,,,,,,,,,,,,,,,,,,,,,,,,,,,,,,,,,,,,,,,,,,,,,40147,2022-11-28_10h36.06.595,vts_reward_expectancy_bt_OFFLINE,2022.2.4,59.884980833583164,
1,0,0,0,0,0,0,1,triangle,star,1,0,1,0,2,7,31,2,,,,,,,,,,,,,,,,,,,,,,,,,,,,,,,,,,,,,,,,659.1523141920043,659.1523141920043,659.1523141920043,659.1523141920043,659.1523141920043,659.1523141920043,659.1523141920043,659.1523141920043,659.1523141920043,659.1523141920043,a,0.6801779799861833,10,512,1,659.8531252249959,661.3548929539975,,,,,,,,,,,,,,,,,,,,,,,,,,,,,,,,,,,,,,,,,,,,,,,,,,,,,,,,,,,,,,,,,,,,,40147,2022-11-28_10h36.06.595,vts_reward_expectancy_bt_OFFLINE,2022.2.4,59.884980833583164,
0,1,0,0,1,0,0,0,circle,triangle,1,0,1,0,2,8,32,3,,,,,,,,,,,,,,,,,,,,,,,,,,,,,,,,,,,,,,,,661.855304658995,661.855304658995,661.855304658995,661.855304658995,661.855304658995,661.855304658995,661.855304658995,661.855304658995,661.855304658995,661.855304658995,l,0.4405910969944671,10,522,1,662.3224532660097,663.8242668379971,,,,,,,,,,,,,,,,,,,,,,,,,,,,,,,,,,,,,,,,,,,,,,,,,,,,,,,,,,,,,,,,,,,,,40147,2022-11-28_10h36.06.595,vts_reward_expectancy_bt_OFFLINE,2022.2.4,59.884980833583164,
0,1,0,0,0,0,0,1,circle,star,1,0,1,0,2,9,33,5,,,,,,,,,,,,,,,,,,,,,,,,,,,,,,,,,,,,,,,,664.3247222680075,664.3247222680075,664.3247222680075,664.3247222680075,664.3247222680075,664.3247222680075,664.3247222680075,664.3247222680075,664.3247222680075,664.3247222680075,a,0.3344458359933924,10,532,1,664.6919524949917,666.193490598991,,,,,,,,,,,,,,,,,,,,,,,,,,,,,,,,,,,,,,,,,,,,,,,,,,,,,,,,,,,,,,,,,,,,,40147,2022-11-28_10h36.06.595,vts_reward_expectancy_bt_OFFLINE,2022.2.4,59.884980833583164,
1,0,0,0,0,0,1,0,triangle,hexagon,1,0,1,0,2,10,34,1,,,,,,,,,,,,,,,,,,,,,,,,,,,,,,,,,,,,,,,,666.6939117469883,666.6939117469883,666.6939117469883,666.6939117469883,666.6939117469883,666.6939117469883,666.6939117469883,666.6939117469883,666.6939117469883,666.6939117469883,a,0.6662503039988223,1,533,1,667.3783240689954,668.8797565849964,,,,,,,,,,,,,,,,,,,,,,,,,,,,,,,,,,,,,,,,,,,,,,,,,,,,,,,,,,,,,,,,,,,,,40147,2022-11-28_10h36.06.595,vts_reward_expectancy_bt_OFFLINE,2022.2.4,59.884980833583164,
0,0,0,1,1,0,0,0,star,triangle,1,0,1,0,2,11,35,9,,,,,,,,,,,,,,,,,,,,,,,,,,,,,,,,,,,,,,,,669.3804673280101,669.3804673280101,669.3804673280101,669.3804673280101,669.3804673280101,669.3804673280101,669.3804673280101,669.3804673280101,669.3804673280101,669.3804673280101,l,0.453721729980316,1,534,1,669.8641741859901,671.3660020969983,,,,,,,,,,,,,,,,,,,,,,,,,,,,,,,,,,,,,,,,,,,,,,,,,,,,,,,,,,,,,,,,,,,,,40147,2022-11-28_10h36.06.595,vts_reward_expectancy_bt_OFFLINE,2022.2.4,59.884980833583164,
0,0,0,1,0,1,0,0,star ,circle,1,0,1,0,3,0,36,10,,,,,,,,,,,,,,,,,,,,,,,,,,,,,,,,,,,,,,,,671.8660473859927,671.8660473859927,671.8660473859927,671.8660473859927,671.8660473859927,671.8660473859927,671.8660473859927,671.8660473859927,671.8660473859927,671.8660473859927,l,0.40955039698746987,10,544,1,672.300160054001,673.8017702829966,,,,,,,,,,,,,,,,,,,,,,,,,,,,,,,,,,,,,,,,,,,,,,,,,,,,,,,,,,,,,,,,,,,,,40147,2022-11-28_10h36.06.595,vts_reward_expectancy_bt_OFFLINE,2022.2.4,59.884980833583164,
1,0,0,0,0,0,0,1,triangle,star,1,0,1,0,3,1,37,2,,,,,,,,,,,,,,,,,,,,,,,,,,,,,,,,,,,,,,,,674.3023258630128,674.3023258630128,674.3023258630128,674.3023258630128,674.3023258630128,674.3023258630128,674.3023258630128,674.3023258630128,674.3023258630128,674.3023258630128,a,0.38133153997478075,10,554,1,674.7028983939963,676.2046176719887,,,,,,,,,,,,,,,,,,,,,,,,,,,,,,,,,,,,,,,,,,,,,,,,,,,,,,,,,,,,,,,,,,,,,40147,2022-11-28_10h36.06.595,vts_reward_expectancy_bt_OFFLINE,2022.2.4,59.884980833583164,
0,0,1,0,0,1,0,0,hexagon,circle,1,0,1,0,3,2,38,7,,,,,,,,,,,,,,,,,,,,,,,,,,,,,,,,,,,,,,,,676.7049591190007,676.7049591190007,676.7049591190007,676.7049591190007,676.7049591190007,676.7049591190007,676.7049591190007,676.7049591190007,676.7049591190007,676.7049591190007,l,0.40847506999853067,10,564,1,677.1391760169936,678.640484944015,,,,,,,,,,,,,,,,,,,,,,,,,,,,,,,,,,,,,,,,,,,,,,,,,,,,,,,,,,,,,,,,,,,,,40147,2022-11-28_10h36.06.595,vts_reward_expectancy_bt_OFFLINE,2022.2.4,59.884980833583164,
0,0,1,0,1,0,0,0,hexagon,triangle,1,0,1,0,3,3,39,6,,,,,,,,,,,,,,,,,,,,,,,,,,,,,,,,,,,,,,,,679.1410688550095,679.1410688550095,679.1410688550095,679.1410688550095,679.1410688550095,679.1410688550095,679.1410688550095,679.1410688550095,679.1410688550095,679.1410688550095,a,0.3903061579912901,1,565,1,679.5582264589902,681.059679079015,,,,,,,,,,,,,,,,,,,,,,,,,,,,,,,,,,,,,,,,,,,,,,,,,,,,,,,,,,,,,,,,,,,,,40147,2022-11-28_10h36.06.595,vts_reward_expectancy_bt_OFFLINE,2022.2.4,59.884980833583164,
0,0,1,0,0,0,0,1,hexagon,star,1,0,1,0,3,4,40,8,,,,,,,,,,,,,,,,,,,,,,,,,,,,,,,,,,,,,,,,681.5604083049984,681.5604083049984,681.5604083049984,681.5604083049984,681.5604083049984,681.5604083049984,681.5604083049984,681.5604083049984,681.5604083049984,681.5604083049984,a,0.45733900601044297,1,566,1,682.044139428006,683.5457363179885,,,,,,,,,,,,,,,,,,,,,,,,,,,,,,,,,,,,,,,,,,,,,,,,,,,,,,,,,,,,,,,,,,,,,40147,2022-11-28_10h36.06.595,vts_reward_expectancy_bt_OFFLINE,2022.2.4,59.884980833583164,
1,0,0,0,0,0,1,0,triangle,hexagon,1,0,1,0,3,5,41,1,,,,,,,,,,,,,,,,,,,,,,,,,,,,,,,,,,,,,,,,684.0464310829993,684.0464310829993,684.0464310829993,684.0464310829993,684.0464310829993,684.0464310829993,684.0464310829993,684.0464310829993,684.0464310829993,684.0464310829993,a,1.0330891649937257,10,576,1,685.0975798270083,686.5993590500148,,,,,,,,,,,,,,,,,,,,,,,,,,,,,,,,,,,,,,,,,,,,,,,,,,,,,,,,,,,,,,,,,,,,,40147,2022-11-28_10h36.06.595,vts_reward_expectancy_bt_OFFLINE,2022.2.4,59.884980833583164,
1,0,0,0,0,1,0,0,triangle,circle,1,0,1,0,3,6,42,0,,,,,,,,,,,,,,,,,,,,,,,,,,,,,,,,,,,,,,,,687.0998223109927,687.0998223109927,687.0998223109927,687.0998223109927,687.0998223109927,687.0998223109927,687.0998223109927,687.0998223109927,687.0998223109927,687.0998223109927,l,0.3515395319845993,10,586,1,687.4836843519879,688.9852900439873,,,,,,,,,,,,,,,,,,,,,,,,,,,,,,,,,,,,,,,,,,,,,,,,,,,,,,,,,,,,,,,,,,,,,40147,2022-11-28_10h36.06.595,vts_reward_expectancy_bt_OFFLINE,2022.2.4,59.884980833583164,
0,1,0,0,0,0,1,0,circle,hexagon,1,0,1,0,3,7,43,4,,,,,,,,,,,,,,,,,,,,,,,,,,,,,,,,,,,,,,,,689.4857732559904,689.4857732559904,689.4857732559904,689.4857732559904,689.4857732559904,689.4857732559904,689.4857732559904,689.4857732559904,689.4857732559904,689.4857732559904,a,0.39630837499862537,1,587,1,689.9029938429885,691.4047772219928,,,,,,,,,,,,,,,,,,,,,,,,,,,,,,,,,,,,,,,,,,,,,,,,,,,,,,,,,,,,,,,,,,,,,40147,2022-11-28_10h36.06.595,vts_reward_expectancy_bt_OFFLINE,2022.2.4,59.884980833583164,
0,1,0,0,0,0,0,1,circle,star,1,0,1,0,3,8,44,5,,,,,,,,,,,,,,,,,,,,,,,,,,,,,,,,,,,,,,,,691.9051926879911,691.9051926879911,691.9051926879911,691.9051926879911,691.9051926879911,691.9051926879911,691.9051926879911,691.9051926879911,691.9051926879911,691.9051926879911,a,0.40731202700408176,1,588,1,692.33895875499,693.840682798007,,,,,,,,,,,,,,,,,,,,,,,,,,,,,,,,,,,,,,,,,,,,,,,,,,,,,,,,,,,,,,,,,,,,,40147,2022-11-28_10h36.06.595,vts_reward_expectancy_bt_OFFLINE,2022.2.4,59.884980833583164,
0,0,0,1,0,0,1,0,star,hexagon,1,0,1,0,3,9,45,11,,,,,,,,,,,,,,,,,,,,,,,,,,,,,,,,,,,,,,,,694.3411107049906,694.3411107049906,694.3411107049906,694.3411107049906,694.3411107049906,694.3411107049906,694.3411107049906,694.3411107049906,694.3411107049906,694.3411107049906,l,0.5132349589839578,1,589,1,694.8752045980073,696.3767787700053,,,,,,,,,,,,,,,,,,,,,,,,,,,,,,,,,,,,,,,,,,,,,,,,,,,,,,,,,,,,,,,,,,,,,40147,2022-11-28_10h36.06.595,vts_reward_expectancy_bt_OFFLINE,2022.2.4,59.884980833583164,
0,0,0,1,1,0,0,0,star,triangle,1,0,1,0,3,10,46,9,,,,,,,,,,,,,,,,,,,,,,,,,,,,,,,,,,,,,,,,696.8771844489966,696.8771844489966,696.8771844489966,696.8771844489966,696.8771844489966,696.8771844489966,696.8771844489966,696.8771844489966,696.8771844489966,696.8771844489966,l,0.5086645650153514,10,599,1,697.4111144400085,698.9128383999923,,,,,,,,,,,,,,,,,,,,,,,,,,,,,,,,,,,,,,,,,,,,,,,,,,,,,,,,,,,,,,,,,,,,,40147,2022-11-28_10h36.06.595,vts_reward_expectancy_bt_OFFLINE,2022.2.4,59.884980833583164,
0,1,0,0,1,0,0,0,circle,triangle,1,0,1,0,3,11,47,3,,,,,,,,,,,,,,,,,,,,,,,,,,,,,,,,,,,,,,,,699.4134076189948,699.4134076189948,699.4134076189948,699.4134076189948,699.4134076189948,699.4134076189948,699.4134076189948,699.4134076189948,699.4134076189948,699.4134076189948,a,0.41471797999111004,10,609,1,699.8472306210024,701.3489689000126,,,,,,,,,,,,,,,,,,,,,,,,,,,,,,,,,,,,,,,,,,,,,,,,,,,,,,,,,,,,,,,,,,,,,40147,2022-11-28_10h36.06.595,vts_reward_expectancy_bt_OFFLINE,2022.2.4,59.884980833583164,
1,0,0,0,0,0,0,1,triangle,star,2,0,2,0,0,0,0,2,,,,,,,,,,,,,,,,,,,,,,,,,,,,,,,,,,,,,,,,719.7772415879881,719.7772415879881,719.7772415879881,719.7772415879881,719.7772415879881,719.7772415879881,719.7772415879881,719.7772415879881,719.7772415879881,719.7772415879881,a,1.0203358929720707,1,610,2,720.8204519510036,722.321995929,,,,,,,,,,,,,,,,,,,,,,,,,,,,,,,,,,,,,,,,,,,,,,,,,,,,,,,,,,,,,,,,,,,,,40147,2022-11-28_10h36.06.595,vts_reward_expectancy_bt_OFFLINE,2022.2.4,59.884980833583164,
0,1,0,0,1,0,0,0,circle,triangle,2,0,2,0,0,1,1,3,,,,,,,,,,,,,,,,,,,,,,,,,,,,,,,,,,,,,,,,722.8225624799961,722.8225624799961,722.8225624799961,722.8225624799961,722.8225624799961,722.8225624799961,722.8225624799961,722.8225624799961,722.8225624799961,722.8225624799961,a,0.8440767419815529,10,620,2,723.6902547889913,725.1918300499965,,,,,,,,,,,,,,,,,,,,,,,,,,,,,,,,,,,,,,,,,,,,,,,,,,,,,,,,,,,,,,,,,,,,,40147,2022-11-28_10h36.06.595,vts_reward_expectancy_bt_OFFLINE,2022.2.4,59.884980833583164,
0,0,0,1,0,0,1,0,star,hexagon,2,0,2,0,0,2,2,11,,,,,,,,,,,,,,,,,,,,,,,,,,,,,,,,,,,,,,,,725.6924212599988,725.6924212599988,725.6924212599988,725.6924212599988,725.6924212599988,725.6924212599988,725.6924212599988,725.6924212599988,725.6924212599988,725.6924212599988,a,1.0015380529803224,1,621,2,726.7269511859922,728.2284936069918,,,,,,,,,,,,,,,,,,,,,,,,,,,,,,,,,,,,,,,,,,,,,,,,,,,,,,,,,,,,,,,,,,,,,40147,2022-11-28_10h36.06.595,vts_reward_expectancy_bt_OFFLINE,2022.2.4,59.884980833583164,
0,1,0,0,0,0,0,1,circle,star,2,0,2,0,0,3,3,5,,,,,,,,,,,,,,,,,,,,,,,,,,,,,,,,,,,,,,,,728.7290372709977,728.7290372709977,728.7290372709977,728.7290372709977,728.7290372709977,728.7290372709977,728.7290372709977,728.7290372709977,728.7290372709977,728.7290372709977,a,0.5739260179980192,10,631,2,729.3298064619885,730.831589214009,,,,,,,,,,,,,,,,,,,,,,,,,,,,,,,,,,,,,,,,,,,,,,,,,,,,,,,,,,,,,,,,,,,,,40147,2022-11-28_10h36.06.595,vts_reward_expectancy_bt_OFFLINE,2022.2.4,59.884980833583164,
0,1,0,0,0,0,1,0,circle,hexagon,2,0,2,0,0,4,4,4,,,,,,,,,,,,,,,,,,,,,,,,,,,,,,,,,,,,,,,,731.3320088160108,731.3320088160108,731.3320088160108,731.3320088160108,731.3320088160108,731.3320088160108,731.3320088160108,731.3320088160108,731.3320088160108,731.3320088160108,a,0.5362571039877366,10,641,2,731.8992739219975,733.4008984070097,,,,,,,,,,,,,,,,,,,,,,,,,,,,,,,,,,,,,,,,,,,,,,,,,,,,,,,,,,,,,,,,,,,,,40147,2022-11-28_10h36.06.595,vts_reward_expectancy_bt_OFFLINE,2022.2.4,59.884980833583164,
1,0,0,0,0,1,0,0,triangle,circle,2,0,2,0,0,5,5,0,,,,,,,,,,,,,,,,,,,,,,,,,,,,,,,,,,,,,,,,733.9015443070093,733.9015443070093,733.9015443070093,733.9015443070093,733.9015443070093,733.9015443070093,733.9015443070093,733.9015443070093,733.9015443070093,733.9015443070093,l,0.48638877097982913,1,642,2,734.4187711770064,735.9203182749916,,,,,,,,,,,,,,,,,,,,,,,,,,,,,,,,,,,,,,,,,,,,,,,,,,,,,,,,,,,,,,,,,,,,,40147,2022-11-28_10h36.06.595,vts_reward_expectancy_bt_OFFLINE,2022.2.4,59.884980833583164,
0,0,0,1,0,1,0,0,star ,circle,2,0,2,0,0,6,6,10,,,,,,,,,,,,,,,,,,,,,,,,,,,,,,,,,,,,,,,,736.4209953760146,736.4209953760146,736.4209953760146,736.4209953760146,736.4209953760146,736.4209953760146,736.4209953760146,736.4209953760146,736.4209953760146,736.4209953760146,l,0.5435374249937013,1,643,2,736.9883649240073,738.489880461013,,,,,,,,,,,,,,,,,,,,,,,,,,,,,,,,,,,,,,,,,,,,,,,,,,,,,,,,,,,,,,,,,,,,,40147,2022-11-28_10h36.06.595,vts_reward_expectancy_bt_OFFLINE,2022.2.4,59.884980833583164,
0,0,1,0,1,0,0,0,hexagon,triangle,2,0,2,0,0,7,7,6,,,,,,,,,,,,,,,,,,,,,,,,,,,,,,,,,,,,,,,,738.9906742020103,738.9906742020103,738.9906742020103,738.9906742020103,738.9906742020103,738.9906742020103,738.9906742020103,738.9906742020103,738.9906742020103,738.9906742020103,l,0.8663885879795998,10,653,2,739.8747451940144,741.3764302729978,,,,,,,,,,,,,,,,,,,,,,,,,,,,,,,,,,,,,,,,,,,,,,,,,,,,,,,,,,,,,,,,,,,,,40147,2022-11-28_10h36.06.595,vts_reward_expectancy_bt_OFFLINE,2022.2.4,59.884980833583164,
0,0,1,0,0,1,0,0,hexagon,circle,2,0,2,0,0,8,8,7,,,,,,,,,,,,,,,,,,,,,,,,,,,,,,,,,,,,,,,,741.8770433909958,741.8770433909958,741.8770433909958,741.8770433909958,741.8770433909958,741.8770433909958,741.8770433909958,741.8770433909958,741.8770433909958,741.8770433909958,l,0.5674277999787591,10,663,2,742.460946348001,743.962714608002,,,,,,,,,,,,,,,,,,,,,,,,,,,,,,,,,,,,,,,,,,,,,,,,,,,,,,,,,,,,,,,,,,,,,40147,2022-11-28_10h36.06.595,vts_reward_expectancy_bt_OFFLINE,2022.2.4,59.884980833583164,
1,0,0,0,0,0,1,0,triangle,hexagon,2,0,2,0,0,9,9,1,,,,,,,,,,,,,,,,,,,,,,,,,,,,,,,,,,,,,,,,744.4632040220022,744.4632040220022,744.4632040220022,744.4632040220022,744.4632040220022,744.4632040220022,744.4632040220022,744.4632040220022,744.4632040220022,744.4632040220022,a,1.0976985679881182,10,673,2,745.5812029489898,747.0826889500022,,,,,,,,,,,,,,,,,,,,,,,,,,,,,,,,,,,,,,,,,,,,,,,,,,,,,,,,,,,,,,,,,,,,,40147,2022-11-28_10h36.06.595,vts_reward_expectancy_bt_OFFLINE,2022.2.4,59.884980833583164,
0,0,1,0,0,0,0,1,hexagon,star,2,0,2,0,0,10,10,8,,,,,,,,,,,,,,,,,,,,,,,,,,,,,,,,,,,,,,,,747.5833111969987,747.5833111969987,747.5833111969987,747.5833111969987,747.5833111969987,747.5833111969987,747.5833111969987,747.5833111969987,747.5833111969987,747.5833111969987,a,0.45243032099097036,1,674,2,748.0671555449953,749.5688835229957,,,,,,,,,,,,,,,,,,,,,,,,,,,,,,,,,,,,,,,,,,,,,,,,,,,,,,,,,,,,,,,,,,,,,40147,2022-11-28_10h36.06.595,vts_reward_expectancy_bt_OFFLINE,2022.2.4,59.884980833583164,
0,0,0,1,1,0,0,0,star,triangle,2,0,2,0,0,11,11,9,,,,,,,,,,,,,,,,,,,,,,,,,,,,,,,,,,,,,,,,750.0692808160093,750.0692808160093,750.0692808160093,750.0692808160093,750.0692808160093,750.0692808160093,750.0692808160093,750.0692808160093,750.0692808160093,750.0692808160093,l,0.7781693679862656,10,684,2,750.8703023009875,752.3718360390048,,,,,,,,,,,,,,,,,,,,,,,,,,,,,,,,,,,,,,,,,,,,,,,,,,,,,,,,,,,,,,,,,,,,,40147,2022-11-28_10h36.06.595,vts_reward_expectancy_bt_OFFLINE,2022.2.4,59.884980833583164,
0,0,0,1,0,1,0,0,star ,circle,2,0,2,0,1,0,12,10,,,,,,,,,,,,,,,,,,,,,,,,,,,,,,,,,,,,,,,,752.8723167020071,752.8723167020071,752.8723167020071,752.8723167020071,752.8723167020071,752.8723167020071,752.8723167020071,752.8723167020071,752.8723167020071,752.8723167020071,l,0.8005449489864986,10,694,2,753.6901809580158,755.1916598989919,,,,,,,,,,,,,,,,,,,,,,,,,,,,,,,,,,,,,,,,,,,,,,,,,,,,,,,,,,,,,,,,,,,,,40147,2022-11-28_10h36.06.595,vts_reward_expectancy_bt_OFFLINE,2022.2.4,59.884980833583164,
0,0,1,0,0,1,0,0,hexagon,circle,2,0,2,0,1,1,13,7,,,,,,,,,,,,,,,,,,,,,,,,,,,,,,,,,,,,,,,,755.692104835005,755.692104835005,755.692104835005,755.692104835005,755.692104835005,755.692104835005,755.692104835005,755.692104835005,755.692104835005,755.692104835005,l,0.6240171320096124,10,704,2,756.3427943190036,757.8446699109918,,,,,,,,,,,,,,,,,,,,,,,,,,,,,,,,,,,,,,,,,,,,,,,,,,,,,,,,,,,,,,,,,,,,,40147,2022-11-28_10h36.06.595,vts_reward_expectancy_bt_OFFLINE,2022.2.4,59.884980833583164,
0,1,0,0,1,0,0,0,circle,triangle,2,0,2,0,1,2,14,3,,,,,,,,,,,,,,,,,,,,,,,,,,,,,,,,,,,,,,,,758.3450637279893,758.3450637279893,758.3450637279893,758.3450637279893,758.3450637279893,758.3450637279893,758.3450637279893,758.3450637279893,758.3450637279893,758.3450637279893,a,1.5814098779810593,10,714,2,759.9467933810083,761.4484102310089,,,,,,,,,,,,,,,,,,,,,,,,,,,,,,,,,,,,,,,,,,,,,,,,,,,,,,,,,,,,,,,,,,,,,40147,2022-11-28_10h36.06.595,vts_reward_expectancy_bt_OFFLINE,2022.2.4,59.884980833583164,
1,0,0,0,0,1,0,0,triangle,circle,2,0,2,0,1,3,15,0,,,,,,,,,,,,,,,,,,,,,,,,,,,,,,,,,,,,,,,,761.9489168320142,761.9489168320142,761.9489168320142,761.9489168320142,761.9489168320142,761.9489168320142,761.9489168320142,761.9489168320142,761.9489168320142,761.9489168320142,l,1.3642341810045764,1,715,2,763.3337982970115,764.8354985449987,,,,,,,,,,,,,,,,,,,,,,,,,,,,,,,,,,,,,,,,,,,,,,,,,,,,,,,,,,,,,,,,,,,,,40147,2022-11-28_10h36.06.595,vts_reward_expectancy_bt_OFFLINE,2022.2.4,59.884980833583164,
0,1,0,0,0,0,1,0,circle,hexagon,2,0,2,0,1,4,16,4,,,,,,,,,,,,,,,,,,,,,,,,,,,,,,,,,,,,,,,,765.3360782329983,765.3360782329983,765.3360782329983,765.3360782329983,765.3360782329983,765.3360782329983,765.3360782329983,765.3360782329983,765.3360782329983,765.3360782329983,a,0.6881380289851222,10,725,2,766.0534935840114,767.5551139980089,,,,,,,,,,,,,,,,,,,,,,,,,,,,,,,,,,,,,,,,,,,,,,,,,,,,,,,,,,,,,,,,,,,,,40147,2022-11-28_10h36.06.595,vts_reward_expectancy_bt_OFFLINE,2022.2.4,59.884980833583164,
1,0,0,0,0,0,1,0,triangle,hexagon,2,0,2,0,1,5,17,1,,,,,,,,,,,,,,,,,,,,,,,,,,,,,,,,,,,,,,,,768.0556513310003,768.0556513310003,768.0556513310003,768.0556513310003,768.0556513310003,768.0556513310003,768.0556513310003,768.0556513310003,768.0556513310003,768.0556513310003,a,0.8935929819999728,10,735,2,768.9733978199947,770.4750197799876,,,,,,,,,,,,,,,,,,,,,,,,,,,,,,,,,,,,,,,,,,,,,,,,,,,,,,,,,,,,,,,,,,,,,40147,2022-11-28_10h36.06.595,vts_reward_expectancy_bt_OFFLINE,2022.2.4,59.884980833583164,
0,0,0,1,0,0,1,0,star,hexagon,2,0,2,0,1,6,18,11,,,,,,,,,,,,,,,,,,,,,,,,,,,,,,,,,,,,,,,,770.9755238590005,770.9755238590005,770.9755238590005,770.9755238590005,770.9755238590005,770.9755238590005,770.9755238590005,770.9755238590005,770.9755238590005,770.9755238590005,l,1.035300636984175,10,745,2,772.0434510589985,773.5450766700087,,,,,,,,,,,,,,,,,,,,,,,,,,,,,,,,,,,,,,,,,,,,,,,,,,,,,,,,,,,,,,,,,,,,,40147,2022-11-28_10h36.06.595,vts_reward_expectancy_bt_OFFLINE,2022.2.4,59.884980833583164,
0,1,0,0,0,0,0,1,circle,star,2,0,2,0,1,7,19,5,,,,,,,,,,,,,,,,,,,,,,,,,,,,,,,,,,,,,,,,774.0456412630156,774.0456412630156,774.0456412630156,774.0456412630156,774.0456412630156,774.0456412630156,774.0456412630156,774.0456412630156,774.0456412630156,774.0456412630156,a,0.5636539339902811,10,755,2,774.6296697270009,776.1313198879943,,,,,,,,,,,,,,,,,,,,,,,,,,,,,,,,,,,,,,,,,,,,,,,,,,,,,,,,,,,,,,,,,,,,,40147,2022-11-28_10h36.06.595,vts_reward_expectancy_bt_OFFLINE,2022.2.4,59.884980833583164,
0,0,0,1,1,0,0,0,star,triangle,2,0,2,0,1,8,20,9,,,,,,,,,,,,,,,,,,,,,,,,,,,,,,,,,,,,,,,,776.6320061929873,776.6320061929873,776.6320061929873,776.6320061929873,776.6320061929873,776.6320061929873,776.6320061929873,776.6320061929873,776.6320061929873,776.6320061929873,l,0.7339518019871321,10,765,2,777.3827227239963,778.8842938739981,,,,,,,,,,,,,,,,,,,,,,,,,,,,,,,,,,,,,,,,,,,,,,,,,,,,,,,,,,,,,,,,,,,,,40147,2022-11-28_10h36.06.595,vts_reward_expectancy_bt_OFFLINE,2022.2.4,59.884980833583164,
1,0,0,0,0,0,0,1,triangle,star,2,0,2,0,1,9,21,2,,,,,,,,,,,,,,,,,,,,,,,,,,,,,,,,,,,,,,,,779.3851175210148,779.3851175210148,779.3851175210148,779.3851175210148,779.3851175210148,779.3851175210148,779.3851175210148,779.3851175210148,779.3851175210148,779.3851175210148,a,0.9391847319784574,10,775,2,780.3526755869971,781.854359238001,,,,,,,,,,,,,,,,,,,,,,,,,,,,,,,,,,,,,,,,,,,,,,,,,,,,,,,,,,,,,,,,,,,,,40147,2022-11-28_10h36.06.595,vts_reward_expectancy_bt_OFFLINE,2022.2.4,59.884980833583164,
0,0,1,0,1,0,0,0,hexagon,triangle,2,0,2,0,1,10,22,6,,,,,,,,,,,,,,,,,,,,,,,,,,,,,,,,,,,,,,,,782.3548501890036,782.3548501890036,782.3548501890036,782.3548501890036,782.3548501890036,782.3548501890036,782.3548501890036,782.3548501890036,782.3548501890036,782.3548501890036,l,0.8260660849919077,10,785,2,783.2058799260121,784.7075006779924,,,,,,,,,,,,,,,,,,,,,,,,,,,,,,,,,,,,,,,,,,,,,,,,,,,,,,,,,,,,,,,,,,,,,40147,2022-11-28_10h36.06.595,vts_reward_expectancy_bt_OFFLINE,2022.2.4,59.884980833583164,
0,0,1,0,0,0,0,1,hexagon,star,2,0,2,0,1,11,23,8,,,,,,,,,,,,,,,,,,,,,,,,,,,,,,,,,,,,,,,,785.2081097179907,785.2081097179907,785.2081097179907,785.2081097179907,785.2081097179907,785.2081097179907,785.2081097179907,785.2081097179907,785.2081097179907,785.2081097179907,l,1.090684965980472,10,795,2,786.3259975379915,787.8278112830012,,,,,,,,,,,,,,,,,,,,,,,,,,,,,,,,,,,,,,,,,,,,,,,,,,,,,,,,,,,,,,,,,,,,,40147,2022-11-28_10h36.06.595,vts_reward_expectancy_bt_OFFLINE,2022.2.4,59.884980833583164,
0,0,1,0,0,1,0,0,hexagon,circle,2,0,2,0,2,0,24,7,,,,,,,,,,,,,,,,,,,,,,,,,,,,,,,,,,,,,,,,788.3282595830096,788.3282595830096,788.3282595830096,788.3282595830096,788.3282595830096,788.3282595830096,788.3282595830096,788.3282595830096,788.3282595830096,788.3282595830096,l,1.1534318099729717,10,805,2,789.512851751002,791.0142464959936,,,,,,,,,,,,,,,,,,,,,,,,,,,,,,,,,,,,,,,,,,,,,,,,,,,,,,,,,,,,,,,,,,,,,40147,2022-11-28_10h36.06.595,vts_reward_expectancy_bt_OFFLINE,2022.2.4,59.884980833583164,
0,0,0,1,0,1,0,0,star ,circle,2,0,2,0,2,1,25,10,,,,,,,,,,,,,,,,,,,,,,,,,,,,,,,,,,,,,,,,791.5148838979949,791.5148838979949,791.5148838979949,791.5148838979949,791.5148838979949,791.5148838979949,791.5148838979949,791.5148838979949,791.5148838979949,791.5148838979949,a,0.6561423099774402,10,815,2,792.1991853539948,793.7008190990018,,,,,,,,,,,,,,,,,,,,,,,,,,,,,,,,,,,,,,,,,,,,,,,,,,,,,,,,,,,,,,,,,,,,,40147,2022-11-28_10h36.06.595,vts_reward_expectancy_bt_OFFLINE,2022.2.4,59.884980833583164,
0,0,0,1,1,0,0,0,star,triangle,2,0,2,0,2,2,26,9,,,,,,,,,,,,,,,,,,,,,,,,,,,,,,,,,,,,,,,,794.2013000030129,794.2013000030129,794.2013000030129,794.2013000030129,794.2013000030129,794.2013000030129,794.2013000030129,794.2013000030129,794.2013000030129,794.2013000030129,l,1.2325986929936334,1,816,2,795.4527182540041,796.9541952860018,,,,,,,,,,,,,,,,,,,,,,,,,,,,,,,,,,,,,,,,,,,,,,,,,,,,,,,,,,,,,,,,,,,,,40147,2022-11-28_10h36.06.595,vts_reward_expectancy_bt_OFFLINE,2022.2.4,59.884980833583164,
1,0,0,0,0,0,1,0,triangle,hexagon,2,0,2,0,2,3,27,1,,,,,,,,,,,,,,,,,,,,,,,,,,,,,,,,,,,,,,,,797.4548281090101,797.4548281090101,797.4548281090101,797.4548281090101,797.4548281090101,797.4548281090101,797.4548281090101,797.4548281090101,797.4548281090101,797.4548281090101,a,1.2521427609899547,10,826,2,798.7395888660103,800.2413779890048,,,,,,,,,,,,,,,,,,,,,,,,,,,,,,,,,,,,,,,,,,,,,,,,,,,,,,,,,,,,,,,,,,,,,40147,2022-11-28_10h36.06.595,vts_reward_expectancy_bt_OFFLINE,2022.2.4,59.884980833583164,
0,0,1,0,1,0,0,0,hexagon,triangle,2,0,2,0,2,4,28,6,,,,,,,,,,,,,,,,,,,,,,,,,,,,,,,,,,,,,,,,800.7417200299969,800.7417200299969,800.7417200299969,800.7417200299969,800.7417200299969,800.7417200299969,800.7417200299969,800.7417200299969,800.7417200299969,800.7417200299969,l,0.9581074029847514,10,836,2,801.7262849940162,803.2281527740124,,,,,,,,,,,,,,,,,,,,,,,,,,,,,,,,,,,,,,,,,,,,,,,,,,,,,,,,,,,,,,,,,,,,,40147,2022-11-28_10h36.06.595,vts_reward_expectancy_bt_OFFLINE,2022.2.4,59.884980833583164,
0,0,0,1,0,0,1,0,star,hexagon,2,0,2,0,2,5,29,11,,,,,,,,,,,,,,,,,,,,,,,,,,,,,,,,,,,,,,,,803.7285971659876,803.7285971659876,803.7285971659876,803.7285971659876,803.7285971659876,803.7285971659876,803.7285971659876,803.7285971659876,803.7285971659876,803.7285971659876,a,2.1890874979726505,10,846,2,805.9478775600146,807.4492914809962,,,,,,,,,,,,,,,,,,,,,,,,,,,,,,,,,,,,,,,,,,,,,,,,,,,,,,,,,,,,,,,,,,,,,40147,2022-11-28_10h36.06.595,vts_reward_expectancy_bt_OFFLINE,2022.2.4,59.884980833583164,
1,0,0,0,0,0,0,1,triangle,star,2,0,2,0,2,6,30,2,,,,,,,,,,,,,,,,,,,,,,,,,,,,,,,,,,,,,,,,807.9498055879958,807.9498055879958,807.9498055879958,807.9498055879958,807.9498055879958,807.9498055879958,807.9498055879958,807.9498055879958,807.9498055879958,807.9498055879958,a,1.1856976860144641,10,856,2,809.167858855013,810.6694212259899,,,,,,,,,,,,,,,,,,,,,,,,,,,,,,,,,,,,,,,,,,,,,,,,,,,,,,,,,,,,,,,,,,,,,40147,2022-11-28_10h36.06.595,vts_reward_expectancy_bt_OFFLINE,2022.2.4,59.884980833583164,
0,0,1,0,0,0,0,1,hexagon,star,2,0,2,0,2,7,31,8,,,,,,,,,,,,,,,,,,,,,,,,,,,,,,,,,,,,,,,,811.1699736870069,811.1699736870069,811.1699736870069,811.1699736870069,811.1699736870069,811.1699736870069,811.1699736870069,811.1699736870069,811.1699736870069,811.1699736870069,l,1.6213470379880164,1,857,2,812.8217627049889,814.323561371013,,,,,,,,,,,,,,,,,,,,,,,,,,,,,,,,,,,,,,,,,,,,,,,,,,,,,,,,,,,,,,,,,,,,,40147,2022-11-28_10h36.06.595,vts_reward_expectancy_bt_OFFLINE,2022.2.4,59.884980833583164,
0,1,0,0,0,0,0,1,circle,star,2,0,2,0,2,8,32,5,,,,,,,,,,,,,,,,,,,,,,,,,,,,,,,,,,,,,,,,814.8239756959956,814.8239756959956,814.8239756959956,814.8239756959956,814.8239756959956,814.8239756959956,814.8239756959956,814.8239756959956,814.8239756959956,814.8239756959956,a,0.8498749599966686,1,858,2,815.6916236490069,817.1934879090113,,,,,,,,,,,,,,,,,,,,,,,,,,,,,,,,,,,,,,,,,,,,,,,,,,,,,,,,,,,,,,,,,,,,,40147,2022-11-28_10h36.06.595,vts_reward_expectancy_bt_OFFLINE,2022.2.4,59.884980833583164,
0,1,0,0,1,0,0,0,circle,triangle,2,0,2,0,2,9,33,3,,,,,,,,,,,,,,,,,,,,,,,,,,,,,,,,,,,,,,,,817.6938044099952,817.6938044099952,817.6938044099952,817.6938044099952,817.6938044099952,817.6938044099952,817.6938044099952,817.6938044099952,817.6938044099952,817.6938044099952,a,1.1408526739978697,10,868,2,818.8618436160032,820.3636245930102,,,,,,,,,,,,,,,,,,,,,,,,,,,,,,,,,,,,,,,,,,,,,,,,,,,,,,,,,,,,,,,,,,,,,40147,2022-11-28_10h36.06.595,vts_reward_expectancy_bt_OFFLINE,2022.2.4,59.884980833583164,
0,1,0,0,0,0,1,0,circle,hexagon,2,0,2,0,2,10,34,4,,,,,,,,,,,,,,,,,,,,,,,,,,,,,,,,,,,,,,,,820.8641912440071,820.8641912440071,820.8641912440071,820.8641912440071,820.8641912440071,820.8641912440071,820.8641912440071,820.8641912440071,820.8641912440071,820.8641912440071,a,0.5115399079804774,1,869,2,821.3981495200132,822.8995831680077,,,,,,,,,,,,,,,,,,,,,,,,,,,,,,,,,,,,,,,,,,,,,,,,,,,,,,,,,,,,,,,,,,,,,40147,2022-11-28_10h36.06.595,vts_reward_expectancy_bt_OFFLINE,2022.2.4,59.884980833583164,
1,0,0,0,0,1,0,0,triangle,circle,2,0,2,0,2,11,35,0,,,,,,,,,,,,,,,,,,,,,,,,,,,,,,,,,,,,,,,,823.4002056010067,823.4002056010067,823.4002056010067,823.4002056010067,823.4002056010067,823.4002056010067,823.4002056010067,823.4002056010067,823.4002056010067,823.4002056010067,l,0.6659178739937488,1,870,2,824.0843494569999,825.5862030519929,,,,,,,,,,,,,,,,,,,,,,,,,,,,,,,,,,,,,,,,,,,,,,,,,,,,,,,,,,,,,,,,,,,,,40147,2022-11-28_10h36.06.595,vts_reward_expectancy_bt_OFFLINE,2022.2.4,59.884980833583164,
1,0,0,0,0,1,0,0,triangle,circle,2,0,2,0,3,0,36,0,,,,,,,,,,,,,,,,,,,,,,,,,,,,,,,,,,,,,,,,826.086418552004,826.086418552004,826.086418552004,826.086418552004,826.086418552004,826.086418552004,826.086418552004,826.086418552004,826.086418552004,826.086418552004,l,1.1406478589924518,10,880,2,827.2545139740105,828.7560804339882,,,,,,,,,,,,,,,,,,,,,,,,,,,,,,,,,,,,,,,,,,,,,,,,,,,,,,,,,,,,,,,,,,,,,40147,2022-11-28_10h36.06.595,vts_reward_expectancy_bt_OFFLINE,2022.2.4,59.884980833583164,
0,0,1,0,0,0,0,1,hexagon,star,2,0,2,0,3,1,37,8,,,,,,,,,,,,,,,,,,,,,,,,,,,,,,,,,,,,,,,,829.256739266013,829.256739266013,829.256739266013,829.256739266013,829.256739266013,829.256739266013,829.256739266013,829.256739266013,829.256739266013,829.256739266013,l,1.4121156340115704,1,881,2,830.6916384430078,832.1931632240012,,,,,,,,,,,,,,,,,,,,,,,,,,,,,,,,,,,,,,,,,,,,,,,,,,,,,,,,,,,,,,,,,,,,,40147,2022-11-28_10h36.06.595,vts_reward_expectancy_bt_OFFLINE,2022.2.4,59.884980833583164,
0,1,0,0,1,0,0,0,circle,triangle,2,0,2,0,3,2,38,3,,,,,,,,,,,,,,,,,,,,,,,,,,,,,,,,,,,,,,,,832.6935814750032,832.6935814750032,832.6935814750032,832.6935814750032,832.6935814750032,832.6935814750032,832.6935814750032,832.6935814750032,832.6935814750032,832.6935814750032,a,0.5742350330110639,10,891,2,833.2945052040159,834.7960135049943,,,,,,,,,,,,,,,,,,,,,,,,,,,,,,,,,,,,,,,,,,,,,,,,,,,,,,,,,,,,,,,,,,,,,40147,2022-11-28_10h36.06.595,vts_reward_expectancy_bt_OFFLINE,2022.2.4,59.884980833583164,
0,1,0,0,0,0,1,0,circle,hexagon,2,0,2,0,3,3,39,4,,,,,,,,,,,,,,,,,,,,,,,,,,,,,,,,,,,,,,,,835.2965481430001,835.2965481430001,835.2965481430001,835.2965481430001,835.2965481430001,835.2965481430001,835.2965481430001,835.2965481430001,835.2965481430001,835.2965481430001,a,1.2107771349838004,10,901,2,836.5315066509938,838.033089753997,,,,,,,,,,,,,,,,,,,,,,,,,,,,,,,,,,,,,,,,,,,,,,,,,,,,,,,,,,,,,,,,,,,,,40147,2022-11-28_10h36.06.595,vts_reward_expectancy_bt_OFFLINE,2022.2.4,59.884980833583164,
0,1,0,0,0,0,0,1,circle,star,2,0,2,0,3,4,40,5,,,,,,,,,,,,,,,,,,,,,,,,,,,,,,,,,,,,,,,,838.5336872889893,838.5336872889893,838.5336872889893,838.5336872889893,838.5336872889893,838.5336872889893,838.5336872889893,838.5336872889893,838.5336872889893,838.5336872889893,a,0.4721873609814793,10,911,2,839.0341469330015,840.5359395540145,,,,,,,,,,,,,,,,,,,,,,,,,,,,,,,,,,,,,,,,,,,,,,,,,,,,,,,,,,,,,,,,,,,,,40147,2022-11-28_10h36.06.595,vts_reward_expectancy_bt_OFFLINE,2022.2.4,59.884980833583164,
1,0,0,0,0,0,0,1,triangle,star,2,0,2,0,3,5,41,2,,,,,,,,,,,,,,,,,,,,,,,,,,,,,,,,,,,,,,,,841.0363469290023,841.0363469290023,841.0363469290023,841.0363469290023,841.0363469290023,841.0363469290023,841.0363469290023,841.0363469290023,841.0363469290023,841.0363469290023,a,0.9056573039852083,1,912,2,841.9706865790067,843.4723075710062,,,,,,,,,,,,,,,,,,,,,,,,,,,,,,,,,,,,,,,,,,,,,,,,,,,,,,,,,,,,,,,,,,,,,40147,2022-11-28_10h36.06.595,vts_reward_expectancy_bt_OFFLINE,2022.2.4,59.884980833583164,
0,0,0,1,1,0,0,0,star,triangle,2,0,2,0,3,6,42,9,,,,,,,,,,,,,,,,,,,,,,,,,,,,,,,,,,,,,,,,843.9727688980056,843.9727688980056,843.9727688980056,843.9727688980056,843.9727688980056,843.9727688980056,843.9727688980056,843.9727688980056,843.9727688980056,843.9727688980056,l,0.5346839429985266,10,922,2,844.5400828210113,846.0418876059994,,,,,,,,,,,,,,,,,,,,,,,,,,,,,,,,,,,,,,,,,,,,,,,,,,,,,,,,,,,,,,,,,,,,,40147,2022-11-28_10h36.06.595,vts_reward_expectancy_bt_OFFLINE,2022.2.4,59.884980833583164,
0,0,1,0,0,1,0,0,hexagon,circle,2,0,2,0,3,7,43,7,,,,,,,,,,,,,,,,,,,,,,,,,,,,,,,,,,,,,,,,846.542505424004,846.542505424004,846.542505424004,846.542505424004,846.542505424004,846.542505424004,846.542505424004,846.542505424004,846.542505424004,846.542505424004,l,0.8003213829942979,10,932,2,847.3599092169898,848.8615656780021,,,,,,,,,,,,,,,,,,,,,,,,,,,,,,,,,,,,,,,,,,,,,,,,,,,,,,,,,,,,,,,,,,,,,40147,2022-11-28_10h36.06.595,vts_reward_expectancy_bt_OFFLINE,2022.2.4,59.884980833583164,
1,0,0,0,0,0,1,0,triangle,hexagon,2,0,2,0,3,8,44,1,,,,,,,,,,,,,,,,,,,,,,,,,,,,,,,,,,,,,,,,849.3621854319936,849.3621854319936,849.3621854319936,849.3621854319936,849.3621854319936,849.3621854319936,849.3621854319936,849.3621854319936,849.3621854319936,849.3621854319936,a,0.6583888719906099,10,942,2,850.0462072569935,851.5481369250047,,,,,,,,,,,,,,,,,,,,,,,,,,,,,,,,,,,,,,,,,,,,,,,,,,,,,,,,,,,,,,,,,,,,,40147,2022-11-28_10h36.06.595,vts_reward_expectancy_bt_OFFLINE,2022.2.4,59.884980833583164,
0,0,0,1,0,1,0,0,star ,circle,2,0,2,0,3,9,45,10,,,,,,,,,,,,,,,,,,,,,,,,,,,,,,,,,,,,,,,,852.0486036649963,852.0486036649963,852.0486036649963,852.0486036649963,852.0486036649963,852.0486036649963,852.0486036649963,852.0486036649963,852.0486036649963,852.0486036649963,l,0.41267732696724124,1,943,2,852.4822582709894,853.983910814015,,,,,,,,,,,,,,,,,,,,,,,,,,,,,,,,,,,,,,,,,,,,,,,,,,,,,,,,,,,,,,,,,,,,,40147,2022-11-28_10h36.06.595,vts_reward_expectancy_bt_OFFLINE,2022.2.4,59.884980833583164,
0,0,1,0,1,0,0,0,hexagon,triangle,2,0,2,0,3,10,46,6,,,,,,,,,,,,,,,,,,,,,,,,,,,,,,,,,,,,,,,,854.4844343409932,854.4844343409932,854.4844343409932,854.4844343409932,854.4844343409932,854.4844343409932,854.4844343409932,854.4844343409932,854.4844343409932,854.4844343409932,a,0.48571177999838255,10,953,2,855.0018079000001,856.5034589899878,,,,,,,,,,,,,,,,,,,,,,,,,,,,,,,,,,,,,,,,,,,,,,,,,,,,,,,,,,,,,,,,,,,,,40147,2022-11-28_10h36.06.595,vts_reward_expectancy_bt_OFFLINE,2022.2.4,59.884980833583164,
0,0,0,1,0,0,1,0,star,hexagon,2,0,2,0,3,11,47,11,,,,,,,,,,,,,,,,,,,,,,,,,,,,,,,,,,,,,,,,857.00390548,857.00390548,857.00390548,857.00390548,857.00390548,857.00390548,857.00390548,857.00390548,857.00390548,857.00390548,l,1.295748989970889,10,963,2,858.3220433889946,859.8238470730139,,,,,,,,,,,,,,,,,,,,,,,,,,,,,,,,,,,,,,,,,,,,,,,,,,,,,,,,,,,,,,,,,,,,,40147,2022-11-28_10h36.06.595,vts_reward_expectancy_bt_OFFLINE,2022.2.4,59.884980833583164,
,,,,,,,,,,,,,,,,,,0,0,0,0,0,0,0,0,,,,,,,,,,,,,,,,,,,,,,,,,,,,,,,,,,,,,,,,,,,,,,,,896.5476190719928,132,F,circle,0.0021115749841555953,890.5390509639983,892.0426569840056,892.0426569840056,892.0426569840056,895.0459070419893,895.0459070419893,895.0459070419893,895.0459070419893,0,0,None,0,895.0459070419893,896.5476190719928,897.0481971440022,,,,,,,,,,,,,,,,,,,,,,,,,,,,,,,,,,,,,,,,,,,,,,,,,,40147,2022-11-28_10h36.06.595,vts_reward_expectancy_bt_OFFLINE,2022.2.4,59.884980833583164,
,,,,,,,,,,,,,,,,,,0,0,0,0,1,0,1,0,,,,,,,,,,,,,,,,,,,,,,,,,,,,,,,,,,,,,,,,,,,,,,,,901.169350103999,146,U,hexagon,0.009326889005023986,897.5464887259877,899.050391546014,899.050391546014,899.050391546014,,,,,1,1,d,0,899.6676101440098,,,0.5844714859849773,,,,,,,,,,,,,,,,,,,,,,,,,,,,,,,,,,,,,,,,,,,,,,,,,40147,2022-11-28_10h36.06.595,vts_reward_expectancy_bt_OFFLINE,2022.2.4,59.884980833583164,
,,,,,,,,,,,,,,,,,,0,0,0,0,2,0,2,0,,,,,,,,,,,,,,,,,,,,,,,,,,,,,,,,,,,,,,,,,,,,,,,,906.3416460269946,181,W,triangle,0.0016605050186626613,902.1487378249876,903.655299947015,903.655299947015,903.655299947015,,,,,1,0,f,0,904.8400237960159,,,1.1536468959820922,,,,,,,,,,,,,,,,,,,,,,,,,,,,,,,,,,,,,,,,,,,,,,,,,40147,2022-11-28_10h36.06.595,vts_reward_expectancy_bt_OFFLINE,2022.2.4,59.884980833583164,
,,,,,,,,,,,,,,,,,,0,0,0,0,3,0,3,0,,,,,,,,,,,,,,,,,,,,,,,,,,,,,,,,,,,,,,,,,,,,,,,,911.529928369011,125,S,star,0.001524065010016784,907.3213903029973,908.8276199690008,908.8276199690008,908.8276199690008,,,,,1,0,d,0,910.0290318279876,,,1.1782991709769703,,,,,,,,,,,,,,,,,,,,,,,,,,,,,,,,,,,,,,,,,,,,,,,,,40147,2022-11-28_10h36.06.595,vts_reward_expectancy_bt_OFFLINE,2022.2.4,59.884980833583164,
,,,,,,,,,,,,,,,,,,0,0,0,0,4,0,4,0,,,,,,,,,,,,,,,,,,,,,,,,,,,,,,,,,,,,,,,,,,,,,,,,916.4361536939978,174,B,triangle,0.0018760540115181357,912.5123282929999,914.0167534310021,914.0167534310021,914.0167534310021,,,,,1,0,f,0,914.9344646589889,,,0.8946173559816089,,,,,,,,,,,,,,,,,,,,,,,,,,,,,,,,,,,,,,,,,,,,,,,,,40147,2022-11-28_10h36.06.595,vts_reward_expectancy_bt_OFFLINE,2022.2.4,59.884980833583164,
,,,,,,,,,,,,,,,,,,0,0,0,0,5,0,5,0,,,,,,,,,,,,,,,,,,,,,,,,,,,,,,,,,,,,,,,,,,,,,,,,921.1914554609975,160,Y,star,0.001779635000275448,917.4156809700071,918.9213871409884,918.9213871409884,918.9213871409884,,,,,1,0,f,0,919.6896453590016,,,0.7501357079891022,,,,,,,,,,,,,,,,,,,,,,,,,,,,,,,,,,,,,,,,,,,,,,,,,40147,2022-11-28_10h36.06.595,vts_reward_expectancy_bt_OFFLINE,2022.2.4,59.884980833583164,
,,,,,,,,,,,,,,,,,,0,0,0,0,6,0,6,0,,,,,,,,,,,,,,,,,,,,,,,,,,,,,,,,,,,,,,,,,,,,,,,,927.0479219540139,139,H,circle,0.001585974998306483,922.1701873709972,923.677625042008,923.677625042008,923.677625042008,,,,,1,0,d,0,925.5461241370067,,,1.8433186239853967,,,,,,,,,,,,,,,,,,,,,,,,,,,,,,,,,,,,,,,,,,,,,,,,,40147,2022-11-28_10h36.06.595,vts_reward_expectancy_bt_OFFLINE,2022.2.4,59.884980833583164,
,,,,,,,,,,,,,,,,,,0,0,0,0,7,0,7,0,,,,,,,,,,,,,,,,,,,,,,,,,,,,,,,,,,,,,,,,,,,,,,,,931.9198910279956,167,D,hexagon,0.001582207012688741,928.0290763550147,929.5340616549947,929.5340616549947,929.5340616549947,,,,,1,0,f,0,930.4184539330017,,,0.8573122259986121,,,,,,,,,,,,,,,,,,,,,,,,,,,,,,,,,,,,,,,,,,,,,,,,,40147,2022-11-28_10h36.06.595,vts_reward_expectancy_bt_OFFLINE,2022.2.4,59.884980833583164,
,,,,,,,,,,,,,,,,,,0,0,0,0,8,0,8,0,,,,,,,,,,,,,,,,,,,,,,,,,,,,,,,,,,,,,,,,,,,,,,,,936.8587025869929,132,F,triangle,0.0014078420063015074,932.8996320090082,934.4059889019991,934.4059889019991,934.4059889019991,,,,,1,0,d,0,935.3569642099901,,,0.9239832959719934,,,,,,,,,,,,,,,,,,,,,,,,,,,,,,,,,,,,,,,,,,,,,,,,,40147,2022-11-28_10h36.06.595,vts_reward_expectancy_bt_OFFLINE,2022.2.4,59.884980833583164,
,,,,,,,,,,,,,,,,,,0,0,0,0,9,0,9,0,,,,,,,,,,,,,,,,,,,,,,,,,,,,,,,,,,,,,,,,,,,,,,,,942.0811525929894,146,U,hexagon,0.0016516570176463574,937.8381365509995,939.3447658299992,939.3447658299992,939.3447658299992,,,,,1,0,d,0,940.5793989550148,,,1.207791520981118,,,,,,,,,,,,,,,,,,,,,,,,,,,,,,,,,,,,,,,,,,,,,,,,,40147,2022-11-28_10h36.06.595,vts_reward_expectancy_bt_OFFLINE,2022.2.4,59.884980833583164,
,,,,,,,,,,,,,,,,,,,,,,,,,,0,0,0,0,0,0,0,0,,,,,,,,,,,,,,,,,,,,,,,,,,,,,,,,,,,,,,,,989.8337974770111,181,B,star,0.002099121018545702,,,,,,,,,2,0,,1,988.3340888970124,,,,985.4739290419966,986.9806222729967,986.9806222729967,986.9806222729967,f,1.327879682998173,,,,,,,,,,,,,,,,,,,,,,,,,,,,,,,,,,,,,,,,,,,40147,2022-11-28_10h36.06.595,vts_reward_expectancy_bt_OFFLINE,2022.2.4,59.884980833583164,
,,,,,,,,,,,,,,,,,,,,,,,,,,0,0,0,0,1,0,1,0,,,,,,,,,,,,,,,,,,,,,,,,,,,,,,,,,,,,,,,,996.1575222320098,174,U,circle,0.001366668991977349,,,,,,,,,1,0,,1,994.6557898460014,,,,990.8129812219995,992.3199954649899,992.3199954649899,992.3199954649899,k,2.3110209539881907,,,,,,,,,,,,,,,,,,,,,,,,,,,,,,,,,,,,,,,,,,,40147,2022-11-28_10h36.06.595,vts_reward_expectancy_bt_OFFLINE,2022.2.4,59.884980833583164,
,,,,,,,,,,,,,,,,,,,,,,,,,,0,0,0,0,2,0,2,0,,,,,,,,,,,,,,,,,,,,,,,,,,,,,,,,,,,,,,,,1001.4465757799917,167,F,triangle,0.0015758670051582158,,,,,,,,,1,0,,1,999.9448290370055,,,,997.1365408670099,998.643475496996,998.643475496996,998.643475496996,j,1.27547164997668,,,,,,,,,,,,,,,,,,,,,,,,,,,,,,,,,,,,,,,,,,,40147,2022-11-28_10h36.06.595,vts_reward_expectancy_bt_OFFLINE,2022.2.4,59.884980833583164,
,,,,,,,,,,,,,,,,,,,,,,,,,,0,0,0,0,3,0,3,0,,,,,,,,,,,,,,,,,,,,,,,,,,,,,,,,,,,,,,,,1007.0528102059907,139,S,hexagon,0.0017388919950462878,,,,,,,,,1,0,,1,1005.5508465220046,,,,1002.4258396750083,1003.9327119369991,1003.9327119369991,1003.9327119369991,k,1.6010419319791254,,,,,,,,,,,,,,,,,,,,,,,,,,,,,,,,,,,,,,,,,,,40147,2022-11-28_10h36.06.595,vts_reward_expectancy_bt_OFFLINE,2022.2.4,59.884980833583164,
,,,,,,,,,,,,,,,,,,,,,,,,,,0,0,0,0,4,0,4,0,,,,,,,,,,,,,,,,,,,,,,,,,,,,,,,,,,,,,,,,1011.9081218240026,160,Y,star,0.0015570830146316439,,,,,,,,,1,0,,1,1010.4065508210042,,,,1008.0342586679908,1009.5390210270125,1009.5390210270125,1009.5390210270125,k,0.8425238569907378,,,,,,,,,,,,,,,,,,,,,,,,,,,,,,,,,,,,,,,,,,,40147,2022-11-28_10h36.06.595,vts_reward_expectancy_bt_OFFLINE,2022.2.4,59.884980833583164,
,,,,,,,,,,,,,,,,,,,,,,,,,,0,0,0,0,5,0,5,0,,,,,,,,,,,,,,,,,,,,,,,,,,,,,,,,,,,,,,,,1016.9970279470144,132,D,circle,0.0014248740044422448,,,,,,,,,1,0,,1,1015.4953703460051,,,,1012.8863635910093,1014.3941546909919,1014.3941546909919,1014.3941546909919,j,1.0739731419889722,,,,,,,,,,,,,,,,,,,,,,,,,,,,,,,,,,,,,,,,,,,40147,2022-11-28_10h36.06.595,vts_reward_expectancy_bt_OFFLINE,2022.2.4,59.884980833583164,
,,,,,,,,,,,,,,,,,,,,,,,,,,0,0,0,0,6,0,6,0,,,,,,,,,,,,,,,,,,,,,,,,,,,,,,,,,,,,,,,,1022.7368418879923,125,H,hexagon,0.001718208019156009,,,,,,,,,1,0,,1,1021.2349857639929,,,,1017.9763214589912,1019.4831763700058,1019.4831763700058,1019.4831763700058,j,1.7338876689900644,,,,,,,,,,,,,,,,,,,,,,,,,,,,,,,,,,,,,,,,,,,40147,2022-11-28_10h36.06.595,vts_reward_expectancy_bt_OFFLINE,2022.2.4,59.884980833583164,
,,,,,,,,,,,,,,,,,,,,,,,,,,0,0,0,0,7,0,7,0,,,,,,,,,,,,,,,,,,,,,,,,,,,,,,,,,,,,,,,,1027.3419274280022,146,W,triangle,0.001596252986928448,,,,,,,,,1,0,,1,1025.8403080730059,,,,1023.7162106060132,1025.2229287890077,1025.2229287890077,1025.2229287890077,k,0.5841323389904574,,,,,,,,,,,,,,,,,,,,,,,,,,,,,,,,,,,,,,,,,,,40147,2022-11-28_10h36.06.595,vts_reward_expectancy_bt_OFFLINE,2022.2.4,59.884980833583164,
,,,,,,,,,,,,,,,,,,,,,,,,,,0,0,0,0,8,0,8,0,,,,,,,,,,,,,,,,,,,,,,,,,,,,,,,,,,,,,,,,1031.9636541749933,181,B,star,0.0015397020033560693,,,,,,,,,1,0,,1,1030.4621577910148,,,,1028.3206388299877,1029.8280874449993,1029.8280874449993,1029.8280874449993,j,0.6134446139622014,,,,,,,,,,,,,,,,,,,,,,,,,,,,,,,,,,,,,,,,,,,40147,2022-11-28_10h36.06.595,vts_reward_expectancy_bt_OFFLINE,2022.2.4,59.884980833583164,
,,,,,,,,,,,,,,,,,,,,,,,,,,0,0,0,0,9,0,9,0,,,,,,,,,,,,,,,,,,,,,,,,,,,,,,,,,,,,,,,,1036.9691390130029,174,U,hexagon,0.0009221419750247151,,,,,,,,,1,0,,1,1035.4674264219939,,,,1032.9429192620155,1034.4496935110074,1034.4496935110074,1034.4496935110074,k,0.9979961619828828,,,,,,,,,,,,,,,,,,,,,,,,,,,,,,,,,,,,,,,,,,,40147,2022-11-28_10h36.06.595,vts_reward_expectancy_bt_OFFLINE,2022.2.4,59.884980833583164,
,,,,,,,,,,,,,,,,,,,,,,,,,,,,,,,,,,0,0,0,0,0,0,0,0,,,,,,,,,,,,,,,,,,,,,,,,,,,,0,963,,,1068.3202241520048,125,W,triangle,0.0018817679956555367,,,,,,,,,0,0,,2,,,,,,,,,,,1063.4141933530045,1063.4141933530045,1063.4141933530045,1063.4141933530045,1064.916590319015,1064.916590319015,1064.916590319015,1064.916590319015,1064.916590319015,1064.916590319015,1064.916590319015,1064.916590319015,-1,letter,NA,j,1.8751397409942,vtsPrac,1066.819391714991,,,,,,,,,,,,,,,,,,,,,,,,40147,2022-11-28_10h36.06.595,vts_reward_expectancy_bt_OFFLINE,2022.2.4,59.884980833583164,
,,,,,,,,,,,,,,,,,,,,,,,,,,,,,,,,,,0,0,0,0,1,0,1,0,,,,,,,,,,,,,,,,,,,,,,,,,,,,0,963,,,1073.7930783909978,146,D,star,0.0015532989928033203,,,,,,,,,0,1,,2,,,,,,,,,,,1069.3003590849985,1069.3003590849985,1069.3003590849985,1069.3003590849985,1070.8063956059923,1070.8063956059923,1070.8063956059923,1070.8063956059923,1070.8063956059923,1070.8063956059923,1070.8063956059923,1070.8063956059923,switch,number,NA,f,1.4522222469968256,vtsPrac,1072.29137881301,,,,,,,,,,,,,,,,,,,,,,,,40147,2022-11-28_10h36.06.595,vts_reward_expectancy_bt_OFFLINE,2022.2.4,59.884980833583164,
,,,,,,,,,,,,,,,,,,,,,,,,,,,,,,,,,,0,0,0,0,2,0,2,0,,,,,,,,,,,,,,,,,,,,,,,,,,,,0,963,,,1078.865194457001,139,F,star,0.0015748110017739236,,,,,,,,,1,1,,2,,,,,,,,,,,1074.7755707110045,1074.7755707110045,1074.7755707110045,1074.7755707110045,1076.2790948729962,1076.2790948729962,1076.2790948729962,1076.2790948729962,1076.2790948729962,1076.2790948729962,1076.2790948729962,1076.2790948729962,repeat,number,numRpt,d,1.0655486339819618,vtsPrac,1077.3641464959946,,,,,,,,,,,,,,,,,,,,,,,,40147,2022-11-28_10h36.06.595,vts_reward_expectancy_bt_OFFLINE,2022.2.4,59.884980833583164,
,,,,,,,,,,,,,,,,,,,,,,,,,,,,,,,,,,0,0,0,0,3,0,3,0,,,,,,,,,,,,,,,,,,,,,,,,,,,,0,963,,,1083.6373177600035,160,B,circle,0.001944017014466226,,,,,,,,,1,0,,2,,,,,,,,,,,1079.8448401339992,1079.8448401339992,1079.8448401339992,1079.8448401339992,1081.3513153050153,1081.3513153050153,1081.3513153050153,1081.3513153050153,1081.3513153050153,1081.3513153050153,1081.3513153050153,1081.3513153050153,switch,letter,lettSwt,j,0.7630265539919492,vtsPrac,1082.1356599169958,,,,,,,,,,,,,,,,,,,,,,,,40147,2022-11-28_10h36.06.595,vts_reward_expectancy_bt_OFFLINE,2022.2.4,59.884980833583164,
,,,,,,,,,,,,,,,,,,,,,,,,,,,,,,,,,,0,0,0,0,4,0,4,0,,,,,,,,,,,,,,,,,,,,,,,,,,,,0,963,,,1088.5092326870072,125,W,hexagon,0.0017420509830117226,,,,,,,,,1,0,,2,,,,,,,,,,,1084.6172021969978,1084.6172021969978,1084.6172021969978,1084.6172021969978,1086.1232898150047,1086.1232898150047,1086.1232898150047,1086.1232898150047,1086.1232898150047,1086.1232898150047,1086.1232898150047,1086.1232898150047,repeat,letter,lettRpt,k,0.8615806969755795,vtsPrac,1087.007813859993,,,,,,,,,,,,,,,,,,,,,,,,40147,2022-11-28_10h36.06.595,vts_reward_expectancy_bt_OFFLINE,2022.2.4,59.884980833583164,
,,,,,,,,,,,,,,,,,,,,,,,,,,,,,,,,,,0,0,0,0,5,0,5,0,,,,,,,,,,,,,,,,,,,,,,,,,,,,0,963,,,1093.5649459839915,146,D,star,0.0017336939927190542,,,,,,,,,1,0,,2,,,,,,,,,,,1089.4889264559897,1089.4889264559897,1089.4889264559897,1089.4889264559897,1090.9953263020143,1090.9953263020143,1090.9953263020143,1090.9953263020143,1090.9953263020143,1090.9953263020143,1090.9953263020143,1090.9953263020143,switch,number,numSwt,d,1.0412133549980354,vtsPrac,1092.0632285230095,,,,,,,,,,,,,,,,,,,,,,,,40147,2022-11-28_10h36.06.595,vts_reward_expectancy_bt_OFFLINE,2022.2.4,59.884980833583164,
,,,,,,,,,,,,,,,,,,,,,,,,,,,,,,,,,,0,0,0,0,6,0,6,0,,,,,,,,,,,,,,,,,,,,,,,,,,,,0,963,,,1098.3867308270128,139,F,hexagon,0.0014054469938855618,,,,,,,,,1,0,,2,,,,,,,,,,,1094.544527304999,1094.544527304999,1094.544527304999,1094.544527304999,1096.0508998169971,1096.0508998169971,1096.0508998169971,1096.0508998169971,1096.0508998169971,1096.0508998169971,1096.0508998169971,1096.0508998169971,repeat,number,numRpt,d,0.8123723480093759,vtsPrac,1096.8852567280119,,,,,,,,,,,,,,,,,,,,,,,,40147,2022-11-28_10h36.06.595,vts_reward_expectancy_bt_OFFLINE,2022.2.4,59.884980833583164,
,,,,,,,,,,,,,,,,,,,,,,,,,,,,,,,,,,0,0,0,0,7,0,7,0,,,,,,,,,,,,,,,,,,,,,,,,,,,,0,963,,,1103.158944068011,160,B,star,0.0014895199856255203,,,,,,,,,1,0,,2,,,,,,,,,,,1099.368008902995,1099.368008902995,1099.368008902995,1099.368008902995,1100.8728829649917,1100.8728829649917,1100.8728829649917,1100.8728829649917,1100.8728829649917,1100.8728829649917,1100.8728829649917,1100.8728829649917,repeat,number,numRpt,f,0.7601466389896814,vtsPrac,1101.657054701005,,,,,,,,,,,,,,,,,,,,,,,,40147,2022-11-28_10h36.06.595,vts_reward_expectancy_bt_OFFLINE,2022.2.4,59.884980833583164,
,,,,,,,,,,,,,,,,,,,,,,,,,,,,,,,,,,0,0,0,0,8,0,8,0,,,,,,,,,,,,,,,,,,,,,,,,,,,,0,963,,,1107.947465434001,139,Y,circle,0.00161265698261559,,,,,,,,,1,0,,2,,,,,,,,,,,1104.1412171279953,1104.1412171279953,1104.1412171279953,1104.1412171279953,1105.6448954129883,1105.6448954129883,1105.6448954129883,1105.6448954129883,1105.6448954129883,1105.6448954129883,1105.6448954129883,1105.6448954129883,switch,letter,lettSwt,k,0.7695760269998573,vtsPrac,1106.4456825520028,,,,,,,,,,,,,,,,,,,,,,,,40147,2022-11-28_10h36.06.595,vts_reward_expectancy_bt_OFFLINE,2022.2.4,59.884980833583164,
,,,,,,,,,,,,,,,,,,,,,,,,,,,,,,,,,,0,0,0,0,9,0,9,0,,,,,,,,,,,,,,,,,,,,,,,,,,,,0,963,,,1112.902827910002,146,F,hexagon,0.0016293270164169371,,,,,,,,,0,0,,2,,,,,,,,,,,1108.9259141180082,1108.9259141180082,1108.9259141180082,1108.9259141180082,1110.4336906110111,1110.4336906110111,1110.4336906110111,1110.4336906110111,1110.4336906110111,1110.4336906110111,1110.4336906110111,1110.4336906110111,repeat,letter,NA,k,0.942064937989926,vtsPrac,1111.4014905999938,,,,,,,,,,,,,,,,,,,,,,,,40147,2022-11-28_10h36.06.595,vts_reward_expectancy_bt_OFFLINE,2022.2.4,59.884980833583164,
,,,,,,,,,,,,,,,,,,,,,,,,,,,,,,,,,,0,0,0,0,10,0,10,0,,,,,,,,,,,,,,,,,,,,,,,,,,,,0,963,,,1117.658194343996,174,D,star,0.001634284999454394,,,,,,,,,1,1,,2,,,,,,,,,,,1113.8850501330162,1113.8850501330162,1113.8850501330162,1113.8850501330162,1115.389016222005,1115.389016222005,1115.389016222005,1115.389016222005,1115.389016222005,1115.389016222005,1115.389016222005,1115.389016222005,repeat,letter,lettRpt,j,0.7453821989765856,vtsPrac,1116.156571702013,,,,,,,,,,,,,,,,,,,,,,,,40147,2022-11-28_10h36.06.595,vts_reward_expectancy_bt_OFFLINE,2022.2.4,59.884980833583164,
,,,,,,,,,,,,,,,,,,,,,,,,,,,,,,,,,,0,0,0,0,11,0,11,0,,,,,,,,,,,,,,,,,,,,,,,,,,,,0,963,,,1123.564729706006,125,W,circle,0.0015720590017735958,,,,,,,,,1,0,,2,,,,,,,,,,,1118.6394468880026,1118.6394468880026,1118.6394468880026,1118.6394468880026,1120.1441534929909,1120.1441534929909,1120.1441534929909,1120.1441534929909,1120.1441534929909,1120.1441534929909,1120.1441534929909,1120.1441534929909,switch,number,numSwt,d,1.8968341059808154,vtsPrac,1122.063100755011,,,,,,,,,,,,,,,,,,,,,,,,40147,2022-11-28_10h36.06.595,vts_reward_expectancy_bt_OFFLINE,2022.2.4,59.884980833583164,
,,,,,,,,,,,,,,,,,,,,,,,,,,,,,,,,,,0,0,0,0,12,0,12,0,,,,,,,,,,,,,,,,,,,,,,,,,,,,0,963,,,1128.5033354909974,174,Y,triangle,0.0014783020014874637,,,,,,,,,1,0,,2,,,,,,,,,,,1124.5431790570146,1124.5431790570146,1124.5431790570146,1124.5431790570146,1126.050778327015,1126.050778327015,1126.050778327015,1126.050778327015,1126.050778327015,1126.050778327015,1126.050778327015,1126.050778327015,repeat,number,numRpt,f,0.9184523670119233,vtsPrac,1127.001665193995,,,,,,,,,,,,,,,,,,,,,,,,40147,2022-11-28_10h36.06.595,vts_reward_expectancy_bt_OFFLINE,2022.2.4,59.884980833583164,
,,,,,,,,,,,,,,,,,,,,,,,,,,,,,,,,,,0,0,0,0,13,0,13,0,,,,,,,,,,,,,,,,,,,,,,,,,,,,0,963,,,1133.8426011909905,167,B,circle,0.001586450991453603,,,,,,,,,1,0,,2,,,,,,,,,,,1129.482602803997,1129.482602803997,1129.482602803997,1129.482602803997,1130.9895216859877,1130.9895216859877,1130.9895216859877,1130.9895216859877,1130.9895216859877,1130.9895216859877,1130.9895216859877,1130.9895216859877,switch,letter,lettSwt,j,1.3239569049910642,vtsPrac,1132.3408439260093,,,,,,,,,,,,,,,,,,,,,,,,40147,2022-11-28_10h36.06.595,vts_reward_expectancy_bt_OFFLINE,2022.2.4,59.884980833583164,
,,,,,,,,,,,,,,,,,,,,,,,,,,,,,,,,,,0,0,0,0,14,0,14,0,,,,,,,,,,,,,,,,,,,,,,,,,,,,0,963,,,1138.6311366189911,132,S,star,0.001703645015368238,,,,,,,,,1,0,,2,,,,,,,,,,,1134.8248868439987,1134.8248868439987,1134.8248868439987,1134.8248868439987,1136.328779094998,1136.328779094998,1136.328779094998,1136.328779094998,1136.328779094998,1136.328779094998,1136.328779094998,1136.328779094998,repeat,letter,lettRpt,k,0.7765734060085379,vtsPrac,1137.12952902299,,,,,,,,,,,,,,,,,,,,,,,,40147,2022-11-28_10h36.06.595,vts_reward_expectancy_bt_OFFLINE,2022.2.4,59.884980833583164,
,,,,,,,,,,,,,,,,,,,,,,,,,,,,,,,,,,0,0,0,0,15,0,15,0,,,,,,,,,,,,,,,,,,,,,,,,,,,,0,963,,,1143.6026986099896,139,D,triangle,0.0016435179859399796,,,,,,,,,1,0,,2,,,,,,,,,,,1139.6124974089907,1139.6124974089907,1139.6124974089907,1139.6124974089907,1141.1172757759923,1141.1172757759923,1141.1172757759923,1141.1172757759923,1141.1172757759923,1141.1172757759923,1141.1172757759923,1141.1172757759923,switch,number,numSwt,d,0.9606810189725365,vtsPrac,1142.1017939280136,,,,,,,,,,,,,,,,,,,,,,,,40147,2022-11-28_10h36.06.595,vts_reward_expectancy_bt_OFFLINE,2022.2.4,59.884980833583164,
,,,,,,,,,,,,,,,,,,,,,,,,,,,,,,,,,,0,0,0,0,16,0,16,0,,,,,,,,,,,,,,,,,,,,,,,,,,,,0,963,,,1148.2251710790151,167,F,circle,0.0015055380063131452,,,,,,,,,1,0,,2,,,,,,,,,,,1144.58253750499,1144.58253750499,1144.58253750499,1144.58253750499,1146.0896219419956,1146.0896219419956,1146.0896219419956,1146.0896219419956,1146.0896219419956,1146.0896219419956,1146.0896219419956,1146.0896219419956,switch,letter,lettSwt,j,0.6015516739862505,vtsPrac,1146.7235653070093,,,,,,,,,,,,,,,,,,,,,,,,40147,2022-11-28_10h36.06.595,vts_reward_expectancy_bt_OFFLINE,2022.2.4,59.884980833583164,
,,,,,,,,,,,,,,,,,,,,,,,,,,,,,,,,,,0,0,0,0,17,0,17,0,,,,,,,,,,,,,,,,,,,,,,,,,,,,0,963,,,1152.913747965009,139,S,hexagon,0.0015141420008148998,,,,,,,,,1,0,,2,,,,,,,,,,,1149.2040573660051,1149.2040573660051,1149.2040573660051,1149.2040573660051,1150.711153086013,1150.711153086013,1150.711153086013,1150.711153086013,1150.711153086013,1150.711153086013,1150.711153086013,1150.711153086013,switch,number,numSwt,d,0.6711822400102392,vtsPrac,1151.4119233480014,,,,,,,,,,,,,,,,,,,,,,,,40147,2022-11-28_10h36.06.595,vts_reward_expectancy_bt_OFFLINE,2022.2.4,59.884980833583164,
,,,,,,,,,,,,,,,,,,,,,,,,,,,,,,,,,,0,0,0,0,18,0,18,0,,,,,,,,,,,,,,,,,,,,,,,,,,,,0,963,,,1157.518772854004,181,Y,star,0.0016058619949035347,,,,,,,,,1,0,,2,,,,,,,,,,,1153.8955674080062,1153.8955674080062,1153.8955674080062,1153.8955674080062,1155.399722742004,1155.399722742004,1155.399722742004,1155.399722742004,1155.399722742004,1155.399722742004,1155.399722742004,1155.399722742004,switch,letter,lettSwt,k,0.5949798969959375,vtsPrac,1156.0170271449897,,,,,,,,,,,,,,,,,,,,,,,,40147,2022-11-28_10h36.06.595,vts_reward_expectancy_bt_OFFLINE,2022.2.4,59.884980833583164,
,,,,,,,,,,,,,,,,,,,,,,,,,,,,,,,,,,0,0,0,0,19,0,19,0,,,,,,,,,,,,,,,,,,,,,,,,,,,,0,963,,,1162.140534459002,132,D,hexagon,0.0015165070071816444,,,,,,,,,1,0,,2,,,,,,,,,,,1158.4977068750013,1158.4977068750013,1158.4977068750013,1158.4977068750013,1160.0048199960147,1160.0048199960147,1160.0048199960147,1160.0048199960147,1160.0048199960147,1160.0048199960147,1160.0048199960147,1160.0048199960147,switch,number,numSwt,d,0.6136277999903541,vtsPrac,1160.638954716007,,,,,,,,,,,,,,,,,,,,,,,,40147,2022-11-28_10h36.06.595,vts_reward_expectancy_bt_OFFLINE,2022.2.4,59.884980833583164,
,,,,,,,,,,,,,,,,,,,,,,,,,,,,,,,,,,0,0,0,0,20,0,20,0,,,,,,,,,,,,,,,,,,,,,,,,,,,,0,963,,,1166.6955710590119,160,D,star,0.0014147440087981522,,,,,,,,,1,0,,2,,,,,,,,,,,1163.1195826879994,1163.1195826879994,1163.1195826879994,1163.1195826879994,1164.6266310549981,1164.6266310549981,1164.6266310549981,1164.6266310549981,1164.6266310549981,1164.6266310549981,1164.6266310549981,1164.6266310549981,switch,letter,lettSwt,j,0.5499323399853893,vtsPrac,1165.1938457700016,,,,,,,,,,,,,,,,,,,,,,,,40147,2022-11-28_10h36.06.595,vts_reward_expectancy_bt_OFFLINE,2022.2.4,59.884980833583164,
,,,,,,,,,,,,,,,,,,,,,,,,,,,,,,,,,,0,0,0,0,21,0,21,0,,,,,,,,,,,,,,,,,,,,,,,,,,,,0,963,,,1171.6676945679937,132,B,hexagon,0.0017128390027210116,,,,,,,,,1,0,,2,,,,,,,,,,,1167.6748689629894,1167.6748689629894,1167.6748689629894,1167.6748689629894,1169.1815756029973,1169.1815756029973,1169.1815756029973,1169.1815756029973,1169.1815756029973,1169.1815756029973,1169.1815756029973,1169.1815756029973,switch,number,numSwt,d,0.9562487509683706,vtsPrac,1170.1660384520073,,,,,,,,,,,,,,,,,,,,,,,,40147,2022-11-28_10h36.06.595,vts_reward_expectancy_bt_OFFLINE,2022.2.4,59.884980833583164,
,,,,,,,,,,,,,,,,,,,,,,,,,,,,,,,,,,0,0,0,0,22,0,22,0,,,,,,,,,,,,,,,,,,,,,,,,,,,,0,963,,,1176.423102255998,167,H,star,0.0016885999939404428,,,,,,,,,0,0,,2,,,,,,,,,,,1172.6504019949934,1172.6504019949934,1172.6504019949934,1172.6504019949934,1174.1538227199926,1174.1538227199926,1174.1538227199926,1174.1538227199926,1174.1538227199926,1174.1538227199926,1174.1538227199926,1174.1538227199926,switch,letter,NA,k,0.7413821839727461,vtsPrac,1174.9215336760099,,,,,,,,,,,,,,,,,,,,,,,,40147,2022-11-28_10h36.06.595,vts_reward_expectancy_bt_OFFLINE,2022.2.4,59.884980833583164,
,,,,,,,,,,,,,,,,,,,,,,,,,,,,,,,,,,0,0,0,0,23,0,23,0,,,,,,,,,,,,,,,,,,,,,,,,,,,,0,963,,,1181.3116257580114,146,S,hexagon,0.0013952059962321073,,,,,,,,,1,1,,2,,,,,,,,,,,1177.4028206260118,1177.4028206260118,1177.4028206260118,1177.4028206260118,1178.9090535629948,1178.9090535629948,1178.9090535629948,1178.9090535629948,1178.9090535629948,1178.9090535629948,1178.9090535629948,1178.9090535629948,repeat,letter,lettRpt,k,0.8809128610009793,vtsPrac,1179.8099961020052,,,,,,,,,,,,,,,,,,,,,,,,40147,2022-11-28_10h36.06.595,vts_reward_expectancy_bt_OFFLINE,2022.2.4,59.884980833583164,
,,,,,,,,,,,,,,,,,,,,,,,,,,,,,,,,,,0,0,0,0,24,0,24,0,,,,,,,,,,,,,,,,,,,,,,,,,,,,0,963,,,1186.3506392120034,132,D,triangle,0.001594422006746754,,,,,,,,,1,0,,2,,,,,,,,,,,1182.293118022004,1182.293118022004,1182.293118022004,1182.293118022004,1183.797658846015,1183.797658846015,1183.797658846015,1183.797658846015,1183.797658846015,1183.797658846015,1183.797658846015,1183.797658846015,repeat,letter,lettRpt,j,1.0207037419895642,vtsPrac,1184.8488904130063,,,,,,,,,,,,,,,,,,,,,,,,40147,2022-11-28_10h36.06.595,vts_reward_expectancy_bt_OFFLINE,2022.2.4,59.884980833583164,
,,,,,,,,,,,,,,,,,,,,,,,,,,,,,,,,,,0,0,0,0,25,0,25,0,,,,,,,,,,,,,,,,,,,,,,,,,,,,0,963,,,1191.0223728879937,181,H,hexagon,0.0015727319987490773,,,,,,,,,1,0,,2,,,,,,,,,,,1187.3300239880045,1187.3300239880045,1187.3300239880045,1187.3300239880045,1188.8365474299935,1188.8365474299935,1188.8365474299935,1188.8365474299935,1188.8365474299935,1188.8365474299935,1188.8365474299935,1188.8365474299935,switch,number,numSwt,f,0.6621226340066642,vtsPrac,1189.5206352990062,,,,,,,,,,,,,,,,,,,,,,,,40147,2022-11-28_10h36.06.595,vts_reward_expectancy_bt_OFFLINE,2022.2.4,59.884980833583164,
,,,,,,,,,,,,,,,,,,,,,,,,,,,,,,,,,,0,0,0,0,26,0,26,0,,,,,,,,,,,,,,,,,,,,,,,,,,,,0,963,,,1196.1780372739886,125,F,hexagon,0.0014599240093957633,,,,,,,,,1,0,,2,,,,,,,,,,,1192.0010857479938,1192.0010857479938,1192.0010857479938,1192.0010857479938,1193.508729144989,1193.508729144989,1193.508729144989,1193.508729144989,1193.508729144989,1193.508729144989,1193.508729144989,1193.508729144989,switch,letter,lettSwt,j,1.1423601399874315,vtsPrac,1194.6764789560111,,,,,,,,,,,,,,,,,,,,,,,,40147,2022-11-28_10h36.06.595,vts_reward_expectancy_bt_OFFLINE,2022.2.4,59.884980833583164,
,,,,,,,,,,,,,,,,,,,,,,,,,,,,,,,,,,0,0,0,0,27,0,27,0,,,,,,,,,,,,,,,,,,,,,,,,,,,,0,963,,,1201.2337657999888,146,U,star,0.0015903089952189475,,,,,,,,,1,0,,2,,,,,,,,,,,1197.1604701490141,1197.1604701490141,1197.1604701490141,1197.1604701490141,1198.664127038006,1198.664127038006,1198.664127038006,1198.664127038006,1198.664127038006,1198.664127038006,1198.664127038006,1198.664127038006,switch,number,numSwt,d,1.0505822919658385,vtsPrac,1199.7320101910154,,,,,,,,,,,,,,,,,,,,,,,,40147,2022-11-28_10h36.06.595,vts_reward_expectancy_bt_OFFLINE,2022.2.4,59.884980833583164,
,,,,,,,,,,,,,,,,,,,,,,,,,,,,,,,,,,0,0,0,0,28,0,28,0,,,,,,,,,,,,,,,,,,,,,,,,,,,,0,963,,,1206.1056696510059,125,H,triangle,0.0017555599915795028,,,,,,,,,1,0,,2,,,,,,,,,,,1202.213012452994,1202.213012452994,1202.213012452994,1202.213012452994,1203.7197541499918,1203.7197541499918,1203.7197541499918,1203.7197541499918,1203.7197541499918,1203.7197541499918,1203.7197541499918,1203.7197541499918,repeat,number,numRpt,d,0.8533636319916695,vtsPrac,1204.6041006789892,,,,,,,,,,,,,,,,,,,,,,,,40147,2022-11-28_10h36.06.595,vts_reward_expectancy_bt_OFFLINE,2022.2.4,59.884980833583164,
,,,,,,,,,,,,,,,,,,,,,,,,,,,,,,,,,,0,0,0,0,29,0,29,0,,,,,,,,,,,,,,,,,,,,,,,,,,,,0,963,,,1211.044442606013,146,D,star,0.0015098080039024353,,,,,,,,,1,0,,2,,,,,,,,,,,1207.0868962990062,1207.0868962990062,1207.0868962990062,1207.0868962990062,1208.5918873889896,1208.5918873889896,1208.5918873889896,1208.5918873889896,1208.5918873889896,1208.5918873889896,1208.5918873889896,1208.5918873889896,switch,letter,lettSwt,j,0.9200996909930836,vtsPrac,1209.5427254739916,,,,,,,,,,,,,,,,,,,,,,,,40147,2022-11-28_10h36.06.595,vts_reward_expectancy_bt_OFFLINE,2022.2.4,59.884980833583164,
,,,,,,,,,,,,,,,,,,,,,,,,,,,,,,,,,,0,0,0,0,30,0,30,0,,,,,,,,,,,,,,,,,,,,,,,,,,,,0,963,,,1215.7662330910098,167,U,circle,0.0015097670257091522,,,,,,,,,1,0,,2,,,,,,,,,,,1212.0236456980056,1212.0236456980056,1212.0236456980056,1212.0236456980056,1213.5303766409925,1213.5303766409925,1213.5303766409925,1213.5303766409925,1213.5303766409925,1213.5303766409925,1213.5303766409925,1213.5303766409925,switch,number,numSwt,f,0.7067157269921154,vtsPrac,1214.2644894650148,,,,,,,,,,,,,,,,,,,,,,,,40147,2022-11-28_10h36.06.595,vts_reward_expectancy_bt_OFFLINE,2022.2.4,59.884980833583164,
