LTriangleOpac,LCircleOpac,LHexagonOpac,LStarOpac,RTriangleOpac,RCircleOpac,RHexagonOpac,RStarOpac,LShape_ID,RShape_ID,training_blocks.thisRepN,training_blocks.thisTrialN,training_blocks.thisN,training_blocks.thisIndex,training.thisRepN,training.thisTrialN,training.thisN,training.thisIndex,task1_prac_redo.thisRepN,task1_prac_redo.thisTrialN,task1_prac_redo.thisN,task1_prac_redo.thisIndex,task1_prac_trials.thisRepN,task1_prac_trials.thisTrialN,task1_prac_trials.thisN,task1_prac_trials.thisIndex,task2_prac_redo.thisRepN,task2_prac_redo.thisTrialN,task2_prac_redo.thisN,task2_prac_redo.thisIndex,task2_praac_trials.thisRepN,task2_praac_trials.thisTrialN,task2_praac_trials.thisN,task2_praac_trials.thisIndex,vts_prac_redo.thisRepN,vts_prac_redo.thisTrialN,vts_prac_redo.thisN,vts_prac_redo.thisIndex,vts_practice_trials.thisRepN,vts_practice_trials.thisTrialN,vts_practice_trials.thisN,vts_practice_trials.thisIndex,trials_norew.thisRepN,trials_norew.thisTrialN,trials_norew.thisN,trials_norew.thisIndex,block.thisRepN,block.thisTrialN,block.thisN,block.thisIndex,trials_rew.thisRepN,trials_rew.thisTrialN,trials_rew.thisN,trials_rew.thisIndex,key_resp.started,key_resp.keys,key_resp.rt,left_circle.started,right_circle.started,left_triangle.started,right_triangle.started,left_star.started,right_star.started,left_hexagon.started,right_hexagon.started,training_fix.started,training_resp.started,training_resp.keys,training_resp.rt,points_trial,points_cumul,trainBlock,training_feedback_txt.started,fix.started,training_feedback_txt.stopped,curr_topStim,curr_bottStim,curr_shape,ISI.started,tgt_fix_prac1.started,top_target_prac1.started,bott_target_prac1.started,target_resp_prac1.started,acc,E1,target_resp_prac1.keys,target_resp_prac1.rt,pracBlock,prac_fback_text.started,tgt_fix_prac2.started,top_target_prac2.started,bott_target_prac2.started,target_resp_prac2.started,target_resp_prac2.keys,target_resp_prac2.rt,star.started,hegagon.started,triangle.started,circle.started,star.stopped,hegagon.stopped,triangle.stopped,circle.stopped,top_target.started,tgt_fix.started,bot_target.started,target_resp.started,top_target.stopped,tgt_fix.stopped,bot_target.stopped,target_resp.stopped,alt,task,condition,target_resp.keys,rewCond,vts_fback.started,vts_fback.stopped,fix.stopped,target_resp.rt,blockNum,norew_fback.started,key_resp_2.keys,key_resp_2.rt,rewExpectancy,feedbk_text.started,feedbk_text.stopped,text_3.started,text_3.stopped,button.started,debrief.index,debrief.itemText,debrief.type,debrief.granularity,debrief.font,debrief.markerColor,debrief.response,debrief.rt,button.numClicks,button.timesOn,button.timesOff,participant,date,expName,psychopyVersion,frameRate,
,,,,,,,,,,,,,,,,,,,,,,,,,,,,,,,,,,,,,,,,,,,,,,,,,,,,,,22.15194583799166,space,22.549164703013957,,,,,,,,,,,,,,,,,,,,,,,,,,,,,,,,,,,,,,,,,,,,,,,,,,,,,,,,,,,,,,,,,,,,,,,,,,,,,,,,,,,,,40705,2022-10-28_09h09.04.353,vts_reward_expectancy_bt_OFFLINE,2022.2.4,59.9464135417548,
1,0,0,0,0,1,0,0,triangle,circle,0,0,0,0,0,0,0,0,,,,,,,,,,,,,,,,,,,,,,,,,,,,,,,,,,,,,,,,82.17713461999665,82.17713461999665,82.17713461999665,82.17713461999665,82.17713461999665,82.17713461999665,82.17713461999665,82.17713461999665,82.17713461999665,82.17713461999665,l,1.9882761379994918,1,1,0,84.18689601699589,85.68868991399358,,,,,,,,,,,,,,,,,,,,,,,,,,,,,,,,,,,,,,,,,,,,,,,,,,,,,,,,,,,,,,,,,,,,40705,2022-10-28_09h09.04.353,vts_reward_expectancy_bt_OFFLINE,2022.2.4,59.9464135417548,
1,0,0,0,0,0,1,0,triangle,hexagon,0,0,0,0,0,1,1,1,,,,,,,,,,,,,,,,,,,,,,,,,,,,,,,,,,,,,,,,86.1891554039903,86.1891554039903,86.1891554039903,86.1891554039903,86.1891554039903,86.1891554039903,86.1891554039903,86.1891554039903,86.1891554039903,86.1891554039903,a,1.7752658370154677,10,11,0,87.9911757719965,89.49293493499863,,,,,,,,,,,,,,,,,,,,,,,,,,,,,,,,,,,,,,,,,,,,,,,,,,,,,,,,,,,,,,,,,,,,40705,2022-10-28_09h09.04.353,vts_reward_expectancy_bt_OFFLINE,2022.2.4,59.9464135417548,
0,0,0,1,1,0,0,0,star,triangle,0,0,0,0,0,2,2,9,,,,,,,,,,,,,,,,,,,,,,,,,,,,,,,,,,,,,,,,89.99353774100018,89.99353774100018,89.99353774100018,89.99353774100018,89.99353774100018,89.99353774100018,89.99353774100018,89.99353774100018,89.99353774100018,89.99353774100018,l,1.212141086012707,1,12,0,91.22819963398797,92.72989935199439,,,,,,,,,,,,,,,,,,,,,,,,,,,,,,,,,,,,,,,,,,,,,,,,,,,,,,,,,,,,,,,,,,,,40705,2022-10-28_09h09.04.353,vts_reward_expectancy_bt_OFFLINE,2022.2.4,59.9464135417548,
0,0,1,0,0,0,0,1,hexagon,star,0,0,0,0,0,3,3,8,,,,,,,,,,,,,,,,,,,,,,,,,,,,,,,,,,,,,,,,93.23044255799323,93.23044255799323,93.23044255799323,93.23044255799323,93.23044255799323,93.23044255799323,93.23044255799323,93.23044255799323,93.23044255799323,93.23044255799323,a,1.142479436006397,1,13,0,94.39838579999923,95.89993038099783,,,,,,,,,,,,,,,,,,,,,,,,,,,,,,,,,,,,,,,,,,,,,,,,,,,,,,,,,,,,,,,,,,,,40705,2022-10-28_09h09.04.353,vts_reward_expectancy_bt_OFFLINE,2022.2.4,59.9464135417548,
0,1,0,0,0,0,0,1,circle,star,0,0,0,0,0,4,4,5,,,,,,,,,,,,,,,,,,,,,,,,,,,,,,,,,,,,,,,,96.40045487899624,96.40045487899624,96.40045487899624,96.40045487899624,96.40045487899624,96.40045487899624,96.40045487899624,96.40045487899624,96.40045487899624,96.40045487899624,a,0.9964343710162211,1,14,0,97.41831407599966,98.91988838299585,,,,,,,,,,,,,,,,,,,,,,,,,,,,,,,,,,,,,,,,,,,,,,,,,,,,,,,,,,,,,,,,,,,,40705,2022-10-28_09h09.04.353,vts_reward_expectancy_bt_OFFLINE,2022.2.4,59.9464135417548,
0,0,1,0,1,0,0,0,hexagon,triangle,0,0,0,0,0,5,5,6,,,,,,,,,,,,,,,,,,,,,,,,,,,,,,,,,,,,,,,,99.42039563298749,99.42039563298749,99.42039563298749,99.42039563298749,99.42039563298749,99.42039563298749,99.42039563298749,99.42039563298749,99.42039563298749,99.42039563298749,l,1.2733360590063967,1,15,0,100.72119814499456,102.22354228199401,,,,,,,,,,,,,,,,,,,,,,,,,,,,,,,,,,,,,,,,,,,,,,,,,,,,,,,,,,,,,,,,,,,,40705,2022-10-28_09h09.04.353,vts_reward_expectancy_bt_OFFLINE,2022.2.4,59.9464135417548,
0,0,0,1,0,1,0,0,star ,circle,0,0,0,0,0,6,6,10,,,,,,,,,,,,,,,,,,,,,,,,,,,,,,,,,,,,,,,,102.72406537098868,102.72406537098868,102.72406537098868,102.72406537098868,102.72406537098868,102.72406537098868,102.72406537098868,102.72406537098868,102.72406537098868,102.72406537098868,l,2.169985999018536,10,25,0,104.92649365699617,106.42823627399048,,,,,,,,,,,,,,,,,,,,,,,,,,,,,,,,,,,,,,,,,,,,,,,,,,,,,,,,,,,,,,,,,,,,40705,2022-10-28_09h09.04.353,vts_reward_expectancy_bt_OFFLINE,2022.2.4,59.9464135417548,
0,0,1,0,0,1,0,0,hexagon,circle,0,0,0,0,0,7,7,7,,,,,,,,,,,,,,,,,,,,,,,,,,,,,,,,,,,,,,,,106.9286877939885,106.9286877939885,106.9286877939885,106.9286877939885,106.9286877939885,106.9286877939885,106.9286877939885,106.9286877939885,106.9286877939885,106.9286877939885,a,3.9961219580145553,1,26,0,110.9497556899878,112.4514839409967,,,,,,,,,,,,,,,,,,,,,,,,,,,,,,,,,,,,,,,,,,,,,,,,,,,,,,,,,,,,,,,,,,,,40705,2022-10-28_09h09.04.353,vts_reward_expectancy_bt_OFFLINE,2022.2.4,59.9464135417548,
0,1,0,0,1,0,0,0,circle,triangle,0,0,0,0,0,8,8,3,,,,,,,,,,,,,,,,,,,,,,,,,,,,,,,,,,,,,,,,112.95207352099533,112.95207352099533,112.95207352099533,112.95207352099533,112.95207352099533,112.95207352099533,112.95207352099533,112.95207352099533,112.95207352099533,112.95207352099533,a,0.4218715300085023,1,27,0,113.40271579699765,114.90426252198813,,,,,,,,,,,,,,,,,,,,,,,,,,,,,,,,,,,,,,,,,,,,,,,,,,,,,,,,,,,,,,,,,,,,40705,2022-10-28_09h09.04.353,vts_reward_expectancy_bt_OFFLINE,2022.2.4,59.9464135417548,
0,0,0,1,0,0,1,0,star,hexagon,0,0,0,0,0,9,9,11,,,,,,,,,,,,,,,,,,,,,,,,,,,,,,,,,,,,,,,,115.4048400259926,115.4048400259926,115.4048400259926,115.4048400259926,115.4048400259926,115.4048400259926,115.4048400259926,115.4048400259926,115.4048400259926,115.4048400259926,l,0.8807122130237985,1,28,0,116.30588119498861,117.80735898399143,,,,,,,,,,,,,,,,,,,,,,,,,,,,,,,,,,,,,,,,,,,,,,,,,,,,,,,,,,,,,,,,,,,,40705,2022-10-28_09h09.04.353,vts_reward_expectancy_bt_OFFLINE,2022.2.4,59.9464135417548,
0,1,0,0,0,0,1,0,circle,hexagon,0,0,0,0,0,10,10,4,,,,,,,,,,,,,,,,,,,,,,,,,,,,,,,,,,,,,,,,118.30793914898823,118.30793914898823,118.30793914898823,118.30793914898823,118.30793914898823,118.30793914898823,118.30793914898823,118.30793914898823,118.30793914898823,118.30793914898823,l,0.3614372770098271,10,38,0,118.69168166599411,120.19342803499603,,,,,,,,,,,,,,,,,,,,,,,,,,,,,,,,,,,,,,,,,,,,,,,,,,,,,,,,,,,,,,,,,,,,40705,2022-10-28_09h09.04.353,vts_reward_expectancy_bt_OFFLINE,2022.2.4,59.9464135417548,
1,0,0,0,0,0,0,1,triangle,star,0,0,0,0,0,11,11,2,,,,,,,,,,,,,,,,,,,,,,,,,,,,,,,,,,,,,,,,120.69389996399696,120.69389996399696,120.69389996399696,120.69389996399696,120.69389996399696,120.69389996399696,120.69389996399696,120.69389996399696,120.69389996399696,120.69389996399696,l,1.2553482580115087,10,48,0,121.9787415079918,123.48038633899705,,,,,,,,,,,,,,,,,,,,,,,,,,,,,,,,,,,,,,,,,,,,,,,,,,,,,,,,,,,,,,,,,,,,40705,2022-10-28_09h09.04.353,vts_reward_expectancy_bt_OFFLINE,2022.2.4,59.9464135417548,
0,0,0,1,0,0,1,0,star,hexagon,0,0,0,0,1,0,12,11,,,,,,,,,,,,,,,,,,,,,,,,,,,,,,,,,,,,,,,,123.98084577899135,123.98084577899135,123.98084577899135,123.98084577899135,123.98084577899135,123.98084577899135,123.98084577899135,123.98084577899135,123.98084577899135,123.98084577899135,l,1.6490533800097182,1,49,0,125.64925919599773,127.15109090799524,,,,,,,,,,,,,,,,,,,,,,,,,,,,,,,,,,,,,,,,,,,,,,,,,,,,,,,,,,,,,,,,,,,,40705,2022-10-28_09h09.04.353,vts_reward_expectancy_bt_OFFLINE,2022.2.4,59.9464135417548,
0,1,0,0,0,0,1,0,circle,hexagon,0,0,0,0,1,1,13,4,,,,,,,,,,,,,,,,,,,,,,,,,,,,,,,,,,,,,,,,127.65147693599283,127.65147693599283,127.65147693599283,127.65147693599283,127.65147693599283,127.65147693599283,127.65147693599283,127.65147693599283,127.65147693599283,127.65147693599283,a,1.65047443601361,1,50,0,129.3200717439904,130.82163041899912,,,,,,,,,,,,,,,,,,,,,,,,,,,,,,,,,,,,,,,,,,,,,,,,,,,,,,,,,,,,,,,,,,,,40705,2022-10-28_09h09.04.353,vts_reward_expectancy_bt_OFFLINE,2022.2.4,59.9464135417548,
1,0,0,0,0,1,0,0,triangle,circle,0,0,0,0,1,2,14,0,,,,,,,,,,,,,,,,,,,,,,,,,,,,,,,,,,,,,,,,131.32216111999878,131.32216111999878,131.32216111999878,131.32216111999878,131.32216111999878,131.32216111999878,131.32216111999878,131.32216111999878,131.32216111999878,131.32216111999878,a,1.738851368005271,10,60,0,133.09080837399233,134.59245187298802,,,,,,,,,,,,,,,,,,,,,,,,,,,,,,,,,,,,,,,,,,,,,,,,,,,,,,,,,,,,,,,,,,,,40705,2022-10-28_09h09.04.353,vts_reward_expectancy_bt_OFFLINE,2022.2.4,59.9464135417548,
0,1,0,0,0,0,0,1,circle,star,0,0,0,0,1,3,15,5,,,,,,,,,,,,,,,,,,,,,,,,,,,,,,,,,,,,,,,,135.09316375599883,135.09316375599883,135.09316375599883,135.09316375599883,135.09316375599883,135.09316375599883,135.09316375599883,135.09316375599883,135.09316375599883,135.09316375599883,a,3.9686404910025885,1,61,0,139.0807301219902,140.58247350199963,,,,,,,,,,,,,,,,,,,,,,,,,,,,,,,,,,,,,,,,,,,,,,,,,,,,,,,,,,,,,,,,,,,,40705,2022-10-28_09h09.04.353,vts_reward_expectancy_bt_OFFLINE,2022.2.4,59.9464135417548,
1,0,0,0,0,0,0,1,triangle,star,0,0,0,0,1,4,16,2,,,,,,,,,,,,,,,,,,,,,,,,,,,,,,,,,,,,,,,,141.0830087279901,141.0830087279901,141.0830087279901,141.0830087279901,141.0830087279901,141.0830087279901,141.0830087279901,141.0830087279901,141.0830087279901,141.0830087279901,l,1.53799925801286,10,71,0,142.65143193399126,144.153142886993,,,,,,,,,,,,,,,,,,,,,,,,,,,,,,,,,,,,,,,,,,,,,,,,,,,,,,,,,,,,,,,,,,,,40705,2022-10-28_09h09.04.353,vts_reward_expectancy_bt_OFFLINE,2022.2.4,59.9464135417548,
0,0,1,0,1,0,0,0,hexagon,triangle,0,0,0,0,1,5,17,6,,,,,,,,,,,,,,,,,,,,,,,,,,,,,,,,,,,,,,,,144.6536582080007,144.6536582080007,144.6536582080007,144.6536582080007,144.6536582080007,144.6536582080007,144.6536582080007,144.6536582080007,144.6536582080007,144.6536582080007,l,1.9759441140049603,10,81,0,146.65591570599645,148.1575813209929,,,,,,,,,,,,,,,,,,,,,,,,,,,,,,,,,,,,,,,,,,,,,,,,,,,,,,,,,,,,,,,,,,,,40705,2022-10-28_09h09.04.353,vts_reward_expectancy_bt_OFFLINE,2022.2.4,59.9464135417548,
0,0,1,0,0,0,0,1,hexagon,star,0,0,0,0,1,6,18,8,,,,,,,,,,,,,,,,,,,,,,,,,,,,,,,,,,,,,,,,148.65810297399003,148.65810297399003,148.65810297399003,148.65810297399003,148.65810297399003,148.65810297399003,148.65810297399003,148.65810297399003,148.65810297399003,148.65810297399003,a,2.04312344401842,1,82,0,150.72713273999398,152.22883074299898,,,,,,,,,,,,,,,,,,,,,,,,,,,,,,,,,,,,,,,,,,,,,,,,,,,,,,,,,,,,,,,,,,,,40705,2022-10-28_09h09.04.353,vts_reward_expectancy_bt_OFFLINE,2022.2.4,59.9464135417548,
0,0,0,1,0,1,0,0,star ,circle,0,0,0,0,1,7,19,10,,,,,,,,,,,,,,,,,,,,,,,,,,,,,,,,,,,,,,,,152.72924745699856,152.72924745699856,152.72924745699856,152.72924745699856,152.72924745699856,152.72924745699856,152.72924745699856,152.72924745699856,152.72924745699856,152.72924745699856,l,3.003814831012278,1,83,0,155.76586396199127,157.26763734999986,,,,,,,,,,,,,,,,,,,,,,,,,,,,,,,,,,,,,,,,,,,,,,,,,,,,,,,,,,,,,,,,,,,,40705,2022-10-28_09h09.04.353,vts_reward_expectancy_bt_OFFLINE,2022.2.4,59.9464135417548,
0,0,1,0,0,1,0,0,hexagon,circle,0,0,0,0,1,8,20,7,,,,,,,,,,,,,,,,,,,,,,,,,,,,,,,,,,,,,,,,157.76821389498946,157.76821389498946,157.76821389498946,157.76821389498946,157.76821389498946,157.76821389498946,157.76821389498946,157.76821389498946,157.76821389498946,157.76821389498946,l,0.8364000390138244,10,93,0,158.63569792399358,160.13732597899798,,,,,,,,,,,,,,,,,,,,,,,,,,,,,,,,,,,,,,,,,,,,,,,,,,,,,,,,,,,,,,,,,,,,40705,2022-10-28_09h09.04.353,vts_reward_expectancy_bt_OFFLINE,2022.2.4,59.9464135417548,
0,0,0,1,1,0,0,0,star,triangle,0,0,0,0,1,9,21,9,,,,,,,,,,,,,,,,,,,,,,,,,,,,,,,,,,,,,,,,160.6380023239908,160.6380023239908,160.6380023239908,160.6380023239908,160.6380023239908,160.6380023239908,160.6380023239908,160.6380023239908,160.6380023239908,160.6380023239908,a,1.9030773940030485,1,94,0,162.57337566999195,164.07503229400027,,,,,,,,,,,,,,,,,,,,,,,,,,,,,,,,,,,,,,,,,,,,,,,,,,,,,,,,,,,,,,,,,,,,40705,2022-10-28_09h09.04.353,vts_reward_expectancy_bt_OFFLINE,2022.2.4,59.9464135417548,
0,1,0,0,1,0,0,0,circle,triangle,0,0,0,0,1,10,22,3,,,,,,,,,,,,,,,,,,,,,,,,,,,,,,,,,,,,,,,,164.57582866300072,164.57582866300072,164.57582866300072,164.57582866300072,164.57582866300072,164.57582866300072,164.57582866300072,164.57582866300072,164.57582866300072,164.57582866300072,l,3.4935752710152883,1,95,0,168.096126266988,169.59778868500143,,,,,,,,,,,,,,,,,,,,,,,,,,,,,,,,,,,,,,,,,,,,,,,,,,,,,,,,,,,,,,,,,,,,40705,2022-10-28_09h09.04.353,vts_reward_expectancy_bt_OFFLINE,2022.2.4,59.9464135417548,
1,0,0,0,0,0,1,0,triangle,hexagon,0,0,0,0,1,11,23,1,,,,,,,,,,,,,,,,,,,,,,,,,,,,,,,,,,,,,,,,170.0982875339978,170.0982875339978,170.0982875339978,170.0982875339978,170.0982875339978,170.0982875339978,170.0982875339978,170.0982875339978,170.0982875339978,170.0982875339978,l,1.9145925730117597,10,105,0,172.0338221229904,173.5356707389874,,,,,,,,,,,,,,,,,,,,,,,,,,,,,,,,,,,,,,,,,,,,,,,,,,,,,,,,,,,,,,,,,,,,40705,2022-10-28_09h09.04.353,vts_reward_expectancy_bt_OFFLINE,2022.2.4,59.9464135417548,
0,1,0,0,0,0,1,0,circle,hexagon,0,0,0,0,2,0,24,4,,,,,,,,,,,,,,,,,,,,,,,,,,,,,,,,,,,,,,,,174.0361564509949,174.0361564509949,174.0361564509949,174.0361564509949,174.0361564509949,174.0361564509949,174.0361564509949,174.0361564509949,174.0361564509949,174.0361564509949,a,1.2740787480142899,1,106,0,175.33764001999225,176.83917189699423,,,,,,,,,,,,,,,,,,,,,,,,,,,,,,,,,,,,,,,,,,,,,,,,,,,,,,,,,,,,,,,,,,,,40705,2022-10-28_09h09.04.353,vts_reward_expectancy_bt_OFFLINE,2022.2.4,59.9464135417548,
1,0,0,0,0,0,1,0,triangle,hexagon,0,0,0,0,2,1,25,1,,,,,,,,,,,,,,,,,,,,,,,,,,,,,,,,,,,,,,,,177.33971634099726,177.33971634099726,177.33971634099726,177.33971634099726,177.33971634099726,177.33971634099726,177.33971634099726,177.33971634099726,177.33971634099726,177.33971634099726,l,0.5932259020046331,1,107,0,177.9569293079985,179.45867720499518,,,,,,,,,,,,,,,,,,,,,,,,,,,,,,,,,,,,,,,,,,,,,,,,,,,,,,,,,,,,,,,,,,,,40705,2022-10-28_09h09.04.353,vts_reward_expectancy_bt_OFFLINE,2022.2.4,59.9464135417548,
1,0,0,0,0,1,0,0,triangle,circle,0,0,0,0,2,2,26,0,,,,,,,,,,,,,,,,,,,,,,,,,,,,,,,,,,,,,,,,179.95926658899407,179.95926658899407,179.95926658899407,179.95926658899407,179.95926658899407,179.95926658899407,179.95926658899407,179.95926658899407,179.95926658899407,179.95926658899407,a,1.182679719015141,10,117,0,181.16046681298758,182.66229598199425,,,,,,,,,,,,,,,,,,,,,,,,,,,,,,,,,,,,,,,,,,,,,,,,,,,,,,,,,,,,,,,,,,,,40705,2022-10-28_09h09.04.353,vts_reward_expectancy_bt_OFFLINE,2022.2.4,59.9464135417548,
0,0,0,1,0,0,1,0,star,hexagon,0,0,0,0,2,3,27,11,,,,,,,,,,,,,,,,,,,,,,,,,,,,,,,,,,,,,,,,183.1630021979945,183.1630021979945,183.1630021979945,183.1630021979945,183.1630021979945,183.1630021979945,183.1630021979945,183.1630021979945,183.1630021979945,183.1630021979945,a,4.25007028701657,10,127,0,187.43433193799865,188.93579221398977,,,,,,,,,,,,,,,,,,,,,,,,,,,,,,,,,,,,,,,,,,,,,,,,,,,,,,,,,,,,,,,,,,,,40705,2022-10-28_09h09.04.353,vts_reward_expectancy_bt_OFFLINE,2022.2.4,59.9464135417548,
0,0,1,0,1,0,0,0,hexagon,triangle,0,0,0,0,2,4,28,6,,,,,,,,,,,,,,,,,,,,,,,,,,,,,,,,,,,,,,,,189.43638890099828,189.43638890099828,189.43638890099828,189.43638890099828,189.43638890099828,189.43638890099828,189.43638890099828,189.43638890099828,189.43638890099828,189.43638890099828,a,2.1697671310103033,1,128,0,191.63880451300065,193.14061254898843,,,,,,,,,,,,,,,,,,,,,,,,,,,,,,,,,,,,,,,,,,,,,,,,,,,,,,,,,,,,,,,,,,,,40705,2022-10-28_09h09.04.353,vts_reward_expectancy_bt_OFFLINE,2022.2.4,59.9464135417548,
0,1,0,0,1,0,0,0,circle,triangle,0,0,0,0,2,5,29,3,,,,,,,,,,,,,,,,,,,,,,,,,,,,,,,,,,,,,,,,193.6408816990006,193.6408816990006,193.6408816990006,193.6408816990006,193.6408816990006,193.6408816990006,193.6408816990006,193.6408816990006,193.6408816990006,193.6408816990006,a,2.1404716940160142,1,129,0,195.80992154599517,197.31180772600055,,,,,,,,,,,,,,,,,,,,,,,,,,,,,,,,,,,,,,,,,,,,,,,,,,,,,,,,,,,,,,,,,,,,40705,2022-10-28_09h09.04.353,vts_reward_expectancy_bt_OFFLINE,2022.2.4,59.9464135417548,
0,0,0,1,0,1,0,0,star ,circle,0,0,0,0,2,6,30,10,,,,,,,,,,,,,,,,,,,,,,,,,,,,,,,,,,,,,,,,197.81237226699886,197.81237226699886,197.81237226699886,197.81237226699886,197.81237226699886,197.81237226699886,197.81237226699886,197.81237226699886,197.81237226699886,197.81237226699886,a,1.6888642630074173,1,130,0,199.53084848199796,201.0325526989909,,,,,,,,,,,,,,,,,,,,,,,,,,,,,,,,,,,,,,,,,,,,,,,,,,,,,,,,,,,,,,,,,,,,40705,2022-10-28_09h09.04.353,vts_reward_expectancy_bt_OFFLINE,2022.2.4,59.9464135417548,
1,0,0,0,0,0,0,1,triangle,star,0,0,0,0,2,7,31,2,,,,,,,,,,,,,,,,,,,,,,,,,,,,,,,,,,,,,,,,201.5332043269882,201.5332043269882,201.5332043269882,201.5332043269882,201.5332043269882,201.5332043269882,201.5332043269882,201.5332043269882,201.5332043269882,201.5332043269882,a,0.6805471500119893,10,140,0,202.2339971009933,203.7354801009933,,,,,,,,,,,,,,,,,,,,,,,,,,,,,,,,,,,,,,,,,,,,,,,,,,,,,,,,,,,,,,,,,,,,40705,2022-10-28_09h09.04.353,vts_reward_expectancy_bt_OFFLINE,2022.2.4,59.9464135417548,
0,0,1,0,0,1,0,0,hexagon,circle,0,0,0,0,2,8,32,7,,,,,,,,,,,,,,,,,,,,,,,,,,,,,,,,,,,,,,,,204.2361670419923,204.2361670419923,204.2361670419923,204.2361670419923,204.2361670419923,204.2361670419923,204.2361670419923,204.2361670419923,204.2361670419923,204.2361670419923,l,0.4819076470157597,1,141,0,204.73674799798755,206.23838876199443,,,,,,,,,,,,,,,,,,,,,,,,,,,,,,,,,,,,,,,,,,,,,,,,,,,,,,,,,,,,,,,,,,,,40705,2022-10-28_09h09.04.353,vts_reward_expectancy_bt_OFFLINE,2022.2.4,59.9464135417548,
0,0,1,0,0,0,0,1,hexagon,star,0,0,0,0,2,9,33,8,,,,,,,,,,,,,,,,,,,,,,,,,,,,,,,,,,,,,,,,206.73874653800158,206.73874653800158,206.73874653800158,206.73874653800158,206.73874653800158,206.73874653800158,206.73874653800158,206.73874653800158,206.73874653800158,206.73874653800158,l,0.530488188014715,10,151,0,207.28943546798837,208.791134959989,,,,,,,,,,,,,,,,,,,,,,,,,,,,,,,,,,,,,,,,,,,,,,,,,,,,,,,,,,,,,,,,,,,,40705,2022-10-28_09h09.04.353,vts_reward_expectancy_bt_OFFLINE,2022.2.4,59.9464135417548,
0,1,0,0,0,0,0,1,circle,star,0,0,0,0,2,10,34,5,,,,,,,,,,,,,,,,,,,,,,,,,,,,,,,,,,,,,,,,209.29164270199544,209.29164270199544,209.29164270199544,209.29164270199544,209.29164270199544,209.29164270199544,209.29164270199544,209.29164270199544,209.29164270199544,209.29164270199544,l,0.4660503330087522,10,161,0,209.7756350139971,211.27697985099803,,,,,,,,,,,,,,,,,,,,,,,,,,,,,,,,,,,,,,,,,,,,,,,,,,,,,,,,,,,,,,,,,,,,40705,2022-10-28_09h09.04.353,vts_reward_expectancy_bt_OFFLINE,2022.2.4,59.9464135417548,
0,0,0,1,1,0,0,0,star,triangle,0,0,0,0,2,11,35,9,,,,,,,,,,,,,,,,,,,,,,,,,,,,,,,,,,,,,,,,211.7777854379965,211.7777854379965,211.7777854379965,211.7777854379965,211.7777854379965,211.7777854379965,211.7777854379965,211.7777854379965,211.7777854379965,211.7777854379965,a,0.4440887280070456,10,171,0,212.2448999039916,213.74654323799768,,,,,,,,,,,,,,,,,,,,,,,,,,,,,,,,,,,,,,,,,,,,,,,,,,,,,,,,,,,,,,,,,,,,40705,2022-10-28_09h09.04.353,vts_reward_expectancy_bt_OFFLINE,2022.2.4,59.9464135417548,
0,0,0,1,0,1,0,0,star ,circle,0,0,0,0,3,0,36,10,,,,,,,,,,,,,,,,,,,,,,,,,,,,,,,,,,,,,,,,214.24705094000092,214.24705094000092,214.24705094000092,214.24705094000092,214.24705094000092,214.24705094000092,214.24705094000092,214.24705094000092,214.24705094000092,214.24705094000092,l,1.1667561840149574,1,172,0,215.43170251999982,216.9333762079914,,,,,,,,,,,,,,,,,,,,,,,,,,,,,,,,,,,,,,,,,,,,,,,,,,,,,,,,,,,,,,,,,,,,40705,2022-10-28_09h09.04.353,vts_reward_expectancy_bt_OFFLINE,2022.2.4,59.9464135417548,
0,0,1,0,1,0,0,0,hexagon,triangle,0,0,0,0,3,1,37,6,,,,,,,,,,,,,,,,,,,,,,,,,,,,,,,,,,,,,,,,217.4339898499893,217.4339898499893,217.4339898499893,217.4339898499893,217.4339898499893,217.4339898499893,217.4339898499893,217.4339898499893,217.4339898499893,217.4339898499893,l,1.619757271007984,10,182,0,219.08583246999478,220.5874027569953,,,,,,,,,,,,,,,,,,,,,,,,,,,,,,,,,,,,,,,,,,,,,,,,,,,,,,,,,,,,,,,,,,,,40705,2022-10-28_09h09.04.353,vts_reward_expectancy_bt_OFFLINE,2022.2.4,59.9464135417548,
0,0,0,1,1,0,0,0,star,triangle,0,0,0,0,3,2,38,9,,,,,,,,,,,,,,,,,,,,,,,,,,,,,,,,,,,,,,,,221.08808220899664,221.08808220899664,221.08808220899664,221.08808220899664,221.08808220899664,221.08808220899664,221.08808220899664,221.08808220899664,221.08808220899664,221.08808220899664,l,0.5175692530174274,10,192,0,221.62187875399832,223.123541768,,,,,,,,,,,,,,,,,,,,,,,,,,,,,,,,,,,,,,,,,,,,,,,,,,,,,,,,,,,,,,,,,,,,40705,2022-10-28_09h09.04.353,vts_reward_expectancy_bt_OFFLINE,2022.2.4,59.9464135417548,
0,0,1,0,0,1,0,0,hexagon,circle,0,0,0,0,3,3,39,7,,,,,,,,,,,,,,,,,,,,,,,,,,,,,,,,,,,,,,,,223.62409240398847,223.62409240398847,223.62409240398847,223.62409240398847,223.62409240398847,223.62409240398847,223.62409240398847,223.62409240398847,223.62409240398847,223.62409240398847,a,2.0858400810247986,1,193,0,225.72619339398807,227.22806148399832,,,,,,,,,,,,,,,,,,,,,,,,,,,,,,,,,,,,,,,,,,,,,,,,,,,,,,,,,,,,,,,,,,,,40705,2022-10-28_09h09.04.353,vts_reward_expectancy_bt_OFFLINE,2022.2.4,59.9464135417548,
0,0,1,0,0,0,0,1,hexagon,star,0,0,0,0,3,4,40,8,,,,,,,,,,,,,,,,,,,,,,,,,,,,,,,,,,,,,,,,227.72867351199966,227.72867351199966,227.72867351199966,227.72867351199966,227.72867351199966,227.72867351199966,227.72867351199966,227.72867351199966,227.72867351199966,227.72867351199966,a,2.8768516660056775,1,194,0,230.63199221099785,232.13338747099624,,,,,,,,,,,,,,,,,,,,,,,,,,,,,,,,,,,,,,,,,,,,,,,,,,,,,,,,,,,,,,,,,,,,40705,2022-10-28_09h09.04.353,vts_reward_expectancy_bt_OFFLINE,2022.2.4,59.9464135417548,
1,0,0,0,0,0,0,1,triangle,star,0,0,0,0,3,5,41,2,,,,,,,,,,,,,,,,,,,,,,,,,,,,,,,,,,,,,,,,232.6339833230013,232.6339833230013,232.6339833230013,232.6339833230013,232.6339833230013,232.6339833230013,232.6339833230013,232.6339833230013,232.6339833230013,232.6339833230013,l,0.9395396870240802,10,204,0,233.6016792349983,235.1033981799992,,,,,,,,,,,,,,,,,,,,,,,,,,,,,,,,,,,,,,,,,,,,,,,,,,,,,,,,,,,,,,,,,,,,40705,2022-10-28_09h09.04.353,vts_reward_expectancy_bt_OFFLINE,2022.2.4,59.9464135417548,
1,0,0,0,0,1,0,0,triangle,circle,0,0,0,0,3,6,42,0,,,,,,,,,,,,,,,,,,,,,,,,,,,,,,,,,,,,,,,,235.6038640379993,235.6038640379993,235.6038640379993,235.6038640379993,235.6038640379993,235.6038640379993,235.6038640379993,235.6038640379993,235.6038640379993,235.6038640379993,a,1.9130247200082522,10,214,0,237.53940759399848,239.0409322399937,,,,,,,,,,,,,,,,,,,,,,,,,,,,,,,,,,,,,,,,,,,,,,,,,,,,,,,,,,,,,,,,,,,,40705,2022-10-28_09h09.04.353,vts_reward_expectancy_bt_OFFLINE,2022.2.4,59.9464135417548,
0,1,0,0,0,0,1,0,circle,hexagon,0,0,0,0,3,7,43,4,,,,,,,,,,,,,,,,,,,,,,,,,,,,,,,,,,,,,,,,239.54152096399048,239.54152096399048,239.54152096399048,239.54152096399048,239.54152096399048,239.54152096399048,239.54152096399048,239.54152096399048,239.54152096399048,239.54152096399048,a,2.9767529330129037,1,215,0,242.54488154299906,244.04670980299124,,,,,,,,,,,,,,,,,,,,,,,,,,,,,,,,,,,,,,,,,,,,,,,,,,,,,,,,,,,,,,,,,,,,40705,2022-10-28_09h09.04.353,vts_reward_expectancy_bt_OFFLINE,2022.2.4,59.9464135417548,
0,0,0,1,0,0,1,0,star,hexagon,0,0,0,0,3,8,44,11,,,,,,,,,,,,,,,,,,,,,,,,,,,,,,,,,,,,,,,,244.54712910499074,244.54712910499074,244.54712910499074,244.54712910499074,244.54712910499074,244.54712910499074,244.54712910499074,244.54712910499074,244.54712910499074,244.54712910499074,l,1.210757578999619,1,216,0,245.78214902599575,247.28363644098863,,,,,,,,,,,,,,,,,,,,,,,,,,,,,,,,,,,,,,,,,,,,,,,,,,,,,,,,,,,,,,,,,,,,40705,2022-10-28_09h09.04.353,vts_reward_expectancy_bt_OFFLINE,2022.2.4,59.9464135417548,
0,1,0,0,1,0,0,0,circle,triangle,0,0,0,0,3,9,45,3,,,,,,,,,,,,,,,,,,,,,,,,,,,,,,,,,,,,,,,,247.7841408690001,247.7841408690001,247.7841408690001,247.7841408690001,247.7841408690001,247.7841408690001,247.7841408690001,247.7841408690001,247.7841408690001,247.7841408690001,a,2.2695319420163287,1,217,0,250.08721773799334,251.58821479199105,,,,,,,,,,,,,,,,,,,,,,,,,,,,,,,,,,,,,,,,,,,,,,,,,,,,,,,,,,,,,,,,,,,,40705,2022-10-28_09h09.04.353,vts_reward_expectancy_bt_OFFLINE,2022.2.4,59.9464135417548,
1,0,0,0,0,0,1,0,triangle,hexagon,0,0,0,0,3,10,46,1,,,,,,,,,,,,,,,,,,,,,,,,,,,,,,,,,,,,,,,,252.08881898599793,252.08881898599793,252.08881898599793,252.08881898599793,252.08881898599793,252.08881898599793,252.08881898599793,252.08881898599793,252.08881898599793,252.08881898599793,l,1.333179673019913,1,218,0,253.4403563149972,254.94192960199143,,,,,,,,,,,,,,,,,,,,,,,,,,,,,,,,,,,,,,,,,,,,,,,,,,,,,,,,,,,,,,,,,,,,40705,2022-10-28_09h09.04.353,vts_reward_expectancy_bt_OFFLINE,2022.2.4,59.9464135417548,
0,1,0,0,0,0,0,1,circle,star,0,0,0,0,3,11,47,5,,,,,,,,,,,,,,,,,,,,,,,,,,,,,,,,,,,,,,,,255.44245137899998,255.44245137899998,255.44245137899998,255.44245137899998,255.44245137899998,255.44245137899998,255.44245137899998,255.44245137899998,255.44245137899998,255.44245137899998,a,2.4517138200171757,1,219,0,257.9119300159946,259.41359238899895,,,,,,,,,,,,,,,,,,,,,,,,,,,,,,,,,,,,,,,,,,,,,,,,,,,,,,,,,,,,,,,,,,,,40705,2022-10-28_09h09.04.353,vts_reward_expectancy_bt_OFFLINE,2022.2.4,59.9464135417548,
0,0,1,0,1,0,0,0,hexagon,triangle,1,0,1,0,0,0,0,6,,,,,,,,,,,,,,,,,,,,,,,,,,,,,,,,,,,,,,,,265.8585678909876,265.8585678909876,265.8585678909876,265.8585678909876,265.8585678909876,265.8585678909876,265.8585678909876,265.8585678909876,265.8585678909876,265.8585678909876,l,1.419979216021602,10,229,1,267.30558581699734,268.80727485798707,,,,,,,,,,,,,,,,,,,,,,,,,,,,,,,,,,,,,,,,,,,,,,,,,,,,,,,,,,,,,,,,,,,,40705,2022-10-28_09h09.04.353,vts_reward_expectancy_bt_OFFLINE,2022.2.4,59.9464135417548,
0,0,0,1,0,0,1,0,star,hexagon,1,0,1,0,0,1,1,11,,,,,,,,,,,,,,,,,,,,,,,,,,,,,,,,,,,,,,,,269.3078283879877,269.3078283879877,269.3078283879877,269.3078283879877,269.3078283879877,269.3078283879877,269.3078283879877,269.3078283879877,269.3078283879877,269.3078283879877,a,3.5615677180176135,10,239,1,272.89506858299137,274.3968757549883,,,,,,,,,,,,,,,,,,,,,,,,,,,,,,,,,,,,,,,,,,,,,,,,,,,,,,,,,,,,,,,,,,,,40705,2022-10-28_09h09.04.353,vts_reward_expectancy_bt_OFFLINE,2022.2.4,59.9464135417548,
1,0,0,0,0,0,1,0,triangle,hexagon,1,0,1,0,0,2,2,1,,,,,,,,,,,,,,,,,,,,,,,,,,,,,,,,,,,,,,,,274.8973538019927,274.8973538019927,274.8973538019927,274.8973538019927,274.8973538019927,274.8973538019927,274.8973538019927,274.8973538019927,274.8973538019927,274.8973538019927,a,2.6280294390162453,10,249,1,277.5502058939892,279.05191635400115,,,,,,,,,,,,,,,,,,,,,,,,,,,,,,,,,,,,,,,,,,,,,,,,,,,,,,,,,,,,,,,,,,,,40705,2022-10-28_09h09.04.353,vts_reward_expectancy_bt_OFFLINE,2022.2.4,59.9464135417548,
0,0,1,0,0,0,0,1,hexagon,star,1,0,1,0,0,3,3,8,,,,,,,,,,,,,,,,,,,,,,,,,,,,,,,,,,,,,,,,279.55235495298984,279.55235495298984,279.55235495298984,279.55235495298984,279.55235495298984,279.55235495298984,279.55235495298984,279.55235495298984,279.55235495298984,279.55235495298984,l,2.6453600020176964,10,259,1,282.22218241098744,283.7238339829928,,,,,,,,,,,,,,,,,,,,,,,,,,,,,,,,,,,,,,,,,,,,,,,,,,,,,,,,,,,,,,,,,,,,40705,2022-10-28_09h09.04.353,vts_reward_expectancy_bt_OFFLINE,2022.2.4,59.9464135417548,
0,0,0,1,1,0,0,0,star,triangle,1,0,1,0,0,4,4,9,,,,,,,,,,,,,,,,,,,,,,,,,,,,,,,,,,,,,,,,284.2242355539929,284.2242355539929,284.2242355539929,284.2242355539929,284.2242355539929,284.2242355539929,284.2242355539929,284.2242355539929,284.2242355539929,284.2242355539929,a,2.7889670280128485,10,269,1,287.04412209898874,288.5457432819967,,,,,,,,,,,,,,,,,,,,,,,,,,,,,,,,,,,,,,,,,,,,,,,,,,,,,,,,,,,,,,,,,,,,40705,2022-10-28_09h09.04.353,vts_reward_expectancy_bt_OFFLINE,2022.2.4,59.9464135417548,
0,1,0,0,1,0,0,0,circle,triangle,1,0,1,0,0,5,5,3,,,,,,,,,,,,,,,,,,,,,,,,,,,,,,,,,,,,,,,,289.0463352079969,289.0463352079969,289.0463352079969,289.0463352079969,289.0463352079969,289.0463352079969,289.0463352079969,289.0463352079969,289.0463352079969,289.0463352079969,l,1.4149302710138727,10,279,1,290.48137346799194,291.9828684039967,,,,,,,,,,,,,,,,,,,,,,,,,,,,,,,,,,,,,,,,,,,,,,,,,,,,,,,,,,,,,,,,,,,,40705,2022-10-28_09h09.04.353,vts_reward_expectancy_bt_OFFLINE,2022.2.4,59.9464135417548,
0,1,0,0,0,0,1,0,circle,hexagon,1,0,1,0,0,6,6,4,,,,,,,,,,,,,,,,,,,,,,,,,,,,,,,,,,,,,,,,292.4835487409873,292.4835487409873,292.4835487409873,292.4835487409873,292.4835487409873,292.4835487409873,292.4835487409873,292.4835487409873,292.4835487409873,292.4835487409873,a,2.113274901013938,1,280,1,294.6190750629903,296.1206967649923,,,,,,,,,,,,,,,,,,,,,,,,,,,,,,,,,,,,,,,,,,,,,,,,,,,,,,,,,,,,,,,,,,,,40705,2022-10-28_09h09.04.353,vts_reward_expectancy_bt_OFFLINE,2022.2.4,59.9464135417548,
0,1,0,0,0,0,0,1,circle,star,1,0,1,0,0,7,7,5,,,,,,,,,,,,,,,,,,,,,,,,,,,,,,,,,,,,,,,,296.6214549439901,296.6214549439901,296.6214549439901,296.6214549439901,296.6214549439901,296.6214549439901,296.6214549439901,296.6214549439901,296.6214549439901,296.6214549439901,a,1.9195967870036839,1,281,1,298.57355045298755,300.07509652199224,,,,,,,,,,,,,,,,,,,,,,,,,,,,,,,,,,,,,,,,,,,,,,,,,,,,,,,,,,,,,,,,,,,,40705,2022-10-28_09h09.04.353,vts_reward_expectancy_bt_OFFLINE,2022.2.4,59.9464135417548,
1,0,0,0,0,1,0,0,triangle,circle,1,0,1,0,0,8,8,0,,,,,,,,,,,,,,,,,,,,,,,,,,,,,,,,,,,,,,,,300.5756014489889,300.5756014489889,300.5756014489889,300.5756014489889,300.5756014489889,300.5756014489889,300.5756014489889,300.5756014489889,300.5756014489889,300.5756014489889,a,0.8689391410007374,10,291,1,301.476652265992,302.9783778169949,,,,,,,,,,,,,,,,,,,,,,,,,,,,,,,,,,,,,,,,,,,,,,,,,,,,,,,,,,,,,,,,,,,,40705,2022-10-28_09h09.04.353,vts_reward_expectancy_bt_OFFLINE,2022.2.4,59.9464135417548,
1,0,0,0,0,0,0,1,triangle,star,1,0,1,0,0,9,9,2,,,,,,,,,,,,,,,,,,,,,,,,,,,,,,,,,,,,,,,,303.479061334001,303.479061334001,303.479061334001,303.479061334001,303.479061334001,303.479061334001,303.479061334001,303.479061334001,303.479061334001,303.479061334001,l,2.6215556370152626,10,301,1,306.1319270919921,307.6334537619987,,,,,,,,,,,,,,,,,,,,,,,,,,,,,,,,,,,,,,,,,,,,,,,,,,,,,,,,,,,,,,,,,,,,40705,2022-10-28_09h09.04.353,vts_reward_expectancy_bt_OFFLINE,2022.2.4,59.9464135417548,
0,0,0,1,0,1,0,0,star ,circle,1,0,1,0,0,10,10,10,,,,,,,,,,,,,,,,,,,,,,,,,,,,,,,,,,,,,,,,308.1339461699972,308.1339461699972,308.1339461699972,308.1339461699972,308.1339461699972,308.1339461699972,308.1339461699972,308.1339461699972,308.1339461699972,308.1339461699972,a,2.4469493230135413,10,311,1,310.6034807799879,312.10509289999027,,,,,,,,,,,,,,,,,,,,,,,,,,,,,,,,,,,,,,,,,,,,,,,,,,,,,,,,,,,,,,,,,,,,40705,2022-10-28_09h09.04.353,vts_reward_expectancy_bt_OFFLINE,2022.2.4,59.9464135417548,
0,0,1,0,0,1,0,0,hexagon,circle,1,0,1,0,0,11,11,7,,,,,,,,,,,,,,,,,,,,,,,,,,,,,,,,,,,,,,,,312.6057841430011,312.6057841430011,312.6057841430011,312.6057841430011,312.6057841430011,312.6057841430011,312.6057841430011,312.6057841430011,312.6057841430011,312.6057841430011,a,2.9915502660151105,1,312,1,315.6256006529875,317.1272791359952,,,,,,,,,,,,,,,,,,,,,,,,,,,,,,,,,,,,,,,,,,,,,,,,,,,,,,,,,,,,,,,,,,,,40705,2022-10-28_09h09.04.353,vts_reward_expectancy_bt_OFFLINE,2022.2.4,59.9464135417548,
1,0,0,0,0,1,0,0,triangle,circle,1,0,1,0,1,0,12,0,,,,,,,,,,,,,,,,,,,,,,,,,,,,,,,,,,,,,,,,317.6278352419904,317.6278352419904,317.6278352419904,317.6278352419904,317.6278352419904,317.6278352419904,317.6278352419904,317.6278352419904,317.6278352419904,317.6278352419904,a,1.0663834230217617,10,322,1,318.71242026399705,320.21388528798707,,,,,,,,,,,,,,,,,,,,,,,,,,,,,,,,,,,,,,,,,,,,,,,,,,,,,,,,,,,,,,,,,,,,40705,2022-10-28_09h09.04.353,vts_reward_expectancy_bt_OFFLINE,2022.2.4,59.9464135417548,
0,1,0,0,1,0,0,0,circle,triangle,1,0,1,0,1,1,13,3,,,,,,,,,,,,,,,,,,,,,,,,,,,,,,,,,,,,,,,,320.7147808979935,320.7147808979935,320.7147808979935,320.7147808979935,320.7147808979935,320.7147808979935,320.7147808979935,320.7147808979935,320.7147808979935,320.7147808979935,l,1.0102635280200047,1,323,1,321.7491398150014,323.25056710898934,,,,,,,,,,,,,,,,,,,,,,,,,,,,,,,,,,,,,,,,,,,,,,,,,,,,,,,,,,,,,,,,,,,,40705,2022-10-28_09h09.04.353,vts_reward_expectancy_bt_OFFLINE,2022.2.4,59.9464135417548,
0,1,0,0,0,0,0,1,circle,star,1,0,1,0,1,2,14,5,,,,,,,,,,,,,,,,,,,,,,,,,,,,,,,,,,,,,,,,323.75113205998787,323.75113205998787,323.75113205998787,323.75113205998787,323.75113205998787,323.75113205998787,323.75113205998787,323.75113205998787,323.75113205998787,323.75113205998787,l,0.8855390670069028,10,333,1,324.66883335099556,326.1704321169964,,,,,,,,,,,,,,,,,,,,,,,,,,,,,,,,,,,,,,,,,,,,,,,,,,,,,,,,,,,,,,,,,,,,40705,2022-10-28_09h09.04.353,vts_reward_expectancy_bt_OFFLINE,2022.2.4,59.9464135417548,
0,0,1,0,0,1,0,0,hexagon,circle,1,0,1,0,1,3,15,7,,,,,,,,,,,,,,,,,,,,,,,,,,,,,,,,,,,,,,,,326.6711167469912,326.6711167469912,326.6711167469912,326.6711167469912,326.6711167469912,326.6711167469912,326.6711167469912,326.6711167469912,326.6711167469912,326.6711167469912,a,1.8698950380203314,1,334,1,328.57316128499224,330.0748764089949,,,,,,,,,,,,,,,,,,,,,,,,,,,,,,,,,,,,,,,,,,,,,,,,,,,,,,,,,,,,,,,,,,,,40705,2022-10-28_09h09.04.353,vts_reward_expectancy_bt_OFFLINE,2022.2.4,59.9464135417548,
1,0,0,0,0,0,0,1,triangle,star,1,0,1,0,1,4,16,2,,,,,,,,,,,,,,,,,,,,,,,,,,,,,,,,,,,,,,,,330.5754744799924,330.5754744799924,330.5754744799924,330.5754744799924,330.5754744799924,330.5754744799924,330.5754744799924,330.5754744799924,330.5754744799924,330.5754744799924,l,0.837816223007394,10,344,1,331.4429376729968,332.94474865699885,,,,,,,,,,,,,,,,,,,,,,,,,,,,,,,,,,,,,,,,,,,,,,,,,,,,,,,,,,,,,,,,,,,,40705,2022-10-28_09h09.04.353,vts_reward_expectancy_bt_OFFLINE,2022.2.4,59.9464135417548,
1,0,0,0,0,0,1,0,triangle,hexagon,1,0,1,0,1,5,17,1,,,,,,,,,,,,,,,,,,,,,,,,,,,,,,,,,,,,,,,,333.445452696993,333.445452696993,333.445452696993,333.445452696993,333.445452696993,333.445452696993,333.445452696993,333.445452696993,333.445452696993,333.445452696993,a,0.7282107760256622,10,354,1,334.19604009899194,335.6977932289883,,,,,,,,,,,,,,,,,,,,,,,,,,,,,,,,,,,,,,,,,,,,,,,,,,,,,,,,,,,,,,,,,,,,40705,2022-10-28_09h09.04.353,vts_reward_expectancy_bt_OFFLINE,2022.2.4,59.9464135417548,
0,0,0,1,0,1,0,0,star ,circle,1,0,1,0,1,6,18,10,,,,,,,,,,,,,,,,,,,,,,,,,,,,,,,,,,,,,,,,336.19822818099055,336.19822818099055,336.19822818099055,336.19822818099055,336.19822818099055,336.19822818099055,336.19822818099055,336.19822818099055,336.19822818099055,336.19822818099055,a,1.6785668290103786,10,364,1,337.9000699249882,339.40194046699617,,,,,,,,,,,,,,,,,,,,,,,,,,,,,,,,,,,,,,,,,,,,,,,,,,,,,,,,,,,,,,,,,,,,40705,2022-10-28_09h09.04.353,vts_reward_expectancy_bt_OFFLINE,2022.2.4,59.9464135417548,
0,0,1,0,0,0,0,1,hexagon,star,1,0,1,0,1,7,19,8,,,,,,,,,,,,,,,,,,,,,,,,,,,,,,,,,,,,,,,,339.9023774689995,339.9023774689995,339.9023774689995,339.9023774689995,339.9023774689995,339.9023774689995,339.9023774689995,339.9023774689995,339.9023774689995,339.9023774689995,l,1.6077481150132371,10,374,1,341.5374809579953,343.0391352959996,,,,,,,,,,,,,,,,,,,,,,,,,,,,,,,,,,,,,,,,,,,,,,,,,,,,,,,,,,,,,,,,,,,,40705,2022-10-28_09h09.04.353,vts_reward_expectancy_bt_OFFLINE,2022.2.4,59.9464135417548,
0,1,0,0,0,0,1,0,circle,hexagon,1,0,1,0,1,8,20,4,,,,,,,,,,,,,,,,,,,,,,,,,,,,,,,,,,,,,,,,343.5397244469932,343.5397244469932,343.5397244469932,343.5397244469932,343.5397244469932,343.5397244469932,343.5397244469932,343.5397244469932,343.5397244469932,343.5397244469932,l,1.4413782890042057,1,375,1,345.0079052499932,346.5095354929945,,,,,,,,,,,,,,,,,,,,,,,,,,,,,,,,,,,,,,,,,,,,,,,,,,,,,,,,,,,,,,,,,,,,40705,2022-10-28_09h09.04.353,vts_reward_expectancy_bt_OFFLINE,2022.2.4,59.9464135417548,
0,0,1,0,1,0,0,0,hexagon,triangle,1,0,1,0,1,9,21,6,,,,,,,,,,,,,,,,,,,,,,,,,,,,,,,,,,,,,,,,347.01009804599744,347.01009804599744,347.01009804599744,347.01009804599744,347.01009804599744,347.01009804599744,347.01009804599744,347.01009804599744,347.01009804599744,347.01009804599744,l,1.6837650040106382,1,376,1,348.71194631599064,350.2136338919954,,,,,,,,,,,,,,,,,,,,,,,,,,,,,,,,,,,,,,,,,,,,,,,,,,,,,,,,,,,,,,,,,,,,40705,2022-10-28_09h09.04.353,vts_reward_expectancy_bt_OFFLINE,2022.2.4,59.9464135417548,
0,0,0,1,0,0,1,0,star,hexagon,1,0,1,0,1,10,22,11,,,,,,,,,,,,,,,,,,,,,,,,,,,,,,,,,,,,,,,,350.7143033639877,350.7143033639877,350.7143033639877,350.7143033639877,350.7143033639877,350.7143033639877,350.7143033639877,350.7143033639877,350.7143033639877,350.7143033639877,a,0.8265476640081033,1,377,1,351.56507605199295,353.06682601899956,,,,,,,,,,,,,,,,,,,,,,,,,,,,,,,,,,,,,,,,,,,,,,,,,,,,,,,,,,,,,,,,,,,,40705,2022-10-28_09h09.04.353,vts_reward_expectancy_bt_OFFLINE,2022.2.4,59.9464135417548,
0,0,0,1,1,0,0,0,star,triangle,1,0,1,0,1,11,23,9,,,,,,,,,,,,,,,,,,,,,,,,,,,,,,,,,,,,,,,,353.5673029729951,353.5673029729951,353.5673029729951,353.5673029729951,353.5673029729951,353.5673029729951,353.5673029729951,353.5673029729951,353.5673029729951,353.5673029729951,a,1.0372707840142539,10,387,1,354.6352228659962,356.13683103099174,,,,,,,,,,,,,,,,,,,,,,,,,,,,,,,,,,,,,,,,,,,,,,,,,,,,,,,,,,,,,,,,,,,,40705,2022-10-28_09h09.04.353,vts_reward_expectancy_bt_OFFLINE,2022.2.4,59.9464135417548,
1,0,0,0,0,0,1,0,triangle,hexagon,1,0,1,0,2,0,24,1,,,,,,,,,,,,,,,,,,,,,,,,,,,,,,,,,,,,,,,,356.63733334699646,356.63733334699646,356.63733334699646,356.63733334699646,356.63733334699646,356.63733334699646,356.63733334699646,356.63733334699646,356.63733334699646,356.63733334699646,a,1.080115407006815,1,388,1,357.7387314259977,359.2403313729883,,,,,,,,,,,,,,,,,,,,,,,,,,,,,,,,,,,,,,,,,,,,,,,,,,,,,,,,,,,,,,,,,,,,40705,2022-10-28_09h09.04.353,vts_reward_expectancy_bt_OFFLINE,2022.2.4,59.9464135417548,
1,0,0,0,0,1,0,0,triangle,circle,1,0,1,0,2,1,25,0,,,,,,,,,,,,,,,,,,,,,,,,,,,,,,,,,,,,,,,,359.74087443499593,359.74087443499593,359.74087443499593,359.74087443499593,359.74087443499593,359.74087443499593,359.74087443499593,359.74087443499593,359.74087443499593,359.74087443499593,a,0.7850973870081361,1,389,1,360.5585308180016,362.06012999798986,,,,,,,,,,,,,,,,,,,,,,,,,,,,,,,,,,,,,,,,,,,,,,,,,,,,,,,,,,,,,,,,,,,,40705,2022-10-28_09h09.04.353,vts_reward_expectancy_bt_OFFLINE,2022.2.4,59.9464135417548,
0,0,0,1,1,0,0,0,star,triangle,1,0,1,0,2,2,26,9,,,,,,,,,,,,,,,,,,,,,,,,,,,,,,,,,,,,,,,,362.5606364689884,362.5606364689884,362.5606364689884,362.5606364689884,362.5606364689884,362.5606364689884,362.5606364689884,362.5606364689884,362.5606364689884,362.5606364689884,a,0.7576262550137471,1,390,1,363.3447883549961,364.8464684509963,364.8464684509963,,,,,,,,,,,,,,,,,,,,,,,,,,,,,,,,,,,,,,,,,,,,,,,,,,,,,,,,,,,,,,,,,,,40705,2022-10-28_09h09.04.353,vts_reward_expectancy_bt_OFFLINE,2022.2.4,59.9464135417548,
0,1,0,0,0,0,1,0,circle,hexagon,1,0,1,0,2,3,27,4,,,,,,,,,,,,,,,,,,,,,,,,,,,,,,,,,,,,,,,,365.34702216899313,365.34702216899313,365.34702216899313,365.34702216899313,365.34702216899313,365.34702216899313,365.34702216899313,365.34702216899313,365.34702216899313,365.34702216899313,l,1.001992246019654,1,391,1,366.3816708339873,367.8832108439965,,,,,,,,,,,,,,,,,,,,,,,,,,,,,,,,,,,,,,,,,,,,,,,,,,,,,,,,,,,,,,,,,,,,40705,2022-10-28_09h09.04.353,vts_reward_expectancy_bt_OFFLINE,2022.2.4,59.9464135417548,
0,0,1,0,0,1,0,0,hexagon,circle,1,0,1,0,2,4,28,7,,,,,,,,,,,,,,,,,,,,,,,,,,,,,,,,,,,,,,,,368.3837418729963,368.3837418729963,368.3837418729963,368.3837418729963,368.3837418729963,368.3837418729963,368.3837418729963,368.3837418729963,368.3837418729963,368.3837418729963,l,1.1248843409994151,1,392,1,369.5351694839919,371.03669928999443,,,,,,,,,,,,,,,,,,,,,,,,,,,,,,,,,,,,,,,,,,,,,,,,,,,,,,,,,,,,,,,,,,,,40705,2022-10-28_09h09.04.353,vts_reward_expectancy_bt_OFFLINE,2022.2.4,59.9464135417548,
0,0,0,1,0,1,0,0,star ,circle,1,0,1,0,2,5,29,10,,,,,,,,,,,,,,,,,,,,,,,,,,,,,,,,,,,,,,,,371.5373867099988,371.5373867099988,371.5373867099988,371.5373867099988,371.5373867099988,371.5373867099988,371.5373867099988,371.5373867099988,371.5373867099988,371.5373867099988,a,0.6194967450137483,1,393,1,372.1879461089993,373.6895141829882,,,,,,,,,,,,,,,,,,,,,,,,,,,,,,,,,,,,,,,,,,,,,,,,,,,,,,,,,,,,,,,,,,,,40705,2022-10-28_09h09.04.353,vts_reward_expectancy_bt_OFFLINE,2022.2.4,59.9464135417548,
0,0,0,1,0,0,1,0,star,hexagon,1,0,1,0,2,6,30,11,,,,,,,,,,,,,,,,,,,,,,,,,,,,,,,,,,,,,,,,374.1902343529946,374.1902343529946,374.1902343529946,374.1902343529946,374.1902343529946,374.1902343529946,374.1902343529946,374.1902343529946,374.1902343529946,374.1902343529946,a,0.4322890420007752,10,403,1,374.6406912319944,376.14231276999635,,,,,,,,,,,,,,,,,,,,,,,,,,,,,,,,,,,,,,,,,,,,,,,,,,,,,,,,,,,,,,,,,,,,40705,2022-10-28_09h09.04.353,vts_reward_expectancy_bt_OFFLINE,2022.2.4,59.9464135417548,
0,0,1,0,0,0,0,1,hexagon,star,1,0,1,0,2,7,31,8,,,,,,,,,,,,,,,,,,,,,,,,,,,,,,,,,,,,,,,,376.6428421460005,376.6428421460005,376.6428421460005,376.6428421460005,376.6428421460005,376.6428421460005,376.6428421460005,376.6428421460005,376.6428421460005,376.6428421460005,l,0.9943113880144665,10,413,1,377.6608460169955,379.1623353210016,,,,,,,,,,,,,,,,,,,,,,,,,,,,,,,,,,,,,,,,,,,,,,,,,,,,,,,,,,,,,,,,,,,,40705,2022-10-28_09h09.04.353,vts_reward_expectancy_bt_OFFLINE,2022.2.4,59.9464135417548,
0,1,0,0,0,0,0,1,circle,star,1,0,1,0,2,8,32,5,,,,,,,,,,,,,,,,,,,,,,,,,,,,,,,,,,,,,,,,379.662997980995,379.662997980995,379.662997980995,379.662997980995,379.662997980995,379.662997980995,379.662997980995,379.662997980995,379.662997980995,379.662997980995,l,0.6386907429987332,10,423,1,380.3302458690014,381.8320248349919,,,,,,,,,,,,,,,,,,,,,,,,,,,,,,,,,,,,,,,,,,,,,,,,,,,,,,,,,,,,,,,,,,,,40705,2022-10-28_09h09.04.353,vts_reward_expectancy_bt_OFFLINE,2022.2.4,59.9464135417548,
0,1,0,0,1,0,0,0,circle,triangle,1,0,1,0,2,9,33,3,,,,,,,,,,,,,,,,,,,,,,,,,,,,,,,,,,,,,,,,382.3325147949945,382.3325147949945,382.3325147949945,382.3325147949945,382.3325147949945,382.3325147949945,382.3325147949945,382.3325147949945,382.3325147949945,382.3325147949945,a,2.3761054210190196,1,424,1,384.7351948089927,386.236917917995,,,,,,,,,,,,,,,,,,,,,,,,,,,,,,,,,,,,,,,,,,,,,,,,,,,,,,,,,,,,,,,,,,,,40705,2022-10-28_09h09.04.353,vts_reward_expectancy_bt_OFFLINE,2022.2.4,59.9464135417548,
1,0,0,0,0,0,0,1,triangle,star,1,0,1,0,2,10,34,2,,,,,,,,,,,,,,,,,,,,,,,,,,,,,,,,,,,,,,,,386.73743899299006,386.73743899299006,386.73743899299006,386.73743899299006,386.73743899299006,386.73743899299006,386.73743899299006,386.73743899299006,386.73743899299006,386.73743899299006,l,1.3082970910036238,10,434,1,388.07219154099585,389.57383778700023,,,,,,,,,,,,,,,,,,,,,,,,,,,,,,,,,,,,,,,,,,,,,,,,,,,,,,,,,,,,,,,,,,,,40705,2022-10-28_09h09.04.353,vts_reward_expectancy_bt_OFFLINE,2022.2.4,59.9464135417548,
0,0,1,0,1,0,0,0,hexagon,triangle,1,0,1,0,2,11,35,6,,,,,,,,,,,,,,,,,,,,,,,,,,,,,,,,,,,,,,,,390.07446946098935,390.07446946098935,390.07446946098935,390.07446946098935,390.07446946098935,390.07446946098935,390.07446946098935,390.07446946098935,390.07446946098935,390.07446946098935,a,1.6581987070094328,1,435,1,391.7596760049928,393.26111739399494,,,,,,,,,,,,,,,,,,,,,,,,,,,,,,,,,,,,,,,,,,,,,,,,,,,,,,,,,,,,,,,,,,,,40705,2022-10-28_09h09.04.353,vts_reward_expectancy_bt_OFFLINE,2022.2.4,59.9464135417548,
1,0,0,0,0,1,0,0,triangle,circle,1,0,1,0,3,0,36,0,,,,,,,,,,,,,,,,,,,,,,,,,,,,,,,,,,,,,,,,393.76186299999245,393.76186299999245,393.76186299999245,393.76186299999245,393.76186299999245,393.76186299999245,393.76186299999245,393.76186299999245,393.76186299999245,393.76186299999245,a,1.4839664110186277,10,445,1,395.2635172809969,396.764935004001,,,,,,,,,,,,,,,,,,,,,,,,,,,,,,,,,,,,,,,,,,,,,,,,,,,,,,,,,,,,,,,,,,,,40705,2022-10-28_09h09.04.353,vts_reward_expectancy_bt_OFFLINE,2022.2.4,59.9464135417548,
0,1,0,0,0,0,0,1,circle,star,1,0,1,0,3,1,37,5,,,,,,,,,,,,,,,,,,,,,,,,,,,,,,,,,,,,,,,,397.26571328699356,397.26571328699356,397.26571328699356,397.26571328699356,397.26571328699356,397.26571328699356,397.26571328699356,397.26571328699356,397.26571328699356,397.26571328699356,l,1.0271283880138071,10,455,1,398.31689274498785,399.8185401669907,,,,,,,,,,,,,,,,,,,,,,,,,,,,,,,,,,,,,,,,,,,,,,,,,,,,,,,,,,,,,,,,,,,,40705,2022-10-28_09h09.04.353,vts_reward_expectancy_bt_OFFLINE,2022.2.4,59.9464135417548,
0,0,1,0,0,0,0,1,hexagon,star,1,0,1,0,3,2,38,8,,,,,,,,,,,,,,,,,,,,,,,,,,,,,,,,,,,,,,,,400.31902754399925,400.31902754399925,400.31902754399925,400.31902754399925,400.31902754399925,400.31902754399925,400.31902754399925,400.31902754399925,400.31902754399925,400.31902754399925,l,1.4542170550121227,10,465,1,401.8040696429962,403.3056850229914,,,,,,,,,,,,,,,,,,,,,,,,,,,,,,,,,,,,,,,,,,,,,,,,,,,,,,,,,,,,,,,,,,,,40705,2022-10-28_09h09.04.353,vts_reward_expectancy_bt_OFFLINE,2022.2.4,59.9464135417548,
0,1,0,0,1,0,0,0,circle,triangle,1,0,1,0,3,3,39,3,,,,,,,,,,,,,,,,,,,,,,,,,,,,,,,,,,,,,,,,403.80615583699546,403.80615583699546,403.80615583699546,403.80615583699546,403.80615583699546,403.80615583699546,403.80615583699546,403.80615583699546,403.80615583699546,403.80615583699546,l,1.9112538310146192,10,475,1,405.7417501949967,407.2435232009884,,,,,,,,,,,,,,,,,,,,,,,,,,,,,,,,,,,,,,,,,,,,,,,,,,,,,,,,,,,,,,,,,,,,40705,2022-10-28_09h09.04.353,vts_reward_expectancy_bt_OFFLINE,2022.2.4,59.9464135417548,
1,0,0,0,0,0,0,1,triangle,star,1,0,1,0,3,4,40,2,,,,,,,,,,,,,,,,,,,,,,,,,,,,,,,,,,,,,,,,407.7440039909998,407.7440039909998,407.7440039909998,407.7440039909998,407.7440039909998,407.7440039909998,407.7440039909998,407.7440039909998,407.7440039909998,407.7440039909998,l,3.5564684760029195,10,485,1,411.33124705699447,412.8327570269903,,,,,,,,,,,,,,,,,,,,,,,,,,,,,,,,,,,,,,,,,,,,,,,,,,,,,,,,,,,,,,,,,,,,40705,2022-10-28_09h09.04.353,vts_reward_expectancy_bt_OFFLINE,2022.2.4,59.9464135417548,
0,0,0,1,1,0,0,0,star,triangle,1,0,1,0,3,5,41,9,,,,,,,,,,,,,,,,,,,,,,,,,,,,,,,,,,,,,,,,413.33327518698934,413.33327518698934,413.33327518698934,413.33327518698934,413.33327518698934,413.33327518698934,413.33327518698934,413.33327518698934,413.33327518698934,413.33327518698934,l,2.343772564010578,10,495,1,415.7026142949908,417.2042682829924,,,,,,,,,,,,,,,,,,,,,,,,,,,,,,,,,,,,,,,,,,,,,,,,,,,,,,,,,,,,,,,,,,,,40705,2022-10-28_09h09.04.353,vts_reward_expectancy_bt_OFFLINE,2022.2.4,59.9464135417548,
0,0,1,0,1,0,0,0,hexagon,triangle,1,0,1,0,3,6,42,6,,,,,,,,,,,,,,,,,,,,,,,,,,,,,,,,,,,,,,,,417.70486903499113,417.70486903499113,417.70486903499113,417.70486903499113,417.70486903499113,417.70486903499113,417.70486903499113,417.70486903499113,417.70486903499113,417.70486903499113,a,1.7254428440064657,1,496,1,419.4568958519958,420.95846459399036,,,,,,,,,,,,,,,,,,,,,,,,,,,,,,,,,,,,,,,,,,,,,,,,,,,,,,,,,,,,,,,,,,,,40705,2022-10-28_09h09.04.353,vts_reward_expectancy_bt_OFFLINE,2022.2.4,59.9464135417548,
0,0,0,1,0,0,1,0,star,hexagon,1,0,1,0,3,7,43,11,,,,,,,,,,,,,,,,,,,,,,,,,,,,,,,,,,,,,,,,421.4590166119888,421.4590166119888,421.4590166119888,421.4590166119888,421.4590166119888,421.4590166119888,421.4590166119888,421.4590166119888,421.4590166119888,421.4590166119888,a,0.9938100510044023,1,497,1,422.4767315809877,423.9782747329882,,,,,,,,,,,,,,,,,,,,,,,,,,,,,,,,,,,,,,,,,,,,,,,,,,,,,,,,,,,,,,,,,,,,40705,2022-10-28_09h09.04.353,vts_reward_expectancy_bt_OFFLINE,2022.2.4,59.9464135417548,
0,0,0,1,0,1,0,0,star ,circle,1,0,1,0,3,8,44,10,,,,,,,,,,,,,,,,,,,,,,,,,,,,,,,,,,,,,,,,424.4789305969898,424.4789305969898,424.4789305969898,424.4789305969898,424.4789305969898,424.4789305969898,424.4789305969898,424.4789305969898,424.4789305969898,424.4789305969898,l,0.9907919360121014,10,507,1,425.4967742729932,426.99836645499454,,,,,,,,,,,,,,,,,,,,,,,,,,,,,,,,,,,,,,,,,,,,,,,,,,,,,,,,,,,,,,,,,,,,40705,2022-10-28_09h09.04.353,vts_reward_expectancy_bt_OFFLINE,2022.2.4,59.9464135417548,
0,0,1,0,0,1,0,0,hexagon,circle,1,0,1,0,3,9,45,7,,,,,,,,,,,,,,,,,,,,,,,,,,,,,,,,,,,,,,,,427.4989419509948,427.4989419509948,427.4989419509948,427.4989419509948,427.4989419509948,427.4989419509948,427.4989419509948,427.4989419509948,427.4989419509948,427.4989419509948,l,0.6828060000116238,1,508,1,428.19973795198894,429.70161639399885,,,,,,,,,,,,,,,,,,,,,,,,,,,,,,,,,,,,,,,,,,,,,,,,,,,,,,,,,,,,,,,,,,,,40705,2022-10-28_09h09.04.353,vts_reward_expectancy_bt_OFFLINE,2022.2.4,59.9464135417548,
0,1,0,0,0,0,1,0,circle,hexagon,1,0,1,0,3,10,46,4,,,,,,,,,,,,,,,,,,,,,,,,,,,,,,,,,,,,,,,,430.2019722529949,430.2019722529949,430.2019722529949,430.2019722529949,430.2019722529949,430.2019722529949,430.2019722529949,430.2019722529949,430.2019722529949,430.2019722529949,a,0.994857668018085,1,509,1,431.21973500499735,432.7214708239917,,,,,,,,,,,,,,,,,,,,,,,,,,,,,,,,,,,,,,,,,,,,,,,,,,,,,,,,,,,,,,,,,,,,40705,2022-10-28_09h09.04.353,vts_reward_expectancy_bt_OFFLINE,2022.2.4,59.9464135417548,
1,0,0,0,0,0,1,0,triangle,hexagon,1,0,1,0,3,11,47,1,,,,,,,,,,,,,,,,,,,,,,,,,,,,,,,,,,,,,,,,433.2220930869953,433.2220930869953,433.2220930869953,433.2220930869953,433.2220930869953,433.2220930869953,433.2220930869953,433.2220930869953,433.2220930869953,433.2220930869953,a,0.9674094290094217,10,519,1,434.20643172599375,435.70806258599623,,,,,,,,,,,,,,,,,,,,,,,,,,,,,,,,,,,,,,,,,,,,,,,,,,,,,,,,,,,,,,,,,,,,40705,2022-10-28_09h09.04.353,vts_reward_expectancy_bt_OFFLINE,2022.2.4,59.9464135417548,
0,0,0,1,0,1,0,0,star ,circle,2,0,2,0,0,0,0,10,,,,,,,,,,,,,,,,,,,,,,,,,,,,,,,,,,,,,,,,439.7864699099882,439.7864699099882,439.7864699099882,439.7864699099882,439.7864699099882,439.7864699099882,439.7864699099882,439.7864699099882,439.7864699099882,439.7864699099882,a,1.0511163480114192,10,529,2,440.86368065999704,442.36539802399056,,,,,,,,,,,,,,,,,,,,,,,,,,,,,,,,,,,,,,,,,,,,,,,,,,,,,,,,,,,,,,,,,,,,40705,2022-10-28_09h09.04.353,vts_reward_expectancy_bt_OFFLINE,2022.2.4,59.9464135417548,
0,0,1,0,0,1,0,0,hexagon,circle,2,0,2,0,0,1,1,7,,,,,,,,,,,,,,,,,,,,,,,,,,,,,,,,,,,,,,,,442.8658578429895,442.8658578429895,442.8658578429895,442.8658578429895,442.8658578429895,442.8658578429895,442.8658578429895,442.8658578429895,442.8658578429895,442.8658578429895,l,1.3473241140018217,1,530,2,444.23417562799295,445.7356896720012,,,,,,,,,,,,,,,,,,,,,,,,,,,,,,,,,,,,,,,,,,,,,,,,,,,,,,,,,,,,,,,,,,,,40705,2022-10-28_09h09.04.353,vts_reward_expectancy_bt_OFFLINE,2022.2.4,59.9464135417548,
1,0,0,0,0,1,0,0,triangle,circle,2,0,2,0,0,2,2,0,,,,,,,,,,,,,,,,,,,,,,,,,,,,,,,,,,,,,,,,446.2364692879928,446.2364692879928,446.2364692879928,446.2364692879928,446.2364692879928,446.2364692879928,446.2364692879928,446.2364692879928,446.2364692879928,446.2364692879928,a,0.9129615700076101,10,540,2,447.17073655099375,448.6722897889995,,,,,,,,,,,,,,,,,,,,,,,,,,,,,,,,,,,,,,,,,,,,,,,,,,,,,,,,,,,,,,,,,,,,40705,2022-10-28_09h09.04.353,vts_reward_expectancy_bt_OFFLINE,2022.2.4,59.9464135417548,
0,1,0,0,0,0,0,1,circle,star,2,0,2,0,0,3,3,5,,,,,,,,,,,,,,,,,,,,,,,,,,,,,,,,,,,,,,,,449.17296423899825,449.17296423899825,449.17296423899825,449.17296423899825,449.17296423899825,449.17296423899825,449.17296423899825,449.17296423899825,449.17296423899825,449.17296423899825,l,1.033108257004642,10,550,2,450.2242024409934,451.7256919539941,,,,,,,,,,,,,,,,,,,,,,,,,,,,,,,,,,,,,,,,,,,,,,,,,,,,,,,,,,,,,,,,,,,,40705,2022-10-28_09h09.04.353,vts_reward_expectancy_bt_OFFLINE,2022.2.4,59.9464135417548,
1,0,0,0,0,0,0,1,triangle,star,2,0,2,0,0,4,4,2,,,,,,,,,,,,,,,,,,,,,,,,,,,,,,,,,,,,,,,,452.22633886100084,452.22633886100084,452.22633886100084,452.22633886100084,452.22633886100084,452.22633886100084,452.22633886100084,452.22633886100084,452.22633886100084,452.22633886100084,l,0.4999145770125324,10,560,2,452.74355919400114,454.2450877730007,,,,,,,,,,,,,,,,,,,,,,,,,,,,,,,,,,,,,,,,,,,,,,,,,,,,,,,,,,,,,,,,,,,,40705,2022-10-28_09h09.04.353,vts_reward_expectancy_bt_OFFLINE,2022.2.4,59.9464135417548,
0,0,0,1,0,0,1,0,star,hexagon,2,0,2,0,0,5,5,11,,,,,,,,,,,,,,,,,,,,,,,,,,,,,,,,,,,,,,,,454.7456733859872,454.7456733859872,454.7456733859872,454.7456733859872,454.7456733859872,454.7456733859872,454.7456733859872,454.7456733859872,454.7456733859872,454.7456733859872,a,2.2682401580241276,1,561,2,457.0316506659874,458.5333590480004,,,,,,,,,,,,,,,,,,,,,,,,,,,,,,,,,,,,,,,,,,,,,,,,,,,,,,,,,,,,,,,,,,,,40705,2022-10-28_09h09.04.353,vts_reward_expectancy_bt_OFFLINE,2022.2.4,59.9464135417548,
0,1,0,0,1,0,0,0,circle,triangle,2,0,2,0,0,6,6,3,,,,,,,,,,,,,,,,,,,,,,,,,,,,,,,,,,,,,,,,459.0339353219897,459.0339353219897,459.0339353219897,459.0339353219897,459.0339353219897,459.0339353219897,459.0339353219897,459.0339353219897,459.0339353219897,459.0339353219897,a,0.33195545501075685,1,562,2,459.3843484639947,460.88578751299065,,,,,,,,,,,,,,,,,,,,,,,,,,,,,,,,,,,,,,,,,,,,,,,,,,,,,,,,,,,,,,,,,,,,40705,2022-10-28_09h09.04.353,vts_reward_expectancy_bt_OFFLINE,2022.2.4,59.9464135417548,
0,0,1,0,1,0,0,0,hexagon,triangle,2,0,2,0,0,7,7,6,,,,,,,,,,,,,,,,,,,,,,,,,,,,,,,,,,,,,,,,461.3864875339932,461.3864875339932,461.3864875339932,461.3864875339932,461.3864875339932,461.3864875339932,461.3864875339932,461.3864875339932,461.3864875339932,461.3864875339932,l,0.7078797370195389,10,572,2,462.1206390849984,463.6222494419926,,,,,,,,,,,,,,,,,,,,,,,,,,,,,,,,,,,,,,,,,,,,,,,,,,,,,,,,,,,,,,,,,,,,40705,2022-10-28_09h09.04.353,vts_reward_expectancy_bt_OFFLINE,2022.2.4,59.9464135417548,
0,0,0,1,1,0,0,0,star,triangle,2,0,2,0,0,8,8,9,,,,,,,,,,,,,,,,,,,,,,,,,,,,,,,,,,,,,,,,464.12284209398786,464.12284209398786,464.12284209398786,464.12284209398786,464.12284209398786,464.12284209398786,464.12284209398786,464.12284209398786,464.12284209398786,464.12284209398786,l,1.5460504560178379,10,582,2,465.6910495819902,467.19293314199604,,,,,,,,,,,,,,,,,,,,,,,,,,,,,,,,,,,,,,,,,,,,,,,,,,,,,,,,,,,,,,,,,,,,40705,2022-10-28_09h09.04.353,vts_reward_expectancy_bt_OFFLINE,2022.2.4,59.9464135417548,
1,0,0,0,0,0,1,0,triangle,hexagon,2,0,2,0,0,9,9,1,,,,,,,,,,,,,,,,,,,,,,,,,,,,,,,,,,,,,,,,467.69347692899464,467.69347692899464,467.69347692899464,467.69347692899464,467.69347692899464,467.69347692899464,467.69347692899464,467.69347692899464,467.69347692899464,467.69347692899464,l,1.4953510290069971,1,583,2,469.2117963359924,470.7133239639952,,,,,,,,,,,,,,,,,,,,,,,,,,,,,,,,,,,,,,,,,,,,,,,,,,,,,,,,,,,,,,,,,,,,40705,2022-10-28_09h09.04.353,vts_reward_expectancy_bt_OFFLINE,2022.2.4,59.9464135417548,
0,0,1,0,0,0,0,1,hexagon,star,2,0,2,0,0,10,10,8,,,,,,,,,,,,,,,,,,,,,,,,,,,,,,,,,,,,,,,,471.2138742440002,471.2138742440002,471.2138742440002,471.2138742440002,471.2138742440002,471.2138742440002,471.2138742440002,471.2138742440002,471.2138742440002,471.2138742440002,a,1.047658058014349,1,584,2,472.2816527190007,473.7834156639874,,,,,,,,,,,,,,,,,,,,,,,,,,,,,,,,,,,,,,,,,,,,,,,,,,,,,,,,,,,,,,,,,,,,40705,2022-10-28_09h09.04.353,vts_reward_expectancy_bt_OFFLINE,2022.2.4,59.9464135417548,
0,1,0,0,0,0,1,0,circle,hexagon,2,0,2,0,0,11,11,4,,,,,,,,,,,,,,,,,,,,,,,,,,,,,,,,,,,,,,,,474.2840464389883,474.2840464389883,474.2840464389883,474.2840464389883,474.2840464389883,474.2840464389883,474.2840464389883,474.2840464389883,474.2840464389883,474.2840464389883,a,0.913842025998747,1,585,2,475.21826403700106,476.7199289689888,,,,,,,,,,,,,,,,,,,,,,,,,,,,,,,,,,,,,,,,,,,,,,,,,,,,,,,,,,,,,,,,,,,,40705,2022-10-28_09h09.04.353,vts_reward_expectancy_bt_OFFLINE,2022.2.4,59.9464135417548,
0,1,0,0,0,0,0,1,circle,star,2,0,2,0,1,0,12,5,,,,,,,,,,,,,,,,,,,,,,,,,,,,,,,,,,,,,,,,477.2204747200012,477.2204747200012,477.2204747200012,477.2204747200012,477.2204747200012,477.2204747200012,477.2204747200012,477.2204747200012,477.2204747200012,477.2204747200012,l,0.3765520980086876,10,595,2,477.62095609499374,479.1227636919939,,,,,,,,,,,,,,,,,,,,,,,,,,,,,,,,,,,,,,,,,,,,,,,,,,,,,,,,,,,,,,,,,,,,40705,2022-10-28_09h09.04.353,vts_reward_expectancy_bt_OFFLINE,2022.2.4,59.9464135417548,
1,0,0,0,0,0,0,1,triangle,star,2,0,2,0,1,1,13,2,,,,,,,,,,,,,,,,,,,,,,,,,,,,,,,,,,,,,,,,479.6233204109885,479.6233204109885,479.6233204109885,479.6233204109885,479.6233204109885,479.6233204109885,479.6233204109885,479.6233204109885,479.6233204109885,479.6233204109885,l,0.6460758630128112,10,605,2,480.2906754259893,481.7921241619915,,,,,,,,,,,,,,,,,,,,,,,,,,,,,,,,,,,,,,,,,,,,,,,,,,,,,,,,,,,,,,,,,,,,40705,2022-10-28_09h09.04.353,vts_reward_expectancy_bt_OFFLINE,2022.2.4,59.9464135417548,
0,0,0,1,0,1,0,0,star ,circle,2,0,2,0,1,2,14,10,,,,,,,,,,,,,,,,,,,,,,,,,,,,,,,,,,,,,,,,482.2929350889899,482.2929350889899,482.2929350889899,482.2929350889899,482.2929350889899,482.2929350889899,482.2929350889899,482.2929350889899,482.2929350889899,482.2929350889899,a,2.3118499470001552,10,615,2,484.62865922099445,486.13027989798866,,,,,,,,,,,,,,,,,,,,,,,,,,,,,,,,,,,,,,,,,,,,,,,,,,,,,,,,,,,,,,,,,,,,40705,2022-10-28_09h09.04.353,vts_reward_expectancy_bt_OFFLINE,2022.2.4,59.9464135417548,
0,0,0,1,1,0,0,0,star,triangle,2,0,2,0,1,3,15,9,,,,,,,,,,,,,,,,,,,,,,,,,,,,,,,,,,,,,,,,486.63084547298786,486.63084547298786,486.63084547298786,486.63084547298786,486.63084547298786,486.63084547298786,486.63084547298786,486.63084547298786,486.63084547298786,486.63084547298786,l,1.094038854003884,10,625,2,487.74858880299143,489.2505120749993,,,,,,,,,,,,,,,,,,,,,,,,,,,,,,,,,,,,,,,,,,,,,,,,,,,,,,,,,,,,,,,,,,,,40705,2022-10-28_09h09.04.353,vts_reward_expectancy_bt_OFFLINE,2022.2.4,59.9464135417548,
0,0,1,0,0,1,0,0,hexagon,circle,2,0,2,0,1,4,16,7,,,,,,,,,,,,,,,,,,,,,,,,,,,,,,,,,,,,,,,,489.7512555639987,489.7512555639987,489.7512555639987,489.7512555639987,489.7512555639987,489.7512555639987,489.7512555639987,489.7512555639987,489.7512555639987,489.7512555639987,a,3.4296109120186884,1,626,2,493.2046893279912,494.7063891059952,,,,,,,,,,,,,,,,,,,,,,,,,,,,,,,,,,,,,,,,,,,,,,,,,,,,,,,,,,,,,,,,,,,,40705,2022-10-28_09h09.04.353,vts_reward_expectancy_bt_OFFLINE,2022.2.4,59.9464135417548,
0,1,0,0,1,0,0,0,circle,triangle,2,0,2,0,1,5,17,3,,,,,,,,,,,,,,,,,,,,,,,,,,,,,,,,,,,,,,,,495.206879172998,495.206879172998,495.206879172998,495.206879172998,495.206879172998,495.206879172998,495.206879172998,495.206879172998,495.206879172998,495.206879172998,l,0.8627635990123963,1,627,2,496.0911886899994,497.5930757210008,,,,,,,,,,,,,,,,,,,,,,,,,,,,,,,,,,,,,,,,,,,,,,,,,,,,,,,,,,,,,,,,,,,,40705,2022-10-28_09h09.04.353,vts_reward_expectancy_bt_OFFLINE,2022.2.4,59.9464135417548,
0,1,0,0,0,0,1,0,circle,hexagon,2,0,2,0,1,6,18,4,,,,,,,,,,,,,,,,,,,,,,,,,,,,,,,,,,,,,,,,498.09359195698926,498.09359195698926,498.09359195698926,498.09359195698926,498.09359195698926,498.09359195698926,498.09359195698926,498.09359195698926,498.09359195698926,498.09359195698926,a,3.3360482200077968,10,637,2,501.447274524995,502.9488632579887,,,,,,,,,,,,,,,,,,,,,,,,,,,,,,,,,,,,,,,,,,,,,,,,,,,,,,,,,,,,,,,,,,,,40705,2022-10-28_09h09.04.353,vts_reward_expectancy_bt_OFFLINE,2022.2.4,59.9464135417548,
0,0,1,0,1,0,0,0,hexagon,triangle,2,0,2,0,1,7,19,6,,,,,,,,,,,,,,,,,,,,,,,,,,,,,,,,,,,,,,,,503.4495337839908,503.4495337839908,503.4495337839908,503.4495337839908,503.4495337839908,503.4495337839908,503.4495337839908,503.4495337839908,503.4495337839908,503.4495337839908,a,2.3080764710030053,1,638,2,505.78529432999494,507.28703159900033,,,,,,,,,,,,,,,,,,,,,,,,,,,,,,,,,,,,,,,,,,,,,,,,,,,,,,,,,,,,,,,,,,,,40705,2022-10-28_09h09.04.353,vts_reward_expectancy_bt_OFFLINE,2022.2.4,59.9464135417548,
0,0,0,1,0,0,1,0,star,hexagon,2,0,2,0,1,8,20,11,,,,,,,,,,,,,,,,,,,,,,,,,,,,,,,,,,,,,,,,507.78756331600016,507.78756331600016,507.78756331600016,507.78756331600016,507.78756331600016,507.78756331600016,507.78756331600016,507.78756331600016,507.78756331600016,507.78756331600016,a,2.2091032360040117,10,648,2,510.02327014099865,511.5250997879921,,,,,,,,,,,,,,,,,,,,,,,,,,,,,,,,,,,,,,,,,,,,,,,,,,,,,,,,,,,,,,,,,,,,40705,2022-10-28_09h09.04.353,vts_reward_expectancy_bt_OFFLINE,2022.2.4,59.9464135417548,
1,0,0,0,0,0,1,0,triangle,hexagon,2,0,2,0,1,9,21,1,,,,,,,,,,,,,,,,,,,,,,,,,,,,,,,,,,,,,,,,512.0256631649972,512.0256631649972,512.0256631649972,512.0256631649972,512.0256631649972,512.0256631649972,512.0256631649972,512.0256631649972,512.0256631649972,512.0256631649972,a,1.5551081900193822,10,658,2,513.6106535459985,515.1123022079992,,,,,,,,,,,,,,,,,,,,,,,,,,,,,,,,,,,,,,,,,,,,,,,,,,,,,,,,,,,,,,,,,,,,40705,2022-10-28_09h09.04.353,vts_reward_expectancy_bt_OFFLINE,2022.2.4,59.9464135417548,
0,0,1,0,0,0,0,1,hexagon,star,2,0,2,0,1,10,22,8,,,,,,,,,,,,,,,,,,,,,,,,,,,,,,,,,,,,,,,,515.6128298679978,515.6128298679978,515.6128298679978,515.6128298679978,515.6128298679978,515.6128298679978,515.6128298679978,515.6128298679978,515.6128298679978,515.6128298679978,l,2.568689549007104,10,668,2,518.1988648269908,519.7006873770006,,,,,,,,,,,,,,,,,,,,,,,,,,,,,,,,,,,,,,,,,,,,,,,,,,,,,,,,,,,,,,,,,,,,40705,2022-10-28_09h09.04.353,vts_reward_expectancy_bt_OFFLINE,2022.2.4,59.9464135417548,
1,0,0,0,0,1,0,0,triangle,circle,2,0,2,0,1,11,23,0,,,,,,,,,,,,,,,,,,,,,,,,,,,,,,,,,,,,,,,,520.2011448369885,520.2011448369885,520.2011448369885,520.2011448369885,520.2011448369885,520.2011448369885,520.2011448369885,520.2011448369885,520.2011448369885,520.2011448369885,a,2.4761822010041215,1,669,2,522.7041203679983,524.2058692559949,,,,,,,,,,,,,,,,,,,,,,,,,,,,,,,,,,,,,,,,,,,,,,,,,,,,,,,,,,,,,,,,,,,,40705,2022-10-28_09h09.04.353,vts_reward_expectancy_bt_OFFLINE,2022.2.4,59.9464135417548,
0,0,0,1,0,0,1,0,star,hexagon,2,0,2,0,2,0,24,11,,,,,,,,,,,,,,,,,,,,,,,,,,,,,,,,,,,,,,,,524.7062600439967,524.7062600439967,524.7062600439967,524.7062600439967,524.7062600439967,524.7062600439967,524.7062600439967,524.7062600439967,524.7062600439967,524.7062600439967,a,0.7547188560129143,10,679,2,525.4905083949998,526.9920271390001,,,,,,,,,,,,,,,,,,,,,,,,,,,,,,,,,,,,,,,,,,,,,,,,,,,,,,,,,,,,,,,,,,,,40705,2022-10-28_09h09.04.353,vts_reward_expectancy_bt_OFFLINE,2022.2.4,59.9464135417548,
0,1,0,0,0,0,0,1,circle,star,2,0,2,0,2,1,25,5,,,,,,,,,,,,,,,,,,,,,,,,,,,,,,,,,,,,,,,,527.4924990649888,527.4924990649888,527.4924990649888,527.4924990649888,527.4924990649888,527.4924990649888,527.4924990649888,527.4924990649888,527.4924990649888,527.4924990649888,l,0.528323046019068,10,689,2,528.0430371469993,529.5449123059952,,,,,,,,,,,,,,,,,,,,,,,,,,,,,,,,,,,,,,,,,,,,,,,,,,,,,,,,,,,,,,,,,,,,40705,2022-10-28_09h09.04.353,vts_reward_expectancy_bt_OFFLINE,2022.2.4,59.9464135417548,
0,0,0,1,1,0,0,0,star,triangle,2,0,2,0,2,2,26,9,,,,,,,,,,,,,,,,,,,,,,,,,,,,,,,,,,,,,,,,530.0452763590001,530.0452763590001,530.0452763590001,530.0452763590001,530.0452763590001,530.0452763590001,530.0452763590001,530.0452763590001,530.0452763590001,530.0452763590001,l,1.2873711600113893,10,699,2,531.3634044789942,532.8652539559989,,,,,,,,,,,,,,,,,,,,,,,,,,,,,,,,,,,,,,,,,,,,,,,,,,,,,,,,,,,,,,,,,,,,40705,2022-10-28_09h09.04.353,vts_reward_expectancy_bt_OFFLINE,2022.2.4,59.9464135417548,
1,0,0,0,0,1,0,0,triangle,circle,2,0,2,0,2,3,27,0,,,,,,,,,,,,,,,,,,,,,,,,,,,,,,,,,,,,,,,,533.3656835619913,533.3656835619913,533.3656835619913,533.3656835619913,533.3656835619913,533.3656835619913,533.3656835619913,533.3656835619913,533.3656835619913,533.3656835619913,a,0.9114485600148328,10,709,2,534.3000393109978,535.8016646679898,,,,,,,,,,,,,,,,,,,,,,,,,,,,,,,,,,,,,,,,,,,,,,,,,,,,,,,,,,,,,,,,,,,,40705,2022-10-28_09h09.04.353,vts_reward_expectancy_bt_OFFLINE,2022.2.4,59.9464135417548,
0,1,0,0,1,0,0,0,circle,triangle,2,0,2,0,2,4,28,3,,,,,,,,,,,,,,,,,,,,,,,,,,,,,,,,,,,,,,,,536.3021836010012,536.3021836010012,536.3021836010012,536.3021836010012,536.3021836010012,536.3021836010012,536.3021836010012,536.3021836010012,536.3021836010012,536.3021836010012,l,3.591150695006945,1,710,2,539.9229824200011,541.4246133549896,,,,,,,,,,,,,,,,,,,,,,,,,,,,,,,,,,,,,,,,,,,,,,,,,,,,,,,,,,,,,,,,,,,,40705,2022-10-28_09h09.04.353,vts_reward_expectancy_bt_OFFLINE,2022.2.4,59.9464135417548,
0,0,1,0,1,0,0,0,hexagon,triangle,2,0,2,0,2,5,29,6,,,,,,,,,,,,,,,,,,,,,,,,,,,,,,,,,,,,,,,,541.9251580379932,541.9251580379932,541.9251580379932,541.9251580379932,541.9251580379932,541.9251580379932,541.9251580379932,541.9251580379932,541.9251580379932,541.9251580379932,l,2.864171804016223,10,720,2,544.8117501669913,546.3133404629916,,,,,,,,,,,,,,,,,,,,,,,,,,,,,,,,,,,,,,,,,,,,,,,,,,,,,,,,,,,,,,,,,,,,40705,2022-10-28_09h09.04.353,vts_reward_expectancy_bt_OFFLINE,2022.2.4,59.9464135417548,
0,0,1,0,0,1,0,0,hexagon,circle,2,0,2,0,2,6,30,7,,,,,,,,,,,,,,,,,,,,,,,,,,,,,,,,,,,,,,,,546.8137926269992,546.8137926269992,546.8137926269992,546.8137926269992,546.8137926269992,546.8137926269992,546.8137926269992,546.8137926269992,546.8137926269992,546.8137926269992,l,1.7919229000108317,1,721,2,548.6326884099981,550.134199002001,,,,,,,,,,,,,,,,,,,,,,,,,,,,,,,,,,,,,,,,,,,,,,,,,,,,,,,,,,,,,,,,,,,,40705,2022-10-28_09h09.04.353,vts_reward_expectancy_bt_OFFLINE,2022.2.4,59.9464135417548,
0,0,0,1,0,1,0,0,star ,circle,2,0,2,0,2,7,31,10,,,,,,,,,,,,,,,,,,,,,,,,,,,,,,,,,,,,,,,,550.6349491849978,550.6349491849978,550.6349491849978,550.6349491849978,550.6349491849978,550.6349491849978,550.6349491849978,550.6349491849978,550.6349491849978,550.6349491849978,a,1.4258627240051283,1,722,2,552.0865515049954,553.5880772439996,,,,,,,,,,,,,,,,,,,,,,,,,,,,,,,,,,,,,,,,,,,,,,,,,,,,,,,,,,,,,,,,,,,,40705,2022-10-28_09h09.04.353,vts_reward_expectancy_bt_OFFLINE,2022.2.4,59.9464135417548,
0,1,0,0,0,0,1,0,circle,hexagon,2,0,2,0,2,8,32,4,,,,,,,,,,,,,,,,,,,,,,,,,,,,,,,,,,,,,,,,554.0887404419918,554.0887404419918,554.0887404419918,554.0887404419918,554.0887404419918,554.0887404419918,554.0887404419918,554.0887404419918,554.0887404419918,554.0887404419918,l,3.220954818010796,1,723,2,557.342308139996,558.8440733379975,,,,,,,,,,,,,,,,,,,,,,,,,,,,,,,,,,,,,,,,,,,,,,,,,,,,,,,,,,,,,,,,,,,,40705,2022-10-28_09h09.04.353,vts_reward_expectancy_bt_OFFLINE,2022.2.4,59.9464135417548,
0,0,1,0,0,0,0,1,hexagon,star,2,0,2,0,2,9,33,8,,,,,,,,,,,,,,,,,,,,,,,,,,,,,,,,,,,,,,,,559.3443570409872,559.3443570409872,559.3443570409872,559.3443570409872,559.3443570409872,559.3443570409872,559.3443570409872,559.3443570409872,559.3443570409872,559.3443570409872,l,0.7817950100143207,10,733,2,560.1453915619932,561.6469951670006,,,,,,,,,,,,,,,,,,,,,,,,,,,,,,,,,,,,,,,,,,,,,,,,,,,,,,,,,,,,,,,,,,,,40705,2022-10-28_09h09.04.353,vts_reward_expectancy_bt_OFFLINE,2022.2.4,59.9464135417548,
1,0,0,0,0,0,0,1,triangle,star,2,0,2,0,2,10,34,2,,,,,,,,,,,,,,,,,,,,,,,,,,,,,,,,,,,,,,,,562.1476641599875,562.1476641599875,562.1476641599875,562.1476641599875,562.1476641599875,562.1476641599875,562.1476641599875,562.1476641599875,562.1476641599875,562.1476641599875,l,0.6582180030090967,10,743,2,562.8316718349961,564.3333056709962,,,,,,,,,,,,,,,,,,,,,,,,,,,,,,,,,,,,,,,,,,,,,,,,,,,,,,,,,,,,,,,,,,,,40705,2022-10-28_09h09.04.353,vts_reward_expectancy_bt_OFFLINE,2022.2.4,59.9464135417548,
1,0,0,0,0,0,1,0,triangle,hexagon,2,0,2,0,2,11,35,1,,,,,,,,,,,,,,,,,,,,,,,,,,,,,,,,,,,,,,,,564.8339545039926,564.8339545039926,564.8339545039926,564.8339545039926,564.8339545039926,564.8339545039926,564.8339545039926,564.8339545039926,564.8339545039926,564.8339545039926,a,1.7308328960061772,10,753,2,566.5857930729981,568.0874091180012,,,,,,,,,,,,,,,,,,,,,,,,,,,,,,,,,,,,,,,,,,,,,,,,,,,,,,,,,,,,,,,,,,,,40705,2022-10-28_09h09.04.353,vts_reward_expectancy_bt_OFFLINE,2022.2.4,59.9464135417548,
1,0,0,0,0,0,1,0,triangle,hexagon,2,0,2,0,3,0,36,1,,,,,,,,,,,,,,,,,,,,,,,,,,,,,,,,,,,,,,,,568.5879693179886,568.5879693179886,568.5879693179886,568.5879693179886,568.5879693179886,568.5879693179886,568.5879693179886,568.5879693179886,568.5879693179886,568.5879693179886,a,2.84153523601708,10,763,2,571.4577451919904,572.95948614199,,,,,,,,,,,,,,,,,,,,,,,,,,,,,,,,,,,,,,,,,,,,,,,,,,,,,,,,,,,,,,,,,,,,40705,2022-10-28_09h09.04.353,vts_reward_expectancy_bt_OFFLINE,2022.2.4,59.9464135417548,
1,0,0,0,0,0,0,1,triangle,star,2,0,2,0,3,1,37,2,,,,,,,,,,,,,,,,,,,,,,,,,,,,,,,,,,,,,,,,573.4599494989961,573.4599494989961,573.4599494989961,573.4599494989961,573.4599494989961,573.4599494989961,573.4599494989961,573.4599494989961,573.4599494989961,573.4599494989961,l,1.3056935900094686,10,773,2,574.7947787699959,576.2964357849996,,,,,,,,,,,,,,,,,,,,,,,,,,,,,,,,,,,,,,,,,,,,,,,,,,,,,,,,,,,,,,,,,,,,40705,2022-10-28_09h09.04.353,vts_reward_expectancy_bt_OFFLINE,2022.2.4,59.9464135417548,
0,1,0,0,0,0,0,1,circle,star,2,0,2,0,3,2,38,5,,,,,,,,,,,,,,,,,,,,,,,,,,,,,,,,,,,,,,,,576.7972210429871,576.7972210429871,576.7972210429871,576.7972210429871,576.7972210429871,576.7972210429871,576.7972210429871,576.7972210429871,576.7972210429871,576.7972210429871,l,0.7114122850034619,10,783,2,577.5311155149975,579.0330011100014,,,,,,,,,,,,,,,,,,,,,,,,,,,,,,,,,,,,,,,,,,,,,,,,,,,,,,,,,,,,,,,,,,,,40705,2022-10-28_09h09.04.353,vts_reward_expectancy_bt_OFFLINE,2022.2.4,59.9464135417548,
0,0,1,0,0,1,0,0,hexagon,circle,2,0,2,0,3,3,39,7,,,,,,,,,,,,,,,,,,,,,,,,,,,,,,,,,,,,,,,,579.5332935069891,579.5332935069891,579.5332935069891,579.5332935069891,579.5332935069891,579.5332935069891,579.5332935069891,579.5332935069891,579.5332935069891,579.5332935069891,l,2.6170154490246205,1,784,2,582.1696785769891,583.6712852810015,,,,,,,,,,,,,,,,,,,,,,,,,,,,,,,,,,,,,,,,,,,,,,,,,,,,,,,,,,,,,,,,,,,,40705,2022-10-28_09h09.04.353,vts_reward_expectancy_bt_OFFLINE,2022.2.4,59.9464135417548,
0,0,1,0,1,0,0,0,hexagon,triangle,2,0,2,0,3,4,40,6,,,,,,,,,,,,,,,,,,,,,,,,,,,,,,,,,,,,,,,,584.1718892539939,584.1718892539939,584.1718892539939,584.1718892539939,584.1718892539939,584.1718892539939,584.1718892539939,584.1718892539939,584.1718892539939,584.1718892539939,l,0.7213570800086018,1,785,2,584.9226718069986,586.4244256689999,,,,,,,,,,,,,,,,,,,,,,,,,,,,,,,,,,,,,,,,,,,,,,,,,,,,,,,,,,,,,,,,,,,,40705,2022-10-28_09h09.04.353,vts_reward_expectancy_bt_OFFLINE,2022.2.4,59.9464135417548,
0,1,0,0,1,0,0,0,circle,triangle,2,0,2,0,3,5,41,3,,,,,,,,,,,,,,,,,,,,,,,,,,,,,,,,,,,,,,,,586.9249560049939,586.9249560049939,586.9249560049939,586.9249560049939,586.9249560049939,586.9249560049939,586.9249560049939,586.9249560049939,586.9249560049939,586.9249560049939,l,1.2958381660137093,10,795,2,588.2429164709902,589.7446155270009,,,,,,,,,,,,,,,,,,,,,,,,,,,,,,,,,,,,,,,,,,,,,,,,,,,,,,,,,,,,,,,,,,,,40705,2022-10-28_09h09.04.353,vts_reward_expectancy_bt_OFFLINE,2022.2.4,59.9464135417548,
0,0,0,1,0,0,1,0,star,hexagon,2,0,2,0,3,6,42,11,,,,,,,,,,,,,,,,,,,,,,,,,,,,,,,,,,,,,,,,590.2453206349892,590.2453206349892,590.2453206349892,590.2453206349892,590.2453206349892,590.2453206349892,590.2453206349892,590.2453206349892,590.2453206349892,590.2453206349892,l,1.4250330610084347,10,805,2,591.7002839659981,593.2151610789879,,,,,,,,,,,,,,,,,,,,,,,,,,,,,,,,,,,,,,,,,,,,,,,,,,,,,,,,,,,,,,,,,,,,40705,2022-10-28_09h09.04.353,vts_reward_expectancy_bt_OFFLINE,2022.2.4,59.9464135417548,
0,0,1,0,0,0,0,1,hexagon,star,2,0,2,0,3,7,43,8,,,,,,,,,,,,,,,,,,,,,,,,,,,,,,,,,,,,,,,,593.7158183069987,593.7158183069987,593.7158183069987,593.7158183069987,593.7158183069987,593.7158183069987,593.7158183069987,593.7158183069987,593.7158183069987,593.7158183069987,a,2.642725313009578,1,806,2,596.3855010989937,597.8868848209968,,,,,,,,,,,,,,,,,,,,,,,,,,,,,,,,,,,,,,,,,,,,,,,,,,,,,,,,,,,,,,,,,,,,40705,2022-10-28_09h09.04.353,vts_reward_expectancy_bt_OFFLINE,2022.2.4,59.9464135417548,
0,1,0,0,0,0,1,0,circle,hexagon,2,0,2,0,3,8,44,4,,,,,,,,,,,,,,,,,,,,,,,,,,,,,,,,,,,,,,,,598.387565136989,598.387565136989,598.387565136989,598.387565136989,598.387565136989,598.387565136989,598.387565136989,598.387565136989,598.387565136989,598.387565136989,l,0.8016427370166639,1,807,2,599.2217039149982,600.7235147169995,,,,,,,,,,,,,,,,,,,,,,,,,,,,,,,,,,,,,,,,,,,,,,,,,,,,,,,,,,,,,,,,,,,,40705,2022-10-28_09h09.04.353,vts_reward_expectancy_bt_OFFLINE,2022.2.4,59.9464135417548,
0,0,0,1,0,1,0,0,star ,circle,2,0,2,0,3,9,45,10,,,,,,,,,,,,,,,,,,,,,,,,,,,,,,,,,,,,,,,,601.2238768249954,601.2238768249954,601.2238768249954,601.2238768249954,601.2238768249954,601.2238768249954,601.2238768249954,601.2238768249954,601.2238768249954,601.2238768249954,a,1.4770343600102933,1,808,2,602.7256434570008,604.227284912995,,,,,,,,,,,,,,,,,,,,,,,,,,,,,,,,,,,,,,,,,,,,,,,,,,,,,,,,,,,,,,,,,,,,40705,2022-10-28_09h09.04.353,vts_reward_expectancy_bt_OFFLINE,2022.2.4,59.9464135417548,
0,0,0,1,1,0,0,0,star,triangle,2,0,2,0,3,10,46,9,,,,,,,,,,,,,,,,,,,,,,,,,,,,,,,,,,,,,,,,604.7277944789967,604.7277944789967,604.7277944789967,604.7277944789967,604.7277944789967,604.7277944789967,604.7277944789967,604.7277944789967,604.7277944789967,604.7277944789967,l,1.4056846300081816,1,809,2,606.1626580869925,607.6643865629885,,,,,,,,,,,,,,,,,,,,,,,,,,,,,,,,,,,,,,,,,,,,,,,,,,,,,,,,,,,,,,,,,,,,40705,2022-10-28_09h09.04.353,vts_reward_expectancy_bt_OFFLINE,2022.2.4,59.9464135417548,
1,0,0,0,0,1,0,0,triangle,circle,2,0,2,0,3,11,47,0,,,,,,,,,,,,,,,,,,,,,,,,,,,,,,,,,,,,,,,,608.1649993629981,608.1649993629981,608.1649993629981,608.1649993629981,608.1649993629981,608.1649993629981,608.1649993629981,608.1649993629981,608.1649993629981,608.1649993629981,a,1.0088113740057452,10,819,2,609.1994196919986,610.7010909870005,,,,,,,,,,,,,,,,,,,,,,,,,,,,,,,,,,,,,,,,,,,,,,,,,,,,,,,,,,,,,,,,,,,,40705,2022-10-28_09h09.04.353,vts_reward_expectancy_bt_OFFLINE,2022.2.4,59.9464135417548,
,,,,,,,,,,,,,,,,,,0,0,0,0,0,0,0,0,,,,,,,,,,,,,,,,,,,,,,,,,,,,,,,,,,,,,,,,,,,,,,,,656.4181333499873,,D,146,triangle,0.0020227499917382374,652.1127545339987,653.6150499829964,653.6150499829964,653.6150499829964,1,0,d,1.27048117700906,0,654.9174057429918,,,,,,,,,,,,,,,,,,,,,,,,,,,,,,,,,,,,,,,,,,,,,,,,,,,,,40705,2022-10-28_09h09.04.353,vts_reward_expectancy_bt_OFFLINE,2022.2.4,59.9464135417548,
,,,,,,,,,,,,,,,,,,0,0,0,0,1,0,1,0,,,,,,,,,,,,,,,,,,,,,,,,,,,,,,,,,,,,,,,,,,,,,,,,661.4408289720013,,W,132,hexagon,0.0013637200027005747,657.4004388959875,658.9043068129977,658.9043068129977,658.9043068129977,1,0,f,1.0132332300127018,0,659.9385207589949,,,,,,,,,,,,,,,,,,,,,,,,,,,,,,,,,,,,,,,,,,,,,,,,,,,,,40705,2022-10-28_09h09.04.353,vts_reward_expectancy_bt_OFFLINE,2022.2.4,59.9464135417548,
,,,,,,,,,,,,,,,,,,0,0,0,0,2,0,2,0,,,,,,,,,,,,,,,,,,,,,,,,,,,,,,,,,,,,,,,,,,,,,,,,666.1623499349953,,S,160,circle,0.0015308959991671145,662.4198908469989,663.9264533499954,663.9264533499954,663.9264533499954,1,0,f,0.7111535360163543,0,664.6607224299951,,,,,,,,,,,,,,,,,,,,,,,,,,,,,,,,,,,,,,,,,,,,,,,,,,,,,40705,2022-10-28_09h09.04.353,vts_reward_expectancy_bt_OFFLINE,2022.2.4,59.9464135417548,
,,,,,,,,,,,,,,,,,,0,0,0,0,3,0,3,0,,,,,,,,,,,,,,,,,,,,,,,,,,,,,,,,,,,,,,,,,,,,,,,,670.8173875329958,,B,125,star,0.0015183040086412802,667.1439131069928,668.6483867669886,668.6483867669886,668.6483867669886,1,0,d,0.6445381400117185,0,669.3158351859893,,,,,,,,,,,,,,,,,,,,,,,,,,,,,,,,,,,,,,,,,,,,,,,,,,,,,40705,2022-10-28_09h09.04.353,vts_reward_expectancy_bt_OFFLINE,2022.2.4,59.9464135417548,
,,,,,,,,,,,,,,,,,,0,0,0,0,4,0,4,0,,,,,,,,,,,,,,,,,,,,,,,,,,,,,,,,,,,,,,,,,,,,,,,,675.7562566699926,,H,139,circle,0.0013164010015316308,671.7983879039966,673.3034597919905,673.3034597919905,673.3034597919905,1,0,d,0.925736011005938,0,674.2546726979926,,,,,,,,,,,,,,,,,,,,,,,,,,,,,,,,,,,,,,,,,,,,,,,,,,,,,40705,2022-10-28_09h09.04.353,vts_reward_expectancy_bt_OFFLINE,2022.2.4,59.9464135417548,
,,,,,,,,,,,,,,,,,,0,0,0,0,5,0,5,0,,,,,,,,,,,,,,,,,,,,,,,,,,,,,,,,,,,,,,,,,,,,,,,,680.3779570449988,,F,167,hexagon,0.0017541999986860901,676.7378299779957,678.2422052439942,678.2422052439942,678.2422052439942,1,0,d,0.6109535280120326,0,678.8762437059922,,,,,,,,,,,,,,,,,,,,,,,,,,,,,,,,,,,,,,,,,,,,,,,,,,,,,40705,2022-10-28_09h09.04.353,vts_reward_expectancy_bt_OFFLINE,2022.2.4,59.9464135417548,
,,,,,,,,,,,,,,,,,,0,0,0,0,6,0,6,0,,,,,,,,,,,,,,,,,,,,,,,,,,,,,,,,,,,,,,,,,,,,,,,,685.116531296997,,Y,174,triangle,0.0013377069990383461,681.3596514779929,682.8641022589873,682.8641022589873,682.8641022589873,1,0,f,0.7340163980115904,0,683.6150130229944,,,,,,,,,,,,,,,,,,,,,,,,,,,,,,,,,,,,,,,,,,,,,,,,,,,,,40705,2022-10-28_09h09.04.353,vts_reward_expectancy_bt_OFFLINE,2022.2.4,59.9464135417548,
,,,,,,,,,,,,,,,,,,0,0,0,0,7,0,7,0,,,,,,,,,,,,,,,,,,,,,,,,,,,,,,,,,,,,,,,,,,,,,,,,690.0052562709898,,U,181,star,0.0013301389990374446,686.0989097129932,687.6025835229957,687.6025835229957,687.6025835229957,1,0,f,0.883938681014115,0,688.5035544649872,,,,,,,,,,,,,,,,,,,,,,,,,,,,,,,,,,,,,,,,,,,,,,,,,,,,,40705,2022-10-28_09h09.04.353,vts_reward_expectancy_bt_OFFLINE,2022.2.4,59.9464135417548,
,,,,,,,,,,,,,,,,,,0,0,0,0,8,0,8,0,,,,,,,,,,,,,,,,,,,,,,,,,,,,,,,,,,,,,,,,,,,,,,,,694.910656395994,,D,146,circle,0.0016125660040415823,690.9839533729973,692.4912054019951,692.4912054019951,692.4912054019951,1,0,d,0.8986520750186173,0,693.4089871359902,,,,,,,,,,,,,,,,,,,,,,,,,,,,,,,,,,,,,,,,,,,,,,,,,,,,,40705,2022-10-28_09h09.04.353,vts_reward_expectancy_bt_OFFLINE,2022.2.4,59.9464135417548,
,,,,,,,,,,,,,,,,,,0,0,0,0,9,0,9,0,,,,,,,,,,,,,,,,,,,,,,,,,,,,,,,,,,,,,,,,,,,,,,,,699.5324423919956,,W,132,hexagon,0.0015611589915351942,695.8902768939879,697.3967331989988,697.3967331989988,697.3967331989988,1,0,f,0.6089538360101869,0,698.0306233169977,,,,,,,,,,,,,,,,,,,,,,,,,,,,,,,,,,,,,,,,,,,,,,,,,,,,,40705,2022-10-28_09h09.04.353,vts_reward_expectancy_bt_OFFLINE,2022.2.4,59.9464135417548,
,,,,,,,,,,,,,,,,,,,,,,,,,,0,0,0,0,0,0,0,0,,,,,,,,,,,,,,,,,,,,,,,,,,,,,,,,,,,,,,,,740.6611399099929,,B,132,hexagon,0.0022180230007506907,,,,,2,0,,,1,739.1612532189902,736.8027047669893,738.3085508449876,738.3085508449876,738.3085508449876,d,0.8332650560187176,,,,,,,,,,,,,,,,,,,,,,,,,,,,,,,,,,,,,,,,,,,,,,,40705,2022-10-28_09h09.04.353,vts_reward_expectancy_bt_OFFLINE,2022.2.4,59.9464135417548,
,,,,,,,,,,,,,,,,,,,,,,,,,,0,0,0,0,1,0,1,0,,,,,,,,,,,,,,,,,,,,,,,,,,,,,,,,,,,,,,,,747.2516837039875,,S,160,triangle,0.0011860450031235814,,,,,1,0,,,1,745.7500453089888,741.6403758779925,743.1471882849874,743.1471882849874,743.1471882849874,k,2.5704816190118436,,,,,,,,,,,,,,,,,,,,,,,,,,,,,,,,,,,,,,,,,,,,,,,40705,2022-10-28_09h09.04.353,vts_reward_expectancy_bt_OFFLINE,2022.2.4,59.9464135417548,
,,,,,,,,,,,,,,,,,,,,,,,,,,0,0,0,0,2,0,2,0,,,,,,,,,,,,,,,,,,,,,,,,,,,,,,,,,,,,,,,,753.8423229879991,,H,174,star,0.0016684300062479451,,,,,1,0,,,1,752.3406343109964,748.2305438789917,749.7376719519962,749.7376719519962,749.7376719519962,k,2.5709718780126423,,,,,,,,,,,,,,,,,,,,,,,,,,,,,,,,,,,,,,,,,,,,,,,40705,2022-10-28_09h09.04.353,vts_reward_expectancy_bt_OFFLINE,2022.2.4,59.9464135417548,
,,,,,,,,,,,,,,,,,,,,,,,,,,0,0,0,0,3,0,3,0,,,,,,,,,,,,,,,,,,,,,,,,,,,,,,,,,,,,,,,,758.5808575779956,,Y,181,circle,0.0018763080006465316,,,,,1,0,,,1,757.0792779969925,754.8237629089999,756.3285643499985,756.3285643499985,756.3285643499985,k,0.7249642840179149,,,,,,,,,,,,,,,,,,,,,,,,,,,,,,,,,,,,,,,,,,,,,,,40705,2022-10-28_09h09.04.353,vts_reward_expectancy_bt_OFFLINE,2022.2.4,59.9464135417548,
,,,,,,,,,,,,,,,,,,,,,,,,,,0,0,0,0,4,0,4,0,,,,,,,,,,,,,,,,,,,,,,,,,,,,,,,,,,,,,,,,763.4695503149997,,D,125,star,0.0016640209942124784,,,,,1,0,,,1,761.9678697469935,759.5601163989922,761.0669175469957,761.0669175469957,761.0669175469957,j,0.8832750820147339,,,,,,,,,,,,,,,,,,,,,,,,,,,,,,,,,,,,,,,,,,,,,,,40705,2022-10-28_09h09.04.353,vts_reward_expectancy_bt_OFFLINE,2022.2.4,59.9464135417548,
,,,,,,,,,,,,,,,,,,,,,,,,,,0,0,0,0,5,0,5,0,,,,,,,,,,,,,,,,,,,,,,,,,,,,,,,,,,,,,,,,768.3584294619941,,W,139,triangle,0.0014490130124613643,,,,,1,0,,,1,766.8566577329912,764.4484311609995,765.9555292000005,765.9555292000005,765.9555292000005,j,0.8734123910107883,,,,,,,,,,,,,,,,,,,,,,,,,,,,,,,,,,,,,,,,,,,,,,,40705,2022-10-28_09h09.04.353,vts_reward_expectancy_bt_OFFLINE,2022.2.4,59.9464135417548,
,,,,,,,,,,,,,,,,,,,,,,,,,,0,0,0,0,6,0,6,0,,,,,,,,,,,,,,,,,,,,,,,,,,,,,,,,,,,,,,,,773.3804877459916,,U,167,hexagon,0.001812868009437807,,,,,1,0,,,1,771.878908558996,769.3403083469893,770.8445208399935,770.8445208399935,770.8445208399935,k,1.001773353011231,,,,,,,,,,,,,,,,,,,,,,,,,,,,,,,,,,,,,,,,,,,,,,,40705,2022-10-28_09h09.04.353,vts_reward_expectancy_bt_OFFLINE,2022.2.4,59.9464135417548,
,,,,,,,,,,,,,,,,,,,,,,,,,,0,0,0,0,7,0,7,0,,,,,,,,,,,,,,,,,,,,,,,,,,,,,,,,,,,,,,,,778.1859497529949,,F,146,circle,0.0017035899945767596,,,,,1,0,,,1,776.6842450609984,774.3603319209942,775.866833824999,775.866833824999,775.866833824999,j,0.7865749030170264,,,,,,,,,,,,,,,,,,,,,,,,,,,,,,,,,,,,,,,,,,,,,,,40705,2022-10-28_09h09.04.353,vts_reward_expectancy_bt_OFFLINE,2022.2.4,59.9464135417548,
,,,,,,,,,,,,,,,,,,,,,,,,,,0,0,0,0,8,0,8,0,,,,,,,,,,,,,,,,,,,,,,,,,,,,,,,,,,,,,,,,782.9911372709903,,B,132,circle,0.0016973969904938713,,,,,1,0,,,1,781.4895963819872,779.1654314289917,780.6718239819893,780.6718239819893,780.6718239819893,j,0.7981667790154461,,,,,,,,,,,,,,,,,,,,,,,,,,,,,,,,,,,,,,,,,,,,,,,40705,2022-10-28_09h09.04.353,vts_reward_expectancy_bt_OFFLINE,2022.2.4,59.9464135417548,
,,,,,,,,,,,,,,,,,,,,,,,,,,0,0,0,0,9,0,9,0,,,,,,,,,,,,,,,,,,,,,,,,,,,,,,,,,,,,,,,,787.8466629699979,,S,160,star,0.0016354529943782836,,,,,1,0,,,1,786.3447439390002,783.9689471719903,785.4771956179902,785.4771956179902,785.4771956179902,k,0.8488156630046433,,,,,,,,,,,,,,,,,,,,,,,,,,,,,,,,,,,,,,,,,,,,,,,40705,2022-10-28_09h09.04.353,vts_reward_expectancy_bt_OFFLINE,2022.2.4,59.9464135417548,
,,,,,,,,,,,,,,,,,,,,,,,,,,,,,,,,,,0,0,0,0,0,0,0,0,,,,,,,,,,,,,,,,,,,,,,,,,,,,0,819,,,827.1397774189973,,W,167,circle,0.0018819899996742606,,,,,-1,0,,,2,,,,,,,,821.1311430399946,821.1311430399946,821.1311430399946,821.1311430399946,822.634811949989,822.634811949989,822.634811949989,822.634811949989,822.634811949989,822.634811949989,822.634811949989,822.634811949989,825.6384624509956,825.6384624509956,825.6384624509956,825.6384624509956,-1,no_choice,NA,None,vtsPrac,825.6384624509956,827.1397774189973,827.6403995669971,,,,,,,,,,,,,,,,,,,,,,,40705,2022-10-28_09h09.04.353,vts_reward_expectancy_bt_OFFLINE,2022.2.4,59.9464135417548,
,,,,,,,,,,,,,,,,,,,,,,,,,,,,,,,,,,0,0,0,0,1,0,1,0,,,,,,,,,,,,,,,,,,,,,,,,,,,,0,819,,,834.1475548140006,,U,125,star,0.008939612001995556,,,,,-1,0,,,2,,,,,,,,828.1361363959877,828.1361363959877,828.1361363959877,828.1361363959877,829.6425851620006,829.6425851620006,829.6425851620006,829.6425851620006,829.6425851620006,829.6425851620006,829.6425851620006,829.6425851620006,832.6459996229969,832.6459996229969,832.6459996229969,832.6459996229969,repeat,no_choice,NA,None,vtsPrac,832.6459996229969,834.1475548140006,834.6481375239964,,,,,,,,,,,,,,,,,,,,,,,40705,2022-10-28_09h09.04.353,vts_reward_expectancy_bt_OFFLINE,2022.2.4,59.9464135417548,
,,,,,,,,,,,,,,,,,,,,,,,,,,,,,,,,,,0,0,0,0,2,0,2,0,,,,,,,,,,,,,,,,,,,,,,,,,,,,0,819,,,839.8039074059925,,Y,139,circle,0.000640701997326687,,,,,1,0,,,2,,,,,,,,835.1299675699993,835.1299675699993,835.1299675699993,835.1299675699993,836.6336079859902,836.6336079859902,836.6336079859902,836.6336079859902,836.6336079859902,836.6336079859902,836.6336079859902,836.6336079859902,,,,,switch,number,numSwt,j,vtsPrac,838.3021955570002,,,1.6360049930081004,,,,,,,,,,,,,,,,,,,,,,40705,2022-10-28_09h09.04.353,vts_reward_expectancy_bt_OFFLINE,2022.2.4,59.9464135417548,
,,,,,,,,,,,,,,,,,,,,,,,,,,,,,,,,,,0,0,0,0,3,0,3,0,,,,,,,,,,,,,,,,,,,,,,,,,,,,0,819,,,846.7947764669952,,S,181,star,0.0014974059886299074,,,,,-1,0,,,2,,,,,,,,840.7864033319929,840.7864033319929,840.7864033319929,840.7864033319929,842.2898522859905,842.2898522859905,842.2898522859905,842.2898522859905,842.2898522859905,842.2898522859905,842.2898522859905,842.2898522859905,845.2932888409996,845.2932888409996,845.2932888409996,845.2932888409996,switch,no_choice,NA,None,vtsPrac,845.2932888409996,846.7947764669952,847.2953069789946,,,,,,,,,,,,,,,,,,,,,,,40705,2022-10-28_09h09.04.353,vts_reward_expectancy_bt_OFFLINE,2022.2.4,59.9464135417548,
,,,,,,,,,,,,,,,,,,,,,,,,,,,,,,,,,,0,0,0,0,4,0,4,0,,,,,,,,,,,,,,,,,,,,,,,,,,,,0,819,,,851.9336826739891,,W,167,triangle,0.008834394990117289,,,,,0,0,,,2,,,,,,,,847.7913876459934,847.7913876459934,847.7913876459934,847.7913876459934,849.2977863959968,849.2977863959968,849.2977863959968,849.2977863959968,849.2977863959968,849.2977863959968,849.2977863959968,849.2977863959968,,,,,switch,number,NA,j,vtsPrac,850.4323059320013,,,1.1159698730043601,,,,,,,,,,,,,,,,,,,,,,40705,2022-10-28_09h09.04.353,vts_reward_expectancy_bt_OFFLINE,2022.2.4,59.9464135417548,
,,,,,,,,,,,,,,,,,,,,,,,,,,,,,,,,,,0,0,0,0,5,0,5,0,,,,,,,,,,,,,,,,,,,,,,,,,,,,0,819,,,857.206350951994,,U,125,circle,0.0015487119962926954,,,,,1,1,,,2,,,,,,,,852.9152244500001,852.9152244500001,852.9152244500001,852.9152244500001,854.4198257120006,854.4198257120006,854.4198257120006,854.4198257120006,854.4198257120006,854.4198257120006,854.4198257120006,854.4198257120006,,,,,repeat,number,numRpt,j,vtsPrac,855.7046566849895,,,1.2578862790105632,,,,,,,,,,,,,,,,,,,,,,40705,2022-10-28_09h09.04.353,vts_reward_expectancy_bt_OFFLINE,2022.2.4,59.9464135417548,
,,,,,,,,,,,,,,,,,,,,,,,,,,,,,,,,,,0,0,0,0,6,0,6,0,,,,,,,,,,,,,,,,,,,,,,,,,,,,0,819,,,862.395238060999,,Y,139,star,0.001629632999538444,,,,,1,0,,,2,,,,,,,,858.1853246539977,858.1853246539977,858.1853246539977,858.1853246539977,859.692356057989,859.692356057989,859.692356057989,859.692356057989,859.692356057989,859.692356057989,859.692356057989,859.692356057989,,,,,repeat,number,numRpt,j,vtsPrac,860.8937098049937,,,1.1689812110125786,,,,,,,,,,,,,,,,,,,,,,40705,2022-10-28_09h09.04.353,vts_reward_expectancy_bt_OFFLINE,2022.2.4,59.9464135417548,
,,,,,,,,,,,,,,,,,,,,,,,,,,,,,,,,,,0,0,0,0,7,0,7,0,,,,,,,,,,,,,,,,,,,,,,,,,,,,0,819,,,867.6344944219891,,S,181,circle,0.0017240099987247959,,,,,1,0,,,2,,,,,,,,863.374339697999,863.374339697999,863.374339697999,863.374339697999,864.8814517509891,864.8814517509891,864.8814517509891,864.8814517509891,864.8814517509891,864.8814517509891,864.8814517509891,864.8814517509891,,,,,repeat,number,numRpt,k,vtsPrac,866.1328412719886,,,1.2192070180026349,,,,,,,,,,,,,,,,,,,,,,40705,2022-10-28_09h09.04.353,vts_reward_expectancy_bt_OFFLINE,2022.2.4,59.9464135417548,
,,,,,,,,,,,,,,,,,,,,,,,,,,,,,,,,,,0,0,0,0,8,0,8,0,,,,,,,,,,,,,,,,,,,,,,,,,,,,0,819,,,873.2239808869926,,W,160,triangle,0.0014104509900789708,,,,,1,0,,,2,,,,,,,,868.6143040439929,868.6143040439929,868.6143040439929,868.6143040439929,870.1206609679939,870.1206609679939,870.1206609679939,870.1206609679939,870.1206609679939,870.1206609679939,870.1206609679939,870.1206609679939,,,,,repeat,number,numRpt,k,vtsPrac,871.7222170140012,,,1.5730870880070142,,,,,,,,,,,,,,,,,,,,,,40705,2022-10-28_09h09.04.353,vts_reward_expectancy_bt_OFFLINE,2022.2.4,59.9464135417548,
,,,,,,,,,,,,,,,,,,,,,,,,,,,,,,,,,,0,0,0,0,9,0,9,0,,,,,,,,,,,,,,,,,,,,,,,,,,,,0,819,,,878.2795808660012,,B,125,star,0.0016170799935935065,,,,,0,0,,,2,,,,,,,,874.2060852829891,874.2060852829891,874.2060852829891,874.2060852829891,875.7101074129896,875.7101074129896,875.7101074129896,875.7101074129896,875.7101074129896,875.7101074129896,875.7101074129896,875.7101074129896,,,,,switch,letter,NA,f,vtsPrac,876.7781954279926,,,1.0476611090125516,,,,,,,,,,,,,,,,,,,,,,40705,2022-10-28_09h09.04.353,vts_reward_expectancy_bt_OFFLINE,2022.2.4,59.9464135417548,
,,,,,,,,,,,,,,,,,,,,,,,,,,,,,,,,,,0,0,0,0,10,0,10,0,,,,,,,,,,,,,,,,,,,,,,,,,,,,0,819,,,883.7189334949944,,Y,132,hexagon,0.0017380650097038597,,,,,1,1,,,2,,,,,,,,879.2607516699936,879.2607516699936,879.2607516699936,879.2607516699936,880.7656856809917,880.7656856809917,880.7656856809917,880.7656856809917,880.7656856809917,880.7656856809917,880.7656856809917,880.7656856809917,,,,,switch,number,numSwt,j,vtsPrac,882.2172663139936,,,1.4247647070151288,,,,,,,,,,,,,,,,,,,,,,40705,2022-10-28_09h09.04.353,vts_reward_expectancy_bt_OFFLINE,2022.2.4,59.9464135417548,
,,,,,,,,,,,,,,,,,,,,,,,,,,,,,,,,,,0,0,0,0,11,0,11,0,,,,,,,,,,,,,,,,,,,,,,,,,,,,0,819,,,889.1916763059999,,H,181,circle,0.0015002010040916502,,,,,0,0,,,2,,,,,,,,884.6986915109883,884.6986915109883,884.6986915109883,884.6986915109883,886.204620805991,886.204620805991,886.204620805991,886.204620805991,886.204620805991,886.204620805991,886.204620805991,886.204620805991,,,,,switch,letter,NA,f,vtsPrac,887.6900841249881,,,1.4642835310078226,,,,,,,,,,,,,,,,,,,,,,40705,2022-10-28_09h09.04.353,vts_reward_expectancy_bt_OFFLINE,2022.2.4,59.9464135417548,
,,,,,,,,,,,,,,,,,,,,,,,,,,,,,,,,,,0,0,0,0,12,0,12,0,,,,,,,,,,,,,,,,,,,,,,,,,,,,0,819,,,894.7643498319958,,F,139,hexagon,0.0015768869925523177,,,,,1,1,,,2,,,,,,,,890.1734692329919,890.1734692329919,890.1734692329919,890.1734692329919,891.6777711429895,891.6777711429895,891.6777711429895,891.6777711429895,891.6777711429895,891.6777711429895,891.6777711429895,891.6777711429895,,,,,repeat,letter,lettRpt,d,vtsPrac,893.2626491389965,,,1.559500804010895,,,,,,,,,,,,,,,,,,,,,,40705,2022-10-28_09h09.04.353,vts_reward_expectancy_bt_OFFLINE,2022.2.4,59.9464135417548,
,,,,,,,,,,,,,,,,,,,,,,,,,,,,,,,,,,0,0,0,0,13,0,13,0,,,,,,,,,,,,,,,,,,,,,,,,,,,,0,819,,,899.9035471629904,,Y,160,triangle,0.0016952720034169033,,,,,1,0,,,2,,,,,,,,895.7436510049884,895.7436510049884,895.7436510049884,895.7436510049884,897.2503550019901,897.2503550019901,897.2503550019901,897.2503550019901,897.2503550019901,897.2503550019901,897.2503550019901,897.2503550019901,,,,,repeat,letter,lettRpt,f,vtsPrac,898.4019066479959,,,1.131294875012827,,,,,,,,,,,,,,,,,,,,,,40705,2022-10-28_09h09.04.353,vts_reward_expectancy_bt_OFFLINE,2022.2.4,59.9464135417548,
,,,,,,,,,,,,,,,,,,,,,,,,,,,,,,,,,,0,0,0,0,14,0,14,0,,,,,,,,,,,,,,,,,,,,,,,,,,,,0,819,,,906.16019353499,,B,146,triangle,0.0014788310072617605,,,,,1,0,,,2,,,,,,,,900.8855392119876,900.8855392119876,900.8855392119876,900.8855392119876,902.3895346709905,902.3895346709905,902.3895346709905,902.3895346709905,902.3895346709905,902.3895346709905,902.3895346709905,902.3895346709905,,,,,repeat,letter,lettRpt,d,vtsPrac,904.658589972998,,,2.2403118350048317,,,,,,,,,,,,,,,,,,,,,,40705,2022-10-28_09h09.04.353,vts_reward_expectancy_bt_OFFLINE,2022.2.4,59.9464135417548,
,,,,,,,,,,,,,,,,,,,,,,,,,,,,,,,,,,0,0,0,0,15,0,15,0,,,,,,,,,,,,,,,,,,,,,,,,,,,,0,819,,,911.4495254979993,,S,167,circle,0.0016030830011004582,,,,,1,0,,,2,,,,,,,,907.1394162939978,907.1394162939978,907.1394162939978,907.1394162939978,908.64638719699,908.64638719699,908.64638719699,908.64638719699,908.64638719699,908.64638719699,908.64638719699,908.64638719699,,,,,repeat,letter,lettRpt,f,vtsPrac,909.9477784519986,,,1.2789668540062848,,,,,,,,,,,,,,,,,,,,,,40705,2022-10-28_09h09.04.353,vts_reward_expectancy_bt_OFFLINE,2022.2.4,59.9464135417548,
,,,,,,,,,,,,,,,,,,,,,,,,,,,,,,,,,,1,0,1,0,0,0,0,0,,,,,,,,,,,,,,,,,,,,,,,,,,,,0,819,,,938.6126612439984,,S,174,hexagon,0.0019392579997656867,,,,,1,0,,,3,,,,,,,,933.4001286999992,933.4001286999992,933.4001286999992,933.4001286999992,934.9085768410005,934.9085768410005,934.9085768410005,934.9085768410005,934.9085768410005,934.9085768410005,934.9085768410005,934.9085768410005,,,,,switch,number,numSwt,k,vtsPrac,937.1110544089897,,,2.1854125460085925,,,,,,,,,,,,,,,,,,,,,,40705,2022-10-28_09h09.04.353,vts_reward_expectancy_bt_OFFLINE,2022.2.4,59.9464135417548,
,,,,,,,,,,,,,,,,,,,,,,,,,,,,,,,,,,1,0,1,0,1,0,1,0,,,,,,,,,,,,,,,,,,,,,,,,,,,,0,819,,,944.2022484469926,,U,167,triangle,0.0015329040033975616,,,,,1,0,,,3,,,,,,,,939.5919730780006,939.5919730780006,939.5919730780006,939.5919730780006,941.0987752129877,941.0987752129877,941.0987752129877,941.0987752129877,941.0987752129877,941.0987752129877,941.0987752129877,941.0987752129877,,,,,switch,letter,lettSwt,f,vtsPrac,942.7004423569888,,,1.5788905970111955,,,,,,,,,,,,,,,,,,,,,,40705,2022-10-28_09h09.04.353,vts_reward_expectancy_bt_OFFLINE,2022.2.4,59.9464135417548,
,,,,,,,,,,,,,,,,,,,,,,,,,,,,,,,,,,1,0,1,0,2,0,2,0,,,,,,,,,,,,,,,,,,,,,,,,,,,,0,819,,,949.1744137109927,,H,146,circle,0.001009953994071111,,,,,1,0,,,3,,,,,,,,945.1803871239972,945.1803871239972,945.1803871239972,945.1803871239972,946.6883461929974,946.6883461929974,946.6883461929974,946.6883461929974,946.6883461929974,946.6883461929974,946.6883461929974,946.6883461929974,,,,,switch,number,numSwt,j,vtsPrac,947.6726198099932,,,0.9564936440146994,,,,,,,,,,,,,,,,,,,,,,40705,2022-10-28_09h09.04.353,vts_reward_expectancy_bt_OFFLINE,2022.2.4,59.9464135417548,
,,,,,,,,,,,,,,,,,,,,,,,,,,,,,,,,,,1,0,1,0,3,0,3,0,,,,,,,,,,,,,,,,,,,,,,,,,,,,0,819,,,954.2967673759995,,F,139,hexagon,0.0016384109912905842,,,,,1,0,,,3,,,,,,,,950.1542125559936,950.1542125559936,950.1542125559936,950.1542125559936,951.6606694939983,951.6606694939983,951.6606694939983,951.6606694939983,951.6606694939983,951.6606694939983,951.6606694939983,951.6606694939983,,,,,switch,letter,lettSwt,d,vtsPrac,952.795181272988,,,1.1129585770104313,,,,,,,,,,,,,,,,,,,,,,40705,2022-10-28_09h09.04.353,vts_reward_expectancy_bt_OFFLINE,2022.2.4,59.9464135417548,
,,,,,,,,,,,,,,,,,,,,,,,,,,,,,,,,,,1,0,1,0,4,0,4,0,,,,,,,,,,,,,,,,,,,,,,,,,,,,0,819,,,959.2855961469904,,S,174,hexagon,0.001855384005466476,,,,,1,0,,,3,,,,,,,,955.2766139710002,955.2766139710002,955.2766139710002,955.2766139710002,956.7828738440003,956.7828738440003,956.7828738440003,956.7828738440003,956.7828738440003,956.7828738440003,956.7828738440003,956.7828738440003,,,,,repeat,letter,lettRpt,f,vtsPrac,957.7839467979938,,,0.9828143050108338,,,,,,,,,,,,,,,,,,,,,,40705,2022-10-28_09h09.04.353,vts_reward_expectancy_bt_OFFLINE,2022.2.4,59.9464135417548,
,,,,,,,,,,,,,,,,,,,,,,,,,,,,,,,,,,1,0,1,0,5,0,5,0,,,,,,,,,,,,,,,,,,,,,,,,,,,,0,819,,,964.574673338997,,U,167,star,0.0014865209959680215,,,,,1,0,,,3,,,,,,,,960.265473337,960.265473337,960.265473337,960.265473337,961.7715638279915,961.7715638279915,961.7715638279915,961.7715638279915,961.7715638279915,961.7715638279915,961.7715638279915,961.7715638279915,,,,,switch,number,numSwt,k,vtsPrac,963.0731564489979,,,1.2820172200154047,,,,,,,,,,,,,,,,,,,,,,40705,2022-10-28_09h09.04.353,vts_reward_expectancy_bt_OFFLINE,2022.2.4,59.9464135417548,
,,,,,,,,,,,,,,,,,,,,,,,,,,,,,,,,,,1,0,1,0,6,0,6,0,,,,,,,,,,,,,,,,,,,,,,,,,,,,0,819,,,969.4969672539883,,H,146,triangle,0.0017263649933738634,,,,,1,0,,,3,,,,,,,,965.5555149339925,965.5555149339925,965.5555149339925,965.5555149339925,967.0608804769872,967.0608804769872,967.0608804769872,967.0608804769872,967.0608804769872,967.0608804769872,967.0608804769872,967.0608804769872,,,,,repeat,number,numRpt,j,vtsPrac,967.9954212809971,,,0.904064874004689,,,,,,,,,,,,,,,,,,,,,,40705,2022-10-28_09h09.04.353,vts_reward_expectancy_bt_OFFLINE,2022.2.4,59.9464135417548,
,,,,,,,,,,,,,,,,,,,,,,,,,,,,,,,,,,1,0,1,0,7,0,7,0,,,,,,,,,,,,,,,,,,,,,,,,,,,,0,819,,,974.1854837189894,,F,139,hexagon,0.0014578129921574146,,,,,1,0,,,3,,,,,,,,970.475992652995,970.475992652995,970.475992652995,970.475992652995,971.9830000469956,971.9830000469956,971.9830000469956,971.9830000469956,971.9830000469956,971.9830000469956,971.9830000469956,971.9830000469956,,,,,switch,letter,lettSwt,d,vtsPrac,972.6837894919881,,,0.6779121240106178,,,,,,,,,,,,,,,,,,,,,,40705,2022-10-28_09h09.04.353,vts_reward_expectancy_bt_OFFLINE,2022.2.4,59.9464135417548,
,,,,,,,,,,,,,,,,,,,,,,,,,,,,,,,,,,1,0,1,0,8,0,8,0,,,,,,,,,,,,,,,,,,,,,,,,,,,,0,819,,,979.1909079159959,,W,132,circle,0.0017217729910044,,,,,1,0,,,3,,,,,,,,975.1654706659901,975.1654706659901,975.1654706659901,975.1654706659901,976.6716204029944,976.6716204029944,976.6716204029944,976.6716204029944,976.6716204029944,976.6716204029944,976.6716204029944,976.6716204029944,,,,,repeat,letter,lettRpt,f,vtsPrac,977.6894065989909,,,0.997889024016331,,,,,,,,,,,,,,,,,,,,,,40705,2022-10-28_09h09.04.353,vts_reward_expectancy_bt_OFFLINE,2022.2.4,59.9464135417548,
,,,,,,,,,,,,,,,,,,,,,,,,,,,,,,,,,,1,0,1,0,9,0,9,0,,,,,,,,,,,,,,,,,,,,,,,,,,,,0,819,,,984.1296393509983,,S,167,star,0.0016008060047170147,,,,,1,0,,,3,,,,,,,,980.1710859739978,980.1710859739978,980.1710859739978,980.1710859739978,981.6769581089902,981.6769581089902,981.6769581089902,981.6769581089902,981.6769581089902,981.6769581089902,981.6769581089902,981.6769581089902,,,,,switch,number,numSwt,k,vtsPrac,982.6279119389947,,,0.9286467920028372,,,,,,,,,,,,,,,,,,,,,,40705,2022-10-28_09h09.04.353,vts_reward_expectancy_bt_OFFLINE,2022.2.4,59.9464135417548,
,,,,,,,,,,,,,,,,,,,,,,,,,,,,,,,,,,1,0,1,0,10,0,10,0,,,,,,,,,,,,,,,,,,,,,,,,,,,,0,819,,,988.9683076819929,,D,125,hexagon,0.0014733869902556762,,,,,1,0,,,3,,,,,,,,985.1094664199918,985.1094664199918,985.1094664199918,985.1094664199918,986.6160204429907,986.6160204429907,986.6160204429907,986.6160204429907,986.6160204429907,986.6160204429907,986.6160204429907,986.6160204429907,,,,,switch,letter,lettSwt,d,vtsPrac,987.4667616399965,,,0.8215165450092172,,,,,,,,,,,,,,,,,,,,,,40705,2022-10-28_09h09.04.353,vts_reward_expectancy_bt_OFFLINE,2022.2.4,59.9464135417548,
,,,,,,,,,,,,,,,,,,,,,,,,,,,,,,,,,,1,0,1,0,11,0,11,0,,,,,,,,,,,,,,,,,,,,,,,,,,,,0,819,,,994.090718898995,,Y,146,star,0.0018124680063920096,,,,,1,0,,,3,,,,,,,,989.9475602829916,989.9475602829916,989.9475602829916,989.9475602829916,991.4544696259982,991.4544696259982,991.4544696259982,991.4544696259982,991.4544696259982,991.4544696259982,991.4544696259982,991.4544696259982,,,,,switch,number,numSwt,j,vtsPrac,992.5888402639976,,,1.1106542210181942,,,,,,,,,,,,,,,,,,,,,,40705,2022-10-28_09h09.04.353,vts_reward_expectancy_bt_OFFLINE,2022.2.4,59.9464135417548,
,,,,,,,,,,,,,,,,,,,,,,,,,,,,,,,,,,1,0,1,0,12,0,12,0,,,,,,,,,,,,,,,,,,,,,,,,,,,,0,819,,,999.3297442509938,,F,146,triangle,0.0013944609963800758,,,,,1,0,,,3,,,,,,,,995.0686127090012,995.0686127090012,995.0686127090012,995.0686127090012,996.576713670991,996.576713670991,996.576713670991,996.576713670991,996.576713670991,996.576713670991,996.576713670991,996.576713670991,,,,,switch,letter,lettSwt,d,vtsPrac,997.8281224169914,,,1.2205782800010638,,,,,,,,,,,,,,,,,,,,,,40705,2022-10-28_09h09.04.353,vts_reward_expectancy_bt_OFFLINE,2022.2.4,59.9464135417548,
,,,,,,,,,,,,,,,,,,,,,,,,,,,,,,,,,,1,0,1,0,13,0,13,0,,,,,,,,,,,,,,,,,,,,,,,,,,,,0,819,,,1004.1351181639911,,D,174,circle,0.0016652630001772195,,,,,1,0,,,3,,,,,,,,1000.30868271699,1000.30868271699,1000.30868271699,1000.30868271699,1001.8158171839896,1001.8158171839896,1001.8158171839896,1001.8158171839896,1001.8158171839896,1001.8158171839896,1001.8158171839896,1001.8158171839896,,,,,repeat,letter,lettRpt,d,vtsPrac,1002.6333930729888,,,0.7898952250106959,,,,,,,,,,,,,,,,,,,,,,40705,2022-10-28_09h09.04.353,vts_reward_expectancy_bt_OFFLINE,2022.2.4,59.9464135417548,
,,,,,,,,,,,,,,,,,,,,,,,,,,,,,,,,,,1,0,1,0,14,0,14,0,,,,,,,,,,,,,,,,,,,,,,,,,,,,0,819,,,1008.8735713819915,,B,132,triangle,0.0015951009991113096,,,,,1,0,,,3,,,,,,,,1005.1164271399903,1005.1164271399903,1005.1164271399903,1005.1164271399903,1006.6211517509946,1006.6211517509946,1006.6211517509946,1006.6211517509946,1006.6211517509946,1006.6211517509946,1006.6211517509946,1006.6211517509946,,,,,switch,number,numSwt,j,vtsPrac,1007.371883572996,,,0.7284821110224584,,,,,,,,,,,,,,,,,,,,,,40705,2022-10-28_09h09.04.353,vts_reward_expectancy_bt_OFFLINE,2022.2.4,59.9464135417548,
,,,,,,,,,,,,,,,,,,,,,,,,,,,,,,,,,,1,0,1,0,15,0,15,0,,,,,,,,,,,,,,,,,,,,,,,,,,,,0,819,,,1013.8122668569995,,H,181,hexagon,0.0015544130001217127,,,,,1,0,,,3,,,,,,,,1009.8518723039888,1009.8518723039888,1009.8518723039888,1009.8518723039888,1011.3596718499903,1011.3596718499903,1011.3596718499903,1011.3596718499903,1011.3596718499903,1011.3596718499903,1011.3596718499903,1011.3596718499903,,,,,repeat,number,numRpt,k,vtsPrac,1012.3107635029883,,,0.9181396330095595,,,,,,,,,,,,,,,,,,,,,,40705,2022-10-28_09h09.04.353,vts_reward_expectancy_bt_OFFLINE,2022.2.4,59.9464135417548,
