LTriangleOpac,LCircleOpac,LHexagonOpac,LStarOpac,RTriangleOpac,RCircleOpac,RHexagonOpac,RStarOpac,LShape_ID,RShape_ID,training_blocks.thisRepN,training_blocks.thisTrialN,training_blocks.thisN,training_blocks.thisIndex,training.thisRepN,training.thisTrialN,training.thisN,training.thisIndex,task1_prac_redo.thisRepN,task1_prac_redo.thisTrialN,task1_prac_redo.thisN,task1_prac_redo.thisIndex,task1_prac_trials.thisRepN,task1_prac_trials.thisTrialN,task1_prac_trials.thisN,task1_prac_trials.thisIndex,task2_prac_redo.thisRepN,task2_prac_redo.thisTrialN,task2_prac_redo.thisN,task2_prac_redo.thisIndex,task2_praac_trials.thisRepN,task2_praac_trials.thisTrialN,task2_praac_trials.thisN,task2_praac_trials.thisIndex,vts_prac_redo.thisRepN,vts_prac_redo.thisTrialN,vts_prac_redo.thisN,vts_prac_redo.thisIndex,vts_practice_trials.thisRepN,vts_practice_trials.thisTrialN,vts_practice_trials.thisN,vts_practice_trials.thisIndex,trials_norew.thisRepN,trials_norew.thisTrialN,trials_norew.thisN,trials_norew.thisIndex,block.thisRepN,block.thisTrialN,block.thisN,block.thisIndex,trials_rew.thisRepN,trials_rew.thisTrialN,trials_rew.thisN,trials_rew.thisIndex,key_resp.started,key_resp.keys,key_resp.rt,left_circle.started,right_circle.started,left_triangle.started,right_triangle.started,left_star.started,right_star.started,left_hexagon.started,right_hexagon.started,training_fix.started,training_resp.started,training_resp.keys,training_resp.rt,points_trial,points_cumul,trainBlock,training_feedback_txt.started,training_feedback_txt.stopped,fix.started,curr_topStim,curr_bottStim,curr_shape,ISI.started,tgt_fix_prac1.started,top_target_prac1.started,bott_target_prac1.started,target_resp_prac1.started,acc,E1,target_resp_prac1.keys,target_resp_prac1.rt,pracBlock,prac_fback_text.started,prac_fback_text.stopped,tgt_fix_prac2.started,top_target_prac2.started,bott_target_prac2.started,target_resp_prac2.started,target_resp_prac2.keys,target_resp_prac2.rt,star.started,hegagon.started,triangle.started,circle.started,top_target.started,tgt_fix.started,bot_target.started,target_resp.started,star.stopped,hegagon.stopped,triangle.stopped,circle.stopped,alt,task,condition,target_resp.keys,target_resp.rt,rewCond,vts_fback.started,vts_fback.stopped,fix.stopped,blockNum,norew_fback.started,norew_fback.stopped,key_resp_2.keys,key_resp_2.rt,rewExpectancy,feedbk_text.started,feedbk_text.stopped,text_3.started,debrief.started,text_3.stopped,button.started,debrief.index,debrief.itemText,debrief.type,debrief.granularity,debrief.font,debrief.markerColor,debrief.response,debrief.rt,button.numClicks,button.timesOn,button.timesOff,participant,date,expName,psychopyVersion,frameRate,
,,,,,,,,,,,,,,,,,,,,,,,,,,,,,,,,,,,,,,,,,,,,,,,,,,,,,,16.368750598980114,space,27.516675717080943,,,,,,,,,,,,,,,,,,,,,,,,,,,,,,,,,,,,,,,,,,,,,,,,,,,,,,,,,,,,,,,,,,,,,,,,,,,,,,,,,,,,40967,2022-11-29_14h06.59.574,vts_reward_expectancy_bt_OFFLINE,2022.2.4,59.87532579691902,
0,0,0,1,1,0,0,0,star,triangle,0,0,0,0,0,0,0,9,,,,,,,,,,,,,,,,,,,,,,,,,,,,,,,,,,,,,,,,80.35580336290877,80.35580336290877,80.35580336290877,80.35580336290877,80.35580336290877,80.35580336290877,80.35580336290877,80.35580336290877,80.35580336290877,80.35580336290877,a,1.1970969111425802,1,1,0,81.57342938496731,83.07493787293788,83.07493787293788,,,,,,,,,,,,,,,,,,,,,,,,,,,,,,,,,,,,,,,,,,,,,,,,,,,,,,,,,,,,,,,,,,40967,2022-11-29_14h06.59.574,vts_reward_expectancy_bt_OFFLINE,2022.2.4,59.87532579691902,
0,0,0,1,0,1,0,0,star ,circle,0,0,0,0,0,1,1,10,,,,,,,,,,,,,,,,,,,,,,,,,,,,,,,,,,,,,,,,83.5756826219149,83.5756826219149,83.5756826219149,83.5756826219149,83.5756826219149,83.5756826219149,83.5756826219149,83.5756826219149,83.5756826219149,83.5756826219149,l,0.8117737020365894,1,2,0,84.40975674497895,,85.91137142002117,,,,,,,,,,,,,,,,,,,,,,,,,,,,,,,,,,,,,,,,,,,,,,,,,,,,,,,,,,,,,,,,,,40967,2022-11-29_14h06.59.574,vts_reward_expectancy_bt_OFFLINE,2022.2.4,59.87532579691902,
0,0,1,0,0,1,0,0,hexagon,circle,0,0,0,0,0,2,2,7,,,,,,,,,,,,,,,,,,,,,,,,,,,,,,,,,,,,,,,,86.4122486829292,86.4122486829292,86.4122486829292,86.4122486829292,86.4122486829292,86.4122486829292,86.4122486829292,86.4122486829292,86.4122486829292,86.4122486829292,l,0.7000565341440961,10,12,0,87.12945963197853,88.6310575249372,88.6310575249372,,,,,,,,,,,,,,,,,,,,,,,,,,,,,,,,,,,,,,,,,,,,,,,,,,,,,,,,,,,,,,,,,,40967,2022-11-29_14h06.59.574,vts_reward_expectancy_bt_OFFLINE,2022.2.4,59.87532579691902,
1,0,0,0,0,0,0,1,triangle,star,0,0,0,0,0,3,3,2,,,,,,,,,,,,,,,,,,,,,,,,,,,,,,,,,,,,,,,,89.13183359301183,89.13183359301183,89.13183359301183,89.13183359301183,89.13183359301183,89.13183359301183,89.13183359301183,89.13183359301183,89.13183359301183,89.13183359301183,l,0.8484605640405789,1,13,0,89.99938262300566,,91.50091262196656,,,,,,,,,,,,,,,,,,,,,,,,,,,,,,,,,,,,,,,,,,,,,,,,,,,,,,,,,,,,,,,,,,40967,2022-11-29_14h06.59.574,vts_reward_expectancy_bt_OFFLINE,2022.2.4,59.87532579691902,
0,1,0,0,0,0,0,1,circle,star,0,0,0,0,0,4,4,5,,,,,,,,,,,,,,,,,,,,,,,,,,,,,,,,,,,,,,,,92.00163296994288,92.00163296994288,92.00163296994288,92.00163296994288,92.00163296994288,92.00163296994288,92.00163296994288,92.00163296994288,92.00163296994288,92.00163296994288,a,0.6784591870382428,1,14,0,92.70230174693279,,94.20412845397368,,,,,,,,,,,,,,,,,,,,,,,,,,,,,,,,,,,,,,,,,,,,,,,,,,,,,,,,,,,,,,,,,,40967,2022-11-29_14h06.59.574,vts_reward_expectancy_bt_OFFLINE,2022.2.4,59.87532579691902,
0,0,1,0,1,0,0,0,hexagon,triangle,0,0,0,0,0,5,5,6,,,,,,,,,,,,,,,,,,,,,,,,,,,,,,,,,,,,,,,,94.70457953796722,94.70457953796722,94.70457953796722,94.70457953796722,94.70457953796722,94.70457953796722,94.70457953796722,94.70457953796722,94.70457953796722,94.70457953796722,a,1.3524235499789938,10,24,0,96.08955302997492,,97.59093285200652,,,,,,,,,,,,,,,,,,,,,,,,,,,,,,,,,,,,,,,,,,,,,,,,,,,,,,,,,,,,,,,,,,40967,2022-11-29_14h06.59.574,vts_reward_expectancy_bt_OFFLINE,2022.2.4,59.87532579691902,
1,0,0,0,0,1,0,0,triangle,circle,0,0,0,0,0,6,6,0,,,,,,,,,,,,,,,,,,,,,,,,,,,,,,,,,,,,,,,,98.0915390580194,98.0915390580194,98.0915390580194,98.0915390580194,98.0915390580194,98.0915390580194,98.0915390580194,98.0915390580194,98.0915390580194,98.0915390580194,l,0.6987619230058044,1,25,0,98.80905725993216,,100.3106094119139,,,,,,,,,,,,,,,,,,,,,,,,,,,,,,,,,,,,,,,,,,,,,,,,,,,,,,,,,,,,,,,,,,40967,2022-11-29_14h06.59.574,vts_reward_expectancy_bt_OFFLINE,2022.2.4,59.87532579691902,
0,1,0,0,1,0,0,0,circle,triangle,0,0,0,0,0,7,7,3,,,,,,,,,,,,,,,,,,,,,,,,,,,,,,,,,,,,,,,,100.81122822698671,100.81122822698671,100.81122822698671,100.81122822698671,100.81122822698671,100.81122822698671,100.81122822698671,100.81122822698671,100.81122822698671,100.81122822698671,l,0.83548532507848,10,35,0,101.67899267200846,,103.18060544400942,,,,,,,,,,,,,,,,,,,,,,,,,,,,,,,,,,,,,,,,,,,,,,,,,,,,,,,,,,,,,,,,,,40967,2022-11-29_14h06.59.574,vts_reward_expectancy_bt_OFFLINE,2022.2.4,59.87532579691902,
1,0,0,0,0,0,1,0,triangle,hexagon,0,0,0,0,0,8,8,1,,,,,,,,,,,,,,,,,,,,,,,,,,,,,,,,,,,,,,,,103.68112972693052,103.68112972693052,103.68112972693052,103.68112972693052,103.68112972693052,103.68112972693052,103.68112972693052,103.68112972693052,103.68112972693052,103.68112972693052,l,0.5759225500514731,10,45,0,104.28180154901929,,105.78341176791582,,,,,,,,,,,,,,,,,,,,,,,,,,,,,,,,,,,,,,,,,,,,,,,,,,,,,,,,,,,,,,,,,,40967,2022-11-29_14h06.59.574,vts_reward_expectancy_bt_OFFLINE,2022.2.4,59.87532579691902,
0,1,0,0,0,0,1,0,circle,hexagon,0,0,0,0,0,9,9,4,,,,,,,,,,,,,,,,,,,,,,,,,,,,,,,,,,,,,,,,106.28397113701794,106.28397113701794,106.28397113701794,106.28397113701794,106.28397113701794,106.28397113701794,106.28397113701794,106.28397113701794,106.28397113701794,106.28397113701794,l,1.1357075350824744,1,46,0,107.45200369891245,,108.95349961798638,,,,,,,,,,,,,,,,,,,,,,,,,,,,,,,,,,,,,,,,,,,,,,,,,,,,,,,,,,,,,,,,,,40967,2022-11-29_14h06.59.574,vts_reward_expectancy_bt_OFFLINE,2022.2.4,59.87532579691902,
0,0,1,0,0,0,0,1,hexagon,star,0,0,0,0,0,10,10,8,,,,,,,,,,,,,,,,,,,,,,,,,,,,,,,,,,,,,,,,109.4542188179912,109.4542188179912,109.4542188179912,109.4542188179912,109.4542188179912,109.4542188179912,109.4542188179912,109.4542188179912,109.4542188179912,109.4542188179912,a,0.8010818251641467,10,56,0,110.27176445792429,111.77325072395615,111.77325072395615,,,,,,,,,,,,,,,,,,,,,,,,,,,,,,,,,,,,,,,,,,,,,,,,,,,,,,,,,,,,,,,,,,40967,2022-11-29_14h06.59.574,vts_reward_expectancy_bt_OFFLINE,2022.2.4,59.87532579691902,
0,0,0,1,0,0,1,0,star,hexagon,0,0,0,0,0,11,11,11,,,,,,,,,,,,,,,,,,,,,,,,,,,,,,,,,,,,,,,,112.27389622293413,112.27389622293413,112.27389622293413,112.27389622293413,112.27389622293413,112.27389622293413,112.27389622293413,112.27389622293413,112.27389622293413,112.27389622293413,l,1.0748923901701346,10,66,0,113.37505555397365,,114.87672871898394,,,,,,,,,,,,,,,,,,,,,,,,,,,,,,,,,,,,,,,,,,,,,,,,,,,,,,,,,,,,,,,,,,40967,2022-11-29_14h06.59.574,vts_reward_expectancy_bt_OFFLINE,2022.2.4,59.87532579691902,
0,0,1,0,0,0,0,1,hexagon,star,0,0,0,0,1,0,12,8,,,,,,,,,,,,,,,,,,,,,,,,,,,,,,,,,,,,,,,,115.37729714496527,115.37729714496527,115.37729714496527,115.37729714496527,115.37729714496527,115.37729714496527,115.37729714496527,115.37729714496527,115.37729714496527,115.37729714496527,a,0.6595079390099272,10,76,0,116.0614103639964,,117.56325787992682,,,,,,,,,,,,,,,,,,,,,,,,,,,,,,,,,,,,,,,,,,,,,,,,,,,,,,,,,,,,,,,,,,40967,2022-11-29_14h06.59.574,vts_reward_expectancy_bt_OFFLINE,2022.2.4,59.87532579691902,
0,0,0,1,0,1,0,0,star ,circle,0,0,0,0,1,1,13,10,,,,,,,,,,,,,,,,,,,,,,,,,,,,,,,,,,,,,,,,118.06370420695748,118.06370420695748,118.06370420695748,118.06370420695748,118.06370420695748,118.06370420695748,118.06370420695748,118.06370420695748,118.06370420695748,118.06370420695748,l,0.9773413941729814,1,77,0,119.06492490891833,,120.56652821996249,,,,,,,,,,,,,,,,,,,,,,,,,,,,,,,,,,,,,,,,,,,,,,,,,,,,,,,,,,,,,,,,,,40967,2022-11-29_14h06.59.574,vts_reward_expectancy_bt_OFFLINE,2022.2.4,59.87532579691902,
0,1,0,0,1,0,0,0,circle,triangle,0,0,0,0,1,2,14,3,,,,,,,,,,,,,,,,,,,,,,,,,,,,,,,,,,,,,,,,121.06687036401127,121.06687036401127,121.06687036401127,121.06687036401127,121.06687036401127,121.06687036401127,121.06687036401127,121.06687036401127,121.06687036401127,121.06687036401127,l,0.9210927040548995,10,87,0,122.01809125195723,,123.51983603893314,,,,,,,,,,,,,,,,,,,,,,,,,,,,,,,,,,,,,,,,,,,,,,,,,,,,,,,,,,,,,,,,,,40967,2022-11-29_14h06.59.574,vts_reward_expectancy_bt_OFFLINE,2022.2.4,59.87532579691902,
0,1,0,0,0,0,1,0,circle,hexagon,0,0,0,0,1,3,15,4,,,,,,,,,,,,,,,,,,,,,,,,,,,,,,,,,,,,,,,,124.02017259795684,124.02017259795684,124.02017259795684,124.02017259795684,124.02017259795684,124.02017259795684,124.02017259795684,124.02017259795684,124.02017259795684,124.02017259795684,l,0.5013656760565937,10,97,0,124.55410862900317,,126.05597806291189,,,,,,,,,,,,,,,,,,,,,,,,,,,,,,,,,,,,,,,,,,,,,,,,,,,,,,,,,,,,,,,,,,40967,2022-11-29_14h06.59.574,vts_reward_expectancy_bt_OFFLINE,2022.2.4,59.87532579691902,
0,0,1,0,1,0,0,0,hexagon,triangle,0,0,0,0,1,4,16,6,,,,,,,,,,,,,,,,,,,,,,,,,,,,,,,,,,,,,,,,126.55646149197128,126.55646149197128,126.55646149197128,126.55646149197128,126.55646149197128,126.55646149197128,126.55646149197128,126.55646149197128,126.55646149197128,126.55646149197128,l,0.4849352780729532,10,107,0,127.0735482450109,,128.57523913891055,,,,,,,,,,,,,,,,,,,,,,,,,,,,,,,,,,,,,,,,,,,,,,,,,,,,,,,,,,,,,,,,,,40967,2022-11-29_14h06.59.574,vts_reward_expectancy_bt_OFFLINE,2022.2.4,59.87532579691902,
0,0,0,1,0,0,1,0,star,hexagon,0,0,0,0,1,5,17,11,,,,,,,,,,,,,,,,,,,,,,,,,,,,,,,,,,,,,,,,129.07580806897022,129.07580806897022,129.07580806897022,129.07580806897022,129.07580806897022,129.07580806897022,129.07580806897022,129.07580806897022,129.07580806897022,129.07580806897022,l,0.7426119201118127,10,117,0,129.84325571893714,,131.34493295196444,,,,,,,,,,,,,,,,,,,,,,,,,,,,,,,,,,,,,,,,,,,,,,,,,,,,,,,,,,,,,,,,,,40967,2022-11-29_14h06.59.574,vts_reward_expectancy_bt_OFFLINE,2022.2.4,59.87532579691902,
1,0,0,0,0,0,0,1,triangle,star,0,0,0,0,1,6,18,2,,,,,,,,,,,,,,,,,,,,,,,,,,,,,,,,,,,,,,,,131.84546472691,131.84546472691,131.84546472691,131.84546472691,131.84546472691,131.84546472691,131.84546472691,131.84546472691,131.84546472691,131.84546472691,a,0.5517438850365579,1,118,0,132.42955179000273,,133.9310549829388,,,,,,,,,,,,,,,,,,,,,,,,,,,,,,,,,,,,,,,,,,,,,,,,,,,,,,,,,,,,,,,,,,40967,2022-11-29_14h06.59.574,vts_reward_expectancy_bt_OFFLINE,2022.2.4,59.87532579691902,
1,0,0,0,0,0,1,0,triangle,hexagon,0,0,0,0,1,7,19,1,,,,,,,,,,,,,,,,,,,,,,,,,,,,,,,,,,,,,,,,134.43177826795727,134.43177826795727,134.43177826795727,134.43177826795727,134.43177826795727,134.43177826795727,134.43177826795727,134.43177826795727,134.43177826795727,134.43177826795727,l,0.6184044791152701,10,128,0,135.08236987993587,,136.58411176898517,,,,,,,,,,,,,,,,,,,,,,,,,,,,,,,,,,,,,,,,,,,,,,,,,,,,,,,,,,,,,,,,,,40967,2022-11-29_14h06.59.574,vts_reward_expectancy_bt_OFFLINE,2022.2.4,59.87532579691902,
0,1,0,0,0,0,0,1,circle,star,0,0,0,0,1,8,20,5,,,,,,,,,,,,,,,,,,,,,,,,,,,,,,,,,,,,,,,,137.08457167400047,137.08457167400047,137.08457167400047,137.08457167400047,137.08457167400047,137.08457167400047,137.08457167400047,137.08457167400047,137.08457167400047,137.08457167400047,a,0.6099260800983757,1,129,0,137.7186632619705,,139.22027319401968,,,,,,,,,,,,,,,,,,,,,,,,,,,,,,,,,,,,,,,,,,,,,,,,,,,,,,,,,,,,,,,,,,40967,2022-11-29_14h06.59.574,vts_reward_expectancy_bt_OFFLINE,2022.2.4,59.87532579691902,
1,0,0,0,0,1,0,0,triangle,circle,0,0,0,0,1,9,21,0,,,,,,,,,,,,,,,,,,,,,,,,,,,,,,,,,,,,,,,,139.72073503700085,139.72073503700085,139.72073503700085,139.72073503700085,139.72073503700085,139.72073503700085,139.72073503700085,139.72073503700085,139.72073503700085,139.72073503700085,a,0.7296541881514713,10,139,0,140.47151269495953,,141.97319289902225,,,,,,,,,,,,,,,,,,,,,,,,,,,,,,,,,,,,,,,,,,,,,,,,,,,,,,,,,,,,,,,,,,40967,2022-11-29_14h06.59.574,vts_reward_expectancy_bt_OFFLINE,2022.2.4,59.87532579691902,
0,0,0,1,1,0,0,0,star,triangle,0,0,0,0,1,10,22,9,,,,,,,,,,,,,,,,,,,,,,,,,,,,,,,,,,,,,,,,142.47395794000477,142.47395794000477,142.47395794000477,142.47395794000477,142.47395794000477,142.47395794000477,142.47395794000477,142.47395794000477,142.47395794000477,142.47395794000477,a,0.4861339310882613,1,140,0,142.9911869399948,144.4926823589485,144.4926823589485,,,,,,,,,,,,,,,,,,,,,,,,,,,,,,,,,,,,,,,,,,,,,,,,,,,,,,,,,,,,,,,,,,40967,2022-11-29_14h06.59.574,vts_reward_expectancy_bt_OFFLINE,2022.2.4,59.87532579691902,
0,0,1,0,0,1,0,0,hexagon,circle,0,0,0,0,1,11,23,7,,,,,,,,,,,,,,,,,,,,,,,,,,,,,,,,,,,,,,,,144.9933226479916,144.9933226479916,144.9933226479916,144.9933226479916,144.9933226479916,144.9933226479916,144.9933226479916,144.9933226479916,144.9933226479916,144.9933226479916,a,0.635077296057716,10,150,0,145.66079320001882,,147.162346286932,,,,,,,,,,,,,,,,,,,,,,,,,,,,,,,,,,,,,,,,,,,,,,,,,,,,,,,,,,,,,,,,,,40967,2022-11-29_14h06.59.574,vts_reward_expectancy_bt_OFFLINE,2022.2.4,59.87532579691902,
1,0,0,0,0,0,0,1,triangle,star,0,0,0,0,2,0,24,2,,,,,,,,,,,,,,,,,,,,,,,,,,,,,,,,,,,,,,,,147.66299829795025,147.66299829795025,147.66299829795025,147.66299829795025,147.66299829795025,147.66299829795025,147.66299829795025,147.66299829795025,147.66299829795025,147.66299829795025,l,0.7315193640533835,1,151,0,148.41373952000868,,149.91535857191775,,,,,,,,,,,,,,,,,,,,,,,,,,,,,,,,,,,,,,,,,,,,,,,,,,,,,,,,,,,,,,,,,,40967,2022-11-29_14h06.59.574,vts_reward_expectancy_bt_OFFLINE,2022.2.4,59.87532579691902,
0,0,0,1,1,0,0,0,star,triangle,0,0,0,0,2,1,25,9,,,,,,,,,,,,,,,,,,,,,,,,,,,,,,,,,,,,,,,,150.41600739397109,150.41600739397109,150.41600739397109,150.41600739397109,150.41600739397109,150.41600739397109,150.41600739397109,150.41600739397109,150.41600739397109,150.41600739397109,l,0.5878553000511602,10,161,0,151.03328703192528,,152.53496251197066,,,,,,,,,,,,,,,,,,,,,,,,,,,,,,,,,,,,,,,,,,,,,,,,,,,,,,,,,,,,,,,,,,40967,2022-11-29_14h06.59.574,vts_reward_expectancy_bt_OFFLINE,2022.2.4,59.87532579691902,
0,0,1,0,1,0,0,0,hexagon,triangle,0,0,0,0,2,2,26,6,,,,,,,,,,,,,,,,,,,,,,,,,,,,,,,,,,,,,,,,153.0356900349725,153.0356900349725,153.0356900349725,153.0356900349725,153.0356900349725,153.0356900349725,153.0356900349725,153.0356900349725,153.0356900349725,153.0356900349725,a,0.8032347240950912,10,171,0,153.86985347699374,,155.3713757849764,,,,,,,,,,,,,,,,,,,,,,,,,,,,,,,,,,,,,,,,,,,,,,,,,,,,,,,,,,,,,,,,,,40967,2022-11-29_14h06.59.574,vts_reward_expectancy_bt_OFFLINE,2022.2.4,59.87532579691902,
1,0,0,0,0,0,1,0,triangle,hexagon,0,0,0,0,2,3,27,1,,,,,,,,,,,,,,,,,,,,,,,,,,,,,,,,,,,,,,,,155.87194326496683,155.87194326496683,155.87194326496683,155.87194326496683,155.87194326496683,155.87194326496683,155.87194326496683,155.87194326496683,155.87194326496683,155.87194326496683,l,0.5549365660408512,10,181,0,156.45603383996058,,157.9577082169708,,,,,,,,,,,,,,,,,,,,,,,,,,,,,,,,,,,,,,,,,,,,,,,,,,,,,,,,,,,,,,,,,,40967,2022-11-29_14h06.59.574,vts_reward_expectancy_bt_OFFLINE,2022.2.4,59.87532579691902,
1,0,0,0,0,1,0,0,triangle,circle,0,0,0,0,2,4,28,0,,,,,,,,,,,,,,,,,,,,,,,,,,,,,,,,,,,,,,,,158.45811218197923,158.45811218197923,158.45811218197923,158.45811218197923,158.45811218197923,158.45811218197923,158.45811218197923,158.45811218197923,158.45811218197923,158.45811218197923,a,0.5582586580421776,10,191,0,159.0422920769779,,160.54377132898662,,,,,,,,,,,,,,,,,,,,,,,,,,,,,,,,,,,,,,,,,,,,,,,,,,,,,,,,,,,,,,,,,,40967,2022-11-29_14h06.59.574,vts_reward_expectancy_bt_OFFLINE,2022.2.4,59.87532579691902,
0,0,1,0,0,1,0,0,hexagon,circle,0,0,0,0,2,5,29,7,,,,,,,,,,,,,,,,,,,,,,,,,,,,,,,,,,,,,,,,161.04446586791892,161.04446586791892,161.04446586791892,161.04446586791892,161.04446586791892,161.04446586791892,161.04446586791892,161.04446586791892,161.04446586791892,161.04446586791892,a,0.6024520740611479,1,192,0,161.67830771394074,,163.18008143699262,,,,,,,,,,,,,,,,,,,,,,,,,,,,,,,,,,,,,,,,,,,,,,,,,,,,,,,,,,,,,,,,,,40967,2022-11-29_14h06.59.574,vts_reward_expectancy_bt_OFFLINE,2022.2.4,59.87532579691902,
0,0,1,0,0,0,0,1,hexagon,star,0,0,0,0,2,6,30,8,,,,,,,,,,,,,,,,,,,,,,,,,,,,,,,,,,,,,,,,163.68059306696523,163.68059306696523,163.68059306696523,163.68059306696523,163.68059306696523,163.68059306696523,163.68059306696523,163.68059306696523,163.68059306696523,163.68059306696523,a,0.9153693130938336,1,193,0,164.6149133349536,,166.11661575792823,,,,,,,,,,,,,,,,,,,,,,,,,,,,,,,,,,,,,,,,,,,,,,,,,,,,,,,,,,,,,,,,,,40967,2022-11-29_14h06.59.574,vts_reward_expectancy_bt_OFFLINE,2022.2.4,59.87532579691902,
0,0,0,1,0,1,0,0,star ,circle,0,0,0,0,2,7,31,10,,,,,,,,,,,,,,,,,,,,,,,,,,,,,,,,,,,,,,,,166.61721024895087,166.61721024895087,166.61721024895087,166.61721024895087,166.61721024895087,166.61721024895087,166.61721024895087,166.61721024895087,166.61721024895087,166.61721024895087,l,0.5772982310736552,1,194,0,167.21788886399008,,168.71941894700285,,,,,,,,,,,,,,,,,,,,,,,,,,,,,,,,,,,,,,,,,,,,,,,,,,,,,,,,,,,,,,,,,,40967,2022-11-29_14h06.59.574,vts_reward_expectancy_bt_OFFLINE,2022.2.4,59.87532579691902,
0,1,0,0,1,0,0,0,circle,triangle,0,0,0,0,2,8,32,3,,,,,,,,,,,,,,,,,,,,,,,,,,,,,,,,,,,,,,,,169.22012320894282,169.22012320894282,169.22012320894282,169.22012320894282,169.22012320894282,169.22012320894282,169.22012320894282,169.22012320894282,169.22012320894282,169.22012320894282,l,1.6432336160214618,10,204,0,170.8884650389664,,172.39017973397858,,,,,,,,,,,,,,,,,,,,,,,,,,,,,,,,,,,,,,,,,,,,,,,,,,,,,,,,,,,,,,,,,,40967,2022-11-29_14h06.59.574,vts_reward_expectancy_bt_OFFLINE,2022.2.4,59.87532579691902,
0,0,0,1,0,0,1,0,star,hexagon,0,0,0,0,2,9,33,11,,,,,,,,,,,,,,,,,,,,,,,,,,,,,,,,,,,,,,,,172.89079670398496,172.89079670398496,172.89079670398496,172.89079670398496,172.89079670398496,172.89079670398496,172.89079670398496,172.89079670398496,172.89079670398496,172.89079670398496,l,0.8413500171154737,10,214,0,173.75855648494326,,175.26012425299268,,,,,,,,,,,,,,,,,,,,,,,,,,,,,,,,,,,,,,,,,,,,,,,,,,,,,,,,,,,,,,,,,,40967,2022-11-29_14h06.59.574,vts_reward_expectancy_bt_OFFLINE,2022.2.4,59.87532579691902,
0,1,0,0,0,0,0,1,circle,star,0,0,0,0,2,10,34,5,,,,,,,,,,,,,,,,,,,,,,,,,,,,,,,,,,,,,,,,175.76052524498664,175.76052524498664,175.76052524498664,175.76052524498664,175.76052524498664,175.76052524498664,175.76052524498664,175.76052524498664,175.76052524498664,175.76052524498664,l,0.8517098420998082,1,215,0,176.64506544696633,,178.14669777301606,,,,,,,,,,,,,,,,,,,,,,,,,,,,,,,,,,,,,,,,,,,,,,,,,,,,,,,,,,,,,,,,,,40967,2022-11-29_14h06.59.574,vts_reward_expectancy_bt_OFFLINE,2022.2.4,59.87532579691902,
0,1,0,0,0,0,1,0,circle,hexagon,0,0,0,0,2,11,35,4,,,,,,,,,,,,,,,,,,,,,,,,,,,,,,,,,,,,,,,,178.64723806199618,178.64723806199618,178.64723806199618,178.64723806199618,178.64723806199618,178.64723806199618,178.64723806199618,178.64723806199618,178.64723806199618,178.64723806199618,l,0.6758652291027829,10,225,0,179.3480799079407,,180.84975626692176,,,,,,,,,,,,,,,,,,,,,,,,,,,,,,,,,,,,,,,,,,,,,,,,,,,,,,,,,,,,,,,,,,40967,2022-11-29_14h06.59.574,vts_reward_expectancy_bt_OFFLINE,2022.2.4,59.87532579691902,
0,1,0,0,0,0,1,0,circle,hexagon,0,0,0,0,3,0,36,4,,,,,,,,,,,,,,,,,,,,,,,,,,,,,,,,,,,,,,,,181.35035263292957,181.35035263292957,181.35035263292957,181.35035263292957,181.35035263292957,181.35035263292957,181.35035263292957,181.35035263292957,181.35035263292957,181.35035263292957,l,0.6267170291393995,10,235,0,182.00079939491116,,183.50252371199895,,,,,,,,,,,,,,,,,,,,,,,,,,,,,,,,,,,,,,,,,,,,,,,,,,,,,,,,,,,,,,,,,,40967,2022-11-29_14h06.59.574,vts_reward_expectancy_bt_OFFLINE,2022.2.4,59.87532579691902,
0,1,0,0,1,0,0,0,circle,triangle,0,0,0,0,3,1,37,3,,,,,,,,,,,,,,,,,,,,,,,,,,,,,,,,,,,,,,,,184.00301186495926,184.00301186495926,184.00301186495926,184.00301186495926,184.00301186495926,184.00301186495926,184.00301186495926,184.00301186495926,184.00301186495926,184.00301186495926,l,0.6292478151153773,10,245,0,184.65370339492802,,186.15549778891727,,,,,,,,,,,,,,,,,,,,,,,,,,,,,,,,,,,,,,,,,,,,,,,,,,,,,,,,,,,,,,,,,,40967,2022-11-29_14h06.59.574,vts_reward_expectancy_bt_OFFLINE,2022.2.4,59.87532579691902,
0,0,1,0,1,0,0,0,hexagon,triangle,0,0,0,0,3,2,38,6,,,,,,,,,,,,,,,,,,,,,,,,,,,,,,,,,,,,,,,,186.65585310198367,186.65585310198367,186.65585310198367,186.65585310198367,186.65585310198367,186.65585310198367,186.65585310198367,186.65585310198367,186.65585310198367,186.65585310198367,l,0.40827730007003993,1,246,0,187.08989108493552,,188.59157101390883,,,,,,,,,,,,,,,,,,,,,,,,,,,,,,,,,,,,,,,,,,,,,,,,,,,,,,,,,,,,,,,,,,40967,2022-11-29_14h06.59.574,vts_reward_expectancy_bt_OFFLINE,2022.2.4,59.87532579691902,
0,0,0,1,1,0,0,0,star,triangle,0,0,0,0,3,3,39,9,,,,,,,,,,,,,,,,,,,,,,,,,,,,,,,,,,,,,,,,189.09210911300033,189.09210911300033,189.09210911300033,189.09210911300033,189.09210911300033,189.09210911300033,189.09210911300033,189.09210911300033,189.09210911300033,189.09210911300033,l,0.5145882411161438,1,247,0,189.626005367958,,191.12764009297825,,,,,,,,,,,,,,,,,,,,,,,,,,,,,,,,,,,,,,,,,,,,,,,,,,,,,,,,,,,,,,,,,,40967,2022-11-29_14h06.59.574,vts_reward_expectancy_bt_OFFLINE,2022.2.4,59.87532579691902,
0,0,0,1,0,0,1,0,star,hexagon,0,0,0,0,3,4,40,11,,,,,,,,,,,,,,,,,,,,,,,,,,,,,,,,,,,,,,,,191.62799311697017,191.62799311697017,191.62799311697017,191.62799311697017,191.62799311697017,191.62799311697017,191.62799311697017,191.62799311697017,191.62799311697017,191.62799311697017,l,0.6011616570176557,10,257,0,192.2454318399541,193.74709410395008,193.74709410395008,,,,,,,,,,,,,,,,,,,,,,,,,,,,,,,,,,,,,,,,,,,,,,,,,,,,,,,,,,,,,,,,,,40967,2022-11-29_14h06.59.574,vts_reward_expectancy_bt_OFFLINE,2022.2.4,59.87532579691902,
0,0,1,0,0,0,0,1,hexagon,star,0,0,0,0,3,5,41,8,,,,,,,,,,,,,,,,,,,,,,,,,,,,,,,,,,,,,,,,194.24760781496298,194.24760781496298,194.24760781496298,194.24760781496298,194.24760781496298,194.24760781496298,194.24760781496298,194.24760781496298,194.24760781496298,194.24760781496298,a,0.5684540061047301,10,267,0,194.8484103520168,,196.35008693498094,,,,,,,,,,,,,,,,,,,,,,,,,,,,,,,,,,,,,,,,,,,,,,,,,,,,,,,,,,,,,,,,,,40967,2022-11-29_14h06.59.574,vts_reward_expectancy_bt_OFFLINE,2022.2.4,59.87532579691902,
1,0,0,0,0,1,0,0,triangle,circle,0,0,0,0,3,6,42,0,,,,,,,,,,,,,,,,,,,,,,,,,,,,,,,,,,,,,,,,196.85052114201244,196.85052114201244,196.85052114201244,196.85052114201244,196.85052114201244,196.85052114201244,196.85052114201244,196.85052114201244,196.85052114201244,196.85052114201244,a,0.47508132504299283,10,277,0,197.35109737992752,,198.85275576391723,,,,,,,,,,,,,,,,,,,,,,,,,,,,,,,,,,,,,,,,,,,,,,,,,,,,,,,,,,,,,,,,,,40967,2022-11-29_14h06.59.574,vts_reward_expectancy_bt_OFFLINE,2022.2.4,59.87532579691902,
1,0,0,0,0,0,0,1,triangle,star,0,0,0,0,3,7,43,2,,,,,,,,,,,,,,,,,,,,,,,,,,,,,,,,,,,,,,,,199.35319857194554,199.35319857194554,199.35319857194554,199.35319857194554,199.35319857194554,199.35319857194554,199.35319857194554,199.35319857194554,199.35319857194554,199.35319857194554,a,0.6595484960125759,10,287,0,200.03736346797086,,201.5389621539507,,,,,,,,,,,,,,,,,,,,,,,,,,,,,,,,,,,,,,,,,,,,,,,,,,,,,,,,,,,,,,,,,,40967,2022-11-29_14h06.59.574,vts_reward_expectancy_bt_OFFLINE,2022.2.4,59.87532579691902,
1,0,0,0,0,0,1,0,triangle,hexagon,0,0,0,0,3,8,44,1,,,,,,,,,,,,,,,,,,,,,,,,,,,,,,,,,,,,,,,,202.0395802470157,202.0395802470157,202.0395802470157,202.0395802470157,202.0395802470157,202.0395802470157,202.0395802470157,202.0395802470157,202.0395802470157,202.0395802470157,l,0.5380224990658462,1,288,0,202.60694844194222,,204.1083448129939,,,,,,,,,,,,,,,,,,,,,,,,,,,,,,,,,,,,,,,,,,,,,,,,,,,,,,,,,,,,,,,,,,40967,2022-11-29_14h06.59.574,vts_reward_expectancy_bt_OFFLINE,2022.2.4,59.87532579691902,
0,1,0,0,0,0,0,1,circle,star,0,0,0,0,3,9,45,5,,,,,,,,,,,,,,,,,,,,,,,,,,,,,,,,,,,,,,,,204.6089826169191,204.6089826169191,204.6089826169191,204.6089826169191,204.6089826169191,204.6089826169191,204.6089826169191,204.6089826169191,204.6089826169191,204.6089826169191,l,0.9955418240278959,1,289,0,205.62697118800133,,207.12857883493416,,,,,,,,,,,,,,,,,,,,,,,,,,,,,,,,,,,,,,,,,,,,,,,,,,,,,,,,,,,,,,,,,,40967,2022-11-29_14h06.59.574,vts_reward_expectancy_bt_OFFLINE,2022.2.4,59.87532579691902,
0,0,1,0,0,1,0,0,hexagon,circle,0,0,0,0,3,10,46,7,,,,,,,,,,,,,,,,,,,,,,,,,,,,,,,,,,,,,,,,207.62909830198623,207.62909830198623,207.62909830198623,207.62909830198623,207.62909830198623,207.62909830198623,207.62909830198623,207.62909830198623,207.62909830198623,207.62909830198623,a,0.6530029240529984,10,299,0,208.31304663501214,,209.81472295697313,,,,,,,,,,,,,,,,,,,,,,,,,,,,,,,,,,,,,,,,,,,,,,,,,,,,,,,,,,,,,,,,,,40967,2022-11-29_14h06.59.574,vts_reward_expectancy_bt_OFFLINE,2022.2.4,59.87532579691902,
0,0,0,1,0,1,0,0,star ,circle,0,0,0,0,3,11,47,10,,,,,,,,,,,,,,,,,,,,,,,,,,,,,,,,,,,,,,,,210.31530590192415,210.31530590192415,210.31530590192415,210.31530590192415,210.31530590192415,210.31530590192415,210.31530590192415,210.31530590192415,210.31530590192415,210.31530590192415,l,0.8019204260781407,1,300,0,211.14957302901894,,212.6514800050063,,,,,,,,,,,,,,,,,,,,,,,,,,,,,,,,,,,,,,,,,,,,,,,,,,,,,,,,,,,,,,,,,,40967,2022-11-29_14h06.59.574,vts_reward_expectancy_bt_OFFLINE,2022.2.4,59.87532579691902,
1,0,0,0,0,1,0,0,triangle,circle,1,0,1,0,0,0,0,0,,,,,,,,,,,,,,,,,,,,,,,,,,,,,,,,,,,,,,,,271.86658940196503,271.86658940196503,271.86658940196503,271.86658940196503,271.86658940196503,271.86658940196503,271.86658940196503,271.86658940196503,271.86658940196503,271.86658940196503,a,1.1642348560271785,10,310,1,273.0513321469771,274.5528325489722,274.5528325489722,,,,,,,,,,,,,,,,,,,,,,,,,,,,,,,,,,,,,,,,,,,,,,,,,,,,,,,,,,,,,,,,,,40967,2022-11-29_14h06.59.574,vts_reward_expectancy_bt_OFFLINE,2022.2.4,59.87532579691902,
0,0,1,0,1,0,0,0,hexagon,triangle,1,0,1,0,0,1,1,6,,,,,,,,,,,,,,,,,,,,,,,,,,,,,,,,,,,,,,,,275.05347148492,275.05347148492,275.05347148492,275.05347148492,275.05347148492,275.05347148492,275.05347148492,275.05347148492,275.05347148492,275.05347148492,a,0.9818407241255045,10,320,1,276.0545705839759,,277.55627403897233,,,,,,,,,,,,,,,,,,,,,,,,,,,,,,,,,,,,,,,,,,,,,,,,,,,,,,,,,,,,,,,,,,40967,2022-11-29_14h06.59.574,vts_reward_expectancy_bt_OFFLINE,2022.2.4,59.87532579691902,
0,0,0,1,1,0,0,0,star,triangle,1,0,1,0,0,2,2,9,,,,,,,,,,,,,,,,,,,,,,,,,,,,,,,,,,,,,,,,278.05679111997597,278.05679111997597,278.05679111997597,278.05679111997597,278.05679111997597,278.05679111997597,278.05679111997597,278.05679111997597,278.05679111997597,278.05679111997597,l,0.5431211651302874,1,321,1,278.6239055219339,,280.12567295797635,,,,,,,,,,,,,,,,,,,,,,,,,,,,,,,,,,,,,,,,,,,,,,,,,,,,,,,,,,,,,,,,,,40967,2022-11-29_14h06.59.574,vts_reward_expectancy_bt_OFFLINE,2022.2.4,59.87532579691902,
0,0,0,1,0,0,1,0,star,hexagon,1,0,1,0,0,3,3,11,,,,,,,,,,,,,,,,,,,,,,,,,,,,,,,,,,,,,,,,280.62617031892296,280.62617031892296,280.62617031892296,280.62617031892296,280.62617031892296,280.62617031892296,280.62617031892296,280.62617031892296,280.62617031892296,280.62617031892296,l,0.5946291341679171,1,322,1,281.2437209569616,,282.74542456201743,,,,,,,,,,,,,,,,,,,,,,,,,,,,,,,,,,,,,,,,,,,,,,,,,,,,,,,,,,,,,,,,,,40967,2022-11-29_14h06.59.574,vts_reward_expectancy_bt_OFFLINE,2022.2.4,59.87532579691902,
0,1,0,0,0,0,1,0,circle,hexagon,1,0,1,0,0,4,4,4,,,,,,,,,,,,,,,,,,,,,,,,,,,,,,,,,,,,,,,,283.2458402919583,283.2458402919583,283.2458402919583,283.2458402919583,283.2458402919583,283.2458402919583,283.2458402919583,283.2458402919583,283.2458402919583,283.2458402919583,l,0.5083560050697997,1,323,1,283.7796867589932,,285.28152727195993,,,,,,,,,,,,,,,,,,,,,,,,,,,,,,,,,,,,,,,,,,,,,,,,,,,,,,,,,,,,,,,,,,40967,2022-11-29_14h06.59.574,vts_reward_expectancy_bt_OFFLINE,2022.2.4,59.87532579691902,
0,1,0,0,0,0,0,1,circle,star,1,0,1,0,0,5,5,5,,,,,,,,,,,,,,,,,,,,,,,,,,,,,,,,,,,,,,,,285.7819320539711,285.7819320539711,285.7819320539711,285.7819320539711,285.7819320539711,285.7819320539711,285.7819320539711,285.7819320539711,285.7819320539711,285.7819320539711,a,0.6598476321669295,1,324,1,286.46610647498164,287.967654432985,287.967654432985,,,,,,,,,,,,,,,,,,,,,,,,,,,,,,,,,,,,,,,,,,,,,,,,,,,,,,,,,,,,,,,,,,40967,2022-11-29_14h06.59.574,vts_reward_expectancy_bt_OFFLINE,2022.2.4,59.87532579691902,
0,0,1,0,0,1,0,0,hexagon,circle,1,0,1,0,0,6,6,7,,,,,,,,,,,,,,,,,,,,,,,,,,,,,,,,,,,,,,,,288.46836108493153,288.46836108493153,288.46836108493153,288.46836108493153,288.46836108493153,288.46836108493153,288.46836108493153,288.46836108493153,288.46836108493153,288.46836108493153,a,0.6513333860784769,10,334,1,289.1526296879165,,290.65402392297983,,,,,,,,,,,,,,,,,,,,,,,,,,,,,,,,,,,,,,,,,,,,,,,,,,,,,,,,,,,,,,,,,,40967,2022-11-29_14h06.59.574,vts_reward_expectancy_bt_OFFLINE,2022.2.4,59.87532579691902,
0,0,0,1,0,1,0,0,star ,circle,1,0,1,0,0,7,7,10,,,,,,,,,,,,,,,,,,,,,,,,,,,,,,,,,,,,,,,,291.1547518079169,291.1547518079169,291.1547518079169,291.1547518079169,291.1547518079169,291.1547518079169,291.1547518079169,291.1547518079169,291.1547518079169,291.1547518079169,l,0.9015536610968411,10,344,1,292.089036579011,,293.590728375013,,,,,,,,,,,,,,,,,,,,,,,,,,,,,,,,,,,,,,,,,,,,,,,,,,,,,,,,,,,,,,,,,,40967,2022-11-29_14h06.59.574,vts_reward_expectancy_bt_OFFLINE,2022.2.4,59.87532579691902,
0,0,1,0,0,0,0,1,hexagon,star,1,0,1,0,0,8,8,8,,,,,,,,,,,,,,,,,,,,,,,,,,,,,,,,,,,,,,,,294.0912463419372,294.0912463419372,294.0912463419372,294.0912463419372,294.0912463419372,294.0912463419372,294.0912463419372,294.0912463419372,294.0912463419372,294.0912463419372,a,0.5752821890637279,10,354,1,294.69191981398035,,296.1934787839418,,,,,,,,,,,,,,,,,,,,,,,,,,,,,,,,,,,,,,,,,,,,,,,,,,,,,,,,,,,,,,,,,,40967,2022-11-29_14h06.59.574,vts_reward_expectancy_bt_OFFLINE,2022.2.4,59.87532579691902,
0,1,0,0,1,0,0,0,circle,triangle,1,0,1,0,0,9,9,3,,,,,,,,,,,,,,,,,,,,,,,,,,,,,,,,,,,,,,,,296.69405533000827,296.69405533000827,296.69405533000827,296.69405533000827,296.69405533000827,296.69405533000827,296.69405533000827,296.69405533000827,296.69405533000827,296.69405533000827,l,0.8751427390379831,10,364,1,297.5951217499096,,299.09671186399646,,,,,,,,,,,,,,,,,,,,,,,,,,,,,,,,,,,,,,,,,,,,,,,,,,,,,,,,,,,,,,,,,,40967,2022-11-29_14h06.59.574,vts_reward_expectancy_bt_OFFLINE,2022.2.4,59.87532579691902,
1,0,0,0,0,0,1,0,triangle,hexagon,1,0,1,0,0,10,10,1,,,,,,,,,,,,,,,,,,,,,,,,,,,,,,,,,,,,,,,,299.5972456089221,299.5972456089221,299.5972456089221,299.5972456089221,299.5972456089221,299.5972456089221,299.5972456089221,299.5972456089221,299.5972456089221,299.5972456089221,l,0.8854264960391447,10,374,1,300.515003148932,,302.0167423549574,,,,,,,,,,,,,,,,,,,,,,,,,,,,,,,,,,,,,,,,,,,,,,,,,,,,,,,,,,,,,,,,,,40967,2022-11-29_14h06.59.574,vts_reward_expectancy_bt_OFFLINE,2022.2.4,59.87532579691902,
1,0,0,0,0,0,0,1,triangle,star,1,0,1,0,0,11,11,2,,,,,,,,,,,,,,,,,,,,,,,,,,,,,,,,,,,,,,,,302.5171239239862,302.5171239239862,302.5171239239862,302.5171239239862,302.5171239239862,302.5171239239862,302.5171239239862,302.5171239239862,302.5171239239862,302.5171239239862,a,0.6328909990843385,10,384,1,303.1678279619664,304.66947161697317,304.66947161697317,,,,,,,,,,,,,,,,,,,,,,,,,,,,,,,,,,,,,,,,,,,,,,,,,,,,,,,,,,,,,,,,,,40967,2022-11-29_14h06.59.574,vts_reward_expectancy_bt_OFFLINE,2022.2.4,59.87532579691902,
0,1,0,0,0,0,0,1,circle,star,1,0,1,0,1,0,12,5,,,,,,,,,,,,,,,,,,,,,,,,,,,,,,,,,,,,,,,,305.17002583900467,305.17002583900467,305.17002583900467,305.17002583900467,305.17002583900467,305.17002583900467,305.17002583900467,305.17002583900467,305.17002583900467,305.17002583900467,a,0.5102518610656261,10,394,1,305.7042063239496,,307.2057474569883,,,,,,,,,,,,,,,,,,,,,,,,,,,,,,,,,,,,,,,,,,,,,,,,,,,,,,,,,,,,,,,,,,40967,2022-11-29_14h06.59.574,vts_reward_expectancy_bt_OFFLINE,2022.2.4,59.87532579691902,
0,0,0,1,0,0,1,0,star,hexagon,1,0,1,0,1,1,13,11,,,,,,,,,,,,,,,,,,,,,,,,,,,,,,,,,,,,,,,,307.70611486793496,307.70611486793496,307.70611486793496,307.70611486793496,307.70611486793496,307.70611486793496,307.70611486793496,307.70611486793496,307.70611486793496,307.70611486793496,l,0.5276323590660468,10,404,1,308.25673109292984,,309.75851980398875,,,,,,,,,,,,,,,,,,,,,,,,,,,,,,,,,,,,,,,,,,,,,,,,,,,,,,,,,,,,,,,,,,40967,2022-11-29_14h06.59.574,vts_reward_expectancy_bt_OFFLINE,2022.2.4,59.87532579691902,
0,1,0,0,0,0,1,0,circle,hexagon,1,0,1,0,1,2,14,4,,,,,,,,,,,,,,,,,,,,,,,,,,,,,,,,,,,,,,,,310.25905058393255,310.25905058393255,310.25905058393255,310.25905058393255,310.25905058393255,310.25905058393255,310.25905058393255,310.25905058393255,310.25905058393255,310.25905058393255,l,0.5960270571522415,10,414,1,310.8762336699292,,312.37799790292047,,,,,,,,,,,,,,,,,,,,,,,,,,,,,,,,,,,,,,,,,,,,,,,,,,,,,,,,,,,,,,,,,,40967,2022-11-29_14h06.59.574,vts_reward_expectancy_bt_OFFLINE,2022.2.4,59.87532579691902,
0,0,1,0,0,0,0,1,hexagon,star,1,0,1,0,1,3,15,8,,,,,,,,,,,,,,,,,,,,,,,,,,,,,,,,,,,,,,,,312.8788516349159,312.8788516349159,312.8788516349159,312.8788516349159,312.8788516349159,312.8788516349159,312.8788516349159,312.8788516349159,312.8788516349159,312.8788516349159,a,0.5872625140473247,10,424,1,313.4958280249266,,314.99758264794946,,,,,,,,,,,,,,,,,,,,,,,,,,,,,,,,,,,,,,,,,,,,,,,,,,,,,,,,,,,,,,,,,,40967,2022-11-29_14h06.59.574,vts_reward_expectancy_bt_OFFLINE,2022.2.4,59.87532579691902,
0,0,0,1,0,1,0,0,star ,circle,1,0,1,0,1,4,16,10,,,,,,,,,,,,,,,,,,,,,,,,,,,,,,,,,,,,,,,,315.4983246299671,315.4983246299671,315.4983246299671,315.4983246299671,315.4983246299671,315.4983246299671,315.4983246299671,315.4983246299671,315.4983246299671,315.4983246299671,l,0.5547105690930039,1,425,1,316.0822756639682,,317.58389339898713,,,,,,,,,,,,,,,,,,,,,,,,,,,,,,,,,,,,,,,,,,,,,,,,,,,,,,,,,,,,,,,,,,40967,2022-11-29_14h06.59.574,vts_reward_expectancy_bt_OFFLINE,2022.2.4,59.87532579691902,
1,0,0,0,0,0,1,0,triangle,hexagon,1,0,1,0,1,5,17,1,,,,,,,,,,,,,,,,,,,,,,,,,,,,,,,,,,,,,,,,318.08424287999514,318.08424287999514,318.08424287999514,318.08424287999514,318.08424287999514,318.08424287999514,318.08424287999514,318.08424287999514,318.08424287999514,318.08424287999514,l,0.8509702880401164,10,435,1,318.9519255339401,320.45349180395715,320.45349180395715,,,,,,,,,,,,,,,,,,,,,,,,,,,,,,,,,,,,,,,,,,,,,,,,,,,,,,,,,,,,,,,,,,40967,2022-11-29_14h06.59.574,vts_reward_expectancy_bt_OFFLINE,2022.2.4,59.87532579691902,
0,0,1,0,0,1,0,0,hexagon,circle,1,0,1,0,1,6,18,7,,,,,,,,,,,,,,,,,,,,,,,,,,,,,,,,,,,,,,,,320.9541260449914,320.9541260449914,320.9541260449914,320.9541260449914,320.9541260449914,320.9541260449914,320.9541260449914,320.9541260449914,320.9541260449914,320.9541260449914,a,0.6256113700801507,10,445,1,321.6049574139761,,323.1065454969648,,,,,,,,,,,,,,,,,,,,,,,,,,,,,,,,,,,,,,,,,,,,,,,,,,,,,,,,,,,,,,,,,,40967,2022-11-29_14h06.59.574,vts_reward_expectancy_bt_OFFLINE,2022.2.4,59.87532579691902,
0,1,0,0,1,0,0,0,circle,triangle,1,0,1,0,1,7,19,3,,,,,,,,,,,,,,,,,,,,,,,,,,,,,,,,,,,,,,,,323.6072703199461,323.6072703199461,323.6072703199461,323.6072703199461,323.6072703199461,323.6072703199461,323.6072703199461,323.6072703199461,323.6072703199461,323.6072703199461,l,0.6598754400620237,10,455,1,324.29132475994993,,325.79296201397665,,,,,,,,,,,,,,,,,,,,,,,,,,,,,,,,,,,,,,,,,,,,,,,,,,,,,,,,,,,,,,,,,,40967,2022-11-29_14h06.59.574,vts_reward_expectancy_bt_OFFLINE,2022.2.4,59.87532579691902,
1,0,0,0,0,1,0,0,triangle,circle,1,0,1,0,1,8,20,0,,,,,,,,,,,,,,,,,,,,,,,,,,,,,,,,,,,,,,,,326.2935797619866,326.2935797619866,326.2935797619866,326.2935797619866,326.2935797619866,326.2935797619866,326.2935797619866,326.2935797619866,326.2935797619866,326.2935797619866,a,0.5176929220324382,10,465,1,326.8440621239133,,328.3455775550101,,,,,,,,,,,,,,,,,,,,,,,,,,,,,,,,,,,,,,,,,,,,,,,,,,,,,,,,,,,,,,,,,,40967,2022-11-29_14h06.59.574,vts_reward_expectancy_bt_OFFLINE,2022.2.4,59.87532579691902,
0,0,0,1,1,0,0,0,star,triangle,1,0,1,0,1,9,21,9,,,,,,,,,,,,,,,,,,,,,,,,,,,,,,,,,,,,,,,,328.8461997929262,328.8461997929262,328.8461997929262,328.8461997929262,328.8461997929262,328.8461997929262,328.8461997929262,328.8461997929262,328.8461997929262,328.8461997929262,l,0.484376130043529,10,475,1,329.3635329370154,,330.8648636479629,,,,,,,,,,,,,,,,,,,,,,,,,,,,,,,,,,,,,,,,,,,,,,,,,,,,,,,,,,,,,,,,,,40967,2022-11-29_14h06.59.574,vts_reward_expectancy_bt_OFFLINE,2022.2.4,59.87532579691902,
0,0,1,0,1,0,0,0,hexagon,triangle,1,0,1,0,1,10,22,6,,,,,,,,,,,,,,,,,,,,,,,,,,,,,,,,,,,,,,,,331.36583793198224,331.36583793198224,331.36583793198224,331.36583793198224,331.36583793198224,331.36583793198224,331.36583793198224,331.36583793198224,331.36583793198224,331.36583793198224,l,0.6981530691264197,10,485,1,332.08297774300445,,333.5849080379121,,,,,,,,,,,,,,,,,,,,,,,,,,,,,,,,,,,,,,,,,,,,,,,,,,,,,,,,,,,,,,,,,,40967,2022-11-29_14h06.59.574,vts_reward_expectancy_bt_OFFLINE,2022.2.4,59.87532579691902,
1,0,0,0,0,0,0,1,triangle,star,1,0,1,0,1,11,23,2,,,,,,,,,,,,,,,,,,,,,,,,,,,,,,,,,,,,,,,,334.0853558469098,334.0853558469098,334.0853558469098,334.0853558469098,334.0853558469098,334.0853558469098,334.0853558469098,334.0853558469098,334.0853558469098,334.0853558469098,a,0.5208330020541325,10,495,1,334.63583974400535,,336.13760396197904,,,,,,,,,,,,,,,,,,,,,,,,,,,,,,,,,,,,,,,,,,,,,,,,,,,,,,,,,,,,,,,,,,40967,2022-11-29_14h06.59.574,vts_reward_expectancy_bt_OFFLINE,2022.2.4,59.87532579691902,
0,0,0,1,0,1,0,0,star ,circle,1,0,1,0,2,0,24,10,,,,,,,,,,,,,,,,,,,,,,,,,,,,,,,,,,,,,,,,336.63808346900623,336.63808346900623,336.63808346900623,336.63808346900623,336.63808346900623,336.63808346900623,336.63808346900623,336.63808346900623,336.63808346900623,336.63808346900623,l,0.5561480601318181,10,505,1,337.2221917139832,,338.7236444989685,,,,,,,,,,,,,,,,,,,,,,,,,,,,,,,,,,,,,,,,,,,,,,,,,,,,,,,,,,,,,,,,,,40967,2022-11-29_14h06.59.574,vts_reward_expectancy_bt_OFFLINE,2022.2.4,59.87532579691902,
1,0,0,0,0,1,0,0,triangle,circle,1,0,1,0,2,1,25,0,,,,,,,,,,,,,,,,,,,,,,,,,,,,,,,,,,,,,,,,339.22424085694365,339.22424085694365,339.22424085694365,339.22424085694365,339.22424085694365,339.22424085694365,339.22424085694365,339.22424085694365,339.22424085694365,339.22424085694365,a,0.4909438310423866,10,515,1,339.7415654719807,,341.243280843948,,,,,,,,,,,,,,,,,,,,,,,,,,,,,,,,,,,,,,,,,,,,,,,,,,,,,,,,,,,,,,,,,,40967,2022-11-29_14h06.59.574,vts_reward_expectancy_bt_OFFLINE,2022.2.4,59.87532579691902,
0,0,1,0,1,0,0,0,hexagon,triangle,1,0,1,0,2,2,26,6,,,,,,,,,,,,,,,,,,,,,,,,,,,,,,,,,,,,,,,,341.7436315579107,341.7436315579107,341.7436315579107,341.7436315579107,341.7436315579107,341.7436315579107,341.7436315579107,341.7436315579107,341.7436315579107,341.7436315579107,l,0.47965616011060774,10,525,1,342.244386469014,,343.74610599293374,,,,,,,,,,,,,,,,,,,,,,,,,,,,,,,,,,,,,,,,,,,,,,,,,,,,,,,,,,,,,,,,,,40967,2022-11-29_14h06.59.574,vts_reward_expectancy_bt_OFFLINE,2022.2.4,59.87532579691902,
0,1,0,0,0,0,0,1,circle,star,1,0,1,0,2,3,27,5,,,,,,,,,,,,,,,,,,,,,,,,,,,,,,,,,,,,,,,,344.24651746393647,344.24651746393647,344.24651746393647,344.24651746393647,344.24651746393647,344.24651746393647,344.24651746393647,344.24651746393647,344.24651746393647,344.24651746393647,a,0.4851627250900492,1,526,1,344.76389125396963,,346.2654752819799,,,,,,,,,,,,,,,,,,,,,,,,,,,,,,,,,,,,,,,,,,,,,,,,,,,,,,,,,,,,,,,,,,40967,2022-11-29_14h06.59.574,vts_reward_expectancy_bt_OFFLINE,2022.2.4,59.87532579691902,
0,0,0,1,0,0,1,0,star,hexagon,1,0,1,0,2,4,28,11,,,,,,,,,,,,,,,,,,,,,,,,,,,,,,,,,,,,,,,,346.76612253894564,346.76612253894564,346.76612253894564,346.76612253894564,346.76612253894564,346.76612253894564,346.76612253894564,346.76612253894564,346.76612253894564,346.76612253894564,l,0.45152645208872855,10,536,1,347.24995424295776,348.75141697900835,348.75141697900835,,,,,,,,,,,,,,,,,,,,,,,,,,,,,,,,,,,,,,,,,,,,,,,,,,,,,,,,,,,,,,,,,,40967,2022-11-29_14h06.59.574,vts_reward_expectancy_bt_OFFLINE,2022.2.4,59.87532579691902,
0,0,0,1,1,0,0,0,star,triangle,1,0,1,0,2,5,29,9,,,,,,,,,,,,,,,,,,,,,,,,,,,,,,,,,,,,,,,,349.2520910400199,349.2520910400199,349.2520910400199,349.2520910400199,349.2520910400199,349.2520910400199,349.2520910400199,349.2520910400199,349.2520910400199,349.2520910400199,l,0.49848475807812065,10,546,1,349.76913068292197,,351.2709844619967,,,,,,,,,,,,,,,,,,,,,,,,,,,,,,,,,,,,,,,,,,,,,,,,,,,,,,,,,,,,,,,,,,40967,2022-11-29_14h06.59.574,vts_reward_expectancy_bt_OFFLINE,2022.2.4,59.87532579691902,
0,1,0,0,1,0,0,0,circle,triangle,1,0,1,0,2,6,30,3,,,,,,,,,,,,,,,,,,,,,,,,,,,,,,,,,,,,,,,,351.7715423729969,351.7715423729969,351.7715423729969,351.7715423729969,351.7715423729969,351.7715423729969,351.7715423729969,351.7715423729969,351.7715423729969,351.7715423729969,l,0.49998629407491535,10,556,1,352.28899500193074,353.79042333492544,353.79042333492544,,,,,,,,,,,,,,,,,,,,,,,,,,,,,,,,,,,,,,,,,,,,,,,,,,,,,,,,,,,,,,,,,,40967,2022-11-29_14h06.59.574,vts_reward_expectancy_bt_OFFLINE,2022.2.4,59.87532579691902,
0,0,1,0,0,1,0,0,hexagon,circle,1,0,1,0,2,7,31,7,,,,,,,,,,,,,,,,,,,,,,,,,,,,,,,,,,,,,,,,354.29094635497313,354.29094635497313,354.29094635497313,354.29094635497313,354.29094635497313,354.29094635497313,354.29094635497313,354.29094635497313,354.29094635497313,354.29094635497313,a,0.7687700010137632,10,566,1,355.0918006779393,,356.59346003399696,,,,,,,,,,,,,,,,,,,,,,,,,,,,,,,,,,,,,,,,,,,,,,,,,,,,,,,,,,,,,,,,,,40967,2022-11-29_14h06.59.574,vts_reward_expectancy_bt_OFFLINE,2022.2.4,59.87532579691902,
0,1,0,0,0,0,1,0,circle,hexagon,1,0,1,0,2,8,32,4,,,,,,,,,,,,,,,,,,,,,,,,,,,,,,,,,,,,,,,,357.0940323219402,357.0940323219402,357.0940323219402,357.0940323219402,357.0940323219402,357.0940323219402,357.0940323219402,357.0940323219402,357.0940323219402,357.0940323219402,l,0.4518962011206895,1,567,1,357.5778747269651,,359.07961292995606,,,,,,,,,,,,,,,,,,,,,,,,,,,,,,,,,,,,,,,,,,,,,,,,,,,,,,,,,,,,,,,,,,40967,2022-11-29_14h06.59.574,vts_reward_expectancy_bt_OFFLINE,2022.2.4,59.87532579691902,
1,0,0,0,0,0,1,0,triangle,hexagon,1,0,1,0,2,9,33,1,,,,,,,,,,,,,,,,,,,,,,,,,,,,,,,,,,,,,,,,359.5800857299473,359.5800857299473,359.5800857299473,359.5800857299473,359.5800857299473,359.5800857299473,359.5800857299473,359.5800857299473,359.5800857299473,359.5800857299473,l,0.8129393940325826,10,577,1,360.41425190493464,,361.9159154240042,,,,,,,,,,,,,,,,,,,,,,,,,,,,,,,,,,,,,,,,,,,,,,,,,,,,,,,,,,,,,,,,,,40967,2022-11-29_14h06.59.574,vts_reward_expectancy_bt_OFFLINE,2022.2.4,59.87532579691902,
1,0,0,0,0,0,0,1,triangle,star,1,0,1,0,2,10,34,2,,,,,,,,,,,,,,,,,,,,,,,,,,,,,,,,,,,,,,,,362.4165776229929,362.4165776229929,362.4165776229929,362.4165776229929,362.4165776229929,362.4165776229929,362.4165776229929,362.4165776229929,362.4165776229929,362.4165776229929,a,0.5526100139832124,10,587,1,363.0005039499374,,364.5022268720204,,,,,,,,,,,,,,,,,,,,,,,,,,,,,,,,,,,,,,,,,,,,,,,,,,,,,,,,,,,,,,,,,,40967,2022-11-29_14h06.59.574,vts_reward_expectancy_bt_OFFLINE,2022.2.4,59.87532579691902,
0,0,1,0,0,0,0,1,hexagon,star,1,0,1,0,2,11,35,8,,,,,,,,,,,,,,,,,,,,,,,,,,,,,,,,,,,,,,,,365.0027665490052,365.0027665490052,365.0027665490052,365.0027665490052,365.0027665490052,365.0027665490052,365.0027665490052,365.0027665490052,365.0027665490052,365.0027665490052,a,0.622760693076998,10,597,1,365.6536079439102,,367.1551095979521,,,,,,,,,,,,,,,,,,,,,,,,,,,,,,,,,,,,,,,,,,,,,,,,,,,,,,,,,,,,,,,,,,40967,2022-11-29_14h06.59.574,vts_reward_expectancy_bt_OFFLINE,2022.2.4,59.87532579691902,
0,0,1,0,1,0,0,0,hexagon,triangle,1,0,1,0,3,0,36,6,,,,,,,,,,,,,,,,,,,,,,,,,,,,,,,,,,,,,,,,367.6556603090139,367.6556603090139,367.6556603090139,367.6556603090139,367.6556603090139,367.6556603090139,367.6556603090139,367.6556603090139,367.6556603090139,367.6556603090139,l,0.5576636920450255,1,598,1,368.23966879199725,,369.7414800969418,,,,,,,,,,,,,,,,,,,,,,,,,,,,,,,,,,,,,,,,,,,,,,,,,,,,,,,,,,,,,,,,,,40967,2022-11-29_14h06.59.574,vts_reward_expectancy_bt_OFFLINE,2022.2.4,59.87532579691902,
1,0,0,0,0,0,1,0,triangle,hexagon,1,0,1,0,3,1,37,1,,,,,,,,,,,,,,,,,,,,,,,,,,,,,,,,,,,,,,,,370.24196080002,370.24196080002,370.24196080002,370.24196080002,370.24196080002,370.24196080002,370.24196080002,370.24196080002,370.24196080002,370.24196080002,l,0.7713351440615952,10,608,1,371.0429052429972,,372.5445901029743,,,,,,,,,,,,,,,,,,,,,,,,,,,,,,,,,,,,,,,,,,,,,,,,,,,,,,,,,,,,,,,,,,40967,2022-11-29_14h06.59.574,vts_reward_expectancy_bt_OFFLINE,2022.2.4,59.87532579691902,
0,0,0,1,1,0,0,0,star,triangle,1,0,1,0,3,2,38,9,,,,,,,,,,,,,,,,,,,,,,,,,,,,,,,,,,,,,,,,373.04491419391707,373.04491419391707,373.04491419391707,373.04491419391707,373.04491419391707,373.04491419391707,373.04491419391707,373.04491419391707,373.04491419391707,373.04491419391707,l,0.5682511391351,10,618,1,373.6457072389312,,375.1472152689239,,,,,,,,,,,,,,,,,,,,,,,,,,,,,,,,,,,,,,,,,,,,,,,,,,,,,,,,,,,,,,,,,,40967,2022-11-29_14h06.59.574,vts_reward_expectancy_bt_OFFLINE,2022.2.4,59.87532579691902,
0,0,1,0,0,0,0,1,hexagon,star,1,0,1,0,3,3,39,8,,,,,,,,,,,,,,,,,,,,,,,,,,,,,,,,,,,,,,,,375.64775411691517,375.64775411691517,375.64775411691517,375.64775411691517,375.64775411691517,375.64775411691517,375.64775411691517,375.64775411691517,375.64775411691517,375.64775411691517,a,0.49630686605814844,1,619,1,376.16508625191636,,377.6667392679956,,,,,,,,,,,,,,,,,,,,,,,,,,,,,,,,,,,,,,,,,,,,,,,,,,,,,,,,,,,,,,,,,,40967,2022-11-29_14h06.59.574,vts_reward_expectancy_bt_OFFLINE,2022.2.4,59.87532579691902,
1,0,0,0,0,0,0,1,triangle,star,1,0,1,0,3,4,40,2,,,,,,,,,,,,,,,,,,,,,,,,,,,,,,,,,,,,,,,,378.16720735200215,378.16720735200215,378.16720735200215,378.16720735200215,378.16720735200215,378.16720735200215,378.16720735200215,378.16720735200215,378.16720735200215,378.16720735200215,a,0.4182715399656445,10,629,1,378.6178902769461,,380.11954825301655,,,,,,,,,,,,,,,,,,,,,,,,,,,,,,,,,,,,,,,,,,,,,,,,,,,,,,,,,,,,,,,,,,40967,2022-11-29_14h06.59.574,vts_reward_expectancy_bt_OFFLINE,2022.2.4,59.87532579691902,
0,0,0,1,0,1,0,0,star ,circle,1,0,1,0,3,5,41,10,,,,,,,,,,,,,,,,,,,,,,,,,,,,,,,,,,,,,,,,380.6200870379107,380.6200870379107,380.6200870379107,380.6200870379107,380.6200870379107,380.6200870379107,380.6200870379107,380.6200870379107,380.6200870379107,380.6200870379107,l,0.44126845500431955,1,630,1,381.0870669289725,,382.58900980395265,,,,,,,,,,,,,,,,,,,,,,,,,,,,,,,,,,,,,,,,,,,,,,,,,,,,,,,,,,,,,,,,,,40967,2022-11-29_14h06.59.574,vts_reward_expectancy_bt_OFFLINE,2022.2.4,59.87532579691902,
0,0,0,1,0,0,1,0,star,hexagon,1,0,1,0,3,6,42,11,,,,,,,,,,,,,,,,,,,,,,,,,,,,,,,,,,,,,,,,383.0892845299095,383.0892845299095,383.0892845299095,383.0892845299095,383.0892845299095,383.0892845299095,383.0892845299095,383.0892845299095,383.0892845299095,383.0892845299095,l,0.5247732290299609,10,640,1,383.6401122820098,,385.1417323319474,,,,,,,,,,,,,,,,,,,,,,,,,,,,,,,,,,,,,,,,,,,,,,,,,,,,,,,,,,,,,,,,,,40967,2022-11-29_14h06.59.574,vts_reward_expectancy_bt_OFFLINE,2022.2.4,59.87532579691902,
1,0,0,0,0,1,0,0,triangle,circle,1,0,1,0,3,7,43,0,,,,,,,,,,,,,,,,,,,,,,,,,,,,,,,,,,,,,,,,385.6422541899374,385.6422541899374,385.6422541899374,385.6422541899374,385.6422541899374,385.6422541899374,385.6422541899374,385.6422541899374,385.6422541899374,385.6422541899374,a,0.5041303391335532,10,650,1,386.17607388691977,,387.677782793995,,,,,,,,,,,,,,,,,,,,,,,,,,,,,,,,,,,,,,,,,,,,,,,,,,,,,,,,,,,,,,,,,,40967,2022-11-29_14h06.59.574,vts_reward_expectancy_bt_OFFLINE,2022.2.4,59.87532579691902,
0,1,0,0,1,0,0,0,circle,triangle,1,0,1,0,3,8,44,3,,,,,,,,,,,,,,,,,,,,,,,,,,,,,,,,,,,,,,,,388.1784263990121,388.1784263990121,388.1784263990121,388.1784263990121,388.1784263990121,388.1784263990121,388.1784263990121,388.1784263990121,388.1784263990121,388.1784263990121,l,0.4428070040885359,10,660,1,388.6454914389178,,390.14715225691907,,,,,,,,,,,,,,,,,,,,,,,,,,,,,,,,,,,,,,,,,,,,,,,,,,,,,,,,,,,,,,,,,,40967,2022-11-29_14h06.59.574,vts_reward_expectancy_bt_OFFLINE,2022.2.4,59.87532579691902,
0,1,0,0,0,0,1,0,circle,hexagon,1,0,1,0,3,9,45,4,,,,,,,,,,,,,,,,,,,,,,,,,,,,,,,,,,,,,,,,390.6476650920231,390.6476650920231,390.6476650920231,390.6476650920231,390.6476650920231,390.6476650920231,390.6476650920231,390.6476650920231,390.6476650920231,390.6476650920231,l,0.6625510291196406,10,670,1,391.33169696701225,,392.83353588194586,,,,,,,,,,,,,,,,,,,,,,,,,,,,,,,,,,,,,,,,,,,,,,,,,,,,,,,,,,,,,,,,,,40967,2022-11-29_14h06.59.574,vts_reward_expectancy_bt_OFFLINE,2022.2.4,59.87532579691902,
0,1,0,0,0,0,0,1,circle,star,1,0,1,0,3,10,46,5,,,,,,,,,,,,,,,,,,,,,,,,,,,,,,,,,,,,,,,,393.33394424500875,393.33394424500875,393.33394424500875,393.33394424500875,393.33394424500875,393.33394424500875,393.33394424500875,393.33394424500875,393.33394424500875,393.33394424500875,a,0.4850431369850412,1,671,1,393.8511115779402,,395.3528492479818,,,,,,,,,,,,,,,,,,,,,,,,,,,,,,,,,,,,,,,,,,,,,,,,,,,,,,,,,,,,,,,,,,40967,2022-11-29_14h06.59.574,vts_reward_expectancy_bt_OFFLINE,2022.2.4,59.87532579691902,
0,0,1,0,0,1,0,0,hexagon,circle,1,0,1,0,3,11,47,7,,,,,,,,,,,,,,,,,,,,,,,,,,,,,,,,,,,,,,,,395.85323571495246,395.85323571495246,395.85323571495246,395.85323571495246,395.85323571495246,395.85323571495246,395.85323571495246,395.85323571495246,395.85323571495246,395.85323571495246,l,0.5195898620877415,1,672,1,396.4041118170135,,397.90571306692436,,,,,,,,,,,,,,,,,,,,,,,,,,,,,,,,,,,,,,,,,,,,,,,,,,,,,,,,,,,,,,,,,,40967,2022-11-29_14h06.59.574,vts_reward_expectancy_bt_OFFLINE,2022.2.4,59.87532579691902,
0,0,1,0,0,0,0,1,hexagon,star,2,0,2,0,0,0,0,8,,,,,,,,,,,,,,,,,,,,,,,,,,,,,,,,,,,,,,,,402.42750735394657,402.42750735394657,402.42750735394657,402.42750735394657,402.42750735394657,402.42750735394657,402.42750735394657,402.42750735394657,402.42750735394657,402.42750735394657,a,1.1020045221084729,10,682,2,403.5617645389866,405.063658982981,405.063658982981,,,,,,,,,,,,,,,,,,,,,,,,,,,,,,,,,,,,,,,,,,,,,,,,,,,,,,,,,,,,,,,,,,40967,2022-11-29_14h06.59.574,vts_reward_expectancy_bt_OFFLINE,2022.2.4,59.87532579691902,
0,0,0,1,0,0,1,0,star,hexagon,2,0,2,0,0,1,1,11,,,,,,,,,,,,,,,,,,,,,,,,,,,,,,,,,,,,,,,,405.563929794007,405.563929794007,405.563929794007,405.563929794007,405.563929794007,405.563929794007,405.563929794007,405.563929794007,405.563929794007,405.563929794007,l,0.5421647190814838,10,692,2,406.1314588129753,,407.63302404398564,,,,,,,,,,,,,,,,,,,,,,,,,,,,,,,,,,,,,,,,,,,,,,,,,,,,,,,,,,,,,,,,,,40967,2022-11-29_14h06.59.574,vts_reward_expectancy_bt_OFFLINE,2022.2.4,59.87532579691902,
0,0,0,1,0,1,0,0,star ,circle,2,0,2,0,0,2,2,10,,,,,,,,,,,,,,,,,,,,,,,,,,,,,,,,,,,,,,,,408.13362497801427,408.13362497801427,408.13362497801427,408.13362497801427,408.13362497801427,408.13362497801427,408.13362497801427,408.13362497801427,408.13362497801427,408.13362497801427,l,0.6165494890883565,1,693,2,408.76751660893206,,410.2695051339688,,,,,,,,,,,,,,,,,,,,,,,,,,,,,,,,,,,,,,,,,,,,,,,,,,,,,,,,,,,,,,,,,,40967,2022-11-29_14h06.59.574,vts_reward_expectancy_bt_OFFLINE,2022.2.4,59.87532579691902,
0,1,0,0,0,0,1,0,circle,hexagon,2,0,2,0,0,3,3,4,,,,,,,,,,,,,,,,,,,,,,,,,,,,,,,,,,,,,,,,410.7699287829455,410.7699287829455,410.7699287829455,410.7699287829455,410.7699287829455,410.7699287829455,410.7699287829455,410.7699287829455,410.7699287829455,410.7699287829455,l,0.5220392780611292,10,703,2,411.3205056799343,,412.8222956729587,,,,,,,,,,,,,,,,,,,,,,,,,,,,,,,,,,,,,,,,,,,,,,,,,,,,,,,,,,,,,,,,,,40967,2022-11-29_14h06.59.574,vts_reward_expectancy_bt_OFFLINE,2022.2.4,59.87532579691902,
0,1,0,0,0,0,0,1,circle,star,2,0,2,0,0,4,4,5,,,,,,,,,,,,,,,,,,,,,,,,,,,,,,,,,,,,,,,,413.3226702630054,413.3226702630054,413.3226702630054,413.3226702630054,413.3226702630054,413.3226702630054,413.3226702630054,413.3226702630054,413.3226702630054,413.3226702630054,a,0.5791725481394678,10,713,2,413.92340163793415,,415.4249417990213,,,,,,,,,,,,,,,,,,,,,,,,,,,,,,,,,,,,,,,,,,,,,,,,,,,,,,,,,,,,,,,,,,40967,2022-11-29_14h06.59.574,vts_reward_expectancy_bt_OFFLINE,2022.2.4,59.87532579691902,
0,0,1,0,0,1,0,0,hexagon,circle,2,0,2,0,0,5,5,7,,,,,,,,,,,,,,,,,,,,,,,,,,,,,,,,,,,,,,,,415.9254626239417,415.9254626239417,415.9254626239417,415.9254626239417,415.9254626239417,415.9254626239417,415.9254626239417,415.9254626239417,415.9254626239417,415.9254626239417,a,0.6876092621823773,10,723,2,416.64305968396366,,418.14498569397256,,,,,,,,,,,,,,,,,,,,,,,,,,,,,,,,,,,,,,,,,,,,,,,,,,,,,,,,,,,,,,,,,,40967,2022-11-29_14h06.59.574,vts_reward_expectancy_bt_OFFLINE,2022.2.4,59.87532579691902,
0,0,0,1,1,0,0,0,star,triangle,2,0,2,0,0,6,6,9,,,,,,,,,,,,,,,,,,,,,,,,,,,,,,,,,,,,,,,,418.64516193198506,418.64516193198506,418.64516193198506,418.64516193198506,418.64516193198506,418.64516193198506,418.64516193198506,418.64516193198506,418.64516193198506,418.64516193198506,l,0.6353100740816444,1,724,2,419.3126163199777,,420.81423858797643,,,,,,,,,,,,,,,,,,,,,,,,,,,,,,,,,,,,,,,,,,,,,,,,,,,,,,,,,,,,,,,,,,40967,2022-11-29_14h06.59.574,vts_reward_expectancy_bt_OFFLINE,2022.2.4,59.87532579691902,
1,0,0,0,0,0,1,0,triangle,hexagon,2,0,2,0,0,7,7,1,,,,,,,,,,,,,,,,,,,,,,,,,,,,,,,,,,,,,,,,421.3148405349348,421.3148405349348,421.3148405349348,421.3148405349348,421.3148405349348,421.3148405349348,421.3148405349348,421.3148405349348,421.3148405349348,421.3148405349348,a,0.6326737930066884,1,725,2,421.965597272967,,423.46719940996263,,,,,,,,,,,,,,,,,,,,,,,,,,,,,,,,,,,,,,,,,,,,,,,,,,,,,,,,,,,,,,,,,,40967,2022-11-29_14h06.59.574,vts_reward_expectancy_bt_OFFLINE,2022.2.4,59.87532579691902,
1,0,0,0,0,0,0,1,triangle,star,2,0,2,0,0,8,8,2,,,,,,,,,,,,,,,,,,,,,,,,,,,,,,,,,,,,,,,,423.9676897469908,423.9676897469908,423.9676897469908,423.9676897469908,423.9676897469908,423.9676897469908,423.9676897469908,423.9676897469908,423.9676897469908,423.9676897469908,a,0.5432979881297797,10,735,2,424.5349167439854,,426.03682788298465,,,,,,,,,,,,,,,,,,,,,,,,,,,,,,,,,,,,,,,,,,,,,,,,,,,,,,,,,,,,,,,,,,40967,2022-11-29_14h06.59.574,vts_reward_expectancy_bt_OFFLINE,2022.2.4,59.87532579691902,
0,0,1,0,1,0,0,0,hexagon,triangle,2,0,2,0,0,9,9,6,,,,,,,,,,,,,,,,,,,,,,,,,,,,,,,,,,,,,,,,426.53737077501137,426.53737077501137,426.53737077501137,426.53737077501137,426.53737077501137,426.53737077501137,426.53737077501137,426.53737077501137,426.53737077501137,426.53737077501137,a,0.8877443140372634,10,745,2,427.45490339701064,,428.95660325791687,,,,,,,,,,,,,,,,,,,,,,,,,,,,,,,,,,,,,,,,,,,,,,,,,,,,,,,,,,,,,,,,,,40967,2022-11-29_14h06.59.574,vts_reward_expectancy_bt_OFFLINE,2022.2.4,59.87532579691902,
0,1,0,0,1,0,0,0,circle,triangle,2,0,2,0,0,10,10,3,,,,,,,,,,,,,,,,,,,,,,,,,,,,,,,,,,,,,,,,429.45726774202194,429.45726774202194,429.45726774202194,429.45726774202194,429.45726774202194,429.45726774202194,429.45726774202194,429.45726774202194,429.45726774202194,429.45726774202194,l,0.6577690420672297,10,755,2,430.1412196899764,,431.64312105893623,,,,,,,,,,,,,,,,,,,,,,,,,,,,,,,,,,,,,,,,,,,,,,,,,,,,,,,,,,,,,,,,,,40967,2022-11-29_14h06.59.574,vts_reward_expectancy_bt_OFFLINE,2022.2.4,59.87532579691902,
1,0,0,0,0,1,0,0,triangle,circle,2,0,2,0,0,11,11,0,,,,,,,,,,,,,,,,,,,,,,,,,,,,,,,,,,,,,,,,432.14357970200945,432.14357970200945,432.14357970200945,432.14357970200945,432.14357970200945,432.14357970200945,432.14357970200945,432.14357970200945,432.14357970200945,432.14357970200945,a,0.6701698930701241,10,765,2,432.84450180397835,,434.34580885001924,,,,,,,,,,,,,,,,,,,,,,,,,,,,,,,,,,,,,,,,,,,,,,,,,,,,,,,,,,,,,,,,,,40967,2022-11-29_14h06.59.574,vts_reward_expectancy_bt_OFFLINE,2022.2.4,59.87532579691902,
0,1,0,0,0,0,1,0,circle,hexagon,2,0,2,0,1,0,12,4,,,,,,,,,,,,,,,,,,,,,,,,,,,,,,,,,,,,,,,,434.84666262497194,434.84666262497194,434.84666262497194,434.84666262497194,434.84666262497194,434.84666262497194,434.84666262497194,434.84666262497194,434.84666262497194,434.84666262497194,l,0.6683009311091155,1,766,2,435.5472702529514,,437.0489748469554,,,,,,,,,,,,,,,,,,,,,,,,,,,,,,,,,,,,,,,,,,,,,,,,,,,,,,,,,,,,,,,,,,40967,2022-11-29_14h06.59.574,vts_reward_expectancy_bt_OFFLINE,2022.2.4,59.87532579691902,
1,0,0,0,0,0,0,1,triangle,star,2,0,2,0,1,1,13,2,,,,,,,,,,,,,,,,,,,,,,,,,,,,,,,,,,,,,,,,437.5496157389134,437.5496157389134,437.5496157389134,437.5496157389134,437.5496157389134,437.5496157389134,437.5496157389134,437.5496157389134,437.5496157389134,437.5496157389134,a,0.6203703001374379,10,776,2,438.2001409219811,,439.7017811249243,,,,,,,,,,,,,,,,,,,,,,,,,,,,,,,,,,,,,,,,,,,,,,,,,,,,,,,,,,,,,,,,,,40967,2022-11-29_14h06.59.574,vts_reward_expectancy_bt_OFFLINE,2022.2.4,59.87532579691902,
0,0,1,0,1,0,0,0,hexagon,triangle,2,0,2,0,1,2,14,6,,,,,,,,,,,,,,,,,,,,,,,,,,,,,,,,,,,,,,,,440.20251404400915,440.20251404400915,440.20251404400915,440.20251404400915,440.20251404400915,440.20251404400915,440.20251404400915,440.20251404400915,440.20251404400915,440.20251404400915,a,0.8019335410790518,10,786,2,441.03670332196634,,442.5383536699228,,,,,,,,,,,,,,,,,,,,,,,,,,,,,,,,,,,,,,,,,,,,,,,,,,,,,,,,,,,,,,,,,,40967,2022-11-29_14h06.59.574,vts_reward_expectancy_bt_OFFLINE,2022.2.4,59.87532579691902,
0,0,0,1,0,0,1,0,star,hexagon,2,0,2,0,1,3,15,11,,,,,,,,,,,,,,,,,,,,,,,,,,,,,,,,,,,,,,,,443.038797102985,443.038797102985,443.038797102985,443.038797102985,443.038797102985,443.038797102985,443.038797102985,443.038797102985,443.038797102985,443.038797102985,l,0.6008595221210271,10,796,2,443.65615083498415,445.15793301397935,445.15793301397935,,,,,,,,,,,,,,,,,,,,,,,,,,,,,,,,,,,,,,,,,,,,,,,,,,,,,,,,,,,,,,,,,,40967,2022-11-29_14h06.59.574,vts_reward_expectancy_bt_OFFLINE,2022.2.4,59.87532579691902,
0,0,1,0,0,1,0,0,hexagon,circle,2,0,2,0,1,4,16,7,,,,,,,,,,,,,,,,,,,,,,,,,,,,,,,,,,,,,,,,445.6582852299325,445.6582852299325,445.6582852299325,445.6582852299325,445.6582852299325,445.6582852299325,445.6582852299325,445.6582852299325,445.6582852299325,445.6582852299325,a,0.9940540010575205,10,806,2,446.6762040070025,,448.1778126069112,,,,,,,,,,,,,,,,,,,,,,,,,,,,,,,,,,,,,,,,,,,,,,,,,,,,,,,,,,,,,,,,,,40967,2022-11-29_14h06.59.574,vts_reward_expectancy_bt_OFFLINE,2022.2.4,59.87532579691902,
1,0,0,0,0,1,0,0,triangle,circle,2,0,2,0,1,5,17,0,,,,,,,,,,,,,,,,,,,,,,,,,,,,,,,,,,,,,,,,448.6782634819392,448.6782634819392,448.6782634819392,448.6782634819392,448.6782634819392,448.6782634819392,448.6782634819392,448.6782634819392,448.6782634819392,448.6782634819392,l,0.4612195520894602,1,807,2,449.1621473529376,,450.6638461279217,,,,,,,,,,,,,,,,,,,,,,,,,,,,,,,,,,,,,,,,,,,,,,,,,,,,,,,,,,,,,,,,,,40967,2022-11-29_14h06.59.574,vts_reward_expectancy_bt_OFFLINE,2022.2.4,59.87532579691902,
0,0,0,1,1,0,0,0,star,triangle,2,0,2,0,1,6,18,9,,,,,,,,,,,,,,,,,,,,,,,,,,,,,,,,,,,,,,,,451.16453918791376,451.16453918791376,451.16453918791376,451.16453918791376,451.16453918791376,451.16453918791376,451.16453918791376,451.16453918791376,451.16453918791376,451.16453918791376,l,0.5183311990695074,10,817,2,451.7149689089274,,453.21677833399735,,,,,,,,,,,,,,,,,,,,,,,,,,,,,,,,,,,,,,,,,,,,,,,,,,,,,,,,,,,,,,,,,,40967,2022-11-29_14h06.59.574,vts_reward_expectancy_bt_OFFLINE,2022.2.4,59.87532579691902,
0,0,0,1,0,1,0,0,star ,circle,2,0,2,0,1,7,19,10,,,,,,,,,,,,,,,,,,,,,,,,,,,,,,,,,,,,,,,,453.7172637999756,453.7172637999756,453.7172637999756,453.7172637999756,453.7172637999756,453.7172637999756,453.7172637999756,453.7172637999756,453.7172637999756,453.7172637999756,l,0.7891940990230069,1,818,2,454.5350006549852,,456.03658885194454,,,,,,,,,,,,,,,,,,,,,,,,,,,,,,,,,,,,,,,,,,,,,,,,,,,,,,,,,,,,,,,,,,40967,2022-11-29_14h06.59.574,vts_reward_expectancy_bt_OFFLINE,2022.2.4,59.87532579691902,
0,1,0,0,0,0,0,1,circle,star,2,0,2,0,1,8,20,5,,,,,,,,,,,,,,,,,,,,,,,,,,,,,,,,,,,,,,,,456.53712607198395,456.53712607198395,456.53712607198395,456.53712607198395,456.53712607198395,456.53712607198395,456.53712607198395,456.53712607198395,456.53712607198395,456.53712607198395,a,1.0296017151558772,1,819,2,457.5880879519973,,459.08992604294326,,,,,,,,,,,,,,,,,,,,,,,,,,,,,,,,,,,,,,,,,,,,,,,,,,,,,,,,,,,,,,,,,,40967,2022-11-29_14h06.59.574,vts_reward_expectancy_bt_OFFLINE,2022.2.4,59.87532579691902,
0,0,1,0,0,0,0,1,hexagon,star,2,0,2,0,1,9,21,8,,,,,,,,,,,,,,,,,,,,,,,,,,,,,,,,,,,,,,,,459.5903724270174,459.5903724270174,459.5903724270174,459.5903724270174,459.5903724270174,459.5903724270174,459.5903724270174,459.5903724270174,459.5903724270174,459.5903724270174,a,0.7348104300908744,10,829,2,460.35803875199053,,461.8597305070143,,,,,,,,,,,,,,,,,,,,,,,,,,,,,,,,,,,,,,,,,,,,,,,,,,,,,,,,,,,,,,,,,,40967,2022-11-29_14h06.59.574,vts_reward_expectancy_bt_OFFLINE,2022.2.4,59.87532579691902,
0,1,0,0,1,0,0,0,circle,triangle,2,0,2,0,1,10,22,3,,,,,,,,,,,,,,,,,,,,,,,,,,,,,,,,,,,,,,,,462.36011654301547,462.36011654301547,462.36011654301547,462.36011654301547,462.36011654301547,462.36011654301547,462.36011654301547,462.36011654301547,462.36011654301547,462.36011654301547,l,0.9004049180075526,1,830,2,463.2778857150115,464.7794411869254,464.7794411869254,,,,,,,,,,,,,,,,,,,,,,,,,,,,,,,,,,,,,,,,,,,,,,,,,,,,,,,,,,,,,,,,,,40967,2022-11-29_14h06.59.574,vts_reward_expectancy_bt_OFFLINE,2022.2.4,59.87532579691902,
1,0,0,0,0,0,1,0,triangle,hexagon,2,0,2,0,1,11,23,1,,,,,,,,,,,,,,,,,,,,,,,,,,,,,,,,,,,,,,,,465.2799929289613,465.2799929289613,465.2799929289613,465.2799929289613,465.2799929289613,465.2799929289613,465.2799929289613,465.2799929289613,465.2799929289613,465.2799929289613,l,0.9268720120890066,10,840,2,466.2311553239124,,467.73277422296815,,,,,,,,,,,,,,,,,,,,,,,,,,,,,,,,,,,,,,,,,,,,,,,,,,,,,,,,,,,,,,,,,,40967,2022-11-29_14h06.59.574,vts_reward_expectancy_bt_OFFLINE,2022.2.4,59.87532579691902,
0,0,0,1,1,0,0,0,star,triangle,2,0,2,0,2,0,24,9,,,,,,,,,,,,,,,,,,,,,,,,,,,,,,,,,,,,,,,,468.2333637869451,468.2333637869451,468.2333637869451,468.2333637869451,468.2333637869451,468.2333637869451,468.2333637869451,468.2333637869451,468.2333637869451,468.2333637869451,l,0.9100444400683045,10,850,2,469.1676975649316,,470.66922469693236,,,,,,,,,,,,,,,,,,,,,,,,,,,,,,,,,,,,,,,,,,,,,,,,,,,,,,,,,,,,,,,,,,40967,2022-11-29_14h06.59.574,vts_reward_expectancy_bt_OFFLINE,2022.2.4,59.87532579691902,
0,0,1,0,1,0,0,0,hexagon,triangle,2,0,2,0,2,1,25,6,,,,,,,,,,,,,,,,,,,,,,,,,,,,,,,,,,,,,,,,471.16969741194043,471.16969741194043,471.16969741194043,471.16969741194043,471.16969741194043,471.16969741194043,471.16969741194043,471.16969741194043,471.16969741194043,471.16969741194043,a,0.8534051241585985,10,860,2,472.0543402869953,,473.5558429079829,,,,,,,,,,,,,,,,,,,,,,,,,,,,,,,,,,,,,,,,,,,,,,,,,,,,,,,,,,,,,,,,,,40967,2022-11-29_14h06.59.574,vts_reward_expectancy_bt_OFFLINE,2022.2.4,59.87532579691902,
0,0,0,1,0,0,1,0,star,hexagon,2,0,2,0,2,2,26,11,,,,,,,,,,,,,,,,,,,,,,,,,,,,,,,,,,,,,,,,474.05640698294155,474.05640698294155,474.05640698294155,474.05640698294155,474.05640698294155,474.05640698294155,474.05640698294155,474.05640698294155,474.05640698294155,474.05640698294155,l,0.7247518660733476,10,870,2,474.807387713925,,476.3090290540131,,,,,,,,,,,,,,,,,,,,,,,,,,,,,,,,,,,,,,,,,,,,,,,,,,,,,,,,,,,,,,,,,,40967,2022-11-29_14h06.59.574,vts_reward_expectancy_bt_OFFLINE,2022.2.4,59.87532579691902,
0,1,0,0,1,0,0,0,circle,triangle,2,0,2,0,2,3,27,3,,,,,,,,,,,,,,,,,,,,,,,,,,,,,,,,,,,,,,,,476.80944071291015,476.80944071291015,476.80944071291015,476.80944071291015,476.80944071291015,476.80944071291015,476.80944071291015,476.80944071291015,476.80944071291015,476.80944071291015,l,1.1200772779993713,10,880,2,477.96080177195836,,479.46247842290904,,,,,,,,,,,,,,,,,,,,,,,,,,,,,,,,,,,,,,,,,,,,,,,,,,,,,,,,,,,,,,,,,,40967,2022-11-29_14h06.59.574,vts_reward_expectancy_bt_OFFLINE,2022.2.4,59.87532579691902,
0,0,0,1,0,1,0,0,star ,circle,2,0,2,0,2,4,28,10,,,,,,,,,,,,,,,,,,,,,,,,,,,,,,,,,,,,,,,,479.9630996049382,479.9630996049382,479.9630996049382,479.9630996049382,479.9630996049382,479.9630996049382,479.9630996049382,479.9630996049382,479.9630996049382,479.9630996049382,l,0.8698574550217018,1,881,2,480.863955926965,482.3655320749385,482.3655320749385,,,,,,,,,,,,,,,,,,,,,,,,,,,,,,,,,,,,,,,,,,,,,,,,,,,,,,,,,,,,,,,,,,40967,2022-11-29_14h06.59.574,vts_reward_expectancy_bt_OFFLINE,2022.2.4,59.87532579691902,
0,0,1,0,0,0,0,1,hexagon,star,2,0,2,0,2,5,29,8,,,,,,,,,,,,,,,,,,,,,,,,,,,,,,,,,,,,,,,,482.8660804940155,482.8660804940155,482.8660804940155,482.8660804940155,482.8660804940155,482.8660804940155,482.8660804940155,482.8660804940155,482.8660804940155,482.8660804940155,a,0.9491948940558359,10,891,2,483.8339452369837,,485.3356553839985,,,,,,,,,,,,,,,,,,,,,,,,,,,,,,,,,,,,,,,,,,,,,,,,,,,,,,,,,,,,,,,,,,40967,2022-11-29_14h06.59.574,vts_reward_expectancy_bt_OFFLINE,2022.2.4,59.87532579691902,
1,0,0,0,0,1,0,0,triangle,circle,2,0,2,0,2,6,30,0,,,,,,,,,,,,,,,,,,,,,,,,,,,,,,,,,,,,,,,,485.83617115498055,485.83617115498055,485.83617115498055,485.83617115498055,485.83617115498055,485.83617115498055,485.83617115498055,485.83617115498055,485.83617115498055,485.83617115498055,a,0.902823796030134,1,892,2,486.77040382195264,488.27213028399274,488.27213028399274,,,,,,,,,,,,,,,,,,,,,,,,,,,,,,,,,,,,,,,,,,,,,,,,,,,,,,,,,,,,,,,,,,40967,2022-11-29_14h06.59.574,vts_reward_expectancy_bt_OFFLINE,2022.2.4,59.87532579691902,
1,0,0,0,0,0,1,0,triangle,hexagon,2,0,2,0,2,7,31,1,,,,,,,,,,,,,,,,,,,,,,,,,,,,,,,,,,,,,,,,488.77268000796903,488.77268000796903,488.77268000796903,488.77268000796903,488.77268000796903,488.77268000796903,488.77268000796903,488.77268000796903,488.77268000796903,488.77268000796903,l,1.0851055791135877,10,902,2,489.8904335339321,,491.3921496339608,,,,,,,,,,,,,,,,,,,,,,,,,,,,,,,,,,,,,,,,,,,,,,,,,,,,,,,,,,,,,,,,,,40967,2022-11-29_14h06.59.574,vts_reward_expectancy_bt_OFFLINE,2022.2.4,59.87532579691902,
0,1,0,0,0,0,1,0,circle,hexagon,2,0,2,0,2,8,32,4,,,,,,,,,,,,,,,,,,,,,,,,,,,,,,,,,,,,,,,,491.8928300839616,491.8928300839616,491.8928300839616,491.8928300839616,491.8928300839616,491.8928300839616,491.8928300839616,491.8928300839616,491.8928300839616,491.8928300839616,l,0.9215713170124218,1,903,2,492.8438599120127,,494.3456858670106,,,,,,,,,,,,,,,,,,,,,,,,,,,,,,,,,,,,,,,,,,,,,,,,,,,,,,,,,,,,,,,,,,40967,2022-11-29_14h06.59.574,vts_reward_expectancy_bt_OFFLINE,2022.2.4,59.87532579691902,
1,0,0,0,0,0,0,1,triangle,star,2,0,2,0,2,9,33,2,,,,,,,,,,,,,,,,,,,,,,,,,,,,,,,,,,,,,,,,494.84589333995245,494.84589333995245,494.84589333995245,494.84589333995245,494.84589333995245,494.84589333995245,494.84589333995245,494.84589333995245,494.84589333995245,494.84589333995245,a,0.7139693780336529,10,913,2,495.5805615419522,,497.0817550079664,,,,,,,,,,,,,,,,,,,,,,,,,,,,,,,,,,,,,,,,,,,,,,,,,,,,,,,,,,,,,,,,,,40967,2022-11-29_14h06.59.574,vts_reward_expectancy_bt_OFFLINE,2022.2.4,59.87532579691902,
0,1,0,0,0,0,0,1,circle,star,2,0,2,0,2,10,34,5,,,,,,,,,,,,,,,,,,,,,,,,,,,,,,,,,,,,,,,,497.58248501701746,497.58248501701746,497.58248501701746,497.58248501701746,497.58248501701746,497.58248501701746,497.58248501701746,497.58248501701746,497.58248501701746,497.58248501701746,l,1.3191189770586789,1,914,2,498.93380410491955,,500.43558545794804,,,,,,,,,,,,,,,,,,,,,,,,,,,,,,,,,,,,,,,,,,,,,,,,,,,,,,,,,,,,,,,,,,40967,2022-11-29_14h06.59.574,vts_reward_expectancy_bt_OFFLINE,2022.2.4,59.87532579691902,
0,0,1,0,0,1,0,0,hexagon,circle,2,0,2,0,2,11,35,7,,,,,,,,,,,,,,,,,,,,,,,,,,,,,,,,,,,,,,,,500.93610955995973,500.93610955995973,500.93610955995973,500.93610955995973,500.93610955995973,500.93610955995973,500.93610955995973,500.93610955995973,500.93610955995973,500.93610955995973,a,1.1951208481332287,1,915,2,502.1541923319455,,503.6556687799748,,,,,,,,,,,,,,,,,,,,,,,,,,,,,,,,,,,,,,,,,,,,,,,,,,,,,,,,,,,,,,,,,,40967,2022-11-29_14h06.59.574,vts_reward_expectancy_bt_OFFLINE,2022.2.4,59.87532579691902,
0,0,1,0,0,1,0,0,hexagon,circle,2,0,2,0,3,0,36,7,,,,,,,,,,,,,,,,,,,,,,,,,,,,,,,,,,,,,,,,504.15642650891095,504.15642650891095,504.15642650891095,504.15642650891095,504.15642650891095,504.15642650891095,504.15642650891095,504.15642650891095,504.15642650891095,504.15642650891095,a,0.5963104621041566,10,925,2,504.77377119497396,,506.27527600200847,,,,,,,,,,,,,,,,,,,,,,,,,,,,,,,,,,,,,,,,,,,,,,,,,,,,,,,,,,,,,,,,,,40967,2022-11-29_14h06.59.574,vts_reward_expectancy_bt_OFFLINE,2022.2.4,59.87532579691902,
0,0,1,0,1,0,0,0,hexagon,triangle,2,0,2,0,3,1,37,6,,,,,,,,,,,,,,,,,,,,,,,,,,,,,,,,,,,,,,,,506.7757303819526,506.7757303819526,506.7757303819526,506.7757303819526,506.7757303819526,506.7757303819526,506.7757303819526,506.7757303819526,506.7757303819526,506.7757303819526,a,1.0253800840582699,10,935,2,507.8269527689554,,509.32868508191314,,,,,,,,,,,,,,,,,,,,,,,,,,,,,,,,,,,,,,,,,,,,,,,,,,,,,,,,,,,,,,,,,,40967,2022-11-29_14h06.59.574,vts_reward_expectancy_bt_OFFLINE,2022.2.4,59.87532579691902,
0,0,0,1,0,1,0,0,star ,circle,2,0,2,0,3,2,38,10,,,,,,,,,,,,,,,,,,,,,,,,,,,,,,,,,,,,,,,,509.8290912939701,509.8290912939701,509.8290912939701,509.8290912939701,509.8290912939701,509.8290912939701,509.8290912939701,509.8290912939701,509.8290912939701,509.8290912939701,l,0.9316429630853236,1,936,2,510.7804543200182,,512.2818100879667,,,,,,,,,,,,,,,,,,,,,,,,,,,,,,,,,,,,,,,,,,,,,,,,,,,,,,,,,,,,,,,,,,40967,2022-11-29_14h06.59.574,vts_reward_expectancy_bt_OFFLINE,2022.2.4,59.87532579691902,
1,0,0,0,0,0,1,0,triangle,hexagon,2,0,2,0,3,3,39,1,,,,,,,,,,,,,,,,,,,,,,,,,,,,,,,,,,,,,,,,512.7825628590072,512.7825628590072,512.7825628590072,512.7825628590072,512.7825628590072,512.7825628590072,512.7825628590072,512.7825628590072,512.7825628590072,512.7825628590072,l,0.6340689361095428,1,937,2,513.4332397079561,514.9348189299926,514.9348189299926,,,,,,,,,,,,,,,,,,,,,,,,,,,,,,,,,,,,,,,,,,,,,,,,,,,,,,,,,,,,,,,,,,40967,2022-11-29_14h06.59.574,vts_reward_expectancy_bt_OFFLINE,2022.2.4,59.87532579691902,
0,1,0,0,0,0,0,1,circle,star,2,0,2,0,3,4,40,5,,,,,,,,,,,,,,,,,,,,,,,,,,,,,,,,,,,,,,,,515.435288453009,515.435288453009,515.435288453009,515.435288453009,515.435288453009,515.435288453009,515.435288453009,515.435288453009,515.435288453009,515.435288453009,a,0.9719951660372317,1,938,2,516.4365627249936,,517.9380091979401,,,,,,,,,,,,,,,,,,,,,,,,,,,,,,,,,,,,,,,,,,,,,,,,,,,,,,,,,,,,,,,,,,40967,2022-11-29_14h06.59.574,vts_reward_expectancy_bt_OFFLINE,2022.2.4,59.87532579691902,
0,1,0,0,1,0,0,0,circle,triangle,2,0,2,0,3,5,41,3,,,,,,,,,,,,,,,,,,,,,,,,,,,,,,,,,,,,,,,,518.4388224139111,518.4388224139111,518.4388224139111,518.4388224139111,518.4388224139111,518.4388224139111,518.4388224139111,518.4388224139111,518.4388224139111,518.4388224139111,l,0.7490043661091477,10,948,2,519.2064091439825,,520.7077722050017,,,,,,,,,,,,,,,,,,,,,,,,,,,,,,,,,,,,,,,,,,,,,,,,,,,,,,,,,,,,,,,,,,40967,2022-11-29_14h06.59.574,vts_reward_expectancy_bt_OFFLINE,2022.2.4,59.87532579691902,
0,0,0,1,1,0,0,0,star,triangle,2,0,2,0,3,6,42,9,,,,,,,,,,,,,,,,,,,,,,,,,,,,,,,,,,,,,,,,521.208443593001,521.208443593001,521.208443593001,521.208443593001,521.208443593001,521.208443593001,521.208443593001,521.208443593001,521.208443593001,521.208443593001,l,0.6895841960795224,10,958,2,521.9256204370176,,523.4273895379156,,,,,,,,,,,,,,,,,,,,,,,,,,,,,,,,,,,,,,,,,,,,,,,,,,,,,,,,,,,,,,,,,,40967,2022-11-29_14h06.59.574,vts_reward_expectancy_bt_OFFLINE,2022.2.4,59.87532579691902,
1,0,0,0,0,0,0,1,triangle,star,2,0,2,0,3,7,43,2,,,,,,,,,,,,,,,,,,,,,,,,,,,,,,,,,,,,,,,,523.928034364013,523.928034364013,523.928034364013,523.928034364013,523.928034364013,523.928034364013,523.928034364013,523.928034364013,523.928034364013,523.928034364013,a,1.042620885069482,1,959,2,524.9961912739091,,526.4975628519896,,,,,,,,,,,,,,,,,,,,,,,,,,,,,,,,,,,,,,,,,,,,,,,,,,,,,,,,,,,,,,,,,,40967,2022-11-29_14h06.59.574,vts_reward_expectancy_bt_OFFLINE,2022.2.4,59.87532579691902,
0,0,0,1,0,0,1,0,star,hexagon,2,0,2,0,3,8,44,11,,,,,,,,,,,,,,,,,,,,,,,,,,,,,,,,,,,,,,,,526.9980770879192,526.9980770879192,526.9980770879192,526.9980770879192,526.9980770879192,526.9980770879192,526.9980770879192,526.9980770879192,526.9980770879192,526.9980770879192,l,0.6037796590244398,10,969,2,527.7156929050107,,529.1336874539265,,,,,,,,,,,,,,,,,,,,,,,,,,,,,,,,,,,,,,,,,,,,,,,,,,,,,,,,,,,,,,,,,,40967,2022-11-29_14h06.59.574,vts_reward_expectancy_bt_OFFLINE,2022.2.4,59.87532579691902,
1,0,0,0,0,1,0,0,triangle,circle,2,0,2,0,3,9,45,0,,,,,,,,,,,,,,,,,,,,,,,,,,,,,,,,,,,,,,,,529.6343363379128,529.6343363379128,529.6343363379128,529.6343363379128,529.6343363379128,529.6343363379128,529.6343363379128,529.6343363379128,529.6343363379128,529.6343363379128,a,0.7362535181455314,1,970,2,530.4017983389786,,531.9035547029926,,,,,,,,,,,,,,,,,,,,,,,,,,,,,,,,,,,,,,,,,,,,,,,,,,,,,,,,,,,,,,,,,,40967,2022-11-29_14h06.59.574,vts_reward_expectancy_bt_OFFLINE,2022.2.4,59.87532579691902,
0,1,0,0,0,0,1,0,circle,hexagon,2,0,2,0,3,10,46,4,,,,,,,,,,,,,,,,,,,,,,,,,,,,,,,,,,,,,,,,532.4039501539664,532.4039501539664,532.4039501539664,532.4039501539664,532.4039501539664,532.4039501539664,532.4039501539664,532.4039501539664,532.4039501539664,532.4039501539664,l,0.42986694909632206,10,980,2,532.8548342479626,,534.356351008988,,,,,,,,,,,,,,,,,,,,,,,,,,,,,,,,,,,,,,,,,,,,,,,,,,,,,,,,,,,,,,,,,,40967,2022-11-29_14h06.59.574,vts_reward_expectancy_bt_OFFLINE,2022.2.4,59.87532579691902,
0,0,1,0,0,0,0,1,hexagon,star,2,0,2,0,3,11,47,8,,,,,,,,,,,,,,,,,,,,,,,,,,,,,,,,,,,,,,,,534.856738928007,534.856738928007,534.856738928007,534.856738928007,534.856738928007,534.856738928007,534.856738928007,534.856738928007,534.856738928007,534.856738928007,l,0.18463959312066436,10,990,2,535.0736704230076,,536.5754368689377,,,,,,,,,,,,,,,,,,,,,,,,,,,,,,,,,,,,,,,,,,,,,,,,,,,,,,,,,,,,,,,,,,40967,2022-11-29_14h06.59.574,vts_reward_expectancy_bt_OFFLINE,2022.2.4,59.87532579691902,
,,,,,,,,,,,,,,,,,,0,0,0,0,0,0,0,0,,,,,,,,,,,,,,,,,,,,,,,,,,,,,,,,,,,,,,,,,,,,,,,,,573.9664509940194,174,H,hexagon,0.002137555042281747,570.0637270850129,571.5640761899995,571.5640761899995,571.5640761899995,1,0,f,0.874106293078512,0,572.4817224480212,,,,,,,,,,,,,,,,,,,,,,,,,,,,,,,,,,,,,,,,,,,,,,,,,,,,40967,2022-11-29_14h06.59.574,vts_reward_expectancy_bt_OFFLINE,2022.2.4,59.87532579691902,
,,,,,,,,,,,,,,,,,,0,0,0,0,1,0,1,0,,,,,,,,,,,,,,,,,,,,,,,,,,,,,,,,,,,,,,,,,,,,,,,,,578.571535564959,132,D,circle,0.0014180849539116025,574.9510679550003,576.4527502929559,576.4527502929559,576.4527502929559,1,0,d,0.597800714080222,0,577.0699642479885,,,,,,,,,,,,,,,,,,,,,,,,,,,,,,,,,,,,,,,,,,,,,,,,,,,,40967,2022-11-29_14h06.59.574,vts_reward_expectancy_bt_OFFLINE,2022.2.4,59.87532579691902,
,,,,,,,,,,,,,,,,,,0,0,0,0,2,0,2,0,,,,,,,,,,,,,,,,,,,,,,,,,,,,,,,,,,,,,,,,,,,,,,,,,583.1102260500193,146,U,triangle,0.0015314039774239063,579.5560139669105,581.0577677669935,581.0577677669935,581.0577677669935,1,0,d,0.5264955640304834,0,581.6084381879773,,,,,,,,,,,,,,,,,,,,,,,,,,,,,,,,,,,,,,,,,,,,,,,,,,,,40967,2022-11-29_14h06.59.574,vts_reward_expectancy_bt_OFFLINE,2022.2.4,59.87532579691902,
,,,,,,,,,,,,,,,,,,0,0,0,0,3,0,3,0,,,,,,,,,,,,,,,,,,,,,,,,,,,,,,,,,,,,,,,,,,,,,,,,,587.5816703579621,125,S,star,0.0012588080717250705,584.0944482269697,585.5962297839578,585.5962297839578,585.5962297839578,1,0,d,0.45414275804068893,0,586.0799320919905,587.5816703579621,,,,,,,,,,,,,,,,,,,,,,,,,,,,,,,,,,,,,,,,,,,,,,,,,,,40967,2022-11-29_14h06.59.574,vts_reward_expectancy_bt_OFFLINE,2022.2.4,59.87532579691902,
,,,,,,,,,,,,,,,,,,0,0,0,0,4,0,4,0,,,,,,,,,,,,,,,,,,,,,,,,,,,,,,,,,,,,,,,,,,,,,,,,,592.1365564219886,181,Y,star,0.0011107530444860458,588.5661441279808,590.0675426889211,590.0675426889211,590.0675426889211,1,0,f,0.5405437430599704,0,590.6349831789266,,,,,,,,,,,,,,,,,,,,,,,,,,,,,,,,,,,,,,,,,,,,,,,,,,,,40967,2022-11-29_14h06.59.574,vts_reward_expectancy_bt_OFFLINE,2022.2.4,59.87532579691902,
,,,,,,,,,,,,,,,,,,0,0,0,0,5,0,5,0,,,,,,,,,,,,,,,,,,,,,,,,,,,,,,,,,,,,,,,,,,,,,,,,,596.6415252019651,167,W,hexagon,0.0011925599537789822,593.1212308539543,594.622604819946,594.622604819946,594.622604819946,1,0,f,0.48514109710231423,0,595.1398154349299,,,,,,,,,,,,,,,,,,,,,,,,,,,,,,,,,,,,,,,,,,,,,,,,,,,,40967,2022-11-29_14h06.59.574,vts_reward_expectancy_bt_OFFLINE,2022.2.4,59.87532579691902,
,,,,,,,,,,,,,,,,,,0,0,0,0,6,0,6,0,,,,,,,,,,,,,,,,,,,,,,,,,,,,,,,,,,,,,,,,,,,,,,,,,601.1132730379468,160,B,triangle,0.0013565729605033994,597.626079747919,599.1276211879449,599.1276211879449,599.1276211879449,1,0,f,0.45764446805696934,0,599.6115322390106,,,,,,,,,,,,,,,,,,,,,,,,,,,,,,,,,,,,,,,,,,,,,,,,,,,,40967,2022-11-29_14h06.59.574,vts_reward_expectancy_bt_OFFLINE,2022.2.4,59.87532579691902,
,,,,,,,,,,,,,,,,,,0,0,0,0,7,0,7,0,,,,,,,,,,,,,,,,,,,,,,,,,,,,,,,,,,,,,,,,,,,,,,,,,605.6515076999785,139,F,circle,0.001339726964943111,602.0976172049996,603.5994670540094,603.5994670540094,603.5994670540094,1,0,d,0.5192395590711385,0,604.1499789889203,,,,,,,,,,,,,,,,,,,,,,,,,,,,,,,,,,,,,,,,,,,,,,,,,,,,40967,2022-11-29_14h06.59.574,vts_reward_expectancy_bt_OFFLINE,2022.2.4,59.87532579691902,
,,,,,,,,,,,,,,,,,,0,0,0,0,8,0,8,0,,,,,,,,,,,,,,,,,,,,,,,,,,,,,,,,,,,,,,,,,,,,,,,,,610.1565073839156,174,H,circle,0.001381556037813425,606.6361469449475,608.1378278390039,608.1378278390039,608.1378278390039,1,0,f,0.49300152610521764,0,608.654805838014,,,,,,,,,,,,,,,,,,,,,,,,,,,,,,,,,,,,,,,,,,,,,,,,,,,,40967,2022-11-29_14h06.59.574,vts_reward_expectancy_bt_OFFLINE,2022.2.4,59.87532579691902,
,,,,,,,,,,,,,,,,,,0,0,0,0,9,0,9,0,,,,,,,,,,,,,,,,,,,,,,,,,,,,,,,,,,,,,,,,,,,,,,,,,614.7451010029763,132,D,hexagon,0.0015520009910687804,611.1409432399087,612.6426261540037,612.6426261540037,612.6426261540037,1,0,d,0.5790039690909907,0,613.2431936269859,614.7451010029763,,,,,,,,,,,,,,,,,,,,,,,,,,,,,,,,,,,,,,,,,,,,,,,,,,,40967,2022-11-29_14h06.59.574,vts_reward_expectancy_bt_OFFLINE,2022.2.4,59.87532579691902,
,,,,,,,,,,,,,,,,,,,,,,,,,,0,0,0,0,0,0,0,0,,,,,,,,,,,,,,,,,,,,,,,,,,,,,,,,,,,,,,,,,631.9138342739316,125,W,triangle,0.002150388085283339,,,,,1,0,,,1,630.4122819600161,631.9138342739316,627.9262564079836,629.4278659269912,629.4278659269912,629.4278659269912,k,0.9620388090843335,,,,,,,,,,,,,,,,,,,,,,,,,,,,,,,,,,,,,,,,,,,,,40967,2022-11-29_14h06.59.574,vts_reward_expectancy_bt_OFFLINE,2022.2.4,59.87532579691902,
,,,,,,,,,,,,,,,,,,,,,,,,,,0,0,0,0,1,0,1,0,,,,,,,,,,,,,,,,,,,,,,,,,,,,,,,,,,,,,,,,,636.5357979949331,146,F,hexagon,0.0009601209312677383,,,,,1,0,,,1,635.0339679719182,,632.8982143229805,634.3999268789776,634.3999268789776,634.3999268789776,j,0.6143697371007875,,,,,,,,,,,,,,,,,,,,,,,,,,,,,,,,,,,,,,,,,,,,,40967,2022-11-29_14h06.59.574,vts_reward_expectancy_bt_OFFLINE,2022.2.4,59.87532579691902,
,,,,,,,,,,,,,,,,,,,,,,,,,,0,0,0,0,2,0,2,0,,,,,,,,,,,,,,,,,,,,,,,,,,,,,,,,,,,,,,,,,641.0741326679708,167,Y,circle,0.0012583319330587983,,,,,1,0,,,1,639.5721837920137,,637.5201852889732,639.0217007719912,639.0217007719912,639.0217007719912,k,0.525839205016382,,,,,,,,,,,,,,,,,,,,,,,,,,,,,,,,,,,,,,,,,,,,,40967,2022-11-29_14h06.59.574,vts_reward_expectancy_bt_OFFLINE,2022.2.4,59.87532579691902,
,,,,,,,,,,,,,,,,,,,,,,,,,,0,0,0,0,3,0,3,0,,,,,,,,,,,,,,,,,,,,,,,,,,,,,,,,,,,,,,,,,646.2128569689812,174,H,star,0.0010962580563500524,,,,,0,0,,,1,644.7112216399983,,642.0584966139868,643.5599234489491,643.5599234489491,643.5599234489491,k,1.1188096690457314,,,,,,,,,,,,,,,,,,,,,,,,,,,,,,,,,,,,,,,,,,,,,40967,2022-11-29_14h06.59.574,vts_reward_expectancy_bt_OFFLINE,2022.2.4,59.87532579691902,
,,,,,,,,,,,,,,,,,,,,,,,,,,0,0,0,0,4,0,4,0,,,,,,,,,,,,,,,,,,,,,,,,,,,,,,,,,,,,,,,,,651.0515639189398,139,U,hexagon,0.0012686080299317837,,,,,1,1,,,1,649.5500330330105,,647.1972708569374,648.6988862439757,648.6988862439757,648.6988862439757,k,0.8187902311328799,,,,,,,,,,,,,,,,,,,,,,,,,,,,,,,,,,,,,,,,,,,,,40967,2022-11-29_14h06.59.574,vts_reward_expectancy_bt_OFFLINE,2022.2.4,59.87532579691902,
,,,,,,,,,,,,,,,,,,,,,,,,,,0,0,0,0,5,0,5,0,,,,,,,,,,,,,,,,,,,,,,,,,,,,,,,,,,,,,,,,,655.6064539150102,160,D,triangle,0.0009406129829585552,,,,,1,0,,,1,654.1048933229176,,652.0358896079706,653.5377007370116,653.5377007370116,653.5377007370116,j,0.5458321131300181,,,,,,,,,,,,,,,,,,,,,,,,,,,,,,,,,,,,,,,,,,,,,40967,2022-11-29_14h06.59.574,vts_reward_expectancy_bt_OFFLINE,2022.2.4,59.87532579691902,
,,,,,,,,,,,,,,,,,,,,,,,,,,0,0,0,0,6,0,6,0,,,,,,,,,,,,,,,,,,,,,,,,,,,,,,,,,,,,,,,,,660.1615655230125,181,S,circle,0.0012112210970371962,,,,,1,0,,,1,658.6598965319572,,656.5911541639362,658.0928343699779,658.0928343699779,658.0928343699779,k,0.5358099379809573,,,,,,,,,,,,,,,,,,,,,,,,,,,,,,,,,,,,,,,,,,,,,40967,2022-11-29_14h06.59.574,vts_reward_expectancy_bt_OFFLINE,2022.2.4,59.87532579691902,
,,,,,,,,,,,,,,,,,,,,,,,,,,0,0,0,0,7,0,7,0,,,,,,,,,,,,,,,,,,,,,,,,,,,,,,,,,,,,,,,,,664.7335383569589,132,B,star,0.001224634936079383,,,,,1,0,,,1,663.2317105300026,,661.1460327149834,662.6478571989574,662.6478571989574,662.6478571989574,j,0.5612049141200259,,,,,,,,,,,,,,,,,,,,,,,,,,,,,,,,,,,,,,,,,,,,,40967,2022-11-29_14h06.59.574,vts_reward_expectancy_bt_OFFLINE,2022.2.4,59.87532579691902,
,,,,,,,,,,,,,,,,,,,,,,,,,,0,0,0,0,8,0,8,0,,,,,,,,,,,,,,,,,,,,,,,,,,,,,,,,,,,,,,,,,669.3552587149898,125,W,star,0.001415099948644638,,,,,1,0,,,1,667.8535239879275,,665.717853559996,667.2194239089731,667.2194239089731,667.2194239089731,k,0.6020144590875134,,,,,,,,,,,,,,,,,,,,,,,,,,,,,,,,,,,,,,,,,,,,,40967,2022-11-29_14h06.59.574,vts_reward_expectancy_bt_OFFLINE,2022.2.4,59.87532579691902,
,,,,,,,,,,,,,,,,,,,,,,,,,,0,0,0,0,9,0,9,0,,,,,,,,,,,,,,,,,,,,,,,,,,,,,,,,,,,,,,,,,674.1270714369603,146,F,circle,0.0012437880504876375,,,,,1,0,,,1,672.6257619740209,,670.3397050279891,671.8413985049119,671.8413985049119,671.8413985049119,j,0.7517650281079113,,,,,,,,,,,,,,,,,,,,,,,,,,,,,,,,,,,,,,,,,,,,,40967,2022-11-29_14h06.59.574,vts_reward_expectancy_bt_OFFLINE,2022.2.4,59.87532579691902,
,,,,,,,,,,,,,,,,,,,,,,,,,,,,,,,,,,0,0,0,0,0,0,0,0,,,,,,,,,,,,,,,,,,,,,,,,,,,,0,990,,,,703.7096779720159,174,U,triangle,0.001897557987831533,,,,,1,0,,,2,,,,,,,,,698.6707806069171,698.6707806069171,698.6707806069171,698.6707806069171,700.1557169139851,700.1557169139851,700.1557169139851,700.1557169139851,700.1725836879341,700.1725836879341,700.1725836879341,700.1725836879341,-1,number,NA,f,2.0261927830288187,vtsPrac,702.2248697290197,,,,,,,,,,,,,,,,,,,,,,,,,,40967,2022-11-29_14h06.59.574,vts_reward_expectancy_bt_OFFLINE,2022.2.4,59.87532579691902,
,,,,,,,,,,,,,,,,,,,,,,,,,,,,,,,,,,0,0,0,0,1,0,1,0,,,,,,,,,,,,,,,,,,,,,,,,,,,,0,990,,,,709.1991308999714,125,B,star,0.001141684944741428,,,,,1,0,,,2,,,,,,,,,704.6947642739397,704.6947642739397,704.6947642739397,704.6947642739397,706.1956980879186,706.1956980879186,706.1956980879186,706.1956980879186,706.1956980879186,706.1956980879186,706.1956980879186,706.1956980879186,repeat,number,numRpt,d,1.4755226559937,vtsPrac,707.6975869250018,,,,,,,,,,,,,,,,,,,,,,,,,,40967,2022-11-29_14h06.59.574,vts_reward_expectancy_bt_OFFLINE,2022.2.4,59.87532579691902,
,,,,,,,,,,,,,,,,,,,,,,,,,,,,,,,,,,0,0,0,0,2,0,2,0,,,,,,,,,,,,,,,,,,,,,,,,,,,,0,990,,,,714.6717517049983,167,Y,star,0.0011807739501819015,,,,,1,0,,,2,,,,,,,,,710.1835191450082,710.1835191450082,710.1835191450082,710.1835191450082,711.6850936539704,711.6850936539704,711.6850936539704,711.6850936539704,711.6850936539704,711.6850936539704,711.6850936539704,711.6850936539704,switch,letter,lettSwt,k,1.4433106870856136,vtsPrac,713.1701776229311,,,,,,,,,,,,,,,,,,,,,,,,,,40967,2022-11-29_14h06.59.574,vts_reward_expectancy_bt_OFFLINE,2022.2.4,59.87532579691902,
,,,,,,,,,,,,,,,,,,,,,,,,,,,,,,,,,,0,0,0,0,3,0,3,0,,,,,,,,,,,,,,,,,,,,,,,,,,,,0,990,,,,720.6450810069218,132,D,hexagon,0.0008236299036070704,,,,,1,0,,,2,,,,,,,,,715.6403925640043,715.6403925640043,715.6403925640043,715.6403925640043,717.1412056689151,717.1412056689151,717.1412056689151,717.1412056689151,717.1412056689151,717.1412056689151,717.1412056689151,717.1412056689151,switch,number,numSwt,d,1.9726575970416889,vtsPrac,719.1435218489496,,,,,,,,,,,,,,,,,,,,,,,,,,40967,2022-11-29_14h06.59.574,vts_reward_expectancy_bt_OFFLINE,2022.2.4,59.87532579691902,
,,,,,,,,,,,,,,,,,,,,,,,,,,,,,,,,,,0,0,0,0,4,0,4,0,,,,,,,,,,,,,,,,,,,,,,,,,,,,0,990,,,,725.4169506189646,174,U,hexagon,0.0014933509519323707,,,,,1,0,,,2,,,,,,,,,721.6294121849351,721.6294121849351,721.6294121849351,721.6294121849351,723.1313254729612,723.1313254729612,723.1313254729612,723.1313254729612,723.1313254729612,723.1313254729612,723.1313254729612,723.1313254729612,repeat,number,numRpt,f,0.7530653420835733,vtsPrac,723.9153433740139,,,,,,,,,,,,,,,,,,,,,,,,,,40967,2022-11-29_14h06.59.574,vts_reward_expectancy_bt_OFFLINE,2022.2.4,59.87532579691902,
,,,,,,,,,,,,,,,,,,,,,,,,,,,,,,,,,,0,0,0,0,5,0,5,0,,,,,,,,,,,,,,,,,,,,,,,,,,,,0,990,,,,729.872038043919,125,B,triangle,0.0011731620179489255,,,,,1,0,,,2,,,,,,,,,726.4014926169766,726.4014926169766,726.4014926169766,726.4014926169766,727.9030947439605,727.9030947439605,727.9030947439605,727.9030947439605,727.9030947439605,727.9030947439605,727.9030947439605,727.9030947439605,switch,letter,lettSwt,j,0.44885902816895396,vtsPrac,728.3701624339446,,,,,,,,,,,,,,,,,,,,,,,,,,40967,2022-11-29_14h06.59.574,vts_reward_expectancy_bt_OFFLINE,2022.2.4,59.87532579691902,
,,,,,,,,,,,,,,,,,,,,,,,,,,,,,,,,,,0,0,0,0,6,0,6,0,,,,,,,,,,,,,,,,,,,,,,,,,,,,0,990,,,,735.1609528500121,167,Y,circle,0.0012825630838051438,,,,,1,0,,,2,,,,,,,,,730.8561352789402,730.8561352789402,730.8561352789402,730.8561352789402,732.3579110630089,732.3579110630089,732.3579110630089,732.3579110630089,732.3579110630089,732.3579110630089,732.3579110630089,732.3579110630089,switch,number,numSwt,f,1.269223541021347,vtsPrac,733.6594102500239,,,,,,,,,,,,,,,,,,,,,,,,,,40967,2022-11-29_14h06.59.574,vts_reward_expectancy_bt_OFFLINE,2022.2.4,59.87532579691902,
,,,,,,,,,,,,,,,,,,,,,,,,,,,,,,,,,,0,0,0,0,7,0,7,0,,,,,,,,,,,,,,,,,,,,,,,,,,,,0,990,,,,739.6660885139136,132,D,star,0.0012234039604663849,,,,,1,0,,,2,,,,,,,,,736.1454539539991,736.1454539539991,736.1454539539991,736.1454539539991,737.6470668769907,737.6470668769907,737.6470668769907,737.6470668769907,737.6470668769907,737.6470668769907,737.6470668769907,737.6470668769907,switch,letter,lettSwt,j,0.49208516406361014,vtsPrac,738.1644556199899,739.6660885139136,,,,,,,,,,,,,,,,,,,,,,,,,40967,2022-11-29_14h06.59.574,vts_reward_expectancy_bt_OFFLINE,2022.2.4,59.87532579691902,
,,,,,,,,,,,,,,,,,,,,,,,,,,,,,,,,,,0,0,0,0,8,0,8,0,,,,,,,,,,,,,,,,,,,,,,,,,,,,0,990,,,,744.4213111089775,174,F,circle,0.0010030870325863361,,,,,1,0,,,2,,,,,,,,,740.6505059839692,740.6505059839692,740.6505059839692,740.6505059839692,742.1520692099584,742.1520692099584,742.1520692099584,742.1520692099584,742.1520692099584,742.1520692099584,742.1520692099584,742.1520692099584,switch,number,numSwt,f,0.7351865030359477,vtsPrac,742.9197997129522,,,,,,,,,,,,,,,,,,,,,,,,,,40967,2022-11-29_14h06.59.574,vts_reward_expectancy_bt_OFFLINE,2022.2.4,59.87532579691902,
,,,,,,,,,,,,,,,,,,,,,,,,,,,,,,,,,,0,0,0,0,9,0,9,0,,,,,,,,,,,,,,,,,,,,,,,,,,,,0,990,,,,749.0432113929419,139,D,triangle,0.001323146978393197,,,,,1,0,,,2,,,,,,,,,745.4056362619158,745.4056362619158,745.4056362619158,745.4056362619158,746.9072953769937,746.9072953769937,746.9072953769937,746.9072953769937,746.9072953769937,746.9072953769937,746.9072953769937,746.9072953769937,repeat,number,numRpt,d,0.6029578869929537,vtsPrac,747.5412212419324,749.0432113929419,,,,,,,,,,,,,,,,,,,,,,,,,40967,2022-11-29_14h06.59.574,vts_reward_expectancy_bt_OFFLINE,2022.2.4,59.87532579691902,
,,,,,,,,,,,,,,,,,,,,,,,,,,,,,,,,,,0,0,0,0,10,0,10,0,,,,,,,,,,,,,,,,,,,,,,,,,,,,0,990,,,,753.5981625949498,167,S,star,0.0012835660018026829,,,,,1,0,,,2,,,,,,,,,750.0276932979468,750.0276932979468,750.0276932979468,750.0276932979468,751.5291482629254,751.5291482629254,751.5291482629254,751.5291482629254,751.5291482629254,751.5291482629254,751.5291482629254,751.5291482629254,switch,letter,lettSwt,k,0.5509179370710626,vtsPrac,752.0964619179722,753.5981625949498,754.0985045200214,,,,,,,,,,,,,,,,,,,,,,,,40967,2022-11-29_14h06.59.574,vts_reward_expectancy_bt_OFFLINE,2022.2.4,59.87532579691902,
,,,,,,,,,,,,,,,,,,,,,,,,,,,,,,,,,,0,0,0,0,11,0,11,0,,,,,,,,,,,,,,,,,,,,,,,,,,,,0,990,,,,759.0041383469943,146,B,triangle,0.0009152709972113371,,,,,1,0,,,2,,,,,,,,,754.5823698439635,754.5823698439635,754.5823698439635,754.5823698439635,756.0841387929395,756.0841387929395,756.0841387929395,756.0841387929395,756.0841387929395,756.0841387929395,756.0841387929395,756.0841387929395,repeat,letter,lettRpt,j,1.3949218750931323,vtsPrac,757.5023643330205,,,,,,,,,,,,,,,,,,,,,,,,,,40967,2022-11-29_14h06.59.574,vts_reward_expectancy_bt_OFFLINE,2022.2.4,59.87532579691902,
,,,,,,,,,,,,,,,,,,,,,,,,,,,,,,,,,,0,0,0,0,12,0,12,0,,,,,,,,,,,,,,,,,,,,,,,,,,,,0,990,,,,763.8093667429639,125,F,triangle,0.0013677580282092094,,,,,1,0,,,2,,,,,,,,,759.9885252199601,759.9885252199601,759.9885252199601,759.9885252199601,761.4901353300083,761.4901353300083,761.4901353300083,761.4901353300083,761.4901353300083,761.4901353300083,761.4901353300083,761.4901353300083,repeat,letter,lettRpt,j,0.7921246330952272,vtsPrac,762.3077163419221,,,,,,,,,,,,,,,,,,,,,,,,,,40967,2022-11-29_14h06.59.574,vts_reward_expectancy_bt_OFFLINE,2022.2.4,59.87532579691902,
,,,,,,,,,,,,,,,,,,,,,,,,,,,,,,,,,,0,0,0,0,13,0,13,0,,,,,,,,,,,,,,,,,,,,,,,,,,,,0,990,,,,768.4978882590076,139,B,star,0.001216356991790235,,,,,1,0,,,2,,,,,,,,,764.7937401719391,764.7937401719391,764.7937401719391,764.7937401719391,766.2953246439574,766.2953246439574,766.2953246439574,766.2953246439574,766.2953246439574,766.2953246439574,766.2953246439574,766.2953246439574,switch,number,numSwt,d,0.6685568890534341,vtsPrac,766.9961465599481,,,,,,,,,,,,,,,,,,,,,,,,,,40967,2022-11-29_14h06.59.574,vts_reward_expectancy_bt_OFFLINE,2022.2.4,59.87532579691902,
,,,,,,,,,,,,,,,,,,,,,,,,,,,,,,,,,,0,0,0,0,14,0,14,0,,,,,,,,,,,,,,,,,,,,,,,,,,,,0,990,,,,773.3366437179502,146,S,circle,0.0012391480850055814,,,,,1,0,,,2,,,,,,,,,769.4823025739752,769.4823025739752,769.4823025739752,769.4823025739752,770.9839635739336,770.9839635739336,770.9839635739336,770.9839635739336,770.9839635739336,770.9839635739336,770.9839635739336,770.9839635739336,repeat,number,numRpt,d,0.8182866600109264,vtsPrac,771.8347468819702,773.3366437179502,,,,,,,,,,,,,,,,,,,,,,,,,40967,2022-11-29_14h06.59.574,vts_reward_expectancy_bt_OFFLINE,2022.2.4,59.87532579691902,
,,,,,,,,,,,,,,,,,,,,,,,,,,,,,,,,,,0,0,0,0,15,0,15,0,,,,,,,,,,,,,,,,,,,,,,,,,,,,0,990,,,,777.9415914519923,132,U,star,0.00131914799567312,,,,,1,0,,,2,,,,,,,,,774.3211326620076,774.3211326620076,774.3211326620076,774.3211326620076,775.8228166729677,775.8228166729677,775.8228166729677,775.8228166729677,775.8228166729677,775.8228166729677,775.8228166729677,775.8228166729677,repeat,number,numRpt,d,0.5913762050913647,vtsPrac,776.4399131590035,,,,,,,,,,,,,,,,,,,,,,,,,,40967,2022-11-29_14h06.59.574,vts_reward_expectancy_bt_OFFLINE,2022.2.4,59.87532579691902,
,,,,,,,,,,,,,,,,,,,,,,,,,,,,,,,,,,0,0,0,0,16,0,16,0,,,,,,,,,,,,,,,,,,,,,,,,,,,,0,990,,,,782.5967953390209,167,W,star,0.0010312109952792525,,,,,1,0,,,2,,,,,,,,,778.9259494839935,778.9259494839935,778.9259494839935,778.9259494839935,780.4278248299379,780.4278248299379,780.4278248299379,780.4278248299379,780.4278248299379,780.4278248299379,780.4278248299379,780.4278248299379,switch,letter,lettSwt,k,0.6345716411015019,vtsPrac,781.0953228869475,,,,,,,,,,,,,,,,,,,,,,,,,,40967,2022-11-29_14h06.59.574,vts_reward_expectancy_bt_OFFLINE,2022.2.4,59.87532579691902,
,,,,,,,,,,,,,,,,,,,,,,,,,,,,,,,,,,0,0,0,0,17,0,17,0,,,,,,,,,,,,,,,,,,,,,,,,,,,,0,990,,,,787.6355732119409,132,D,hexagon,0.0011813949095085263,,,,,1,0,,,2,,,,,,,,,783.5812632489251,783.5812632489251,783.5812632489251,783.5812632489251,785.0829068149906,785.0829068149906,785.0829068149906,785.0829068149906,785.0829068149906,785.0829068149906,785.0829068149906,785.0829068149906,switch,number,numSwt,d,1.0189784821122885,vtsPrac,786.1338712839643,,,,,,,,,,,,,,,,,,,,,,,,,,40967,2022-11-29_14h06.59.574,vts_reward_expectancy_bt_OFFLINE,2022.2.4,59.87532579691902,
,,,,,,,,,,,,,,,,,,,,,,,,,,,,,,,,,,0,0,0,0,18,0,18,0,,,,,,,,,,,,,,,,,,,,,,,,,,,,0,990,,,,792.2907502239104,125,U,star,0.0013137840433046222,,,,,1,0,,,2,,,,,,,,,788.6200686669908,788.6200686669908,788.6200686669908,788.6200686669908,790.1216300389497,790.1216300389497,790.1216300389497,790.1216300389497,790.1216300389497,790.1216300389497,790.1216300389497,790.1216300389497,repeat,number,numRpt,d,0.6492163650691509,vtsPrac,790.7890618919628,792.2907502239104,,,,,,,,,,,,,,,,,,,,,,,,,40967,2022-11-29_14h06.59.574,vts_reward_expectancy_bt_OFFLINE,2022.2.4,59.87532579691902,
,,,,,,,,,,,,,,,,,,,,,,,,,,,,,,,,,,0,0,0,0,19,0,19,0,,,,,,,,,,,,,,,,,,,,,,,,,,,,0,990,,,,797.3295449879952,160,H,circle,0.0010482810903340578,,,,,0,0,,,2,,,,,,,,,793.2758836200228,793.2758836200228,793.2758836200228,793.2758836200228,794.7768065619748,794.7768065619748,794.7768065619748,794.7768065619748,794.7768065619748,794.7768065619748,794.7768065619748,794.7768065619748,switch,letter,NA,k,1.0241560480790213,vtsPrac,795.8447708300082,,,,,,,,,,,,,,,,,,,,,,,,,,40967,2022-11-29_14h06.59.574,vts_reward_expectancy_bt_OFFLINE,2022.2.4,59.87532579691902,
,,,,,,,,,,,,,,,,,,,,,,,,,,,,,,,,,,0,0,0,0,20,0,20,0,,,,,,,,,,,,,,,,,,,,,,,,,,,,0,990,,,,802.3520592999412,174,H,hexagon,0.001204964006319642,,,,,1,1,,,2,,,,,,,,,798.31409845897,798.31409845897,798.31409845897,798.31409845897,799.8158198469318,799.8158198469318,799.8158198469318,799.8158198469318,799.8158198469318,799.8158198469318,799.8158198469318,799.8158198469318,repeat,letter,lettRpt,j,1.0122173421550542,vtsPrac,800.8670094090048,,,,,,,,,,,,,,,,,,,,,,,,,,40967,2022-11-29_14h06.59.574,vts_reward_expectancy_bt_OFFLINE,2022.2.4,59.87532579691902,
,,,,,,,,,,,,,,,,,,,,,,,,,,,,,,,,,,0,0,0,0,21,0,21,0,,,,,,,,,,,,,,,,,,,,,,,,,,,,0,990,,,,806.9402772899484,146,S,circle,0.0012417890829965472,,,,,1,0,,,2,,,,,,,,,803.3364240629598,803.3364240629598,803.3364240629598,803.3364240629598,804.838126268005,804.838126268005,804.838126268005,804.838126268005,804.838126268005,804.838126268005,804.838126268005,804.838126268005,switch,number,numSwt,d,0.5809767610626295,vtsPrac,805.4384810969932,,,,,,,,,,,,,,,,,,,,,,,,,,40967,2022-11-29_14h06.59.574,vts_reward_expectancy_bt_OFFLINE,2022.2.4,59.87532579691902,
,,,,,,,,,,,,,,,,,,,,,,,,,,,,,,,,,,0,0,0,0,22,0,22,0,,,,,,,,,,,,,,,,,,,,,,,,,,,,0,990,,,,811.5452231479576,125,D,triangle,0.001268463907763362,,,,,1,0,,,2,,,,,,,,,807.92477545992,807.92477545992,807.92477545992,807.92477545992,809.426288563991,809.426288563991,809.426288563991,809.426288563991,809.426288563991,809.426288563991,809.426288563991,809.426288563991,repeat,number,numRpt,d,0.5933835310861468,vtsPrac,810.0437990289647,,,,,,,,,,,,,,,,,,,,,,,,,,40967,2022-11-29_14h06.59.574,vts_reward_expectancy_bt_OFFLINE,2022.2.4,59.87532579691902,
,,,,,,,,,,,,,,,,,,,,,,,,,,,,,,,,,,0,0,0,0,23,0,23,0,,,,,,,,,,,,,,,,,,,,,,,,,,,,0,990,,,,816.4673665199662,160,B,star,0.0014405330875888467,,,,,1,0,,,2,,,,,,,,,812.529708734015,812.529708734015,812.529708734015,812.529708734015,814.0313992640004,814.0313992640004,814.0313992640004,814.0313992640004,814.0313992640004,814.0313992640004,814.0313992640004,814.0313992640004,repeat,number,numRpt,f,0.906806662096642,vtsPrac,814.9659235780127,,,,,,,,,,,,,,,,,,,,,,,,,,40967,2022-11-29_14h06.59.574,vts_reward_expectancy_bt_OFFLINE,2022.2.4,59.87532579691902,
,,,,,,,,,,,,,,,,,,,,,,,,,,,,,,,,,,0,0,0,0,24,0,24,0,,,,,,,,,,,,,,,,,,,,,,,,,,,,0,990,,,,821.790022188914,125,F,circle,0.0012773839989677072,,,,,1,0,,,2,,,,,,,,,817.4517972349422,817.4517972349422,817.4517972349422,817.4517972349422,818.9534704389516,818.9534704389516,818.9534704389516,818.9534704389516,818.9534704389516,818.9534704389516,818.9534704389516,818.9534704389516,switch,letter,lettSwt,j,1.3183837750693783,vtsPrac,820.2882214270066,821.790022188914,822.2906247419305,,,,,,,,,,,,,,,,,,,,,,,,40967,2022-11-29_14h06.59.574,vts_reward_expectancy_bt_OFFLINE,2022.2.4,59.87532579691902,
,,,,,,,,,,,,,,,,,,,,,,,,,,,,,,,,,,0,0,0,0,25,0,25,0,,,,,,,,,,,,,,,,,,,,,,,,,,,,0,990,,,,826.3949615639867,146,B,triangle,0.0010435640579089522,,,,,1,0,,,2,,,,,,,,,822.7743774619885,822.7743774619885,822.7743774619885,822.7743774619885,824.2761140679941,824.2761140679941,824.2761140679941,824.2761140679941,824.2761140679941,824.2761140679941,824.2761140679941,824.2761140679941,repeat,letter,lettRpt,j,0.5954318670555949,vtsPrac,824.8932359939208,,,,,,,,,,,,,,,,,,,,,,,,,,40967,2022-11-29_14h06.59.574,vts_reward_expectancy_bt_OFFLINE,2022.2.4,59.87532579691902,
,,,,,,,,,,,,,,,,,,,,,,,,,,,,,,,,,,0,0,0,0,26,0,26,0,,,,,,,,,,,,,,,,,,,,,,,,,,,,0,990,,,,831.0668704520212,174,Y,hexagon,0.0012824320001527667,,,,,1,0,,,2,,,,,,,,,827.3793957739836,827.3793957739836,827.3793957739836,827.3793957739836,828.8813246439677,828.8813246439677,828.8813246439677,828.8813246439677,828.8813246439677,828.8813246439677,828.8813246439677,828.8813246439677,repeat,letter,lettRpt,k,0.6594761740416288,vtsPrac,829.5652292430168,831.0668704520212,,,,,,,,,,,,,,,,,,,,,,,,,40967,2022-11-29_14h06.59.574,vts_reward_expectancy_bt_OFFLINE,2022.2.4,59.87532579691902,
,,,,,,,,,,,,,,,,,,,,,,,,,,,,,,,,,,0,0,0,0,27,0,27,0,,,,,,,,,,,,,,,,,,,,,,,,,,,,0,990,,,,836.0892151939915,132,H,circle,0.0013184620765969157,,,,,0,0,,,2,,,,,,,,,832.0518440050073,832.0518440050073,832.0518440050073,832.0518440050073,833.5530771350022,833.5530771350022,833.5530771350022,833.5530771350022,833.5530771350022,833.5530771350022,833.5530771350022,833.5530771350022,repeat,letter,NA,k,1.0047089700819924,vtsPrac,834.5890120589174,,,,,,,,,,,,,,,,,,,,,,,,,,40967,2022-11-29_14h06.59.574,vts_reward_expectancy_bt_OFFLINE,2022.2.4,59.87532579691902,
,,,,,,,,,,,,,,,,,,,,,,,,,,,,,,,,,,0,0,0,0,28,0,28,0,,,,,,,,,,,,,,,,,,,,,,,,,,,,0,990,,,,841.1446403139271,146,F,star,0.0012734229676425457,,,,,1,1,,,2,,,,,,,,,837.0734728719108,837.0734728719108,837.0734728719108,837.0734728719108,838.5752997749951,838.5752997749951,838.5752997749951,838.5752997749951,838.5752997749951,838.5752997749951,838.5752997749951,838.5752997749951,repeat,letter,lettRpt,j,1.045398619142361,vtsPrac,839.6448548720218,,,,,,,,,,,,,,,,,,,,,,,,,,40967,2022-11-29_14h06.59.574,vts_reward_expectancy_bt_OFFLINE,2022.2.4,59.87532579691902,
,,,,,,,,,,,,,,,,,,,,,,,,,,,,,,,,,,0,0,0,0,29,0,29,0,,,,,,,,,,,,,,,,,,,,,,,,,,,,0,990,,,,845.6998750049388,174,Y,circle,0.0012748439330607653,,,,,1,0,,,2,,,,,,,,,842.1290083199274,842.1290083199274,842.1290083199274,842.1290083199274,843.6306565069826,843.6306565069826,843.6306565069826,843.6306565069826,843.6306565069826,843.6306565069826,843.6306565069826,843.6306565069826,switch,number,numSwt,f,0.5470207030884922,vtsPrac,844.1979549139505,,,,,,,,,,,,,,,,,,,,,,,,,,40967,2022-11-29_14h06.59.574,vts_reward_expectancy_bt_OFFLINE,2022.2.4,59.87532579691902,
,,,,,,,,,,,,,,,,,,,,,,,,,,,,,,,,,,0,0,0,0,30,0,30,0,,,,,,,,,,,,,,,,,,,,,,,,,,,,0,990,,,,850.8554778629914,139,W,star,0.0012139779282733798,,,,,1,0,,,2,,,,,,,,,846.6840034290217,846.6840034290217,846.6840034290217,846.6840034290217,848.1859372719191,848.1859372719191,848.1859372719191,848.1859372719191,848.1859372719191,848.1859372719191,848.1859372719191,848.1859372719191,repeat,number,numRpt,d,1.145094696083106,vtsPrac,849.3539053319255,,,,,,,,,,,,,,,,,,,,,,,,,,40967,2022-11-29_14h06.59.574,vts_reward_expectancy_bt_OFFLINE,2022.2.4,59.87532579691902,
