LTriangleOpac,LCircleOpac,LHexagonOpac,LStarOpac,RTriangleOpac,RCircleOpac,RHexagonOpac,RStarOpac,LShape_ID,RShape_ID,training_blocks.thisRepN,training_blocks.thisTrialN,training_blocks.thisN,training_blocks.thisIndex,training.thisRepN,training.thisTrialN,training.thisN,training.thisIndex,task1_prac_redo.thisRepN,task1_prac_redo.thisTrialN,task1_prac_redo.thisN,task1_prac_redo.thisIndex,task1_prac_trials.thisRepN,task1_prac_trials.thisTrialN,task1_prac_trials.thisN,task1_prac_trials.thisIndex,task2_prac_redo.thisRepN,task2_prac_redo.thisTrialN,task2_prac_redo.thisN,task2_prac_redo.thisIndex,task2_praac_trials.thisRepN,task2_praac_trials.thisTrialN,task2_praac_trials.thisN,task2_praac_trials.thisIndex,vts_prac_redo.thisRepN,vts_prac_redo.thisTrialN,vts_prac_redo.thisN,vts_prac_redo.thisIndex,vts_practice_trials.thisRepN,vts_practice_trials.thisTrialN,vts_practice_trials.thisN,vts_practice_trials.thisIndex,trials_norew.thisRepN,trials_norew.thisTrialN,trials_norew.thisN,trials_norew.thisIndex,block.thisRepN,block.thisTrialN,block.thisN,block.thisIndex,trials_rew.thisRepN,trials_rew.thisTrialN,trials_rew.thisN,trials_rew.thisIndex,key_resp.started,key_resp.keys,key_resp.rt,left_circle.started,right_circle.started,left_triangle.started,right_triangle.started,left_star.started,right_star.started,left_hexagon.started,right_hexagon.started,training_fix.started,training_resp.started,training_resp.keys,training_resp.rt,points_trial,points_cumul,trainBlock,training_feedback_txt.started,fix.started,training_feedback_txt.stopped,fix.stopped,curr_topStim,curr_bottStim,curr_shape,ISI.started,tgt_fix_prac1.started,top_target_prac1.started,bott_target_prac1.started,target_resp_prac1.started,acc,E1,target_resp_prac1.keys,target_resp_prac1.rt,pracBlock,prac_fback_text.started,prac_fback_text.stopped,tgt_fix_prac2.started,top_target_prac2.started,bott_target_prac2.started,target_resp_prac2.started,target_resp_prac2.keys,target_resp_prac2.rt,star.started,hegagon.started,triangle.started,circle.started,top_target.started,tgt_fix.started,bot_target.started,target_resp.started,star.stopped,hegagon.stopped,triangle.stopped,circle.stopped,alt,task,condition,target_resp.keys,target_resp.rt,rewCond,vts_fback.started,vts_fback.stopped,blockNum,norew_fback.started,norew_fback.stopped,key_resp_2.keys,key_resp_2.rt,rewExpectancy,feedbk_text.started,feedbk_text.stopped,text_3.started,debrief.started,text_3.stopped,button.started,debrief.index,debrief.itemText,debrief.type,debrief.granularity,debrief.font,debrief.markerColor,debrief.response,debrief.rt,button.numClicks,button.timesOn,button.timesOff,participant,date,expName,psychopyVersion,frameRate,
,,,,,,,,,,,,,,,,,,,,,,,,,,,,,,,,,,,,,,,,,,,,,,,,,,,,,,688.6427086309996,space,54.55746234511025,,,,,,,,,,,,,,,,,,,,,,,,,,,,,,,,,,,,,,,,,,,,,,,,,,,,,,,,,,,,,,,,,,,,,,,,,,,,,,,,,,,,41318,2022-11-04_15h10.18.421,vts_reward_expectancy_bt_OFFLINE,2022.2.4,59.99814016921688,
0,0,1,0,0,0,0,1,hexagon,star,0,0,0,0,0,0,0,8,,,,,,,,,,,,,,,,,,,,,,,,,,,,,,,,,,,,,,,,800.9511341199977,800.9511341199977,800.9511341199977,800.9511341199977,800.9511341199977,800.9511341199977,800.9511341199977,800.9511341199977,800.9511341199977,800.9511341199977,l,1.2457102370681241,1,1,0,802.2212135229493,803.7225377399009,,,,,,,,,,,,,,,,,,,,,,,,,,,,,,,,,,,,,,,,,,,,,,,,,,,,,,,,,,,,,,,,,,,41318,2022-11-04_15h10.18.421,vts_reward_expectancy_bt_OFFLINE,2022.2.4,59.99814016921688,
0,0,0,1,1,0,0,0,star,triangle,0,0,0,0,0,1,1,9,,,,,,,,,,,,,,,,,,,,,,,,,,,,,,,,,,,,,,,,804.2226642839378,804.2226642839378,804.2226642839378,804.2226642839378,804.2226642839378,804.2226642839378,804.2226642839378,804.2226642839378,804.2226642839378,804.2226642839378,l,1.439057780080475,1,2,0,805.6899003959261,807.1905545009067,807.1905545009067,,,,,,,,,,,,,,,,,,,,,,,,,,,,,,,,,,,,,,,,,,,,,,,,,,,,,,,,,,,,,,,,,,41318,2022-11-04_15h10.18.421,vts_reward_expectancy_bt_OFFLINE,2022.2.4,59.99814016921688,
1,0,0,0,0,0,1,0,triangle,hexagon,0,0,0,0,0,2,2,1,,,,,,,,,,,,,,,,,,,,,,,,,,,,,,,,,,,,,,,,807.6906817059498,807.6906817059498,807.6906817059498,807.6906817059498,807.6906817059498,807.6906817059498,807.6906817059498,807.6906817059498,807.6906817059498,807.6906817059498,l,1.2111329111503437,10,12,0,808.927433048957,810.4269512490137,810.4269512490137,810.9270267459797,,,,,,,,,,,,,,,,,,,,,,,,,,,,,,,,,,,,,,,,,,,,,,,,,,,,,,,,,,,,,,,,,41318,2022-11-04_15h10.18.421,vts_reward_expectancy_bt_OFFLINE,2022.2.4,59.99814016921688,
1,0,0,0,0,1,0,0,triangle,circle,0,0,0,0,0,3,3,0,,,,,,,,,,,,,,,,,,,,,,,,,,,,,,,,,,,,,,,,810.9270267459797,810.9270267459797,810.9270267459797,810.9270267459797,810.9270267459797,810.9270267459797,810.9270267459797,810.9270267459797,810.9270267459797,810.9270267459797,a,0.8317673751153052,1,13,0,811.7777707990026,813.2778730249265,813.2778730249265,,,,,,,,,,,,,,,,,,,,,,,,,,,,,,,,,,,,,,,,,,,,,,,,,,,,,,,,,,,,,,,,,,41318,2022-11-04_15h10.18.421,vts_reward_expectancy_bt_OFFLINE,2022.2.4,59.99814016921688,
0,0,0,1,0,1,0,0,star ,circle,0,0,0,0,0,4,4,10,,,,,,,,,,,,,,,,,,,,,,,,,,,,,,,,,,,,,,,,813.7798368389485,813.7798368389485,813.7798368389485,813.7798368389485,813.7798368389485,813.7798368389485,813.7798368389485,813.7798368389485,813.7798368389485,813.7798368389485,l,0.7470978021156043,10,23,0,814.5475563619984,816.0472132719588,816.0472132719588,816.547411306994,,,,,,,,,,,,,,,,,,,,,,,,,,,,,,,,,,,,,,,,,,,,,,,,,,,,,,,,,,,,,,,,,41318,2022-11-04_15h10.18.421,vts_reward_expectancy_bt_OFFLINE,2022.2.4,59.99814016921688,
1,0,0,0,0,0,0,1,triangle,star,0,0,0,0,0,5,5,2,,,,,,,,,,,,,,,,,,,,,,,,,,,,,,,,,,,,,,,,816.547411306994,816.547411306994,816.547411306994,816.547411306994,816.547411306994,816.547411306994,816.547411306994,816.547411306994,816.547411306994,816.547411306994,l,0.7464283551089466,10,33,0,817.3142754639266,818.8167966019828,,,,,,,,,,,,,,,,,,,,,,,,,,,,,,,,,,,,,,,,,,,,,,,,,,,,,,,,,,,,,,,,,,,41318,2022-11-04_15h10.18.421,vts_reward_expectancy_bt_OFFLINE,2022.2.4,59.99814016921688,
0,0,1,0,0,1,0,0,hexagon,circle,0,0,0,0,0,6,6,7,,,,,,,,,,,,,,,,,,,,,,,,,,,,,,,,,,,,,,,,819.3170894329669,819.3170894329669,819.3170894329669,819.3170894329669,819.3170894329669,819.3170894329669,819.3170894329669,819.3170894329669,819.3170894329669,819.3170894329669,a,1.5328634181059897,1,34,0,820.8681372759165,822.3681734349811,822.3681734349811,822.8682983119506,,,,,,,,,,,,,,,,,,,,,,,,,,,,,,,,,,,,,,,,,,,,,,,,,,,,,,,,,,,,,,,,,41318,2022-11-04_15h10.18.421,vts_reward_expectancy_bt_OFFLINE,2022.2.4,59.99814016921688,
0,1,0,0,0,0,1,0,circle,hexagon,0,0,0,0,0,7,7,4,,,,,,,,,,,,,,,,,,,,,,,,,,,,,,,,,,,,,,,,822.8682983119506,822.8682983119506,822.8682983119506,822.8682983119506,822.8682983119506,822.8682983119506,822.8682983119506,822.8682983119506,822.8682983119506,822.8682983119506,a,0.9508733230177313,10,44,0,823.8378218779108,825.3379248179263,825.3379248179263,825.8380742109148,,,,,,,,,,,,,,,,,,,,,,,,,,,,,,,,,,,,,,,,,,,,,,,,,,,,,,,,,,,,,,,,,41318,2022-11-04_15h10.18.421,vts_reward_expectancy_bt_OFFLINE,2022.2.4,59.99814016921688,
0,1,0,0,0,0,0,1,circle,star,0,0,0,0,0,8,8,5,,,,,,,,,,,,,,,,,,,,,,,,,,,,,,,,,,,,,,,,825.8380742109148,825.8380742109148,825.8380742109148,825.8380742109148,825.8380742109148,825.8380742109148,825.8380742109148,825.8380742109148,825.8380742109148,825.8380742109148,l,0.7260917661478743,1,45,0,826.5885945030022,828.0888165229699,828.0888165229699,,,,,,,,,,,,,,,,,,,,,,,,,,,,,,,,,,,,,,,,,,,,,,,,,,,,,,,,,,,,,,,,,,41318,2022-11-04_15h10.18.421,vts_reward_expectancy_bt_OFFLINE,2022.2.4,59.99814016921688,
0,1,0,0,1,0,0,0,circle,triangle,0,0,0,0,0,9,9,3,,,,,,,,,,,,,,,,,,,,,,,,,,,,,,,,,,,,,,,,828.5908121370012,828.5908121370012,828.5908121370012,828.5908121370012,828.5908121370012,828.5908121370012,828.5908121370012,828.5908121370012,828.5908121370012,828.5908121370012,a,1.3492834561038762,1,46,0,829.957900620997,831.4585631010123,831.4585631010123,831.958645646926,,,,,,,,,,,,,,,,,,,,,,,,,,,,,,,,,,,,,,,,,,,,,,,,,,,,,,,,,,,,,,,,,41318,2022-11-04_15h10.18.421,vts_reward_expectancy_bt_OFFLINE,2022.2.4,59.99814016921688,
0,0,0,1,0,0,1,0,star,hexagon,0,0,0,0,0,10,10,11,,,,,,,,,,,,,,,,,,,,,,,,,,,,,,,,,,,,,,,,831.958645646926,831.958645646926,831.958645646926,831.958645646926,831.958645646926,831.958645646926,831.958645646926,831.958645646926,831.958645646926,831.958645646926,a,0.749296865076758,1,47,0,832.7255152419675,834.2279222869547,,,,,,,,,,,,,,,,,,,,,,,,,,,,,,,,,,,,,,,,,,,,,,,,,,,,,,,,,,,,,,,,,,,41318,2022-11-04_15h10.18.421,vts_reward_expectancy_bt_OFFLINE,2022.2.4,59.99814016921688,
0,0,1,0,1,0,0,0,hexagon,triangle,0,0,0,0,0,11,11,6,,,,,,,,,,,,,,,,,,,,,,,,,,,,,,,,,,,,,,,,834.7281690459931,834.7281690459931,834.7281690459931,834.7281690459931,834.7281690459931,834.7281690459931,834.7281690459931,834.7281690459931,834.7281690459931,834.7281690459931,a,0.8813405610853806,1,48,0,835.628364849952,837.1290436699055,837.1290436699055,837.6290116920136,,,,,,,,,,,,,,,,,,,,,,,,,,,,,,,,,,,,,,,,,,,,,,,,,,,,,,,,,,,,,,,,,41318,2022-11-04_15h10.18.421,vts_reward_expectancy_bt_OFFLINE,2022.2.4,59.99814016921688,
1,0,0,0,0,0,0,1,triangle,star,0,0,0,0,1,0,12,2,,,,,,,,,,,,,,,,,,,,,,,,,,,,,,,,,,,,,,,,837.6290116920136,837.6290116920136,837.6290116920136,837.6290116920136,837.6290116920136,837.6290116920136,837.6290116920136,837.6290116920136,837.6290116920136,837.6290116920136,l,0.5242519481107593,10,58,0,838.1799116450129,839.6817907890072,,,,,,,,,,,,,,,,,,,,,,,,,,,,,,,,,,,,,,,,,,,,,,,,,,,,,,,,,,,,,,,,,,,41318,2022-11-04_15h10.18.421,vts_reward_expectancy_bt_OFFLINE,2022.2.4,59.99814016921688,
0,0,1,0,1,0,0,0,hexagon,triangle,0,0,0,0,1,1,13,6,,,,,,,,,,,,,,,,,,,,,,,,,,,,,,,,,,,,,,,,840.1820692250039,840.1820692250039,840.1820692250039,840.1820692250039,840.1820692250039,840.1820692250039,840.1820692250039,840.1820692250039,840.1820692250039,840.1820692250039,l,1.0759756001643836,1,59,0,841.2830540909199,842.7829311109381,842.7829311109381,,,,,,,,,,,,,,,,,,,,,,,,,,,,,,,,,,,,,,,,,,,,,,,,,,,,,,,,,,,,,,,,,,41318,2022-11-04_15h10.18.421,vts_reward_expectancy_bt_OFFLINE,2022.2.4,59.99814016921688,
1,0,0,0,0,1,0,0,triangle,circle,0,0,0,0,1,2,14,0,,,,,,,,,,,,,,,,,,,,,,,,,,,,,,,,,,,,,,,,843.2829972929321,843.2829972929321,843.2829972929321,843.2829972929321,843.2829972929321,843.2829972929321,843.2829972929321,843.2829972929321,843.2829972929321,843.2829972929321,l,1.114079917082563,1,60,0,844.4185606179526,845.9192781809252,845.9192781809252,846.4193580959691,,,,,,,,,,,,,,,,,,,,,,,,,,,,,,,,,,,,,,,,,,,,,,,,,,,,,,,,,,,,,,,,,41318,2022-11-04_15h10.18.421,vts_reward_expectancy_bt_OFFLINE,2022.2.4,59.99814016921688,
0,0,0,1,0,1,0,0,star ,circle,0,0,0,0,1,3,15,10,,,,,,,,,,,,,,,,,,,,,,,,,,,,,,,,,,,,,,,,846.4193580959691,846.4193580959691,846.4193580959691,846.4193580959691,846.4193580959691,846.4193580959691,846.4193580959691,846.4193580959691,846.4193580959691,846.4193580959691,a,0.7217234619893134,1,61,0,847.1694866250036,848.6718744719401,,,,,,,,,,,,,,,,,,,,,,,,,,,,,,,,,,,,,,,,,,,,,,,,,,,,,,,,,,,,,,,,,,,41318,2022-11-04_15h10.18.421,vts_reward_expectancy_bt_OFFLINE,2022.2.4,59.99814016921688,
0,0,0,1,1,0,0,0,star,triangle,0,0,0,0,1,4,16,9,,,,,,,,,,,,,,,,,,,,,,,,,,,,,,,,,,,,,,,,849.1720834909938,849.1720834909938,849.1720834909938,849.1720834909938,849.1720834909938,849.1720834909938,849.1720834909938,849.1720834909938,849.1720834909938,849.1720834909938,a,1.1193748430814594,10,71,0,850.3225052719936,851.823170796968,851.823170796968,852.3232177899918,,,,,,,,,,,,,,,,,,,,,,,,,,,,,,,,,,,,,,,,,,,,,,,,,,,,,,,,,,,,,,,,,41318,2022-11-04_15h10.18.421,vts_reward_expectancy_bt_OFFLINE,2022.2.4,59.99814016921688,
0,1,0,0,0,0,1,0,circle,hexagon,0,0,0,0,1,5,17,4,,,,,,,,,,,,,,,,,,,,,,,,,,,,,,,,,,,,,,,,852.3232177899918,852.3232177899918,852.3232177899918,852.3232177899918,852.3232177899918,852.3232177899918,852.3232177899918,852.3232177899918,852.3232177899918,852.3232177899918,l,1.0062430601101369,1,72,0,853.3554523909697,854.8593660899205,,,,,,,,,,,,,,,,,,,,,,,,,,,,,,,,,,,,,,,,,,,,,,,,,,,,,,,,,,,,,,,,,,,41318,2022-11-04_15h10.18.421,vts_reward_expectancy_bt_OFFLINE,2022.2.4,59.99814016921688,
0,1,0,0,0,0,0,1,circle,star,0,0,0,0,1,6,18,5,,,,,,,,,,,,,,,,,,,,,,,,,,,,,,,,,,,,,,,,855.3596650609979,855.3596650609979,855.3596650609979,855.3596650609979,855.3596650609979,855.3596650609979,855.3596650609979,855.3596650609979,855.3596650609979,855.3596650609979,l,0.7821528360946104,10,82,0,856.1604017189238,857.6606361409649,857.6606361409649,858.160517996992,,,,,,,,,,,,,,,,,,,,,,,,,,,,,,,,,,,,,,,,,,,,,,,,,,,,,,,,,,,,,,,,,41318,2022-11-04_15h10.18.421,vts_reward_expectancy_bt_OFFLINE,2022.2.4,59.99814016921688,
0,1,0,0,1,0,0,0,circle,triangle,0,0,0,0,1,7,19,3,,,,,,,,,,,,,,,,,,,,,,,,,,,,,,,,,,,,,,,,858.160517996992,858.160517996992,858.160517996992,858.160517996992,858.160517996992,858.160517996992,858.160517996992,858.160517996992,858.160517996992,858.160517996992,a,0.6596498340368271,10,92,0,858.8460815259023,860.3466092919698,860.3466092919698,860.8468618009938,,,,,,,,,,,,,,,,,,,,,,,,,,,,,,,,,,,,,,,,,,,,,,,,,,,,,,,,,,,,,,,,,41318,2022-11-04_15h10.18.421,vts_reward_expectancy_bt_OFFLINE,2022.2.4,59.99814016921688,
0,0,1,0,0,1,0,0,hexagon,circle,0,0,0,0,1,8,20,7,,,,,,,,,,,,,,,,,,,,,,,,,,,,,,,,,,,,,,,,860.8468618009938,860.8468618009938,860.8468618009938,860.8468618009938,860.8468618009938,860.8468618009938,860.8468618009938,860.8468618009938,860.8468618009938,860.8468618009938,a,0.718018091050908,10,102,0,861.5971096329158,863.097677999991,863.097677999991,,,,,,,,,,,,,,,,,,,,,,,,,,,,,,,,,,,,,,,,,,,,,,,,,,,,,,,,,,,,,,,,,,41318,2022-11-04_15h10.18.421,vts_reward_expectancy_bt_OFFLINE,2022.2.4,59.99814016921688,
0,0,1,0,0,0,0,1,hexagon,star,0,0,0,0,1,9,21,8,,,,,,,,,,,,,,,,,,,,,,,,,,,,,,,,,,,,,,,,863.5994488209253,863.5994488209253,863.5994488209253,863.5994488209253,863.5994488209253,863.5994488209253,863.5994488209253,863.5994488209253,863.5994488209253,863.5994488209253,l,0.6875124620273709,10,112,0,864.3164786659181,865.816851807991,865.816851807991,866.3172227679752,,,,,,,,,,,,,,,,,,,,,,,,,,,,,,,,,,,,,,,,,,,,,,,,,,,,,,,,,,,,,,,,,41318,2022-11-04_15h10.18.421,vts_reward_expectancy_bt_OFFLINE,2022.2.4,59.99814016921688,
0,0,0,1,0,0,1,0,star,hexagon,0,0,0,0,1,10,22,11,,,,,,,,,,,,,,,,,,,,,,,,,,,,,,,,,,,,,,,,866.3172227679752,866.3172227679752,866.3172227679752,866.3172227679752,866.3172227679752,866.3172227679752,866.3172227679752,866.3172227679752,866.3172227679752,866.3172227679752,a,0.6923628670629114,10,122,0,867.0341320919106,868.5363656219561,,,,,,,,,,,,,,,,,,,,,,,,,,,,,,,,,,,,,,,,,,,,,,,,,,,,,,,,,,,,,,,,,,,41318,2022-11-04_15h10.18.421,vts_reward_expectancy_bt_OFFLINE,2022.2.4,59.99814016921688,
1,0,0,0,0,0,1,0,triangle,hexagon,0,0,0,0,1,11,23,1,,,,,,,,,,,,,,,,,,,,,,,,,,,,,,,,,,,,,,,,869.0366903019603,869.0366903019603,869.0366903019603,869.0366903019603,869.0366903019603,869.0366903019603,869.0366903019603,869.0366903019603,869.0366903019603,869.0366903019603,a,1.1913270761724561,10,132,0,870.2538244579919,871.7544480409706,871.7544480409706,872.2543971689884,,,,,,,,,,,,,,,,,,,,,,,,,,,,,,,,,,,,,,,,,,,,,,,,,,,,,,,,,,,,,,,,,41318,2022-11-04_15h10.18.421,vts_reward_expectancy_bt_OFFLINE,2022.2.4,59.99814016921688,
0,1,0,0,0,0,0,1,circle,star,0,0,0,0,2,0,24,5,,,,,,,,,,,,,,,,,,,,,,,,,,,,,,,,,,,,,,,,872.2543971689884,872.2543971689884,872.2543971689884,872.2543971689884,872.2543971689884,872.2543971689884,872.2543971689884,872.2543971689884,872.2543971689884,872.2543971689884,l,0.5836320681264624,1,133,0,872.8555610299809,874.3571694059065,,,,,,,,,,,,,,,,,,,,,,,,,,,,,,,,,,,,,,,,,,,,,,,,,,,,,,,,,,,,,,,,,,,41318,2022-11-04_15h10.18.421,vts_reward_expectancy_bt_OFFLINE,2022.2.4,59.99814016921688,
0,1,0,0,0,0,1,0,circle,hexagon,0,0,0,0,2,1,25,4,,,,,,,,,,,,,,,,,,,,,,,,,,,,,,,,,,,,,,,,874.8575069429353,874.8575069429353,874.8575069429353,874.8575069429353,874.8575069429353,874.8575069429353,874.8575069429353,874.8575069429353,874.8575069429353,874.8575069429353,a,1.6134107720572501,10,143,0,876.4915588679723,877.9917300929083,877.9917300929083,,,,,,,,,,,,,,,,,,,,,,,,,,,,,,,,,,,,,,,,,,,,,,,,,,,,,,,,,,,,,,,,,,41318,2022-11-04_15h10.18.421,vts_reward_expectancy_bt_OFFLINE,2022.2.4,59.99814016921688,
0,0,1,0,0,1,0,0,hexagon,circle,0,0,0,0,2,2,26,7,,,,,,,,,,,,,,,,,,,,,,,,,,,,,,,,,,,,,,,,878.4937839308986,878.4937839308986,878.4937839308986,878.4937839308986,878.4937839308986,878.4937839308986,878.4937839308986,878.4937839308986,878.4937839308986,878.4937839308986,l,0.8125556210288778,10,153,0,879.3272042919416,880.8279810529202,880.8279810529202,881.3279061099747,,,,,,,,,,,,,,,,,,,,,,,,,,,,,,,,,,,,,,,,,,,,,,,,,,,,,,,,,,,,,,,,,41318,2022-11-04_15h10.18.421,vts_reward_expectancy_bt_OFFLINE,2022.2.4,59.99814016921688,
0,0,0,1,0,0,1,0,star,hexagon,0,0,0,0,2,3,27,11,,,,,,,,,,,,,,,,,,,,,,,,,,,,,,,,,,,,,,,,881.3279061099747,881.3279061099747,881.3279061099747,881.3279061099747,881.3279061099747,881.3279061099747,881.3279061099747,881.3279061099747,881.3279061099747,881.3279061099747,a,0.7682442731456831,10,163,0,882.128288598964,883.6306484999368,,,,,,,,,,,,,,,,,,,,,,,,,,,,,,,,,,,,,,,,,,,,,,,,,,,,,,,,,,,,,,,,,,,41318,2022-11-04_15h10.18.421,vts_reward_expectancy_bt_OFFLINE,2022.2.4,59.99814016921688,
0,0,1,0,0,0,0,1,hexagon,star,0,0,0,0,2,4,28,8,,,,,,,,,,,,,,,,,,,,,,,,,,,,,,,,,,,,,,,,884.1309706669999,884.1309706669999,884.1309706669999,884.1309706669999,884.1309706669999,884.1309706669999,884.1309706669999,884.1309706669999,884.1309706669999,884.1309706669999,l,0.5311204061144963,1,164,0,884.6819418169325,886.1816311269067,886.1816311269067,886.6819855789654,,,,,,,,,,,,,,,,,,,,,,,,,,,,,,,,,,,,,,,,,,,,,,,,,,,,,,,,,,,,,,,,,41318,2022-11-04_15h10.18.421,vts_reward_expectancy_bt_OFFLINE,2022.2.4,59.99814016921688,
1,0,0,0,0,0,1,0,triangle,hexagon,0,0,0,0,2,5,29,1,,,,,,,,,,,,,,,,,,,,,,,,,,,,,,,,,,,,,,,,886.6819855789654,886.6819855789654,886.6819855789654,886.6819855789654,886.6819855789654,886.6819855789654,886.6819855789654,886.6819855789654,886.6819855789654,886.6819855789654,a,0.9269352320116013,1,165,0,887.6321022759657,889.1343661029823,,,,,,,,,,,,,,,,,,,,,,,,,,,,,,,,,,,,,,,,,,,,,,,,,,,,,,,,,,,,,,,,,,,41318,2022-11-04_15h10.18.421,vts_reward_expectancy_bt_OFFLINE,2022.2.4,59.99814016921688,
0,0,1,0,1,0,0,0,hexagon,triangle,0,0,0,0,2,6,30,6,,,,,,,,,,,,,,,,,,,,,,,,,,,,,,,,,,,,,,,,889.634891544003,889.634891544003,889.634891544003,889.634891544003,889.634891544003,889.634891544003,889.634891544003,889.634891544003,889.634891544003,889.634891544003,a,1.2825654761400074,1,166,0,890.9351034559077,892.4358955489006,892.4358955489006,892.9360588699346,,,,,,,,,,,,,,,,,,,,,,,,,,,,,,,,,,,,,,,,,,,,,,,,,,,,,,,,,,,,,,,,,41318,2022-11-04_15h10.18.421,vts_reward_expectancy_bt_OFFLINE,2022.2.4,59.99814016921688,
1,0,0,0,0,0,0,1,triangle,star,0,0,0,0,2,7,31,2,,,,,,,,,,,,,,,,,,,,,,,,,,,,,,,,,,,,,,,,892.9360588699346,892.9360588699346,892.9360588699346,892.9360588699346,892.9360588699346,892.9360588699346,892.9360588699346,892.9360588699346,892.9360588699346,892.9360588699346,l,0.5118169190827757,10,176,0,893.4720220289892,894.9720006439602,,,,,,,,,,,,,,,,,,,,,,,,,,,,,,,,,,,,,,,,,,,,,,,,,,,,,,,,,,,,,,,,,,,41318,2022-11-04_15h10.18.421,vts_reward_expectancy_bt_OFFLINE,2022.2.4,59.99814016921688,
0,0,0,1,1,0,0,0,star,triangle,0,0,0,0,2,8,32,9,,,,,,,,,,,,,,,,,,,,,,,,,,,,,,,,,,,,,,,,895.4722257269314,895.4722257269314,895.4722257269314,895.4722257269314,895.4722257269314,895.4722257269314,895.4722257269314,895.4722257269314,895.4722257269314,895.4722257269314,a,0.4512628910597414,10,186,0,895.9555575159611,897.4562433490064,897.4562433490064,897.9563516529743,,,,,,,,,,,,,,,,,,,,,,,,,,,,,,,,,,,,,,,,,,,,,,,,,,,,,,,,,,,,,,,,,41318,2022-11-04_15h10.18.421,vts_reward_expectancy_bt_OFFLINE,2022.2.4,59.99814016921688,
0,1,0,0,1,0,0,0,circle,triangle,0,0,0,0,2,9,33,3,,,,,,,,,,,,,,,,,,,,,,,,,,,,,,,,,,,,,,,,897.9563516529743,897.9563516529743,897.9563516529743,897.9563516529743,897.9563516529743,897.9563516529743,897.9563516529743,897.9563516529743,897.9563516529743,897.9563516529743,a,0.689208131050691,10,196,0,898.6751970729092,900.1756542389048,900.1756542389048,,,,,,,,,,,,,,,,,,,,,,,,,,,,,,,,,,,,,,,,,,,,,,,,,,,,,,,,,,,,,,,,,,41318,2022-11-04_15h10.18.421,vts_reward_expectancy_bt_OFFLINE,2022.2.4,59.99814016921688,
0,0,0,1,0,1,0,0,star ,circle,0,0,0,0,2,10,34,10,,,,,,,,,,,,,,,,,,,,,,,,,,,,,,,,,,,,,,,,900.6758013569051,900.6758013569051,900.6758013569051,900.6758013569051,900.6758013569051,900.6758013569051,900.6758013569051,900.6758013569051,900.6758013569051,900.6758013569051,a,0.5580086630070582,10,206,0,901.2591393130133,902.7598332829075,902.7598332829075,903.2600720049813,,,,,,,,,,,,,,,,,,,,,,,,,,,,,,,,,,,,,,,,,,,,,,,,,,,,,,,,,,,,,,,,,41318,2022-11-04_15h10.18.421,vts_reward_expectancy_bt_OFFLINE,2022.2.4,59.99814016921688,
1,0,0,0,0,1,0,0,triangle,circle,0,0,0,0,2,11,35,0,,,,,,,,,,,,,,,,,,,,,,,,,,,,,,,,,,,,,,,,903.2600720049813,903.2600720049813,903.2600720049813,903.2600720049813,903.2600720049813,903.2600720049813,903.2600720049813,903.2600720049813,903.2600720049813,903.2600720049813,l,0.7187227611429989,1,207,0,903.9965389899444,905.4959485759027,905.4959485759027,905.9960868179332,,,,,,,,,,,,,,,,,,,,,,,,,,,,,,,,,,,,,,,,,,,,,,,,,,,,,,,,,,,,,,,,,41318,2022-11-04_15h10.18.421,vts_reward_expectancy_bt_OFFLINE,2022.2.4,59.99814016921688,
0,0,1,0,1,0,0,0,hexagon,triangle,0,0,0,0,3,0,36,6,,,,,,,,,,,,,,,,,,,,,,,,,,,,,,,,,,,,,,,,905.9960868179332,905.9960868179332,905.9960868179332,905.9960868179332,905.9960868179332,905.9960868179332,905.9960868179332,905.9960868179332,905.9960868179332,905.9960868179332,a,0.8620989810442552,1,208,0,906.8795555679826,908.3802837929688,908.3802837929688,,,,,,,,,,,,,,,,,,,,,,,,,,,,,,,,,,,,,,,,,,,,,,,,,,,,,,,,,,,,,,,,,,41318,2022-11-04_15h10.18.421,vts_reward_expectancy_bt_OFFLINE,2022.2.4,59.99814016921688,
0,0,0,1,0,0,1,0,star,hexagon,0,0,0,0,3,1,37,11,,,,,,,,,,,,,,,,,,,,,,,,,,,,,,,,,,,,,,,,908.8822847729316,908.8822847729316,908.8822847729316,908.8822847729316,908.8822847729316,908.8822847729316,908.8822847729316,908.8822847729316,908.8822847729316,908.8822847729316,a,0.5758863530354574,10,218,0,909.4835818229476,910.9832638549851,910.9832638549851,911.4833596919198,,,,,,,,,,,,,,,,,,,,,,,,,,,,,,,,,,,,,,,,,,,,,,,,,,,,,,,,,,,,,,,,,41318,2022-11-04_15h10.18.421,vts_reward_expectancy_bt_OFFLINE,2022.2.4,59.99814016921688,
0,1,0,0,1,0,0,0,circle,triangle,0,0,0,0,3,2,38,3,,,,,,,,,,,,,,,,,,,,,,,,,,,,,,,,,,,,,,,,911.4833596919198,911.4833596919198,911.4833596919198,911.4833596919198,911.4833596919198,911.4833596919198,911.4833596919198,911.4833596919198,911.4833596919198,911.4833596919198,a,0.5959117321763188,10,228,0,912.1001305659302,913.6025552259525,,,,,,,,,,,,,,,,,,,,,,,,,,,,,,,,,,,,,,,,,,,,,,,,,,,,,,,,,,,,,,,,,,,41318,2022-11-04_15h10.18.421,vts_reward_expectancy_bt_OFFLINE,2022.2.4,59.99814016921688,
0,1,0,0,0,0,0,1,circle,star,0,0,0,0,3,3,39,5,,,,,,,,,,,,,,,,,,,,,,,,,,,,,,,,,,,,,,,,914.1026493979152,914.1026493979152,914.1026493979152,914.1026493979152,914.1026493979152,914.1026493979152,914.1026493979152,914.1026493979152,914.1026493979152,914.1026493979152,l,0.41720527899451554,10,238,0,914.5364344859263,916.0367692928994,916.0367692928994,916.5368900869507,,,,,,,,,,,,,,,,,,,,,,,,,,,,,,,,,,,,,,,,,,,,,,,,,,,,,,,,,,,,,,,,,41318,2022-11-04_15h10.18.421,vts_reward_expectancy_bt_OFFLINE,2022.2.4,59.99814016921688,
0,1,0,0,0,0,1,0,circle,hexagon,0,0,0,0,3,4,40,4,,,,,,,,,,,,,,,,,,,,,,,,,,,,,,,,,,,,,,,,916.5368900869507,916.5368900869507,916.5368900869507,916.5368900869507,916.5368900869507,916.5368900869507,916.5368900869507,916.5368900869507,916.5368900869507,916.5368900869507,a,0.7066606461303309,1,239,0,917.2711615519365,918.7728242189623,,,,,,,,,,,,,,,,,,,,,,,,,,,,,,,,,,,,,,,,,,,,,,,,,,,,,,,,,,,,,,,,,,,41318,2022-11-04_15h10.18.421,vts_reward_expectancy_bt_OFFLINE,2022.2.4,59.99814016921688,
0,0,1,0,0,1,0,0,hexagon,circle,0,0,0,0,3,5,41,7,,,,,,,,,,,,,,,,,,,,,,,,,,,,,,,,,,,,,,,,919.2730532939313,919.2730532939313,919.2730532939313,919.2730532939313,919.2730532939313,919.2730532939313,919.2730532939313,919.2730532939313,919.2730532939313,919.2730532939313,a,0.8271141931181774,10,249,0,920.1245462119114,921.6239221559372,921.6239221559372,922.124169893912,,,,,,,,,,,,,,,,,,,,,,,,,,,,,,,,,,,,,,,,,,,,,,,,,,,,,,,,,,,,,,,,,41318,2022-11-04_15h10.18.421,vts_reward_expectancy_bt_OFFLINE,2022.2.4,59.99814016921688,
0,0,0,1,0,1,0,0,star ,circle,0,0,0,0,3,6,42,10,,,,,,,,,,,,,,,,,,,,,,,,,,,,,,,,,,,,,,,,922.124169893912,922.124169893912,922.124169893912,922.124169893912,922.124169893912,922.124169893912,922.124169893912,922.124169893912,922.124169893912,922.124169893912,a,0.6101182991405949,10,259,0,922.7575592179783,924.2601544309873,,,,,,,,,,,,,,,,,,,,,,,,,,,,,,,,,,,,,,,,,,,,,,,,,,,,,,,,,,,,,,,,,,,41318,2022-11-04_15h10.18.421,vts_reward_expectancy_bt_OFFLINE,2022.2.4,59.99814016921688,
1,0,0,0,0,0,1,0,triangle,hexagon,0,0,0,0,3,7,43,1,,,,,,,,,,,,,,,,,,,,,,,,,,,,,,,,,,,,,,,,924.7601636520121,924.7601636520121,924.7601636520121,924.7601636520121,924.7601636520121,924.7601636520121,924.7601636520121,924.7601636520121,924.7601636520121,924.7601636520121,l,0.5050651670899242,1,260,0,925.2946033260087,926.7943013249896,926.7943013249896,927.2943431369495,,,,,,,,,,,,,,,,,,,,,,,,,,,,,,,,,,,,,,,,,,,,,,,,,,,,,,,,,,,,,,,,,41318,2022-11-04_15h10.18.421,vts_reward_expectancy_bt_OFFLINE,2022.2.4,59.99814016921688,
1,0,0,0,0,1,0,0,triangle,circle,0,0,0,0,3,8,44,0,,,,,,,,,,,,,,,,,,,,,,,,,,,,,,,,,,,,,,,,927.2943431369495,927.2943431369495,927.2943431369495,927.2943431369495,927.2943431369495,927.2943431369495,927.2943431369495,927.2943431369495,927.2943431369495,927.2943431369495,l,1.130967753008008,1,261,0,928.4501722729765,929.9641361599788,,,,,,,,,,,,,,,,,,,,,,,,,,,,,,,,,,,,,,,,,,,,,,,,,,,,,,,,,,,,,,,,,,,41318,2022-11-04_15h10.18.421,vts_reward_expectancy_bt_OFFLINE,2022.2.4,59.99814016921688,
0,0,1,0,0,0,0,1,hexagon,star,0,0,0,0,3,9,45,8,,,,,,,,,,,,,,,,,,,,,,,,,,,,,,,,,,,,,,,,930.4642894899007,930.4642894899007,930.4642894899007,930.4642894899007,930.4642894899007,930.4642894899007,930.4642894899007,930.4642894899007,930.4642894899007,930.4642894899007,l,0.548842957126908,10,271,0,931.0320919889491,932.5317357559688,932.5317357559688,933.031845351914,,,,,,,,,,,,,,,,,,,,,,,,,,,,,,,,,,,,,,,,,,,,,,,,,,,,,,,,,,,,,,,,,41318,2022-11-04_15h10.18.421,vts_reward_expectancy_bt_OFFLINE,2022.2.4,59.99814016921688,
0,0,0,1,1,0,0,0,star,triangle,0,0,0,0,3,10,46,9,,,,,,,,,,,,,,,,,,,,,,,,,,,,,,,,,,,,,,,,933.031845351914,933.031845351914,933.031845351914,933.031845351914,933.031845351914,933.031845351914,933.031845351914,933.031845351914,933.031845351914,933.031845351914,a,0.569477389100939,10,281,0,933.6337252949597,935.1344033929054,,,,,,,,,,,,,,,,,,,,,,,,,,,,,,,,,,,,,,,,,,,,,,,,,,,,,,,,,,,,,,,,,,,41318,2022-11-04_15h10.18.421,vts_reward_expectancy_bt_OFFLINE,2022.2.4,59.99814016921688,
1,0,0,0,0,0,0,1,triangle,star,0,0,0,0,3,11,47,2,,,,,,,,,,,,,,,,,,,,,,,,,,,,,,,,,,,,,,,,935.6345212829765,935.6345212829765,935.6345212829765,935.6345212829765,935.6345212829765,935.6345212829765,935.6345212829765,935.6345212829765,935.6345212829765,935.6345212829765,l,0.6668683370808139,10,291,0,936.3180638069753,937.8187173649203,937.8187173649203,938.3253734529717,,,,,,,,,,,,,,,,,,,,,,,,,,,,,,,,,,,,,,,,,,,,,,,,,,,,,,,,,,,,,,,,,41318,2022-11-04_15h10.18.421,vts_reward_expectancy_bt_OFFLINE,2022.2.4,59.99814016921688,
1,0,0,0,0,1,0,0,triangle,circle,1,0,1,0,0,0,0,0,,,,,,,,,,,,,,,,,,,,,,,,,,,,,,,,,,,,,,,,944.4857087089913,944.4857087089913,944.4857087089913,944.4857087089913,944.4857087089913,944.4857087089913,944.4857087089913,944.4857087089913,944.4857087089913,944.4857087089913,a,1.0063877881038934,1,292,1,945.5102210569894,947.0256973810028,,,,,,,,,,,,,,,,,,,,,,,,,,,,,,,,,,,,,,,,,,,,,,,,,,,,,,,,,,,,,,,,,,,41318,2022-11-04_15h10.18.421,vts_reward_expectancy_bt_OFFLINE,2022.2.4,59.99814016921688,
0,1,0,0,0,0,1,0,circle,hexagon,1,0,1,0,0,1,1,4,,,,,,,,,,,,,,,,,,,,,,,,,,,,,,,,,,,,,,,,947.5254913310055,947.5254913310055,947.5254913310055,947.5254913310055,947.5254913310055,947.5254913310055,947.5254913310055,947.5254913310055,947.5254913310055,947.5254913310055,l,0.7237055811565369,1,293,1,948.2760732559254,949.7786908869166,,,,,,,,,,,,,,,,,,,,,,,,,,,,,,,,,,,,,,,,,,,,,,,,,,,,,,,,,,,,,,,,,,,41318,2022-11-04_15h10.18.421,vts_reward_expectancy_bt_OFFLINE,2022.2.4,59.99814016921688,
0,0,0,1,0,0,1,0,star,hexagon,1,0,1,0,0,2,2,11,,,,,,,,,,,,,,,,,,,,,,,,,,,,,,,,,,,,,,,,950.2787007779116,950.2787007779116,950.2787007779116,950.2787007779116,950.2787007779116,950.2787007779116,950.2787007779116,950.2787007779116,950.2787007779116,950.2787007779116,a,0.558148407144472,10,303,1,950.863278432982,952.3629148729378,952.3629148729378,952.8630351939937,,,,,,,,,,,,,,,,,,,,,,,,,,,,,,,,,,,,,,,,,,,,,,,,,,,,,,,,,,,,,,,,,41318,2022-11-04_15h10.18.421,vts_reward_expectancy_bt_OFFLINE,2022.2.4,59.99814016921688,
0,0,1,0,1,0,0,0,hexagon,triangle,1,0,1,0,0,3,3,6,,,,,,,,,,,,,,,,,,,,,,,,,,,,,,,,,,,,,,,,952.8630351939937,952.8630351939937,952.8630351939937,952.8630351939937,952.8630351939937,952.8630351939937,952.8630351939937,952.8630351939937,952.8630351939937,952.8630351939937,a,0.8757183221168816,1,304,1,953.7655210979283,955.2658810570138,955.2658810570138,,,,,,,,,,,,,,,,,,,,,,,,,,,,,,,,,,,,,,,,,,,,,,,,,,,,,,,,,,,,,,,,,,41318,2022-11-04_15h10.18.421,vts_reward_expectancy_bt_OFFLINE,2022.2.4,59.99814016921688,
0,0,0,1,0,1,0,0,star ,circle,1,0,1,0,0,4,4,10,,,,,,,,,,,,,,,,,,,,,,,,,,,,,,,,,,,,,,,,955.76585569093,955.76585569093,955.76585569093,955.76585569093,955.76585569093,955.76585569093,955.76585569093,955.76585569093,955.76585569093,955.76585569093,a,0.8541780260857195,1,305,1,956.6494382600067,958.1501577019226,958.1501577019226,,,,,,,,,,,,,,,,,,,,,,,,,,,,,,,,,,,,,,,,,,,,,,,,,,,,,,,,,,,,,,,,,,41318,2022-11-04_15h10.18.421,vts_reward_expectancy_bt_OFFLINE,2022.2.4,59.99814016921688,
1,0,0,0,0,0,1,0,triangle,hexagon,1,0,1,0,0,5,5,1,,,,,,,,,,,,,,,,,,,,,,,,,,,,,,,,,,,,,,,,958.6521480369847,958.6521480369847,958.6521480369847,958.6521480369847,958.6521480369847,958.6521480369847,958.6521480369847,958.6521480369847,958.6521480369847,958.6521480369847,l,0.8245421430328861,1,306,1,959.5022914349101,961.0029413419543,961.0029413419543,961.5030807319563,,,,,,,,,,,,,,,,,,,,,,,,,,,,,,,,,,,,,,,,,,,,,,,,,,,,,,,,,,,,,,,,,41318,2022-11-04_15h10.18.421,vts_reward_expectancy_bt_OFFLINE,2022.2.4,59.99814016921688,
1,0,0,0,0,0,0,1,triangle,star,1,0,1,0,0,6,6,2,,,,,,,,,,,,,,,,,,,,,,,,,,,,,,,,,,,,,,,,961.5030807319563,961.5030807319563,961.5030807319563,961.5030807319563,961.5030807319563,961.5030807319563,961.5030807319563,961.5030807319563,961.5030807319563,961.5030807319563,l,0.5384884170489386,10,316,1,962.0713073369116,963.5723759559914,,,,,,,,,,,,,,,,,,,,,,,,,,,,,,,,,,,,,,,,,,,,,,,,,,,,,,,,,,,,,,,,,,,41318,2022-11-04_15h10.18.421,vts_reward_expectancy_bt_OFFLINE,2022.2.4,59.99814016921688,
0,1,0,0,1,0,0,0,circle,triangle,1,0,1,0,0,7,7,3,,,,,,,,,,,,,,,,,,,,,,,,,,,,,,,,,,,,,,,,964.0722986499313,964.0722986499313,964.0722986499313,964.0722986499313,964.0722986499313,964.0722986499313,964.0722986499313,964.0722986499313,964.0722986499313,964.0722986499313,a,0.5798538840608671,1,317,1,964.6740261479281,966.1731190779246,966.1731190779246,966.6733518119436,,,,,,,,,,,,,,,,,,,,,,,,,,,,,,,,,,,,,,,,,,,,,,,,,,,,,,,,,,,,,,,,,41318,2022-11-04_15h10.18.421,vts_reward_expectancy_bt_OFFLINE,2022.2.4,59.99814016921688,
0,1,0,0,0,0,0,1,circle,star,1,0,1,0,0,8,8,5,,,,,,,,,,,,,,,,,,,,,,,,,,,,,,,,,,,,,,,,966.6733518119436,966.6733518119436,966.6733518119436,966.6733518119436,966.6733518119436,966.6733518119436,966.6733518119436,966.6733518119436,966.6733518119436,966.6733518119436,l,0.49853993009310216,1,318,1,967.1902630599216,968.6927003369201,,,,,,,,,,,,,,,,,,,,,,,,,,,,,,,,,,,,,,,,,,,,,,,,,,,,,,,,,,,,,,,,,,,41318,2022-11-04_15h10.18.421,vts_reward_expectancy_bt_OFFLINE,2022.2.4,59.99814016921688,
0,0,0,1,1,0,0,0,star,triangle,1,0,1,0,0,9,9,9,,,,,,,,,,,,,,,,,,,,,,,,,,,,,,,,,,,,,,,,969.1925732149975,969.1925732149975,969.1925732149975,969.1925732149975,969.1925732149975,969.1925732149975,969.1925732149975,969.1925732149975,969.1925732149975,969.1925732149975,a,0.7930198021931574,1,319,1,970.009828251903,971.5104603129439,971.5104603129439,972.0103194669355,,,,,,,,,,,,,,,,,,,,,,,,,,,,,,,,,,,,,,,,,,,,,,,,,,,,,,,,,,,,,,,,,41318,2022-11-04_15h10.18.421,vts_reward_expectancy_bt_OFFLINE,2022.2.4,59.99814016921688,
0,0,1,0,0,1,0,0,hexagon,circle,1,0,1,0,0,10,10,7,,,,,,,,,,,,,,,,,,,,,,,,,,,,,,,,,,,,,,,,972.0103194669355,972.0103194669355,972.0103194669355,972.0103194669355,972.0103194669355,972.0103194669355,972.0103194669355,972.0103194669355,972.0103194669355,972.0103194669355,l,0.8324155440786853,10,329,1,972.8619973399909,974.3629875970073,,,,,,,,,,,,,,,,,,,,,,,,,,,,,,,,,,,,,,,,,,,,,,,,,,,,,,,,,,,,,,,,,,,41318,2022-11-04_15h10.18.421,vts_reward_expectancy_bt_OFFLINE,2022.2.4,59.99814016921688,
0,0,1,0,0,0,0,1,hexagon,star,1,0,1,0,0,11,11,8,,,,,,,,,,,,,,,,,,,,,,,,,,,,,,,,,,,,,,,,974.8634560599457,974.8634560599457,974.8634560599457,974.8634560599457,974.8634560599457,974.8634560599457,974.8634560599457,974.8634560599457,974.8634560599457,974.8634560599457,l,0.4758375590899959,1,330,1,975.364702995983,976.8640845789341,976.8640845789341,977.3642604670022,,,,,,,,,,,,,,,,,,,,,,,,,,,,,,,,,,,,,,,,,,,,,,,,,,,,,,,,,,,,,,,,,41318,2022-11-04_15h10.18.421,vts_reward_expectancy_bt_OFFLINE,2022.2.4,59.99814016921688,
0,0,1,0,0,1,0,0,hexagon,circle,1,0,1,0,1,0,12,7,,,,,,,,,,,,,,,,,,,,,,,,,,,,,,,,,,,,,,,,977.3642604670022,977.3642604670022,977.3642604670022,977.3642604670022,977.3642604670022,977.3642604670022,977.3642604670022,977.3642604670022,977.3642604670022,977.3642604670022,a,0.9233970410423353,1,331,1,978.3146341009997,979.8169522219105,,,,,,,,,,,,,,,,,,,,,,,,,,,,,,,,,,,,,,,,,,,,,,,,,,,,,,,,,,,,,,,,,,,41318,2022-11-04_15h10.18.421,vts_reward_expectancy_bt_OFFLINE,2022.2.4,59.99814016921688,
1,0,0,0,0,0,0,1,triangle,star,1,0,1,0,1,1,13,2,,,,,,,,,,,,,,,,,,,,,,,,,,,,,,,,,,,,,,,,980.3172901379876,980.3172901379876,980.3172901379876,980.3172901379876,980.3172901379876,980.3172901379876,980.3172901379876,980.3172901379876,980.3172901379876,980.3172901379876,l,0.5129848921205848,10,341,1,980.8518711099168,982.3513583289459,982.3513583289459,982.8513550430071,,,,,,,,,,,,,,,,,,,,,,,,,,,,,,,,,,,,,,,,,,,,,,,,,,,,,,,,,,,,,,,,,41318,2022-11-04_15h10.18.421,vts_reward_expectancy_bt_OFFLINE,2022.2.4,59.99814016921688,
0,1,0,0,0,0,0,1,circle,star,1,0,1,0,1,2,14,5,,,,,,,,,,,,,,,,,,,,,,,,,,,,,,,,,,,,,,,,982.8513550430071,982.8513550430071,982.8513550430071,982.8513550430071,982.8513550430071,982.8513550430071,982.8513550430071,982.8513550430071,982.8513550430071,982.8513550430071,l,0.4542246840428561,1,342,1,983.3362638689578,984.8374583689729,,,,,,,,,,,,,,,,,,,,,,,,,,,,,,,,,,,,,,,,,,,,,,,,,,,,,,,,,,,,,,,,,,,41318,2022-11-04_15h10.18.421,vts_reward_expectancy_bt_OFFLINE,2022.2.4,59.99814016921688,
0,1,0,0,1,0,0,0,circle,triangle,1,0,1,0,1,3,15,3,,,,,,,,,,,,,,,,,,,,,,,,,,,,,,,,,,,,,,,,985.3376491050003,985.3376491050003,985.3376491050003,985.3376491050003,985.3376491050003,985.3376491050003,985.3376491050003,985.3376491050003,985.3376491050003,985.3376491050003,a,0.5546612101607025,10,352,1,985.9221197229344,987.4216700890101,987.4216700890101,,,,,,,,,,,,,,,,,,,,,,,,,,,,,,,,,,,,,,,,,,,,,,,,,,,,,,,,,,,,,,,,,,41318,2022-11-04_15h10.18.421,vts_reward_expectancy_bt_OFFLINE,2022.2.4,59.99814016921688,
0,0,1,0,1,0,0,0,hexagon,triangle,1,0,1,0,1,4,16,6,,,,,,,,,,,,,,,,,,,,,,,,,,,,,,,,,,,,,,,,987.9217288509244,987.9217288509244,987.9217288509244,987.9217288509244,987.9217288509244,987.9217288509244,987.9217288509244,987.9217288509244,987.9217288509244,987.9217288509244,l,0.7388058791402727,1,353,1,988.6914992289385,990.1911674189614,990.1911674189614,990.6914872030029,,,,,,,,,,,,,,,,,,,,,,,,,,,,,,,,,,,,,,,,,,,,,,,,,,,,,,,,,,,,,,,,,41318,2022-11-04_15h10.18.421,vts_reward_expectancy_bt_OFFLINE,2022.2.4,59.99814016921688,
0,1,0,0,0,0,1,0,circle,hexagon,1,0,1,0,1,5,17,4,,,,,,,,,,,,,,,,,,,,,,,,,,,,,,,,,,,,,,,,990.6914872030029,990.6914872030029,990.6914872030029,990.6914872030029,990.6914872030029,990.6914872030029,990.6914872030029,990.6914872030029,990.6914872030029,990.6914872030029,a,0.5335561151150614,10,363,1,991.2433689309983,992.7587839069311,,,,,,,,,,,,,,,,,,,,,,,,,,,,,,,,,,,,,,,,,,,,,,,,,,,,,,,,,,,,,,,,,,,41318,2022-11-04_15h10.18.421,vts_reward_expectancy_bt_OFFLINE,2022.2.4,59.99814016921688,
0,0,1,0,0,0,0,1,hexagon,star,1,0,1,0,1,6,18,8,,,,,,,,,,,,,,,,,,,,,,,,,,,,,,,,,,,,,,,,993.2589260449167,993.2589260449167,993.2589260449167,993.2589260449167,993.2589260449167,993.2589260449167,993.2589260449167,993.2589260449167,993.2589260449167,993.2589260449167,l,0.5093889780109748,1,364,1,993.7951390919043,995.2949609599309,995.2949609599309,,,,,,,,,,,,,,,,,,,,,,,,,,,,,,,,,,,,,,,,,,,,,,,,,,,,,,,,,,,,,,,,,,41318,2022-11-04_15h10.18.421,vts_reward_expectancy_bt_OFFLINE,2022.2.4,59.99814016921688,
0,0,0,1,0,0,1,0,star,hexagon,1,0,1,0,1,7,19,11,,,,,,,,,,,,,,,,,,,,,,,,,,,,,,,,,,,,,,,,995.7949042469263,995.7949042469263,995.7949042469263,995.7949042469263,995.7949042469263,995.7949042469263,995.7949042469263,995.7949042469263,995.7949042469263,995.7949042469263,a,0.5155328391119838,10,374,1,996.3297252189368,997.8291712899227,997.8291712899227,998.3292228489881,,,,,,,,,,,,,,,,,,,,,,,,,,,,,,,,,,,,,,,,,,,,,,,,,,,,,,,,,,,,,,,,,41318,2022-11-04_15h10.18.421,vts_reward_expectancy_bt_OFFLINE,2022.2.4,59.99814016921688,
1,0,0,0,0,0,1,0,triangle,hexagon,1,0,1,0,1,8,20,1,,,,,,,,,,,,,,,,,,,,,,,,,,,,,,,,,,,,,,,,998.3292228489881,998.3292228489881,998.3292228489881,998.3292228489881,998.3292228489881,998.3292228489881,998.3292228489881,998.3292228489881,998.3292228489881,998.3292228489881,a,0.6810296900803223,10,384,1,999.0312842759304,1000.5319046709919,1000.5319046709919,1001.0319720449625,,,,,,,,,,,,,,,,,,,,,,,,,,,,,,,,,,,,,,,,,,,,,,,,,,,,,,,,,,,,,,,,,41318,2022-11-04_15h10.18.421,vts_reward_expectancy_bt_OFFLINE,2022.2.4,59.99814016921688,
1,0,0,0,0,1,0,0,triangle,circle,1,0,1,0,1,9,21,0,,,,,,,,,,,,,,,,,,,,,,,,,,,,,,,,,,,,,,,,1001.0319720449625,1001.0319720449625,1001.0319720449625,1001.0319720449625,1001.0319720449625,1001.0319720449625,1001.0319720449625,1001.0319720449625,1001.0319720449625,1001.0319720449625,l,1.6237517050467432,10,394,1,1002.68279067392,1004.1849969759351,,,,,,,,,,,,,,,,,,,,,,,,,,,,,,,,,,,,,,,,,,,,,,,,,,,,,,,,,,,,,,,,,,,41318,2022-11-04_15h10.18.421,vts_reward_expectancy_bt_OFFLINE,2022.2.4,59.99814016921688,
0,0,0,1,1,0,0,0,star,triangle,1,0,1,0,1,10,22,9,,,,,,,,,,,,,,,,,,,,,,,,,,,,,,,,,,,,,,,,1004.6849581499118,1004.6849581499118,1004.6849581499118,1004.6849581499118,1004.6849581499118,1004.6849581499118,1004.6849581499118,1004.6849581499118,1004.6849581499118,1004.6849581499118,a,0.7838411231059581,1,395,1,1005.486869846005,1007.0025375719415,,,,,,,,,,,,,,,,,,,,,,,,,,,,,,,,,,,,,,,,,,,,,,,,,,,,,,,,,,,,,,,,,,,41318,2022-11-04_15h10.18.421,vts_reward_expectancy_bt_OFFLINE,2022.2.4,59.99814016921688,
0,0,0,1,0,1,0,0,star ,circle,1,0,1,0,1,11,23,10,,,,,,,,,,,,,,,,,,,,,,,,,,,,,,,,,,,,,,,,1007.5030286379624,1007.5030286379624,1007.5030286379624,1007.5030286379624,1007.5030286379624,1007.5030286379624,1007.5030286379624,1007.5030286379624,1007.5030286379624,1007.5030286379624,a,0.5077034551650286,1,396,1,1008.0362881509354,1009.5388997909613,,,,,,,,,,,,,,,,,,,,,,,,,,,,,,,,,,,,,,,,,,,,,,,,,,,,,,,,,,,,,,,,,,,41318,2022-11-04_15h10.18.421,vts_reward_expectancy_bt_OFFLINE,2022.2.4,59.99814016921688,
1,0,0,0,0,1,0,0,triangle,circle,1,0,1,0,2,0,24,0,,,,,,,,,,,,,,,,,,,,,,,,,,,,,,,,,,,,,,,,1010.0390480519272,1010.0390480519272,1010.0390480519272,1010.0390480519272,1010.0390480519272,1010.0390480519272,1010.0390480519272,1010.0390480519272,1010.0390480519272,1010.0390480519272,l,0.6052912110462785,1,397,1,1010.6724441680126,1012.1730696879094,1012.1730696879094,1012.6731213139137,,,,,,,,,,,,,,,,,,,,,,,,,,,,,,,,,,,,,,,,,,,,,,,,,,,,,,,,,,,,,,,,,41318,2022-11-04_15h10.18.421,vts_reward_expectancy_bt_OFFLINE,2022.2.4,59.99814016921688,
0,0,0,1,0,0,1,0,star,hexagon,1,0,1,0,2,1,25,11,,,,,,,,,,,,,,,,,,,,,,,,,,,,,,,,,,,,,,,,1012.6731213139137,1012.6731213139137,1012.6731213139137,1012.6731213139137,1012.6731213139137,1012.6731213139137,1012.6731213139137,1012.6731213139137,1012.6731213139137,1012.6731213139137,a,0.46811023307964206,10,407,1,1013.1734933959087,1014.6758362259716,,,,,,,,,,,,,,,,,,,,,,,,,,,,,,,,,,,,,,,,,,,,,,,,,,,,,,,,,,,,,,,,,,,41318,2022-11-04_15h10.18.421,vts_reward_expectancy_bt_OFFLINE,2022.2.4,59.99814016921688,
1,0,0,0,0,0,0,1,triangle,star,1,0,1,0,2,2,26,2,,,,,,,,,,,,,,,,,,,,,,,,,,,,,,,,,,,,,,,,1015.1761539489962,1015.1761539489962,1015.1761539489962,1015.1761539489962,1015.1761539489962,1015.1761539489962,1015.1761539489962,1015.1761539489962,1015.1761539489962,1015.1761539489962,l,0.43971705506555736,1,408,1,1015.6445379959187,1017.1600651439512,,,,,,,,,,,,,,,,,,,,,,,,,,,,,,,,,,,,,,,,,,,,,,,,,,,,,,,,,,,,,,,,,,,41318,2022-11-04_15h10.18.421,vts_reward_expectancy_bt_OFFLINE,2022.2.4,59.99814016921688,
0,0,1,0,0,1,0,0,hexagon,circle,1,0,1,0,2,3,27,7,,,,,,,,,,,,,,,,,,,,,,,,,,,,,,,,,,,,,,,,1017.6601276409347,1017.6601276409347,1017.6601276409347,1017.6601276409347,1017.6601276409347,1017.6601276409347,1017.6601276409347,1017.6601276409347,1017.6601276409347,1017.6601276409347,a,1.0948146730661392,1,409,1,1018.7791140789632,1020.2797536919825,1020.2797536919825,1020.7797882509185,,,,,,,,,,,,,,,,,,,,,,,,,,,,,,,,,,,,,,,,,,,,,,,,,,,,,,,,,,,,,,,,,41318,2022-11-04_15h10.18.421,vts_reward_expectancy_bt_OFFLINE,2022.2.4,59.99814016921688,
0,1,0,0,1,0,0,0,circle,triangle,1,0,1,0,2,4,28,3,,,,,,,,,,,,,,,,,,,,,,,,,,,,,,,,,,,,,,,,1020.7797882509185,1020.7797882509185,1020.7797882509185,1020.7797882509185,1020.7797882509185,1020.7797882509185,1020.7797882509185,1020.7797882509185,1020.7797882509185,1020.7797882509185,a,0.47323608200531453,10,419,1,1021.2818899259437,1022.7972841130104,,,,,,,,,,,,,,,,,,,,,,,,,,,,,,,,,,,,,,,,,,,,,,,,,,,,,,,,,,,,,,,,,,,41318,2022-11-04_15h10.18.421,vts_reward_expectancy_bt_OFFLINE,2022.2.4,59.99814016921688,
1,0,0,0,0,0,1,0,triangle,hexagon,1,0,1,0,2,5,29,1,,,,,,,,,,,,,,,,,,,,,,,,,,,,,,,,,,,,,,,,1023.297498271917,1023.297498271917,1023.297498271917,1023.297498271917,1023.297498271917,1023.297498271917,1023.297498271917,1023.297498271917,1023.297498271917,1023.297498271917,l,0.666524114087224,1,420,1,1023.9841047399677,1025.4833735849243,1025.4833735849243,,,,,,,,,,,,,,,,,,,,,,,,,,,,,,,,,,,,,,,,,,,,,,,,,,,,,,,,,,,,,,,,,,41318,2022-11-04_15h10.18.421,vts_reward_expectancy_bt_OFFLINE,2022.2.4,59.99814016921688,
0,1,0,0,0,0,0,1,circle,star,1,0,1,0,2,6,30,5,,,,,,,,,,,,,,,,,,,,,,,,,,,,,,,,,,,,,,,,1025.983540143934,1025.983540143934,1025.983540143934,1025.983540143934,1025.983540143934,1025.983540143934,1025.983540143934,1025.983540143934,1025.983540143934,1025.983540143934,l,0.7258610820863396,10,430,1,1026.7352982159937,1028.2341738200048,1028.2341738200048,,,,,,,,,,,,,,,,,,,,,,,,,,,,,,,,,,,,,,,,,,,,,,,,,,,,,,,,,,,,,,,,,,41318,2022-11-04_15h10.18.421,vts_reward_expectancy_bt_OFFLINE,2022.2.4,59.99814016921688,
0,1,0,0,0,0,1,0,circle,hexagon,1,0,1,0,2,7,31,4,,,,,,,,,,,,,,,,,,,,,,,,,,,,,,,,,,,,,,,,1028.7362593139987,1028.7362593139987,1028.7362593139987,1028.7362593139987,1028.7362593139987,1028.7362593139987,1028.7362593139987,1028.7362593139987,1028.7362593139987,1028.7362593139987,a,0.4255709050921723,10,440,1,1029.1863315959927,1030.6871503089787,1030.6871503089787,,,,,,,,,,,,,,,,,,,,,,,,,,,,,,,,,,,,,,,,,,,,,,,,,,,,,,,,,,,,,,,,,,41318,2022-11-04_15h10.18.421,vts_reward_expectancy_bt_OFFLINE,2022.2.4,59.99814016921688,
0,0,1,0,0,0,0,1,hexagon,star,1,0,1,0,2,8,32,8,,,,,,,,,,,,,,,,,,,,,,,,,,,,,,,,,,,,,,,,1031.187121712952,1031.187121712952,1031.187121712952,1031.187121712952,1031.187121712952,1031.187121712952,1031.187121712952,1031.187121712952,1031.187121712952,1031.187121712952,l,0.5399493270087987,1,441,1,1031.7552935299464,1033.2545550409704,1033.2545550409704,,,,,,,,,,,,,,,,,,,,,,,,,,,,,,,,,,,,,,,,,,,,,,,,,,,,,,,,,,,,,,,,,,41318,2022-11-04_15h10.18.421,vts_reward_expectancy_bt_OFFLINE,2022.2.4,59.99814016921688,
0,0,0,1,0,1,0,0,star ,circle,1,0,1,0,2,9,33,10,,,,,,,,,,,,,,,,,,,,,,,,,,,,,,,,,,,,,,,,1033.7565215909854,1033.7565215909854,1033.7565215909854,1033.7565215909854,1033.7565215909854,1033.7565215909854,1033.7565215909854,1033.7565215909854,1033.7565215909854,1033.7565215909854,a,0.5578078450635076,1,442,1,1034.340171269956,1035.8407721508993,1035.8407721508993,,,,,,,,,,,,,,,,,,,,,,,,,,,,,,,,,,,,,,,,,,,,,,,,,,,,,,,,,,,,,,,,,,41318,2022-11-04_15h10.18.421,vts_reward_expectancy_bt_OFFLINE,2022.2.4,59.99814016921688,
0,0,0,1,1,0,0,0,star,triangle,1,0,1,0,2,10,34,9,,,,,,,,,,,,,,,,,,,,,,,,,,,,,,,,,,,,,,,,1036.3409952179063,1036.3409952179063,1036.3409952179063,1036.3409952179063,1036.3409952179063,1036.3409952179063,1036.3409952179063,1036.3409952179063,1036.3409952179063,1036.3409952179063,a,0.6288742159958929,1,443,1,1036.9910549439956,1038.4894852809375,1038.4894852809375,,,,,,,,,,,,,,,,,,,,,,,,,,,,,,,,,,,,,,,,,,,,,,,,,,,,,,,,,,,,,,,,,,41318,2022-11-04_15h10.18.421,vts_reward_expectancy_bt_OFFLINE,2022.2.4,59.99814016921688,
0,0,1,0,1,0,0,0,hexagon,triangle,1,0,1,0,2,11,35,6,,,,,,,,,,,,,,,,,,,,,,,,,,,,,,,,,,,,,,,,1038.9935873160139,1038.9935873160139,1038.9935873160139,1038.9935873160139,1038.9935873160139,1038.9935873160139,1038.9935873160139,1038.9935873160139,1038.9935873160139,1038.9935873160139,l,2.1159580551320687,10,453,1,1041.1295041709673,1042.6452123509953,,,,,,,,,,,,,,,,,,,,,,,,,,,,,,,,,,,,,,,,,,,,,,,,,,,,,,,,,,,,,,,,,,,41318,2022-11-04_15h10.18.421,vts_reward_expectancy_bt_OFFLINE,2022.2.4,59.99814016921688,
0,0,0,1,1,0,0,0,star,triangle,1,0,1,0,3,0,36,9,,,,,,,,,,,,,,,,,,,,,,,,,,,,,,,,,,,,,,,,1043.1450892569264,1043.1450892569264,1043.1450892569264,1043.1450892569264,1043.1450892569264,1043.1450892569264,1043.1450892569264,1043.1450892569264,1043.1450892569264,1043.1450892569264,a,0.5755638231057674,1,454,1,1043.748973965994,1045.264508188935,,,,,,,,,,,,,,,,,,,,,,,,,,,,,,,,,,,,,,,,,,,,,,,,,,,,,,,,,,,,,,,,,,,41318,2022-11-04_15h10.18.421,vts_reward_expectancy_bt_OFFLINE,2022.2.4,59.99814016921688,
0,0,0,1,0,1,0,0,star ,circle,1,0,1,0,3,1,37,10,,,,,,,,,,,,,,,,,,,,,,,,,,,,,,,,,,,,,,,,1045.7647814049851,1045.7647814049851,1045.7647814049851,1045.7647814049851,1045.7647814049851,1045.7647814049851,1045.7647814049851,1045.7647814049851,1045.7647814049851,1045.7647814049851,a,0.5881986770546064,1,455,1,1046.381460047909,1047.8820408839965,1047.8820408839965,1048.382365248981,,,,,,,,,,,,,,,,,,,,,,,,,,,,,,,,,,,,,,,,,,,,,,,,,,,,,,,,,,,,,,,,,41318,2022-11-04_15h10.18.421,vts_reward_expectancy_bt_OFFLINE,2022.2.4,59.99814016921688,
0,0,1,0,1,0,0,0,hexagon,triangle,1,0,1,0,3,2,38,6,,,,,,,,,,,,,,,,,,,,,,,,,,,,,,,,,,,,,,,,1048.382365248981,1048.382365248981,1048.382365248981,1048.382365248981,1048.382365248981,1048.382365248981,1048.382365248981,1048.382365248981,1048.382365248981,1048.382365248981,a,0.47886172903236,1,456,1,1048.8841592359822,1050.3849717259873,1050.3849717259873,,,,,,,,,,,,,,,,,,,,,,,,,,,,,,,,,,,,,,,,,,,,,,,,,,,,,,,,,,,,,,,,,,41318,2022-11-04_15h10.18.421,vts_reward_expectancy_bt_OFFLINE,2022.2.4,59.99814016921688,
1,0,0,0,0,0,1,0,triangle,hexagon,1,0,1,0,3,3,39,1,,,,,,,,,,,,,,,,,,,,,,,,,,,,,,,,,,,,,,,,1050.8849534039618,1050.8849534039618,1050.8849534039618,1050.8849534039618,1050.8849534039618,1050.8849534039618,1050.8849534039618,1050.8849534039618,1050.8849534039618,1050.8849534039618,l,1.0359892070991918,1,457,1,1051.9518178349826,1053.452557922923,1053.452557922923,,,,,,,,,,,,,,,,,,,,,,,,,,,,,,,,,,,,,,,,,,,,,,,,,,,,,,,,,,,,,,,,,,41318,2022-11-04_15h10.18.421,vts_reward_expectancy_bt_OFFLINE,2022.2.4,59.99814016921688,
0,1,0,0,0,0,1,0,circle,hexagon,1,0,1,0,3,4,40,4,,,,,,,,,,,,,,,,,,,,,,,,,,,,,,,,,,,,,,,,1053.954499304993,1053.954499304993,1053.954499304993,1053.954499304993,1053.954499304993,1053.954499304993,1053.954499304993,1053.954499304993,1053.954499304993,1053.954499304993,a,0.5772314131027088,10,467,1,1054.5567807189655,1056.072151131928,,,,,,,,,,,,,,,,,,,,,,,,,,,,,,,,,,,,,,,,,,,,,,,,,,,,,,,,,,,,,,,,,,,41318,2022-11-04_15h10.18.421,vts_reward_expectancy_bt_OFFLINE,2022.2.4,59.99814016921688,
0,0,1,0,0,1,0,0,hexagon,circle,1,0,1,0,3,5,41,7,,,,,,,,,,,,,,,,,,,,,,,,,,,,,,,,,,,,,,,,1056.5722555269022,1056.5722555269022,1056.5722555269022,1056.5722555269022,1056.5722555269022,1056.5722555269022,1056.5722555269022,1056.5722555269022,1056.5722555269022,1056.5722555269022,l,0.5025213580811396,10,477,1,1057.1059143949533,1058.6080548299942,,,,,,,,,,,,,,,,,,,,,,,,,,,,,,,,,,,,,,,,,,,,,,,,,,,,,,,,,,,,,,,,,,,41318,2022-11-04_15h10.18.421,vts_reward_expectancy_bt_OFFLINE,2022.2.4,59.99814016921688,
0,1,0,0,0,0,0,1,circle,star,1,0,1,0,3,6,42,5,,,,,,,,,,,,,,,,,,,,,,,,,,,,,,,,,,,,,,,,1059.1082152469316,1059.1082152469316,1059.1082152469316,1059.1082152469316,1059.1082152469316,1059.1082152469316,1059.1082152469316,1059.1082152469316,1059.1082152469316,1059.1082152469316,l,0.5194231059867889,10,487,1,1059.6584689149167,1061.1590902690077,1061.1590902690077,1061.6593204370001,,,,,,,,,,,,,,,,,,,,,,,,,,,,,,,,,,,,,,,,,,,,,,,,,,,,,,,,,,,,,,,,,41318,2022-11-04_15h10.18.421,vts_reward_expectancy_bt_OFFLINE,2022.2.4,59.99814016921688,
1,0,0,0,0,1,0,0,triangle,circle,1,0,1,0,3,7,43,0,,,,,,,,,,,,,,,,,,,,,,,,,,,,,,,,,,,,,,,,1061.6593204370001,1061.6593204370001,1061.6593204370001,1061.6593204370001,1061.6593204370001,1061.6593204370001,1061.6593204370001,1061.6593204370001,1061.6593204370001,1061.6593204370001,l,0.6461552621331066,10,497,1,1062.3260250249878,1063.8286051509203,,,,,,,,,,,,,,,,,,,,,,,,,,,,,,,,,,,,,,,,,,,,,,,,,,,,,,,,,,,,,,,,,,,41318,2022-11-04_15h10.18.421,vts_reward_expectancy_bt_OFFLINE,2022.2.4,59.99814016921688,
0,0,1,0,0,0,0,1,hexagon,star,1,0,1,0,3,8,44,8,,,,,,,,,,,,,,,,,,,,,,,,,,,,,,,,,,,,,,,,1064.3286008349387,1064.3286008349387,1064.3286008349387,1064.3286008349387,1064.3286008349387,1064.3286008349387,1064.3286008349387,1064.3286008349387,1064.3286008349387,1064.3286008349387,l,0.552910071099177,10,507,1,1064.912478246959,1066.4127312409692,1066.4127312409692,1066.912888530991,,,,,,,,,,,,,,,,,,,,,,,,,,,,,,,,,,,,,,,,,,,,,,,,,,,,,,,,,,,,,,,,,41318,2022-11-04_15h10.18.421,vts_reward_expectancy_bt_OFFLINE,2022.2.4,59.99814016921688,
0,0,0,1,0,0,1,0,star,hexagon,1,0,1,0,3,9,45,11,,,,,,,,,,,,,,,,,,,,,,,,,,,,,,,,,,,,,,,,1066.912888530991,1066.912888530991,1066.912888530991,1066.912888530991,1066.912888530991,1066.912888530991,1066.912888530991,1066.912888530991,1066.912888530991,1066.912888530991,a,0.6014103530906141,10,517,1,1067.5465034369845,1069.0487708359724,,,,,,,,,,,,,,,,,,,,,,,,,,,,,,,,,,,,,,,,,,,,,,,,,,,,,,,,,,,,,,,,,,,41318,2022-11-04_15h10.18.421,vts_reward_expectancy_bt_OFFLINE,2022.2.4,59.99814016921688,
0,1,0,0,1,0,0,0,circle,triangle,1,0,1,0,3,10,46,3,,,,,,,,,,,,,,,,,,,,,,,,,,,,,,,,,,,,,,,,1069.5491733360104,1069.5491733360104,1069.5491733360104,1069.5491733360104,1069.5491733360104,1069.5491733360104,1069.5491733360104,1069.5491733360104,1069.5491733360104,1069.5491733360104,a,0.5078846741234884,1,518,1,1070.0843870459357,1071.5998791959137,,,,,,,,,,,,,,,,,,,,,,,,,,,,,,,,,,,,,,,,,,,,,,,,,,,,,,,,,,,,,,,,,,,41318,2022-11-04_15h10.18.421,vts_reward_expectancy_bt_OFFLINE,2022.2.4,59.99814016921688,
1,0,0,0,0,0,0,1,triangle,star,1,0,1,0,3,11,47,2,,,,,,,,,,,,,,,,,,,,,,,,,,,,,,,,,,,,,,,,1072.0999786589528,1072.0999786589528,1072.0999786589528,1072.0999786589528,1072.0999786589528,1072.0999786589528,1072.0999786589528,1072.0999786589528,1072.0999786589528,1072.0999786589528,l,0.49928006809204817,10,528,1,1072.6190958239604,1074.1191228679381,,,,,,,,,,,,,,,,,,,,,,,,,,,,,,,,,,,,,,,,,,,,,,,,,,,,,,,,,,,,,,,,,,,41318,2022-11-04_15h10.18.421,vts_reward_expectancy_bt_OFFLINE,2022.2.4,59.99814016921688,
0,0,1,0,0,1,0,0,hexagon,circle,2,0,2,0,0,0,0,7,,,,,,,,,,,,,,,,,,,,,,,,,,,,,,,,,,,,,,,,1077.8988087129546,1077.8988087129546,1077.8988087129546,1077.8988087129546,1077.8988087129546,1077.8988087129546,1077.8988087129546,1077.8988087129546,1077.8988087129546,1077.8988087129546,l,0.7762067361036316,10,538,2,1078.7061703759246,1080.2066300499719,1080.2066300499719,1080.7067368489224,,,,,,,,,,,,,,,,,,,,,,,,,,,,,,,,,,,,,,,,,,,,,,,,,,,,,,,,,,,,,,,,,41318,2022-11-04_15h10.18.421,vts_reward_expectancy_bt_OFFLINE,2022.2.4,59.99814016921688,
0,1,0,0,1,0,0,0,circle,triangle,2,0,2,0,0,1,1,3,,,,,,,,,,,,,,,,,,,,,,,,,,,,,,,,,,,,,,,,1080.7067368489224,1080.7067368489224,1080.7067368489224,1080.7067368489224,1080.7067368489224,1080.7067368489224,1080.7067368489224,1080.7067368489224,1080.7067368489224,1080.7067368489224,a,0.5002991141518578,10,548,2,1081.2239315089537,1082.7241462859092,1082.7241462859092,1083.2244099728996,,,,,,,,,,,,,,,,,,,,,,,,,,,,,,,,,,,,,,,,,,,,,,,,,,,,,,,,,,,,,,,,,41318,2022-11-04_15h10.18.421,vts_reward_expectancy_bt_OFFLINE,2022.2.4,59.99814016921688,
0,0,1,0,0,0,0,1,hexagon,star,2,0,2,0,0,2,2,8,,,,,,,,,,,,,,,,,,,,,,,,,,,,,,,,,,,,,,,,1083.2244099728996,1083.2244099728996,1083.2244099728996,1083.2244099728996,1083.2244099728996,1083.2244099728996,1083.2244099728996,1083.2244099728996,1083.2244099728996,1083.2244099728996,l,0.749060235102661,10,558,2,1083.9932624709327,1085.49367691495,1085.49367691495,1085.9936028670054,,,,,,,,,,,,,,,,,,,,,,,,,,,,,,,,,,,,,,,,,,,,,,,,,,,,,,,,,,,,,,,,,41318,2022-11-04_15h10.18.421,vts_reward_expectancy_bt_OFFLINE,2022.2.4,59.99814016921688,
1,0,0,0,0,0,1,0,triangle,hexagon,2,0,2,0,0,3,3,1,,,,,,,,,,,,,,,,,,,,,,,,,,,,,,,,,,,,,,,,1085.9936028670054,1085.9936028670054,1085.9936028670054,1085.9936028670054,1085.9936028670054,1085.9936028670054,1085.9936028670054,1085.9936028670054,1085.9936028670054,1085.9936028670054,a,0.9505624540615827,1,559,2,1086.962987434934,1088.4781734439312,,,,,,,,,,,,,,,,,,,,,,,,,,,,,,,,,,,,,,,,,,,,,,,,,,,,,,,,,,,,,,,,,,,41318,2022-11-04_15h10.18.421,vts_reward_expectancy_bt_OFFLINE,2022.2.4,59.99814016921688,
1,0,0,0,0,0,0,1,triangle,star,2,0,2,0,0,4,4,2,,,,,,,,,,,,,,,,,,,,,,,,,,,,,,,,,,,,,,,,1088.9633200379321,1088.9633200379321,1088.9633200379321,1088.9633200379321,1088.9633200379321,1088.9633200379321,1088.9633200379321,1088.9633200379321,1088.9633200379321,1088.9633200379321,l,0.45539282413665205,1,560,2,1089.4467376209795,1090.9476346459705,1090.9476346459705,1091.4475028519519,,,,,,,,,,,,,,,,,,,,,,,,,,,,,,,,,,,,,,,,,,,,,,,,,,,,,,,,,,,,,,,,,41318,2022-11-04_15h10.18.421,vts_reward_expectancy_bt_OFFLINE,2022.2.4,59.99814016921688,
0,0,0,1,0,0,1,0,star,hexagon,2,0,2,0,0,5,5,11,,,,,,,,,,,,,,,,,,,,,,,,,,,,,,,,,,,,,,,,1091.4475028519519,1091.4475028519519,1091.4475028519519,1091.4475028519519,1091.4475028519519,1091.4475028519519,1091.4475028519519,1091.4475028519519,1091.4475028519519,1091.4475028519519,a,0.6492288480512798,10,570,2,1092.1165248109028,1093.617011796916,,,,,,,,,,,,,,,,,,,,,,,,,,,,,,,,,,,,,,,,,,,,,,,,,,,,,,,,,,,,,,,,,,,41318,2022-11-04_15h10.18.421,vts_reward_expectancy_bt_OFFLINE,2022.2.4,59.99814016921688,
0,1,0,0,0,0,1,0,circle,hexagon,2,0,2,0,0,6,6,4,,,,,,,,,,,,,,,,,,,,,,,,,,,,,,,,,,,,,,,,1094.1169549789047,1094.1169549789047,1094.1169549789047,1094.1169549789047,1094.1169549789047,1094.1169549789047,1094.1169549789047,1094.1169549789047,1094.1169549789047,1094.1169549789047,a,0.5674389471532777,10,580,2,1094.7174501859117,1096.217692286009,1096.217692286009,1096.718073233962,,,,,,,,,,,,,,,,,,,,,,,,,,,,,,,,,,,,,,,,,,,,,,,,,,,,,,,,,,,,,,,,,41318,2022-11-04_15h10.18.421,vts_reward_expectancy_bt_OFFLINE,2022.2.4,59.99814016921688,
0,1,0,0,0,0,0,1,circle,star,2,0,2,0,0,7,7,5,,,,,,,,,,,,,,,,,,,,,,,,,,,,,,,,,,,,,,,,1096.718073233962,1096.718073233962,1096.718073233962,1096.718073233962,1096.718073233962,1096.718073233962,1096.718073233962,1096.718073233962,1096.718073233962,1096.718073233962,l,0.3964309091679752,1,581,2,1097.136408605962,1098.6373945689993,,,,,,,,,,,,,,,,,,,,,,,,,,,,,,,,,,,,,,,,,,,,,,,,,,,,,,,,,,,,,,,,,,,41318,2022-11-04_15h10.18.421,vts_reward_expectancy_bt_OFFLINE,2022.2.4,59.99814016921688,
0,0,0,1,0,1,0,0,star ,circle,2,0,2,0,0,8,8,10,,,,,,,,,,,,,,,,,,,,,,,,,,,,,,,,,,,,,,,,1099.137240574928,1099.137240574928,1099.137240574928,1099.137240574928,1099.137240574928,1099.137240574928,1099.137240574928,1099.137240574928,1099.137240574928,1099.137240574928,a,0.5194973840843886,1,582,2,1099.6876045679674,1101.1881734929048,1101.1881734929048,,,,,,,,,,,,,,,,,,,,,,,,,,,,,,,,,,,,,,,,,,,,,,,,,,,,,,,,,,,,,,,,,,41318,2022-11-04_15h10.18.421,vts_reward_expectancy_bt_OFFLINE,2022.2.4,59.99814016921688,
0,0,0,1,1,0,0,0,star,triangle,2,0,2,0,0,9,9,9,,,,,,,,,,,,,,,,,,,,,,,,,,,,,,,,,,,,,,,,1101.6883043949492,1101.6883043949492,1101.6883043949492,1101.6883043949492,1101.6883043949492,1101.6883043949492,1101.6883043949492,1101.6883043949492,1101.6883043949492,1101.6883043949492,a,0.623367331107147,1,583,2,1102.3383542509982,1103.841071340954,,,,,,,,,,,,,,,,,,,,,,,,,,,,,,,,,,,,,,,,,,,,,,,,,,,,,,,,,,,,,,,,,,,41318,2022-11-04_15h10.18.421,vts_reward_expectancy_bt_OFFLINE,2022.2.4,59.99814016921688,
1,0,0,0,0,1,0,0,triangle,circle,2,0,2,0,0,10,10,0,,,,,,,,,,,,,,,,,,,,,,,,,,,,,,,,,,,,,,,,1104.3410361820133,1104.3410361820133,1104.3410361820133,1104.3410361820133,1104.3410361820133,1104.3410361820133,1104.3410361820133,1104.3410361820133,1104.3410361820133,1104.3410361820133,l,0.4569859220646322,10,593,2,1104.8266693139449,1106.3418831619201,,,,,,,,,,,,,,,,,,,,,,,,,,,,,,,,,,,,,,,,,,,,,,,,,,,,,,,,,,,,,,,,,,,41318,2022-11-04_15h10.18.421,vts_reward_expectancy_bt_OFFLINE,2022.2.4,59.99814016921688,
0,0,1,0,1,0,0,0,hexagon,triangle,2,0,2,0,0,11,11,6,,,,,,,,,,,,,,,,,,,,,,,,,,,,,,,,,,,,,,,,1106.8420515729813,1106.8420515729813,1106.8420515729813,1106.8420515729813,1106.8420515729813,1106.8420515729813,1106.8420515729813,1106.8420515729813,1106.8420515729813,1106.8420515729813,a,0.9271347750909626,10,603,2,1107.7924463379895,1109.2945785738993,,,,,,,,,,,,,,,,,,,,,,,,,,,,,,,,,,,,,,,,,,,,,,,,,,,,,,,,,,,,,,,,,,,41318,2022-11-04_15h10.18.421,vts_reward_expectancy_bt_OFFLINE,2022.2.4,59.99814016921688,
0,0,1,0,1,0,0,0,hexagon,triangle,2,0,2,0,1,0,12,6,,,,,,,,,,,,,,,,,,,,,,,,,,,,,,,,,,,,,,,,1109.7950330419699,1109.7950330419699,1109.7950330419699,1109.7950330419699,1109.7950330419699,1109.7950330419699,1109.7950330419699,1109.7950330419699,1109.7950330419699,1109.7950330419699,a,0.4938764220569283,10,613,2,1110.3118239319883,1111.812141540926,1111.812141540926,1112.3124948729528,,,,,,,,,,,,,,,,,,,,,,,,,,,,,,,,,,,,,,,,,,,,,,,,,,,,,,,,,,,,,,,,,41318,2022-11-04_15h10.18.421,vts_reward_expectancy_bt_OFFLINE,2022.2.4,59.99814016921688,
0,0,1,0,0,0,0,1,hexagon,star,2,0,2,0,1,1,13,8,,,,,,,,,,,,,,,,,,,,,,,,,,,,,,,,,,,,,,,,1112.3124948729528,1112.3124948729528,1112.3124948729528,1112.3124948729528,1112.3124948729528,1112.3124948729528,1112.3124948729528,1112.3124948729528,1112.3124948729528,1112.3124948729528,a,0.5978546901606023,1,614,2,1112.9315217459807,1114.4316469259793,,,,,,,,,,,,,,,,,,,,,,,,,,,,,,,,,,,,,,,,,,,,,,,,,,,,,,,,,,,,,,,,,,,41318,2022-11-04_15h10.18.421,vts_reward_expectancy_bt_OFFLINE,2022.2.4,59.99814016921688,
0,1,0,0,0,0,1,0,circle,hexagon,2,0,2,0,1,2,14,4,,,,,,,,,,,,,,,,,,,,,,,,,,,,,,,,,,,,,,,,1114.9320507819066,1114.9320507819066,1114.9320507819066,1114.9320507819066,1114.9320507819066,1114.9320507819066,1114.9320507819066,1114.9320507819066,1114.9320507819066,1114.9320507819066,a,0.7346906370949,1,615,2,1115.6990003149258,1117.199258757988,1117.199258757988,1117.6995501429774,,,,,,,,,,,,,,,,,,,,,,,,,,,,,,,,,,,,,,,,,,,,,,,,,,,,,,,,,,,,,,,,,41318,2022-11-04_15h10.18.421,vts_reward_expectancy_bt_OFFLINE,2022.2.4,59.99814016921688,
0,0,0,1,0,0,1,0,star,hexagon,2,0,2,0,1,3,15,11,,,,,,,,,,,,,,,,,,,,,,,,,,,,,,,,,,,,,,,,1117.6995501429774,1117.6995501429774,1117.6995501429774,1117.6995501429774,1117.6995501429774,1117.6995501429774,1117.6995501429774,1117.6995501429774,1117.6995501429774,1117.6995501429774,a,0.7347724720602855,1,616,2,1118.4662920850096,1119.9690047939075,,,,,,,,,,,,,,,,,,,,,,,,,,,,,,,,,,,,,,,,,,,,,,,,,,,,,,,,,,,,,,,,,,,41318,2022-11-04_15h10.18.421,vts_reward_expectancy_bt_OFFLINE,2022.2.4,59.99814016921688,
0,0,1,0,0,1,0,0,hexagon,circle,2,0,2,0,1,4,16,7,,,,,,,,,,,,,,,,,,,,,,,,,,,,,,,,,,,,,,,,1120.4691982809454,1120.4691982809454,1120.4691982809454,1120.4691982809454,1120.4691982809454,1120.4691982809454,1120.4691982809454,1120.4691982809454,1120.4691982809454,1120.4691982809454,l,0.7097619181731716,10,626,2,1121.2046492889058,1122.7200314239599,,,,,,,,,,,,,,,,,,,,,,,,,,,,,,,,,,,,,,,,,,,,,,,,,,,,,,,,,,,,,,,,,,,41318,2022-11-04_15h10.18.421,vts_reward_expectancy_bt_OFFLINE,2022.2.4,59.99814016921688,
0,1,0,0,0,0,0,1,circle,star,2,0,2,0,1,5,17,5,,,,,,,,,,,,,,,,,,,,,,,,,,,,,,,,,,,,,,,,1123.2032925069798,1123.2032925069798,1123.2032925069798,1123.2032925069798,1123.2032925069798,1123.2032925069798,1123.2032925069798,1123.2032925069798,1123.2032925069798,1123.2032925069798,a,0.41692654811777174,10,636,2,1123.638905955013,1125.1393768700073,1125.1393768700073,1125.6393541449215,,,,,,,,,,,,,,,,,,,,,,,,,,,,,,,,,,,,,,,,,,,,,,,,,,,,,,,,,,,,,,,,,41318,2022-11-04_15h10.18.421,vts_reward_expectancy_bt_OFFLINE,2022.2.4,59.99814016921688,
0,1,0,0,1,0,0,0,circle,triangle,2,0,2,0,1,6,18,3,,,,,,,,,,,,,,,,,,,,,,,,,,,,,,,,,,,,,,,,1125.6393541449215,1125.6393541449215,1125.6393541449215,1125.6393541449215,1125.6393541449215,1125.6393541449215,1125.6393541449215,1125.6393541449215,1125.6393541449215,1125.6393541449215,a,0.42285296809859574,1,637,2,1126.0921645269264,1127.6069145909278,,,,,,,,,,,,,,,,,,,,,,,,,,,,,,,,,,,,,,,,,,,,,,,,,,,,,,,,,,,,,,,,,,,41318,2022-11-04_15h10.18.421,vts_reward_expectancy_bt_OFFLINE,2022.2.4,59.99814016921688,
0,0,0,1,1,0,0,0,star,triangle,2,0,2,0,1,7,19,9,,,,,,,,,,,,,,,,,,,,,,,,,,,,,,,,,,,,,,,,1128.1069215399912,1128.1069215399912,1128.1069215399912,1128.1069215399912,1128.1069215399912,1128.1069215399912,1128.1069215399912,1128.1069215399912,1128.1069215399912,1128.1069215399912,l,0.3845902031753212,10,647,2,1128.5236900859745,1130.0262889619917,,,,,,,,,,,,,,,,,,,,,,,,,,,,,,,,,,,,,,,,,,,,,,,,,,,,,,,,,,,,,,,,,,,41318,2022-11-04_15h10.18.421,vts_reward_expectancy_bt_OFFLINE,2022.2.4,59.99814016921688,
1,0,0,0,0,1,0,0,triangle,circle,2,0,2,0,1,8,20,0,,,,,,,,,,,,,,,,,,,,,,,,,,,,,,,,,,,,,,,,1130.5264232059708,1130.5264232059708,1130.5264232059708,1130.5264232059708,1130.5264232059708,1130.5264232059708,1130.5264232059708,1130.5264232059708,1130.5264232059708,1130.5264232059708,a,0.4412506091175601,10,657,2,1130.9935387040023,1132.4938020759728,1132.4938020759728,1132.9938187459484,,,,,,,,,,,,,,,,,,,,,,,,,,,,,,,,,,,,,,,,,,,,,,,,,,,,,,,,,,,,,,,,,41318,2022-11-04_15h10.18.421,vts_reward_expectancy_bt_OFFLINE,2022.2.4,59.99814016921688,
1,0,0,0,0,0,1,0,triangle,hexagon,2,0,2,0,1,9,21,1,,,,,,,,,,,,,,,,,,,,,,,,,,,,,,,,,,,,,,,,1132.9938187459484,1132.9938187459484,1132.9938187459484,1132.9938187459484,1132.9938187459484,1132.9938187459484,1132.9938187459484,1132.9938187459484,1132.9938187459484,1132.9938187459484,a,0.4479150940896943,10,667,2,1133.460857626982,1134.9630612619221,,,,,,,,,,,,,,,,,,,,,,,,,,,,,,,,,,,,,,,,,,,,,,,,,,,,,,,,,,,,,,,,,,,41318,2022-11-04_15h10.18.421,vts_reward_expectancy_bt_OFFLINE,2022.2.4,59.99814016921688,
1,0,0,0,0,0,0,1,triangle,star,2,0,2,0,1,10,22,2,,,,,,,,,,,,,,,,,,,,,,,,,,,,,,,,,,,,,,,,1135.4631694909185,1135.4631694909185,1135.4631694909185,1135.4631694909185,1135.4631694909185,1135.4631694909185,1135.4631694909185,1135.4631694909185,1135.4631694909185,1135.4631694909185,a,0.7914829530054703,10,677,2,1136.2801779349102,1137.7809896619292,1137.7809896619292,1138.281132936012,,,,,,,,,,,,,,,,,,,,,,,,,,,,,,,,,,,,,,,,,,,,,,,,,,,,,,,,,,,,,,,,,41318,2022-11-04_15h10.18.421,vts_reward_expectancy_bt_OFFLINE,2022.2.4,59.99814016921688,
0,0,0,1,0,1,0,0,star ,circle,2,0,2,0,1,11,23,10,,,,,,,,,,,,,,,,,,,,,,,,,,,,,,,,,,,,,,,,1138.281132936012,1138.281132936012,1138.281132936012,1138.281132936012,1138.281132936012,1138.281132936012,1138.281132936012,1138.281132936012,1138.281132936012,1138.281132936012,a,0.6057413760572672,10,687,2,1138.9163726359839,1140.416963213007,1140.416963213007,,,,,,,,,,,,,,,,,,,,,,,,,,,,,,,,,,,,,,,,,,,,,,,,,,,,,,,,,,,,,,,,,,41318,2022-11-04_15h10.18.421,vts_reward_expectancy_bt_OFFLINE,2022.2.4,59.99814016921688,
0,1,0,0,0,0,0,1,circle,star,2,0,2,0,2,0,24,5,,,,,,,,,,,,,,,,,,,,,,,,,,,,,,,,,,,,,,,,1140.9171900110086,1140.9171900110086,1140.9171900110086,1140.9171900110086,1140.9171900110086,1140.9171900110086,1140.9171900110086,1140.9171900110086,1140.9171900110086,1140.9171900110086,l,0.44486167712602764,10,697,2,1141.384176480933,1142.8845580659108,1142.8845580659108,,,,,,,,,,,,,,,,,,,,,,,,,,,,,,,,,,,,,,,,,,,,,,,,,,,,,,,,,,,,,,,,,,41318,2022-11-04_15h10.18.421,vts_reward_expectancy_bt_OFFLINE,2022.2.4,59.99814016921688,
0,0,1,0,0,0,0,1,hexagon,star,2,0,2,0,2,1,25,8,,,,,,,,,,,,,,,,,,,,,,,,,,,,,,,,,,,,,,,,1143.3842739729444,1143.3842739729444,1143.3842739729444,1143.3842739729444,1143.3842739729444,1143.3842739729444,1143.3842739729444,1143.3842739729444,1143.3842739729444,1143.3842739729444,l,0.40781909704674035,10,707,2,1143.8201742859092,1145.320537781925,1145.320537781925,1145.8205262089614,,,,,,,,,,,,,,,,,,,,,,,,,,,,,,,,,,,,,,,,,,,,,,,,,,,,,,,,,,,,,,,,,41318,2022-11-04_15h10.18.421,vts_reward_expectancy_bt_OFFLINE,2022.2.4,59.99814016921688,
0,0,0,1,1,0,0,0,star,triangle,2,0,2,0,2,2,26,9,,,,,,,,,,,,,,,,,,,,,,,,,,,,,,,,,,,,,,,,1145.8205262089614,1145.8205262089614,1145.8205262089614,1145.8205262089614,1145.8205262089614,1145.8205262089614,1145.8205262089614,1145.8205262089614,1145.8205262089614,1145.8205262089614,a,0.380129236029461,10,717,2,1146.221079831943,1147.721525699948,1147.721525699948,1148.2216940099606,,,,,,,,,,,,,,,,,,,,,,,,,,,,,,,,,,,,,,,,,,,,,,,,,,,,,,,,,,,,,,,,,41318,2022-11-04_15h10.18.421,vts_reward_expectancy_bt_OFFLINE,2022.2.4,59.99814016921688,
0,1,0,0,0,0,1,0,circle,hexagon,2,0,2,0,2,3,27,4,,,,,,,,,,,,,,,,,,,,,,,,,,,,,,,,,,,,,,,,1148.2216940099606,1148.2216940099606,1148.2216940099606,1148.2216940099606,1148.2216940099606,1148.2216940099606,1148.2216940099606,1148.2216940099606,1148.2216940099606,1148.2216940099606,a,0.7570196620654315,10,727,2,1149.0069865349215,1150.507686998928,1150.507686998928,1151.0079480590066,,,,,,,,,,,,,,,,,,,,,,,,,,,,,,,,,,,,,,,,,,,,,,,,,,,,,,,,,,,,,,,,,41318,2022-11-04_15h10.18.421,vts_reward_expectancy_bt_OFFLINE,2022.2.4,59.99814016921688,
1,0,0,0,0,0,0,1,triangle,star,2,0,2,0,2,4,28,2,,,,,,,,,,,,,,,,,,,,,,,,,,,,,,,,,,,,,,,,1151.0079480590066,1151.0079480590066,1151.0079480590066,1151.0079480590066,1151.0079480590066,1151.0079480590066,1151.0079480590066,1151.0079480590066,1151.0079480590066,1151.0079480590066,l,0.7835610781330615,10,737,2,1151.8086328579811,1153.3086552890018,1153.3086552890018,,,,,,,,,,,,,,,,,,,,,,,,,,,,,,,,,,,,,,,,,,,,,,,,,,,,,,,,,,,,,,,,,,41318,2022-11-04_15h10.18.421,vts_reward_expectancy_bt_OFFLINE,2022.2.4,59.99814016921688,
1,0,0,0,0,1,0,0,triangle,circle,2,0,2,0,2,5,29,0,,,,,,,,,,,,,,,,,,,,,,,,,,,,,,,,,,,,,,,,1153.8106557289138,1153.8106557289138,1153.8106557289138,1153.8106557289138,1153.8106557289138,1153.8106557289138,1153.8106557289138,1153.8106557289138,1153.8106557289138,1153.8106557289138,l,0.6135106531437486,1,738,2,1154.4464530879632,1155.9612897239858,,,,,,,,,,,,,,,,,,,,,,,,,,,,,,,,,,,,,,,,,,,,,,,,,,,,,,,,,,,,,,,,,,,41318,2022-11-04_15h10.18.421,vts_reward_expectancy_bt_OFFLINE,2022.2.4,59.99814016921688,
0,1,0,0,1,0,0,0,circle,triangle,2,0,2,0,2,6,30,3,,,,,,,,,,,,,,,,,,,,,,,,,,,,,,,,,,,,,,,,1156.461502582999,1156.461502582999,1156.461502582999,1156.461502582999,1156.461502582999,1156.461502582999,1156.461502582999,1156.461502582999,1156.461502582999,1156.461502582999,l,0.5501775031443685,10,748,2,1157.0309501949232,1158.5455958920065,,,,,,,,,,,,,,,,,,,,,,,,,,,,,,,,,,,,,,,,,,,,,,,,,,,,,,,,,,,,,,,,,,,41318,2022-11-04_15h10.18.421,vts_reward_expectancy_bt_OFFLINE,2022.2.4,59.99814016921688,
0,0,0,1,0,1,0,0,star ,circle,2,0,2,0,2,7,31,10,,,,,,,,,,,,,,,,,,,,,,,,,,,,,,,,,,,,,,,,1159.0309432289796,1159.0309432289796,1159.0309432289796,1159.0309432289796,1159.0309432289796,1159.0309432289796,1159.0309432289796,1159.0309432289796,1159.0309432289796,1159.0309432289796,a,0.5678050221176818,10,758,2,1159.6312932180008,1161.1318012860138,1161.1318012860138,1161.6318441889016,,,,,,,,,,,,,,,,,,,,,,,,,,,,,,,,,,,,,,,,,,,,,,,,,,,,,,,,,,,,,,,,,41318,2022-11-04_15h10.18.421,vts_reward_expectancy_bt_OFFLINE,2022.2.4,59.99814016921688,
1,0,0,0,0,0,1,0,triangle,hexagon,2,0,2,0,2,8,32,1,,,,,,,,,,,,,,,,,,,,,,,,,,,,,,,,,,,,,,,,1161.6318441889016,1161.6318441889016,1161.6318441889016,1161.6318441889016,1161.6318441889016,1161.6318441889016,1161.6318441889016,1161.6318441889016,1161.6318441889016,1161.6318441889016,a,0.779877667198889,1,759,2,1162.4346567669418,1163.9345309479395,,,,,,,,,,,,,,,,,,,,,,,,,,,,,,,,,,,,,,,,,,,,,,,,,,,,,,,,,,,,,,,,,,,41318,2022-11-04_15h10.18.421,vts_reward_expectancy_bt_OFFLINE,2022.2.4,59.99814016921688,
0,0,1,0,1,0,0,0,hexagon,triangle,2,0,2,0,2,9,33,6,,,,,,,,,,,,,,,,,,,,,,,,,,,,,,,,,,,,,,,,1164.4348377779825,1164.4348377779825,1164.4348377779825,1164.4348377779825,1164.4348377779825,1164.4348377779825,1164.4348377779825,1164.4348377779825,1164.4348377779825,1164.4348377779825,a,0.5194603890413418,1,760,2,1164.9853067499353,1166.4855287129758,1166.4855287129758,1166.9856020829175,,,,,,,,,,,,,,,,,,,,,,,,,,,,,,,,,,,,,,,,,,,,,,,,,,,,,,,,,,,,,,,,,41318,2022-11-04_15h10.18.421,vts_reward_expectancy_bt_OFFLINE,2022.2.4,59.99814016921688,
0,0,1,0,0,1,0,0,hexagon,circle,2,0,2,0,2,10,34,7,,,,,,,,,,,,,,,,,,,,,,,,,,,,,,,,,,,,,,,,1166.9856020829175,1166.9856020829175,1166.9856020829175,1166.9856020829175,1166.9856020829175,1166.9856020829175,1166.9856020829175,1166.9856020829175,1166.9856020829175,1166.9856020829175,a,0.46607010799925774,10,770,2,1167.4713077329798,1168.9716500189388,,,,,,,,,,,,,,,,,,,,,,,,,,,,,,,,,,,,,,,,,,,,,,,,,,,,,,,,,,,,,,,,,,,41318,2022-11-04_15h10.18.421,vts_reward_expectancy_bt_OFFLINE,2022.2.4,59.99814016921688,
0,0,0,1,0,0,1,0,star,hexagon,2,0,2,0,2,11,35,11,,,,,,,,,,,,,,,,,,,,,,,,,,,,,,,,,,,,,,,,1169.4717153368983,1169.4717153368983,1169.4717153368983,1169.4717153368983,1169.4717153368983,1169.4717153368983,1169.4717153368983,1169.4717153368983,1169.4717153368983,1169.4717153368983,l,0.5681940000504255,1,771,2,1170.072219765978,1171.5722929500043,1171.5722929500043,1172.072589747957,,,,,,,,,,,,,,,,,,,,,,,,,,,,,,,,,,,,,,,,,,,,,,,,,,,,,,,,,,,,,,,,,41318,2022-11-04_15h10.18.421,vts_reward_expectancy_bt_OFFLINE,2022.2.4,59.99814016921688,
0,0,1,0,0,0,0,1,hexagon,star,2,0,2,0,3,0,36,8,,,,,,,,,,,,,,,,,,,,,,,,,,,,,,,,,,,,,,,,1172.072589747957,1172.072589747957,1172.072589747957,1172.072589747957,1172.072589747957,1172.072589747957,1172.072589747957,1172.072589747957,1172.072589747957,1172.072589747957,l,0.6002677851356566,10,781,2,1172.692016085959,1174.191847834969,,,,,,,,,,,,,,,,,,,,,,,,,,,,,,,,,,,,,,,,,,,,,,,,,,,,,,,,,,,,,,,,,,,41318,2022-11-04_15h10.18.421,vts_reward_expectancy_bt_OFFLINE,2022.2.4,59.99814016921688,
0,1,0,0,0,0,1,0,circle,hexagon,2,0,2,0,3,1,37,4,,,,,,,,,,,,,,,,,,,,,,,,,,,,,,,,,,,,,,,,1174.6920995989349,1174.6920995989349,1174.6920995989349,1174.6920995989349,1174.6920995989349,1174.6920995989349,1174.6920995989349,1174.6920995989349,1174.6920995989349,1174.6920995989349,l,1.3895842541242018,1,782,2,1176.1116882469505,1177.6264541919809,,,,,,,,,,,,,,,,,,,,,,,,,,,,,,,,,,,,,,,,,,,,,,,,,,,,,,,,,,,,,,,,,,,41318,2022-11-04_15h10.18.421,vts_reward_expectancy_bt_OFFLINE,2022.2.4,59.99814016921688,
1,0,0,0,0,0,1,0,triangle,hexagon,2,0,2,0,3,2,38,1,,,,,,,,,,,,,,,,,,,,,,,,,,,,,,,,,,,,,,,,1178.126661370974,1178.126661370974,1178.126661370974,1178.126661370974,1178.126661370974,1178.126661370974,1178.126661370974,1178.126661370974,1178.126661370974,1178.126661370974,a,1.1381204881472513,1,783,2,1179.2956738219364,1180.7961196720134,,,,,,,,,,,,,,,,,,,,,,,,,,,,,,,,,,,,,,,,,,,,,,,,,,,,,,,,,,,,,,,,,,,41318,2022-11-04_15h10.18.421,vts_reward_expectancy_bt_OFFLINE,2022.2.4,59.99814016921688,
0,0,0,1,0,1,0,0,star ,circle,2,0,2,0,3,3,39,10,,,,,,,,,,,,,,,,,,,,,,,,,,,,,,,,,,,,,,,,1181.2963019899325,1181.2963019899325,1181.2963019899325,1181.2963019899325,1181.2963019899325,1181.2963019899325,1181.2963019899325,1181.2963019899325,1181.2963019899325,1181.2963019899325,a,0.5898302571149543,1,784,2,1181.9135169319343,1183.4138548629126,,,,,,,,,,,,,,,,,,,,,,,,,,,,,,,,,,,,,,,,,,,,,,,,,,,,,,,,,,,,,,,,,,,41318,2022-11-04_15h10.18.421,vts_reward_expectancy_bt_OFFLINE,2022.2.4,59.99814016921688,
0,0,0,1,0,0,1,0,star,hexagon,2,0,2,0,3,4,40,11,,,,,,,,,,,,,,,,,,,,,,,,,,,,,,,,,,,,,,,,1183.9160810039612,1183.9160810039612,1183.9160810039612,1183.9160810039612,1183.9160810039612,1183.9160810039612,1183.9160810039612,1183.9160810039612,1183.9160810039612,1183.9160810039612,a,0.5692089151125401,10,794,2,1184.5185213249642,1186.0332809209358,,,,,,,,,,,,,,,,,,,,,,,,,,,,,,,,,,,,,,,,,,,,,,,,,,,,,,,,,,,,,,,,,,,41318,2022-11-04_15h10.18.421,vts_reward_expectancy_bt_OFFLINE,2022.2.4,59.99814016921688,
0,0,0,1,1,0,0,0,star,triangle,2,0,2,0,3,5,41,9,,,,,,,,,,,,,,,,,,,,,,,,,,,,,,,,,,,,,,,,1186.5332798860036,1186.5332798860036,1186.5332798860036,1186.5332798860036,1186.5332798860036,1186.5332798860036,1186.5332798860036,1186.5332798860036,1186.5332798860036,1186.5332798860036,a,0.45031462516635656,10,804,2,1187.0009494759142,1188.5009297339711,1188.5009297339711,,,,,,,,,,,,,,,,,,,,,,,,,,,,,,,,,,,,,,,,,,,,,,,,,,,,,,,,,,,,,,,,,,41318,2022-11-04_15h10.18.421,vts_reward_expectancy_bt_OFFLINE,2022.2.4,59.99814016921688,
1,0,0,0,0,0,0,1,triangle,star,2,0,2,0,3,6,42,2,,,,,,,,,,,,,,,,,,,,,,,,,,,,,,,,,,,,,,,,1189.0027576069115,1189.0027576069115,1189.0027576069115,1189.0027576069115,1189.0027576069115,1189.0027576069115,1189.0027576069115,1189.0027576069115,1189.0027576069115,1189.0027576069115,l,0.45502779399976134,1,805,2,1189.488972220919,1191.0036372619215,,,,,,,,,,,,,,,,,,,,,,,,,,,,,,,,,,,,,,,,,,,,,,,,,,,,,,,,,,,,,,,,,,,41318,2022-11-04_15h10.18.421,vts_reward_expectancy_bt_OFFLINE,2022.2.4,59.99814016921688,
0,1,0,0,0,0,0,1,circle,star,2,0,2,0,3,7,43,5,,,,,,,,,,,,,,,,,,,,,,,,,,,,,,,,,,,,,,,,1191.5035008629784,1191.5035008629784,1191.5035008629784,1191.5035008629784,1191.5035008629784,1191.5035008629784,1191.5035008629784,1191.5035008629784,1191.5035008629784,1191.5035008629784,l,0.4629113971022889,10,815,2,1191.9895577549469,1193.5045650670072,,,,,,,,,,,,,,,,,,,,,,,,,,,,,,,,,,,,,,,,,,,,,,,,,,,,,,,,,,,,,,,,,,,41318,2022-11-04_15h10.18.421,vts_reward_expectancy_bt_OFFLINE,2022.2.4,59.99814016921688,
0,0,1,0,0,1,0,0,hexagon,circle,2,0,2,0,3,8,44,7,,,,,,,,,,,,,,,,,,,,,,,,,,,,,,,,,,,,,,,,1193.989783174009,1193.989783174009,1193.989783174009,1193.989783174009,1193.989783174009,1193.989783174009,1193.989783174009,1193.989783174009,1193.989783174009,1193.989783174009,a,0.44070624106097966,10,825,2,1194.4571790589252,1195.9571624199161,1195.9571624199161,1196.4573943269206,,,,,,,,,,,,,,,,,,,,,,,,,,,,,,,,,,,,,,,,,,,,,,,,,,,,,,,,,,,,,,,,,41318,2022-11-04_15h10.18.421,vts_reward_expectancy_bt_OFFLINE,2022.2.4,59.99814016921688,
0,0,1,0,1,0,0,0,hexagon,triangle,2,0,2,0,3,9,45,6,,,,,,,,,,,,,,,,,,,,,,,,,,,,,,,,,,,,,,,,1196.4573943269206,1196.4573943269206,1196.4573943269206,1196.4573943269206,1196.4573943269206,1196.4573943269206,1196.4573943269206,1196.4573943269206,1196.4573943269206,1196.4573943269206,a,0.8758393181487918,10,835,2,1197.3585191789316,1198.8600505939685,,,,,,,,,,,,,,,,,,,,,,,,,,,,,,,,,,,,,,,,,,,,,,,,,,,,,,,,,,,,,,,,,,,41318,2022-11-04_15h10.18.421,vts_reward_expectancy_bt_OFFLINE,2022.2.4,59.99814016921688,
1,0,0,0,0,1,0,0,triangle,circle,2,0,2,0,3,10,46,0,,,,,,,,,,,,,,,,,,,,,,,,,,,,,,,,,,,,,,,,1199.3600694469642,1199.3600694469642,1199.3600694469642,1199.3600694469642,1199.3600694469642,1199.3600694469642,1199.3600694469642,1199.3600694469642,1199.3600694469642,1199.3600694469642,l,0.6512347861425951,10,845,2,1200.0437913759379,1201.5442270080093,1201.5442270080093,1202.0444955329876,,,,,,,,,,,,,,,,,,,,,,,,,,,,,,,,,,,,,,,,,,,,,,,,,,,,,,,,,,,,,,,,,41318,2022-11-04_15h10.18.421,vts_reward_expectancy_bt_OFFLINE,2022.2.4,59.99814016921688,
0,1,0,0,1,0,0,0,circle,triangle,2,0,2,0,3,11,47,3,,,,,,,,,,,,,,,,,,,,,,,,,,,,,,,,,,,,,,,,1202.0444955329876,1202.0444955329876,1202.0444955329876,1202.0444955329876,1202.0444955329876,1202.0444955329876,1202.0444955329876,1202.0444955329876,1202.0444955329876,1202.0444955329876,a,0.7336582781281322,10,855,2,1202.795543567976,1204.2971639689058,,,,,,,,,,,,,,,,,,,,,,,,,,,,,,,,,,,,,,,,,,,,,,,,,,,,,,,,,,,,,,,,,,,41318,2022-11-04_15h10.18.421,vts_reward_expectancy_bt_OFFLINE,2022.2.4,59.99814016921688,
,,,,,,,,,,,,,,,,,,0,0,0,0,0,0,0,0,,,,,,,,,,,,,,,,,,,,,,,,,,,,,,,,,,,,,,,,,,,,,,,,1329.4044825159945,,,132,S,circle,0.002535582985728979,1324.3470862859394,1325.8350086179562,1325.8350086179562,1325.8350086179562,1,0,d,2.0474225430516526,0,1327.905895726988,,,,,,,,,,,,,,,,,,,,,,,,,,,,,,,,,,,,,,,,,,,,,,,,,,,41318,2022-11-04_15h10.18.421,vts_reward_expectancy_bt_OFFLINE,2022.2.4,59.99814016921688,
,,,,,,,,,,,,,,,,,,0,0,0,0,1,0,1,0,,,,,,,,,,,,,,,,,,,,,,,,,,,,,,,,,,,,,,,,,,,,,,,,1334.0086736939847,,,174,U,hexagon,0.0020123959984630346,1330.4017277749954,1331.88892788894,1331.88892788894,1331.88892788894,1,0,f,0.5839690810535103,0,1332.5059662649874,,,,,,,,,,,,,,,,,,,,,,,,,,,,,,,,,,,,,,,,,,,,,,,,,,,41318,2022-11-04_15h10.18.421,vts_reward_expectancy_bt_OFFLINE,2022.2.4,59.99814016921688,
,,,,,,,,,,,,,,,,,,0,0,0,0,2,0,2,0,,,,,,,,,,,,,,,,,,,,,,,,,,,,,,,,,,,,,,,,,,,,,,,,1339.37866403698,,,125,Y,triangle,0.0014602160081267357,1335.0040670549497,1336.4922889779555,1336.4922889779555,1336.4922889779555,1,0,d,1.35812194715254,0,1337.876888158964,,,,,,,,,,,,,,,,,,,,,,,,,,,,,,,,,,,,,,,,,,,,,,,,,,,41318,2022-11-04_15h10.18.421,vts_reward_expectancy_bt_OFFLINE,2022.2.4,59.99814016921688,
,,,,,,,,,,,,,,,,,,0,0,0,0,3,0,3,0,,,,,,,,,,,,,,,,,,,,,,,,,,,,,,,,,,,,,,,,,,,,,,,,1344.032491535996,,,181,F,star,0.002237364067696035,1340.374885106925,1341.8631822579773,1341.8631822579773,1341.8631822579773,1,0,f,0.6447016641031951,0,1342.5303716819035,,,,,,,,,,,,,,,,,,,,,,,,,,,,,,,,,,,,,,,,,,,,,,,,,,,41318,2022-11-04_15h10.18.421,vts_reward_expectancy_bt_OFFLINE,2022.2.4,59.99814016921688,
,,,,,,,,,,,,,,,,,,0,0,0,0,4,0,4,0,,,,,,,,,,,,,,,,,,,,,,,,,,,,,,,,,,,,,,,,,,,,,,,,1349.035869446001,,,146,H,star,0.0018652679864317179,1345.0281700079795,1346.5167013709433,1346.5167013709433,1346.5167013709433,1,0,d,0.9874078391585499,0,1347.5341716479743,,,,,,,,,,,,,,,,,,,,,,,,,,,,,,,,,,,,,,,,,,,,,,,,,,,41318,2022-11-04_15h10.18.421,vts_reward_expectancy_bt_OFFLINE,2022.2.4,59.99814016921688,
,,,,,,,,,,,,,,,,,,0,0,0,0,5,0,5,0,,,,,,,,,,,,,,,,,,,,,,,,,,,,,,,,,,,,,,,,,,,,,,,,1353.742336354917,,,167,W,triangle,0.0018641360802575946,1350.0314333029091,1351.520084301941,1351.520084301941,1351.520084301941,1,0,f,0.6864187221508473,0,1352.2377912329976,,,,,,,,,,,,,,,,,,,,,,,,,,,,,,,,,,,,,,,,,,,,,,,,,,,41318,2022-11-04_15h10.18.421,vts_reward_expectancy_bt_OFFLINE,2022.2.4,59.99814016921688,
,,,,,,,,,,,,,,,,,,0,0,0,0,6,0,6,0,,,,,,,,,,,,,,,,,,,,,,,,,,,,,,,,,,,,,,,,,,,,,,,,1358.474445689004,,,160,D,hexagon,0.001960047986358404,1354.7348723749164,1356.2236175179714,1356.2236175179714,1356.2236175179714,1,0,f,0.729822755092755,0,1356.9747354569845,1358.474445689004,,,,,,,,,,,,,,,,,,,,,,,,,,,,,,,,,,,,,,,,,,,,,,,,,,41318,2022-11-04_15h10.18.421,vts_reward_expectancy_bt_OFFLINE,2022.2.4,59.99814016921688,
,,,,,,,,,,,,,,,,,,0,0,0,0,7,0,7,0,,,,,,,,,,,,,,,,,,,,,,,,,,,,,,,,,,,,,,,,,,,,,,,,1363.2113947859034,,,139,B,circle,0.0020555959781631827,1359.4720259759342,1360.9605247009313,1360.9605247009313,1360.9605247009313,1,0,d,0.7189100150717422,0,1361.7112294369144,1363.2113947859034,,,,,,,,,,,,,,,,,,,,,,,,,,,,,,,,,,,,,,,,,,,,,,,,,,41318,2022-11-04_15h10.18.421,vts_reward_expectancy_bt_OFFLINE,2022.2.4,59.99814016921688,
,,,,,,,,,,,,,,,,,,0,0,0,0,8,0,8,0,,,,,,,,,,,,,,,,,,,,,,,,,,,,,,,,,,,,,,,,,,,,,,,,1368.2650228999555,,,132,S,star,0.00037684000562876463,1364.2074488659855,1365.6975222670007,1365.6975222670007,1365.6975222670007,1,0,d,1.0438278680667281,0,1366.7652701690095,1368.2650228999555,,,,,,,,,,,,,,,,,,,,,,,,,,,,,,,,,,,,,,,,,,,,,,,,,,41318,2022-11-04_15h10.18.421,vts_reward_expectancy_bt_OFFLINE,2022.2.4,59.99814016921688,
,,,,,,,,,,,,,,,,,,0,0,0,0,9,0,9,0,,,,,,,,,,,,,,,,,,,,,,,,,,,,,,,,,,,,,,,,,,,,,,,,1372.8687160979025,,1373.379451972898,174,U,triangle,0.004966554930433631,1369.263553872006,1370.7511312529678,1370.7511312529678,1370.7511312529678,1,0,f,0.5922382611315697,0,1371.3686493249843,1372.8687160979025,,,,,,,,,,,,,,,,,,,,,,,,,,,,,,,,,,,,,,,,,,,,,,,,,,41318,2022-11-04_15h10.18.421,vts_reward_expectancy_bt_OFFLINE,2022.2.4,59.99814016921688,
,,,,,,,,,,,,,,,,,,,,,,,,,,0,0,0,0,0,0,0,0,,,,,,,,,,,,,,,,,,,,,,,,,,,,,,,,,,,,,,,,1408.8127524500014,,,174,U,star,0.0023164390586316586,,,,,1,0,,,1,1407.3111743410118,,1404.5053522329545,1405.9932324939873,1405.9932324939873,1405.9932324939873,k,1.2951746381586418,,,,,,,,,,,,,,,,,,,,,,,,,,,,,,,,,,,,,,,,,,,,41318,2022-11-04_15h10.18.421,vts_reward_expectancy_bt_OFFLINE,2022.2.4,59.99814016921688,
,,,,,,,,,,,,,,,,,,,,,,,,,,0,0,0,0,1,0,1,0,,,,,,,,,,,,,,,,,,,,,,,,,,,,,,,,,,,,,,,,1413.447730129934,,,125,Y,triangle,0.0017949659377336502,,,,,1,0,,,1,1411.9481734608999,1413.447730129934,1409.8082115579164,1411.2969451280078,1411.2969451280078,1411.2969451280078,k,0.6264393770834431,,,,,,,,,,,,,,,,,,,,,,,,,,,,,,,,,,,,,,,,,,,,41318,2022-11-04_15h10.18.421,vts_reward_expectancy_bt_OFFLINE,2022.2.4,59.99814016921688,
,,,,,,,,,,,,,,,,,,,,,,,,,,0,0,0,0,2,0,2,0,,,,,,,,,,,,,,,,,,,,,,,,,,,,,,,,,,,,,,,,1418.0679291589186,,1418.5680945079075,132,F,hexagon,0.001639517955482006,,,,,1,0,,,1,1416.5681560309604,1418.0679291589186,1414.4445244729286,1415.933968301979,1415.933968301979,1415.933968301979,j,0.6026446641189978,,,,,,,,,,,,,,,,,,,,,,,,,,,,,,,,,,,,,,,,,,,,41318,2022-11-04_15h10.18.421,vts_reward_expectancy_bt_OFFLINE,2022.2.4,59.99814016921688,
,,,,,,,,,,,,,,,,,,,,,,,,,,0,0,0,0,3,0,3,0,,,,,,,,,,,,,,,,,,,,,,,,,,,,,,,,,,,,,,,,1422.6546845699195,,1423.1549416849157,167,D,circle,0.0004429620457813144,,,,,1,0,,,1,1421.1552175160032,1422.6546845699195,1419.0645371619612,1420.5540290479548,1420.5540290479548,1420.5540290479548,j,0.5835456380154938,,,,,,,,,,,,,,,,,,,,,,,,,,,,,,,,,,,,,,,,,,,,41318,2022-11-04_15h10.18.421,vts_reward_expectancy_bt_OFFLINE,2022.2.4,59.99814016921688,
,,,,,,,,,,,,,,,,,,,,,,,,,,0,0,0,0,4,0,4,0,,,,,,,,,,,,,,,,,,,,,,,,,,,,,,,,,,,,,,,,1427.2915337509476,,1427.7919593929546,139,W,triangle,7.9768942669034e-05,,,,,1,0,,,1,1425.7918772340054,1427.2915337509476,1423.6513962869067,1425.140893948963,1425.140893948963,1425.140893948963,k,0.6204361700220034,,,,,,,,,,,,,,,,,,,,,,,,,,,,,,,,,,,,,,,,,,,,41318,2022-11-04_15h10.18.421,vts_reward_expectancy_bt_OFFLINE,2022.2.4,59.99814016921688,
,,,,,,,,,,,,,,,,,,,,,,,,,,0,0,0,0,5,0,5,0,,,,,,,,,,,,,,,,,,,,,,,,,,,,,,,,,,,,,,,,1432.0451734779635,,1432.5452892839676,160,B,circle,0.0004434509901329875,,,,,1,0,,,1,1430.545875113923,1432.0451734779635,1428.2877569189295,1429.777604678995,1429.777604678995,1429.777604678995,j,0.742616975097917,,,,,,,,,,,,,,,,,,,,,,,,,,,,,,,,,,,,,,,,,,,,41318,2022-11-04_15h10.18.421,vts_reward_expectancy_bt_OFFLINE,2022.2.4,59.99814016921688,
,,,,,,,,,,,,,,,,,,,,,,,,,,0,0,0,0,6,0,6,0,,,,,,,,,,,,,,,,,,,,,,,,,,,,,,,,,,,,,,,,1436.8988669859245,,1437.3988057159586,181,H,star,0.00017842603847384453,,,,,1,0,,,1,1435.3992011349183,1436.8988669859245,1433.0413055799436,1434.5312033969676,1434.5312033969676,1434.5312033969676,j,0.8494694631081074,,,,,,,,,,,,,,,,,,,,,,,,,,,,,,,,,,,,,,,,,,,,41318,2022-11-04_15h10.18.421,vts_reward_expectancy_bt_OFFLINE,2022.2.4,59.99814016921688,
,,,,,,,,,,,,,,,,,,,,,,,,,,0,0,0,0,7,0,7,0,,,,,,,,,,,,,,,,,,,,,,,,,,,,,,,,,,,,,,,,1441.635717920959,,1442.1356454149354,146,S,hexagon,0.00012010999489575624,,,,,1,0,,,1,1440.1358239758993,1441.635717920959,1437.8947775829583,1439.384662713972,1439.384662713972,1439.384662713972,k,0.732583106146194,,,,,,,,,,,,,,,,,,,,,,,,,,,,,,,,,,,,,,,,,,,,41318,2022-11-04_15h10.18.421,vts_reward_expectancy_bt_OFFLINE,2022.2.4,59.99814016921688,
,,,,,,,,,,,,,,,,,,,,,,,,,,0,0,0,0,8,0,8,0,,,,,,,,,,,,,,,,,,,,,,,,,,,,,,,,,,,,,,,,1446.289126555901,,1446.789198147948,174,U,hexagon,0.00045477598905563354,,,,,1,0,,,1,1444.7898395359516,1446.289126555901,1442.631668480928,1444.1216017679544,1444.1216017679544,1444.1216017679544,k,0.6427704651141539,,,,,,,,,,,,,,,,,,,,,,,,,,,,,,,,,,,,,,,,,,,,41318,2022-11-04_15h10.18.421,vts_reward_expectancy_bt_OFFLINE,2022.2.4,59.99814016921688,
,,,,,,,,,,,,,,,,,,,,,,,,,,0,0,0,0,9,0,9,0,,,,,,,,,,,,,,,,,,,,,,,,,,,,,,,,,,,,,,,,1450.8426500029163,,1451.346052137902,125,Y,triangle,0.0003330659819766879,,,,,1,0,,,1,1449.3419657009654,1450.8426500029163,1447.2851532759378,1448.7732845889404,1448.7732845889404,1448.7732845889404,k,0.5361139071173966,,,,,,,,,,,,,,,,,,,,,,,,,,,,,,,,,,,,,,,,,,,,41318,2022-11-04_15h10.18.421,vts_reward_expectancy_bt_OFFLINE,2022.2.4,59.99814016921688,
,,,,,,,,,,,,,,,,,,,,,,,,,,,,,,,,,,0,0,0,0,0,0,0,0,,,,,,,,,,,,,,,,,,,,,,,,,,,,0,855,,,1496.1090126619674,,,139,H,triangle,0.0024837059900164604,,,,,1,0,,,2,,,,,,,,,1491.2024782409426,1491.2024782409426,1491.2024782409426,1491.2024782409426,1492.6892241149908,1492.6892241149908,1492.6892241149908,1492.6892241149908,1492.7058364429977,1492.7058364429977,1492.7058364429977,1492.7058364429977,-1,number,NA,d,1.8797083870740607,vtsPrac,1494.5953690309543,,,,,,,,,,,,,,,,,,,,,,,,,41318,2022-11-04_15h10.18.421,vts_reward_expectancy_bt_OFFLINE,2022.2.4,59.99814016921688,
,,,,,,,,,,,,,,,,,,,,,,,,,,,,,,,,,,0,0,0,0,1,0,1,0,,,,,,,,,,,,,,,,,,,,,,,,,,,,0,855,,,1501.5624936819077,,1502.0627089309273,174,F,circle,0.016789668006822467,,,,,1,0,,,2,,,,,,,,,1497.1054262229009,1497.1054262229009,1497.1054262229009,1497.1054262229009,1498.5762798209907,1498.5762798209907,1498.5762798209907,1498.5762798209907,1498.6095867749536,1498.6095867749536,1498.6095867749536,1498.6095867749536,switch,letter,lettSwt,j,1.4613882320700213,vtsPrac,1500.0629798059817,1501.5624936819077,,,,,,,,,,,,,,,,,,,,,,,,41318,2022-11-04_15h10.18.421,vts_reward_expectancy_bt_OFFLINE,2022.2.4,59.99814016921688,
,,,,,,,,,,,,,,,,,,,,,,,,,,,,,,,,,,0,0,0,0,2,0,2,0,,,,,,,,,,,,,,,,,,,,,,,,,,,,0,855,,,1507.4664668579353,,1507.9666650749277,125,D,hexagon,0.0002303250366821885,,,,,1,0,,,2,,,,,,,,,1502.559324867907,1502.559324867907,1502.559324867907,1502.559324867907,1504.048348966986,1504.048348966986,1504.048348966986,1504.048348966986,1504.0652964309556,1504.0652964309556,1504.0652964309556,1504.0652964309556,repeat,letter,lettRpt,j,1.8960038950899616,vtsPrac,1505.9671661759494,1507.4664668579353,,,,,,,,,,,,,,,,,,,,,,,,41318,2022-11-04_15h10.18.421,vts_reward_expectancy_bt_OFFLINE,2022.2.4,59.99814016921688,
,,,,,,,,,,,,,,,,,,,,,,,,,,,,,,,,,,0,0,0,0,3,0,3,0,,,,,,,,,,,,,,,,,,,,,,,,,,,,0,855,,,1513.2703635229263,,1513.7707141019637,132,S,triangle,0.00028163206297904253,,,,,1,0,,,2,,,,,,,,,1508.462504418916,1508.462504418916,1508.462504418916,1508.462504418916,1509.9527186659398,1509.9527186659398,1509.9527186659398,1509.9527186659398,1509.9692191429203,1509.9692191429203,1509.9692191429203,1509.9692191429203,switch,number,numSwt,d,1.7969052230473608,vtsPrac,1511.770975011983,1513.2703635229263,,,,,,,,,,,,,,,,,,,,,,,,41318,2022-11-04_15h10.18.421,vts_reward_expectancy_bt_OFFLINE,2022.2.4,59.99814016921688,
,,,,,,,,,,,,,,,,,,,,,,,,,,,,,,,,,,0,0,0,0,4,0,4,0,,,,,,,,,,,,,,,,,,,,,,,,,,,,0,855,,,1518.7242554589175,,,139,H,triangle,0.00037884805351495743,,,,,1,0,,,2,,,,,,,,,1514.267188292928,1514.267188292928,1514.267188292928,1514.267188292928,1515.7565473939758,1515.7565473939758,1515.7565473939758,1515.7565473939758,1515.7728685379261,1515.7728685379261,1515.7728685379261,1515.7728685379261,repeat,number,numRpt,d,1.4379215930821374,vtsPrac,1517.2248612740077,1518.7242554589175,,,,,,,,,,,,,,,,,,,,,,,,41318,2022-11-04_15h10.18.421,vts_reward_expectancy_bt_OFFLINE,2022.2.4,59.99814016921688,
,,,,,,,,,,,,,,,,,,,,,,,,,,,,,,,,,,0,0,0,0,5,0,5,0,,,,,,,,,,,,,,,,,,,,,,,,,,,,0,855,,,1523.8665179279633,,,174,F,hexagon,0.0016642879927530885,,,,,1,0,,,2,,,,,,,,,1519.7217240859754,1519.7217240859754,1519.7217240859754,1519.7217240859754,1521.2104568249779,1521.2104568249779,1521.2104568249779,1521.2104568249779,1521.227057687007,1521.227057687007,1521.227057687007,1521.227057687007,repeat,number,numRpt,f,1.1260053530568257,vtsPrac,1522.3619682230055,,,,,,,,,,,,,,,,,,,,,,,,,41318,2022-11-04_15h10.18.421,vts_reward_expectancy_bt_OFFLINE,2022.2.4,59.99814016921688,
,,,,,,,,,,,,,,,,,,,,,,,,,,,,,,,,,,0,0,0,0,6,0,6,0,,,,,,,,,,,,,,,,,,,,,,,,,,,,0,855,,,1528.6314501629677,,,125,D,triangle,0.0018416359089314938,,,,,1,0,,,2,,,,,,,,,1524.8582641779212,1524.8582641779212,1524.8582641779212,1524.8582641779212,1526.3472971479641,1526.3472971479641,1526.3472971479641,1526.3472971479641,1526.3638788599055,1526.3638788599055,1526.3638788599055,1526.3638788599055,switch,letter,lettSwt,j,0.7595040129963309,vtsPrac,1527.132042403915,1528.6314501629677,,,,,,,,,,,,,,,,,,,,,,,,41318,2022-11-04_15h10.18.421,vts_reward_expectancy_bt_OFFLINE,2022.2.4,59.99814016921688,
,,,,,,,,,,,,,,,,,,,,,,,,,,,,,,,,,,0,0,0,0,7,0,7,0,,,,,,,,,,,,,,,,,,,,,,,,,,,,0,855,,,1533.5350639319513,,,132,S,star,0.0020082819974049926,,,,,1,0,,,2,,,,,,,,,1529.6288194059161,1529.6288194059161,1529.6288194059161,1529.6288194059161,1531.1174110010033,1531.1174110010033,1531.1174110010033,1531.1174110010033,1531.134074492962,1531.134074492962,1531.134074492962,1531.134074492962,switch,number,numSwt,d,0.8942408590810373,vtsPrac,1532.035717932973,1533.5350639319513,,,,,,,,,,,,,,,,,,,,,,,,41318,2022-11-04_15h10.18.421,vts_reward_expectancy_bt_OFFLINE,2022.2.4,59.99814016921688,
,,,,,,,,,,,,,,,,,,,,,,,,,,,,,,,,,,0,0,0,0,8,0,8,0,,,,,,,,,,,,,,,,,,,,,,,,,,,,0,855,,,1538.2219539330108,,1538.7221630309941,125,B,circle,0.0017433379543945193,,,,,1,0,,,2,,,,,,,,,1534.532537243911,1534.532537243911,1534.532537243911,1534.532537243911,1536.0211968549993,1536.0211968549993,1536.0211968549993,1536.0211968549993,1536.0379378480138,1536.0379378480138,1536.0379378480138,1536.0379378480138,switch,letter,lettSwt,j,0.6811264890711755,vtsPrac,1536.7224535159767,1538.2219539330108,,,,,,,,,,,,,,,,,,,,,,,,41318,2022-11-04_15h10.18.421,vts_reward_expectancy_bt_OFFLINE,2022.2.4,59.99814016921688,
,,,,,,,,,,,,,,,,,,,,,,,,,,,,,,,,,,0,0,0,0,9,0,9,0,,,,,,,,,,,,,,,,,,,,,,,,,,,,0,855,,,1542.858791815932,,1543.3589536739746,174,D,star,0.0006787839811295271,,,,,1,0,,,2,,,,,,,,,1539.2181908820057,1539.2181908820057,1539.2181908820057,1539.2181908820057,1540.7080743999686,1540.7080743999686,1540.7080743999686,1540.7080743999686,1540.724552243948,1540.724552243948,1540.724552243948,1540.724552243948,repeat,letter,lettRpt,j,0.6181894950568676,vtsPrac,1541.3581873619696,1542.858791815932,,,,,,,,,,,,,,,,,,,,,,,,41318,2022-11-04_15h10.18.421,vts_reward_expectancy_bt_OFFLINE,2022.2.4,59.99814016921688,
,,,,,,,,,,,,,,,,,,,,,,,,,,,,,,,,,,0,0,0,0,10,0,10,0,,,,,,,,,,,,,,,,,,,,,,,,,,,,0,855,,,1547.6621475960128,,1548.162282925914,160,F,hexagon,0.014431299990974367,,,,,1,0,,,2,,,,,,,,,1543.8717873549322,1543.8717873549322,1543.8717873549322,1543.8717873549322,1545.3446974660037,1545.3446974660037,1545.3446974660037,1545.3446974660037,1545.3782247619238,1545.3782247619238,1545.3782247619238,1545.3782247619238,repeat,letter,lettRpt,j,0.7861936860717833,vtsPrac,1546.1630605089013,1547.6621475960128,,,,,,,,,,,,,,,,,,,,,,,,41318,2022-11-04_15h10.18.421,vts_reward_expectancy_bt_OFFLINE,2022.2.4,59.99814016921688,
,,,,,,,,,,,,,,,,,,,,,,,,,,,,,,,,,,0,0,0,0,11,0,11,0,,,,,,,,,,,,,,,,,,,,,,,,,,,,0,855,,,1552.1824428850086,,,132,H,triangle,0.0002496889792382717,,,,,1,0,,,2,,,,,,,,,1548.6586175699485,1548.6586175699485,1548.6586175699485,1548.6586175699485,1550.1484979270026,1550.1484979270026,1550.1484979270026,1550.1484979270026,1550.1652420379687,1550.1652420379687,1550.1652420379687,1550.1652420379687,repeat,letter,lettRpt,j,0.5053918630583212,vtsPrac,1550.6829646539409,1552.1824428850086,,,,,,,,,,,,,,,,,,,,,,,,41318,2022-11-04_15h10.18.421,vts_reward_expectancy_bt_OFFLINE,2022.2.4,59.99814016921688,
,,,,,,,,,,,,,,,,,,,,,,,,,,,,,,,,,,0,0,0,0,12,0,12,0,,,,,,,,,,,,,,,,,,,,,,,,,,,,0,855,,,1557.1694061019225,,1557.6696664599003,174,B,circle,0.00041913404129445553,,,,,1,0,,,2,,,,,,,,,1553.1788900039392,1553.1788900039392,1553.1788900039392,1553.1788900039392,1554.6682229009457,1554.6682229009457,1554.6682229009457,1554.6682229009457,1554.6850921239238,1554.6850921239238,1554.6850921239238,1554.6850921239238,switch,number,numSwt,f,0.9797656580340117,vtsPrac,1555.6701716879616,1557.1694061019225,,,,,,,,,,,,,,,,,,,,,,,,41318,2022-11-04_15h10.18.421,vts_reward_expectancy_bt_OFFLINE,2022.2.4,59.99814016921688,
,,,,,,,,,,,,,,,,,,,,,,,,,,,,,,,,,,0,0,0,0,13,0,13,0,,,,,,,,,,,,,,,,,,,,,,,,,,,,0,855,,,1562.1732700499706,,1562.6731480909511,132,U,hexagon,0.00033131393138319254,,,,,1,0,,,2,,,,,,,,,1558.1660773449112,1558.1660773449112,1558.1660773449112,1558.1660773449112,1559.655491263955,1559.655491263955,1559.655491263955,1559.655491263955,1559.6721698839683,1559.6721698839683,1559.6721698839683,1559.6721698839683,repeat,number,numRpt,d,0.9991103791398928,vtsPrac,1560.673719271901,1562.1732700499706,,,,,,,,,,,,,,,,,,,,,,,,41318,2022-11-04_15h10.18.421,vts_reward_expectancy_bt_OFFLINE,2022.2.4,59.99814016921688,
,,,,,,,,,,,,,,,,,,,,,,,,,,,,,,,,,,0,0,0,0,14,0,14,0,,,,,,,,,,,,,,,,,,,,,,,,,,,,0,855,,,1567.0431782569503,,1567.5433585169958,160,D,circle,0.0004401440965011716,,,,,1,0,,,2,,,,,,,,,1563.1694029779173,1563.1694029779173,1563.1694029779173,1563.1694029779173,1564.659175865003,1564.659175865003,1564.659175865003,1564.659175865003,1564.6757280859165,1564.6757280859165,1564.6757280859165,1564.6757280859165,switch,letter,lettSwt,j,0.8557235730113462,vtsPrac,1565.544064946007,1567.0431782569503,,,,,,,,,,,,,,,,,,,,,,,,41318,2022-11-04_15h10.18.421,vts_reward_expectancy_bt_OFFLINE,2022.2.4,59.99814016921688,
,,,,,,,,,,,,,,,,,,,,,,,,,,,,,,,,,,0,0,0,0,15,0,15,0,,,,,,,,,,,,,,,,,,,,,,,,,,,,0,855,,,1572.3470699819736,,1572.8471176079474,146,F,hexagon,0.00043691799510270357,,,,,1,0,,,2,,,,,,,,,1568.0398671010043,1568.0398671010043,1568.0398671010043,1568.0398671010043,1569.5293976819376,1569.5293976819376,1569.5293976819376,1569.5293976819376,1569.5461102239788,1569.5461102239788,1569.5461102239788,1569.5461102239788,switch,number,numSwt,d,1.2955243401229382,vtsPrac,1570.8474662390072,1572.3470699819736,,,,,,,,,,,,,,,,,,,,,,,,41318,2022-11-04_15h10.18.421,vts_reward_expectancy_bt_OFFLINE,2022.2.4,59.99814016921688,
,,,,,,,,,,,,,,,,,,,,,,,,,,,,,,,,,,0,0,0,0,16,0,16,0,,,,,,,,,,,,,,,,,,,,,,,,,,,,0,855,,,1577.2674905459862,,,174,W,triangle,0.0006478299619629979,,,,,1,0,,,2,,,,,,,,,1573.3434476309922,1573.3434476309922,1573.3434476309922,1573.3434476309922,1574.8330543579068,1574.8330543579068,1574.8330543579068,1574.8330543579068,1574.8496721920092,1574.8496721920092,1574.8496721920092,1574.8496721920092,repeat,number,numRpt,f,0.9081099601462483,vtsPrac,1575.7679899960058,1577.2674905459862,,,,,,,,,,,,,,,,,,,,,,,,41318,2022-11-04_15h10.18.421,vts_reward_expectancy_bt_OFFLINE,2022.2.4,59.99814016921688,
,,,,,,,,,,,,,,,,,,,,,,,,,,,,,,,,,,0,0,0,0,17,0,17,0,,,,,,,,,,,,,,,,,,,,,,,,,,,,0,855,,,1582.187398695969,,1582.6879912079312,160,Y,hexagon,0.0005421630339697003,,,,,1,0,,,2,,,,,,,,,1578.2636527129216,1578.2636527129216,1578.2636527129216,1578.2636527129216,1579.7532684359467,1579.7532684359467,1579.7532684359467,1579.7532684359467,1579.7700634849025,1579.7700634849025,1579.7700634849025,1579.7700634849025,repeat,number,numRpt,f,0.915685665095225,vtsPrac,1580.6878808710026,1582.187398695969,,,,,,,,,,,,,,,,,,,,,,,,41318,2022-11-04_15h10.18.421,vts_reward_expectancy_bt_OFFLINE,2022.2.4,59.99814016921688,
,,,,,,,,,,,,,,,,,,,,,,,,,,,,,,,,,,0,0,0,0,18,0,18,0,,,,,,,,,,,,,,,,,,,,,,,,,,,,0,855,,,1587.324313582969,,1587.8247816069052,167,U,triangle,0.0004780689487233758,,,,,1,0,,,2,,,,,,,,,1583.183460681932,1583.183460681932,1583.183460681932,1583.183460681932,1584.6736187399365,1584.6736187399365,1584.6736187399365,1584.6736187399365,1584.6902847460005,1584.6902847460005,1584.6902847460005,1584.6902847460005,repeat,number,numRpt,f,1.1262956761056557,vtsPrac,1585.8254728699103,1587.324313582969,,,,,,,,,,,,,,,,,,,,,,,,41318,2022-11-04_15h10.18.421,vts_reward_expectancy_bt_OFFLINE,2022.2.4,59.99814016921688,
,,,,,,,,,,,,,,,,,,,,,,,,,,,,,,,,,,0,0,0,0,19,0,19,0,,,,,,,,,,,,,,,,,,,,,,,,,,,,0,855,,,1593.3285942609655,,1593.8287334219785,146,B,star,0.0002967480104416609,,,,,1,0,,,2,,,,,,,,,1588.3211665078998,1588.3211665078998,1588.3211665078998,1588.3211665078998,1589.8107451699907,1589.8107451699907,1589.8107451699907,1589.8107451699907,1589.827458043932,1589.827458043932,1589.827458043932,1589.827458043932,switch,letter,lettSwt,j,1.9971155420644209,vtsPrac,1591.8292741900077,1593.3285942609655,,,,,,,,,,,,,,,,,,,,,,,,41318,2022-11-04_15h10.18.421,vts_reward_expectancy_bt_OFFLINE,2022.2.4,59.99814016921688,
,,,,,,,,,,,,,,,,,,,,,,,,,,,,,,,,,,0,0,0,0,20,0,20,0,,,,,,,,,,,,,,,,,,,,,,,,,,,,0,855,,,1598.3322482689982,,1598.8321975149447,174,Y,star,0.0004133159527555108,,,,,1,0,,,2,,,,,,,,,1594.3247651288984,1594.3247651288984,1594.3247651288984,1594.3247651288984,1595.8145230029477,1595.8145230029477,1595.8145230029477,1595.8145230029477,1595.8312906009378,1595.8312906009378,1595.8312906009378,1595.8312906009378,switch,number,numSwt,f,0.987912287004292,vtsPrac,1596.8328144910047,1598.3322482689982,,,,,,,,,,,,,,,,,,,,,,,,41318,2022-11-04_15h10.18.421,vts_reward_expectancy_bt_OFFLINE,2022.2.4,59.99814016921688,
,,,,,,,,,,,,,,,,,,,,,,,,,,,,,,,,,,0,0,0,0,21,0,21,0,,,,,,,,,,,,,,,,,,,,,,,,,,,,0,855,,,1603.1526478389278,,1603.6523736659437,132,D,circle,0.00024020206183195114,,,,,1,0,,,2,,,,,,,,,1599.328812555992,1599.328812555992,1599.328812555992,1599.328812555992,1600.81828716991,1600.81828716991,1600.81828716991,1600.81828716991,1600.8350256559206,1600.8350256559206,1600.8350256559206,1600.8350256559206,repeat,number,numRpt,d,0.8108179231639951,vtsPrac,1601.6532853969838,1603.1526478389278,,,,,,,,,,,,,,,,,,,,,,,,41318,2022-11-04_15h10.18.421,vts_reward_expectancy_bt_OFFLINE,2022.2.4,59.99814016921688,
,,,,,,,,,,,,,,,,,,,,,,,,,,,,,,,,,,0,0,0,0,22,0,22,0,,,,,,,,,,,,,,,,,,,,,,,,,,,,0,855,,,1608.6729887679685,,,139,U,star,0.0005907790036872029,,,,,1,0,,,2,,,,,,,,,1604.1492274230113,1604.1492274230113,1604.1492274230113,1604.1492274230113,1605.6387252429267,1605.6387252429267,1605.6387252429267,1605.6387252429267,1605.6553659680067,1605.6553659680067,1605.6553659680067,1605.6553659680067,switch,letter,lettSwt,k,1.502524807001464,vtsPrac,1607.1734020248987,1608.6729887679685,,,,,,,,,,,,,,,,,,,,,,,,41318,2022-11-04_15h10.18.421,vts_reward_expectancy_bt_OFFLINE,2022.2.4,59.99814016921688,
,,,,,,,,,,,,,,,,,,,,,,,,,,,,,,,,,,0,0,0,0,23,0,23,0,,,,,,,,,,,,,,,,,,,,,,,,,,,,0,855,,,1614.0451025019865,,,160,H,circle,0.002032133052125573,,,,,1,0,,,2,,,,,,,,,1609.6702726819785,1609.6702726819785,1609.6702726819785,1609.6702726819785,1611.1590543939965,1611.1590543939965,1611.1590543939965,1611.1590543939965,1611.1758638569154,1611.1758638569154,1611.1758638569154,1611.1758638569154,repeat,letter,lettRpt,j,1.3608768810518086,vtsPrac,1612.5441672629677,,,,,,,,,,,,,,,,,,,,,,,,,41318,2022-11-04_15h10.18.421,vts_reward_expectancy_bt_OFFLINE,2022.2.4,59.99814016921688,
,,,,,,,,,,,,,,,,,,,,,,,,,,,,,,,,,,0,0,0,0,24,0,24,0,,,,,,,,,,,,,,,,,,,,,,,,,,,,0,855,,,1618.8802226159023,,,167,B,hexagon,0.001967041054740548,,,,,1,0,,,2,,,,,,,,,1615.0410678519402,1615.0410678519402,1615.0410678519402,1615.0410678519402,1616.5295122970128,1616.5295122970128,1616.5295122970128,1616.5295122970128,1616.5460702329874,1616.5460702329874,1616.5460702329874,1616.5460702329874,repeat,letter,lettRpt,j,0.8269093070412055,vtsPrac,1617.3809858569875,1618.8802226159023,,,,,,,,,,,,,,,,,,,,,,,,41318,2022-11-04_15h10.18.421,vts_reward_expectancy_bt_OFFLINE,2022.2.4,59.99814016921688,
