LTriangleOpac,LCircleOpac,LHexagonOpac,LStarOpac,RTriangleOpac,RCircleOpac,RHexagonOpac,RStarOpac,LShape_ID,RShape_ID,training_blocks.thisRepN,training_blocks.thisTrialN,training_blocks.thisN,training_blocks.thisIndex,training.thisRepN,training.thisTrialN,training.thisN,training.thisIndex,task1_prac_redo.thisRepN,task1_prac_redo.thisTrialN,task1_prac_redo.thisN,task1_prac_redo.thisIndex,task1_prac_trials.thisRepN,task1_prac_trials.thisTrialN,task1_prac_trials.thisN,task1_prac_trials.thisIndex,task2_prac_redo.thisRepN,task2_prac_redo.thisTrialN,task2_prac_redo.thisN,task2_prac_redo.thisIndex,task2_praac_trials.thisRepN,task2_praac_trials.thisTrialN,task2_praac_trials.thisN,task2_praac_trials.thisIndex,vts_prac_redo.thisRepN,vts_prac_redo.thisTrialN,vts_prac_redo.thisN,vts_prac_redo.thisIndex,vts_practice_trials.thisRepN,vts_practice_trials.thisTrialN,vts_practice_trials.thisN,vts_practice_trials.thisIndex,trials_norew.thisRepN,trials_norew.thisTrialN,trials_norew.thisN,trials_norew.thisIndex,block.thisRepN,block.thisTrialN,block.thisN,block.thisIndex,trials_rew.thisRepN,trials_rew.thisTrialN,trials_rew.thisN,trials_rew.thisIndex,key_resp.started,key_resp.keys,key_resp.rt,left_circle.started,right_circle.started,left_triangle.started,right_triangle.started,left_star.started,right_star.started,left_hexagon.started,right_hexagon.started,training_fix.started,training_resp.started,training_resp.keys,training_resp.rt,points_trial,points_cumul,trainBlock,training_feedback_txt.started,fix.started,training_feedback_txt.stopped,fix.stopped,curr_topStim,curr_bottStim,curr_shape,ISI.started,tgt_fix_prac1.started,top_target_prac1.started,bott_target_prac1.started,target_resp_prac1.started,acc,E1,target_resp_prac1.keys,target_resp_prac1.rt,pracBlock,prac_fback_text.started,prac_fback_text.stopped,tgt_fix_prac2.started,top_target_prac2.started,bott_target_prac2.started,target_resp_prac2.started,target_resp_prac2.keys,target_resp_prac2.rt,star.started,hegagon.started,triangle.started,circle.started,top_target.started,tgt_fix.started,bot_target.started,target_resp.started,star.stopped,hegagon.stopped,triangle.stopped,circle.stopped,top_target.stopped,tgt_fix.stopped,bot_target.stopped,target_resp.stopped,alt,task,condition,target_resp.keys,rewCond,vts_fback.started,target_resp.rt,vts_fback.stopped,blockNum,norew_fback.started,norew_fback.stopped,key_resp_2.keys,key_resp_2.rt,rewExpectancy,feedbk_text.started,feedbk_text.stopped,text_3.started,debrief.started,text_3.stopped,button.started,debrief.index,debrief.itemText,debrief.type,debrief.granularity,debrief.font,debrief.markerColor,debrief.response,debrief.rt,button.numClicks,button.timesOn,button.timesOff,participant,date,expName,psychopyVersion,frameRate,
,,,,,,,,,,,,,,,,,,,,,,,,,,,,,,,,,,,,,,,,,,,,,,,,,,,,,,253.80201329593547,space,32.31644557113759,,,,,,,,,,,,,,,,,,,,,,,,,,,,,,,,,,,,,,,,,,,,,,,,,,,,,,,,,,,,,,,,,,,,,,,,,,,,,,,,,,,,,,,,43487,2022-11-22_08h04.00.940,vts_reward_expectancy_bt_OFFLINE,2022.2.4,60.03953091527554,
0,0,1,0,0,0,0,1,hexagon,star,0,0,0,0,0,0,0,8,,,,,,,,,,,,,,,,,,,,,,,,,,,,,,,,,,,,,,,,304.11498653003946,304.11498653003946,304.11498653003946,304.11498653003946,304.11498653003946,304.11498653003946,304.11498653003946,304.11498653003946,304.11498653003946,304.11498653003946,l,3.109227813081816,1,1,0,307.2445839019492,308.75939064403065,,,,,,,,,,,,,,,,,,,,,,,,,,,,,,,,,,,,,,,,,,,,,,,,,,,,,,,,,,,,,,,,,,,,,,,43487,2022-11-22_08h04.00.940,vts_reward_expectancy_bt_OFFLINE,2022.2.4,60.03953091527554,
1,0,0,0,0,0,1,0,triangle,hexagon,0,0,0,0,0,1,1,1,,,,,,,,,,,,,,,,,,,,,,,,,,,,,,,,,,,,,,,,309.2597724569496,309.2597724569496,309.2597724569496,309.2597724569496,309.2597724569496,309.2597724569496,309.2597724569496,309.2597724569496,309.2597724569496,309.2597724569496,l,0.9116289969533682,10,11,0,310.1978297610767,311.7122772030998,,,,,,,,,,,,,,,,,,,,,,,,,,,,,,,,,,,,,,,,,,,,,,,,,,,,,,,,,,,,,,,,,,,,,,,43487,2022-11-22_08h04.00.940,vts_reward_expectancy_bt_OFFLINE,2022.2.4,60.03953091527554,
1,0,0,0,0,0,0,1,triangle,star,0,0,0,0,0,2,2,2,,,,,,,,,,,,,,,,,,,,,,,,,,,,,,,,,,,,,,,,312.2127085670363,312.2127085670363,312.2127085670363,312.2127085670363,312.2127085670363,312.2127085670363,312.2127085670363,312.2127085670363,312.2127085670363,312.2127085670363,a,0.9178727080579847,1,12,0,313.163435916882,314.66344166593626,314.66344166593626,,,,,,,,,,,,,,,,,,,,,,,,,,,,,,,,,,,,,,,,,,,,,,,,,,,,,,,,,,,,,,,,,,,,,,43487,2022-11-22_08h04.00.940,vts_reward_expectancy_bt_OFFLINE,2022.2.4,60.03953091527554,
1,0,0,0,0,1,0,0,triangle,circle,0,0,0,0,0,3,3,0,,,,,,,,,,,,,,,,,,,,,,,,,,,,,,,,,,,,,,,,315.1652978430502,315.1652978430502,315.1652978430502,315.1652978430502,315.1652978430502,315.1652978430502,315.1652978430502,315.1652978430502,315.1652978430502,315.1652978430502,l,2.0383661868982017,10,22,0,317.23439263994806,318.74992874404415,,,,,,,,,,,,,,,,,,,,,,,,,,,,,,,,,,,,,,,,,,,,,,,,,,,,,,,,,,,,,,,,,,,,,,,43487,2022-11-22_08h04.00.940,vts_reward_expectancy_bt_OFFLINE,2022.2.4,60.03953091527554,
0,1,0,0,1,0,0,0,circle,triangle,0,0,0,0,0,4,4,3,,,,,,,,,,,,,,,,,,,,,,,,,,,,,,,,,,,,,,,,319.24995733005926,319.24995733005926,319.24995733005926,319.24995733005926,319.24995733005926,319.24995733005926,319.24995733005926,319.24995733005926,319.24995733005926,319.24995733005926,l,1.565401995088905,1,23,0,320.8376614660956,322.353195277974,,,,,,,,,,,,,,,,,,,,,,,,,,,,,,,,,,,,,,,,,,,,,,,,,,,,,,,,,,,,,,,,,,,,,,,43487,2022-11-22_08h04.00.940,vts_reward_expectancy_bt_OFFLINE,2022.2.4,60.03953091527554,
0,0,1,0,1,0,0,0,hexagon,triangle,0,0,0,0,0,5,5,6,,,,,,,,,,,,,,,,,,,,,,,,,,,,,,,,,,,,,,,,322.85332179488614,322.85332179488614,322.85332179488614,322.85332179488614,322.85332179488614,322.85332179488614,322.85332179488614,322.85332179488614,322.85332179488614,322.85332179488614,l,4.116119530051947,1,24,0,326.98996533290483,328.4904438511003,328.4904438511003,328.9906808680389,,,,,,,,,,,,,,,,,,,,,,,,,,,,,,,,,,,,,,,,,,,,,,,,,,,,,,,,,,,,,,,,,,,,,43487,2022-11-22_08h04.00.940,vts_reward_expectancy_bt_OFFLINE,2022.2.4,60.03953091527554,
0,0,0,1,1,0,0,0,star,triangle,0,0,0,0,0,6,6,9,,,,,,,,,,,,,,,,,,,,,,,,,,,,,,,,,,,,,,,,328.9906808680389,328.9906808680389,328.9906808680389,328.9906808680389,328.9906808680389,328.9906808680389,328.9906808680389,328.9906808680389,328.9906808680389,328.9906808680389,l,1.0267979130148888,1,25,0,330.04609069996513,331.5603192988783,,,,,,,,,,,,,,,,,,,,,,,,,,,,,,,,,,,,,,,,,,,,,,,,,,,,,,,,,,,,,,,,,,,,,,,43487,2022-11-22_08h04.00.940,vts_reward_expectancy_bt_OFFLINE,2022.2.4,60.03953091527554,
0,1,0,0,0,0,1,0,circle,hexagon,0,0,0,0,0,7,7,4,,,,,,,,,,,,,,,,,,,,,,,,,,,,,,,,,,,,,,,,332.06029183603823,332.06029183603823,332.06029183603823,332.06029183603823,332.06029183603823,332.06029183603823,332.06029183603823,332.06029183603823,332.06029183603823,332.06029183603823,l,1.850677722133696,10,35,0,333.93024510587566,335.430035358062,,,,,,,,,,,,,,,,,,,,,,,,,,,,,,,,,,,,,,,,,,,,,,,,,,,,,,,,,,,,,,,,,,,,,,,43487,2022-11-22_08h04.00.940,vts_reward_expectancy_bt_OFFLINE,2022.2.4,60.03953091527554,
0,0,0,1,0,0,1,0,star,hexagon,0,0,0,0,0,8,8,11,,,,,,,,,,,,,,,,,,,,,,,,,,,,,,,,,,,,,,,,335.93002674006857,335.93002674006857,335.93002674006857,335.93002674006857,335.93002674006857,335.93002674006857,335.93002674006857,335.93002674006857,335.93002674006857,335.93002674006857,a,1.400739576201886,10,45,0,337.34722567605786,338.84798386204056,338.84798386204056,339.34809062606655,,,,,,,,,,,,,,,,,,,,,,,,,,,,,,,,,,,,,,,,,,,,,,,,,,,,,,,,,,,,,,,,,,,,,43487,2022-11-22_08h04.00.940,vts_reward_expectancy_bt_OFFLINE,2022.2.4,60.03953091527554,
0,0,0,1,0,1,0,0,star ,circle,0,0,0,0,0,9,9,10,,,,,,,,,,,,,,,,,,,,,,,,,,,,,,,,,,,,,,,,339.34809062606655,339.34809062606655,339.34809062606655,339.34809062606655,339.34809062606655,339.34809062606655,339.34809062606655,339.34809062606655,339.34809062606655,339.34809062606655,l,1.5276925701182336,10,55,0,340.90057800500654,342.4009716680739,342.4009716680739,342.9011040390469,,,,,,,,,,,,,,,,,,,,,,,,,,,,,,,,,,,,,,,,,,,,,,,,,,,,,,,,,,,,,,,,,,,,,43487,2022-11-22_08h04.00.940,vts_reward_expectancy_bt_OFFLINE,2022.2.4,60.03953091527554,
0,0,1,0,0,1,0,0,hexagon,circle,0,0,0,0,0,10,10,7,,,,,,,,,,,,,,,,,,,,,,,,,,,,,,,,,,,,,,,,342.9011040390469,342.9011040390469,342.9011040390469,342.9011040390469,342.9011040390469,342.9011040390469,342.9011040390469,342.9011040390469,342.9011040390469,342.9011040390469,l,3.4530220821034163,10,65,0,346.3710918999277,347.8713376300875,347.8713376300875,348.37166263209656,,,,,,,,,,,,,,,,,,,,,,,,,,,,,,,,,,,,,,,,,,,,,,,,,,,,,,,,,,,,,,,,,,,,,43487,2022-11-22_08h04.00.940,vts_reward_expectancy_bt_OFFLINE,2022.2.4,60.03953091527554,
0,1,0,0,0,0,0,1,circle,star,0,0,0,0,0,11,11,5,,,,,,,,,,,,,,,,,,,,,,,,,,,,,,,,,,,,,,,,348.37166263209656,348.37166263209656,348.37166263209656,348.37166263209656,348.37166263209656,348.37166263209656,348.37166263209656,348.37166263209656,348.37166263209656,348.37166263209656,a,1.6718012082856148,1,66,0,350.06078362604603,351.57484902092256,,,,,,,,,,,,,,,,,,,,,,,,,,,,,,,,,,,,,,,,,,,,,,,,,,,,,,,,,,,,,,,,,,,,,,,43487,2022-11-22_08h04.00.940,vts_reward_expectancy_bt_OFFLINE,2022.2.4,60.03953091527554,
0,1,0,0,0,0,1,0,circle,hexagon,0,0,0,0,1,0,12,4,,,,,,,,,,,,,,,,,,,,,,,,,,,,,,,,,,,,,,,,352.07488791807555,352.07488791807555,352.07488791807555,352.07488791807555,352.07488791807555,352.07488791807555,352.07488791807555,352.07488791807555,352.07488791807555,352.07488791807555,l,3.537526947213337,10,76,0,355.6452745469287,357.14516507508233,357.14516507508233,357.64529814198613,,,,,,,,,,,,,,,,,,,,,,,,,,,,,,,,,,,,,,,,,,,,,,,,,,,,,,,,,,,,,,,,,,,,,43487,2022-11-22_08h04.00.940,vts_reward_expectancy_bt_OFFLINE,2022.2.4,60.03953091527554,
1,0,0,0,0,0,0,1,triangle,star,0,0,0,0,1,1,13,2,,,,,,,,,,,,,,,,,,,,,,,,,,,,,,,,,,,,,,,,357.64529814198613,357.64529814198613,357.64529814198613,357.64529814198613,357.64529814198613,357.64529814198613,357.64529814198613,357.64529814198613,357.64529814198613,357.64529814198613,a,2.5689954101108015,1,77,0,360.23297441587783,361.7318103010766,361.7318103010766,362.2323252670467,,,,,,,,,,,,,,,,,,,,,,,,,,,,,,,,,,,,,,,,,,,,,,,,,,,,,,,,,,,,,,,,,,,,,43487,2022-11-22_08h04.00.940,vts_reward_expectancy_bt_OFFLINE,2022.2.4,60.03953091527554,
0,0,1,0,0,1,0,0,hexagon,circle,0,0,0,0,1,2,14,7,,,,,,,,,,,,,,,,,,,,,,,,,,,,,,,,,,,,,,,,362.2323252670467,362.2323252670467,362.2323252670467,362.2323252670467,362.2323252670467,362.2323252670467,362.2323252670467,362.2323252670467,362.2323252670467,362.2323252670467,l,3.169295591302216,1,78,0,365.4184282780625,366.91915596299805,366.91915596299805,367.4192197129596,,,,,,,,,,,,,,,,,,,,,,,,,,,,,,,,,,,,,,,,,,,,,,,,,,,,,,,,,,,,,,,,,,,,,43487,2022-11-22_08h04.00.940,vts_reward_expectancy_bt_OFFLINE,2022.2.4,60.03953091527554,
0,0,0,1,0,1,0,0,star ,circle,0,0,0,0,1,3,15,10,,,,,,,,,,,,,,,,,,,,,,,,,,,,,,,,,,,,,,,,367.4192197129596,367.4192197129596,367.4192197129596,367.4192197129596,367.4192197129596,367.4192197129596,367.4192197129596,367.4192197129596,367.4192197129596,367.4192197129596,a,7.375631815055385,1,79,0,374.82365086092614,376.32624352606945,,,,,,,,,,,,,,,,,,,,,,,,,,,,,,,,,,,,,,,,,,,,,,,,,,,,,,,,,,,,,,,,,,,,,,,43487,2022-11-22_08h04.00.940,vts_reward_expectancy_bt_OFFLINE,2022.2.4,60.03953091527554,
0,1,0,0,0,0,0,1,circle,star,0,0,0,0,1,4,16,5,,,,,,,,,,,,,,,,,,,,,,,,,,,,,,,,,,,,,,,,376.82626132899895,376.82626132899895,376.82626132899895,376.82626132899895,376.82626132899895,376.82626132899895,376.82626132899895,376.82626132899895,376.82626132899895,376.82626132899895,l,1.7939354819245636,1,80,0,378.643547836924,380.14583496004343,,,,,,,,,,,,,,,,,,,,,,,,,,,,,,,,,,,,,,,,,,,,,,,,,,,,,,,,,,,,,,,,,,,,,,,43487,2022-11-22_08h04.00.940,vts_reward_expectancy_bt_OFFLINE,2022.2.4,60.03953091527554,
1,0,0,0,0,1,0,0,triangle,circle,0,0,0,0,1,5,17,0,,,,,,,,,,,,,,,,,,,,,,,,,,,,,,,,,,,,,,,,380.646049791947,380.646049791947,380.646049791947,380.646049791947,380.646049791947,380.646049791947,380.646049791947,380.646049791947,380.646049791947,380.646049791947,l,5.107700267108157,1,81,0,385.78319176705554,387.2835302699823,387.2835302699823,,,,,,,,,,,,,,,,,,,,,,,,,,,,,,,,,,,,,,,,,,,,,,,,,,,,,,,,,,,,,,,,,,,,,,43487,2022-11-22_08h04.00.940,vts_reward_expectancy_bt_OFFLINE,2022.2.4,60.03953091527554,
0,1,0,0,1,0,0,0,circle,triangle,0,0,0,0,1,6,18,3,,,,,,,,,,,,,,,,,,,,,,,,,,,,,,,,,,,,,,,,387.78408309305087,387.78408309305087,387.78408309305087,387.78408309305087,387.78408309305087,387.78408309305087,387.78408309305087,387.78408309305087,387.78408309305087,387.78408309305087,l,1.7839330381248146,1,82,0,389.5848227168899,391.08702871296555,,,,,,,,,,,,,,,,,,,,,,,,,,,,,,,,,,,,,,,,,,,,,,,,,,,,,,,,,,,,,,,,,,,,,,,43487,2022-11-22_08h04.00.940,vts_reward_expectancy_bt_OFFLINE,2022.2.4,60.03953091527554,
0,0,0,1,0,0,1,0,star,hexagon,0,0,0,0,1,7,19,11,,,,,,,,,,,,,,,,,,,,,,,,,,,,,,,,,,,,,,,,391.58727905200794,391.58727905200794,391.58727905200794,391.58727905200794,391.58727905200794,391.58727905200794,391.58727905200794,391.58727905200794,391.58727905200794,391.58727905200794,l,1.8272473001852632,1,83,0,393.43778343196027,394.9386616970878,394.9386616970878,,,,,,,,,,,,,,,,,,,,,,,,,,,,,,,,,,,,,,,,,,,,,,,,,,,,,,,,,,,,,,,,,,,,,,43487,2022-11-22_08h04.00.940,vts_reward_expectancy_bt_OFFLINE,2022.2.4,60.03953091527554,
1,0,0,0,0,0,1,0,triangle,hexagon,0,0,0,0,1,8,20,1,,,,,,,,,,,,,,,,,,,,,,,,,,,,,,,,,,,,,,,,395.4403273949865,395.4403273949865,395.4403273949865,395.4403273949865,395.4403273949865,395.4403273949865,395.4403273949865,395.4403273949865,395.4403273949865,395.4403273949865,l,6.659777598222718,1,84,0,402.1280372568872,403.62832088093273,403.62832088093273,404.12845260999165,,,,,,,,,,,,,,,,,,,,,,,,,,,,,,,,,,,,,,,,,,,,,,,,,,,,,,,,,,,,,,,,,,,,,43487,2022-11-22_08h04.00.940,vts_reward_expectancy_bt_OFFLINE,2022.2.4,60.03953091527554,
0,0,1,0,1,0,0,0,hexagon,triangle,0,0,0,0,1,9,21,6,,,,,,,,,,,,,,,,,,,,,,,,,,,,,,,,,,,,,,,,404.12845260999165,404.12845260999165,404.12845260999165,404.12845260999165,404.12845260999165,404.12845260999165,404.12845260999165,404.12845260999165,404.12845260999165,404.12845260999165,a,4.025241990108043,10,94,0,408.1834337338805,409.682471848093,409.682471848093,,,,,,,,,,,,,,,,,,,,,,,,,,,,,,,,,,,,,,,,,,,,,,,,,,,,,,,,,,,,,,,,,,,,,,43487,2022-11-22_08h04.00.940,vts_reward_expectancy_bt_OFFLINE,2022.2.4,60.03953091527554,
0,0,1,0,0,0,0,1,hexagon,star,0,0,0,0,1,10,22,8,,,,,,,,,,,,,,,,,,,,,,,,,,,,,,,,,,,,,,,,410.1842931229621,410.1842931229621,410.1842931229621,410.1842931229621,410.1842931229621,410.1842931229621,410.1842931229621,410.1842931229621,410.1842931229621,410.1842931229621,l,3.527339052176103,1,95,0,413.7375728050247,415.23826304706745,,,,,,,,,,,,,,,,,,,,,,,,,,,,,,,,,,,,,,,,,,,,,,,,,,,,,,,,,,,,,,,,,,,,,,,43487,2022-11-22_08h04.00.940,vts_reward_expectancy_bt_OFFLINE,2022.2.4,60.03953091527554,
0,0,0,1,1,0,0,0,star,triangle,0,0,0,0,1,11,23,9,,,,,,,,,,,,,,,,,,,,,,,,,,,,,,,,,,,,,,,,415.7384819900617,415.7384819900617,415.7384819900617,415.7384819900617,415.7384819900617,415.7384819900617,415.7384819900617,415.7384819900617,415.7384819900617,415.7384819900617,l,9.043688143137842,10,105,0,424.812308565015,426.3122488139197,,,,,,,,,,,,,,,,,,,,,,,,,,,,,,,,,,,,,,,,,,,,,,,,,,,,,,,,,,,,,,,,,,,,,,,43487,2022-11-22_08h04.00.940,vts_reward_expectancy_bt_OFFLINE,2022.2.4,60.03953091527554,
0,0,0,1,0,1,0,0,star ,circle,0,0,0,0,2,0,24,10,,,,,,,,,,,,,,,,,,,,,,,,,,,,,,,,,,,,,,,,426.8126894100569,426.8126894100569,426.8126894100569,426.8126894100569,426.8126894100569,426.8126894100569,426.8126894100569,426.8126894100569,426.8126894100569,426.8126894100569,l,1.0411546132527292,1,106,0,427.881464575883,429.3969774590805,,,,,,,,,,,,,,,,,,,,,,,,,,,,,,,,,,,,,,,,,,,,,,,,,,,,,,,,,,,,,,,,,,,,,,,43487,2022-11-22_08h04.00.940,vts_reward_expectancy_bt_OFFLINE,2022.2.4,60.03953091527554,
1,0,0,0,0,0,0,1,triangle,star,0,0,0,0,2,1,25,2,,,,,,,,,,,,,,,,,,,,,,,,,,,,,,,,,,,,,,,,429.88026858400553,429.88026858400553,429.88026858400553,429.88026858400553,429.88026858400553,429.88026858400553,429.88026858400553,429.88026858400553,429.88026858400553,429.88026858400553,a,25.7614173470065,1,107,0,455.6674862639047,457.1678686160594,457.1678686160594,457.6683365649078,,,,,,,,,,,,,,,,,,,,,,,,,,,,,,,,,,,,,,,,,,,,,,,,,,,,,,,,,,,,,,,,,,,,,43487,2022-11-22_08h04.00.940,vts_reward_expectancy_bt_OFFLINE,2022.2.4,60.03953091527554,
1,0,0,0,0,1,0,0,triangle,circle,0,0,0,0,2,2,26,0,,,,,,,,,,,,,,,,,,,,,,,,,,,,,,,,,,,,,,,,457.6683365649078,457.6683365649078,457.6683365649078,457.6683365649078,457.6683365649078,457.6683365649078,457.6683365649078,457.6683365649078,457.6683365649078,457.6683365649078,l,1.079740161076188,10,117,0,458.77034487505443,460.27079168194905,,,,,,,,,,,,,,,,,,,,,,,,,,,,,,,,,,,,,,,,,,,,,,,,,,,,,,,,,,,,,,,,,,,,,,,43487,2022-11-22_08h04.00.940,vts_reward_expectancy_bt_OFFLINE,2022.2.4,60.03953091527554,
0,1,0,0,0,0,1,0,circle,hexagon,0,0,0,0,2,3,27,4,,,,,,,,,,,,,,,,,,,,,,,,,,,,,,,,,,,,,,,,460.77098324592225,460.77098324592225,460.77098324592225,460.77098324592225,460.77098324592225,460.77098324592225,460.77098324592225,460.77098324592225,460.77098324592225,460.77098324592225,l,2.858729286119342,1,118,0,463.65749099990353,465.15788407600485,,,,,,,,,,,,,,,,,,,,,,,,,,,,,,,,,,,,,,,,,,,,,,,,,,,,,,,,,,,,,,,,,,,,,,,43487,2022-11-22_08h04.00.940,vts_reward_expectancy_bt_OFFLINE,2022.2.4,60.03953091527554,
0,0,1,0,1,0,0,0,hexagon,triangle,0,0,0,0,2,4,28,6,,,,,,,,,,,,,,,,,,,,,,,,,,,,,,,,,,,,,,,,465.6581706730649,465.6581706730649,465.6581706730649,465.6581706730649,465.6581706730649,465.6581706730649,465.6581706730649,465.6581706730649,465.6581706730649,465.6581706730649,l,1.0767096281051636,10,128,0,466.7604403209407,468.2756872389,,,,,,,,,,,,,,,,,,,,,,,,,,,,,,,,,,,,,,,,,,,,,,,,,,,,,,,,,,,,,,,,,,,,,,,43487,2022-11-22_08h04.00.940,vts_reward_expectancy_bt_OFFLINE,2022.2.4,60.03953091527554,
0,0,0,1,1,0,0,0,star,triangle,0,0,0,0,2,5,29,9,,,,,,,,,,,,,,,,,,,,,,,,,,,,,,,,,,,,,,,,468.77549633709714,468.77549633709714,468.77549633709714,468.77549633709714,468.77549633709714,468.77549633709714,468.77549633709714,468.77549633709714,468.77549633709714,468.77549633709714,a,1.4360119951888919,1,129,0,470.2300855440553,471.7454442179296,,,,,,,,,,,,,,,,,,,,,,,,,,,,,,,,,,,,,,,,,,,,,,,,,,,,,,,,,,,,,,,,,,,,,,,43487,2022-11-22_08h04.00.940,vts_reward_expectancy_bt_OFFLINE,2022.2.4,60.03953091527554,
0,0,1,0,0,1,0,0,hexagon,circle,0,0,0,0,2,6,30,7,,,,,,,,,,,,,,,,,,,,,,,,,,,,,,,,,,,,,,,,472.2456818250939,472.2456818250939,472.2456818250939,472.2456818250939,472.2456818250939,472.2456818250939,472.2456818250939,472.2456818250939,472.2456818250939,472.2456818250939,l,11.815414818236604,10,139,0,484.0889818870928,485.5890755360015,,,,,,,,,,,,,,,,,,,,,,,,,,,,,,,,,,,,,,,,,,,,,,,,,,,,,,,,,,,,,,,,,,,,,,,43487,2022-11-22_08h04.00.940,vts_reward_expectancy_bt_OFFLINE,2022.2.4,60.03953091527554,
1,0,0,0,0,0,1,0,triangle,hexagon,0,0,0,0,2,7,31,1,,,,,,,,,,,,,,,,,,,,,,,,,,,,,,,,,,,,,,,,486.0893600259442,486.0893600259442,486.0893600259442,486.0893600259442,486.0893600259442,486.0893600259442,486.0893600259442,486.0893600259442,486.0893600259442,486.0893600259442,a,6.546282517025247,1,140,0,492.6624190600123,494.1776557629928,,,,,,,,,,,,,,,,,,,,,,,,,,,,,,,,,,,,,,,,,,,,,,,,,,,,,,,,,,,,,,,,,,,,,,,43487,2022-11-22_08h04.00.940,vts_reward_expectancy_bt_OFFLINE,2022.2.4,60.03953091527554,
0,0,0,1,0,0,1,0,star,hexagon,0,0,0,0,2,8,32,11,,,,,,,,,,,,,,,,,,,,,,,,,,,,,,,,,,,,,,,,494.6776451158803,494.6776451158803,494.6776451158803,494.6776451158803,494.6776451158803,494.6776451158803,494.6776451158803,494.6776451158803,494.6776451158803,494.6776451158803,l,1.2085265072528273,1,141,0,495.91315050795674,497.4139620899223,497.4139620899223,,,,,,,,,,,,,,,,,,,,,,,,,,,,,,,,,,,,,,,,,,,,,,,,,,,,,,,,,,,,,,,,,,,,,,43487,2022-11-22_08h04.00.940,vts_reward_expectancy_bt_OFFLINE,2022.2.4,60.03953091527554,
0,0,1,0,0,0,0,1,hexagon,star,0,0,0,0,2,9,33,8,,,,,,,,,,,,,,,,,,,,,,,,,,,,,,,,,,,,,,,,497.9140819790773,497.9140819790773,497.9140819790773,497.9140819790773,497.9140819790773,497.9140819790773,497.9140819790773,497.9140819790773,497.9140819790773,497.9140819790773,l,3.9008760950528085,1,142,0,501.83387659094296,503.3344555750955,503.3344555750955,503.8345644879155,,,,,,,,,,,,,,,,,,,,,,,,,,,,,,,,,,,,,,,,,,,,,,,,,,,,,,,,,,,,,,,,,,,,,43487,2022-11-22_08h04.00.940,vts_reward_expectancy_bt_OFFLINE,2022.2.4,60.03953091527554,
0,1,0,0,0,0,0,1,circle,star,0,0,0,0,2,10,34,5,,,,,,,,,,,,,,,,,,,,,,,,,,,,,,,,,,,,,,,,503.8345644879155,503.8345644879155,503.8345644879155,503.8345644879155,503.8345644879155,503.8345644879155,503.8345644879155,503.8345644879155,503.8345644879155,503.8345644879155,l,1.7037629631813616,1,143,0,505.5703911848832,507.07109065400437,507.07109065400437,507.5714215449989,,,,,,,,,,,,,,,,,,,,,,,,,,,,,,,,,,,,,,,,,,,,,,,,,,,,,,,,,,,,,,,,,,,,,43487,2022-11-22_08h04.00.940,vts_reward_expectancy_bt_OFFLINE,2022.2.4,60.03953091527554,
0,1,0,0,1,0,0,0,circle,triangle,0,0,0,0,2,11,35,3,,,,,,,,,,,,,,,,,,,,,,,,,,,,,,,,,,,,,,,,507.5714215449989,507.5714215449989,507.5714215449989,507.5714215449989,507.5714215449989,507.5714215449989,507.5714215449989,507.5714215449989,507.5714215449989,507.5714215449989,a,8.239635643083602,10,153,0,515.8299749540165,517.3448570698965,,,,,,,,,,,,,,,,,,,,,,,,,,,,,,,,,,,,,,,,,,,,,,,,,,,,,,,,,,,,,,,,,,,,,,,43487,2022-11-22_08h04.00.940,vts_reward_expectancy_bt_OFFLINE,2022.2.4,60.03953091527554,
0,1,0,0,0,0,1,0,circle,hexagon,0,0,0,0,3,0,36,4,,,,,,,,,,,,,,,,,,,,,,,,,,,,,,,,,,,,,,,,517.845310970908,517.845310970908,517.845310970908,517.845310970908,517.845310970908,517.845310970908,517.845310970908,517.845310970908,517.845310970908,517.845310970908,a,1.8582504780497402,10,163,0,519.729224167997,521.231699293945,,,,,,,,,,,,,,,,,,,,,,,,,,,,,,,,,,,,,,,,,,,,,,,,,,,,,,,,,,,,,,,,,,,,,,,43487,2022-11-22_08h04.00.940,vts_reward_expectancy_bt_OFFLINE,2022.2.4,60.03953091527554,
0,0,1,0,0,0,0,1,hexagon,star,0,0,0,0,3,1,37,8,,,,,,,,,,,,,,,,,,,,,,,,,,,,,,,,,,,,,,,,521.7317487469409,521.7317487469409,521.7317487469409,521.7317487469409,521.7317487469409,521.7317487469409,521.7317487469409,521.7317487469409,521.7317487469409,521.7317487469409,a,2.628914608154446,1,164,0,524.38443714194,525.8849622460548,,,,,,,,,,,,,,,,,,,,,,,,,,,,,,,,,,,,,,,,,,,,,,,,,,,,,,,,,,,,,,,,,,,,,,,43487,2022-11-22_08h04.00.940,vts_reward_expectancy_bt_OFFLINE,2022.2.4,60.03953091527554,
1,0,0,0,0,0,0,1,triangle,star,0,0,0,0,3,2,38,2,,,,,,,,,,,,,,,,,,,,,,,,,,,,,,,,,,,,,,,,526.3850838800427,526.3850838800427,526.3850838800427,526.3850838800427,526.3850838800427,526.3850838800427,526.3850838800427,526.3850838800427,526.3850838800427,526.3850838800427,a,1.4748474159277976,10,174,0,527.8882434449624,529.4030938800424,,,,,,,,,,,,,,,,,,,,,,,,,,,,,,,,,,,,,,,,,,,,,,,,,,,,,,,,,,,,,,,,,,,,,,,43487,2022-11-22_08h04.00.940,vts_reward_expectancy_bt_OFFLINE,2022.2.4,60.03953091527554,
0,0,0,1,0,1,0,0,star ,circle,0,0,0,0,3,3,39,10,,,,,,,,,,,,,,,,,,,,,,,,,,,,,,,,,,,,,,,,529.9031681390479,529.9031681390479,529.9031681390479,529.9031681390479,529.9031681390479,529.9031681390479,529.9031681390479,529.9031681390479,529.9031681390479,529.9031681390479,l,3.5705826291814446,10,184,0,533.5061707589775,535.0068780870643,535.0068780870643,,,,,,,,,,,,,,,,,,,,,,,,,,,,,,,,,,,,,,,,,,,,,,,,,,,,,,,,,,,,,,,,,,,,,,43487,2022-11-22_08h04.00.940,vts_reward_expectancy_bt_OFFLINE,2022.2.4,60.03953091527554,
0,0,0,1,1,0,0,0,star,triangle,0,0,0,0,3,4,40,9,,,,,,,,,,,,,,,,,,,,,,,,,,,,,,,,,,,,,,,,535.5089706480503,535.5089706480503,535.5089706480503,535.5089706480503,535.5089706480503,535.5089706480503,535.5089706480503,535.5089706480503,535.5089706480503,535.5089706480503,l,3.893660176312551,1,185,0,539.4288224570919,540.92927190708,,,,,,,,,,,,,,,,,,,,,,,,,,,,,,,,,,,,,,,,,,,,,,,,,,,,,,,,,,,,,,,,,,,,,,,43487,2022-11-22_08h04.00.940,vts_reward_expectancy_bt_OFFLINE,2022.2.4,60.03953091527554,
1,0,0,0,0,0,1,0,triangle,hexagon,0,0,0,0,3,5,41,1,,,,,,,,,,,,,,,,,,,,,,,,,,,,,,,,,,,,,,,,541.4296100509819,541.4296100509819,541.4296100509819,541.4296100509819,541.4296100509819,541.4296100509819,541.4296100509819,541.4296100509819,541.4296100509819,541.4296100509819,a,1.7315126131288707,1,186,0,543.1805685618892,544.6807169429958,544.6807169429958,,,,,,,,,,,,,,,,,,,,,,,,,,,,,,,,,,,,,,,,,,,,,,,,,,,,,,,,,,,,,,,,,,,,,,43487,2022-11-22_08h04.00.940,vts_reward_expectancy_bt_OFFLINE,2022.2.4,60.03953091527554,
0,0,1,0,1,0,0,0,hexagon,triangle,0,0,0,0,3,6,42,6,,,,,,,,,,,,,,,,,,,,,,,,,,,,,,,,,,,,,,,,545.186197090894,545.186197090894,545.186197090894,545.186197090894,545.186197090894,545.186197090894,545.186197090894,545.186197090894,545.186197090894,545.186197090894,a,1.1812427451368421,10,196,0,546.401634965092,547.9169887830503,,,,,,,,,,,,,,,,,,,,,,,,,,,,,,,,,,,,,,,,,,,,,,,,,,,,,,,,,,,,,,,,,,,,,,,43487,2022-11-22_08h04.00.940,vts_reward_expectancy_bt_OFFLINE,2022.2.4,60.03953091527554,
0,0,1,0,0,1,0,0,hexagon,circle,0,0,0,0,3,7,43,7,,,,,,,,,,,,,,,,,,,,,,,,,,,,,,,,,,,,,,,,548.4170864499174,548.4170864499174,548.4170864499174,548.4170864499174,548.4170864499174,548.4170864499174,548.4170864499174,548.4170864499174,548.4170864499174,548.4170864499174,l,3.2619585781358182,10,206,0,551.70362041099,553.2039838349447,553.2039838349447,,,,,,,,,,,,,,,,,,,,,,,,,,,,,,,,,,,,,,,,,,,,,,,,,,,,,,,,,,,,,,,,,,,,,,43487,2022-11-22_08h04.00.940,vts_reward_expectancy_bt_OFFLINE,2022.2.4,60.03953091527554,
0,1,0,0,1,0,0,0,circle,triangle,0,0,0,0,3,8,44,3,,,,,,,,,,,,,,,,,,,,,,,,,,,,,,,,,,,,,,,,553.7041271990165,553.7041271990165,553.7041271990165,553.7041271990165,553.7041271990165,553.7041271990165,553.7041271990165,553.7041271990165,553.7041271990165,553.7041271990165,a,1.281781362136826,10,216,0,555.0050668320619,556.5069795539603,,,,,,,,,,,,,,,,,,,,,,,,,,,,,,,,,,,,,,,,,,,,,,,,,,,,,,,,,,,,,,,,,,,,,,,43487,2022-11-22_08h04.00.940,vts_reward_expectancy_bt_OFFLINE,2022.2.4,60.03953091527554,
0,1,0,0,0,0,0,1,circle,star,0,0,0,0,3,9,45,5,,,,,,,,,,,,,,,,,,,,,,,,,,,,,,,,,,,,,,,,557.0076752218883,557.0076752218883,557.0076752218883,557.0076752218883,557.0076752218883,557.0076752218883,557.0076752218883,557.0076752218883,557.0076752218883,557.0076752218883,a,1.251152214128524,10,226,0,558.2910530900117,559.7916972988751,559.7916972988751,,,,,,,,,,,,,,,,,,,,,,,,,,,,,,,,,,,,,,,,,,,,,,,,,,,,,,,,,,,,,,,,,,,,,,43487,2022-11-22_08h04.00.940,vts_reward_expectancy_bt_OFFLINE,2022.2.4,60.03953091527554,
0,0,0,1,0,0,1,0,star,hexagon,0,0,0,0,3,10,46,11,,,,,,,,,,,,,,,,,,,,,,,,,,,,,,,,,,,,,,,,560.2936885140371,560.2936885140371,560.2936885140371,560.2936885140371,560.2936885140371,560.2936885140371,560.2936885140371,560.2936885140371,560.2936885140371,560.2936885140371,a,1.835343454265967,10,236,0,562.1610634599347,563.6616917420179,563.6616917420179,564.1615932730492,,,,,,,,,,,,,,,,,,,,,,,,,,,,,,,,,,,,,,,,,,,,,,,,,,,,,,,,,,,,,,,,,,,,,43487,2022-11-22_08h04.00.940,vts_reward_expectancy_bt_OFFLINE,2022.2.4,60.03953091527554,
1,0,0,0,0,1,0,0,triangle,circle,0,0,0,0,3,11,47,0,,,,,,,,,,,,,,,,,,,,,,,,,,,,,,,,,,,,,,,,564.1615932730492,564.1615932730492,564.1615932730492,564.1615932730492,564.1615932730492,564.1615932730492,564.1615932730492,564.1615932730492,564.1615932730492,564.1615932730492,l,1.1737455199472606,10,246,0,565.3641573160421,566.8644513520412,566.8644513520412,567.3713151479606,,,,,,,,,,,,,,,,,,,,,,,,,,,,,,,,,,,,,,,,,,,,,,,,,,,,,,,,,,,,,,,,,,,,,43487,2022-11-22_08h04.00.940,vts_reward_expectancy_bt_OFFLINE,2022.2.4,60.03953091527554,
1,0,0,0,0,1,0,0,triangle,circle,1,0,1,0,0,0,0,0,,,,,,,,,,,,,,,,,,,,,,,,,,,,,,,,,,,,,,,,572.7463188609108,572.7463188609108,572.7463188609108,572.7463188609108,572.7463188609108,572.7463188609108,572.7463188609108,572.7463188609108,572.7463188609108,572.7463188609108,l,3.5471465359441936,10,256,1,576.3218998920638,577.8224868699908,577.8224868699908,578.3224199479446,,,,,,,,,,,,,,,,,,,,,,,,,,,,,,,,,,,,,,,,,,,,,,,,,,,,,,,,,,,,,,,,,,,,,43487,2022-11-22_08h04.00.940,vts_reward_expectancy_bt_OFFLINE,2022.2.4,60.03953091527554,
1,0,0,0,0,0,0,1,triangle,star,1,0,1,0,0,1,1,2,,,,,,,,,,,,,,,,,,,,,,,,,,,,,,,,,,,,,,,,578.3224199479446,578.3224199479446,578.3224199479446,578.3224199479446,578.3224199479446,578.3224199479446,578.3224199479446,578.3224199479446,578.3224199479446,578.3224199479446,l,1.6058726059272885,10,266,1,579.9561888780445,581.4586452869698,,,,,,,,,,,,,,,,,,,,,,,,,,,,,,,,,,,,,,,,,,,,,,,,,,,,,,,,,,,,,,,,,,,,,,,43487,2022-11-22_08h04.00.940,vts_reward_expectancy_bt_OFFLINE,2022.2.4,60.03953091527554,
1,0,0,0,0,0,1,0,triangle,hexagon,1,0,1,0,0,2,2,1,,,,,,,,,,,,,,,,,,,,,,,,,,,,,,,,,,,,,,,,581.9587055658922,581.9587055658922,581.9587055658922,581.9587055658922,581.9587055658922,581.9587055658922,581.9587055658922,581.9587055658922,581.9587055658922,581.9587055658922,a,2.4354587900452316,1,267,1,584.4272190199699,585.92875370197,,,,,,,,,,,,,,,,,,,,,,,,,,,,,,,,,,,,,,,,,,,,,,,,,,,,,,,,,,,,,,,,,,,,,,,43487,2022-11-22_08h04.00.940,vts_reward_expectancy_bt_OFFLINE,2022.2.4,60.03953091527554,
0,1,0,0,0,0,0,1,circle,star,1,0,1,0,0,3,3,5,,,,,,,,,,,,,,,,,,,,,,,,,,,,,,,,,,,,,,,,586.4289227810223,586.4289227810223,586.4289227810223,586.4289227810223,586.4289227810223,586.4289227810223,586.4289227810223,586.4289227810223,586.4289227810223,586.4289227810223,a,2.2634011132176965,10,277,1,588.7151203989051,590.2190498989075,,,,,,,,,,,,,,,,,,,,,,,,,,,,,,,,,,,,,,,,,,,,,,,,,,,,,,,,,,,,,,,,,,,,,,,43487,2022-11-22_08h04.00.940,vts_reward_expectancy_bt_OFFLINE,2022.2.4,60.03953091527554,
0,0,0,1,0,1,0,0,star ,circle,1,0,1,0,0,4,4,10,,,,,,,,,,,,,,,,,,,,,,,,,,,,,,,,,,,,,,,,590.7155045280233,590.7155045280233,590.7155045280233,590.7155045280233,590.7155045280233,590.7155045280233,590.7155045280233,590.7155045280233,590.7155045280233,590.7155045280233,l,0.890079942997545,10,287,1,591.6326926939655,593.1330332420766,593.1330332420766,,,,,,,,,,,,,,,,,,,,,,,,,,,,,,,,,,,,,,,,,,,,,,,,,,,,,,,,,,,,,,,,,,,,,,43487,2022-11-22_08h04.00.940,vts_reward_expectancy_bt_OFFLINE,2022.2.4,60.03953091527554,
0,0,1,0,1,0,0,0,hexagon,triangle,1,0,1,0,0,5,5,6,,,,,,,,,,,,,,,,,,,,,,,,,,,,,,,,,,,,,,,,593.6332665230148,593.6332665230148,593.6332665230148,593.6332665230148,593.6332665230148,593.6332665230148,593.6332665230148,593.6332665230148,593.6332665230148,593.6332665230148,a,3.9133972181007266,10,297,1,597.5699623399414,599.0705003510229,599.0705003510229,599.5707349900622,,,,,,,,,,,,,,,,,,,,,,,,,,,,,,,,,,,,,,,,,,,,,,,,,,,,,,,,,,,,,,,,,,,,,43487,2022-11-22_08h04.00.940,vts_reward_expectancy_bt_OFFLINE,2022.2.4,60.03953091527554,
0,0,1,0,0,1,0,0,hexagon,circle,1,0,1,0,0,6,6,7,,,,,,,,,,,,,,,,,,,,,,,,,,,,,,,,,,,,,,,,599.5707349900622,599.5707349900622,599.5707349900622,599.5707349900622,599.5707349900622,599.5707349900622,599.5707349900622,599.5707349900622,599.5707349900622,599.5707349900622,l,1.0803693511988968,10,307,1,600.6730942749418,602.1734578208998,602.1734578208998,602.6738829319365,,,,,,,,,,,,,,,,,,,,,,,,,,,,,,,,,,,,,,,,,,,,,,,,,,,,,,,,,,,,,,,,,,,,,43487,2022-11-22_08h04.00.940,vts_reward_expectancy_bt_OFFLINE,2022.2.4,60.03953091527554,
0,0,0,1,0,0,1,0,star,hexagon,1,0,1,0,0,7,7,11,,,,,,,,,,,,,,,,,,,,,,,,,,,,,,,,,,,,,,,,602.6738829319365,602.6738829319365,602.6738829319365,602.6738829319365,602.6738829319365,602.6738829319365,602.6738829319365,602.6738829319365,602.6738829319365,602.6738829319365,l,0.914245700230822,10,317,1,603.607665078016,605.1080719688907,605.1080719688907,,,,,,,,,,,,,,,,,,,,,,,,,,,,,,,,,,,,,,,,,,,,,,,,,,,,,,,,,,,,,,,,,,,,,,43487,2022-11-22_08h04.00.940,vts_reward_expectancy_bt_OFFLINE,2022.2.4,60.03953091527554,
0,0,1,0,0,0,0,1,hexagon,star,1,0,1,0,0,8,8,8,,,,,,,,,,,,,,,,,,,,,,,,,,,,,,,,,,,,,,,,605.6097514529247,605.6097514529247,605.6097514529247,605.6097514529247,605.6097514529247,605.6097514529247,605.6097514529247,605.6097514529247,605.6097514529247,605.6097514529247,a,2.8842790292110294,10,327,1,608.5113739359658,610.011434936896,610.011434936896,,,,,,,,,,,,,,,,,,,,,,,,,,,,,,,,,,,,,,,,,,,,,,,,,,,,,,,,,,,,,,,,,,,,,,43487,2022-11-22_08h04.00.940,vts_reward_expectancy_bt_OFFLINE,2022.2.4,60.03953091527554,
0,1,0,0,0,0,1,0,circle,hexagon,1,0,1,0,0,9,9,4,,,,,,,,,,,,,,,,,,,,,,,,,,,,,,,,,,,,,,,,610.5133545189165,610.5133545189165,610.5133545189165,610.5133545189165,610.5133545189165,610.5133545189165,610.5133545189165,610.5133545189165,610.5133545189165,610.5133545189165,a,1.4676460991613567,1,328,1,612.0150999859907,613.5146703398786,613.5146703398786,614.0146670169197,,,,,,,,,,,,,,,,,,,,,,,,,,,,,,,,,,,,,,,,,,,,,,,,,,,,,,,,,,,,,,,,,,,,,43487,2022-11-22_08h04.00.940,vts_reward_expectancy_bt_OFFLINE,2022.2.4,60.03953091527554,
0,0,0,1,1,0,0,0,star,triangle,1,0,1,0,0,10,10,9,,,,,,,,,,,,,,,,,,,,,,,,,,,,,,,,,,,,,,,,614.0146670169197,614.0146670169197,614.0146670169197,614.0146670169197,614.0146670169197,614.0146670169197,614.0146670169197,614.0146670169197,614.0146670169197,614.0146670169197,a,8.248780369991437,10,338,1,622.2901842200663,623.80509514804,,,,,,,,,,,,,,,,,,,,,,,,,,,,,,,,,,,,,,,,,,,,,,,,,,,,,,,,,,,,,,,,,,,,,,,43487,2022-11-22_08h04.00.940,vts_reward_expectancy_bt_OFFLINE,2022.2.4,60.03953091527554,
0,1,0,0,1,0,0,0,circle,triangle,1,0,1,0,0,11,11,3,,,,,,,,,,,,,,,,,,,,,,,,,,,,,,,,,,,,,,,,624.3052677649539,624.3052677649539,624.3052677649539,624.3052677649539,624.3052677649539,624.3052677649539,624.3052677649539,624.3052677649539,624.3052677649539,624.3052677649539,a,6.835977805079892,10,348,1,631.1619792920537,632.662019510055,632.662019510055,633.1623917280231,,,,,,,,,,,,,,,,,,,,,,,,,,,,,,,,,,,,,,,,,,,,,,,,,,,,,,,,,,,,,,,,,,,,,43487,2022-11-22_08h04.00.940,vts_reward_expectancy_bt_OFFLINE,2022.2.4,60.03953091527554,
0,1,0,0,0,0,0,1,circle,star,1,0,1,0,1,0,12,5,,,,,,,,,,,,,,,,,,,,,,,,,,,,,,,,,,,,,,,,633.1623917280231,633.1623917280231,633.1623917280231,633.1623917280231,633.1623917280231,633.1623917280231,633.1623917280231,633.1623917280231,633.1623917280231,633.1623917280231,a,2.22057240922004,10,358,1,635.4149573950563,636.9155367449857,636.9155367449857,637.4157166329678,,,,,,,,,,,,,,,,,,,,,,,,,,,,,,,,,,,,,,,,,,,,,,,,,,,,,,,,,,,,,,,,,,,,,43487,2022-11-22_08h04.00.940,vts_reward_expectancy_bt_OFFLINE,2022.2.4,60.03953091527554,
0,0,1,0,0,0,0,1,hexagon,star,1,0,1,0,1,1,13,8,,,,,,,,,,,,,,,,,,,,,,,,,,,,,,,,,,,,,,,,637.4157166329678,637.4157166329678,637.4157166329678,637.4157166329678,637.4157166329678,637.4157166329678,637.4157166329678,637.4157166329678,637.4157166329678,637.4157166329678,a,3.3326421009842306,10,368,1,640.7690481410827,642.2693454020191,642.2693454020191,642.769795503933,,,,,,,,,,,,,,,,,,,,,,,,,,,,,,,,,,,,,,,,,,,,,,,,,,,,,,,,,,,,,,,,,,,,,43487,2022-11-22_08h04.00.940,vts_reward_expectancy_bt_OFFLINE,2022.2.4,60.03953091527554,
0,0,1,0,1,0,0,0,hexagon,triangle,1,0,1,0,1,2,14,6,,,,,,,,,,,,,,,,,,,,,,,,,,,,,,,,,,,,,,,,642.769795503933,642.769795503933,642.769795503933,642.769795503933,642.769795503933,642.769795503933,642.769795503933,642.769795503933,642.769795503933,642.769795503933,a,3.953232709085569,10,378,1,646.7403463569935,648.2397221100982,648.2397221100982,648.7399417799897,,,,,,,,,,,,,,,,,,,,,,,,,,,,,,,,,,,,,,,,,,,,,,,,,,,,,,,,,,,,,,,,,,,,,43487,2022-11-22_08h04.00.940,vts_reward_expectancy_bt_OFFLINE,2022.2.4,60.03953091527554,
0,1,0,0,0,0,1,0,circle,hexagon,1,0,1,0,1,3,15,4,,,,,,,,,,,,,,,,,,,,,,,,,,,,,,,,,,,,,,,,648.7399417799897,648.7399417799897,648.7399417799897,648.7399417799897,648.7399417799897,648.7399417799897,648.7399417799897,648.7399417799897,648.7399417799897,648.7399417799897,a,1.0545454430393875,10,388,1,649.8239713220391,651.3261272320524,,,,,,,,,,,,,,,,,,,,,,,,,,,,,,,,,,,,,,,,,,,,,,,,,,,,,,,,,,,,,,,,,,,,,,,43487,2022-11-22_08h04.00.940,vts_reward_expectancy_bt_OFFLINE,2022.2.4,60.03953091527554,
0,0,1,0,0,1,0,0,hexagon,circle,1,0,1,0,1,4,16,7,,,,,,,,,,,,,,,,,,,,,,,,,,,,,,,,,,,,,,,,651.8265461090486,651.8265461090486,651.8265461090486,651.8265461090486,651.8265461090486,651.8265461090486,651.8265461090486,651.8265461090486,651.8265461090486,651.8265461090486,l,1.7477965580765158,10,398,1,653.5938400989398,655.0944399039727,,,,,,,,,,,,,,,,,,,,,,,,,,,,,,,,,,,,,,,,,,,,,,,,,,,,,,,,,,,,,,,,,,,,,,,43487,2022-11-22_08h04.00.940,vts_reward_expectancy_bt_OFFLINE,2022.2.4,60.03953091527554,
1,0,0,0,0,0,1,0,triangle,hexagon,1,0,1,0,1,5,17,1,,,,,,,,,,,,,,,,,,,,,,,,,,,,,,,,,,,,,,,,655.5962105719373,655.5962105719373,655.5962105719373,655.5962105719373,655.5962105719373,655.5962105719373,655.5962105719373,655.5962105719373,655.5962105719373,655.5962105719373,l,3.7617280420381576,1,399,1,659.3832570009399,660.8830573810264,,,,,,,,,,,,,,,,,,,,,,,,,,,,,,,,,,,,,,,,,,,,,,,,,,,,,,,,,,,,,,,,,,,,,,,43487,2022-11-22_08h04.00.940,vts_reward_expectancy_bt_OFFLINE,2022.2.4,60.03953091527554,
0,1,0,0,1,0,0,0,circle,triangle,1,0,1,0,1,6,18,3,,,,,,,,,,,,,,,,,,,,,,,,,,,,,,,,,,,,,,,,661.3834575619549,661.3834575619549,661.3834575619549,661.3834575619549,661.3834575619549,661.3834575619549,661.3834575619549,661.3834575619549,661.3834575619549,661.3834575619549,a,1.3610169012099504,10,409,1,662.7699828559998,664.2845305420924,,,,,,,,,,,,,,,,,,,,,,,,,,,,,,,,,,,,,,,,,,,,,,,,,,,,,,,,,,,,,,,,,,,,,,,43487,2022-11-22_08h04.00.940,vts_reward_expectancy_bt_OFFLINE,2022.2.4,60.03953091527554,
0,0,0,1,1,0,0,0,star,triangle,1,0,1,0,1,7,19,9,,,,,,,,,,,,,,,,,,,,,,,,,,,,,,,,,,,,,,,,664.7845189420041,664.7845189420041,664.7845189420041,664.7845189420041,664.7845189420041,664.7845189420041,664.7845189420041,664.7845189420041,664.7845189420041,664.7845189420041,a,6.217364309122786,1,410,1,671.0260143580381,672.5412645549513,,,,,,,,,,,,,,,,,,,,,,,,,,,,,,,,,,,,,,,,,,,,,,,,,,,,,,,,,,,,,,,,,,,,,,,43487,2022-11-22_08h04.00.940,vts_reward_expectancy_bt_OFFLINE,2022.2.4,60.03953091527554,
1,0,0,0,0,0,0,1,triangle,star,1,0,1,0,1,8,20,2,,,,,,,,,,,,,,,,,,,,,,,,,,,,,,,,,,,,,,,,673.0414041939657,673.0414041939657,673.0414041939657,673.0414041939657,673.0414041939657,673.0414041939657,673.0414041939657,673.0414041939657,673.0414041939657,673.0414041939657,a,1.808263530023396,1,411,1,674.8755139200948,676.3778441110626,,,,,,,,,,,,,,,,,,,,,,,,,,,,,,,,,,,,,,,,,,,,,,,,,,,,,,,,,,,,,,,,,,,,,,,43487,2022-11-22_08h04.00.940,vts_reward_expectancy_bt_OFFLINE,2022.2.4,60.03953091527554,
0,0,0,1,0,1,0,0,star ,circle,1,0,1,0,1,9,21,10,,,,,,,,,,,,,,,,,,,,,,,,,,,,,,,,,,,,,,,,676.8779852180742,676.8779852180742,676.8779852180742,676.8779852180742,676.8779852180742,676.8779852180742,676.8779852180742,676.8779852180742,676.8779852180742,676.8779852180742,l,2.4498382480815053,10,421,1,679.3479535121005,680.8478672308847,,,,,,,,,,,,,,,,,,,,,,,,,,,,,,,,,,,,,,,,,,,,,,,,,,,,,,,,,,,,,,,,,,,,,,,43487,2022-11-22_08h04.00.940,vts_reward_expectancy_bt_OFFLINE,2022.2.4,60.03953091527554,
0,0,0,1,0,0,1,0,star,hexagon,1,0,1,0,1,10,22,11,,,,,,,,,,,,,,,,,,,,,,,,,,,,,,,,,,,,,,,,681.3479778429028,681.3479778429028,681.3479778429028,681.3479778429028,681.3479778429028,681.3479778429028,681.3479778429028,681.3479778429028,681.3479778429028,681.3479778429028,l,1.658447823021561,10,431,1,683.0319855690468,684.5324587689247,684.5324587689247,,,,,,,,,,,,,,,,,,,,,,,,,,,,,,,,,,,,,,,,,,,,,,,,,,,,,,,,,,,,,,,,,,,,,,43487,2022-11-22_08h04.00.940,vts_reward_expectancy_bt_OFFLINE,2022.2.4,60.03953091527554,
1,0,0,0,0,1,0,0,triangle,circle,1,0,1,0,1,11,23,0,,,,,,,,,,,,,,,,,,,,,,,,,,,,,,,,,,,,,,,,685.0329196499661,685.0329196499661,685.0329196499661,685.0329196499661,685.0329196499661,685.0329196499661,685.0329196499661,685.0329196499661,685.0329196499661,685.0329196499661,l,8.133101171115413,10,441,1,693.1896398928948,694.6898530120961,694.6898530120961,695.190020239912,,,,,,,,,,,,,,,,,,,,,,,,,,,,,,,,,,,,,,,,,,,,,,,,,,,,,,,,,,,,,,,,,,,,,43487,2022-11-22_08h04.00.940,vts_reward_expectancy_bt_OFFLINE,2022.2.4,60.03953091527554,
1,0,0,0,0,0,0,1,triangle,star,1,0,1,0,2,0,24,2,,,,,,,,,,,,,,,,,,,,,,,,,,,,,,,,,,,,,,,,695.190020239912,695.190020239912,695.190020239912,695.190020239912,695.190020239912,695.190020239912,695.190020239912,695.190020239912,695.190020239912,695.190020239912,a,3.2518177449237555,1,442,1,698.4620889429934,699.9602629789151,,,,,,,,,,,,,,,,,,,,,,,,,,,,,,,,,,,,,,,,,,,,,,,,,,,,,,,,,,,,,,,,,,,,,,,43487,2022-11-22_08h04.00.940,vts_reward_expectancy_bt_OFFLINE,2022.2.4,60.03953091527554,
0,0,0,1,0,1,0,0,star ,circle,1,0,1,0,2,1,25,10,,,,,,,,,,,,,,,,,,,,,,,,,,,,,,,,,,,,,,,,700.4621528980788,700.4621528980788,700.4621528980788,700.4621528980788,700.4621528980788,700.4621528980788,700.4621528980788,700.4621528980788,700.4621528980788,700.4621528980788,l,0.8933787180576473,10,452,1,701.3814218488988,702.8964675408788,,,,,,,,,,,,,,,,,,,,,,,,,,,,,,,,,,,,,,,,,,,,,,,,,,,,,,,,,,,,,,,,,,,,,,,43487,2022-11-22_08h04.00.940,vts_reward_expectancy_bt_OFFLINE,2022.2.4,60.03953091527554,
0,1,0,0,1,0,0,0,circle,triangle,1,0,1,0,2,2,26,3,,,,,,,,,,,,,,,,,,,,,,,,,,,,,,,,,,,,,,,,703.3965091730934,703.3965091730934,703.3965091730934,703.3965091730934,703.3965091730934,703.3965091730934,703.3965091730934,703.3965091730934,703.3965091730934,703.3965091730934,a,0.692736754193902,1,453,1,704.1160929030739,705.6160786058754,,,,,,,,,,,,,,,,,,,,,,,,,,,,,,,,,,,,,,,,,,,,,,,,,,,,,,,,,,,,,,,,,,,,,,,43487,2022-11-22_08h04.00.940,vts_reward_expectancy_bt_OFFLINE,2022.2.4,60.03953091527554,
0,0,0,1,0,0,1,0,star,hexagon,1,0,1,0,2,3,27,11,,,,,,,,,,,,,,,,,,,,,,,,,,,,,,,,,,,,,,,,706.1160667540971,706.1160667540971,706.1160667540971,706.1160667540971,706.1160667540971,706.1160667540971,706.1160667540971,706.1160667540971,706.1160667540971,706.1160667540971,l,3.722616982180625,10,463,1,709.869872424053,711.3698719830718,,,,,,,,,,,,,,,,,,,,,,,,,,,,,,,,,,,,,,,,,,,,,,,,,,,,,,,,,,,,,,,,,,,,,,,43487,2022-11-22_08h04.00.940,vts_reward_expectancy_bt_OFFLINE,2022.2.4,60.03953091527554,
1,0,0,0,0,0,1,0,triangle,hexagon,1,0,1,0,2,4,28,1,,,,,,,,,,,,,,,,,,,,,,,,,,,,,,,,,,,,,,,,711.8700979910791,711.8700979910791,711.8700979910791,711.8700979910791,711.8700979910791,711.8700979910791,711.8700979910791,711.8700979910791,711.8700979910791,711.8700979910791,l,1.4232250601053238,10,473,1,713.3210801389068,714.8212441098876,714.8212441098876,,,,,,,,,,,,,,,,,,,,,,,,,,,,,,,,,,,,,,,,,,,,,,,,,,,,,,,,,,,,,,,,,,,,,,43487,2022-11-22_08h04.00.940,vts_reward_expectancy_bt_OFFLINE,2022.2.4,60.03953091527554,
0,0,1,0,1,0,0,0,hexagon,triangle,1,0,1,0,2,5,29,6,,,,,,,,,,,,,,,,,,,,,,,,,,,,,,,,,,,,,,,,715.3226440630388,715.3226440630388,715.3226440630388,715.3226440630388,715.3226440630388,715.3226440630388,715.3226440630388,715.3226440630388,715.3226440630388,715.3226440630388,a,3.9325457650702447,10,483,1,719.2749742039014,720.7767152199522,,,,,,,,,,,,,,,,,,,,,,,,,,,,,,,,,,,,,,,,,,,,,,,,,,,,,,,,,,,,,,,,,,,,,,,43487,2022-11-22_08h04.00.940,vts_reward_expectancy_bt_OFFLINE,2022.2.4,60.03953091527554,
0,0,1,0,0,1,0,0,hexagon,circle,1,0,1,0,2,6,30,7,,,,,,,,,,,,,,,,,,,,,,,,,,,,,,,,,,,,,,,,721.2769711459987,721.2769711459987,721.2769711459987,721.2769711459987,721.2769711459987,721.2769711459987,721.2769711459987,721.2769711459987,721.2769711459987,721.2769711459987,l,1.590410843025893,1,484,1,722.8969688580837,724.4115927370731,,,,,,,,,,,,,,,,,,,,,,,,,,,,,,,,,,,,,,,,,,,,,,,,,,,,,,,,,,,,,,,,,,,,,,,43487,2022-11-22_08h04.00.940,vts_reward_expectancy_bt_OFFLINE,2022.2.4,60.03953091527554,
0,0,1,0,0,0,0,1,hexagon,star,1,0,1,0,2,7,31,8,,,,,,,,,,,,,,,,,,,,,,,,,,,,,,,,,,,,,,,,724.9115420859307,724.9115420859307,724.9115420859307,724.9115420859307,724.9115420859307,724.9115420859307,724.9115420859307,724.9115420859307,724.9115420859307,724.9115420859307,l,2.568075747229159,1,485,1,727.4980992060155,728.9980782570783,728.9980782570783,,,,,,,,,,,,,,,,,,,,,,,,,,,,,,,,,,,,,,,,,,,,,,,,,,,,,,,,,,,,,,,,,,,,,,43487,2022-11-22_08h04.00.940,vts_reward_expectancy_bt_OFFLINE,2022.2.4,60.03953091527554,
0,1,0,0,0,0,0,1,circle,star,1,0,1,0,2,8,32,5,,,,,,,,,,,,,,,,,,,,,,,,,,,,,,,,,,,,,,,,729.498449357925,729.498449357925,729.498449357925,729.498449357925,729.498449357925,729.498449357925,729.498449357925,729.498449357925,729.498449357925,729.498449357925,a,1.2214307459071279,10,495,1,730.7527121249586,732.2679821080528,,,,,,,,,,,,,,,,,,,,,,,,,,,,,,,,,,,,,,,,,,,,,,,,,,,,,,,,,,,,,,,,,,,,,,,43487,2022-11-22_08h04.00.940,vts_reward_expectancy_bt_OFFLINE,2022.2.4,60.03953091527554,
1,0,0,0,0,1,0,0,triangle,circle,1,0,1,0,2,9,33,0,,,,,,,,,,,,,,,,,,,,,,,,,,,,,,,,,,,,,,,,732.7683419520035,732.7683419520035,732.7683419520035,732.7683419520035,732.7683419520035,732.7683419520035,732.7683419520035,732.7683419520035,732.7683419520035,732.7683419520035,l,1.5298170649912208,10,505,1,734.3191936160438,735.8210805798881,,,,,,,,,,,,,,,,,,,,,,,,,,,,,,,,,,,,,,,,,,,,,,,,,,,,,,,,,,,,,,,,,,,,,,,43487,2022-11-22_08h04.00.940,vts_reward_expectancy_bt_OFFLINE,2022.2.4,60.03953091527554,
0,0,0,1,1,0,0,0,star,triangle,1,0,1,0,2,10,34,9,,,,,,,,,,,,,,,,,,,,,,,,,,,,,,,,,,,,,,,,736.3212423259392,736.3212423259392,736.3212423259392,736.3212423259392,736.3212423259392,736.3212423259392,736.3212423259392,736.3212423259392,736.3212423259392,736.3212423259392,l,5.952870021108538,1,506,1,742.2942743890453,743.8092967569828,,,,,,,,,,,,,,,,,,,,,,,,,,,,,,,,,,,,,,,,,,,,,,,,,,,,,,,,,,,,,,,,,,,,,,,43487,2022-11-22_08h04.00.940,vts_reward_expectancy_bt_OFFLINE,2022.2.4,60.03953091527554,
0,1,0,0,0,0,1,0,circle,hexagon,1,0,1,0,2,11,35,4,,,,,,,,,,,,,,,,,,,,,,,,,,,,,,,,,,,,,,,,744.3091894590762,744.3091894590762,744.3091894590762,744.3091894590762,744.3091894590762,744.3091894590762,744.3091894590762,744.3091894590762,744.3091894590762,744.3091894590762,a,1.114903736161068,1,507,1,745.4454454630613,746.9455271309707,746.9455271309707,747.4456995939836,,,,,,,,,,,,,,,,,,,,,,,,,,,,,,,,,,,,,,,,,,,,,,,,,,,,,,,,,,,,,,,,,,,,,43487,2022-11-22_08h04.00.940,vts_reward_expectancy_bt_OFFLINE,2022.2.4,60.03953091527554,
0,1,0,0,0,0,0,1,circle,star,1,0,1,0,3,0,36,5,,,,,,,,,,,,,,,,,,,,,,,,,,,,,,,,,,,,,,,,747.4456995939836,747.4456995939836,747.4456995939836,747.4456995939836,747.4456995939836,747.4456995939836,747.4456995939836,747.4456995939836,747.4456995939836,747.4456995939836,a,0.6448151932563633,1,508,1,748.1129220160656,749.6132073448971,749.6132073448971,,,,,,,,,,,,,,,,,,,,,,,,,,,,,,,,,,,,,,,,,,,,,,,,,,,,,,,,,,,,,,,,,,,,,,43487,2022-11-22_08h04.00.940,vts_reward_expectancy_bt_OFFLINE,2022.2.4,60.03953091527554,
1,0,0,0,0,0,1,0,triangle,hexagon,1,0,1,0,3,1,37,1,,,,,,,,,,,,,,,,,,,,,,,,,,,,,,,,,,,,,,,,750.11333221104,750.11333221104,750.11333221104,750.11333221104,750.11333221104,750.11333221104,750.11333221104,750.11333221104,750.11333221104,750.11333221104,l,1.318554055178538,10,518,1,751.4513810279313,752.9659811800811,,,,,,,,,,,,,,,,,,,,,,,,,,,,,,,,,,,,,,,,,,,,,,,,,,,,,,,,,,,,,,,,,,,,,,,43487,2022-11-22_08h04.00.940,vts_reward_expectancy_bt_OFFLINE,2022.2.4,60.03953091527554,
0,0,0,1,0,1,0,0,star ,circle,1,0,1,0,3,2,38,10,,,,,,,,,,,,,,,,,,,,,,,,,,,,,,,,,,,,,,,,753.4664041870274,753.4664041870274,753.4664041870274,753.4664041870274,753.4664041870274,753.4664041870274,753.4664041870274,753.4664041870274,753.4664041870274,753.4664041870274,l,0.9479304291307926,10,528,1,754.434067555936,755.9358585309237,,,,,,,,,,,,,,,,,,,,,,,,,,,,,,,,,,,,,,,,,,,,,,,,,,,,,,,,,,,,,,,,,,,,,,,43487,2022-11-22_08h04.00.940,vts_reward_expectancy_bt_OFFLINE,2022.2.4,60.03953091527554,
0,0,0,1,0,0,1,0,star,hexagon,1,0,1,0,3,3,39,11,,,,,,,,,,,,,,,,,,,,,,,,,,,,,,,,,,,,,,,,756.4357326349709,756.4357326349709,756.4357326349709,756.4357326349709,756.4357326349709,756.4357326349709,756.4357326349709,756.4357326349709,756.4357326349709,756.4357326349709,l,1.3984578531235456,10,538,1,757.8538290648721,759.3536707519088,759.3536707519088,759.8539648670703,,,,,,,,,,,,,,,,,,,,,,,,,,,,,,,,,,,,,,,,,,,,,,,,,,,,,,,,,,,,,,,,,,,,,43487,2022-11-22_08h04.00.940,vts_reward_expectancy_bt_OFFLINE,2022.2.4,60.03953091527554,
0,0,1,0,0,0,0,1,hexagon,star,1,0,1,0,3,4,40,8,,,,,,,,,,,,,,,,,,,,,,,,,,,,,,,,,,,,,,,,759.8539648670703,759.8539648670703,759.8539648670703,759.8539648670703,759.8539648670703,759.8539648670703,759.8539648670703,759.8539648670703,759.8539648670703,759.8539648670703,l,2.0411606442648917,1,539,1,761.9260223009624,763.4403503430076,,,,,,,,,,,,,,,,,,,,,,,,,,,,,,,,,,,,,,,,,,,,,,,,,,,,,,,,,,,,,,,,,,,,,,,43487,2022-11-22_08h04.00.940,vts_reward_expectancy_bt_OFFLINE,2022.2.4,60.03953091527554,
1,0,0,0,0,0,0,1,triangle,star,1,0,1,0,3,5,41,2,,,,,,,,,,,,,,,,,,,,,,,,,,,,,,,,,,,,,,,,763.940541991964,763.940541991964,763.940541991964,763.940541991964,763.940541991964,763.940541991964,763.940541991964,763.940541991964,763.940541991964,763.940541991964,a,4.412409833166748,1,540,1,768.3778212540783,769.8777630368713,769.8777630368713,,,,,,,,,,,,,,,,,,,,,,,,,,,,,,,,,,,,,,,,,,,,,,,,,,,,,,,,,,,,,,,,,,,,,,43487,2022-11-22_08h04.00.940,vts_reward_expectancy_bt_OFFLINE,2022.2.4,60.03953091527554,
0,1,0,0,1,0,0,0,circle,triangle,1,0,1,0,3,6,42,3,,,,,,,,,,,,,,,,,,,,,,,,,,,,,,,,,,,,,,,,770.3799534409773,770.3799534409773,770.3799534409773,770.3799534409773,770.3799534409773,770.3799534409773,770.3799534409773,770.3799534409773,770.3799534409773,770.3799534409773,a,0.774480656022206,10,550,1,771.1831308000255,772.6973433080129,,,,,,,,,,,,,,,,,,,,,,,,,,,,,,,,,,,,,,,,,,,,,,,,,,,,,,,,,,,,,,,,,,,,,,,43487,2022-11-22_08h04.00.940,vts_reward_expectancy_bt_OFFLINE,2022.2.4,60.03953091527554,
0,1,0,0,0,0,1,0,circle,hexagon,1,0,1,0,3,7,43,4,,,,,,,,,,,,,,,,,,,,,,,,,,,,,,,,,,,,,,,,773.1976176160388,773.1976176160388,773.1976176160388,773.1976176160388,773.1976176160388,773.1976176160388,773.1976176160388,773.1976176160388,773.1976176160388,773.1976176160388,a,0.43174914619885385,10,560,1,773.6480758378748,775.1482200459577,,,,,,,,,,,,,,,,,,,,,,,,,,,,,,,,,,,,,,,,,,,,,,,,,,,,,,,,,,,,,,,,,,,,,,,43487,2022-11-22_08h04.00.940,vts_reward_expectancy_bt_OFFLINE,2022.2.4,60.03953091527554,
0,0,1,0,1,0,0,0,hexagon,triangle,1,0,1,0,3,8,44,6,,,,,,,,,,,,,,,,,,,,,,,,,,,,,,,,,,,,,,,,775.650275405962,775.650275405962,775.650275405962,775.650275405962,775.650275405962,775.650275405962,775.650275405962,775.650275405962,775.650275405962,775.650275405962,a,1.1415004192385823,10,570,1,776.8182226659264,778.3177212320734,778.3177212320734,778.8178577199578,,,,,,,,,,,,,,,,,,,,,,,,,,,,,,,,,,,,,,,,,,,,,,,,,,,,,,,,,,,,,,,,,,,,,43487,2022-11-22_08h04.00.940,vts_reward_expectancy_bt_OFFLINE,2022.2.4,60.03953091527554,
0,0,0,1,1,0,0,0,star,triangle,1,0,1,0,3,9,45,9,,,,,,,,,,,,,,,,,,,,,,,,,,,,,,,,,,,,,,,,778.8178577199578,778.8178577199578,778.8178577199578,778.8178577199578,778.8178577199578,778.8178577199578,778.8178577199578,778.8178577199578,778.8178577199578,778.8178577199578,a,1.0454764801543206,1,571,1,779.8992737480439,781.3872585319914,,,,,,,,,,,,,,,,,,,,,,,,,,,,,,,,,,,,,,,,,,,,,,,,,,,,,,,,,,,,,,,,,,,,,,,43487,2022-11-22_08h04.00.940,vts_reward_expectancy_bt_OFFLINE,2022.2.4,60.03953091527554,
0,0,1,0,0,1,0,0,hexagon,circle,1,0,1,0,3,10,46,7,,,,,,,,,,,,,,,,,,,,,,,,,,,,,,,,,,,,,,,,781.887656875886,781.887656875886,781.887656875886,781.887656875886,781.887656875886,781.887656875886,781.887656875886,781.887656875886,781.887656875886,781.887656875886,l,1.5750868630129844,10,581,1,783.4908901550807,785.0054177138954,,,,,,,,,,,,,,,,,,,,,,,,,,,,,,,,,,,,,,,,,,,,,,,,,,,,,,,,,,,,,,,,,,,,,,,43487,2022-11-22_08h04.00.940,vts_reward_expectancy_bt_OFFLINE,2022.2.4,60.03953091527554,
1,0,0,0,0,1,0,0,triangle,circle,1,0,1,0,3,11,47,0,,,,,,,,,,,,,,,,,,,,,,,,,,,,,,,,,,,,,,,,785.4908014750108,785.4908014750108,785.4908014750108,785.4908014750108,785.4908014750108,785.4908014750108,785.4908014750108,785.4908014750108,785.4908014750108,785.4908014750108,l,2.1120316821616143,10,591,1,787.6254683840089,789.1253192978911,789.1253192978911,,,,,,,,,,,,,,,,,,,,,,,,,,,,,,,,,,,,,,,,,,,,,,,,,,,,,,,,,,,,,,,,,,,,,,43487,2022-11-22_08h04.00.940,vts_reward_expectancy_bt_OFFLINE,2022.2.4,60.03953091527554,
0,0,0,1,1,0,0,0,star,triangle,2,0,2,0,0,0,0,9,,,,,,,,,,,,,,,,,,,,,,,,,,,,,,,,,,,,,,,,793.1067565449048,793.1067565449048,793.1067565449048,793.1067565449048,793.1067565449048,793.1067565449048,793.1067565449048,793.1067565449048,793.1067565449048,793.1067565449048,l,7.220343086170033,1,592,2,800.3641184628941,801.8522505878936,,,,,,,,,,,,,,,,,,,,,,,,,,,,,,,,,,,,,,,,,,,,,,,,,,,,,,,,,,,,,,,,,,,,,,,43487,2022-11-22_08h04.00.940,vts_reward_expectancy_bt_OFFLINE,2022.2.4,60.03953091527554,
1,0,0,0,0,0,1,0,triangle,hexagon,2,0,2,0,0,1,1,1,,,,,,,,,,,,,,,,,,,,,,,,,,,,,,,,,,,,,,,,802.3525267969817,802.3525267969817,802.3525267969817,802.3525267969817,802.3525267969817,802.3525267969817,802.3525267969817,802.3525267969817,802.3525267969817,802.3525267969817,l,3.7351064251270145,10,602,2,806.1197435238864,807.6227700670715,,,,,,,,,,,,,,,,,,,,,,,,,,,,,,,,,,,,,,,,,,,,,,,,,,,,,,,,,,,,,,,,,,,,,,,43487,2022-11-22_08h04.00.940,vts_reward_expectancy_bt_OFFLINE,2022.2.4,60.03953091527554,
0,1,0,0,0,0,1,0,circle,hexagon,2,0,2,0,0,2,2,4,,,,,,,,,,,,,,,,,,,,,,,,,,,,,,,,,,,,,,,,808.1227365629748,808.1227365629748,808.1227365629748,808.1227365629748,808.1227365629748,808.1227365629748,808.1227365629748,808.1227365629748,808.1227365629748,808.1227365629748,a,1.116069331066683,10,612,2,809.2573474869132,810.7588611908723,,,,,,,,,,,,,,,,,,,,,,,,,,,,,,,,,,,,,,,,,,,,,,,,,,,,,,,,,,,,,,,,,,,,,,,43487,2022-11-22_08h04.00.940,vts_reward_expectancy_bt_OFFLINE,2022.2.4,60.03953091527554,
0,0,0,1,0,1,0,0,star ,circle,2,0,2,0,0,3,3,10,,,,,,,,,,,,,,,,,,,,,,,,,,,,,,,,,,,,,,,,811.2590218819678,811.2590218819678,811.2590218819678,811.2590218819678,811.2590218819678,811.2590218819678,811.2590218819678,811.2590218819678,811.2590218819678,811.2590218819678,l,1.0838251910172403,10,622,2,812.3606412629597,813.860070142895,813.860070142895,814.3602559019346,,,,,,,,,,,,,,,,,,,,,,,,,,,,,,,,,,,,,,,,,,,,,,,,,,,,,,,,,,,,,,,,,,,,,43487,2022-11-22_08h04.00.940,vts_reward_expectancy_bt_OFFLINE,2022.2.4,60.03953091527554,
1,0,0,0,0,0,0,1,triangle,star,2,0,2,0,0,4,4,2,,,,,,,,,,,,,,,,,,,,,,,,,,,,,,,,,,,,,,,,814.3602559019346,814.3602559019346,814.3602559019346,814.3602559019346,814.3602559019346,814.3602559019346,814.3602559019346,814.3602559019346,814.3602559019346,814.3602559019346,l,1.6050507090985775,1,623,2,815.9988380589057,817.5133919620421,,,,,,,,,,,,,,,,,,,,,,,,,,,,,,,,,,,,,,,,,,,,,,,,,,,,,,,,,,,,,,,,,,,,,,,43487,2022-11-22_08h04.00.940,vts_reward_expectancy_bt_OFFLINE,2022.2.4,60.03953091527554,
0,1,0,0,0,0,0,1,circle,star,2,0,2,0,0,5,5,5,,,,,,,,,,,,,,,,,,,,,,,,,,,,,,,,,,,,,,,,817.9968186039478,817.9968186039478,817.9968186039478,817.9968186039478,817.9968186039478,817.9968186039478,817.9968186039478,817.9968186039478,817.9968186039478,817.9968186039478,a,11.548575890017673,10,633,2,829.5740633490495,831.0734575660899,,,,,,,,,,,,,,,,,,,,,,,,,,,,,,,,,,,,,,,,,,,,,,,,,,,,,,,,,,,,,,,,,,,,,,,43487,2022-11-22_08h04.00.940,vts_reward_expectancy_bt_OFFLINE,2022.2.4,60.03953091527554,
0,0,1,0,0,1,0,0,hexagon,circle,2,0,2,0,0,6,6,7,,,,,,,,,,,,,,,,,,,,,,,,,,,,,,,,,,,,,,,,831.5738971100654,831.5738971100654,831.5738971100654,831.5738971100654,831.5738971100654,831.5738971100654,831.5738971100654,831.5738971100654,831.5738971100654,831.5738971100654,l,1.5263815661892295,10,643,2,833.1254276360851,834.6249239048921,834.6249239048921,835.124957384076,,,,,,,,,,,,,,,,,,,,,,,,,,,,,,,,,,,,,,,,,,,,,,,,,,,,,,,,,,,,,,,,,,,,,43487,2022-11-22_08h04.00.940,vts_reward_expectancy_bt_OFFLINE,2022.2.4,60.03953091527554,
0,1,0,0,1,0,0,0,circle,triangle,2,0,2,0,0,7,7,3,,,,,,,,,,,,,,,,,,,,,,,,,,,,,,,,,,,,,,,,835.124957384076,835.124957384076,835.124957384076,835.124957384076,835.124957384076,835.124957384076,835.124957384076,835.124957384076,835.124957384076,835.124957384076,a,1.3166792660485953,10,653,2,836.4618151069153,837.9612948580179,837.9612948580179,838.4616418979131,,,,,,,,,,,,,,,,,,,,,,,,,,,,,,,,,,,,,,,,,,,,,,,,,,,,,,,,,,,,,,,,,,,,,43487,2022-11-22_08h04.00.940,vts_reward_expectancy_bt_OFFLINE,2022.2.4,60.03953091527554,
0,0,0,1,0,0,1,0,star,hexagon,2,0,2,0,0,8,8,11,,,,,,,,,,,,,,,,,,,,,,,,,,,,,,,,,,,,,,,,838.4616418979131,838.4616418979131,838.4616418979131,838.4616418979131,838.4616418979131,838.4616418979131,838.4616418979131,838.4616418979131,838.4616418979131,838.4616418979131,l,2.9642514591105282,10,663,2,841.4486736299004,842.9481670800596,842.9481670800596,843.448496986879,,,,,,,,,,,,,,,,,,,,,,,,,,,,,,,,,,,,,,,,,,,,,,,,,,,,,,,,,,,,,,,,,,,,,43487,2022-11-22_08h04.00.940,vts_reward_expectancy_bt_OFFLINE,2022.2.4,60.03953091527554,
0,0,1,0,1,0,0,0,hexagon,triangle,2,0,2,0,0,9,9,6,,,,,,,,,,,,,,,,,,,,,,,,,,,,,,,,,,,,,,,,843.448496986879,843.448496986879,843.448496986879,843.448496986879,843.448496986879,843.448496986879,843.448496986879,843.448496986879,843.448496986879,843.448496986879,a,1.5222814881708473,10,673,2,844.9996107500046,846.501325112069,,,,,,,,,,,,,,,,,,,,,,,,,,,,,,,,,,,,,,,,,,,,,,,,,,,,,,,,,,,,,,,,,,,,,,,43487,2022-11-22_08h04.00.940,vts_reward_expectancy_bt_OFFLINE,2022.2.4,60.03953091527554,
0,0,1,0,0,0,0,1,hexagon,star,2,0,2,0,0,10,10,8,,,,,,,,,,,,,,,,,,,,,,,,,,,,,,,,,,,,,,,,847.0017428640276,847.0017428640276,847.0017428640276,847.0017428640276,847.0017428640276,847.0017428640276,847.0017428640276,847.0017428640276,847.0017428640276,847.0017428640276,a,2.1081831860356033,10,683,2,849.1364373939577,850.6379071478732,,,,,,,,,,,,,,,,,,,,,,,,,,,,,,,,,,,,,,,,,,,,,,,,,,,,,,,,,,,,,,,,,,,,,,,43487,2022-11-22_08h04.00.940,vts_reward_expectancy_bt_OFFLINE,2022.2.4,60.03953091527554,
1,0,0,0,0,1,0,0,triangle,circle,2,0,2,0,0,11,11,0,,,,,,,,,,,,,,,,,,,,,,,,,,,,,,,,,,,,,,,,851.1380297809374,851.1380297809374,851.1380297809374,851.1380297809374,851.1380297809374,851.1380297809374,851.1380297809374,851.1380297809374,851.1380297809374,851.1380297809374,l,1.0320870329160243,10,693,2,852.1892584639136,853.68924134993,853.68924134993,854.1893579140306,,,,,,,,,,,,,,,,,,,,,,,,,,,,,,,,,,,,,,,,,,,,,,,,,,,,,,,,,,,,,,,,,,,,,43487,2022-11-22_08h04.00.940,vts_reward_expectancy_bt_OFFLINE,2022.2.4,60.03953091527554,
0,0,0,1,1,0,0,0,star,triangle,2,0,2,0,1,0,12,9,,,,,,,,,,,,,,,,,,,,,,,,,,,,,,,,,,,,,,,,854.1893579140306,854.1893579140306,854.1893579140306,854.1893579140306,854.1893579140306,854.1893579140306,854.1893579140306,854.1893579140306,854.1893579140306,854.1893579140306,a,3.2797271450981498,1,694,2,857.4950778530911,858.9928116418887,,,,,,,,,,,,,,,,,,,,,,,,,,,,,,,,,,,,,,,,,,,,,,,,,,,,,,,,,,,,,,,,,,,,,,,43487,2022-11-22_08h04.00.940,vts_reward_expectancy_bt_OFFLINE,2022.2.4,60.03953091527554,
1,0,0,0,0,1,0,0,triangle,circle,2,0,2,0,1,1,13,0,,,,,,,,,,,,,,,,,,,,,,,,,,,,,,,,,,,,,,,,859.4932689219713,859.4932689219713,859.4932689219713,859.4932689219713,859.4932689219713,859.4932689219713,859.4932689219713,859.4932689219713,859.4932689219713,859.4932689219713,l,1.9359153090044856,10,704,2,861.4489245070145,862.9628338709008,,,,,,,,,,,,,,,,,,,,,,,,,,,,,,,,,,,,,,,,,,,,,,,,,,,,,,,,,,,,,,,,,,,,,,,43487,2022-11-22_08h04.00.940,vts_reward_expectancy_bt_OFFLINE,2022.2.4,60.03953091527554,
1,0,0,0,0,0,1,0,triangle,hexagon,2,0,2,0,1,2,14,1,,,,,,,,,,,,,,,,,,,,,,,,,,,,,,,,,,,,,,,,863.4628053018823,863.4628053018823,863.4628053018823,863.4628053018823,863.4628053018823,863.4628053018823,863.4628053018823,863.4628053018823,863.4628053018823,863.4628053018823,l,2.478462761035189,10,714,2,865.9665261448827,867.4661502069794,867.4661502069794,867.9666388160549,,,,,,,,,,,,,,,,,,,,,,,,,,,,,,,,,,,,,,,,,,,,,,,,,,,,,,,,,,,,,,,,,,,,,43487,2022-11-22_08h04.00.940,vts_reward_expectancy_bt_OFFLINE,2022.2.4,60.03953091527554,
0,1,0,0,0,0,0,1,circle,star,2,0,2,0,1,3,15,5,,,,,,,,,,,,,,,,,,,,,,,,,,,,,,,,,,,,,,,,867.9666388160549,867.9666388160549,867.9666388160549,867.9666388160549,867.9666388160549,867.9666388160549,867.9666388160549,867.9666388160549,867.9666388160549,867.9666388160549,a,1.3951632170937955,10,724,2,869.3847018419765,870.8860773448832,,,,,,,,,,,,,,,,,,,,,,,,,,,,,,,,,,,,,,,,,,,,,,,,,,,,,,,,,,,,,,,,,,,,,,,43487,2022-11-22_08h04.00.940,vts_reward_expectancy_bt_OFFLINE,2022.2.4,60.03953091527554,
0,0,0,1,0,0,1,0,star,hexagon,2,0,2,0,1,4,16,11,,,,,,,,,,,,,,,,,,,,,,,,,,,,,,,,,,,,,,,,871.3861304488964,871.3861304488964,871.3861304488964,871.3861304488964,871.3861304488964,871.3861304488964,871.3861304488964,871.3861304488964,871.3861304488964,871.3861304488964,l,3.2855417660903186,10,734,2,874.7043778740335,876.2063689609058,876.2063689609058,876.7066750088707,,,,,,,,,,,,,,,,,,,,,,,,,,,,,,,,,,,,,,,,,,,,,,,,,,,,,,,,,,,,,,,,,,,,,43487,2022-11-22_08h04.00.940,vts_reward_expectancy_bt_OFFLINE,2022.2.4,60.03953091527554,
0,1,0,0,0,0,1,0,circle,hexagon,2,0,2,0,1,5,17,4,,,,,,,,,,,,,,,,,,,,,,,,,,,,,,,,,,,,,,,,876.7066750088707,876.7066750088707,876.7066750088707,876.7066750088707,876.7066750088707,876.7066750088707,876.7066750088707,876.7066750088707,876.7066750088707,876.7066750088707,a,1.7222120719961822,10,744,2,878.4580959528685,879.9577902290039,879.9577902290039,,,,,,,,,,,,,,,,,,,,,,,,,,,,,,,,,,,,,,,,,,,,,,,,,,,,,,,,,,,,,,,,,,,,,,43487,2022-11-22_08h04.00.940,vts_reward_expectancy_bt_OFFLINE,2022.2.4,60.03953091527554,
0,0,1,0,1,0,0,0,hexagon,triangle,2,0,2,0,1,6,18,6,,,,,,,,,,,,,,,,,,,,,,,,,,,,,,,,,,,,,,,,880.4598267739639,880.4598267739639,880.4598267739639,880.4598267739639,880.4598267739639,880.4598267739639,880.4598267739639,880.4598267739639,880.4598267739639,880.4598267739639,a,1.3000038012396544,10,754,2,881.7780894800089,883.2772901279386,883.2772901279386,883.7777286430355,,,,,,,,,,,,,,,,,,,,,,,,,,,,,,,,,,,,,,,,,,,,,,,,,,,,,,,,,,,,,,,,,,,,,43487,2022-11-22_08h04.00.940,vts_reward_expectancy_bt_OFFLINE,2022.2.4,60.03953091527554,
0,0,1,0,0,0,0,1,hexagon,star,2,0,2,0,1,7,19,8,,,,,,,,,,,,,,,,,,,,,,,,,,,,,,,,,,,,,,,,883.7777286430355,883.7777286430355,883.7777286430355,883.7777286430355,883.7777286430355,883.7777286430355,883.7777286430355,883.7777286430355,883.7777286430355,883.7777286430355,a,2.695458041271195,10,764,2,886.4980869770516,887.9975247799885,887.9975247799885,888.4985365639441,,,,,,,,,,,,,,,,,,,,,,,,,,,,,,,,,,,,,,,,,,,,,,,,,,,,,,,,,,,,,,,,,,,,,43487,2022-11-22_08h04.00.940,vts_reward_expectancy_bt_OFFLINE,2022.2.4,60.03953091527554,
1,0,0,0,0,0,0,1,triangle,star,2,0,2,0,1,8,20,2,,,,,,,,,,,,,,,,,,,,,,,,,,,,,,,,,,,,,,,,888.4985365639441,888.4985365639441,888.4985365639441,888.4985365639441,888.4985365639441,888.4985365639441,888.4985365639441,888.4985365639441,888.4985365639441,888.4985365639441,a,2.182627985952422,1,765,2,890.7032823110931,892.2177295670845,,,,,,,,,,,,,,,,,,,,,,,,,,,,,,,,,,,,,,,,,,,,,,,,,,,,,,,,,,,,,,,,,,,,,,,43487,2022-11-22_08h04.00.940,vts_reward_expectancy_bt_OFFLINE,2022.2.4,60.03953091527554,
0,1,0,0,1,0,0,0,circle,triangle,2,0,2,0,1,9,21,3,,,,,,,,,,,,,,,,,,,,,,,,,,,,,,,,,,,,,,,,892.7010513700079,892.7010513700079,892.7010513700079,892.7010513700079,892.7010513700079,892.7010513700079,892.7010513700079,892.7010513700079,892.7010513700079,892.7010513700079,a,3.6622431641444564,1,766,2,896.3890379280783,897.8885698989034,897.8885698989034,898.388411520049,,,,,,,,,,,,,,,,,,,,,,,,,,,,,,,,,,,,,,,,,,,,,,,,,,,,,,,,,,,,,,,,,,,,,43487,2022-11-22_08h04.00.940,vts_reward_expectancy_bt_OFFLINE,2022.2.4,60.03953091527554,
0,0,1,0,0,1,0,0,hexagon,circle,2,0,2,0,1,10,22,7,,,,,,,,,,,,,,,,,,,,,,,,,,,,,,,,,,,,,,,,898.388411520049,898.388411520049,898.388411520049,898.388411520049,898.388411520049,898.388411520049,898.388411520049,898.388411520049,898.388411520049,898.388411520049,l,1.0236727241426706,10,776,2,899.4418601980433,900.9409347020555,,,,,,,,,,,,,,,,,,,,,,,,,,,,,,,,,,,,,,,,,,,,,,,,,,,,,,,,,,,,,,,,,,,,,,,43487,2022-11-22_08h04.00.940,vts_reward_expectancy_bt_OFFLINE,2022.2.4,60.03953091527554,
0,0,0,1,0,1,0,0,star ,circle,2,0,2,0,1,11,23,10,,,,,,,,,,,,,,,,,,,,,,,,,,,,,,,,,,,,,,,,901.4413386899978,901.4413386899978,901.4413386899978,901.4413386899978,901.4413386899978,901.4413386899978,901.4413386899978,901.4413386899978,901.4413386899978,901.4413386899978,l,0.985045799985528,10,786,2,902.4588633519597,903.9589113849215,903.9589113849215,904.4590090049896,,,,,,,,,,,,,,,,,,,,,,,,,,,,,,,,,,,,,,,,,,,,,,,,,,,,,,,,,,,,,,,,,,,,,43487,2022-11-22_08h04.00.940,vts_reward_expectancy_bt_OFFLINE,2022.2.4,60.03953091527554,
0,1,0,0,0,0,0,1,circle,star,2,0,2,0,2,0,24,5,,,,,,,,,,,,,,,,,,,,,,,,,,,,,,,,,,,,,,,,904.4590090049896,904.4590090049896,904.4590090049896,904.4590090049896,904.4590090049896,904.4590090049896,904.4590090049896,904.4590090049896,904.4590090049896,904.4590090049896,a,0.9388390691019595,10,796,2,905.4240961920004,906.9284633148927,,,,,,,,,,,,,,,,,,,,,,,,,,,,,,,,,,,,,,,,,,,,,,,,,,,,,,,,,,,,,,,,,,,,,,,43487,2022-11-22_08h04.00.940,vts_reward_expectancy_bt_OFFLINE,2022.2.4,60.03953091527554,
1,0,0,0,0,0,0,1,triangle,star,2,0,2,0,2,1,25,2,,,,,,,,,,,,,,,,,,,,,,,,,,,,,,,,,,,,,,,,907.4289028479252,907.4289028479252,907.4289028479252,907.4289028479252,907.4289028479252,907.4289028479252,907.4289028479252,907.4289028479252,907.4289028479252,907.4289028479252,l,2.3902432702016085,1,797,2,909.848833349999,911.3484680920374,,,,,,,,,,,,,,,,,,,,,,,,,,,,,,,,,,,,,,,,,,,,,,,,,,,,,,,,,,,,,,,,,,,,,,,43487,2022-11-22_08h04.00.940,vts_reward_expectancy_bt_OFFLINE,2022.2.4,60.03953091527554,
0,0,0,1,0,0,1,0,star,hexagon,2,0,2,0,2,2,26,11,,,,,,,,,,,,,,,,,,,,,,,,,,,,,,,,,,,,,,,,911.8487845850177,911.8487845850177,911.8487845850177,911.8487845850177,911.8487845850177,911.8487845850177,911.8487845850177,911.8487845850177,911.8487845850177,911.8487845850177,l,1.4347709009889513,1,798,2,913.3160534570925,914.8166767640505,914.8166767640505,915.3165845710319,,,,,,,,,,,,,,,,,,,,,,,,,,,,,,,,,,,,,,,,,,,,,,,,,,,,,,,,,,,,,,,,,,,,,43487,2022-11-22_08h04.00.940,vts_reward_expectancy_bt_OFFLINE,2022.2.4,60.03953091527554,
0,1,0,0,0,0,1,0,circle,hexagon,2,0,2,0,2,3,27,4,,,,,,,,,,,,,,,,,,,,,,,,,,,,,,,,,,,,,,,,915.3165845710319,915.3165845710319,915.3165845710319,915.3165845710319,915.3165845710319,915.3165845710319,915.3165845710319,915.3165845710319,915.3165845710319,915.3165845710319,a,0.9271717362571508,10,808,2,916.2721179600339,917.7859924589284,,,,,,,,,,,,,,,,,,,,,,,,,,,,,,,,,,,,,,,,,,,,,,,,,,,,,,,,,,,,,,,,,,,,,,,43487,2022-11-22_08h04.00.940,vts_reward_expectancy_bt_OFFLINE,2022.2.4,60.03953091527554,
0,0,1,0,0,1,0,0,hexagon,circle,2,0,2,0,2,4,28,7,,,,,,,,,,,,,,,,,,,,,,,,,,,,,,,,,,,,,,,,918.2861054239329,918.2861054239329,918.2861054239329,918.2861054239329,918.2861054239329,918.2861054239329,918.2861054239329,918.2861054239329,918.2861054239329,918.2861054239329,l,1.0732247412670404,10,818,2,919.3877029588912,920.8890904139262,,,,,,,,,,,,,,,,,,,,,,,,,,,,,,,,,,,,,,,,,,,,,,,,,,,,,,,,,,,,,,,,,,,,,,,43487,2022-11-22_08h04.00.940,vts_reward_expectancy_bt_OFFLINE,2022.2.4,60.03953091527554,
0,0,1,0,0,0,0,1,hexagon,star,2,0,2,0,2,5,29,8,,,,,,,,,,,,,,,,,,,,,,,,,,,,,,,,,,,,,,,,921.3891638529021,921.3891638529021,921.3891638529021,921.3891638529021,921.3891638529021,921.3891638529021,921.3891638529021,921.3891638529021,921.3891638529021,921.3891638529021,a,1.6829767252784222,10,828,2,923.0909855400678,924.5902734210249,924.5902734210249,925.0906156369019,,,,,,,,,,,,,,,,,,,,,,,,,,,,,,,,,,,,,,,,,,,,,,,,,,,,,,,,,,,,,,,,,,,,,43487,2022-11-22_08h04.00.940,vts_reward_expectancy_bt_OFFLINE,2022.2.4,60.03953091527554,
0,0,1,0,1,0,0,0,hexagon,triangle,2,0,2,0,2,6,30,6,,,,,,,,,,,,,,,,,,,,,,,,,,,,,,,,,,,,,,,,925.0906156369019,925.0906156369019,925.0906156369019,925.0906156369019,925.0906156369019,925.0906156369019,925.0906156369019,925.0906156369019,925.0906156369019,925.0906156369019,a,1.164672349113971,1,829,2,926.2791688970756,927.7934877399821,,,,,,,,,,,,,,,,,,,,,,,,,,,,,,,,,,,,,,,,,,,,,,,,,,,,,,,,,,,,,,,,,,,,,,,43487,2022-11-22_08h04.00.940,vts_reward_expectancy_bt_OFFLINE,2022.2.4,60.03953091527554,
0,0,0,1,1,0,0,0,star,triangle,2,0,2,0,2,7,31,9,,,,,,,,,,,,,,,,,,,,,,,,,,,,,,,,,,,,,,,,928.2932468780782,928.2932468780782,928.2932468780782,928.2932468780782,928.2932468780782,928.2932468780782,928.2932468780782,928.2932468780782,928.2932468780782,928.2932468780782,a,2.4969088390935212,1,830,2,930.8140949839726,932.3136049879249,932.3136049879249,932.8136413060129,,,,,,,,,,,,,,,,,,,,,,,,,,,,,,,,,,,,,,,,,,,,,,,,,,,,,,,,,,,,,,,,,,,,,43487,2022-11-22_08h04.00.940,vts_reward_expectancy_bt_OFFLINE,2022.2.4,60.03953091527554,
0,1,0,0,1,0,0,0,circle,triangle,2,0,2,0,2,8,32,3,,,,,,,,,,,,,,,,,,,,,,,,,,,,,,,,,,,,,,,,932.8136413060129,932.8136413060129,932.8136413060129,932.8136413060129,932.8136413060129,932.8136413060129,932.8136413060129,932.8136413060129,932.8136413060129,932.8136413060129,a,0.87829306605272,10,840,2,933.7171976990066,935.2313402090222,,,,,,,,,,,,,,,,,,,,,,,,,,,,,,,,,,,,,,,,,,,,,,,,,,,,,,,,,,,,,,,,,,,,,,,43487,2022-11-22_08h04.00.940,vts_reward_expectancy_bt_OFFLINE,2022.2.4,60.03953091527554,
1,0,0,0,0,1,0,0,triangle,circle,2,0,2,0,2,9,33,0,,,,,,,,,,,,,,,,,,,,,,,,,,,,,,,,,,,,,,,,935.7163479749579,935.7163479749579,935.7163479749579,935.7163479749579,935.7163479749579,935.7163479749579,935.7163479749579,935.7163479749579,935.7163479749579,935.7163479749579,l,1.48682738118805,10,850,2,937.2350046650972,938.7342200800776,938.7342200800776,939.2346618599258,,,,,,,,,,,,,,,,,,,,,,,,,,,,,,,,,,,,,,,,,,,,,,,,,,,,,,,,,,,,,,,,,,,,,43487,2022-11-22_08h04.00.940,vts_reward_expectancy_bt_OFFLINE,2022.2.4,60.03953091527554,
0,0,0,1,0,1,0,0,star ,circle,2,0,2,0,2,10,34,10,,,,,,,,,,,,,,,,,,,,,,,,,,,,,,,,,,,,,,,,939.2346618599258,939.2346618599258,939.2346618599258,939.2346618599258,939.2346618599258,939.2346618599258,939.2346618599258,939.2346618599258,939.2346618599258,939.2346618599258,l,1.3097547001671046,10,860,2,940.5719259020407,942.0872911750339,,,,,,,,,,,,,,,,,,,,,,,,,,,,,,,,,,,,,,,,,,,,,,,,,,,,,,,,,,,,,,,,,,,,,,,43487,2022-11-22_08h04.00.940,vts_reward_expectancy_bt_OFFLINE,2022.2.4,60.03953091527554,
1,0,0,0,0,0,1,0,triangle,hexagon,2,0,2,0,2,11,35,1,,,,,,,,,,,,,,,,,,,,,,,,,,,,,,,,,,,,,,,,942.587597355945,942.587597355945,942.587597355945,942.587597355945,942.587597355945,942.587597355945,942.587597355945,942.587597355945,942.587597355945,942.587597355945,l,4.875905133318156,1,861,2,947.4944508890621,949.0083021819592,,,,,,,,,,,,,,,,,,,,,,,,,,,,,,,,,,,,,,,,,,,,,,,,,,,,,,,,,,,,,,,,,,,,,,,43487,2022-11-22_08h04.00.940,vts_reward_expectancy_bt_OFFLINE,2022.2.4,60.03953091527554,
0,0,1,0,0,1,0,0,hexagon,circle,2,0,2,0,3,0,36,7,,,,,,,,,,,,,,,,,,,,,,,,,,,,,,,,,,,,,,,,949.5084514380433,949.5084514380433,949.5084514380433,949.5084514380433,949.5084514380433,949.5084514380433,949.5084514380433,949.5084514380433,949.5084514380433,949.5084514380433,l,2.5003490292001516,1,862,2,952.0291020229924,953.528306521941,953.528306521941,954.0287130489014,,,,,,,,,,,,,,,,,,,,,,,,,,,,,,,,,,,,,,,,,,,,,,,,,,,,,,,,,,,,,,,,,,,,,43487,2022-11-22_08h04.00.940,vts_reward_expectancy_bt_OFFLINE,2022.2.4,60.03953091527554,
0,0,1,0,0,0,0,1,hexagon,star,2,0,2,0,3,1,37,8,,,,,,,,,,,,,,,,,,,,,,,,,,,,,,,,,,,,,,,,954.0287130489014,954.0287130489014,954.0287130489014,954.0287130489014,954.0287130489014,954.0287130489014,954.0287130489014,954.0287130489014,954.0287130489014,954.0287130489014,a,2.5024874131195247,10,872,2,956.5514644710347,958.0653021528851,,,,,,,,,,,,,,,,,,,,,,,,,,,,,,,,,,,,,,,,,,,,,,,,,,,,,,,,,,,,,,,,,,,,,,,43487,2022-11-22_08h04.00.940,vts_reward_expectancy_bt_OFFLINE,2022.2.4,60.03953091527554,
1,0,0,0,0,1,0,0,triangle,circle,2,0,2,0,3,2,38,0,,,,,,,,,,,,,,,,,,,,,,,,,,,,,,,,,,,,,,,,958.5654141849373,958.5654141849373,958.5654141849373,958.5654141849373,958.5654141849373,958.5654141849373,958.5654141849373,958.5654141849373,958.5654141849373,958.5654141849373,l,1.15012556896545,10,882,2,959.7338705740403,961.234831467038,,,,,,,,,,,,,,,,,,,,,,,,,,,,,,,,,,,,,,,,,,,,,,,,,,,,,,,,,,,,,,,,,,,,,,,43487,2022-11-22_08h04.00.940,vts_reward_expectancy_bt_OFFLINE,2022.2.4,60.03953091527554,
0,0,0,1,1,0,0,0,star,triangle,2,0,2,0,3,3,39,9,,,,,,,,,,,,,,,,,,,,,,,,,,,,,,,,,,,,,,,,961.735075972043,961.735075972043,961.735075972043,961.735075972043,961.735075972043,961.735075972043,961.735075972043,961.735075972043,961.735075972043,961.735075972043,l,1.962358578108251,1,883,2,963.7223845259286,965.2362452619709,,,,,,,,,,,,,,,,,,,,,,,,,,,,,,,,,,,,,,,,,,,,,,,,,,,,,,,,,,,,,,,,,,,,,,,43487,2022-11-22_08h04.00.940,vts_reward_expectancy_bt_OFFLINE,2022.2.4,60.03953091527554,
1,0,0,0,0,0,0,1,triangle,star,2,0,2,0,3,4,40,2,,,,,,,,,,,,,,,,,,,,,,,,,,,,,,,,,,,,,,,,965.7217300049961,965.7217300049961,965.7217300049961,965.7217300049961,965.7217300049961,965.7217300049961,965.7217300049961,965.7217300049961,965.7217300049961,965.7217300049961,l,9.519202743191272,1,884,2,975.2613719759975,976.7627376338933,,,,,,,,,,,,,,,,,,,,,,,,,,,,,,,,,,,,,,,,,,,,,,,,,,,,,,,,,,,,,,,,,,,,,,,43487,2022-11-22_08h04.00.940,vts_reward_expectancy_bt_OFFLINE,2022.2.4,60.03953091527554,
0,0,1,0,1,0,0,0,hexagon,triangle,2,0,2,0,3,5,41,6,,,,,,,,,,,,,,,,,,,,,,,,,,,,,,,,,,,,,,,,977.2631029819604,977.2631029819604,977.2631029819604,977.2631029819604,977.2631029819604,977.2631029819604,977.2631029819604,977.2631029819604,977.2631029819604,977.2631029819604,a,1.8141981821972877,10,894,2,979.0997762889601,980.5994006788824,,,,,,,,,,,,,,,,,,,,,,,,,,,,,,,,,,,,,,,,,,,,,,,,,,,,,,,,,,,,,,,,,,,,,,,43487,2022-11-22_08h04.00.940,vts_reward_expectancy_bt_OFFLINE,2022.2.4,60.03953091527554,
1,0,0,0,0,0,1,0,triangle,hexagon,2,0,2,0,3,6,42,1,,,,,,,,,,,,,,,,,,,,,,,,,,,,,,,,,,,,,,,,981.0991947930306,981.0991947930306,981.0991947930306,981.0991947930306,981.0991947930306,981.0991947930306,981.0991947930306,981.0991947930306,981.0991947930306,981.0991947930306,l,1.0156304982956499,10,904,2,982.1348845320754,983.6502499200869,,,,,,,,,,,,,,,,,,,,,,,,,,,,,,,,,,,,,,,,,,,,,,,,,,,,,,,,,,,,,,,,,,,,,,,43487,2022-11-22_08h04.00.940,vts_reward_expectancy_bt_OFFLINE,2022.2.4,60.03953091527554,
0,1,0,0,1,0,0,0,circle,triangle,2,0,2,0,3,7,43,3,,,,,,,,,,,,,,,,,,,,,,,,,,,,,,,,,,,,,,,,984.1504375119694,984.1504375119694,984.1504375119694,984.1504375119694,984.1504375119694,984.1504375119694,984.1504375119694,984.1504375119694,984.1504375119694,984.1504375119694,a,1.0917874129954726,10,914,2,985.2690931919497,986.7700244160369,,,,,,,,,,,,,,,,,,,,,,,,,,,,,,,,,,,,,,,,,,,,,,,,,,,,,,,,,,,,,,,,,,,,,,,43487,2022-11-22_08h04.00.940,vts_reward_expectancy_bt_OFFLINE,2022.2.4,60.03953091527554,
0,1,0,0,0,0,1,0,circle,hexagon,2,0,2,0,3,8,44,4,,,,,,,,,,,,,,,,,,,,,,,,,,,,,,,,,,,,,,,,987.2699664009269,987.2699664009269,987.2699664009269,987.2699664009269,987.2699664009269,987.2699664009269,987.2699664009269,987.2699664009269,987.2699664009269,987.2699664009269,a,1.112159320153296,1,915,2,988.4070957049262,989.921312316088,,,,,,,,,,,,,,,,,,,,,,,,,,,,,,,,,,,,,,,,,,,,,,,,,,,,,,,,,,,,,,,,,,,,,,,43487,2022-11-22_08h04.00.940,vts_reward_expectancy_bt_OFFLINE,2022.2.4,60.03953091527554,
0,0,0,1,0,0,1,0,star,hexagon,2,0,2,0,3,9,45,11,,,,,,,,,,,,,,,,,,,,,,,,,,,,,,,,,,,,,,,,990.4210986159742,990.4210986159742,990.4210986159742,990.4210986159742,990.4210986159742,990.4210986159742,990.4210986159742,990.4210986159742,990.4210986159742,990.4210986159742,l,2.089925115928054,10,925,2,992.5435491988901,994.0579013279639,,,,,,,,,,,,,,,,,,,,,,,,,,,,,,,,,,,,,,,,,,,,,,,,,,,,,,,,,,,,,,,,,,,,,,,43487,2022-11-22_08h04.00.940,vts_reward_expectancy_bt_OFFLINE,2022.2.4,60.03953091527554,
0,0,0,1,0,1,0,0,star ,circle,2,0,2,0,3,10,46,10,,,,,,,,,,,,,,,,,,,,,,,,,,,,,,,,,,,,,,,,994.557761818869,994.557761818869,994.557761818869,994.557761818869,994.557761818869,994.557761818869,994.557761818869,994.557761818869,994.557761818869,994.557761818869,l,1.0583898162003607,10,935,2,995.6450848460663,997.1607065559365,,,,,,,,,,,,,,,,,,,,,,,,,,,,,,,,,,,,,,,,,,,,,,,,,,,,,,,,,,,,,,,,,,,,,,,43487,2022-11-22_08h04.00.940,vts_reward_expectancy_bt_OFFLINE,2022.2.4,60.03953091527554,
0,1,0,0,0,0,0,1,circle,star,2,0,2,0,3,11,47,5,,,,,,,,,,,,,,,,,,,,,,,,,,,,,,,,,,,,,,,,997.6610302280169,997.6610302280169,997.6610302280169,997.6610302280169,997.6610302280169,997.6610302280169,997.6610302280169,997.6610302280169,997.6610302280169,997.6610302280169,a,2.3649401690345258,1,936,2,1000.0485546689015,1001.5474673339631,,,,,,,,,,,,,,,,,,,,,,,,,,,,,,,,,,,,,,,,,,,,,,,,,,,,,,,,,,,,,,,,,,,,,,,43487,2022-11-22_08h04.00.940,vts_reward_expectancy_bt_OFFLINE,2022.2.4,60.03953091527554,
,,,,,,,,,,,,,,,,,,0,0,0,0,0,0,0,0,,,,,,,,,,,,,,,,,,,,,,,,,,,,,,,,,,,,,,,,,,,,,,,,1030.2336154598743,,,167,D,triangle,0.000731513136997819,1025.0925984249916,1026.5823533439543,1026.5823533439543,1026.5823533439543,1,0,f,2.110026951180771,0,1028.719417541055,,,,,,,,,,,,,,,,,,,,,,,,,,,,,,,,,,,,,,,,,,,,,,,,,,,,,,,43487,2022-11-22_08h04.00.940,vts_reward_expectancy_bt_OFFLINE,2022.2.4,60.03953091527554,
,,,,,,,,,,,,,,,,,,0,0,0,0,1,0,1,0,,,,,,,,,,,,,,,,,,,,,,,,,,,,,,,,,,,,,,,,,,,,,,,,1034.8872141630854,,,132,H,hexagon,0.0017845609690994024,1031.2139414220583,1032.7029778629076,1032.7029778629076,1032.7029778629076,1,0,d,0.63630361109972,0,1033.3713281690143,,,,,,,,,,,,,,,,,,,,,,,,,,,,,,,,,,,,,,,,,,,,,,,,,,,,,,,43487,2022-11-22_08h04.00.940,vts_reward_expectancy_bt_OFFLINE,2022.2.4,60.03953091527554,
,,,,,,,,,,,,,,,,,,0,0,0,0,2,0,2,0,,,,,,,,,,,,,,,,,,,,,,,,,,,,,,,,,,,,,,,,,,,,,,,,1039.5405601609964,,1040.0409101611003,160,B,circle,0.017014270182698965,1035.8831100370735,1037.3567189599853,1037.3567189599853,1037.3567189599853,1,0,f,0.6513807510491461,0,1038.0401462579612,1039.5405601609964,,,,,,,,,,,,,,,,,,,,,,,,,,,,,,,,,,,,,,,,,,,,,,,,,,,,,,43487,2022-11-22_08h04.00.940,vts_reward_expectancy_bt_OFFLINE,2022.2.4,60.03953091527554,
,,,,,,,,,,,,,,,,,,0,0,0,0,3,0,3,0,,,,,,,,,,,,,,,,,,,,,,,,,,,,,,,,,,,,,,,,,,,,,,,,1044.1440925670322,,,146,Y,star,0.014673072844743729,1040.5532465078868,1042.0268125198781,1042.0268125198781,1042.0268125198781,1,0,d,0.5824232390150428,0,1042.628474483965,,,,,,,,,,,,,,,,,,,,,,,,,,,,,,,,,,,,,,,,,,,,,,,,,,,,,,,43487,2022-11-22_08h04.00.940,vts_reward_expectancy_bt_OFFLINE,2022.2.4,60.03953091527554,
,,,,,,,,,,,,,,,,,,0,0,0,0,4,0,4,0,,,,,,,,,,,,,,,,,,,,,,,,,,,,,,,,,,,,,,,,,,,,,,,,1048.7975637840573,,,125,S,triangle,0.016937929904088378,1045.1399319870397,1046.613472203957,1046.613472203957,1046.613472203957,1,0,d,0.6421651341952384,0,1047.282036632998,,,,,,,,,,,,,,,,,,,,,,,,,,,,,,,,,,,,,,,,,,,,,,,,,,,,,,,43487,2022-11-22_08h04.00.940,vts_reward_expectancy_bt_OFFLINE,2022.2.4,60.03953091527554,
,,,,,,,,,,,,,,,,,,0,0,0,0,5,0,5,0,,,,,,,,,,,,,,,,,,,,,,,,,,,,,,,,,,,,,,,,,,,,,,,,1053.450980945956,,,174,U,hexagon,0.01674504578113556,1049.793499063002,1051.2670861280058,1051.2670861280058,1051.2670861280058,1,0,f,0.6476674810983241,0,1051.9354657309595,,,,,,,,,,,,,,,,,,,,,,,,,,,,,,,,,,,,,,,,,,,,,,,,,,,,,,,43487,2022-11-22_08h04.00.940,vts_reward_expectancy_bt_OFFLINE,2022.2.4,60.03953091527554,
,,,,,,,,,,,,,,,,,,0,0,0,0,6,0,6,0,,,,,,,,,,,,,,,,,,,,,,,,,,,,,,,,,,,,,,,,,,,,,,,,1058.487956082914,,,181,W,star,0.0171682289801538,1054.4473154440057,1055.9205300430767,1055.9205300430767,1055.9205300430767,1,0,f,1.02214849810116,0,1056.9726438440848,,,,,,,,,,,,,,,,,,,,,,,,,,,,,,,,,,,,,,,,,,,,,,,,,,,,,,,43487,2022-11-22_08h04.00.940,vts_reward_expectancy_bt_OFFLINE,2022.2.4,60.03953091527554,
,,,,,,,,,,,,,,,,,,0,0,0,0,7,0,7,0,,,,,,,,,,,,,,,,,,,,,,,,,,,,,,,,,,,,,,,,,,,,,,,,1063.758539573988,,,139,F,circle,0.016719206934794784,1059.483986964915,1060.9576427140273,1060.9576427140273,1060.9576427140273,1,0,d,1.2616074502002448,0,1062.2432577249128,,,,,,,,,,,,,,,,,,,,,,,,,,,,,,,,,,,,,,,,,,,,,,,,,,,,,,,43487,2022-11-22_08h04.00.940,vts_reward_expectancy_bt_OFFLINE,2022.2.4,60.03953091527554,
,,,,,,,,,,,,,,,,,,0,0,0,0,8,0,8,0,,,,,,,,,,,,,,,,,,,,,,,,,,,,,,,,,,,,,,,,,,,,,,,,1068.3954696599394,,1068.8955312340986,167,D,circle,0.016600434901192784,1064.7537639550865,1066.2278506020084,1066.2278506020084,1066.2278506020084,1,0,f,0.6377165450248867,0,1066.8963804258965,1068.3954696599394,,,,,,,,,,,,,,,,,,,,,,,,,,,,,,,,,,,,,,,,,,,,,,,,,,,,,,43487,2022-11-22_08h04.00.940,vts_reward_expectancy_bt_OFFLINE,2022.2.4,60.03953091527554,
,,,,,,,,,,,,,,,,,,0,0,0,0,9,0,9,0,,,,,,,,,,,,,,,,,,,,,,,,,,,,,,,,,,,,,,,,,,,,,,,,1073.5656348299235,,,132,H,triangle,0.0005844959523528814,1069.3907558580395,1070.8814530130476,1070.8814530130476,1070.8814530130476,1,0,d,1.1373625099658966,0,1072.050322372932,,,,,,,,,,,,,,,,,,,,,,,,,,,,,,,,,,,,,,,,,,,,,,,,,,,,,,,43487,2022-11-22_08h04.00.940,vts_reward_expectancy_bt_OFFLINE,2022.2.4,60.03953091527554,
,,,,,,,,,,,,,,,,,,,,,,,,,,0,0,0,0,0,0,0,0,,,,,,,,,,,,,,,,,,,,,,,,,,,,,,,,,,,,,,,,1111.160476702964,,,174,U,circle,0.0022259270772337914,,,,,1,0,,,1,1109.6604766019154,,1107.2694465229288,1108.757733592065,1108.757733592065,1108.757733592065,k,0.8725117230787873,,,,,,,,,,,,,,,,,,,,,,,,,,,,,,,,,,,,,,,,,,,,,,,,43487,2022-11-22_08h04.00.940,vts_reward_expectancy_bt_OFFLINE,2022.2.4,60.03953091527554,
,,,,,,,,,,,,,,,,,,,,,,,,,,0,0,0,0,1,0,1,0,,,,,,,,,,,,,,,,,,,,,,,,,,,,,,,,,,,,,,,,1115.8143408528995,,,181,W,star,0.0017553011421114206,,,,,1,0,,,1,1114.3133062159177,,1112.1554523250088,1113.6446537189186,1113.6446537189186,1113.6446537189186,k,0.6429909702856094,,,,,,,,,,,,,,,,,,,,,,,,,,,,,,,,,,,,,,,,,,,,,,,,43487,2022-11-22_08h04.00.940,vts_reward_expectancy_bt_OFFLINE,2022.2.4,60.03953091527554,
,,,,,,,,,,,,,,,,,,,,,,,,,,0,0,0,0,2,0,2,0,,,,,,,,,,,,,,,,,,,,,,,,,,,,,,,,,,,,,,,,1120.8344535229262,,,139,S,triangle,0.0017795069143176079,,,,,1,0,,,1,1119.3338738910388,,1116.8088114790153,1118.2985324840993,1118.2985324840993,1118.2985324840993,k,1.006222277181223,,,,,,,,,,,,,,,,,,,,,,,,,,,,,,,,,,,,,,,,,,,,,,,,43487,2022-11-22_08h04.00.940,vts_reward_expectancy_bt_OFFLINE,2022.2.4,60.03953091527554,
,,,,,,,,,,,,,,,,,,,,,,,,,,0,0,0,0,3,0,3,0,,,,,,,,,,,,,,,,,,,,,,,,,,,,,,,,,,,,,,,,1125.5196038580034,,,146,B,hexagon,0.0020813611336052418,,,,,1,0,,,1,1124.0041769500822,,1121.829524782952,1123.3184627799783,1123.3184627799783,1123.3184627799783,j,0.666613977169618,,,,,,,,,,,,,,,,,,,,,,,,,,,,,,,,,,,,,,,,,,,,,,,,43487,2022-11-22_08h04.00.940,vts_reward_expectancy_bt_OFFLINE,2022.2.4,60.03953091527554,
,,,,,,,,,,,,,,,,,,,,,,,,,,0,0,0,0,4,0,4,0,,,,,,,,,,,,,,,,,,,,,,,,,,,,,,,,,,,,,,,,1130.2397358880844,,,167,F,triangle,0.001927969977259636,,,,,1,0,,,1,1128.724248674931,,1126.4990928559564,1127.9891037889756,1127.9891037889756,1127.9891037889756,j,0.709906998090446,,,,,,,,,,,,,,,,,,,,,,,,,,,,,,,,,,,,,,,,,,,,,,,,43487,2022-11-22_08h04.00.940,vts_reward_expectancy_bt_OFFLINE,2022.2.4,60.03953091527554,
,,,,,,,,,,,,,,,,,,,,,,,,,,0,0,0,0,5,0,5,0,,,,,,,,,,,,,,,,,,,,,,,,,,,,,,,,,,,,,,,,1134.9099135329016,,,125,D,star,0.002009283984079957,,,,,1,0,,,1,1133.4107586180326,1134.9099135329016,1131.2200406210031,1132.7089767770376,1132.7089767770376,1132.7089767770376,j,0.6707282939460129,,,,,,,,,,,,,,,,,,,,,,,,,,,,,,,,,,,,,,,,,,,,,,,,43487,2022-11-22_08h04.00.940,vts_reward_expectancy_bt_OFFLINE,2022.2.4,60.03953091527554,
,,,,,,,,,,,,,,,,,,,,,,,,,,0,0,0,0,6,0,6,0,,,,,,,,,,,,,,,,,,,,,,,,,,,,,,,,,,,,,,,,1139.930285793962,,1140.4303370080888,160,H,circle,0.000508385943248868,,,,,1,0,,,1,1138.4297629690263,1139.930285793962,1135.90565814008,1137.395862326026,1137.395862326026,1137.395862326026,j,1.0014966239687055,,,,,,,,,,,,,,,,,,,,,,,,,,,,,,,,,,,,,,,,,,,,,,,,43487,2022-11-22_08h04.00.940,vts_reward_expectancy_bt_OFFLINE,2022.2.4,60.03953091527554,
,,,,,,,,,,,,,,,,,,,,,,,,,,0,0,0,0,7,0,7,0,,,,,,,,,,,,,,,,,,,,,,,,,,,,,,,,,,,,,,,,1144.6836763620377,,,132,Y,hexagon,0.014378452207893133,,,,,1,0,,,1,1143.1682480920572,,1140.9425030709244,1142.4161223550327,1142.4161223550327,1142.4161223550327,k,0.7289222071412951,,,,,,,,,,,,,,,,,,,,,,,,,,,,,,,,,,,,,,,,,,,,,,,,43487,2022-11-22_08h04.00.940,vts_reward_expectancy_bt_OFFLINE,2022.2.4,60.03953091527554,
,,,,,,,,,,,,,,,,,,,,,,,,,,0,0,0,0,8,0,8,0,,,,,,,,,,,,,,,,,,,,,,,,,,,,,,,,,,,,,,,,1149.5039061319549,,1150.0041035909671,174,U,circle,0.016458310186862946,,,,,1,0,,,1,1148.0034499859903,1149.5039061319549,1145.6787275020033,1147.1529271220788,1147.1529271220788,1147.1529271220788,k,0.818330328213051,,,,,,,,,,,,,,,,,,,,,,,,,,,,,,,,,,,,,,,,,,,,,,,,43487,2022-11-22_08h04.00.940,vts_reward_expectancy_bt_OFFLINE,2022.2.4,60.03953091527554,
,,,,,,,,,,,,,,,,,,,,,,,,,,0,0,0,0,9,0,9,0,,,,,,,,,,,,,,,,,,,,,,,,,,,,,,,,,,,,,,,,1154.1739639060106,,,181,W,triangle,0.014652468031272292,,,,,1,0,,,1,1152.6590205419343,,1150.5162043769378,1151.9901135540567,1151.9901135540567,1151.9901135540567,k,0.6398282910231501,,,,,,,,,,,,,,,,,,,,,,,,,,,,,,,,,,,,,,,,,,,,,,,,43487,2022-11-22_08h04.00.940,vts_reward_expectancy_bt_OFFLINE,2022.2.4,60.03953091527554,
,,,,,,,,,,,,,,,,,,,,,,,,,,,,,,,,,,0,0,0,0,0,0,0,0,,,,,,,,,,,,,,,,,,,,,,,,,,,,0,936,,,1219.9717898399103,,,139,U,star,0.000794955063611269,,,,,-1,0,,,2,,,,,,,,,1213.9642187829595,1213.9642187829595,1213.9642187829595,1213.9642187829595,1215.4515975839458,1215.4515975839458,1215.4515975839458,1215.4515975839458,1215.4682941080537,1215.4682941080537,1215.4682941080537,1215.4682941080537,1218.4575678259134,1218.4575678259134,1218.4575678259134,1218.4575678259134,-1,no_choice,NA,None,vtsPrac,1218.4575678259134,,,,,,,,,,,,,,,,,,,,,,,,,,43487,2022-11-22_08h04.00.940,vts_reward_expectancy_bt_OFFLINE,2022.2.4,60.03953091527554,
,,,,,,,,,,,,,,,,,,,,,,,,,,,,,,,,,,0,0,0,0,1,0,1,0,,,,,,,,,,,,,,,,,,,,,,,,,,,,0,936,,,1225.4253857128788,,,125,D,triangle,0.0051346090622246265,,,,,1,0,,,2,,,,,,,,,1220.9686992969364,1220.9686992969364,1220.9686992969364,1220.9686992969364,1222.457798735937,1222.457798735937,1222.457798735937,1222.457798735937,1222.4742192970589,1222.4742192970589,1222.4742192970589,1222.4742192970589,,,,,switch,number,numSwt,d,vtsPrac,1223.9114729529247,1.4328826921992004,,,,,,,,,,,,,,,,,,,,,,,,,43487,2022-11-22_08h04.00.940,vts_reward_expectancy_bt_OFFLINE,2022.2.4,60.03953091527554,
,,,,,,,,,,,,,,,,,,,,,,,,,,,,,,,,,,0,0,0,0,2,0,2,0,,,,,,,,,,,,,,,,,,,,,,,,,,,,0,936,,,1230.1290912409313,,,174,F,hexagon,0.001651716884225607,,,,,1,0,,,2,,,,,,,,,1226.406160484068,1226.406160484068,1226.406160484068,1226.406160484068,1227.8949355839286,1227.8949355839286,1227.8949355839286,1227.8949355839286,1227.911645411048,1227.911645411048,1227.911645411048,1227.911645411048,,,,,repeat,number,numRpt,f,vtsPrac,1228.6140814139508,0.6991705670952797,,,,,,,,,,,,,,,,,,,,,,,,,43487,2022-11-22_08h04.00.940,vts_reward_expectancy_bt_OFFLINE,2022.2.4,60.03953091527554,
,,,,,,,,,,,,,,,,,,,,,,,,,,,,,,,,,,0,0,0,0,3,0,3,0,,,,,,,,,,,,,,,,,,,,,,,,,,,,0,936,,,1234.815747020999,,,132,H,star,0.016697622137144208,,,,,1,0,,,2,,,,,,,,,1231.1252882438712,1231.1252882438712,1231.1252882438712,1231.1252882438712,1232.598459518049,1232.598459518049,1232.598459518049,1232.598459518049,1232.6318999580108,1232.6318999580108,1232.6318999580108,1232.6318999580108,,,,,repeat,number,numRpt,d,vtsPrac,1233.3009029598907,0.6749617671594024,,,,,,,,,,,,,,,,,,,,,,,,,43487,2022-11-22_08h04.00.940,vts_reward_expectancy_bt_OFFLINE,2022.2.4,60.03953091527554,
,,,,,,,,,,,,,,,,,,,,,,,,,,,,,,,,,,0,0,0,0,4,0,4,0,,,,,,,,,,,,,,,,,,,,,,,,,,,,0,936,,,1239.7361878170632,,,139,U,triangle,0.01671069790609181,,,,,1,0,,,2,,,,,,,,,1235.81167662004,1235.81167662004,1235.81167662004,1235.81167662004,1237.2853471769486,1237.2853471769486,1237.2853471769486,1237.2853471769486,1237.3184555030894,1237.3184555030894,1237.3184555030894,1237.3184555030894,,,,,switch,letter,lettSwt,k,vtsPrac,1238.2209112548735,0.9054210761096328,,,,,,,,,,,,,,,,,,,,,,,,,43487,2022-11-22_08h04.00.940,vts_reward_expectancy_bt_OFFLINE,2022.2.4,60.03953091527554,
,,,,,,,,,,,,,,,,,,,,,,,,,,,,,,,,,,0,0,0,0,5,0,5,0,,,,,,,,,,,,,,,,,,,,,,,,,,,,0,936,,,1244.6063757899683,,,125,D,star,0.01658973889425397,,,,,1,0,,,2,,,,,,,,,1240.7318273049314,1240.7318273049314,1240.7318273049314,1240.7318273049314,1242.2053280340042,1242.2053280340042,1242.2053280340042,1242.2053280340042,1242.2386439349502,1242.2386439349502,1242.2386439349502,1242.2386439349502,,,,,switch,number,numSwt,d,vtsPrac,1243.0912638939917,0.8569542521145195,,,,,,,,,,,,,,,,,,,,,,,,,43487,2022-11-22_08h04.00.940,vts_reward_expectancy_bt_OFFLINE,2022.2.4,60.03953091527554,
,,,,,,,,,,,,,,,,,,,,,,,,,,,,,,,,,,0,0,0,0,6,0,6,0,,,,,,,,,,,,,,,,,,,,,,,,,,,,0,936,,,1249.443118714029,,1249.9431890358683,174,F,hexagon,0.01681879092939198,,,,,1,0,,,2,,,,,,,,,1245.6023174000438,1245.6023174000438,1245.6023174000438,1245.6023174000438,1247.076081631938,1247.076081631938,1247.076081631938,1247.076081631938,1247.1093350080773,1247.1093350080773,1247.1093350080773,1247.1093350080773,,,,,switch,letter,lettSwt,j,vtsPrac,1247.9433274629992,0.8348051481880248,1249.443118714029,,,,,,,,,,,,,,,,,,,,,,,,43487,2022-11-22_08h04.00.940,vts_reward_expectancy_bt_OFFLINE,2022.2.4,60.03953091527554,
,,,,,,,,,,,,,,,,,,,,,,,,,,,,,,,,,,0,0,0,0,7,0,7,0,,,,,,,,,,,,,,,,,,,,,,,,,,,,0,936,,,1254.2467679979745,,,132,H,triangle,0.013679992174729705,,,,,1,0,,,2,,,,,,,,,1250.4556703059934,1250.4556703059934,1250.4556703059934,1250.4556703059934,1251.9294356270693,1251.9294356270693,1251.9294356270693,1251.9294356270693,1251.9626646209508,1251.9626646209508,1251.9626646209508,1251.9626646209508,,,,,repeat,letter,lettRpt,j,vtsPrac,1252.7318540129345,0.7755006300285459,,,,,,,,,,,,,,,,,,,,,,,,,43487,2022-11-22_08h04.00.940,vts_reward_expectancy_bt_OFFLINE,2022.2.4,60.03953091527554,
,,,,,,,,,,,,,,,,,,,,,,,,,,,,,,,,,,0,0,0,0,8,0,8,0,,,,,,,,,,,,,,,,,,,,,,,,,,,,0,936,,,1258.9835326690227,,,174,S,hexagon,0.016747999005019665,,,,,1,0,,,2,,,,,,,,,1255.2431067989673,1255.2431067989673,1255.2431067989673,1255.2431067989673,1256.7163580420893,1256.7163580420893,1256.7163580420893,1256.7163580420893,1256.74934548093,1256.74934548093,1256.74934548093,1256.74934548093,,,,,repeat,letter,lettRpt,k,vtsPrac,1257.4689587811008,0.7235490630846471,,,,,,,,,,,,,,,,,,,,,,,,,43487,2022-11-22_08h04.00.940,vts_reward_expectancy_bt_OFFLINE,2022.2.4,60.03953091527554,
,,,,,,,,,,,,,,,,,,,,,,,,,,,,,,,,,,0,0,0,0,9,0,9,0,,,,,,,,,,,,,,,,,,,,,,,,,,,,0,936,,,1263.6204444079194,,,167,W,circle,0.016918161883950233,,,,,1,0,,,2,,,,,,,,,1259.979827024974,1259.979827024974,1259.979827024974,1259.979827024974,1261.4528760360554,1261.4528760360554,1261.4528760360554,1261.4528760360554,1261.4863208609167,1261.4863208609167,1261.4863208609167,1261.4863208609167,,,,,switch,number,numSwt,f,vtsPrac,1262.1054570940323,0.6337530901655555,,,,,,,,,,,,,,,,,,,,,,,,,43487,2022-11-22_08h04.00.940,vts_reward_expectancy_bt_OFFLINE,2022.2.4,60.03953091527554,
,,,,,,,,,,,,,,,,,,,,,,,,,,,,,,,,,,0,0,0,0,10,0,10,0,,,,,,,,,,,,,,,,,,,,,,,,,,,,0,936,,,1268.19084083708,,,132,B,triangle,0.016585518838837743,,,,,1,0,,,2,,,,,,,,,1264.6167027940974,1264.6167027940974,1264.6167027940974,1264.6167027940974,1266.089831996942,1266.089831996942,1266.089831996942,1266.089831996942,1266.1233369430993,1266.1233369430993,1266.1233369430993,1266.1233369430993,,,,,repeat,number,numRpt,d,vtsPrac,1266.6756821689196,0.5540488050319254,,,,,,,,,,,,,,,,,,,,,,,,,43487,2022-11-22_08h04.00.940,vts_reward_expectancy_bt_OFFLINE,2022.2.4,60.03953091527554,
,,,,,,,,,,,,,,,,,,,,,,,,,,,,,,,,,,0,0,0,0,11,0,11,0,,,,,,,,,,,,,,,,,,,,,,,,,,,,0,936,,,1273.2277280609123,,,139,H,circle,0.016709956107661128,,,,,1,0,,,2,,,,,,,,,1269.1860216059722,1269.1860216059722,1269.1860216059722,1269.1860216059722,1270.6580259569455,1270.6580259569455,1270.6580259569455,1270.6580259569455,1270.6885232420173,1270.6885232420173,1270.6885232420173,1270.6885232420173,,,,,switch,letter,lettSwt,j,vtsPrac,1271.7126416419633,1.0251726391725242,,,,,,,,,,,,,,,,,,,,,,,,,43487,2022-11-22_08h04.00.940,vts_reward_expectancy_bt_OFFLINE,2022.2.4,60.03953091527554,
,,,,,,,,,,,,,,,,,,,,,,,,,,,,,,,,,,0,0,0,0,12,0,12,0,,,,,,,,,,,,,,,,,,,,,,,,,,,,0,936,,,1277.9478049199097,,,132,U,star,0.016374179162085056,,,,,1,0,,,2,,,,,,,,,1274.2229817269836,1274.2229817269836,1274.2229817269836,1274.2229817269836,1275.6921261360403,1275.6921261360403,1275.6921261360403,1275.6921261360403,1275.7312251459807,1275.7312251459807,1275.7312251459807,1275.7312251459807,,,,,switch,number,numSwt,d,vtsPrac,1276.4326863449533,0.7163880420848727,,,,,,,,,,,,,,,,,,,,,,,,,43487,2022-11-22_08h04.00.940,vts_reward_expectancy_bt_OFFLINE,2022.2.4,60.03953091527554,
,,,,,,,,,,,,,,,,,,,,,,,,,,,,,,,,,,0,0,0,0,13,0,13,0,,,,,,,,,,,,,,,,,,,,,,,,,,,,0,936,,,1282.5011826080736,,,146,W,hexagon,0.017099341843277216,,,,,1,0,,,2,,,,,,,,,1278.9433916939888,1278.9433916939888,1278.9433916939888,1278.9433916939888,1280.4154726190027,1280.4154726190027,1280.4154726190027,1280.4154726190027,1280.4488812088966,1280.4488812088966,1280.4488812088966,1280.4488812088966,,,,,switch,letter,lettSwt,k,vtsPrac,1280.9865780950058,0.538054765202105,,,,,,,,,,,,,,,,,,,,,,,,,43487,2022-11-22_08h04.00.940,vts_reward_expectancy_bt_OFFLINE,2022.2.4,60.03953091527554,
,,,,,,,,,,,,,,,,,,,,,,,,,,,,,,,,,,0,0,0,0,14,0,14,0,,,,,,,,,,,,,,,,,,,,,,,,,,,,0,936,,,1287.0548993870616,,,160,S,triangle,0.01663937303237617,,,,,1,0,,,2,,,,,,,,,1283.4967965970282,1283.4967965970282,1283.4967965970282,1283.4967965970282,1284.9689779849723,1284.9689779849723,1284.9689779849723,1284.9689779849723,1285.0020921600517,1285.0020921600517,1285.0020921600517,1285.0020921600517,,,,,repeat,letter,lettRpt,k,vtsPrac,1285.554671227932,0.5645979361142963,,,,,,,,,,,,,,,,,,,,,,,,,43487,2022-11-22_08h04.00.940,vts_reward_expectancy_bt_OFFLINE,2022.2.4,60.03953091527554,
,,,,,,,,,,,,,,,,,,,,,,,,,,,,,,,,,,0,0,0,0,15,0,15,0,,,,,,,,,,,,,,,,,,,,,,,,,,,,0,936,,,1291.8084993229713,,,174,B,star,0.001668279990553856,,,,,1,0,,,2,,,,,,,,,1288.0503829459194,1288.0503829459194,1288.0503829459194,1288.0503829459194,1289.5389834248926,1289.5389834248926,1289.5389834248926,1289.5389834248926,1289.5557854250073,1289.5557854250073,1289.5557854250073,1289.5557854250073,,,,,switch,number,numSwt,f,vtsPrac,1290.3081976328976,0.7416549022309482,,,,,,,,,,,,,,,,,,,,,,,,,43487,2022-11-22_08h04.00.940,vts_reward_expectancy_bt_OFFLINE,2022.2.4,60.03953091527554,
,,,,,,,,,,,,,,,,,,,,,,,,,,,,,,,,,,0,0,0,0,16,0,16,0,,,,,,,,,,,,,,,,,,,,,,,,,,,,0,936,,,1296.3784052790143,,,146,Y,star,0.002087951870635152,,,,,1,0,,,2,,,,,,,,,1292.8037879520562,1292.8037879520562,1292.8037879520562,1292.8037879520562,1294.2924714190885,1294.2924714190885,1294.2924714190885,1294.2924714190885,1294.3092403290793,1294.3092403290793,1294.3092403290793,1294.3092403290793,,,,,switch,letter,lettSwt,k,vtsPrac,1294.8783606060315,0.5556854691822082,,,,,,,,,,,,,,,,,,,,,,,,,43487,2022-11-22_08h04.00.940,vts_reward_expectancy_bt_OFFLINE,2022.2.4,60.03953091527554,
,,,,,,,,,,,,,,,,,,,,,,,,,,,,,,,,,,0,0,0,0,17,0,17,0,,,,,,,,,,,,,,,,,,,,,,,,,,,,0,936,,,1301.2320948760025,,,139,H,triangle,0.0019268819596618414,,,,,1,0,,,2,,,,,,,,,1297.37378621893,1297.37378621893,1297.37378621893,1297.37378621893,1298.8626623749733,1298.8626623749733,1298.8626623749733,1298.8626623749733,1298.8793459709268,1298.8793459709268,1298.8793459709268,1298.8793459709268,,,,,switch,number,numSwt,d,vtsPrac,1299.7319807640743,0.8456547900568694,,,,,,,,,,,,,,,,,,,,,,,,,43487,2022-11-22_08h04.00.940,vts_reward_expectancy_bt_OFFLINE,2022.2.4,60.03953091527554,
,,,,,,,,,,,,,,,,,,,,,,,,,,,,,,,,,,0,0,0,0,18,0,18,0,,,,,,,,,,,,,,,,,,,,,,,,,,,,0,936,,,1305.9356944309548,,,174,U,star,0.001571855042129755,,,,,1,0,,,2,,,,,,,,,1302.226777300937,1302.226777300937,1302.226777300937,1302.226777300937,1303.7163041869644,1303.7163041869644,1303.7163041869644,1303.7163041869644,1303.7329136889894,1303.7329136889894,1303.7329136889894,1303.7329136889894,,,,,repeat,number,numRpt,f,vtsPrac,1304.4350004959852,0.695855689002201,,,,,,,,,,,,,,,,,,,,,,,,,43487,2022-11-22_08h04.00.940,vts_reward_expectancy_bt_OFFLINE,2022.2.4,60.03953091527554,
,,,,,,,,,,,,,,,,,,,,,,,,,,,,,,,,,,0,0,0,0,19,0,19,0,,,,,,,,,,,,,,,,,,,,,,,,,,,,0,936,,,1310.756160123041,,,132,S,triangle,0.0021218820475041866,,,,,1,0,,,2,,,,,,,,,1306.9303659989964,1306.9303659989964,1306.9303659989964,1306.9303659989964,1308.41985867708,1308.41985867708,1308.41985867708,1308.41985867708,1308.4364734459668,1308.4364734459668,1308.4364734459668,1308.4364734459668,,,,,switch,letter,lettSwt,k,vtsPrac,1309.2557519879192,0.8067368229385465,,,,,,,,,,,,,,,,,,,,,,,,,43487,2022-11-22_08h04.00.940,vts_reward_expectancy_bt_OFFLINE,2022.2.4,60.03953091527554,
,,,,,,,,,,,,,,,,,,,,,,,,,,,,,,,,,,0,0,0,0,20,0,20,0,,,,,,,,,,,,,,,,,,,,,,,,,,,,0,936,,,1315.42415788793,,,146,W,star,0.0018521870952099562,,,,,1,0,,,2,,,,,,,,,1311.7508272489067,1311.7508272489067,1311.7508272489067,1311.7508272489067,1313.240093790926,1313.240093790926,1313.240093790926,1313.240093790926,1313.2567565820646,1313.2567565820646,1313.2567565820646,1313.2567565820646,,,,,switch,number,numSwt,d,vtsPrac,1313.9258822540287,0.6567329412791878,,,,,,,,,,,,,,,,,,,,,,,,,43487,2022-11-22_08h04.00.940,vts_reward_expectancy_bt_OFFLINE,2022.2.4,60.03953091527554,
,,,,,,,,,,,,,,,,,,,,,,,,,,,,,,,,,,0,0,0,0,21,0,21,0,,,,,,,,,,,,,,,,,,,,,,,,,,,,0,936,,,1320.344469066942,,,160,D,circle,0.0021295549813658,,,,,1,0,,,2,,,,,,,,,1316.4212502350565,1316.4212502350565,1316.4212502350565,1316.4212502350565,1317.9101703080814,1317.9101703080814,1317.9101703080814,1317.9101703080814,1317.9271669499576,1317.9271669499576,1317.9271669499576,1317.9271669499576,,,,,switch,letter,lettSwt,j,vtsPrac,1318.8296620750334,0.8924737849738449,,,,,,,,,,,,,,,,,,,,,,,,,43487,2022-11-22_08h04.00.940,vts_reward_expectancy_bt_OFFLINE,2022.2.4,60.03953091527554,
,,,,,,,,,,,,,,,,,,,,,,,,,,,,,,,,,,0,0,0,0,22,0,22,0,,,,,,,,,,,,,,,,,,,,,,,,,,,,0,936,,,1325.1314957349095,,,167,U,star,0.0017668509390205145,,,,,1,0,,,2,,,,,,,,,1321.3246913868934,1321.3246913868934,1321.3246913868934,1321.3246913868934,1322.8139236820862,1322.8139236820862,1322.8139236820862,1322.8139236820862,1322.8306483800989,1322.8306483800989,1322.8306483800989,1322.8306483800989,,,,,repeat,letter,lettRpt,k,vtsPrac,1323.6164723760448,0.7797281390521675,,,,,,,,,,,,,,,,,,,,,,,,,43487,2022-11-22_08h04.00.940,vts_reward_expectancy_bt_OFFLINE,2022.2.4,60.03953091527554,
,,,,,,,,,,,,,,,,,,,,,,,,,,,,,,,,,,0,0,0,0,23,0,23,0,,,,,,,,,,,,,,,,,,,,,,,,,,,,0,936,,,1329.934804189019,,,132,S,triangle,0.01676486781798303,,,,,1,0,,,2,,,,,,,,,1326.1273604750168,1326.1273604750168,1326.1273604750168,1326.1273604750168,1327.60081123095,1327.60081123095,1327.60081123095,1327.60081123095,1327.634234975092,1327.634234975092,1327.634234975092,1327.634234975092,,,,,repeat,letter,lettRpt,k,vtsPrac,1328.4201978140045,0.7863074019551277,,,,,,,,,,,,,,,,,,,,,,,,,43487,2022-11-22_08h04.00.940,vts_reward_expectancy_bt_OFFLINE,2022.2.4,60.03953091527554,
,,,,,,,,,,,,,,,,,,,,,,,,,,,,,,,,,,0,0,0,0,24,0,24,0,,,,,,,,,,,,,,,,,,,,,,,,,,,,0,936,,,1334.6717301509343,,,146,F,triangle,0.01682815491221845,,,,,1,0,,,2,,,,,,,,,1330.9309998708777,1330.9309998708777,1330.9309998708777,1330.9309998708777,1332.4043675470166,1332.4043675470166,1332.4043675470166,1332.4043675470166,1332.4374981569126,1332.4374981569126,1332.4374981569126,1332.4374981569126,,,,,repeat,letter,lettRpt,j,vtsPrac,1333.156768413959,0.729729755083099,,,,,,,,,,,,,,,,,,,,,,,,,43487,2022-11-22_08h04.00.940,vts_reward_expectancy_bt_OFFLINE,2022.2.4,60.03953091527554,
,,,,,,,,,,,,,,,,,,,,,,,,,,,,,,,,,,0,0,0,0,25,0,25,0,,,,,,,,,,,,,,,,,,,,,,,,,,,,0,936,,,1339.5753418400418,,,139,S,star,0.01698049600236118,,,,,1,0,,,2,,,,,,,,,1335.6678054369986,1335.6678054369986,1335.6678054369986,1335.6678054369986,1337.1414260719903,1337.1414260719903,1337.1414260719903,1337.1414260719903,1337.174705449026,1337.174705449026,1337.174705449026,1337.174705449026,,,,,repeat,letter,lettRpt,k,vtsPrac,1338.060711364029,0.8979272071737796,,,,,,,,,,,,,,,,,,,,,,,,,43487,2022-11-22_08h04.00.940,vts_reward_expectancy_bt_OFFLINE,2022.2.4,60.03953091527554,
,,,,,,,,,,,,,,,,,,,,,,,,,,,,,,,,,,0,0,0,0,26,0,26,0,,,,,,,,,,,,,,,,,,,,,,,,,,,,0,936,,,1344.2120893830433,,,125,B,triangle,0.01664630905725062,,,,,1,0,,,2,,,,,,,,,1340.5713739020284,1340.5713739020284,1340.5713739020284,1340.5713739020284,1342.044885956915,1342.044885956915,1342.044885956915,1342.044885956915,1342.077963690972,1342.077963690972,1342.077963690972,1342.077963690972,,,,,switch,number,numSwt,d,vtsPrac,1342.6973083850462,0.6297866569366306,,,,,,,,,,,,,,,,,,,,,,,,,43487,2022-11-22_08h04.00.940,vts_reward_expectancy_bt_OFFLINE,2022.2.4,60.03953091527554,
