LTriangleOpac,LCircleOpac,LHexagonOpac,LStarOpac,RTriangleOpac,RCircleOpac,RHexagonOpac,RStarOpac,LShape_ID,RShape_ID,training_blocks.thisRepN,training_blocks.thisTrialN,training_blocks.thisN,training_blocks.thisIndex,training.thisRepN,training.thisTrialN,training.thisN,training.thisIndex,task1_prac_redo.thisRepN,task1_prac_redo.thisTrialN,task1_prac_redo.thisN,task1_prac_redo.thisIndex,task1_prac_trials.thisRepN,task1_prac_trials.thisTrialN,task1_prac_trials.thisN,task1_prac_trials.thisIndex,task2_prac_redo.thisRepN,task2_prac_redo.thisTrialN,task2_prac_redo.thisN,task2_prac_redo.thisIndex,task2_praac_trials.thisRepN,task2_praac_trials.thisTrialN,task2_praac_trials.thisN,task2_praac_trials.thisIndex,vts_prac_redo.thisRepN,vts_prac_redo.thisTrialN,vts_prac_redo.thisN,vts_prac_redo.thisIndex,vts_practice_trials.thisRepN,vts_practice_trials.thisTrialN,vts_practice_trials.thisN,vts_practice_trials.thisIndex,trials_norew.thisRepN,trials_norew.thisTrialN,trials_norew.thisN,trials_norew.thisIndex,block.thisRepN,block.thisTrialN,block.thisN,block.thisIndex,trials_rew.thisRepN,trials_rew.thisTrialN,trials_rew.thisN,trials_rew.thisIndex,key_resp.started,key_resp.keys,key_resp.rt,left_circle.started,right_circle.started,left_triangle.started,right_triangle.started,left_star.started,right_star.started,left_hexagon.started,right_hexagon.started,training_fix.started,training_resp.started,training_resp.keys,training_resp.rt,points_trial,points_cumul,trainBlock,training_feedback_txt.started,fix.started,curr_topStim,curr_bottStim,curr_shape,ISI.started,tgt_fix_prac1.started,top_target_prac1.started,bott_target_prac1.started,target_resp_prac1.started,acc,E1,target_resp_prac1.keys,target_resp_prac1.rt,pracBlock,prac_fback_text.started,tgt_fix_prac2.started,top_target_prac2.started,bott_target_prac2.started,target_resp_prac2.started,target_resp_prac2.keys,target_resp_prac2.rt,top_target_prac2.stopped,tgt_fix_prac2.stopped,bott_target_prac2.stopped,target_resp_prac2.stopped,prac_fback_text.stopped,fix.stopped,star.started,hegagon.started,triangle.started,circle.started,star.stopped,hegagon.stopped,triangle.stopped,circle.stopped,top_target.started,tgt_fix.started,bot_target.started,target_resp.started,top_target.stopped,tgt_fix.stopped,bot_target.stopped,target_resp.stopped,alt,task,condition,target_resp.keys,rewCond,vts_fback.started,vts_fback.stopped,target_resp.rt,blockNum,norew_fback.started,norew_fback.stopped,key_resp_2.keys,key_resp_2.rt,rewExpectancy,feedbk_text.started,feedbk_text.stopped,text_3.started,debrief.started,text_3.stopped,button.started,debrief.index,debrief.itemText,debrief.type,debrief.granularity,debrief.font,debrief.markerColor,debrief.response,debrief.rt,button.numClicks,button.timesOn,button.timesOff,participant,date,expName,psychopyVersion,frameRate,
,,,,,,,,,,,,,,,,,,,,,,,,,,,,,,,,,,,,,,,,,,,,,,,,,,,,,,21.799548991024494,space,13.216210843995214,,,,,,,,,,,,,,,,,,,,,,,,,,,,,,,,,,,,,,,,,,,,,,,,,,,,,,,,,,,,,,,,,,,,,,,,,,,,,,,,,,,,,,,,,,,44402,2022-11-16_10h16.28.891,vts_reward_expectancy_bt_OFFLINE,2022.2.4,59.927513715722,
1,0,0,0,0,1,0,0,triangle,circle,0,0,0,0,0,0,0,0,,,,,,,,,,,,,,,,,,,,,,,,,,,,,,,,,,,,,,,,66.87292375700781,66.87292375700781,66.87292375700781,66.87292375700781,66.87292375700781,66.87292375700781,66.87292375700781,66.87292375700781,66.87292375700781,66.87292375700781,l,2.084547409991501,1,1,0,69.00089014301193,70.48584505502367,,,,,,,,,,,,,,,,,,,,,,,,,,,,,,,,,,,,,,,,,,,,,,,,,,,,,,,,,,,,,,,,,,,,,,,,,,44402,2022-11-16_10h16.28.891,vts_reward_expectancy_bt_OFFLINE,2022.2.4,59.927513715722,
0,0,0,1,0,0,1,0,star,hexagon,0,0,0,0,0,1,1,11,,,,,,,,,,,,,,,,,,,,,,,,,,,,,,,,,,,,,,,,70.98625375900883,70.98625375900883,70.98625375900883,70.98625375900883,70.98625375900883,70.98625375900883,70.98625375900883,70.98625375900883,70.98625375900883,70.98625375900883,a,1.1102553299861029,1,2,0,72.12100544502027,73.6228861210111,,,,,,,,,,,,,,,,,,,,,,,,,,,,,,,,,,,,,,,,,,,,,,,,,,,,,,,,,,,,,,,,,,,,,,,,,,44402,2022-11-16_10h16.28.891,vts_reward_expectancy_bt_OFFLINE,2022.2.4,59.927513715722,
0,0,1,0,0,1,0,0,hexagon,circle,0,0,0,0,0,2,2,7,,,,,,,,,,,,,,,,,,,,,,,,,,,,,,,,,,,,,,,,74.12325321001117,74.12325321001117,74.12325321001117,74.12325321001117,74.12325321001117,74.12325321001117,74.12325321001117,74.12325321001117,74.12325321001117,74.12325321001117,l,0.8752960010024253,10,12,0,75.02423827702296,76.52607740001986,,,,,,,,,,,,,,,,,,,,,,,,,,,,,,,,,,,,,,,,,,,,,,,,,,,,,,,,,,,,,,,,,,,,,,,,,,44402,2022-11-16_10h16.28.891,vts_reward_expectancy_bt_OFFLINE,2022.2.4,59.927513715722,
1,0,0,0,0,0,0,1,triangle,star,0,0,0,0,0,3,3,2,,,,,,,,,,,,,,,,,,,,,,,,,,,,,,,,,,,,,,,,77.02646522500436,77.02646522500436,77.02646522500436,77.02646522500436,77.02646522500436,77.02646522500436,77.02646522500436,77.02646522500436,77.02646522500436,77.02646522500436,l,0.5371353269729298,1,13,0,77.59375266102143,79.09551625701715,,,,,,,,,,,,,,,,,,,,,,,,,,,,,,,,,,,,,,,,,,,,,,,,,,,,,,,,,,,,,,,,,,,,,,,,,,44402,2022-11-16_10h16.28.891,vts_reward_expectancy_bt_OFFLINE,2022.2.4,59.927513715722,
0,1,0,0,0,0,0,1,circle,star,0,0,0,0,0,4,4,5,,,,,,,,,,,,,,,,,,,,,,,,,,,,,,,,,,,,,,,,79.59607432901976,79.59607432901976,79.59607432901976,79.59607432901976,79.59607432901976,79.59607432901976,79.59607432901976,79.59607432901976,79.59607432901976,79.59607432901976,a,0.5679643519688398,1,14,0,80.19673461400089,81.69823191600153,,,,,,,,,,,,,,,,,,,,,,,,,,,,,,,,,,,,,,,,,,,,,,,,,,,,,,,,,,,,,,,,,,,,,,,,,,44402,2022-11-16_10h16.28.891,vts_reward_expectancy_bt_OFFLINE,2022.2.4,59.927513715722,
0,0,1,0,1,0,0,0,hexagon,triangle,0,0,0,0,0,5,5,6,,,,,,,,,,,,,,,,,,,,,,,,,,,,,,,,,,,,,,,,82.19892546100891,82.19892546100891,82.19892546100891,82.19892546100891,82.19892546100891,82.19892546100891,82.19892546100891,82.19892546100891,82.19892546100891,82.19892546100891,l,0.6868818449729588,1,15,0,82.91643341901363,84.41989074702724,,,,,,,,,,,,,,,,,,,,,,,,,,,,,,,,,,,,,,,,,,,,,,,,,,,,,,,,,,,,,,,,,,,,,,,,,,44402,2022-11-16_10h16.28.891,vts_reward_expectancy_bt_OFFLINE,2022.2.4,59.927513715722,
1,0,0,0,0,0,1,0,triangle,hexagon,0,0,0,0,0,6,6,1,,,,,,,,,,,,,,,,,,,,,,,,,,,,,,,,,,,,,,,,84.92038126202533,84.92038126202533,84.92038126202533,84.92038126202533,84.92038126202533,84.92038126202533,84.92038126202533,84.92038126202533,84.92038126202533,84.92038126202533,l,0.4509760669898242,10,25,0,85.40243087802082,86.9041734530183,,,,,,,,,,,,,,,,,,,,,,,,,,,,,,,,,,,,,,,,,,,,,,,,,,,,,,,,,,,,,,,,,,,,,,,,,,44402,2022-11-16_10h16.28.891,vts_reward_expectancy_bt_OFFLINE,2022.2.4,59.927513715722,
0,0,1,0,0,0,0,1,hexagon,star,0,0,0,0,0,7,7,8,,,,,,,,,,,,,,,,,,,,,,,,,,,,,,,,,,,,,,,,87.4044030450168,87.4044030450168,87.4044030450168,87.4044030450168,87.4044030450168,87.4044030450168,87.4044030450168,87.4044030450168,87.4044030450168,87.4044030450168,l,0.4422655289818067,1,26,0,87.87188233001507,89.37336498801596,,,,,,,,,,,,,,,,,,,,,,,,,,,,,,,,,,,,,,,,,,,,,,,,,,,,,,,,,,,,,,,,,,,,,,,,,,44402,2022-11-16_10h16.28.891,vts_reward_expectancy_bt_OFFLINE,2022.2.4,59.927513715722,
0,1,0,0,0,0,1,0,circle,hexagon,0,0,0,0,0,8,8,4,,,,,,,,,,,,,,,,,,,,,,,,,,,,,,,,,,,,,,,,89.8739899470238,89.8739899470238,89.8739899470238,89.8739899470238,89.8739899470238,89.8739899470238,89.8739899470238,89.8739899470238,89.8739899470238,89.8739899470238,a,0.6070718479750212,10,36,0,90.50788975600153,92.00982620901777,,,,,,,,,,,,,,,,,,,,,,,,,,,,,,,,,,,,,,,,,,,,,,,,,,,,,,,,,,,,,,,,,,,,,,,,,,44402,2022-11-16_10h16.28.891,vts_reward_expectancy_bt_OFFLINE,2022.2.4,59.927513715722,
0,1,0,0,1,0,0,0,circle,triangle,0,0,0,0,0,9,9,3,,,,,,,,,,,,,,,,,,,,,,,,,,,,,,,,,,,,,,,,92.5102573770273,92.5102573770273,92.5102573770273,92.5102573770273,92.5102573770273,92.5102573770273,92.5102573770273,92.5102573770273,92.5102573770273,92.5102573770273,l,0.7361462900007609,10,46,0,93.27768726201612,94.77941980501055,,,,,,,,,,,,,,,,,,,,,,,,,,,,,,,,,,,,,,,,,,,,,,,,,,,,,,,,,,,,,,,,,,,,,,,,,,44402,2022-11-16_10h16.28.891,vts_reward_expectancy_bt_OFFLINE,2022.2.4,59.927513715722,
0,0,0,1,0,1,0,0,star ,circle,0,0,0,0,0,10,10,10,,,,,,,,,,,,,,,,,,,,,,,,,,,,,,,,,,,,,,,,95.28005046301405,95.28005046301405,95.28005046301405,95.28005046301405,95.28005046301405,95.28005046301405,95.28005046301405,95.28005046301405,95.28005046301405,95.28005046301405,a,0.6007324929814786,10,56,0,95.91409782500705,97.4156870910083,,,,,,,,,,,,,,,,,,,,,,,,,,,,,,,,,,,,,,,,,,,,,,,,,,,,,,,,,,,,,,,,,,,,,,,,,,44402,2022-11-16_10h16.28.891,vts_reward_expectancy_bt_OFFLINE,2022.2.4,59.927513715722,
0,0,0,1,1,0,0,0,star,triangle,0,0,0,0,0,11,11,9,,,,,,,,,,,,,,,,,,,,,,,,,,,,,,,,,,,,,,,,97.91627863401663,97.91627863401663,97.91627863401663,97.91627863401663,97.91627863401663,97.91627863401663,97.91627863401663,97.91627863401663,97.91627863401663,97.91627863401663,a,0.5968426519830246,10,66,0,98.53361441401648,100.03534452902386,,,,,,,,,,,,,,,,,,,,,,,,,,,,,,,,,,,,,,,,,,,,,,,,,,,,,,,,,,,,,,,,,,,,,,,,,,44402,2022-11-16_10h16.28.891,vts_reward_expectancy_bt_OFFLINE,2022.2.4,59.927513715722,
0,0,0,1,1,0,0,0,star,triangle,0,0,0,0,1,0,12,9,,,,,,,,,,,,,,,,,,,,,,,,,,,,,,,,,,,,,,,,100.53569584302022,100.53569584302022,100.53569584302022,100.53569584302022,100.53569584302022,100.53569584302022,100.53569584302022,100.53569584302022,100.53569584302022,100.53569584302022,l,0.5992566899803933,10,76,0,101.15311626601033,102.6547321070102,,,,,,,,,,,,,,,,,,,,,,,,,,,,,,,,,,,,,,,,,,,,,,,,,,,,,,,,,,,,,,,,,,,,,,,,,,44402,2022-11-16_10h16.28.891,vts_reward_expectancy_bt_OFFLINE,2022.2.4,59.927513715722,
1,0,0,0,0,0,1,0,triangle,hexagon,0,0,0,0,1,1,13,1,,,,,,,,,,,,,,,,,,,,,,,,,,,,,,,,,,,,,,,,103.15534230900812,103.15534230900812,103.15534230900812,103.15534230900812,103.15534230900812,103.15534230900812,103.15534230900812,103.15534230900812,103.15534230900812,103.15534230900812,a,0.9833734939747956,10,86,0,104.15643952900427,105.65808178301086,,,,,,,,,,,,,,,,,,,,,,,,,,,,,,,,,,,,,,,,,,,,,,,,,,,,,,,,,,,,,,,,,,,,,,,,,,44402,2022-11-16_10h16.28.891,vts_reward_expectancy_bt_OFFLINE,2022.2.4,59.927513715722,
0,0,1,0,1,0,0,0,hexagon,triangle,0,0,0,0,1,2,14,6,,,,,,,,,,,,,,,,,,,,,,,,,,,,,,,,,,,,,,,,106.15864123601932,106.15864123601932,106.15864123601932,106.15864123601932,106.15864123601932,106.15864123601932,106.15864123601932,106.15864123601932,106.15864123601932,106.15864123601932,l,0.4875393279653508,10,96,0,106.6758889730263,108.17767085702508,,,,,,,,,,,,,,,,,,,,,,,,,,,,,,,,,,,,,,,,,,,,,,,,,,,,,,,,,,,,,,,,,,,,,,,,,,44402,2022-11-16_10h16.28.891,vts_reward_expectancy_bt_OFFLINE,2022.2.4,59.927513715722,
0,0,1,0,0,0,0,1,hexagon,star,0,0,0,0,1,3,15,8,,,,,,,,,,,,,,,,,,,,,,,,,,,,,,,,,,,,,,,,108.67824395900243,108.67824395900243,108.67824395900243,108.67824395900243,108.67824395900243,108.67824395900243,108.67824395900243,108.67824395900243,108.67824395900243,108.67824395900243,l,0.4213068369717803,1,97,0,109.12847557201167,110.63016979201348,,,,,,,,,,,,,,,,,,,,,,,,,,,,,,,,,,,,,,,,,,,,,,,,,,,,,,,,,,,,,,,,,,,,,,,,,,44402,2022-11-16_10h16.28.891,vts_reward_expectancy_bt_OFFLINE,2022.2.4,59.927513715722,
0,0,1,0,0,1,0,0,hexagon,circle,0,0,0,0,1,4,16,7,,,,,,,,,,,,,,,,,,,,,,,,,,,,,,,,,,,,,,,,111.1306586819992,111.1306586819992,111.1306586819992,111.1306586819992,111.1306586819992,111.1306586819992,111.1306586819992,111.1306586819992,111.1306586819992,111.1306586819992,l,0.8035650599922519,10,107,0,111.96506411602604,113.46661491901614,,,,,,,,,,,,,,,,,,,,,,,,,,,,,,,,,,,,,,,,,,,,,,,,,,,,,,,,,,,,,,,,,,,,,,,,,,44402,2022-11-16_10h16.28.891,vts_reward_expectancy_bt_OFFLINE,2022.2.4,59.927513715722,
0,1,0,0,0,0,1,0,circle,hexagon,0,0,0,0,1,5,17,4,,,,,,,,,,,,,,,,,,,,,,,,,,,,,,,,,,,,,,,,113.96715427201707,113.96715427201707,113.96715427201707,113.96715427201707,113.96715427201707,113.96715427201707,113.96715427201707,113.96715427201707,113.96715427201707,113.96715427201707,a,0.6785407149873208,10,117,0,114.66792539000744,116.16969991300721,,,,,,,,,,,,,,,,,,,,,,,,,,,,,,,,,,,,,,,,,,,,,,,,,,,,,,,,,,,,,,,,,,,,,,,,,,44402,2022-11-16_10h16.28.891,vts_reward_expectancy_bt_OFFLINE,2022.2.4,59.927513715722,
0,0,0,1,0,1,0,0,star ,circle,0,0,0,0,1,6,18,10,,,,,,,,,,,,,,,,,,,,,,,,,,,,,,,,,,,,,,,,116.67018838902004,116.67018838902004,116.67018838902004,116.67018838902004,116.67018838902004,116.67018838902004,116.67018838902004,116.67018838902004,116.67018838902004,116.67018838902004,l,0.5298358569853008,1,118,0,117.22049027201138,118.72252293501515,,,,,,,,,,,,,,,,,,,,,,,,,,,,,,,,,,,,,,,,,,,,,,,,,,,,,,,,,,,,,,,,,,,,,,,,,,44402,2022-11-16_10h16.28.891,vts_reward_expectancy_bt_OFFLINE,2022.2.4,59.927513715722,
1,0,0,0,0,1,0,0,triangle,circle,0,0,0,0,1,7,19,0,,,,,,,,,,,,,,,,,,,,,,,,,,,,,,,,,,,,,,,,119.2229699800082,119.2229699800082,119.2229699800082,119.2229699800082,119.2229699800082,119.2229699800082,119.2229699800082,119.2229699800082,119.2229699800082,119.2229699800082,l,0.3274778879713267,1,119,0,119.57341695402283,121.07514328500838,,,,,,,,,,,,,,,,,,,,,,,,,,,,,,,,,,,,,,,,,,,,,,,,,,,,,,,,,,,,,,,,,,,,,,,,,,44402,2022-11-16_10h16.28.891,vts_reward_expectancy_bt_OFFLINE,2022.2.4,59.927513715722,
1,0,0,0,0,0,0,1,triangle,star,0,0,0,0,1,8,20,2,,,,,,,,,,,,,,,,,,,,,,,,,,,,,,,,,,,,,,,,121.57581325501087,121.57581325501087,121.57581325501087,121.57581325501087,121.57581325501087,121.57581325501087,121.57581325501087,121.57581325501087,121.57581325501087,121.57581325501087,a,0.5290635099809151,10,129,0,122.1262178470206,123.6279964170244,,,,,,,,,,,,,,,,,,,,,,,,,,,,,,,,,,,,,,,,,,,,,,,,,,,,,,,,,,,,,,,,,,,,,,,,,,44402,2022-11-16_10h16.28.891,vts_reward_expectancy_bt_OFFLINE,2022.2.4,59.927513715722,
0,0,0,1,0,0,1,0,star,hexagon,0,0,0,0,1,9,21,11,,,,,,,,,,,,,,,,,,,,,,,,,,,,,,,,,,,,,,,,124.12851825301186,124.12851825301186,124.12851825301186,124.12851825301186,124.12851825301186,124.12851825301186,124.12851825301186,124.12851825301186,124.12851825301186,124.12851825301186,l,0.7776630719890818,10,139,0,124.92934426001739,126.43107469801907,,,,,,,,,,,,,,,,,,,,,,,,,,,,,,,,,,,,,,,,,,,,,,,,,,,,,,,,,,,,,,,,,,,,,,,,,,44402,2022-11-16_10h16.28.891,vts_reward_expectancy_bt_OFFLINE,2022.2.4,59.927513715722,
0,1,0,0,1,0,0,0,circle,triangle,0,0,0,0,1,10,22,3,,,,,,,,,,,,,,,,,,,,,,,,,,,,,,,,,,,,,,,,126.93150394401164,126.93150394401164,126.93150394401164,126.93150394401164,126.93150394401164,126.93150394401164,126.93150394401164,126.93150394401164,126.93150394401164,126.93150394401164,l,0.8664534749696031,10,149,0,127.8159049230162,129.3175939640205,,,,,,,,,,,,,,,,,,,,,,,,,,,,,,,,,,,,,,,,,,,,,,,,,,,,,,,,,,,,,,,,,,,,,,,,,,44402,2022-11-16_10h16.28.891,vts_reward_expectancy_bt_OFFLINE,2022.2.4,59.927513715722,
0,1,0,0,0,0,0,1,circle,star,0,0,0,0,1,11,23,5,,,,,,,,,,,,,,,,,,,,,,,,,,,,,,,,,,,,,,,,129.81797748000827,129.81797748000827,129.81797748000827,129.81797748000827,129.81797748000827,129.81797748000827,129.81797748000827,129.81797748000827,129.81797748000827,129.81797748000827,a,0.6014227349660359,10,159,0,130.45225639201817,131.95372970300377,,,,,,,,,,,,,,,,,,,,,,,,,,,,,,,,,,,,,,,,,,,,,,,,,,,,,,,,,,,,,,,,,,,,,,,,,,44402,2022-11-16_10h16.28.891,vts_reward_expectancy_bt_OFFLINE,2022.2.4,59.927513715722,
1,0,0,0,0,0,0,1,triangle,star,0,0,0,0,2,0,24,2,,,,,,,,,,,,,,,,,,,,,,,,,,,,,,,,,,,,,,,,132.4544325710158,132.4544325710158,132.4544325710158,132.4544325710158,132.4544325710158,132.4544325710158,132.4544325710158,132.4544325710158,132.4544325710158,132.4544325710158,a,0.6636231489828788,10,169,0,133.13837171302293,134.6400516310241,,,,,,,,,,,,,,,,,,,,,,,,,,,,,,,,,,,,,,,,,,,,,,,,,,,,,,,,,,,,,,,,,,,,,,,,,,44402,2022-11-16_10h16.28.891,vts_reward_expectancy_bt_OFFLINE,2022.2.4,59.927513715722,
0,0,1,0,1,0,0,0,hexagon,triangle,0,0,0,0,2,1,25,6,,,,,,,,,,,,,,,,,,,,,,,,,,,,,,,,,,,,,,,,135.1405601670267,135.1405601670267,135.1405601670267,135.1405601670267,135.1405601670267,135.1405601670267,135.1405601670267,135.1405601670267,135.1405601670267,135.1405601670267,l,0.8241585739888251,10,179,0,135.99151819502003,137.49328194500413,,,,,,,,,,,,,,,,,,,,,,,,,,,,,,,,,,,,,,,,,,,,,,,,,,,,,,,,,,,,,,,,,,,,,,,,,,44402,2022-11-16_10h16.28.891,vts_reward_expectancy_bt_OFFLINE,2022.2.4,59.927513715722,
0,0,0,1,0,0,1,0,star,hexagon,0,0,0,0,2,2,26,11,,,,,,,,,,,,,,,,,,,,,,,,,,,,,,,,,,,,,,,,137.99378444900503,137.99378444900503,137.99378444900503,137.99378444900503,137.99378444900503,137.99378444900503,137.99378444900503,137.99378444900503,137.99378444900503,137.99378444900503,a,0.8410592069849372,1,180,0,138.86127030901844,140.36325776402373,,,,,,,,,,,,,,,,,,,,,,,,,,,,,,,,,,,,,,,,,,,,,,,,,,,,,,,,,,,,,,,,,,,,,,,,,,44402,2022-11-16_10h16.28.891,vts_reward_expectancy_bt_OFFLINE,2022.2.4,59.927513715722,
0,1,0,0,0,0,1,0,circle,hexagon,0,0,0,0,2,3,27,4,,,,,,,,,,,,,,,,,,,,,,,,,,,,,,,,,,,,,,,,140.86377879002248,140.86377879002248,140.86377879002248,140.86377879002248,140.86377879002248,140.86377879002248,140.86377879002248,140.86377879002248,140.86377879002248,140.86377879002248,l,0.6491127249901183,1,181,0,141.5310131770093,143.03251898201415,,,,,,,,,,,,,,,,,,,,,,,,,,,,,,,,,,,,,,,,,,,,,,,,,,,,,,,,,,,,,,,,,,,,,,,,,,44402,2022-11-16_10h16.28.891,vts_reward_expectancy_bt_OFFLINE,2022.2.4,59.927513715722,
0,0,1,0,0,1,0,0,hexagon,circle,0,0,0,0,2,4,28,7,,,,,,,,,,,,,,,,,,,,,,,,,,,,,,,,,,,,,,,,143.53332620000583,143.53332620000583,143.53332620000583,143.53332620000583,143.53332620000583,143.53332620000583,143.53332620000583,143.53332620000583,143.53332620000583,143.53332620000583,a,0.7014381299668457,1,182,0,144.26725442701718,145.7690167890105,,,,,,,,,,,,,,,,,,,,,,,,,,,,,,,,,,,,,,,,,,,,,,,,,,,,,,,,,,,,,,,,,,,,,,,,,,44402,2022-11-16_10h16.28.891,vts_reward_expectancy_bt_OFFLINE,2022.2.4,59.927513715722,
0,0,0,1,1,0,0,0,star,triangle,0,0,0,0,2,5,29,9,,,,,,,,,,,,,,,,,,,,,,,,,,,,,,,,,,,,,,,,146.26946467501693,146.26946467501693,146.26946467501693,146.26946467501693,146.26946467501693,146.26946467501693,146.26946467501693,146.26946467501693,146.26946467501693,146.26946467501693,l,0.9578604679845739,10,192,0,147.25408989502466,148.75572008200106,,,,,,,,,,,,,,,,,,,,,,,,,,,,,,,,,,,,,,,,,,,,,,,,,,,,,,,,,,,,,,,,,,,,,,,,,,44402,2022-11-16_10h16.28.891,vts_reward_expectancy_bt_OFFLINE,2022.2.4,59.927513715722,
1,0,0,0,0,0,1,0,triangle,hexagon,0,0,0,0,2,6,30,1,,,,,,,,,,,,,,,,,,,,,,,,,,,,,,,,,,,,,,,,149.25634022601298,149.25634022601298,149.25634022601298,149.25634022601298,149.25634022601298,149.25634022601298,149.25634022601298,149.25634022601298,149.25634022601298,149.25634022601298,l,0.8734967419877648,1,193,0,150.15717573600705,151.65893456499907,,,,,,,,,,,,,,,,,,,,,,,,,,,,,,,,,,,,,,,,,,,,,,,,,,,,,,,,,,,,,,,,,,,,,,,,,,44402,2022-11-16_10h16.28.891,vts_reward_expectancy_bt_OFFLINE,2022.2.4,59.927513715722,
0,0,1,0,0,0,0,1,hexagon,star,0,0,0,0,2,7,31,8,,,,,,,,,,,,,,,,,,,,,,,,,,,,,,,,,,,,,,,,152.15935268701287,152.15935268701287,152.15935268701287,152.15935268701287,152.15935268701287,152.15935268701287,152.15935268701287,152.15935268701287,152.15935268701287,152.15935268701287,a,0.5582239330105949,1,194,0,152.74349471900496,154.24501745801535,,,,,,,,,,,,,,,,,,,,,,,,,,,,,,,,,,,,,,,,,,,,,,,,,,,,,,,,,,,,,,,,,,,,,,,,,,44402,2022-11-16_10h16.28.891,vts_reward_expectancy_bt_OFFLINE,2022.2.4,59.927513715722,
0,1,0,0,0,0,0,1,circle,star,0,0,0,0,2,8,32,5,,,,,,,,,,,,,,,,,,,,,,,,,,,,,,,,,,,,,,,,154.74560198900872,154.74560198900872,154.74560198900872,154.74560198900872,154.74560198900872,154.74560198900872,154.74560198900872,154.74560198900872,154.74560198900872,154.74560198900872,a,0.7278437429922633,10,204,0,155.49629378001555,156.99808429300901,,,,,,,,,,,,,,,,,,,,,,,,,,,,,,,,,,,,,,,,,,,,,,,,,,,,,,,,,,,,,,,,,,,,,,,,,,44402,2022-11-16_10h16.28.891,vts_reward_expectancy_bt_OFFLINE,2022.2.4,59.927513715722,
0,0,0,1,0,1,0,0,star ,circle,0,0,0,0,2,9,33,10,,,,,,,,,,,,,,,,,,,,,,,,,,,,,,,,,,,,,,,,157.49858244601637,157.49858244601637,157.49858244601637,157.49858244601637,157.49858244601637,157.49858244601637,157.49858244601637,157.49858244601637,157.49858244601637,157.49858244601637,l,0.6524466769769788,1,205,0,158.18271561901201,159.68429174501216,,,,,,,,,,,,,,,,,,,,,,,,,,,,,,,,,,,,,,,,,,,,,,,,,,,,,,,,,,,,,,,,,,,,,,,,,,44402,2022-11-16_10h16.28.891,vts_reward_expectancy_bt_OFFLINE,2022.2.4,59.927513715722,
0,1,0,0,1,0,0,0,circle,triangle,0,0,0,0,2,10,34,3,,,,,,,,,,,,,,,,,,,,,,,,,,,,,,,,,,,,,,,,160.18493833302637,160.18493833302637,160.18493833302637,160.18493833302637,160.18493833302637,160.18493833302637,160.18493833302637,160.18493833302637,160.18493833302637,160.18493833302637,a,0.519392001995584,1,206,0,160.73553506101598,162.23721518801176,,,,,,,,,,,,,,,,,,,,,,,,,,,,,,,,,,,,,,,,,,,,,,,,,,,,,,,,,,,,,,,,,,,,,,,,,,44402,2022-11-16_10h16.28.891,vts_reward_expectancy_bt_OFFLINE,2022.2.4,59.927513715722,
1,0,0,0,0,1,0,0,triangle,circle,0,0,0,0,2,11,35,0,,,,,,,,,,,,,,,,,,,,,,,,,,,,,,,,,,,,,,,,162.73771890901844,162.73771890901844,162.73771890901844,162.73771890901844,162.73771890901844,162.73771890901844,162.73771890901844,162.73771890901844,162.73771890901844,162.73771890901844,l,0.6550959959859028,1,207,0,163.42169450601796,164.9233757420152,,,,,,,,,,,,,,,,,,,,,,,,,,,,,,,,,,,,,,,,,,,,,,,,,,,,,,,,,,,,,,,,,,,,,,,,,,44402,2022-11-16_10h16.28.891,vts_reward_expectancy_bt_OFFLINE,2022.2.4,59.927513715722,
1,0,0,0,0,1,0,0,triangle,circle,0,0,0,0,3,0,36,0,,,,,,,,,,,,,,,,,,,,,,,,,,,,,,,,,,,,,,,,165.4238996860222,165.4238996860222,165.4238996860222,165.4238996860222,165.4238996860222,165.4238996860222,165.4238996860222,165.4238996860222,165.4238996860222,165.4238996860222,a,0.3203316659783013,1,208,0,165.7743600300164,167.27589369000634,,,,,,,,,,,,,,,,,,,,,,,,,,,,,,,,,,,,,,,,,,,,,,,,,,,,,,,,,,,,,,,,,,,,,,,,,,44402,2022-11-16_10h16.28.891,vts_reward_expectancy_bt_OFFLINE,2022.2.4,59.927513715722,
0,1,0,0,1,0,0,0,circle,triangle,0,0,0,0,3,1,37,3,,,,,,,,,,,,,,,,,,,,,,,,,,,,,,,,,,,,,,,,167.7765177800029,167.7765177800029,167.7765177800029,167.7765177800029,167.7765177800029,167.7765177800029,167.7765177800029,167.7765177800029,167.7765177800029,167.7765177800029,l,0.6906239079835359,10,218,0,168.4941524740134,169.99574034902616,,,,,,,,,,,,,,,,,,,,,,,,,,,,,,,,,,,,,,,,,,,,,,,,,,,,,,,,,,,,,,,,,,,,,,,,,,44402,2022-11-16_10h16.28.891,vts_reward_expectancy_bt_OFFLINE,2022.2.4,59.927513715722,
0,1,0,0,0,0,1,0,circle,hexagon,0,0,0,0,3,2,38,4,,,,,,,,,,,,,,,,,,,,,,,,,,,,,,,,,,,,,,,,170.4963532630063,170.4963532630063,170.4963532630063,170.4963532630063,170.4963532630063,170.4963532630063,170.4963532630063,170.4963532630063,170.4963532630063,170.4963532630063,a,0.7712396610004362,10,228,0,171.2972083290224,172.79886219699983,,,,,,,,,,,,,,,,,,,,,,,,,,,,,,,,,,,,,,,,,,,,,,,,,,,,,,,,,,,,,,,,,,,,,,,,,,44402,2022-11-16_10h16.28.891,vts_reward_expectancy_bt_OFFLINE,2022.2.4,59.927513715722,
0,0,0,1,0,1,0,0,star ,circle,0,0,0,0,3,3,39,10,,,,,,,,,,,,,,,,,,,,,,,,,,,,,,,,,,,,,,,,173.29935866000596,173.29935866000596,173.29935866000596,173.29935866000596,173.29935866000596,173.29935866000596,173.29935866000596,173.29935866000596,173.29935866000596,173.29935866000596,l,0.8270629799808376,1,229,0,174.15032778002205,175.6519316760241,,,,,,,,,,,,,,,,,,,,,,,,,,,,,,,,,,,,,,,,,,,,,,,,,,,,,,,,,,,,,,,,,,,,,,,,,,44402,2022-11-16_10h16.28.891,vts_reward_expectancy_bt_OFFLINE,2022.2.4,59.927513715722,
0,0,1,0,0,1,0,0,hexagon,circle,0,0,0,0,3,4,40,7,,,,,,,,,,,,,,,,,,,,,,,,,,,,,,,,,,,,,,,,176.1525002560229,176.1525002560229,176.1525002560229,176.1525002560229,176.1525002560229,176.1525002560229,176.1525002560229,176.1525002560229,176.1525002560229,176.1525002560229,a,0.5168179449683521,10,239,0,176.68661740102107,178.18803231802303,,,,,,,,,,,,,,,,,,,,,,,,,,,,,,,,,,,,,,,,,,,,,,,,,,,,,,,,,,,,,,,,,,,,,,,,,,44402,2022-11-16_10h16.28.891,vts_reward_expectancy_bt_OFFLINE,2022.2.4,59.927513715722,
1,0,0,0,0,0,0,1,triangle,star,0,0,0,0,3,5,41,2,,,,,,,,,,,,,,,,,,,,,,,,,,,,,,,,,,,,,,,,178.6887229749991,178.6887229749991,178.6887229749991,178.6887229749991,178.6887229749991,178.6887229749991,178.6887229749991,178.6887229749991,178.6887229749991,178.6887229749991,a,0.5450086719647516,1,240,0,179.25597769700107,180.7574566230178,,,,,,,,,,,,,,,,,,,,,,,,,,,,,,,,,,,,,,,,,,,,,,,,,,,,,,,,,,,,,,,,,,,,,,,,,,44402,2022-11-16_10h16.28.891,vts_reward_expectancy_bt_OFFLINE,2022.2.4,59.927513715722,
0,0,0,1,1,0,0,0,star,triangle,0,0,0,0,3,6,42,9,,,,,,,,,,,,,,,,,,,,,,,,,,,,,,,,,,,,,,,,181.25823897501687,181.25823897501687,181.25823897501687,181.25823897501687,181.25823897501687,181.25823897501687,181.25823897501687,181.25823897501687,181.25823897501687,181.25823897501687,l,0.8207093209784944,10,250,0,182.10923239702242,183.61098875899916,,,,,,,,,,,,,,,,,,,,,,,,,,,,,,,,,,,,,,,,,,,,,,,,,,,,,,,,,,,,,,,,,,,,,,,,,,44402,2022-11-16_10h16.28.891,vts_reward_expectancy_bt_OFFLINE,2022.2.4,59.927513715722,
0,0,1,0,1,0,0,0,hexagon,triangle,0,0,0,0,3,7,43,6,,,,,,,,,,,,,,,,,,,,,,,,,,,,,,,,,,,,,,,,184.11140272102784,184.11140272102784,184.11140272102784,184.11140272102784,184.11140272102784,184.11140272102784,184.11140272102784,184.11140272102784,184.11140272102784,184.11140272102784,l,0.5903115599649027,10,260,0,184.72861241002101,186.23040995001793,,,,,,,,,,,,,,,,,,,,,,,,,,,,,,,,,,,,,,,,,,,,,,,,,,,,,,,,,,,,,,,,,,,,,,,,,,44402,2022-11-16_10h16.28.891,vts_reward_expectancy_bt_OFFLINE,2022.2.4,59.927513715722,
0,1,0,0,0,0,0,1,circle,star,0,0,0,0,3,8,44,5,,,,,,,,,,,,,,,,,,,,,,,,,,,,,,,,,,,,,,,,186.73097155202413,186.73097155202413,186.73097155202413,186.73097155202413,186.73097155202413,186.73097155202413,186.73097155202413,186.73097155202413,186.73097155202413,186.73097155202413,a,0.817251641972689,1,261,0,187.56517253202037,189.066784035007,,,,,,,,,,,,,,,,,,,,,,,,,,,,,,,,,,,,,,,,,,,,,,,,,,,,,,,,,,,,,,,,,,,,,,,,,,44402,2022-11-16_10h16.28.891,vts_reward_expectancy_bt_OFFLINE,2022.2.4,59.927513715722,
1,0,0,0,0,0,1,0,triangle,hexagon,0,0,0,0,3,9,45,1,,,,,,,,,,,,,,,,,,,,,,,,,,,,,,,,,,,,,,,,189.56734130202676,189.56734130202676,189.56734130202676,189.56734130202676,189.56734130202676,189.56734130202676,189.56734130202676,189.56734130202676,189.56734130202676,189.56734130202676,l,0.4211792729620356,10,271,0,190.01776901402627,191.51955134401214,,,,,,,,,,,,,,,,,,,,,,,,,,,,,,,,,,,,,,,,,,,,,,,,,,,,,,,,,,,,,,,,,,,,,,,,,,44402,2022-11-16_10h16.28.891,vts_reward_expectancy_bt_OFFLINE,2022.2.4,59.927513715722,
0,0,1,0,0,0,0,1,hexagon,star,0,0,0,0,3,10,46,8,,,,,,,,,,,,,,,,,,,,,,,,,,,,,,,,,,,,,,,,192.01991181302583,192.01991181302583,192.01991181302583,192.01991181302583,192.01991181302583,192.01991181302583,192.01991181302583,192.01991181302583,192.01991181302583,192.01991181302583,a,0.984951460006414,10,281,0,193.03796071000397,194.53946519602323,,,,,,,,,,,,,,,,,,,,,,,,,,,,,,,,,,,,,,,,,,,,,,,,,,,,,,,,,,,,,,,,,,,,,,,,,,44402,2022-11-16_10h16.28.891,vts_reward_expectancy_bt_OFFLINE,2022.2.4,59.927513715722,
0,0,0,1,0,0,1,0,star,hexagon,0,0,0,0,3,11,47,11,,,,,,,,,,,,,,,,,,,,,,,,,,,,,,,,,,,,,,,,195.03999514400493,195.03999514400493,195.03999514400493,195.03999514400493,195.03999514400493,195.03999514400493,195.03999514400493,195.03999514400493,195.03999514400493,195.03999514400493,l,0.787440546992002,10,291,0,195.85753421499976,197.359202001011,,,,,,,,,,,,,,,,,,,,,,,,,,,,,,,,,,,,,,,,,,,,,,,,,,,,,,,,,,,,,,,,,,,,,,,,,,44402,2022-11-16_10h16.28.891,vts_reward_expectancy_bt_OFFLINE,2022.2.4,59.927513715722,
0,0,1,0,1,0,0,0,hexagon,triangle,1,0,1,0,0,0,0,6,,,,,,,,,,,,,,,,,,,,,,,,,,,,,,,,,,,,,,,,205.12507818700396,205.12507818700396,205.12507818700396,205.12507818700396,205.12507818700396,205.12507818700396,205.12507818700396,205.12507818700396,205.12507818700396,205.12507818700396,l,1.5135763910075184,1,292,1,206.66951835501823,208.17128229801892,,,,,,,,,,,,,,,,,,,,,,,,,,,,,,,,,,,,,,,,,,,,,,,,,,,,,,,,,,,,,,,,,,,,,,,,,,44402,2022-11-16_10h16.28.891,vts_reward_expectancy_bt_OFFLINE,2022.2.4,59.927513715722,
0,1,0,0,0,0,1,0,circle,hexagon,1,0,1,0,0,1,1,4,,,,,,,,,,,,,,,,,,,,,,,,,,,,,,,,,,,,,,,,208.67179837200092,208.67179837200092,208.67179837200092,208.67179837200092,208.67179837200092,208.67179837200092,208.67179837200092,208.67179837200092,208.67179837200092,208.67179837200092,a,0.3417001630004961,1,293,1,209.03877389300033,210.54053752301843,,,,,,,,,,,,,,,,,,,,,,,,,,,,,,,,,,,,,,,,,,,,,,,,,,,,,,,,,,,,,,,,,,,,,,,,,,44402,2022-11-16_10h16.28.891,vts_reward_expectancy_bt_OFFLINE,2022.2.4,59.927513715722,
1,0,0,0,0,1,0,0,triangle,circle,1,0,1,0,0,2,2,0,,,,,,,,,,,,,,,,,,,,,,,,,,,,,,,,,,,,,,,,211.04096860601567,211.04096860601567,211.04096860601567,211.04096860601567,211.04096860601567,211.04096860601567,211.04096860601567,211.04096860601567,211.04096860601567,211.04096860601567,l,0.3128460459993221,10,303,1,211.37466792200576,212.87637630602694,,,,,,,,,,,,,,,,,,,,,,,,,,,,,,,,,,,,,,,,,,,,,,,,,,,,,,,,,,,,,,,,,,,,,,,,,,44402,2022-11-16_10h16.28.891,vts_reward_expectancy_bt_OFFLINE,2022.2.4,59.927513715722,
1,0,0,0,0,0,0,1,triangle,star,1,0,1,0,0,3,3,2,,,,,,,,,,,,,,,,,,,,,,,,,,,,,,,,,,,,,,,,213.37694150902098,213.37694150902098,213.37694150902098,213.37694150902098,213.37694150902098,213.37694150902098,213.37694150902098,213.37694150902098,213.37694150902098,213.37694150902098,l,0.5407945219776593,1,304,1,213.9441539500258,215.4457777290081,,,,,,,,,,,,,,,,,,,,,,,,,,,,,,,,,,,,,,,,,,,,,,,,,,,,,,,,,,,,,,,,,,,,,,,,,,44402,2022-11-16_10h16.28.891,vts_reward_expectancy_bt_OFFLINE,2022.2.4,59.927513715722,
0,0,1,0,0,0,0,1,hexagon,star,1,0,1,0,0,4,4,8,,,,,,,,,,,,,,,,,,,,,,,,,,,,,,,,,,,,,,,,215.94657634501345,215.94657634501345,215.94657634501345,215.94657634501345,215.94657634501345,215.94657634501345,215.94657634501345,215.94657634501345,215.94657634501345,215.94657634501345,a,0.65046022599563,1,305,1,216.61373193500913,218.11542263900628,,,,,,,,,,,,,,,,,,,,,,,,,,,,,,,,,,,,,,,,,,,,,,,,,,,,,,,,,,,,,,,,,,,,,,,,,,44402,2022-11-16_10h16.28.891,vts_reward_expectancy_bt_OFFLINE,2022.2.4,59.927513715722,
0,1,0,0,0,0,0,1,circle,star,1,0,1,0,0,5,5,5,,,,,,,,,,,,,,,,,,,,,,,,,,,,,,,,,,,,,,,,218.61613145301817,218.61613145301817,218.61613145301817,218.61613145301817,218.61613145301817,218.61613145301817,218.61613145301817,218.61613145301817,218.61613145301817,218.61613145301817,l,0.7132033799716737,10,315,1,219.35018595302245,220.85172758201952,,,,,,,,,,,,,,,,,,,,,,,,,,,,,,,,,,,,,,,,,,,,,,,,,,,,,,,,,,,,,,,,,,,,,,,,,,44402,2022-11-16_10h16.28.891,vts_reward_expectancy_bt_OFFLINE,2022.2.4,59.927513715722,
0,0,0,1,1,0,0,0,star,triangle,1,0,1,0,0,6,6,9,,,,,,,,,,,,,,,,,,,,,,,,,,,,,,,,,,,,,,,,221.35236241901293,221.35236241901293,221.35236241901293,221.35236241901293,221.35236241901293,221.35236241901293,221.35236241901293,221.35236241901293,221.35236241901293,221.35236241901293,l,0.39599065398215316,10,325,1,221.76943810100784,223.27119191200472,,,,,,,,,,,,,,,,,,,,,,,,,,,,,,,,,,,,,,,,,,,,,,,,,,,,,,,,,,,,,,,,,,,,,,,,,,44402,2022-11-16_10h16.28.891,vts_reward_expectancy_bt_OFFLINE,2022.2.4,59.927513715722,
0,0,0,1,0,1,0,0,star ,circle,1,0,1,0,0,7,7,10,,,,,,,,,,,,,,,,,,,,,,,,,,,,,,,,,,,,,,,,223.7716784690274,223.7716784690274,223.7716784690274,223.7716784690274,223.7716784690274,223.7716784690274,223.7716784690274,223.7716784690274,223.7716784690274,223.7716784690274,a,0.4522312549815979,10,335,1,224.255485702015,225.75732422299916,,,,,,,,,,,,,,,,,,,,,,,,,,,,,,,,,,,,,,,,,,,,,,,,,,,,,,,,,,,,,,,,,,,,,,,,,,44402,2022-11-16_10h16.28.891,vts_reward_expectancy_bt_OFFLINE,2022.2.4,59.927513715722,
0,1,0,0,1,0,0,0,circle,triangle,1,0,1,0,0,8,8,3,,,,,,,,,,,,,,,,,,,,,,,,,,,,,,,,,,,,,,,,226.25788954502787,226.25788954502787,226.25788954502787,226.25788954502787,226.25788954502787,226.25788954502787,226.25788954502787,226.25788954502787,226.25788954502787,226.25788954502787,l,0.7219011699780822,10,345,1,227.00867580101476,228.51030330301728,,,,,,,,,,,,,,,,,,,,,,,,,,,,,,,,,,,,,,,,,,,,,,,,,,,,,,,,,,,,,,,,,,,,,,,,,,44402,2022-11-16_10h16.28.891,vts_reward_expectancy_bt_OFFLINE,2022.2.4,59.927513715722,
0,0,0,1,0,0,1,0,star,hexagon,1,0,1,0,0,9,9,11,,,,,,,,,,,,,,,,,,,,,,,,,,,,,,,,,,,,,,,,229.01076675701188,229.01076675701188,229.01076675701188,229.01076675701188,229.01076675701188,229.01076675701188,229.01076675701188,229.01076675701188,229.01076675701188,229.01076675701188,l,0.30926330396323465,10,355,1,229.3445215030224,230.84623421900324,,,,,,,,,,,,,,,,,,,,,,,,,,,,,,,,,,,,,,,,,,,,,,,,,,,,,,,,,,,,,,,,,,,,,,,,,,44402,2022-11-16_10h16.28.891,vts_reward_expectancy_bt_OFFLINE,2022.2.4,59.927513715722,
1,0,0,0,0,0,1,0,triangle,hexagon,1,0,1,0,0,10,10,1,,,,,,,,,,,,,,,,,,,,,,,,,,,,,,,,,,,,,,,,231.34671614400577,231.34671614400577,231.34671614400577,231.34671614400577,231.34671614400577,231.34671614400577,231.34671614400577,231.34671614400577,231.34671614400577,231.34671614400577,a,1.2581866769760381,1,356,1,232.63156510001863,234.1331838699989,,,,,,,,,,,,,,,,,,,,,,,,,,,,,,,,,,,,,,,,,,,,,,,,,,,,,,,,,,,,,,,,,,,,,,,,,,44402,2022-11-16_10h16.28.891,vts_reward_expectancy_bt_OFFLINE,2022.2.4,59.927513715722,
0,0,1,0,0,1,0,0,hexagon,circle,1,0,1,0,0,11,11,7,,,,,,,,,,,,,,,,,,,,,,,,,,,,,,,,,,,,,,,,234.6335898140096,234.6335898140096,234.6335898140096,234.6335898140096,234.6335898140096,234.6335898140096,234.6335898140096,234.6335898140096,234.6335898140096,234.6335898140096,l,1.1883809929713607,1,357,1,235.85183410102036,237.3534476000059,,,,,,,,,,,,,,,,,,,,,,,,,,,,,,,,,,,,,,,,,,,,,,,,,,,,,,,,,,,,,,,,,,,,,,,,,,44402,2022-11-16_10h16.28.891,vts_reward_expectancy_bt_OFFLINE,2022.2.4,59.927513715722,
0,0,1,0,0,1,0,0,hexagon,circle,1,0,1,0,1,0,12,7,,,,,,,,,,,,,,,,,,,,,,,,,,,,,,,,,,,,,,,,237.85379652201664,237.85379652201664,237.85379652201664,237.85379652201664,237.85379652201664,237.85379652201664,237.85379652201664,237.85379652201664,237.85379652201664,237.85379652201664,l,0.42193750696606,1,358,1,238.30445760200382,239.80607948702527,,,,,,,,,,,,,,,,,,,,,,,,,,,,,,,,,,,,,,,,,,,,,,,,,,,,,,,,,,,,,,,,,,,,,,,,,,44402,2022-11-16_10h16.28.891,vts_reward_expectancy_bt_OFFLINE,2022.2.4,59.927513715722,
0,0,1,0,1,0,0,0,hexagon,triangle,1,0,1,0,1,1,13,6,,,,,,,,,,,,,,,,,,,,,,,,,,,,,,,,,,,,,,,,240.30678462202195,240.30678462202195,240.30678462202195,240.30678462202195,240.30678462202195,240.30678462202195,240.30678462202195,240.30678462202195,240.30678462202195,240.30678462202195,a,0.3994004519772716,10,368,1,240.72366741101723,242.225440817012,,,,,,,,,,,,,,,,,,,,,,,,,,,,,,,,,,,,,,,,,,,,,,,,,,,,,,,,,,,,,,,,,,,,,,,,,,44402,2022-11-16_10h16.28.891,vts_reward_expectancy_bt_OFFLINE,2022.2.4,59.927513715722,
1,0,0,0,0,0,1,0,triangle,hexagon,1,0,1,0,1,2,14,1,,,,,,,,,,,,,,,,,,,,,,,,,,,,,,,,,,,,,,,,242.72592610301217,242.72592610301217,242.72592610301217,242.72592610301217,242.72592610301217,242.72592610301217,242.72592610301217,242.72592610301217,242.72592610301217,242.72592610301217,a,0.5904827780032065,10,378,1,243.34336498202174,244.8448869860149,,,,,,,,,,,,,,,,,,,,,,,,,,,,,,,,,,,,,,,,,,,,,,,,,,,,,,,,,,,,,,,,,,,,,,,,,,44402,2022-11-16_10h16.28.891,vts_reward_expectancy_bt_OFFLINE,2022.2.4,59.927513715722,
0,1,0,0,1,0,0,0,circle,triangle,1,0,1,0,1,3,15,3,,,,,,,,,,,,,,,,,,,,,,,,,,,,,,,,,,,,,,,,245.34536664400366,245.34536664400366,245.34536664400366,245.34536664400366,245.34536664400366,245.34536664400366,245.34536664400366,245.34536664400366,245.34536664400366,245.34536664400366,l,0.7163554819999263,10,388,1,246.0796179040044,247.58117526600836,,,,,,,,,,,,,,,,,,,,,,,,,,,,,,,,,,,,,,,,,,,,,,,,,,,,,,,,,,,,,,,,,,,,,,,,,,44402,2022-11-16_10h16.28.891,vts_reward_expectancy_bt_OFFLINE,2022.2.4,59.927513715722,
0,0,0,1,0,0,1,0,star,hexagon,1,0,1,0,1,4,16,11,,,,,,,,,,,,,,,,,,,,,,,,,,,,,,,,,,,,,,,,248.08175534399925,248.08175534399925,248.08175534399925,248.08175534399925,248.08175534399925,248.08175534399925,248.08175534399925,248.08175534399925,248.08175534399925,248.08175534399925,l,0.960667024977738,10,398,1,249.06632892999914,250.5679179430008,,,,,,,,,,,,,,,,,,,,,,,,,,,,,,,,,,,,,,,,,,,,,,,,,,,,,,,,,,,,,,,,,,,,,,,,,,44402,2022-11-16_10h16.28.891,vts_reward_expectancy_bt_OFFLINE,2022.2.4,59.927513715722,
0,0,1,0,0,0,0,1,hexagon,star,1,0,1,0,1,5,17,8,,,,,,,,,,,,,,,,,,,,,,,,,,,,,,,,,,,,,,,,251.06865540900617,251.06865540900617,251.06865540900617,251.06865540900617,251.06865540900617,251.06865540900617,251.06865540900617,251.06865540900617,251.06865540900617,251.06865540900617,a,1.0565395429730415,10,408,1,252.15306611801498,253.65461283901823,,,,,,,,,,,,,,,,,,,,,,,,,,,,,,,,,,,,,,,,,,,,,,,,,,,,,,,,,,,,,,,,,,,,,,,,,,44402,2022-11-16_10h16.28.891,vts_reward_expectancy_bt_OFFLINE,2022.2.4,59.927513715722,
0,0,0,1,0,1,0,0,star ,circle,1,0,1,0,1,6,18,10,,,,,,,,,,,,,,,,,,,,,,,,,,,,,,,,,,,,,,,,254.15525836701272,254.15525836701272,254.15525836701272,254.15525836701272,254.15525836701272,254.15525836701272,254.15525836701272,254.15525836701272,254.15525836701272,254.15525836701272,l,0.5681276399991475,1,409,1,254.75606170401443,256.2574670560134,,,,,,,,,,,,,,,,,,,,,,,,,,,,,,,,,,,,,,,,,,,,,,,,,,,,,,,,,,,,,,,,,,,,,,,,,,44402,2022-11-16_10h16.28.891,vts_reward_expectancy_bt_OFFLINE,2022.2.4,59.927513715722,
0,1,0,0,0,0,0,1,circle,star,1,0,1,0,1,7,19,5,,,,,,,,,,,,,,,,,,,,,,,,,,,,,,,,,,,,,,,,256.75803506202647,256.75803506202647,256.75803506202647,256.75803506202647,256.75803506202647,256.75803506202647,256.75803506202647,256.75803506202647,256.75803506202647,256.75803506202647,a,1.2062574489682447,10,419,1,257.99270739100757,259.49443361500744,,,,,,,,,,,,,,,,,,,,,,,,,,,,,,,,,,,,,,,,,,,,,,,,,,,,,,,,,,,,,,,,,,,,,,,,,,44402,2022-11-16_10h16.28.891,vts_reward_expectancy_bt_OFFLINE,2022.2.4,59.927513715722,
0,1,0,0,0,0,1,0,circle,hexagon,1,0,1,0,1,8,20,4,,,,,,,,,,,,,,,,,,,,,,,,,,,,,,,,,,,,,,,,259.99511632401845,259.99511632401845,259.99511632401845,259.99511632401845,259.99511632401845,259.99511632401845,259.99511632401845,259.99511632401845,259.99511632401845,259.99511632401845,l,0.9504762300057337,1,420,1,260.96276113099884,262.4643476700003,,,,,,,,,,,,,,,,,,,,,,,,,,,,,,,,,,,,,,,,,,,,,,,,,,,,,,,,,,,,,,,,,,,,,,,,,,44402,2022-11-16_10h16.28.891,vts_reward_expectancy_bt_OFFLINE,2022.2.4,59.927513715722,
0,0,0,1,1,0,0,0,star,triangle,1,0,1,0,1,9,21,9,,,,,,,,,,,,,,,,,,,,,,,,,,,,,,,,,,,,,,,,262.96489700701204,262.96489700701204,262.96489700701204,262.96489700701204,262.96489700701204,262.96489700701204,262.96489700701204,262.96489700701204,262.96489700701204,262.96489700701204,l,0.9051590969611425,1,421,1,263.89925044201664,265.4010521120217,,,,,,,,,,,,,,,,,,,,,,,,,,,,,,,,,,,,,,,,,,,,,,,,,,,,,,,,,,,,,,,,,,,,,,,,,,44402,2022-11-16_10h16.28.891,vts_reward_expectancy_bt_OFFLINE,2022.2.4,59.927513715722,
1,0,0,0,0,1,0,0,triangle,circle,1,0,1,0,1,10,22,0,,,,,,,,,,,,,,,,,,,,,,,,,,,,,,,,,,,,,,,,265.9014627270226,265.9014627270226,265.9014627270226,265.9014627270226,265.9014627270226,265.9014627270226,265.9014627270226,265.9014627270226,265.9014627270226,265.9014627270226,l,0.7698422209941782,1,422,1,266.7023295760155,268.20400785200763,,,,,,,,,,,,,,,,,,,,,,,,,,,,,,,,,,,,,,,,,,,,,,,,,,,,,,,,,,,,,,,,,,,,,,,,,,44402,2022-11-16_10h16.28.891,vts_reward_expectancy_bt_OFFLINE,2022.2.4,59.927513715722,
1,0,0,0,0,0,0,1,triangle,star,1,0,1,0,1,11,23,2,,,,,,,,,,,,,,,,,,,,,,,,,,,,,,,,,,,,,,,,268.70464610800263,268.70464610800263,268.70464610800263,268.70464610800263,268.70464610800263,268.70464610800263,268.70464610800263,268.70464610800263,268.70464610800263,268.70464610800263,a,0.34091468699625693,1,423,1,269.07161643801373,270.5733141620003,,,,,,,,,,,,,,,,,,,,,,,,,,,,,,,,,,,,,,,,,,,,,,,,,,,,,,,,,,,,,,,,,,,,,,,,,,44402,2022-11-16_10h16.28.891,vts_reward_expectancy_bt_OFFLINE,2022.2.4,59.927513715722,
1,0,0,0,0,0,0,1,triangle,star,1,0,1,0,2,0,24,2,,,,,,,,,,,,,,,,,,,,,,,,,,,,,,,,,,,,,,,,271.0739013260172,271.0739013260172,271.0739013260172,271.0739013260172,271.0739013260172,271.0739013260172,271.0739013260172,271.0739013260172,271.0739013260172,271.0739013260172,l,0.5920653269859031,1,424,1,271.6912359180278,273.19274458801374,,,,,,,,,,,,,,,,,,,,,,,,,,,,,,,,,,,,,,,,,,,,,,,,,,,,,,,,,,,,,,,,,,,,,,,,,,44402,2022-11-16_10h16.28.891,vts_reward_expectancy_bt_OFFLINE,2022.2.4,59.927513715722,
0,0,0,1,0,0,1,0,star,hexagon,1,0,1,0,2,1,25,11,,,,,,,,,,,,,,,,,,,,,,,,,,,,,,,,,,,,,,,,273.69348018302117,273.69348018302117,273.69348018302117,273.69348018302117,273.69348018302117,273.69348018302117,273.69348018302117,273.69348018302117,273.69348018302117,273.69348018302117,l,0.9766242579789832,10,434,1,274.69460049801273,276.19618087401614,,,,,,,,,,,,,,,,,,,,,,,,,,,,,,,,,,,,,,,,,,,,,,,,,,,,,,,,,,,,,,,,,,,,,,,,,,44402,2022-11-16_10h16.28.891,vts_reward_expectancy_bt_OFFLINE,2022.2.4,59.927513715722,
0,0,1,0,1,0,0,0,hexagon,triangle,1,0,1,0,2,2,26,6,,,,,,,,,,,,,,,,,,,,,,,,,,,,,,,,,,,,,,,,276.69675804302096,276.69675804302096,276.69675804302096,276.69675804302096,276.69675804302096,276.69675804302096,276.69675804302096,276.69675804302096,276.69675804302096,276.69675804302096,a,0.44954824197338894,10,444,1,277.163918500999,278.66571484602173,,,,,,,,,,,,,,,,,,,,,,,,,,,,,,,,,,,,,,,,,,,,,,,,,,,,,,,,,,,,,,,,,,,,,,,,,,44402,2022-11-16_10h16.28.891,vts_reward_expectancy_bt_OFFLINE,2022.2.4,59.927513715722,
1,0,0,0,0,1,0,0,triangle,circle,1,0,1,0,2,3,27,0,,,,,,,,,,,,,,,,,,,,,,,,,,,,,,,,,,,,,,,,279.1661927230016,279.1661927230016,279.1661927230016,279.1661927230016,279.1661927230016,279.1661927230016,279.1661927230016,279.1661927230016,279.1661927230016,279.1661927230016,l,0.8492648879764602,10,454,1,280.0337465699995,281.5355201950006,,,,,,,,,,,,,,,,,,,,,,,,,,,,,,,,,,,,,,,,,,,,,,,,,,,,,,,,,,,,,,,,,,,,,,,,,,44402,2022-11-16_10h16.28.891,vts_reward_expectancy_bt_OFFLINE,2022.2.4,59.927513715722,
1,0,0,0,0,0,1,0,triangle,hexagon,1,0,1,0,2,4,28,1,,,,,,,,,,,,,,,,,,,,,,,,,,,,,,,,,,,,,,,,282.03613244902226,282.03613244902226,282.03613244902226,282.03613244902226,282.03613244902226,282.03613244902226,282.03613244902226,282.03613244902226,282.03613244902226,282.03613244902226,l,0.768723710993072,1,455,1,282.83698933100095,284.33851711600437,,,,,,,,,,,,,,,,,,,,,,,,,,,,,,,,,,,,,,,,,,,,,,,,,,,,,,,,,,,,,,,,,,,,,,,,,,44402,2022-11-16_10h16.28.891,vts_reward_expectancy_bt_OFFLINE,2022.2.4,59.927513715722,
0,0,0,1,0,1,0,0,star ,circle,1,0,1,0,2,5,29,10,,,,,,,,,,,,,,,,,,,,,,,,,,,,,,,,,,,,,,,,284.8389470070251,284.8389470070251,284.8389470070251,284.8389470070251,284.8389470070251,284.8389470070251,284.8389470070251,284.8389470070251,284.8389470070251,284.8389470070251,l,0.4405170919781085,10,465,1,285.3062925640261,286.80793130901293,,,,,,,,,,,,,,,,,,,,,,,,,,,,,,,,,,,,,,,,,,,,,,,,,,,,,,,,,,,,,,,,,,,,,,,,,,44402,2022-11-16_10h16.28.891,vts_reward_expectancy_bt_OFFLINE,2022.2.4,59.927513715722,
0,1,0,0,0,0,0,1,circle,star,1,0,1,0,2,6,30,5,,,,,,,,,,,,,,,,,,,,,,,,,,,,,,,,,,,,,,,,287.30846703102,287.30846703102,287.30846703102,287.30846703102,287.30846703102,287.30846703102,287.30846703102,287.30846703102,287.30846703102,287.30846703102,a,0.8178596989891957,1,466,1,288.15936872101156,289.6610382910003,,,,,,,,,,,,,,,,,,,,,,,,,,,,,,,,,,,,,,,,,,,,,,,,,,,,,,,,,,,,,,,,,,,,,,,,,,44402,2022-11-16_10h16.28.891,vts_reward_expectancy_bt_OFFLINE,2022.2.4,59.927513715722,
0,0,1,0,0,1,0,0,hexagon,circle,1,0,1,0,2,7,31,7,,,,,,,,,,,,,,,,,,,,,,,,,,,,,,,,,,,,,,,,290.16173342900584,290.16173342900584,290.16173342900584,290.16173342900584,290.16173342900584,290.16173342900584,290.16173342900584,290.16173342900584,290.16173342900584,290.16173342900584,l,0.5737131709756795,1,467,1,290.762309984013,292.2640691870183,,,,,,,,,,,,,,,,,,,,,,,,,,,,,,,,,,,,,,,,,,,,,,,,,,,,,,,,,,,,,,,,,,,,,,,,,,44402,2022-11-16_10h16.28.891,vts_reward_expectancy_bt_OFFLINE,2022.2.4,59.927513715722,
0,0,0,1,1,0,0,0,star,triangle,1,0,1,0,2,8,32,9,,,,,,,,,,,,,,,,,,,,,,,,,,,,,,,,,,,,,,,,292.7646427200234,292.7646427200234,292.7646427200234,292.7646427200234,292.7646427200234,292.7646427200234,292.7646427200234,292.7646427200234,292.7646427200234,292.7646427200234,a,0.5490059649746399,10,477,1,293.3316304210166,294.8334227100131,,,,,,,,,,,,,,,,,,,,,,,,,,,,,,,,,,,,,,,,,,,,,,,,,,,,,,,,,,,,,,,,,,,,,,,,,,44402,2022-11-16_10h16.28.891,vts_reward_expectancy_bt_OFFLINE,2022.2.4,59.927513715722,
0,1,0,0,1,0,0,0,circle,triangle,1,0,1,0,2,9,33,3,,,,,,,,,,,,,,,,,,,,,,,,,,,,,,,,,,,,,,,,295.3338923070114,295.3338923070114,295.3338923070114,295.3338923070114,295.3338923070114,295.3338923070114,295.3338923070114,295.3338923070114,295.3338923070114,295.3338923070114,l,0.6002327829774003,1,478,1,295.9512615929998,297.45299179301946,,,,,,,,,,,,,,,,,,,,,,,,,,,,,,,,,,,,,,,,,,,,,,,,,,,,,,,,,,,,,,,,,,,,,,,,,,44402,2022-11-16_10h16.28.891,vts_reward_expectancy_bt_OFFLINE,2022.2.4,59.927513715722,
0,0,1,0,0,0,0,1,hexagon,star,1,0,1,0,2,10,34,8,,,,,,,,,,,,,,,,,,,,,,,,,,,,,,,,,,,,,,,,297.953569860023,297.953569860023,297.953569860023,297.953569860023,297.953569860023,297.953569860023,297.953569860023,297.953569860023,297.953569860023,297.953569860023,a,0.9615247969923075,10,488,1,298.93794399601757,300.4394319160201,,,,,,,,,,,,,,,,,,,,,,,,,,,,,,,,,,,,,,,,,,,,,,,,,,,,,,,,,,,,,,,,,,,,,,,,,,44402,2022-11-16_10h16.28.891,vts_reward_expectancy_bt_OFFLINE,2022.2.4,59.927513715722,
0,1,0,0,0,0,1,0,circle,hexagon,1,0,1,0,2,11,35,4,,,,,,,,,,,,,,,,,,,,,,,,,,,,,,,,,,,,,,,,300.9400112160074,300.9400112160074,300.9400112160074,300.9400112160074,300.9400112160074,300.9400112160074,300.9400112160074,300.9400112160074,300.9400112160074,300.9400112160074,a,0.5966044160013553,1,489,1,301.55753080002614,303.05901667600847,,,,,,,,,,,,,,,,,,,,,,,,,,,,,,,,,,,,,,,,,,,,,,,,,,,,,,,,,,,,,,,,,,,,,,,,,,44402,2022-11-16_10h16.28.891,vts_reward_expectancy_bt_OFFLINE,2022.2.4,59.927513715722,
0,0,1,0,0,1,0,0,hexagon,circle,1,0,1,0,3,0,36,7,,,,,,,,,,,,,,,,,,,,,,,,,,,,,,,,,,,,,,,,303.55968258800567,303.55968258800567,303.55968258800567,303.55968258800567,303.55968258800567,303.55968258800567,303.55968258800567,303.55968258800567,303.55968258800567,303.55968258800567,l,0.5521120609773789,10,499,1,304.14386204100447,305.64533605400356,,,,,,,,,,,,,,,,,,,,,,,,,,,,,,,,,,,,,,,,,,,,,,,,,,,,,,,,,,,,,,,,,,,,,,,,,,44402,2022-11-16_10h16.28.891,vts_reward_expectancy_bt_OFFLINE,2022.2.4,59.927513715722,
0,0,0,1,1,0,0,0,star,triangle,1,0,1,0,3,1,37,9,,,,,,,,,,,,,,,,,,,,,,,,,,,,,,,,,,,,,,,,306.1458619260229,306.1458619260229,306.1458619260229,306.1458619260229,306.1458619260229,306.1458619260229,306.1458619260229,306.1458619260229,306.1458619260229,306.1458619260229,l,0.9030656119866762,10,509,1,307.0803105280211,308.5818882860185,,,,,,,,,,,,,,,,,,,,,,,,,,,,,,,,,,,,,,,,,,,,,,,,,,,,,,,,,,,,,,,,,,,,,,,,,,44402,2022-11-16_10h16.28.891,vts_reward_expectancy_bt_OFFLINE,2022.2.4,59.927513715722,
0,0,1,0,0,0,0,1,hexagon,star,1,0,1,0,3,2,38,8,,,,,,,,,,,,,,,,,,,,,,,,,,,,,,,,,,,,,,,,309.08252155102673,309.08252155102673,309.08252155102673,309.08252155102673,309.08252155102673,309.08252155102673,309.08252155102673,309.08252155102673,309.08252155102673,309.08252155102673,a,0.9923847249883693,1,510,1,310.1002381819999,311.6019610860094,,,,,,,,,,,,,,,,,,,,,,,,,,,,,,,,,,,,,,,,,,,,,,,,,,,,,,,,,,,,,,,,,,,,,,,,,,44402,2022-11-16_10h16.28.891,vts_reward_expectancy_bt_OFFLINE,2022.2.4,59.927513715722,
1,0,0,0,0,0,1,0,triangle,hexagon,1,0,1,0,3,3,39,1,,,,,,,,,,,,,,,,,,,,,,,,,,,,,,,,,,,,,,,,312.10244823401445,312.10244823401445,312.10244823401445,312.10244823401445,312.10244823401445,312.10244823401445,312.10244823401445,312.10244823401445,312.10244823401445,312.10244823401445,l,0.6175480459642131,10,520,1,312.7365388900216,314.2381739920238,,,,,,,,,,,,,,,,,,,,,,,,,,,,,,,,,,,,,,,,,,,,,,,,,,,,,,,,,,,,,,,,,,,,,,,,,,44402,2022-11-16_10h16.28.891,vts_reward_expectancy_bt_OFFLINE,2022.2.4,59.927513715722,
1,0,0,0,0,0,0,1,triangle,star,1,0,1,0,3,4,40,2,,,,,,,,,,,,,,,,,,,,,,,,,,,,,,,,,,,,,,,,314.73879503502394,314.73879503502394,314.73879503502394,314.73879503502394,314.73879503502394,314.73879503502394,314.73879503502394,314.73879503502394,314.73879503502394,314.73879503502394,a,0.8934082879859488,10,530,1,315.6565385500144,317.1581338579999,,,,,,,,,,,,,,,,,,,,,,,,,,,,,,,,,,,,,,,,,,,,,,,,,,,,,,,,,,,,,,,,,,,,,,,,,,44402,2022-11-16_10h16.28.891,vts_reward_expectancy_bt_OFFLINE,2022.2.4,59.927513715722,
1,0,0,0,0,1,0,0,triangle,circle,1,0,1,0,3,5,41,0,,,,,,,,,,,,,,,,,,,,,,,,,,,,,,,,,,,,,,,,317.6586059240217,317.6586059240217,317.6586059240217,317.6586059240217,317.6586059240217,317.6586059240217,317.6586059240217,317.6586059240217,317.6586059240217,317.6586059240217,l,0.7868685489811469,1,531,1,318.476118045015,319.9777907770185,,,,,,,,,,,,,,,,,,,,,,,,,,,,,,,,,,,,,,,,,,,,,,,,,,,,,,,,,,,,,,,,,,,,,,,,,,44402,2022-11-16_10h16.28.891,vts_reward_expectancy_bt_OFFLINE,2022.2.4,59.927513715722,
0,1,0,0,0,0,0,1,circle,star,1,0,1,0,3,6,42,5,,,,,,,,,,,,,,,,,,,,,,,,,,,,,,,,,,,,,,,,320.4784451810119,320.4784451810119,320.4784451810119,320.4784451810119,320.4784451810119,320.4784451810119,320.4784451810119,320.4784451810119,320.4784451810119,320.4784451810119,a,0.9939972979773302,1,532,1,321.49620044001495,322.99783451101393,,,,,,,,,,,,,,,,,,,,,,,,,,,,,,,,,,,,,,,,,,,,,,,,,,,,,,,,,,,,,,,,,,,,,,,,,,44402,2022-11-16_10h16.28.891,vts_reward_expectancy_bt_OFFLINE,2022.2.4,59.927513715722,
0,0,0,1,0,1,0,0,star ,circle,1,0,1,0,3,7,43,10,,,,,,,,,,,,,,,,,,,,,,,,,,,,,,,,,,,,,,,,323.4982814040268,323.4982814040268,323.4982814040268,323.4982814040268,323.4982814040268,323.4982814040268,323.4982814040268,323.4982814040268,323.4982814040268,323.4982814040268,l,0.6071422909735702,1,533,1,324.1317033720261,325.63414499000646,,,,,,,,,,,,,,,,,,,,,,,,,,,,,,,,,,,,,,,,,,,,,,,,,,,,,,,,,,,,,,,,,,,,,,,,,,44402,2022-11-16_10h16.28.891,vts_reward_expectancy_bt_OFFLINE,2022.2.4,59.927513715722,
0,0,1,0,1,0,0,0,hexagon,triangle,1,0,1,0,3,8,44,6,,,,,,,,,,,,,,,,,,,,,,,,,,,,,,,,,,,,,,,,326.13458433101187,326.13458433101187,326.13458433101187,326.13458433101187,326.13458433101187,326.13458433101187,326.13458433101187,326.13458433101187,326.13458433101187,326.13458433101187,a,0.7366372589895036,10,543,1,326.9020766200265,328.4037968790217,,,,,,,,,,,,,,,,,,,,,,,,,,,,,,,,,,,,,,,,,,,,,,,,,,,,,,,,,,,,,,,,,,,,,,,,,,44402,2022-11-16_10h16.28.891,vts_reward_expectancy_bt_OFFLINE,2022.2.4,59.927513715722,
0,1,0,0,1,0,0,0,circle,triangle,1,0,1,0,3,9,45,3,,,,,,,,,,,,,,,,,,,,,,,,,,,,,,,,,,,,,,,,328.9044112190022,328.9044112190022,328.9044112190022,328.9044112190022,328.9044112190022,328.9044112190022,328.9044112190022,328.9044112190022,328.9044112190022,328.9044112190022,l,0.893405205977615,1,544,1,329.8219939430128,331.32378847300424,,,,,,,,,,,,,,,,,,,,,,,,,,,,,,,,,,,,,,,,,,,,,,,,,,,,,,,,,,,,,,,,,,,,,,,,,,44402,2022-11-16_10h16.28.891,vts_reward_expectancy_bt_OFFLINE,2022.2.4,59.927513715722,
0,1,0,0,0,0,1,0,circle,hexagon,1,0,1,0,3,10,46,4,,,,,,,,,,,,,,,,,,,,,,,,,,,,,,,,,,,,,,,,331.824289303011,331.824289303011,331.824289303011,331.824289303011,331.824289303011,331.824289303011,331.824289303011,331.824289303011,331.824289303011,331.824289303011,a,0.628335352987051,1,545,1,332.47485354699893,333.976749502006,,,,,,,,,,,,,,,,,,,,,,,,,,,,,,,,,,,,,,,,,,,,,,,,,,,,,,,,,,,,,,,,,,,,,,,,,,44402,2022-11-16_10h16.28.891,vts_reward_expectancy_bt_OFFLINE,2022.2.4,59.927513715722,
0,0,0,1,0,0,1,0,star,hexagon,1,0,1,0,3,11,47,11,,,,,,,,,,,,,,,,,,,,,,,,,,,,,,,,,,,,,,,,334.47725123900454,334.47725123900454,334.47725123900454,334.47725123900454,334.47725123900454,334.47725123900454,334.47725123900454,334.47725123900454,334.47725123900454,334.47725123900454,l,0.6183604160032701,1,546,1,335.12794003202,336.6296418120037,,,,,,,,,,,,,,,,,,,,,,,,,,,,,,,,,,,,,,,,,,,,,,,,,,,,,,,,,,,,,,,,,,,,,,,,,,44402,2022-11-16_10h16.28.891,vts_reward_expectancy_bt_OFFLINE,2022.2.4,59.927513715722,
0,1,0,0,0,0,0,1,circle,star,2,0,2,0,0,0,0,5,,,,,,,,,,,,,,,,,,,,,,,,,,,,,,,,,,,,,,,,339.10686862902367,339.10686862902367,339.10686862902367,339.10686862902367,339.10686862902367,339.10686862902367,339.10686862902367,339.10686862902367,339.10686862902367,339.10686862902367,a,1.3210361619712785,1,547,2,340.450335660018,341.9520331370004,,,,,,,,,,,,,,,,,,,,,,,,,,,,,,,,,,,,,,,,,,,,,,,,,,,,,,,,,,,,,,,,,,,,,,,,,,44402,2022-11-16_10h16.28.891,vts_reward_expectancy_bt_OFFLINE,2022.2.4,59.927513715722,
0,1,0,0,1,0,0,0,circle,triangle,2,0,2,0,0,1,1,3,,,,,,,,,,,,,,,,,,,,,,,,,,,,,,,,,,,,,,,,342.45253381400835,342.45253381400835,342.45253381400835,342.45253381400835,342.45253381400835,342.45253381400835,342.45253381400835,342.45253381400835,342.45253381400835,342.45253381400835,l,0.7090537289914209,10,557,2,343.18672264102497,344.68836791600916,,,,,,,,,,,,,,,,,,,,,,,,,,,,,,,,,,,,,,,,,,,,,,,,,,,,,,,,,,,,,,,,,,,,,,,,,,44402,2022-11-16_10h16.28.891,vts_reward_expectancy_bt_OFFLINE,2022.2.4,59.927513715722,
0,0,0,1,0,0,1,0,star,hexagon,2,0,2,0,0,2,2,11,,,,,,,,,,,,,,,,,,,,,,,,,,,,,,,,,,,,,,,,345.1890087230131,345.1890087230131,345.1890087230131,345.1890087230131,345.1890087230131,345.1890087230131,345.1890087230131,345.1890087230131,345.1890087230131,345.1890087230131,l,1.0103744879888836,1,558,2,346.2233759550145,347.7249878620205,,,,,,,,,,,,,,,,,,,,,,,,,,,,,,,,,,,,,,,,,,,,,,,,,,,,,,,,,,,,,,,,,,,,,,,,,,44402,2022-11-16_10h16.28.891,vts_reward_expectancy_bt_OFFLINE,2022.2.4,59.927513715722,
0,0,1,0,0,0,0,1,hexagon,star,2,0,2,0,0,3,3,8,,,,,,,,,,,,,,,,,,,,,,,,,,,,,,,,,,,,,,,,348.2255686550052,348.2255686550052,348.2255686550052,348.2255686550052,348.2255686550052,348.2255686550052,348.2255686550052,348.2255686550052,348.2255686550052,348.2255686550052,a,0.8333138269954361,1,559,2,349.0766177660262,350.5782188840094,,,,,,,,,,,,,,,,,,,,,,,,,,,,,,,,,,,,,,,,,,,,,,,,,,,,,,,,,,,,,,,,,,,,,,,,,,44402,2022-11-16_10h16.28.891,vts_reward_expectancy_bt_OFFLINE,2022.2.4,59.927513715722,
0,0,0,1,0,1,0,0,star ,circle,2,0,2,0,0,4,4,10,,,,,,,,,,,,,,,,,,,,,,,,,,,,,,,,,,,,,,,,351.0788724000158,351.0788724000158,351.0788724000158,351.0788724000158,351.0788724000158,351.0788724000158,351.0788724000158,351.0788724000158,351.0788724000158,351.0788724000158,l,0.7573296549962834,1,560,2,351.86309067101683,353.3646238860092,,,,,,,,,,,,,,,,,,,,,,,,,,,,,,,,,,,,,,,,,,,,,,,,,,,,,,,,,,,,,,,,,,,,,,,,,,44402,2022-11-16_10h16.28.891,vts_reward_expectancy_bt_OFFLINE,2022.2.4,59.927513715722,
0,0,0,1,1,0,0,0,star,triangle,2,0,2,0,0,5,5,9,,,,,,,,,,,,,,,,,,,,,,,,,,,,,,,,,,,,,,,,353.86539189101313,353.86539189101313,353.86539189101313,353.86539189101313,353.86539189101313,353.86539189101313,353.86539189101313,353.86539189101313,353.86539189101313,353.86539189101313,a,0.8963665439805482,10,570,2,354.78289822200895,356.2845652940159,,,,,,,,,,,,,,,,,,,,,,,,,,,,,,,,,,,,,,,,,,,,,,,,,,,,,,,,,,,,,,,,,,,,,,,,,,44402,2022-11-16_10h16.28.891,vts_reward_expectancy_bt_OFFLINE,2022.2.4,59.927513715722,
0,0,1,0,0,1,0,0,hexagon,circle,2,0,2,0,0,6,6,7,,,,,,,,,,,,,,,,,,,,,,,,,,,,,,,,,,,,,,,,356.78506105800625,356.78506105800625,356.78506105800625,356.78506105800625,356.78506105800625,356.78506105800625,356.78506105800625,356.78506105800625,356.78506105800625,356.78506105800625,l,1.4751336560002528,1,571,2,358.28692982302164,359.78835877301753,,,,,,,,,,,,,,,,,,,,,,,,,,,,,,,,,,,,,,,,,,,,,,,,,,,,,,,,,,,,,,,,,,,,,,,,,,44402,2022-11-16_10h16.28.891,vts_reward_expectancy_bt_OFFLINE,2022.2.4,59.927513715722,
0,0,1,0,1,0,0,0,hexagon,triangle,2,0,2,0,0,7,7,6,,,,,,,,,,,,,,,,,,,,,,,,,,,,,,,,,,,,,,,,360.28886543001863,360.28886543001863,360.28886543001863,360.28886543001863,360.28886543001863,360.28886543001863,360.28886543001863,360.28886543001863,360.28886543001863,360.28886543001863,l,1.121630417968845,10,581,2,361.4404584620206,362.94186083902605,,,,,,,,,,,,,,,,,,,,,,,,,,,,,,,,,,,,,,,,,,,,,,,,,,,,,,,,,,,,,,,,,,,,,,,,,,44402,2022-11-16_10h16.28.891,vts_reward_expectancy_bt_OFFLINE,2022.2.4,59.927513715722,
0,1,0,0,0,0,1,0,circle,hexagon,2,0,2,0,0,8,8,4,,,,,,,,,,,,,,,,,,,,,,,,,,,,,,,,,,,,,,,,363.4424711530155,363.4424711530155,363.4424711530155,363.4424711530155,363.4424711530155,363.4424711530155,363.4424711530155,363.4424711530155,363.4424711530155,363.4424711530155,l,1.6689792259712704,1,582,2,365.14433628102415,366.6460780290072,,,,,,,,,,,,,,,,,,,,,,,,,,,,,,,,,,,,,,,,,,,,,,,,,,,,,,,,,,,,,,,,,,,,,,,,,,44402,2022-11-16_10h16.28.891,vts_reward_expectancy_bt_OFFLINE,2022.2.4,59.927513715722,
1,0,0,0,0,0,1,0,triangle,hexagon,2,0,2,0,0,9,9,1,,,,,,,,,,,,,,,,,,,,,,,,,,,,,,,,,,,,,,,,367.1464910200157,367.1464910200157,367.1464910200157,367.1464910200157,367.1464910200157,367.1464910200157,367.1464910200157,367.1464910200157,367.1464910200157,367.1464910200157,a,0.575302852987079,10,592,2,367.74718293902697,369.24892394201015,,,,,,,,,,,,,,,,,,,,,,,,,,,,,,,,,,,,,,,,,,,,,,,,,,,,,,,,,,,,,,,,,,,,,,,,,,44402,2022-11-16_10h16.28.891,vts_reward_expectancy_bt_OFFLINE,2022.2.4,59.927513715722,
1,0,0,0,0,0,0,1,triangle,star,2,0,2,0,0,10,10,2,,,,,,,,,,,,,,,,,,,,,,,,,,,,,,,,,,,,,,,,369.7493857240188,369.7493857240188,369.7493857240188,369.7493857240188,369.7493857240188,369.7493857240188,369.7493857240188,369.7493857240188,369.7493857240188,369.7493857240188,l,0.9996178549772594,1,593,2,370.7671191660047,372.26880159199936,,,,,,,,,,,,,,,,,,,,,,,,,,,,,,,,,,,,,,,,,,,,,,,,,,,,,,,,,,,,,,,,,,,,,,,,,,44402,2022-11-16_10h16.28.891,vts_reward_expectancy_bt_OFFLINE,2022.2.4,59.927513715722,
1,0,0,0,0,1,0,0,triangle,circle,2,0,2,0,0,11,11,0,,,,,,,,,,,,,,,,,,,,,,,,,,,,,,,,,,,,,,,,372.7694725130277,372.7694725130277,372.7694725130277,372.7694725130277,372.7694725130277,372.7694725130277,372.7694725130277,372.7694725130277,372.7694725130277,372.7694725130277,a,0.8133706599764992,10,603,2,373.60362039500615,375.1054022240278,,,,,,,,,,,,,,,,,,,,,,,,,,,,,,,,,,,,,,,,,,,,,,,,,,,,,,,,,,,,,,,,,,,,,,,,,,44402,2022-11-16_10h16.28.891,vts_reward_expectancy_bt_OFFLINE,2022.2.4,59.927513715722,
0,0,1,0,1,0,0,0,hexagon,triangle,2,0,2,0,1,0,12,6,,,,,,,,,,,,,,,,,,,,,,,,,,,,,,,,,,,,,,,,375.6059558390116,375.6059558390116,375.6059558390116,375.6059558390116,375.6059558390116,375.6059558390116,375.6059558390116,375.6059558390116,375.6059558390116,375.6059558390116,a,0.9351960739877541,1,604,2,376.5735526670178,378.07526600101846,,,,,,,,,,,,,,,,,,,,,,,,,,,,,,,,,,,,,,,,,,,,,,,,,,,,,,,,,,,,,,,,,,,,,,,,,,44402,2022-11-16_10h16.28.891,vts_reward_expectancy_bt_OFFLINE,2022.2.4,59.927513715722,
0,0,0,1,0,1,0,0,star ,circle,2,0,2,0,1,1,13,10,,,,,,,,,,,,,,,,,,,,,,,,,,,,,,,,,,,,,,,,378.5759678030154,378.5759678030154,378.5759678030154,378.5759678030154,378.5759678030154,378.5759678030154,378.5759678030154,378.5759678030154,378.5759678030154,378.5759678030154,l,0.7788215029868297,1,605,2,379.3766344630276,380.8783366140269,,,,,,,,,,,,,,,,,,,,,,,,,,,,,,,,,,,,,,,,,,,,,,,,,,,,,,,,,,,,,,,,,,,,,,,,,,44402,2022-11-16_10h16.28.891,vts_reward_expectancy_bt_OFFLINE,2022.2.4,59.927513715722,
1,0,0,0,0,0,1,0,triangle,hexagon,2,0,2,0,1,2,14,1,,,,,,,,,,,,,,,,,,,,,,,,,,,,,,,,,,,,,,,,381.37876509001944,381.37876509001944,381.37876509001944,381.37876509001944,381.37876509001944,381.37876509001944,381.37876509001944,381.37876509001944,381.37876509001944,381.37876509001944,l,1.0590145369642414,1,606,2,382.4634443850082,383.96504815202206,,,,,,,,,,,,,,,,,,,,,,,,,,,,,,,,,,,,,,,,,,,,,,,,,,,,,,,,,,,,,,,,,,,,,,,,,,44402,2022-11-16_10h16.28.891,vts_reward_expectancy_bt_OFFLINE,2022.2.4,59.927513715722,
0,0,1,0,0,1,0,0,hexagon,circle,2,0,2,0,1,3,15,7,,,,,,,,,,,,,,,,,,,,,,,,,,,,,,,,,,,,,,,,384.46569660599926,384.46569660599926,384.46569660599926,384.46569660599926,384.46569660599926,384.46569660599926,384.46569660599926,384.46569660599926,384.46569660599926,384.46569660599926,a,0.6839358199795242,1,607,2,385.1664706590236,386.6680666710017,,,,,,,,,,,,,,,,,,,,,,,,,,,,,,,,,,,,,,,,,,,,,,,,,,,,,,,,,,,,,,,,,,,,,,,,,,44402,2022-11-16_10h16.28.891,vts_reward_expectancy_bt_OFFLINE,2022.2.4,59.927513715722,
0,0,0,1,1,0,0,0,star,triangle,2,0,2,0,1,4,16,9,,,,,,,,,,,,,,,,,,,,,,,,,,,,,,,,,,,,,,,,387.1684397740173,387.1684397740173,387.1684397740173,387.1684397740173,387.1684397740173,387.1684397740173,387.1684397740173,387.1684397740173,387.1684397740173,387.1684397740173,l,0.7818248019902967,1,608,2,387.96949951699935,389.47119925302104,,,,,,,,,,,,,,,,,,,,,,,,,,,,,,,,,,,,,,,,,,,,,,,,,,,,,,,,,,,,,,,,,,,,,,,,,,44402,2022-11-16_10h16.28.891,vts_reward_expectancy_bt_OFFLINE,2022.2.4,59.927513715722,
1,0,0,0,0,1,0,0,triangle,circle,2,0,2,0,1,5,17,0,,,,,,,,,,,,,,,,,,,,,,,,,,,,,,,,,,,,,,,,389.9716992820031,389.9716992820031,389.9716992820031,389.9716992820031,389.9716992820031,389.9716992820031,389.9716992820031,389.9716992820031,389.9716992820031,389.9716992820031,l,0.8470769179693889,1,609,2,390.8392362270097,392.3408857320028,,,,,,,,,,,,,,,,,,,,,,,,,,,,,,,,,,,,,,,,,,,,,,,,,,,,,,,,,,,,,,,,,,,,,,,,,,44402,2022-11-16_10h16.28.891,vts_reward_expectancy_bt_OFFLINE,2022.2.4,59.927513715722,
0,1,0,0,0,0,0,1,circle,star,2,0,2,0,1,6,18,5,,,,,,,,,,,,,,,,,,,,,,,,,,,,,,,,,,,,,,,,392.84133148100227,392.84133148100227,392.84133148100227,392.84133148100227,392.84133148100227,392.84133148100227,392.84133148100227,392.84133148100227,392.84133148100227,392.84133148100227,a,1.0162839619733859,1,610,2,393.8759470730147,395.3775820709998,,,,,,,,,,,,,,,,,,,,,,,,,,,,,,,,,,,,,,,,,,,,,,,,,,,,,,,,,,,,,,,,,,,,,,,,,,44402,2022-11-16_10h16.28.891,vts_reward_expectancy_bt_OFFLINE,2022.2.4,59.927513715722,
0,0,0,1,0,0,1,0,star,hexagon,2,0,2,0,1,7,19,11,,,,,,,,,,,,,,,,,,,,,,,,,,,,,,,,,,,,,,,,395.8781201200036,395.8781201200036,395.8781201200036,395.8781201200036,395.8781201200036,395.8781201200036,395.8781201200036,395.8781201200036,395.8781201200036,395.8781201200036,l,0.600734305975493,1,611,2,396.4955079720239,397.9971351000131,,,,,,,,,,,,,,,,,,,,,,,,,,,,,,,,,,,,,,,,,,,,,,,,,,,,,,,,,,,,,,,,,,,,,,,,,,44402,2022-11-16_10h16.28.891,vts_reward_expectancy_bt_OFFLINE,2022.2.4,59.927513715722,
0,0,1,0,0,0,0,1,hexagon,star,2,0,2,0,1,8,20,8,,,,,,,,,,,,,,,,,,,,,,,,,,,,,,,,,,,,,,,,398.49761171801947,398.49761171801947,398.49761171801947,398.49761171801947,398.49761171801947,398.49761171801947,398.49761171801947,398.49761171801947,398.49761171801947,398.49761171801947,l,0.7019478699658066,10,621,2,399.23202643200057,400.7337647100212,,,,,,,,,,,,,,,,,,,,,,,,,,,,,,,,,,,,,,,,,,,,,,,,,,,,,,,,,,,,,,,,,,,,,,,,,,44402,2022-11-16_10h16.28.891,vts_reward_expectancy_bt_OFFLINE,2022.2.4,59.927513715722,
0,1,0,0,0,0,1,0,circle,hexagon,2,0,2,0,1,9,21,4,,,,,,,,,,,,,,,,,,,,,,,,,,,,,,,,,,,,,,,,401.23421165702166,401.23421165702166,401.23421165702166,401.23421165702166,401.23421165702166,401.23421165702166,401.23421165702166,401.23421165702166,401.23421165702166,401.23421165702166,l,0.7012695019948296,1,622,2,401.96853796500363,403.46985191100975,,,,,,,,,,,,,,,,,,,,,,,,,,,,,,,,,,,,,,,,,,,,,,,,,,,,,,,,,,,,,,,,,,,,,,,,,,44402,2022-11-16_10h16.28.891,vts_reward_expectancy_bt_OFFLINE,2022.2.4,59.927513715722,
0,1,0,0,1,0,0,0,circle,triangle,2,0,2,0,1,10,22,3,,,,,,,,,,,,,,,,,,,,,,,,,,,,,,,,,,,,,,,,403.9705391280004,403.9705391280004,403.9705391280004,403.9705391280004,403.9705391280004,403.9705391280004,403.9705391280004,403.9705391280004,403.9705391280004,403.9705391280004,a,0.4839885569817852,1,623,2,404.4877214360167,405.9894268650096,,,,,,,,,,,,,,,,,,,,,,,,,,,,,,,,,,,,,,,,,,,,,,,,,,,,,,,,,,,,,,,,,,,,,,,,,,44402,2022-11-16_10h16.28.891,vts_reward_expectancy_bt_OFFLINE,2022.2.4,59.927513715722,
1,0,0,0,0,0,0,1,triangle,star,2,0,2,0,1,11,23,2,,,,,,,,,,,,,,,,,,,,,,,,,,,,,,,,,,,,,,,,406.48994272202253,406.48994272202253,406.48994272202253,406.48994272202253,406.48994272202253,406.48994272202253,406.48994272202253,406.48994272202253,406.48994272202253,406.48994272202253,a,0.9118793770030607,10,633,2,407.42431857500924,408.9260775450093,,,,,,,,,,,,,,,,,,,,,,,,,,,,,,,,,,,,,,,,,,,,,,,,,,,,,,,,,,,,,,,,,,,,,,,,,,44402,2022-11-16_10h16.28.891,vts_reward_expectancy_bt_OFFLINE,2022.2.4,59.927513715722,
0,0,0,1,0,1,0,0,star ,circle,2,0,2,0,2,0,24,10,,,,,,,,,,,,,,,,,,,,,,,,,,,,,,,,,,,,,,,,409.4266542260011,409.4266542260011,409.4266542260011,409.4266542260011,409.4266542260011,409.4266542260011,409.4266542260011,409.4266542260011,409.4266542260011,409.4266542260011,l,0.47354908799752593,1,634,2,409.9271227840218,411.4288267890224,,,,,,,,,,,,,,,,,,,,,,,,,,,,,,,,,,,,,,,,,,,,,,,,,,,,,,,,,,,,,,,,,,,,,,,,,,44402,2022-11-16_10h16.28.891,vts_reward_expectancy_bt_OFFLINE,2022.2.4,59.927513715722,
1,0,0,0,0,0,0,1,triangle,star,2,0,2,0,2,1,25,2,,,,,,,,,,,,,,,,,,,,,,,,,,,,,,,,,,,,,,,,411.9292473740061,411.9292473740061,411.9292473740061,411.9292473740061,411.9292473740061,411.9292473740061,411.9292473740061,411.9292473740061,411.9292473740061,411.9292473740061,l,1.3008600589819252,10,644,2,413.2474225650076,414.7489539810049,,,,,,,,,,,,,,,,,,,,,,,,,,,,,,,,,,,,,,,,,,,,,,,,,,,,,,,,,,,,,,,,,,,,,,,,,,44402,2022-11-16_10h16.28.891,vts_reward_expectancy_bt_OFFLINE,2022.2.4,59.927513715722,
0,0,1,0,1,0,0,0,hexagon,triangle,2,0,2,0,2,2,26,6,,,,,,,,,,,,,,,,,,,,,,,,,,,,,,,,,,,,,,,,415.2494913840201,415.2494913840201,415.2494913840201,415.2494913840201,415.2494913840201,415.2494913840201,415.2494913840201,415.2494913840201,415.2494913840201,415.2494913840201,l,0.9512868509918917,1,645,2,416.21734860600554,417.7189883570245,,,,,,,,,,,,,,,,,,,,,,,,,,,,,,,,,,,,,,,,,,,,,,,,,,,,,,,,,,,,,,,,,,,,,,,,,,44402,2022-11-16_10h16.28.891,vts_reward_expectancy_bt_OFFLINE,2022.2.4,59.927513715722,
0,0,0,1,1,0,0,0,star,triangle,2,0,2,0,2,3,27,9,,,,,,,,,,,,,,,,,,,,,,,,,,,,,,,,,,,,,,,,418.21966889401665,418.21966889401665,418.21966889401665,418.21966889401665,418.21966889401665,418.21966889401665,418.21966889401665,418.21966889401665,418.21966889401665,418.21966889401665,a,2.0083409509970807,10,655,2,420.2551075660158,421.7568630630267,,,,,,,,,,,,,,,,,,,,,,,,,,,,,,,,,,,,,,,,,,,,,,,,,,,,,,,,,,,,,,,,,,,,,,,,,,44402,2022-11-16_10h16.28.891,vts_reward_expectancy_bt_OFFLINE,2022.2.4,59.927513715722,
0,1,0,0,1,0,0,0,circle,triangle,2,0,2,0,2,4,28,3,,,,,,,,,,,,,,,,,,,,,,,,,,,,,,,,,,,,,,,,422.25732888502534,422.25732888502534,422.25732888502534,422.25732888502534,422.25732888502534,422.25732888502534,422.25732888502534,422.25732888502534,422.25732888502534,422.25732888502534,a,1.1660447730100714,10,665,2,423.4419371780241,424.943538387015,,,,,,,,,,,,,,,,,,,,,,,,,,,,,,,,,,,,,,,,,,,,,,,,,,,,,,,,,,,,,,,,,,,,,,,,,,44402,2022-11-16_10h16.28.891,vts_reward_expectancy_bt_OFFLINE,2022.2.4,59.927513715722,
0,0,1,0,0,0,0,1,hexagon,star,2,0,2,0,2,5,29,8,,,,,,,,,,,,,,,,,,,,,,,,,,,,,,,,,,,,,,,,425.4440789729997,425.4440789729997,425.4440789729997,425.4440789729997,425.4440789729997,425.4440789729997,425.4440789729997,425.4440789729997,425.4440789729997,425.4440789729997,a,1.2414723660040181,1,666,2,426.7121896590106,428.2139944790106,,,,,,,,,,,,,,,,,,,,,,,,,,,,,,,,,,,,,,,,,,,,,,,,,,,,,,,,,,,,,,,,,,,,,,,,,,44402,2022-11-16_10h16.28.891,vts_reward_expectancy_bt_OFFLINE,2022.2.4,59.927513715722,
0,0,0,1,0,0,1,0,star,hexagon,2,0,2,0,2,6,30,11,,,,,,,,,,,,,,,,,,,,,,,,,,,,,,,,,,,,,,,,428.71445681800833,428.71445681800833,428.71445681800833,428.71445681800833,428.71445681800833,428.71445681800833,428.71445681800833,428.71445681800833,428.71445681800833,428.71445681800833,a,1.7610487899801228,1,667,2,430.4996900780243,432.0013481990027,,,,,,,,,,,,,,,,,,,,,,,,,,,,,,,,,,,,,,,,,,,,,,,,,,,,,,,,,,,,,,,,,,,,,,,,,,44402,2022-11-16_10h16.28.891,vts_reward_expectancy_bt_OFFLINE,2022.2.4,59.927513715722,
1,0,0,0,0,0,1,0,triangle,hexagon,2,0,2,0,2,7,31,1,,,,,,,,,,,,,,,,,,,,,,,,,,,,,,,,,,,,,,,,432.50189487301395,432.50189487301395,432.50189487301395,432.50189487301395,432.50189487301395,432.50189487301395,432.50189487301395,432.50189487301395,432.50189487301395,432.50189487301395,l,0.7869450800062623,10,677,2,433.3194671870151,434.8212302910106,,,,,,,,,,,,,,,,,,,,,,,,,,,,,,,,,,,,,,,,,,,,,,,,,,,,,,,,,,,,,,,,,,,,,,,,,,44402,2022-11-16_10h16.28.891,vts_reward_expectancy_bt_OFFLINE,2022.2.4,59.927513715722,
0,1,0,0,0,0,0,1,circle,star,2,0,2,0,2,8,32,5,,,,,,,,,,,,,,,,,,,,,,,,,,,,,,,,,,,,,,,,435.3216976200056,435.3216976200056,435.3216976200056,435.3216976200056,435.3216976200056,435.3216976200056,435.3216976200056,435.3216976200056,435.3216976200056,435.3216976200056,l,1.3089733329834417,10,687,2,436.65642283900524,438.1582072900201,,,,,,,,,,,,,,,,,,,,,,,,,,,,,,,,,,,,,,,,,,,,,,,,,,,,,,,,,,,,,,,,,,,,,,,,,,44402,2022-11-16_10h16.28.891,vts_reward_expectancy_bt_OFFLINE,2022.2.4,59.927513715722,
0,1,0,0,0,0,1,0,circle,hexagon,2,0,2,0,2,9,33,4,,,,,,,,,,,,,,,,,,,,,,,,,,,,,,,,,,,,,,,,438.6587979970209,438.6587979970209,438.6587979970209,438.6587979970209,438.6587979970209,438.6587979970209,438.6587979970209,438.6587979970209,438.6587979970209,438.6587979970209,l,1.1674731399980374,10,697,2,439.84328614600236,441.3450857810094,,,,,,,,,,,,,,,,,,,,,,,,,,,,,,,,,,,,,,,,,,,,,,,,,,,,,,,,,,,,,,,,,,,,,,,,,,44402,2022-11-16_10h16.28.891,vts_reward_expectancy_bt_OFFLINE,2022.2.4,59.927513715722,
1,0,0,0,0,1,0,0,triangle,circle,2,0,2,0,2,10,34,0,,,,,,,,,,,,,,,,,,,,,,,,,,,,,,,,,,,,,,,,441.84547674900386,441.84547674900386,441.84547674900386,441.84547674900386,441.84547674900386,441.84547674900386,441.84547674900386,441.84547674900386,441.84547674900386,441.84547674900386,l,0.8944101939850952,10,707,2,442.76310674802517,444.2649016290088,,,,,,,,,,,,,,,,,,,,,,,,,,,,,,,,,,,,,,,,,,,,,,,,,,,,,,,,,,,,,,,,,,,,,,,,,,44402,2022-11-16_10h16.28.891,vts_reward_expectancy_bt_OFFLINE,2022.2.4,59.927513715722,
0,0,1,0,0,1,0,0,hexagon,circle,2,0,2,0,2,11,35,7,,,,,,,,,,,,,,,,,,,,,,,,,,,,,,,,,,,,,,,,444.7653959370218,444.7653959370218,444.7653959370218,444.7653959370218,444.7653959370218,444.7653959370218,444.7653959370218,444.7653959370218,444.7653959370218,444.7653959370218,a,0.6182788559817709,1,708,2,445.41624604401295,446.9178989380016,,,,,,,,,,,,,,,,,,,,,,,,,,,,,,,,,,,,,,,,,,,,,,,,,,,,,,,,,,,,,,,,,,,,,,,,,,44402,2022-11-16_10h16.28.891,vts_reward_expectancy_bt_OFFLINE,2022.2.4,59.927513715722,
0,1,0,0,0,0,1,0,circle,hexagon,2,0,2,0,3,0,36,4,,,,,,,,,,,,,,,,,,,,,,,,,,,,,,,,,,,,,,,,447.41834839302464,447.41834839302464,447.41834839302464,447.41834839302464,447.41834839302464,447.41834839302464,447.41834839302464,447.41834839302464,447.41834839302464,447.41834839302464,l,0.867782796965912,10,718,2,448.3027414390235,449.8043764580216,,,,,,,,,,,,,,,,,,,,,,,,,,,,,,,,,,,,,,,,,,,,,,,,,,,,,,,,,,,,,,,,,,,,,,,,,,44402,2022-11-16_10h16.28.891,vts_reward_expectancy_bt_OFFLINE,2022.2.4,59.927513715722,
1,0,0,0,0,1,0,0,triangle,circle,2,0,2,0,3,1,37,0,,,,,,,,,,,,,,,,,,,,,,,,,,,,,,,,,,,,,,,,450.3049519370252,450.3049519370252,450.3049519370252,450.3049519370252,450.3049519370252,450.3049519370252,450.3049519370252,450.3049519370252,450.3049519370252,450.3049519370252,l,1.1078969399968628,10,728,2,451.4395997310057,452.94124204301625,,,,,,,,,,,,,,,,,,,,,,,,,,,,,,,,,,,,,,,,,,,,,,,,,,,,,,,,,,,,,,,,,,,,,,,,,,44402,2022-11-16_10h16.28.891,vts_reward_expectancy_bt_OFFLINE,2022.2.4,59.927513715722,
0,1,0,0,1,0,0,0,circle,triangle,2,0,2,0,3,2,38,3,,,,,,,,,,,,,,,,,,,,,,,,,,,,,,,,,,,,,,,,453.4417029720207,453.4417029720207,453.4417029720207,453.4417029720207,453.4417029720207,453.4417029720207,453.4417029720207,453.4417029720207,453.4417029720207,453.4417029720207,a,1.2227038809796795,1,729,2,454.6931606850121,456.1948515320255,,,,,,,,,,,,,,,,,,,,,,,,,,,,,,,,,,,,,,,,,,,,,,,,,,,,,,,,,,,,,,,,,,,,,,,,,,44402,2022-11-16_10h16.28.891,vts_reward_expectancy_bt_OFFLINE,2022.2.4,59.927513715722,
0,0,0,1,0,0,1,0,star,hexagon,2,0,2,0,3,3,39,11,,,,,,,,,,,,,,,,,,,,,,,,,,,,,,,,,,,,,,,,456.6952913320274,456.6952913320274,456.6952913320274,456.6952913320274,456.6952913320274,456.6952913320274,456.6952913320274,456.6952913320274,456.6952913320274,456.6952913320274,a,1.1188126479974017,10,739,2,457.84647753302124,459.3481668900058,,,,,,,,,,,,,,,,,,,,,,,,,,,,,,,,,,,,,,,,,,,,,,,,,,,,,,,,,,,,,,,,,,,,,,,,,,44402,2022-11-16_10h16.28.891,vts_reward_expectancy_bt_OFFLINE,2022.2.4,59.927513715722,
0,0,1,0,0,1,0,0,hexagon,circle,2,0,2,0,3,4,40,7,,,,,,,,,,,,,,,,,,,,,,,,,,,,,,,,,,,,,,,,459.8486621210177,459.8486621210177,459.8486621210177,459.8486621210177,459.8486621210177,459.8486621210177,459.8486621210177,459.8486621210177,459.8486621210177,459.8486621210177,l,0.8685429089819081,1,740,2,460.7496773120074,462.25145331202657,,,,,,,,,,,,,,,,,,,,,,,,,,,,,,,,,,,,,,,,,,,,,,,,,,,,,,,,,,,,,,,,,,,,,,,,,,44402,2022-11-16_10h16.28.891,vts_reward_expectancy_bt_OFFLINE,2022.2.4,59.927513715722,
0,0,1,0,0,0,0,1,hexagon,star,2,0,2,0,3,5,41,8,,,,,,,,,,,,,,,,,,,,,,,,,,,,,,,,,,,,,,,,462.75186272902647,462.75186272902647,462.75186272902647,462.75186272902647,462.75186272902647,462.75186272902647,462.75186272902647,462.75186272902647,462.75186272902647,462.75186272902647,l,0.6530731409729924,1,741,2,463.435943205026,464.9377395780175,,,,,,,,,,,,,,,,,,,,,,,,,,,,,,,,,,,,,,,,,,,,,,,,,,,,,,,,,,,,,,,,,,,,,,,,,,44402,2022-11-16_10h16.28.891,vts_reward_expectancy_bt_OFFLINE,2022.2.4,59.927513715722,
1,0,0,0,0,0,0,1,triangle,star,2,0,2,0,3,6,42,2,,,,,,,,,,,,,,,,,,,,,,,,,,,,,,,,,,,,,,,,465.4384255860059,465.4384255860059,465.4384255860059,465.4384255860059,465.4384255860059,465.4384255860059,465.4384255860059,465.4384255860059,465.4384255860059,465.4384255860059,a,0.622178860969143,10,751,2,466.0887504350103,467.5905478410132,,,,,,,,,,,,,,,,,,,,,,,,,,,,,,,,,,,,,,,,,,,,,,,,,,,,,,,,,,,,,,,,,,,,,,,,,,44402,2022-11-16_10h16.28.891,vts_reward_expectancy_bt_OFFLINE,2022.2.4,59.927513715722,
1,0,0,0,0,0,1,0,triangle,hexagon,2,0,2,0,3,7,43,1,,,,,,,,,,,,,,,,,,,,,,,,,,,,,,,,,,,,,,,,468.0910762170097,468.0910762170097,468.0910762170097,468.0910762170097,468.0910762170097,468.0910762170097,468.0910762170097,468.0910762170097,468.0910762170097,468.0910762170097,a,0.7717861729906872,10,761,2,468.8920903399994,470.39375248600845,,,,,,,,,,,,,,,,,,,,,,,,,,,,,,,,,,,,,,,,,,,,,,,,,,,,,,,,,,,,,,,,,,,,,,,,,,44402,2022-11-16_10h16.28.891,vts_reward_expectancy_bt_OFFLINE,2022.2.4,59.927513715722,
0,0,0,1,1,0,0,0,star,triangle,2,0,2,0,3,8,44,9,,,,,,,,,,,,,,,,,,,,,,,,,,,,,,,,,,,,,,,,470.8946785190201,470.8946785190201,470.8946785190201,470.8946785190201,470.8946785190201,470.8946785190201,470.8946785190201,470.8946785190201,470.8946785190201,470.8946785190201,a,1.9722759810101707,1,762,2,472.8964417660027,474.3980806239997,,,,,,,,,,,,,,,,,,,,,,,,,,,,,,,,,,,,,,,,,,,,,,,,,,,,,,,,,,,,,,,,,,,,,,,,,,44402,2022-11-16_10h16.28.891,vts_reward_expectancy_bt_OFFLINE,2022.2.4,59.927513715722,
0,0,0,1,0,1,0,0,star ,circle,2,0,2,0,3,9,45,10,,,,,,,,,,,,,,,,,,,,,,,,,,,,,,,,,,,,,,,,474.89875905701774,474.89875905701774,474.89875905701774,474.89875905701774,474.89875905701774,474.89875905701774,474.89875905701774,474.89875905701774,474.89875905701774,474.89875905701774,l,0.6919500659860205,1,763,2,475.6162886710081,477.11785795001197,,,,,,,,,,,,,,,,,,,,,,,,,,,,,,,,,,,,,,,,,,,,,,,,,,,,,,,,,,,,,,,,,,,,,,,,,,44402,2022-11-16_10h16.28.891,vts_reward_expectancy_bt_OFFLINE,2022.2.4,59.927513715722,
0,1,0,0,0,0,0,1,circle,star,2,0,2,0,3,10,46,5,,,,,,,,,,,,,,,,,,,,,,,,,,,,,,,,,,,,,,,,477.61846835701726,477.61846835701726,477.61846835701726,477.61846835701726,477.61846835701726,477.61846835701726,477.61846835701726,477.61846835701726,477.61846835701726,477.61846835701726,a,0.5599909419834148,1,764,2,478.2023811410181,479.7039702590264,,,,,,,,,,,,,,,,,,,,,,,,,,,,,,,,,,,,,,,,,,,,,,,,,,,,,,,,,,,,,,,,,,,,,,,,,,44402,2022-11-16_10h16.28.891,vts_reward_expectancy_bt_OFFLINE,2022.2.4,59.927513715722,
0,0,1,0,1,0,0,0,hexagon,triangle,2,0,2,0,3,11,47,6,,,,,,,,,,,,,,,,,,,,,,,,,,,,,,,,,,,,,,,,480.2046700230276,480.2046700230276,480.2046700230276,480.2046700230276,480.2046700230276,480.2046700230276,480.2046700230276,480.2046700230276,480.2046700230276,480.2046700230276,l,0.7743581549730152,1,765,2,481.0053726650076,482.50723584601656,,,,,,,,,,,,,,,,,,,,,,,,,,,,,,,,,,,,,,,,,,,,,,,,,,,,,,,,,,,,,,,,,,,,,,,,,,44402,2022-11-16_10h16.28.891,vts_reward_expectancy_bt_OFFLINE,2022.2.4,59.927513715722,
,,,,,,,,,,,,,,,,,,0,0,0,0,0,0,0,0,,,,,,,,,,,,,,,,,,,,,,,,,,,,,,,,,,,,,,,,,,,,,,,,520.2654468690162,146,H,circle,0.0020350539998617023,515.2564216510218,516.7616610310215,516.7616610310215,516.7616610310215,1,0,d,1.9854359489690978,0,518.7654214110225,,,,,,,,,,,,,,,,,,,,,,,,,,,,,,,,,,,,,,,,,,,,,,,,,,,,,,,,,,,,44402,2022-11-16_10h16.28.891,vts_reward_expectancy_bt_OFFLINE,2022.2.4,59.927513715722,
,,,,,,,,,,,,,,,,,,0,0,0,0,1,0,1,0,,,,,,,,,,,,,,,,,,,,,,,,,,,,,,,,,,,,,,,,,,,,,,,,525.1039826620254,139,W,hexagon,0.0012996709847357124,521.248442074022,522.7513292580261,522.7513292580261,522.7513292580261,1,0,d,0.8206073049805127,0,523.6024679550028,,,,,,,,,,,,,,,,,,,,,,,,,,,,,,,,,,,,,,,,,,,,,,,,,,,,,,,,,,,,44402,2022-11-16_10h16.28.891,vts_reward_expectancy_bt_OFFLINE,2022.2.4,59.927513715722,
,,,,,,,,,,,,,,,,,,0,0,0,0,2,0,2,0,,,,,,,,,,,,,,,,,,,,,,,,,,,,,,,,,,,,,,,,,,,,,,,,529.7091871890007,125,Y,triangle,0.0014507179730571806,526.0841413720045,527.5900065700116,527.5900065700116,527.5900065700116,1,0,d,0.5947093819850124,0,528.2074528980011,,,,,,,,,,,,,,,,,,,,,,,,,,,,,,,,,,,,,,,,,,,,,,,,,,,,,,,,,,,,44402,2022-11-16_10h16.28.891,vts_reward_expectancy_bt_OFFLINE,2022.2.4,59.927513715722,
,,,,,,,,,,,,,,,,,,0,0,0,0,3,0,3,0,,,,,,,,,,,,,,,,,,,,,,,,,,,,,,,,,,,,,,,,,,,,,,,,534.547767023003,160,F,star,0.001654657011386007,530.6883920470136,532.1952399850124,532.1952399850124,532.1952399850124,1,0,f,0.8274820509832352,0,533.0462900640268,,,,,,,,,,,,,,,,,,,,,,,,,,,,,,,,,,,,,,,,,,,,,,,,,,,,,,,,,,,,44402,2022-11-16_10h16.28.891,vts_reward_expectancy_bt_OFFLINE,2022.2.4,59.927513715722,
,,,,,,,,,,,,,,,,,,0,0,0,0,4,0,4,0,,,,,,,,,,,,,,,,,,,,,,,,,,,,,,,,,,,,,,,,,,,,,,,,539.0695234420127,174,D,circle,0.0014079999818932265,535.5900990190275,537.03382387702,537.03382387702,537.03382387702,1,0,f,0.5012431329814717,0,537.5678657250246,,,,,,,,,,,,,,,,,,,,,,,,,,,,,,,,,,,,,,,,,,,,,,,,,,,,,,,,,,,,44402,2022-11-16_10h16.28.891,vts_reward_expectancy_bt_OFFLINE,2022.2.4,59.927513715722,
,,,,,,,,,,,,,,,,,,0,0,0,0,5,0,5,0,,,,,,,,,,,,,,,,,,,,,,,,,,,,,,,,,,,,,,,,,,,,,,,,543.6578034350241,167,S,triangle,0.0013930860150139779,540.0486991710204,541.5555239550013,541.5555239550013,541.5555239550013,1,0,f,0.5682396889897063,0,542.1560277510143,,,,,,,,,,,,,,,,,,,,,,,,,,,,,,,,,,,,,,,,,,,,,,,,,,,,,,,,,,,,44402,2022-11-16_10h16.28.891,vts_reward_expectancy_bt_OFFLINE,2022.2.4,59.927513715722,
,,,,,,,,,,,,,,,,,,0,0,0,0,6,0,6,0,,,,,,,,,,,,,,,,,,,,,,,,,,,,,,,,,,,,,,,,,,,,,,,,548.0959430960065,181,B,hexagon,0.0015827039896976203,544.6406028730271,546.1438964130066,546.1438964130066,546.1438964130066,1,0,f,0.42425839899806306,0,546.5943119660078,,,,,,,,,,,,,,,,,,,,,,,,,,,,,,,,,,,,,,,,,,,,,,,,,,,,,,,,,,,,44402,2022-11-16_10h16.28.891,vts_reward_expectancy_bt_OFFLINE,2022.2.4,59.927513715722,
,,,,,,,,,,,,,,,,,,0,0,0,0,7,0,7,0,,,,,,,,,,,,,,,,,,,,,,,,,,,,,,,,,,,,,,,,,,,,,,,,552.9180448980187,132,U,star,0.0015888359921518713,549.0760660560045,550.5823403100076,550.5823403100076,550.5823403100076,1,0,d,0.8130721079651266,0,551.4163095150143,,,,,,,,,,,,,,,,,,,,,,,,,,,,,,,,,,,,,,,,,,,,,,,,,,,,,,,,,,,,44402,2022-11-16_10h16.28.891,vts_reward_expectancy_bt_OFFLINE,2022.2.4,59.927513715722,
,,,,,,,,,,,,,,,,,,0,0,0,0,8,0,8,0,,,,,,,,,,,,,,,,,,,,,,,,,,,,,,,,,,,,,,,,,,,,,,,,557.4563026480027,146,H,star,0.0016689439944457263,553.8972915860068,555.4040466480074,555.4040466480074,555.4040466480074,1,0,d,0.523982332990272,0,555.9547601570084,,,,,,,,,,,,,,,,,,,,,,,,,,,,,,,,,,,,,,,,,,,,,,,,,,,,,,,,,,,,44402,2022-11-16_10h16.28.891,vts_reward_expectancy_bt_OFFLINE,2022.2.4,59.927513715722,
,,,,,,,,,,,,,,,,,,0,0,0,0,9,0,9,0,,,,,,,,,,,,,,,,,,,,,,,,,,,,,,,,,,,,,,,,,,,,,,,,562.2449308530195,139,W,triangle,0.001645053009269759,558.4350117120193,559.9419146460132,559.9419146460132,559.9419146460132,1,0,d,0.768613155989442,0,560.7431957610243,,,,,,,,,,,,,,,,,,,,,,,,,,,,,,,,,,,,,,,,,,,,,,,,,,,,,,,,,,,,44402,2022-11-16_10h16.28.891,vts_reward_expectancy_bt_OFFLINE,2022.2.4,59.927513715722,
,,,,,,,,,,,,,,,,,,,,,,,,,,0,0,0,0,0,0,0,0,,,,,,,,,,,,,,,,,,,,,,,,,,,,,,,,,,,,,,,,624.9643220250146,139,F,triangle,0.002335127006517723,,,,,1,0,,,1,623.4626881270087,619.8550750880095,621.3604016460013,621.3604016460013,621.3604016460013,j,2.069837318995269,,,,,,,,,,,,,,,,,,,,,,,,,,,,,,,,,,,,,,,,,,,,,,,,,,,,,,44402,2022-11-16_10h16.28.891,vts_reward_expectancy_bt_OFFLINE,2022.2.4,59.927513715722,
,,,,,,,,,,,,,,,,,,,,,,,,,,0,0,0,0,1,0,1,0,,,,,,,,,,,,,,,,,,,,,,,,,,,,,,,,,,,,,,,,629.7027882020047,132,H,circle,0.0016261959972325712,,,,,1,0,,,1,628.2011406290112,625.9428640510014,627.4504358360136,627.4504358360136,627.4504358360136,j,0.7275553939689416,,,,,,,,,,,,,,,,,,,,,,,,,,,,,,,,,,,,,,,,,,,,,,,,,,,,,,44402,2022-11-16_10h16.28.891,vts_reward_expectancy_bt_OFFLINE,2022.2.4,59.927513715722,
,,,,,,,,,,,,,,,,,,,,,,,,,,0,0,0,0,2,0,2,0,,,,,,,,,,,,,,,,,,,,,,,,,,,,,,,,,,,,,,,,634.3246339680045,160,W,hexagon,0.0012856370012741536,,,,,1,0,,,1,632.8227715040266,630.6822168900107,632.1886530180054,632.1886530180054,632.1886530180054,k,0.6018631319748238,,,,,,,,,,,,,,,,,,,,,,,,,,,,,,,,,,,,,,,,,,,,,,,,,,,,,,44402,2022-11-16_10h16.28.891,vts_reward_expectancy_bt_OFFLINE,2022.2.4,59.927513715722,
,,,,,,,,,,,,,,,,,,,,,,,,,,0,0,0,0,3,0,3,0,,,,,,,,,,,,,,,,,,,,,,,,,,,,,,,,,,,,,,,,639.0465540280275,146,S,star,0.0015480889996979386,,,,,1,0,,,1,637.5446547510219,635.3036615880264,636.8105344200158,636.8105344200158,636.8105344200158,k,0.7064393009932246,,,,,,,,,,,,,,,,,,,,,,,,,,,,,,,,,,,,,,,,,,,,,,,,,,,,,,44402,2022-11-16_10h16.28.891,vts_reward_expectancy_bt_OFFLINE,2022.2.4,59.927513715722,
,,,,,,,,,,,,,,,,,,,,,,,,,,0,0,0,0,4,0,4,0,,,,,,,,,,,,,,,,,,,,,,,,,,,,,,,,,,,,,,,,643.8015964490187,167,Y,star,0.0014267440128605813,,,,,1,0,,,1,642.2998944570136,640.0254991399997,641.5325046320213,641.5325046320213,641.5325046320213,k,0.7430511830025353,,,,,,,,,,,,,,,,,,,,,,,,,,,,,,,,,,,,,,,,,,,,,,,,,,,,,,44402,2022-11-16_10h16.28.891,vts_reward_expectancy_bt_OFFLINE,2022.2.4,59.927513715722,
,,,,,,,,,,,,,,,,,,,,,,,,,,0,0,0,0,5,0,5,0,,,,,,,,,,,,,,,,,,,,,,,,,,,,,,,,,,,,,,,,648.7403264240129,174,U,triangle,0.001531449001049623,,,,,1,0,,,1,647.238669606013,644.7806695190084,646.287708229007,646.287708229007,646.287708229007,k,0.9260396339814179,,,,,,,,,,,,,,,,,,,,,,,,,,,,,,,,,,,,,,,,,,,,,,,,,,,,,,44402,2022-11-16_10h16.28.891,vts_reward_expectancy_bt_OFFLINE,2022.2.4,59.927513715722,
,,,,,,,,,,,,,,,,,,,,,,,,,,0,0,0,0,6,0,6,0,,,,,,,,,,,,,,,,,,,,,,,,,,,,,,,,,,,,,,,,653.5458646330226,125,D,circle,0.0018500100122764707,,,,,1,0,,,1,652.0441028530186,649.7203811600048,651.2265164690034,651.2265164690034,651.2265164690034,j,0.79099907798809,,,,,,,,,,,,,,,,,,,,,,,,,,,,,,,,,,,,,,,,,,,,,,,,,,,,,,44402,2022-11-16_10h16.28.891,vts_reward_expectancy_bt_OFFLINE,2022.2.4,59.927513715722,
,,,,,,,,,,,,,,,,,,,,,,,,,,0,0,0,0,7,0,7,0,,,,,,,,,,,,,,,,,,,,,,,,,,,,,,,,,,,,,,,,660.5367113020038,181,B,hexagon,0.0014747870154678822,,,,,0,0,,,1,659.0350899110199,654.5258342890011,656.0317422080261,656.0317422080261,656.0317422080261,None,,659.0350899110199,659.0350899110199,659.0350899110199,659.0350899110199,660.5367113020038,661.0371749330079,,,,,,,,,,,,,,,,,,,,,,,,,,,,,,,,,,,,,,,,,,,,,,,,44402,2022-11-16_10h16.28.891,vts_reward_expectancy_bt_OFFLINE,2022.2.4,59.927513715722,
,,,,,,,,,,,,,,,,,,,,,,,,,,0,0,0,0,8,0,8,0,,,,,,,,,,,,,,,,,,,,,,,,,,,,,,,,,,,,,,,,665.3087560429994,139,F,triangle,0.008780862001003698,,,,,1,1,,,1,663.8071186350135,661.5316467150114,663.0395699480141,663.0395699480141,663.0395699480141,j,0.7348534819902852,,,,,,,,,,,,,,,,,,,,,,,,,,,,,,,,,,,,,,,,,,,,,,,,,,,,,,44402,2022-11-16_10h16.28.891,vts_reward_expectancy_bt_OFFLINE,2022.2.4,59.927513715722,
,,,,,,,,,,,,,,,,,,,,,,,,,,0,0,0,0,9,0,9,0,,,,,,,,,,,,,,,,,,,,,,,,,,,,,,,,,,,,,,,,669.8970845510194,132,H,star,0.0017869009752757847,,,,,1,0,,,1,668.3954378850176,666.2878441080102,667.794797894021,667.794797894021,667.794797894021,j,0.5695586910005659,,,,,,,,,,,,,,,,,,,,,,,,,,,,,,,,,,,,,,,,,,,,,,,,,,,,,,44402,2022-11-16_10h16.28.891,vts_reward_expectancy_bt_OFFLINE,2022.2.4,59.927513715722,
,,,,,,,,,,,,,,,,,,,,,,,,,,,,,,,,,,0,0,0,0,0,0,0,0,,,,,,,,,,,,,,,,,,,,,,,,,,,,0,765,,,730.7476238470117,132,F,triangle,0.002268776996061206,,,,,-1,0,,,2,,,,,,,,,,,,,731.2481655810261,724.7393289240135,724.7393289240135,724.7393289240135,724.7393289240135,726.2426694520109,726.2426694520109,726.2426694520109,726.2426694520109,726.2426694520109,726.2426694520109,726.2426694520109,726.2426694520109,729.2464746590122,729.2464746590122,729.2464746590122,729.2464746590122,-1,no_choice,NA,None,vtsPrac,729.2464746590122,730.7476238470117,,,,,,,,,,,,,,,,,,,,,,,,,44402,2022-11-16_10h16.28.891,vts_reward_expectancy_bt_OFFLINE,2022.2.4,59.927513715722,
,,,,,,,,,,,,,,,,,,,,,,,,,,,,,,,,,,0,0,0,0,1,0,1,0,,,,,,,,,,,,,,,,,,,,,,,,,,,,0,765,,,735.5862999060191,160,H,circle,0.009239693987183273,,,,,1,0,,,2,,,,,,,,,,,,,,731.7473158270004,731.7473158270004,731.7473158270004,731.7473158270004,733.2504994240007,733.2504994240007,733.2504994240007,733.2504994240007,733.2504994240007,733.2504994240007,733.2504994240007,733.2504994240007,,,,,switch,letter,lettSwt,j,vtsPrac,734.0848000030091,,0.8048283409734722,,,,,,,,,,,,,,,,,,,,,,,,44402,2022-11-16_10h16.28.891,vts_reward_expectancy_bt_OFFLINE,2022.2.4,59.927513715722,
,,,,,,,,,,,,,,,,,,,,,,,,,,,,,,,,,,0,0,0,0,2,0,2,0,,,,,,,,,,,,,,,,,,,,,,,,,,,,0,765,,,740.174646991014,174,B,hexagon,0.001393615995766595,,,,,1,0,,,2,,,,,,,,,,,,,,736.5678006270027,736.5678006270027,736.5678006270027,736.5678006270027,738.0723370860214,738.0723370860214,738.0723370860214,738.0723370860214,738.0723370860214,738.0723370860214,738.0723370860214,738.0723370860214,,,,,repeat,letter,lettRpt,j,vtsPrac,738.6729814150021,,0.5731481249968056,,,,,,,,,,,,,,,,,,,,,,,,44402,2022-11-16_10h16.28.891,vts_reward_expectancy_bt_OFFLINE,2022.2.4,59.927513715722,
,,,,,,,,,,,,,,,,,,,,,,,,,,,,,,,,,,0,0,0,0,3,0,3,0,,,,,,,,,,,,,,,,,,,,,,,,,,,,0,765,,,745.1134509130206,125,D,star,0.0015352089831139892,,,,,1,0,,,2,,,,,,,,,,,,,,741.1577472520003,741.1577472520003,741.1577472520003,741.1577472520003,742.6606896580197,742.6606896580197,742.6606896580197,742.6606896580197,742.6606896580197,742.6606896580197,742.6606896580197,742.6606896580197,,,,,switch,number,numSwt,d,vtsPrac,743.6117481160036,,0.9240314179915003,,,,,,,,,,,,,,,,,,,,,,,,44402,2022-11-16_10h16.28.891,vts_reward_expectancy_bt_OFFLINE,2022.2.4,59.927513715722,
,,,,,,,,,,,,,,,,,,,,,,,,,,,,,,,,,,0,0,0,0,4,0,4,0,,,,,,,,,,,,,,,,,,,,,,,,,,,,0,765,,,749.7020199370163,132,F,circle,0.0015528410149272531,,,,,1,0,,,2,,,,,,,,,,,,,,746.0947163250239,746.0947163250239,746.0947163250239,746.0947163250239,747.5994235649996,747.5994235649996,747.5994235649996,747.5994235649996,747.5994235649996,747.5994235649996,747.5994235649996,747.5994235649996,,,,,repeat,number,numRpt,d,vtsPrac,748.2000296460174,,0.574839749984676,,,,,,,,,,,,,,,,,,,,,,,,44402,2022-11-16_10h16.28.891,vts_reward_expectancy_bt_OFFLINE,2022.2.4,59.927513715722,
,,,,,,,,,,,,,,,,,,,,,,,,,,,,,,,,,,0,0,0,0,5,0,5,0,,,,,,,,,,,,,,,,,,,,,,,,,,,,0,765,,,754.2569157510006,160,H,hexagon,0.001679751992924139,,,,,1,0,,,2,,,,,,,,,,,,,,750.6834364030219,750.6834364030219,750.6834364030219,750.6834364030219,752.1880721200141,752.1880721200141,752.1880721200141,752.1880721200141,752.1880721200141,752.1880721200141,752.1880721200141,752.1880721200141,,,,,repeat,number,numRpt,f,vtsPrac,752.7551515740051,,0.5429314179928042,,,,,,,,,,,,,,,,,,,,,,,,44402,2022-11-16_10h16.28.891,vts_reward_expectancy_bt_OFFLINE,2022.2.4,59.927513715722,
,,,,,,,,,,,,,,,,,,,,,,,,,,,,,,,,,,0,0,0,0,6,0,6,0,,,,,,,,,,,,,,,,,,,,,,,,,,,,0,765,,,758.6951222560019,174,B,triangle,0.0012991139956284314,,,,,1,0,,,2,,,,,,,,,,,,,,755.236008190026,755.236008190026,755.236008190026,755.236008190026,756.7431299480086,756.7431299480086,756.7431299480086,756.7431299480086,756.7431299480086,756.7431299480086,756.7431299480086,756.7431299480086,,,,,switch,letter,lettSwt,j,vtsPrac,757.1933858970006,,0.41937806000350975,,,,,,,,,,,,,,,,,,,,,,,,44402,2022-11-16_10h16.28.891,vts_reward_expectancy_bt_OFFLINE,2022.2.4,59.927513715722,
,,,,,,,,,,,,,,,,,,,,,,,,,,,,,,,,,,0,0,0,0,7,0,7,0,,,,,,,,,,,,,,,,,,,,,,,,,,,,0,765,,,763.5004357470025,125,D,hexagon,0.0015170970000326633,,,,,1,0,,,2,,,,,,,,,,,,,,759.6742861380044,759.6742861380044,759.6742861380044,759.6742861380044,761.1811996840115,761.1811996840115,761.1811996840115,761.1811996840115,761.1811996840115,761.1811996840115,761.1811996840115,761.1811996840115,,,,,switch,number,numSwt,d,vtsPrac,761.9986498000217,,0.7856461729679722,,,,,,,,,,,,,,,,,,,,,,,,44402,2022-11-16_10h16.28.891,vts_reward_expectancy_bt_OFFLINE,2022.2.4,59.927513715722,
,,,,,,,,,,,,,,,,,,,,,,,,,,,,,,,,,,0,0,0,0,8,0,8,0,,,,,,,,,,,,,,,,,,,,,,,,,,,,0,765,,,768.0554273450107,181,Y,hexagon,0.0016344439936801791,,,,,1,0,,,2,,,,,,,,,,,,,,764.4817665500159,764.4817665500159,764.4817665500159,764.4817665500159,765.9864725580264,765.9864725580264,765.9864725580264,765.9864725580264,765.9864725580264,765.9864725580264,765.9864725580264,765.9864725580264,,,,,repeat,number,numRpt,f,vtsPrac,766.5538284820213,,0.5497795319824945,,,,,,,,,,,,,,,,,,,,,,,,44402,2022-11-16_10h16.28.891,vts_reward_expectancy_bt_OFFLINE,2022.2.4,59.927513715722,
,,,,,,,,,,,,,,,,,,,,,,,,,,,,,,,,,,0,0,0,0,9,0,9,0,,,,,,,,,,,,,,,,,,,,,,,,,,,,0,765,,,772.5270793100062,160,B,star,0.0013836760190315545,,,,,1,0,,,2,,,,,,,,,,,,,,769.0335899750062,769.0335899750062,769.0335899750062,769.0335899750062,770.5415298980079,770.5415298980079,770.5415298980079,770.5415298980079,770.5415298980079,770.5415298980079,770.5415298980079,770.5415298980079,,,,,switch,letter,lettSwt,j,vtsPrac,771.025287240016,,0.46068390100845136,,,,,,,,,,,,,,,,,,,,,,,,44402,2022-11-16_10h16.28.891,vts_reward_expectancy_bt_OFFLINE,2022.2.4,59.927513715722,
,,,,,,,,,,,,,,,,,,,,,,,,,,,,,,,,,,0,0,0,0,10,0,10,0,,,,,,,,,,,,,,,,,,,,,,,,,,,,0,765,,,776.8984648020123,146,W,hexagon,0.001630924001801759,,,,,1,0,,,2,,,,,,,,,,,,,,773.5069433110184,773.5069433110184,773.5069433110184,773.5069433110184,775.0131202230114,775.0131202230114,775.0131202230114,775.0131202230114,775.0131202230114,775.0131202230114,775.0131202230114,775.0131202230114,,,,,repeat,letter,lettRpt,k,vtsPrac,775.3969411050202,,0.36578743599238805,,,,,,,,,,,,,,,,,,,,,,,,44402,2022-11-16_10h16.28.891,vts_reward_expectancy_bt_OFFLINE,2022.2.4,59.927513715722,
,,,,,,,,,,,,,,,,,,,,,,,,,,,,,,,,,,0,0,0,0,11,0,11,0,,,,,,,,,,,,,,,,,,,,,,,,,,,,0,765,,,781.3200019020005,167,H,triangle,0.0015031530056148767,,,,,1,0,,,2,,,,,,,,,,,,,,777.8778902960184,777.8778902960184,777.8778902960184,777.8778902960184,779.3845609940181,779.3845609940181,779.3845609940181,779.3845609940181,779.3845609940181,779.3845609940181,779.3845609940181,779.3845609940181,,,,,repeat,letter,lettRpt,j,vtsPrac,779.8182549950143,,0.4040482569835149,,,,,,,,,,,,,,,,,,,,,,,,44402,2022-11-16_10h16.28.891,vts_reward_expectancy_bt_OFFLINE,2022.2.4,59.927513715722,
,,,,,,,,,,,,,,,,,,,,,,,,,,,,,,,,,,0,0,0,0,12,0,12,0,,,,,,,,,,,,,,,,,,,,,,,,,,,,0,765,,,785.8420013410214,132,B,star,0.0017488489975221455,,,,,1,0,,,2,,,,,,,,,,,,,,782.2992975040106,782.2992975040106,782.2992975040106,782.2992975040106,783.8060946710175,783.8060946710175,783.8060946710175,783.8060946710175,783.8060946710175,783.8060946710175,783.8060946710175,783.8060946710175,,,,,repeat,letter,lettRpt,j,vtsPrac,784.340024959005,,0.5042005110008176,,,,,,,,,,,,,,,,,,,,,,,,44402,2022-11-16_10h16.28.891,vts_reward_expectancy_bt_OFFLINE,2022.2.4,59.927513715722,
,,,,,,,,,,,,,,,,,,,,,,,,,,,,,,,,,,0,0,0,0,13,0,13,0,,,,,,,,,,,,,,,,,,,,,,,,,,,,0,765,,,790.2964650520007,181,W,hexagon,0.0015519550070166588,,,,,1,0,,,2,,,,,,,,,,,,,,786.8211722060223,786.8211722060223,786.8211722060223,786.8211722060223,788.3279048650002,788.3279048650002,788.3279048650002,788.3279048650002,788.3279048650002,788.3279048650002,788.3279048650002,788.3279048650002,,,,,repeat,letter,lettRpt,k,vtsPrac,788.7949479170202,,0.4500960689911153,,,,,,,,,,,,,,,,,,,,,,,,44402,2022-11-16_10h16.28.891,vts_reward_expectancy_bt_OFFLINE,2022.2.4,59.927513715722,
,,,,,,,,,,,,,,,,,,,,,,,,,,,,,,,,,,0,0,0,0,14,0,14,0,,,,,,,,,,,,,,,,,,,,,,,,,,,,0,765,,,794.8349773049995,146,D,hexagon,0.0014340239868033677,,,,,1,0,,,2,,,,,,,,,,,,,,791.2777570950275,791.2777570950275,791.2777570950275,791.2777570950275,792.7826850750134,792.7826850750134,792.7826850750134,792.7826850750134,792.7826850750134,792.7826850750134,792.7826850750134,792.7826850750134,,,,,switch,number,numSwt,d,vtsPrac,793.3331404040218,,0.5175042869814206,,,,,,,,,,,,,,,,,,,,,,,,44402,2022-11-16_10h16.28.891,vts_reward_expectancy_bt_OFFLINE,2022.2.4,59.927513715722,
,,,,,,,,,,,,,,,,,,,,,,,,,,,,,,,,,,0,0,0,0,15,0,15,0,,,,,,,,,,,,,,,,,,,,,,,,,,,,0,765,,,799.2898912320088,174,U,circle,0.0016556360060349107,,,,,1,0,,,2,,,,,,,,,,,,,,795.813981890009,795.813981890009,795.813981890009,795.813981890009,797.3211033150146,797.3211033150146,797.3211033150146,797.3211033150146,797.3211033150146,797.3211033150146,797.3211033150146,797.3211033150146,,,,,repeat,number,numRpt,f,vtsPrac,797.7882636280265,,0.4448894750094041,,,,,,,,,,,,,,,,,,,,,,,,44402,2022-11-16_10h16.28.891,vts_reward_expectancy_bt_OFFLINE,2022.2.4,59.927513715722,
,,,,,,,,,,,,,,,,,,,,,,,,,,,,,,,,,,0,0,0,0,16,0,16,0,,,,,,,,,,,,,,,,,,,,,,,,,,,,0,765,,,804.045333535003,139,U,triangle,0.0014060469984542578,,,,,1,0,,,2,,,,,,,,,,,,,,800.2673975400103,800.2673975400103,800.2673975400103,800.2673975400103,801.7758630690223,801.7758630690223,801.7758630690223,801.7758630690223,801.7758630690223,801.7758630690223,801.7758630690223,801.7758630690223,,,,,repeat,number,numRpt,d,vtsPrac,802.5434750310087,,0.7379376449680422,,,,,,,,,,,,,,,,,,,,,,,,44402,2022-11-16_10h16.28.891,vts_reward_expectancy_bt_OFFLINE,2022.2.4,59.927513715722,
,,,,,,,,,,,,,,,,,,,,,,,,,,,,,,,,,,0,0,0,0,17,0,17,0,,,,,,,,,,,,,,,,,,,,,,,,,,,,0,765,,,809.2343000120018,174,S,star,0.00150246502016671,,,,,1,0,,,2,,,,,,,,,,,,,,805.0262273130065,805.0262273130065,805.0262273130065,805.0262273130065,806.531348686025,806.531348686025,806.531348686025,806.531348686025,806.531348686025,806.531348686025,806.531348686025,806.531348686025,,,,,switch,letter,lettSwt,k,vtsPrac,807.7324359410268,,1.180377512006089,,,,,,,,,,,,,,,,,,,,,,,,44402,2022-11-16_10h16.28.891,vts_reward_expectancy_bt_OFFLINE,2022.2.4,59.927513715722,
,,,,,,,,,,,,,,,,,,,,,,,,,,,,,,,,,,0,0,0,0,18,0,18,0,,,,,,,,,,,,,,,,,,,,,,,,,,,,0,765,,,814.0728108020267,146,F,circle,0.001499206991866231,,,,,1,0,,,2,,,,,,,,,,,,,,810.2135327730211,810.2135327730211,810.2135327730211,810.2135327730211,811.720414195006,811.720414195006,811.720414195006,811.720414195006,811.720414195006,811.720414195006,811.720414195006,811.720414195006,,,,,repeat,letter,lettRpt,j,vtsPrac,812.5712607790192,,0.8178989789739717,,,,,,,,,,,,,,,,,,,,,,,,44402,2022-11-16_10h16.28.891,vts_reward_expectancy_bt_OFFLINE,2022.2.4,59.927513715722,
,,,,,,,,,,,,,,,,,,,,,,,,,,,,,,,,,,0,0,0,0,19,0,19,0,,,,,,,,,,,,,,,,,,,,,,,,,,,,0,765,,,818.661146006023,160,D,triangle,0.001487179979449138,,,,,1,0,,,2,,,,,,,,,,,,,,815.0527525690268,815.0527525690268,815.0527525690268,815.0527525690268,816.5588457109989,816.5588457109989,816.5588457109989,816.5588457109989,816.5588457109989,816.5588457109989,816.5588457109989,816.5588457109989,,,,,repeat,letter,lettRpt,j,vtsPrac,817.1596898120188,,0.5796487859915942,,,,,,,,,,,,,,,,,,,,,,,,44402,2022-11-16_10h16.28.891,vts_reward_expectancy_bt_OFFLINE,2022.2.4,59.927513715722,
,,,,,,,,,,,,,,,,,,,,,,,,,,,,,,,,,,0,0,0,0,20,0,20,0,,,,,,,,,,,,,,,,,,,,,,,,,,,,0,765,,,823.2162512940122,146,F,star,0.001604395016329363,,,,,1,0,,,2,,,,,,,,,,,,,,819.6405334030278,819.6405334030278,819.6405334030278,819.6405334030278,821.1473736940243,821.1473736940243,821.1473736940243,821.1473736940243,821.1473736940243,821.1473736940243,821.1473736940243,821.1473736940243,,,,,switch,number,numSwt,d,vtsPrac,821.7138385630096,,0.5362690020119771,,,,,,,,,,,,,,,,,,,,,,,,44402,2022-11-16_10h16.28.891,vts_reward_expectancy_bt_OFFLINE,2022.2.4,59.927513715722,
,,,,,,,,,,,,,,,,,,,,,,,,,,,,,,,,,,0,0,0,0,21,0,21,0,,,,,,,,,,,,,,,,,,,,,,,,,,,,0,765,,,827.8547236270097,139,H,circle,0.0024711530131753534,,,,,1,0,,,2,,,,,,,,,,,,,,824.1943546810071,824.1943546810071,824.1943546810071,824.1943546810071,825.7022716480133,825.7022716480133,825.7022716480133,825.7022716480133,825.7022716480133,825.7022716480133,825.7022716480133,825.7022716480133,,,,,repeat,number,numRpt,d,vtsPrac,826.3528021980019,,0.6177196179924067,,,,,,,,,,,,,,,,,,,,,,,,44402,2022-11-16_10h16.28.891,vts_reward_expectancy_bt_OFFLINE,2022.2.4,59.927513715722,
,,,,,,,,,,,,,,,,,,,,,,,,,,,,,,,,,,0,0,0,0,22,0,22,0,,,,,,,,,,,,,,,,,,,,,,,,,,,,0,765,,,832.9938401420077,160,U,hexagon,0.0016476149903610349,,,,,0,0,,,2,,,,,,,,,,,,,,828.8333268450224,828.8333268450224,828.8333268450224,828.8333268450224,830.3408730610099,830.3408730610099,830.3408730610099,830.3408730610099,830.3408730610099,830.3408730610099,830.3408730610099,830.3408730610099,,,,,repeat,number,NA,d,vtsPrac,831.4925814550079,,1.1202730519580655,,,,,,,,,,,,,,,,,,,,,,,,44402,2022-11-16_10h16.28.891,vts_reward_expectancy_bt_OFFLINE,2022.2.4,59.927513715722,
,,,,,,,,,,,,,,,,,,,,,,,,,,,,,,,,,,0,0,0,0,23,0,23,0,,,,,,,,,,,,,,,,,,,,,,,,,,,,0,765,,,837.9992136880173,167,S,triangle,0.001524772000266239,,,,,1,1,,,2,,,,,,,,,,,,,,833.9729823840025,833.9729823840025,833.9729823840025,833.9729823840025,835.4798056700092,835.4798056700092,835.4798056700092,835.4798056700092,835.4798056700092,835.4798056700092,835.4798056700092,835.4798056700092,,,,,repeat,number,numRpt,f,vtsPrac,836.4977644910105,,0.9998319009609986,,,,,,,,,,,,,,,,,,,,,,,,44402,2022-11-16_10h16.28.891,vts_reward_expectancy_bt_OFFLINE,2022.2.4,59.927513715722,
,,,,,,,,,,,,,,,,,,,,,,,,,,,,,,,,,,0,0,0,0,24,0,24,0,,,,,,,,,,,,,,,,,,,,,,,,,,,,0,765,,,842.7379419880162,167,S,triangle,0.0016687259776517749,,,,,1,0,,,2,,,,,,,,,,,,,,838.977365224011,838.977365224011,838.977365224011,838.977365224011,840.4852194780251,840.4852194780251,840.4852194780251,840.4852194780251,840.4852194780251,840.4852194780251,840.4852194780251,840.4852194780251,,,,,repeat,number,numRpt,f,vtsPrac,841.23603972001,,0.7298557539761532,,,,,,,,,,,,,,,,,,,,,,,,44402,2022-11-16_10h16.28.891,vts_reward_expectancy_bt_OFFLINE,2022.2.4,59.927513715722,
,,,,,,,,,,,,,,,,,,,,,,,,,,,,,,,,,,0,0,0,0,25,0,25,0,,,,,,,,,,,,,,,,,,,,,,,,,,,,0,765,,,847.3261620500125,174,H,circle,0.001539524004328996,,,,,1,0,,,2,,,,,,,,,,,,,,843.7172936420247,843.7172936420247,843.7172936420247,843.7172936420247,845.2237823470205,845.2237823470205,845.2237823470205,845.2237823470205,845.2237823470205,845.2237823470205,845.2237823470205,845.2237823470205,,,,,repeat,number,numRpt,f,vtsPrac,845.8244946260238,,0.5824923519685399,,,,,,,,,,,,,,,,,,,,,,,,44402,2022-11-16_10h16.28.891,vts_reward_expectancy_bt_OFFLINE,2022.2.4,59.927513715722,
,,,,,,,,,,,,,,,,,,,,,,,,,,,,,,,,,,0,0,0,0,26,0,26,0,,,,,,,,,,,,,,,,,,,,,,,,,,,,0,765,,,852.064797250001,160,B,hexagon,0.0017717799928504974,,,,,1,0,,,2,,,,,,,,,,,,,,848.3051454680099,848.3051454680099,848.3051454680099,848.3051454680099,849.8122041330207,849.8122041330207,849.8122041330207,849.8122041330207,849.8122041330207,849.8122041330207,849.8122041330207,849.8122041330207,,,,,switch,letter,lettSwt,j,vtsPrac,850.5631591230049,,0.7286336489778478,,,,,,,,,,,,,,,,,,,,,,,,44402,2022-11-16_10h16.28.891,vts_reward_expectancy_bt_OFFLINE,2022.2.4,59.927513715722,
,,,,,,,,,,,,,,,,,,,,,,,,,,,,,,,,,,0,0,0,0,27,0,27,0,,,,,,,,,,,,,,,,,,,,,,,,,,,,0,765,,,856.6698766240152,132,U,circle,0.0015258060011547059,,,,,1,0,,,2,,,,,,,,,,,,,,853.0443521100096,853.0443521100096,853.0443521100096,853.0443521100096,854.5508097360143,854.5508097360143,854.5508097360143,854.5508097360143,854.5508097360143,854.5508097360143,854.5508097360143,854.5508097360143,,,,,repeat,letter,lettRpt,k,vtsPrac,855.1682572280115,,0.5913981769699603,,,,,,,,,,,,,,,,,,,,,,,,44402,2022-11-16_10h16.28.891,vts_reward_expectancy_bt_OFFLINE,2022.2.4,59.927513715722,
,,,,,,,,,,,,,,,,,,,,,,,,,,,,,,,,,,0,0,0,0,28,0,28,0,,,,,,,,,,,,,,,,,,,,,,,,,,,,0,765,,,861.6587328570022,160,F,triangle,0.0015117570001166314,,,,,1,0,,,2,,,,,,,,,,,,,,857.649117767025,857.649117767025,857.649117767025,857.649117767025,859.15576895501,859.15576895501,859.15576895501,859.15576895501,859.15576895501,859.15576895501,859.15576895501,859.15576895501,,,,,repeat,letter,lettRpt,j,vtsPrac,860.1569955560262,,0.9704643689619843,,,,,,,,,,,,,,,,,,,,,,,,44402,2022-11-16_10h16.28.891,vts_reward_expectancy_bt_OFFLINE,2022.2.4,59.927513715722,
