LTriangleOpac,LCircleOpac,LHexagonOpac,LStarOpac,RTriangleOpac,RCircleOpac,RHexagonOpac,RStarOpac,LShape_ID,RShape_ID,training_blocks.thisRepN,training_blocks.thisTrialN,training_blocks.thisN,training_blocks.thisIndex,training.thisRepN,training.thisTrialN,training.thisN,training.thisIndex,task1_prac_redo.thisRepN,task1_prac_redo.thisTrialN,task1_prac_redo.thisN,task1_prac_redo.thisIndex,task1_prac_trials.thisRepN,task1_prac_trials.thisTrialN,task1_prac_trials.thisN,task1_prac_trials.thisIndex,task2_prac_redo.thisRepN,task2_prac_redo.thisTrialN,task2_prac_redo.thisN,task2_prac_redo.thisIndex,task2_praac_trials.thisRepN,task2_praac_trials.thisTrialN,task2_praac_trials.thisN,task2_praac_trials.thisIndex,vts_prac_redo.thisRepN,vts_prac_redo.thisTrialN,vts_prac_redo.thisN,vts_prac_redo.thisIndex,vts_practice_trials.thisRepN,vts_practice_trials.thisTrialN,vts_practice_trials.thisN,vts_practice_trials.thisIndex,trials_norew.thisRepN,trials_norew.thisTrialN,trials_norew.thisN,trials_norew.thisIndex,block.thisRepN,block.thisTrialN,block.thisN,block.thisIndex,trials_rew.thisRepN,trials_rew.thisTrialN,trials_rew.thisN,trials_rew.thisIndex,key_resp.started,key_resp.keys,key_resp.rt,left_circle.started,right_circle.started,left_triangle.started,right_triangle.started,left_star.started,right_star.started,left_hexagon.started,right_hexagon.started,training_fix.started,training_resp.started,training_resp.keys,training_resp.rt,points_trial,points_cumul,trainBlock,training_feedback_txt.started,fix.started,training_feedback_txt.stopped,fix.stopped,curr_topStim,curr_bottStim,curr_shape,ISI.started,tgt_fix_prac1.started,top_target_prac1.started,bott_target_prac1.started,target_resp_prac1.started,acc,E1,target_resp_prac1.keys,target_resp_prac1.rt,pracBlock,prac_fback_text.started,prac_fback_text.stopped,tgt_fix_prac2.started,top_target_prac2.started,bott_target_prac2.started,target_resp_prac2.started,target_resp_prac2.keys,target_resp_prac2.rt,star.started,hegagon.started,triangle.started,circle.started,top_target.started,tgt_fix.started,bot_target.started,target_resp.started,star.stopped,hegagon.stopped,triangle.stopped,circle.stopped,alt,task,condition,target_resp.keys,target_resp.rt,rewCond,vts_fback.started,vts_fback.stopped,blockNum,norew_fback.started,norew_fback.stopped,top_target.stopped,tgt_fix.stopped,bot_target.stopped,target_resp.stopped,key_resp_2.keys,key_resp_2.rt,rewExpectancy,feedbk_text.started,feedbk_text.stopped,text_3.started,debrief.started,text_3.stopped,button.started,debrief.index,debrief.itemText,debrief.type,debrief.granularity,debrief.font,debrief.markerColor,debrief.response,debrief.rt,button.numClicks,button.timesOn,button.timesOff,participant,date,expName,psychopyVersion,frameRate,
,,,,,,,,,,,,,,,,,,,,,,,,,,,,,,,,,,,,,,,,,,,,,,,,,,,,,,14.300949036842212,space,43.297438458073884,,,,,,,,,,,,,,,,,,,,,,,,,,,,,,,,,,,,,,,,,,,,,,,,,,,,,,,,,,,,,,,,,,,,,,,,,,,,,,,,,,,,,,,,44527,2022-11-14_14h08.43.665,vts_reward_expectancy_bt_OFFLINE,2022.2.4,59.93466954056642,
0,1,0,0,0,0,1,0,circle,hexagon,0,0,0,0,0,0,0,4,,,,,,,,,,,,,,,,,,,,,,,,,,,,,,,,,,,,,,,,58.55698134494014,58.55698134494014,58.55698134494014,58.55698134494014,58.55698134494014,58.55698134494014,58.55698134494014,58.55698134494014,58.55698134494014,58.55698134494014,a,24.98403021506965,10,10,0,83.56531002186239,85.06571263982914,,,,,,,,,,,,,,,,,,,,,,,,,,,,,,,,,,,,,,,,,,,,,,,,,,,,,,,,,,,,,,,,,,,,,,,44527,2022-11-14_14h08.43.665,vts_reward_expectancy_bt_OFFLINE,2022.2.4,59.93466954056642,
0,0,0,1,1,0,0,0,star,triangle,0,0,0,0,0,1,1,9,,,,,,,,,,,,,,,,,,,,,,,,,,,,,,,,,,,,,,,,85.56605843780562,85.56605843780562,85.56605843780562,85.56605843780562,85.56605843780562,85.56605843780562,85.56605843780562,85.56605843780562,85.56605843780562,85.56605843780562,a,2.227837526006624,1,11,0,87.81728643085808,89.31906336802058,,,,,,,,,,,,,,,,,,,,,,,,,,,,,,,,,,,,,,,,,,,,,,,,,,,,,,,,,,,,,,,,,,,,,,,44527,2022-11-14_14h08.43.665,vts_reward_expectancy_bt_OFFLINE,2022.2.4,59.93466954056642,
0,0,0,1,0,1,0,0,star ,circle,0,0,0,0,0,2,2,10,,,,,,,,,,,,,,,,,,,,,,,,,,,,,,,,,,,,,,,,89.81932750181295,89.81932750181295,89.81932750181295,89.81932750181295,89.81932750181295,89.81932750181295,89.81932750181295,89.81932750181295,89.81932750181295,89.81932750181295,l,1.4846472560893744,10,21,0,91.33671072591096,92.83719387184829,92.83719387184829,93.33725687884726,,,,,,,,,,,,,,,,,,,,,,,,,,,,,,,,,,,,,,,,,,,,,,,,,,,,,,,,,,,,,,,,,,,,,44527,2022-11-14_14h08.43.665,vts_reward_expectancy_bt_OFFLINE,2022.2.4,59.93466954056642,
0,0,1,0,0,0,0,1,hexagon,star,0,0,0,0,0,3,3,8,,,,,,,,,,,,,,,,,,,,,,,,,,,,,,,,,,,,,,,,93.33725687884726,93.33725687884726,93.33725687884726,93.33725687884726,93.33725687884726,93.33725687884726,93.33725687884726,93.33725687884726,93.33725687884726,93.33725687884726,a,0.8473843429237604,1,22,0,94.20646319794469,95.70694338297471,95.70694338297471,96.20706543582492,,,,,,,,,,,,,,,,,,,,,,,,,,,,,,,,,,,,,,,,,,,,,,,,,,,,,,,,,,,,,,,,,,,,,44527,2022-11-14_14h08.43.665,vts_reward_expectancy_bt_OFFLINE,2022.2.4,59.93466954056642,
1,0,0,0,0,0,1,0,triangle,hexagon,0,0,0,0,0,4,4,1,,,,,,,,,,,,,,,,,,,,,,,,,,,,,,,,,,,,,,,,96.20706543582492,96.20706543582492,96.20706543582492,96.20706543582492,96.20706543582492,96.20706543582492,96.20706543582492,96.20706543582492,96.20706543582492,96.20706543582492,l,1.2846881859004498,1,23,0,97.52377131697722,99.02613544883206,,,,,,,,,,,,,,,,,,,,,,,,,,,,,,,,,,,,,,,,,,,,,,,,,,,,,,,,,,,,,,,,,,,,,,,44527,2022-11-14_14h08.43.665,vts_reward_expectancy_bt_OFFLINE,2022.2.4,59.93466954056642,
1,0,0,0,0,0,0,1,triangle,star,0,0,0,0,0,5,5,2,,,,,,,,,,,,,,,,,,,,,,,,,,,,,,,,,,,,,,,,99.5265577568207,99.5265577568207,99.5265577568207,99.5265577568207,99.5265577568207,99.5265577568207,99.5265577568207,99.5265577568207,99.5265577568207,99.5265577568207,a,1.3517327951267362,10,33,0,100.91052914294414,102.41128144902177,102.41128144902177,102.9112834369298,,,,,,,,,,,,,,,,,,,,,,,,,,,,,,,,,,,,,,,,,,,,,,,,,,,,,,,,,,,,,,,,,,,,,44527,2022-11-14_14h08.43.665,vts_reward_expectancy_bt_OFFLINE,2022.2.4,59.93466954056642,
1,0,0,0,0,1,0,0,triangle,circle,0,0,0,0,0,6,6,0,,,,,,,,,,,,,,,,,,,,,,,,,,,,,,,,,,,,,,,,102.9112834369298,102.9112834369298,102.9112834369298,102.9112834369298,102.9112834369298,102.9112834369298,102.9112834369298,102.9112834369298,102.9112834369298,102.9112834369298,a,0.9033478109631687,1,34,0,103.84499720390886,105.34715799381956,,,,,,,,,,,,,,,,,,,,,,,,,,,,,,,,,,,,,,,,,,,,,,,,,,,,,,,,,,,,,,,,,,,,,,,44527,2022-11-14_14h08.43.665,vts_reward_expectancy_bt_OFFLINE,2022.2.4,59.93466954056642,
0,0,1,0,1,0,0,0,hexagon,triangle,0,0,0,0,0,7,7,6,,,,,,,,,,,,,,,,,,,,,,,,,,,,,,,,,,,,,,,,105.8473000288941,105.8473000288941,105.8473000288941,105.8473000288941,105.8473000288941,105.8473000288941,105.8473000288941,105.8473000288941,105.8473000288941,105.8473000288941,l,5.493916348088533,1,35,0,111.36816678801551,112.86854242696427,112.86854242696427,113.36875455686823,,,,,,,,,,,,,,,,,,,,,,,,,,,,,,,,,,,,,,,,,,,,,,,,,,,,,,,,,,,,,,,,,,,,,44527,2022-11-14_14h08.43.665,vts_reward_expectancy_bt_OFFLINE,2022.2.4,59.93466954056642,
0,1,0,0,0,0,0,1,circle,star,0,0,0,0,0,8,8,5,,,,,,,,,,,,,,,,,,,,,,,,,,,,,,,,,,,,,,,,113.36875455686823,113.36875455686823,113.36875455686823,113.36875455686823,113.36875455686823,113.36875455686823,113.36875455686823,113.36875455686823,113.36875455686823,113.36875455686823,a,1.561483239987865,10,45,0,114.954513334902,116.45496952882968,116.45496952882968,116.95499604800716,,,,,,,,,,,,,,,,,,,,,,,,,,,,,,,,,,,,,,,,,,,,,,,,,,,,,,,,,,,,,,,,,,,,,44527,2022-11-14_14h08.43.665,vts_reward_expectancy_bt_OFFLINE,2022.2.4,59.93466954056642,
0,1,0,0,1,0,0,0,circle,triangle,0,0,0,0,0,9,9,3,,,,,,,,,,,,,,,,,,,,,,,,,,,,,,,,,,,,,,,,116.95499604800716,116.95499604800716,116.95499604800716,116.95499604800716,116.95499604800716,116.95499604800716,116.95499604800716,116.95499604800716,116.95499604800716,116.95499604800716,a,7.358408675994724,10,55,0,124.34441397502087,125.84520083782263,125.84520083782263,,,,,,,,,,,,,,,,,,,,,,,,,,,,,,,,,,,,,,,,,,,,,,,,,,,,,,,,,,,,,,,,,,,,,,44527,2022-11-14_14h08.43.665,vts_reward_expectancy_bt_OFFLINE,2022.2.4,59.93466954056642,
0,0,1,0,0,1,0,0,hexagon,circle,0,0,0,0,0,10,10,7,,,,,,,,,,,,,,,,,,,,,,,,,,,,,,,,,,,,,,,,126.34532669186592,126.34532669186592,126.34532669186592,126.34532669186592,126.34532669186592,126.34532669186592,126.34532669186592,126.34532669186592,126.34532669186592,126.34532669186592,l,1.6018041321076453,10,65,0,127.97960957488976,129.4818554490339,,,,,,,,,,,,,,,,,,,,,,,,,,,,,,,,,,,,,,,,,,,,,,,,,,,,,,,,,,,,,,,,,,,,,,,44527,2022-11-14_14h08.43.665,vts_reward_expectancy_bt_OFFLINE,2022.2.4,59.93466954056642,
0,0,0,1,0,0,1,0,star,hexagon,0,0,0,0,0,11,11,11,,,,,,,,,,,,,,,,,,,,,,,,,,,,,,,,,,,,,,,,129.9821047799196,129.9821047799196,129.9821047799196,129.9821047799196,129.9821047799196,129.9821047799196,129.9821047799196,129.9821047799196,129.9821047799196,129.9821047799196,l,0.677082512062043,1,66,0,130.6828869129531,132.18283870094456,132.18283870094456,,,,,,,,,,,,,,,,,,,,,,,,,,,,,,,,,,,,,,,,,,,,,,,,,,,,,,,,,,,,,,,,,,,,,,44527,2022-11-14_14h08.43.665,vts_reward_expectancy_bt_OFFLINE,2022.2.4,59.93466954056642,
1,0,0,0,0,0,0,1,triangle,star,0,0,0,0,1,0,12,2,,,,,,,,,,,,,,,,,,,,,,,,,,,,,,,,,,,,,,,,132.68317811493762,132.68317811493762,132.68317811493762,132.68317811493762,132.68317811493762,132.68317811493762,132.68317811493762,132.68317811493762,132.68317811493762,132.68317811493762,a,0.9909623020794243,1,67,0,133.6996534159407,135.20219943881966,,,,,,,,,,,,,,,,,,,,,,,,,,,,,,,,,,,,,,,,,,,,,,,,,,,,,,,,,,,,,,,,,,,,,,,44527,2022-11-14_14h08.43.665,vts_reward_expectancy_bt_OFFLINE,2022.2.4,59.93466954056642,
0,1,0,0,1,0,0,0,circle,triangle,0,0,0,0,1,1,13,3,,,,,,,,,,,,,,,,,,,,,,,,,,,,,,,,,,,,,,,,135.70225881086662,135.70225881086662,135.70225881086662,135.70225881086662,135.70225881086662,135.70225881086662,135.70225881086662,135.70225881086662,135.70225881086662,135.70225881086662,a,1.2454352139029652,10,77,0,136.9701528288424,138.47009025793523,138.47009025793523,,,,,,,,,,,,,,,,,,,,,,,,,,,,,,,,,,,,,,,,,,,,,,,,,,,,,,,,,,,,,,,,,,,,,,44527,2022-11-14_14h08.43.665,vts_reward_expectancy_bt_OFFLINE,2022.2.4,59.93466954056642,
0,0,1,0,1,0,0,0,hexagon,triangle,0,0,0,0,1,2,14,6,,,,,,,,,,,,,,,,,,,,,,,,,,,,,,,,,,,,,,,,138.9719625909347,138.9719625909347,138.9719625909347,138.9719625909347,138.9719625909347,138.9719625909347,138.9719625909347,138.9719625909347,138.9719625909347,138.9719625909347,l,1.0702050421386957,1,78,0,140.0725935769733,141.57319625187665,141.57319625187665,,,,,,,,,,,,,,,,,,,,,,,,,,,,,,,,,,,,,,,,,,,,,,,,,,,,,,,,,,,,,,,,,,,,,,44527,2022-11-14_14h08.43.665,vts_reward_expectancy_bt_OFFLINE,2022.2.4,59.93466954056642,
0,0,0,1,0,0,1,0,star,hexagon,0,0,0,0,1,3,15,11,,,,,,,,,,,,,,,,,,,,,,,,,,,,,,,,,,,,,,,,142.07322744699195,142.07322744699195,142.07322744699195,142.07322744699195,142.07322744699195,142.07322744699195,142.07322744699195,142.07322744699195,142.07322744699195,142.07322744699195,l,1.7265510149300098,1,79,0,143.82353398902342,145.32631750684232,,,,,,,,,,,,,,,,,,,,,,,,,,,,,,,,,,,,,,,,,,,,,,,,,,,,,,,,,,,,,,,,,,,,,,,44527,2022-11-14_14h08.43.665,vts_reward_expectancy_bt_OFFLINE,2022.2.4,59.93466954056642,
0,0,0,1,0,1,0,0,star ,circle,0,0,0,0,1,4,16,10,,,,,,,,,,,,,,,,,,,,,,,,,,,,,,,,,,,,,,,,145.8264820529148,145.8264820529148,145.8264820529148,145.8264820529148,145.8264820529148,145.8264820529148,145.8264820529148,145.8264820529148,145.8264820529148,145.8264820529148,l,1.0553399638738483,10,89,0,146.91248363186605,148.427240798017,,,,,,,,,,,,,,,,,,,,,,,,,,,,,,,,,,,,,,,,,,,,,,,,,,,,,,,,,,,,,,,,,,,,,,,44527,2022-11-14_14h08.43.665,vts_reward_expectancy_bt_OFFLINE,2022.2.4,59.93466954056642,
0,0,0,1,1,0,0,0,star,triangle,0,0,0,0,1,5,17,9,,,,,,,,,,,,,,,,,,,,,,,,,,,,,,,,,,,,,,,,148.92543310881592,148.92543310881592,148.92543310881592,148.92543310881592,148.92543310881592,148.92543310881592,148.92543310881592,148.92543310881592,148.92543310881592,148.92543310881592,a,1.3765175971202552,10,99,0,150.32995081599802,151.83041207282804,151.83041207282804,152.33074405184016,,,,,,,,,,,,,,,,,,,,,,,,,,,,,,,,,,,,,,,,,,,,,,,,,,,,,,,,,,,,,,,,,,,,,44527,2022-11-14_14h08.43.665,vts_reward_expectancy_bt_OFFLINE,2022.2.4,59.93466954056642,
0,1,0,0,0,0,0,1,circle,star,0,0,0,0,1,6,18,5,,,,,,,,,,,,,,,,,,,,,,,,,,,,,,,,,,,,,,,,152.33074405184016,152.33074405184016,152.33074405184016,152.33074405184016,152.33074405184016,152.33074405184016,152.33074405184016,152.33074405184016,152.33074405184016,152.33074405184016,l,1.0537915560416877,10,109,0,153.4142704079859,154.9164990268182,,,,,,,,,,,,,,,,,,,,,,,,,,,,,,,,,,,,,,,,,,,,,,,,,,,,,,,,,,,,,,,,,,,,,,,44527,2022-11-14_14h08.43.665,vts_reward_expectancy_bt_OFFLINE,2022.2.4,59.93466954056642,
0,1,0,0,0,0,1,0,circle,hexagon,0,0,0,0,1,7,19,4,,,,,,,,,,,,,,,,,,,,,,,,,,,,,,,,,,,,,,,,155.41694723302498,155.41694723302498,155.41694723302498,155.41694723302498,155.41694723302498,155.41694723302498,155.41694723302498,155.41694723302498,155.41694723302498,155.41694723302498,a,4.481707440922037,1,110,0,159.92101407493465,161.42105220491067,161.42105220491067,161.9209395579528,,,,,,,,,,,,,,,,,,,,,,,,,,,,,,,,,,,,,,,,,,,,,,,,,,,,,,,,,,,,,,,,,,,,,44527,2022-11-14_14h08.43.665,vts_reward_expectancy_bt_OFFLINE,2022.2.4,59.93466954056642,
0,0,1,0,0,0,0,1,hexagon,star,0,0,0,0,1,8,20,8,,,,,,,,,,,,,,,,,,,,,,,,,,,,,,,,,,,,,,,,161.9209395579528,161.9209395579528,161.9209395579528,161.9209395579528,161.9209395579528,161.9209395579528,161.9209395579528,161.9209395579528,161.9209395579528,161.9209395579528,a,0.5772548709064722,1,111,0,162.52109090588056,164.02366800187156,,,,,,,,,,,,,,,,,,,,,,,,,,,,,,,,,,,,,,,,,,,,,,,,,,,,,,,,,,,,,,,,,,,,,,,44527,2022-11-14_14h08.43.665,vts_reward_expectancy_bt_OFFLINE,2022.2.4,59.93466954056642,
0,0,1,0,0,1,0,0,hexagon,circle,0,0,0,0,1,9,21,7,,,,,,,,,,,,,,,,,,,,,,,,,,,,,,,,,,,,,,,,164.52386597380973,164.52386597380973,164.52386597380973,164.52386597380973,164.52386597380973,164.52386597380973,164.52386597380973,164.52386597380973,164.52386597380973,164.52386597380973,l,0.9786401640158147,10,121,0,165.52455279487185,167.0246398129966,167.0246398129966,,,,,,,,,,,,,,,,,,,,,,,,,,,,,,,,,,,,,,,,,,,,,,,,,,,,,,,,,,,,,,,,,,,,,,44527,2022-11-14_14h08.43.665,vts_reward_expectancy_bt_OFFLINE,2022.2.4,59.93466954056642,
1,0,0,0,0,0,1,0,triangle,hexagon,0,0,0,0,1,10,22,1,,,,,,,,,,,,,,,,,,,,,,,,,,,,,,,,,,,,,,,,167.52502730791457,167.52502730791457,167.52502730791457,167.52502730791457,167.52502730791457,167.52502730791457,167.52502730791457,167.52502730791457,167.52502730791457,167.52502730791457,a,0.9693692540749907,1,122,0,168.52502332581207,170.0274947360158,,,,,,,,,,,,,,,,,,,,,,,,,,,,,,,,,,,,,,,,,,,,,,,,,,,,,,,,,,,,,,,,,,,,,,,44527,2022-11-14_14h08.43.665,vts_reward_expectancy_bt_OFFLINE,2022.2.4,59.93466954056642,
1,0,0,0,0,1,0,0,triangle,circle,0,0,0,0,1,11,23,0,,,,,,,,,,,,,,,,,,,,,,,,,,,,,,,,,,,,,,,,170.5280381978955,170.5280381978955,170.5280381978955,170.5280381978955,170.5280381978955,170.5280381978955,170.5280381978955,170.5280381978955,170.5280381978955,170.5280381978955,l,2.5459835410583764,10,132,0,173.09630363993347,174.59766699699685,,,,,,,,,,,,,,,,,,,,,,,,,,,,,,,,,,,,,,,,,,,,,,,,,,,,,,,,,,,,,,,,,,,,,,,44527,2022-11-14_14h08.43.665,vts_reward_expectancy_bt_OFFLINE,2022.2.4,59.93466954056642,
1,0,0,0,0,0,0,1,triangle,star,0,0,0,0,2,0,24,2,,,,,,,,,,,,,,,,,,,,,,,,,,,,,,,,,,,,,,,,175.0980959609151,175.0980959609151,175.0980959609151,175.0980959609151,175.0980959609151,175.0980959609151,175.0980959609151,175.0980959609151,175.0980959609151,175.0980959609151,a,0.6862143641337752,1,133,0,175.81613175198436,177.31563548580743,177.31563548580743,177.81585577200167,,,,,,,,,,,,,,,,,,,,,,,,,,,,,,,,,,,,,,,,,,,,,,,,,,,,,,,,,,,,,,,,,,,,,44527,2022-11-14_14h08.43.665,vts_reward_expectancy_bt_OFFLINE,2022.2.4,59.93466954056642,
0,1,0,0,1,0,0,0,circle,triangle,0,0,0,0,2,1,25,3,,,,,,,,,,,,,,,,,,,,,,,,,,,,,,,,,,,,,,,,177.81585577200167,177.81585577200167,177.81585577200167,177.81585577200167,177.81585577200167,177.81585577200167,177.81585577200167,177.81585577200167,177.81585577200167,177.81585577200167,a,1.4338540940079838,10,143,0,179.26863243896514,180.768921257928,,,,,,,,,,,,,,,,,,,,,,,,,,,,,,,,,,,,,,,,,,,,,,,,,,,,,,,,,,,,,,,,,,,,,,,44527,2022-11-14_14h08.43.665,vts_reward_expectancy_bt_OFFLINE,2022.2.4,59.93466954056642,
1,0,0,0,0,1,0,0,triangle,circle,0,0,0,0,2,2,26,0,,,,,,,,,,,,,,,,,,,,,,,,,,,,,,,,,,,,,,,,181.2691542408429,181.2691542408429,181.2691542408429,181.2691542408429,181.2691542408429,181.2691542408429,181.2691542408429,181.2691542408429,181.2691542408429,181.2691542408429,a,1.1306967879645526,1,144,0,182.42014557681978,183.91984034795314,183.91984034795314,,,,,,,,,,,,,,,,,,,,,,,,,,,,,,,,,,,,,,,,,,,,,,,,,,,,,,,,,,,,,,,,,,,,,,44527,2022-11-14_14h08.43.665,vts_reward_expectancy_bt_OFFLINE,2022.2.4,59.93466954056642,
1,0,0,0,0,0,1,0,triangle,hexagon,0,0,0,0,2,3,27,1,,,,,,,,,,,,,,,,,,,,,,,,,,,,,,,,,,,,,,,,184.42187509080395,184.42187509080395,184.42187509080395,184.42187509080395,184.42187509080395,184.42187509080395,184.42187509080395,184.42187509080395,184.42187509080395,184.42187509080395,l,1.3878437341190875,1,145,0,185.83894335781224,187.33939707488753,187.33939707488753,187.839800755959,,,,,,,,,,,,,,,,,,,,,,,,,,,,,,,,,,,,,,,,,,,,,,,,,,,,,,,,,,,,,,,,,,,,,44527,2022-11-14_14h08.43.665,vts_reward_expectancy_bt_OFFLINE,2022.2.4,59.93466954056642,
0,1,0,0,0,0,1,0,circle,hexagon,0,0,0,0,2,4,28,4,,,,,,,,,,,,,,,,,,,,,,,,,,,,,,,,,,,,,,,,187.839800755959,187.839800755959,187.839800755959,187.839800755959,187.839800755959,187.839800755959,187.839800755959,187.839800755959,187.839800755959,187.839800755959,a,1.2091313600540161,10,155,0,189.07612964580767,190.57588559482247,190.57588559482247,,,,,,,,,,,,,,,,,,,,,,,,,,,,,,,,,,,,,,,,,,,,,,,,,,,,,,,,,,,,,,,,,,,,,,44527,2022-11-14_14h08.43.665,vts_reward_expectancy_bt_OFFLINE,2022.2.4,59.93466954056642,
0,0,1,0,0,0,0,1,hexagon,star,0,0,0,0,2,5,29,8,,,,,,,,,,,,,,,,,,,,,,,,,,,,,,,,,,,,,,,,191.07612676289864,191.07612676289864,191.07612676289864,191.07612676289864,191.07612676289864,191.07612676289864,191.07612676289864,191.07612676289864,191.07612676289864,191.07612676289864,l,1.302804628154263,10,165,0,192.40950337983668,193.91005670093,193.91005670093,,,,,,,,,,,,,,,,,,,,,,,,,,,,,,,,,,,,,,,,,,,,,,,,,,,,,,,,,,,,,,,,,,,,,,44527,2022-11-14_14h08.43.665,vts_reward_expectancy_bt_OFFLINE,2022.2.4,59.93466954056642,
0,0,0,1,0,1,0,0,star ,circle,0,0,0,0,2,6,30,10,,,,,,,,,,,,,,,,,,,,,,,,,,,,,,,,,,,,,,,,194.41232479689643,194.41232479689643,194.41232479689643,194.41232479689643,194.41232479689643,194.41232479689643,194.41232479689643,194.41232479689643,194.41232479689643,194.41232479689643,l,1.0953232371248305,10,175,0,195.5296317478642,197.03018621797673,197.03018621797673,197.5301855399739,,,,,,,,,,,,,,,,,,,,,,,,,,,,,,,,,,,,,,,,,,,,,,,,,,,,,,,,,,,,,,,,,,,,,44527,2022-11-14_14h08.43.665,vts_reward_expectancy_bt_OFFLINE,2022.2.4,59.93466954056642,
0,1,0,0,0,0,0,1,circle,star,0,0,0,0,2,7,31,5,,,,,,,,,,,,,,,,,,,,,,,,,,,,,,,,,,,,,,,,197.5301855399739,197.5301855399739,197.5301855399739,197.5301855399739,197.5301855399739,197.5301855399739,197.5301855399739,197.5301855399739,197.5301855399739,197.5301855399739,a,0.6100683060940355,1,176,0,198.16431317781098,199.66600129799917,,,,,,,,,,,,,,,,,,,,,,,,,,,,,,,,,,,,,,,,,,,,,,,,,,,,,,,,,,,,,,,,,,,,,,,44527,2022-11-14_14h08.43.665,vts_reward_expectancy_bt_OFFLINE,2022.2.4,59.93466954056642,
0,0,0,1,0,0,1,0,star,hexagon,0,0,0,0,2,8,32,11,,,,,,,,,,,,,,,,,,,,,,,,,,,,,,,,,,,,,,,,200.16617570002563,200.16617570002563,200.16617570002563,200.16617570002563,200.16617570002563,200.16617570002563,200.16617570002563,200.16617570002563,200.16617570002563,200.16617570002563,l,1.9675864318851382,1,177,0,202.15030942880549,203.65094366995618,203.65094366995618,,,,,,,,,,,,,,,,,,,,,,,,,,,,,,,,,,,,,,,,,,,,,,,,,,,,,,,,,,,,,,,,,,,,,,44527,2022-11-14_14h08.43.665,vts_reward_expectancy_bt_OFFLINE,2022.2.4,59.93466954056642,
0,0,0,1,1,0,0,0,star,triangle,0,0,0,0,2,9,33,9,,,,,,,,,,,,,,,,,,,,,,,,,,,,,,,,,,,,,,,,204.1529294520151,204.1529294520151,204.1529294520151,204.1529294520151,204.1529294520151,204.1529294520151,204.1529294520151,204.1529294520151,204.1529294520151,204.1529294520151,l,0.7824488889891654,1,178,0,204.95295516587794,206.45359181100503,206.45359181100503,206.95384529302828,,,,,,,,,,,,,,,,,,,,,,,,,,,,,,,,,,,,,,,,,,,,,,,,,,,,,,,,,,,,,,,,,,,,,44527,2022-11-14_14h08.43.665,vts_reward_expectancy_bt_OFFLINE,2022.2.4,59.93466954056642,
0,0,1,0,0,1,0,0,hexagon,circle,0,0,0,0,2,10,34,7,,,,,,,,,,,,,,,,,,,,,,,,,,,,,,,,,,,,,,,,206.95384529302828,206.95384529302828,206.95384529302828,206.95384529302828,206.95384529302828,206.95384529302828,206.95384529302828,206.95384529302828,206.95384529302828,206.95384529302828,l,1.2107843649573624,1,179,0,208.18759211990982,209.69006887590513,,,,,,,,,,,,,,,,,,,,,,,,,,,,,,,,,,,,,,,,,,,,,,,,,,,,,,,,,,,,,,,,,,,,,,,44527,2022-11-14_14h08.43.665,vts_reward_expectancy_bt_OFFLINE,2022.2.4,59.93466954056642,
0,0,1,0,1,0,0,0,hexagon,triangle,0,0,0,0,2,11,35,6,,,,,,,,,,,,,,,,,,,,,,,,,,,,,,,,,,,,,,,,210.1903674278874,210.1903674278874,210.1903674278874,210.1903674278874,210.1903674278874,210.1903674278874,210.1903674278874,210.1903674278874,210.1903674278874,210.1903674278874,l,0.8759362460114062,1,180,0,211.09058546787128,212.591313483892,212.591313483892,213.09138949681073,,,,,,,,,,,,,,,,,,,,,,,,,,,,,,,,,,,,,,,,,,,,,,,,,,,,,,,,,,,,,,,,,,,,,44527,2022-11-14_14h08.43.665,vts_reward_expectancy_bt_OFFLINE,2022.2.4,59.93466954056642,
1,0,0,0,0,0,1,0,triangle,hexagon,0,0,0,0,3,0,36,1,,,,,,,,,,,,,,,,,,,,,,,,,,,,,,,,,,,,,,,,213.09138949681073,213.09138949681073,213.09138949681073,213.09138949681073,213.09138949681073,213.09138949681073,213.09138949681073,213.09138949681073,213.09138949681073,213.09138949681073,a,0.8559749850537628,1,181,0,213.97238056384958,215.47725568991154,,,,,,,,,,,,,,,,,,,,,,,,,,,,,,,,,,,,,,,,,,,,,,,,,,,,,,,,,,,,,,,,,,,,,,,44527,2022-11-14_14h08.43.665,vts_reward_expectancy_bt_OFFLINE,2022.2.4,59.93466954056642,
0,0,1,0,1,0,0,0,hexagon,triangle,0,0,0,0,3,1,37,6,,,,,,,,,,,,,,,,,,,,,,,,,,,,,,,,,,,,,,,,215.97753250598907,215.97753250598907,215.97753250598907,215.97753250598907,215.97753250598907,215.97753250598907,215.97753250598907,215.97753250598907,215.97753250598907,215.97753250598907,l,0.9850154081359506,1,182,0,216.99459585081786,218.49527191999368,218.49527191999368,,,,,,,,,,,,,,,,,,,,,,,,,,,,,,,,,,,,,,,,,,,,,,,,,,,,,,,,,,,,,,,,,,,,,,44527,2022-11-14_14h08.43.665,vts_reward_expectancy_bt_OFFLINE,2022.2.4,59.93466954056642,
0,1,0,0,0,0,1,0,circle,hexagon,0,0,0,0,3,2,38,4,,,,,,,,,,,,,,,,,,,,,,,,,,,,,,,,,,,,,,,,219.00090842600912,219.00090842600912,219.00090842600912,219.00090842600912,219.00090842600912,219.00090842600912,219.00090842600912,219.00090842600912,219.00090842600912,219.00090842600912,a,1.110886625945568,10,192,0,220.13159256591462,221.63151168590412,221.63151168590412,222.13158231391571,,,,,,,,,,,,,,,,,,,,,,,,,,,,,,,,,,,,,,,,,,,,,,,,,,,,,,,,,,,,,,,,,,,,,44527,2022-11-14_14h08.43.665,vts_reward_expectancy_bt_OFFLINE,2022.2.4,59.93466954056642,
0,0,1,0,0,1,0,0,hexagon,circle,0,0,0,0,3,3,39,7,,,,,,,,,,,,,,,,,,,,,,,,,,,,,,,,,,,,,,,,222.13158231391571,222.13158231391571,222.13158231391571,222.13158231391571,222.13158231391571,222.13158231391571,222.13158231391571,222.13158231391571,222.13158231391571,222.13158231391571,l,0.5119011669885367,10,202,0,222.66498348792084,224.16732844989747,,,,,,,,,,,,,,,,,,,,,,,,,,,,,,,,,,,,,,,,,,,,,,,,,,,,,,,,,,,,,,,,,,,,,,,44527,2022-11-14_14h08.43.665,vts_reward_expectancy_bt_OFFLINE,2022.2.4,59.93466954056642,
1,0,0,0,0,0,0,1,triangle,star,0,0,0,0,3,4,40,2,,,,,,,,,,,,,,,,,,,,,,,,,,,,,,,,,,,,,,,,224.6674878220074,224.6674878220074,224.6674878220074,224.6674878220074,224.6674878220074,224.6674878220074,224.6674878220074,224.6674878220074,224.6674878220074,224.6674878220074,l,1.1040619309060276,10,212,0,225.8014572088141,227.3019493499305,227.3019493499305,227.80249406793155,,,,,,,,,,,,,,,,,,,,,,,,,,,,,,,,,,,,,,,,,,,,,,,,,,,,,,,,,,,,,,,,,,,,,44527,2022-11-14_14h08.43.665,vts_reward_expectancy_bt_OFFLINE,2022.2.4,59.93466954056642,
0,0,1,0,0,0,0,1,hexagon,star,0,0,0,0,3,5,41,8,,,,,,,,,,,,,,,,,,,,,,,,,,,,,,,,,,,,,,,,227.80249406793155,227.80249406793155,227.80249406793155,227.80249406793155,227.80249406793155,227.80249406793155,227.80249406793155,227.80249406793155,227.80249406793155,227.80249406793155,l,1.1635331220459193,10,222,0,228.98361818585545,230.48811361100525,,,,,,,,,,,,,,,,,,,,,,,,,,,,,,,,,,,,,,,,,,,,,,,,,,,,,,,,,,,,,,,,,,,,,,,44527,2022-11-14_14h08.43.665,vts_reward_expectancy_bt_OFFLINE,2022.2.4,59.93466954056642,
0,1,0,0,0,0,0,1,circle,star,0,0,0,0,3,6,42,5,,,,,,,,,,,,,,,,,,,,,,,,,,,,,,,,,,,,,,,,230.98842246993445,230.98842246993445,230.98842246993445,230.98842246993445,230.98842246993445,230.98842246993445,230.98842246993445,230.98842246993445,230.98842246993445,230.98842246993445,a,0.5990532089490443,10,232,0,231.60554563091137,233.10601776489057,233.10601776489057,233.6063128048554,,,,,,,,,,,,,,,,,,,,,,,,,,,,,,,,,,,,,,,,,,,,,,,,,,,,,,,,,,,,,,,,,,,,,44527,2022-11-14_14h08.43.665,vts_reward_expectancy_bt_OFFLINE,2022.2.4,59.93466954056642,
0,1,0,0,1,0,0,0,circle,triangle,0,0,0,0,3,7,43,3,,,,,,,,,,,,,,,,,,,,,,,,,,,,,,,,,,,,,,,,233.6063128048554,233.6063128048554,233.6063128048554,233.6063128048554,233.6063128048554,233.6063128048554,233.6063128048554,233.6063128048554,233.6063128048554,233.6063128048554,a,0.7372145240660757,10,242,0,234.37446914799511,235.87534114695154,,,,,,,,,,,,,,,,,,,,,,,,,,,,,,,,,,,,,,,,,,,,,,,,,,,,,,,,,,,,,,,,,,,,,,,44527,2022-11-14_14h08.43.665,vts_reward_expectancy_bt_OFFLINE,2022.2.4,59.93466954056642,
0,0,0,1,0,1,0,0,star ,circle,0,0,0,0,3,8,44,10,,,,,,,,,,,,,,,,,,,,,,,,,,,,,,,,,,,,,,,,236.37529246602207,236.37529246602207,236.37529246602207,236.37529246602207,236.37529246602207,236.37529246602207,236.37529246602207,236.37529246602207,236.37529246602207,236.37529246602207,l,0.7248741029761732,10,252,0,237.12564776698127,238.62628393992782,238.62628393992782,,,,,,,,,,,,,,,,,,,,,,,,,,,,,,,,,,,,,,,,,,,,,,,,,,,,,,,,,,,,,,,,,,,,,,44527,2022-11-14_14h08.43.665,vts_reward_expectancy_bt_OFFLINE,2022.2.4,59.93466954056642,
0,0,0,1,0,0,1,0,star,hexagon,0,0,0,0,3,9,45,11,,,,,,,,,,,,,,,,,,,,,,,,,,,,,,,,,,,,,,,,239.12827766500413,239.12827766500413,239.12827766500413,239.12827766500413,239.12827766500413,239.12827766500413,239.12827766500413,239.12827766500413,239.12827766500413,239.12827766500413,a,0.9539627409540117,10,262,0,240.1121243829839,241.61253031995147,241.61253031995147,242.11313421395607,,,,,,,,,,,,,,,,,,,,,,,,,,,,,,,,,,,,,,,,,,,,,,,,,,,,,,,,,,,,,,,,,,,,,44527,2022-11-14_14h08.43.665,vts_reward_expectancy_bt_OFFLINE,2022.2.4,59.93466954056642,
0,0,0,1,1,0,0,0,star,triangle,0,0,0,0,3,10,46,9,,,,,,,,,,,,,,,,,,,,,,,,,,,,,,,,,,,,,,,,242.11313421395607,242.11313421395607,242.11313421395607,242.11313421395607,242.11313421395607,242.11313421395607,242.11313421395607,242.11313421395607,242.11313421395607,242.11313421395607,a,1.2426295189652592,10,272,0,243.37968069082126,244.88228392088786,,,,,,,,,,,,,,,,,,,,,,,,,,,,,,,,,,,,,,,,,,,,,,,,,,,,,,,,,,,,,,,,,,,,,,,44527,2022-11-14_14h08.43.665,vts_reward_expectancy_bt_OFFLINE,2022.2.4,59.93466954056642,
1,0,0,0,0,1,0,0,triangle,circle,0,0,0,0,3,11,47,0,,,,,,,,,,,,,,,,,,,,,,,,,,,,,,,,,,,,,,,,245.38227655086666,245.38227655086666,245.38227655086666,245.38227655086666,245.38227655086666,245.38227655086666,245.38227655086666,245.38227655086666,245.38227655086666,245.38227655086666,l,0.9431647751480341,10,282,0,246.34933052794077,247.8499042589683,247.8499042589683,248.35654081590474,,,,,,,,,,,,,,,,,,,,,,,,,,,,,,,,,,,,,,,,,,,,,,,,,,,,,,,,,,,,,,,,,,,,,44527,2022-11-14_14h08.43.665,vts_reward_expectancy_bt_OFFLINE,2022.2.4,59.93466954056642,
0,0,0,1,0,1,0,0,star ,circle,1,0,1,0,0,0,0,10,,,,,,,,,,,,,,,,,,,,,,,,,,,,,,,,,,,,,,,,257.66758409980685,257.66758409980685,257.66758409980685,257.66758409980685,257.66758409980685,257.66758409980685,257.66758409980685,257.66758409980685,257.66758409980685,257.66758409980685,l,0.8083006192464381,10,292,1,258.5071852018591,260.009850225877,,,,,,,,,,,,,,,,,,,,,,,,,,,,,,,,,,,,,,,,,,,,,,,,,,,,,,,,,,,,,,,,,,,,,,,44527,2022-11-14_14h08.43.665,vts_reward_expectancy_bt_OFFLINE,2022.2.4,59.93466954056642,
0,0,1,0,0,1,0,0,hexagon,circle,1,0,1,0,0,1,1,7,,,,,,,,,,,,,,,,,,,,,,,,,,,,,,,,,,,,,,,,260.5099939138163,260.5099939138163,260.5099939138163,260.5099939138163,260.5099939138163,260.5099939138163,260.5099939138163,260.5099939138163,260.5099939138163,260.5099939138163,l,1.1955900129396468,10,302,1,261.7274525719695,263.22795921890065,263.22795921890065,263.72766569885425,,,,,,,,,,,,,,,,,,,,,,,,,,,,,,,,,,,,,,,,,,,,,,,,,,,,,,,,,,,,,,,,,,,,,44527,2022-11-14_14h08.43.665,vts_reward_expectancy_bt_OFFLINE,2022.2.4,59.93466954056642,
0,0,0,1,0,0,1,0,star,hexagon,1,0,1,0,0,2,2,11,,,,,,,,,,,,,,,,,,,,,,,,,,,,,,,,,,,,,,,,263.72766569885425,263.72766569885425,263.72766569885425,263.72766569885425,263.72766569885425,263.72766569885425,263.72766569885425,263.72766569885425,263.72766569885425,263.72766569885425,a,1.1054911592509598,1,303,1,264.8641445778776,266.36379283992574,266.36379283992574,266.8639309499413,,,,,,,,,,,,,,,,,,,,,,,,,,,,,,,,,,,,,,,,,,,,,,,,,,,,,,,,,,,,,,,,,,,,,44527,2022-11-14_14h08.43.665,vts_reward_expectancy_bt_OFFLINE,2022.2.4,59.93466954056642,
0,1,0,0,1,0,0,0,circle,triangle,1,0,1,0,0,3,3,3,,,,,,,,,,,,,,,,,,,,,,,,,,,,,,,,,,,,,,,,266.8639309499413,266.8639309499413,266.8639309499413,266.8639309499413,266.8639309499413,266.8639309499413,266.8639309499413,266.8639309499413,266.8639309499413,266.8639309499413,a,0.5906625329516828,10,313,1,267.4819548749365,268.98149282997474,268.98149282997474,,,,,,,,,,,,,,,,,,,,,,,,,,,,,,,,,,,,,,,,,,,,,,,,,,,,,,,,,,,,,,,,,,,,,,44527,2022-11-14_14h08.43.665,vts_reward_expectancy_bt_OFFLINE,2022.2.4,59.93466954056642,
0,0,1,0,0,0,0,1,hexagon,star,1,0,1,0,0,4,4,8,,,,,,,,,,,,,,,,,,,,,,,,,,,,,,,,,,,,,,,,269.4836668909993,269.4836668909993,269.4836668909993,269.4836668909993,269.4836668909993,269.4836668909993,269.4836668909993,269.4836668909993,269.4836668909993,269.4836668909993,l,2.549246361013502,10,323,1,272.05079885199666,273.55123057682067,273.55123057682067,,,,,,,,,,,,,,,,,,,,,,,,,,,,,,,,,,,,,,,,,,,,,,,,,,,,,,,,,,,,,,,,,,,,,,44527,2022-11-14_14h08.43.665,vts_reward_expectancy_bt_OFFLINE,2022.2.4,59.93466954056642,
1,0,0,0,0,0,0,1,triangle,star,1,0,1,0,0,5,5,2,,,,,,,,,,,,,,,,,,,,,,,,,,,,,,,,,,,,,,,,274.05476196995005,274.05476196995005,274.05476196995005,274.05476196995005,274.05476196995005,274.05476196995005,274.05476196995005,274.05476196995005,274.05476196995005,274.05476196995005,l,1.1624593089800328,10,333,1,275.2373552059289,276.738317981828,276.738317981828,,,,,,,,,,,,,,,,,,,,,,,,,,,,,,,,,,,,,,,,,,,,,,,,,,,,,,,,,,,,,,,,,,,,,,44527,2022-11-14_14h08.43.665,vts_reward_expectancy_bt_OFFLINE,2022.2.4,59.93466954056642,
0,1,0,0,0,0,0,1,circle,star,1,0,1,0,0,6,6,5,,,,,,,,,,,,,,,,,,,,,,,,,,,,,,,,,,,,,,,,277.23837195383385,277.23837195383385,277.23837195383385,277.23837195383385,277.23837195383385,277.23837195383385,277.23837195383385,277.23837195383385,277.23837195383385,277.23837195383385,a,0.5895789081696421,1,334,1,277.85568503895774,279.35751604498364,,,,,,,,,,,,,,,,,,,,,,,,,,,,,,,,,,,,,,,,,,,,,,,,,,,,,,,,,,,,,,,,,,,,,,,44527,2022-11-14_14h08.43.665,vts_reward_expectancy_bt_OFFLINE,2022.2.4,59.93466954056642,
0,0,1,0,1,0,0,0,hexagon,triangle,1,0,1,0,0,7,7,6,,,,,,,,,,,,,,,,,,,,,,,,,,,,,,,,,,,,,,,,279.85756413196214,279.85756413196214,279.85756413196214,279.85756413196214,279.85756413196214,279.85756413196214,279.85756413196214,279.85756413196214,279.85756413196214,279.85756413196214,l,1.3907684748992324,1,335,1,281.27482389402576,282.77531173895113,282.77531173895113,283.2757714628242,,,,,,,,,,,,,,,,,,,,,,,,,,,,,,,,,,,,,,,,,,,,,,,,,,,,,,,,,,,,,,,,,,,,,44527,2022-11-14_14h08.43.665,vts_reward_expectancy_bt_OFFLINE,2022.2.4,59.93466954056642,
0,1,0,0,0,0,1,0,circle,hexagon,1,0,1,0,0,8,8,4,,,,,,,,,,,,,,,,,,,,,,,,,,,,,,,,,,,,,,,,283.2757714628242,283.2757714628242,283.2757714628242,283.2757714628242,283.2757714628242,283.2757714628242,283.2757714628242,283.2757714628242,283.2757714628242,283.2757714628242,a,0.9191983330529183,10,345,1,284.2276987049263,285.72826323099434,285.72826323099434,286.2284400218632,,,,,,,,,,,,,,,,,,,,,,,,,,,,,,,,,,,,,,,,,,,,,,,,,,,,,,,,,,,,,,,,,,,,,44527,2022-11-14_14h08.43.665,vts_reward_expectancy_bt_OFFLINE,2022.2.4,59.93466954056642,
1,0,0,0,0,0,1,0,triangle,hexagon,1,0,1,0,0,9,9,1,,,,,,,,,,,,,,,,,,,,,,,,,,,,,,,,,,,,,,,,286.2284400218632,286.2284400218632,286.2284400218632,286.2284400218632,286.2284400218632,286.2284400218632,286.2284400218632,286.2284400218632,286.2284400218632,286.2284400218632,l,1.1735503531526774,1,346,1,287.4299573688768,288.9295670478605,288.9295670478605,,,,,,,,,,,,,,,,,,,,,,,,,,,,,,,,,,,,,,,,,,,,,,,,,,,,,,,,,,,,,,,,,,,,,,44527,2022-11-14_14h08.43.665,vts_reward_expectancy_bt_OFFLINE,2022.2.4,59.93466954056642,
0,0,0,1,1,0,0,0,star,triangle,1,0,1,0,0,10,10,9,,,,,,,,,,,,,,,,,,,,,,,,,,,,,,,,,,,,,,,,289.43128489283845,289.43128489283845,289.43128489283845,289.43128489283845,289.43128489283845,289.43128489283845,289.43128489283845,289.43128489283845,289.43128489283845,289.43128489283845,a,0.9635357889346778,10,356,1,290.4165120830294,291.91544008092023,291.91544008092023,292.41571343597025,,,,,,,,,,,,,,,,,,,,,,,,,,,,,,,,,,,,,,,,,,,,,,,,,,,,,,,,,,,,,,,,,,,,,44527,2022-11-14_14h08.43.665,vts_reward_expectancy_bt_OFFLINE,2022.2.4,59.93466954056642,
1,0,0,0,0,1,0,0,triangle,circle,1,0,1,0,0,11,11,0,,,,,,,,,,,,,,,,,,,,,,,,,,,,,,,,,,,,,,,,292.41571343597025,292.41571343597025,292.41571343597025,292.41571343597025,292.41571343597025,292.41571343597025,292.41571343597025,292.41571343597025,292.41571343597025,292.41571343597025,l,1.1517930761910975,10,366,1,293.5997771290131,295.1021927848924,,,,,,,,,,,,,,,,,,,,,,,,,,,,,,,,,,,,,,,,,,,,,,,,,,,,,,,,,,,,,,,,,,,,,,,44527,2022-11-14_14h08.43.665,vts_reward_expectancy_bt_OFFLINE,2022.2.4,59.93466954056642,
0,1,0,0,1,0,0,0,circle,triangle,1,0,1,0,1,0,12,3,,,,,,,,,,,,,,,,,,,,,,,,,,,,,,,,,,,,,,,,295.6023991368711,295.6023991368711,295.6023991368711,295.6023991368711,295.6023991368711,295.6023991368711,295.6023991368711,295.6023991368711,295.6023991368711,295.6023991368711,a,0.55273397709243,10,376,1,296.18569763191044,297.6861835308373,297.6861835308373,298.1864626999013,,,,,,,,,,,,,,,,,,,,,,,,,,,,,,,,,,,,,,,,,,,,,,,,,,,,,,,,,,,,,,,,,,,,,44527,2022-11-14_14h08.43.665,vts_reward_expectancy_bt_OFFLINE,2022.2.4,59.93466954056642,
0,0,1,0,0,1,0,0,hexagon,circle,1,0,1,0,1,1,13,7,,,,,,,,,,,,,,,,,,,,,,,,,,,,,,,,,,,,,,,,298.1864626999013,298.1864626999013,298.1864626999013,298.1864626999013,298.1864626999013,298.1864626999013,298.1864626999013,298.1864626999013,298.1864626999013,298.1864626999013,l,0.6797655911650509,1,377,1,298.88768991292454,300.38915138086304,,,,,,,,,,,,,,,,,,,,,,,,,,,,,,,,,,,,,,,,,,,,,,,,,,,,,,,,,,,,,,,,,,,,,,,44527,2022-11-14_14h08.43.665,vts_reward_expectancy_bt_OFFLINE,2022.2.4,59.93466954056642,
1,0,0,0,0,0,1,0,triangle,hexagon,1,0,1,0,1,2,14,1,,,,,,,,,,,,,,,,,,,,,,,,,,,,,,,,,,,,,,,,300.8894232478924,300.8894232478924,300.8894232478924,300.8894232478924,300.8894232478924,300.8894232478924,300.8894232478924,300.8894232478924,300.8894232478924,300.8894232478924,l,1.04771962412633,1,378,1,301.95646922895685,303.45719237602316,303.45719237602316,303.9572019628249,,,,,,,,,,,,,,,,,,,,,,,,,,,,,,,,,,,,,,,,,,,,,,,,,,,,,,,,,,,,,,,,,,,,,44527,2022-11-14_14h08.43.665,vts_reward_expectancy_bt_OFFLINE,2022.2.4,59.93466954056642,
0,0,1,0,1,0,0,0,hexagon,triangle,1,0,1,0,1,3,15,6,,,,,,,,,,,,,,,,,,,,,,,,,,,,,,,,,,,,,,,,303.9572019628249,303.9572019628249,303.9572019628249,303.9572019628249,303.9572019628249,303.9572019628249,303.9572019628249,303.9572019628249,303.9572019628249,303.9572019628249,l,6.710837662918493,10,388,1,310.6973292459734,312.19696243898943,312.19696243898943,312.69723804993555,,,,,,,,,,,,,,,,,,,,,,,,,,,,,,,,,,,,,,,,,,,,,,,,,,,,,,,,,,,,,,,,,,,,,44527,2022-11-14_14h08.43.665,vts_reward_expectancy_bt_OFFLINE,2022.2.4,59.93466954056642,
0,1,0,0,0,0,1,0,circle,hexagon,1,0,1,0,1,4,16,4,,,,,,,,,,,,,,,,,,,,,,,,,,,,,,,,,,,,,,,,312.69723804993555,312.69723804993555,312.69723804993555,312.69723804993555,312.69723804993555,312.69723804993555,312.69723804993555,312.69723804993555,312.69723804993555,312.69723804993555,a,0.5242212950251997,10,398,1,313.24731041886844,314.7514695490245,,,,,,,,,,,,,,,,,,,,,,,,,,,,,,,,,,,,,,,,,,,,,,,,,,,,,,,,,,,,,,,,,,,,,,,44527,2022-11-14_14h08.43.665,vts_reward_expectancy_bt_OFFLINE,2022.2.4,59.93466954056642,
0,0,0,1,1,0,0,0,star,triangle,1,0,1,0,1,5,17,9,,,,,,,,,,,,,,,,,,,,,,,,,,,,,,,,,,,,,,,,315.24985690182075,315.24985690182075,315.24985690182075,315.24985690182075,315.24985690182075,315.24985690182075,315.24985690182075,315.24985690182075,315.24985690182075,315.24985690182075,a,1.0103773919399828,10,408,1,316.28392272186466,317.7842781378422,,318.2843156589661,,,,,,,,,,,,,,,,,,,,,,,,,,,,,,,,,,,,,,,,,,,,,,,,,,,,,,,,,,,,,,,,,,,,,44527,2022-11-14_14h08.43.665,vts_reward_expectancy_bt_OFFLINE,2022.2.4,59.93466954056642,
0,1,0,0,0,0,0,1,circle,star,1,0,1,0,1,6,18,5,,,,,,,,,,,,,,,,,,,,,,,,,,,,,,,,,,,,,,,,318.2843156589661,318.2843156589661,318.2843156589661,318.2843156589661,318.2843156589661,318.2843156589661,318.2843156589661,318.2843156589661,318.2843156589661,318.2843156589661,a,0.73106644093059,1,409,1,319.03582453588024,320.53692241501994,,,,,,,,,,,,,,,,,,,,,,,,,,,,,,,,,,,,,,,,,,,,,,,,,,,,,,,,,,,,,,,,,,,,,,,44527,2022-11-14_14h08.43.665,vts_reward_expectancy_bt_OFFLINE,2022.2.4,59.93466954056642,
0,0,0,1,0,0,1,0,star,hexagon,1,0,1,0,1,7,19,11,,,,,,,,,,,,,,,,,,,,,,,,,,,,,,,,,,,,,,,,321.0370394550264,321.0370394550264,321.0370394550264,321.0370394550264,321.0370394550264,321.0370394550264,321.0370394550264,321.0370394550264,321.0370394550264,321.0370394550264,a,3.267357612028718,10,419,1,324.3247733898461,325.82422992098145,325.82422992098145,,,,,,,,,,,,,,,,,,,,,,,,,,,,,,,,,,,,,,,,,,,,,,,,,,,,,,,,,,,,,,,,,,,,,,44527,2022-11-14_14h08.43.665,vts_reward_expectancy_bt_OFFLINE,2022.2.4,59.93466954056642,
1,0,0,0,0,0,0,1,triangle,star,1,0,1,0,1,8,20,2,,,,,,,,,,,,,,,,,,,,,,,,,,,,,,,,,,,,,,,,326.3246234068647,326.3246234068647,326.3246234068647,326.3246234068647,326.3246234068647,326.3246234068647,326.3246234068647,326.3246234068647,326.3246234068647,326.3246234068647,l,1.1401201789267361,10,429,1,327.4911986319348,328.99193391785957,328.99193391785957,,,,,,,,,,,,,,,,,,,,,,,,,,,,,,,,,,,,,,,,,,,,,,,,,,,,,,,,,,,,,,,,,,,,,,44527,2022-11-14_14h08.43.665,vts_reward_expectancy_bt_OFFLINE,2022.2.4,59.93466954056642,
1,0,0,0,0,1,0,0,triangle,circle,1,0,1,0,1,9,21,0,,,,,,,,,,,,,,,,,,,,,,,,,,,,,,,,,,,,,,,,329.49388476088643,329.49388476088643,329.49388476088643,329.49388476088643,329.49388476088643,329.49388476088643,329.49388476088643,329.49388476088643,329.49388476088643,329.49388476088643,l,0.7504900239873677,10,439,1,330.2606738489121,331.76126775098965,331.76126775098965,332.2614769330248,,,,,,,,,,,,,,,,,,,,,,,,,,,,,,,,,,,,,,,,,,,,,,,,,,,,,,,,,,,,,,,,,,,,,44527,2022-11-14_14h08.43.665,vts_reward_expectancy_bt_OFFLINE,2022.2.4,59.93466954056642,
0,0,1,0,0,0,0,1,hexagon,star,1,0,1,0,1,10,22,8,,,,,,,,,,,,,,,,,,,,,,,,,,,,,,,,,,,,,,,,332.2614769330248,332.2614769330248,332.2614769330248,332.2614769330248,332.2614769330248,332.2614769330248,332.2614769330248,332.2614769330248,332.2614769330248,332.2614769330248,l,1.559856610139832,10,449,1,333.8452421859838,335.3478181429673,,,,,,,,,,,,,,,,,,,,,,,,,,,,,,,,,,,,,,,,,,,,,,,,,,,,,,,,,,,,,,,,,,,,,,,44527,2022-11-14_14h08.43.665,vts_reward_expectancy_bt_OFFLINE,2022.2.4,59.93466954056642,
0,0,0,1,0,1,0,0,star ,circle,1,0,1,0,1,11,23,10,,,,,,,,,,,,,,,,,,,,,,,,,,,,,,,,,,,,,,,,335.8481235760264,335.8481235760264,335.8481235760264,335.8481235760264,335.8481235760264,335.8481235760264,335.8481235760264,335.8481235760264,335.8481235760264,335.8481235760264,l,0.9439745391719043,10,459,1,336.81510349782184,338.3156141520012,338.3156141520012,338.8156906059012,,,,,,,,,,,,,,,,,,,,,,,,,,,,,,,,,,,,,,,,,,,,,,,,,,,,,,,,,,,,,,,,,,,,,44527,2022-11-14_14h08.43.665,vts_reward_expectancy_bt_OFFLINE,2022.2.4,59.93466954056642,
1,0,0,0,0,0,0,1,triangle,star,1,0,1,0,2,0,24,2,,,,,,,,,,,,,,,,,,,,,,,,,,,,,,,,,,,,,,,,338.8156906059012,338.8156906059012,338.8156906059012,338.8156906059012,338.8156906059012,338.8156906059012,338.8156906059012,338.8156906059012,338.8156906059012,338.8156906059012,l,1.8796684760600328,1,460,1,340.7194023588672,342.2187977938447,342.2187977938447,342.7190710690338,,,,,,,,,,,,,,,,,,,,,,,,,,,,,,,,,,,,,,,,,,,,,,,,,,,,,,,,,,,,,,,,,,,,,44527,2022-11-14_14h08.43.665,vts_reward_expectancy_bt_OFFLINE,2022.2.4,59.93466954056642,
0,0,1,0,0,0,0,1,hexagon,star,1,0,1,0,2,1,25,8,,,,,,,,,,,,,,,,,,,,,,,,,,,,,,,,,,,,,,,,342.7190710690338,342.7190710690338,342.7190710690338,342.7190710690338,342.7190710690338,342.7190710690338,342.7190710690338,342.7190710690338,342.7190710690338,342.7190710690338,l,2.1059957589022815,10,470,1,344.85650405380875,346.35553287295625,346.35553287295625,346.85558576881886,,,,,,,,,,,,,,,,,,,,,,,,,,,,,,,,,,,,,,,,,,,,,,,,,,,,,,,,,,,,,,,,,,,,,44527,2022-11-14_14h08.43.665,vts_reward_expectancy_bt_OFFLINE,2022.2.4,59.93466954056642,
1,0,0,0,0,1,0,0,triangle,circle,1,0,1,0,2,2,26,0,,,,,,,,,,,,,,,,,,,,,,,,,,,,,,,,,,,,,,,,346.85558576881886,346.85558576881886,346.85558576881886,346.85558576881886,346.85558576881886,346.85558576881886,346.85558576881886,346.85558576881886,346.85558576881886,346.85558576881886,l,0.702595234150067,10,480,1,347.58947886596434,349.0952609179076,,,,,,,,,,,,,,,,,,,,,,,,,,,,,,,,,,,,,,,,,,,,,,,,,,,,,,,,,,,,,,,,,,,,,,,44527,2022-11-14_14h08.43.665,vts_reward_expectancy_bt_OFFLINE,2022.2.4,59.93466954056642,
0,0,1,0,0,1,0,0,hexagon,circle,1,0,1,0,2,3,27,7,,,,,,,,,,,,,,,,,,,,,,,,,,,,,,,,,,,,,,,,349.59207604289986,349.59207604289986,349.59207604289986,349.59207604289986,349.59207604289986,349.59207604289986,349.59207604289986,349.59207604289986,349.59207604289986,349.59207604289986,l,0.6788143662270159,10,490,1,350.2923076390289,351.7929432808887,351.7929432808887,352.2930634159129,,,,,,,,,,,,,,,,,,,,,,,,,,,,,,,,,,,,,,,,,,,,,,,,,,,,,,,,,,,,,,,,,,,,,44527,2022-11-14_14h08.43.665,vts_reward_expectancy_bt_OFFLINE,2022.2.4,59.93466954056642,
0,0,1,0,1,0,0,0,hexagon,triangle,1,0,1,0,2,4,28,6,,,,,,,,,,,,,,,,,,,,,,,,,,,,,,,,,,,,,,,,352.2930634159129,352.2930634159129,352.2930634159129,352.2930634159129,352.2930634159129,352.2930634159129,352.2930634159129,352.2930634159129,352.2930634159129,352.2930634159129,a,1.6442587501369417,1,491,1,353.9615148368757,355.46244601882063,,,,,,,,,,,,,,,,,,,,,,,,,,,,,,,,,,,,,,,,,,,,,,,,,,,,,,,,,,,,,,,,,,,,,,,44527,2022-11-14_14h08.43.665,vts_reward_expectancy_bt_OFFLINE,2022.2.4,59.93466954056642,
0,0,0,1,0,1,0,0,star ,circle,1,0,1,0,2,5,29,10,,,,,,,,,,,,,,,,,,,,,,,,,,,,,,,,,,,,,,,,355.96262476290576,355.96262476290576,355.96262476290576,355.96262476290576,355.96262476290576,355.96262476290576,355.96262476290576,355.96262476290576,355.96262476290576,355.96262476290576,l,0.5519227331969887,10,501,1,356.54624287202023,358.04690757603385,358.04690757603385,358.5470999570098,,,,,,,,,,,,,,,,,,,,,,,,,,,,,,,,,,,,,,,,,,,,,,,,,,,,,,,,,,,,,,,,,,,,,44527,2022-11-14_14h08.43.665,vts_reward_expectancy_bt_OFFLINE,2022.2.4,59.93466954056642,
0,1,0,0,0,0,1,0,circle,hexagon,1,0,1,0,2,6,30,4,,,,,,,,,,,,,,,,,,,,,,,,,,,,,,,,,,,,,,,,358.5470999570098,358.5470999570098,358.5470999570098,358.5470999570098,358.5470999570098,358.5470999570098,358.5470999570098,358.5470999570098,358.5470999570098,358.5470999570098,a,0.5996756250970066,10,511,1,359.1657002349384,360.66619563288987,360.66619563288987,361.1661148900166,,,,,,,,,,,,,,,,,,,,,,,,,,,,,,,,,,,,,,,,,,,,,,,,,,,,,,,,,,,,,,,,,,,,,44527,2022-11-14_14h08.43.665,vts_reward_expectancy_bt_OFFLINE,2022.2.4,59.93466954056642,
0,1,0,0,0,0,0,1,circle,star,1,0,1,0,2,7,31,5,,,,,,,,,,,,,,,,,,,,,,,,,,,,,,,,,,,,,,,,361.1661148900166,361.1661148900166,361.1661148900166,361.1661148900166,361.1661148900166,361.1661148900166,361.1661148900166,361.1661148900166,361.1661148900166,361.1661148900166,a,0.5227896170690656,10,521,1,361.71633070497774,363.2169164340012,363.2169164340012,363.7171975898091,,,,,,,,,,,,,,,,,,,,,,,,,,,,,,,,,,,,,,,,,,,,,,,,,,,,,,,,,,,,,,,,,,,,,44527,2022-11-14_14h08.43.665,vts_reward_expectancy_bt_OFFLINE,2022.2.4,59.93466954056642,
0,1,0,0,1,0,0,0,circle,triangle,1,0,1,0,2,8,32,3,,,,,,,,,,,,,,,,,,,,,,,,,,,,,,,,,,,,,,,,363.7171975898091,363.7171975898091,363.7171975898091,363.7171975898091,363.7171975898091,363.7171975898091,363.7171975898091,363.7171975898091,363.7171975898091,363.7171975898091,a,0.8751411240082234,10,531,1,364.61922761797905,366.1201202648226,366.1201202648226,,,,,,,,,,,,,,,,,,,,,,,,,,,,,,,,,,,,,,,,,,,,,,,,,,,,,,,,,,,,,,,,,,,,,,44527,2022-11-14_14h08.43.665,vts_reward_expectancy_bt_OFFLINE,2022.2.4,59.93466954056642,
0,0,0,1,0,0,1,0,star,hexagon,1,0,1,0,2,9,33,11,,,,,,,,,,,,,,,,,,,,,,,,,,,,,,,,,,,,,,,,366.62018321291544,366.62018321291544,366.62018321291544,366.62018321291544,366.62018321291544,366.62018321291544,366.62018321291544,366.62018321291544,366.62018321291544,366.62018321291544,a,1.8528014740440995,10,541,1,368.504547533812,370.0066675238777,,,,,,,,,,,,,,,,,,,,,,,,,,,,,,,,,,,,,,,,,,,,,,,,,,,,,,,,,,,,,,,,,,,,,,,44527,2022-11-14_14h08.43.665,vts_reward_expectancy_bt_OFFLINE,2022.2.4,59.93466954056642,
1,0,0,0,0,0,1,0,triangle,hexagon,1,0,1,0,2,10,34,1,,,,,,,,,,,,,,,,,,,,,,,,,,,,,,,,,,,,,,,,370.5071118660271,370.5071118660271,370.5071118660271,370.5071118660271,370.5071118660271,370.5071118660271,370.5071118660271,370.5071118660271,370.5071118660271,370.5071118660271,a,1.2069599831011146,1,542,1,371.7421130819712,373.2578377649188,,,,,,,,,,,,,,,,,,,,,,,,,,,,,,,,,,,,,,,,,,,,,,,,,,,,,,,,,,,,,,,,,,,,,,,44527,2022-11-14_14h08.43.665,vts_reward_expectancy_bt_OFFLINE,2022.2.4,59.93466954056642,
0,0,0,1,1,0,0,0,star,triangle,1,0,1,0,2,11,35,9,,,,,,,,,,,,,,,,,,,,,,,,,,,,,,,,,,,,,,,,373.7582490458153,373.7582490458153,373.7582490458153,373.7582490458153,373.7582490458153,373.7582490458153,373.7582490458153,373.7582490458153,373.7582490458153,373.7582490458153,l,2.3090758491307497,10,552,1,376.0953301838599,377.5942809060216,377.5942809060216,378.0946480559651,,,,,,,,,,,,,,,,,,,,,,,,,,,,,,,,,,,,,,,,,,,,,,,,,,,,,,,,,,,,,,,,,,,,,44527,2022-11-14_14h08.43.665,vts_reward_expectancy_bt_OFFLINE,2022.2.4,59.93466954056642,
1,0,0,0,0,0,0,1,triangle,star,1,0,1,0,3,0,36,2,,,,,,,,,,,,,,,,,,,,,,,,,,,,,,,,,,,,,,,,378.0946480559651,378.0946480559651,378.0946480559651,378.0946480559651,378.0946480559651,378.0946480559651,378.0946480559651,378.0946480559651,378.0946480559651,378.0946480559651,l,1.0665165609680116,10,562,1,379.18022943800315,380.68088075495325,380.68088075495325,381.1809430718422,,,,,,,,,,,,,,,,,,,,,,,,,,,,,,,,,,,,,,,,,,,,,,,,,,,,,,,,,,,,,,,,,,,,,44527,2022-11-14_14h08.43.665,vts_reward_expectancy_bt_OFFLINE,2022.2.4,59.93466954056642,
0,0,0,1,0,1,0,0,star ,circle,1,0,1,0,3,1,37,10,,,,,,,,,,,,,,,,,,,,,,,,,,,,,,,,,,,,,,,,381.1809430718422,381.1809430718422,381.1809430718422,381.1809430718422,381.1809430718422,381.1809430718422,381.1809430718422,381.1809430718422,381.1809430718422,381.1809430718422,a,1.7940853629261255,10,572,1,382.99808525596745,384.5006382679567,,,,,,,,,,,,,,,,,,,,,,,,,,,,,,,,,,,,,,,,,,,,,,,,,,,,,,,,,,,,,,,,,,,,,,,44527,2022-11-14_14h08.43.665,vts_reward_expectancy_bt_OFFLINE,2022.2.4,59.93466954056642,
0,1,0,0,0,0,0,1,circle,star,1,0,1,0,3,2,38,5,,,,,,,,,,,,,,,,,,,,,,,,,,,,,,,,,,,,,,,,385.0006012718659,385.0006012718659,385.0006012718659,385.0006012718659,385.0006012718659,385.0006012718659,385.0006012718659,385.0006012718659,385.0006012718659,385.0006012718659,a,0.6409354750066996,1,573,1,385.6689881249331,387.16851540398784,387.16851540398784,,,,,,,,,,,,,,,,,,,,,,,,,,,,,,,,,,,,,,,,,,,,,,,,,,,,,,,,,,,,,,,,,,,,,,44527,2022-11-14_14h08.43.665,vts_reward_expectancy_bt_OFFLINE,2022.2.4,59.93466954056642,
0,0,1,0,1,0,0,0,hexagon,triangle,1,0,1,0,3,3,39,6,,,,,,,,,,,,,,,,,,,,,,,,,,,,,,,,,,,,,,,,387.66919147293083,387.66919147293083,387.66919147293083,387.66919147293083,387.66919147293083,387.66919147293083,387.66919147293083,387.66919147293083,387.66919147293083,387.66919147293083,l,3.1256818999536335,1,574,1,390.8217919089366,392.322158806026,392.322158806026,,,,,,,,,,,,,,,,,,,,,,,,,,,,,,,,,,,,,,,,,,,,,,,,,,,,,,,,,,,,,,,,,,,,,,44527,2022-11-14_14h08.43.665,vts_reward_expectancy_bt_OFFLINE,2022.2.4,59.93466954056642,
0,0,0,1,1,0,0,0,star,triangle,1,0,1,0,3,4,40,9,,,,,,,,,,,,,,,,,,,,,,,,,,,,,,,,,,,,,,,,392.82231162302196,392.82231162302196,392.82231162302196,392.82231162302196,392.82231162302196,392.82231162302196,392.82231162302196,392.82231162302196,392.82231162302196,392.82231162302196,l,1.8982439110986888,1,575,1,394.7410922679119,396.24153888085857,396.24153888085857,,,,,,,,,,,,,,,,,,,,,,,,,,,,,,,,,,,,,,,,,,,,,,,,,,,,,,,,,,,,,,,,,,,,,,44527,2022-11-14_14h08.43.665,vts_reward_expectancy_bt_OFFLINE,2022.2.4,59.93466954056642,
0,0,1,0,0,1,0,0,hexagon,circle,1,0,1,0,3,5,41,7,,,,,,,,,,,,,,,,,,,,,,,,,,,,,,,,,,,,,,,,396.7421102018561,396.7421102018561,396.7421102018561,396.7421102018561,396.7421102018561,396.7421102018561,396.7421102018561,396.7421102018561,396.7421102018561,396.7421102018561,l,0.690139418002218,10,585,1,397.4603305789642,398.9594282009639,398.9594282009639,,,,,,,,,,,,,,,,,,,,,,,,,,,,,,,,,,,,,,,,,,,,,,,,,,,,,,,,,,,,,,,,,,,,,,44527,2022-11-14_14h08.43.665,vts_reward_expectancy_bt_OFFLINE,2022.2.4,59.93466954056642,
0,0,1,0,0,0,0,1,hexagon,star,1,0,1,0,3,6,42,8,,,,,,,,,,,,,,,,,,,,,,,,,,,,,,,,,,,,,,,,399.46155293798074,399.46155293798074,399.46155293798074,399.46155293798074,399.46155293798074,399.46155293798074,399.46155293798074,399.46155293798074,399.46155293798074,399.46155293798074,l,4.34967550705187,10,595,1,403.829980926821,405.33247921802104,,,,,,,,,,,,,,,,,,,,,,,,,,,,,,,,,,,,,,,,,,,,,,,,,,,,,,,,,,,,,,,,,,,,,,,44527,2022-11-14_14h08.43.665,vts_reward_expectancy_bt_OFFLINE,2022.2.4,59.93466954056642,
1,0,0,0,0,1,0,0,triangle,circle,1,0,1,0,3,7,43,0,,,,,,,,,,,,,,,,,,,,,,,,,,,,,,,,,,,,,,,,405.8326970669441,405.8326970669441,405.8326970669441,405.8326970669441,405.8326970669441,405.8326970669441,405.8326970669441,405.8326970669441,405.8326970669441,405.8326970669441,l,0.5666113272309303,10,605,1,406.4157753898762,407.91632298985496,407.91632298985496,408.4163600259926,,,,,,,,,,,,,,,,,,,,,,,,,,,,,,,,,,,,,,,,,,,,,,,,,,,,,,,,,,,,,,,,,,,,,44527,2022-11-14_14h08.43.665,vts_reward_expectancy_bt_OFFLINE,2022.2.4,59.93466954056642,
0,1,0,0,0,0,1,0,circle,hexagon,1,0,1,0,3,8,44,4,,,,,,,,,,,,,,,,,,,,,,,,,,,,,,,,,,,,,,,,408.4163600259926,408.4163600259926,408.4163600259926,408.4163600259926,408.4163600259926,408.4163600259926,408.4163600259926,408.4163600259926,408.4163600259926,408.4163600259926,a,0.469562100013718,10,615,1,408.9168695828412,410.41911945096217,,,,,,,,,,,,,,,,,,,,,,,,,,,,,,,,,,,,,,,,,,,,,,,,,,,,,,,,,,,,,,,,,,,,,,,44527,2022-11-14_14h08.43.665,vts_reward_expectancy_bt_OFFLINE,2022.2.4,59.93466954056642,
0,1,0,0,1,0,0,0,circle,triangle,1,0,1,0,3,9,45,3,,,,,,,,,,,,,,,,,,,,,,,,,,,,,,,,,,,,,,,,410.9192587269936,410.9192587269936,410.9192587269936,410.9192587269936,410.9192587269936,410.9192587269936,410.9192587269936,410.9192587269936,410.9192587269936,410.9192587269936,a,0.8802435281686485,10,625,1,411.81960420892574,413.32029266189784,413.32029266189784,413.8202957739122,,,,,,,,,,,,,,,,,,,,,,,,,,,,,,,,,,,,,,,,,,,,,,,,,,,,,,,,,,,,,,,,,,,,,44527,2022-11-14_14h08.43.665,vts_reward_expectancy_bt_OFFLINE,2022.2.4,59.93466954056642,
0,0,0,1,0,0,1,0,star,hexagon,1,0,1,0,3,10,46,11,,,,,,,,,,,,,,,,,,,,,,,,,,,,,,,,,,,,,,,,413.8202957739122,413.8202957739122,413.8202957739122,413.8202957739122,413.8202957739122,413.8202957739122,413.8202957739122,413.8202957739122,413.8202957739122,413.8202957739122,a,0.9714832270983607,10,635,1,414.82249721093103,416.32319151982665,416.32319151982665,416.82317273598164,,,,,,,,,,,,,,,,,,,,,,,,,,,,,,,,,,,,,,,,,,,,,,,,,,,,,,,,,,,,,,,,,,,,,44527,2022-11-14_14h08.43.665,vts_reward_expectancy_bt_OFFLINE,2022.2.4,59.93466954056642,
1,0,0,0,0,0,1,0,triangle,hexagon,1,0,1,0,3,11,47,1,,,,,,,,,,,,,,,,,,,,,,,,,,,,,,,,,,,,,,,,416.82317273598164,416.82317273598164,416.82317273598164,416.82317273598164,416.82317273598164,416.82317273598164,416.82317273598164,416.82317273598164,416.82317273598164,416.82317273598164,a,1.8724829740822315,1,636,1,418.7251939808484,420.2261961470358,,,,,,,,,,,,,,,,,,,,,,,,,,,,,,,,,,,,,,,,,,,,,,,,,,,,,,,,,,,,,,,,,,,,,,,44527,2022-11-14_14h08.43.665,vts_reward_expectancy_bt_OFFLINE,2022.2.4,59.93466954056642,
0,1,0,0,0,0,1,0,circle,hexagon,2,0,2,0,0,0,0,4,,,,,,,,,,,,,,,,,,,,,,,,,,,,,,,,,,,,,,,,444.21992648392916,444.21992648392916,444.21992648392916,444.21992648392916,444.21992648392916,444.21992648392916,444.21992648392916,444.21992648392916,444.21992648392916,444.21992648392916,a,1.1729714521206915,1,637,2,445.41119599784724,446.91179358493537,,447.41169053898193,,,,,,,,,,,,,,,,,,,,,,,,,,,,,,,,,,,,,,,,,,,,,,,,,,,,,,,,,,,,,,,,,,,,,44527,2022-11-14_14h08.43.665,vts_reward_expectancy_bt_OFFLINE,2022.2.4,59.93466954056642,
0,0,0,1,1,0,0,0,star,triangle,2,0,2,0,0,1,1,9,,,,,,,,,,,,,,,,,,,,,,,,,,,,,,,,,,,,,,,,447.41169053898193,447.41169053898193,447.41169053898193,447.41169053898193,447.41169053898193,447.41169053898193,447.41169053898193,447.41169053898193,447.41169053898193,447.41169053898193,a,2.256583356996998,10,647,2,449.6995826549828,451.2155328928493,,,,,,,,,,,,,,,,,,,,,,,,,,,,,,,,,,,,,,,,,,,,,,,,,,,,,,,,,,,,,,,,,,,,,,,44527,2022-11-14_14h08.43.665,vts_reward_expectancy_bt_OFFLINE,2022.2.4,59.93466954056642,
1,0,0,0,0,0,1,0,triangle,hexagon,2,0,2,0,0,2,2,1,,,,,,,,,,,,,,,,,,,,,,,,,,,,,,,,,,,,,,,,451.7157014878467,451.7157014878467,451.7157014878467,451.7157014878467,451.7157014878467,451.7157014878467,451.7157014878467,451.7157014878467,451.7157014878467,451.7157014878467,a,4.410767696099356,1,648,2,456.15375292883255,457.6694549678359,,,,,,,,,,,,,,,,,,,,,,,,,,,,,,,,,,,,,,,,,,,,,,,,,,,,,,,,,,,,,,,,,,,,,,,44527,2022-11-14_14h08.43.665,vts_reward_expectancy_bt_OFFLINE,2022.2.4,59.93466954056642,
0,0,1,0,1,0,0,0,hexagon,triangle,2,0,2,0,0,3,3,6,,,,,,,,,,,,,,,,,,,,,,,,,,,,,,,,,,,,,,,,458.1696945829317,458.1696945829317,458.1696945829317,458.1696945829317,458.1696945829317,458.1696945829317,458.1696945829317,458.1696945829317,458.1696945829317,458.1696945829317,a,1.9060837519355118,1,649,2,460.10529590095393,461.60589634091593,461.60589634091593,462.1060200219508,,,,,,,,,,,,,,,,,,,,,,,,,,,,,,,,,,,,,,,,,,,,,,,,,,,,,,,,,,,,,,,,,,,,,44527,2022-11-14_14h08.43.665,vts_reward_expectancy_bt_OFFLINE,2022.2.4,59.93466954056642,
1,0,0,0,0,0,0,1,triangle,star,2,0,2,0,0,4,4,2,,,,,,,,,,,,,,,,,,,,,,,,,,,,,,,,,,,,,,,,462.1060200219508,462.1060200219508,462.1060200219508,462.1060200219508,462.1060200219508,462.1060200219508,462.1060200219508,462.1060200219508,462.1060200219508,462.1060200219508,l,1.2766255789902061,10,659,2,463.4082154519856,464.9090195938479,,,,,,,,,,,,,,,,,,,,,,,,,,,,,,,,,,,,,,,,,,,,,,,,,,,,,,,,,,,,,,,,,,,,,,,44527,2022-11-14_14h08.43.665,vts_reward_expectancy_bt_OFFLINE,2022.2.4,59.93466954056642,
0,0,1,0,0,0,0,1,hexagon,star,2,0,2,0,0,5,5,8,,,,,,,,,,,,,,,,,,,,,,,,,,,,,,,,,,,,,,,,465.4091185978614,465.4091185978614,465.4091185978614,465.4091185978614,465.4091185978614,465.4091185978614,465.4091185978614,465.4091185978614,465.4091185978614,465.4091185978614,l,1.180290597025305,10,669,2,466.60966266784817,468.110142290825,468.110142290825,468.6104256180115,,,,,,,,,,,,,,,,,,,,,,,,,,,,,,,,,,,,,,,,,,,,,,,,,,,,,,,,,,,,,,,,,,,,,44527,2022-11-14_14h08.43.665,vts_reward_expectancy_bt_OFFLINE,2022.2.4,59.93466954056642,
0,0,0,1,0,1,0,0,star ,circle,2,0,2,0,0,6,6,10,,,,,,,,,,,,,,,,,,,,,,,,,,,,,,,,,,,,,,,,468.6104256180115,468.6104256180115,468.6104256180115,468.6104256180115,468.6104256180115,468.6104256180115,468.6104256180115,468.6104256180115,468.6104256180115,468.6104256180115,l,0.7018994148820639,10,679,2,469.32927024085075,470.82993750995956,470.82993750995956,471.32979634799995,,,,,,,,,,,,,,,,,,,,,,,,,,,,,,,,,,,,,,,,,,,,,,,,,,,,,,,,,,,,,,,,,,,,,44527,2022-11-14_14h08.43.665,vts_reward_expectancy_bt_OFFLINE,2022.2.4,59.93466954056642,
0,1,0,0,1,0,0,0,circle,triangle,2,0,2,0,0,7,7,3,,,,,,,,,,,,,,,,,,,,,,,,,,,,,,,,,,,,,,,,471.32979634799995,471.32979634799995,471.32979634799995,471.32979634799995,471.32979634799995,471.32979634799995,471.32979634799995,471.32979634799995,471.32979634799995,471.32979634799995,a,0.7503184990491718,1,680,2,472.0986954609398,473.61413336195983,,,,,,,,,,,,,,,,,,,,,,,,,,,,,,,,,,,,,,,,,,,,,,,,,,,,,,,,,,,,,,,,,,,,,,,44527,2022-11-14_14h08.43.665,vts_reward_expectancy_bt_OFFLINE,2022.2.4,59.93466954056642,
0,1,0,0,0,0,0,1,circle,star,2,0,2,0,0,8,8,5,,,,,,,,,,,,,,,,,,,,,,,,,,,,,,,,,,,,,,,,474.1139965909533,474.1139965909533,474.1139965909533,474.1139965909533,474.1139965909533,474.1139965909533,474.1139965909533,474.1139965909533,474.1139965909533,474.1139965909533,a,1.1499312289524823,10,690,2,475.28538349596784,476.80006638984196,,,,,,,,,,,,,,,,,,,,,,,,,,,,,,,,,,,,,,,,,,,,,,,,,,,,,,,,,,,,,,,,,,,,,,,44527,2022-11-14_14h08.43.665,vts_reward_expectancy_bt_OFFLINE,2022.2.4,59.93466954056642,
0,0,0,1,0,0,1,0,star,hexagon,2,0,2,0,0,9,9,11,,,,,,,,,,,,,,,,,,,,,,,,,,,,,,,,,,,,,,,,477.30041339294985,477.30041339294985,477.30041339294985,477.30041339294985,477.30041339294985,477.30041339294985,477.30041339294985,477.30041339294985,477.30041339294985,477.30041339294985,a,1.5630953370127827,10,700,2,478.8844359978102,480.3867333759554,,,,,,,,,,,,,,,,,,,,,,,,,,,,,,,,,,,,,,,,,,,,,,,,,,,,,,,,,,,,,,,,,,,,,,,44527,2022-11-14_14h08.43.665,vts_reward_expectancy_bt_OFFLINE,2022.2.4,59.93466954056642,
1,0,0,0,0,1,0,0,triangle,circle,2,0,2,0,0,10,10,0,,,,,,,,,,,,,,,,,,,,,,,,,,,,,,,,,,,,,,,,480.88719735783525,480.88719735783525,480.88719735783525,480.88719735783525,480.88719735783525,480.88719735783525,480.88719735783525,480.88719735783525,480.88719735783525,480.88719735783525,l,0.9803580311127007,10,710,2,481.8875166408252,483.3878657249734,483.3878657249734,483.8881523560267,,,,,,,,,,,,,,,,,,,,,,,,,,,,,,,,,,,,,,,,,,,,,,,,,,,,,,,,,,,,,,,,,,,,,44527,2022-11-14_14h08.43.665,vts_reward_expectancy_bt_OFFLINE,2022.2.4,59.93466954056642,
0,0,1,0,0,1,0,0,hexagon,circle,2,0,2,0,0,11,11,7,,,,,,,,,,,,,,,,,,,,,,,,,,,,,,,,,,,,,,,,483.8881523560267,483.8881523560267,483.8881523560267,483.8881523560267,483.8881523560267,483.8881523560267,483.8881523560267,483.8881523560267,483.8881523560267,483.8881523560267,l,1.3663692469708622,10,720,2,485.2736310060136,486.77422423497774,486.77422423497774,487.2742729349993,,,,,,,,,,,,,,,,,,,,,,,,,,,,,,,,,,,,,,,,,,,,,,,,,,,,,,,,,,,,,,,,,,,,,44527,2022-11-14_14h08.43.665,vts_reward_expectancy_bt_OFFLINE,2022.2.4,59.93466954056642,
0,1,0,0,0,0,0,1,circle,star,2,0,2,0,1,0,12,5,,,,,,,,,,,,,,,,,,,,,,,,,,,,,,,,,,,,,,,,487.2742729349993,487.2742729349993,487.2742729349993,487.2742729349993,487.2742729349993,487.2742729349993,487.2742729349993,487.2742729349993,487.2742729349993,487.2742729349993,a,1.8055236081127077,1,721,2,489.11031569284387,490.6105215868447,,,,,,,,,,,,,,,,,,,,,,,,,,,,,,,,,,,,,,,,,,,,,,,,,,,,,,,,,,,,,,,,,,,,,,,44527,2022-11-14_14h08.43.665,vts_reward_expectancy_bt_OFFLINE,2022.2.4,59.93466954056642,
0,1,0,0,1,0,0,0,circle,triangle,2,0,2,0,1,1,13,3,,,,,,,,,,,,,,,,,,,,,,,,,,,,,,,,,,,,,,,,491.11078026588075,491.11078026588075,491.11078026588075,491.11078026588075,491.11078026588075,491.11078026588075,491.11078026588075,491.11078026588075,491.11078026588075,491.11078026588075,a,0.5783263901248574,10,731,2,491.71306605497375,493.2281371150166,,,,,,,,,,,,,,,,,,,,,,,,,,,,,,,,,,,,,,,,,,,,,,,,,,,,,,,,,,,,,,,,,,,,,,,44527,2022-11-14_14h08.43.665,vts_reward_expectancy_bt_OFFLINE,2022.2.4,59.93466954056642,
0,0,1,0,0,0,0,1,hexagon,star,2,0,2,0,1,2,14,8,,,,,,,,,,,,,,,,,,,,,,,,,,,,,,,,,,,,,,,,493.72840741393156,493.72840741393156,493.72840741393156,493.72840741393156,493.72840741393156,493.72840741393156,493.72840741393156,493.72840741393156,493.72840741393156,493.72840741393156,l,1.3585888929665089,10,741,2,495.1140494570136,496.6146860779263,496.6146860779263,497.11496372288093,,,,,,,,,,,,,,,,,,,,,,,,,,,,,,,,,,,,,,,,,,,,,,,,,,,,,,,,,,,,,,,,,,,,,44527,2022-11-14_14h08.43.665,vts_reward_expectancy_bt_OFFLINE,2022.2.4,59.93466954056642,
1,0,0,0,0,0,0,1,triangle,star,2,0,2,0,1,3,15,2,,,,,,,,,,,,,,,,,,,,,,,,,,,,,,,,,,,,,,,,497.11496372288093,497.11496372288093,497.11496372288093,497.11496372288093,497.11496372288093,497.11496372288093,497.11496372288093,497.11496372288093,497.11496372288093,497.11496372288093,l,4.0359208271838725,10,751,2,501.16854981496,502.66847918299027,502.66847918299027,503.1688849958591,,,,,,,,,,,,,,,,,,,,,,,,,,,,,,,,,,,,,,,,,,,,,,,,,,,,,,,,,,,,,,,,,,,,,44527,2022-11-14_14h08.43.665,vts_reward_expectancy_bt_OFFLINE,2022.2.4,59.93466954056642,
0,0,1,0,1,0,0,0,hexagon,triangle,2,0,2,0,1,4,16,6,,,,,,,,,,,,,,,,,,,,,,,,,,,,,,,,,,,,,,,,503.1688849958591,503.1688849958591,503.1688849958591,503.1688849958591,503.1688849958591,503.1688849958591,503.1688849958591,503.1688849958591,503.1688849958591,503.1688849958591,a,11.157107179053128,1,752,2,514.3468438228592,515.8625775529072,,,,,,,,,,,,,,,,,,,,,,,,,,,,,,,,,,,,,,,,,,,,,,,,,,,,,,,,,,,,,,,,,,,,,,,44527,2022-11-14_14h08.43.665,vts_reward_expectancy_bt_OFFLINE,2022.2.4,59.93466954056642,
0,0,0,1,1,0,0,0,star,triangle,2,0,2,0,1,5,17,9,,,,,,,,,,,,,,,,,,,,,,,,,,,,,,,,,,,,,,,,516.3627143849153,516.3627143849153,516.3627143849153,516.3627143849153,516.3627143849153,516.3627143849153,516.3627143849153,516.3627143849153,516.3627143849153,516.3627143849153,a,1.112918662140146,10,762,2,517.4980766698718,519.0138807250187,,,,,,,,,,,,,,,,,,,,,,,,,,,,,,,,,,,,,,,,,,,,,,,,,,,,,,,,,,,,,,,,,,,,,,,44527,2022-11-14_14h08.43.665,vts_reward_expectancy_bt_OFFLINE,2022.2.4,59.93466954056642,
0,0,0,1,0,0,1,0,star,hexagon,2,0,2,0,1,6,18,11,,,,,,,,,,,,,,,,,,,,,,,,,,,,,,,,,,,,,,,,519.4987798219081,519.4987798219081,519.4987798219081,519.4987798219081,519.4987798219081,519.4987798219081,519.4987798219081,519.4987798219081,519.4987798219081,519.4987798219081,a,1.0704342930112034,1,763,2,520.6011954748537,522.1166905199643,,,,,,,,,,,,,,,,,,,,,,,,,,,,,,,,,,,,,,,,,,,,,,,,,,,,,,,,,,,,,,,,,,,,,,,44527,2022-11-14_14h08.43.665,vts_reward_expectancy_bt_OFFLINE,2022.2.4,59.93466954056642,
0,0,0,1,0,1,0,0,star ,circle,2,0,2,0,1,7,19,10,,,,,,,,,,,,,,,,,,,,,,,,,,,,,,,,,,,,,,,,522.6168390780222,522.6168390780222,522.6168390780222,522.6168390780222,522.6168390780222,522.6168390780222,522.6168390780222,522.6168390780222,522.6168390780222,522.6168390780222,l,1.361643805168569,10,773,2,524.0021714989562,525.5027814968489,,,,,,,,,,,,,,,,,,,,,,,,,,,,,,,,,,,,,,,,,,,,,,,,,,,,,,,,,,,,,,,,,,,,,,,44527,2022-11-14_14h08.43.665,vts_reward_expectancy_bt_OFFLINE,2022.2.4,59.93466954056642,
1,0,0,0,0,1,0,0,triangle,circle,2,0,2,0,1,8,20,0,,,,,,,,,,,,,,,,,,,,,,,,,,,,,,,,,,,,,,,,526.0030801258981,526.0030801258981,526.0030801258981,526.0030801258981,526.0030801258981,526.0030801258981,526.0030801258981,526.0030801258981,526.0030801258981,526.0030801258981,l,0.855334057006985,10,783,2,526.8864454778377,528.3870759389829,528.3870759389829,,,,,,,,,,,,,,,,,,,,,,,,,,,,,,,,,,,,,,,,,,,,,,,,,,,,,,,,,,,,,,,,,,,,,,44527,2022-11-14_14h08.43.665,vts_reward_expectancy_bt_OFFLINE,2022.2.4,59.93466954056642,
0,0,1,0,0,1,0,0,hexagon,circle,2,0,2,0,1,9,21,7,,,,,,,,,,,,,,,,,,,,,,,,,,,,,,,,,,,,,,,,528.8874518859666,528.8874518859666,528.8874518859666,528.8874518859666,528.8874518859666,528.8874518859666,528.8874518859666,528.8874518859666,528.8874518859666,528.8874518859666,l,0.5813034868333489,10,793,2,529.4893674589694,530.9899387708865,530.9899387708865,,,,,,,,,,,,,,,,,,,,,,,,,,,,,,,,,,,,,,,,,,,,,,,,,,,,,,,,,,,,,,,,,,,,,,44527,2022-11-14_14h08.43.665,vts_reward_expectancy_bt_OFFLINE,2022.2.4,59.93466954056642,
0,1,0,0,0,0,1,0,circle,hexagon,2,0,2,0,1,10,22,4,,,,,,,,,,,,,,,,,,,,,,,,,,,,,,,,,,,,,,,,531.4902571199927,531.4902571199927,531.4902571199927,531.4902571199927,531.4902571199927,531.4902571199927,531.4902571199927,531.4902571199927,531.4902571199927,531.4902571199927,a,0.5885715240146965,10,803,2,532.1071729809046,533.6076385029592,533.6076385029592,534.1075455269311,,,,,,,,,,,,,,,,,,,,,,,,,,,,,,,,,,,,,,,,,,,,,,,,,,,,,,,,,,,,,,,,,,,,,44527,2022-11-14_14h08.43.665,vts_reward_expectancy_bt_OFFLINE,2022.2.4,59.93466954056642,
1,0,0,0,0,0,1,0,triangle,hexagon,2,0,2,0,1,11,23,1,,,,,,,,,,,,,,,,,,,,,,,,,,,,,,,,,,,,,,,,534.1075455269311,534.1075455269311,534.1075455269311,534.1075455269311,534.1075455269311,534.1075455269311,534.1075455269311,534.1075455269311,534.1075455269311,534.1075455269311,l,1.3462432350497693,1,804,2,535.4789817258716,536.9939471469261,,,,,,,,,,,,,,,,,,,,,,,,,,,,,,,,,,,,,,,,,,,,,,,,,,,,,,,,,,,,,,,,,,,,,,,44527,2022-11-14_14h08.43.665,vts_reward_expectancy_bt_OFFLINE,2022.2.4,59.93466954056642,
0,1,0,0,1,0,0,0,circle,triangle,2,0,2,0,2,0,24,3,,,,,,,,,,,,,,,,,,,,,,,,,,,,,,,,,,,,,,,,537.4941435928922,537.4941435928922,537.4941435928922,537.4941435928922,537.4941435928922,537.4941435928922,537.4941435928922,537.4941435928922,537.4941435928922,537.4941435928922,a,0.5595761160366237,10,814,2,538.0800894908607,539.5802090228535,,,,,,,,,,,,,,,,,,,,,,,,,,,,,,,,,,,,,,,,,,,,,,,,,,,,,,,,,,,,,,,,,,,,,,,44527,2022-11-14_14h08.43.665,vts_reward_expectancy_bt_OFFLINE,2022.2.4,59.93466954056642,
1,0,0,0,0,1,0,0,triangle,circle,2,0,2,0,2,1,25,0,,,,,,,,,,,,,,,,,,,,,,,,,,,,,,,,,,,,,,,,540.0805003638379,540.0805003638379,540.0805003638379,540.0805003638379,540.0805003638379,540.0805003638379,540.0805003638379,540.0805003638379,540.0805003638379,540.0805003638379,l,1.314537222031504,10,824,2,541.4140251919162,542.9145812238567,542.9145812238567,543.4145602809731,,,,,,,,,,,,,,,,,,,,,,,,,,,,,,,,,,,,,,,,,,,,,,,,,,,,,,,,,,,,,,,,,,,,,44527,2022-11-14_14h08.43.665,vts_reward_expectancy_bt_OFFLINE,2022.2.4,59.93466954056642,
0,0,0,1,0,1,0,0,star ,circle,2,0,2,0,2,2,26,10,,,,,,,,,,,,,,,,,,,,,,,,,,,,,,,,,,,,,,,,543.4145602809731,543.4145602809731,543.4145602809731,543.4145602809731,543.4145602809731,543.4145602809731,543.4145602809731,543.4145602809731,543.4145602809731,543.4145602809731,l,0.5785536600742489,1,825,2,544.0170435388573,545.5175425449852,,,,,,,,,,,,,,,,,,,,,,,,,,,,,,,,,,,,,,,,,,,,,,,,,,,,,,,,,,,,,,,,,,,,,,,44527,2022-11-14_14h08.43.665,vts_reward_expectancy_bt_OFFLINE,2022.2.4,59.93466954056642,
0,0,1,0,0,1,0,0,hexagon,circle,2,0,2,0,2,3,27,7,,,,,,,,,,,,,,,,,,,,,,,,,,,,,,,,,,,,,,,,546.0174318689387,546.0174318689387,546.0174318689387,546.0174318689387,546.0174318689387,546.0174318689387,546.0174318689387,546.0174318689387,546.0174318689387,546.0174318689387,l,0.8568605580367148,10,835,2,546.9033058770001,548.4183339138981,,,,,,,,,,,,,,,,,,,,,,,,,,,,,,,,,,,,,,,,,,,,,,,,,,,,,,,,,,,,,,,,,,,,,,,44527,2022-11-14_14h08.43.665,vts_reward_expectancy_bt_OFFLINE,2022.2.4,59.93466954056642,
0,0,1,0,0,0,0,1,hexagon,star,2,0,2,0,2,4,28,8,,,,,,,,,,,,,,,,,,,,,,,,,,,,,,,,,,,,,,,,548.918500023894,548.918500023894,548.918500023894,548.918500023894,548.918500023894,548.918500023894,548.918500023894,548.918500023894,548.918500023894,548.918500023894,l,1.8924123630858958,10,845,2,550.8378405969124,552.3382948329672,552.3382948329672,552.8383568148129,,,,,,,,,,,,,,,,,,,,,,,,,,,,,,,,,,,,,,,,,,,,,,,,,,,,,,,,,,,,,,,,,,,,,44527,2022-11-14_14h08.43.665,vts_reward_expectancy_bt_OFFLINE,2022.2.4,59.93466954056642,
0,0,1,0,1,0,0,0,hexagon,triangle,2,0,2,0,2,5,29,6,,,,,,,,,,,,,,,,,,,,,,,,,,,,,,,,,,,,,,,,552.8383568148129,552.8383568148129,552.8383568148129,552.8383568148129,552.8383568148129,552.8383568148129,552.8383568148129,552.8383568148129,552.8383568148129,552.8383568148129,a,1.5281288281548768,10,855,2,554.3917503729463,555.8918005828746,555.8918005828746,556.3921587448567,,,,,,,,,,,,,,,,,,,,,,,,,,,,,,,,,,,,,,,,,,,,,,,,,,,,,,,,,,,,,,,,,,,,,44527,2022-11-14_14h08.43.665,vts_reward_expectancy_bt_OFFLINE,2022.2.4,59.93466954056642,
1,0,0,0,0,0,1,0,triangle,hexagon,2,0,2,0,2,6,30,1,,,,,,,,,,,,,,,,,,,,,,,,,,,,,,,,,,,,,,,,556.3921587448567,556.3921587448567,556.3921587448567,556.3921587448567,556.3921587448567,556.3921587448567,556.3921587448567,556.3921587448567,556.3921587448567,556.3921587448567,l,1.2140484610572457,1,856,2,557.6268368898891,559.1258601029404,559.1258601029404,,,,,,,,,,,,,,,,,,,,,,,,,,,,,,,,,,,,,,,,,,,,,,,,,,,,,,,,,,,,,,,,,,,,,,44527,2022-11-14_14h08.43.665,vts_reward_expectancy_bt_OFFLINE,2022.2.4,59.93466954056642,
0,0,0,1,1,0,0,0,star,triangle,2,0,2,0,2,7,31,9,,,,,,,,,,,,,,,,,,,,,,,,,,,,,,,,,,,,,,,,559.6279720538296,559.6279720538296,559.6279720538296,559.6279720538296,559.6279720538296,559.6279720538296,559.6279720538296,559.6279720538296,559.6279720538296,559.6279720538296,a,1.8482963689602911,1,857,2,561.4956205040216,562.9960851538926,562.9960851538926,563.4960692308377,,,,,,,,,,,,,,,,,,,,,,,,,,,,,,,,,,,,,,,,,,,,,,,,,,,,,,,,,,,,,,,,,,,,,44527,2022-11-14_14h08.43.665,vts_reward_expectancy_bt_OFFLINE,2022.2.4,59.93466954056642,
1,0,0,0,0,0,0,1,triangle,star,2,0,2,0,2,8,32,2,,,,,,,,,,,,,,,,,,,,,,,,,,,,,,,,,,,,,,,,563.4960692308377,563.4960692308377,563.4960692308377,563.4960692308377,563.4960692308377,563.4960692308377,563.4960692308377,563.4960692308377,563.4960692308377,563.4960692308377,a,1.7377663080114871,10,867,2,565.2650117848534,566.7657226698939,566.7657226698939,567.2656796060037,,,,,,,,,,,,,,,,,,,,,,,,,,,,,,,,,,,,,,,,,,,,,,,,,,,,,,,,,,,,,,,,,,,,,44527,2022-11-14_14h08.43.665,vts_reward_expectancy_bt_OFFLINE,2022.2.4,59.93466954056642,
0,1,0,0,0,0,0,1,circle,star,2,0,2,0,2,9,33,5,,,,,,,,,,,,,,,,,,,,,,,,,,,,,,,,,,,,,,,,567.2656796060037,567.2656796060037,567.2656796060037,567.2656796060037,567.2656796060037,567.2656796060037,567.2656796060037,567.2656796060037,567.2656796060037,567.2656796060037,a,0.8828850630670786,10,877,2,568.1666788468137,569.6685560599435,,,,,,,,,,,,,,,,,,,,,,,,,,,,,,,,,,,,,,,,,,,,,,,,,,,,,,,,,,,,,,,,,,,,,,,44527,2022-11-14_14h08.43.665,vts_reward_expectancy_bt_OFFLINE,2022.2.4,59.93466954056642,
0,1,0,0,0,0,1,0,circle,hexagon,2,0,2,0,2,10,34,4,,,,,,,,,,,,,,,,,,,,,,,,,,,,,,,,,,,,,,,,570.1687379789073,570.1687379789073,570.1687379789073,570.1687379789073,570.1687379789073,570.1687379789073,570.1687379789073,570.1687379789073,570.1687379789073,570.1687379789073,a,0.5790190219413489,10,887,2,570.7690426728223,572.2693789789919,572.2693789789919,572.7696299939416,,,,,,,,,,,,,,,,,,,,,,,,,,,,,,,,,,,,,,,,,,,,,,,,,,,,,,,,,,,,,,,,,,,,,44527,2022-11-14_14h08.43.665,vts_reward_expectancy_bt_OFFLINE,2022.2.4,59.93466954056642,
0,0,0,1,0,0,1,0,star,hexagon,2,0,2,0,2,11,35,11,,,,,,,,,,,,,,,,,,,,,,,,,,,,,,,,,,,,,,,,572.7696299939416,572.7696299939416,572.7696299939416,572.7696299939416,572.7696299939416,572.7696299939416,572.7696299939416,572.7696299939416,572.7696299939416,572.7696299939416,a,1.3416180650237948,10,897,2,574.137075120816,575.6392302839085,,,,,,,,,,,,,,,,,,,,,,,,,,,,,,,,,,,,,,,,,,,,,,,,,,,,,,,,,,,,,,,,,,,,,,,44527,2022-11-14_14h08.43.665,vts_reward_expectancy_bt_OFFLINE,2022.2.4,59.93466954056642,
0,0,0,1,0,0,1,0,star,hexagon,2,0,2,0,3,0,36,11,,,,,,,,,,,,,,,,,,,,,,,,,,,,,,,,,,,,,,,,576.1393279458862,576.1393279458862,576.1393279458862,576.1393279458862,576.1393279458862,576.1393279458862,576.1393279458862,576.1393279458862,576.1393279458862,576.1393279458862,a,1.4480466889217496,10,907,2,577.6068897920195,579.1073161510285,579.1073161510285,,,,,,,,,,,,,,,,,,,,,,,,,,,,,,,,,,,,,,,,,,,,,,,,,,,,,,,,,,,,,,,,,,,,,,44527,2022-11-14_14h08.43.665,vts_reward_expectancy_bt_OFFLINE,2022.2.4,59.93466954056642,
1,0,0,0,0,1,0,0,triangle,circle,2,0,2,0,3,1,37,0,,,,,,,,,,,,,,,,,,,,,,,,,,,,,,,,,,,,,,,,579.6093039070256,579.6093039070256,579.6093039070256,579.6093039070256,579.6093039070256,579.6093039070256,579.6093039070256,579.6093039070256,579.6093039070256,579.6093039070256,l,0.9148472300730646,10,917,2,580.5427813089918,582.0434051128104,582.0434051128104,582.543492243858,,,,,,,,,,,,,,,,,,,,,,,,,,,,,,,,,,,,,,,,,,,,,,,,,,,,,,,,,,,,,,,,,,,,,44527,2022-11-14_14h08.43.665,vts_reward_expectancy_bt_OFFLINE,2022.2.4,59.93466954056642,
0,0,1,0,0,1,0,0,hexagon,circle,2,0,2,0,3,2,38,7,,,,,,,,,,,,,,,,,,,,,,,,,,,,,,,,,,,,,,,,582.543492243858,582.543492243858,582.543492243858,582.543492243858,582.543492243858,582.543492243858,582.543492243858,582.543492243858,582.543492243858,582.543492243858,l,0.5795074980705976,10,927,2,583.1440404700115,584.6461946389172,,,,,,,,,,,,,,,,,,,,,,,,,,,,,,,,,,,,,,,,,,,,,,,,,,,,,,,,,,,,,,,,,,,,,,,44527,2022-11-14_14h08.43.665,vts_reward_expectancy_bt_OFFLINE,2022.2.4,59.93466954056642,
0,0,0,1,0,1,0,0,star ,circle,2,0,2,0,3,3,39,10,,,,,,,,,,,,,,,,,,,,,,,,,,,,,,,,,,,,,,,,585.1461677160114,585.1461677160114,585.1461677160114,585.1461677160114,585.1461677160114,585.1461677160114,585.1461677160114,585.1461677160114,585.1461677160114,585.1461677160114,l,0.6088565280660987,1,928,2,585.7834322508425,587.2971944669262,,,,,,,,,,,,,,,,,,,,,,,,,,,,,,,,,,,,,,,,,,,,,,,,,,,,,,,,,,,,,,,,,,,,,,,44527,2022-11-14_14h08.43.665,vts_reward_expectancy_bt_OFFLINE,2022.2.4,59.93466954056642,
0,0,1,0,0,0,0,1,hexagon,star,2,0,2,0,3,4,40,8,,,,,,,,,,,,,,,,,,,,,,,,,,,,,,,,,,,,,,,,587.7972828408238,587.7972828408238,587.7972828408238,587.7972828408238,587.7972828408238,587.7972828408238,587.7972828408238,587.7972828408238,587.7972828408238,587.7972828408238,l,1.603615763131529,10,938,2,589.4330439469777,590.9336477008183,590.9336477008183,591.4336856068112,,,,,,,,,,,,,,,,,,,,,,,,,,,,,,,,,,,,,,,,,,,,,,,,,,,,,,,,,,,,,,,,,,,,,44527,2022-11-14_14h08.43.665,vts_reward_expectancy_bt_OFFLINE,2022.2.4,59.93466954056642,
0,1,0,0,1,0,0,0,circle,triangle,2,0,2,0,3,5,41,3,,,,,,,,,,,,,,,,,,,,,,,,,,,,,,,,,,,,,,,,591.4336856068112,591.4336856068112,591.4336856068112,591.4336856068112,591.4336856068112,591.4336856068112,591.4336856068112,591.4336856068112,591.4336856068112,591.4336856068112,a,0.497969055082649,10,948,2,591.9507558329497,593.4513226479758,593.4513226479758,593.9511276290286,,,,,,,,,,,,,,,,,,,,,,,,,,,,,,,,,,,,,,,,,,,,,,,,,,,,,,,,,,,,,,,,,,,,,44527,2022-11-14_14h08.43.665,vts_reward_expectancy_bt_OFFLINE,2022.2.4,59.93466954056642,
0,0,1,0,1,0,0,0,hexagon,triangle,2,0,2,0,3,6,42,6,,,,,,,,,,,,,,,,,,,,,,,,,,,,,,,,,,,,,,,,593.9511276290286,593.9511276290286,593.9511276290286,593.9511276290286,593.9511276290286,593.9511276290286,593.9511276290286,593.9511276290286,593.9511276290286,593.9511276290286,l,3.0330546810291708,1,949,2,597.0065203448758,598.5219221978914,,,,,,,,,,,,,,,,,,,,,,,,,,,,,,,,,,,,,,,,,,,,,,,,,,,,,,,,,,,,,,,,,,,,,,,44527,2022-11-14_14h08.43.665,vts_reward_expectancy_bt_OFFLINE,2022.2.4,59.93466954056642,
0,1,0,0,0,0,0,1,circle,star,2,0,2,0,3,7,43,5,,,,,,,,,,,,,,,,,,,,,,,,,,,,,,,,,,,,,,,,599.0218312318902,599.0218312318902,599.0218312318902,599.0218312318902,599.0218312318902,599.0218312318902,599.0218312318902,599.0218312318902,599.0218312318902,599.0218312318902,a,0.9426689120009542,10,959,2,599.9930474779103,601.5078082308173,,,,,,,,,,,,,,,,,,,,,,,,,,,,,,,,,,,,,,,,,,,,,,,,,,,,,,,,,,,,,,,,,,,,,,,44527,2022-11-14_14h08.43.665,vts_reward_expectancy_bt_OFFLINE,2022.2.4,59.93466954056642,
0,0,0,1,1,0,0,0,star,triangle,2,0,2,0,3,8,44,9,,,,,,,,,,,,,,,,,,,,,,,,,,,,,,,,,,,,,,,,602.0076989198569,602.0076989198569,602.0076989198569,602.0076989198569,602.0076989198569,602.0076989198569,602.0076989198569,602.0076989198569,602.0076989198569,602.0076989198569,a,3.7404967760667205,1,960,2,605.780157874804,607.2948683598079,,,,,,,,,,,,,,,,,,,,,,,,,,,,,,,,,,,,,,,,,,,,,,,,,,,,,,,,,,,,,,,,,,,,,,,44527,2022-11-14_14h08.43.665,vts_reward_expectancy_bt_OFFLINE,2022.2.4,59.93466954056642,
1,0,0,0,0,0,1,0,triangle,hexagon,2,0,2,0,3,9,45,1,,,,,,,,,,,,,,,,,,,,,,,,,,,,,,,,,,,,,,,,607.7948300968856,607.7948300968856,607.7948300968856,607.7948300968856,607.7948300968856,607.7948300968856,607.7948300968856,607.7948300968856,607.7948300968856,607.7948300968856,l,1.1261401060037315,1,961,2,608.9458614489995,610.4478687089868,,,,,,,,,,,,,,,,,,,,,,,,,,,,,,,,,,,,,,,,,,,,,,,,,,,,,,,,,,,,,,,,,,,,,,,44527,2022-11-14_14h08.43.665,vts_reward_expectancy_bt_OFFLINE,2022.2.4,59.93466954056642,
0,1,0,0,0,0,1,0,circle,hexagon,2,0,2,0,3,10,46,4,,,,,,,,,,,,,,,,,,,,,,,,,,,,,,,,,,,,,,,,610.9483236889355,610.9483236889355,610.9483236889355,610.9483236889355,610.9483236889355,610.9483236889355,610.9483236889355,610.9483236889355,610.9483236889355,610.9483236889355,a,0.8074749170336872,10,971,2,611.7972237898502,613.2991050109267,,,,,,,,,,,,,,,,,,,,,,,,,,,,,,,,,,,,,,,,,,,,,,,,,,,,,,,,,,,,,,,,,,,,,,,44527,2022-11-14_14h08.43.665,vts_reward_expectancy_bt_OFFLINE,2022.2.4,59.93466954056642,
1,0,0,0,0,0,0,1,triangle,star,2,0,2,0,3,11,47,2,,,,,,,,,,,,,,,,,,,,,,,,,,,,,,,,,,,,,,,,613.7994290029164,613.7994290029164,613.7994290029164,613.7994290029164,613.7994290029164,613.7994290029164,613.7994290029164,613.7994290029164,613.7994290029164,613.7994290029164,l,1.1731677821371704,1,972,2,615.003701814916,616.5187117638998,,,,,,,,,,,,,,,,,,,,,,,,,,,,,,,,,,,,,,,,,,,,,,,,,,,,,,,,,,,,,,,,,,,,,,,44527,2022-11-14_14h08.43.665,vts_reward_expectancy_bt_OFFLINE,2022.2.4,59.93466954056642,
,,,,,,,,,,,,,,,,,,0,0,0,0,0,0,0,0,,,,,,,,,,,,,,,,,,,,,,,,,,,,,,,,,,,,,,,,,,,,,,,,661.0342639198061,,,U,160,circle,0.017217763932421803,656.9607621929608,658.4320904240012,658.4320904240012,658.4320904240012,1,0,f,1.0591993439011276,0,659.5212049498223,,,,,,,,,,,,,,,,,,,,,,,,,,,,,,,,,,,,,,,,,,,,,,,,,,,,,,,44527,2022-11-14_14h08.43.665,vts_reward_expectancy_bt_OFFLINE,2022.2.4,59.93466954056642,
,,,,,,,,,,,,,,,,,,0,0,0,0,1,0,1,0,,,,,,,,,,,,,,,,,,,,,,,,,,,,,,,,,,,,,,,,,,,,,,,,665.8048649439588,,,Y,146,triangle,0.00043244403786957264,662.0144502138719,663.5020618268754,663.5020618268754,663.5020618268754,1,0,f,0.7820461050141603,0,664.3005397280212,,,,,,,,,,,,,,,,,,,,,,,,,,,,,,,,,,,,,,,,,,,,,,,,,,,,,,,44527,2022-11-14_14h08.43.665,vts_reward_expectancy_bt_OFFLINE,2022.2.4,59.93466954056642,
,,,,,,,,,,,,,,,,,,0,0,0,0,2,0,2,0,,,,,,,,,,,,,,,,,,,,,,,,,,,,,,,,,,,,,,,,,,,,,,,,670.4415438368451,,,W,132,hexagon,0.0017065878491848707,666.8008754719049,668.2888689399697,668.2888689399697,668.2888689399697,1,0,f,0.6312526871915907,0,668.9393267568666,,,,,,,,,,,,,,,,,,,,,,,,,,,,,,,,,,,,,,,,,,,,,,,,,,,,,,,44527,2022-11-14_14h08.43.665,vts_reward_expectancy_bt_OFFLINE,2022.2.4,59.93466954056642,
,,,,,,,,,,,,,,,,,,0,0,0,0,3,0,3,0,,,,,,,,,,,,,,,,,,,,,,,,,,,,,,,,,,,,,,,,,,,,,,,,675.5288855088875,,,S,139,star,0.0019800991285592318,671.4376413410064,672.92587029282,672.92587029282,672.92587029282,1,0,f,1.0798860711511225,0,674.0266268129926,,,,,,,,,,,,,,,,,,,,,,,,,,,,,,,,,,,,,,,,,,,,,,,,,,,,,,,44527,2022-11-14_14h08.43.665,vts_reward_expectancy_bt_OFFLINE,2022.2.4,59.93466954056642,
,,,,,,,,,,,,,,,,,,0,0,0,0,4,0,4,0,,,,,,,,,,,,,,,,,,,,,,,,,,,,,,,,,,,,,,,,,,,,,,,,680.2486873830203,,,F,167,star,0.0018401641864329576,676.5244471349288,678.0127591178752,678.0127591178752,678.0127591178752,1,0,d,0.7068432981614023,0,678.7470224839635,,,,,,,,,,,,,,,,,,,,,,,,,,,,,,,,,,,,,,,,,,,,,,,,,,,,,,,44527,2022-11-14_14h08.43.665,vts_reward_expectancy_bt_OFFLINE,2022.2.4,59.93466954056642,
,,,,,,,,,,,,,,,,,,0,0,0,0,5,0,5,0,,,,,,,,,,,,,,,,,,,,,,,,,,,,,,,,,,,,,,,,,,,,,,,,684.9689682989847,,,B,181,hexagon,0.0022706149611622095,681.2455341508612,682.7328050518408,682.7328050518408,682.7328050518408,1,0,d,0.7118365389760584,0,683.4674761958886,,,,,,,,,,,,,,,,,,,,,,,,,,,,,,,,,,,,,,,,,,,,,,,,,,,,,,,44527,2022-11-14_14h08.43.665,vts_reward_expectancy_bt_OFFLINE,2022.2.4,59.93466954056642,
,,,,,,,,,,,,,,,,,,0,0,0,0,6,0,6,0,,,,,,,,,,,,,,,,,,,,,,,,,,,,,,,,,,,,,,,,,,,,,,,,690.572856600862,,,D,174,triangle,0.0018490010406821966,685.9646571788471,687.4531100739259,687.4531100739259,687.4531100739259,1,0,d,1.5945202412549406,0,689.0710155109409,,,,,,,,,,,,,,,,,,,,,,,,,,,,,,,,,,,,,,,,,,,,,,,,,,,,,,,44527,2022-11-14_14h08.43.665,vts_reward_expectancy_bt_OFFLINE,2022.2.4,59.93466954056642,
,,,,,,,,,,,,,,,,,,0,0,0,0,7,0,7,0,,,,,,,,,,,,,,,,,,,,,,,,,,,,,,,,,,,,,,,,,,,,,,,,696.0765774219763,,696.5765837859362,H,125,circle,0.0019345979671925306,691.5689974718262,693.0570000638254,693.0570000638254,693.0570000638254,1,0,d,1.5022592218592763,0,694.5769432079978,696.0765774219763,,,,,,,,,,,,,,,,,,,,,,,,,,,,,,,,,,,,,,,,,,,,,,,,,,,,,,44527,2022-11-14_14h08.43.665,vts_reward_expectancy_bt_OFFLINE,2022.2.4,59.93466954056642,
,,,,,,,,,,,,,,,,,,0,0,0,0,8,0,8,0,,,,,,,,,,,,,,,,,,,,,,,,,,,,,,,,,,,,,,,,,,,,,,,,700.8133890619501,,,U,160,hexagon,0.0001992390025407076,697.0727068639826,698.5609236378223,698.5609236378223,698.5609236378223,1,0,f,0.7236034830566496,0,699.3116033219267,,,,,,,,,,,,,,,,,,,,,,,,,,,,,,,,,,,,,,,,,,,,,,,,,,,,,,,44527,2022-11-14_14h08.43.665,vts_reward_expectancy_bt_OFFLINE,2022.2.4,59.93466954056642,
,,,,,,,,,,,,,,,,,,0,0,0,0,9,0,9,0,,,,,,,,,,,,,,,,,,,,,,,,,,,,,,,,,,,,,,,,,,,,,,,,705.6008319249377,,,Y,146,circle,0.002156913047656417,701.8093348338734,703.2977801759262,703.2977801759262,703.2977801759262,1,0,f,0.7680657980963588,0,704.0980556658469,,,,,,,,,,,,,,,,,,,,,,,,,,,,,,,,,,,,,,,,,,,,,,,,,,,,,,,44527,2022-11-14_14h08.43.665,vts_reward_expectancy_bt_OFFLINE,2022.2.4,59.93466954056642,
,,,,,,,,,,,,,,,,,,,,,,,,,,0,0,0,0,0,0,0,0,,,,,,,,,,,,,,,,,,,,,,,,,,,,,,,,,,,,,,,,748.4805617469829,,748.980759336846,U,167,hexagon,0.017473524902015924,,,,,1,0,,,1,746.9806751059368,748.4805617469829,744.5242720558308,745.9965824848041,745.9965824848041,745.9965824848041,k,0.9568761398550123,,,,,,,,,,,,,,,,,,,,,,,,,,,,,,,,,,,,,,,,,,,,,,,,44527,2022-11-14_14h08.43.665,vts_reward_expectancy_bt_OFFLINE,2022.2.4,59.93466954056642,
,,,,,,,,,,,,,,,,,,,,,,,,,,0,0,0,0,1,0,1,0,,,,,,,,,,,,,,,,,,,,,,,,,,,,,,,,,,,,,,,,753.5344144408591,,754.0347281268332,Y,146,triangle,0.00041413004510104656,,,,,1,0,,,1,752.034516263986,753.5344144408591,749.4773911149241,750.9665356848855,750.9665356848855,750.9665356848855,j,1.049745440017432,,,,,,,,,,,,,,,,,,,,,,,,,,,,,,,,,,,,,,,,,,,,,,,,44527,2022-11-14_14h08.43.665,vts_reward_expectancy_bt_OFFLINE,2022.2.4,59.93466954056642,
,,,,,,,,,,,,,,,,,,,,,,,,,,0,0,0,0,2,0,2,0,,,,,,,,,,,,,,,,,,,,,,,,,,,,,,,,,,,,,,,,758.1040800670162,,758.6044560018927,H,125,star,7.742596790194511e-05,,,,,1,0,,,1,756.6043440520298,758.1040800670162,754.5302655538544,756.0202978798188,756.0202978798188,756.0202978798188,j,0.5633334380108863,,,,,,,,,,,,,,,,,,,,,,,,,,,,,,,,,,,,,,,,,,,,,,,,44527,2022-11-14_14h08.43.665,vts_reward_expectancy_bt_OFFLINE,2022.2.4,59.93466954056642,
,,,,,,,,,,,,,,,,,,,,,,,,,,0,0,0,0,3,0,3,0,,,,,,,,,,,,,,,,,,,,,,,,,,,,,,,,,,,,,,,,762.6411980879493,,763.141545320861,B,181,circle,0.0007145910058170557,,,,,1,0,,,1,761.1415559039451,762.6411980879493,759.1013453449123,760.5906394009944,760.5906394009944,760.5906394009944,k,0.5268913318868726,,,,,,,,,,,,,,,,,,,,,,,,,,,,,,,,,,,,,,,,,,,,,,,,44527,2022-11-14_14h08.43.665,vts_reward_expectancy_bt_OFFLINE,2022.2.4,59.93466954056642,
,,,,,,,,,,,,,,,,,,,,,,,,,,0,0,0,0,4,0,4,0,,,,,,,,,,,,,,,,,,,,,,,,,,,,,,,,,,,,,,,,767.5113236559555,,768.0113608688116,D,132,circle,0.0005099771078675985,,,,,1,0,,,1,766.010988723021,767.5113236559555,763.6376329399645,765.1271229488775,765.1271229488775,765.1271229488775,j,0.8508507651276886,,,,,,,,,,,,,,,,,,,,,,,,,,,,,,,,,,,,,,,,,,,,,,,,44527,2022-11-14_14h08.43.665,vts_reward_expectancy_bt_OFFLINE,2022.2.4,59.93466954056642,
,,,,,,,,,,,,,,,,,,,,,,,,,,0,0,0,0,5,0,5,0,,,,,,,,,,,,,,,,,,,,,,,,,,,,,,,,,,,,,,,,772.8485273998231,,773.3491244369652,S,160,star,-0.00023774500004947186,,,,,1,0,,,1,771.3489827949088,772.8485273998231,768.5079858039971,769.9976944148075,769.9976944148075,769.9976944148075,k,1.3247449200134724,,,,,,,,,,,,,,,,,,,,,,,,,,,,,,,,,,,,,,,,,,,,,,,,44527,2022-11-14_14h08.43.665,vts_reward_expectancy_bt_OFFLINE,2022.2.4,59.93466954056642,
,,,,,,,,,,,,,,,,,,,,,,,,,,0,0,0,0,6,0,6,0,,,,,,,,,,,,,,,,,,,,,,,,,,,,,,,,,,,,,,,,777.6022499648388,,778.102486158954,W,174,triangle,0.000592490890994668,,,,,1,0,,,1,776.102302349871,777.6022499648388,773.8447820779402,775.3345918238629,775.3345918238629,775.3345918238629,k,0.7356540141627192,,,,,,,,,,,,,,,,,,,,,,,,,,,,,,,,,,,,,,,,,,,,,,,,44527,2022-11-14_14h08.43.665,vts_reward_expectancy_bt_OFFLINE,2022.2.4,59.93466954056642,
,,,,,,,,,,,,,,,,,,,,,,,,,,0,0,0,0,7,0,7,0,,,,,,,,,,,,,,,,,,,,,,,,,,,,,,,,,,,,,,,,782.5889772009104,,783.0892095398158,F,139,hexagon,0.0003974339924752712,,,,,1,0,,,1,781.0888458408881,782.5889772009104,778.5986520040315,780.0880574658513,780.0880574658513,780.0880574658513,j,0.9776560121681541,,,,,,,,,,,,,,,,,,,,,,,,,,,,,,,,,,,,,,,,,,,,,,,,44527,2022-11-14_14h08.43.665,vts_reward_expectancy_bt_OFFLINE,2022.2.4,59.93466954056642,
,,,,,,,,,,,,,,,,,,,,,,,,,,0,0,0,0,8,0,8,0,,,,,,,,,,,,,,,,,,,,,,,,,,,,,,,,,,,,,,,,787.3094832068309,,787.8097263029777,U,167,hexagon,0.0005735880695283413,,,,,1,0,,,1,785.809417309938,787.3094832068309,783.5850937499199,785.0749933510087,785.0749933510087,785.0749933510087,k,0.7152913131285459,,,,,,,,,,,,,,,,,,,,,,,,,,,,,,,,,,,,,,,,,,,,,,,,44527,2022-11-14_14h08.43.665,vts_reward_expectancy_bt_OFFLINE,2022.2.4,59.93466954056642,
,,,,,,,,,,,,,,,,,,,,,,,,,,0,0,0,0,9,0,9,0,,,,,,,,,,,,,,,,,,,,,,,,,,,,,,,,,,,,,,,,792.2293381600175,,792.7323187058792,Y,146,star,0.0003654351457953453,,,,,1,0,,,1,790.7303875100333,792.2293381600175,788.3053217770066,789.7952400518116,789.7952400518116,789.7952400518116,j,0.9113111500628293,,,,,,,,,,,,,,,,,,,,,,,,,,,,,,,,,,,,,,,,,,,,,,,,44527,2022-11-14_14h08.43.665,vts_reward_expectancy_bt_OFFLINE,2022.2.4,59.93466954056642,
,,,,,,,,,,,,,,,,,,,,,,,,,,,,,,,,,,0,0,0,0,0,0,0,0,,,,,,,,,,,,,,,,,,,,,,,,,,,,0,972,,,835.2951070198324,,,Y,167,hexagon,0.000742690172046423,,,,,1,0,,,2,,,,,,,,,829.6868475389201,829.6868475389201,829.6868475389201,829.6868475389201,831.1750580850057,831.1750580850057,831.1750580850057,831.1750580850057,831.1915376749821,831.1915376749821,831.1915376749821,831.1915376749821,-1,letter,NA,f,2.5997475618496537,vtsPrac,833.7962797549553,,,,,,,,,,,,,,,,,,,,,,,,,,,,,44527,2022-11-14_14h08.43.665,vts_reward_expectancy_bt_OFFLINE,2022.2.4,59.93466954056642,
,,,,,,,,,,,,,,,,,,,,,,,,,,,,,,,,,,0,0,0,0,1,0,1,0,,,,,,,,,,,,,,,,,,,,,,,,,,,,0,972,,,841.6494135009125,,842.1491990238428,H,181,circle,0.001940801041200757,,,,,1,0,,,2,,,,,,,,,836.2910639538895,836.2910639538895,836.2910639538895,836.2910639538895,837.7789345288184,837.7789345288184,837.7789345288184,837.7789345288184,837.7956840279512,837.7956840279512,837.7956840279512,837.7956840279512,repeat,letter,lettRpt,d,2.351390530122444,vtsPrac,840.1491712050047,841.6494135009125,,,,,,,,,,,,,,,,,,,,,,,,,,,,44527,2022-11-14_14h08.43.665,vts_reward_expectancy_bt_OFFLINE,2022.2.4,59.93466954056642,
,,,,,,,,,,,,,,,,,,,,,,,,,,,,,,,,,,0,0,0,0,2,0,2,0,,,,,,,,,,,,,,,,,,,,,,,,,,,,0,972,,,846.3191670698579,,846.8193018930033,S,139,circle,0.0003149260301142931,,,,,1,0,,,2,,,,,,,,,842.64608300291,842.64608300291,842.64608300291,842.64608300291,844.1331550159957,844.1331550159957,844.1331550159957,844.1331550159957,844.1499248349573,844.1499248349573,844.1499248349573,844.1499248349573,switch,number,numSwt,j,0.6546950011979789,vtsPrac,844.8194472838659,846.3191670698579,,,,,,,,,,,,,,,,,,,,,,,,,,,,44527,2022-11-14_14h08.43.665,vts_reward_expectancy_bt_OFFLINE,2022.2.4,59.93466954056642,
,,,,,,,,,,,,,,,,,,,,,,,,,,,,,,,,,,0,0,0,0,3,0,3,0,,,,,,,,,,,,,,,,,,,,,,,,,,,,0,972,,,851.8397948648781,,852.3398391290102,F,146,hexagon,0.0005668310914188623,,,,,1,0,,,2,,,,,,,,,847.3162338058464,847.3162338058464,847.3162338058464,847.3162338058464,848.8034985228442,848.8034985228442,848.8034985228442,848.8034985228442,848.8201415028889,848.8201415028889,848.8201415028889,848.8201415028889,switch,letter,lettSwt,d,1.508432004135102,vtsPrac,850.3397835418582,851.8397948648781,,,,,,,,,,,,,,,,,,,,,,,,,,,,44527,2022-11-14_14h08.43.665,vts_reward_expectancy_bt_OFFLINE,2022.2.4,59.93466954056642,
,,,,,,,,,,,,,,,,,,,,,,,,,,,,,,,,,,0,0,0,0,4,0,4,0,,,,,,,,,,,,,,,,,,,,,,,,,,,,0,972,,,857.6605173479766,,858.1606412548572,Y,167,star,0.00038091884925961494,,,,,1,0,,,2,,,,,,,,,852.8361079809256,852.8361079809256,852.8361079809256,852.8361079809256,854.3235739530064,854.3235739530064,854.3235739530064,854.3235739530064,854.340515519958,854.340515519958,854.340515519958,854.340515519958,repeat,letter,lettRpt,f,1.8170808090362698,vtsPrac,856.160968148848,857.6605173479766,,,,,,,,,,,,,,,,,,,,,,,,,,,,44527,2022-11-14_14h08.43.665,vts_reward_expectancy_bt_OFFLINE,2022.2.4,59.93466954056642,
,,,,,,,,,,,,,,,,,,,,,,,,,,,,,,,,,,0,0,0,0,5,0,5,0,,,,,,,,,,,,,,,,,,,,,,,,,,,,0,972,,,862.5641068429686,,863.0642826908734,H,181,triangle,0.0006530990358442068,,,,,1,0,,,2,,,,,,,,,858.6569599709474,858.6569599709474,858.6569599709474,858.6569599709474,860.1461318118963,860.1461318118963,860.1461318118963,860.1461318118963,860.1633126849774,860.1633126849774,860.1633126849774,860.1633126849774,repeat,letter,lettRpt,d,0.8875416768714786,vtsPrac,861.0645972359926,862.5641068429686,,,,,,,,,,,,,,,,,,,,,,,,,,,,44527,2022-11-14_14h08.43.665,vts_reward_expectancy_bt_OFFLINE,2022.2.4,59.93466954056642,
,,,,,,,,,,,,,,,,,,,,,,,,,,,,,,,,,,0,0,0,0,6,0,6,0,,,,,,,,,,,,,,,,,,,,,,,,,,,,0,972,,,868.3179535889067,,868.8181085519027,S,139,star,0.0003803558647632599,,,,,1,0,,,2,,,,,,,,,863.5601866969373,863.5601866969373,863.5601866969373,863.5601866969373,865.0499307899736,865.0499307899736,865.0499307899736,865.0499307899736,865.0666340549942,865.0666340549942,865.0666340549942,865.0666340549942,switch,number,numSwt,j,1.7443740980233997,vtsPrac,866.8184719078708,868.3179535889067,,,,,,,,,,,,,,,,,,,,,,,,,,,,44527,2022-11-14_14h08.43.665,vts_reward_expectancy_bt_OFFLINE,2022.2.4,59.93466954056642,
,,,,,,,,,,,,,,,,,,,,,,,,,,,,,,,,,,0,0,0,0,7,0,7,0,,,,,,,,,,,,,,,,,,,,,,,,,,,,0,972,,,873.0379845688585,,873.5381131428294,F,146,hexagon,0.000371031928807497,,,,,1,0,,,2,,,,,,,,,869.3145450968295,869.3145450968295,869.3145450968295,869.3145450968295,870.8037636859808,870.8037636859808,870.8037636859808,870.8037636859808,870.8206584379077,870.8206584379077,870.8206584379077,870.8206584379077,repeat,number,numRpt,j,0.7042478160001338,vtsPrac,871.5384859780315,873.0379845688585,,,,,,,,,,,,,,,,,,,,,,,,,,,,44527,2022-11-14_14h08.43.665,vts_reward_expectancy_bt_OFFLINE,2022.2.4,59.93466954056642,
,,,,,,,,,,,,,,,,,,,,,,,,,,,,,,,,,,0,0,0,0,8,0,8,0,,,,,,,,,,,,,,,,,,,,,,,,,,,,0,972,,,877.7749073100276,,878.2753003139514,U,132,triangle,0.0005855308845639229,,,,,1,0,,,2,,,,,,,,,874.0346050749067,874.0346050749067,874.0346050749067,874.0346050749067,875.524178934982,875.524178934982,875.524178934982,875.524178934982,875.5405714160297,875.5405714160297,875.5405714160297,875.5405714160297,repeat,number,numRpt,j,0.7325981792528182,vtsPrac,876.2754392540082,877.7749073100276,,,,,,,,,,,,,,,,,,,,,,,,,,,,44527,2022-11-14_14h08.43.665,vts_reward_expectancy_bt_OFFLINE,2022.2.4,59.93466954056642,
,,,,,,,,,,,,,,,,,,,,,,,,,,,,,,,,,,0,0,0,0,9,0,9,0,,,,,,,,,,,,,,,,,,,,,,,,,,,,0,972,,,883.0617737609427,,883.561991430819,Y,167,hexagon,0.0005223299376666546,,,,,1,0,,,2,,,,,,,,,878.771436560899,878.771436560899,878.771436560899,878.771436560899,880.2609552878421,880.2609552878421,880.2609552878421,880.2609552878421,880.2777643089648,880.2777643089648,880.2777643089648,880.2777643089648,repeat,number,numRpt,k,1.2826576950028539,vtsPrac,881.5624610700179,883.0617737609427,,,,,,,,,,,,,,,,,,,,,,,,,,,,44527,2022-11-14_14h08.43.665,vts_reward_expectancy_bt_OFFLINE,2022.2.4,59.93466954056642,
,,,,,,,,,,,,,,,,,,,,,,,,,,,,,,,,,,0,0,0,0,10,0,10,0,,,,,,,,,,,,,,,,,,,,,,,,,,,,0,972,,,887.9484937309753,,888.4489406109788,D,125,hexagon,0.00012590805999934673,,,,,1,0,,,2,,,,,,,,,884.0584089688491,884.0584089688491,884.0584089688491,884.0584089688491,885.5479555539787,885.5479555539787,885.5479555539787,885.5479555539787,885.5646346870344,885.5646346870344,885.5646346870344,885.5646346870344,switch,letter,lettSwt,d,0.8787574300076813,vtsPrac,886.449307407951,887.9484937309753,,,,,,,,,,,,,,,,,,,,,,,,,,,,44527,2022-11-14_14h08.43.665,vts_reward_expectancy_bt_OFFLINE,2022.2.4,59.93466954056642,
,,,,,,,,,,,,,,,,,,,,,,,,,,,,,,,,,,0,0,0,0,11,0,11,0,,,,,,,,,,,,,,,,,,,,,,,,,,,,0,972,,,892.652182462858,,893.1525313828606,W,160,circle,0.0005719061009585857,,,,,1,0,,,2,,,,,,,,,888.9459350958932,888.9459350958932,888.9459350958932,888.9459350958932,890.4350578358863,890.4350578358863,890.4350578358863,890.4350578358863,890.4514820890035,890.4514820890035,890.4514820890035,890.4514820890035,repeat,letter,lettRpt,f,0.6948976470157504,vtsPrac,891.1526606809348,892.652182462858,,,,,,,,,,,,,,,,,,,,,,,,,,,,44527,2022-11-14_14h08.43.665,vts_reward_expectancy_bt_OFFLINE,2022.2.4,59.93466954056642,
,,,,,,,,,,,,,,,,,,,,,,,,,,,,,,,,,,0,0,0,0,12,0,12,0,,,,,,,,,,,,,,,,,,,,,,,,,,,,0,972,,,897.4895728379488,,897.9895039349794,H,132,triangle,0.0005787441041320562,,,,,1,0,,,2,,,,,,,,,893.6490984319244,893.6490984319244,893.6490984319244,893.6490984319244,895.1383218939882,895.1383218939882,895.1383218939882,895.1383218939882,895.1549884518608,895.1549884518608,895.1549884518608,895.1549884518608,switch,number,numSwt,j,0.8171864200849086,vtsPrac,895.9890522039495,897.4895728379488,,,,,,,,,,,,,,,,,,,,,,,,,,,,44527,2022-11-14_14h08.43.665,vts_reward_expectancy_bt_OFFLINE,2022.2.4,59.93466954056642,
,,,,,,,,,,,,,,,,,,,,,,,,,,,,,,,,,,0,0,0,0,13,0,13,0,,,,,,,,,,,,,,,,,,,,,,,,,,,,0,972,,,902.393318249844,,902.893292624969,U,181,circle,-7.521617226302624e-05,,,,,1,0,,,2,,,,,,,,,898.4859386258759,898.4859386258759,898.4859386258759,898.4859386258759,899.97527665901,899.97527665901,899.97527665901,899.97527665901,899.9922162508592,899.9922162508592,899.9922162508592,899.9922162508592,repeat,number,numRpt,k,0.8855869660619646,vtsPrac,900.8927260739729,902.393318249844,,,,,,,,,,,,,,,,,,,,,,,,,,,,44527,2022-11-14_14h08.43.665,vts_reward_expectancy_bt_OFFLINE,2022.2.4,59.93466954056642,
,,,,,,,,,,,,,,,,,,,,,,,,,,,,,,,,,,0,0,0,0,14,0,14,0,,,,,,,,,,,,,,,,,,,,,,,,,,,,0,972,,,907.3966945030261,,907.896924154833,F,174,circle,-0.0006532808765769005,,,,,1,0,,,2,,,,,,,,,903.389188044006,903.389188044006,903.389188044006,903.389188044006,904.8790944148786,904.8790944148786,904.8790944148786,904.8790944148786,904.8958354669157,904.8958354669157,904.8958354669157,904.8958354669157,switch,letter,lettSwt,d,0.9993280009366572,vtsPrac,905.897550891852,907.3966945030261,,,,,,,,,,,,,,,,,,,,,,,,,,,,44527,2022-11-14_14h08.43.665,vts_reward_expectancy_bt_OFFLINE,2022.2.4,59.93466954056642,
,,,,,,,,,,,,,,,,,,,,,,,,,,,,,,,,,,0,0,0,0,15,0,15,0,,,,,,,,,,,,,,,,,,,,,,,,,,,,0,972,,,913.5508185878862,,914.0509103389923,S,125,triangle,0.0002451878972351551,,,,,1,0,,,2,,,,,,,,,908.3927135188133,908.3927135188133,908.3927135188133,908.3927135188133,909.8827486180235,909.8827486180235,909.8827486180235,909.8827486180235,909.8995189720299,909.8995189720299,909.8995189720299,909.8995189720299,repeat,letter,lettRpt,f,2.1500436670612544,vtsPrac,912.0515513468999,913.5508185878862,,,,,,,,,,,,,,,,,,,,,,,,,,,,44527,2022-11-14_14h08.43.665,vts_reward_expectancy_bt_OFFLINE,2022.2.4,59.93466954056642,
,,,,,,,,,,,,,,,,,,,,,,,,,,,,,,,,,,0,0,0,0,16,0,16,0,,,,,,,,,,,,,,,,,,,,,,,,,,,,0,972,,,918.2873785409611,,918.787446726812,B,139,circle,0.0002695538569241762,,,,,1,0,,,2,,,,,,,,,914.5473751579411,914.5473751579411,914.5473751579411,914.5473751579411,916.0365449278615,916.0365449278615,916.0365449278615,916.0365449278615,916.0533120678738,916.0533120678738,916.0533120678738,916.0533120678738,switch,number,numSwt,j,0.7223274251446128,vtsPrac,916.7879462838173,918.2873785409611,,,,,,,,,,,,,,,,,,,,,,,,,,,,44527,2022-11-14_14h08.43.665,vts_reward_expectancy_bt_OFFLINE,2022.2.4,59.93466954056642,
,,,,,,,,,,,,,,,,,,,,,,,,,,,,,,,,,,0,0,0,0,17,0,17,0,,,,,,,,,,,,,,,,,,,,,,,,,,,,0,972,,,923.0909799109213,,923.5912473099306,F,125,triangle,0.0007237929385155439,,,,,1,0,,,2,,,,,,,,,919.2840596598107,919.2840596598107,919.2840596598107,919.2840596598107,920.7732188520022,920.7732188520022,920.7732188520022,920.7732188520022,920.7901414530352,920.7901414530352,920.7901414530352,920.7901414530352,switch,letter,lettSwt,d,0.7893351439852268,vtsPrac,921.5914649169426,923.0909799109213,,,,,,,,,,,,,,,,,,,,,,,,,,,,44527,2022-11-14_14h08.43.665,vts_reward_expectancy_bt_OFFLINE,2022.2.4,59.93466954056642,
,,,,,,,,,,,,,,,,,,,,,,,,,,,,,,,,,,0,0,0,0,18,0,18,0,,,,,,,,,,,,,,,,,,,,,,,,,,,,0,972,,,928.6615204138216,,929.1619552439079,W,132,star,0.0003441909793764353,,,,,1,0,,,2,,,,,,,,,924.0872598348651,924.0872598348651,924.0872598348651,924.0872598348651,925.5770089728758,925.5770089728758,925.5770089728758,925.5770089728758,925.5936857468914,925.5936857468914,925.5936857468914,925.5936857468914,switch,number,numSwt,j,1.564998365007341,vtsPrac,927.1623937978875,928.6615204138216,,,,,,,,,,,,,,,,,,,,,,,,,,,,44527,2022-11-14_14h08.43.665,vts_reward_expectancy_bt_OFFLINE,2022.2.4,59.93466954056642,
,,,,,,,,,,,,,,,,,,,,,,,,,,,,,,,,,,0,0,0,0,19,0,19,0,,,,,,,,,,,,,,,,,,,,,,,,,,,,0,972,,,933.4321475080214,,,H,146,circle,0.0004825249779969454,,,,,1,0,,,2,,,,,,,,,929.658307826845,929.658307826845,929.658307826845,929.658307826845,931.1475331219845,931.1475331219845,931.1475331219845,931.1475331219845,931.1642520348541,931.1642520348541,931.1642520348541,931.1642520348541,repeat,number,numRpt,j,0.7657745119649917,vtsPrac,931.9321717678104,933.4321475080214,,,,,,,,,,,,,,,,,,,,,,,,,,,,44527,2022-11-14_14h08.43.665,vts_reward_expectancy_bt_OFFLINE,2022.2.4,59.93466954056642,
,,,,,,,,,,,,,,,,,,,,,,,,,,,,,,,,,,0,0,0,0,20,0,20,0,,,,,,,,,,,,,,,,,,,,,,,,,,,,0,972,,,938.2688650449272,,938.7692049299367,S,174,triangle,0.0004525301046669483,,,,,1,0,,,2,,,,,,,,,934.4281669489574,934.4281669489574,934.4281669489574,934.4281669489574,935.9177969198208,935.9177969198208,935.9177969198208,935.9177969198208,935.9343895670027,935.9343895670027,935.9343895670027,935.9343895670027,repeat,number,numRpt,k,0.8326916170772165,vtsPrac,936.7695282099303,938.2688650449272,,,,,,,,,,,,,,,,,,,,,,,,,,,,44527,2022-11-14_14h08.43.665,vts_reward_expectancy_bt_OFFLINE,2022.2.4,59.93466954056642,
,,,,,,,,,,,,,,,,,,,,,,,,,,,,,,,,,,0,0,0,0,21,0,21,0,,,,,,,,,,,,,,,,,,,,,,,,,,,,0,972,,,943.1890182869975,,943.6891798709985,F,160,hexagon,0.00034907995723187923,,,,,1,0,,,2,,,,,,,,,939.2651051608846,939.2651051608846,939.2651051608846,939.2651051608846,940.7546282268595,940.7546282268595,940.7546282268595,940.7546282268595,940.771535434993,940.771535434993,940.771535434993,940.771535434993,repeat,number,numRpt,k,0.9009339599870145,vtsPrac,941.6883119998965,943.1890182869975,,,,,,,,,,,,,,,,,,,,,,,,,,,,44527,2022-11-14_14h08.43.665,vts_reward_expectancy_bt_OFFLINE,2022.2.4,59.93466954056642,
,,,,,,,,,,,,,,,,,,,,,,,,,,,,,,,,,,0,0,0,0,22,0,22,0,,,,,,,,,,,,,,,,,,,,,,,,,,,,0,972,,,947.9759723609313,,,B,125,hexagon,-0.00040743593126535416,,,,,1,0,,,2,,,,,,,,,944.185650087893,944.185650087893,944.185650087893,944.185650087893,945.6750964280218,945.6750964280218,945.6750964280218,945.6750964280218,945.6915152620059,945.6915152620059,945.6915152620059,945.6915152620059,switch,letter,lettSwt,d,0.7739603309892118,vtsPrac,946.4765753778629,947.9759723609313,,,,,,,,,,,,,,,,,,,,,,,,,,,,44527,2022-11-14_14h08.43.665,vts_reward_expectancy_bt_OFFLINE,2022.2.4,59.93466954056642,
,,,,,,,,,,,,,,,,,,,,,,,,,,,,,,,,,,0,0,0,0,23,0,23,0,,,,,,,,,,,,,,,,,,,,,,,,,,,,0,972,,,952.6458062899765,,953.146281960886,W,139,circle,0.0004178779199719429,,,,,1,0,,,2,,,,,,,,,948.97212879383,948.97212879383,948.97212879383,948.97212879383,950.461873402819,950.461873402819,950.461873402819,950.461873402819,950.478812249843,950.478812249843,950.478812249843,950.478812249843,switch,number,numSwt,j,0.6672110678628087,vtsPrac,951.1472033739556,952.6458062899765,,,,,,,,,,,,,,,,,,,,,,,,,,,,44527,2022-11-14_14h08.43.665,vts_reward_expectancy_bt_OFFLINE,2022.2.4,59.93466954056642,
