LTriangleOpac,LCircleOpac,LHexagonOpac,LStarOpac,RTriangleOpac,RCircleOpac,RHexagonOpac,RStarOpac,LShape_ID,RShape_ID,training_blocks.thisRepN,training_blocks.thisTrialN,training_blocks.thisN,training_blocks.thisIndex,training.thisRepN,training.thisTrialN,training.thisN,training.thisIndex,task1_prac_redo.thisRepN,task1_prac_redo.thisTrialN,task1_prac_redo.thisN,task1_prac_redo.thisIndex,task1_prac_trials.thisRepN,task1_prac_trials.thisTrialN,task1_prac_trials.thisN,task1_prac_trials.thisIndex,task2_prac_redo.thisRepN,task2_prac_redo.thisTrialN,task2_prac_redo.thisN,task2_prac_redo.thisIndex,task2_praac_trials.thisRepN,task2_praac_trials.thisTrialN,task2_praac_trials.thisN,task2_praac_trials.thisIndex,vts_prac_redo.thisRepN,vts_prac_redo.thisTrialN,vts_prac_redo.thisN,vts_prac_redo.thisIndex,vts_practice_trials.thisRepN,vts_practice_trials.thisTrialN,vts_practice_trials.thisN,vts_practice_trials.thisIndex,trials_norew.thisRepN,trials_norew.thisTrialN,trials_norew.thisN,trials_norew.thisIndex,block.thisRepN,block.thisTrialN,block.thisN,block.thisIndex,trials_rew.thisRepN,trials_rew.thisTrialN,trials_rew.thisN,trials_rew.thisIndex,key_resp.started,key_resp.keys,key_resp.rt,left_circle.started,right_circle.started,left_triangle.started,right_triangle.started,left_star.started,right_star.started,left_hexagon.started,right_hexagon.started,training_fix.started,training_resp.started,training_resp.keys,training_resp.rt,points_trial,points_cumul,trainBlock,training_feedback_txt.started,fix.started,training_feedback_txt.stopped,curr_topStim,curr_bottStim,curr_shape,ISI.started,tgt_fix_prac1.started,top_target_prac1.started,bott_target_prac1.started,target_resp_prac1.started,top_target_prac1.stopped,tgt_fix_prac1.stopped,bott_target_prac1.stopped,target_resp_prac1.stopped,acc,E1,target_resp_prac1.keys,pracBlock,prac_fback_text.started,prac_fback_text.stopped,fix.stopped,target_resp_prac1.rt,tgt_fix_prac2.started,top_target_prac2.started,bott_target_prac2.started,target_resp_prac2.started,target_resp_prac2.keys,target_resp_prac2.rt,star.started,hegagon.started,triangle.started,circle.started,top_target.started,tgt_fix.started,bot_target.started,target_resp.started,star.stopped,hegagon.stopped,triangle.stopped,circle.stopped,alt,task,condition,target_resp.keys,target_resp.rt,rewCond,vts_fback.started,vts_fback.stopped,blockNum,norew_fback.started,norew_fback.stopped,key_resp_2.keys,key_resp_2.rt,rewExpectancy,feedbk_text.started,feedbk_text.stopped,text_3.started,debrief.started,text_3.stopped,button.started,debrief.index,debrief.itemText,debrief.type,debrief.granularity,debrief.font,debrief.markerColor,debrief.response,debrief.rt,button.numClicks,button.timesOn,button.timesOff,participant,date,expName,psychopyVersion,frameRate,
,,,,,,,,,,,,,,,,,,,,,,,,,,,,,,,,,,,,,,,,,,,,,,,,,,,,,,2378.88721953216,space,13.559165512677282,,,,,,,,,,,,,,,,,,,,,,,,,,,,,,,,,,,,,,,,,,,,,,,,,,,,,,,,,,,,,,,,,,,,,,,,,,,,,,,,,,,,,,,,45290,2022-11-15_10h19.57.434,vts_reward_expectancy_bt_OFFLINE,2022.2.4,60.09708564317028,
0,1,0,0,0,0,0,1,circle,star,0,0,0,0,0,0,0,5,,,,,,,,,,,,,,,,,,,,,,,,,,,,,,,,,,,,,,,,2411.6395593800116,2411.6395593800116,2411.6395593800116,2411.6395593800116,2411.6395593800116,2411.6395593800116,2411.6395593800116,2411.6395593800116,2411.6395593800116,2411.6395593800116,l,2.420315239811316,10,10,0,2414.0922100171447,2415.5937769450247,,,,,,,,,,,,,,,,,,,,,,,,,,,,,,,,,,,,,,,,,,,,,,,,,,,,,,,,,,,,,,,,,,,,,,,45290,2022-11-15_10h19.57.434,vts_reward_expectancy_bt_OFFLINE,2022.2.4,60.09708564317028,
0,1,0,0,1,0,0,0,circle,triangle,0,0,0,0,0,1,1,3,,,,,,,,,,,,,,,,,,,,,,,,,,,,,,,,,,,,,,,,2416.0942848599516,2416.0942848599516,2416.0942848599516,2416.0942848599516,2416.0942848599516,2416.0942848599516,2416.0942848599516,2416.0942848599516,2416.0942848599516,2416.0942848599516,l,2.0944847678765655,1,11,0,2418.2132567220833,2419.715012333123,,,,,,,,,,,,,,,,,,,,,,,,,,,,,,,,,,,,,,,,,,,,,,,,,,,,,,,,,,,,,,,,,,,,,,,45290,2022-11-15_10h19.57.434,vts_reward_expectancy_bt_OFFLINE,2022.2.4,60.09708564317028,
0,1,0,0,0,0,1,0,circle,hexagon,0,0,0,0,0,2,2,4,,,,,,,,,,,,,,,,,,,,,,,,,,,,,,,,,,,,,,,,2420.21546296007,2420.21546296007,2420.21546296007,2420.21546296007,2420.21546296007,2420.21546296007,2420.21546296007,2420.21546296007,2420.21546296007,2420.21546296007,l,1.3145207779016346,1,12,0,2421.5504279651213,2423.051958012162,,,,,,,,,,,,,,,,,,,,,,,,,,,,,,,,,,,,,,,,,,,,,,,,,,,,,,,,,,,,,,,,,,,,,,,45290,2022-11-15_10h19.57.434,vts_reward_expectancy_bt_OFFLINE,2022.2.4,60.09708564317028,
0,0,1,0,0,0,0,1,hexagon,star,0,0,0,0,0,3,3,8,,,,,,,,,,,,,,,,,,,,,,,,,,,,,,,,,,,,,,,,2423.5525669031776,2423.5525669031776,2423.5525669031776,2423.5525669031776,2423.5525669031776,2423.5525669031776,2423.5525669031776,2423.5525669031776,2423.5525669031776,2423.5525669031776,l,0.8462327399756759,1,13,0,2424.420257532969,2425.9217802111525,,,,,,,,,,,,,,,,,,,,,,,,,,,,,,,,,,,,,,,,,,,,,,,,,,,,,,,,,,,,,,,,,,,,,,,45290,2022-11-15_10h19.57.434,vts_reward_expectancy_bt_OFFLINE,2022.2.4,60.09708564317028,
0,0,0,1,0,0,1,0,star,hexagon,0,0,0,0,0,4,4,11,,,,,,,,,,,,,,,,,,,,,,,,,,,,,,,,,,,,,,,,2426.4225267770234,2426.4225267770234,2426.4225267770234,2426.4225267770234,2426.4225267770234,2426.4225267770234,2426.4225267770234,2426.4225267770234,2426.4225267770234,2426.4225267770234,a,1.1506481259129941,10,23,0,2427.590345225064,2429.0921235480346,2429.0921235480346,,,,,,,,,,,,,,,,,,,,,,,,,,,,,,,,,,,,,,,,,,,,,,,,,,,,,,,,,,,,,,,,,,,,,,45290,2022-11-15_10h19.57.434,vts_reward_expectancy_bt_OFFLINE,2022.2.4,60.09708564317028,
1,0,0,0,0,0,1,0,triangle,hexagon,0,0,0,0,0,5,5,1,,,,,,,,,,,,,,,,,,,,,,,,,,,,,,,,,,,,,,,,2429.5925488211215,2429.5925488211215,2429.5925488211215,2429.5925488211215,2429.5925488211215,2429.5925488211215,2429.5925488211215,2429.5925488211215,2429.5925488211215,2429.5925488211215,l,1.7264960918109864,10,33,0,2431.3443885580637,2432.846019433113,,,,,,,,,,,,,,,,,,,,,,,,,,,,,,,,,,,,,,,,,,,,,,,,,,,,,,,,,,,,,,,,,,,,,,,45290,2022-11-15_10h19.57.434,vts_reward_expectancy_bt_OFFLINE,2022.2.4,60.09708564317028,
1,0,0,0,0,0,0,1,triangle,star,0,0,0,0,0,6,6,2,,,,,,,,,,,,,,,,,,,,,,,,,,,,,,,,,,,,,,,,2433.346726308111,2433.346726308111,2433.346726308111,2433.346726308111,2433.346726308111,2433.346726308111,2433.346726308111,2433.346726308111,2433.346726308111,2433.346726308111,l,0.5256736937444657,1,34,0,2433.8973928471096,2435.3988629081286,,,,,,,,,,,,,,,,,,,,,,,,,,,,,,,,,,,,,,,,,,,,,,,,,,,,,,,,,,,,,,,,,,,,,,,45290,2022-11-15_10h19.57.434,vts_reward_expectancy_bt_OFFLINE,2022.2.4,60.09708564317028,
0,0,0,1,1,0,0,0,star,triangle,0,0,0,0,0,7,7,9,,,,,,,,,,,,,,,,,,,,,,,,,,,,,,,,,,,,,,,,2435.8993444279768,2435.8993444279768,2435.8993444279768,2435.8993444279768,2435.8993444279768,2435.8993444279768,2435.8993444279768,2435.8993444279768,2435.8993444279768,2435.8993444279768,a,0.6852154349908233,1,35,0,2436.6169322719797,2438.118832980981,,,,,,,,,,,,,,,,,,,,,,,,,,,,,,,,,,,,,,,,,,,,,,,,,,,,,,,,,,,,,,,,,,,,,,,45290,2022-11-15_10h19.57.434,vts_reward_expectancy_bt_OFFLINE,2022.2.4,60.09708564317028,
0,0,1,0,0,1,0,0,hexagon,circle,0,0,0,0,0,8,8,7,,,,,,,,,,,,,,,,,,,,,,,,,,,,,,,,,,,,,,,,2438.6193797581363,2438.6193797581363,2438.6193797581363,2438.6193797581363,2438.6193797581363,2438.6193797581363,2438.6193797581363,2438.6193797581363,2438.6193797581363,2438.6193797581363,a,1.1699597616679966,1,36,0,2439.820629943162,2441.3221150760073,,,,,,,,,,,,,,,,,,,,,,,,,,,,,,,,,,,,,,,,,,,,,,,,,,,,,,,,,,,,,,,,,,,,,,,45290,2022-11-15_10h19.57.434,vts_reward_expectancy_bt_OFFLINE,2022.2.4,60.09708564317028,
0,0,1,0,1,0,0,0,hexagon,triangle,0,0,0,0,0,9,9,6,,,,,,,,,,,,,,,,,,,,,,,,,,,,,,,,,,,,,,,,2441.8227297060657,2441.8227297060657,2441.8227297060657,2441.8227297060657,2441.8227297060657,2441.8227297060657,2441.8227297060657,2441.8227297060657,2441.8227297060657,2441.8227297060657,l,1.1517007849179208,1,37,0,2442.9906513681635,2444.492452040082,2444.492452040082,,,,,,,,,,,,,,,,,,,,,,,,,,,,,,,,,,,,,,,,,,,,,,,,,,,,,,,,,,,,,,,,,,,,,,45290,2022-11-15_10h19.57.434,vts_reward_expectancy_bt_OFFLINE,2022.2.4,60.09708564317028,
1,0,0,0,0,1,0,0,triangle,circle,0,0,0,0,0,10,10,0,,,,,,,,,,,,,,,,,,,,,,,,,,,,,,,,,,,,,,,,2444.9928303300403,2444.9928303300403,2444.9928303300403,2444.9928303300403,2444.9928303300403,2444.9928303300403,2444.9928303300403,2444.9928303300403,2444.9928303300403,2444.9928303300403,l,0.9750467108096927,1,38,0,2445.9941357111093,2447.4958006811794,,,,,,,,,,,,,,,,,,,,,,,,,,,,,,,,,,,,,,,,,,,,,,,,,,,,,,,,,,,,,,,,,,,,,,,45290,2022-11-15_10h19.57.434,vts_reward_expectancy_bt_OFFLINE,2022.2.4,60.09708564317028,
0,0,0,1,0,1,0,0,star ,circle,0,0,0,0,0,11,11,10,,,,,,,,,,,,,,,,,,,,,,,,,,,,,,,,,,,,,,,,2447.996132702101,2447.996132702101,2447.996132702101,2447.996132702101,2447.996132702101,2447.996132702101,2447.996132702101,2447.996132702101,2447.996132702101,2447.996132702101,a,0.5819763778708875,1,39,0,2448.596834832104,2450.098618295975,,,,,,,,,,,,,,,,,,,,,,,,,,,,,,,,,,,,,,,,,,,,,,,,,,,,,,,,,,,,,,,,,,,,,,,45290,2022-11-15_10h19.57.434,vts_reward_expectancy_bt_OFFLINE,2022.2.4,60.09708564317028,
1,0,0,0,0,0,0,1,triangle,star,0,0,0,0,1,0,12,2,,,,,,,,,,,,,,,,,,,,,,,,,,,,,,,,,,,,,,,,2450.5991091670003,2450.5991091670003,2450.5991091670003,2450.5991091670003,2450.5991091670003,2450.5991091670003,2450.5991091670003,2450.5991091670003,2450.5991091670003,2450.5991091670003,l,0.7122038376983255,1,40,0,2451.3331823230255,2452.835117142182,,,,,,,,,,,,,,,,,,,,,,,,,,,,,,,,,,,,,,,,,,,,,,,,,,,,,,,,,,,,,,,,,,,,,,,45290,2022-11-15_10h19.57.434,vts_reward_expectancy_bt_OFFLINE,2022.2.4,60.09708564317028,
1,0,0,0,0,1,0,0,triangle,circle,0,0,0,0,1,1,13,0,,,,,,,,,,,,,,,,,,,,,,,,,,,,,,,,,,,,,,,,2453.335425791098,2453.335425791098,2453.335425791098,2453.335425791098,2453.335425791098,2453.335425791098,2453.335425791098,2453.335425791098,2453.335425791098,2453.335425791098,a,1.8905763749498874,1,41,0,2455.254074517172,2456.7557759571355,,,,,,,,,,,,,,,,,,,,,,,,,,,,,,,,,,,,,,,,,,,,,,,,,,,,,,,,,,,,,,,,,,,,,,,45290,2022-11-15_10h19.57.434,vts_reward_expectancy_bt_OFFLINE,2022.2.4,60.09708564317028,
0,0,1,0,0,0,0,1,hexagon,star,0,0,0,0,1,2,14,8,,,,,,,,,,,,,,,,,,,,,,,,,,,,,,,,,,,,,,,,2457.2565246000886,2457.2565246000886,2457.2565246000886,2457.2565246000886,2457.2565246000886,2457.2565246000886,2457.2565246000886,2457.2565246000886,2457.2565246000886,2457.2565246000886,l,1.3019224959425628,1,42,0,2458.5913130100816,2460.0929294719826,,,,,,,,,,,,,,,,,,,,,,,,,,,,,,,,,,,,,,,,,,,,,,,,,,,,,,,,,,,,,,,,,,,,,,,45290,2022-11-15_10h19.57.434,vts_reward_expectancy_bt_OFFLINE,2022.2.4,60.09708564317028,
0,0,0,1,1,0,0,0,star,triangle,0,0,0,0,1,3,15,9,,,,,,,,,,,,,,,,,,,,,,,,,,,,,,,,,,,,,,,,2460.5934881200083,2460.5934881200083,2460.5934881200083,2460.5934881200083,2460.5934881200083,2460.5934881200083,2460.5934881200083,2460.5934881200083,2460.5934881200083,2460.5934881200083,l,1.2702967158984393,10,52,0,2461.894885847112,2463.3963933160994,,,,,,,,,,,,,,,,,,,,,,,,,,,,,,,,,,,,,,,,,,,,,,,,,,,,,,,,,,,,,,,,,,,,,,,45290,2022-11-15_10h19.57.434,vts_reward_expectancy_bt_OFFLINE,2022.2.4,60.09708564317028,
0,0,0,1,0,1,0,0,star ,circle,0,0,0,0,1,4,16,10,,,,,,,,,,,,,,,,,,,,,,,,,,,,,,,,,,,,,,,,2463.8968354619574,2463.8968354619574,2463.8968354619574,2463.8968354619574,2463.8968354619574,2463.8968354619574,2463.8968354619574,2463.8968354619574,2463.8968354619574,2463.8968354619574,a,1.196509825764224,10,62,0,2465.1150229610503,2466.6167821499985,,,,,,,,,,,,,,,,,,,,,,,,,,,,,,,,,,,,,,,,,,,,,,,,,,,,,,,,,,,,,,,,,,,,,,,45290,2022-11-15_10h19.57.434,vts_reward_expectancy_bt_OFFLINE,2022.2.4,60.09708564317028,
0,0,1,0,1,0,0,0,hexagon,triangle,0,0,0,0,1,5,17,6,,,,,,,,,,,,,,,,,,,,,,,,,,,,,,,,,,,,,,,,2467.117264626082,2467.117264626082,2467.117264626082,2467.117264626082,2467.117264626082,2467.117264626082,2467.117264626082,2467.117264626082,2467.117264626082,2467.117264626082,l,1.8240037828218192,1,63,0,2468.9695446281694,2470.4711920751724,,,,,,,,,,,,,,,,,,,,,,,,,,,,,,,,,,,,,,,,,,,,,,,,,,,,,,,,,,,,,,,,,,,,,,,45290,2022-11-15_10h19.57.434,vts_reward_expectancy_bt_OFFLINE,2022.2.4,60.09708564317028,
0,1,0,0,0,0,1,0,circle,hexagon,0,0,0,0,1,6,18,4,,,,,,,,,,,,,,,,,,,,,,,,,,,,,,,,,,,,,,,,2470.971524550114,2470.971524550114,2470.971524550114,2470.971524550114,2470.971524550114,2470.971524550114,2470.971524550114,2470.971524550114,2470.971524550114,2470.971524550114,l,1.4024620589334518,10,73,0,2472.4065892831422,2473.9082666181494,,,,,,,,,,,,,,,,,,,,,,,,,,,,,,,,,,,,,,,,,,,,,,,,,,,,,,,,,,,,,,,,,,,,,,,45290,2022-11-15_10h19.57.434,vts_reward_expectancy_bt_OFFLINE,2022.2.4,60.09708564317028,
0,0,0,1,0,0,1,0,star,hexagon,0,0,0,0,1,7,19,11,,,,,,,,,,,,,,,,,,,,,,,,,,,,,,,,,,,,,,,,2474.4085937510245,2474.4085937510245,2474.4085937510245,2474.4085937510245,2474.4085937510245,2474.4085937510245,2474.4085937510245,2474.4085937510245,2474.4085937510245,2474.4085937510245,l,1.237220199778676,1,74,0,2475.676870525116,2477.178468452068,,,,,,,,,,,,,,,,,,,,,,,,,,,,,,,,,,,,,,,,,,,,,,,,,,,,,,,,,,,,,,,,,,,,,,,45290,2022-11-15_10h19.57.434,vts_reward_expectancy_bt_OFFLINE,2022.2.4,60.09708564317028,
0,0,1,0,0,1,0,0,hexagon,circle,0,0,0,0,1,8,20,7,,,,,,,,,,,,,,,,,,,,,,,,,,,,,,,,,,,,,,,,2477.6788773571607,2477.6788773571607,2477.6788773571607,2477.6788773571607,2477.6788773571607,2477.6788773571607,2477.6788773571607,2477.6788773571607,2477.6788773571607,2477.6788773571607,a,0.6449208077974617,1,75,0,2478.34623462311,2479.8481407279614,,,,,,,,,,,,,,,,,,,,,,,,,,,,,,,,,,,,,,,,,,,,,,,,,,,,,,,,,,,,,,,,,,,,,,,45290,2022-11-15_10h19.57.434,vts_reward_expectancy_bt_OFFLINE,2022.2.4,60.09708564317028,
0,1,0,0,0,0,0,1,circle,star,0,0,0,0,1,9,21,5,,,,,,,,,,,,,,,,,,,,,,,,,,,,,,,,,,,,,,,,2480.348421425093,2480.348421425093,2480.348421425093,2480.348421425093,2480.348421425093,2480.348421425093,2480.348421425093,2480.348421425093,2480.348421425093,2480.348421425093,l,0.699121740879491,10,85,0,2481.0659039011225,2482.5677909310907,,,,,,,,,,,,,,,,,,,,,,,,,,,,,,,,,,,,,,,,,,,,,,,,,,,,,,,,,,,,,,,,,,,,,,,45290,2022-11-15_10h19.57.434,vts_reward_expectancy_bt_OFFLINE,2022.2.4,60.09708564317028,
1,0,0,0,0,0,1,0,triangle,hexagon,0,0,0,0,1,10,22,1,,,,,,,,,,,,,,,,,,,,,,,,,,,,,,,,,,,,,,,,2483.0682138809934,2483.0682138809934,2483.0682138809934,2483.0682138809934,2483.0682138809934,2483.0682138809934,2483.0682138809934,2483.0682138809934,2483.0682138809934,2483.0682138809934,a,1.4437419888563454,1,86,0,2484.536616069963,2486.0381564709824,,,,,,,,,,,,,,,,,,,,,,,,,,,,,,,,,,,,,,,,,,,,,,,,,,,,,,,,,,,,,,,,,,,,,,,45290,2022-11-15_10h19.57.434,vts_reward_expectancy_bt_OFFLINE,2022.2.4,60.09708564317028,
0,1,0,0,1,0,0,0,circle,triangle,0,0,0,0,1,11,23,3,,,,,,,,,,,,,,,,,,,,,,,,,,,,,,,,,,,,,,,,2486.5387052169535,2486.5387052169535,2486.5387052169535,2486.5387052169535,2486.5387052169535,2486.5387052169535,2486.5387052169535,2486.5387052169535,2486.5387052169535,2486.5387052169535,l,1.1115628858096898,10,96,0,2487.6731906421483,2489.174880663166,,,,,,,,,,,,,,,,,,,,,,,,,,,,,,,,,,,,,,,,,,,,,,,,,,,,,,,,,,,,,,,,,,,,,,,45290,2022-11-15_10h19.57.434,vts_reward_expectancy_bt_OFFLINE,2022.2.4,60.09708564317028,
0,0,0,1,0,1,0,0,star ,circle,0,0,0,0,2,0,24,10,,,,,,,,,,,,,,,,,,,,,,,,,,,,,,,,,,,,,,,,2489.6753586230334,2489.6753586230334,2489.6753586230334,2489.6753586230334,2489.6753586230334,2489.6753586230334,2489.6753586230334,2489.6753586230334,2489.6753586230334,2489.6753586230334,a,0.9915436808951199,10,106,0,2490.6930498699658,2492.194703110028,,,,,,,,,,,,,,,,,,,,,,,,,,,,,,,,,,,,,,,,,,,,,,,,,,,,,,,,,,,,,,,,,,,,,,,45290,2022-11-15_10h19.57.434,vts_reward_expectancy_bt_OFFLINE,2022.2.4,60.09708564317028,
0,1,0,0,1,0,0,0,circle,triangle,0,0,0,0,2,1,25,3,,,,,,,,,,,,,,,,,,,,,,,,,,,,,,,,,,,,,,,,2492.695325540146,2492.695325540146,2492.695325540146,2492.695325540146,2492.695325540146,2492.695325540146,2492.695325540146,2492.695325540146,2492.695325540146,2492.695325540146,l,1.2553802237380296,10,116,0,2493.980546188075,2495.4818883070257,,,,,,,,,,,,,,,,,,,,,,,,,,,,,,,,,,,,,,,,,,,,,,,,,,,,,,,,,,,,,,,,,,,,,,,45290,2022-11-15_10h19.57.434,vts_reward_expectancy_bt_OFFLINE,2022.2.4,60.09708564317028,
0,0,0,1,0,0,1,0,star,hexagon,0,0,0,0,2,2,26,11,,,,,,,,,,,,,,,,,,,,,,,,,,,,,,,,,,,,,,,,2495.982545075007,2495.982545075007,2495.982545075007,2495.982545075007,2495.982545075007,2495.982545075007,2495.982545075007,2495.982545075007,2495.982545075007,2495.982545075007,l,1.0523104609455913,10,126,0,2497.0670847981237,2498.5685627621133,,,,,,,,,,,,,,,,,,,,,,,,,,,,,,,,,,,,,,,,,,,,,,,,,,,,,,,,,,,,,,,,,,,,,,,45290,2022-11-15_10h19.57.434,vts_reward_expectancy_bt_OFFLINE,2022.2.4,60.09708564317028,
1,0,0,0,0,0,1,0,triangle,hexagon,0,0,0,0,2,3,27,1,,,,,,,,,,,,,,,,,,,,,,,,,,,,,,,,,,,,,,,,2499.0694159870036,2499.0694159870036,2499.0694159870036,2499.0694159870036,2499.0694159870036,2499.0694159870036,2499.0694159870036,2499.0694159870036,2499.0694159870036,2499.0694159870036,l,1.2274575387127697,1,127,0,2500.3207304421812,2501.8224003380165,,,,,,,,,,,,,,,,,,,,,,,,,,,,,,,,,,,,,,,,,,,,,,,,,,,,,,,,,,,,,,,,,,,,,,,45290,2022-11-15_10h19.57.434,vts_reward_expectancy_bt_OFFLINE,2022.2.4,60.09708564317028,
1,0,0,0,0,0,0,1,triangle,star,0,0,0,0,2,4,28,2,,,,,,,,,,,,,,,,,,,,,,,,,,,,,,,,,,,,,,,,2502.3230092821177,2502.3230092821177,2502.3230092821177,2502.3230092821177,2502.3230092821177,2502.3230092821177,2502.3230092821177,2502.3230092821177,2502.3230092821177,2502.3230092821177,a,1.8097227760590613,10,137,0,2504.1581272881012,2505.6597957310732,,,,,,,,,,,,,,,,,,,,,,,,,,,,,,,,,,,,,,,,,,,,,,,,,,,,,,,,,,,,,,,,,,,,,,,45290,2022-11-15_10h19.57.434,vts_reward_expectancy_bt_OFFLINE,2022.2.4,60.09708564317028,
0,0,1,0,1,0,0,0,hexagon,triangle,0,0,0,0,2,5,29,6,,,,,,,,,,,,,,,,,,,,,,,,,,,,,,,,,,,,,,,,2506.1604689580854,2506.1604689580854,2506.1604689580854,2506.1604689580854,2506.1604689580854,2506.1604689580854,2506.1604689580854,2506.1604689580854,2506.1604689580854,2506.1604689580854,a,1.202459956984967,10,147,0,2507.3950542211533,2508.896634925157,,,,,,,,,,,,,,,,,,,,,,,,,,,,,,,,,,,,,,,,,,,,,,,,,,,,,,,,,,,,,,,,,,,,,,,45290,2022-11-15_10h19.57.434,vts_reward_expectancy_bt_OFFLINE,2022.2.4,60.09708564317028,
0,1,0,0,0,0,0,1,circle,star,0,0,0,0,2,6,30,5,,,,,,,,,,,,,,,,,,,,,,,,,,,,,,,,,,,,,,,,2509.397276885109,2509.397276885109,2509.397276885109,2509.397276885109,2509.397276885109,2509.397276885109,2509.397276885109,2509.397276885109,2509.397276885109,2509.397276885109,l,1.0823070779442787,1,148,0,2510.4986630100757,2512.000136655988,,,,,,,,,,,,,,,,,,,,,,,,,,,,,,,,,,,,,,,,,,,,,,,,,,,,,,,,,,,,,,,,,,,,,,,45290,2022-11-15_10h19.57.434,vts_reward_expectancy_bt_OFFLINE,2022.2.4,60.09708564317028,
1,0,0,0,0,1,0,0,triangle,circle,0,0,0,0,2,7,31,0,,,,,,,,,,,,,,,,,,,,,,,,,,,,,,,,,,,,,,,,2512.5007301210426,2512.5007301210426,2512.5007301210426,2512.5007301210426,2512.5007301210426,2512.5007301210426,2512.5007301210426,2512.5007301210426,2512.5007301210426,2512.5007301210426,a,0.8251489468384534,10,158,0,2513.3516559260897,2514.8532236160245,,,,,,,,,,,,,,,,,,,,,,,,,,,,,,,,,,,,,,,,,,,,,,,,,,,,,,,,,,,,,,,,,,,,,,,45290,2022-11-15_10h19.57.434,vts_reward_expectancy_bt_OFFLINE,2022.2.4,60.09708564317028,
0,0,1,0,0,0,0,1,hexagon,star,0,0,0,0,2,8,32,8,,,,,,,,,,,,,,,,,,,,,,,,,,,,,,,,,,,,,,,,2515.3537982411217,2515.3537982411217,2515.3537982411217,2515.3537982411217,2515.3537982411217,2515.3537982411217,2515.3537982411217,2515.3537982411217,2515.3537982411217,2515.3537982411217,a,1.087861703010276,10,168,0,2516.4718370409682,2517.973297971068,,,,,,,,,,,,,,,,,,,,,,,,,,,,,,,,,,,,,,,,,,,,,,,,,,,,,,,,,,,,,,,,,,,,,,,45290,2022-11-15_10h19.57.434,vts_reward_expectancy_bt_OFFLINE,2022.2.4,60.09708564317028,
0,1,0,0,0,0,1,0,circle,hexagon,0,0,0,0,2,9,33,4,,,,,,,,,,,,,,,,,,,,,,,,,,,,,,,,,,,,,,,,2518.47386797308,2518.47386797308,2518.47386797308,2518.47386797308,2518.47386797308,2518.47386797308,2518.47386797308,2518.47386797308,2518.47386797308,2518.47386797308,l,0.8367204538080841,10,178,0,2519.341488182079,2520.8431419511326,,,,,,,,,,,,,,,,,,,,,,,,,,,,,,,,,,,,,,,,,,,,,,,,,,,,,,,,,,,,,,,,,,,,,,,45290,2022-11-15_10h19.57.434,vts_reward_expectancy_bt_OFFLINE,2022.2.4,60.09708564317028,
0,0,0,1,1,0,0,0,star,triangle,0,0,0,0,2,10,34,9,,,,,,,,,,,,,,,,,,,,,,,,,,,,,,,,,,,,,,,,2521.3437366511207,2521.3437366511207,2521.3437366511207,2521.3437366511207,2521.3437366511207,2521.3437366511207,2521.3437366511207,2521.3437366511207,2521.3437366511207,2521.3437366511207,l,0.8138366700150073,1,179,0,2522.17797469208,2523.679625177989,,,,,,,,,,,,,,,,,,,,,,,,,,,,,,,,,,,,,,,,,,,,,,,,,,,,,,,,,,,,,,,,,,,,,,,45290,2022-11-15_10h19.57.434,vts_reward_expectancy_bt_OFFLINE,2022.2.4,60.09708564317028,
0,0,1,0,0,1,0,0,hexagon,circle,0,0,0,0,2,11,35,7,,,,,,,,,,,,,,,,,,,,,,,,,,,,,,,,,,,,,,,,2524.180231155129,2524.180231155129,2524.180231155129,2524.180231155129,2524.180231155129,2524.180231155129,2524.180231155129,2524.180231155129,2524.180231155129,2524.180231155129,a,0.6676699488889426,10,189,0,2524.864179720171,2526.3658864500467,2526.3658864500467,,,,,,,,,,,,,,,,,,,,,,,,,,,,,,,,,,,,,,,,,,,,,,,,,,,,,,,,,,,,,,,,,,,,,,45290,2022-11-15_10h19.57.434,vts_reward_expectancy_bt_OFFLINE,2022.2.4,60.09708564317028,
0,0,0,1,0,0,1,0,star,hexagon,0,0,0,0,3,0,36,11,,,,,,,,,,,,,,,,,,,,,,,,,,,,,,,,,,,,,,,,2526.8664228820708,2526.8664228820708,2526.8664228820708,2526.8664228820708,2526.8664228820708,2526.8664228820708,2526.8664228820708,2526.8664228820708,2526.8664228820708,2526.8664228820708,l,1.208842501975596,1,190,0,2528.1012380281463,2529.6027710700873,,,,,,,,,,,,,,,,,,,,,,,,,,,,,,,,,,,,,,,,,,,,,,,,,,,,,,,,,,,,,,,,,,,,,,,45290,2022-11-15_10h19.57.434,vts_reward_expectancy_bt_OFFLINE,2022.2.4,60.09708564317028,
0,0,1,0,0,0,0,1,hexagon,star,0,0,0,0,3,1,37,8,,,,,,,,,,,,,,,,,,,,,,,,,,,,,,,,,,,,,,,,2530.1032702010125,2530.1032702010125,2530.1032702010125,2530.1032702010125,2530.1032702010125,2530.1032702010125,2530.1032702010125,2530.1032702010125,2530.1032702010125,2530.1032702010125,l,0.671419468941167,10,200,0,2530.804063207004,2532.305854105158,,,,,,,,,,,,,,,,,,,,,,,,,,,,,,,,,,,,,,,,,,,,,,,,,,,,,,,,,,,,,,,,,,,,,,,45290,2022-11-15_10h19.57.434,vts_reward_expectancy_bt_OFFLINE,2022.2.4,60.09708564317028,
0,0,1,0,0,1,0,0,hexagon,circle,0,0,0,0,3,2,38,7,,,,,,,,,,,,,,,,,,,,,,,,,,,,,,,,,,,,,,,,2532.806419867091,2532.806419867091,2532.806419867091,2532.806419867091,2532.806419867091,2532.806419867091,2532.806419867091,2532.806419867091,2532.806419867091,2532.806419867091,a,0.9610244708601385,10,210,0,2533.7909564899746,2535.292516625952,,,,,,,,,,,,,,,,,,,,,,,,,,,,,,,,,,,,,,,,,,,,,,,,,,,,,,,,,,,,,,,,,,,,,,,45290,2022-11-15_10h19.57.434,vts_reward_expectancy_bt_OFFLINE,2022.2.4,60.09708564317028,
0,1,0,0,0,0,0,1,circle,star,0,0,0,0,3,3,39,5,,,,,,,,,,,,,,,,,,,,,,,,,,,,,,,,,,,,,,,,2535.7931298960466,2535.7931298960466,2535.7931298960466,2535.7931298960466,2535.7931298960466,2535.7931298960466,2535.7931298960466,2535.7931298960466,2535.7931298960466,2535.7931298960466,l,0.8211007388308644,10,220,0,2536.6438483311795,2538.1454257280566,,,,,,,,,,,,,,,,,,,,,,,,,,,,,,,,,,,,,,,,,,,,,,,,,,,,,,,,,,,,,,,,,,,,,,,45290,2022-11-15_10h19.57.434,vts_reward_expectancy_bt_OFFLINE,2022.2.4,60.09708564317028,
0,0,0,1,1,0,0,0,star,triangle,0,0,0,0,3,4,40,9,,,,,,,,,,,,,,,,,,,,,,,,,,,,,,,,,,,,,,,,2538.6460135101806,2538.6460135101806,2538.6460135101806,2538.6460135101806,2538.6460135101806,2538.6460135101806,2538.6460135101806,2538.6460135101806,2538.6460135101806,2538.6460135101806,l,0.9609672960359603,1,221,0,2539.630458223168,2541.1322072120383,,,,,,,,,,,,,,,,,,,,,,,,,,,,,,,,,,,,,,,,,,,,,,,,,,,,,,,,,,,,,,,,,,,,,,,45290,2022-11-15_10h19.57.434,vts_reward_expectancy_bt_OFFLINE,2022.2.4,60.09708564317028,
0,0,0,1,0,1,0,0,star ,circle,0,0,0,0,3,5,41,10,,,,,,,,,,,,,,,,,,,,,,,,,,,,,,,,,,,,,,,,2541.63266354613,2541.63266354613,2541.63266354613,2541.63266354613,2541.63266354613,2541.63266354613,2541.63266354613,2541.63266354613,2541.63266354613,2541.63266354613,a,0.5280247249174863,1,222,0,2542.18331507314,2543.6850723780226,,,,,,,,,,,,,,,,,,,,,,,,,,,,,,,,,,,,,,,,,,,,,,,,,,,,,,,,,,,,,,,,,,,,,,,45290,2022-11-15_10h19.57.434,vts_reward_expectancy_bt_OFFLINE,2022.2.4,60.09708564317028,
0,1,0,0,0,0,1,0,circle,hexagon,0,0,0,0,3,6,42,4,,,,,,,,,,,,,,,,,,,,,,,,,,,,,,,,,,,,,,,,2544.185583046172,2544.185583046172,2544.185583046172,2544.185583046172,2544.185583046172,2544.185583046172,2544.185583046172,2544.185583046172,2544.185583046172,2544.185583046172,l,0.733046768931672,1,223,0,2544.9364447321277,2546.438152977964,,,,,,,,,,,,,,,,,,,,,,,,,,,,,,,,,,,,,,,,,,,,,,,,,,,,,,,,,,,,,,,,,,,,,,,45290,2022-11-15_10h19.57.434,vts_reward_expectancy_bt_OFFLINE,2022.2.4,60.09708564317028,
1,0,0,0,0,0,1,0,triangle,hexagon,0,0,0,0,3,7,43,1,,,,,,,,,,,,,,,,,,,,,,,,,,,,,,,,,,,,,,,,2546.9387631081045,2546.9387631081045,2546.9387631081045,2546.9387631081045,2546.9387631081045,2546.9387631081045,2546.9387631081045,2546.9387631081045,2546.9387631081045,2546.9387631081045,l,0.9848941247910261,10,233,0,2547.9564911380876,2549.4581544061657,,,,,,,,,,,,,,,,,,,,,,,,,,,,,,,,,,,,,,,,,,,,,,,,,,,,,,,,,,,,,,,,,,,,,,,45290,2022-11-15_10h19.57.434,vts_reward_expectancy_bt_OFFLINE,2022.2.4,60.09708564317028,
1,0,0,0,0,1,0,0,triangle,circle,0,0,0,0,3,8,44,0,,,,,,,,,,,,,,,,,,,,,,,,,,,,,,,,,,,,,,,,2549.9586920549627,2549.9586920549627,2549.9586920549627,2549.9586920549627,2549.9586920549627,2549.9586920549627,2549.9586920549627,2549.9586920549627,2549.9586920549627,2549.9586920549627,a,0.819966864772141,10,243,0,2550.8095524460077,2552.311154835159,,,,,,,,,,,,,,,,,,,,,,,,,,,,,,,,,,,,,,,,,,,,,,,,,,,,,,,,,,,,,,,,,,,,,,,45290,2022-11-15_10h19.57.434,vts_reward_expectancy_bt_OFFLINE,2022.2.4,60.09708564317028,
1,0,0,0,0,0,0,1,triangle,star,0,0,0,0,3,9,45,2,,,,,,,,,,,,,,,,,,,,,,,,,,,,,,,,,,,,,,,,2552.811703327112,2552.811703327112,2552.811703327112,2552.811703327112,2552.811703327112,2552.811703327112,2552.811703327112,2552.811703327112,2552.811703327112,2552.811703327112,l,0.8252933018375188,10,253,0,2553.66269500996,2555.1644362171646,,,,,,,,,,,,,,,,,,,,,,,,,,,,,,,,,,,,,,,,,,,,,,,,,,,,,,,,,,,,,,,,,,,,,,,45290,2022-11-15_10h19.57.434,vts_reward_expectancy_bt_OFFLINE,2022.2.4,60.09708564317028,
0,1,0,0,1,0,0,0,circle,triangle,0,0,0,0,3,10,46,3,,,,,,,,,,,,,,,,,,,,,,,,,,,,,,,,,,,,,,,,2555.6651421319693,2555.6651421319693,2555.6651421319693,2555.6651421319693,2555.6651421319693,2555.6651421319693,2555.6651421319693,2555.6651421319693,2555.6651421319693,2555.6651421319693,l,1.1013419169466943,1,254,0,2556.78292680718,2558.284476425033,2558.284476425033,,,,,,,,,,,,,,,,,,,,,,,,,,,,,,,,,,,,,,,,,,,,,,,,,,,,,,,,,,,,,,,,,,,,,,45290,2022-11-15_10h19.57.434,vts_reward_expectancy_bt_OFFLINE,2022.2.4,60.09708564317028,
0,0,1,0,1,0,0,0,hexagon,triangle,0,0,0,0,3,11,47,6,,,,,,,,,,,,,,,,,,,,,,,,,,,,,,,,,,,,,,,,2558.7852538560983,2558.7852538560983,2558.7852538560983,2558.7852538560983,2558.7852538560983,2558.7852538560983,2558.7852538560983,2558.7852538560983,2558.7852538560983,2558.7852538560983,a,0.7015294439624995,10,264,0,2559.519232955994,2561.0211059499998,,,,,,,,,,,,,,,,,,,,,,,,,,,,,,,,,,,,,,,,,,,,,,,,,,,,,,,,,,,,,,,,,,,,,,,45290,2022-11-15_10h19.57.434,vts_reward_expectancy_bt_OFFLINE,2022.2.4,60.09708564317028,
0,0,1,0,0,0,0,1,hexagon,star,1,0,1,0,0,0,0,8,,,,,,,,,,,,,,,,,,,,,,,,,,,,,,,,,,,,,,,,2566.1932063321583,2566.1932063321583,2566.1932063321583,2566.1932063321583,2566.1932063321583,2566.1932063321583,2566.1932063321583,2566.1932063321583,2566.1932063321583,2566.1932063321583,a,1.360532552935183,10,274,1,2567.578199790092,2569.0796245101374,,,,,,,,,,,,,,,,,,,,,,,,,,,,,,,,,,,,,,,,,,,,,,,,,,,,,,,,,,,,,,,,,,,,,,,45290,2022-11-15_10h19.57.434,vts_reward_expectancy_bt_OFFLINE,2022.2.4,60.09708564317028,
1,0,0,0,0,1,0,0,triangle,circle,1,0,1,0,0,1,1,0,,,,,,,,,,,,,,,,,,,,,,,,,,,,,,,,,,,,,,,,2569.5802397411317,2569.5802397411317,2569.5802397411317,2569.5802397411317,2569.5802397411317,2569.5802397411317,2569.5802397411317,2569.5802397411317,2569.5802397411317,2569.5802397411317,a,0.832659593783319,1,275,1,2570.431203556014,2571.9329548920505,,,,,,,,,,,,,,,,,,,,,,,,,,,,,,,,,,,,,,,,,,,,,,,,,,,,,,,,,,,,,,,,,,,,,,,45290,2022-11-15_10h19.57.434,vts_reward_expectancy_bt_OFFLINE,2022.2.4,60.09708564317028,
0,0,1,0,1,0,0,0,hexagon,triangle,1,0,1,0,0,2,2,6,,,,,,,,,,,,,,,,,,,,,,,,,,,,,,,,,,,,,,,,2572.4333577461075,2572.4333577461075,2572.4333577461075,2572.4333577461075,2572.4333577461075,2572.4333577461075,2572.4333577461075,2572.4333577461075,2572.4333577461075,2572.4333577461075,a,0.7462314949370921,10,285,1,2573.2011215570383,2574.7025314760394,,,,,,,,,,,,,,,,,,,,,,,,,,,,,,,,,,,,,,,,,,,,,,,,,,,,,,,,,,,,,,,,,,,,,,,45290,2022-11-15_10h19.57.434,vts_reward_expectancy_bt_OFFLINE,2022.2.4,60.09708564317028,
1,0,0,0,0,0,0,1,triangle,star,1,0,1,0,0,3,3,2,,,,,,,,,,,,,,,,,,,,,,,,,,,,,,,,,,,,,,,,2575.203200240154,2575.203200240154,2575.203200240154,2575.203200240154,2575.203200240154,2575.203200240154,2575.203200240154,2575.203200240154,2575.203200240154,2575.203200240154,l,0.7344278648961335,1,286,1,2575.9539267630316,2577.455830807099,2577.455830807099,,,,,,,,,,,,,,,,,,,,,,,,,,,,,,,,,,,,,,,,,,,,,,,,,,,,,,,,,,,,,,,,,,,,,,45290,2022-11-15_10h19.57.434,vts_reward_expectancy_bt_OFFLINE,2022.2.4,60.09708564317028,
0,1,0,0,1,0,0,0,circle,triangle,1,0,1,0,0,4,4,3,,,,,,,,,,,,,,,,,,,,,,,,,,,,,,,,,,,,,,,,2577.956173161976,2577.956173161976,2577.956173161976,2577.956173161976,2577.956173161976,2577.956173161976,2577.956173161976,2577.956173161976,2577.956173161976,2577.956173161976,a,1.2996377036906779,10,296,1,2579.2745825320017,2580.7760488220956,,,,,,,,,,,,,,,,,,,,,,,,,,,,,,,,,,,,,,,,,,,,,,,,,,,,,,,,,,,,,,,,,,,,,,,45290,2022-11-15_10h19.57.434,vts_reward_expectancy_bt_OFFLINE,2022.2.4,60.09708564317028,
0,0,0,1,0,0,1,0,star,hexagon,1,0,1,0,0,5,5,11,,,,,,,,,,,,,,,,,,,,,,,,,,,,,,,,,,,,,,,,2581.2765796771273,2581.2765796771273,2581.2765796771273,2581.2765796771273,2581.2765796771273,2581.2765796771273,2581.2765796771273,2581.2765796771273,2581.2765796771273,2581.2765796771273,a,1.870745771797374,10,306,1,2583.1786727230065,2584.680495016044,,,,,,,,,,,,,,,,,,,,,,,,,,,,,,,,,,,,,,,,,,,,,,,,,,,,,,,,,,,,,,,,,,,,,,,45290,2022-11-15_10h19.57.434,vts_reward_expectancy_bt_OFFLINE,2022.2.4,60.09708564317028,
0,0,0,1,0,1,0,0,star ,circle,1,0,1,0,0,6,6,10,,,,,,,,,,,,,,,,,,,,,,,,,,,,,,,,,,,,,,,,2585.1808776101097,2585.1808776101097,2585.1808776101097,2585.1808776101097,2585.1808776101097,2585.1808776101097,2585.1808776101097,2585.1808776101097,2585.1808776101097,2585.1808776101097,a,0.9600124687422067,10,316,1,2586.1652360360604,2587.667106748093,,,,,,,,,,,,,,,,,,,,,,,,,,,,,,,,,,,,,,,,,,,,,,,,,,,,,,,,,,,,,,,,,,,,,,,45290,2022-11-15_10h19.57.434,vts_reward_expectancy_bt_OFFLINE,2022.2.4,60.09708564317028,
1,0,0,0,0,0,1,0,triangle,hexagon,1,0,1,0,0,7,7,1,,,,,,,,,,,,,,,,,,,,,,,,,,,,,,,,,,,,,,,,2588.167419326026,2588.167419326026,2588.167419326026,2588.167419326026,2588.167419326026,2588.167419326026,2588.167419326026,2588.167419326026,2588.167419326026,2588.167419326026,l,1.077757358783856,10,326,1,2589.2686056660023,2590.7702716900967,,,,,,,,,,,,,,,,,,,,,,,,,,,,,,,,,,,,,,,,,,,,,,,,,,,,,,,,,,,,,,,,,,,,,,,45290,2022-11-15_10h19.57.434,vts_reward_expectancy_bt_OFFLINE,2022.2.4,60.09708564317028,
0,0,1,0,0,1,0,0,hexagon,circle,1,0,1,0,0,8,8,7,,,,,,,,,,,,,,,,,,,,,,,,,,,,,,,,,,,,,,,,2591.2709578720387,2591.2709578720387,2591.2709578720387,2591.2709578720387,2591.2709578720387,2591.2709578720387,2591.2709578720387,2591.2709578720387,2591.2709578720387,2591.2709578720387,a,1.4856747048906982,10,336,1,2592.789202300133,2594.2910616360605,,,,,,,,,,,,,,,,,,,,,,,,,,,,,,,,,,,,,,,,,,,,,,,,,,,,,,,,,,,,,,,,,,,,,,,45290,2022-11-15_10h19.57.434,vts_reward_expectancy_bt_OFFLINE,2022.2.4,60.09708564317028,
0,1,0,0,0,0,1,0,circle,hexagon,1,0,1,0,0,9,9,4,,,,,,,,,,,,,,,,,,,,,,,,,,,,,,,,,,,,,,,,2594.7915984061547,2594.7915984061547,2594.7915984061547,2594.7915984061547,2594.7915984061547,2594.7915984061547,2594.7915984061547,2594.7915984061547,2594.7915984061547,2594.7915984061547,l,1.0919425678439438,10,346,1,2595.9094645020086,2597.4109620521776,,,,,,,,,,,,,,,,,,,,,,,,,,,,,,,,,,,,,,,,,,,,,,,,,,,,,,,,,,,,,,,,,,,,,,,45290,2022-11-15_10h19.57.434,vts_reward_expectancy_bt_OFFLINE,2022.2.4,60.09708564317028,
0,0,0,1,1,0,0,0,star,triangle,1,0,1,0,0,10,10,9,,,,,,,,,,,,,,,,,,,,,,,,,,,,,,,,,,,,,,,,2597.911732385168,2597.911732385168,2597.911732385168,2597.911732385168,2597.911732385168,2597.911732385168,2597.911732385168,2597.911732385168,2597.911732385168,2597.911732385168,l,1.2800868519116193,1,347,1,2599.2129359461833,2600.714686396066,,,,,,,,,,,,,,,,,,,,,,,,,,,,,,,,,,,,,,,,,,,,,,,,,,,,,,,,,,,,,,,,,,,,,,,45290,2022-11-15_10h19.57.434,vts_reward_expectancy_bt_OFFLINE,2022.2.4,60.09708564317028,
0,1,0,0,0,0,0,1,circle,star,1,0,1,0,0,11,11,5,,,,,,,,,,,,,,,,,,,,,,,,,,,,,,,,,,,,,,,,2601.215326840058,2601.215326840058,2601.215326840058,2601.215326840058,2601.215326840058,2601.215326840058,2601.215326840058,2601.215326840058,2601.215326840058,2601.215326840058,l,0.7207269428763539,1,348,1,2601.966055221157,2603.4678885720205,,,,,,,,,,,,,,,,,,,,,,,,,,,,,,,,,,,,,,,,,,,,,,,,,,,,,,,,,,,,,,,,,,,,,,,45290,2022-11-15_10h19.57.434,vts_reward_expectancy_bt_OFFLINE,2022.2.4,60.09708564317028,
0,0,0,1,0,1,0,0,star ,circle,1,0,1,0,1,0,12,10,,,,,,,,,,,,,,,,,,,,,,,,,,,,,,,,,,,,,,,,2603.9684043051675,2603.9684043051675,2603.9684043051675,2603.9684043051675,2603.9684043051675,2603.9684043051675,2603.9684043051675,2603.9684043051675,2603.9684043051675,2603.9684043051675,a,0.7361517250537872,1,349,1,2604.7359791470226,2606.2374099581502,,,,,,,,,,,,,,,,,,,,,,,,,,,,,,,,,,,,,,,,,,,,,,,,,,,,,,,,,,,,,,,,,,,,,,,45290,2022-11-15_10h19.57.434,vts_reward_expectancy_bt_OFFLINE,2022.2.4,60.09708564317028,
0,0,1,0,0,0,0,1,hexagon,star,1,0,1,0,1,1,13,8,,,,,,,,,,,,,,,,,,,,,,,,,,,,,,,,,,,,,,,,2606.737976965029,2606.737976965029,2606.737976965029,2606.737976965029,2606.737976965029,2606.737976965029,2606.737976965029,2606.737976965029,2606.737976965029,2606.737976965029,l,1.1522737629711628,10,359,1,2607.922642386984,2609.4242732999846,,,,,,,,,,,,,,,,,,,,,,,,,,,,,,,,,,,,,,,,,,,,,,,,,,,,,,,,,,,,,,,,,,,,,,,45290,2022-11-15_10h19.57.434,vts_reward_expectancy_bt_OFFLINE,2022.2.4,60.09708564317028,
0,0,0,1,0,0,1,0,star,hexagon,1,0,1,0,1,2,14,11,,,,,,,,,,,,,,,,,,,,,,,,,,,,,,,,,,,,,,,,2609.924861651147,2609.924861651147,2609.924861651147,2609.924861651147,2609.924861651147,2609.924861651147,2609.924861651147,2609.924861651147,2609.924861651147,2609.924861651147,a,1.035686443792656,1,360,1,2610.9926039420534,2612.494224460097,,,,,,,,,,,,,,,,,,,,,,,,,,,,,,,,,,,,,,,,,,,,,,,,,,,,,,,,,,,,,,,,,,,,,,,45290,2022-11-15_10h19.57.434,vts_reward_expectancy_bt_OFFLINE,2022.2.4,60.09708564317028,
0,1,0,0,0,0,1,0,circle,hexagon,1,0,1,0,1,3,15,4,,,,,,,,,,,,,,,,,,,,,,,,,,,,,,,,,,,,,,,,2612.99470932805,2612.99470932805,2612.99470932805,2612.99470932805,2612.99470932805,2612.99470932805,2612.99470932805,2612.99470932805,2612.99470932805,2612.99470932805,l,0.8230360697489232,10,370,1,2613.8458109220956,2615.34734781296,,,,,,,,,,,,,,,,,,,,,,,,,,,,,,,,,,,,,,,,,,,,,,,,,,,,,,,,,,,,,,,,,,,,,,,45290,2022-11-15_10h19.57.434,vts_reward_expectancy_bt_OFFLINE,2022.2.4,60.09708564317028,
0,1,0,0,1,0,0,0,circle,triangle,1,0,1,0,1,4,16,3,,,,,,,,,,,,,,,,,,,,,,,,,,,,,,,,,,,,,,,,2615.847982950043,2615.847982950043,2615.847982950043,2615.847982950043,2615.847982950043,2615.847982950043,2615.847982950043,2615.847982950043,2615.847982950043,2615.847982950043,a,1.1755243446677923,1,371,1,2617.0493413330987,2618.550907891011,,,,,,,,,,,,,,,,,,,,,,,,,,,,,,,,,,,,,,,,,,,,,,,,,,,,,,,,,,,,,,,,,,,,,,,45290,2022-11-15_10h19.57.434,vts_reward_expectancy_bt_OFFLINE,2022.2.4,60.09708564317028,
0,1,0,0,0,0,0,1,circle,star,1,0,1,0,1,5,17,5,,,,,,,,,,,,,,,,,,,,,,,,,,,,,,,,,,,,,,,,2619.051431877073,2619.051431877073,2619.051431877073,2619.051431877073,2619.051431877073,2619.051431877073,2619.051431877073,2619.051431877073,2619.051431877073,2619.051431877073,l,0.5709376276936382,10,381,1,2619.652135035023,2621.1538784999866,,,,,,,,,,,,,,,,,,,,,,,,,,,,,,,,,,,,,,,,,,,,,,,,,,,,,,,,,,,,,,,,,,,,,,,45290,2022-11-15_10h19.57.434,vts_reward_expectancy_bt_OFFLINE,2022.2.4,60.09708564317028,
1,0,0,0,0,0,1,0,triangle,hexagon,1,0,1,0,1,6,18,1,,,,,,,,,,,,,,,,,,,,,,,,,,,,,,,,,,,,,,,,2621.6543683570344,2621.6543683570344,2621.6543683570344,2621.6543683570344,2621.6543683570344,2621.6543683570344,2621.6543683570344,2621.6543683570344,2621.6543683570344,2621.6543683570344,a,1.006509130820632,1,382,1,2622.6888614911586,2624.190785726998,,,,,,,,,,,,,,,,,,,,,,,,,,,,,,,,,,,,,,,,,,,,,,,,,,,,,,,,,,,,,,,,,,,,,,,45290,2022-11-15_10h19.57.434,vts_reward_expectancy_bt_OFFLINE,2022.2.4,60.09708564317028,
1,0,0,0,0,0,0,1,triangle,star,1,0,1,0,1,7,19,2,,,,,,,,,,,,,,,,,,,,,,,,,,,,,,,,,,,,,,,,2624.6909782059956,2624.6909782059956,2624.6909782059956,2624.6909782059956,2624.6909782059956,2624.6909782059956,2624.6909782059956,2624.6909782059956,2624.6909782059956,2624.6909782059956,l,0.6821324178017676,1,383,1,2625.391736116959,2626.8935591231566,,,,,,,,,,,,,,,,,,,,,,,,,,,,,,,,,,,,,,,,,,,,,,,,,,,,,,,,,,,,,,,,,,,,,,,45290,2022-11-15_10h19.57.434,vts_reward_expectancy_bt_OFFLINE,2022.2.4,60.09708564317028,
1,0,0,0,0,1,0,0,triangle,circle,1,0,1,0,1,8,20,0,,,,,,,,,,,,,,,,,,,,,,,,,,,,,,,,,,,,,,,,2627.394046760164,2627.394046760164,2627.394046760164,2627.394046760164,2627.394046760164,2627.394046760164,2627.394046760164,2627.394046760164,2627.394046760164,2627.394046760164,a,0.7685577648226172,1,384,1,2628.195034128148,2629.6966690381523,,,,,,,,,,,,,,,,,,,,,,,,,,,,,,,,,,,,,,,,,,,,,,,,,,,,,,,,,,,,,,,,,,,,,,,45290,2022-11-15_10h19.57.434,vts_reward_expectancy_bt_OFFLINE,2022.2.4,60.09708564317028,
0,0,1,0,1,0,0,0,hexagon,triangle,1,0,1,0,1,9,21,6,,,,,,,,,,,,,,,,,,,,,,,,,,,,,,,,,,,,,,,,2630.1972799180076,2630.1972799180076,2630.1972799180076,2630.1972799180076,2630.1972799180076,2630.1972799180076,2630.1972799180076,2630.1972799180076,2630.1972799180076,2630.1972799180076,a,0.7350314767099917,10,394,1,2630.9647618981544,2632.4663885871414,,,,,,,,,,,,,,,,,,,,,,,,,,,,,,,,,,,,,,,,,,,,,,,,,,,,,,,,,,,,,,,,,,,,,,,45290,2022-11-15_10h19.57.434,vts_reward_expectancy_bt_OFFLINE,2022.2.4,60.09708564317028,
0,0,0,1,1,0,0,0,star,triangle,1,0,1,0,1,10,22,9,,,,,,,,,,,,,,,,,,,,,,,,,,,,,,,,,,,,,,,,2632.966857700143,2632.966857700143,2632.966857700143,2632.966857700143,2632.966857700143,2632.966857700143,2632.966857700143,2632.966857700143,2632.966857700143,2632.966857700143,a,0.6183010169770569,10,404,1,2633.617497232044,2635.1191663711797,,,,,,,,,,,,,,,,,,,,,,,,,,,,,,,,,,,,,,,,,,,,,,,,,,,,,,,,,,,,,,,,,,,,,,,45290,2022-11-15_10h19.57.434,vts_reward_expectancy_bt_OFFLINE,2022.2.4,60.09708564317028,
0,0,1,0,0,1,0,0,hexagon,circle,1,0,1,0,1,11,23,7,,,,,,,,,,,,,,,,,,,,,,,,,,,,,,,,,,,,,,,,2635.6196719671134,2635.6196719671134,2635.6196719671134,2635.6196719671134,2635.6196719671134,2635.6196719671134,2635.6196719671134,2635.6196719671134,2635.6196719671134,2635.6196719671134,a,0.9251786358654499,10,414,1,2636.5709703150205,2638.072465500096,,,,,,,,,,,,,,,,,,,,,,,,,,,,,,,,,,,,,,,,,,,,,,,,,,,,,,,,,,,,,,,,,,,,,,,45290,2022-11-15_10h19.57.434,vts_reward_expectancy_bt_OFFLINE,2022.2.4,60.09708564317028,
0,0,0,1,1,0,0,0,star,triangle,1,0,1,0,2,0,24,9,,,,,,,,,,,,,,,,,,,,,,,,,,,,,,,,,,,,,,,,2638.573048094986,2638.573048094986,2638.573048094986,2638.573048094986,2638.573048094986,2638.573048094986,2638.573048094986,2638.573048094986,2638.573048094986,2638.573048094986,l,1.0536040808074176,1,415,1,2639.6574920611456,2641.1591876109596,,,,,,,,,,,,,,,,,,,,,,,,,,,,,,,,,,,,,,,,,,,,,,,,,,,,,,,,,,,,,,,,,,,,,,,45290,2022-11-15_10h19.57.434,vts_reward_expectancy_bt_OFFLINE,2022.2.4,60.09708564317028,
0,0,1,0,0,0,0,1,hexagon,star,1,0,1,0,2,1,25,8,,,,,,,,,,,,,,,,,,,,,,,,,,,,,,,,,,,,,,,,2641.6595964799635,2641.6595964799635,2641.6595964799635,2641.6595964799635,2641.6595964799635,2641.6595964799635,2641.6595964799635,2641.6595964799635,2641.6595964799635,2641.6595964799635,l,0.9257517769001424,10,425,1,2642.6107983430848,2644.1126837970223,,,,,,,,,,,,,,,,,,,,,,,,,,,,,,,,,,,,,,,,,,,,,,,,,,,,,,,,,,,,,,,,,,,,,,,45290,2022-11-15_10h19.57.434,vts_reward_expectancy_bt_OFFLINE,2022.2.4,60.09708564317028,
0,0,1,0,0,1,0,0,hexagon,circle,1,0,1,0,2,2,26,7,,,,,,,,,,,,,,,,,,,,,,,,,,,,,,,,,,,,,,,,2644.6129679700825,2644.6129679700825,2644.6129679700825,2644.6129679700825,2644.6129679700825,2644.6129679700825,2644.6129679700825,2644.6129679700825,2644.6129679700825,2644.6129679700825,a,0.8657933757640421,10,435,1,2645.4974875061307,2646.9991239430383,,,,,,,,,,,,,,,,,,,,,,,,,,,,,,,,,,,,,,,,,,,,,,,,,,,,,,,,,,,,,,,,,,,,,,,45290,2022-11-15_10h19.57.434,vts_reward_expectancy_bt_OFFLINE,2022.2.4,60.09708564317028,
0,1,0,0,0,0,1,0,circle,hexagon,1,0,1,0,2,3,27,4,,,,,,,,,,,,,,,,,,,,,,,,,,,,,,,,,,,,,,,,2647.4995054381434,2647.4995054381434,2647.4995054381434,2647.4995054381434,2647.4995054381434,2647.4995054381434,2647.4995054381434,2647.4995054381434,2647.4995054381434,2647.4995054381434,l,0.5329150250181556,1,436,1,2648.050113831181,2649.551822802983,,,,,,,,,,,,,,,,,,,,,,,,,,,,,,,,,,,,,,,,,,,,,,,,,,,,,,,,,,,,,,,,,,,,,,,45290,2022-11-15_10h19.57.434,vts_reward_expectancy_bt_OFFLINE,2022.2.4,60.09708564317028,
0,1,0,0,1,0,0,0,circle,triangle,1,0,1,0,2,4,28,3,,,,,,,,,,,,,,,,,,,,,,,,,,,,,,,,,,,,,,,,2650.0523998080753,2650.0523998080753,2650.0523998080753,2650.0523998080753,2650.0523998080753,2650.0523998080753,2650.0523998080753,2650.0523998080753,2650.0523998080753,2650.0523998080753,l,0.7016485480125993,10,446,1,2650.7865657550283,2652.2881308621727,,,,,,,,,,,,,,,,,,,,,,,,,,,,,,,,,,,,,,,,,,,,,,,,,,,,,,,,,,,,,,,,,,,,,,,45290,2022-11-15_10h19.57.434,vts_reward_expectancy_bt_OFFLINE,2022.2.4,60.09708564317028,
1,0,0,0,0,0,1,0,triangle,hexagon,1,0,1,0,2,5,29,1,,,,,,,,,,,,,,,,,,,,,,,,,,,,,,,,,,,,,,,,2652.788810570026,2652.788810570026,2652.788810570026,2652.788810570026,2652.788810570026,2652.788810570026,2652.788810570026,2652.788810570026,2652.788810570026,2652.788810570026,l,1.2951677849050611,1,447,1,2654.1070076120086,2655.608520840062,,,,,,,,,,,,,,,,,,,,,,,,,,,,,,,,,,,,,,,,,,,,,,,,,,,,,,,,,,,,,,,,,,,,,,,45290,2022-11-15_10h19.57.434,vts_reward_expectancy_bt_OFFLINE,2022.2.4,60.09708564317028,
0,0,1,0,1,0,0,0,hexagon,triangle,1,0,1,0,2,6,30,6,,,,,,,,,,,,,,,,,,,,,,,,,,,,,,,,,,,,,,,,2656.109255050076,2656.109255050076,2656.109255050076,2656.109255050076,2656.109255050076,2656.109255050076,2656.109255050076,2656.109255050076,2656.109255050076,2656.109255050076,a,1.3856840156950057,1,448,1,2657.52729441016,2659.028944873018,,,,,,,,,,,,,,,,,,,,,,,,,,,,,,,,,,,,,,,,,,,,,,,,,,,,,,,,,,,,,,,,,,,,,,,45290,2022-11-15_10h19.57.434,vts_reward_expectancy_bt_OFFLINE,2022.2.4,60.09708564317028,
0,1,0,0,0,0,0,1,circle,star,1,0,1,0,2,7,31,5,,,,,,,,,,,,,,,,,,,,,,,,,,,,,,,,,,,,,,,,2659.5294458200224,2659.5294458200224,2659.5294458200224,2659.5294458200224,2659.5294458200224,2659.5294458200224,2659.5294458200224,2659.5294458200224,2659.5294458200224,2659.5294458200224,l,0.7430732948705554,10,458,1,2660.297105251113,2661.798723081127,,,,,,,,,,,,,,,,,,,,,,,,,,,,,,,,,,,,,,,,,,,,,,,,,,,,,,,,,,,,,,,,,,,,,,,45290,2022-11-15_10h19.57.434,vts_reward_expectancy_bt_OFFLINE,2022.2.4,60.09708564317028,
0,0,0,1,0,1,0,0,star ,circle,1,0,1,0,2,8,32,10,,,,,,,,,,,,,,,,,,,,,,,,,,,,,,,,,,,,,,,,2662.2992922901176,2662.2992922901176,2662.2992922901176,2662.2992922901176,2662.2992922901176,2662.2992922901176,2662.2992922901176,2662.2992922901176,2662.2992922901176,2662.2992922901176,a,0.7073860929813236,10,468,1,2663.0335402400233,2664.5351563910954,,,,,,,,,,,,,,,,,,,,,,,,,,,,,,,,,,,,,,,,,,,,,,,,,,,,,,,,,,,,,,,,,,,,,,,45290,2022-11-15_10h19.57.434,vts_reward_expectancy_bt_OFFLINE,2022.2.4,60.09708564317028,
0,0,0,1,0,0,1,0,star,hexagon,1,0,1,0,2,9,33,11,,,,,,,,,,,,,,,,,,,,,,,,,,,,,,,,,,,,,,,,2665.0356441221666,2665.0356441221666,2665.0356441221666,2665.0356441221666,2665.0356441221666,2665.0356441221666,2665.0356441221666,2665.0356441221666,2665.0356441221666,2665.0356441221666,a,1.4801428627688438,10,478,1,2666.537150230026,2668.0389384799637,,,,,,,,,,,,,,,,,,,,,,,,,,,,,,,,,,,,,,,,,,,,,,,,,,,,,,,,,,,,,,,,,,,,,,,45290,2022-11-15_10h19.57.434,vts_reward_expectancy_bt_OFFLINE,2022.2.4,60.09708564317028,
1,0,0,0,0,0,0,1,triangle,star,1,0,1,0,2,10,34,2,,,,,,,,,,,,,,,,,,,,,,,,,,,,,,,,,,,,,,,,2668.539386347169,2668.539386347169,2668.539386347169,2668.539386347169,2668.539386347169,2668.539386347169,2668.539386347169,2668.539386347169,2668.539386347169,2668.539386347169,a,1.3977044166531414,1,479,1,2669.957683864981,2671.4592459830455,,,,,,,,,,,,,,,,,,,,,,,,,,,,,,,,,,,,,,,,,,,,,,,,,,,,,,,,,,,,,,,,,,,,,,,45290,2022-11-15_10h19.57.434,vts_reward_expectancy_bt_OFFLINE,2022.2.4,60.09708564317028,
1,0,0,0,0,1,0,0,triangle,circle,1,0,1,0,2,11,35,0,,,,,,,,,,,,,,,,,,,,,,,,,,,,,,,,,,,,,,,,2671.959879578091,2671.959879578091,2671.959879578091,2671.959879578091,2671.959879578091,2671.959879578091,2671.959879578091,2671.959879578091,2671.959879578091,2671.959879578091,a,0.8581269118003547,1,480,1,2672.8442653380334,2674.3459762730636,,,,,,,,,,,,,,,,,,,,,,,,,,,,,,,,,,,,,,,,,,,,,,,,,,,,,,,,,,,,,,,,,,,,,,,45290,2022-11-15_10h19.57.434,vts_reward_expectancy_bt_OFFLINE,2022.2.4,60.09708564317028,
0,0,1,0,1,0,0,0,hexagon,triangle,1,0,1,0,3,0,36,6,,,,,,,,,,,,,,,,,,,,,,,,,,,,,,,,,,,,,,,,2674.8465791011695,2674.8465791011695,2674.8465791011695,2674.8465791011695,2674.8465791011695,2674.8465791011695,2674.8465791011695,2674.8465791011695,2674.8465791011695,2674.8465791011695,l,1.0189779058564454,10,490,1,2675.8974362551235,2677.39917147113,,,,,,,,,,,,,,,,,,,,,,,,,,,,,,,,,,,,,,,,,,,,,,,,,,,,,,,,,,,,,,,,,,,,,,,45290,2022-11-15_10h19.57.434,vts_reward_expectancy_bt_OFFLINE,2022.2.4,60.09708564317028,
0,0,1,0,0,1,0,0,hexagon,circle,1,0,1,0,3,1,37,7,,,,,,,,,,,,,,,,,,,,,,,,,,,,,,,,,,,,,,,,2677.899888596032,2677.899888596032,2677.899888596032,2677.899888596032,2677.899888596032,2677.899888596032,2677.899888596032,2677.899888596032,2677.899888596032,2677.899888596032,a,1.4201035657897592,10,500,1,2679.351403172128,2680.8529929551296,,,,,,,,,,,,,,,,,,,,,,,,,,,,,,,,,,,,,,,,,,,,,,,,,,,,,,,,,,,,,,,,,,,,,,,45290,2022-11-15_10h19.57.434,vts_reward_expectancy_bt_OFFLINE,2022.2.4,60.09708564317028,
1,0,0,0,0,0,0,1,triangle,star,1,0,1,0,3,2,38,2,,,,,,,,,,,,,,,,,,,,,,,,,,,,,,,,,,,,,,,,2681.3535064461175,2681.3535064461175,2681.3535064461175,2681.3535064461175,2681.3535064461175,2681.3535064461175,2681.3535064461175,2681.3535064461175,2681.3535064461175,2681.3535064461175,l,1.4541550988797098,10,510,1,2682.838522596052,2684.34022437199,,,,,,,,,,,,,,,,,,,,,,,,,,,,,,,,,,,,,,,,,,,,,,,,,,,,,,,,,,,,,,,,,,,,,,,45290,2022-11-15_10h19.57.434,vts_reward_expectancy_bt_OFFLINE,2022.2.4,60.09708564317028,
0,0,0,1,0,1,0,0,star ,circle,1,0,1,0,3,3,39,10,,,,,,,,,,,,,,,,,,,,,,,,,,,,,,,,,,,,,,,,2684.8407338729594,2684.8407338729594,2684.8407338729594,2684.8407338729594,2684.8407338729594,2684.8407338729594,2684.8407338729594,2684.8407338729594,2684.8407338729594,2684.8407338729594,a,0.75790129089728,10,520,1,2685.62498911703,2687.1267329130787,,,,,,,,,,,,,,,,,,,,,,,,,,,,,,,,,,,,,,,,,,,,,,,,,,,,,,,,,,,,,,,,,,,,,,,45290,2022-11-15_10h19.57.434,vts_reward_expectancy_bt_OFFLINE,2022.2.4,60.09708564317028,
0,0,1,0,0,0,0,1,hexagon,star,1,0,1,0,3,4,40,8,,,,,,,,,,,,,,,,,,,,,,,,,,,,,,,,,,,,,,,,2687.6274442060385,2687.6274442060385,2687.6274442060385,2687.6274442060385,2687.6274442060385,2687.6274442060385,2687.6274442060385,2687.6274442060385,2687.6274442060385,2687.6274442060385,l,1.235116820782423,10,530,1,2688.8952504871413,2690.396791263018,,,,,,,,,,,,,,,,,,,,,,,,,,,,,,,,,,,,,,,,,,,,,,,,,,,,,,,,,,,,,,,,,,,,,,,45290,2022-11-15_10h19.57.434,vts_reward_expectancy_bt_OFFLINE,2022.2.4,60.09708564317028,
0,0,0,1,1,0,0,0,star,triangle,1,0,1,0,3,5,41,9,,,,,,,,,,,,,,,,,,,,,,,,,,,,,,,,,,,,,,,,2690.8974999079946,2690.8974999079946,2690.8974999079946,2690.8974999079946,2690.8974999079946,2690.8974999079946,2690.8974999079946,2690.8974999079946,2690.8974999079946,2690.8974999079946,a,1.0795087709557265,1,531,1,2691.9986845231615,2693.5002931649797,,,,,,,,,,,,,,,,,,,,,,,,,,,,,,,,,,,,,,,,,,,,,,,,,,,,,,,,,,,,,,,,,,,,,,,45290,2022-11-15_10h19.57.434,vts_reward_expectancy_bt_OFFLINE,2022.2.4,60.09708564317028,
0,1,0,0,0,0,0,1,circle,star,1,0,1,0,3,6,42,5,,,,,,,,,,,,,,,,,,,,,,,,,,,,,,,,,,,,,,,,2694.0008011800237,2694.0008011800237,2694.0008011800237,2694.0008011800237,2694.0008011800237,2694.0008011800237,2694.0008011800237,2694.0008011800237,2694.0008011800237,2694.0008011800237,l,0.8228278770111501,1,532,1,2694.851922217058,2696.3534513281193,,,,,,,,,,,,,,,,,,,,,,,,,,,,,,,,,,,,,,,,,,,,,,,,,,,,,,,,,,,,,,,,,,,,,,,45290,2022-11-15_10h19.57.434,vts_reward_expectancy_bt_OFFLINE,2022.2.4,60.09708564317028,
0,0,0,1,0,0,1,0,star,hexagon,1,0,1,0,3,7,43,11,,,,,,,,,,,,,,,,,,,,,,,,,,,,,,,,,,,,,,,,2696.853961378103,2696.853961378103,2696.853961378103,2696.853961378103,2696.853961378103,2696.853961378103,2696.853961378103,2696.853961378103,2696.853961378103,2696.853961378103,a,1.3444238228257746,10,542,1,2698.222056807019,2699.723844978027,,,,,,,,,,,,,,,,,,,,,,,,,,,,,,,,,,,,,,,,,,,,,,,,,,,,,,,,,,,,,,,,,,,,,,,45290,2022-11-15_10h19.57.434,vts_reward_expectancy_bt_OFFLINE,2022.2.4,60.09708564317028,
1,0,0,0,0,1,0,0,triangle,circle,1,0,1,0,3,8,44,0,,,,,,,,,,,,,,,,,,,,,,,,,,,,,,,,,,,,,,,,2700.224554382963,2700.224554382963,2700.224554382963,2700.224554382963,2700.224554382963,2700.224554382963,2700.224554382963,2700.224554382963,2700.224554382963,2700.224554382963,a,1.5630871038883924,1,543,1,2701.8097232431173,2703.3113008420914,,,,,,,,,,,,,,,,,,,,,,,,,,,,,,,,,,,,,,,,,,,,,,,,,,,,,,,,,,,,,,,,,,,,,,,45290,2022-11-15_10h19.57.434,vts_reward_expectancy_bt_OFFLINE,2022.2.4,60.09708564317028,
0,1,0,0,1,0,0,0,circle,triangle,1,0,1,0,3,9,45,3,,,,,,,,,,,,,,,,,,,,,,,,,,,,,,,,,,,,,,,,2703.8117266800255,2703.8117266800255,2703.8117266800255,2703.8117266800255,2703.8117266800255,2703.8117266800255,2703.8117266800255,2703.8117266800255,2703.8117266800255,2703.8117266800255,l,0.9248330348636955,10,553,1,2704.7627492260654,2706.2645874700975,,,,,,,,,,,,,,,,,,,,,,,,,,,,,,,,,,,,,,,,,,,,,,,,,,,,,,,,,,,,,,,,,,,,,,,45290,2022-11-15_10h19.57.434,vts_reward_expectancy_bt_OFFLINE,2022.2.4,60.09708564317028,
1,0,0,0,0,0,1,0,triangle,hexagon,1,0,1,0,3,10,46,1,,,,,,,,,,,,,,,,,,,,,,,,,,,,,,,,,,,,,,,,2706.7650198449846,2706.7650198449846,2706.7650198449846,2706.7650198449846,2706.7650198449846,2706.7650198449846,2706.7650198449846,2706.7650198449846,2706.7650198449846,2706.7650198449846,a,1.0993408327922225,10,563,1,2707.883066582959,2709.3845751059707,2709.3845751059707,,,,,,,,,,,,,,,,,,,,,,,,,,,,,,,,,,,,,,,,,,,,,,,,,,,,,,,,,,,,,,,,,,,,,,45290,2022-11-15_10h19.57.434,vts_reward_expectancy_bt_OFFLINE,2022.2.4,60.09708564317028,
0,1,0,0,0,0,1,0,circle,hexagon,1,0,1,0,3,11,47,4,,,,,,,,,,,,,,,,,,,,,,,,,,,,,,,,,,,,,,,,2709.885211186018,2709.885211186018,2709.885211186018,2709.885211186018,2709.885211186018,2709.885211186018,2709.885211186018,2709.885211186018,2709.885211186018,2709.885211186018,l,1.0611595737282187,10,573,1,2710.969626120059,2712.4711893859785,,,,,,,,,,,,,,,,,,,,,,,,,,,,,,,,,,,,,,,,,,,,,,,,,,,,,,,,,,,,,,,,,,,,,,,45290,2022-11-15_10h19.57.434,vts_reward_expectancy_bt_OFFLINE,2022.2.4,60.09708564317028,
0,1,0,0,0,0,0,1,circle,star,2,0,2,0,0,0,0,5,,,,,,,,,,,,,,,,,,,,,,,,,,,,,,,,,,,,,,,,2715.157704625977,2715.157704625977,2715.157704625977,2715.157704625977,2715.157704625977,2715.157704625977,2715.157704625977,2715.157704625977,2715.157704625977,2715.157704625977,l,1.0992275848984718,10,583,2,2716.275457110023,2717.7770706319716,,,,,,,,,,,,,,,,,,,,,,,,,,,,,,,,,,,,,,,,,,,,,,,,,,,,,,,,,,,,,,,,,,,,,,,45290,2022-11-15_10h19.57.434,vts_reward_expectancy_bt_OFFLINE,2022.2.4,60.09708564317028,
1,0,0,0,0,0,1,0,triangle,hexagon,2,0,2,0,0,1,1,1,,,,,,,,,,,,,,,,,,,,,,,,,,,,,,,,,,,,,,,,2718.277627991978,2718.277627991978,2718.277627991978,2718.277627991978,2718.277627991978,2718.277627991978,2718.277627991978,2718.277627991978,2718.277627991978,2718.277627991978,l,1.7364406946580857,10,593,2,2720.0461432649754,2721.547905480955,,,,,,,,,,,,,,,,,,,,,,,,,,,,,,,,,,,,,,,,,,,,,,,,,,,,,,,,,,,,,,,,,,,,,,,45290,2022-11-15_10h19.57.434,vts_reward_expectancy_bt_OFFLINE,2022.2.4,60.09708564317028,
0,0,0,1,1,0,0,0,star,triangle,2,0,2,0,0,2,2,9,,,,,,,,,,,,,,,,,,,,,,,,,,,,,,,,,,,,,,,,2722.0484635750763,2722.0484635750763,2722.0484635750763,2722.0484635750763,2722.0484635750763,2722.0484635750763,2722.0484635750763,2722.0484635750763,2722.0484635750763,2722.0484635750763,a,0.8015364999882877,10,603,2,2722.8827906481456,2724.3846129679587,,,,,,,,,,,,,,,,,,,,,,,,,,,,,,,,,,,,,,,,,,,,,,,,,,,,,,,,,,,,,,,,,,,,,,,45290,2022-11-15_10h19.57.434,vts_reward_expectancy_bt_OFFLINE,2022.2.4,60.09708564317028,
0,0,1,0,0,1,0,0,hexagon,circle,2,0,2,0,0,3,3,7,,,,,,,,,,,,,,,,,,,,,,,,,,,,,,,,,,,,,,,,2724.8851092881523,2724.8851092881523,2724.8851092881523,2724.8851092881523,2724.8851092881523,2724.8851092881523,2724.8851092881523,2724.8851092881523,2724.8851092881523,2724.8851092881523,a,0.97952541988343,1,604,2,2725.8862495759968,2727.3878744530957,,,,,,,,,,,,,,,,,,,,,,,,,,,,,,,,,,,,,,,,,,,,,,,,,,,,,,,,,,,,,,,,,,,,,,,45290,2022-11-15_10h19.57.434,vts_reward_expectancy_bt_OFFLINE,2022.2.4,60.09708564317028,
1,0,0,0,0,1,0,0,triangle,circle,2,0,2,0,0,4,4,0,,,,,,,,,,,,,,,,,,,,,,,,,,,,,,,,,,,,,,,,2727.8883894060273,2727.8883894060273,2727.8883894060273,2727.8883894060273,2727.8883894060273,2727.8883894060273,2727.8883894060273,2727.8883894060273,2727.8883894060273,2727.8883894060273,a,0.8227921037469059,1,605,2,2728.7391697419807,2730.240958702052,,,,,,,,,,,,,,,,,,,,,,,,,,,,,,,,,,,,,,,,,,,,,,,,,,,,,,,,,,,,,,,,,,,,,,,45290,2022-11-15_10h19.57.434,vts_reward_expectancy_bt_OFFLINE,2022.2.4,60.09708564317028,
0,1,0,0,0,0,1,0,circle,hexagon,2,0,2,0,0,5,5,4,,,,,,,,,,,,,,,,,,,,,,,,,,,,,,,,,,,,,,,,2730.741537722992,2730.741537722992,2730.741537722992,2730.741537722992,2730.741537722992,2730.741537722992,2730.741537722992,2730.741537722992,2730.741537722992,2730.741537722992,l,0.8184379988815635,10,615,2,2731.5922647360712,2733.094119808171,,,,,,,,,,,,,,,,,,,,,,,,,,,,,,,,,,,,,,,,,,,,,,,,,,,,,,,,,,,,,,,,,,,,,,,45290,2022-11-15_10h19.57.434,vts_reward_expectancy_bt_OFFLINE,2022.2.4,60.09708564317028,
1,0,0,0,0,0,0,1,triangle,star,2,0,2,0,0,6,6,2,,,,,,,,,,,,,,,,,,,,,,,,,,,,,,,,,,,,,,,,2733.5947254551575,2733.5947254551575,2733.5947254551575,2733.5947254551575,2733.5947254551575,2733.5947254551575,2733.5947254551575,2733.5947254551575,2733.5947254551575,2733.5947254551575,l,1.541190842865035,10,625,2,2735.1629210121464,2736.6646386880893,,,,,,,,,,,,,,,,,,,,,,,,,,,,,,,,,,,,,,,,,,,,,,,,,,,,,,,,,,,,,,,,,,,,,,,45290,2022-11-15_10h19.57.434,vts_reward_expectancy_bt_OFFLINE,2022.2.4,60.09708564317028,
0,0,1,0,1,0,0,0,hexagon,triangle,2,0,2,0,0,7,7,6,,,,,,,,,,,,,,,,,,,,,,,,,,,,,,,,,,,,,,,,2737.165342150023,2737.165342150023,2737.165342150023,2737.165342150023,2737.165342150023,2737.165342150023,2737.165342150023,2737.165342150023,2737.165342150023,2737.165342150023,l,1.2100178098771721,10,635,2,2738.3998152960557,2739.9015588720795,,,,,,,,,,,,,,,,,,,,,,,,,,,,,,,,,,,,,,,,,,,,,,,,,,,,,,,,,,,,,,,,,,,,,,,45290,2022-11-15_10h19.57.434,vts_reward_expectancy_bt_OFFLINE,2022.2.4,60.09708564317028,
0,0,0,1,0,0,1,0,star,hexagon,2,0,2,0,0,8,8,11,,,,,,,,,,,,,,,,,,,,,,,,,,,,,,,,,,,,,,,,2740.402308690129,2740.402308690129,2740.402308690129,2740.402308690129,2740.402308690129,2740.402308690129,2740.402308690129,2740.402308690129,2740.402308690129,2740.402308690129,a,1.0009857509285212,1,636,2,2741.4200908399653,2742.921433683019,2742.921433683019,,,,,,,,,,,,,,,,,,,,,,,,,,,,,,,,,,,,,,,,,,,,,,,,,,,,,,,,,,,,,,,,,,,,,,45290,2022-11-15_10h19.57.434,vts_reward_expectancy_bt_OFFLINE,2022.2.4,60.09708564317028,
0,1,0,0,1,0,0,0,circle,triangle,2,0,2,0,0,9,9,3,,,,,,,,,,,,,,,,,,,,,,,,,,,,,,,,,,,,,,,,2743.4220022859517,2743.4220022859517,2743.4220022859517,2743.4220022859517,2743.4220022859517,2743.4220022859517,2743.4220022859517,2743.4220022859517,2743.4220022859517,2743.4220022859517,l,1.0281554029788822,1,637,2,2744.4732930250466,2745.975036923075,,,,,,,,,,,,,,,,,,,,,,,,,,,,,,,,,,,,,,,,,,,,,,,,,,,,,,,,,,,,,,,,,,,,,,,45290,2022-11-15_10h19.57.434,vts_reward_expectancy_bt_OFFLINE,2022.2.4,60.09708564317028,
0,0,1,0,0,0,0,1,hexagon,star,2,0,2,0,0,10,10,8,,,,,,,,,,,,,,,,,,,,,,,,,,,,,,,,,,,,,,,,2746.4755488571245,2746.4755488571245,2746.4755488571245,2746.4755488571245,2746.4755488571245,2746.4755488571245,2746.4755488571245,2746.4755488571245,2746.4755488571245,2746.4755488571245,l,0.8780607900116593,10,647,2,2747.376548367087,2748.878174477024,,,,,,,,,,,,,,,,,,,,,,,,,,,,,,,,,,,,,,,,,,,,,,,,,,,,,,,,,,,,,,,,,,,,,,,45290,2022-11-15_10h19.57.434,vts_reward_expectancy_bt_OFFLINE,2022.2.4,60.09708564317028,
0,0,0,1,0,1,0,0,star ,circle,2,0,2,0,0,11,11,10,,,,,,,,,,,,,,,,,,,,,,,,,,,,,,,,,,,,,,,,2749.378546440974,2749.378546440974,2749.378546440974,2749.378546440974,2749.378546440974,2749.378546440974,2749.378546440974,2749.378546440974,2749.378546440974,2749.378546440974,a,1.3732698829844594,10,657,2,2750.780158275971,2752.28171276208,,,,,,,,,,,,,,,,,,,,,,,,,,,,,,,,,,,,,,,,,,,,,,,,,,,,,,,,,,,,,,,,,,,,,,,45290,2022-11-15_10h19.57.434,vts_reward_expectancy_bt_OFFLINE,2022.2.4,60.09708564317028,
0,0,1,0,0,0,0,1,hexagon,star,2,0,2,0,1,0,12,8,,,,,,,,,,,,,,,,,,,,,,,,,,,,,,,,,,,,,,,,2752.7823133501224,2752.7823133501224,2752.7823133501224,2752.7823133501224,2752.7823133501224,2752.7823133501224,2752.7823133501224,2752.7823133501224,2752.7823133501224,2752.7823133501224,l,1.321153320837766,10,667,2,2754.1337325330824,2755.635485950159,,,,,,,,,,,,,,,,,,,,,,,,,,,,,,,,,,,,,,,,,,,,,,,,,,,,,,,,,,,,,,,,,,,,,,,45290,2022-11-15_10h19.57.434,vts_reward_expectancy_bt_OFFLINE,2022.2.4,60.09708564317028,
1,0,0,0,0,0,0,1,triangle,star,2,0,2,0,1,1,13,2,,,,,,,,,,,,,,,,,,,,,,,,,,,,,,,,,,,,,,,,2756.135958672967,2756.135958672967,2756.135958672967,2756.135958672967,2756.135958672967,2756.135958672967,2756.135958672967,2756.135958672967,2756.135958672967,2756.135958672967,l,0.7470505349338055,10,677,2,2756.9034875349607,2758.405282492051,,,,,,,,,,,,,,,,,,,,,,,,,,,,,,,,,,,,,,,,,,,,,,,,,,,,,,,,,,,,,,,,,,,,,,,45290,2022-11-15_10h19.57.434,vts_reward_expectancy_bt_OFFLINE,2022.2.4,60.09708564317028,
1,0,0,0,0,1,0,0,triangle,circle,2,0,2,0,1,2,14,0,,,,,,,,,,,,,,,,,,,,,,,,,,,,,,,,,,,,,,,,2758.906104355119,2758.906104355119,2758.906104355119,2758.906104355119,2758.906104355119,2758.906104355119,2758.906104355119,2758.906104355119,2758.906104355119,2758.906104355119,a,0.6673699449747801,1,678,2,2759.590715190163,2761.091758755967,2761.091758755967,,,,,,,,,,,,,,,,,,,,,,,,,,,,,,,,,,,,,,,,,,,,,,,,,,,,,,,,,,,,,,,,,,,,,,45290,2022-11-15_10h19.57.434,vts_reward_expectancy_bt_OFFLINE,2022.2.4,60.09708564317028,
0,1,0,0,0,0,0,1,circle,star,2,0,2,0,1,3,15,5,,,,,,,,,,,,,,,,,,,,,,,,,,,,,,,,,,,,,,,,2761.592190328054,2761.592190328054,2761.592190328054,2761.592190328054,2761.592190328054,2761.592190328054,2761.592190328054,2761.592190328054,2761.592190328054,2761.592190328054,l,0.7483339849859476,1,679,2,2762.359719885979,2763.8614241660107,,,,,,,,,,,,,,,,,,,,,,,,,,,,,,,,,,,,,,,,,,,,,,,,,,,,,,,,,,,,,,,,,,,,,,,45290,2022-11-15_10h19.57.434,vts_reward_expectancy_bt_OFFLINE,2022.2.4,60.09708564317028,
0,1,0,0,0,0,1,0,circle,hexagon,2,0,2,0,1,4,16,4,,,,,,,,,,,,,,,,,,,,,,,,,,,,,,,,,,,,,,,,2764.361853927141,2764.361853927141,2764.361853927141,2764.361853927141,2764.361853927141,2764.361853927141,2764.361853927141,2764.361853927141,2764.361853927141,2764.361853927141,l,1.0603888707701117,10,689,2,2765.4462152931374,2766.9480373051483,,,,,,,,,,,,,,,,,,,,,,,,,,,,,,,,,,,,,,,,,,,,,,,,,,,,,,,,,,,,,,,,,,,,,,,45290,2022-11-15_10h19.57.434,vts_reward_expectancy_bt_OFFLINE,2022.2.4,60.09708564317028,
1,0,0,0,0,0,1,0,triangle,hexagon,2,0,2,0,1,5,17,1,,,,,,,,,,,,,,,,,,,,,,,,,,,,,,,,,,,,,,,,2767.4486080179922,2767.4486080179922,2767.4486080179922,2767.4486080179922,2767.4486080179922,2767.4486080179922,2767.4486080179922,2767.4486080179922,2767.4486080179922,2767.4486080179922,a,1.5632724608294666,1,690,2,2769.0335490449797,2770.5354848480783,,,,,,,,,,,,,,,,,,,,,,,,,,,,,,,,,,,,,,,,,,,,,,,,,,,,,,,,,,,,,,,,,,,,,,,45290,2022-11-15_10h19.57.434,vts_reward_expectancy_bt_OFFLINE,2022.2.4,60.09708564317028,
0,0,1,0,0,1,0,0,hexagon,circle,2,0,2,0,1,6,18,7,,,,,,,,,,,,,,,,,,,,,,,,,,,,,,,,,,,,,,,,2771.0358986950014,2771.0358986950014,2771.0358986950014,2771.0358986950014,2771.0358986950014,2771.0358986950014,2771.0358986950014,2771.0358986950014,2771.0358986950014,2771.0358986950014,a,0.889362933812663,1,691,2,2771.9537025680766,2773.4552911079954,2773.4552911079954,,,,,,,,,,,,,,,,,,,,,,,,,,,,,,,,,,,,,,,,,,,,,,,,,,,,,,,,,,,,,,,,,,,,,,45290,2022-11-15_10h19.57.434,vts_reward_expectancy_bt_OFFLINE,2022.2.4,60.09708564317028,
0,0,0,1,0,0,1,0,star,hexagon,2,0,2,0,1,7,19,11,,,,,,,,,,,,,,,,,,,,,,,,,,,,,,,,,,,,,,,,2773.955897973152,2773.955897973152,2773.955897973152,2773.955897973152,2773.955897973152,2773.955897973152,2773.955897973152,2773.955897973152,2773.955897973152,2773.955897973152,a,0.6817081868648529,10,701,2,2774.656648133183,2776.1582385320216,,,,,,,,,,,,,,,,,,,,,,,,,,,,,,,,,,,,,,,,,,,,,,,,,,,,,,,,,,,,,,,,,,,,,,,45290,2022-11-15_10h19.57.434,vts_reward_expectancy_bt_OFFLINE,2022.2.4,60.09708564317028,
0,0,0,1,1,0,0,0,star,triangle,2,0,2,0,1,8,20,9,,,,,,,,,,,,,,,,,,,,,,,,,,,,,,,,,,,,,,,,2776.658783013001,2776.658783013001,2776.658783013001,2776.658783013001,2776.658783013001,2776.658783013001,2776.658783013001,2776.658783013001,2776.658783013001,2776.658783013001,a,0.6099730869755149,10,711,2,2777.2930008780677,2778.7944841000717,,,,,,,,,,,,,,,,,,,,,,,,,,,,,,,,,,,,,,,,,,,,,,,,,,,,,,,,,,,,,,,,,,,,,,,45290,2022-11-15_10h19.57.434,vts_reward_expectancy_bt_OFFLINE,2022.2.4,60.09708564317028,
0,1,0,0,1,0,0,0,circle,triangle,2,0,2,0,1,9,21,3,,,,,,,,,,,,,,,,,,,,,,,,,,,,,,,,,,,,,,,,2779.295052067144,2779.295052067144,2779.295052067144,2779.295052067144,2779.295052067144,2779.295052067144,2779.295052067144,2779.295052067144,2779.295052067144,2779.295052067144,l,0.7302302347961813,1,712,2,2780.045746644959,2781.547531940043,2781.547531940043,,,,,,,,,,,,,,,,,,,,,,,,,,,,,,,,,,,,,,,,,,,,,,,,,,,,,,,,,,,,,,,,,,,,,,45290,2022-11-15_10h19.57.434,vts_reward_expectancy_bt_OFFLINE,2022.2.4,60.09708564317028,
0,0,0,1,0,1,0,0,star ,circle,2,0,2,0,1,10,22,10,,,,,,,,,,,,,,,,,,,,,,,,,,,,,,,,,,,,,,,,2782.0479876650497,2782.0479876650497,2782.0479876650497,2782.0479876650497,2782.0479876650497,2782.0479876650497,2782.0479876650497,2782.0479876650497,2782.0479876650497,2782.0479876650497,a,0.6556947268545628,1,713,2,2782.7320282810833,2784.233572520083,,,,,,,,,,,,,,,,,,,,,,,,,,,,,,,,,,,,,,,,,,,,,,,,,,,,,,,,,,,,,,,,,,,,,,,45290,2022-11-15_10h19.57.434,vts_reward_expectancy_bt_OFFLINE,2022.2.4,60.09708564317028,
0,0,1,0,1,0,0,0,hexagon,triangle,2,0,2,0,1,11,23,6,,,,,,,,,,,,,,,,,,,,,,,,,,,,,,,,,,,,,,,,2784.7344118051697,2784.7344118051697,2784.7344118051697,2784.7344118051697,2784.7344118051697,2784.7344118051697,2784.7344118051697,2784.7344118051697,2784.7344118051697,2784.7344118051697,a,1.153154636034742,10,723,2,2785.9190543480217,2787.4206583711784,,,,,,,,,,,,,,,,,,,,,,,,,,,,,,,,,,,,,,,,,,,,,,,,,,,,,,,,,,,,,,,,,,,,,,,45290,2022-11-15_10h19.57.434,vts_reward_expectancy_bt_OFFLINE,2022.2.4,60.09708564317028,
1,0,0,0,0,0,1,0,triangle,hexagon,2,0,2,0,2,0,24,1,,,,,,,,,,,,,,,,,,,,,,,,,,,,,,,,,,,,,,,,2787.9214099531528,2787.9214099531528,2787.9214099531528,2787.9214099531528,2787.9214099531528,2787.9214099531528,2787.9214099531528,2787.9214099531528,2787.9214099531528,2787.9214099531528,l,0.969495803816244,1,724,2,2788.9221251711715,2790.4240022159647,,,,,,,,,,,,,,,,,,,,,,,,,,,,,,,,,,,,,,,,,,,,,,,,,,,,,,,,,,,,,,,,,,,,,,,45290,2022-11-15_10h19.57.434,vts_reward_expectancy_bt_OFFLINE,2022.2.4,60.09708564317028,
0,0,0,1,0,0,1,0,star,hexagon,2,0,2,0,2,1,25,11,,,,,,,,,,,,,,,,,,,,,,,,,,,,,,,,,,,,,,,,2790.9244782631285,2790.9244782631285,2790.9244782631285,2790.9244782631285,2790.9244782631285,2790.9244782631285,2790.9244782631285,2790.9244782631285,2790.9244782631285,2790.9244782631285,a,0.677904570940882,10,734,2,2791.6250154671725,2793.1269175801426,,,,,,,,,,,,,,,,,,,,,,,,,,,,,,,,,,,,,,,,,,,,,,,,,,,,,,,,,,,,,,,,,,,,,,,45290,2022-11-15_10h19.57.434,vts_reward_expectancy_bt_OFFLINE,2022.2.4,60.09708564317028,
0,1,0,0,1,0,0,0,circle,triangle,2,0,2,0,2,2,26,3,,,,,,,,,,,,,,,,,,,,,,,,,,,,,,,,,,,,,,,,2793.627361812163,2793.627361812163,2793.627361812163,2793.627361812163,2793.627361812163,2793.627361812163,2793.627361812163,2793.627361812163,2793.627361812163,2793.627361812163,l,0.5748611579183489,1,735,2,2794.2279245271347,2795.72976443707,,,,,,,,,,,,,,,,,,,,,,,,,,,,,,,,,,,,,,,,,,,,,,,,,,,,,,,,,,,,,,,,,,,,,,,45290,2022-11-15_10h19.57.434,vts_reward_expectancy_bt_OFFLINE,2022.2.4,60.09708564317028,
0,1,0,0,0,0,0,1,circle,star,2,0,2,0,2,3,27,5,,,,,,,,,,,,,,,,,,,,,,,,,,,,,,,,,,,,,,,,2796.230317811016,2796.230317811016,2796.230317811016,2796.230317811016,2796.230317811016,2796.230317811016,2796.230317811016,2796.230317811016,2796.230317811016,2796.230317811016,l,0.4923065498005599,10,745,2,2796.747394217178,2798.249453562079,,,,,,,,,,,,,,,,,,,,,,,,,,,,,,,,,,,,,,,,,,,,,,,,,,,,,,,,,,,,,,,,,,,,,,,45290,2022-11-15_10h19.57.434,vts_reward_expectancy_bt_OFFLINE,2022.2.4,60.09708564317028,
0,0,0,1,0,1,0,0,star ,circle,2,0,2,0,2,4,28,10,,,,,,,,,,,,,,,,,,,,,,,,,,,,,,,,,,,,,,,,2798.7499552329537,2798.7499552329537,2798.7499552329537,2798.7499552329537,2798.7499552329537,2798.7499552329537,2798.7499552329537,2798.7499552329537,2798.7499552329537,2798.7499552329537,a,0.5370082058943808,10,755,2,2799.3170151030645,2800.818804127164,,,,,,,,,,,,,,,,,,,,,,,,,,,,,,,,,,,,,,,,,,,,,,,,,,,,,,,,,,,,,,,,,,,,,,,45290,2022-11-15_10h19.57.434,vts_reward_expectancy_bt_OFFLINE,2022.2.4,60.09708564317028,
1,0,0,0,0,1,0,0,triangle,circle,2,0,2,0,2,5,29,0,,,,,,,,,,,,,,,,,,,,,,,,,,,,,,,,,,,,,,,,2801.3193305761088,2801.3193305761088,2801.3193305761088,2801.3193305761088,2801.3193305761088,2801.3193305761088,2801.3193305761088,2801.3193305761088,2801.3193305761088,2801.3193305761088,a,1.0059303909074515,1,756,2,2802.3540535331704,2803.855519637,,,,,,,,,,,,,,,,,,,,,,,,,,,,,,,,,,,,,,,,,,,,,,,,,,,,,,,,,,,,,,,,,,,,,,,45290,2022-11-15_10h19.57.434,vts_reward_expectancy_bt_OFFLINE,2022.2.4,60.09708564317028,
0,1,0,0,0,0,1,0,circle,hexagon,2,0,2,0,2,6,30,4,,,,,,,,,,,,,,,,,,,,,,,,,,,,,,,,,,,,,,,,2804.3560906059574,2804.3560906059574,2804.3560906059574,2804.3560906059574,2804.3560906059574,2804.3560906059574,2804.3560906059574,2804.3560906059574,2804.3560906059574,2804.3560906059574,l,0.6245938318315893,1,757,2,2805.0068109910935,2806.5084237421397,,,,,,,,,,,,,,,,,,,,,,,,,,,,,,,,,,,,,,,,,,,,,,,,,,,,,,,,,,,,,,,,,,,,,,,45290,2022-11-15_10h19.57.434,vts_reward_expectancy_bt_OFFLINE,2022.2.4,60.09708564317028,
0,0,1,0,0,1,0,0,hexagon,circle,2,0,2,0,2,7,31,7,,,,,,,,,,,,,,,,,,,,,,,,,,,,,,,,,,,,,,,,2807.0091297160834,2807.0091297160834,2807.0091297160834,2807.0091297160834,2807.0091297160834,2807.0091297160834,2807.0091297160834,2807.0091297160834,2807.0091297160834,2807.0091297160834,l,0.6841277068015188,10,767,2,2807.7099894599523,2809.211459486047,2809.211459486047,,,,,,,,,,,,,,,,,,,,,,,,,,,,,,,,,,,,,,,,,,,,,,,,,,,,,,,,,,,,,,,,,,,,,,45290,2022-11-15_10h19.57.434,vts_reward_expectancy_bt_OFFLINE,2022.2.4,60.09708564317028,
0,0,0,1,1,0,0,0,star,triangle,2,0,2,0,2,8,32,9,,,,,,,,,,,,,,,,,,,,,,,,,,,,,,,,,,,,,,,,2809.711786855012,2809.711786855012,2809.711786855012,2809.711786855012,2809.711786855012,2809.711786855012,2809.711786855012,2809.711786855012,2809.711786855012,2809.711786855012,a,0.7700515249744058,10,777,2,2810.512923500035,2812.0143677471206,,,,,,,,,,,,,,,,,,,,,,,,,,,,,,,,,,,,,,,,,,,,,,,,,,,,,,,,,,,,,,,,,,,,,,,45290,2022-11-15_10h19.57.434,vts_reward_expectancy_bt_OFFLINE,2022.2.4,60.09708564317028,
0,0,1,0,1,0,0,0,hexagon,triangle,2,0,2,0,2,9,33,6,,,,,,,,,,,,,,,,,,,,,,,,,,,,,,,,,,,,,,,,2812.5149986019824,2812.5149986019824,2812.5149986019824,2812.5149986019824,2812.5149986019824,2812.5149986019824,2812.5149986019824,2812.5149986019824,2812.5149986019824,2812.5149986019824,a,1.0721689579077065,1,778,2,2813.6162672610953,2815.118039007066,,,,,,,,,,,,,,,,,,,,,,,,,,,,,,,,,,,,,,,,,,,,,,,,,,,,,,,,,,,,,,,,,,,,,,,45290,2022-11-15_10h19.57.434,vts_reward_expectancy_bt_OFFLINE,2022.2.4,60.09708564317028,
0,0,1,0,0,0,0,1,hexagon,star,2,0,2,0,2,10,34,8,,,,,,,,,,,,,,,,,,,,,,,,,,,,,,,,,,,,,,,,2815.6184952571057,2815.6184952571057,2815.6184952571057,2815.6184952571057,2815.6184952571057,2815.6184952571057,2815.6184952571057,2815.6184952571057,2815.6184952571057,2815.6184952571057,l,0.9180902778171003,10,788,2,2816.5693943821825,2818.071057916153,,,,,,,,,,,,,,,,,,,,,,,,,,,,,,,,,,,,,,,,,,,,,,,,,,,,,,,,,,,,,,,,,,,,,,,45290,2022-11-15_10h19.57.434,vts_reward_expectancy_bt_OFFLINE,2022.2.4,60.09708564317028,
1,0,0,0,0,0,0,1,triangle,star,2,0,2,0,2,11,35,2,,,,,,,,,,,,,,,,,,,,,,,,,,,,,,,,,,,,,,,,2818.5718047071714,2818.5718047071714,2818.5718047071714,2818.5718047071714,2818.5718047071714,2818.5718047071714,2818.5718047071714,2818.5718047071714,2818.5718047071714,2818.5718047071714,l,0.7082119057886302,10,798,2,2819.3060582110193,2820.807649557013,,,,,,,,,,,,,,,,,,,,,,,,,,,,,,,,,,,,,,,,,,,,,,,,,,,,,,,,,,,,,,,,,,,,,,,45290,2022-11-15_10h19.57.434,vts_reward_expectancy_bt_OFFLINE,2022.2.4,60.09708564317028,
0,0,1,0,1,0,0,0,hexagon,triangle,2,0,2,0,3,0,36,6,,,,,,,,,,,,,,,,,,,,,,,,,,,,,,,,,,,,,,,,2821.3081710529514,2821.3081710529514,2821.3081710529514,2821.3081710529514,2821.3081710529514,2821.3081710529514,2821.3081710529514,2821.3081710529514,2821.3081710529514,2821.3081710529514,l,1.0544520877301693,1,799,2,2822.392598401988,2823.894375766162,,,,,,,,,,,,,,,,,,,,,,,,,,,,,,,,,,,,,,,,,,,,,,,,,,,,,,,,,,,,,,,,,,,,,,,45290,2022-11-15_10h19.57.434,vts_reward_expectancy_bt_OFFLINE,2022.2.4,60.09708564317028,
0,1,0,0,0,0,1,0,circle,hexagon,2,0,2,0,3,1,37,4,,,,,,,,,,,,,,,,,,,,,,,,,,,,,,,,,,,,,,,,2824.3948595121037,2824.3948595121037,2824.3948595121037,2824.3948595121037,2824.3948595121037,2824.3948595121037,2824.3948595121037,2824.3948595121037,2824.3948595121037,2824.3948595121037,l,0.5893428779672831,1,800,2,2825.012092269957,2826.513758568093,,,,,,,,,,,,,,,,,,,,,,,,,,,,,,,,,,,,,,,,,,,,,,,,,,,,,,,,,,,,,,,,,,,,,,,45290,2022-11-15_10h19.57.434,vts_reward_expectancy_bt_OFFLINE,2022.2.4,60.09708564317028,
0,0,0,1,0,0,1,0,star,hexagon,2,0,2,0,3,2,38,11,,,,,,,,,,,,,,,,,,,,,,,,,,,,,,,,,,,,,,,,2827.0143917070236,2827.0143917070236,2827.0143917070236,2827.0143917070236,2827.0143917070236,2827.0143917070236,2827.0143917070236,2827.0143917070236,2827.0143917070236,2827.0143917070236,a,0.6134835376869887,10,810,2,2827.6483658500947,2829.1501289149746,,,,,,,,,,,,,,,,,,,,,,,,,,,,,,,,,,,,,,,,,,,,,,,,,,,,,,,,,,,,,,,,,,,,,,,45290,2022-11-15_10h19.57.434,vts_reward_expectancy_bt_OFFLINE,2022.2.4,60.09708564317028,
0,1,0,0,1,0,0,0,circle,triangle,2,0,2,0,3,3,39,3,,,,,,,,,,,,,,,,,,,,,,,,,,,,,,,,,,,,,,,,2829.6506540479604,2829.6506540479604,2829.6506540479604,2829.6506540479604,2829.6506540479604,2829.6506540479604,2829.6506540479604,2829.6506540479604,2829.6506540479604,2829.6506540479604,a,0.835268477909267,1,811,2,2830.518252368085,2832.019673736999,,,,,,,,,,,,,,,,,,,,,,,,,,,,,,,,,,,,,,,,,,,,,,,,,,,,,,,,,,,,,,,,,,,,,,,45290,2022-11-15_10h19.57.434,vts_reward_expectancy_bt_OFFLINE,2022.2.4,60.09708564317028,
1,0,0,0,0,0,0,1,triangle,star,2,0,2,0,3,4,40,2,,,,,,,,,,,,,,,,,,,,,,,,,,,,,,,,,,,,,,,,2832.520495626144,2832.520495626144,2832.520495626144,2832.520495626144,2832.520495626144,2832.520495626144,2832.520495626144,2832.520495626144,2832.520495626144,2832.520495626144,l,0.8916181619279087,1,812,2,2833.438018421177,2834.939731681021,,,,,,,,,,,,,,,,,,,,,,,,,,,,,,,,,,,,,,,,,,,,,,,,,,,,,,,,,,,,,,,,,,,,,,,45290,2022-11-15_10h19.57.434,vts_reward_expectancy_bt_OFFLINE,2022.2.4,60.09708564317028,
0,0,0,1,0,1,0,0,star ,circle,2,0,2,0,3,5,41,10,,,,,,,,,,,,,,,,,,,,,,,,,,,,,,,,,,,,,,,,2835.4402830700856,2835.4402830700856,2835.4402830700856,2835.4402830700856,2835.4402830700856,2835.4402830700856,2835.4402830700856,2835.4402830700856,2835.4402830700856,2835.4402830700856,a,0.5471954396925867,1,813,2,2836.007568542147,2837.5091907100286,,,,,,,,,,,,,,,,,,,,,,,,,,,,,,,,,,,,,,,,,,,,,,,,,,,,,,,,,,,,,,,,,,,,,,,45290,2022-11-15_10h19.57.434,vts_reward_expectancy_bt_OFFLINE,2022.2.4,60.09708564317028,
1,0,0,0,0,1,0,0,triangle,circle,2,0,2,0,3,6,42,0,,,,,,,,,,,,,,,,,,,,,,,,,,,,,,,,,,,,,,,,2838.009918221971,2838.009918221971,2838.009918221971,2838.009918221971,2838.009918221971,2838.009918221971,2838.009918221971,2838.009918221971,2838.009918221971,2838.009918221971,a,0.8462336799129844,1,814,2,2838.8774785220157,2840.378982766997,,,,,,,,,,,,,,,,,,,,,,,,,,,,,,,,,,,,,,,,,,,,,,,,,,,,,,,,,,,,,,,,,,,,,,,45290,2022-11-15_10h19.57.434,vts_reward_expectancy_bt_OFFLINE,2022.2.4,60.09708564317028,
1,0,0,0,0,0,1,0,triangle,hexagon,2,0,2,0,3,7,43,1,,,,,,,,,,,,,,,,,,,,,,,,,,,,,,,,,,,,,,,,2840.879749307176,2840.879749307176,2840.879749307176,2840.879749307176,2840.879749307176,2840.879749307176,2840.879749307176,2840.879749307176,2840.879749307176,2840.879749307176,l,0.8686562720686197,10,824,2,2841.780411103042,2843.2823351251427,,,,,,,,,,,,,,,,,,,,,,,,,,,,,,,,,,,,,,,,,,,,,,,,,,,,,,,,,,,,,,,,,,,,,,,45290,2022-11-15_10h19.57.434,vts_reward_expectancy_bt_OFFLINE,2022.2.4,60.09708564317028,
0,0,0,1,1,0,0,0,star,triangle,2,0,2,0,3,8,44,9,,,,,,,,,,,,,,,,,,,,,,,,,,,,,,,,,,,,,,,,2843.782885462977,2843.782885462977,2843.782885462977,2843.782885462977,2843.782885462977,2843.782885462977,2843.782885462977,2843.782885462977,2843.782885462977,2843.782885462977,a,0.5748701838310808,10,834,2,2844.3834876359906,2845.885095022153,,,,,,,,,,,,,,,,,,,,,,,,,,,,,,,,,,,,,,,,,,,,,,,,,,,,,,,,,,,,,,,,,,,,,,,45290,2022-11-15_10h19.57.434,vts_reward_expectancy_bt_OFFLINE,2022.2.4,60.09708564317028,
0,0,1,0,0,1,0,0,hexagon,circle,2,0,2,0,3,9,45,7,,,,,,,,,,,,,,,,,,,,,,,,,,,,,,,,,,,,,,,,2846.3857879249845,2846.3857879249845,2846.3857879249845,2846.3857879249845,2846.3857879249845,2846.3857879249845,2846.3857879249845,2846.3857879249845,2846.3857879249845,2846.3857879249845,l,0.6847323740366846,1,835,2,2847.103121132124,2848.60475620511,,,,,,,,,,,,,,,,,,,,,,,,,,,,,,,,,,,,,,,,,,,,,,,,,,,,,,,,,,,,,,,,,,,,,,,45290,2022-11-15_10h19.57.434,vts_reward_expectancy_bt_OFFLINE,2022.2.4,60.09708564317028,
0,1,0,0,0,0,0,1,circle,star,2,0,2,0,3,10,46,5,,,,,,,,,,,,,,,,,,,,,,,,,,,,,,,,,,,,,,,,2849.105247985106,2849.105247985106,2849.105247985106,2849.105247985106,2849.105247985106,2849.105247985106,2849.105247985106,2849.105247985106,2849.105247985106,2849.105247985106,l,0.6419472298584878,10,845,2,2849.7730558679905,2851.274253945099,,,,,,,,,,,,,,,,,,,,,,,,,,,,,,,,,,,,,,,,,,,,,,,,,,,,,,,,,,,,,,,,,,,,,,,45290,2022-11-15_10h19.57.434,vts_reward_expectancy_bt_OFFLINE,2022.2.4,60.09708564317028,
0,0,1,0,0,0,0,1,hexagon,star,2,0,2,0,3,11,47,8,,,,,,,,,,,,,,,,,,,,,,,,,,,,,,,,,,,,,,,,2851.7749457580503,2851.7749457580503,2851.7749457580503,2851.7749457580503,2851.7749457580503,2851.7749457580503,2851.7749457580503,2851.7749457580503,2851.7749457580503,2851.7749457580503,l,0.8416190047282726,10,855,2,2852.6425819459837,2854.1443959181197,,,,,,,,,,,,,,,,,,,,,,,,,,,,,,,,,,,,,,,,,,,,,,,,,,,,,,,,,,,,,,,,,,,,,,,45290,2022-11-15_10h19.57.434,vts_reward_expectancy_bt_OFFLINE,2022.2.4,60.09708564317028,
,,,,,,,,,,,,,,,,,,0,0,0,0,0,0,0,0,,,,,,,,,,,,,,,,,,,,,,,,,,,,,,,,,,,,,,,,,,,,,,,,2885.5456748921424,,B,160,hexagon,0.00224532512947917,2879.5395110310055,2881.0403964719735,2881.0403964719735,2881.0403964719735,2884.0440517750103,2884.0440517750103,2884.0440517750103,2884.0440517750103,0,0,None,0,2884.0440517750103,2885.5456748921424,2886.0461819779593,,,,,,,,,,,,,,,,,,,,,,,,,,,,,,,,,,,,,,,,,,,,,,,,,,,45290,2022-11-15_10h19.57.434,vts_reward_expectancy_bt_OFFLINE,2022.2.4,60.09708564317028,
,,,,,,,,,,,,,,,,,,0,0,0,0,1,0,1,0,,,,,,,,,,,,,,,,,,,,,,,,,,,,,,,,,,,,,,,,,,,,,,,,2890.4011944599915,,W,132,circle,0.009191422024741769,2886.5471016701777,2888.0483533050865,2888.0483533050865,2888.0483533050865,,,,,1,1,f,0,2888.916165640112,,,0.8288973877206445,,,,,,,,,,,,,,,,,,,,,,,,,,,,,,,,,,,,,,,,,,,,,,,,,,45290,2022-11-15_10h19.57.434,vts_reward_expectancy_bt_OFFLINE,2022.2.4,60.09708564317028,
,,,,,,,,,,,,,,,,,,0,0,0,0,2,0,2,0,,,,,,,,,,,,,,,,,,,,,,,,,,,,,,,,,,,,,,,,,,,,,,,,2894.989455225179,,Y,146,star,0.0011186120100319386,2891.3852995980997,2892.8873855201527,2892.8873855201527,2892.8873855201527,,,,,1,0,f,0,2893.487610918004,,,0.5693398788571358,,,,,,,,,,,,,,,,,,,,,,,,,,,,,,,,,,,,,,,,,,,,,,,,,,45290,2022-11-15_10h19.57.434,vts_reward_expectancy_bt_OFFLINE,2022.2.4,60.09708564317028,
,,,,,,,,,,,,,,,,,,0,0,0,0,3,0,3,0,,,,,,,,,,,,,,,,,,,,,,,,,,,,,,,,,,,,,,,,,,,,,,,,2901.7635482961778,,H,181,triangle,0.0010562031529843807,2895.973924748134,2897.4754785830155,2897.4754785830155,2897.4754785830155,,,,,1,0,d,0,2900.2615620619617,,,2.754923250991851,,,,,,,,,,,,,,,,,,,,,,,,,,,,,,,,,,,,,,,,,,,,,,,,,,45290,2022-11-15_10h19.57.434,vts_reward_expectancy_bt_OFFLINE,2022.2.4,60.09708564317028,
,,,,,,,,,,,,,,,,,,0,0,0,0,4,0,4,0,,,,,,,,,,,,,,,,,,,,,,,,,,,,,,,,,,,,,,,,,,,,,,,,2906.2850445460062,,S,167,hexagon,0.001616277964785695,2902.7475722229574,2904.249491630122,2904.249491630122,2904.249491630122,,,,,1,0,f,0,2904.7838298350107,2906.2850445460062,,0.5157985480036587,,,,,,,,,,,,,,,,,,,,,,,,,,,,,,,,,,,,,,,,,,,,,,,,,,45290,2022-11-15_10h19.57.434,vts_reward_expectancy_bt_OFFLINE,2022.2.4,60.09708564317028,
,,,,,,,,,,,,,,,,,,0,0,0,0,5,0,5,0,,,,,,,,,,,,,,,,,,,,,,,,,,,,,,,,,,,,,,,,,,,,,,,,2910.7232134961523,,D,139,triangle,0.0008260351605713367,2907.270968943136,2908.7710807749536,2908.7710807749536,2908.7710807749536,,,,,1,0,d,0,2909.2215548101813,2910.7232134961523,,0.42489039804786444,,,,,,,,,,,,,,,,,,,,,,,,,,,,,,,,,,,,,,,,,,,,,,,,,,45290,2022-11-15_10h19.57.434,vts_reward_expectancy_bt_OFFLINE,2022.2.4,60.09708564317028,
,,,,,,,,,,,,,,,,,,0,0,0,0,6,0,6,0,,,,,,,,,,,,,,,,,,,,,,,,,,,,,,,,,,,,,,,,,,,,,,,,2915.1949977900367,,F,174,star,0.0014160019345581532,2911.707499312004,2913.209605135955,2913.209605135955,2913.209605135955,,,,,1,0,d,0,2913.6932975880336,2915.1949977900367,,0.4657385107129812,,,,,,,,,,,,,,,,,,,,,,,,,,,,,,,,,,,,,,,,,,,,,,,,,,45290,2022-11-15_10h19.57.434,vts_reward_expectancy_bt_OFFLINE,2022.2.4,60.09708564317028,
,,,,,,,,,,,,,,,,,,0,0,0,0,7,0,7,0,,,,,,,,,,,,,,,,,,,,,,,,,,,,,,,,,,,,,,,,,,,,,,,,2919.6834470320027,,U,125,circle,0.0008847559802234173,2916.179505027132,2917.681069500977,2917.681069500977,2917.681069500977,,,,,1,0,f,0,2918.181119226152,,,0.48369724582880735,,,,,,,,,,,,,,,,,,,,,,,,,,,,,,,,,,,,,,,,,,,,,,,,,,45290,2022-11-15_10h19.57.434,vts_reward_expectancy_bt_OFFLINE,2022.2.4,60.09708564317028,
,,,,,,,,,,,,,,,,,,0,0,0,0,8,0,8,0,,,,,,,,,,,,,,,,,,,,,,,,,,,,,,,,,,,,,,,,,,,,,,,,2924.071492827963,,B,160,circle,0.0011656649876385927,2920.667604731163,2922.169133177027,2922.169133177027,2922.169133177027,,,,,1,0,d,0,2922.569571946049,,,0.37043871986679733,,,,,,,,,,,,,,,,,,,,,,,,,,,,,,,,,,,,,,,,,,,,,,,,,,45290,2022-11-15_10h19.57.434,vts_reward_expectancy_bt_OFFLINE,2022.2.4,60.09708564317028,
,,,,,,,,,,,,,,,,,,0,0,0,0,9,0,9,0,,,,,,,,,,,,,,,,,,,,,,,,,,,,,,,,,,,,,,,,,,,,,,,,2928.4926803121343,,W,132,triangle,0.0013293190859258175,2925.055602877168,2926.5575225199573,2926.5575225199573,2926.5575225199573,,,,,1,0,f,0,2926.9912972380407,2928.4926803121343,,0.4037146277260035,,,,,,,,,,,,,,,,,,,,,,,,,,,,,,,,,,,,,,,,,,,,,,,,,,45290,2022-11-15_10h19.57.434,vts_reward_expectancy_bt_OFFLINE,2022.2.4,60.09708564317028,
,,,,,,,,,,,,,,,,,,,,,,,,,,0,0,0,0,0,0,0,0,,,,,,,,,,,,,,,,,,,,,,,,,,,,,,,,,,,,,,,,2959.8105355531443,,B,132,hexagon,0.0011636228300631046,,,,,,,,,1,0,,1,2958.309192257002,,,,2956.073315548012,2957.5748463030905,2957.5748463030905,2957.5748463030905,j,0.7087182828690857,,,,,,,,,,,,,,,,,,,,,,,,,,,,,,,,,,,,,,,,,,,,45290,2022-11-15_10h19.57.434,vts_reward_expectancy_bt_OFFLINE,2022.2.4,60.09708564317028,
,,,,,,,,,,,,,,,,,,,,,,,,,,0,0,0,0,1,0,1,0,,,,,,,,,,,,,,,,,,,,,,,,,,,,,,,,,,,,,,,,2964.248903675005,,H,167,circle,0.0011786550749093294,,,,,,,,,1,0,,1,2962.747509937035,2964.248903675005,,,2960.796305820113,2962.2969949420076,2962.2969949420076,2962.2969949420076,k,0.43229416594840586,,,,,,,,,,,,,,,,,,,,,,,,,,,,,,,,,,,,,,,,,,,,45290,2022-11-15_10h19.57.434,vts_reward_expectancy_bt_OFFLINE,2022.2.4,60.09708564317028,
,,,,,,,,,,,,,,,,,,,,,,,,,,0,0,0,0,2,0,2,0,,,,,,,,,,,,,,,,,,,,,,,,,,,,,,,,,,,,,,,,2968.821015332127,,W,181,triangle,0.001015232875943184,,,,,,,,,1,0,,1,2967.3190924229566,,,,2965.2337622370105,2966.7353626801632,2966.7353626801632,2966.7353626801632,k,0.5597453599330038,,,,,,,,,,,,,,,,,,,,,,,,,,,,,,,,,,,,,,,,,,,,45290,2022-11-15_10h19.57.434,vts_reward_expectancy_bt_OFFLINE,2022.2.4,60.09708564317028,
,,,,,,,,,,,,,,,,,,,,,,,,,,0,0,0,0,3,0,3,0,,,,,,,,,,,,,,,,,,,,,,,,,,,,,,,,,,,,,,,,2973.325467595132,,F,139,star,0.0013891118578612804,,,,,,,,,1,0,,1,2971.824492901098,,,,2969.8049954911694,2971.3068408721592,2971.3068408721592,2971.3068408721592,j,0.49031675001606345,,,,,,,,,,,,,,,,,,,,,,,,,,,,,,,,,,,,,,,,,,,,45290,2022-11-15_10h19.57.434,vts_reward_expectancy_bt_OFFLINE,2022.2.4,60.09708564317028,
,,,,,,,,,,,,,,,,,,,,,,,,,,0,0,0,0,4,0,4,0,,,,,,,,,,,,,,,,,,,,,,,,,,,,,,,,,,,,,,,,2977.7969775369857,,Y,125,star,0.0008572197984904051,,,,,,,,,1,0,,1,2976.2955347001553,,,,2974.309896155959,2975.812126009958,2975.812126009958,2975.812126009958,j,0.4509113267995417,,,,,,,,,,,,,,,,,,,,,,,,,,,,,,,,,,,,,,,,,,,,45290,2022-11-15_10h19.57.434,vts_reward_expectancy_bt_OFFLINE,2022.2.4,60.09708564317028,
,,,,,,,,,,,,,,,,,,,,,,,,,,0,0,0,0,5,0,5,0,,,,,,,,,,,,,,,,,,,,,,,,,,,,,,,,,,,,,,,,2982.3188390331343,,S,174,triangle,0.0010558851063251495,,,,,,,,,1,0,,1,2980.817289567087,2982.3188390331343,,,2978.781701346161,2980.2834892510436,2980.2834892510436,2980.2834892510436,k,0.51260248105973,,,,,,,,,,,,,,,,,,,,,,,,,,,,,,,,,,,,,,,,,,,,45290,2022-11-15_10h19.57.434,vts_reward_expectancy_bt_OFFLINE,2022.2.4,60.09708564317028,
,,,,,,,,,,,,,,,,,,,,,,,,,,0,0,0,0,6,0,6,0,,,,,,,,,,,,,,,,,,,,,,,,,,,,,,,,,,,,,,,,2986.9575844760984,,D,160,circle,0.001085649011656642,,,,,,,,,1,0,,1,2985.45572527498,,,,2983.3036182380747,2984.8048909530044,2984.8048909530044,2984.8048909530044,k,0.6270210559014231,,,,,,,,,,,,,,,,,,,,,,,,,,,,,,,,,,,,,,,,,,,,45290,2022-11-15_10h19.57.434,vts_reward_expectancy_bt_OFFLINE,2022.2.4,60.09708564317028,
,,,,,,,,,,,,,,,,,,,,,,,,,,0,0,0,0,7,0,7,0,,,,,,,,,,,,,,,,,,,,,,,,,,,,,,,,,,,,,,,,2992.0963182181586,,U,146,hexagon,0.0014584360178560019,,,,,,,,,0,0,,1,2990.5952626611106,,,,2987.9416640221607,2989.443431585096,2989.443431585096,2989.443431585096,k,1.1303131699096411,,,,,,,,,,,,,,,,,,,,,,,,,,,,,,,,,,,,,,,,,,,,45290,2022-11-15_10h19.57.434,vts_reward_expectancy_bt_OFFLINE,2022.2.4,60.09708564317028,
,,,,,,,,,,,,,,,,,,,,,,,,,,0,0,0,0,8,0,8,0,,,,,,,,,,,,,,,,,,,,,,,,,,,,,,,,,,,,,,,,2996.5844899520744,,B,132,circle,0.0018105260096490383,,,,,,,,,1,1,,1,2995.082987571135,,,,2993.0810254230164,2994.582475290168,2994.582475290168,2994.582475290168,j,0.46928387181833386,,,,,,,,,,,,,,,,,,,,,,,,,,,,,,,,,,,,,,,,,,,,45290,2022-11-15_10h19.57.434,vts_reward_expectancy_bt_OFFLINE,2022.2.4,60.09708564317028,
,,,,,,,,,,,,,,,,,,,,,,,,,,0,0,0,0,9,0,9,0,,,,,,,,,,,,,,,,,,,,,,,,,,,,,,,,,,,,,,,,3001.1065738911275,,H,167,star,0.001550682820379734,,,,,,,,,1,0,,1,2999.604719503084,3001.1065738911275,,,2997.5690018751193,2999.070839707041,2999.070839707041,2999.070839707041,k,0.5034026799257845,,,,,,,,,,,,,,,,,,,,,,,,,,,,,,,,,,,,,,,,,,,,45290,2022-11-15_10h19.57.434,vts_reward_expectancy_bt_OFFLINE,2022.2.4,60.09708564317028,
,,,,,,,,,,,,,,,,,,,,,,,,,,,,,,,,,,0,0,0,0,0,0,0,0,,,,,,,,,,,,,,,,,,,,,,,,,,,,0,855,,,3042.952427112963,,H,146,triangle,0.001895872876048088,,,,,,,,,1,0,,2,,,,,,,,,,,3038.8480055220425,3038.8480055220425,3038.8480055220425,3038.8480055220425,3040.3329938671086,3040.3329938671086,3040.3329938671086,3040.3329938671086,3040.3495333071332,3040.3495333071332,3040.3495333071332,3040.3495333071332,-1,letter,NA,d,1.0853810929693282,vtsPrac,3041.4513625451364,,,,,,,,,,,,,,,,,,,,,,,,,45290,2022-11-15_10h19.57.434,vts_reward_expectancy_bt_OFFLINE,2022.2.4,60.09708564317028,
,,,,,,,,,,,,,,,,,,,,,,,,,,,,,,,,,,0,0,0,0,1,0,1,0,,,,,,,,,,,,,,,,,,,,,,,,,,,,0,855,,,3047.7245222630445,,F,181,circle,0.0011465458665043116,,,,,,,,,1,0,,2,,,,,,,,,,,3043.936921617016,3043.936921617016,3043.936921617016,3043.936921617016,3045.4387064210605,3045.4387064210605,3045.4387064210605,3045.4387064210605,3045.4387064210605,3045.4387064210605,3045.4387064210605,3045.4387064210605,repeat,letter,lettRpt,d,0.7582558246795088,vtsPrac,3046.2228315761313,3047.7245222630445,,,,,,,,,,,,,,,,,,,,,,,,45290,2022-11-15_10h19.57.434,vts_reward_expectancy_bt_OFFLINE,2022.2.4,60.09708564317028,
,,,,,,,,,,,,,,,,,,,,,,,,,,,,,,,,,,0,0,0,0,2,0,2,0,,,,,,,,,,,,,,,,,,,,,,,,,,,,0,855,,,3052.096074786037,,S,174,circle,0.0011494080536067486,,,,,,,,,1,0,,2,,,,,,,,,,,3048.7087444250938,3048.7087444250938,3048.7087444250938,3048.7087444250938,3050.2103603349533,3050.2103603349533,3050.2103603349533,3050.2103603349533,3050.2103603349533,3050.2103603349533,3050.2103603349533,3050.2103603349533,switch,number,numSwt,k,0.36500006588175893,vtsPrac,3050.5948684960604,3052.096074786037,,,,,,,,,,,,,,,,,,,,,,,,45290,2022-11-15_10h19.57.434,vts_reward_expectancy_bt_OFFLINE,2022.2.4,60.09708564317028,
,,,,,,,,,,,,,,,,,,,,,,,,,,,,,,,,,,0,0,0,0,3,0,3,0,,,,,,,,,,,,,,,,,,,,,,,,,,,,0,855,,,3056.7178810900077,,B,139,hexagon,0.0007055040914565325,,,,,,,,,1,0,,2,,,,,,,,,,,3053.080942303175,3053.080942303175,3053.080942303175,3053.080942303175,3054.5818994969595,3054.5818994969595,3054.5818994969595,3054.5818994969595,3054.5818994969595,3054.5818994969595,3054.5818994969595,3054.5818994969595,switch,letter,lettSwt,d,0.606257515726611,vtsPrac,3055.2158605600707,,,,,,,,,,,,,,,,,,,,,,,,,45290,2022-11-15_10h19.57.434,vts_reward_expectancy_bt_OFFLINE,2022.2.4,60.09708564317028,
,,,,,,,,,,,,,,,,,,,,,,,,,,,,,,,,,,0,0,0,0,4,0,4,0,,,,,,,,,,,,,,,,,,,,,,,,,,,,0,855,,,3061.272823122097,,H,146,star,0.0011201549787074327,,,,,,,,,1,0,,2,,,,,,,,,,,3057.7021026150323,3057.7021026150323,3057.7021026150323,3057.7021026150323,3059.2037174871657,3059.2037174871657,3059.2037174871657,3059.2037174871657,3059.2037174871657,3059.2037174871657,3059.2037174871657,3059.2037174871657,repeat,letter,lettRpt,d,0.5402281780261546,vtsPrac,3059.7710459071677,,,,,,,,,,,,,,,,,,,,,,,,,45290,2022-11-15_10h19.57.434,vts_reward_expectancy_bt_OFFLINE,2022.2.4,60.09708564317028,
,,,,,,,,,,,,,,,,,,,,,,,,,,,,,,,,,,0,0,0,0,5,0,5,0,,,,,,,,,,,,,,,,,,,,,,,,,,,,0,855,,,3065.7776678011287,,F,181,hexagon,0.001021409872919321,,,,,,,,,1,0,,2,,,,,,,,,,,3062.2572640830185,3062.2572640830185,3062.2572640830185,3062.2572640830185,3063.7585684920195,3063.7585684920195,3063.7585684920195,3063.7585684920195,3063.7585684920195,3063.7585684920195,3063.7585684920195,3063.7585684920195,switch,number,numSwt,k,0.48523696791380644,vtsPrac,3064.2762918681838,3065.7776678011287,,,,,,,,,,,,,,,,,,,,,,,,45290,2022-11-15_10h19.57.434,vts_reward_expectancy_bt_OFFLINE,2022.2.4,60.09708564317028,
,,,,,,,,,,,,,,,,,,,,,,,,,,,,,,,,,,0,0,0,0,6,0,6,0,,,,,,,,,,,,,,,,,,,,,,,,,,,,0,855,,,3070.33261063206,,S,174,star,0.0011469169985502958,,,,,,,,,1,0,,2,,,,,,,,,,,3066.7620565961115,3066.7620565961115,3066.7620565961115,3066.7620565961115,3068.263825581176,3068.263825581176,3068.263825581176,3068.263825581176,3068.263825581176,3068.263825581176,3068.263825581176,3068.263825581176,repeat,number,numRpt,k,0.5364015449304134,vtsPrac,3068.8309261600953,,,,,,,,,,,,,,,,,,,,,,,,,45290,2022-11-15_10h19.57.434,vts_reward_expectancy_bt_OFFLINE,2022.2.4,60.09708564317028,
,,,,,,,,,,,,,,,,,,,,,,,,,,,,,,,,,,0,0,0,0,7,0,7,0,,,,,,,,,,,,,,,,,,,,,,,,,,,,0,855,,,3074.7876429769676,,B,139,triangle,0.0013915430754423141,,,,,,,,,1,0,,2,,,,,,,,,,,3071.3171976620797,3071.3171976620797,3071.3171976620797,3071.3171976620797,3072.818726700032,3072.818726700032,3072.818726700032,3072.818726700032,3072.818726700032,3072.818726700032,3072.818726700032,3072.818726700032,repeat,number,numRpt,j,0.43631531205028296,vtsPrac,3073.2860390781425,3074.7876429769676,,,,,,,,,,,,,,,,,,,,,,,,45290,2022-11-15_10h19.57.434,vts_reward_expectancy_bt_OFFLINE,2022.2.4,60.09708564317028,
,,,,,,,,,,,,,,,,,,,,,,,,,,,,,,,,,,0,0,0,0,8,0,8,0,,,,,,,,,,,,,,,,,,,,,,,,,,,,0,855,,,3079.3927582199685,,B,139,star,0.0010625440627336502,,,,,,,,,1,0,,2,,,,,,,,,,,3075.7719511410687,3075.7719511410687,3075.7719511410687,3075.7719511410687,3077.273735941155,3077.273735941155,3077.273735941155,3077.273735941155,3077.273735941155,3077.273735941155,3077.273735941155,3077.273735941155,switch,letter,lettSwt,d,0.585027395747602,vtsPrac,3077.891211847076,,,,,,,,,,,,,,,,,,,,,,,,,45290,2022-11-15_10h19.57.434,vts_reward_expectancy_bt_OFFLINE,2022.2.4,60.09708564317028,
,,,,,,,,,,,,,,,,,,,,,,,,,,,,,,,,,,0,0,0,0,9,0,9,0,,,,,,,,,,,,,,,,,,,,,,,,,,,,0,855,,,3083.847760898061,,U,125,triangle,0.001184173859655857,,,,,,,,,1,0,,2,,,,,,,,,,,3080.37756198016,3080.37756198016,3080.37756198016,3080.37756198016,3081.878837567987,3081.878837567987,3081.878837567987,3081.878837567987,3081.878837567987,3081.878837567987,3081.878837567987,3081.878837567987,switch,number,numSwt,j,0.4350518728606403,vtsPrac,3082.3460338520817,,,,,,,,,,,,,,,,,,,,,,,,,45290,2022-11-15_10h19.57.434,vts_reward_expectancy_bt_OFFLINE,2022.2.4,60.09708564317028,
,,,,,,,,,,,,,,,,,,,,,,,,,,,,,,,,,,0,0,0,0,10,0,10,0,,,,,,,,,,,,,,,,,,,,,,,,,,,,0,855,,,3088.2525935100857,,H,174,hexagon,0.001292502973228693,,,,,,,,,1,0,,2,,,,,,,,,,,3084.8322571630124,3084.8322571630124,3084.8322571630124,3084.8322571630124,3086.3338083659764,3086.3338083659764,3086.3338083659764,3086.3338083659764,3086.3338083659764,3086.3338083659764,3086.3338083659764,3086.3338083659764,repeat,number,numRpt,k,0.3899990657810122,vtsPrac,3086.7507623920683,,,,,,,,,,,,,,,,,,,,,,,,,45290,2022-11-15_10h19.57.434,vts_reward_expectancy_bt_OFFLINE,2022.2.4,60.09708564317028,
,,,,,,,,,,,,,,,,,,,,,,,,,,,,,,,,,,0,0,0,0,11,0,11,0,,,,,,,,,,,,,,,,,,,,,,,,,,,,0,855,,,3092.707272354979,,W,160,star,0.0013804708141833544,,,,,,,,,1,0,,2,,,,,,,,,,,3089.236765037058,3089.236765037058,3089.236765037058,3089.236765037058,3090.738294061972,3090.738294061972,3090.738294061972,3090.738294061972,3090.738294061972,3090.738294061972,3090.738294061972,3090.738294061972,repeat,number,numRpt,k,0.44051988888531923,vtsPrac,3091.205843226984,,,,,,,,,,,,,,,,,,,,,,,,,45290,2022-11-15_10h19.57.434,vts_reward_expectancy_bt_OFFLINE,2022.2.4,60.09708564317028,
,,,,,,,,,,,,,,,,,,,,,,,,,,,,,,,,,,0,0,0,0,12,0,12,0,,,,,,,,,,,,,,,,,,,,,,,,,,,,0,855,,,3097.2129814899527,,W,125,hexagon,0.0010076030157506466,,,,,,,,,1,0,,2,,,,,,,,,,,3093.6918018551078,3093.6918018551078,3093.6918018551078,3093.6918018551078,3095.193517848151,3095.193517848151,3095.193517848151,3095.193517848151,3095.193517848151,3095.193517848151,3095.193517848151,3095.193517848151,switch,letter,lettSwt,f,0.496705018915236,vtsPrac,3095.710943541024,,,,,,,,,,,,,,,,,,,,,,,,,45290,2022-11-15_10h19.57.434,vts_reward_expectancy_bt_OFFLINE,2022.2.4,60.09708564317028,
,,,,,,,,,,,,,,,,,,,,,,,,,,,,,,,,,,0,0,0,0,13,0,13,0,,,,,,,,,,,,,,,,,,,,,,,,,,,,0,855,,,3101.750818032073,,U,174,circle,0.001451592892408371,,,,,,,,,1,0,,2,,,,,,,,,,,3098.1967414100654,3098.1967414100654,3098.1967414100654,3098.1967414100654,3099.698633932043,3099.698633932043,3099.698633932043,3099.698633932043,3099.698633932043,3099.698633932043,3099.698633932043,3099.698633932043,repeat,letter,lettRpt,f,0.525084595894441,vtsPrac,3100.248995680129,,,,,,,,,,,,,,,,,,,,,,,,,45290,2022-11-15_10h19.57.434,vts_reward_expectancy_bt_OFFLINE,2022.2.4,60.09708564317028,
,,,,,,,,,,,,,,,,,,,,,,,,,,,,,,,,,,0,0,0,0,14,0,14,0,,,,,,,,,,,,,,,,,,,,,,,,,,,,0,855,,,3106.372520911973,,D,160,circle,0.0013060560449957848,,,,,,,,,1,0,,2,,,,,,,,,,,3102.73500152817,3102.73500152817,3102.73500152817,3102.73500152817,3104.236960376147,3104.236960376147,3104.236960376147,3104.236960376147,3104.236960376147,3104.236960376147,3104.236960376147,3104.236960376147,repeat,letter,lettRpt,d,0.6013045308645815,vtsPrac,3104.870696897153,,,,,,,,,,,,,,,,,,,,,,,,,45290,2022-11-15_10h19.57.434,vts_reward_expectancy_bt_OFFLINE,2022.2.4,60.09708564317028,
,,,,,,,,,,,,,,,,,,,,,,,,,,,,,,,,,,0,0,0,0,15,0,15,0,,,,,,,,,,,,,,,,,,,,,,,,,,,,0,855,,,3111.1613271350507,,Y,139,star,0.0011465409770607948,,,,,,,,,1,0,,2,,,,,,,,,,,3107.357056887122,3107.357056887122,3107.357056887122,3107.357056887122,3108.858736470109,3108.858736470109,3108.858736470109,3108.858736470109,3108.858736470109,3108.858736470109,3108.858736470109,3108.858736470109,switch,number,numSwt,j,0.7704807347618043,vtsPrac,3109.659534950042,,,,,,,,,,,,,,,,,,,,,,,,,45290,2022-11-15_10h19.57.434,vts_reward_expectancy_bt_OFFLINE,2022.2.4,60.09708564317028,
,,,,,,,,,,,,,,,,,,,,,,,,,,,,,,,,,,0,0,0,0,16,0,16,0,,,,,,,,,,,,,,,,,,,,,,,,,,,,0,855,,,3115.5660499620717,,Y,181,hexagon,0.001600049901753664,,,,,,,,,1,0,,2,,,,,,,,,,,3112.145741363056,3112.145741363056,3112.145741363056,3112.145741363056,3113.6470767471474,3113.6470767471474,3113.6470767471474,3113.6470767471474,3113.6470767471474,3113.6470767471474,3113.6470767471474,3113.6470767471474,switch,letter,lettSwt,f,0.3934642788954079,vtsPrac,3114.0642738770694,,,,,,,,,,,,,,,,,,,,,,,,,45290,2022-11-15_10h19.57.434,vts_reward_expectancy_bt_OFFLINE,2022.2.4,60.09708564317028,
,,,,,,,,,,,,,,,,,,,,,,,,,,,,,,,,,,0,0,0,0,17,0,17,0,,,,,,,,,,,,,,,,,,,,,,,,,,,,0,855,,,3120.1710306771565,,H,146,triangle,0.0011014752089977264,,,,,,,,,1,0,,2,,,,,,,,,,,3116.550330418162,3116.550330418162,3116.550330418162,3116.550330418162,3118.0520344830584,3118.0520344830584,3118.0520344830584,3118.0520344830584,3118.0520344830584,3118.0520344830584,3118.0520344830584,3118.0520344830584,switch,number,numSwt,j,0.5904233078472316,vtsPrac,3118.6693192331586,,,,,,,,,,,,,,,,,,,,,,,,,45290,2022-11-15_10h19.57.434,vts_reward_expectancy_bt_OFFLINE,2022.2.4,60.09708564317028,
,,,,,,,,,,,,,,,,,,,,,,,,,,,,,,,,,,0,0,0,0,18,0,18,0,,,,,,,,,,,,,,,,,,,,,,,,,,,,0,855,,,3124.6426467101555,,S,132,circle,0.0009732639882713556,,,,,,,,,1,0,,2,,,,,,,,,,,3121.155419346178,3121.155419346178,3121.155419346178,3121.155419346178,3122.657223802991,3122.657223802991,3122.657223802991,3122.657223802991,3122.657223802991,3122.657223802991,3122.657223802991,3122.657223802991,repeat,number,numRpt,j,0.45171652385033667,vtsPrac,3123.1409131430555,,,,,,,,,,,,,,,,,,,,,,,,,45290,2022-11-15_10h19.57.434,vts_reward_expectancy_bt_OFFLINE,2022.2.4,60.09708564317028,
,,,,,,,,,,,,,,,,,,,,,,,,,,,,,,,,,,0,0,0,0,19,0,19,0,,,,,,,,,,,,,,,,,,,,,,,,,,,,0,855,,,3129.097514691064,,F,167,star,0.0012994189746677876,,,,,,,,,1,0,,2,,,,,,,,,,,3125.627244457137,3125.627244457137,3125.627244457137,3125.627244457137,3127.1287736119702,3127.1287736119702,3127.1287736119702,3127.1287736119702,3127.1287736119702,3127.1287736119702,3127.1287736119702,3127.1287736119702,switch,letter,lettSwt,d,0.4456630968488753,vtsPrac,3127.5956538720056,,,,,,,,,,,,,,,,,,,,,,,,,45290,2022-11-15_10h19.57.434,vts_reward_expectancy_bt_OFFLINE,2022.2.4,60.09708564317028,
,,,,,,,,,,,,,,,,,,,,,,,,,,,,,,,,,,0,0,0,0,20,0,20,0,,,,,,,,,,,,,,,,,,,,,,,,,,,,0,855,,,3133.6859243111685,,F,167,star,0.0012819550465792418,,,,,,,,,1,0,,2,,,,,,,,,,,3130.081911717076,3130.081911717076,3130.081911717076,3130.081911717076,3131.583639617078,3131.583639617078,3131.583639617078,3131.583639617078,3131.583639617078,3131.583639617078,3131.583639617078,3131.583639617078,repeat,letter,lettRpt,d,0.5824952449183911,vtsPrac,3132.184315677965,,,,,,,,,,,,,,,,,,,,,,,,,45290,2022-11-15_10h19.57.434,vts_reward_expectancy_bt_OFFLINE,2022.2.4,60.09708564317028,
,,,,,,,,,,,,,,,,,,,,,,,,,,,,,,,,,,0,0,0,0,21,0,21,0,,,,,,,,,,,,,,,,,,,,,,,,,,,,0,855,,,3138.1744200580288,,B,160,triangle,0.0013471799902617931,,,,,,,,,1,0,,2,,,,,,,,,,,3134.670446088072,3134.670446088072,3134.670446088072,3134.670446088072,3136.172205303097,3136.172205303097,3136.172205303097,3136.172205303097,3136.172205303097,3136.172205303097,3136.172205303097,3136.172205303097,repeat,letter,lettRpt,d,0.4702194379642606,vtsPrac,3136.6725140830968,3138.1744200580288,,,,,,,,,,,,,,,,,,,,,,,,45290,2022-11-15_10h19.57.434,vts_reward_expectancy_bt_OFFLINE,2022.2.4,60.09708564317028,
,,,,,,,,,,,,,,,,,,,,,,,,,,,,,,,,,,0,0,0,0,22,0,22,0,,,,,,,,,,,,,,,,,,,,,,,,,,,,0,855,,,3142.6125331311487,,H,139,hexagon,0.0010776908602565527,,,,,,,,,1,0,,2,,,,,,,,,,,3139.158794985153,3139.158794985153,3139.158794985153,3139.158794985153,3140.660329382168,3140.660329382168,3140.660329382168,3140.660329382168,3140.660329382168,3140.660329382168,3140.660329382168,3140.660329382168,switch,number,numSwt,j,0.4177824219223112,vtsPrac,3141.11075415113,,,,,,,,,,,,,,,,,,,,,,,,,45290,2022-11-15_10h19.57.434,vts_reward_expectancy_bt_OFFLINE,2022.2.4,60.09708564317028,
,,,,,,,,,,,,,,,,,,,,,,,,,,,,,,,,,,0,0,0,0,23,0,23,0,,,,,,,,,,,,,,,,,,,,,,,,,,,,0,855,,,3147.1342461169697,,Y,181,circle,0.0013894429430365562,,,,,,,,,1,0,,2,,,,,,,,,,,3143.5970657521393,3143.5970657521393,3143.5970657521393,3143.5970657521393,3145.0986483129673,3145.0986483129673,3145.0986483129673,3145.0986483129673,3145.0986483129673,3145.0986483129673,3145.0986483129673,3145.0986483129673,repeat,number,numRpt,k,0.5012216558679938,vtsPrac,3145.632236703066,,,,,,,,,,,,,,,,,,,,,,,,,45290,2022-11-15_10h19.57.434,vts_reward_expectancy_bt_OFFLINE,2022.2.4,60.09708564317028,
,,,,,,,,,,,,,,,,,,,,,,,,,,,,,,,,,,0,0,0,0,24,0,24,0,,,,,,,,,,,,,,,,,,,,,,,,,,,,0,855,,,3151.655731776962,,D,139,triangle,0.0012760402169078588,,,,,,,,,1,0,,2,,,,,,,,,,,3148.1186034830753,3148.1186034830753,3148.1186034830753,3148.1186034830753,3149.6201727960724,3149.6201727960724,3149.6201727960724,3149.6201727960724,3149.6201727960724,3149.6201727960724,3149.6201727960724,3149.6201727960724,switch,letter,lettSwt,d,0.5121308607049286,vtsPrac,3150.1540582601447,,,,,,,,,,,,,,,,,,,,,,,,,45290,2022-11-15_10h19.57.434,vts_reward_expectancy_bt_OFFLINE,2022.2.4,60.09708564317028,
,,,,,,,,,,,,,,,,,,,,,,,,,,,,,,,,,,0,0,0,0,25,0,25,0,,,,,,,,,,,,,,,,,,,,,,,,,,,,0,855,,,3156.1608414209913,,H,181,star,0.0011893699411302805,,,,,,,,,1,0,,2,,,,,,,,,,,3152.6401585661806,3152.6401585661806,3152.6401585661806,3152.6401585661806,3154.1420028279535,3154.1420028279535,3154.1420028279535,3154.1420028279535,3154.1420028279535,3154.1420028279535,3154.1420028279535,3154.1420028279535,switch,number,numSwt,k,0.49134127190336585,vtsPrac,3154.6593520820606,,,,,,,,,,,,,,,,,,,,,,,,,45290,2022-11-15_10h19.57.434,vts_reward_expectancy_bt_OFFLINE,2022.2.4,60.09708564317028,
,,,,,,,,,,,,,,,,,,,,,,,,,,,,,,,,,,0,0,0,0,26,0,26,0,,,,,,,,,,,,,,,,,,,,,,,,,,,,0,855,,,3160.682450406952,,F,174,triangle,0.0011477838270366192,,,,,,,,,1,0,,2,,,,,,,,,,,3157.145162836183,3157.145162836183,3157.145162836183,3157.145162836183,3158.646887046052,3158.646887046052,3158.646887046052,3158.646887046052,3158.646887046052,3158.646887046052,3158.646887046052,3158.646887046052,switch,letter,lettSwt,d,0.50931676174514,vtsPrac,3159.180738090072,3160.682450406952,,,,,,,,,,,,,,,,,,,,,,,,45290,2022-11-15_10h19.57.434,vts_reward_expectancy_bt_OFFLINE,2022.2.4,60.09708564317028,
,,,,,,,,,,,,,,,,,,,,,,,,,,,,,,,,,,0,0,0,0,27,0,27,0,,,,,,,,,,,,,,,,,,,,,,,,,,,,0,855,,,3165.270918808179,,S,160,circle,0.0011089800391346216,,,,,,,,,1,0,,2,,,,,,,,,,,3161.6669454821385,3161.6669454821385,3161.6669454821385,3161.6669454821385,3163.168419777183,3163.168419777183,3163.168419777183,3163.168419777183,3163.168419777183,3163.168419777183,3163.168419777183,3163.168419777183,repeat,letter,lettRpt,f,0.5776531167794019,vtsPrac,3163.769398508128,3165.270918808179,,,,,,,,,,,,,,,,,,,,,,,,45290,2022-11-15_10h19.57.434,vts_reward_expectancy_bt_OFFLINE,2022.2.4,60.09708564317028,
