LTriangleOpac,LCircleOpac,LHexagonOpac,LStarOpac,RTriangleOpac,RCircleOpac,RHexagonOpac,RStarOpac,LShape_ID,RShape_ID,training_blocks.thisRepN,training_blocks.thisTrialN,training_blocks.thisN,training_blocks.thisIndex,training.thisRepN,training.thisTrialN,training.thisN,training.thisIndex,task1_prac_redo.thisRepN,task1_prac_redo.thisTrialN,task1_prac_redo.thisN,task1_prac_redo.thisIndex,task1_prac_trials.thisRepN,task1_prac_trials.thisTrialN,task1_prac_trials.thisN,task1_prac_trials.thisIndex,task2_prac_redo.thisRepN,task2_prac_redo.thisTrialN,task2_prac_redo.thisN,task2_prac_redo.thisIndex,task2_praac_trials.thisRepN,task2_praac_trials.thisTrialN,task2_praac_trials.thisN,task2_praac_trials.thisIndex,vts_prac_redo.thisRepN,vts_prac_redo.thisTrialN,vts_prac_redo.thisN,vts_prac_redo.thisIndex,vts_practice_trials.thisRepN,vts_practice_trials.thisTrialN,vts_practice_trials.thisN,vts_practice_trials.thisIndex,trials_norew.thisRepN,trials_norew.thisTrialN,trials_norew.thisN,trials_norew.thisIndex,block.thisRepN,block.thisTrialN,block.thisN,block.thisIndex,trials_rew.thisRepN,trials_rew.thisTrialN,trials_rew.thisN,trials_rew.thisIndex,key_resp.started,key_resp.keys,key_resp.rt,left_circle.started,right_circle.started,left_triangle.started,right_triangle.started,left_star.started,right_star.started,left_hexagon.started,right_hexagon.started,training_fix.started,training_resp.started,training_resp.keys,training_resp.rt,points_trial,points_cumul,trainBlock,training_feedback_txt.started,fix.started,training_feedback_txt.stopped,fix.stopped,curr_topStim,curr_bottStim,curr_shape,ISI.started,tgt_fix_prac1.started,top_target_prac1.started,bott_target_prac1.started,target_resp_prac1.started,acc,E1,target_resp_prac1.keys,target_resp_prac1.rt,pracBlock,prac_fback_text.started,tgt_fix_prac2.started,top_target_prac2.started,bott_target_prac2.started,target_resp_prac2.started,target_resp_prac2.keys,target_resp_prac2.rt,star.started,hegagon.started,triangle.started,circle.started,top_target.started,tgt_fix.started,bot_target.started,target_resp.started,star.stopped,hegagon.stopped,triangle.stopped,circle.stopped,alt,task,condition,target_resp.keys,target_resp.rt,rewCond,vts_fback.started,vts_fback.stopped,top_target.stopped,tgt_fix.stopped,bot_target.stopped,target_resp.stopped,blockNum,norew_fback.started,norew_fback.stopped,key_resp_2.keys,key_resp_2.rt,rewExpectancy,feedbk_text.started,feedbk_text.stopped,text_3.started,debrief.started,text_3.stopped,button.started,debrief.index,debrief.itemText,debrief.type,debrief.granularity,debrief.font,debrief.markerColor,debrief.response,debrief.rt,button.numClicks,button.timesOn,button.timesOff,participant,date,expName,psychopyVersion,frameRate,
,,,,,,,,,,,,,,,,,,,,,,,,,,,,,,,,,,,,,,,,,,,,,,,,,,,,,,283.7401903241407,space,12.115361081901938,,,,,,,,,,,,,,,,,,,,,,,,,,,,,,,,,,,,,,,,,,,,,,,,,,,,,,,,,,,,,,,,,,,,,,,,,,,,,,,,,,,,,,,46408,2022-11-17_08h05.19.621,vts_reward_expectancy_bt_OFFLINE,2022.2.4,59.95665152737822,
0,0,1,0,0,1,0,0,hexagon,circle,0,0,0,0,0,0,0,7,,,,,,,,,,,,,,,,,,,,,,,,,,,,,,,,,,,,,,,,303.87096224701963,303.87096224701963,303.87096224701963,303.87096224701963,303.87096224701963,303.87096224701963,303.87096224701963,303.87096224701963,303.87096224701963,303.87096224701963,a,4.686564869014546,1,1,0,308.58286081207916,310.0825273259543,,,,,,,,,,,,,,,,,,,,,,,,,,,,,,,,,,,,,,,,,,,,,,,,,,,,,,,,,,,,,,,,,,,,,,46408,2022-11-17_08h05.19.621,vts_reward_expectancy_bt_OFFLINE,2022.2.4,59.95665152737822,
0,0,0,1,0,1,0,0,star ,circle,0,0,0,0,0,1,1,10,,,,,,,,,,,,,,,,,,,,,,,,,,,,,,,,,,,,,,,,310.5826651121024,310.5826651121024,310.5826651121024,310.5826651121024,310.5826651121024,310.5826651121024,310.5826651121024,310.5826651121024,310.5826651121024,310.5826651121024,a,0.9908418899867684,1,2,0,311.6000618371181,313.10012704110704,313.10012704110704,313.60064182500355,,,,,,,,,,,,,,,,,,,,,,,,,,,,,,,,,,,,,,,,,,,,,,,,,,,,,,,,,,,,,,,,,,,,46408,2022-11-17_08h05.19.621,vts_reward_expectancy_bt_OFFLINE,2022.2.4,59.95665152737822,
0,0,0,1,1,0,0,0,star,triangle,0,0,0,0,0,2,2,9,,,,,,,,,,,,,,,,,,,,,,,,,,,,,,,,,,,,,,,,313.60064182500355,313.60064182500355,313.60064182500355,313.60064182500355,313.60064182500355,313.60064182500355,313.60064182500355,313.60064182500355,313.60064182500355,313.60064182500355,a,0.7969346090685576,1,3,0,314.41918441304006,315.9199350089766,315.9199350089766,316.42006100411527,,,,,,,,,,,,,,,,,,,,,,,,,,,,,,,,,,,,,,,,,,,,,,,,,,,,,,,,,,,,,,,,,,,,46408,2022-11-17_08h05.19.621,vts_reward_expectancy_bt_OFFLINE,2022.2.4,59.95665152737822,
1,0,0,0,0,0,1,0,triangle,hexagon,0,0,0,0,0,3,3,1,,,,,,,,,,,,,,,,,,,,,,,,,,,,,,,,,,,,,,,,316.42006100411527,316.42006100411527,316.42006100411527,316.42006100411527,316.42006100411527,316.42006100411527,316.42006100411527,316.42006100411527,316.42006100411527,316.42006100411527,a,7.359858896117657,10,13,0,323.81043505691923,325.3101250389591,,,,,,,,,,,,,,,,,,,,,,,,,,,,,,,,,,,,,,,,,,,,,,,,,,,,,,,,,,,,,,,,,,,,,,46408,2022-11-17_08h05.19.621,vts_reward_expectancy_bt_OFFLINE,2022.2.4,59.95665152737822,
0,1,0,0,1,0,0,0,circle,triangle,0,0,0,0,0,4,4,3,,,,,,,,,,,,,,,,,,,,,,,,,,,,,,,,,,,,,,,,325.810828267131,325.810828267131,325.810828267131,325.810828267131,325.810828267131,325.810828267131,325.810828267131,325.810828267131,325.810828267131,325.810828267131,l,2.6619488180149347,1,14,0,328.4983767340891,329.9971210390795,,,,,,,,,,,,,,,,,,,,,,,,,,,,,,,,,,,,,,,,,,,,,,,,,,,,,,,,,,,,,,,,,,,,,,46408,2022-11-17_08h05.19.621,vts_reward_expectancy_bt_OFFLINE,2022.2.4,59.95665152737822,
0,0,1,0,0,0,0,1,hexagon,star,0,0,0,0,0,5,5,8,,,,,,,,,,,,,,,,,,,,,,,,,,,,,,,,,,,,,,,,330.4971625430044,330.4971625430044,330.4971625430044,330.4971625430044,330.4971625430044,330.4971625430044,330.4971625430044,330.4971625430044,330.4971625430044,330.4971625430044,a,1.1803875479381531,1,15,0,331.69813795993105,333.19838301604614,333.19838301604614,,,,,,,,,,,,,,,,,,,,,,,,,,,,,,,,,,,,,,,,,,,,,,,,,,,,,,,,,,,,,,,,,,,,,46408,2022-11-17_08h05.19.621,vts_reward_expectancy_bt_OFFLINE,2022.2.4,59.95665152737822,
0,1,0,0,0,0,1,0,circle,hexagon,0,0,0,0,0,6,6,4,,,,,,,,,,,,,,,,,,,,,,,,,,,,,,,,,,,,,,,,333.69859958812594,333.69859958812594,333.69859958812594,333.69859958812594,333.69859958812594,333.69859958812594,333.69859958812594,333.69859958812594,333.69859958812594,333.69859958812594,l,1.1966173038817942,10,25,0,334.9193181220908,336.4347645121161,,,,,,,,,,,,,,,,,,,,,,,,,,,,,,,,,,,,,,,,,,,,,,,,,,,,,,,,,,,,,,,,,,,,,,46408,2022-11-17_08h05.19.621,vts_reward_expectancy_bt_OFFLINE,2022.2.4,59.95665152737822,
1,0,0,0,0,1,0,0,triangle,circle,0,0,0,0,0,7,7,0,,,,,,,,,,,,,,,,,,,,,,,,,,,,,,,,,,,,,,,,336.9181285870727,336.9181285870727,336.9181285870727,336.9181285870727,336.9181285870727,336.9181285870727,336.9181285870727,336.9181285870727,336.9181285870727,336.9181285870727,a,1.4312689420767128,1,26,0,338.3701375119854,339.87085109599866,,,,,,,,,,,,,,,,,,,,,,,,,,,,,,,,,,,,,,,,,,,,,,,,,,,,,,,,,,,,,,,,,,,,,,46408,2022-11-17_08h05.19.621,vts_reward_expectancy_bt_OFFLINE,2022.2.4,59.95665152737822,
0,1,0,0,0,0,0,1,circle,star,0,0,0,0,0,8,8,5,,,,,,,,,,,,,,,,,,,,,,,,,,,,,,,,,,,,,,,,340.3714173231274,340.3714173231274,340.3714173231274,340.3714173231274,340.3714173231274,340.3714173231274,340.3714173231274,340.3714173231274,340.3714173231274,340.3714173231274,l,1.0605069550219923,10,36,0,341.45705716102384,342.9724041260779,,,,,,,,,,,,,,,,,,,,,,,,,,,,,,,,,,,,,,,,,,,,,,,,,,,,,,,,,,,,,,,,,,,,,,46408,2022-11-17_08h05.19.621,vts_reward_expectancy_bt_OFFLINE,2022.2.4,59.95665152737822,
0,0,0,1,0,0,1,0,star,hexagon,0,0,0,0,0,9,9,11,,,,,,,,,,,,,,,,,,,,,,,,,,,,,,,,,,,,,,,,343.472135782009,343.472135782009,343.472135782009,343.472135782009,343.472135782009,343.472135782009,343.472135782009,343.472135782009,343.472135782009,343.472135782009,a,0.6367053519934416,1,37,0,344.14093139301986,345.64167796005495,,,,,,,,,,,,,,,,,,,,,,,,,,,,,,,,,,,,,,,,,,,,,,,,,,,,,,,,,,,,,,,,,,,,,,46408,2022-11-17_08h05.19.621,vts_reward_expectancy_bt_OFFLINE,2022.2.4,59.95665152737822,
1,0,0,0,0,0,0,1,triangle,star,0,0,0,0,0,10,10,2,,,,,,,,,,,,,,,,,,,,,,,,,,,,,,,,,,,,,,,,346.14197337813675,346.14197337813675,346.14197337813675,346.14197337813675,346.14197337813675,346.14197337813675,346.14197337813675,346.14197337813675,346.14197337813675,346.14197337813675,l,0.7246042948681861,10,47,0,346.8944038921036,348.40938920597546,,,,,,,,,,,,,,,,,,,,,,,,,,,,,,,,,,,,,,,,,,,,,,,,,,,,,,,,,,,,,,,,,,,,,,46408,2022-11-17_08h05.19.621,vts_reward_expectancy_bt_OFFLINE,2022.2.4,59.95665152737822,
0,0,1,0,1,0,0,0,hexagon,triangle,0,0,0,0,0,11,11,6,,,,,,,,,,,,,,,,,,,,,,,,,,,,,,,,,,,,,,,,348.9093136440497,348.9093136440497,348.9093136440497,348.9093136440497,348.9093136440497,348.9093136440497,348.9093136440497,348.9093136440497,348.9093136440497,348.9093136440497,a,0.7572876820340753,1,48,0,349.70363351213746,351.21227620192803,,,,,,,,,,,,,,,,,,,,,,,,,,,,,,,,,,,,,,,,,,,,,,,,,,,,,,,,,,,,,,,,,,,,,,46408,2022-11-17_08h05.19.621,vts_reward_expectancy_bt_OFFLINE,2022.2.4,59.95665152737822,
0,0,0,1,1,0,0,0,star,triangle,0,0,0,0,1,0,12,9,,,,,,,,,,,,,,,,,,,,,,,,,,,,,,,,,,,,,,,,351.69588103797287,351.69588103797287,351.69588103797287,351.69588103797287,351.69588103797287,351.69588103797287,351.69588103797287,351.69588103797287,351.69588103797287,351.69588103797287,a,0.49100884213112295,10,58,0,352.21596884098835,353.72978633013554,,,,,,,,,,,,,,,,,,,,,,,,,,,,,,,,,,,,,,,,,,,,,,,,,,,,,,,,,,,,,,,,,,,,,,46408,2022-11-17_08h05.19.621,vts_reward_expectancy_bt_OFFLINE,2022.2.4,59.95665152737822,
0,1,0,0,0,0,1,0,circle,hexagon,0,0,0,0,1,1,13,4,,,,,,,,,,,,,,,,,,,,,,,,,,,,,,,,,,,,,,,,354.22970113996416,354.22970113996416,354.22970113996416,354.22970113996416,354.22970113996416,354.22970113996416,354.22970113996416,354.22970113996416,354.22970113996416,354.22970113996416,l,0.5907838379498571,10,68,0,354.8519433189649,356.3493198750075,,,,,,,,,,,,,,,,,,,,,,,,,,,,,,,,,,,,,,,,,,,,,,,,,,,,,,,,,,,,,,,,,,,,,,46408,2022-11-17_08h05.19.621,vts_reward_expectancy_bt_OFFLINE,2022.2.4,59.95665152737822,
0,0,1,0,1,0,0,0,hexagon,triangle,0,0,0,0,1,2,14,6,,,,,,,,,,,,,,,,,,,,,,,,,,,,,,,,,,,,,,,,356.84932440612465,356.84932440612465,356.84932440612465,356.84932440612465,356.84932440612465,356.84932440612465,356.84932440612465,356.84932440612465,356.84932440612465,356.84932440612465,a,0.6590960659086704,1,69,0,357.53636642708443,359.050234104041,,,,,,,,,,,,,,,,,,,,,,,,,,,,,,,,,,,,,,,,,,,,,,,,,,,,,,,,,,,,,,,,,,,,,,46408,2022-11-17_08h05.19.621,vts_reward_expectancy_bt_OFFLINE,2022.2.4,59.95665152737822,
0,0,0,1,0,0,1,0,star,hexagon,0,0,0,0,1,3,15,11,,,,,,,,,,,,,,,,,,,,,,,,,,,,,,,,,,,,,,,,359.5354544711299,359.5354544711299,359.5354544711299,359.5354544711299,359.5354544711299,359.5354544711299,359.5354544711299,359.5354544711299,359.5354544711299,359.5354544711299,a,0.4938514898531139,1,70,0,360.05589737393893,361.56959200208075,,,,,,,,,,,,,,,,,,,,,,,,,,,,,,,,,,,,,,,,,,,,,,,,,,,,,,,,,,,,,,,,,,,,,,46408,2022-11-17_08h05.19.621,vts_reward_expectancy_bt_OFFLINE,2022.2.4,59.95665152737822,
0,0,1,0,0,0,0,1,hexagon,star,0,0,0,0,1,4,16,8,,,,,,,,,,,,,,,,,,,,,,,,,,,,,,,,,,,,,,,,362.06983675807714,362.06983675807714,362.06983675807714,362.06983675807714,362.06983675807714,362.06983675807714,362.06983675807714,362.06983675807714,362.06983675807714,362.06983675807714,l,0.456318014068529,10,80,0,362.5553514091298,364.054054700071,,,,,,,,,,,,,,,,,,,,,,,,,,,,,,,,,,,,,,,,,,,,,,,,,,,,,,,,,,,,,,,,,,,,,,46408,2022-11-17_08h05.19.621,vts_reward_expectancy_bt_OFFLINE,2022.2.4,59.95665152737822,
1,0,0,0,0,0,1,0,triangle,hexagon,0,0,0,0,1,5,17,1,,,,,,,,,,,,,,,,,,,,,,,,,,,,,,,,,,,,,,,,364.5557625910733,364.5557625910733,364.5557625910733,364.5557625910733,364.5557625910733,364.5557625910733,364.5557625910733,364.5557625910733,364.5557625910733,364.5557625910733,l,1.0088856189977378,10,90,0,365.5927462859545,367.10705402796157,,,,,,,,,,,,,,,,,,,,,,,,,,,,,,,,,,,,,,,,,,,,,,,,,,,,,,,,,,,,,,,,,,,,,,46408,2022-11-17_08h05.19.621,vts_reward_expectancy_bt_OFFLINE,2022.2.4,59.95665152737822,
0,0,1,0,0,1,0,0,hexagon,circle,0,0,0,0,1,6,18,7,,,,,,,,,,,,,,,,,,,,,,,,,,,,,,,,,,,,,,,,367.6069666619878,367.6069666619878,367.6069666619878,367.6069666619878,367.6069666619878,367.6069666619878,367.6069666619878,367.6069666619878,367.6069666619878,367.6069666619878,a,1.1746733279433101,1,91,0,368.8097157590091,370.30974594992585,,,,,,,,,,,,,,,,,,,,,,,,,,,,,,,,,,,,,,,,,,,,,,,,,,,,,,,,,,,,,,,,,,,,,,46408,2022-11-17_08h05.19.621,vts_reward_expectancy_bt_OFFLINE,2022.2.4,59.95665152737822,
0,0,0,1,0,1,0,0,star ,circle,0,0,0,0,1,7,19,10,,,,,,,,,,,,,,,,,,,,,,,,,,,,,,,,,,,,,,,,370.80964527698234,370.80964527698234,370.80964527698234,370.80964527698234,370.80964527698234,370.80964527698234,370.80964527698234,370.80964527698234,370.80964527698234,370.80964527698234,a,1.089022431988269,1,92,0,371.92733035003766,373.42748543294147,373.42748543294147,,,,,,,,,,,,,,,,,,,,,,,,,,,,,,,,,,,,,,,,,,,,,,,,,,,,,,,,,,,,,,,,,,,,,46408,2022-11-17_08h05.19.621,vts_reward_expectancy_bt_OFFLINE,2022.2.4,59.95665152737822,
0,1,0,0,0,0,0,1,circle,star,0,0,0,0,1,8,20,5,,,,,,,,,,,,,,,,,,,,,,,,,,,,,,,,,,,,,,,,373.92767429794185,373.92767429794185,373.92767429794185,373.92767429794185,373.92767429794185,373.92767429794185,373.92767429794185,373.92767429794185,373.92767429794185,373.92767429794185,a,1.1316745481453836,1,93,0,375.08325312193483,376.5971541821491,,,,,,,,,,,,,,,,,,,,,,,,,,,,,,,,,,,,,,,,,,,,,,,,,,,,,,,,,,,,,,,,,,,,,,46408,2022-11-17_08h05.19.621,vts_reward_expectancy_bt_OFFLINE,2022.2.4,59.95665152737822,
1,0,0,0,0,1,0,0,triangle,circle,0,0,0,0,1,9,21,0,,,,,,,,,,,,,,,,,,,,,,,,,,,,,,,,,,,,,,,,377.097420881968,377.097420881968,377.097420881968,377.097420881968,377.097420881968,377.097420881968,377.097420881968,377.097420881968,377.097420881968,377.097420881968,l,2.0235872860066593,1,94,0,379.16223059711047,380.65067910705693,,,,,,,,,,,,,,,,,,,,,,,,,,,,,,,,,,,,,,,,,,,,,,,,,,,,,,,,,,,,,,,,,,,,,,46408,2022-11-17_08h05.19.621,vts_reward_expectancy_bt_OFFLINE,2022.2.4,59.95665152737822,
1,0,0,0,0,0,0,1,triangle,star,0,0,0,0,1,10,22,2,,,,,,,,,,,,,,,,,,,,,,,,,,,,,,,,,,,,,,,,381.1506585860625,381.1506585860625,381.1506585860625,381.1506585860625,381.1506585860625,381.1506585860625,381.1506585860625,381.1506585860625,381.1506585860625,381.1506585860625,l,0.5578924070578068,1,95,0,381.7374608460814,383.2517123569269,,,,,,,,,,,,,,,,,,,,,,,,,,,,,,,,,,,,,,,,,,,,,,,,,,,,,,,,,,,,,,,,,,,,,,46408,2022-11-17_08h05.19.621,vts_reward_expectancy_bt_OFFLINE,2022.2.4,59.95665152737822,
0,1,0,0,1,0,0,0,circle,triangle,0,0,0,0,1,11,23,3,,,,,,,,,,,,,,,,,,,,,,,,,,,,,,,,,,,,,,,,383.7348297550343,383.7348297550343,383.7348297550343,383.7348297550343,383.7348297550343,383.7348297550343,383.7348297550343,383.7348297550343,383.7348297550343,383.7348297550343,l,0.6961474900599569,1,96,0,384.4569174309727,385.9707930430304,,,,,,,,,,,,,,,,,,,,,,,,,,,,,,,,,,,,,,,,,,,,,,,,,,,,,,,,,,,,,,,,,,,,,,46408,2022-11-17_08h05.19.621,vts_reward_expectancy_bt_OFFLINE,2022.2.4,59.95665152737822,
0,0,0,1,0,1,0,0,star ,circle,0,0,0,0,2,0,24,10,,,,,,,,,,,,,,,,,,,,,,,,,,,,,,,,,,,,,,,,386.47106383694336,386.47106383694336,386.47106383694336,386.47106383694336,386.47106383694336,386.47106383694336,386.47106383694336,386.47106383694336,386.47106383694336,386.47106383694336,a,0.492210976080969,1,97,0,386.991002492141,388.5051207570359,,,,,,,,,,,,,,,,,,,,,,,,,,,,,,,,,,,,,,,,,,,,,,,,,,,,,,,,,,,,,,,,,,,,,,46408,2022-11-17_08h05.19.621,vts_reward_expectancy_bt_OFFLINE,2022.2.4,59.95665152737822,
1,0,0,0,0,0,1,0,triangle,hexagon,0,0,0,0,2,1,25,1,,,,,,,,,,,,,,,,,,,,,,,,,,,,,,,,,,,,,,,,389.0050053030718,389.0050053030718,389.0050053030718,389.0050053030718,389.0050053030718,389.0050053030718,389.0050053030718,389.0050053030718,389.0050053030718,389.0050053030718,l,0.5454050519037992,1,98,0,389.5772679550573,391.09104495006613,,,,,,,,,,,,,,,,,,,,,,,,,,,,,,,,,,,,,,,,,,,,,,,,,,,,,,,,,,,,,,,,,,,,,,46408,2022-11-17_08h05.19.621,vts_reward_expectancy_bt_OFFLINE,2022.2.4,59.95665152737822,
0,1,0,0,1,0,0,0,circle,triangle,0,0,0,0,2,2,26,3,,,,,,,,,,,,,,,,,,,,,,,,,,,,,,,,,,,,,,,,391.5915086870082,391.5915086870082,391.5915086870082,391.5915086870082,391.5915086870082,391.5915086870082,391.5915086870082,391.5915086870082,391.5915086870082,391.5915086870082,l,0.9299371659290045,1,99,0,392.54504668107256,394.0426867590286,,,,,,,,,,,,,,,,,,,,,,,,,,,,,,,,,,,,,,,,,,,,,,,,,,,,,,,,,,,,,,,,,,,,,,46408,2022-11-17_08h05.19.621,vts_reward_expectancy_bt_OFFLINE,2022.2.4,59.95665152737822,
0,0,1,0,1,0,0,0,hexagon,triangle,0,0,0,0,2,3,27,6,,,,,,,,,,,,,,,,,,,,,,,,,,,,,,,,,,,,,,,,394.5443973559886,394.5443973559886,394.5443973559886,394.5443973559886,394.5443973559886,394.5443973559886,394.5443973559886,394.5443973559886,394.5443973559886,394.5443973559886,l,0.03548715705983341,10,109,0,394.6119965300895,396.1117344510276,396.1117344510276,396.6119577540085,,,,,,,,,,,,,,,,,,,,,,,,,,,,,,,,,,,,,,,,,,,,,,,,,,,,,,,,,,,,,,,,,,,,46408,2022-11-17_08h05.19.621,vts_reward_expectancy_bt_OFFLINE,2022.2.4,59.95665152737822,
0,0,0,1,0,0,1,0,star,hexagon,0,0,0,0,2,4,28,11,,,,,,,,,,,,,,,,,,,,,,,,,,,,,,,,,,,,,,,,396.6119577540085,396.6119577540085,396.6119577540085,396.6119577540085,396.6119577540085,396.6119577540085,396.6119577540085,396.6119577540085,396.6119577540085,396.6119577540085,l,0.251442002132535,1,110,0,396.89600741607137,398.39576367102563,398.39576367102563,398.8958679919597,,,,,,,,,,,,,,,,,,,,,,,,,,,,,,,,,,,,,,,,,,,,,,,,,,,,,,,,,,,,,,,,,,,,46408,2022-11-17_08h05.19.621,vts_reward_expectancy_bt_OFFLINE,2022.2.4,59.95665152737822,
0,1,0,0,0,0,0,1,circle,star,0,0,0,0,2,5,29,5,,,,,,,,,,,,,,,,,,,,,,,,,,,,,,,,,,,,,,,,398.8958679919597,398.8958679919597,398.8958679919597,398.8958679919597,398.8958679919597,398.8958679919597,398.8958679919597,398.8958679919597,398.8958679919597,398.8958679919597,l,0.386087620863691,10,120,0,399.31584003102034,400.8150154980831,400.8150154980831,401.31543293897994,,,,,,,,,,,,,,,,,,,,,,,,,,,,,,,,,,,,,,,,,,,,,,,,,,,,,,,,,,,,,,,,,,,,46408,2022-11-17_08h05.19.621,vts_reward_expectancy_bt_OFFLINE,2022.2.4,59.95665152737822,
0,0,1,0,0,0,0,1,hexagon,star,0,0,0,0,2,6,30,8,,,,,,,,,,,,,,,,,,,,,,,,,,,,,,,,,,,,,,,,401.31543293897994,401.31543293897994,401.31543293897994,401.31543293897994,401.31543293897994,401.31543293897994,401.31543293897994,401.31543293897994,401.31543293897994,401.31543293897994,l,0.3860687508713454,10,130,0,401.73293400905095,403.2324556710664,403.2324556710664,403.7337461709976,,,,,,,,,,,,,,,,,,,,,,,,,,,,,,,,,,,,,,,,,,,,,,,,,,,,,,,,,,,,,,,,,,,,46408,2022-11-17_08h05.19.621,vts_reward_expectancy_bt_OFFLINE,2022.2.4,59.95665152737822,
0,1,0,0,0,0,1,0,circle,hexagon,0,0,0,0,2,7,31,4,,,,,,,,,,,,,,,,,,,,,,,,,,,,,,,,,,,,,,,,403.7337461709976,403.7337461709976,403.7337461709976,403.7337461709976,403.7337461709976,403.7337461709976,403.7337461709976,403.7337461709976,403.7337461709976,403.7337461709976,l,0.6219517639838159,10,140,0,404.37576695601456,405.8852782121394,,,,,,,,,,,,,,,,,,,,,,,,,,,,,,,,,,,,,,,,,,,,,,,,,,,,,,,,,,,,,,,,,,,,,,46408,2022-11-17_08h05.19.621,vts_reward_expectancy_bt_OFFLINE,2022.2.4,59.95665152737822,
1,0,0,0,0,0,0,1,triangle,star,0,0,0,0,2,8,32,2,,,,,,,,,,,,,,,,,,,,,,,,,,,,,,,,,,,,,,,,406.38577583711594,406.38577583711594,406.38577583711594,406.38577583711594,406.38577583711594,406.38577583711594,406.38577583711594,406.38577583711594,406.38577583711594,406.38577583711594,l,0.3549357741139829,10,150,0,406.7723203320056,408.2862426659558,,,,,,,,,,,,,,,,,,,,,,,,,,,,,,,,,,,,,,,,,,,,,,,,,,,,,,,,,,,,,,,,,,,,,,46408,2022-11-17_08h05.19.621,vts_reward_expectancy_bt_OFFLINE,2022.2.4,59.95665152737822,
1,0,0,0,0,1,0,0,triangle,circle,0,0,0,0,2,9,33,0,,,,,,,,,,,,,,,,,,,,,,,,,,,,,,,,,,,,,,,,408.7862908700481,408.7862908700481,408.7862908700481,408.7862908700481,408.7862908700481,408.7862908700481,408.7862908700481,408.7862908700481,408.7862908700481,408.7862908700481,a,0.6322630038484931,1,151,0,409.4419439169578,410.9559251400642,,,,,,,,,,,,,,,,,,,,,,,,,,,,,,,,,,,,,,,,,,,,,,,,,,,,,,,,,,,,,,,,,,,,,,46408,2022-11-17_08h05.19.621,vts_reward_expectancy_bt_OFFLINE,2022.2.4,59.95665152737822,
0,0,1,0,0,1,0,0,hexagon,circle,0,0,0,0,2,10,34,7,,,,,,,,,,,,,,,,,,,,,,,,,,,,,,,,,,,,,,,,411.4560324191116,411.4560324191116,411.4560324191116,411.4560324191116,411.4560324191116,411.4560324191116,411.4560324191116,411.4560324191116,411.4560324191116,411.4560324191116,a,1.0679402649402618,1,152,0,412.5581258421298,414.0735334409401,,,,,,,,,,,,,,,,,,,,,,,,,,,,,,,,,,,,,,,,,,,,,,,,,,,,,,,,,,,,,,,,,,,,,,46408,2022-11-17_08h05.19.621,vts_reward_expectancy_bt_OFFLINE,2022.2.4,59.95665152737822,
0,0,0,1,1,0,0,0,star,triangle,0,0,0,0,2,11,35,9,,,,,,,,,,,,,,,,,,,,,,,,,,,,,,,,,,,,,,,,414.57560300198384,414.57560300198384,414.57560300198384,414.57560300198384,414.57560300198384,414.57560300198384,414.57560300198384,414.57560300198384,414.57560300198384,414.57560300198384,a,0.6031223181635141,10,162,0,415.21236845012754,416.7097421840299,,,,,,,,,,,,,,,,,,,,,,,,,,,,,,,,,,,,,,,,,,,,,,,,,,,,,,,,,,,,,,,,,,,,,,46408,2022-11-17_08h05.19.621,vts_reward_expectancy_bt_OFFLINE,2022.2.4,59.95665152737822,
0,0,1,0,1,0,0,0,hexagon,triangle,0,0,0,0,3,0,36,6,,,,,,,,,,,,,,,,,,,,,,,,,,,,,,,,,,,,,,,,417.21010541100986,417.21010541100986,417.21010541100986,417.21010541100986,417.21010541100986,417.21010541100986,417.21010541100986,417.21010541100986,417.21010541100986,417.21010541100986,a,0.9961676369421184,1,163,0,418.23029660992324,419.72940741013736,,,,,,,,,,,,,,,,,,,,,,,,,,,,,,,,,,,,,,,,,,,,,,,,,,,,,,,,,,,,,,,,,,,,,,46408,2022-11-17_08h05.19.621,vts_reward_expectancy_bt_OFFLINE,2022.2.4,59.95665152737822,
0,1,0,0,0,0,0,1,circle,star,0,0,0,0,3,1,37,5,,,,,,,,,,,,,,,,,,,,,,,,,,,,,,,,,,,,,,,,420.229543433059,420.229543433059,420.229543433059,420.229543433059,420.229543433059,420.229543433059,420.229543433059,420.229543433059,420.229543433059,420.229543433059,l,0.56392503506504,1,164,0,420.813705946086,422.31352041009814,422.31352041009814,422.8138427310623,,,,,,,,,,,,,,,,,,,,,,,,,,,,,,,,,,,,,,,,,,,,,,,,,,,,,,,,,,,,,,,,,,,,46408,2022-11-17_08h05.19.621,vts_reward_expectancy_bt_OFFLINE,2022.2.4,59.95665152737822,
0,1,0,0,1,0,0,0,circle,triangle,0,0,0,0,3,2,38,3,,,,,,,,,,,,,,,,,,,,,,,,,,,,,,,,,,,,,,,,422.8138427310623,422.8138427310623,422.8138427310623,422.8138427310623,422.8138427310623,422.8138427310623,422.8138427310623,422.8138427310623,422.8138427310623,422.8138427310623,l,0.4547526789829135,10,174,0,423.30083759408444,424.79972021398135,,,,,,,,,,,,,,,,,,,,,,,,,,,,,,,,,,,,,,,,,,,,,,,,,,,,,,,,,,,,,,,,,,,,,,46408,2022-11-17_08h05.19.621,vts_reward_expectancy_bt_OFFLINE,2022.2.4,59.95665152737822,
0,0,1,0,0,0,0,1,hexagon,star,0,0,0,0,3,3,39,8,,,,,,,,,,,,,,,,,,,,,,,,,,,,,,,,,,,,,,,,425.2998133490328,425.2998133490328,425.2998133490328,425.2998133490328,425.2998133490328,425.2998133490328,425.2998133490328,425.2998133490328,425.2998133490328,425.2998133490328,l,0.533530015964061,10,184,0,425.85305451392196,427.36719944910146,,,,,,,,,,,,,,,,,,,,,,,,,,,,,,,,,,,,,,,,,,,,,,,,,,,,,,,,,,,,,,,,,,,,,,46408,2022-11-17_08h05.19.621,vts_reward_expectancy_bt_OFFLINE,2022.2.4,59.95665152737822,
0,0,0,1,1,0,0,0,star,triangle,0,0,0,0,3,4,40,9,,,,,,,,,,,,,,,,,,,,,,,,,,,,,,,,,,,,,,,,427.86730511207134,427.86730511207134,427.86730511207134,427.86730511207134,427.86730511207134,427.86730511207134,427.86730511207134,427.86730511207134,427.86730511207134,427.86730511207134,a,1.1610455811023712,10,194,0,429.0545256389305,430.5534284960013,,,,,,,,,,,,,,,,,,,,,,,,,,,,,,,,,,,,,,,,,,,,,,,,,,,,,,,,,,,,,,,,,,,,,,46408,2022-11-17_08h05.19.621,vts_reward_expectancy_bt_OFFLINE,2022.2.4,59.95665152737822,
1,0,0,0,0,0,0,1,triangle,star,0,0,0,0,3,5,41,2,,,,,,,,,,,,,,,,,,,,,,,,,,,,,,,,,,,,,,,,431.05386794614606,431.05386794614606,431.05386794614606,431.05386794614606,431.05386794614606,431.05386794614606,431.05386794614606,431.05386794614606,431.05386794614606,431.05386794614606,l,0.3825567609164864,1,195,0,431.4568955509458,432.97105789813213,,,,,,,,,,,,,,,,,,,,,,,,,,,,,,,,,,,,,,,,,,,,,,,,,,,,,,,,,,,,,,,,,,,,,,46408,2022-11-17_08h05.19.621,vts_reward_expectancy_bt_OFFLINE,2022.2.4,59.95665152737822,
0,0,1,0,0,1,0,0,hexagon,circle,0,0,0,0,3,6,42,7,,,,,,,,,,,,,,,,,,,,,,,,,,,,,,,,,,,,,,,,433.4709797159303,433.4709797159303,433.4709797159303,433.4709797159303,433.4709797159303,433.4709797159303,433.4709797159303,433.4709797159303,433.4709797159303,433.4709797159303,a,0.13711817702278495,10,205,0,433.6403362599667,435.1403957500588,,,,,,,,,,,,,,,,,,,,,,,,,,,,,,,,,,,,,,,,,,,,,,,,,,,,,,,,,,,,,,,,,,,,,,46408,2022-11-17_08h05.19.621,vts_reward_expectancy_bt_OFFLINE,2022.2.4,59.95665152737822,
0,0,0,1,0,1,0,0,star ,circle,0,0,0,0,3,7,43,10,,,,,,,,,,,,,,,,,,,,,,,,,,,,,,,,,,,,,,,,435.64028370706365,435.64028370706365,435.64028370706365,435.64028370706365,435.64028370706365,435.64028370706365,435.64028370706365,435.64028370706365,435.64028370706365,435.64028370706365,l,0.3754234160296619,1,206,0,436.04391312994994,437.55782830296084,,,,,,,,,,,,,,,,,,,,,,,,,,,,,,,,,,,,,,,,,,,,,,,,,,,,,,,,,,,,,,,,,,,,,,46408,2022-11-17_08h05.19.621,vts_reward_expectancy_bt_OFFLINE,2022.2.4,59.95665152737822,
1,0,0,0,0,1,0,0,triangle,circle,0,0,0,0,3,8,44,0,,,,,,,,,,,,,,,,,,,,,,,,,,,,,,,,,,,,,,,,438.05794961494394,438.05794961494394,438.05794961494394,438.05794961494394,438.05794961494394,438.05794961494394,438.05794961494394,438.05794961494394,438.05794961494394,438.05794961494394,a,0.6233047009445727,10,216,0,438.71104100509547,440.210634293966,,,,,,,,,,,,,,,,,,,,,,,,,,,,,,,,,,,,,,,,,,,,,,,,,,,,,,,,,,,,,,,,,,,,,,46408,2022-11-17_08h05.19.621,vts_reward_expectancy_bt_OFFLINE,2022.2.4,59.95665152737822,
0,0,0,1,0,0,1,0,star,hexagon,0,0,0,0,3,9,45,11,,,,,,,,,,,,,,,,,,,,,,,,,,,,,,,,,,,,,,,,440.71092312410474,440.71092312410474,440.71092312410474,440.71092312410474,440.71092312410474,440.71092312410474,440.71092312410474,440.71092312410474,440.71092312410474,440.71092312410474,a,0.5926730181090534,1,217,0,441.3304653079249,442.84527824097313,,,,,,,,,,,,,,,,,,,,,,,,,,,,,,,,,,,,,,,,,,,,,,,,,,,,,,,,,,,,,,,,,,,,,,46408,2022-11-17_08h05.19.621,vts_reward_expectancy_bt_OFFLINE,2022.2.4,59.95665152737822,
0,1,0,0,0,0,1,0,circle,hexagon,0,0,0,0,3,10,46,4,,,,,,,,,,,,,,,,,,,,,,,,,,,,,,,,,,,,,,,,443.3450566921383,443.3450566921383,443.3450566921383,443.3450566921383,443.3450566921383,443.3450566921383,443.3450566921383,443.3450566921383,443.3450566921383,443.3450566921383,l,0.4552287070546299,10,227,0,443.8312125450466,445.331050734967,,,,,,,,,,,,,,,,,,,,,,,,,,,,,,,,,,,,,,,,,,,,,,,,,,,,,,,,,,,,,,,,,,,,,,46408,2022-11-17_08h05.19.621,vts_reward_expectancy_bt_OFFLINE,2022.2.4,59.95665152737822,
1,0,0,0,0,0,1,0,triangle,hexagon,0,0,0,0,3,11,47,1,,,,,,,,,,,,,,,,,,,,,,,,,,,,,,,,,,,,,,,,445.8311239241157,445.8311239241157,445.8311239241157,445.8311239241157,445.8311239241157,445.8311239241157,445.8311239241157,445.8311239241157,445.8311239241157,445.8311239241157,l,0.6363624839577824,1,228,0,446.5012300310191,448.0153183690272,,,,,,,,,,,,,,,,,,,,,,,,,,,,,,,,,,,,,,,,,,,,,,,,,,,,,,,,,,,,,,,,,,,,,,46408,2022-11-17_08h05.19.621,vts_reward_expectancy_bt_OFFLINE,2022.2.4,59.95665152737822,
0,0,1,0,1,0,0,0,hexagon,triangle,1,0,1,0,0,0,0,6,,,,,,,,,,,,,,,,,,,,,,,,,,,,,,,,,,,,,,,,453.7339470370207,453.7339470370207,453.7339470370207,453.7339470370207,453.7339470370207,453.7339470370207,453.7339470370207,453.7339470370207,453.7339470370207,453.7339470370207,a,0.9914626318495721,1,229,1,454.75617933110334,456.2553346869536,456.2553346869536,456.7555434110109,,,,,,,,,,,,,,,,,,,,,,,,,,,,,,,,,,,,,,,,,,,,,,,,,,,,,,,,,,,,,,,,,,,,46408,2022-11-17_08h05.19.621,vts_reward_expectancy_bt_OFFLINE,2022.2.4,59.95665152737822,
0,0,0,1,0,1,0,0,star ,circle,1,0,1,0,0,1,1,10,,,,,,,,,,,,,,,,,,,,,,,,,,,,,,,,,,,,,,,,456.7555434110109,456.7555434110109,456.7555434110109,456.7555434110109,456.7555434110109,456.7555434110109,456.7555434110109,456.7555434110109,456.7555434110109,456.7555434110109,a,0.46788306697271764,1,230,1,457.2555408079643,458.75618126406334,458.75618126406334,459.2561716691125,,,,,,,,,,,,,,,,,,,,,,,,,,,,,,,,,,,,,,,,,,,,,,,,,,,,,,,,,,,,,,,,,,,,46408,2022-11-17_08h05.19.621,vts_reward_expectancy_bt_OFFLINE,2022.2.4,59.95665152737822,
1,0,0,0,0,0,0,1,triangle,star,1,0,1,0,0,2,2,2,,,,,,,,,,,,,,,,,,,,,,,,,,,,,,,,,,,,,,,,459.2561716691125,459.2561716691125,459.2561716691125,459.2561716691125,459.2561716691125,459.2561716691125,459.2561716691125,459.2561716691125,459.2561716691125,459.2561716691125,l,0.4075228509027511,10,240,1,459.6945785440039,461.2090582740493,,,,,,,,,,,,,,,,,,,,,,,,,,,,,,,,,,,,,,,,,,,,,,,,,,,,,,,,,,,,,,,,,,,,,,46408,2022-11-17_08h05.19.621,vts_reward_expectancy_bt_OFFLINE,2022.2.4,59.95665152737822,
0,1,0,0,1,0,0,0,circle,triangle,1,0,1,0,0,3,3,3,,,,,,,,,,,,,,,,,,,,,,,,,,,,,,,,,,,,,,,,461.69262764812447,461.69262764812447,461.69262764812447,461.69262764812447,461.69262764812447,461.69262764812447,461.69262764812447,461.69262764812447,461.69262764812447,461.69262764812447,l,0.6487920628860593,1,241,1,462.36195888207294,463.87680843798444,,,,,,,,,,,,,,,,,,,,,,,,,,,,,,,,,,,,,,,,,,,,,,,,,,,,,,,,,,,,,,,,,,,,,,46408,2022-11-17_08h05.19.621,vts_reward_expectancy_bt_OFFLINE,2022.2.4,59.95665152737822,
0,0,0,1,1,0,0,0,star,triangle,1,0,1,0,0,4,4,9,,,,,,,,,,,,,,,,,,,,,,,,,,,,,,,,,,,,,,,,464.3765561899636,464.3765561899636,464.3765561899636,464.3765561899636,464.3765561899636,464.3765561899636,464.3765561899636,464.3765561899636,464.3765561899636,464.3765561899636,a,0.3949608891271055,1,242,1,464.79601977812126,466.295959466137,466.295959466137,,,,,,,,,,,,,,,,,,,,,,,,,,,,,,,,,,,,,,,,,,,,,,,,,,,,,,,,,,,,,,,,,,,,,46408,2022-11-17_08h05.19.621,vts_reward_expectancy_bt_OFFLINE,2022.2.4,59.95665152737822,
0,1,0,0,0,0,0,1,circle,star,1,0,1,0,0,5,5,5,,,,,,,,,,,,,,,,,,,,,,,,,,,,,,,,,,,,,,,,466.79604144510813,466.79604144510813,466.79604144510813,466.79604144510813,466.79604144510813,466.79604144510813,466.79604144510813,466.79604144510813,466.79604144510813,466.79604144510813,l,0.45146564999595284,1,243,1,467.279852704145,468.7800540190656,468.7800540190656,469.28028487507254,,,,,,,,,,,,,,,,,,,,,,,,,,,,,,,,,,,,,,,,,,,,,,,,,,,,,,,,,,,,,,,,,,,,46408,2022-11-17_08h05.19.621,vts_reward_expectancy_bt_OFFLINE,2022.2.4,59.95665152737822,
0,0,0,1,0,0,1,0,star,hexagon,1,0,1,0,0,6,6,11,,,,,,,,,,,,,,,,,,,,,,,,,,,,,,,,,,,,,,,,469.28028487507254,469.28028487507254,469.28028487507254,469.28028487507254,469.28028487507254,469.28028487507254,469.28028487507254,469.28028487507254,469.28028487507254,469.28028487507254,a,0.38512880099005997,10,253,1,469.68576913513243,471.1992743210867,,,,,,,,,,,,,,,,,,,,,,,,,,,,,,,,,,,,,,,,,,,,,,,,,,,,,,,,,,,,,,,,,,,,,,46408,2022-11-17_08h05.19.621,vts_reward_expectancy_bt_OFFLINE,2022.2.4,59.95665152737822,
0,0,1,0,0,0,0,1,hexagon,star,1,0,1,0,0,7,7,8,,,,,,,,,,,,,,,,,,,,,,,,,,,,,,,,,,,,,,,,471.6998868640512,471.6998868640512,471.6998868640512,471.6998868640512,471.6998868640512,471.6998868640512,471.6998868640512,471.6998868640512,471.6998868640512,471.6998868640512,l,2.1399766420945525,10,263,1,473.8684604871087,475.3695922889747,,,,,,,,,,,,,,,,,,,,,,,,,,,,,,,,,,,,,,,,,,,,,,,,,,,,,,,,,,,,,,,,,,,,,,46408,2022-11-17_08h05.19.621,vts_reward_expectancy_bt_OFFLINE,2022.2.4,59.95665152737822,
0,1,0,0,0,0,1,0,circle,hexagon,1,0,1,0,0,8,8,4,,,,,,,,,,,,,,,,,,,,,,,,,,,,,,,,,,,,,,,,475.8697054400109,475.8697054400109,475.8697054400109,475.8697054400109,475.8697054400109,475.8697054400109,475.8697054400109,475.8697054400109,475.8697054400109,475.8697054400109,l,0.5920348570216447,1,264,1,476.4893067639787,478.0040598481428,,,,,,,,,,,,,,,,,,,,,,,,,,,,,,,,,,,,,,,,,,,,,,,,,,,,,,,,,,,,,,,,,,,,,,46408,2022-11-17_08h05.19.621,vts_reward_expectancy_bt_OFFLINE,2022.2.4,59.95665152737822,
1,0,0,0,0,1,0,0,triangle,circle,1,0,1,0,0,9,9,0,,,,,,,,,,,,,,,,,,,,,,,,,,,,,,,,,,,,,,,,478.48728040605783,478.48728040605783,478.48728040605783,478.48728040605783,478.48728040605783,478.48728040605783,478.48728040605783,478.48728040605783,478.48728040605783,478.48728040605783,l,1.303533066995442,10,274,1,479.8252646080218,481.3403197780717,,,,,,,,,,,,,,,,,,,,,,,,,,,,,,,,,,,,,,,,,,,,,,,,,,,,,,,,,,,,,,,,,,,,,,46408,2022-11-17_08h05.19.621,vts_reward_expectancy_bt_OFFLINE,2022.2.4,59.95665152737822,
0,0,1,0,0,1,0,0,hexagon,circle,1,0,1,0,0,10,10,7,,,,,,,,,,,,,,,,,,,,,,,,,,,,,,,,,,,,,,,,481.8406227740925,481.8406227740925,481.8406227740925,481.8406227740925,481.8406227740925,481.8406227740925,481.8406227740925,481.8406227740925,481.8406227740925,481.8406227740925,a,0.9093449220526963,10,284,1,482.7748144620564,484.2743159800302,484.2743159800302,,,,,,,,,,,,,,,,,,,,,,,,,,,,,,,,,,,,,,,,,,,,,,,,,,,,,,,,,,,,,,,,,,,,,46408,2022-11-17_08h05.19.621,vts_reward_expectancy_bt_OFFLINE,2022.2.4,59.95665152737822,
1,0,0,0,0,0,1,0,triangle,hexagon,1,0,1,0,0,11,11,1,,,,,,,,,,,,,,,,,,,,,,,,,,,,,,,,,,,,,,,,484.7765263810288,484.7765263810288,484.7765263810288,484.7765263810288,484.7765263810288,484.7765263810288,484.7765263810288,484.7765263810288,484.7765263810288,484.7765263810288,l,1.360842120833695,1,285,1,486.16331431409344,487.67757169599645,,,,,,,,,,,,,,,,,,,,,,,,,,,,,,,,,,,,,,,,,,,,,,,,,,,,,,,,,,,,,,,,,,,,,,46408,2022-11-17_08h05.19.621,vts_reward_expectancy_bt_OFFLINE,2022.2.4,59.95665152737822,
0,1,0,0,0,0,0,1,circle,star,1,0,1,0,1,0,12,5,,,,,,,,,,,,,,,,,,,,,,,,,,,,,,,,,,,,,,,,488.16175389895216,488.16175389895216,488.16175389895216,488.16175389895216,488.16175389895216,488.16175389895216,488.16175389895216,488.16175389895216,488.16175389895216,488.16175389895216,l,0.8774121911264956,1,286,1,489.0622839301359,490.5636714680586,,,,,,,,,,,,,,,,,,,,,,,,,,,,,,,,,,,,,,,,,,,,,,,,,,,,,,,,,,,,,,,,,,,,,,46408,2022-11-17_08h05.19.621,vts_reward_expectancy_bt_OFFLINE,2022.2.4,59.95665152737822,
0,0,0,1,0,1,0,0,star ,circle,1,0,1,0,1,1,13,10,,,,,,,,,,,,,,,,,,,,,,,,,,,,,,,,,,,,,,,,491.0639396200422,491.0639396200422,491.0639396200422,491.0639396200422,491.0639396200422,491.0639396200422,491.0639396200422,491.0639396200422,491.0639396200422,491.0639396200422,l,1.305410305969417,1,287,1,492.4010491371155,493.9152443141211,,,,,,,,,,,,,,,,,,,,,,,,,,,,,,,,,,,,,,,,,,,,,,,,,,,,,,,,,,,,,,,,,,,,,,46408,2022-11-17_08h05.19.621,vts_reward_expectancy_bt_OFFLINE,2022.2.4,59.95665152737822,
0,0,1,0,0,1,0,0,hexagon,circle,1,0,1,0,1,2,14,7,,,,,,,,,,,,,,,,,,,,,,,,,,,,,,,,,,,,,,,,494.4118914040737,494.4118914040737,494.4118914040737,494.4118914040737,494.4118914040737,494.4118914040737,494.4118914040737,494.4118914040737,494.4118914040737,494.4118914040737,a,1.0513728170190006,1,288,1,495.4874246909749,497.0012693449389,,,,,,,,,,,,,,,,,,,,,,,,,,,,,,,,,,,,,,,,,,,,,,,,,,,,,,,,,,,,,,,,,,,,,,46408,2022-11-17_08h05.19.621,vts_reward_expectancy_bt_OFFLINE,2022.2.4,59.95665152737822,
0,0,0,1,1,0,0,0,star,triangle,1,0,1,0,1,3,15,9,,,,,,,,,,,,,,,,,,,,,,,,,,,,,,,,,,,,,,,,497.5015779850073,497.5015779850073,497.5015779850073,497.5015779850073,497.5015779850073,497.5015779850073,497.5015779850073,497.5015779850073,497.5015779850073,497.5015779850073,a,0.5267732550855726,10,298,1,498.05485416506417,499.55424072803,,,,,,,,,,,,,,,,,,,,,,,,,,,,,,,,,,,,,,,,,,,,,,,,,,,,,,,,,,,,,,,,,,,,,,46408,2022-11-17_08h05.19.621,vts_reward_expectancy_bt_OFFLINE,2022.2.4,59.95665152737822,
0,0,1,0,1,0,0,0,hexagon,triangle,1,0,1,0,1,4,16,6,,,,,,,,,,,,,,,,,,,,,,,,,,,,,,,,,,,,,,,,500.054362348048,500.054362348048,500.054362348048,500.054362348048,500.054362348048,500.054362348048,500.054362348048,500.054362348048,500.054362348048,500.054362348048,a,0.48339692899025977,1,299,1,500.5577416969463,502.0715196360834,,,,,,,,,,,,,,,,,,,,,,,,,,,,,,,,,,,,,,,,,,,,,,,,,,,,,,,,,,,,,,,,,,,,,,46408,2022-11-17_08h05.19.621,vts_reward_expectancy_bt_OFFLINE,2022.2.4,59.95665152737822,
1,0,0,0,0,1,0,0,triangle,circle,1,0,1,0,1,5,17,0,,,,,,,,,,,,,,,,,,,,,,,,,,,,,,,,,,,,,,,,502.572518463945,502.572518463945,502.572518463945,502.572518463945,502.572518463945,502.572518463945,502.572518463945,502.572518463945,502.572518463945,502.572518463945,a,1.4755226871930063,1,300,1,504.07583899702877,505.5746851461008,,,,,,,,,,,,,,,,,,,,,,,,,,,,,,,,,,,,,,,,,,,,,,,,,,,,,,,,,,,,,,,,,,,,,,46408,2022-11-17_08h05.19.621,vts_reward_expectancy_bt_OFFLINE,2022.2.4,59.95665152737822,
0,0,1,0,0,0,0,1,hexagon,star,1,0,1,0,1,6,18,8,,,,,,,,,,,,,,,,,,,,,,,,,,,,,,,,,,,,,,,,506.0749430099968,506.0749430099968,506.0749430099968,506.0749430099968,506.0749430099968,506.0749430099968,506.0749430099968,506.0749430099968,506.0749430099968,506.0749430099968,l,0.5157591579481959,1,301,1,506.61182824196294,508.1255988359917,,,,,,,,,,,,,,,,,,,,,,,,,,,,,,,,,,,,,,,,,,,,,,,,,,,,,,,,,,,,,,,,,,,,,,46408,2022-11-17_08h05.19.621,vts_reward_expectancy_bt_OFFLINE,2022.2.4,59.95665152737822,
1,0,0,0,0,0,0,1,triangle,star,1,0,1,0,1,7,19,2,,,,,,,,,,,,,,,,,,,,,,,,,,,,,,,,,,,,,,,,508.6258269699756,508.6258269699756,508.6258269699756,508.6258269699756,508.6258269699756,508.6258269699756,508.6258269699756,508.6258269699756,508.6258269699756,508.6258269699756,l,0.5067016480024904,10,311,1,509.16264643799514,510.6617330699228,,,,,,,,,,,,,,,,,,,,,,,,,,,,,,,,,,,,,,,,,,,,,,,,,,,,,,,,,,,,,,,,,,,,,,46408,2022-11-17_08h05.19.621,vts_reward_expectancy_bt_OFFLINE,2022.2.4,59.95665152737822,
0,0,0,1,0,0,1,0,star,hexagon,1,0,1,0,1,8,20,11,,,,,,,,,,,,,,,,,,,,,,,,,,,,,,,,,,,,,,,,511.16190652013756,511.16190652013756,511.16190652013756,511.16190652013756,511.16190652013756,511.16190652013756,511.16190652013756,511.16190652013756,511.16190652013756,511.16190652013756,a,0.5025794939137995,1,312,1,511.6988313300535,513.2128448239528,,,,,,,,,,,,,,,,,,,,,,,,,,,,,,,,,,,,,,,,,,,,,,,,,,,,,,,,,,,,,,,,,,,,,,46408,2022-11-17_08h05.19.621,vts_reward_expectancy_bt_OFFLINE,2022.2.4,59.95665152737822,
0,1,0,0,1,0,0,0,circle,triangle,1,0,1,0,1,9,21,3,,,,,,,,,,,,,,,,,,,,,,,,,,,,,,,,,,,,,,,,513.712795115076,513.712795115076,513.712795115076,513.712795115076,513.712795115076,513.712795115076,513.712795115076,513.712795115076,513.712795115076,513.712795115076,l,0.5162546969950199,1,313,1,514.2476278329268,515.7488461770117,,,,,,,,,,,,,,,,,,,,,,,,,,,,,,,,,,,,,,,,,,,,,,,,,,,,,,,,,,,,,,,,,,,,,,46408,2022-11-17_08h05.19.621,vts_reward_expectancy_bt_OFFLINE,2022.2.4,59.95665152737822,
0,1,0,0,0,0,1,0,circle,hexagon,1,0,1,0,1,10,22,4,,,,,,,,,,,,,,,,,,,,,,,,,,,,,,,,,,,,,,,,516.2489728231449,516.2489728231449,516.2489728231449,516.2489728231449,516.2489728231449,516.2489728231449,516.2489728231449,516.2489728231449,516.2489728231449,516.2489728231449,l,0.5003638109192252,10,323,1,516.7856814020779,518.2995717769954,,,,,,,,,,,,,,,,,,,,,,,,,,,,,,,,,,,,,,,,,,,,,,,,,,,,,,,,,,,,,,,,,,,,,,46408,2022-11-17_08h05.19.621,vts_reward_expectancy_bt_OFFLINE,2022.2.4,59.95665152737822,
1,0,0,0,0,0,1,0,triangle,hexagon,1,0,1,0,1,11,23,1,,,,,,,,,,,,,,,,,,,,,,,,,,,,,,,,,,,,,,,,518.7999370279722,518.7999370279722,518.7999370279722,518.7999370279722,518.7999370279722,518.7999370279722,518.7999370279722,518.7999370279722,518.7999370279722,518.7999370279722,l,0.4923892989754677,1,324,1,519.3199270351324,520.8190628320444,,,,,,,,,,,,,,,,,,,,,,,,,,,,,,,,,,,,,,,,,,,,,,,,,,,,,,,,,,,,,,,,,,,,,,46408,2022-11-17_08h05.19.621,vts_reward_expectancy_bt_OFFLINE,2022.2.4,59.95665152737822,
0,1,0,0,1,0,0,0,circle,triangle,1,0,1,0,2,0,24,3,,,,,,,,,,,,,,,,,,,,,,,,,,,,,,,,,,,,,,,,521.3197573451325,521.3197573451325,521.3197573451325,521.3197573451325,521.3197573451325,521.3197573451325,521.3197573451325,521.3197573451325,521.3197573451325,521.3197573451325,l,0.583088357001543,10,334,1,521.9229584389832,523.4367413769942,,,,,,,,,,,,,,,,,,,,,,,,,,,,,,,,,,,,,,,,,,,,,,,,,,,,,,,,,,,,,,,,,,,,,,46408,2022-11-17_08h05.19.621,vts_reward_expectancy_bt_OFFLINE,2022.2.4,59.95665152737822,
0,0,0,1,0,0,1,0,star,hexagon,1,0,1,0,2,1,25,11,,,,,,,,,,,,,,,,,,,,,,,,,,,,,,,,,,,,,,,,523.9368237219751,523.9368237219751,523.9368237219751,523.9368237219751,523.9368237219751,523.9368237219751,523.9368237219751,523.9368237219751,523.9368237219751,523.9368237219751,a,0.5304202320985496,1,335,1,524.4944299370982,526.0060544561129,,,,,,,,,,,,,,,,,,,,,,,,,,,,,,,,,,,,,,,,,,,,,,,,,,,,,,,,,,,,,,,,,,,,,,46408,2022-11-17_08h05.19.621,vts_reward_expectancy_bt_OFFLINE,2022.2.4,59.95665152737822,
1,0,0,0,0,1,0,0,triangle,circle,1,0,1,0,2,2,26,0,,,,,,,,,,,,,,,,,,,,,,,,,,,,,,,,,,,,,,,,526.5061136460863,526.5061136460863,526.5061136460863,526.5061136460863,526.5061136460863,526.5061136460863,526.5061136460863,526.5061136460863,526.5061136460863,526.5061136460863,a,0.6953505219426006,10,345,1,527.2265230750199,528.7404623979237,,,,,,,,,,,,,,,,,,,,,,,,,,,,,,,,,,,,,,,,,,,,,,,,,,,,,,,,,,,,,,,,,,,,,,46408,2022-11-17_08h05.19.621,vts_reward_expectancy_bt_OFFLINE,2022.2.4,59.95665152737822,
0,0,0,1,1,0,0,0,star,triangle,1,0,1,0,2,3,27,9,,,,,,,,,,,,,,,,,,,,,,,,,,,,,,,,,,,,,,,,529.2408600160852,529.2408600160852,529.2408600160852,529.2408600160852,529.2408600160852,529.2408600160852,529.2408600160852,529.2408600160852,529.2408600160852,529.2408600160852,a,0.53652427601628,10,355,1,529.8112808170263,531.3268674691208,,,,,,,,,,,,,,,,,,,,,,,,,,,,,,,,,,,,,,,,,,,,,,,,,,,,,,,,,,,,,,,,,,,,,,46408,2022-11-17_08h05.19.621,vts_reward_expectancy_bt_OFFLINE,2022.2.4,59.95665152737822,
0,0,1,0,1,0,0,0,hexagon,triangle,1,0,1,0,2,4,28,6,,,,,,,,,,,,,,,,,,,,,,,,,,,,,,,,,,,,,,,,531.8267911521252,531.8267911521252,531.8267911521252,531.8267911521252,531.8267911521252,531.8267911521252,531.8267911521252,531.8267911521252,531.8267911521252,531.8267911521252,a,0.583159030880779,1,356,1,532.4301429819316,533.9441769190598,,,,,,,,,,,,,,,,,,,,,,,,,,,,,,,,,,,,,,,,,,,,,,,,,,,,,,,,,,,,,,,,,,,,,,46408,2022-11-17_08h05.19.621,vts_reward_expectancy_bt_OFFLINE,2022.2.4,59.95665152737822,
0,0,1,0,0,0,0,1,hexagon,star,1,0,1,0,2,5,29,8,,,,,,,,,,,,,,,,,,,,,,,,,,,,,,,,,,,,,,,,534.4410783851054,534.4410783851054,534.4410783851054,534.4410783851054,534.4410783851054,534.4410783851054,534.4410783851054,534.4410783851054,534.4410783851054,534.4410783851054,l,0.6242393320426345,10,366,1,535.1024258930702,536.6136994250119,,,,,,,,,,,,,,,,,,,,,,,,,,,,,,,,,,,,,,,,,,,,,,,,,,,,,,,,,,,,,,,,,,,,,,46408,2022-11-17_08h05.19.621,vts_reward_expectancy_bt_OFFLINE,2022.2.4,59.95665152737822,
0,1,0,0,0,0,1,0,circle,hexagon,1,0,1,0,2,6,30,4,,,,,,,,,,,,,,,,,,,,,,,,,,,,,,,,,,,,,,,,537.1134259290993,537.1134259290993,537.1134259290993,537.1134259290993,537.1134259290993,537.1134259290993,537.1134259290993,537.1134259290993,537.1134259290993,537.1134259290993,l,0.5400449379812926,10,376,1,537.6838466189802,539.1979646449909,,,,,,,,,,,,,,,,,,,,,,,,,,,,,,,,,,,,,,,,,,,,,,,,,,,,,,,,,,,,,,,,,,,,,,46408,2022-11-17_08h05.19.621,vts_reward_expectancy_bt_OFFLINE,2022.2.4,59.95665152737822,
0,0,0,1,0,1,0,0,star ,circle,1,0,1,0,2,7,31,10,,,,,,,,,,,,,,,,,,,,,,,,,,,,,,,,,,,,,,,,539.6830624749418,539.6830624749418,539.6830624749418,539.6830624749418,539.6830624749418,539.6830624749418,539.6830624749418,539.6830624749418,539.6830624749418,539.6830624749418,a,0.4004227169789374,10,386,1,540.1033891520929,541.6172381229699,,,,,,,,,,,,,,,,,,,,,,,,,,,,,,,,,,,,,,,,,,,,,,,,,,,,,,,,,,,,,,,,,,,,,,46408,2022-11-17_08h05.19.621,vts_reward_expectancy_bt_OFFLINE,2022.2.4,59.95665152737822,
0,1,0,0,0,0,0,1,circle,star,1,0,1,0,2,8,32,5,,,,,,,,,,,,,,,,,,,,,,,,,,,,,,,,,,,,,,,,542.117433222942,542.117433222942,542.117433222942,542.117433222942,542.117433222942,542.117433222942,542.117433222942,542.117433222942,542.117433222942,542.117433222942,l,0.5082111328374594,10,396,1,542.6540768039413,544.1681522161234,,,,,,,,,,,,,,,,,,,,,,,,,,,,,,,,,,,,,,,,,,,,,,,,,,,,,,,,,,,,,,,,,,,,,,46408,2022-11-17_08h05.19.621,vts_reward_expectancy_bt_OFFLINE,2022.2.4,59.95665152737822,
0,0,1,0,0,1,0,0,hexagon,circle,1,0,1,0,2,9,33,7,,,,,,,,,,,,,,,,,,,,,,,,,,,,,,,,,,,,,,,,544.6533137119841,544.6533137119841,544.6533137119841,544.6533137119841,544.6533137119841,544.6533137119841,544.6533137119841,544.6533137119841,544.6533137119841,544.6533137119841,a,0.8197192391380668,1,397,1,545.5072411911096,547.0208644650411,,,,,,,,,,,,,,,,,,,,,,,,,,,,,,,,,,,,,,,,,,,,,,,,,,,,,,,,,,,,,,,,,,,,,,46408,2022-11-17_08h05.19.621,vts_reward_expectancy_bt_OFFLINE,2022.2.4,59.95665152737822,
1,0,0,0,0,0,0,1,triangle,star,1,0,1,0,2,10,34,2,,,,,,,,,,,,,,,,,,,,,,,,,,,,,,,,,,,,,,,,547.5212727200706,547.5212727200706,547.5212727200706,547.5212727200706,547.5212727200706,547.5212727200706,547.5212727200706,547.5212727200706,547.5212727200706,547.5212727200706,l,0.5952914939261973,10,407,1,548.1418559791055,549.6405316400342,,,,,,,,,,,,,,,,,,,,,,,,,,,,,,,,,,,,,,,,,,,,,,,,,,,,,,,,,,,,,,,,,,,,,,46408,2022-11-17_08h05.19.621,vts_reward_expectancy_bt_OFFLINE,2022.2.4,59.95665152737822,
1,0,0,0,0,0,1,0,triangle,hexagon,1,0,1,0,2,11,35,1,,,,,,,,,,,,,,,,,,,,,,,,,,,,,,,,,,,,,,,,550.1406958170701,550.1406958170701,550.1406958170701,550.1406958170701,550.1406958170701,550.1406958170701,550.1406958170701,550.1406958170701,550.1406958170701,550.1406958170701,l,0.8441034969873726,10,417,1,551.011101426091,552.5248782639392,,,,,,,,,,,,,,,,,,,,,,,,,,,,,,,,,,,,,,,,,,,,,,,,,,,,,,,,,,,,,,,,,,,,,,46408,2022-11-17_08h05.19.621,vts_reward_expectancy_bt_OFFLINE,2022.2.4,59.95665152737822,
0,0,1,0,0,0,0,1,hexagon,star,1,0,1,0,3,0,36,8,,,,,,,,,,,,,,,,,,,,,,,,,,,,,,,,,,,,,,,,553.0250529029872,553.0250529029872,553.0250529029872,553.0250529029872,553.0250529029872,553.0250529029872,553.0250529029872,553.0250529029872,553.0250529029872,553.0250529029872,l,0.4461589949205518,1,418,1,553.4952190341428,554.9941019359976,,,,,,,,,,,,,,,,,,,,,,,,,,,,,,,,,,,,,,,,,,,,,,,,,,,,,,,,,,,,,,,,,,,,,,46408,2022-11-17_08h05.19.621,vts_reward_expectancy_bt_OFFLINE,2022.2.4,59.95665152737822,
1,0,0,0,0,0,0,1,triangle,star,1,0,1,0,3,1,37,2,,,,,,,,,,,,,,,,,,,,,,,,,,,,,,,,,,,,,,,,555.4944168489892,555.4944168489892,555.4944168489892,555.4944168489892,555.4944168489892,555.4944168489892,555.4944168489892,555.4944168489892,555.4944168489892,555.4944168489892,l,0.6439096441026777,10,428,1,556.1644428989384,557.6783802751452,,,,,,,,,,,,,,,,,,,,,,,,,,,,,,,,,,,,,,,,,,,,,,,,,,,,,,,,,,,,,,,,,,,,,,46408,2022-11-17_08h05.19.621,vts_reward_expectancy_bt_OFFLINE,2022.2.4,59.95665152737822,
0,1,0,0,0,0,0,1,circle,star,1,0,1,0,3,2,38,5,,,,,,,,,,,,,,,,,,,,,,,,,,,,,,,,,,,,,,,,558.1787248959299,558.1787248959299,558.1787248959299,558.1787248959299,558.1787248959299,558.1787248959299,558.1787248959299,558.1787248959299,558.1787248959299,558.1787248959299,l,0.43419221183285117,10,438,1,558.6466933479533,560.1480848421343,560.1480848421343,560.648178600939,,,,,,,,,,,,,,,,,,,,,,,,,,,,,,,,,,,,,,,,,,,,,,,,,,,,,,,,,,,,,,,,,,,,46408,2022-11-17_08h05.19.621,vts_reward_expectancy_bt_OFFLINE,2022.2.4,59.95665152737822,
1,0,0,0,0,1,0,0,triangle,circle,1,0,1,0,3,3,39,0,,,,,,,,,,,,,,,,,,,,,,,,,,,,,,,,,,,,,,,,560.648178600939,560.648178600939,560.648178600939,560.648178600939,560.648178600939,560.648178600939,560.648178600939,560.648178600939,560.648178600939,560.648178600939,a,0.687350413063541,1,439,1,561.3685586010106,562.8819096030202,,,,,,,,,,,,,,,,,,,,,,,,,,,,,,,,,,,,,,,,,,,,,,,,,,,,,,,,,,,,,,,,,,,,,,46408,2022-11-17_08h05.19.621,vts_reward_expectancy_bt_OFFLINE,2022.2.4,59.95665152737822,
0,0,0,1,1,0,0,0,star,triangle,1,0,1,0,3,4,40,9,,,,,,,,,,,,,,,,,,,,,,,,,,,,,,,,,,,,,,,,563.3657228800002,563.3657228800002,563.3657228800002,563.3657228800002,563.3657228800002,563.3657228800002,563.3657228800002,563.3657228800002,563.3657228800002,563.3657228800002,a,0.5693552880547941,1,440,1,563.9657847811468,565.4682375229895,,,,,,,,,,,,,,,,,,,,,,,,,,,,,,,,,,,,,,,,,,,,,,,,,,,,,,,,,,,,,,,,,,,,,,46408,2022-11-17_08h05.19.621,vts_reward_expectancy_bt_OFFLINE,2022.2.4,59.95665152737822,
1,0,0,0,0,0,1,0,triangle,hexagon,1,0,1,0,3,5,41,1,,,,,,,,,,,,,,,,,,,,,,,,,,,,,,,,,,,,,,,,565.9684927470516,565.9684927470516,565.9684927470516,565.9684927470516,565.9684927470516,565.9684927470516,565.9684927470516,565.9684927470516,565.9684927470516,565.9684927470516,l,0.6771243810653687,1,441,1,566.6689563510008,568.1693619999569,568.1693619999569,568.6693707650993,,,,,,,,,,,,,,,,,,,,,,,,,,,,,,,,,,,,,,,,,,,,,,,,,,,,,,,,,,,,,,,,,,,,46408,2022-11-17_08h05.19.621,vts_reward_expectancy_bt_OFFLINE,2022.2.4,59.95665152737822,
0,0,0,1,0,1,0,0,star ,circle,1,0,1,0,3,6,42,10,,,,,,,,,,,,,,,,,,,,,,,,,,,,,,,,,,,,,,,,568.6693707650993,568.6693707650993,568.6693707650993,568.6693707650993,568.6693707650993,568.6693707650993,568.6693707650993,568.6693707650993,568.6693707650993,568.6693707650993,a,0.5077033329289407,1,442,1,569.2061912200879,570.7054337430745,,,,,,,,,,,,,,,,,,,,,,,,,,,,,,,,,,,,,,,,,,,,,,,,,,,,,,,,,,,,,,,,,,,,,,46408,2022-11-17_08h05.19.621,vts_reward_expectancy_bt_OFFLINE,2022.2.4,59.95665152737822,
0,0,0,1,0,0,1,0,star,hexagon,1,0,1,0,3,7,43,11,,,,,,,,,,,,,,,,,,,,,,,,,,,,,,,,,,,,,,,,571.2056992640719,571.2056992640719,571.2056992640719,571.2056992640719,571.2056992640719,571.2056992640719,571.2056992640719,571.2056992640719,571.2056992640719,571.2056992640719,a,0.6379857209976763,10,452,1,571.8758818290662,573.3896135729738,,,,,,,,,,,,,,,,,,,,,,,,,,,,,,,,,,,,,,,,,,,,,,,,,,,,,,,,,,,,,,,,,,,,,,46408,2022-11-17_08h05.19.621,vts_reward_expectancy_bt_OFFLINE,2022.2.4,59.95665152737822,
0,1,0,0,1,0,0,0,circle,triangle,1,0,1,0,3,8,44,3,,,,,,,,,,,,,,,,,,,,,,,,,,,,,,,,,,,,,,,,573.8899425170384,573.8899425170384,573.8899425170384,573.8899425170384,573.8899425170384,573.8899425170384,573.8899425170384,573.8899425170384,573.8899425170384,573.8899425170384,l,0.6875204129610211,10,462,1,574.6105289310217,576.1258512570057,,,,,,,,,,,,,,,,,,,,,,,,,,,,,,,,,,,,,,,,,,,,,,,,,,,,,,,,,,,,,,,,,,,,,,46408,2022-11-17_08h05.19.621,vts_reward_expectancy_bt_OFFLINE,2022.2.4,59.95665152737822,
0,0,1,0,0,1,0,0,hexagon,circle,1,0,1,0,3,9,45,7,,,,,,,,,,,,,,,,,,,,,,,,,,,,,,,,,,,,,,,,576.6260269491468,576.6260269491468,576.6260269491468,576.6260269491468,576.6260269491468,576.6260269491468,576.6260269491468,576.6260269491468,576.6260269491468,576.6260269491468,a,0.4603031410370022,1,463,1,577.1130536699202,578.626714786049,,,,,,,,,,,,,,,,,,,,,,,,,,,,,,,,,,,,,,,,,,,,,,,,,,,,,,,,,,,,,,,,,,,,,,46408,2022-11-17_08h05.19.621,vts_reward_expectancy_bt_OFFLINE,2022.2.4,59.95665152737822,
0,1,0,0,0,0,1,0,circle,hexagon,1,0,1,0,3,10,46,4,,,,,,,,,,,,,,,,,,,,,,,,,,,,,,,,,,,,,,,,579.127029345138,579.127029345138,579.127029345138,579.127029345138,579.127029345138,579.127029345138,579.127029345138,579.127029345138,579.127029345138,579.127029345138,l,0.760836472036317,10,473,1,579.9160340910312,581.429606659105,,,,,,,,,,,,,,,,,,,,,,,,,,,,,,,,,,,,,,,,,,,,,,,,,,,,,,,,,,,,,,,,,,,,,,46408,2022-11-17_08h05.19.621,vts_reward_expectancy_bt_OFFLINE,2022.2.4,59.95665152737822,
0,0,1,0,1,0,0,0,hexagon,triangle,1,0,1,0,3,11,47,6,,,,,,,,,,,,,,,,,,,,,,,,,,,,,,,,,,,,,,,,581.929940019967,581.929940019967,581.929940019967,581.929940019967,581.929940019967,581.929940019967,581.929940019967,581.929940019967,581.929940019967,581.929940019967,a,1.8170414629857987,10,483,1,583.7642529120203,585.2662115220446,,,,,,,,,,,,,,,,,,,,,,,,,,,,,,,,,,,,,,,,,,,,,,,,,,,,,,,,,,,,,,,,,,,,,,46408,2022-11-17_08h05.19.621,vts_reward_expectancy_bt_OFFLINE,2022.2.4,59.95665152737822,
0,0,0,1,1,0,0,0,star,triangle,2,0,2,0,0,0,0,9,,,,,,,,,,,,,,,,,,,,,,,,,,,,,,,,,,,,,,,,593.1010676510632,593.1010676510632,593.1010676510632,593.1010676510632,593.1010676510632,593.1010676510632,593.1010676510632,593.1010676510632,593.1010676510632,593.1010676510632,a,0.8840896021574736,1,484,2,594.0063969381154,595.5069227190688,,,,,,,,,,,,,,,,,,,,,,,,,,,,,,,,,,,,,,,,,,,,,,,,,,,,,,,,,,,,,,,,,,,,,,46408,2022-11-17_08h05.19.621,vts_reward_expectancy_bt_OFFLINE,2022.2.4,59.95665152737822,
1,0,0,0,0,0,0,1,triangle,star,2,0,2,0,0,1,1,2,,,,,,,,,,,,,,,,,,,,,,,,,,,,,,,,,,,,,,,,596.0073485339526,596.0073485339526,596.0073485339526,596.0073485339526,596.0073485339526,596.0073485339526,596.0073485339526,596.0073485339526,596.0073485339526,596.0073485339526,l,0.6667590979486704,1,485,2,596.6914294010494,598.1912855340634,598.1912855340634,598.6910547539592,,,,,,,,,,,,,,,,,,,,,,,,,,,,,,,,,,,,,,,,,,,,,,,,,,,,,,,,,,,,,,,,,,,,46408,2022-11-17_08h05.19.621,vts_reward_expectancy_bt_OFFLINE,2022.2.4,59.95665152737822,
1,0,0,0,0,0,1,0,triangle,hexagon,2,0,2,0,0,2,2,1,,,,,,,,,,,,,,,,,,,,,,,,,,,,,,,,,,,,,,,,598.6910547539592,598.6910547539592,598.6910547539592,598.6910547539592,598.6910547539592,598.6910547539592,598.6910547539592,598.6910547539592,598.6910547539592,598.6910547539592,l,0.8184072480071336,1,486,2,599.5299228890799,601.0442223141436,,,,,,,,,,,,,,,,,,,,,,,,,,,,,,,,,,,,,,,,,,,,,,,,,,,,,,,,,,,,,,,,,,,,,,46408,2022-11-17_08h05.19.621,vts_reward_expectancy_bt_OFFLINE,2022.2.4,59.95665152737822,
0,1,0,0,0,0,0,1,circle,star,2,0,2,0,0,3,3,5,,,,,,,,,,,,,,,,,,,,,,,,,,,,,,,,,,,,,,,,601.545210022945,601.545210022945,601.545210022945,601.545210022945,601.545210022945,601.545210022945,601.545210022945,601.545210022945,601.545210022945,601.545210022945,l,0.6302364310249686,10,496,2,602.1979284470435,603.7115776119754,,,,,,,,,,,,,,,,,,,,,,,,,,,,,,,,,,,,,,,,,,,,,,,,,,,,,,,,,,,,,,,,,,,,,,46408,2022-11-17_08h05.19.621,vts_reward_expectancy_bt_OFFLINE,2022.2.4,59.95665152737822,
1,0,0,0,0,1,0,0,triangle,circle,2,0,2,0,0,4,4,0,,,,,,,,,,,,,,,,,,,,,,,,,,,,,,,,,,,,,,,,604.2131309991237,604.2131309991237,604.2131309991237,604.2131309991237,604.2131309991237,604.2131309991237,604.2131309991237,604.2131309991237,604.2131309991237,604.2131309991237,l,0.8981658760458231,10,506,2,605.1340304240584,606.6478760689497,,,,,,,,,,,,,,,,,,,,,,,,,,,,,,,,,,,,,,,,,,,,,,,,,,,,,,,,,,,,,,,,,,,,,,46408,2022-11-17_08h05.19.621,vts_reward_expectancy_bt_OFFLINE,2022.2.4,59.95665152737822,
0,0,0,1,0,1,0,0,star ,circle,2,0,2,0,0,5,5,10,,,,,,,,,,,,,,,,,,,,,,,,,,,,,,,,,,,,,,,,607.1314996299334,607.1314996299334,607.1314996299334,607.1314996299334,607.1314996299334,607.1314996299334,607.1314996299334,607.1314996299334,607.1314996299334,607.1314996299334,a,0.6922274599783123,10,516,2,607.851529794978,609.3655740581453,,,,,,,,,,,,,,,,,,,,,,,,,,,,,,,,,,,,,,,,,,,,,,,,,,,,,,,,,,,,,,,,,,,,,,46408,2022-11-17_08h05.19.621,vts_reward_expectancy_bt_OFFLINE,2022.2.4,59.95665152737822,
0,0,1,0,0,1,0,0,hexagon,circle,2,0,2,0,0,6,6,7,,,,,,,,,,,,,,,,,,,,,,,,,,,,,,,,,,,,,,,,609.8508488130756,609.8508488130756,609.8508488130756,609.8508488130756,609.8508488130756,609.8508488130756,609.8508488130756,609.8508488130756,609.8508488130756,609.8508488130756,a,0.7398507550824434,1,517,2,610.6209388191346,612.1348848531488,,,,,,,,,,,,,,,,,,,,,,,,,,,,,,,,,,,,,,,,,,,,,,,,,,,,,,,,,,,,,,,,,,,,,,46408,2022-11-17_08h05.19.621,vts_reward_expectancy_bt_OFFLINE,2022.2.4,59.95665152737822,
0,1,0,0,1,0,0,0,circle,triangle,2,0,2,0,0,7,7,3,,,,,,,,,,,,,,,,,,,,,,,,,,,,,,,,,,,,,,,,612.6184289390221,612.6184289390221,612.6184289390221,612.6184289390221,612.6184289390221,612.6184289390221,612.6184289390221,612.6184289390221,612.6184289390221,612.6184289390221,a,0.7402959270402789,10,527,2,613.3889410900883,614.8877739419695,,,,,,,,,,,,,,,,,,,,,,,,,,,,,,,,,,,,,,,,,,,,,,,,,,,,,,,,,,,,,,,,,,,,,,46408,2022-11-17_08h05.19.621,vts_reward_expectancy_bt_OFFLINE,2022.2.4,59.95665152737822,
0,0,0,1,0,0,1,0,star,hexagon,2,0,2,0,0,8,8,11,,,,,,,,,,,,,,,,,,,,,,,,,,,,,,,,,,,,,,,,615.3880557999946,615.3880557999946,615.3880557999946,615.3880557999946,615.3880557999946,615.3880557999946,615.3880557999946,615.3880557999946,615.3880557999946,615.3880557999946,a,0.50131990108639,1,528,2,615.9248972970527,617.4388995640911,,,,,,,,,,,,,,,,,,,,,,,,,,,,,,,,,,,,,,,,,,,,,,,,,,,,,,,,,,,,,,,,,,,,,,46408,2022-11-17_08h05.19.621,vts_reward_expectancy_bt_OFFLINE,2022.2.4,59.95665152737822,
0,0,1,0,1,0,0,0,hexagon,triangle,2,0,2,0,0,9,9,6,,,,,,,,,,,,,,,,,,,,,,,,,,,,,,,,,,,,,,,,617.9389331389684,617.9389331389684,617.9389331389684,617.9389331389684,617.9389331389684,617.9389331389684,617.9389331389684,617.9389331389684,617.9389331389684,617.9389331389684,l,0.1667245188727975,1,529,2,618.123055088101,619.624618567992,,,,,,,,,,,,,,,,,,,,,,,,,,,,,,,,,,,,,,,,,,,,,,,,,,,,,,,,,,,,,,,,,,,,,,46408,2022-11-17_08h05.19.621,vts_reward_expectancy_bt_OFFLINE,2022.2.4,59.95665152737822,
0,0,1,0,0,0,0,1,hexagon,star,2,0,2,0,0,10,10,8,,,,,,,,,,,,,,,,,,,,,,,,,,,,,,,,,,,,,,,,620.126687290147,620.126687290147,620.126687290147,620.126687290147,620.126687290147,620.126687290147,620.126687290147,620.126687290147,620.126687290147,620.126687290147,l,0.21858820016495883,10,539,2,620.3773411109578,621.8755576550029,,622.375839849934,,,,,,,,,,,,,,,,,,,,,,,,,,,,,,,,,,,,,,,,,,,,,,,,,,,,,,,,,,,,,,,,,,,,46408,2022-11-17_08h05.19.621,vts_reward_expectancy_bt_OFFLINE,2022.2.4,59.95665152737822,
0,1,0,0,0,0,1,0,circle,hexagon,2,0,2,0,0,11,11,4,,,,,,,,,,,,,,,,,,,,,,,,,,,,,,,,,,,,,,,,622.375839849934,622.375839849934,622.375839849934,622.375839849934,622.375839849934,622.375839849934,622.375839849934,622.375839849934,622.375839849934,622.375839849934,l,0.18597606313414872,1,540,2,622.5949567619245,624.1097643999383,,,,,,,,,,,,,,,,,,,,,,,,,,,,,,,,,,,,,,,,,,,,,,,,,,,,,,,,,,,,,,,,,,,,,,46408,2022-11-17_08h05.19.621,vts_reward_expectancy_bt_OFFLINE,2022.2.4,59.95665152737822,
0,0,0,1,0,1,0,0,star ,circle,2,0,2,0,1,0,12,10,,,,,,,,,,,,,,,,,,,,,,,,,,,,,,,,,,,,,,,,624.5952947949991,624.5952947949991,624.5952947949991,624.5952947949991,624.5952947949991,624.5952947949991,624.5952947949991,624.5952947949991,624.5952947949991,624.5952947949991,l,0.44190481095574796,1,541,2,625.0624679981265,626.5625480960589,626.5625480960589,627.0629458569456,,,,,,,,,,,,,,,,,,,,,,,,,,,,,,,,,,,,,,,,,,,,,,,,,,,,,,,,,,,,,,,,,,,,46408,2022-11-17_08h05.19.621,vts_reward_expectancy_bt_OFFLINE,2022.2.4,59.95665152737822,
0,1,0,0,1,0,0,0,circle,triangle,2,0,2,0,1,1,13,3,,,,,,,,,,,,,,,,,,,,,,,,,,,,,,,,,,,,,,,,627.0629458569456,627.0629458569456,627.0629458569456,627.0629458569456,627.0629458569456,627.0629458569456,627.0629458569456,627.0629458569456,627.0629458569456,627.0629458569456,l,0.15566909313201904,10,551,2,627.2490765890107,628.7633839310147,,,,,,,,,,,,,,,,,,,,,,,,,,,,,,,,,,,,,,,,,,,,,,,,,,,,,,,,,,,,,,,,,,,,,,46408,2022-11-17_08h05.19.621,vts_reward_expectancy_bt_OFFLINE,2022.2.4,59.95665152737822,
0,0,0,1,1,0,0,0,star,triangle,2,0,2,0,1,2,14,9,,,,,,,,,,,,,,,,,,,,,,,,,,,,,,,,,,,,,,,,629.2638930340763,629.2638930340763,629.2638930340763,629.2638930340763,629.2638930340763,629.2638930340763,629.2638930340763,629.2638930340763,629.2638930340763,629.2638930340763,l,0.19421280804090202,1,552,2,629.4944999581203,630.9826240041293,,,,,,,,,,,,,,,,,,,,,,,,,,,,,,,,,,,,,,,,,,,,,,,,,,,,,,,,,,,,,,,,,,,,,,46408,2022-11-17_08h05.19.621,vts_reward_expectancy_bt_OFFLINE,2022.2.4,59.95665152737822,
0,0,1,0,1,0,0,0,hexagon,triangle,2,0,2,0,1,3,15,6,,,,,,,,,,,,,,,,,,,,,,,,,,,,,,,,,,,,,,,,631.4828461611178,631.4828461611178,631.4828461611178,631.4828461611178,631.4828461611178,631.4828461611178,631.4828461611178,631.4828461611178,631.4828461611178,631.4828461611178,a,0.22534741810522974,1,553,2,631.7339396709576,633.2333889300935,633.2333889300935,633.7336231980007,,,,,,,,,,,,,,,,,,,,,,,,,,,,,,,,,,,,,,,,,,,,,,,,,,,,,,,,,,,,,,,,,,,,46408,2022-11-17_08h05.19.621,vts_reward_expectancy_bt_OFFLINE,2022.2.4,59.95665152737822,
1,0,0,0,0,0,1,0,triangle,hexagon,2,0,2,0,1,4,16,1,,,,,,,,,,,,,,,,,,,,,,,,,,,,,,,,,,,,,,,,633.7336231980007,633.7336231980007,633.7336231980007,633.7336231980007,633.7336231980007,633.7336231980007,633.7336231980007,633.7336231980007,633.7336231980007,633.7336231980007,l,0.13422130304388702,1,554,2,633.900494543137,635.4025672310963,635.4025672310963,635.9029791920912,,,,,,,,,,,,,,,,,,,,,,,,,,,,,,,,,,,,,,,,,,,,,,,,,,,,,,,,,,,,,,,,,,,,46408,2022-11-17_08h05.19.621,vts_reward_expectancy_bt_OFFLINE,2022.2.4,59.95665152737822,
0,0,1,0,0,0,0,1,hexagon,star,2,0,2,0,1,5,17,8,,,,,,,,,,,,,,,,,,,,,,,,,,,,,,,,,,,,,,,,635.9029791920912,635.9029791920912,635.9029791920912,635.9029791920912,635.9029791920912,635.9029791920912,635.9029791920912,635.9029791920912,635.9029791920912,635.9029791920912,a,1.3755331430584192,1,555,2,637.304236943135,638.8038871739991,,639.3038401559461,,,,,,,,,,,,,,,,,,,,,,,,,,,,,,,,,,,,,,,,,,,,,,,,,,,,,,,,,,,,,,,,,,,,46408,2022-11-17_08h05.19.621,vts_reward_expectancy_bt_OFFLINE,2022.2.4,59.95665152737822,
1,0,0,0,0,1,0,0,triangle,circle,2,0,2,0,1,6,18,0,,,,,,,,,,,,,,,,,,,,,,,,,,,,,,,,,,,,,,,,639.3038401559461,639.3038401559461,639.3038401559461,639.3038401559461,639.3038401559461,639.3038401559461,639.3038401559461,639.3038401559461,639.3038401559461,639.3038401559461,a,0.40300437109544873,10,565,2,639.7423149559181,641.2565619540401,,,,,,,,,,,,,,,,,,,,,,,,,,,,,,,,,,,,,,,,,,,,,,,,,,,,,,,,,,,,,,,,,,,,,,46408,2022-11-17_08h05.19.621,vts_reward_expectancy_bt_OFFLINE,2022.2.4,59.95665152737822,
0,1,0,0,0,0,0,1,circle,star,2,0,2,0,1,7,19,5,,,,,,,,,,,,,,,,,,,,,,,,,,,,,,,,,,,,,,,,641.7568613770418,641.7568613770418,641.7568613770418,641.7568613770418,641.7568613770418,641.7568613770418,641.7568613770418,641.7568613770418,641.7568613770418,641.7568613770418,l,0.6620834618806839,10,575,2,642.4432510430925,643.9573027540464,,,,,,,,,,,,,,,,,,,,,,,,,,,,,,,,,,,,,,,,,,,,,,,,,,,,,,,,,,,,,,,,,,,,,,46408,2022-11-17_08h05.19.621,vts_reward_expectancy_bt_OFFLINE,2022.2.4,59.95665152737822,
1,0,0,0,0,0,0,1,triangle,star,2,0,2,0,1,8,20,2,,,,,,,,,,,,,,,,,,,,,,,,,,,,,,,,,,,,,,,,644.4575609310996,644.4575609310996,644.4575609310996,644.4575609310996,644.4575609310996,644.4575609310996,644.4575609310996,644.4575609310996,644.4575609310996,644.4575609310996,l,0.5378790460526943,10,585,2,645.0283685629256,646.543440798996,,,,,,,,,,,,,,,,,,,,,,,,,,,,,,,,,,,,,,,,,,,,,,,,,,,,,,,,,,,,,,,,,,,,,,46408,2022-11-17_08h05.19.621,vts_reward_expectancy_bt_OFFLINE,2022.2.4,59.95665152737822,
0,1,0,0,0,0,1,0,circle,hexagon,2,0,2,0,1,9,21,4,,,,,,,,,,,,,,,,,,,,,,,,,,,,,,,,,,,,,,,,647.043998062145,647.043998062145,647.043998062145,647.043998062145,647.043998062145,647.043998062145,647.043998062145,647.043998062145,647.043998062145,647.043998062145,a,0.4715504548512399,10,595,2,647.5451621150132,649.0445449780673,649.0445449780673,,,,,,,,,,,,,,,,,,,,,,,,,,,,,,,,,,,,,,,,,,,,,,,,,,,,,,,,,,,,,,,,,,,,,46408,2022-11-17_08h05.19.621,vts_reward_expectancy_bt_OFFLINE,2022.2.4,59.95665152737822,
0,0,0,1,0,0,1,0,star,hexagon,2,0,2,0,1,10,22,11,,,,,,,,,,,,,,,,,,,,,,,,,,,,,,,,,,,,,,,,649.5508121501189,649.5508121501189,649.5508121501189,649.5508121501189,649.5508121501189,649.5508121501189,649.5508121501189,649.5508121501189,649.5508121501189,649.5508121501189,a,0.439036482013762,1,596,2,650.016491828952,651.5306444261223,,,,,,,,,,,,,,,,,,,,,,,,,,,,,,,,,,,,,,,,,,,,,,,,,,,,,,,,,,,,,,,,,,,,,,46408,2022-11-17_08h05.19.621,vts_reward_expectancy_bt_OFFLINE,2022.2.4,59.95665152737822,
0,0,1,0,0,1,0,0,hexagon,circle,2,0,2,0,1,11,23,7,,,,,,,,,,,,,,,,,,,,,,,,,,,,,,,,,,,,,,,,652.0143343009986,652.0143343009986,652.0143343009986,652.0143343009986,652.0143343009986,652.0143343009986,652.0143343009986,652.0143343009986,652.0143343009986,652.0143343009986,l,0.2817441869992763,1,597,2,652.3151807789691,653.8148277280852,653.8148277280852,654.3147889690008,,,,,,,,,,,,,,,,,,,,,,,,,,,,,,,,,,,,,,,,,,,,,,,,,,,,,,,,,,,,,,,,,,,,46408,2022-11-17_08h05.19.621,vts_reward_expectancy_bt_OFFLINE,2022.2.4,59.95665152737822,
0,0,0,1,1,0,0,0,star,triangle,2,0,2,0,2,0,24,9,,,,,,,,,,,,,,,,,,,,,,,,,,,,,,,,,,,,,,,,654.3147889690008,654.3147889690008,654.3147889690008,654.3147889690008,654.3147889690008,654.3147889690008,654.3147889690008,654.3147889690008,654.3147889690008,654.3147889690008,a,0.1308933710679412,10,607,2,654.4683570070192,655.9672141880728,,,,,,,,,,,,,,,,,,,,,,,,,,,,,,,,,,,,,,,,,,,,,,,,,,,,,,,,,,,,,,,,,,,,,,46408,2022-11-17_08h05.19.621,vts_reward_expectancy_bt_OFFLINE,2022.2.4,59.95665152737822,
0,0,1,0,1,0,0,0,hexagon,triangle,2,0,2,0,2,1,25,6,,,,,,,,,,,,,,,,,,,,,,,,,,,,,,,,,,,,,,,,656.4675348449964,656.4675348449964,656.4675348449964,656.4675348449964,656.4675348449964,656.4675348449964,656.4675348449964,656.4675348449964,656.4675348449964,656.4675348449964,l,0.2500814669765532,1,608,2,656.7377129970118,658.2515882861335,,,,,,,,,,,,,,,,,,,,,,,,,,,,,,,,,,,,,,,,,,,,,,,,,,,,,,,,,,,,,,,,,,,,,,46408,2022-11-17_08h05.19.621,vts_reward_expectancy_bt_OFFLINE,2022.2.4,59.95665152737822,
0,0,0,1,0,0,1,0,star,hexagon,2,0,2,0,2,2,26,11,,,,,,,,,,,,,,,,,,,,,,,,,,,,,,,,,,,,,,,,658.7518713150639,658.7518713150639,658.7518713150639,658.7518713150639,658.7518713150639,658.7518713150639,658.7518713150639,658.7518713150639,658.7518713150639,658.7518713150639,a,0.06999293994158506,10,618,2,658.8548379959539,660.3541808170266,,,,,,,,,,,,,,,,,,,,,,,,,,,,,,,,,,,,,,,,,,,,,,,,,,,,,,,,,,,,,,,,,,,,,,46408,2022-11-17_08h05.19.621,vts_reward_expectancy_bt_OFFLINE,2022.2.4,59.95665152737822,
0,0,1,0,0,0,0,1,hexagon,star,2,0,2,0,2,3,27,8,,,,,,,,,,,,,,,,,,,,,,,,,,,,,,,,,,,,,,,,660.8542361471336,660.8542361471336,660.8542361471336,660.8542361471336,660.8542361471336,660.8542361471336,660.8542361471336,660.8542361471336,660.8542361471336,660.8542361471336,a,0.2742089689709246,1,619,2,661.1578822799493,662.6714238459244,,,,,,,,,,,,,,,,,,,,,,,,,,,,,,,,,,,,,,,,,,,,,,,,,,,,,,,,,,,,,,,,,,,,,,46408,2022-11-17_08h05.19.621,vts_reward_expectancy_bt_OFFLINE,2022.2.4,59.95665152737822,
1,0,0,0,0,0,1,0,triangle,hexagon,2,0,2,0,2,4,28,1,,,,,,,,,,,,,,,,,,,,,,,,,,,,,,,,,,,,,,,,663.171797801042,663.171797801042,663.171797801042,663.171797801042,663.171797801042,663.171797801042,663.171797801042,663.171797801042,663.171797801042,663.171797801042,a,0.12803467502817512,1,620,2,663.322976842057,664.8243175901007,,,,,,,,,,,,,,,,,,,,,,,,,,,,,,,,,,,,,,,,,,,,,,,,,,,,,,,,,,,,,,,,,,,,,,46408,2022-11-17_08h05.19.621,vts_reward_expectancy_bt_OFFLINE,2022.2.4,59.95665152737822,
0,1,0,0,1,0,0,0,circle,triangle,2,0,2,0,2,5,29,3,,,,,,,,,,,,,,,,,,,,,,,,,,,,,,,,,,,,,,,,665.3243845261168,665.3243845261168,665.3243845261168,665.3243845261168,665.3243845261168,665.3243845261168,665.3243845261168,665.3243845261168,665.3243845261168,665.3243845261168,l,0.6864009518176317,1,621,2,666.0423689391464,667.5416857600212,667.5416857600212,668.0419464129955,,,,,,,,,,,,,,,,,,,,,,,,,,,,,,,,,,,,,,,,,,,,,,,,,,,,,,,,,,,,,,,,,,,,46408,2022-11-17_08h05.19.621,vts_reward_expectancy_bt_OFFLINE,2022.2.4,59.95665152737822,
1,0,0,0,0,0,0,1,triangle,star,2,0,2,0,2,6,30,2,,,,,,,,,,,,,,,,,,,,,,,,,,,,,,,,,,,,,,,,668.0419464129955,668.0419464129955,668.0419464129955,668.0419464129955,668.0419464129955,668.0419464129955,668.0419464129955,668.0419464129955,668.0419464129955,668.0419464129955,a,0.07289060112088919,1,622,2,668.1433680870105,669.6444421601482,,,,,,,,,,,,,,,,,,,,,,,,,,,,,,,,,,,,,,,,,,,,,,,,,,,,,,,,,,,,,,,,,,,,,,46408,2022-11-17_08h05.19.621,vts_reward_expectancy_bt_OFFLINE,2022.2.4,59.95665152737822,
0,0,1,0,0,1,0,0,hexagon,circle,2,0,2,0,2,7,31,7,,,,,,,,,,,,,,,,,,,,,,,,,,,,,,,,,,,,,,,,670.1446473959368,670.1446473959368,670.1446473959368,670.1446473959368,670.1446473959368,670.1446473959368,670.1446473959368,670.1446473959368,670.1446473959368,670.1446473959368,l,0.828147852094844,10,632,2,670.9982820369769,672.5121768701356,,,,,,,,,,,,,,,,,,,,,,,,,,,,,,,,,,,,,,,,,,,,,,,,,,,,,,,,,,,,,,,,,,,,,,46408,2022-11-17_08h05.19.621,vts_reward_expectancy_bt_OFFLINE,2022.2.4,59.95665152737822,
0,0,0,1,0,1,0,0,star ,circle,2,0,2,0,2,8,32,10,,,,,,,,,,,,,,,,,,,,,,,,,,,,,,,,,,,,,,,,673.0126185000408,673.0126185000408,673.0126185000408,673.0126185000408,673.0126185000408,673.0126185000408,673.0126185000408,673.0126185000408,673.0126185000408,673.0126185000408,l,0.13062746403738856,1,633,2,673.1656627259217,674.6647724721115,,,,,,,,,,,,,,,,,,,,,,,,,,,,,,,,,,,,,,,,,,,,,,,,,,,,,,,,,,,,,,,,,,,,,,46408,2022-11-17_08h05.19.621,vts_reward_expectancy_bt_OFFLINE,2022.2.4,59.95665152737822,
0,1,0,0,0,0,1,0,circle,hexagon,2,0,2,0,2,9,33,4,,,,,,,,,,,,,,,,,,,,,,,,,,,,,,,,,,,,,,,,675.1679736240767,675.1679736240767,675.1679736240767,675.1679736240767,675.1679736240767,675.1679736240767,675.1679736240767,675.1679736240767,675.1679736240767,675.1679736240767,a,0.2366566751152277,10,643,2,675.4349429379217,676.9490204821341,,,,,,,,,,,,,,,,,,,,,,,,,,,,,,,,,,,,,,,,,,,,,,,,,,,,,,,,,,,,,,,,,,,,,,46408,2022-11-17_08h05.19.621,vts_reward_expectancy_bt_OFFLINE,2022.2.4,59.95665152737822,
0,1,0,0,0,0,0,1,circle,star,2,0,2,0,2,10,34,5,,,,,,,,,,,,,,,,,,,,,,,,,,,,,,,,,,,,,,,,677.4489410810638,677.4489410810638,677.4489410810638,677.4489410810638,677.4489410810638,677.4489410810638,677.4489410810638,677.4489410810638,677.4489410810638,677.4489410810638,a,0.10532510397024453,1,644,2,677.5857580259908,679.099673595978,,,,,,,,,,,,,,,,,,,,,,,,,,,,,,,,,,,,,,,,,,,,,,,,,,,,,,,,,,,,,,,,,,,,,,46408,2022-11-17_08h05.19.621,vts_reward_expectancy_bt_OFFLINE,2022.2.4,59.95665152737822,
1,0,0,0,0,1,0,0,triangle,circle,2,0,2,0,2,11,35,0,,,,,,,,,,,,,,,,,,,,,,,,,,,,,,,,,,,,,,,,679.5884649900254,679.5884649900254,679.5884649900254,679.5884649900254,679.5884649900254,679.5884649900254,679.5884649900254,679.5884649900254,679.5884649900254,679.5884649900254,a,0.24886207678355277,1,645,2,679.8691460860427,681.3688494949602,681.3688494949602,681.8693295700941,,,,,,,,,,,,,,,,,,,,,,,,,,,,,,,,,,,,,,,,,,,,,,,,,,,,,,,,,,,,,,,,,,,,46408,2022-11-17_08h05.19.621,vts_reward_expectancy_bt_OFFLINE,2022.2.4,59.95665152737822,
1,0,0,0,0,0,1,0,triangle,hexagon,2,0,2,0,3,0,36,1,,,,,,,,,,,,,,,,,,,,,,,,,,,,,,,,,,,,,,,,681.8693295700941,681.8693295700941,681.8693295700941,681.8693295700941,681.8693295700941,681.8693295700941,681.8693295700941,681.8693295700941,681.8693295700941,681.8693295700941,a,0.17311773588880897,10,655,2,682.0724187621381,683.5864324539434,,,,,,,,,,,,,,,,,,,,,,,,,,,,,,,,,,,,,,,,,,,,,,,,,,,,,,,,,,,,,,,,,,,,,,46408,2022-11-17_08h05.19.621,vts_reward_expectancy_bt_OFFLINE,2022.2.4,59.95665152737822,
0,0,0,1,0,0,1,0,star,hexagon,2,0,2,0,3,1,37,11,,,,,,,,,,,,,,,,,,,,,,,,,,,,,,,,,,,,,,,,684.0898875850253,684.0898875850253,684.0898875850253,684.0898875850253,684.0898875850253,684.0898875850253,684.0898875850253,684.0898875850253,684.0898875850253,684.0898875850253,a,0.3714713449589908,10,665,2,684.4882268970832,685.98905439605,,,,,,,,,,,,,,,,,,,,,,,,,,,,,,,,,,,,,,,,,,,,,,,,,,,,,,,,,,,,,,,,,,,,,,46408,2022-11-17_08h05.19.621,vts_reward_expectancy_bt_OFFLINE,2022.2.4,59.95665152737822,
1,0,0,0,0,1,0,0,triangle,circle,2,0,2,0,3,2,38,0,,,,,,,,,,,,,,,,,,,,,,,,,,,,,,,,,,,,,,,,686.4892869750038,686.4892869750038,686.4892869750038,686.4892869750038,686.4892869750038,686.4892869750038,686.4892869750038,686.4892869750038,686.4892869750038,686.4892869750038,a,0.4025012629572302,10,675,2,686.9241091760341,688.4235196879599,688.4235196879599,688.9234649459831,,,,,,,,,,,,,,,,,,,,,,,,,,,,,,,,,,,,,,,,,,,,,,,,,,,,,,,,,,,,,,,,,,,,46408,2022-11-17_08h05.19.621,vts_reward_expectancy_bt_OFFLINE,2022.2.4,59.95665152737822,
0,0,0,1,0,1,0,0,star ,circle,2,0,2,0,3,3,39,10,,,,,,,,,,,,,,,,,,,,,,,,,,,,,,,,,,,,,,,,688.9234649459831,688.9234649459831,688.9234649459831,688.9234649459831,688.9234649459831,688.9234649459831,688.9234649459831,688.9234649459831,688.9234649459831,688.9234649459831,a,0.16166737605817616,10,685,2,689.1088532500435,690.609425943112,,,,,,,,,,,,,,,,,,,,,,,,,,,,,,,,,,,,,,,,,,,,,,,,,,,,,,,,,,,,,,,,,,,,,,46408,2022-11-17_08h05.19.621,vts_reward_expectancy_bt_OFFLINE,2022.2.4,59.95665152737822,
0,1,0,0,1,0,0,0,circle,triangle,2,0,2,0,3,4,40,3,,,,,,,,,,,,,,,,,,,,,,,,,,,,,,,,,,,,,,,,691.1106550039258,691.1106550039258,691.1106550039258,691.1106550039258,691.1106550039258,691.1106550039258,691.1106550039258,691.1106550039258,691.1106550039258,691.1106550039258,l,0.25907168188132346,1,686,2,691.396480493946,692.911162185017,,,,,,,,,,,,,,,,,,,,,,,,,,,,,,,,,,,,,,,,,,,,,,,,,,,,,,,,,,,,,,,,,,,,,,46408,2022-11-17_08h05.19.621,vts_reward_expectancy_bt_OFFLINE,2022.2.4,59.95665152737822,
0,0,1,0,1,0,0,0,hexagon,triangle,2,0,2,0,3,5,41,6,,,,,,,,,,,,,,,,,,,,,,,,,,,,,,,,,,,,,,,,693.4134465570096,693.4134465570096,693.4134465570096,693.4134465570096,693.4134465570096,693.4134465570096,693.4134465570096,693.4134465570096,693.4134465570096,693.4134465570096,l,0.24021259299479425,1,687,2,693.6792813651264,695.1806614780799,,,,,,,,,,,,,,,,,,,,,,,,,,,,,,,,,,,,,,,,,,,,,,,,,,,,,,,,,,,,,,,,,,,,,,46408,2022-11-17_08h05.19.621,vts_reward_expectancy_bt_OFFLINE,2022.2.4,59.95665152737822,
0,1,0,0,0,0,1,0,circle,hexagon,2,0,2,0,3,6,42,4,,,,,,,,,,,,,,,,,,,,,,,,,,,,,,,,,,,,,,,,695.6794332840946,695.6794332840946,695.6794332840946,695.6794332840946,695.6794332840946,695.6794332840946,695.6794332840946,695.6794332840946,695.6794332840946,695.6794332840946,l,0.07805208908393979,1,688,2,695.7819180069491,697.2967541569378,,,,,,,,,,,,,,,,,,,,,,,,,,,,,,,,,,,,,,,,,,,,,,,,,,,,,,,,,,,,,,,,,,,,,,46408,2022-11-17_08h05.19.621,vts_reward_expectancy_bt_OFFLINE,2022.2.4,59.95665152737822,
0,1,0,0,0,0,0,1,circle,star,2,0,2,0,3,7,43,5,,,,,,,,,,,,,,,,,,,,,,,,,,,,,,,,,,,,,,,,697.7968983680476,697.7968983680476,697.7968983680476,697.7968983680476,697.7968983680476,697.7968983680476,697.7968983680476,697.7968983680476,697.7968983680476,697.7968983680476,l,0.10878253495320678,1,689,2,697.9328080259729,699.4476465419866,,,,,,,,,,,,,,,,,,,,,,,,,,,,,,,,,,,,,,,,,,,,,,,,,,,,,,,,,,,,,,,,,,,,,,46408,2022-11-17_08h05.19.621,vts_reward_expectancy_bt_OFFLINE,2022.2.4,59.95665152737822,
0,0,1,0,0,0,0,1,hexagon,star,2,0,2,0,3,8,44,8,,,,,,,,,,,,,,,,,,,,,,,,,,,,,,,,,,,,,,,,699.9363882821053,699.9363882821053,699.9363882821053,699.9363882821053,699.9363882821053,699.9363882821053,699.9363882821053,699.9363882821053,699.9363882821053,699.9363882821053,l,0.2760117780417204,10,699,2,700.2363281310536,701.7337603140622,,,,,,,,,,,,,,,,,,,,,,,,,,,,,,,,,,,,,,,,,,,,,,,,,,,,,,,,,,,,,,,,,,,,,,46408,2022-11-17_08h05.19.621,vts_reward_expectancy_bt_OFFLINE,2022.2.4,59.95665152737822,
0,0,1,0,0,1,0,0,hexagon,circle,2,0,2,0,3,9,45,7,,,,,,,,,,,,,,,,,,,,,,,,,,,,,,,,,,,,,,,,702.2340204259381,702.2340204259381,702.2340204259381,702.2340204259381,702.2340204259381,702.2340204259381,702.2340204259381,702.2340204259381,702.2340204259381,702.2340204259381,l,0.21753178210929036,1,700,2,702.4870704610366,704.0010682039429,,,,,,,,,,,,,,,,,,,,,,,,,,,,,,,,,,,,,,,,,,,,,,,,,,,,,,,,,,,,,,,,,,,,,,46408,2022-11-17_08h05.19.621,vts_reward_expectancy_bt_OFFLINE,2022.2.4,59.95665152737822,
0,0,0,1,1,0,0,0,star,triangle,2,0,2,0,3,10,46,9,,,,,,,,,,,,,,,,,,,,,,,,,,,,,,,,,,,,,,,,704.5012699349318,704.5012699349318,704.5012699349318,704.5012699349318,704.5012699349318,704.5012699349318,704.5012699349318,704.5012699349318,704.5012699349318,704.5012699349318,l,0.1097874860279262,10,710,2,704.6408425280824,706.1538808429614,,,,,,,,,,,,,,,,,,,,,,,,,,,,,,,,,,,,,,,,,,,,,,,,,,,,,,,,,,,,,,,,,,,,,,46408,2022-11-17_08h05.19.621,vts_reward_expectancy_bt_OFFLINE,2022.2.4,59.95665152737822,
1,0,0,0,0,0,0,1,triangle,star,2,0,2,0,3,11,47,2,,,,,,,,,,,,,,,,,,,,,,,,,,,,,,,,,,,,,,,,706.6572791901417,706.6572791901417,706.6572791901417,706.6572791901417,706.6572791901417,706.6572791901417,706.6572791901417,706.6572791901417,706.6572791901417,706.6572791901417,l,0.31662064092233777,10,720,2,707.0066479870584,708.5234881730285,,,,,,,,,,,,,,,,,,,,,,,,,,,,,,,,,,,,,,,,,,,,,,,,,,,,,,,,,,,,,,,,,,,,,,46408,2022-11-17_08h05.19.621,vts_reward_expectancy_bt_OFFLINE,2022.2.4,59.95665152737822,
,,,,,,,,,,,,,,,,,,0,0,0,0,0,0,0,0,,,,,,,,,,,,,,,,,,,,,,,,,,,,,,,,,,,,,,,,,,,,,,,,738.2430335630197,,,F,139,circle,0.0006371221970766783,733.4020800990984,734.8918217909522,734.8918217909522,734.8918217909522,1,0,d,1.8059484858531505,0,736.7298164260574,,,,,,,,,,,,,,,,,,,,,,,,,,,,,,,,,,,,,,,,,,,,,,,,,,,,,,46408,2022-11-17_08h05.19.621,vts_reward_expectancy_bt_OFFLINE,2022.2.4,59.95665152737822,
,,,,,,,,,,,,,,,,,,0,0,0,0,1,0,1,0,,,,,,,,,,,,,,,,,,,,,,,,,,,,,,,,,,,,,,,,,,,,,,,,743.2300669839606,,,Y,132,triangle,0.016881991177797318,739.2392164890189,740.712320601102,740.712320601102,740.712320601102,0,0,d,0.9697339131962508,0,741.7158770279493,,,,,,,,,,,,,,,,,,,,,,,,,,,,,,,,,,,,,,,,,,,,,,,,,,,,,,46408,2022-11-17_08h05.19.621,vts_reward_expectancy_bt_OFFLINE,2022.2.4,59.95665152737822,
,,,,,,,,,,,,,,,,,,0,0,0,0,2,0,2,0,,,,,,,,,,,,,,,,,,,,,,,,,,,,,,,,,,,,,,,,,,,,,,,,749.4506058120169,,,H,160,hexagon,0.016653452068567276,744.2265265730675,745.6992256110534,745.6992256110534,745.6992256110534,1,1,d,2.215690677985549,0,747.9366167250555,,,,,,,,,,,,,,,,,,,,,,,,,,,,,,,,,,,,,,,,,,,,,,,,,,,,,,46408,2022-11-17_08h05.19.621,vts_reward_expectancy_bt_OFFLINE,2022.2.4,59.95665152737822,
,,,,,,,,,,,,,,,,,,0,0,0,0,3,0,3,0,,,,,,,,,,,,,,,,,,,,,,,,,,,,,,,,,,,,,,,,,,,,,,,,754.4542503061239,,,S,125,star,0.0018678600899875164,750.4318463481031,751.9200384709984,751.9200384709984,751.9200384709984,1,0,f,0.9899429769720882,0,752.9515680789482,,,,,,,,,,,,,,,,,,,,,,,,,,,,,,,,,,,,,,,,,,,,,,,,,,,,,,46408,2022-11-17_08h05.19.621,vts_reward_expectancy_bt_OFFLINE,2022.2.4,59.95665152737822,
,,,,,,,,,,,,,,,,,,0,0,0,0,4,0,4,0,,,,,,,,,,,,,,,,,,,,,,,,,,,,,,,,,,,,,,,,,,,,,,,,759.2247909391299,,,D,167,circle,0.0019380999729037285,755.4351110281423,756.9238678959664,756.9238678959664,756.9238678959664,1,0,d,0.7562034260481596,0,757.7217377091292,,,,,,,,,,,,,,,,,,,,,,,,,,,,,,,,,,,,,,,,,,,,,,,,,,,,,,46408,2022-11-17_08h05.19.621,vts_reward_expectancy_bt_OFFLINE,2022.2.4,59.95665152737822,
,,,,,,,,,,,,,,,,,,0,0,0,0,5,0,5,0,,,,,,,,,,,,,,,,,,,,,,,,,,,,,,,,,,,,,,,,,,,,,,,,764.0114472410642,,,W,181,hexagon,0.0019766069017350674,760.2054189450573,761.6939310750458,761.6939310750458,761.6939310750458,1,0,f,0.7677442659623921,0,762.4962913719937,,,,,,,,,,,,,,,,,,,,,,,,,,,,,,,,,,,,,,,,,,,,,,,,,,,,,,46408,2022-11-17_08h05.19.621,vts_reward_expectancy_bt_OFFLINE,2022.2.4,59.95665152737822,
,,,,,,,,,,,,,,,,,,0,0,0,0,6,0,6,0,,,,,,,,,,,,,,,,,,,,,,,,,,,,,,,,,,,,,,,,,,,,,,,,768.8147450541146,,,U,174,star,0.013629406923428178,765.007971911924,766.4809538619593,766.4809538619593,766.4809538619593,1,0,f,0.7845753498841077,0,767.3143200511113,,,,,,,,,,,,,,,,,,,,,,,,,,,,,,,,,,,,,,,,,,,,,,,,,,,,,,46408,2022-11-17_08h05.19.621,vts_reward_expectancy_bt_OFFLINE,2022.2.4,59.95665152737822,
,,,,,,,,,,,,,,,,,,0,0,0,0,7,0,7,0,,,,,,,,,,,,,,,,,,,,,,,,,,,,,,,,,,,,,,,,,,,,,,,,773.5184141010977,,,B,146,triangle,0.0021828999742865562,769.8113912339322,771.3011741989758,771.3011741989758,771.3011741989758,1,0,d,0.6787711430806667,0,772.004144417122,,,,,,,,,,,,,,,,,,,,,,,,,,,,,,,,,,,,,,,,,,,,,,,,,,,,,,46408,2022-11-17_08h05.19.621,vts_reward_expectancy_bt_OFFLINE,2022.2.4,59.95665152737822,
,,,,,,,,,,,,,,,,,,0,0,0,0,8,0,8,0,,,,,,,,,,,,,,,,,,,,,,,,,,,,,,,,,,,,,,,,,,,,,,,,778.1721537990961,,,F,139,star,0.016892658080905676,774.5144188220147,775.9881540040951,775.9881540040951,775.9881540040951,1,0,d,0.6492945209611207,0,776.6572841990273,,,,,,,,,,,,,,,,,,,,,,,,,,,,,,,,,,,,,,,,,,,,,,,,,,,,,,46408,2022-11-17_08h05.19.621,vts_reward_expectancy_bt_OFFLINE,2022.2.4,59.95665152737822,
,,,,,,,,,,,,,,,,,,0,0,0,0,9,0,9,0,,,,,,,,,,,,,,,,,,,,,,,,,,,,,,,,,,,,,,,,,,,,,,,,783.1422950241249,,,Y,132,hexagon,0.00038788304664194584,779.1510574379936,780.6415861330461,780.6415861330461,780.6415861330461,1,0,f,0.9584581120871007,0,781.6279121029656,,,,,,,,,,,,,,,,,,,,,,,,,,,,,,,,,,,,,,,,,,,,,,,,,,,,,,46408,2022-11-17_08h05.19.621,vts_reward_expectancy_bt_OFFLINE,2022.2.4,59.95665152737822,
,,,,,,,,,,,,,,,,,,,,,,,,,,0,0,0,0,0,0,0,0,,,,,,,,,,,,,,,,,,,,,,,,,,,,,,,,,,,,,,,,798.0863589651417,,,Y,181,triangle,0.01735241594724357,,,,,1,0,,,1,796.5837828239892,794.2962700610515,795.7690525839571,795.7690525839571,795.7690525839571,k,0.7706813479308039,,,,,,,,,,,,,,,,,,,,,,,,,,,,,,,,,,,,,,,,,,,,,,,,46408,2022-11-17_08h05.19.621,vts_reward_expectancy_bt_OFFLINE,2022.2.4,59.95665152737822,
,,,,,,,,,,,,,,,,,,,,,,,,,,0,0,0,0,1,0,1,0,,,,,,,,,,,,,,,,,,,,,,,,,,,,,,,,,,,,,,,,802.5898617161438,,,F,132,hexagon,0.0003904839977622032,,,,,1,0,,,1,801.0757928539533,799.0656773429364,800.5558082349598,800.5558082349598,800.5558082349598,j,0.49605895578861237,,,,,,,,,,,,,,,,,,,,,,,,,,,,,,,,,,,,,,,,,,,,,,,,46408,2022-11-17_08h05.19.621,vts_reward_expectancy_bt_OFFLINE,2022.2.4,59.95665152737822,
,,,,,,,,,,,,,,,,,,,,,,,,,,0,0,0,0,2,0,2,0,,,,,,,,,,,,,,,,,,,,,,,,,,,,,,,,,,,,,,,,807.4935116760898,,,B,160,star,0.01655023405328393,,,,,1,0,,,1,805.9795098139439,803.5862482909579,805.059213032946,805.059213032946,805.059213032946,k,0.886865874985233,,,,,,,,,,,,,,,,,,,,,,,,,,,,,,,,,,,,,,,,,,,,,,,,46408,2022-11-17_08h05.19.621,vts_reward_expectancy_bt_OFFLINE,2022.2.4,59.95665152737822,
,,,,,,,,,,,,,,,,,,,,,,,,,,0,0,0,0,3,0,3,0,,,,,,,,,,,,,,,,,,,,,,,,,,,,,,,,,,,,,,,,812.4972874119412,,,W,139,circle,0.016429777024313807,,,,,1,0,,,1,810.983434453141,808.48959458014,809.9629326991271,809.9629326991271,809.9629326991271,j,1.0000822930596769,,,,,,,,,,,,,,,,,,,,,,,,,,,,,,,,,,,,,,,,,,,,,,,,46408,2022-11-17_08h05.19.621,vts_reward_expectancy_bt_OFFLINE,2022.2.4,59.95665152737822,
,,,,,,,,,,,,,,,,,,,,,,,,,,0,0,0,0,4,0,4,0,,,,,,,,,,,,,,,,,,,,,,,,,,,,,,,,,,,,,,,,817.1175152899232,,,H,125,triangle,0.01638484699651599,,,,,1,0,,,1,815.6034435271285,813.4931035230402,814.966867501149,814.966867501149,814.966867501149,j,0.6087797048967332,,,,,,,,,,,,,,,,,,,,,,,,,,,,,,,,,,,,,,,,,,,,,,,,46408,2022-11-17_08h05.19.621,vts_reward_expectancy_bt_OFFLINE,2022.2.4,59.95665152737822,
,,,,,,,,,,,,,,,,,,,,,,,,,,0,0,0,0,5,0,5,0,,,,,,,,,,,,,,,,,,,,,,,,,,,,,,,,,,,,,,,,822.1376393390819,,,S,174,star,0.016519566997885704,,,,,1,0,,,1,820.6235199100338,818.1130901121069,819.5850339471363,819.5850339471363,819.5850339471363,k,1.0085568360518664,,,,,,,,,,,,,,,,,,,,,,,,,,,,,,,,,,,,,,,,,,,,,,,,46408,2022-11-17_08h05.19.621,vts_reward_expectancy_bt_OFFLINE,2022.2.4,59.95665152737822,
,,,,,,,,,,,,,,,,,,,,,,,,,,0,0,0,0,6,0,6,0,,,,,,,,,,,,,,,,,,,,,,,,,,,,,,,,,,,,,,,,827.5582690329757,,,U,146,circle,0.017019283957779408,,,,,0,0,,,1,826.0442725571338,823.1336381640285,824.6050813880283,824.6050813880283,824.6050813880283,k,1.411543825874105,,,,,,,,,,,,,,,,,,,,,,,,,,,,,,,,,,,,,,,,,,,,,,,,46408,2022-11-17_08h05.19.621,vts_reward_expectancy_bt_OFFLINE,2022.2.4,59.95665152737822,
,,,,,,,,,,,,,,,,,,,,,,,,,,0,0,0,0,7,0,7,0,,,,,,,,,,,,,,,,,,,,,,,,,,,,,,,,,,,,,,,,832.4117596349679,,,D,167,hexagon,0.01668181107379496,,,,,1,1,,,1,830.8978749669623,828.5542536049616,830.0276954360306,830.0276954360306,830.0276954360306,k,0.8386315249372274,,,,,,,,,,,,,,,,,,,,,,,,,,,,,,,,,,,,,,,,,,,,,,,,46408,2022-11-17_08h05.19.621,vts_reward_expectancy_bt_OFFLINE,2022.2.4,59.95665152737822,
,,,,,,,,,,,,,,,,,,,,,,,,,,0,0,0,0,8,0,8,0,,,,,,,,,,,,,,,,,,,,,,,,,,,,,,,,,,,,,,,,837.4322282020003,,,Y,181,star,0.016476814867928624,,,,,1,0,,,1,835.91801799112,833.407509827055,834.8811709869187,834.8811709869187,834.8811709869187,k,1.013875843025744,,,,,,,,,,,,,,,,,,,,,,,,,,,,,,,,,,,,,,,,,,,,,,,,46408,2022-11-17_08h05.19.621,vts_reward_expectancy_bt_OFFLINE,2022.2.4,59.95665152737822,
,,,,,,,,,,,,,,,,,,,,,,,,,,0,0,0,0,9,0,9,0,,,,,,,,,,,,,,,,,,,,,,,,,,,,,,,,,,,,,,,,842.7692940379493,,,F,132,hexagon,0.01676608808338642,,,,,1,0,,,1,841.2549841410946,838.4274284590501,839.9015284290072,839.9015284290072,839.9015284290072,j,1.3262925271410495,,,,,,,,,,,,,,,,,,,,,,,,,,,,,,,,,,,,,,,,,,,,,,,,46408,2022-11-17_08h05.19.621,vts_reward_expectancy_bt_OFFLINE,2022.2.4,59.95665152737822,
,,,,,,,,,,,,,,,,,,,,,,,,,,,,,,,,,,0,0,0,0,0,0,0,0,,,,,,,,,,,,,,,,,,,,,,,,,,,,0,720,,,878.1447528069839,,,F,132,star,0.0006408190820366144,,,,,1,0,,,2,,,,,,,,873.1879836199805,873.1879836199805,873.1879836199805,873.1879836199805,874.6748892010655,874.6748892010655,874.6748892010655,874.6748892010655,874.6884267821442,874.6884267821442,874.6884267821442,874.6884267821442,-1,number,NA,j,1.9359743620734662,vtsPrac,876.632820431143,,,,,,,,,,,,,,,,,,,,,,,,,,,,,46408,2022-11-17_08h05.19.621,vts_reward_expectancy_bt_OFFLINE,2022.2.4,59.95665152737822,
,,,,,,,,,,,,,,,,,,,,,,,,,,,,,,,,,,0,0,0,0,1,0,1,0,,,,,,,,,,,,,,,,,,,,,,,,,,,,0,720,,,883.2817718801089,,,U,160,triangle,0.016370195895433426,,,,,1,0,,,2,,,,,,,,879.14106493094,879.14106493094,879.14106493094,879.14106493094,880.6141614720691,880.6141614720691,880.6141614720691,880.6141614720691,880.6475860900246,880.6475860900246,880.6475860900246,880.6475860900246,repeat,number,numRpt,k,1.1271476580295712,vtsPrac,881.7676609780174,,,,,,,,,,,,,,,,,,,,,,,,,,,,,46408,2022-11-17_08h05.19.621,vts_reward_expectancy_bt_OFFLINE,2022.2.4,59.95665152737822,
,,,,,,,,,,,,,,,,,,,,,,,,,,,,,,,,,,0,0,0,0,2,0,2,0,,,,,,,,,,,,,,,,,,,,,,,,,,,,0,720,,,889.002250088146,,,Y,174,star,0.016992098884657025,,,,,1,0,,,2,,,,,,,,884.2782436280977,884.2782436280977,884.2782436280977,884.2782436280977,885.7512895930558,885.7512895930558,885.7512895930558,885.7512895930558,885.7845716690645,885.7845716690645,885.7845716690645,885.7845716690645,repeat,number,numRpt,k,1.7160585899837315,vtsPrac,887.4881425211206,,,,,,,,,,,,,,,,,,,,,,,,,,,,,46408,2022-11-17_08h05.19.621,vts_reward_expectancy_bt_OFFLINE,2022.2.4,59.95665152737822,
,,,,,,,,,,,,,,,,,,,,,,,,,,,,,,,,,,0,0,0,0,3,0,3,0,,,,,,,,,,,,,,,,,,,,,,,,,,,,0,720,,,894.924715514062,,,S,139,triangle,0.01692366087809205,,,,,1,0,,,2,,,,,,,,889.9990653379355,889.9990653379355,889.9990653379355,889.9990653379355,891.471584490966,891.471584490966,891.471584490966,891.471584490966,891.5050536380149,891.5050536380149,891.5050536380149,891.5050536380149,switch,letter,lettSwt,f,1.9252374898642302,vtsPrac,893.4258097279817,,,,,,,,,,,,,,,,,,,,,,,,,,,,,46408,2022-11-17_08h05.19.621,vts_reward_expectancy_bt_OFFLINE,2022.2.4,59.95665152737822,
,,,,,,,,,,,,,,,,,,,,,,,,,,,,,,,,,,0,0,0,0,4,0,4,0,,,,,,,,,,,,,,,,,,,,,,,,,,,,0,720,,,899.7617658111267,,,F,132,hexagon,0.001754538156092167,,,,,1,0,,,2,,,,,,,,895.9202845790423,895.9202845790423,895.9202845790423,895.9202845790423,897.4089356840122,897.4089356840122,897.4089356840122,897.4089356840122,897.4257518190425,897.4257518190425,897.4257518190425,897.4257518190425,switch,number,numSwt,j,0.8251617979258299,vtsPrac,898.2627190959174,,,,,,,,,,,,,,,,,,,,,,,,,,,,,46408,2022-11-17_08h05.19.621,vts_reward_expectancy_bt_OFFLINE,2022.2.4,59.95665152737822,
,,,,,,,,,,,,,,,,,,,,,,,,,,,,,,,,,,0,0,0,0,5,0,5,0,,,,,,,,,,,,,,,,,,,,,,,,,,,,0,720,,,904.8487217910588,,,U,160,star,0.0018362498376518488,,,,,1,0,,,2,,,,,,,,900.7569363811053,900.7569363811053,900.7569363811053,900.7569363811053,902.2461584550329,902.2461584550329,902.2461584550329,902.2461584550329,902.2626145591494,902.2626145591494,902.2626145591494,902.2626145591494,switch,letter,lettSwt,f,1.072981467936188,vtsPrac,903.349676894024,,,,,,,,,,,,,,,,,,,,,,,,,,,,,46408,2022-11-17_08h05.19.621,vts_reward_expectancy_bt_OFFLINE,2022.2.4,59.95665152737822,
,,,,,,,,,,,,,,,,,,,,,,,,,,,,,,,,,,0,0,0,0,6,0,6,0,,,,,,,,,,,,,,,,,,,,,,,,,,,,0,720,,,909.7537817179691,,,Y,174,triangle,0.0011785388924181461,,,,,1,0,,,2,,,,,,,,905.8439317310695,905.8439317310695,905.8439317310695,905.8439317310695,907.3327141639311,907.3327141639311,907.3327141639311,907.3327141639311,907.3494513460901,907.3494513460901,907.3494513460901,907.3494513460901,repeat,letter,lettRpt,f,0.8925179908983409,vtsPrac,908.2532568220049,,,,,,,,,,,,,,,,,,,,,,,,,,,,,46408,2022-11-17_08h05.19.621,vts_reward_expectancy_bt_OFFLINE,2022.2.4,59.95665152737822,
,,,,,,,,,,,,,,,,,,,,,,,,,,,,,,,,,,0,0,0,0,7,0,7,0,,,,,,,,,,,,,,,,,,,,,,,,,,,,0,720,,,915.2395163280889,,,S,139,hexagon,0.001591961830854416,,,,,1,0,,,2,,,,,,,,910.7478138760198,910.7478138760198,910.7478138760198,910.7478138760198,912.2366580341477,912.2366580341477,912.2366580341477,912.2366580341477,912.2534096820746,912.2534096820746,912.2534096820746,912.2534096820746,switch,number,numSwt,j,1.4785918339621276,vtsPrac,913.740643714089,,,,,,,,,,,,,,,,,,,,,,,,,,,,,46408,2022-11-17_08h05.19.621,vts_reward_expectancy_bt_OFFLINE,2022.2.4,59.95665152737822,
,,,,,,,,,,,,,,,,,,,,,,,,,,,,,,,,,,0,0,0,0,8,0,8,0,,,,,,,,,,,,,,,,,,,,,,,,,,,,0,720,,,920.7933970449958,,,U,167,hexagon,0.0018025469034910202,,,,,1,0,,,2,,,,,,,,916.235087138135,916.235087138135,916.235087138135,916.235087138135,917.7236910650972,917.7236910650972,917.7236910650972,917.7236910650972,917.7403284041211,917.7403284041211,917.7403284041211,917.7403284041211,repeat,number,numRpt,k,1.5492227671202272,vtsPrac,919.2943339170888,,,,,,,,,,,,,,,,,,,,,,,,,,,,,46408,2022-11-17_08h05.19.621,vts_reward_expectancy_bt_OFFLINE,2022.2.4,59.95665152737822,
,,,,,,,,,,,,,,,,,,,,,,,,,,,,,,,,,,0,0,0,0,9,0,9,0,,,,,,,,,,,,,,,,,,,,,,,,,,,,0,720,,,926.6138754999265,,,B,174,star,0.002129102824255824,,,,,1,0,,,2,,,,,,,,921.7888162180316,921.7888162180316,921.7888162180316,921.7888162180316,923.2774409409612,923.2774409409612,923.2774409409612,923.2774409409612,923.2940012810286,923.2940012810286,923.2940012810286,923.2940012810286,switch,letter,lettSwt,d,1.800807157997042,vtsPrac,925.0996346110478,,,,,,,,,,,,,,,,,,,,,,,,,,,,,46408,2022-11-17_08h05.19.621,vts_reward_expectancy_bt_OFFLINE,2022.2.4,59.95665152737822,
,,,,,,,,,,,,,,,,,,,,,,,,,,,,,,,,,,0,0,0,0,10,0,10,0,,,,,,,,,,,,,,,,,,,,,,,,,,,,0,720,,,931.8842741849367,,,S,160,circle,0.01695608696900308,,,,,1,0,,,2,,,,,,,,927.6096511289943,927.6096511289943,927.6096511289943,927.6096511289943,929.0815378269181,929.0815378269181,929.0815378269181,929.0815378269181,929.1147805219516,929.1147805219516,929.1147805219516,929.1147805219516,repeat,letter,lettRpt,f,1.2616468060296029,vtsPrac,930.3702929369174,,,,,,,,,,,,,,,,,,,,,,,,,,,,,46408,2022-11-17_08h05.19.621,vts_reward_expectancy_bt_OFFLINE,2022.2.4,59.95665152737822,
,,,,,,,,,,,,,,,,,,,,,,,,,,,,,,,,,,0,0,0,0,11,0,11,0,,,,,,,,,,,,,,,,,,,,,,,,,,,,0,720,,,937.0547797449399,,,D,146,star,0.016860690899193287,,,,,1,0,,,2,,,,,,,,932.8804406039417,932.8804406039417,932.8804406039417,932.8804406039417,934.3518679430708,934.3518679430708,934.3518679430708,934.3518679430708,934.3850856469944,934.3850856469944,934.3850856469944,934.3850856469944,repeat,letter,lettRpt,d,1.1557851871475577,vtsPrac,935.5405230440665,,,,,,,,,,,,,,,,,,,,,,,,,,,,,46408,2022-11-17_08h05.19.621,vts_reward_expectancy_bt_OFFLINE,2022.2.4,59.95665152737822,
,,,,,,,,,,,,,,,,,,,,,,,,,,,,,,,,,,0,0,0,0,12,0,12,0,,,,,,,,,,,,,,,,,,,,,,,,,,,,0,720,,,942.7085356279276,,,H,174,star,0.016837779199704528,,,,,1,0,,,2,,,,,,,,938.050263379002,938.050263379002,938.050263379002,938.050263379002,939.5221146780532,939.5221146780532,939.5221146780532,939.5221146780532,939.5555659690872,939.5555659690872,939.5555659690872,939.5555659690872,switch,number,numSwt,k,1.6449791849590838,vtsPrac,941.1946338489652,,,,,,,,,,,,,,,,,,,,,,,,,,,,,46408,2022-11-17_08h05.19.621,vts_reward_expectancy_bt_OFFLINE,2022.2.4,59.95665152737822,
,,,,,,,,,,,,,,,,,,,,,,,,,,,,,,,,,,0,0,0,0,13,0,13,0,,,,,,,,,,,,,,,,,,,,,,,,,,,,0,720,,,949.2461316010449,,,U,146,triangle,0.016725363209843636,,,,,1,0,,,2,,,,,,,,943.7042516290676,943.7042516290676,943.7042516290676,943.7042516290676,945.177805386018,945.177805386018,945.177805386018,945.177805386018,945.2113047740422,945.2113047740422,945.2113047740422,945.2113047740422,repeat,number,numRpt,j,2.525853243190795,vtsPrac,947.7323212369811,,,,,,,,,,,,,,,,,,,,,,,,,,,,,46408,2022-11-17_08h05.19.621,vts_reward_expectancy_bt_OFFLINE,2022.2.4,59.95665152737822,
,,,,,,,,,,,,,,,,,,,,,,,,,,,,,,,,,,0,0,0,0,14,0,14,0,,,,,,,,,,,,,,,,,,,,,,,,,,,,0,720,,,954.8181919620838,,,F,132,circle,0.01636852417141199,,,,,1,0,,,2,,,,,,,,950.2421531621367,950.2421531621367,950.2421531621367,950.2421531621367,951.7154235290363,951.7154235290363,951.7154235290363,951.7154235290363,951.748820764944,951.748820764944,951.748820764944,951.748820764944,switch,letter,lettSwt,d,1.5789773350115865,vtsPrac,953.3195151251275,,,,,,,,,,,,,,,,,,,,,,,,,,,,,46408,2022-11-17_08h05.19.621,vts_reward_expectancy_bt_OFFLINE,2022.2.4,59.95665152737822,
,,,,,,,,,,,,,,,,,,,,,,,,,,,,,,,,,,0,0,0,0,15,0,15,0,,,,,,,,,,,,,,,,,,,,,,,,,,,,0,720,,,959.5869507610332,,,D,125,hexagon,0.00165111618116498,,,,,1,0,,,2,,,,,,,,955.8140285329428,955.8140285329428,955.8140285329428,955.8140285329428,957.3025500350632,957.3025500350632,957.3025500350632,957.3025500350632,957.3192559010349,957.3192559010349,957.3192559010349,957.3192559010349,repeat,letter,lettRpt,d,0.7395181600004435,vtsPrac,958.0728774741292,,,,,,,,,,,,,,,,,,,,,,,,,,,,,46408,2022-11-17_08h05.19.621,vts_reward_expectancy_bt_OFFLINE,2022.2.4,59.95665152737822,
,,,,,,,,,,,,,,,,,,,,,,,,,,,,,,,,,,0,0,0,0,16,0,16,0,,,,,,,,,,,,,,,,,,,,,,,,,,,,0,720,,,965.1092112490442,,,S,146,circle,0.002035415032878518,,,,,1,0,,,2,,,,,,,,960.5668438971043,960.5668438971043,960.5668438971043,960.5668438971043,962.0564078590833,962.0564078590833,962.0564078590833,962.0564078590833,962.0726937360596,962.0726937360596,962.0726937360596,962.0726937360596,repeat,letter,lettRpt,f,1.532292464049533,vtsPrac,963.6101757779252,,,,,,,,,,,,,,,,,,,,,,,,,,,,,46408,2022-11-17_08h05.19.621,vts_reward_expectancy_bt_OFFLINE,2022.2.4,59.95665152737822,
,,,,,,,,,,,,,,,,,,,,,,,,,,,,,,,,,,0,0,0,0,17,0,17,0,,,,,,,,,,,,,,,,,,,,,,,,,,,,0,720,,,969.8457847160753,,,Y,125,triangle,0.0018075290136039257,,,,,1,0,,,2,,,,,,,,966.104138848139,966.104138848139,966.104138848139,966.104138848139,967.5932673180941,967.5932673180941,967.5932673180941,967.5932673180941,967.6098588469904,967.6098588469904,967.6098588469904,967.6098588469904,switch,number,numSwt,j,0.7321679189335555,vtsPrac,968.3468145160004,,,,,,,,,,,,,,,,,,,,,,,,,,,,,46408,2022-11-17_08h05.19.621,vts_reward_expectancy_bt_OFFLINE,2022.2.4,59.95665152737822,
,,,,,,,,,,,,,,,,,,,,,,,,,,,,,,,,,,0,0,0,0,18,0,18,0,,,,,,,,,,,,,,,,,,,,,,,,,,,,0,720,,,976.1672042119317,,,D,181,triangle,0.0016596759669482708,,,,,1,0,,,2,,,,,,,,970.8414618680254,970.8414618680254,970.8414618680254,970.8414618680254,972.3303196949419,972.3303196949419,972.3303196949419,972.3303196949419,972.3467761159409,972.3467761159409,972.3467761159409,972.3467761159409,repeat,number,numRpt,k,2.3073373390361667,vtsPrac,974.6678636849392,,,,,,,,,,,,,,,,,,,,,,,,,,,,,46408,2022-11-17_08h05.19.621,vts_reward_expectancy_bt_OFFLINE,2022.2.4,59.95665152737822,
,,,,,,,,,,,,,,,,,,,,,,,,,,,,,,,,,,0,0,0,0,19,0,19,0,,,,,,,,,,,,,,,,,,,,,,,,,,,,0,720,,,980.9872510889545,,981.4871198870242,W,139,hexagon,0.0019599529914557934,,,,,1,0,,,2,,,,,,,,977.1627125861123,977.1627125861123,977.1627125861123,977.1627125861123,978.6506850370206,978.6506850370206,978.6506850370206,978.6506850370206,978.6675623119809,978.6675623119809,978.6675623119809,978.6675623119809,repeat,number,numRpt,j,0.8022304920013994,vtsPrac,979.487025719136,980.9872510889545,,,,,,,,,,,,,,,,,,,,,,,,,,,,46408,2022-11-17_08h05.19.621,vts_reward_expectancy_bt_OFFLINE,2022.2.4,59.95665152737822,
,,,,,,,,,,,,,,,,,,,,,,,,,,,,,,,,,,0,0,0,0,20,0,20,0,,,,,,,,,,,,,,,,,,,,,,,,,,,,0,720,,,986.1575207270216,,,B,146,triangle,-0.0009033931419253349,,,,,1,0,,,2,,,,,,,,981.9950273309369,981.9950273309369,981.9950273309369,981.9950273309369,983.4875096059404,983.4875096059404,983.4875096059404,983.4875096059404,983.5043547181413,983.5043547181413,983.5043547181413,983.5043547181413,switch,letter,lettSwt,d,1.1406706529669464,vtsPrac,984.6582152729388,,,,,,,,,,,,,,,,,,,,,,,,,,,,,46408,2022-11-17_08h05.19.621,vts_reward_expectancy_bt_OFFLINE,2022.2.4,59.95665152737822,
,,,,,,,,,,,,,,,,,,,,,,,,,,,,,,,,,,0,0,0,0,21,0,21,0,,,,,,,,,,,,,,,,,,,,,,,,,,,,0,720,,,992.0281074531376,,,D,181,star,0.0017783981747925282,,,,,1,0,,,2,,,,,,,,987.1532085970975,987.1532085970975,987.1532085970975,987.1532085970975,988.6415328211151,988.6415328211151,988.6415328211151,988.6415328211151,988.6581153650768,988.6581153650768,988.6581153650768,988.6581153650768,repeat,letter,lettRpt,d,1.8482049400918186,vtsPrac,990.5140488781035,,,,,,,,,,,,,,,,,,,,,,,,,,,,,46408,2022-11-17_08h05.19.621,vts_reward_expectancy_bt_OFFLINE,2022.2.4,59.95665152737822,
,,,,,,,,,,,,,,,,,,,,,,,,,,,,,,,,,,0,0,0,0,22,0,22,0,,,,,,,,,,,,,,,,,,,,,,,,,,,,0,720,,,999.0156492749229,,,U,174,hexagon,0.01684981887228787,,,,,-1,0,,,2,,,,,,,,993.0236476440914,993.0236476440914,993.0236476440914,993.0236476440914,994.4955062579829,994.4955062579829,994.4955062579829,994.4955062579829,994.528822299093,994.528822299093,994.528822299093,994.528822299093,switch,no_choice,NA,None,,vtsPrac,997.5019320570864,,997.5019320570864,997.5019320570864,997.5019320570864,997.5019320570864,,,,,,,,,,,,,,,,,,,,,,,,46408,2022-11-17_08h05.19.621,vts_reward_expectancy_bt_OFFLINE,2022.2.4,59.95665152737822,
,,,,,,,,,,,,,,,,,,,,,,,,,,,,,,,,,,0,0,0,0,23,0,23,0,,,,,,,,,,,,,,,,,,,,,,,,,,,,0,720,,,1004.1859880110715,,,S,132,circle,0.0046441080048680305,,,,,1,0,,,2,,,,,,,,1000.0114767381456,1000.0114767381456,1000.0114767381456,1000.0114767381456,1001.5018350610044,1001.5018350610044,1001.5018350610044,1001.5018350610044,1001.5183080211282,1001.5183080211282,1001.5183080211282,1001.5183080211282,switch,letter,lettSwt,f,1.1385029901284724,vtsPrac,1002.6719823630992,,,,,,,,,,,,,,,,,,,,,,,,,,,,,46408,2022-11-17_08h05.19.621,vts_reward_expectancy_bt_OFFLINE,2022.2.4,59.95665152737822,
,,,,,,,,,,,,,,,,,,,,,,,,,,,,,,,,,,0,0,0,0,24,0,24,0,,,,,,,,,,,,,,,,,,,,,,,,,,,,0,720,,,1008.8896533120424,,,D,174,circle,0.01682177814655006,,,,,1,0,,,2,,,,,,,,1005.1822490601335,1005.1822490601335,1005.1822490601335,1005.1822490601335,1006.6551190260798,1006.6551190260798,1006.6551190260798,1006.6551190260798,1006.6888866010122,1006.6888866010122,1006.6888866010122,1006.6888866010122,repeat,letter,lettRpt,d,0.6996465460397303,vtsPrac,1007.3756179539487,,,,,,,,,,,,,,,,,,,,,,,,,,,,,46408,2022-11-17_08h05.19.621,vts_reward_expectancy_bt_OFFLINE,2022.2.4,59.95665152737822,
,,,,,,,,,,,,,,,,,,,,,,,,,,,,,,,,,,0,0,0,0,25,0,25,0,,,,,,,,,,,,,,,,,,,,,,,,,,,,0,720,,,1013.7764611719176,,,H,167,hexagon,0.016776248114183545,,,,,1,0,,,2,,,,,,,,1009.8857798329554,1009.8857798329554,1009.8857798329554,1009.8857798329554,1011.3591796080582,1011.3591796080582,1011.3591796080582,1011.3591796080582,1011.3923956900835,1011.3923956900835,1011.3923956900835,1011.3923956900835,switch,number,numSwt,k,0.877221745904535,vtsPrac,1012.2622297860216,,,,,,,,,,,,,,,,,,,,,,,,,,,,,46408,2022-11-17_08h05.19.621,vts_reward_expectancy_bt_OFFLINE,2022.2.4,59.95665152737822,
,,,,,,,,,,,,,,,,,,,,,,,,,,,,,,,,,,0,0,0,0,26,0,26,0,,,,,,,,,,,,,,,,,,,,,,,,,,,,0,720,,,1018.7300340910442,,,U,146,star,0.016915829153731465,,,,,1,0,,,2,,,,,,,,1014.7723114830442,1014.7723114830442,1014.7723114830442,1014.7723114830442,1016.2458062081132,1016.2458062081132,1016.2458062081132,1016.2458062081132,1016.2791156331077,1016.2791156331077,1016.2791156331077,1016.2791156331077,repeat,number,numRpt,j,0.9413392920978367,vtsPrac,1017.2159006509464,,,,,,,,,,,,,,,,,,,,,,,,,,,,,46408,2022-11-17_08h05.19.621,vts_reward_expectancy_bt_OFFLINE,2022.2.4,59.95665152737822,
,,,,,,,,,,,,,,,,,,,,,,,,,,,,,,,,,,0,0,0,0,27,0,27,0,,,,,,,,,,,,,,,,,,,,,,,,,,,,0,720,,,1023.9672422159929,,,W,139,circle,0.01682088407687843,,,,,1,0,,,2,,,,,,,,1019.7258786819875,1019.7258786819875,1019.7258786819875,1019.7258786819875,1021.1993887170684,1021.1993887170684,1021.1993887170684,1021.1993887170684,1021.2328341880348,1021.2328341880348,1021.2328341880348,1021.2328341880348,repeat,number,numRpt,j,1.2196304600220174,vtsPrac,1022.4532997380011,,,,,,,,,,,,,,,,,,,,,,,,,,,,,46408,2022-11-17_08h05.19.621,vts_reward_expectancy_bt_OFFLINE,2022.2.4,59.95665152737822,
,,,,,,,,,,,,,,,,,,,,,,,,,,,,,,,,,,0,0,0,0,28,0,28,0,,,,,,,,,,,,,,,,,,,,,,,,,,,,0,720,,,1028.8374777520075,,,U,146,star,0.017008880153298378,,,,,1,0,,,2,,,,,,,,1024.9629368039314,1024.9629368039314,1024.9629368039314,1024.9629368039314,1026.4364367520902,1026.4364367520902,1026.4364367520902,1026.4364367520902,1026.4698707701173,1026.4698707701173,1026.4698707701173,1026.4698707701173,repeat,number,numRpt,j,0.8644478318747133,vtsPrac,1027.3231382970698,,,,,,,,,,,,,,,,,,,,,,,,,,,,,46408,2022-11-17_08h05.19.621,vts_reward_expectancy_bt_OFFLINE,2022.2.4,59.95665152737822,
,,,,,,,,,,,,,,,,,,,,,,,,,,,,,,,,,,0,0,0,0,29,0,29,0,,,,,,,,,,,,,,,,,,,,,,,,,,,,0,720,,,1034.5914258540142,,,B,174,circle,0.016836207127198577,,,,,1,0,,,2,,,,,,,,1029.8337701659184,1029.8337701659184,1029.8337701659184,1029.8337701659184,1031.3068066230044,1031.3068066230044,1031.3068066230044,1031.3068066230044,1031.3402396210004,1031.3402396210004,1031.3402396210004,1031.3402396210004,repeat,number,numRpt,k,1.743965547066182,vtsPrac,1033.0773908039555,,,,,,,,,,,,,,,,,,,,,,,,,,,,,46408,2022-11-17_08h05.19.621,vts_reward_expectancy_bt_OFFLINE,2022.2.4,59.95665152737822,
