LTriangleOpac,LCircleOpac,LHexagonOpac,LStarOpac,RTriangleOpac,RCircleOpac,RHexagonOpac,RStarOpac,LShape_ID,RShape_ID,training_blocks.thisRepN,training_blocks.thisTrialN,training_blocks.thisN,training_blocks.thisIndex,training.thisRepN,training.thisTrialN,training.thisN,training.thisIndex,task1_prac_redo.thisRepN,task1_prac_redo.thisTrialN,task1_prac_redo.thisN,task1_prac_redo.thisIndex,task1_prac_trials.thisRepN,task1_prac_trials.thisTrialN,task1_prac_trials.thisN,task1_prac_trials.thisIndex,task2_prac_redo.thisRepN,task2_prac_redo.thisTrialN,task2_prac_redo.thisN,task2_prac_redo.thisIndex,task2_praac_trials.thisRepN,task2_praac_trials.thisTrialN,task2_praac_trials.thisN,task2_praac_trials.thisIndex,vts_prac_redo.thisRepN,vts_prac_redo.thisTrialN,vts_prac_redo.thisN,vts_prac_redo.thisIndex,vts_practice_trials.thisRepN,vts_practice_trials.thisTrialN,vts_practice_trials.thisN,vts_practice_trials.thisIndex,trials_norew.thisRepN,trials_norew.thisTrialN,trials_norew.thisN,trials_norew.thisIndex,block.thisRepN,block.thisTrialN,block.thisN,block.thisIndex,trials_rew.thisRepN,trials_rew.thisTrialN,trials_rew.thisN,trials_rew.thisIndex,key_resp.started,key_resp.keys,key_resp.rt,left_circle.started,right_circle.started,left_triangle.started,right_triangle.started,left_star.started,right_star.started,left_hexagon.started,right_hexagon.started,training_fix.started,training_resp.started,training_resp.keys,training_resp.rt,points_trial,points_cumul,trainBlock,training_feedback_txt.started,training_feedback_txt.stopped,fix.started,fix.stopped,curr_topStim,curr_bottStim,curr_shape,ISI.started,tgt_fix_prac1.started,top_target_prac1.started,bott_target_prac1.started,target_resp_prac1.started,top_target_prac1.stopped,bott_target_prac1.stopped,target_resp_prac1.stopped,acc,E1,target_resp_prac1.keys,pracBlock,prac_fback_text.started,target_resp_prac1.rt,prac_fback_text.stopped,tgt_fix_prac2.started,top_target_prac2.started,bott_target_prac2.started,target_resp_prac2.started,target_resp_prac2.keys,target_resp_prac2.rt,star.started,hegagon.started,triangle.started,circle.started,top_target.started,tgt_fix.started,bot_target.started,target_resp.started,star.stopped,hegagon.stopped,triangle.stopped,circle.stopped,alt,task,condition,target_resp.keys,target_resp.rt,rewCond,vts_fback.started,vts_fback.stopped,blockNum,norew_fback.started,norew_fback.stopped,key_resp_2.keys,key_resp_2.rt,rewExpectancy,feedbk_text.started,feedbk_text.stopped,text_3.started,debrief.started,text_3.stopped,button.started,debrief.index,debrief.itemText,debrief.type,debrief.granularity,debrief.font,debrief.markerColor,debrief.response,debrief.rt,button.numClicks,button.timesOn,button.timesOff,participant,date,expName,psychopyVersion,frameRate,
,,,,,,,,,,,,,,,,,,,,,,,,,,,,,,,,,,,,,,,,,,,,,,,,,,,,,,14.227582263061777,space,33.45410733204335,,,,,,,,,,,,,,,,,,,,,,,,,,,,,,,,,,,,,,,,,,,,,,,,,,,,,,,,,,,,,,,,,,,,,,,,,,,,,,,,,,,,,,,47028,2022-11-21_13h41.36.667,vts_reward_expectancy_bt_OFFLINE,2022.2.4,59.913098478764574,
1,0,0,0,0,0,0,1,triangle,star,0,0,0,0,0,0,0,2,,,,,,,,,,,,,,,,,,,,,,,,,,,,,,,,,,,,,,,,75.48398528597318,75.48398528597318,75.48398528597318,75.48398528597318,75.48398528597318,75.48398528597318,75.48398528597318,75.48398528597318,75.48398528597318,75.48398528597318,a,3.000785481883213,1,1,0,78.51029374008067,80.00952032697387,80.00952032697387,80.50952599616721,,,,,,,,,,,,,,,,,,,,,,,,,,,,,,,,,,,,,,,,,,,,,,,,,,,,,,,,,,,,,,,,,,,,47028,2022-11-21_13h41.36.667,vts_reward_expectancy_bt_OFFLINE,2022.2.4,59.913098478764574,
0,0,1,0,0,0,0,1,hexagon,star,0,0,0,0,0,1,1,8,,,,,,,,,,,,,,,,,,,,,,,,,,,,,,,,,,,,,,,,80.50952599616721,80.50952599616721,80.50952599616721,80.50952599616721,80.50952599616721,80.50952599616721,80.50952599616721,80.50952599616721,80.50952599616721,80.50952599616721,l,1.4859739528037608,10,11,0,82.0140892281197,,83.52937228395604,,,,,,,,,,,,,,,,,,,,,,,,,,,,,,,,,,,,,,,,,,,,,,,,,,,,,,,,,,,,,,,,,,,,,47028,2022-11-21_13h41.36.667,vts_reward_expectancy_bt_OFFLINE,2022.2.4,59.913098478764574,
0,0,0,1,0,0,1,0,star,hexagon,0,0,0,0,0,2,2,11,,,,,,,,,,,,,,,,,,,,,,,,,,,,,,,,,,,,,,,,84.02952155005187,84.02952155005187,84.02952155005187,84.02952155005187,84.02952155005187,84.02952155005187,84.02952155005187,84.02952155005187,84.02952155005187,84.02952155005187,a,1.1944552927743644,1,12,0,85.24693089607172,86.7470333580859,86.7470333580859,,,,,,,,,,,,,,,,,,,,,,,,,,,,,,,,,,,,,,,,,,,,,,,,,,,,,,,,,,,,,,,,,,,,,47028,2022-11-21_13h41.36.667,vts_reward_expectancy_bt_OFFLINE,2022.2.4,59.913098478764574,
0,1,0,0,1,0,0,0,circle,triangle,0,0,0,0,0,3,3,3,,,,,,,,,,,,,,,,,,,,,,,,,,,,,,,,,,,,,,,,87.2489891811274,87.2489891811274,87.2489891811274,87.2489891811274,87.2489891811274,87.2489891811274,87.2489891811274,87.2489891811274,87.2489891811274,87.2489891811274,l,3.5784203510265797,1,13,0,90.85030094906688,,92.35276862815954,,,,,,,,,,,,,,,,,,,,,,,,,,,,,,,,,,,,,,,,,,,,,,,,,,,,,,,,,,,,,,,,,,,,,47028,2022-11-21_13h41.36.667,vts_reward_expectancy_bt_OFFLINE,2022.2.4,59.913098478764574,
1,0,0,0,0,1,0,0,triangle,circle,0,0,0,0,0,4,4,0,,,,,,,,,,,,,,,,,,,,,,,,,,,,,,,,,,,,,,,,92.85299671115354,92.85299671115354,92.85299671115354,92.85299671115354,92.85299671115354,92.85299671115354,92.85299671115354,92.85299671115354,92.85299671115354,92.85299671115354,l,1.5738774640485644,10,23,0,94.45442256005481,95.95404936512932,95.95404936512932,96.45410314109176,,,,,,,,,,,,,,,,,,,,,,,,,,,,,,,,,,,,,,,,,,,,,,,,,,,,,,,,,,,,,,,,,,,,47028,2022-11-21_13h41.36.667,vts_reward_expectancy_bt_OFFLINE,2022.2.4,59.913098478764574,
0,1,0,0,0,0,1,0,circle,hexagon,0,0,0,0,0,5,5,4,,,,,,,,,,,,,,,,,,,,,,,,,,,,,,,,,,,,,,,,96.45410314109176,96.45410314109176,96.45410314109176,96.45410314109176,96.45410314109176,96.45410314109176,96.45410314109176,96.45410314109176,96.45410314109176,96.45410314109176,l,1.6860047648660839,1,24,0,98.15769578516483,99.65717191901058,99.65717191901058,100.15734665002674,,,,,,,,,,,,,,,,,,,,,,,,,,,,,,,,,,,,,,,,,,,,,,,,,,,,,,,,,,,,,,,,,,,,47028,2022-11-21_13h41.36.667,vts_reward_expectancy_bt_OFFLINE,2022.2.4,59.913098478764574,
0,1,0,0,0,0,0,1,circle,star,0,0,0,0,0,6,6,5,,,,,,,,,,,,,,,,,,,,,,,,,,,,,,,,,,,,,,,,100.15734665002674,100.15734665002674,100.15734665002674,100.15734665002674,100.15734665002674,100.15734665002674,100.15734665002674,100.15734665002674,100.15734665002674,100.15734665002674,a,3.326496505877003,10,34,0,103.51149158109911,105.01086593908258,105.01086593908258,105.51129601406865,,,,,,,,,,,,,,,,,,,,,,,,,,,,,,,,,,,,,,,,,,,,,,,,,,,,,,,,,,,,,,,,,,,,47028,2022-11-21_13h41.36.667,vts_reward_expectancy_bt_OFFLINE,2022.2.4,59.913098478764574,
0,0,0,1,0,1,0,0,star ,circle,0,0,0,0,0,7,7,10,,,,,,,,,,,,,,,,,,,,,,,,,,,,,,,,,,,,,,,,105.51129601406865,105.51129601406865,105.51129601406865,105.51129601406865,105.51129601406865,105.51129601406865,105.51129601406865,105.51129601406865,105.51129601406865,105.51129601406865,l,1.314647709717974,10,44,0,106.8449792440515,,108.34753440110944,,,,,,,,,,,,,,,,,,,,,,,,,,,,,,,,,,,,,,,,,,,,,,,,,,,,,,,,,,,,,,,,,,,,,47028,2022-11-21_13h41.36.667,vts_reward_expectancy_bt_OFFLINE,2022.2.4,59.913098478764574,
1,0,0,0,0,0,1,0,triangle,hexagon,0,0,0,0,0,8,8,1,,,,,,,,,,,,,,,,,,,,,,,,,,,,,,,,,,,,,,,,108.8474513629917,108.8474513629917,108.8474513629917,108.8474513629917,108.8474513629917,108.8474513629917,108.8474513629917,108.8474513629917,108.8474513629917,108.8474513629917,l,2.7486763449851424,1,45,0,111.61587279196829,,113.11755300313234,,,,,,,,,,,,,,,,,,,,,,,,,,,,,,,,,,,,,,,,,,,,,,,,,,,,,,,,,,,,,,,,,,,,,47028,2022-11-21_13h41.36.667,vts_reward_expectancy_bt_OFFLINE,2022.2.4,59.913098478764574,
0,0,1,0,0,1,0,0,hexagon,circle,0,0,0,0,0,9,9,7,,,,,,,,,,,,,,,,,,,,,,,,,,,,,,,,,,,,,,,,113.61785936611705,113.61785936611705,113.61785936611705,113.61785936611705,113.61785936611705,113.61785936611705,113.61785936611705,113.61785936611705,113.61785936611705,113.61785936611705,l,1.724959909915924,1,46,0,115.36825443897396,116.86903481604531,116.86903481604531,,,,,,,,,,,,,,,,,,,,,,,,,,,,,,,,,,,,,,,,,,,,,,,,,,,,,,,,,,,,,,,,,,,,,47028,2022-11-21_13h41.36.667,vts_reward_expectancy_bt_OFFLINE,2022.2.4,59.913098478764574,
0,0,1,0,1,0,0,0,hexagon,triangle,0,0,0,0,0,10,10,6,,,,,,,,,,,,,,,,,,,,,,,,,,,,,,,,,,,,,,,,117.37098253215663,117.37098253215663,117.37098253215663,117.37098253215663,117.37098253215663,117.37098253215663,117.37098253215663,117.37098253215663,117.37098253215663,117.37098253215663,a,4.204212308861315,10,56,0,121.60670437314548,,123.10809492901899,,,,,,,,,,,,,,,,,,,,,,,,,,,,,,,,,,,,,,,,,,,,,,,,,,,,,,,,,,,,,,,,,,,,,47028,2022-11-21_13h41.36.667,vts_reward_expectancy_bt_OFFLINE,2022.2.4,59.913098478764574,
0,0,0,1,1,0,0,0,star,triangle,0,0,0,0,0,11,11,9,,,,,,,,,,,,,,,,,,,,,,,,,,,,,,,,,,,,,,,,123.60825798497535,123.60825798497535,123.60825798497535,123.60825798497535,123.60825798497535,123.60825798497535,123.60825798497535,123.60825798497535,123.60825798497535,123.60825798497535,a,3.029617439955473,1,57,0,126.66069439495914,,128.1620050841011,,,,,,,,,,,,,,,,,,,,,,,,,,,,,,,,,,,,,,,,,,,,,,,,,,,,,,,,,,,,,,,,,,,,,47028,2022-11-21_13h41.36.667,vts_reward_expectancy_bt_OFFLINE,2022.2.4,59.913098478764574,
0,0,1,0,0,1,0,0,hexagon,circle,0,0,0,0,1,0,12,7,,,,,,,,,,,,,,,,,,,,,,,,,,,,,,,,,,,,,,,,128.6621882300824,128.6621882300824,128.6621882300824,128.6621882300824,128.6621882300824,128.6621882300824,128.6621882300824,128.6621882300824,128.6621882300824,128.6621882300824,l,1.778891792986542,1,58,0,130.46247233310714,131.96320930006914,131.96320930006914,,,,,,,,,,,,,,,,,,,,,,,,,,,,,,,,,,,,,,,,,,,,,,,,,,,,,,,,,,,,,,,,,,,,,47028,2022-11-21_13h41.36.667,vts_reward_expectancy_bt_OFFLINE,2022.2.4,59.913098478764574,
0,1,0,0,0,0,0,1,circle,star,0,0,0,0,1,1,13,5,,,,,,,,,,,,,,,,,,,,,,,,,,,,,,,,,,,,,,,,132.46519615710713,132.46519615710713,132.46519615710713,132.46519615710713,132.46519615710713,132.46519615710713,132.46519615710713,132.46519615710713,132.46519615710713,132.46519615710713,a,1.586341501912102,10,68,0,134.08272931398824,135.58304200414568,135.58304200414568,136.08327012811787,,,,,,,,,,,,,,,,,,,,,,,,,,,,,,,,,,,,,,,,,,,,,,,,,,,,,,,,,,,,,,,,,,,,47028,2022-11-21_13h41.36.667,vts_reward_expectancy_bt_OFFLINE,2022.2.4,59.913098478764574,
1,0,0,0,0,1,0,0,triangle,circle,0,0,0,0,1,2,14,0,,,,,,,,,,,,,,,,,,,,,,,,,,,,,,,,,,,,,,,,136.08327012811787,136.08327012811787,136.08327012811787,136.08327012811787,136.08327012811787,136.08327012811787,136.08327012811787,136.08327012811787,136.08327012811787,136.08327012811787,l,1.0960369459353387,1,69,0,137.20307466899976,138.70274952612817,138.70274952612817,,,,,,,,,,,,,,,,,,,,,,,,,,,,,,,,,,,,,,,,,,,,,,,,,,,,,,,,,,,,,,,,,,,,,47028,2022-11-21_13h41.36.667,vts_reward_expectancy_bt_OFFLINE,2022.2.4,59.913098478764574,
0,1,0,0,1,0,0,0,circle,triangle,0,0,0,0,1,3,15,3,,,,,,,,,,,,,,,,,,,,,,,,,,,,,,,,,,,,,,,,139.20280813216232,139.20280813216232,139.20280813216232,139.20280813216232,139.20280813216232,139.20280813216232,139.20280813216232,139.20280813216232,139.20280813216232,139.20280813216232,a,1.2173122549429536,1,70,0,140.43667165213265,141.937207801966,141.937207801966,,,,,,,,,,,,,,,,,,,,,,,,,,,,,,,,,,,,,,,,,,,,,,,,,,,,,,,,,,,,,,,,,,,,,47028,2022-11-21_13h41.36.667,vts_reward_expectancy_bt_OFFLINE,2022.2.4,59.913098478764574,
0,1,0,0,0,0,1,0,circle,hexagon,0,0,0,0,1,4,16,4,,,,,,,,,,,,,,,,,,,,,,,,,,,,,,,,,,,,,,,,142.43932330911048,142.43932330911048,142.43932330911048,142.43932330911048,142.43932330911048,142.43932330911048,142.43932330911048,142.43932330911048,142.43932330911048,142.43932330911048,a,1.4119837877806276,1,71,0,143.87300598807633,145.37351329717785,145.37351329717785,,,,,,,,,,,,,,,,,,,,,,,,,,,,,,,,,,,,,,,,,,,,,,,,,,,,,,,,,,,,,,,,,,,,,47028,2022-11-21_13h41.36.667,vts_reward_expectancy_bt_OFFLINE,2022.2.4,59.913098478764574,
1,0,0,0,0,0,1,0,triangle,hexagon,0,0,0,0,1,5,17,1,,,,,,,,,,,,,,,,,,,,,,,,,,,,,,,,,,,,,,,,145.87369066197425,145.87369066197425,145.87369066197425,145.87369066197425,145.87369066197425,145.87369066197425,145.87369066197425,145.87369066197425,145.87369066197425,145.87369066197425,l,1.5440908069722354,10,81,0,147.44399486016482,148.9433402849827,148.9433402849827,149.44350451300852,,,,,,,,,,,,,,,,,,,,,,,,,,,,,,,,,,,,,,,,,,,,,,,,,,,,,,,,,,,,,,,,,,,,47028,2022-11-21_13h41.36.667,vts_reward_expectancy_bt_OFFLINE,2022.2.4,59.913098478764574,
0,0,0,1,0,1,0,0,star ,circle,0,0,0,0,1,6,18,10,,,,,,,,,,,,,,,,,,,,,,,,,,,,,,,,,,,,,,,,149.44350451300852,149.44350451300852,149.44350451300852,149.44350451300852,149.44350451300852,149.44350451300852,149.44350451300852,149.44350451300852,149.44350451300852,149.44350451300852,a,1.1351272820029408,10,91,0,150.61063459794968,,152.1129028899595,,,,,,,,,,,,,,,,,,,,,,,,,,,,,,,,,,,,,,,,,,,,,,,,,,,,,,,,,,,,,,,,,,,,,47028,2022-11-21_13h41.36.667,vts_reward_expectancy_bt_OFFLINE,2022.2.4,59.913098478764574,
0,0,1,0,0,0,0,1,hexagon,star,0,0,0,0,1,7,19,8,,,,,,,,,,,,,,,,,,,,,,,,,,,,,,,,,,,,,,,,152.6131452601403,152.6131452601403,152.6131452601403,152.6131452601403,152.6131452601403,152.6131452601403,152.6131452601403,152.6131452601403,152.6131452601403,152.6131452601403,a,1.3967786116991192,1,92,0,154.03141726506874,155.53088812110946,155.53088812110946,156.03105786815286,,,,,,,,,,,,,,,,,,,,,,,,,,,,,,,,,,,,,,,,,,,,,,,,,,,,,,,,,,,,,,,,,,,,47028,2022-11-21_13h41.36.667,vts_reward_expectancy_bt_OFFLINE,2022.2.4,59.913098478764574,
0,0,0,1,1,0,0,0,star,triangle,0,0,0,0,1,8,20,9,,,,,,,,,,,,,,,,,,,,,,,,,,,,,,,,,,,,,,,,156.03105786815286,156.03105786815286,156.03105786815286,156.03105786815286,156.03105786815286,156.03105786815286,156.03105786815286,156.03105786815286,156.03105786815286,156.03105786815286,a,2.1194937599357218,10,102,0,158.16828707698733,159.66744334809482,159.66744334809482,160.16777155408636,,,,,,,,,,,,,,,,,,,,,,,,,,,,,,,,,,,,,,,,,,,,,,,,,,,,,,,,,,,,,,,,,,,,47028,2022-11-21_13h41.36.667,vts_reward_expectancy_bt_OFFLINE,2022.2.4,59.913098478764574,
0,0,1,0,1,0,0,0,hexagon,triangle,0,0,0,0,1,9,21,6,,,,,,,,,,,,,,,,,,,,,,,,,,,,,,,,,,,,,,,,160.16777155408636,160.16777155408636,160.16777155408636,160.16777155408636,160.16777155408636,160.16777155408636,160.16777155408636,160.16777155408636,160.16777155408636,160.16777155408636,l,1.5380781148560345,10,112,0,161.73471723799594,,163.23736339109018,,,,,,,,,,,,,,,,,,,,,,,,,,,,,,,,,,,,,,,,,,,,,,,,,,,,,,,,,,,,,,,,,,,,,47028,2022-11-21_13h41.36.667,vts_reward_expectancy_bt_OFFLINE,2022.2.4,59.913098478764574,
1,0,0,0,0,0,0,1,triangle,star,0,0,0,0,1,10,22,2,,,,,,,,,,,,,,,,,,,,,,,,,,,,,,,,,,,,,,,,163.73760296497494,163.73760296497494,163.73760296497494,163.73760296497494,163.73760296497494,163.73760296497494,163.73760296497494,163.73760296497494,163.73760296497494,163.73760296497494,a,2.6710010750684887,10,122,0,166.438398265047,,167.94089507497847,,,,,,,,,,,,,,,,,,,,,,,,,,,,,,,,,,,,,,,,,,,,,,,,,,,,,,,,,,,,,,,,,,,,,47028,2022-11-21_13h41.36.667,vts_reward_expectancy_bt_OFFLINE,2022.2.4,59.913098478764574,
0,0,0,1,0,0,1,0,star,hexagon,0,0,0,0,1,11,23,11,,,,,,,,,,,,,,,,,,,,,,,,,,,,,,,,,,,,,,,,168.44110502116382,168.44110502116382,168.44110502116382,168.44110502116382,168.44110502116382,168.44110502116382,168.44110502116382,168.44110502116382,168.44110502116382,168.44110502116382,l,2.175366352079436,10,132,0,170.64171061106026,,172.14423275599256,,,,,,,,,,,,,,,,,,,,,,,,,,,,,,,,,,,,,,,,,,,,,,,,,,,,,,,,,,,,,,,,,,,,,47028,2022-11-21_13h41.36.667,vts_reward_expectancy_bt_OFFLINE,2022.2.4,59.913098478764574,
0,0,1,0,1,0,0,0,hexagon,triangle,0,0,0,0,2,0,24,6,,,,,,,,,,,,,,,,,,,,,,,,,,,,,,,,,,,,,,,,172.64451208012179,172.64451208012179,172.64451208012179,172.64451208012179,172.64451208012179,172.64451208012179,172.64451208012179,172.64451208012179,172.64451208012179,172.64451208012179,l,2.044162140926346,10,142,0,174.7118169439491,176.2122667580843,176.2122667580843,176.71273163915612,,,,,,,,,,,,,,,,,,,,,,,,,,,,,,,,,,,,,,,,,,,,,,,,,,,,,,,,,,,,,,,,,,,,47028,2022-11-21_13h41.36.667,vts_reward_expectancy_bt_OFFLINE,2022.2.4,59.913098478764574,
1,0,0,0,0,1,0,0,triangle,circle,0,0,0,0,2,1,25,0,,,,,,,,,,,,,,,,,,,,,,,,,,,,,,,,,,,,,,,,176.71273163915612,176.71273163915612,176.71273163915612,176.71273163915612,176.71273163915612,176.71273163915612,176.71273163915612,176.71273163915612,176.71273163915612,176.71273163915612,l,1.148168321000412,1,143,0,177.88235239102505,179.3818465610966,179.3818465610966,179.88186708511785,,,,,,,,,,,,,,,,,,,,,,,,,,,,,,,,,,,,,,,,,,,,,,,,,,,,,,,,,,,,,,,,,,,,47028,2022-11-21_13h41.36.667,vts_reward_expectancy_bt_OFFLINE,2022.2.4,59.913098478764574,
0,1,0,0,1,0,0,0,circle,triangle,0,0,0,0,2,2,26,3,,,,,,,,,,,,,,,,,,,,,,,,,,,,,,,,,,,,,,,,179.88186708511785,179.88186708511785,179.88186708511785,179.88186708511785,179.88186708511785,179.88186708511785,179.88186708511785,179.88186708511785,179.88186708511785,179.88186708511785,l,2.64792327885516,10,153,0,182.55242171208374,184.0523086891044,184.0523086891044,184.55254300497472,,,,,,,,,,,,,,,,,,,,,,,,,,,,,,,,,,,,,,,,,,,,,,,,,,,,,,,,,,,,,,,,,,,,47028,2022-11-21_13h41.36.667,vts_reward_expectancy_bt_OFFLINE,2022.2.4,59.913098478764574,
0,0,0,1,1,0,0,0,star,triangle,0,0,0,0,2,3,27,9,,,,,,,,,,,,,,,,,,,,,,,,,,,,,,,,,,,,,,,,184.55254300497472,184.55254300497472,184.55254300497472,184.55254300497472,184.55254300497472,184.55254300497472,184.55254300497472,184.55254300497472,184.55254300497472,184.55254300497472,a,1.0376026169396937,10,163,0,185.61944701196626,,187.12181668612175,,,,,,,,,,,,,,,,,,,,,,,,,,,,,,,,,,,,,,,,,,,,,,,,,,,,,,,,,,,,,,,,,,,,,47028,2022-11-21_13h41.36.667,vts_reward_expectancy_bt_OFFLINE,2022.2.4,59.913098478764574,
1,0,0,0,0,0,1,0,triangle,hexagon,0,0,0,0,2,4,28,1,,,,,,,,,,,,,,,,,,,,,,,,,,,,,,,,,,,,,,,,187.62179523403756,187.62179523403756,187.62179523403756,187.62179523403756,187.62179523403756,187.62179523403756,187.62179523403756,187.62179523403756,187.62179523403756,187.62179523403756,l,2.626894068904221,10,173,0,190.2727059801109,191.773668569047,191.773668569047,,,,,,,,,,,,,,,,,,,,,,,,,,,,,,,,,,,,,,,,,,,,,,,,,,,,,,,,,,,,,,,,,,,,,47028,2022-11-21_13h41.36.667,vts_reward_expectancy_bt_OFFLINE,2022.2.4,59.913098478764574,
0,0,0,1,0,0,1,0,star,hexagon,0,0,0,0,2,5,29,11,,,,,,,,,,,,,,,,,,,,,,,,,,,,,,,,,,,,,,,,192.27555471495725,192.27555471495725,192.27555471495725,192.27555471495725,192.27555471495725,192.27555471495725,192.27555471495725,192.27555471495725,192.27555471495725,192.27555471495725,a,1.2123223019298166,1,174,0,193.51040277001448,195.00971629307605,195.00971629307605,195.5099035911262,,,,,,,,,,,,,,,,,,,,,,,,,,,,,,,,,,,,,,,,,,,,,,,,,,,,,,,,,,,,,,,,,,,,47028,2022-11-21_13h41.36.667,vts_reward_expectancy_bt_OFFLINE,2022.2.4,59.913098478764574,
0,1,0,0,0,0,0,1,circle,star,0,0,0,0,2,6,30,5,,,,,,,,,,,,,,,,,,,,,,,,,,,,,,,,,,,,,,,,195.5099035911262,195.5099035911262,195.5099035911262,195.5099035911262,195.5099035911262,195.5099035911262,195.5099035911262,195.5099035911262,195.5099035911262,195.5099035911262,a,1.1621348457410932,1,175,0,196.69359806901775,,198.19612878002226,,,,,,,,,,,,,,,,,,,,,,,,,,,,,,,,,,,,,,,,,,,,,,,,,,,,,,,,,,,,,,,,,,,,,47028,2022-11-21_13h41.36.667,vts_reward_expectancy_bt_OFFLINE,2022.2.4,59.913098478764574,
0,0,1,0,0,0,0,1,hexagon,star,0,0,0,0,2,7,31,8,,,,,,,,,,,,,,,,,,,,,,,,,,,,,,,,,,,,,,,,198.69619594607502,198.69619594607502,198.69619594607502,198.69619594607502,198.69619594607502,198.69619594607502,198.69619594607502,198.69619594607502,198.69619594607502,198.69619594607502,a,1.4300283768679947,10,185,0,200.1481591251213,201.6474002939649,201.6474002939649,,,,,,,,,,,,,,,,,,,,,,,,,,,,,,,,,,,,,,,,,,,,,,,,,,,,,,,,,,,,,,,,,,,,,47028,2022-11-21_13h41.36.667,vts_reward_expectancy_bt_OFFLINE,2022.2.4,59.913098478764574,
0,1,0,0,0,0,1,0,circle,hexagon,0,0,0,0,2,8,32,4,,,,,,,,,,,,,,,,,,,,,,,,,,,,,,,,,,,,,,,,202.14944381499663,202.14944381499663,202.14944381499663,202.14944381499663,202.14944381499663,202.14944381499663,202.14944381499663,202.14944381499663,202.14944381499663,202.14944381499663,a,1.2621799281332642,1,186,0,203.43471125606447,,204.95022529014386,,,,,,,,,,,,,,,,,,,,,,,,,,,,,,,,,,,,,,,,,,,,,,,,,,,,,,,,,,,,,,,,,,,,,47028,2022-11-21_13h41.36.667,vts_reward_expectancy_bt_OFFLINE,2022.2.4,59.913098478764574,
1,0,0,0,0,0,0,1,triangle,star,0,0,0,0,2,9,33,2,,,,,,,,,,,,,,,,,,,,,,,,,,,,,,,,,,,,,,,,205.4506934080273,205.4506934080273,205.4506934080273,205.4506934080273,205.4506934080273,205.4506934080273,205.4506934080273,205.4506934080273,205.4506934080273,205.4506934080273,l,0.7962057020049542,1,187,0,206.26750092301518,,207.76981759211048,,,,,,,,,,,,,,,,,,,,,,,,,,,,,,,,,,,,,,,,,,,,,,,,,,,,,,,,,,,,,,,,,,,,,47028,2022-11-21_13h41.36.667,vts_reward_expectancy_bt_OFFLINE,2022.2.4,59.913098478764574,
0,0,1,0,0,1,0,0,hexagon,circle,0,0,0,0,2,10,34,7,,,,,,,,,,,,,,,,,,,,,,,,,,,,,,,,,,,,,,,,208.27015054016374,208.27015054016374,208.27015054016374,208.27015054016374,208.27015054016374,208.27015054016374,208.27015054016374,208.27015054016374,208.27015054016374,208.27015054016374,l,0.664719957858324,1,188,0,208.95361047796905,210.454378844006,210.454378844006,210.95416337205097,,,,,,,,,,,,,,,,,,,,,,,,,,,,,,,,,,,,,,,,,,,,,,,,,,,,,,,,,,,,,,,,,,,,47028,2022-11-21_13h41.36.667,vts_reward_expectancy_bt_OFFLINE,2022.2.4,59.913098478764574,
0,0,0,1,0,1,0,0,star ,circle,0,0,0,0,2,11,35,10,,,,,,,,,,,,,,,,,,,,,,,,,,,,,,,,,,,,,,,,210.95416337205097,210.95416337205097,210.95416337205097,210.95416337205097,210.95416337205097,210.95416337205097,210.95416337205097,210.95416337205097,210.95416337205097,210.95416337205097,l,0.7370848378632218,1,189,0,211.72121487697586,,213.22362678707577,,,,,,,,,,,,,,,,,,,,,,,,,,,,,,,,,,,,,,,,,,,,,,,,,,,,,,,,,,,,,,,,,,,,,47028,2022-11-21_13h41.36.667,vts_reward_expectancy_bt_OFFLINE,2022.2.4,59.913098478764574,
1,0,0,0,0,1,0,0,triangle,circle,0,0,0,0,3,0,36,0,,,,,,,,,,,,,,,,,,,,,,,,,,,,,,,,,,,,,,,,213.72403922700323,213.72403922700323,213.72403922700323,213.72403922700323,213.72403922700323,213.72403922700323,213.72403922700323,213.72403922700323,213.72403922700323,213.72403922700323,l,0.6000154779758304,1,190,0,214.34068440808915,215.84134715003893,215.84134715003893,216.34151904913597,,,,,,,,,,,,,,,,,,,,,,,,,,,,,,,,,,,,,,,,,,,,,,,,,,,,,,,,,,,,,,,,,,,,47028,2022-11-21_13h41.36.667,vts_reward_expectancy_bt_OFFLINE,2022.2.4,59.913098478764574,
0,0,0,1,1,0,0,0,star,triangle,0,0,0,0,3,1,37,9,,,,,,,,,,,,,,,,,,,,,,,,,,,,,,,,,,,,,,,,216.34151904913597,216.34151904913597,216.34151904913597,216.34151904913597,216.34151904913597,216.34151904913597,216.34151904913597,216.34151904913597,216.34151904913597,216.34151904913597,a,0.7499966658651829,10,200,0,217.11171921808273,218.6106921620667,218.6106921620667,219.11092786304653,,,,,,,,,,,,,,,,,,,,,,,,,,,,,,,,,,,,,,,,,,,,,,,,,,,,,,,,,,,,,,,,,,,,47028,2022-11-21_13h41.36.667,vts_reward_expectancy_bt_OFFLINE,2022.2.4,59.913098478764574,
1,0,0,0,0,0,0,1,triangle,star,0,0,0,0,3,2,38,2,,,,,,,,,,,,,,,,,,,,,,,,,,,,,,,,,,,,,,,,219.11092786304653,219.11092786304653,219.11092786304653,219.11092786304653,219.11092786304653,219.11092786304653,219.11092786304653,219.11092786304653,219.11092786304653,219.11092786304653,l,0.8832189019303769,1,201,0,220.01244908408262,221.51191999716684,221.51191999716684,222.01192816509865,,,,,,,,,,,,,,,,,,,,,,,,,,,,,,,,,,,,,,,,,,,,,,,,,,,,,,,,,,,,,,,,,,,,47028,2022-11-21_13h41.36.667,vts_reward_expectancy_bt_OFFLINE,2022.2.4,59.913098478764574,
0,1,0,0,0,0,0,1,circle,star,0,0,0,0,3,3,39,5,,,,,,,,,,,,,,,,,,,,,,,,,,,,,,,,,,,,,,,,222.01192816509865,222.01192816509865,222.01192816509865,222.01192816509865,222.01192816509865,222.01192816509865,222.01192816509865,222.01192816509865,222.01192816509865,222.01192816509865,l,2.1899499548599124,10,211,0,224.23237364715897,225.7317447050009,225.7317447050009,226.23221753607504,,,,,,,,,,,,,,,,,,,,,,,,,,,,,,,,,,,,,,,,,,,,,,,,,,,,,,,,,,,,,,,,,,,,47028,2022-11-21_13h41.36.667,vts_reward_expectancy_bt_OFFLINE,2022.2.4,59.913098478764574,
0,1,0,0,1,0,0,0,circle,triangle,0,0,0,0,3,4,40,3,,,,,,,,,,,,,,,,,,,,,,,,,,,,,,,,,,,,,,,,226.23221753607504,226.23221753607504,226.23221753607504,226.23221753607504,226.23221753607504,226.23221753607504,226.23221753607504,226.23221753607504,226.23221753607504,226.23221753607504,a,1.345298208994791,1,212,0,227.60224784817547,229.10148538299836,229.10148538299836,229.60195016511716,,,,,,,,,,,,,,,,,,,,,,,,,,,,,,,,,,,,,,,,,,,,,,,,,,,,,,,,,,,,,,,,,,,,47028,2022-11-21_13h41.36.667,vts_reward_expectancy_bt_OFFLINE,2022.2.4,59.913098478764574,
0,0,0,1,0,1,0,0,star ,circle,0,0,0,0,3,5,41,10,,,,,,,,,,,,,,,,,,,,,,,,,,,,,,,,,,,,,,,,229.60195016511716,229.60195016511716,229.60195016511716,229.60195016511716,229.60195016511716,229.60195016511716,229.60195016511716,229.60195016511716,229.60195016511716,229.60195016511716,a,1.306096534943208,1,213,0,230.93571386416443,,232.4377843439579,,,,,,,,,,,,,,,,,,,,,,,,,,,,,,,,,,,,,,,,,,,,,,,,,,,,,,,,,,,,,,,,,,,,,47028,2022-11-21_13h41.36.667,vts_reward_expectancy_bt_OFFLINE,2022.2.4,59.913098478764574,
0,0,1,0,0,0,0,1,hexagon,star,0,0,0,0,3,6,42,8,,,,,,,,,,,,,,,,,,,,,,,,,,,,,,,,,,,,,,,,232.93833170016296,232.93833170016296,232.93833170016296,232.93833170016296,232.93833170016296,232.93833170016296,232.93833170016296,232.93833170016296,232.93833170016296,232.93833170016296,l,1.3554577087052166,10,223,0,234.32326899212785,235.82271606312133,235.82271606312133,236.32287496817298,,,,,,,,,,,,,,,,,,,,,,,,,,,,,,,,,,,,,,,,,,,,,,,,,,,,,,,,,,,,,,,,,,,,47028,2022-11-21_13h41.36.667,vts_reward_expectancy_bt_OFFLINE,2022.2.4,59.913098478764574,
0,0,1,0,1,0,0,0,hexagon,triangle,0,0,0,0,3,7,43,6,,,,,,,,,,,,,,,,,,,,,,,,,,,,,,,,,,,,,,,,236.32287496817298,236.32287496817298,236.32287496817298,236.32287496817298,236.32287496817298,236.32287496817298,236.32287496817298,236.32287496817298,236.32287496817298,236.32287496817298,a,1.9427361919078976,1,224,0,238.29308622400276,239.79239423712716,239.79239423712716,240.29250491899438,,,,,,,,,,,,,,,,,,,,,,,,,,,,,,,,,,,,,,,,,,,,,,,,,,,,,,,,,,,,,,,,,,,,47028,2022-11-21_13h41.36.667,vts_reward_expectancy_bt_OFFLINE,2022.2.4,59.913098478764574,
1,0,0,0,0,0,1,0,triangle,hexagon,0,0,0,0,3,8,44,1,,,,,,,,,,,,,,,,,,,,,,,,,,,,,,,,,,,,,,,,240.29250491899438,240.29250491899438,240.29250491899438,240.29250491899438,240.29250491899438,240.29250491899438,240.29250491899438,240.29250491899438,240.29250491899438,240.29250491899438,l,0.786083408864215,10,234,0,241.10928927198984,,242.61190277617425,,,,,,,,,,,,,,,,,,,,,,,,,,,,,,,,,,,,,,,,,,,,,,,,,,,,,,,,,,,,,,,,,,,,,47028,2022-11-21_13h41.36.667,vts_reward_expectancy_bt_OFFLINE,2022.2.4,59.913098478764574,
0,0,0,1,0,0,1,0,star,hexagon,0,0,0,0,3,9,45,11,,,,,,,,,,,,,,,,,,,,,,,,,,,,,,,,,,,,,,,,243.11228814604692,243.11228814604692,243.11228814604692,243.11228814604692,243.11228814604692,243.11228814604692,243.11228814604692,243.11228814604692,243.11228814604692,243.11228814604692,l,3.1417728890664876,1,235,0,246.28139805211686,,247.7823927651625,,,,,,,,,,,,,,,,,,,,,,,,,,,,,,,,,,,,,,,,,,,,,,,,,,,,,,,,,,,,,,,,,,,,,47028,2022-11-21_13h41.36.667,vts_reward_expectancy_bt_OFFLINE,2022.2.4,59.913098478764574,
0,0,1,0,0,1,0,0,hexagon,circle,0,0,0,0,3,10,46,7,,,,,,,,,,,,,,,,,,,,,,,,,,,,,,,,,,,,,,,,248.2825174711179,248.2825174711179,248.2825174711179,248.2825174711179,248.2825174711179,248.2825174711179,248.2825174711179,248.2825174711179,248.2825174711179,248.2825174711179,a,2.538192889885977,10,245,0,250.85181758296676,,252.3525192940142,,,,,,,,,,,,,,,,,,,,,,,,,,,,,,,,,,,,,,,,,,,,,,,,,,,,,,,,,,,,,,,,,,,,,47028,2022-11-21_13h41.36.667,vts_reward_expectancy_bt_OFFLINE,2022.2.4,59.913098478764574,
0,1,0,0,0,0,1,0,circle,hexagon,0,0,0,0,3,11,47,4,,,,,,,,,,,,,,,,,,,,,,,,,,,,,,,,,,,,,,,,252.85275477613322,252.85275477613322,252.85275477613322,252.85275477613322,252.85275477613322,252.85275477613322,252.85275477613322,252.85275477613322,252.85275477613322,252.85275477613322,a,1.5580029957927763,10,255,0,254.4367896481417,255.93719112803228,255.93719112803228,256.44407010194845,,,,,,,,,,,,,,,,,,,,,,,,,,,,,,,,,,,,,,,,,,,,,,,,,,,,,,,,,,,,,,,,,,,,47028,2022-11-21_13h41.36.667,vts_reward_expectancy_bt_OFFLINE,2022.2.4,59.913098478764574,
0,1,0,0,0,0,0,1,circle,star,1,0,1,0,0,0,0,5,,,,,,,,,,,,,,,,,,,,,,,,,,,,,,,,,,,,,,,,263.854875540128,263.854875540128,263.854875540128,263.854875540128,263.854875540128,263.854875540128,263.854875540128,263.854875540128,263.854875540128,263.854875540128,a,1.0858376240357757,10,265,1,264.9606861709617,266.4614063119516,266.4614063119516,266.9614885300398,,,,,,,,,,,,,,,,,,,,,,,,,,,,,,,,,,,,,,,,,,,,,,,,,,,,,,,,,,,,,,,,,,,,47028,2022-11-21_13h41.36.667,vts_reward_expectancy_bt_OFFLINE,2022.2.4,59.913098478764574,
0,1,0,0,1,0,0,0,circle,triangle,1,0,1,0,0,1,1,3,,,,,,,,,,,,,,,,,,,,,,,,,,,,,,,,,,,,,,,,266.9614885300398,266.9614885300398,266.9614885300398,266.9614885300398,266.9614885300398,266.9614885300398,266.9614885300398,266.9614885300398,266.9614885300398,266.9614885300398,l,0.8252470400184393,1,266,1,267.81477261404507,269.3143244581297,269.3143244581297,269.81426295498386,,,,,,,,,,,,,,,,,,,,,,,,,,,,,,,,,,,,,,,,,,,,,,,,,,,,,,,,,,,,,,,,,,,,47028,2022-11-21_13h41.36.667,vts_reward_expectancy_bt_OFFLINE,2022.2.4,59.913098478764574,
0,0,1,0,0,1,0,0,hexagon,circle,1,0,1,0,0,2,2,7,,,,,,,,,,,,,,,,,,,,,,,,,,,,,,,,,,,,,,,,269.81426295498386,269.81426295498386,269.81426295498386,269.81426295498386,269.81426295498386,269.81426295498386,269.81426295498386,269.81426295498386,269.81426295498386,269.81426295498386,l,2.3037799349986017,1,267,1,272.13441668404266,273.63440820900723,273.63440820900723,274.13431401201524,,,,,,,,,,,,,,,,,,,,,,,,,,,,,,,,,,,,,,,,,,,,,,,,,,,,,,,,,,,,,,,,,,,,47028,2022-11-21_13h41.36.667,vts_reward_expectancy_bt_OFFLINE,2022.2.4,59.913098478764574,
0,1,0,0,0,0,1,0,circle,hexagon,1,0,1,0,0,3,3,4,,,,,,,,,,,,,,,,,,,,,,,,,,,,,,,,,,,,,,,,274.13431401201524,274.13431401201524,274.13431401201524,274.13431401201524,274.13431401201524,274.13431401201524,274.13431401201524,274.13431401201524,274.13431401201524,274.13431401201524,l,1.5957499919459224,10,277,1,275.7527666541282,,277.2538740900345,,,,,,,,,,,,,,,,,,,,,,,,,,,,,,,,,,,,,,,,,,,,,,,,,,,,,,,,,,,,,,,,,,,,,47028,2022-11-21_13h41.36.667,vts_reward_expectancy_bt_OFFLINE,2022.2.4,59.913098478764574,
1,0,0,0,0,0,1,0,triangle,hexagon,1,0,1,0,0,4,4,1,,,,,,,,,,,,,,,,,,,,,,,,,,,,,,,,,,,,,,,,277.7539868061431,277.7539868061431,277.7539868061431,277.7539868061431,277.7539868061431,277.7539868061431,277.7539868061431,277.7539868061431,277.7539868061431,277.7539868061431,a,1.981627400033176,1,278,1,279.75628134212457,281.25548219308257,281.25548219308257,281.755401966162,,,,,,,,,,,,,,,,,,,,,,,,,,,,,,,,,,,,,,,,,,,,,,,,,,,,,,,,,,,,,,,,,,,,47028,2022-11-21_13h41.36.667,vts_reward_expectancy_bt_OFFLINE,2022.2.4,59.913098478764574,
0,0,1,0,0,0,0,1,hexagon,star,1,0,1,0,0,5,5,8,,,,,,,,,,,,,,,,,,,,,,,,,,,,,,,,,,,,,,,,281.755401966162,281.755401966162,281.755401966162,281.755401966162,281.755401966162,281.755401966162,281.755401966162,281.755401966162,281.755401966162,281.755401966162,a,1.321476595941931,10,288,1,283.10796324000694,284.60855852114037,284.60855852114037,285.1085306061432,,,,,,,,,,,,,,,,,,,,,,,,,,,,,,,,,,,,,,,,,,,,,,,,,,,,,,,,,,,,,,,,,,,,47028,2022-11-21_13h41.36.667,vts_reward_expectancy_bt_OFFLINE,2022.2.4,59.913098478764574,
0,0,0,1,1,0,0,0,star,triangle,1,0,1,0,0,6,6,9,,,,,,,,,,,,,,,,,,,,,,,,,,,,,,,,,,,,,,,,285.1085306061432,285.1085306061432,285.1085306061432,285.1085306061432,285.1085306061432,285.1085306061432,285.1085306061432,285.1085306061432,285.1085306061432,285.1085306061432,l,1.3877095938660204,1,289,1,286.52699075709097,,288.0281159400474,,,,,,,,,,,,,,,,,,,,,,,,,,,,,,,,,,,,,,,,,,,,,,,,,,,,,,,,,,,,,,,,,,,,,47028,2022-11-21_13h41.36.667,vts_reward_expectancy_bt_OFFLINE,2022.2.4,59.913098478764574,
1,0,0,0,0,1,0,0,triangle,circle,1,0,1,0,0,7,7,0,,,,,,,,,,,,,,,,,,,,,,,,,,,,,,,,,,,,,,,,288.5284127460327,288.5284127460327,288.5284127460327,288.5284127460327,288.5284127460327,288.5284127460327,288.5284127460327,288.5284127460327,288.5284127460327,288.5284127460327,a,1.320554353063926,1,290,1,289.8788847050164,291.3794266099576,291.3794266099576,291.8796051880345,,,,,,,,,,,,,,,,,,,,,,,,,,,,,,,,,,,,,,,,,,,,,,,,,,,,,,,,,,,,,,,,,,,,47028,2022-11-21_13h41.36.667,vts_reward_expectancy_bt_OFFLINE,2022.2.4,59.913098478764574,
0,0,1,0,1,0,0,0,hexagon,triangle,1,0,1,0,0,8,8,6,,,,,,,,,,,,,,,,,,,,,,,,,,,,,,,,,,,,,,,,291.8796051880345,291.8796051880345,291.8796051880345,291.8796051880345,291.8796051880345,291.8796051880345,291.8796051880345,291.8796051880345,291.8796051880345,291.8796051880345,a,1.2664215229451656,1,291,1,293.16522160195746,294.6654892950319,294.6654892950319,295.1659979620017,,,,,,,,,,,,,,,,,,,,,,,,,,,,,,,,,,,,,,,,,,,,,,,,,,,,,,,,,,,,,,,,,,,,47028,2022-11-21_13h41.36.667,vts_reward_expectancy_bt_OFFLINE,2022.2.4,59.913098478764574,
1,0,0,0,0,0,0,1,triangle,star,1,0,1,0,0,9,9,2,,,,,,,,,,,,,,,,,,,,,,,,,,,,,,,,,,,,,,,,295.1659979620017,295.1659979620017,295.1659979620017,295.1659979620017,295.1659979620017,295.1659979620017,295.1659979620017,295.1659979620017,295.1659979620017,295.1659979620017,a,1.152286384953186,10,301,1,296.3497227570042,,297.85192324314266,,,,,,,,,,,,,,,,,,,,,,,,,,,,,,,,,,,,,,,,,,,,,,,,,,,,,,,,,,,,,,,,,,,,,47028,2022-11-21_13h41.36.667,vts_reward_expectancy_bt_OFFLINE,2022.2.4,59.913098478764574,
0,0,0,1,0,1,0,0,star ,circle,1,0,1,0,0,10,10,10,,,,,,,,,,,,,,,,,,,,,,,,,,,,,,,,,,,,,,,,298.35240411316045,298.35240411316045,298.35240411316045,298.35240411316045,298.35240411316045,298.35240411316045,298.35240411316045,298.35240411316045,298.35240411316045,298.35240411316045,a,1.644665831932798,10,311,1,300.0195222401526,301.52009605197236,301.52009605197236,302.02050710003823,,,,,,,,,,,,,,,,,,,,,,,,,,,,,,,,,,,,,,,,,,,,,,,,,,,,,,,,,,,,,,,,,,,,47028,2022-11-21_13h41.36.667,vts_reward_expectancy_bt_OFFLINE,2022.2.4,59.913098478764574,
0,0,0,1,0,0,1,0,star,hexagon,1,0,1,0,0,11,11,11,,,,,,,,,,,,,,,,,,,,,,,,,,,,,,,,,,,,,,,,302.02050710003823,302.02050710003823,302.02050710003823,302.02050710003823,302.02050710003823,302.02050710003823,302.02050710003823,302.02050710003823,302.02050710003823,302.02050710003823,a,0.5639673839323223,10,321,1,302.6057187030092,304.10632249200717,304.10632249200717,304.60616296809167,,,,,,,,,,,,,,,,,,,,,,,,,,,,,,,,,,,,,,,,,,,,,,,,,,,,,,,,,,,,,,,,,,,,47028,2022-11-21_13h41.36.667,vts_reward_expectancy_bt_OFFLINE,2022.2.4,59.913098478764574,
1,0,0,0,0,0,1,0,triangle,hexagon,1,0,1,0,1,0,12,1,,,,,,,,,,,,,,,,,,,,,,,,,,,,,,,,,,,,,,,,304.60616296809167,304.60616296809167,304.60616296809167,304.60616296809167,304.60616296809167,304.60616296809167,304.60616296809167,304.60616296809167,304.60616296809167,304.60616296809167,l,1.1405619338620454,1,322,1,305.77470587403513,,307.275780149037,,,,,,,,,,,,,,,,,,,,,,,,,,,,,,,,,,,,,,,,,,,,,,,,,,,,,,,,,,,,,,,,,,,,,47028,2022-11-21_13h41.36.667,vts_reward_expectancy_bt_OFFLINE,2022.2.4,59.913098478764574,
0,0,1,0,0,1,0,0,hexagon,circle,1,0,1,0,1,1,13,7,,,,,,,,,,,,,,,,,,,,,,,,,,,,,,,,,,,,,,,,307.77560758404434,307.77560758404434,307.77560758404434,307.77560758404434,307.77560758404434,307.77560758404434,307.77560758404434,307.77560758404434,307.77560758404434,307.77560758404434,a,1.458353667985648,1,323,1,309.2598328359891,310.7604646109976,310.7604646109976,311.26076752413064,,,,,,,,,,,,,,,,,,,,,,,,,,,,,,,,,,,,,,,,,,,,,,,,,,,,,,,,,,,,,,,,,,,,47028,2022-11-21_13h41.36.667,vts_reward_expectancy_bt_OFFLINE,2022.2.4,59.913098478764574,
1,0,0,0,0,1,0,0,triangle,circle,1,0,1,0,1,2,14,0,,,,,,,,,,,,,,,,,,,,,,,,,,,,,,,,,,,,,,,,311.26076752413064,311.26076752413064,311.26076752413064,311.26076752413064,311.26076752413064,311.26076752413064,311.26076752413064,311.26076752413064,311.26076752413064,311.26076752413064,a,0.8310663688462228,1,324,1,312.10832608211786,,313.6134138260968,,,,,,,,,,,,,,,,,,,,,,,,,,,,,,,,,,,,,,,,,,,,,,,,,,,,,,,,,,,,,,,,,,,,,47028,2022-11-21_13h41.36.667,vts_reward_expectancy_bt_OFFLINE,2022.2.4,59.913098478764574,
0,0,0,1,1,0,0,0,star,triangle,1,0,1,0,1,3,15,9,,,,,,,,,,,,,,,,,,,,,,,,,,,,,,,,,,,,,,,,314.1133901870344,314.1133901870344,314.1133901870344,314.1133901870344,314.1133901870344,314.1133901870344,314.1133901870344,314.1133901870344,314.1133901870344,314.1133901870344,a,0.6330294020008296,1,325,1,314.7637946221512,316.26418513804674,316.26418513804674,316.76424679812044,,,,,,,,,,,,,,,,,,,,,,,,,,,,,,,,,,,,,,,,,,,,,,,,,,,,,,,,,,,,,,,,,,,,47028,2022-11-21_13h41.36.667,vts_reward_expectancy_bt_OFFLINE,2022.2.4,59.913098478764574,
0,0,0,1,0,1,0,0,star ,circle,1,0,1,0,1,4,16,10,,,,,,,,,,,,,,,,,,,,,,,,,,,,,,,,,,,,,,,,316.76424679812044,316.76424679812044,316.76424679812044,316.76424679812044,316.76424679812044,316.76424679812044,316.76424679812044,316.76424679812044,316.76424679812044,316.76424679812044,a,0.9757211569231004,1,326,1,317.76647523604333,319.26702770008706,319.26702770008706,319.76739265816286,,,,,,,,,,,,,,,,,,,,,,,,,,,,,,,,,,,,,,,,,,,,,,,,,,,,,,,,,,,,,,,,,,,,47028,2022-11-21_13h41.36.667,vts_reward_expectancy_bt_OFFLINE,2022.2.4,59.913098478764574,
0,0,0,1,0,0,1,0,star,hexagon,1,0,1,0,1,5,17,11,,,,,,,,,,,,,,,,,,,,,,,,,,,,,,,,,,,,,,,,319.76739265816286,319.76739265816286,319.76739265816286,319.76739265816286,319.76739265816286,319.76739265816286,319.76739265816286,319.76739265816286,319.76739265816286,319.76739265816286,a,0.5151983979158103,1,327,1,320.30069898604415,321.8015848661307,321.8015848661307,,,,,,,,,,,,,,,,,,,,,,,,,,,,,,,,,,,,,,,,,,,,,,,,,,,,,,,,,,,,,,,,,,,,,47028,2022-11-21_13h41.36.667,vts_reward_expectancy_bt_OFFLINE,2022.2.4,59.913098478764574,
0,1,0,0,0,0,0,1,circle,star,1,0,1,0,1,6,18,5,,,,,,,,,,,,,,,,,,,,,,,,,,,,,,,,,,,,,,,,322.3035074810032,322.3035074810032,322.3035074810032,322.3035074810032,322.3035074810032,322.3035074810032,322.3035074810032,322.3035074810032,322.3035074810032,322.3035074810032,a,0.7348370279651135,10,337,1,323.07039596606046,324.5710966861807,324.5710966861807,325.0710629699752,,,,,,,,,,,,,,,,,,,,,,,,,,,,,,,,,,,,,,,,,,,,,,,,,,,,,,,,,,,,,,,,,,,,47028,2022-11-21_13h41.36.667,vts_reward_expectancy_bt_OFFLINE,2022.2.4,59.913098478764574,
0,0,1,0,1,0,0,0,hexagon,triangle,1,0,1,0,1,7,19,6,,,,,,,,,,,,,,,,,,,,,,,,,,,,,,,,,,,,,,,,325.0710629699752,325.0710629699752,325.0710629699752,325.0710629699752,325.0710629699752,325.0710629699752,325.0710629699752,325.0710629699752,325.0710629699752,325.0710629699752,l,0.8697942588478327,10,347,1,325.9714532420039,,327.4736072709784,,,,,,,,,,,,,,,,,,,,,,,,,,,,,,,,,,,,,,,,,,,,,,,,,,,,,,,,,,,,,,,,,,,,,47028,2022-11-21_13h41.36.667,vts_reward_expectancy_bt_OFFLINE,2022.2.4,59.913098478764574,
1,0,0,0,0,0,0,1,triangle,star,1,0,1,0,1,8,20,2,,,,,,,,,,,,,,,,,,,,,,,,,,,,,,,,,,,,,,,,327.9738952370826,327.9738952370826,327.9738952370826,327.9738952370826,327.9738952370826,327.9738952370826,327.9738952370826,327.9738952370826,327.9738952370826,327.9738952370826,l,0.7916408588644117,10,357,1,328.79089296306483,330.29140406497754,330.29140406497754,330.7914619660005,,,,,,,,,,,,,,,,,,,,,,,,,,,,,,,,,,,,,,,,,,,,,,,,,,,,,,,,,,,,,,,,,,,,47028,2022-11-21_13h41.36.667,vts_reward_expectancy_bt_OFFLINE,2022.2.4,59.913098478764574,
0,1,0,0,1,0,0,0,circle,triangle,1,0,1,0,1,9,21,3,,,,,,,,,,,,,,,,,,,,,,,,,,,,,,,,,,,,,,,,330.7914619660005,330.7914619660005,330.7914619660005,330.7914619660005,330.7914619660005,330.7914619660005,330.7914619660005,330.7914619660005,330.7914619660005,330.7914619660005,a,0.9095185757614672,1,358,1,331.7266615291592,,333.22777999099344,,,,,,,,,,,,,,,,,,,,,,,,,,,,,,,,,,,,,,,,,,,,,,,,,,,,,,,,,,,,,,,,,,,,,47028,2022-11-21_13h41.36.667,vts_reward_expectancy_bt_OFFLINE,2022.2.4,59.913098478764574,
0,1,0,0,0,0,1,0,circle,hexagon,1,0,1,0,1,10,22,4,,,,,,,,,,,,,,,,,,,,,,,,,,,,,,,,,,,,,,,,333.7279641320929,333.7279641320929,333.7279641320929,333.7279641320929,333.7279641320929,333.7279641320929,333.7279641320929,333.7279641320929,333.7279641320929,333.7279641320929,l,0.7185460298787802,1,359,1,334.47808102099225,335.97869850997813,335.97869850997813,336.47871077409945,,,,,,,,,,,,,,,,,,,,,,,,,,,,,,,,,,,,,,,,,,,,,,,,,,,,,,,,,,,,,,,,,,,,47028,2022-11-21_13h41.36.667,vts_reward_expectancy_bt_OFFLINE,2022.2.4,59.913098478764574,
0,0,1,0,0,0,0,1,hexagon,star,1,0,1,0,1,11,23,8,,,,,,,,,,,,,,,,,,,,,,,,,,,,,,,,,,,,,,,,336.47871077409945,336.47871077409945,336.47871077409945,336.47871077409945,336.47871077409945,336.47871077409945,336.47871077409945,336.47871077409945,336.47871077409945,336.47871077409945,l,0.8819835390895605,10,369,1,337.38252158416435,,338.89819097914733,,,,,,,,,,,,,,,,,,,,,,,,,,,,,,,,,,,,,,,,,,,,,,,,,,,,,,,,,,,,,,,,,,,,,47028,2022-11-21_13h41.36.667,vts_reward_expectancy_bt_OFFLINE,2022.2.4,59.913098478764574,
0,0,0,1,0,1,0,0,star ,circle,1,0,1,0,2,0,24,10,,,,,,,,,,,,,,,,,,,,,,,,,,,,,,,,,,,,,,,,339.39840859617107,339.39840859617107,339.39840859617107,339.39840859617107,339.39840859617107,339.39840859617107,339.39840859617107,339.39840859617107,339.39840859617107,339.39840859617107,a,0.7294383919797838,10,379,1,340.14873183495365,341.6493298460264,341.6493298460264,,,,,,,,,,,,,,,,,,,,,,,,,,,,,,,,,,,,,,,,,,,,,,,,,,,,,,,,,,,,,,,,,,,,,47028,2022-11-21_13h41.36.667,vts_reward_expectancy_bt_OFFLINE,2022.2.4,59.913098478764574,
0,0,0,1,1,0,0,0,star,triangle,1,0,1,0,2,1,25,9,,,,,,,,,,,,,,,,,,,,,,,,,,,,,,,,,,,,,,,,342.15498022711836,342.15498022711836,342.15498022711836,342.15498022711836,342.15498022711836,342.15498022711836,342.15498022711836,342.15498022711836,342.15498022711836,342.15498022711836,a,1.1789838441181928,10,389,1,343.35159234609455,344.85241965111345,344.85241965111345,345.3522646611091,,,,,,,,,,,,,,,,,,,,,,,,,,,,,,,,,,,,,,,,,,,,,,,,,,,,,,,,,,,,,,,,,,,,47028,2022-11-21_13h41.36.667,vts_reward_expectancy_bt_OFFLINE,2022.2.4,59.913098478764574,
0,0,0,1,0,0,1,0,star,hexagon,1,0,1,0,2,2,26,11,,,,,,,,,,,,,,,,,,,,,,,,,,,,,,,,,,,,,,,,345.3522646611091,345.3522646611091,345.3522646611091,345.3522646611091,345.3522646611091,345.3522646611091,345.3522646611091,345.3522646611091,345.3522646611091,345.3522646611091,l,0.9301674629095942,10,399,1,346.30276904511265,,347.8050839691423,,,,,,,,,,,,,,,,,,,,,,,,,,,,,,,,,,,,,,,,,,,,,,,,,,,,,,,,,,,,,,,,,,,,,47028,2022-11-21_13h41.36.667,vts_reward_expectancy_bt_OFFLINE,2022.2.4,59.913098478764574,
0,0,1,0,1,0,0,0,hexagon,triangle,1,0,1,0,2,3,27,6,,,,,,,,,,,,,,,,,,,,,,,,,,,,,,,,,,,,,,,,348.3051399879623,348.3051399879623,348.3051399879623,348.3051399879623,348.3051399879623,348.3051399879623,348.3051399879623,348.3051399879623,348.3051399879623,348.3051399879623,a,3.32091296184808,10,409,1,351.6563720300328,,353.1589121350553,,,,,,,,,,,,,,,,,,,,,,,,,,,,,,,,,,,,,,,,,,,,,,,,,,,,,,,,,,,,,,,,,,,,,47028,2022-11-21_13h41.36.667,vts_reward_expectancy_bt_OFFLINE,2022.2.4,59.913098478764574,
1,0,0,0,0,0,0,1,triangle,star,1,0,1,0,2,4,28,2,,,,,,,,,,,,,,,,,,,,,,,,,,,,,,,,,,,,,,,,353.6591212351341,353.6591212351341,353.6591212351341,353.6591212351341,353.6591212351341,353.6591212351341,353.6591212351341,353.6591212351341,353.6591212351341,353.6591212351341,l,0.7232282797340304,10,419,1,354.40927838603966,355.90974489296786,355.90974489296786,356.41005570814013,,,,,,,,,,,,,,,,,,,,,,,,,,,,,,,,,,,,,,,,,,,,,,,,,,,,,,,,,,,,,,,,,,,,47028,2022-11-21_13h41.36.667,vts_reward_expectancy_bt_OFFLINE,2022.2.4,59.913098478764574,
1,0,0,0,0,1,0,0,triangle,circle,1,0,1,0,2,5,29,0,,,,,,,,,,,,,,,,,,,,,,,,,,,,,,,,,,,,,,,,356.41005570814013,356.41005570814013,356.41005570814013,356.41005570814013,356.41005570814013,356.41005570814013,356.41005570814013,356.41005570814013,356.41005570814013,356.41005570814013,l,0.9537090198136866,1,420,1,357.39552655396983,358.89598095114343,358.89598095114343,359.39612170215696,,,,,,,,,,,,,,,,,,,,,,,,,,,,,,,,,,,,,,,,,,,,,,,,,,,,,,,,,,,,,,,,,,,,47028,2022-11-21_13h41.36.667,vts_reward_expectancy_bt_OFFLINE,2022.2.4,59.913098478764574,
1,0,0,0,0,0,1,0,triangle,hexagon,1,0,1,0,2,6,30,1,,,,,,,,,,,,,,,,,,,,,,,,,,,,,,,,,,,,,,,,359.39612170215696,359.39612170215696,359.39612170215696,359.39612170215696,359.39612170215696,359.39612170215696,359.39612170215696,359.39612170215696,359.39612170215696,359.39612170215696,a,1.364979739068076,1,421,1,360.78027698001824,,362.28250360512175,,,,,,,,,,,,,,,,,,,,,,,,,,,,,,,,,,,,,,,,,,,,,,,,,,,,,,,,,,,,,,,,,,,,,47028,2022-11-21_13h41.36.667,vts_reward_expectancy_bt_OFFLINE,2022.2.4,59.913098478764574,
0,0,1,0,0,1,0,0,hexagon,circle,1,0,1,0,2,7,31,7,,,,,,,,,,,,,,,,,,,,,,,,,,,,,,,,,,,,,,,,362.78272434603423,362.78272434603423,362.78272434603423,362.78272434603423,362.78272434603423,362.78272434603423,362.78272434603423,362.78272434603423,362.78272434603423,362.78272434603423,a,0.6786314968485385,10,431,1,363.48472397611476,,365.0002609670628,,,,,,,,,,,,,,,,,,,,,,,,,,,,,,,,,,,,,,,,,,,,,,,,,,,,,,,,,,,,,,,,,,,,,47028,2022-11-21_13h41.36.667,vts_reward_expectancy_bt_OFFLINE,2022.2.4,59.913098478764574,
0,0,1,0,0,0,0,1,hexagon,star,1,0,1,0,2,8,32,8,,,,,,,,,,,,,,,,,,,,,,,,,,,,,,,,,,,,,,,,365.50033793016337,365.50033793016337,365.50033793016337,365.50033793016337,365.50033793016337,365.50033793016337,365.50033793016337,365.50033793016337,365.50033793016337,365.50033793016337,l,0.6387204709462821,10,441,1,366.1671576469671,,367.66940754908137,,,,,,,,,,,,,,,,,,,,,,,,,,,,,,,,,,,,,,,,,,,,,,,,,,,,,,,,,,,,,,,,,,,,,47028,2022-11-21_13h41.36.667,vts_reward_expectancy_bt_OFFLINE,2022.2.4,59.913098478764574,
0,1,0,0,0,0,0,1,circle,star,1,0,1,0,2,9,33,5,,,,,,,,,,,,,,,,,,,,,,,,,,,,,,,,,,,,,,,,368.16984916012734,368.16984916012734,368.16984916012734,368.16984916012734,368.16984916012734,368.16984916012734,368.16984916012734,368.16984916012734,368.16984916012734,368.16984916012734,a,0.3097969538066536,10,451,1,368.50333985709585,,370.0036244869698,,,,,,,,,,,,,,,,,,,,,,,,,,,,,,,,,,,,,,,,,,,,,,,,,,,,,,,,,,,,,,,,,,,,,47028,2022-11-21_13h41.36.667,vts_reward_expectancy_bt_OFFLINE,2022.2.4,59.913098478764574,
0,1,0,0,1,0,0,0,circle,triangle,1,0,1,0,2,10,34,3,,,,,,,,,,,,,,,,,,,,,,,,,,,,,,,,,,,,,,,,370.50395214301534,370.50395214301534,370.50395214301534,370.50395214301534,370.50395214301534,370.50395214301534,370.50395214301534,370.50395214301534,370.50395214301534,370.50395214301534,l,2.0598070239648223,1,452,1,372.5914431840647,,374.1068798820488,,,,,,,,,,,,,,,,,,,,,,,,,,,,,,,,,,,,,,,,,,,,,,,,,,,,,,,,,,,,,,,,,,,,,47028,2022-11-21_13h41.36.667,vts_reward_expectancy_bt_OFFLINE,2022.2.4,59.913098478764574,
0,1,0,0,0,0,1,0,circle,hexagon,1,0,1,0,2,11,35,4,,,,,,,,,,,,,,,,,,,,,,,,,,,,,,,,,,,,,,,,374.5906856250949,374.5906856250949,374.5906856250949,374.5906856250949,374.5906856250949,374.5906856250949,374.5906856250949,374.5906856250949,374.5906856250949,374.5906856250949,l,2.4163630278781056,1,453,1,377.0247959040571,,378.5272655170411,,,,,,,,,,,,,,,,,,,,,,,,,,,,,,,,,,,,,,,,,,,,,,,,,,,,,,,,,,,,,,,,,,,,,47028,2022-11-21_13h41.36.667,vts_reward_expectancy_bt_OFFLINE,2022.2.4,59.913098478764574,
1,0,0,0,0,1,0,0,triangle,circle,1,0,1,0,3,0,36,0,,,,,,,,,,,,,,,,,,,,,,,,,,,,,,,,,,,,,,,,379.0272846161388,379.0272846161388,379.0272846161388,379.0272846161388,379.0272846161388,379.0272846161388,379.0272846161388,379.0272846161388,379.0272846161388,379.0272846161388,a,3.414555835071951,10,463,1,382.4656546539627,,383.98095852998085,,,,,,,,,,,,,,,,,,,,,,,,,,,,,,,,,,,,,,,,,,,,,,,,,,,,,,,,,,,,,,,,,,,,,47028,2022-11-21_13h41.36.667,vts_reward_expectancy_bt_OFFLINE,2022.2.4,59.913098478764574,
0,0,1,0,0,1,0,0,hexagon,circle,1,0,1,0,3,1,37,7,,,,,,,,,,,,,,,,,,,,,,,,,,,,,,,,,,,,,,,,384.4811227391474,384.4811227391474,384.4811227391474,384.4811227391474,384.4811227391474,384.4811227391474,384.4811227391474,384.4811227391474,384.4811227391474,384.4811227391474,l,1.6956770641263574,10,473,1,386.1982659790665,,387.7008705160115,,,,,,,,,,,,,,,,,,,,,,,,,,,,,,,,,,,,,,,,,,,,,,,,,,,,,,,,,,,,,,,,,,,,,47028,2022-11-21_13h41.36.667,vts_reward_expectancy_bt_OFFLINE,2022.2.4,59.913098478764574,
0,0,0,1,0,1,0,0,star ,circle,1,0,1,0,3,2,38,10,,,,,,,,,,,,,,,,,,,,,,,,,,,,,,,,,,,,,,,,388.2009427321609,388.2009427321609,388.2009427321609,388.2009427321609,388.2009427321609,388.2009427321609,388.2009427321609,388.2009427321609,388.2009427321609,388.2009427321609,a,1.2722899089567363,10,483,1,389.5015933881514,391.00199576397426,391.00199576397426,391.5020795459859,,,,,,,,,,,,,,,,,,,,,,,,,,,,,,,,,,,,,,,,,,,,,,,,,,,,,,,,,,,,,,,,,,,,47028,2022-11-21_13h41.36.667,vts_reward_expectancy_bt_OFFLINE,2022.2.4,59.913098478764574,
0,1,0,0,1,0,0,0,circle,triangle,1,0,1,0,3,3,39,3,,,,,,,,,,,,,,,,,,,,,,,,,,,,,,,,,,,,,,,,391.5020795459859,391.5020795459859,391.5020795459859,391.5020795459859,391.5020795459859,391.5020795459859,391.5020795459859,391.5020795459859,391.5020795459859,391.5020795459859,a,0.6602972759865224,1,484,1,392.18327975203283,,393.6881593351718,,,,,,,,,,,,,,,,,,,,,,,,,,,,,,,,,,,,,,,,,,,,,,,,,,,,,,,,,,,,,,,,,,,,,47028,2022-11-21_13h41.36.667,vts_reward_expectancy_bt_OFFLINE,2022.2.4,59.913098478764574,
0,0,0,1,0,0,1,0,star,hexagon,1,0,1,0,3,4,40,11,,,,,,,,,,,,,,,,,,,,,,,,,,,,,,,,,,,,,,,,394.1884964001365,394.1884964001365,394.1884964001365,394.1884964001365,394.1884964001365,394.1884964001365,394.1884964001365,394.1884964001365,394.1884964001365,394.1884964001365,l,0.5839570078533143,1,485,1,394.8053012271412,396.3056864591781,396.3056864591781,396.80569265712984,,,,,,,,,,,,,,,,,,,,,,,,,,,,,,,,,,,,,,,,,,,,,,,,,,,,,,,,,,,,,,,,,,,,47028,2022-11-21_13h41.36.667,vts_reward_expectancy_bt_OFFLINE,2022.2.4,59.913098478764574,
1,0,0,0,0,0,0,1,triangle,star,1,0,1,0,3,5,41,2,,,,,,,,,,,,,,,,,,,,,,,,,,,,,,,,,,,,,,,,396.80569265712984,396.80569265712984,396.80569265712984,396.80569265712984,396.80569265712984,396.80569265712984,396.80569265712984,396.80569265712984,396.80569265712984,396.80569265712984,a,0.5536999977193773,10,495,1,397.3913858451415,398.8915529369842,398.8915529369842,399.391887299018,,,,,,,,,,,,,,,,,,,,,,,,,,,,,,,,,,,,,,,,,,,,,,,,,,,,,,,,,,,,,,,,,,,,47028,2022-11-21_13h41.36.667,vts_reward_expectancy_bt_OFFLINE,2022.2.4,59.913098478764574,
0,1,0,0,0,0,1,0,circle,hexagon,1,0,1,0,3,6,42,4,,,,,,,,,,,,,,,,,,,,,,,,,,,,,,,,,,,,,,,,399.391887299018,399.391887299018,399.391887299018,399.391887299018,399.391887299018,399.391887299018,399.391887299018,399.391887299018,399.391887299018,399.391887299018,a,1.3764333399012685,1,496,1,400.79447183501907,,402.2948876491282,,,,,,,,,,,,,,,,,,,,,,,,,,,,,,,,,,,,,,,,,,,,,,,,,,,,,,,,,,,,,,,,,,,,,47028,2022-11-21_13h41.36.667,vts_reward_expectancy_bt_OFFLINE,2022.2.4,59.913098478764574,
0,1,0,0,0,0,0,1,circle,star,1,0,1,0,3,7,43,5,,,,,,,,,,,,,,,,,,,,,,,,,,,,,,,,,,,,,,,,402.7950037319679,402.7950037319679,402.7950037319679,402.7950037319679,402.7950037319679,402.7950037319679,402.7950037319679,402.7950037319679,402.7950037319679,402.7950037319679,l,1.6071200638543814,10,506,1,404.4313683169894,,405.946300865151,,,,,,,,,,,,,,,,,,,,,,,,,,,,,,,,,,,,,,,,,,,,,,,,,,,,,,,,,,,,,,,,,,,,,47028,2022-11-21_13h41.36.667,vts_reward_expectancy_bt_OFFLINE,2022.2.4,59.913098478764574,
0,0,0,1,1,0,0,0,star,triangle,1,0,1,0,3,8,44,9,,,,,,,,,,,,,,,,,,,,,,,,,,,,,,,,,,,,,,,,406.44641327508725,406.44641327508725,406.44641327508725,406.44641327508725,406.44641327508725,406.44641327508725,406.44641327508725,406.44641327508725,406.44641327508725,406.44641327508725,a,1.2748680610675365,1,507,1,407.7505317281466,,409.2658824210521,,,,,,,,,,,,,,,,,,,,,,,,,,,,,,,,,,,,,,,,,,,,,,,,,,,,,,,,,,,,,,,,,,,,,47028,2022-11-21_13h41.36.667,vts_reward_expectancy_bt_OFFLINE,2022.2.4,59.913098478764574,
0,0,1,0,1,0,0,0,hexagon,triangle,1,0,1,0,3,9,45,6,,,,,,,,,,,,,,,,,,,,,,,,,,,,,,,,,,,,,,,,409.7494546540547,409.7494546540547,409.7494546540547,409.7494546540547,409.7494546540547,409.7494546540547,409.7494546540547,409.7494546540547,409.7494546540547,409.7494546540547,l,0.6494049287866801,1,508,1,410.41641513910145,411.91687461314723,411.91687461314723,,,,,,,,,,,,,,,,,,,,,,,,,,,,,,,,,,,,,,,,,,,,,,,,,,,,,,,,,,,,,,,,,,,,,47028,2022-11-21_13h41.36.667,vts_reward_expectancy_bt_OFFLINE,2022.2.4,59.913098478764574,
1,0,0,0,0,0,1,0,triangle,hexagon,1,0,1,0,3,10,46,1,,,,,,,,,,,,,,,,,,,,,,,,,,,,,,,,,,,,,,,,412.41908379108645,412.41908379108645,412.41908379108645,412.41908379108645,412.41908379108645,412.41908379108645,412.41908379108645,412.41908379108645,412.41908379108645,412.41908379108645,a,0.815589222824201,1,509,1,413.2526135991793,414.7530444529839,414.7530444529839,415.25330957607366,,,,,,,,,,,,,,,,,,,,,,,,,,,,,,,,,,,,,,,,,,,,,,,,,,,,,,,,,,,,,,,,,,,,47028,2022-11-21_13h41.36.667,vts_reward_expectancy_bt_OFFLINE,2022.2.4,59.913098478764574,
0,0,1,0,0,0,0,1,hexagon,star,1,0,1,0,3,11,47,8,,,,,,,,,,,,,,,,,,,,,,,,,,,,,,,,,,,,,,,,415.25330957607366,415.25330957607366,415.25330957607366,415.25330957607366,415.25330957607366,415.25330957607366,415.25330957607366,415.25330957607366,415.25330957607366,415.25330957607366,l,1.3002518457360566,1,510,1,416.57038619415835,,418.0725904270075,,,,,,,,,,,,,,,,,,,,,,,,,,,,,,,,,,,,,,,,,,,,,,,,,,,,,,,,,,,,,,,,,,,,,47028,2022-11-21_13h41.36.667,vts_reward_expectancy_bt_OFFLINE,2022.2.4,59.913098478764574,
1,0,0,0,0,0,1,0,triangle,hexagon,2,0,2,0,0,0,0,1,,,,,,,,,,,,,,,,,,,,,,,,,,,,,,,,,,,,,,,,423.32110745599493,423.32110745599493,423.32110745599493,423.32110745599493,423.32110745599493,423.32110745599493,423.32110745599493,423.32110745599493,423.32110745599493,423.32110745599493,a,1.7601979488972574,1,511,2,425.110677678138,426.61089084506966,426.61089084506966,427.11104948516004,,,,,,,,,,,,,,,,,,,,,,,,,,,,,,,,,,,,,,,,,,,,,,,,,,,,,,,,,,,,,,,,,,,,47028,2022-11-21_13h41.36.667,vts_reward_expectancy_bt_OFFLINE,2022.2.4,59.913098478764574,
0,0,1,0,0,1,0,0,hexagon,circle,2,0,2,0,0,1,1,7,,,,,,,,,,,,,,,,,,,,,,,,,,,,,,,,,,,,,,,,427.11104948516004,427.11104948516004,427.11104948516004,427.11104948516004,427.11104948516004,427.11104948516004,427.11104948516004,427.11104948516004,427.11104948516004,427.11104948516004,a,0.3659381738398224,10,521,2,427.49850514903665,,429.01337679312564,,,,,,,,,,,,,,,,,,,,,,,,,,,,,,,,,,,,,,,,,,,,,,,,,,,,,,,,,,,,,,,,,,,,,47028,2022-11-21_13h41.36.667,vts_reward_expectancy_bt_OFFLINE,2022.2.4,59.913098478764574,
0,1,0,0,1,0,0,0,circle,triangle,2,0,2,0,0,2,2,3,,,,,,,,,,,,,,,,,,,,,,,,,,,,,,,,,,,,,,,,429.51392049109563,429.51392049109563,429.51392049109563,429.51392049109563,429.51392049109563,429.51392049109563,429.51392049109563,429.51392049109563,429.51392049109563,429.51392049109563,l,0.258797189919278,1,522,2,429.7991110740695,,431.298081177054,,,,,,,,,,,,,,,,,,,,,,,,,,,,,,,,,,,,,,,,,,,,,,,,,,,,,,,,,,,,,,,,,,,,,47028,2022-11-21_13h41.36.667,vts_reward_expectancy_bt_OFFLINE,2022.2.4,59.913098478764574,
0,0,1,0,1,0,0,0,hexagon,triangle,2,0,2,0,0,3,3,6,,,,,,,,,,,,,,,,,,,,,,,,,,,,,,,,,,,,,,,,431.7980768531561,431.7980768531561,431.7980768531561,431.7980768531561,431.7980768531561,431.7980768531561,431.7980768531561,431.7980768531561,431.7980768531561,431.7980768531561,l,1.0681696368847042,10,532,2,432.8853620570153,,434.40084092412144,,,,,,,,,,,,,,,,,,,,,,,,,,,,,,,,,,,,,,,,,,,,,,,,,,,,,,,,,,,,,,,,,,,,,47028,2022-11-21_13h41.36.667,vts_reward_expectancy_bt_OFFLINE,2022.2.4,59.913098478764574,
1,0,0,0,0,1,0,0,triangle,circle,2,0,2,0,0,4,4,0,,,,,,,,,,,,,,,,,,,,,,,,,,,,,,,,,,,,,,,,434.9007871930953,434.9007871930953,434.9007871930953,434.9007871930953,434.9007871930953,434.9007871930953,434.9007871930953,434.9007871930953,434.9007871930953,434.9007871930953,a,0.8007366177625954,10,542,2,435.73455670196563,,437.23700121301226,,,,,,,,,,,,,,,,,,,,,,,,,,,,,,,,,,,,,,,,,,,,,,,,,,,,,,,,,,,,,,,,,,,,,47028,2022-11-21_13h41.36.667,vts_reward_expectancy_bt_OFFLINE,2022.2.4,59.913098478764574,
0,0,1,0,0,0,0,1,hexagon,star,2,0,2,0,0,5,5,8,,,,,,,,,,,,,,,,,,,,,,,,,,,,,,,,,,,,,,,,437.73706339509226,437.73706339509226,437.73706339509226,437.73706339509226,437.73706339509226,437.73706339509226,437.73706339509226,437.73706339509226,437.73706339509226,437.73706339509226,l,1.1937245789449662,1,543,2,438.9560497950297,,440.4714063180145,,,,,,,,,,,,,,,,,,,,,,,,,,,,,,,,,,,,,,,,,,,,,,,,,,,,,,,,,,,,,,,,,,,,,47028,2022-11-21_13h41.36.667,vts_reward_expectancy_bt_OFFLINE,2022.2.4,59.913098478764574,
0,0,0,1,0,0,1,0,star,hexagon,2,0,2,0,0,6,6,11,,,,,,,,,,,,,,,,,,,,,,,,,,,,,,,,,,,,,,,,440.9719225349836,440.9719225349836,440.9719225349836,440.9719225349836,440.9719225349836,440.9719225349836,440.9719225349836,440.9719225349836,440.9719225349836,440.9719225349836,l,0.861825288971886,10,553,2,441.8572167381644,,443.35774137009867,,,,,,,,,,,,,,,,,,,,,,,,,,,,,,,,,,,,,,,,,,,,,,,,,,,,,,,,,,,,,,,,,,,,,47028,2022-11-21_13h41.36.667,vts_reward_expectancy_bt_OFFLINE,2022.2.4,59.913098478764574,
0,1,0,0,0,0,1,0,circle,hexagon,2,0,2,0,0,7,7,4,,,,,,,,,,,,,,,,,,,,,,,,,,,,,,,,,,,,,,,,443.8580201321747,443.8580201321747,443.8580201321747,443.8580201321747,443.8580201321747,443.8580201321747,443.8580201321747,443.8580201321747,443.8580201321747,443.8580201321747,a,0.5962270880118012,1,554,2,444.47696360200644,,445.9918916581664,,,,,,,,,,,,,,,,,,,,,,,,,,,,,,,,,,,,,,,,,,,,,,,,,,,,,,,,,,,,,,,,,,,,,47028,2022-11-21_13h41.36.667,vts_reward_expectancy_bt_OFFLINE,2022.2.4,59.913098478764574,
0,0,0,1,0,1,0,0,star ,circle,2,0,2,0,0,8,8,10,,,,,,,,,,,,,,,,,,,,,,,,,,,,,,,,,,,,,,,,446.49225096497685,446.49225096497685,446.49225096497685,446.49225096497685,446.49225096497685,446.49225096497685,446.49225096497685,446.49225096497685,446.49225096497685,446.49225096497685,l,0.48216368700377643,10,564,2,446.9942483350169,,448.49483072408475,,,,,,,,,,,,,,,,,,,,,,,,,,,,,,,,,,,,,,,,,,,,,,,,,,,,,,,,,,,,,,,,,,,,,47028,2022-11-21_13h41.36.667,vts_reward_expectancy_bt_OFFLINE,2022.2.4,59.913098478764574,
0,1,0,0,0,0,0,1,circle,star,2,0,2,0,0,9,9,5,,,,,,,,,,,,,,,,,,,,,,,,,,,,,,,,,,,,,,,,448.9946955561172,448.9946955561172,448.9946955561172,448.9946955561172,448.9946955561172,448.9946955561172,448.9946955561172,448.9946955561172,448.9946955561172,448.9946955561172,l,0.5683277538046241,1,565,2,449.595116520999,451.09570512198843,451.09570512198843,451.5955290561542,,,,,,,,,,,,,,,,,,,,,,,,,,,,,,,,,,,,,,,,,,,,,,,,,,,,,,,,,,,,,,,,,,,,47028,2022-11-21_13h41.36.667,vts_reward_expectancy_bt_OFFLINE,2022.2.4,59.913098478764574,
1,0,0,0,0,0,0,1,triangle,star,2,0,2,0,0,10,10,2,,,,,,,,,,,,,,,,,,,,,,,,,,,,,,,,,,,,,,,,451.5955290561542,451.5955290561542,451.5955290561542,451.5955290561542,451.5955290561542,451.5955290561542,451.5955290561542,451.5955290561542,451.5955290561542,451.5955290561542,l,0.7234250858891755,10,575,2,452.35007817298174,,453.8651175349951,,,,,,,,,,,,,,,,,,,,,,,,,,,,,,,,,,,,,,,,,,,,,,,,,,,,,,,,,,,,,,,,,,,,,47028,2022-11-21_13h41.36.667,vts_reward_expectancy_bt_OFFLINE,2022.2.4,59.913098478764574,
0,0,0,1,1,0,0,0,star,triangle,2,0,2,0,0,11,11,9,,,,,,,,,,,,,,,,,,,,,,,,,,,,,,,,,,,,,,,,454.3652267900761,454.3652267900761,454.3652267900761,454.3652267900761,454.3652267900761,454.3652267900761,454.3652267900761,454.3652267900761,454.3652267900761,454.3652267900761,l,0.7995728347450495,1,576,2,455.1840367401019,,456.6996125720907,,,,,,,,,,,,,,,,,,,,,,,,,,,,,,,,,,,,,,,,,,,,,,,,,,,,,,,,,,,,,,,,,,,,,47028,2022-11-21_13h41.36.667,vts_reward_expectancy_bt_OFFLINE,2022.2.4,59.913098478764574,
0,0,1,0,0,0,0,1,hexagon,star,2,0,2,0,1,0,12,8,,,,,,,,,,,,,,,,,,,,,,,,,,,,,,,,,,,,,,,,457.1997671111021,457.1997671111021,457.1997671111021,457.1997671111021,457.1997671111021,457.1997671111021,457.1997671111021,457.1997671111021,457.1997671111021,457.1997671111021,l,0.7327053118497133,1,577,2,457.9517218321562,459.45247964095324,459.45247964095324,,,,,,,,,,,,,,,,,,,,,,,,,,,,,,,,,,,,,,,,,,,,,,,,,,,,,,,,,,,,,,,,,,,,,47028,2022-11-21_13h41.36.667,vts_reward_expectancy_bt_OFFLINE,2022.2.4,59.913098478764574,
1,0,0,0,0,1,0,0,triangle,circle,2,0,2,0,1,1,13,0,,,,,,,,,,,,,,,,,,,,,,,,,,,,,,,,,,,,,,,,459.952549980022,459.952549980022,459.952549980022,459.952549980022,459.952549980022,459.952549980022,459.952549980022,459.952549980022,459.952549980022,459.952549980022,a,0.8380479039624333,10,587,2,460.8216169050429,,462.32174479495734,,,,,,,,,,,,,,,,,,,,,,,,,,,,,,,,,,,,,,,,,,,,,,,,,,,,,,,,,,,,,,,,,,,,,47028,2022-11-21_13h41.36.667,vts_reward_expectancy_bt_OFFLINE,2022.2.4,59.913098478764574,
0,1,0,0,0,0,1,0,circle,hexagon,2,0,2,0,1,2,14,4,,,,,,,,,,,,,,,,,,,,,,,,,,,,,,,,,,,,,,,,462.8221903031226,462.8221903031226,462.8221903031226,462.8221903031226,462.8221903031226,462.8221903031226,462.8221903031226,462.8221903031226,462.8221903031226,462.8221903031226,l,1.15182417887263,1,588,2,464.00646903296,465.5063674179837,465.5063674179837,466.00648299604654,,,,,,,,,,,,,,,,,,,,,,,,,,,,,,,,,,,,,,,,,,,,,,,,,,,,,,,,,,,,,,,,,,,,47028,2022-11-21_13h41.36.667,vts_reward_expectancy_bt_OFFLINE,2022.2.4,59.913098478764574,
1,0,0,0,0,0,1,0,triangle,hexagon,2,0,2,0,1,3,15,1,,,,,,,,,,,,,,,,,,,,,,,,,,,,,,,,,,,,,,,,466.00648299604654,466.00648299604654,466.00648299604654,466.00648299604654,466.00648299604654,466.00648299604654,466.00648299604654,466.00648299604654,466.00648299604654,466.00648299604654,a,1.5908536720089614,1,589,2,467.6256024921313,469.1259699820075,469.1259699820075,469.62612311705016,,,,,,,,,,,,,,,,,,,,,,,,,,,,,,,,,,,,,,,,,,,,,,,,,,,,,,,,,,,,,,,,,,,,47028,2022-11-21_13h41.36.667,vts_reward_expectancy_bt_OFFLINE,2022.2.4,59.913098478764574,
0,0,1,0,0,1,0,0,hexagon,circle,2,0,2,0,1,4,16,7,,,,,,,,,,,,,,,,,,,,,,,,,,,,,,,,,,,,,,,,469.62612311705016,469.62612311705016,469.62612311705016,469.62612311705016,469.62612311705016,469.62612311705016,469.62612311705016,469.62612311705016,469.62612311705016,469.62612311705016,a,1.042986141052097,10,599,2,470.69562195497565,,472.2104192159604,,,,,,,,,,,,,,,,,,,,,,,,,,,,,,,,,,,,,,,,,,,,,,,,,,,,,,,,,,,,,,,,,,,,,47028,2022-11-21_13h41.36.667,vts_reward_expectancy_bt_OFFLINE,2022.2.4,59.913098478764574,
0,0,0,1,1,0,0,0,star,triangle,2,0,2,0,1,5,17,9,,,,,,,,,,,,,,,,,,,,,,,,,,,,,,,,,,,,,,,,472.6958675549831,472.6958675549831,472.6958675549831,472.6958675549831,472.6958675549831,472.6958675549831,472.6958675549831,472.6958675549831,472.6958675549831,472.6958675549831,a,1.4160481609869748,1,600,2,474.13229827210307,,475.6468484499492,,,,,,,,,,,,,,,,,,,,,,,,,,,,,,,,,,,,,,,,,,,,,,,,,,,,,,,,,,,,,,,,,,,,,47028,2022-11-21_13h41.36.667,vts_reward_expectancy_bt_OFFLINE,2022.2.4,59.913098478764574,
1,0,0,0,0,0,0,1,triangle,star,2,0,2,0,1,6,18,2,,,,,,,,,,,,,,,,,,,,,,,,,,,,,,,,,,,,,,,,476.14728181809187,476.14728181809187,476.14728181809187,476.14728181809187,476.14728181809187,476.14728181809187,476.14728181809187,476.14728181809187,476.14728181809187,476.14728181809187,a,0.4167836250271648,1,601,2,476.58131360216066,,478.0828445791267,,,,,,,,,,,,,,,,,,,,,,,,,,,,,,,,,,,,,,,,,,,,,,,,,,,,,,,,,,,,,,,,,,,,,47028,2022-11-21_13h41.36.667,vts_reward_expectancy_bt_OFFLINE,2022.2.4,59.913098478764574,
0,1,0,0,0,0,0,1,circle,star,2,0,2,0,1,7,19,5,,,,,,,,,,,,,,,,,,,,,,,,,,,,,,,,,,,,,,,,478.5832670831587,478.5832670831587,478.5832670831587,478.5832670831587,478.5832670831587,478.5832670831587,478.5832670831587,478.5832670831587,478.5832670831587,478.5832670831587,l,0.4670101918745786,10,611,2,479.06922635412775,,480.58393347403035,,,,,,,,,,,,,,,,,,,,,,,,,,,,,,,,,,,,,,,,,,,,,,,,,,,,,,,,,,,,,,,,,,,,,47028,2022-11-21_13h41.36.667,vts_reward_expectancy_bt_OFFLINE,2022.2.4,59.913098478764574,
0,0,1,0,1,0,0,0,hexagon,triangle,2,0,2,0,1,8,20,6,,,,,,,,,,,,,,,,,,,,,,,,,,,,,,,,,,,,,,,,481.0841644471511,481.0841644471511,481.0841644471511,481.0841644471511,481.0841644471511,481.0841644471511,481.0841644471511,481.0841644471511,481.0841644471511,481.0841644471511,l,0.3291892670094967,1,612,2,481.43623904907145,,482.9365516039543,,,,,,,,,,,,,,,,,,,,,,,,,,,,,,,,,,,,,,,,,,,,,,,,,,,,,,,,,,,,,,,,,,,,,47028,2022-11-21_13h41.36.667,vts_reward_expectancy_bt_OFFLINE,2022.2.4,59.913098478764574,
0,0,0,1,0,0,1,0,star,hexagon,2,0,2,0,1,9,21,11,,,,,,,,,,,,,,,,,,,,,,,,,,,,,,,,,,,,,,,,483.43678214005195,483.43678214005195,483.43678214005195,483.43678214005195,483.43678214005195,483.43678214005195,483.43678214005195,483.43678214005195,483.43678214005195,483.43678214005195,a,0.49693931196816266,10,622,2,483.95622051809914,,485.4707929440774,,,,,,,,,,,,,,,,,,,,,,,,,,,,,,,,,,,,,,,,,,,,,,,,,,,,,,,,,,,,,,,,,,,,,47028,2022-11-21_13h41.36.667,vts_reward_expectancy_bt_OFFLINE,2022.2.4,59.913098478764574,
0,0,0,1,0,1,0,0,star ,circle,2,0,2,0,1,10,22,10,,,,,,,,,,,,,,,,,,,,,,,,,,,,,,,,,,,,,,,,485.9709452681709,485.9709452681709,485.9709452681709,485.9709452681709,485.9709452681709,485.9709452681709,485.9709452681709,485.9709452681709,485.9709452681709,485.9709452681709,l,0.4141287188977003,1,623,2,486.40640224399976,,487.9068701120559,,,,,,,,,,,,,,,,,,,,,,,,,,,,,,,,,,,,,,,,,,,,,,,,,,,,,,,,,,,,,,,,,,,,,47028,2022-11-21_13h41.36.667,vts_reward_expectancy_bt_OFFLINE,2022.2.4,59.913098478764574,
0,1,0,0,1,0,0,0,circle,triangle,2,0,2,0,1,11,23,3,,,,,,,,,,,,,,,,,,,,,,,,,,,,,,,,,,,,,,,,488.40734916203655,488.40734916203655,488.40734916203655,488.40734916203655,488.40734916203655,488.40734916203655,488.40734916203655,488.40734916203655,488.40734916203655,488.40734916203655,a,0.41924965498037636,10,633,2,488.85979328816757,,490.3742912299931,,,,,,,,,,,,,,,,,,,,,,,,,,,,,,,,,,,,,,,,,,,,,,,,,,,,,,,,,,,,,,,,,,,,,47028,2022-11-21_13h41.36.667,vts_reward_expectancy_bt_OFFLINE,2022.2.4,59.913098478764574,
0,0,0,1,0,1,0,0,star ,circle,2,0,2,0,2,0,24,10,,,,,,,,,,,,,,,,,,,,,,,,,,,,,,,,,,,,,,,,490.87452000402845,490.87452000402845,490.87452000402845,490.87452000402845,490.87452000402845,490.87452000402845,490.87452000402845,490.87452000402845,490.87452000402845,490.87452000402845,l,0.8323441420216113,10,643,2,491.7254363410175,,493.2273209539708,,,,,,,,,,,,,,,,,,,,,,,,,,,,,,,,,,,,,,,,,,,,,,,,,,,,,,,,,,,,,,,,,,,,,47028,2022-11-21_13h41.36.667,vts_reward_expectancy_bt_OFFLINE,2022.2.4,59.913098478764574,
0,0,1,0,0,0,0,1,hexagon,star,2,0,2,0,2,1,25,8,,,,,,,,,,,,,,,,,,,,,,,,,,,,,,,,,,,,,,,,493.727843092056,493.727843092056,493.727843092056,493.727843092056,493.727843092056,493.727843092056,493.727843092056,493.727843092056,493.727843092056,493.727843092056,a,0.6452502629254013,10,653,2,494.394795343047,495.89505595504306,495.89505595504306,496.39524949202314,,,,,,,,,,,,,,,,,,,,,,,,,,,,,,,,,,,,,,,,,,,,,,,,,,,,,,,,,,,,,,,,,,,,47028,2022-11-21_13h41.36.667,vts_reward_expectancy_bt_OFFLINE,2022.2.4,59.913098478764574,
0,0,1,0,0,1,0,0,hexagon,circle,2,0,2,0,2,2,26,7,,,,,,,,,,,,,,,,,,,,,,,,,,,,,,,,,,,,,,,,496.39524949202314,496.39524949202314,496.39524949202314,496.39524949202314,496.39524949202314,496.39524949202314,496.39524949202314,496.39524949202314,496.39524949202314,496.39524949202314,a,0.9600380638148636,10,663,2,497.3810123701114,498.88109960011207,498.88109960011207,499.3813656461425,,,,,,,,,,,,,,,,,,,,,,,,,,,,,,,,,,,,,,,,,,,,,,,,,,,,,,,,,,,,,,,,,,,,47028,2022-11-21_13h41.36.667,vts_reward_expectancy_bt_OFFLINE,2022.2.4,59.913098478764574,
0,1,0,0,1,0,0,0,circle,triangle,2,0,2,0,2,3,27,3,,,,,,,,,,,,,,,,,,,,,,,,,,,,,,,,,,,,,,,,499.3813656461425,499.3813656461425,499.3813656461425,499.3813656461425,499.3813656461425,499.3813656461425,499.3813656461425,499.3813656461425,499.3813656461425,499.3813656461425,a,0.8985041379928589,1,664,2,500.30045639094897,,501.81540625100024,,,,,,,,,,,,,,,,,,,,,,,,,,,,,,,,,,,,,,,,,,,,,,,,,,,,,,,,,,,,,,,,,,,,,47028,2022-11-21_13h41.36.667,vts_reward_expectancy_bt_OFFLINE,2022.2.4,59.913098478764574,
0,0,0,1,1,0,0,0,star,triangle,2,0,2,0,2,4,28,9,,,,,,,,,,,,,,,,,,,,,,,,,,,,,,,,,,,,,,,,502.30069644516334,502.30069644516334,502.30069644516334,502.30069644516334,502.30069644516334,502.30069644516334,502.30069644516334,502.30069644516334,502.30069644516334,502.30069644516334,l,0.7130861210171133,10,674,2,503.0368062220514,,504.5518711239565,,,,,,,,,,,,,,,,,,,,,,,,,,,,,,,,,,,,,,,,,,,,,,,,,,,,,,,,,,,,,,,,,,,,,47028,2022-11-21_13h41.36.667,vts_reward_expectancy_bt_OFFLINE,2022.2.4,59.913098478764574,
0,1,0,0,0,0,1,0,circle,hexagon,2,0,2,0,2,5,29,4,,,,,,,,,,,,,,,,,,,,,,,,,,,,,,,,,,,,,,,,505.0352513031103,505.0352513031103,505.0352513031103,505.0352513031103,505.0352513031103,505.0352513031103,505.0352513031103,505.0352513031103,505.0352513031103,505.0352513031103,l,1.0504599430132657,1,675,2,506.1047890840564,,507.60466789617203,,,,,,,,,,,,,,,,,,,,,,,,,,,,,,,,,,,,,,,,,,,,,,,,,,,,,,,,,,,,,,,,,,,,,47028,2022-11-21_13h41.36.667,vts_reward_expectancy_bt_OFFLINE,2022.2.4,59.913098478764574,
0,0,0,1,0,0,1,0,star,hexagon,2,0,2,0,2,6,30,11,,,,,,,,,,,,,,,,,,,,,,,,,,,,,,,,,,,,,,,,508.10447925608605,508.10447925608605,508.10447925608605,508.10447925608605,508.10447925608605,508.10447925608605,508.10447925608605,508.10447925608605,508.10447925608605,508.10447925608605,l,1.1536041849758476,10,685,2,509.2908311530482,,510.8057771390304,,,,,,,,,,,,,,,,,,,,,,,,,,,,,,,,,,,,,,,,,,,,,,,,,,,,,,,,,,,,,,,,,,,,,47028,2022-11-21_13h41.36.667,vts_reward_expectancy_bt_OFFLINE,2022.2.4,59.913098478764574,
1,0,0,0,0,1,0,0,triangle,circle,2,0,2,0,2,7,31,0,,,,,,,,,,,,,,,,,,,,,,,,,,,,,,,,,,,,,,,,511.3060986320488,511.3060986320488,511.3060986320488,511.3060986320488,511.3060986320488,511.3060986320488,511.3060986320488,511.3060986320488,511.3060986320488,511.3060986320488,a,1.5975434079300612,1,686,2,512.9274142601062,,514.4422933501191,,,,,,,,,,,,,,,,,,,,,,,,,,,,,,,,,,,,,,,,,,,,,,,,,,,,,,,,,,,,,,,,,,,,,47028,2022-11-21_13h41.36.667,vts_reward_expectancy_bt_OFFLINE,2022.2.4,59.913098478764574,
0,1,0,0,0,0,0,1,circle,star,2,0,2,0,2,8,32,5,,,,,,,,,,,,,,,,,,,,,,,,,,,,,,,,,,,,,,,,514.9425935549662,514.9425935549662,514.9425935549662,514.9425935549662,514.9425935549662,514.9425935549662,514.9425935549662,514.9425935549662,514.9425935549662,514.9425935549662,l,1.909624838968739,1,687,2,516.8769027451053,,518.3788377679884,,,,,,,,,,,,,,,,,,,,,,,,,,,,,,,,,,,,,,,,,,,,,,,,,,,,,,,,,,,,,,,,,,,,,47028,2022-11-21_13h41.36.667,vts_reward_expectancy_bt_OFFLINE,2022.2.4,59.913098478764574,
1,0,0,0,0,0,0,1,triangle,star,2,0,2,0,2,9,33,2,,,,,,,,,,,,,,,,,,,,,,,,,,,,,,,,,,,,,,,,518.8791119949892,518.8791119949892,518.8791119949892,518.8791119949892,518.8791119949892,518.8791119949892,518.8791119949892,518.8791119949892,518.8791119949892,518.8791119949892,a,1.0790278648491949,1,688,2,519.9800737751648,521.4798549350817,521.4798549350817,521.9799866459798,,,,,,,,,,,,,,,,,,,,,,,,,,,,,,,,,,,,,,,,,,,,,,,,,,,,,,,,,,,,,,,,,,,,47028,2022-11-21_13h41.36.667,vts_reward_expectancy_bt_OFFLINE,2022.2.4,59.913098478764574,
0,0,1,0,1,0,0,0,hexagon,triangle,2,0,2,0,2,10,34,6,,,,,,,,,,,,,,,,,,,,,,,,,,,,,,,,,,,,,,,,521.9799866459798,521.9799866459798,521.9799866459798,521.9799866459798,521.9799866459798,521.9799866459798,521.9799866459798,521.9799866459798,521.9799866459798,521.9799866459798,l,0.4409655858762562,1,689,2,522.4493466990534,523.9494013071526,523.9494013071526,524.4496988451574,,,,,,,,,,,,,,,,,,,,,,,,,,,,,,,,,,,,,,,,,,,,,,,,,,,,,,,,,,,,,,,,,,,,47028,2022-11-21_13h41.36.667,vts_reward_expectancy_bt_OFFLINE,2022.2.4,59.913098478764574,
1,0,0,0,0,0,1,0,triangle,hexagon,2,0,2,0,2,11,35,1,,,,,,,,,,,,,,,,,,,,,,,,,,,,,,,,,,,,,,,,524.4496988451574,524.4496988451574,524.4496988451574,524.4496988451574,524.4496988451574,524.4496988451574,524.4496988451574,524.4496988451574,524.4496988451574,524.4496988451574,l,0.2549722190015018,1,690,2,524.7335084581282,526.2335571979638,526.2335571979638,526.7358840720262,,,,,,,,,,,,,,,,,,,,,,,,,,,,,,,,,,,,,,,,,,,,,,,,,,,,,,,,,,,,,,,,,,,,47028,2022-11-21_13h41.36.667,vts_reward_expectancy_bt_OFFLINE,2022.2.4,59.913098478764574,
1,0,0,0,0,1,0,0,triangle,circle,2,0,2,0,3,0,36,0,,,,,,,,,,,,,,,,,,,,,,,,,,,,,,,,,,,,,,,,526.7358840720262,526.7358840720262,526.7358840720262,526.7358840720262,526.7358840720262,526.7358840720262,526.7358840720262,526.7358840720262,526.7358840720262,526.7358840720262,l,0.35460850805975497,1,691,2,527.1178233521059,,528.6197070300113,,,,,,,,,,,,,,,,,,,,,,,,,,,,,,,,,,,,,,,,,,,,,,,,,,,,,,,,,,,,,,,,,,,,,47028,2022-11-21_13h41.36.667,vts_reward_expectancy_bt_OFFLINE,2022.2.4,59.913098478764574,
0,1,0,0,0,0,1,0,circle,hexagon,2,0,2,0,3,1,37,4,,,,,,,,,,,,,,,,,,,,,,,,,,,,,,,,,,,,,,,,529.1199570870958,529.1199570870958,529.1199570870958,529.1199570870958,529.1199570870958,529.1199570870958,529.1199570870958,529.1199570870958,529.1199570870958,529.1199570870958,l,0.3214833149686456,1,692,2,529.4704390009865,530.9705174169503,530.9705174169503,531.4705767510459,,,,,,,,,,,,,,,,,,,,,,,,,,,,,,,,,,,,,,,,,,,,,,,,,,,,,,,,,,,,,,,,,,,,47028,2022-11-21_13h41.36.667,vts_reward_expectancy_bt_OFFLINE,2022.2.4,59.913098478764574,
0,0,0,1,1,0,0,0,star,triangle,2,0,2,0,3,2,38,9,,,,,,,,,,,,,,,,,,,,,,,,,,,,,,,,,,,,,,,,531.4705767510459,531.4705767510459,531.4705767510459,531.4705767510459,531.4705767510459,531.4705767510459,531.4705767510459,531.4705767510459,531.4705767510459,531.4705767510459,a,0.30036139278672636,10,702,2,531.7905039270408,,533.2898065501358,,,,,,,,,,,,,,,,,,,,,,,,,,,,,,,,,,,,,,,,,,,,,,,,,,,,,,,,,,,,,,,,,,,,,47028,2022-11-21_13h41.36.667,vts_reward_expectancy_bt_OFFLINE,2022.2.4,59.913098478764574,
0,0,1,0,1,0,0,0,hexagon,triangle,2,0,2,0,3,3,39,6,,,,,,,,,,,,,,,,,,,,,,,,,,,,,,,,,,,,,,,,533.7900717549492,533.7900717549492,533.7900717549492,533.7900717549492,533.7900717549492,533.7900717549492,533.7900717549492,533.7900717549492,533.7900717549492,533.7900717549492,l,0.5786479818634689,1,703,2,534.3926414251328,,535.9074093920644,,,,,,,,,,,,,,,,,,,,,,,,,,,,,,,,,,,,,,,,,,,,,,,,,,,,,,,,,,,,,,,,,,,,,47028,2022-11-21_13h41.36.667,vts_reward_expectancy_bt_OFFLINE,2022.2.4,59.913098478764574,
0,0,0,1,0,0,1,0,star,hexagon,2,0,2,0,3,4,40,11,,,,,,,,,,,,,,,,,,,,,,,,,,,,,,,,,,,,,,,,536.4075457910076,536.4075457910076,536.4075457910076,536.4075457910076,536.4075457910076,536.4075457910076,536.4075457910076,536.4075457910076,536.4075457910076,536.4075457910076,a,0.3465552378911525,1,704,2,536.7748460711446,,538.2767787100747,,,,,,,,,,,,,,,,,,,,,,,,,,,,,,,,,,,,,,,,,,,,,,,,,,,,,,,,,,,,,,,,,,,,,47028,2022-11-21_13h41.36.667,vts_reward_expectancy_bt_OFFLINE,2022.2.4,59.913098478764574,
1,0,0,0,0,0,0,1,triangle,star,2,0,2,0,3,5,41,2,,,,,,,,,,,,,,,,,,,,,,,,,,,,,,,,,,,,,,,,538.7770886931103,538.7770886931103,538.7770886931103,538.7770886931103,538.7770886931103,538.7770886931103,538.7770886931103,538.7770886931103,538.7770886931103,538.7770886931103,l,0.6668652328662574,1,705,2,539.4614840280265,540.9611012390815,540.9611012390815,541.4609642601572,,,,,,,,,,,,,,,,,,,,,,,,,,,,,,,,,,,,,,,,,,,,,,,,,,,,,,,,,,,,,,,,,,,,47028,2022-11-21_13h41.36.667,vts_reward_expectancy_bt_OFFLINE,2022.2.4,59.913098478764574,
0,0,1,0,0,0,0,1,hexagon,star,2,0,2,0,3,6,42,8,,,,,,,,,,,,,,,,,,,,,,,,,,,,,,,,,,,,,,,,541.4609642601572,541.4609642601572,541.4609642601572,541.4609642601572,541.4609642601572,541.4609642601572,541.4609642601572,541.4609642601572,541.4609642601572,541.4609642601572,a,0.8848955319263041,10,715,2,542.3662529860158,,543.8806737221312,,,,,,,,,,,,,,,,,,,,,,,,,,,,,,,,,,,,,,,,,,,,,,,,,,,,,,,,,,,,,,,,,,,,,47028,2022-11-21_13h41.36.667,vts_reward_expectancy_bt_OFFLINE,2022.2.4,59.913098478764574,
0,0,1,0,0,1,0,0,hexagon,circle,2,0,2,0,3,7,43,7,,,,,,,,,,,,,,,,,,,,,,,,,,,,,,,,,,,,,,,,544.3807433119509,544.3807433119509,544.3807433119509,544.3807433119509,544.3807433119509,544.3807433119509,544.3807433119509,544.3807433119509,544.3807433119509,544.3807433119509,l,0.49649495095945895,1,716,2,544.9001337860245,,546.4150274831336,,,,,,,,,,,,,,,,,,,,,,,,,,,,,,,,,,,,,,,,,,,,,,,,,,,,,,,,,,,,,,,,,,,,,47028,2022-11-21_13h41.36.667,vts_reward_expectancy_bt_OFFLINE,2022.2.4,59.913098478764574,
1,0,0,0,0,0,1,0,triangle,hexagon,2,0,2,0,3,8,44,1,,,,,,,,,,,,,,,,,,,,,,,,,,,,,,,,,,,,,,,,546.9149461870547,546.9149461870547,546.9149461870547,546.9149461870547,546.9149461870547,546.9149461870547,546.9149461870547,546.9149461870547,546.9149461870547,546.9149461870547,l,0.1118391789495945,1,717,2,547.0489216460846,,548.5507921630051,,,,,,,,,,,,,,,,,,,,,,,,,,,,,,,,,,,,,,,,,,,,,,,,,,,,,,,,,,,,,,,,,,,,,47028,2022-11-21_13h41.36.667,vts_reward_expectancy_bt_OFFLINE,2022.2.4,59.913098478764574,
0,1,0,0,1,0,0,0,circle,triangle,2,0,2,0,3,9,45,3,,,,,,,,,,,,,,,,,,,,,,,,,,,,,,,,,,,,,,,,549.05109360395,549.05109360395,549.05109360395,549.05109360395,549.05109360395,549.05109360395,549.05109360395,549.05109360395,549.05109360395,549.05109360395,a,0.34885929990559816,1,718,2,549.4185299701057,550.918353689136,550.918353689136,551.418245333014,,,,,,,,,,,,,,,,,,,,,,,,,,,,,,,,,,,,,,,,,,,,,,,,,,,,,,,,,,,,,,,,,,,,47028,2022-11-21_13h41.36.667,vts_reward_expectancy_bt_OFFLINE,2022.2.4,59.913098478764574,
0,0,0,1,0,1,0,0,star ,circle,2,0,2,0,3,10,46,10,,,,,,,,,,,,,,,,,,,,,,,,,,,,,,,,,,,,,,,,551.418245333014,551.418245333014,551.418245333014,551.418245333014,551.418245333014,551.418245333014,551.418245333014,551.418245333014,551.418245333014,551.418245333014,l,1.2553104418329895,10,728,2,552.7071456271224,,554.22125646309,,,,,,,,,,,,,,,,,,,,,,,,,,,,,,,,,,,,,,,,,,,,,,,,,,,,,,,,,,,,,,,,,,,,,47028,2022-11-21_13h41.36.667,vts_reward_expectancy_bt_OFFLINE,2022.2.4,59.913098478764574,
0,1,0,0,0,0,0,1,circle,star,2,0,2,0,3,11,47,5,,,,,,,,,,,,,,,,,,,,,,,,,,,,,,,,,,,,,,,,554.7215228429995,554.7215228429995,554.7215228429995,554.7215228429995,554.7215228429995,554.7215228429995,554.7215228429995,554.7215228429995,554.7215228429995,554.7215228429995,l,0.4619585629552603,10,738,2,555.2056003289763,556.7054892540909,556.7054892540909,557.2127051879652,,,,,,,,,,,,,,,,,,,,,,,,,,,,,,,,,,,,,,,,,,,,,,,,,,,,,,,,,,,,,,,,,,,,47028,2022-11-21_13h41.36.667,vts_reward_expectancy_bt_OFFLINE,2022.2.4,59.913098478764574,
,,,,,,,,,,,,,,,,,,0,0,0,0,0,0,0,0,,,,,,,,,,,,,,,,,,,,,,,,,,,,,,,,,,,,,,,,,,,,,,,,,595.1176026039757,,167,S,circle,0.0024490009527653456,589.1096411331091,590.5972588220611,590.5972588220611,590.5972588220611,593.6003084641416,593.6003084641416,593.6003084641416,0,0,None,0,593.6171654670034,,,,,,,,,,,,,,,,,,,,,,,,,,,,,,,,,,,,,,,,,,,,,,,,,,,,47028,2022-11-21_13h41.36.667,vts_reward_expectancy_bt_OFFLINE,2022.2.4,59.913098478764574,
,,,,,,,,,,,,,,,,,,0,0,0,0,1,0,1,0,,,,,,,,,,,,,,,,,,,,,,,,,,,,,,,,,,,,,,,,,,,,,,,,,600.8714922519866,,139,D,hexagon,0.00638634292408824,596.1137857141439,597.6035184829962,597.6035184829962,597.6035184829962,,,,1,1,d,0,599.3572799151298,1.7264912717510015,,,,,,,,,,,,,,,,,,,,,,,,,,,,,,,,,,,,,,,,,,,,,,,,,,,47028,2022-11-21_13h41.36.667,vts_reward_expectancy_bt_OFFLINE,2022.2.4,59.913098478764574,
,,,,,,,,,,,,,,,,,,0,0,0,0,2,0,2,0,,,,,,,,,,,,,,,,,,,,,,,,,,,,,,,,,,,,,,,,,,,,,,,,,605.6747454740107,606.1751531611662,132,U,star,0.017108313040807843,601.8681666110642,603.3406828909647,603.3406828909647,603.3406828909647,,,,1,0,d,0,604.17515344196,0.8156997601035982,605.6747454740107,,,,,,,,,,,,,,,,,,,,,,,,,,,,,,,,,,,,,,,,,,,,,,,,,,47028,2022-11-21_13h41.36.667,vts_reward_expectancy_bt_OFFLINE,2022.2.4,59.913098478764574,
,,,,,,,,,,,,,,,,,,0,0,0,0,3,0,3,0,,,,,,,,,,,,,,,,,,,,,,,,,,,,,,,,,,,,,,,,,,,,,,,,,610.195085052168,610.6952909040265,160,H,triangle,0.0005388278514146805,606.6715285819955,608.1607910790481,608.1607910790481,608.1607910790481,,,,1,0,f,0,608.6954059209675,0.507151166908443,610.195085052168,,,,,,,,,,,,,,,,,,,,,,,,,,,,,,,,,,,,,,,,,,,,,,,,,,47028,2022-11-21_13h41.36.667,vts_reward_expectancy_bt_OFFLINE,2022.2.4,59.913098478764574,
,,,,,,,,,,,,,,,,,,0,0,0,0,4,0,4,0,,,,,,,,,,,,,,,,,,,,,,,,,,,,,,,,,,,,,,,,,,,,,,,,,615.1819599741139,615.6820533419959,181,F,triangle,0.0003355031367391348,611.1912026610225,612.6811407951172,612.6811407951172,612.6811407951172,,,,1,0,f,0,613.6821415619925,0.982740469975397,615.1819599741139,,,,,,,,,,,,,,,,,,,,,,,,,,,,,,,,,,,,,,,,,,,,,,,,,,47028,2022-11-21_13h41.36.667,vts_reward_expectancy_bt_OFFLINE,2022.2.4,59.913098478764574,
,,,,,,,,,,,,,,,,,,0,0,0,0,5,0,5,0,,,,,,,,,,,,,,,,,,,,,,,,,,,,,,,,,,,,,,,,,,,,,,,,,619.7357125221752,,125,W,circle,0.0005427778232842684,616.1788923919667,617.6679731921759,617.6679731921759,617.6679731921759,,,,1,0,d,0,618.2356494299602,0.5415312799159437,619.7357125221752,,,,,,,,,,,,,,,,,,,,,,,,,,,,,,,,,,,,,,,,,,,,,,,,,,47028,2022-11-21_13h41.36.667,vts_reward_expectancy_bt_OFFLINE,2022.2.4,59.913098478764574,
,,,,,,,,,,,,,,,,,,0,0,0,0,6,0,6,0,,,,,,,,,,,,,,,,,,,,,,,,,,,,,,,,,,,,,,,,,,,,,,,,,624.2724065610673,624.772628457984,174,Y,star,0.00042922887951135635,620.7317173001356,622.2195740421303,622.2195740421303,622.2195740421303,,,,1,0,f,0,622.7728285340127,0.5234220249112695,624.2724065610673,,,,,,,,,,,,,,,,,,,,,,,,,,,,,,,,,,,,,,,,,,,,,,,,,,47028,2022-11-21_13h41.36.667,vts_reward_expectancy_bt_OFFLINE,2022.2.4,59.913098478764574,
,,,,,,,,,,,,,,,,,,0,0,0,0,7,0,7,0,,,,,,,,,,,,,,,,,,,,,,,,,,,,,,,,,,,,,,,,,,,,,,,,,629.2093779649585,,146,B,hexagon,0.00015836418606340885,625.2681910991669,626.7566104151774,626.7566104151774,626.7566104151774,,,,1,0,d,0,627.7092257631011,0.925046905875206,,,,,,,,,,,,,,,,,,,,,,,,,,,,,,,,,,,,,,,,,,,,,,,,,,,47028,2022-11-21_13h41.36.667,vts_reward_expectancy_bt_OFFLINE,2022.2.4,59.913098478764574,
,,,,,,,,,,,,,,,,,,0,0,0,0,8,0,8,0,,,,,,,,,,,,,,,,,,,,,,,,,,,,,,,,,,,,,,,,,,,,,,,,,633.7627953880001,,167,S,star,0.00038558105006814003,630.2051168251783,631.6932276880834,631.6932276880834,631.6932276880834,,,,1,0,f,0,632.2602478151675,0.5341779869049788,,,,,,,,,,,,,,,,,,,,,,,,,,,,,,,,,,,,,,,,,,,,,,,,,,,47028,2022-11-21_13h41.36.667,vts_reward_expectancy_bt_OFFLINE,2022.2.4,59.913098478764574,
,,,,,,,,,,,,,,,,,,0,0,0,0,9,0,9,0,,,,,,,,,,,,,,,,,,,,,,,,,,,,,,,,,,,,,,,,,,,,,,,,,638.316060410114,,139,D,hexagon,0.000840276014059782,634.7579271229915,636.2470940970816,636.2470940970816,636.2470940970816,,,,1,0,d,0,636.8145580620039,0.5473168028984219,,,,,,,,,,,,,,,,,,,,,,,,,,,,,,,,,,,,,,,,,,,,,,,,,,,47028,2022-11-21_13h41.36.667,vts_reward_expectancy_bt_OFFLINE,2022.2.4,59.913098478764574,
,,,,,,,,,,,,,,,,,,,,,,,,,,0,0,0,0,0,0,0,0,,,,,,,,,,,,,,,,,,,,,,,,,,,,,,,,,,,,,,,,,661.048520514043,661.5484439220745,181,D,circle,0.017038359073922038,,,,,,,,1,0,,1,659.5486238901503,,661.048520514043,657.2585421730764,658.730916608125,658.730916608125,658.730916608125,j,0.7898708388675004,,,,,,,,,,,,,,,,,,,,,,,,,,,,,,,,,,,,,,,,,,,,47028,2022-11-21_13h41.36.667,vts_reward_expectancy_bt_OFFLINE,2022.2.4,59.913098478764574,
,,,,,,,,,,,,,,,,,,,,,,,,,,0,0,0,0,1,0,1,0,,,,,,,,,,,,,,,,,,,,,,,,,,,,,,,,,,,,,,,,,665.8351684990339,,167,S,star,0.0005760099738836288,,,,,,,,1,0,,1,664.335528704105,,665.8351684990339,662.0451984810643,663.5344078771304,663.5344078771304,663.5344078771304,k,0.7796509428881109,,,,,,,,,,,,,,,,,,,,,,,,,,,,,,,,,,,,,,,,,,,,47028,2022-11-21_13h41.36.667,vts_reward_expectancy_bt_OFFLINE,2022.2.4,59.913098478764574,
,,,,,,,,,,,,,,,,,,,,,,,,,,0,0,0,0,2,0,2,0,,,,,,,,,,,,,,,,,,,,,,,,,,,,,,,,,,,,,,,,,670.6389676961116,671.1391173750162,139,Y,triangle,0.0004137149080634117,,,,,,,,1,0,,1,669.1382958509494,,670.6389676961116,666.8318807091564,668.3212745049968,668.3212745049968,668.3212745049968,k,0.7849453638773412,,,,,,,,,,,,,,,,,,,,,,,,,,,,,,,,,,,,,,,,,,,,47028,2022-11-21_13h41.36.667,vts_reward_expectancy_bt_OFFLINE,2022.2.4,59.913098478764574,
,,,,,,,,,,,,,,,,,,,,,,,,,,0,0,0,0,3,0,3,0,,,,,,,,,,,,,,,,,,,,,,,,,,,,,,,,,,,,,,,,,675.4422700500581,675.9424431980588,174,F,hexagon,-0.0008059879764914513,,,,,,,,1,0,,1,673.9429217681754,,675.4422700500581,671.646569309989,673.1249062530696,673.1249062530696,673.1249062530696,j,0.7860965228173882,,,,,,,,,,,,,,,,,,,,,,,,,,,,,,,,,,,,,,,,,,,,47028,2022-11-21_13h41.36.667,vts_reward_expectancy_bt_OFFLINE,2022.2.4,59.913098478764574,
,,,,,,,,,,,,,,,,,,,,,,,,,,0,0,0,0,4,0,4,0,,,,,,,,,,,,,,,,,,,,,,,,,,,,,,,,,,,,,,,,,680.295898464974,680.796273346059,160,W,hexagon,0.00045317597687244415,,,,,,,,1,0,,1,678.7961058639921,,680.295898464974,676.4388731799554,677.9281506109983,677.9281506109983,677.9281506109983,k,0.8423560201190412,,,,,,,,,,,,,,,,,,,,,,,,,,,,,,,,,,,,,,,,,,,,47028,2022-11-21_13h41.36.667,vts_reward_expectancy_bt_OFFLINE,2022.2.4,59.913098478764574,
,,,,,,,,,,,,,,,,,,,,,,,,,,0,0,0,0,5,0,5,0,,,,,,,,,,,,,,,,,,,,,,,,,,,,,,,,,,,,,,,,,685.0496187910903,685.5495334051084,132,U,star,0.0003777069505304098,,,,,,,,1,0,,1,683.5499265480321,,685.0496187910903,681.2923864349723,682.7819346110336,682.7819346110336,682.7819346110336,k,0.7475934538524598,,,,,,,,,,,,,,,,,,,,,,,,,,,,,,,,,,,,,,,,,,,,47028,2022-11-21_13h41.36.667,vts_reward_expectancy_bt_OFFLINE,2022.2.4,59.913098478764574,
,,,,,,,,,,,,,,,,,,,,,,,,,,0,0,0,0,6,0,6,0,,,,,,,,,,,,,,,,,,,,,,,,,,,,,,,,,,,,,,,,,689.736414476065,690.2363433991559,125,B,circle,3.1812116503715515e-05,,,,,,,,1,0,,1,688.2364505920559,,689.736414476065,686.0457675990183,687.5355169770774,687.5355169770774,687.5355169770774,j,0.6752607969101518,,,,,,,,,,,,,,,,,,,,,,,,,,,,,,,,,,,,,,,,,,,,47028,2022-11-21_13h41.36.667,vts_reward_expectancy_bt_OFFLINE,2022.2.4,59.913098478764574,
,,,,,,,,,,,,,,,,,,,,,,,,,,0,0,0,0,7,0,7,0,,,,,,,,,,,,,,,,,,,,,,,,,,,,,,,,,,,,,,,,,694.9064732810948,695.406760062091,146,H,triangle,0.0005652531981468201,,,,,,,,1,0,,1,693.4070755280554,,694.9064732810948,690.7322410279885,692.2207486690022,692.2207486690022,692.2207486690022,j,1.1645529009401798,,,,,,,,,,,,,,,,,,,,,,,,,,,,,,,,,,,,,,,,,,,,47028,2022-11-21_13h41.36.667,vts_reward_expectancy_bt_OFFLINE,2022.2.4,59.913098478764574,
,,,,,,,,,,,,,,,,,,,,,,,,,,0,0,0,0,8,0,8,0,,,,,,,,,,,,,,,,,,,,,,,,,,,,,,,,,,,,,,,,,699.710310657043,700.2104048731271,181,D,star,0.00039449590258300304,,,,,,,,1,0,,1,698.2108234430198,,699.710310657043,695.9026687610894,697.3887037090026,697.3887037090026,697.3887037090026,j,0.8011082150042057,,,,,,,,,,,,,,,,,,,,,,,,,,,,,,,,,,,,,,,,,,,,47028,2022-11-21_13h41.36.667,vts_reward_expectancy_bt_OFFLINE,2022.2.4,59.913098478764574,
,,,,,,,,,,,,,,,,,,,,,,,,,,0,0,0,0,9,0,9,0,,,,,,,,,,,,,,,,,,,,,,,,,,,,,,,,,,,,,,,,,704.4473453441169,704.9507540799677,167,S,circle,0.0005247320514172316,,,,,,,,1,0,,1,702.9465991861653,,704.4473453441169,700.7062795469537,702.1946921499912,702.1946921499912,702.1946921499912,k,0.7197693649213761,,,,,,,,,,,,,,,,,,,,,,,,,,,,,,,,,,,,,,,,,,,,47028,2022-11-21_13h41.36.667,vts_reward_expectancy_bt_OFFLINE,2022.2.4,59.913098478764574,
,,,,,,,,,,,,,,,,,,,,,,,,,,,,,,,,,,0,0,0,0,0,0,0,0,,,,,,,,,,,,,,,,,,,,,,,,,,,,0,738,,,,757.3511415361427,,125,U,star,0.0008995488751679659,,,,,,,,1,0,,2,,,,,,,,,,751.9118638001382,751.9118638001382,751.9118638001382,751.9118638001382,753.3997314160224,753.3997314160224,753.3997314160224,753.3997314160224,753.4164589629509,753.4164589629509,753.4164589629509,753.4164589629509,-1,letter,NA,k,2.4048359440639615,vtsPrac,755.8379555011634,,,,,,,,,,,,,,,,,,,,,,,,,47028,2022-11-21_13h41.36.667,vts_reward_expectancy_bt_OFFLINE,2022.2.4,59.913098478764574,
,,,,,,,,,,,,,,,,,,,,,,,,,,,,,,,,,,0,0,0,0,1,0,1,0,,,,,,,,,,,,,,,,,,,,,,,,,,,,0,738,,,,762.2549210670404,,132,B,circle,0.0018473179079592228,,,,,,,,1,0,,2,,,,,,,,,,758.3325018959586,758.3325018959586,758.3325018959586,758.3325018959586,759.8205154500902,759.8205154500902,759.8205154500902,759.8205154500902,759.8373666300904,759.8373666300904,759.8373666300904,759.8373666300904,repeat,letter,lettRpt,j,0.910925401840359,vtsPrac,760.755609418964,762.2549210670404,,,,,,,,,,,,,,,,,,,,,,,,47028,2022-11-21_13h41.36.667,vts_reward_expectancy_bt_OFFLINE,2022.2.4,59.913098478764574,
,,,,,,,,,,,,,,,,,,,,,,,,,,,,,,,,,,0,0,0,0,2,0,2,0,,,,,,,,,,,,,,,,,,,,,,,,,,,,0,738,,,,767.5604130760767,,160,W,triangle,0.0020071498584002256,,,,,,,,1,0,,2,,,,,,,,,,763.2528781441506,763.2528781441506,763.2528781441506,763.2528781441506,764.7409096821211,764.7409096821211,764.7409096821211,764.7409096821211,764.7576833190396,764.7576833190396,764.7576833190396,764.7576833190396,switch,number,numSwt,f,1.300665957853198,vtsPrac,766.0600641390774,,,,,,,,,,,,,,,,,,,,,,,,,47028,2022-11-21_13h41.36.667,vts_reward_expectancy_bt_OFFLINE,2022.2.4,59.913098478764574,
,,,,,,,,,,,,,,,,,,,,,,,,,,,,,,,,,,0,0,0,0,3,0,3,0,,,,,,,,,,,,,,,,,,,,,,,,,,,,0,738,,,,773.5810377171729,,139,H,circle,0.0013555798213928938,,,,,,,,1,0,,2,,,,,,,,,,768.5563735901378,768.5563735901378,768.5563735901378,768.5563735901378,770.0444796599913,770.0444796599913,770.0444796599913,770.0444796599913,770.0613964761142,770.0613964761142,770.0613964761142,770.0613964761142,switch,letter,lettSwt,j,2.004833700833842,vtsPrac,772.0799203980714,,,,,,,,,,,,,,,,,,,,,,,,,47028,2022-11-21_13h41.36.667,vts_reward_expectancy_bt_OFFLINE,2022.2.4,59.913098478764574,
,,,,,,,,,,,,,,,,,,,,,,,,,,,,,,,,,,0,0,0,0,4,0,4,0,,,,,,,,,,,,,,,,,,,,,,,,,,,,0,738,,,,779.2517575281672,779.7519099931233,125,U,triangle,0.0018368090968579054,,,,,,,,1,0,,2,,,,,,,,,,774.5772221700754,774.5772221700754,774.5772221700754,774.5772221700754,776.0651267899666,776.0651267899666,776.0651267899666,776.0651267899666,776.0820192091633,776.0820192091633,776.0820192091633,776.0820192091633,switch,number,numSwt,d,1.6658214458730072,vtsPrac,777.7523195301183,779.2517575281672,,,,,,,,,,,,,,,,,,,,,,,,47028,2022-11-21_13h41.36.667,vts_reward_expectancy_bt_OFFLINE,2022.2.4,59.913098478764574,
,,,,,,,,,,,,,,,,,,,,,,,,,,,,,,,,,,0,0,0,0,5,0,5,0,,,,,,,,,,,,,,,,,,,,,,,,,,,,0,738,,,,783.8051007429603,,132,B,circle,0.0003773351199924946,,,,,,,,1,0,,2,,,,,,,,,,780.2481420240365,780.2481420240365,780.2481420240365,780.2481420240365,781.735931944102,781.735931944102,781.735931944102,781.735931944102,781.7524074511603,781.7524074511603,781.7524074511603,781.7524074511603,switch,letter,lettSwt,j,0.5408922489732504,vtsPrac,782.3040515759494,,,,,,,,,,,,,,,,,,,,,,,,,47028,2022-11-21_13h41.36.667,vts_reward_expectancy_bt_OFFLINE,2022.2.4,59.913098478764574,
,,,,,,,,,,,,,,,,,,,,,,,,,,,,,,,,,,0,0,0,0,6,0,6,0,,,,,,,,,,,,,,,,,,,,,,,,,,,,0,738,,,,788.5918545110617,789.0921544991434,160,W,circle,0.0018286199774593115,,,,,,,,1,0,,2,,,,,,,,,,784.8005571169779,784.8005571169779,784.8005571169779,784.8005571169779,786.2894904161803,786.2894904161803,786.2894904161803,786.2894904161803,786.3059350829571,786.3059350829571,786.3059350829571,786.3059350829571,repeat,letter,lettRpt,k,0.7682167417369783,vtsPrac,787.0894673699513,,,,,,,,,,,,,,,,,,,,,,,,,47028,2022-11-21_13h41.36.667,vts_reward_expectancy_bt_OFFLINE,2022.2.4,59.913098478764574,
,,,,,,,,,,,,,,,,,,,,,,,,,,,,,,,,,,0,0,0,0,7,0,7,0,,,,,,,,,,,,,,,,,,,,,,,,,,,,0,738,,,,793.9955495139584,,139,H,hexagon,0.0006489548832178116,,,,,,,,1,0,,2,,,,,,,,,,789.58815499302,789.58815499302,789.58815499302,789.58815499302,791.0762357669882,791.0762357669882,791.0762357669882,791.0762357669882,791.0929621369578,791.0929621369578,791.0929621369578,791.0929621369578,switch,number,numSwt,d,1.3819785197265446,vtsPrac,792.4859972670674,,,,,,,,,,,,,,,,,,,,,,,,,47028,2022-11-21_13h41.36.667,vts_reward_expectancy_bt_OFFLINE,2022.2.4,59.913098478764574,
,,,,,,,,,,,,,,,,,,,,,,,,,,,,,,,,,,0,0,0,0,8,0,8,0,,,,,,,,,,,,,,,,,,,,,,,,,,,,0,738,,,,799.0662470650859,,139,U,circle,0.004603753797709942,,,,,,,,1,0,,2,,,,,,,,,,794.9919310500845,794.9919310500845,794.9919310500845,794.9919310500845,796.479958971031,796.479958971031,796.479958971031,796.479958971031,796.496742738178,796.496742738178,796.496742738178,796.496742738178,repeat,number,numRpt,d,1.0526047579478472,vtsPrac,797.550566266058,,,,,,,,,,,,,,,,,,,,,,,,,47028,2022-11-21_13h41.36.667,vts_reward_expectancy_bt_OFFLINE,2022.2.4,59.913098478764574,
,,,,,,,,,,,,,,,,,,,,,,,,,,,,,,,,,,0,0,0,0,9,0,9,0,,,,,,,,,,,,,,,,,,,,,,,,,,,,0,738,,,,804.3364711850882,804.8365864190273,174,S,triangle,0.0163291790522635,,,,,,,,1,0,,2,,,,,,,,,,800.0630428220611,800.0630428220611,800.0630428220611,800.0630428220611,801.5335987061262,801.5335987061262,801.5335987061262,801.5335987061262,801.5668833351228,801.5668833351228,801.5668833351228,801.5668833351228,switch,letter,lettSwt,k,1.2750571849755943,vtsPrac,802.8370676541235,804.3364711850882,,,,,,,,,,,,,,,,,,,,,,,,47028,2022-11-21_13h41.36.667,vts_reward_expectancy_bt_OFFLINE,2022.2.4,59.913098478764574,
,,,,,,,,,,,,,,,,,,,,,,,,,,,,,,,,,,0,0,0,0,10,0,10,0,,,,,,,,,,,,,,,,,,,,,,,,,,,,0,738,,,,809.5068656590302,810.0071335581597,167,W,star,0.00040221703238785267,,,,,,,,1,0,,2,,,,,,,,,,805.3326832901221,805.3326832901221,805.3326832901221,805.3326832901221,806.820716585964,806.820716585964,806.820716585964,806.820716585964,806.837463474134,806.837463474134,806.837463474134,806.837463474134,repeat,letter,lettRpt,k,1.1640506559051573,vtsPrac,808.0075162129942,809.5068656590302,,,,,,,,,,,,,,,,,,,,,,,,47028,2022-11-21_13h41.36.667,vts_reward_expectancy_bt_OFFLINE,2022.2.4,59.913098478764574,
,,,,,,,,,,,,,,,,,,,,,,,,,,,,,,,,,,0,0,0,0,11,0,11,0,,,,,,,,,,,,,,,,,,,,,,,,,,,,0,738,,,,815.2940672840923,,181,H,triangle,0.000668426975607872,,,,,,,,1,0,,2,,,,,,,,,,810.5035435941536,810.5035435941536,810.5035435941536,810.5035435941536,811.9909746141639,811.9909746141639,811.9909746141639,811.9909746141639,812.0076155581046,812.0076155581046,812.0076155581046,812.0076155581046,switch,number,numSwt,f,1.7645535429473966,vtsPrac,813.7785162690561,,,,,,,,,,,,,,,,,,,,,,,,,47028,2022-11-21_13h41.36.667,vts_reward_expectancy_bt_OFFLINE,2022.2.4,59.913098478764574,
,,,,,,,,,,,,,,,,,,,,,,,,,,,,,,,,,,0,0,0,0,12,0,12,0,,,,,,,,,,,,,,,,,,,,,,,,,,,,0,738,,,,820.1977860920597,,146,Y,circle,0.016588308149948716,,,,,,,,1,0,,2,,,,,,,,,,816.2907990901731,816.2907990901731,816.2907990901731,816.2907990901731,817.7633254821412,817.7633254821412,817.7633254821412,817.7633254821412,817.7967123510316,817.7967123510316,817.7967123510316,817.7967123510316,repeat,number,numRpt,d,0.8982663480564952,vtsPrac,818.6819816241041,,,,,,,,,,,,,,,,,,,,,,,,,47028,2022-11-21_13h41.36.667,vts_reward_expectancy_bt_OFFLINE,2022.2.4,59.913098478764574,
,,,,,,,,,,,,,,,,,,,,,,,,,,,,,,,,,,0,0,0,0,13,0,13,0,,,,,,,,,,,,,,,,,,,,,,,,,,,,0,738,,,,826.301774838008,826.8015849450603,139,S,star,0.016740095103159547,,,,,,,,1,0,,2,,,,,,,,,,821.1939858959522,821.1939858959522,821.1939858959522,821.1939858959522,822.6670394651592,822.6670394651592,822.6670394651592,822.6670394651592,822.7003257290926,822.7003257290926,822.7003257290926,822.7003257290926,repeat,number,numRpt,d,2.1034601270221174,vtsPrac,824.8024840760045,826.301774838008,,,,,,,,,,,,,,,,,,,,,,,,47028,2022-11-21_13h41.36.667,vts_reward_expectancy_bt_OFFLINE,2022.2.4,59.913098478764574,
,,,,,,,,,,,,,,,,,,,,,,,,,,,,,,,,,,0,0,0,0,14,0,14,0,,,,,,,,,,,,,,,,,,,,,,,,,,,,0,738,,,,831.1551291421056,831.6554278330877,181,W,hexagon,0.000199468107894063,,,,,,,,1,0,,2,,,,,,,,,,827.2982187201269,827.2982187201269,827.2982187201269,827.2982187201269,828.7877676859498,828.7877676859498,828.7877676859498,828.7877676859498,828.8045232519507,828.8045232519507,828.8045232519507,828.8045232519507,switch,letter,lettSwt,k,0.8427524047438055,vtsPrac,829.6559216850437,831.1551291421056,,,,,,,,,,,,,,,,,,,,,,,,47028,2022-11-21_13h41.36.667,vts_reward_expectancy_bt_OFFLINE,2022.2.4,59.913098478764574,
,,,,,,,,,,,,,,,,,,,,,,,,,,,,,,,,,,0,0,0,0,15,0,15,0,,,,,,,,,,,,,,,,,,,,,,,,,,,,0,738,,,,836.0922670471482,836.5925131321419,132,U,triangle,0.00037025404162704945,,,,,,,,1,0,,2,,,,,,,,,,832.1517064420041,832.1517064420041,832.1517064420041,832.1517064420041,833.6414336699527,833.6414336699527,833.6414336699527,833.6414336699527,833.6580531471409,833.6580531471409,833.6580531471409,833.6580531471409,switch,number,numSwt,d,0.9285372099839151,vtsPrac,834.5930823769886,836.0922670471482,,,,,,,,,,,,,,,,,,,,,,,,47028,2022-11-21_13h41.36.667,vts_reward_expectancy_bt_OFFLINE,2022.2.4,59.913098478764574,
,,,,,,,,,,,,,,,,,,,,,,,,,,,,,,,,,,0,0,0,0,16,0,16,0,,,,,,,,,,,,,,,,,,,,,,,,,,,,0,738,,,,840.6122777520213,841.1127999231685,125,B,triangle,0.0005243790801614523,,,,,,,,1,0,,2,,,,,,,,,,837.0890677620191,837.0890677620191,837.0890677620191,837.0890677620191,838.5784133779816,838.5784133779816,838.5784133779816,838.5784133779816,838.5949752731249,838.5949752731249,838.5949752731249,838.5949752731249,switch,letter,lettSwt,j,0.5026446180418134,vtsPrac,839.1133745741099,840.6122777520213,,,,,,,,,,,,,,,,,,,,,,,,47028,2022-11-21_13h41.36.667,vts_reward_expectancy_bt_OFFLINE,2022.2.4,59.913098478764574,
,,,,,,,,,,,,,,,,,,,,,,,,,,,,,,,,,,0,0,0,0,17,0,17,0,,,,,,,,,,,,,,,,,,,,,,,,,,,,0,738,,,,845.3158579759765,,132,S,hexagon,0.0003887240309268236,,,,,,,,1,0,,2,,,,,,,,,,841.6090678621549,841.6090678621549,841.6090678621549,841.6090678621549,843.0984788050409,843.0984788050409,843.0984788050409,843.0984788050409,843.1151051521301,843.1151051521301,843.1151051521301,843.1151051521301,repeat,letter,lettRpt,k,0.67439138982445,vtsPrac,843.8004421130754,,,,,,,,,,,,,,,,,,,,,,,,,47028,2022-11-21_13h41.36.667,vts_reward_expectancy_bt_OFFLINE,2022.2.4,59.913098478764574,
,,,,,,,,,,,,,,,,,,,,,,,,,,,,,,,,,,0,0,0,0,18,0,18,0,,,,,,,,,,,,,,,,,,,,,,,,,,,,0,738,,,,851.5200198141392,,167,F,hexagon,0.016347502125427127,,,,,,,,1,0,,2,,,,,,,,,,846.3126254819799,846.3126254819799,846.3126254819799,846.3126254819799,847.7853937579785,847.7853937579785,847.7853937579785,847.7853937579785,847.8185057041701,847.8185057041701,847.8185057041701,847.8185057041701,switch,number,numSwt,f,2.1866358648985624,vtsPrac,850.0045225750655,,,,,,,,,,,,,,,,,,,,,,,,,47028,2022-11-21_13h41.36.667,vts_reward_expectancy_bt_OFFLINE,2022.2.4,59.913098478764574,
,,,,,,,,,,,,,,,,,,,,,,,,,,,,,,,,,,0,0,0,0,19,0,19,0,,,,,,,,,,,,,,,,,,,,,,,,,,,,0,738,,,,856.3567223600112,856.85695505701,181,U,star,0.01631305110640824,,,,,,,,1,0,,2,,,,,,,,,,852.5162766010035,852.5162766010035,852.5162766010035,852.5162766010035,853.9894103549886,853.9894103549886,853.9894103549886,853.9894103549886,854.0227827420458,854.0227827420458,854.0227827420458,854.0227827420458,switch,letter,lettSwt,k,0.8419632408767939,vtsPrac,854.8577382219955,856.3567223600112,,,,,,,,,,,,,,,,,,,,,,,,47028,2022-11-21_13h41.36.667,vts_reward_expectancy_bt_OFFLINE,2022.2.4,59.913098478764574,
,,,,,,,,,,,,,,,,,,,,,,,,,,,,,,,,,,0,0,0,0,20,0,20,0,,,,,,,,,,,,,,,,,,,,,,,,,,,,0,738,,,,861.0270543610677,,125,U,circle,0.00030635413713753223,,,,,,,,1,0,,2,,,,,,,,,,857.352859881008,857.352859881008,857.352859881008,857.352859881008,858.8427677161526,858.8427677161526,858.8427677161526,858.8427677161526,858.8596609311644,858.8596609311644,858.8596609311644,858.8596609311644,repeat,letter,lettRpt,k,0.6463469518348575,vtsPrac,859.5113104840275,,,,,,,,,,,,,,,,,,,,,,,,,47028,2022-11-21_13h41.36.667,vts_reward_expectancy_bt_OFFLINE,2022.2.4,59.913098478764574,
,,,,,,,,,,,,,,,,,,,,,,,,,,,,,,,,,,0,0,0,0,21,0,21,0,,,,,,,,,,,,,,,,,,,,,,,,,,,,0,738,,,,866.2639458221383,866.7644572241697,174,S,triangle,0.016729849856346846,,,,,,,,1,0,,2,,,,,,,,,,862.0236160231289,862.0236160231289,862.0236160231289,862.0236160231289,863.4965195420664,863.4965195420664,863.4965195420664,863.4965195420664,863.5297422560398,863.5297422560398,863.5297422560398,863.5297422560398,repeat,letter,lettRpt,k,1.2354432467836887,vtsPrac,864.7636677550618,866.2639458221383,,,,,,,,,,,,,,,,,,,,,,,,47028,2022-11-21_13h41.36.667,vts_reward_expectancy_bt_OFFLINE,2022.2.4,59.913098478764574,
,,,,,,,,,,,,,,,,,,,,,,,,,,,,,,,,,,0,0,0,0,22,0,22,0,,,,,,,,,,,,,,,,,,,,,,,,,,,,0,738,,,,871.0007904721424,871.5012933530379,139,W,star,0.014736481942236423,,,,,,,,1,0,,2,,,,,,,,,,867.2774213480297,867.2774213480297,867.2774213480297,867.2774213480297,868.7501309281215,868.7501309281215,868.7501309281215,868.7501309281215,868.7835197329987,868.7835197329987,868.7835197329987,868.7835197329987,switch,number,numSwt,d,0.7189472138416022,vtsPrac,869.5005360140931,871.0007904721424,,,,,,,,,,,,,,,,,,,,,,,,47028,2022-11-21_13h41.36.667,vts_reward_expectancy_bt_OFFLINE,2022.2.4,59.913098478764574,
,,,,,,,,,,,,,,,,,,,,,,,,,,,,,,,,,,0,0,0,0,23,0,23,0,,,,,,,,,,,,,,,,,,,,,,,,,,,,0,738,,,,877.1214097619522,,160,F,triangle,0.014790533110499382,,,,,,,,1,0,,2,,,,,,,,,,872.0139477411285,872.0139477411285,872.0139477411285,872.0139477411285,873.4871347411536,873.4871347411536,873.4871347411536,873.4871347411536,873.5205033961684,873.5205033961684,873.5205033961684,873.5205033961684,repeat,number,numRpt,f,2.0907860840670764,vtsPrac,875.6062931669876,,,,,,,,,,,,,,,,,,,,,,,,,47028,2022-11-21_13h41.36.667,vts_reward_expectancy_bt_OFFLINE,2022.2.4,59.913098478764574,
,,,,,,,,,,,,,,,,,,,,,,,,,,,,,,,,,,0,0,0,0,24,0,24,0,,,,,,,,,,,,,,,,,,,,,,,,,,,,0,738,,,,882.4420316419564,,139,F,circle,0.001950365025550127,,,,,,,,1,0,,2,,,,,,,,,,878.1016092039645,878.1016092039645,878.1016092039645,878.1016092039645,879.5909081401769,879.5909081401769,879.5909081401769,879.5909081401769,879.6078519530129,879.6078519530129,879.6078519530129,879.6078519530129,switch,letter,lettSwt,j,1.309092961717397,vtsPrac,880.9265326140448,,,,,,,,,,,,,,,,,,,,,,,,,47028,2022-11-21_13h41.36.667,vts_reward_expectancy_bt_OFFLINE,2022.2.4,59.913098478764574,
