LTriangleOpac,LCircleOpac,LHexagonOpac,LStarOpac,RTriangleOpac,RCircleOpac,RHexagonOpac,RStarOpac,LShape_ID,RShape_ID,training_blocks.thisRepN,training_blocks.thisTrialN,training_blocks.thisN,training_blocks.thisIndex,training.thisRepN,training.thisTrialN,training.thisN,training.thisIndex,task1_prac_redo.thisRepN,task1_prac_redo.thisTrialN,task1_prac_redo.thisN,task1_prac_redo.thisIndex,task1_prac_trials.thisRepN,task1_prac_trials.thisTrialN,task1_prac_trials.thisN,task1_prac_trials.thisIndex,task2_prac_redo.thisRepN,task2_prac_redo.thisTrialN,task2_prac_redo.thisN,task2_prac_redo.thisIndex,task2_praac_trials.thisRepN,task2_praac_trials.thisTrialN,task2_praac_trials.thisN,task2_praac_trials.thisIndex,vts_prac_redo.thisRepN,vts_prac_redo.thisTrialN,vts_prac_redo.thisN,vts_prac_redo.thisIndex,vts_practice_trials.thisRepN,vts_practice_trials.thisTrialN,vts_practice_trials.thisN,vts_practice_trials.thisIndex,trials_norew.thisRepN,trials_norew.thisTrialN,trials_norew.thisN,trials_norew.thisIndex,block.thisRepN,block.thisTrialN,block.thisN,block.thisIndex,trials_rew.thisRepN,trials_rew.thisTrialN,trials_rew.thisN,trials_rew.thisIndex,key_resp.started,key_resp.keys,key_resp.rt,left_circle.started,right_circle.started,left_triangle.started,right_triangle.started,left_star.started,right_star.started,left_hexagon.started,right_hexagon.started,training_fix.started,training_resp.started,training_resp.keys,training_resp.rt,points_trial,points_cumul,trainBlock,training_feedback_txt.started,fix.started,training_feedback_txt.stopped,fix.stopped,curr_topStim,curr_bottStim,curr_shape,ISI.started,tgt_fix_prac1.started,top_target_prac1.started,bott_target_prac1.started,target_resp_prac1.started,acc,E1,target_resp_prac1.keys,target_resp_prac1.rt,pracBlock,prac_fback_text.started,prac_fback_text.stopped,top_target_prac1.stopped,bott_target_prac1.stopped,target_resp_prac1.stopped,tgt_fix_prac2.started,top_target_prac2.started,bott_target_prac2.started,target_resp_prac2.started,target_resp_prac2.keys,target_resp_prac2.rt,star.started,hegagon.started,triangle.started,circle.started,top_target.started,tgt_fix.started,bot_target.started,target_resp.started,star.stopped,hegagon.stopped,triangle.stopped,circle.stopped,alt,task,condition,target_resp.keys,target_resp.rt,rewCond,vts_fback.started,vts_fback.stopped,blockNum,norew_fback.started,norew_fback.stopped,key_resp_2.keys,key_resp_2.rt,rewExpectancy,feedbk_text.started,feedbk_text.stopped,text_3.started,debrief.started,text_3.stopped,button.started,debrief.index,debrief.itemText,debrief.type,debrief.granularity,debrief.font,debrief.markerColor,debrief.response,debrief.rt,button.numClicks,button.timesOn,button.timesOff,participant,date,expName,psychopyVersion,frameRate,
,,,,,,,,,,,,,,,,,,,,,,,,,,,,,,,,,,,,,,,,,,,,,,,,,,,,,,13.741054724901915,space,27.310090804006904,,,,,,,,,,,,,,,,,,,,,,,,,,,,,,,,,,,,,,,,,,,,,,,,,,,,,,,,,,,,,,,,,,,,,,,,,,,,,,,,,,,,,,,49664,2022-11-29_14h00.37.434,vts_reward_expectancy_bt_OFFLINE,2022.2.4,59.68464577547526,
0,0,1,0,1,0,0,0,hexagon,triangle,0,0,0,0,0,0,0,6,,,,,,,,,,,,,,,,,,,,,,,,,,,,,,,,,,,,,,,,58.958853533957154,58.958853533957154,58.958853533957154,58.958853533957154,58.958853533957154,58.958853533957154,58.958853533957154,58.958853533957154,58.958853533957154,58.958853533957154,a,3.738943748641759,10,10,0,62.719019195996225,64.23445625603199,,,,,,,,,,,,,,,,,,,,,,,,,,,,,,,,,,,,,,,,,,,,,,,,,,,,,,,,,,,,,,,,,,,,,,49664,2022-11-29_14h00.37.434,vts_reward_expectancy_bt_OFFLINE,2022.2.4,59.68464577547526,
1,0,0,0,0,1,0,0,triangle,circle,0,0,0,0,0,1,1,0,,,,,,,,,,,,,,,,,,,,,,,,,,,,,,,,,,,,,,,,64.7345344289206,64.7345344289206,64.7345344289206,64.7345344289206,64.7345344289206,64.7345344289206,64.7345344289206,64.7345344289206,64.7345344289206,64.7345344289206,l,2.7212709318846464,10,20,0,67.48616918502375,68.98690409585834,68.98690409585834,69.48690458992496,,,,,,,,,,,,,,,,,,,,,,,,,,,,,,,,,,,,,,,,,,,,,,,,,,,,,,,,,,,,,,,,,,,,49664,2022-11-29_14h00.37.434,vts_reward_expectancy_bt_OFFLINE,2022.2.4,59.68464577547526,
0,0,0,1,0,0,1,0,star,hexagon,0,0,0,0,0,2,2,11,,,,,,,,,,,,,,,,,,,,,,,,,,,,,,,,,,,,,,,,69.48690458992496,69.48690458992496,69.48690458992496,69.48690458992496,69.48690458992496,69.48690458992496,69.48690458992496,69.48690458992496,69.48690458992496,69.48690458992496,l,1.5473498068749905,1,21,0,71.05587579403073,72.55736734624952,,,,,,,,,,,,,,,,,,,,,,,,,,,,,,,,,,,,,,,,,,,,,,,,,,,,,,,,,,,,,,,,,,,,,,49664,2022-11-29_14h00.37.434,vts_reward_expectancy_bt_OFFLINE,2022.2.4,59.68464577547526,
1,0,0,0,0,0,0,1,triangle,star,0,0,0,0,0,3,3,2,,,,,,,,,,,,,,,,,,,,,,,,,,,,,,,,,,,,,,,,73.05765701830387,73.05765701830387,73.05765701830387,73.05765701830387,73.05765701830387,73.05765701830387,73.05765701830387,73.05765701830387,73.05765701830387,73.05765701830387,a,0.7660557348281145,1,22,0,73.84126231819391,75.34216251922771,75.34216251922771,75.84197906218469,,,,,,,,,,,,,,,,,,,,,,,,,,,,,,,,,,,,,,,,,,,,,,,,,,,,,,,,,,,,,,,,,,,,49664,2022-11-29_14h00.37.434,vts_reward_expectancy_bt_OFFLINE,2022.2.4,59.68464577547526,
0,0,1,0,0,1,0,0,hexagon,circle,0,0,0,0,0,4,4,7,,,,,,,,,,,,,,,,,,,,,,,,,,,,,,,,,,,,,,,,75.84197906218469,75.84197906218469,75.84197906218469,75.84197906218469,75.84197906218469,75.84197906218469,75.84197906218469,75.84197906218469,75.84197906218469,75.84197906218469,a,2.4371157721616328,1,23,0,78.31187008600682,79.81227085413411,79.81227085413411,80.31245811423287,,,,,,,,,,,,,,,,,,,,,,,,,,,,,,,,,,,,,,,,,,,,,,,,,,,,,,,,,,,,,,,,,,,,49664,2022-11-29_14h00.37.434,vts_reward_expectancy_bt_OFFLINE,2022.2.4,59.68464577547526,
0,0,0,1,1,0,0,0,star,triangle,0,0,0,0,0,5,5,9,,,,,,,,,,,,,,,,,,,,,,,,,,,,,,,,,,,,,,,,80.31245811423287,80.31245811423287,80.31245811423287,80.31245811423287,80.31245811423287,80.31245811423287,80.31245811423287,80.31245811423287,80.31245811423287,80.31245811423287,a,1.4880082202143967,1,24,0,81.83036394184455,83.33100855490193,83.33100855490193,83.83111378597096,,,,,,,,,,,,,,,,,,,,,,,,,,,,,,,,,,,,,,,,,,,,,,,,,,,,,,,,,,,,,,,,,,,,49664,2022-11-29_14h00.37.434,vts_reward_expectancy_bt_OFFLINE,2022.2.4,59.68464577547526,
0,0,0,1,0,1,0,0,star ,circle,0,0,0,0,0,6,6,10,,,,,,,,,,,,,,,,,,,,,,,,,,,,,,,,,,,,,,,,83.83111378597096,83.83111378597096,83.83111378597096,83.83111378597096,83.83111378597096,83.83111378597096,83.83111378597096,83.83111378597096,83.83111378597096,83.83111378597096,l,0.9729863591492176,10,34,0,84.8327454822138,86.33425021497533,,,,,,,,,,,,,,,,,,,,,,,,,,,,,,,,,,,,,,,,,,,,,,,,,,,,,,,,,,,,,,,,,,,,,,49664,2022-11-29_14h00.37.434,vts_reward_expectancy_bt_OFFLINE,2022.2.4,59.68464577547526,
0,1,0,0,0,0,1,0,circle,hexagon,0,0,0,0,0,7,7,4,,,,,,,,,,,,,,,,,,,,,,,,,,,,,,,,,,,,,,,,86.83464105287567,86.83464105287567,86.83464105287567,86.83464105287567,86.83464105287567,86.83464105287567,86.83464105287567,86.83464105287567,86.83464105287567,86.83464105287567,a,1.3784650908783078,10,44,0,88.23539598705247,89.73575526708737,89.73575526708737,90.23578080208972,,,,,,,,,,,,,,,,,,,,,,,,,,,,,,,,,,,,,,,,,,,,,,,,,,,,,,,,,,,,,,,,,,,,49664,2022-11-29_14h00.37.434,vts_reward_expectancy_bt_OFFLINE,2022.2.4,59.68464577547526,
0,0,1,0,0,0,0,1,hexagon,star,0,0,0,0,0,8,8,8,,,,,,,,,,,,,,,,,,,,,,,,,,,,,,,,,,,,,,,,90.23578080208972,90.23578080208972,90.23578080208972,90.23578080208972,90.23578080208972,90.23578080208972,90.23578080208972,90.23578080208972,90.23578080208972,90.23578080208972,l,0.7118830783292651,1,45,0,90.97047527926043,92.47197782015428,,,,,,,,,,,,,,,,,,,,,,,,,,,,,,,,,,,,,,,,,,,,,,,,,,,,,,,,,,,,,,,,,,,,,,49664,2022-11-29_14h00.37.434,vts_reward_expectancy_bt_OFFLINE,2022.2.4,59.68464577547526,
0,1,0,0,1,0,0,0,circle,triangle,0,0,0,0,0,9,9,3,,,,,,,,,,,,,,,,,,,,,,,,,,,,,,,,,,,,,,,,92.97198606701568,92.97198606701568,92.97198606701568,92.97198606701568,92.97198606701568,92.97198606701568,92.97198606701568,92.97198606701568,92.97198606701568,92.97198606701568,l,1.3619364942424,1,46,0,94.35622224025428,95.85677991900593,95.85677991900593,,,,,,,,,,,,,,,,,,,,,,,,,,,,,,,,,,,,,,,,,,,,,,,,,,,,,,,,,,,,,,,,,,,,,49664,2022-11-29_14h00.37.434,vts_reward_expectancy_bt_OFFLINE,2022.2.4,59.68464577547526,
0,1,0,0,0,0,0,1,circle,star,0,0,0,0,0,10,10,5,,,,,,,,,,,,,,,,,,,,,,,,,,,,,,,,,,,,,,,,96.35768576990813,96.35768576990813,96.35768576990813,96.35768576990813,96.35768576990813,96.35768576990813,96.35768576990813,96.35768576990813,96.35768576990813,96.35768576990813,a,1.4640106637962162,1,47,0,97.84226489020512,99.34305468806997,99.34305468806997,99.84318243293092,,,,,,,,,,,,,,,,,,,,,,,,,,,,,,,,,,,,,,,,,,,,,,,,,,,,,,,,,,,,,,,,,,,,49664,2022-11-29_14h00.37.434,vts_reward_expectancy_bt_OFFLINE,2022.2.4,59.68464577547526,
1,0,0,0,0,0,1,0,triangle,hexagon,0,0,0,0,0,11,11,1,,,,,,,,,,,,,,,,,,,,,,,,,,,,,,,,,,,,,,,,99.84318243293092,99.84318243293092,99.84318243293092,99.84318243293092,99.84318243293092,99.84318243293092,99.84318243293092,99.84318243293092,99.84318243293092,99.84318243293092,l,1.1057083052583039,10,57,0,100.97771770693362,102.47929805703461,,,,,,,,,,,,,,,,,,,,,,,,,,,,,,,,,,,,,,,,,,,,,,,,,,,,,,,,,,,,,,,,,,,,,,49664,2022-11-29_14h00.37.434,vts_reward_expectancy_bt_OFFLINE,2022.2.4,59.68464577547526,
0,1,0,0,0,0,0,1,circle,star,0,0,0,0,1,0,12,5,,,,,,,,,,,,,,,,,,,,,,,,,,,,,,,,,,,,,,,,102.97941485606134,102.97941485606134,102.97941485606134,102.97941485606134,102.97941485606134,102.97941485606134,102.97941485606134,102.97941485606134,102.97941485606134,102.97941485606134,l,2.930914693046361,10,67,0,105.9302721330896,107.4332938180305,,,,,,,,,,,,,,,,,,,,,,,,,,,,,,,,,,,,,,,,,,,,,,,,,,,,,,,,,,,,,,,,,,,,,,49664,2022-11-29_14h00.37.434,vts_reward_expectancy_bt_OFFLINE,2022.2.4,59.68464577547526,
0,0,0,1,0,1,0,0,star ,circle,0,0,0,0,1,1,13,10,,,,,,,,,,,,,,,,,,,,,,,,,,,,,,,,,,,,,,,,107.93326272722334,107.93326272722334,107.93326272722334,107.93326272722334,107.93326272722334,107.93326272722334,107.93326272722334,107.93326272722334,107.93326272722334,107.93326272722334,a,3.44586982158944,10,77,0,111.4022716442123,112.90241732588038,112.90241732588038,113.4026806531474,,,,,,,,,,,,,,,,,,,,,,,,,,,,,,,,,,,,,,,,,,,,,,,,,,,,,,,,,,,,,,,,,,,,49664,2022-11-29_14h00.37.434,vts_reward_expectancy_bt_OFFLINE,2022.2.4,59.68464577547526,
0,0,1,0,0,0,0,1,hexagon,star,0,0,0,0,1,2,14,8,,,,,,,,,,,,,,,,,,,,,,,,,,,,,,,,,,,,,,,,113.4026806531474,113.4026806531474,113.4026806531474,113.4026806531474,113.4026806531474,113.4026806531474,113.4026806531474,113.4026806531474,113.4026806531474,113.4026806531474,a,1.1711505772545934,1,78,0,114.60489016119391,116.10375216696411,116.10375216696411,,,,,,,,,,,,,,,,,,,,,,,,,,,,,,,,,,,,,,,,,,,,,,,,,,,,,,,,,,,,,,,,,,,,,49664,2022-11-29_14h00.37.434,vts_reward_expectancy_bt_OFFLINE,2022.2.4,59.68464577547526,
1,0,0,0,0,1,0,0,triangle,circle,0,0,0,0,1,3,15,0,,,,,,,,,,,,,,,,,,,,,,,,,,,,,,,,,,,,,,,,116.60668668802828,116.60668668802828,116.60668668802828,116.60668668802828,116.60668668802828,116.60668668802828,116.60668668802828,116.60668668802828,116.60668668802828,116.60668668802828,a,1.4892069171182811,10,88,0,118.12469775322825,119.6232481598854,119.6232481598854,120.12359336810187,,,,,,,,,,,,,,,,,,,,,,,,,,,,,,,,,,,,,,,,,,,,,,,,,,,,,,,,,,,,,,,,,,,,49664,2022-11-29_14h00.37.434,vts_reward_expectancy_bt_OFFLINE,2022.2.4,59.68464577547526,
0,0,1,0,0,1,0,0,hexagon,circle,0,0,0,0,1,4,16,7,,,,,,,,,,,,,,,,,,,,,,,,,,,,,,,,,,,,,,,,120.12359336810187,120.12359336810187,120.12359336810187,120.12359336810187,120.12359336810187,120.12359336810187,120.12359336810187,120.12359336810187,120.12359336810187,120.12359336810187,a,0.9303040010854602,1,89,0,121.07508663414046,122.57752823503688,,,,,,,,,,,,,,,,,,,,,,,,,,,,,,,,,,,,,,,,,,,,,,,,,,,,,,,,,,,,,,,,,,,,,,49664,2022-11-29_14h00.37.434,vts_reward_expectancy_bt_OFFLINE,2022.2.4,59.68464577547526,
0,1,0,0,0,0,1,0,circle,hexagon,0,0,0,0,1,5,17,4,,,,,,,,,,,,,,,,,,,,,,,,,,,,,,,,,,,,,,,,123.07767934026197,123.07767934026197,123.07767934026197,123.07767934026197,123.07767934026197,123.07767934026197,123.07767934026197,123.07767934026197,123.07767934026197,123.07767934026197,l,0.4970435961149633,1,90,0,123.59443846903741,125.09474720805883,125.09474720805883,125.5949175870046,,,,,,,,,,,,,,,,,,,,,,,,,,,,,,,,,,,,,,,,,,,,,,,,,,,,,,,,,,,,,,,,,,,,49664,2022-11-29_14h00.37.434,vts_reward_expectancy_bt_OFFLINE,2022.2.4,59.68464577547526,
1,0,0,0,0,0,1,0,triangle,hexagon,0,0,0,0,1,6,18,1,,,,,,,,,,,,,,,,,,,,,,,,,,,,,,,,,,,,,,,,125.5949175870046,125.5949175870046,125.5949175870046,125.5949175870046,125.5949175870046,125.5949175870046,125.5949175870046,125.5949175870046,125.5949175870046,125.5949175870046,a,0.5899375290609896,1,91,0,126.21082933526486,127.71428058622405,,,,,,,,,,,,,,,,,,,,,,,,,,,,,,,,,,,,,,,,,,,,,,,,,,,,,,,,,,,,,,,,,,,,,,49664,2022-11-29_14h00.37.434,vts_reward_expectancy_bt_OFFLINE,2022.2.4,59.68464577547526,
0,0,0,1,1,0,0,0,star,triangle,0,0,0,0,1,7,19,9,,,,,,,,,,,,,,,,,,,,,,,,,,,,,,,,,,,,,,,,128.21437856927514,128.21437856927514,128.21437856927514,128.21437856927514,128.21437856927514,128.21437856927514,128.21437856927514,128.21437856927514,128.21437856927514,128.21437856927514,l,0.3555056690238416,10,101,0,128.59852934023365,130.09840251225978,130.09840251225978,,,,,,,,,,,,,,,,,,,,,,,,,,,,,,,,,,,,,,,,,,,,,,,,,,,,,,,,,,,,,,,,,,,,,49664,2022-11-29_14h00.37.434,vts_reward_expectancy_bt_OFFLINE,2022.2.4,59.68464577547526,
0,1,0,0,1,0,0,0,circle,triangle,0,0,0,0,1,8,20,3,,,,,,,,,,,,,,,,,,,,,,,,,,,,,,,,,,,,,,,,130.59871812397614,130.59871812397614,130.59871812397614,130.59871812397614,130.59871812397614,130.59871812397614,130.59871812397614,130.59871812397614,130.59871812397614,130.59871812397614,l,0.28778033424168825,10,111,0,130.9152271412313,132.41691915411502,,,,,,,,,,,,,,,,,,,,,,,,,,,,,,,,,,,,,,,,,,,,,,,,,,,,,,,,,,,,,,,,,,,,,,49664,2022-11-29_14h00.37.434,vts_reward_expectancy_bt_OFFLINE,2022.2.4,59.68464577547526,
0,0,1,0,1,0,0,0,hexagon,triangle,0,0,0,0,1,9,21,6,,,,,,,,,,,,,,,,,,,,,,,,,,,,,,,,,,,,,,,,132.91702952887863,132.91702952887863,132.91702952887863,132.91702952887863,132.91702952887863,132.91702952887863,132.91702952887863,132.91702952887863,132.91702952887863,132.91702952887863,a,0.48960764799267054,10,121,0,133.43491738010198,134.93537651887164,134.93537651887164,135.43580274796113,,,,,,,,,,,,,,,,,,,,,,,,,,,,,,,,,,,,,,,,,,,,,,,,,,,,,,,,,,,,,,,,,,,,49664,2022-11-29_14h00.37.434,vts_reward_expectancy_bt_OFFLINE,2022.2.4,59.68464577547526,
1,0,0,0,0,0,0,1,triangle,star,0,0,0,0,1,10,22,2,,,,,,,,,,,,,,,,,,,,,,,,,,,,,,,,,,,,,,,,135.43580274796113,135.43580274796113,135.43580274796113,135.43580274796113,135.43580274796113,135.43580274796113,135.43580274796113,135.43580274796113,135.43580274796113,135.43580274796113,a,0.5590664218179882,1,122,0,136.01991949696094,137.52128320885822,,,,,,,,,,,,,,,,,,,,,,,,,,,,,,,,,,,,,,,,,,,,,,,,,,,,,,,,,,,,,,,,,,,,,,49664,2022-11-29_14h00.37.434,vts_reward_expectancy_bt_OFFLINE,2022.2.4,59.68464577547526,
0,0,0,1,0,0,1,0,star,hexagon,0,0,0,0,1,11,23,11,,,,,,,,,,,,,,,,,,,,,,,,,,,,,,,,,,,,,,,,138.02172657614574,138.02172657614574,138.02172657614574,138.02172657614574,138.02172657614574,138.02172657614574,138.02172657614574,138.02172657614574,138.02172657614574,138.02172657614574,l,0.6848044469952583,10,132,0,138.73765130527318,140.23823546804488,140.23823546804488,140.73835545405746,,,,,,,,,,,,,,,,,,,,,,,,,,,,,,,,,,,,,,,,,,,,,,,,,,,,,,,,,,,,,,,,,,,,49664,2022-11-29_14h00.37.434,vts_reward_expectancy_bt_OFFLINE,2022.2.4,59.68464577547526,
1,0,0,0,0,1,0,0,triangle,circle,0,0,0,0,2,0,24,0,,,,,,,,,,,,,,,,,,,,,,,,,,,,,,,,,,,,,,,,140.73835545405746,140.73835545405746,140.73835545405746,140.73835545405746,140.73835545405746,140.73835545405746,140.73835545405746,140.73835545405746,140.73835545405746,140.73835545405746,a,0.5667772968299687,1,133,0,141.33152448711917,142.84187866887078,,,,,,,,,,,,,,,,,,,,,,,,,,,,,,,,,,,,,,,,,,,,,,,,,,,,,,,,,,,,,,,,,,,,,,49664,2022-11-29_14h00.37.434,vts_reward_expectancy_bt_OFFLINE,2022.2.4,59.68464577547526,
0,1,0,0,0,0,1,0,circle,hexagon,0,0,0,0,2,1,25,4,,,,,,,,,,,,,,,,,,,,,,,,,,,,,,,,,,,,,,,,143.34209716692567,143.34209716692567,143.34209716692567,143.34209716692567,143.34209716692567,143.34209716692567,143.34209716692567,143.34209716692567,143.34209716692567,143.34209716692567,l,0.31365456664934754,10,143,0,143.67624029703438,145.17627875786275,145.17627875786275,,,,,,,,,,,,,,,,,,,,,,,,,,,,,,,,,,,,,,,,,,,,,,,,,,,,,,,,,,,,,,,,,,,,,49664,2022-11-29_14h00.37.434,vts_reward_expectancy_bt_OFFLINE,2022.2.4,59.68464577547526,
0,0,1,0,0,1,0,0,hexagon,circle,0,0,0,0,2,2,26,7,,,,,,,,,,,,,,,,,,,,,,,,,,,,,,,,,,,,,,,,145.69280202826485,145.69280202826485,145.69280202826485,145.69280202826485,145.69280202826485,145.69280202826485,145.69280202826485,145.69280202826485,145.69280202826485,145.69280202826485,l,0.3599877869710326,1,144,0,146.07766963122413,147.5779810049571,,,,,,,,,,,,,,,,,,,,,,,,,,,,,,,,,,,,,,,,,,,,,,,,,,,,,,,,,,,,,,,,,,,,,,49664,2022-11-29_14h00.37.434,vts_reward_expectancy_bt_OFFLINE,2022.2.4,59.68464577547526,
1,0,0,0,0,0,1,0,triangle,hexagon,0,0,0,0,2,3,27,1,,,,,,,,,,,,,,,,,,,,,,,,,,,,,,,,,,,,,,,,148.07813749322668,148.07813749322668,148.07813749322668,148.07813749322668,148.07813749322668,148.07813749322668,148.07813749322668,148.07813749322668,148.07813749322668,148.07813749322668,l,0.5623595998622477,10,154,0,148.66424777219072,150.16278609028086,,150.66305202804506,,,,,,,,,,,,,,,,,,,,,,,,,,,,,,,,,,,,,,,,,,,,,,,,,,,,,,,,,,,,,,,,,,,,49664,2022-11-29_14h00.37.434,vts_reward_expectancy_bt_OFFLINE,2022.2.4,59.68464577547526,
0,0,0,1,0,1,0,0,star ,circle,0,0,0,0,2,4,28,10,,,,,,,,,,,,,,,,,,,,,,,,,,,,,,,,,,,,,,,,150.66305202804506,150.66305202804506,150.66305202804506,150.66305202804506,150.66305202804506,150.66305202804506,150.66305202804506,150.66305202804506,150.66305202804506,150.66305202804506,l,0.43055726354941726,10,164,0,151.1131824660115,152.61589353112504,,,,,,,,,,,,,,,,,,,,,,,,,,,,,,,,,,,,,,,,,,,,,,,,,,,,,,,,,,,,,,,,,,,,,,49664,2022-11-29_14h00.37.434,vts_reward_expectancy_bt_OFFLINE,2022.2.4,59.68464577547526,
0,0,1,0,1,0,0,0,hexagon,triangle,0,0,0,0,2,5,29,6,,,,,,,,,,,,,,,,,,,,,,,,,,,,,,,,,,,,,,,,153.1160691510886,153.1160691510886,153.1160691510886,153.1160691510886,153.1160691510886,153.1160691510886,153.1160691510886,153.1160691510886,153.1160691510886,153.1160691510886,a,0.27156236208975315,10,174,0,153.4160994058475,154.91675370326266,154.91675370326266,155.4170458628796,,,,,,,,,,,,,,,,,,,,,,,,,,,,,,,,,,,,,,,,,,,,,,,,,,,,,,,,,,,,,,,,,,,,49664,2022-11-29_14h00.37.434,vts_reward_expectancy_bt_OFFLINE,2022.2.4,59.68464577547526,
0,1,0,0,1,0,0,0,circle,triangle,0,0,0,0,2,6,30,3,,,,,,,,,,,,,,,,,,,,,,,,,,,,,,,,,,,,,,,,155.4170458628796,155.4170458628796,155.4170458628796,155.4170458628796,155.4170458628796,155.4170458628796,155.4170458628796,155.4170458628796,155.4170458628796,155.4170458628796,l,0.4118256336078048,1,175,0,155.85122775100172,157.35269518615678,,,,,,,,,,,,,,,,,,,,,,,,,,,,,,,,,,,,,,,,,,,,,,,,,,,,,,,,,,,,,,,,,,,,,,49664,2022-11-29_14h00.37.434,vts_reward_expectancy_bt_OFFLINE,2022.2.4,59.68464577547526,
0,1,0,0,0,0,0,1,circle,star,0,0,0,0,2,7,31,5,,,,,,,,,,,,,,,,,,,,,,,,,,,,,,,,,,,,,,,,157.85285858018324,157.85285858018324,157.85285858018324,157.85285858018324,157.85285858018324,157.85285858018324,157.85285858018324,157.85285858018324,157.85285858018324,157.85285858018324,a,0.19274291768670082,1,176,0,158.06971376715228,159.5700724781491,159.5700724781491,160.07003273023292,,,,,,,,,,,,,,,,,,,,,,,,,,,,,,,,,,,,,,,,,,,,,,,,,,,,,,,,,,,,,,,,,,,,49664,2022-11-29_14h00.37.434,vts_reward_expectancy_bt_OFFLINE,2022.2.4,59.68464577547526,
0,0,0,1,1,0,0,0,star,triangle,0,0,0,0,2,8,32,9,,,,,,,,,,,,,,,,,,,,,,,,,,,,,,,,,,,,,,,,160.07003273023292,160.07003273023292,160.07003273023292,160.07003273023292,160.07003273023292,160.07003273023292,160.07003273023292,160.07003273023292,160.07003273023292,160.07003273023292,l,0.20292172813788056,1,177,0,160.30368588818237,161.80505480896682,,,,,,,,,,,,,,,,,,,,,,,,,,,,,,,,,,,,,,,,,,,,,,,,,,,,,,,,,,,,,,,,,,,,,,49664,2022-11-29_14h00.37.434,vts_reward_expectancy_bt_OFFLINE,2022.2.4,59.68464577547526,
0,0,0,1,0,0,1,0,star,hexagon,0,0,0,0,2,9,33,11,,,,,,,,,,,,,,,,,,,,,,,,,,,,,,,,,,,,,,,,162.30528028216213,162.30528028216213,162.30528028216213,162.30528028216213,162.30528028216213,162.30528028216213,162.30528028216213,162.30528028216213,162.30528028216213,162.30528028216213,l,0.2401169277727604,1,178,0,162.5730992523022,164.07378413015977,164.07378413015977,,,,,,,,,,,,,,,,,,,,,,,,,,,,,,,,,,,,,,,,,,,,,,,,,,,,,,,,,,,,,,,,,,,,,49664,2022-11-29_14h00.37.434,vts_reward_expectancy_bt_OFFLINE,2022.2.4,59.68464577547526,
0,0,1,0,0,0,0,1,hexagon,star,0,0,0,0,2,10,34,8,,,,,,,,,,,,,,,,,,,,,,,,,,,,,,,,,,,,,,,,164.59035001788288,164.59035001788288,164.59035001788288,164.59035001788288,164.59035001788288,164.59035001788288,164.59035001788288,164.59035001788288,164.59035001788288,164.59035001788288,l,0.2060961350798607,10,188,0,164.82489469088614,166.33374130818993,,,,,,,,,,,,,,,,,,,,,,,,,,,,,,,,,,,,,,,,,,,,,,,,,,,,,,,,,,,,,,,,,,,,,,49664,2022-11-29_14h00.37.434,vts_reward_expectancy_bt_OFFLINE,2022.2.4,59.68464577547526,
1,0,0,0,0,0,0,1,triangle,star,0,0,0,0,2,11,35,2,,,,,,,,,,,,,,,,,,,,,,,,,,,,,,,,,,,,,,,,166.82618635706604,166.82618635706604,166.82618635706604,166.82618635706604,166.82618635706604,166.82618635706604,166.82618635706604,166.82618635706604,166.82618635706604,166.82618635706604,a,0.09644504077732563,1,189,0,166.94399540591985,168.44268326601014,168.44268326601014,168.94287222716957,,,,,,,,,,,,,,,,,,,,,,,,,,,,,,,,,,,,,,,,,,,,,,,,,,,,,,,,,,,,,,,,,,,,49664,2022-11-29_14h00.37.434,vts_reward_expectancy_bt_OFFLINE,2022.2.4,59.68464577547526,
0,1,0,0,1,0,0,0,circle,triangle,0,0,0,0,3,0,36,3,,,,,,,,,,,,,,,,,,,,,,,,,,,,,,,,,,,,,,,,168.94287222716957,168.94287222716957,168.94287222716957,168.94287222716957,168.94287222716957,168.94287222716957,168.94287222716957,168.94287222716957,168.94287222716957,168.94287222716957,l,0.6905559450387955,1,190,0,169.66060150321573,171.161524545867,171.161524545867,,,,,,,,,,,,,,,,,,,,,,,,,,,,,,,,,,,,,,,,,,,,,,,,,,,,,,,,,,,,,,,,,,,,,49664,2022-11-29_14h00.37.434,vts_reward_expectancy_bt_OFFLINE,2022.2.4,59.68464577547526,
0,0,1,0,1,0,0,0,hexagon,triangle,0,0,0,0,3,1,37,6,,,,,,,,,,,,,,,,,,,,,,,,,,,,,,,,,,,,,,,,171.6622191448696,171.6622191448696,171.6622191448696,171.6622191448696,171.6622191448696,171.6622191448696,171.6622191448696,171.6622191448696,171.6622191448696,171.6622191448696,a,0.26642611157149076,1,191,0,171.94687077216804,173.44716558791697,173.44716558791697,173.9474429851398,,,,,,,,,,,,,,,,,,,,,,,,,,,,,,,,,,,,,,,,,,,,,,,,,,,,,,,,,,,,,,,,,,,,49664,2022-11-29_14h00.37.434,vts_reward_expectancy_bt_OFFLINE,2022.2.4,59.68464577547526,
0,0,1,0,0,1,0,0,hexagon,circle,0,0,0,0,3,2,38,7,,,,,,,,,,,,,,,,,,,,,,,,,,,,,,,,,,,,,,,,173.9474429851398,173.9474429851398,173.9474429851398,173.9474429851398,173.9474429851398,173.9474429851398,173.9474429851398,173.9474429851398,173.9474429851398,173.9474429851398,a,0.08470145286992192,10,201,0,174.0641715642996,175.56352180195972,175.56352180195972,176.06375961611047,,,,,,,,,,,,,,,,,,,,,,,,,,,,,,,,,,,,,,,,,,,,,,,,,,,,,,,,,,,,,,,,,,,,49664,2022-11-29_14h00.37.434,vts_reward_expectancy_bt_OFFLINE,2022.2.4,59.68464577547526,
0,0,0,1,0,1,0,0,star ,circle,0,0,0,0,3,3,39,10,,,,,,,,,,,,,,,,,,,,,,,,,,,,,,,,,,,,,,,,176.06375961611047,176.06375961611047,176.06375961611047,176.06375961611047,176.06375961611047,176.06375961611047,176.06375961611047,176.06375961611047,176.06375961611047,176.06375961611047,a,0.27510085981339216,10,211,0,176.35495473910123,177.86736116325483,,,,,,,,,,,,,,,,,,,,,,,,,,,,,,,,,,,,,,,,,,,,,,,,,,,,,,,,,,,,,,,,,,,,,,49664,2022-11-29_14h00.37.434,vts_reward_expectancy_bt_OFFLINE,2022.2.4,59.68464577547526,
0,0,0,1,1,0,0,0,star,triangle,0,0,0,0,3,4,40,9,,,,,,,,,,,,,,,,,,,,,,,,,,,,,,,,,,,,,,,,178.36768172495067,178.36768172495067,178.36768172495067,178.36768172495067,178.36768172495067,178.36768172495067,178.36768172495067,178.36768172495067,178.36768172495067,178.36768172495067,l,0.4242922510020435,10,221,0,178.8177710310556,180.31841491395608,180.31841491395608,,,,,,,,,,,,,,,,,,,,,,,,,,,,,,,,,,,,,,,,,,,,,,,,,,,,,,,,,,,,,,,,,,,,,49664,2022-11-29_14h00.37.434,vts_reward_expectancy_bt_OFFLINE,2022.2.4,59.68464577547526,
1,0,0,0,0,0,0,1,triangle,star,0,0,0,0,3,5,41,2,,,,,,,,,,,,,,,,,,,,,,,,,,,,,,,,,,,,,,,,180.81847631419078,180.81847631419078,180.81847631419078,180.81847631419078,180.81847631419078,180.81847631419078,180.81847631419078,180.81847631419078,180.81847631419078,180.81847631419078,l,0.2907513231039047,1,222,0,181.13724642107263,182.63770810421556,,,,,,,,,,,,,,,,,,,,,,,,,,,,,,,,,,,,,,,,,,,,,,,,,,,,,,,,,,,,,,,,,,,,,,49664,2022-11-29_14h00.37.434,vts_reward_expectancy_bt_OFFLINE,2022.2.4,59.68464577547526,
1,0,0,0,0,0,1,0,triangle,hexagon,0,0,0,0,3,6,42,1,,,,,,,,,,,,,,,,,,,,,,,,,,,,,,,,,,,,,,,,183.1380420802161,183.1380420802161,183.1380420802161,183.1380420802161,183.1380420802161,183.1380420802161,183.1380420802161,183.1380420802161,183.1380420802161,183.1380420802161,a,0.2770544970408082,10,232,0,183.43886493798345,184.9547207611613,,,,,,,,,,,,,,,,,,,,,,,,,,,,,,,,,,,,,,,,,,,,,,,,,,,,,,,,,,,,,,,,,,,,,,49664,2022-11-29_14h00.37.434,vts_reward_expectancy_bt_OFFLINE,2022.2.4,59.68464577547526,
0,0,1,0,0,0,0,1,hexagon,star,0,0,0,0,3,7,43,8,,,,,,,,,,,,,,,,,,,,,,,,,,,,,,,,,,,,,,,,185.4550144621171,185.4550144621171,185.4550144621171,185.4550144621171,185.4550144621171,185.4550144621171,185.4550144621171,185.4550144621171,185.4550144621171,185.4550144621171,a,0.35652899369597435,10,242,0,185.83868353487924,187.34093996603042,,,,,,,,,,,,,,,,,,,,,,,,,,,,,,,,,,,,,,,,,,,,,,,,,,,,,,,,,,,,,,,,,,,,,,49664,2022-11-29_14h00.37.434,vts_reward_expectancy_bt_OFFLINE,2022.2.4,59.68464577547526,
0,1,0,0,0,0,0,1,circle,star,0,0,0,0,3,8,44,5,,,,,,,,,,,,,,,,,,,,,,,,,,,,,,,,,,,,,,,,187.84115098929033,187.84115098929033,187.84115098929033,187.84115098929033,187.84115098929033,187.84115098929033,187.84115098929033,187.84115098929033,187.84115098929033,187.84115098929033,a,0.5251597911119461,10,252,0,188.39160560816526,189.89177659712732,189.89177659712732,190.39205376105383,,,,,,,,,,,,,,,,,,,,,,,,,,,,,,,,,,,,,,,,,,,,,,,,,,,,,,,,,,,,,,,,,,,,49664,2022-11-29_14h00.37.434,vts_reward_expectancy_bt_OFFLINE,2022.2.4,59.68464577547526,
1,0,0,0,0,1,0,0,triangle,circle,0,0,0,0,3,9,45,0,,,,,,,,,,,,,,,,,,,,,,,,,,,,,,,,,,,,,,,,190.39205376105383,190.39205376105383,190.39205376105383,190.39205376105383,190.39205376105383,190.39205376105383,190.39205376105383,190.39205376105383,190.39205376105383,190.39205376105383,a,1.2359633729793131,1,253,0,191.66137726604939,193.1617836439982,193.1617836439982,,,,,,,,,,,,,,,,,,,,,,,,,,,,,,,,,,,,,,,,,,,,,,,,,,,,,,,,,,,,,,,,,,,,,49664,2022-11-29_14h00.37.434,vts_reward_expectancy_bt_OFFLINE,2022.2.4,59.68464577547526,
0,0,0,1,0,0,1,0,star,hexagon,0,0,0,0,3,10,46,11,,,,,,,,,,,,,,,,,,,,,,,,,,,,,,,,,,,,,,,,193.66170753818005,193.66170753818005,193.66170753818005,193.66170753818005,193.66170753818005,193.66170753818005,193.66170753818005,193.66170753818005,193.66170753818005,193.66170753818005,a,0.6774809332564473,10,263,0,194.36451202398166,195.87845061998814,,,,,,,,,,,,,,,,,,,,,,,,,,,,,,,,,,,,,,,,,,,,,,,,,,,,,,,,,,,,,,,,,,,,,,49664,2022-11-29_14h00.37.434,vts_reward_expectancy_bt_OFFLINE,2022.2.4,59.68464577547526,
0,1,0,0,0,0,1,0,circle,hexagon,0,0,0,0,3,11,47,4,,,,,,,,,,,,,,,,,,,,,,,,,,,,,,,,,,,,,,,,196.36853457801044,196.36853457801044,196.36853457801044,196.36853457801044,196.36853457801044,196.36853457801044,196.36853457801044,196.36853457801044,196.36853457801044,196.36853457801044,l,0.3120439341291785,1,264,0,196.69931042799726,198.19774944800884,198.19774944800884,198.70592084387317,,,,,,,,,,,,,,,,,,,,,,,,,,,,,,,,,,,,,,,,,,,,,,,,,,,,,,,,,,,,,,,,,,,,49664,2022-11-29_14h00.37.434,vts_reward_expectancy_bt_OFFLINE,2022.2.4,59.68464577547526,
0,0,0,1,0,0,1,0,star,hexagon,1,0,1,0,0,0,0,11,,,,,,,,,,,,,,,,,,,,,,,,,,,,,,,,,,,,,,,,205.79640435799956,205.79640435799956,205.79640435799956,205.79640435799956,205.79640435799956,205.79640435799956,205.79640435799956,205.79640435799956,205.79640435799956,205.79640435799956,l,1.4028253061696887,1,265,1,207.22178214415908,208.72207261621952,208.72207261621952,209.22230918891728,,,,,,,,,,,,,,,,,,,,,,,,,,,,,,,,,,,,,,,,,,,,,,,,,,,,,,,,,,,,,,,,,,,,49664,2022-11-29_14h00.37.434,vts_reward_expectancy_bt_OFFLINE,2022.2.4,59.68464577547526,
0,1,0,0,0,0,1,0,circle,hexagon,1,0,1,0,0,1,1,4,,,,,,,,,,,,,,,,,,,,,,,,,,,,,,,,,,,,,,,,209.22230918891728,209.22230918891728,209.22230918891728,209.22230918891728,209.22230918891728,209.22230918891728,209.22230918891728,209.22230918891728,209.22230918891728,209.22230918891728,a,1.0482938350178301,10,275,1,210.29109225329012,211.7914176620543,,,,,,,,,,,,,,,,,,,,,,,,,,,,,,,,,,,,,,,,,,,,,,,,,,,,,,,,,,,,,,,,,,,,,,49664,2022-11-29_14h00.37.434,vts_reward_expectancy_bt_OFFLINE,2022.2.4,59.68464577547526,
0,0,0,1,1,0,0,0,star,triangle,1,0,1,0,0,2,2,9,,,,,,,,,,,,,,,,,,,,,,,,,,,,,,,,,,,,,,,,212.2915864130482,212.2915864130482,212.2915864130482,212.2915864130482,212.2915864130482,212.2915864130482,212.2915864130482,212.2915864130482,212.2915864130482,212.2915864130482,a,0.6117791458964348,10,285,1,212.9267863142304,214.4263383182697,214.4263383182697,214.92670163000003,,,,,,,,,,,,,,,,,,,,,,,,,,,,,,,,,,,,,,,,,,,,,,,,,,,,,,,,,,,,,,,,,,,,49664,2022-11-29_14h00.37.434,vts_reward_expectancy_bt_OFFLINE,2022.2.4,59.68464577547526,
0,1,0,0,0,0,0,1,circle,star,1,0,1,0,0,3,3,5,,,,,,,,,,,,,,,,,,,,,,,,,,,,,,,,,,,,,,,,214.92670163000003,214.92670163000003,214.92670163000003,214.92670163000003,214.92670163000003,214.92670163000003,214.92670163000003,214.92670163000003,214.92670163000003,214.92670163000003,l,0.6094182739034295,10,295,1,215.5605682041496,217.06269459519535,,,,,,,,,,,,,,,,,,,,,,,,,,,,,,,,,,,,,,,,,,,,,,,,,,,,,,,,,,,,,,,,,,,,,,49664,2022-11-29_14h00.37.434,vts_reward_expectancy_bt_OFFLINE,2022.2.4,59.68464577547526,
0,0,1,0,0,1,0,0,hexagon,circle,1,0,1,0,0,4,4,7,,,,,,,,,,,,,,,,,,,,,,,,,,,,,,,,,,,,,,,,217.56294567603618,217.56294567603618,217.56294567603618,217.56294567603618,217.56294567603618,217.56294567603618,217.56294567603618,217.56294567603618,217.56294567603618,217.56294567603618,a,1.5275174952112138,10,305,1,219.1137014720589,220.61423725588247,220.61423725588247,,,,,,,,,,,,,,,,,,,,,,,,,,,,,,,,,,,,,,,,,,,,,,,,,,,,,,,,,,,,,,,,,,,,,49664,2022-11-29_14h00.37.434,vts_reward_expectancy_bt_OFFLINE,2022.2.4,59.68464577547526,
0,1,0,0,1,0,0,0,circle,triangle,1,0,1,0,0,5,5,3,,,,,,,,,,,,,,,,,,,,,,,,,,,,,,,,,,,,,,,,221.11410449026152,221.11410449026152,221.11410449026152,221.11410449026152,221.11410449026152,221.11410449026152,221.11410449026152,221.11410449026152,221.11410449026152,221.11410449026152,a,1.0592148378491402,10,315,1,222.1988073908724,223.69941787794232,223.69941787794232,224.19940257584676,,,,,,,,,,,,,,,,,,,,,,,,,,,,,,,,,,,,,,,,,,,,,,,,,,,,,,,,,,,,,,,,,,,,49664,2022-11-29_14h00.37.434,vts_reward_expectancy_bt_OFFLINE,2022.2.4,59.68464577547526,
0,0,1,0,1,0,0,0,hexagon,triangle,1,0,1,0,0,6,6,6,,,,,,,,,,,,,,,,,,,,,,,,,,,,,,,,,,,,,,,,224.19940257584676,224.19940257584676,224.19940257584676,224.19940257584676,224.19940257584676,224.19940257584676,224.19940257584676,224.19940257584676,224.19940257584676,224.19940257584676,l,1.3041031835600734,1,316,1,225.53635417111218,227.0357693019323,,,,,,,,,,,,,,,,,,,,,,,,,,,,,,,,,,,,,,,,,,,,,,,,,,,,,,,,,,,,,,,,,,,,,,49664,2022-11-29_14h00.37.434,vts_reward_expectancy_bt_OFFLINE,2022.2.4,59.68464577547526,
0,0,1,0,0,0,0,1,hexagon,star,1,0,1,0,0,7,7,8,,,,,,,,,,,,,,,,,,,,,,,,,,,,,,,,,,,,,,,,227.53599517513067,227.53599517513067,227.53599517513067,227.53599517513067,227.53599517513067,227.53599517513067,227.53599517513067,227.53599517513067,227.53599517513067,227.53599517513067,l,0.8819220708683133,1,317,1,228.436400026083,229.93698785128072,229.93698785128072,230.43678254494444,,,,,,,,,,,,,,,,,,,,,,,,,,,,,,,,,,,,,,,,,,,,,,,,,,,,,,,,,,,,,,,,,,,,49664,2022-11-29_14h00.37.434,vts_reward_expectancy_bt_OFFLINE,2022.2.4,59.68464577547526,
1,0,0,0,0,1,0,0,triangle,circle,1,0,1,0,0,8,8,0,,,,,,,,,,,,,,,,,,,,,,,,,,,,,,,,,,,,,,,,230.43678254494444,230.43678254494444,230.43678254494444,230.43678254494444,230.43678254494444,230.43678254494444,230.43678254494444,230.43678254494444,230.43678254494444,230.43678254494444,l,1.030027068220079,10,327,1,231.50426001427695,233.00684269797057,,,,,,,,,,,,,,,,,,,,,,,,,,,,,,,,,,,,,,,,,,,,,,,,,,,,,,,,,,,,,,,,,,,,,,49664,2022-11-29_14h00.37.434,vts_reward_expectancy_bt_OFFLINE,2022.2.4,59.68464577547526,
0,0,0,1,0,1,0,0,star ,circle,1,0,1,0,0,9,9,10,,,,,,,,,,,,,,,,,,,,,,,,,,,,,,,,,,,,,,,,233.50741557823494,233.50741557823494,233.50741557823494,233.50741557823494,233.50741557823494,233.50741557823494,233.50741557823494,233.50741557823494,233.50741557823494,233.50741557823494,a,0.9298826800659299,10,337,1,234.45823967410251,235.9584825350903,235.9584825350903,,,,,,,,,,,,,,,,,,,,,,,,,,,,,,,,,,,,,,,,,,,,,,,,,,,,,,,,,,,,,,,,,,,,,49664,2022-11-29_14h00.37.434,vts_reward_expectancy_bt_OFFLINE,2022.2.4,59.68464577547526,
1,0,0,0,0,0,0,1,triangle,star,1,0,1,0,0,10,10,2,,,,,,,,,,,,,,,,,,,,,,,,,,,,,,,,,,,,,,,,236.46053390204906,236.46053390204906,236.46053390204906,236.46053390204906,236.46053390204906,236.46053390204906,236.46053390204906,236.46053390204906,236.46053390204906,236.46053390204906,l,2.430833903606981,10,347,1,238.9115738621913,240.4120686268434,240.4120686268434,240.9121430418454,,,,,,,,,,,,,,,,,,,,,,,,,,,,,,,,,,,,,,,,,,,,,,,,,,,,,,,,,,,,,,,,,,,,49664,2022-11-29_14h00.37.434,vts_reward_expectancy_bt_OFFLINE,2022.2.4,59.68464577547526,
1,0,0,0,0,0,1,0,triangle,hexagon,1,0,1,0,0,11,11,1,,,,,,,,,,,,,,,,,,,,,,,,,,,,,,,,,,,,,,,,240.9121430418454,240.9121430418454,240.9121430418454,240.9121430418454,240.9121430418454,240.9121430418454,240.9121430418454,240.9121430418454,240.9121430418454,240.9121430418454,l,2.041544971987605,1,348,1,242.98296307213604,244.49826928321272,,,,,,,,,,,,,,,,,,,,,,,,,,,,,,,,,,,,,,,,,,,,,,,,,,,,,,,,,,,,,,,,,,,,,,49664,2022-11-29_14h00.37.434,vts_reward_expectancy_bt_OFFLINE,2022.2.4,59.68464577547526,
0,0,1,0,0,1,0,0,hexagon,circle,1,0,1,0,1,0,12,7,,,,,,,,,,,,,,,,,,,,,,,,,,,,,,,,,,,,,,,,244.9986590682529,244.9986590682529,244.9986590682529,244.9986590682529,244.9986590682529,244.9986590682529,244.9986590682529,244.9986590682529,244.9986590682529,244.9986590682529,a,0.5190611281432211,10,358,1,245.55143169686198,247.0502472119406,,,,,,,,,,,,,,,,,,,,,,,,,,,,,,,,,,,,,,,,,,,,,,,,,,,,,,,,,,,,,,,,,,,,,,49664,2022-11-29_14h00.37.434,vts_reward_expectancy_bt_OFFLINE,2022.2.4,59.68464577547526,
0,1,0,0,0,0,1,0,circle,hexagon,1,0,1,0,1,1,13,4,,,,,,,,,,,,,,,,,,,,,,,,,,,,,,,,,,,,,,,,247.5505395969376,247.5505395969376,247.5505395969376,247.5505395969376,247.5505395969376,247.5505395969376,247.5505395969376,247.5505395969376,247.5505395969376,247.5505395969376,a,0.6796477907337248,1,359,1,248.2529773390852,249.751472807955,249.751472807955,250.25127619784325,,,,,,,,,,,,,,,,,,,,,,,,,,,,,,,,,,,,,,,,,,,,,,,,,,,,,,,,,,,,,,,,,,,,49664,2022-11-29_14h00.37.434,vts_reward_expectancy_bt_OFFLINE,2022.2.4,59.68464577547526,
0,0,0,1,0,0,1,0,star,hexagon,1,0,1,0,1,2,14,11,,,,,,,,,,,,,,,,,,,,,,,,,,,,,,,,,,,,,,,,250.25127619784325,250.25127619784325,250.25127619784325,250.25127619784325,250.25127619784325,250.25127619784325,250.25127619784325,250.25127619784325,250.25127619784325,250.25127619784325,a,1.004994300659746,10,369,1,251.28851454891264,252.78880189917982,,,,,,,,,,,,,,,,,,,,,,,,,,,,,,,,,,,,,,,,,,,,,,,,,,,,,,,,,,,,,,,,,,,,,,49664,2022-11-29_14h00.37.434,vts_reward_expectancy_bt_OFFLINE,2022.2.4,59.68464577547526,
0,0,1,0,0,0,0,1,hexagon,star,1,0,1,0,1,3,15,8,,,,,,,,,,,,,,,,,,,,,,,,,,,,,,,,,,,,,,,,253.28887907322496,253.28887907322496,253.28887907322496,253.28887907322496,253.28887907322496,253.28887907322496,253.28887907322496,253.28887907322496,253.28887907322496,253.28887907322496,l,0.3295919927768409,1,370,1,253.6398227699101,255.15588615927845,,,,,,,,,,,,,,,,,,,,,,,,,,,,,,,,,,,,,,,,,,,,,,,,,,,,,,,,,,,,,,,,,,,,,,49664,2022-11-29_14h00.37.434,vts_reward_expectancy_bt_OFFLINE,2022.2.4,59.68464577547526,
1,0,0,0,0,0,0,1,triangle,star,1,0,1,0,1,4,16,2,,,,,,,,,,,,,,,,,,,,,,,,,,,,,,,,,,,,,,,,255.63974001305178,255.63974001305178,255.63974001305178,255.63974001305178,255.63974001305178,255.63974001305178,255.63974001305178,255.63974001305178,255.63974001305178,255.63974001305178,a,0.2179185221903026,10,380,1,255.88995337905362,257.39192279288545,,,,,,,,,,,,,,,,,,,,,,,,,,,,,,,,,,,,,,,,,,,,,,,,,,,,,,,,,,,,,,,,,,,,,,49664,2022-11-29_14h00.37.434,vts_reward_expectancy_bt_OFFLINE,2022.2.4,59.68464577547526,
0,0,0,1,0,1,0,0,star ,circle,1,0,1,0,1,5,17,10,,,,,,,,,,,,,,,,,,,,,,,,,,,,,,,,,,,,,,,,257.89221087424085,257.89221087424085,257.89221087424085,257.89221087424085,257.89221087424085,257.89221087424085,257.89221087424085,257.89221087424085,257.89221087424085,257.89221087424085,a,1.239766817074269,10,390,1,259.1584102069028,260.65885935910046,260.65885935910046,,,,,,,,,,,,,,,,,,,,,,,,,,,,,,,,,,,,,,,,,,,,,,,,,,,,,,,,,,,,,,,,,,,,,49664,2022-11-29_14h00.37.434,vts_reward_expectancy_bt_OFFLINE,2022.2.4,59.68464577547526,
0,0,0,1,1,0,0,0,star,triangle,1,0,1,0,1,6,18,9,,,,,,,,,,,,,,,,,,,,,,,,,,,,,,,,,,,,,,,,261.15887463325635,261.15887463325635,261.15887463325635,261.15887463325635,261.15887463325635,261.15887463325635,261.15887463325635,261.15887463325635,261.15887463325635,261.15887463325635,l,1.021262840833515,1,391,1,262.21227530017495,263.71280364505947,263.71280364505947,264.2129714251496,,,,,,,,,,,,,,,,,,,,,,,,,,,,,,,,,,,,,,,,,,,,,,,,,,,,,,,,,,,,,,,,,,,,49664,2022-11-29_14h00.37.434,vts_reward_expectancy_bt_OFFLINE,2022.2.4,59.68464577547526,
0,0,1,0,1,0,0,0,hexagon,triangle,1,0,1,0,1,7,19,6,,,,,,,,,,,,,,,,,,,,,,,,,,,,,,,,,,,,,,,,264.2129714251496,264.2129714251496,264.2129714251496,264.2129714251496,264.2129714251496,264.2129714251496,264.2129714251496,264.2129714251496,264.2129714251496,264.2129714251496,a,0.5214131488464773,1,392,1,264.76368376100436,266.26373895211145,266.26373895211145,,,,,,,,,,,,,,,,,,,,,,,,,,,,,,,,,,,,,,,,,,,,,,,,,,,,,,,,,,,,,,,,,,,,,49664,2022-11-29_14h00.37.434,vts_reward_expectancy_bt_OFFLINE,2022.2.4,59.68464577547526,
1,0,0,0,0,0,1,0,triangle,hexagon,1,0,1,0,1,8,20,1,,,,,,,,,,,,,,,,,,,,,,,,,,,,,,,,,,,,,,,,266.7647224320099,266.7647224320099,266.7647224320099,266.7647224320099,266.7647224320099,266.7647224320099,266.7647224320099,266.7647224320099,266.7647224320099,266.7647224320099,l,0.2533768671564758,10,402,1,267.05132979899645,268.56549300812185,,,,,,,,,,,,,,,,,,,,,,,,,,,,,,,,,,,,,,,,,,,,,,,,,,,,,,,,,,,,,,,,,,,,,,49664,2022-11-29_14h00.37.434,vts_reward_expectancy_bt_OFFLINE,2022.2.4,59.68464577547526,
0,1,0,0,0,0,0,1,circle,star,1,0,1,0,1,9,21,5,,,,,,,,,,,,,,,,,,,,,,,,,,,,,,,,,,,,,,,,269.0496822600253,269.0496822600253,269.0496822600253,269.0496822600253,269.0496822600253,269.0496822600253,269.0496822600253,269.0496822600253,269.0496822600253,269.0496822600253,a,3.9982166467234492,1,403,1,273.07241905713454,274.5858372589573,,,,,,,,,,,,,,,,,,,,,,,,,,,,,,,,,,,,,,,,,,,,,,,,,,,,,,,,,,,,,,,,,,,,,,49664,2022-11-29_14h00.37.434,vts_reward_expectancy_bt_OFFLINE,2022.2.4,59.68464577547526,
0,1,0,0,1,0,0,0,circle,triangle,1,0,1,0,1,10,22,3,,,,,,,,,,,,,,,,,,,,,,,,,,,,,,,,,,,,,,,,275.0862225499004,275.0862225499004,275.0862225499004,275.0862225499004,275.0862225499004,275.0862225499004,275.0862225499004,275.0862225499004,275.0862225499004,275.0862225499004,l,0.48211453994736075,1,404,1,275.58670322597027,277.0898867631331,,,,,,,,,,,,,,,,,,,,,,,,,,,,,,,,,,,,,,,,,,,,,,,,,,,,,,,,,,,,,,,,,,,,,,49664,2022-11-29_14h00.37.434,vts_reward_expectancy_bt_OFFLINE,2022.2.4,59.68464577547526,
1,0,0,0,0,1,0,0,triangle,circle,1,0,1,0,1,11,23,0,,,,,,,,,,,,,,,,,,,,,,,,,,,,,,,,,,,,,,,,277.59018460288644,277.59018460288644,277.59018460288644,277.59018460288644,277.59018460288644,277.59018460288644,277.59018460288644,277.59018460288644,277.59018460288644,277.59018460288644,a,0.23967254301533103,10,414,1,277.8586919400841,279.37304133409634,,,,,,,,,,,,,,,,,,,,,,,,,,,,,,,,,,,,,,,,,,,,,,,,,,,,,,,,,,,,,,,,,,,,,,49664,2022-11-29_14h00.37.434,vts_reward_expectancy_bt_OFFLINE,2022.2.4,59.68464577547526,
0,1,0,0,1,0,0,0,circle,triangle,1,0,1,0,2,0,24,3,,,,,,,,,,,,,,,,,,,,,,,,,,,,,,,,,,,,,,,,279.87331281322986,279.87331281322986,279.87331281322986,279.87331281322986,279.87331281322986,279.87331281322986,279.87331281322986,279.87331281322986,279.87331281322986,279.87331281322986,l,1.5237147556617856,1,415,1,281.42047876585275,282.92692162888125,,,,,,,,,,,,,,,,,,,,,,,,,,,,,,,,,,,,,,,,,,,,,,,,,,,,,,,,,,,,,,,,,,,,,,49664,2022-11-29_14h00.37.434,vts_reward_expectancy_bt_OFFLINE,2022.2.4,59.68464577547526,
0,0,1,0,1,0,0,0,hexagon,triangle,1,0,1,0,2,1,25,6,,,,,,,,,,,,,,,,,,,,,,,,,,,,,,,,,,,,,,,,283.4272105260752,283.4272105260752,283.4272105260752,283.4272105260752,283.4272105260752,283.4272105260752,283.4272105260752,283.4272105260752,283.4272105260752,283.4272105260752,a,0.5111756590195,10,425,1,283.962413392961,285.4778979779221,,,,,,,,,,,,,,,,,,,,,,,,,,,,,,,,,,,,,,,,,,,,,,,,,,,,,,,,,,,,,,,,,,,,,,49664,2022-11-29_14h00.37.434,vts_reward_expectancy_bt_OFFLINE,2022.2.4,59.68464577547526,
0,1,0,0,0,0,0,1,circle,star,1,0,1,0,2,2,26,5,,,,,,,,,,,,,,,,,,,,,,,,,,,,,,,,,,,,,,,,285.9778329269029,285.9778329269029,285.9778329269029,285.9778329269029,285.9778329269029,285.9778329269029,285.9778329269029,285.9778329269029,285.9778329269029,285.9778329269029,l,0.8074208740144968,10,435,1,286.8139478652738,288.3141565960832,288.3141565960832,,,,,,,,,,,,,,,,,,,,,,,,,,,,,,,,,,,,,,,,,,,,,,,,,,,,,,,,,,,,,,,,,,,,,49664,2022-11-29_14h00.37.434,vts_reward_expectancy_bt_OFFLINE,2022.2.4,59.68464577547526,
0,0,0,1,0,0,1,0,star,hexagon,1,0,1,0,2,3,27,11,,,,,,,,,,,,,,,,,,,,,,,,,,,,,,,,,,,,,,,,288.81449059490114,288.81449059490114,288.81449059490114,288.81449059490114,288.81449059490114,288.81449059490114,288.81449059490114,288.81449059490114,288.81449059490114,288.81449059490114,l,0.6822548420168459,10,445,1,289.51507002301514,291.01514582009986,291.01514582009986,,,,,,,,,,,,,,,,,,,,,,,,,,,,,,,,,,,,,,,,,,,,,,,,,,,,,,,,,,,,,,,,,,,,,49664,2022-11-29_14h00.37.434,vts_reward_expectancy_bt_OFFLINE,2022.2.4,59.68464577547526,
1,0,0,0,0,0,0,1,triangle,star,1,0,1,0,2,4,28,2,,,,,,,,,,,,,,,,,,,,,,,,,,,,,,,,,,,,,,,,291.5173311312683,291.5173311312683,291.5173311312683,291.5173311312683,291.5173311312683,291.5173311312683,291.5173311312683,291.5173311312683,291.5173311312683,291.5173311312683,a,0.6454769768752158,1,446,1,292.186516683083,293.7004253519699,,,,,,,,,,,,,,,,,,,,,,,,,,,,,,,,,,,,,,,,,,,,,,,,,,,,,,,,,,,,,,,,,,,,,,49664,2022-11-29_14h00.37.434,vts_reward_expectancy_bt_OFFLINE,2022.2.4,59.68464577547526,
0,0,1,0,0,1,0,0,hexagon,circle,1,0,1,0,2,5,29,7,,,,,,,,,,,,,,,,,,,,,,,,,,,,,,,,,,,,,,,,294.18451229995117,294.18451229995117,294.18451229995117,294.18451229995117,294.18451229995117,294.18451229995117,294.18451229995117,294.18451229995117,294.18451229995117,294.18451229995117,l,0.22869334323331714,10,456,1,294.4372703419067,295.95107197528705,,,,,,,,,,,,,,,,,,,,,,,,,,,,,,,,,,,,,,,,,,,,,,,,,,,,,,,,,,,,,,,,,,,,,,49664,2022-11-29_14h00.37.434,vts_reward_expectancy_bt_OFFLINE,2022.2.4,59.68464577547526,
1,0,0,0,0,1,0,0,triangle,circle,1,0,1,0,2,6,30,0,,,,,,,,,,,,,,,,,,,,,,,,,,,,,,,,,,,,,,,,296.4414119590074,296.4414119590074,296.4414119590074,296.4414119590074,296.4414119590074,296.4414119590074,296.4414119590074,296.4414119590074,296.4414119590074,296.4414119590074,l,0.27835213392972946,1,457,1,296.73941487725824,298.25458086887375,,,,,,,,,,,,,,,,,,,,,,,,,,,,,,,,,,,,,,,,,,,,,,,,,,,,,,,,,,,,,,,,,,,,,,49664,2022-11-29_14h00.37.434,vts_reward_expectancy_bt_OFFLINE,2022.2.4,59.68464577547526,
0,0,1,0,0,0,0,1,hexagon,star,1,0,1,0,2,7,31,8,,,,,,,,,,,,,,,,,,,,,,,,,,,,,,,,,,,,,,,,298.75488204788417,298.75488204788417,298.75488204788417,298.75488204788417,298.75488204788417,298.75488204788417,298.75488204788417,298.75488204788417,298.75488204788417,298.75488204788417,l,0.36071834014728665,1,458,1,299.1387581862509,300.6389351882972,300.6389351882972,301.1391135631129,,,,,,,,,,,,,,,,,,,,,,,,,,,,,,,,,,,,,,,,,,,,,,,,,,,,,,,,,,,,,,,,,,,,49664,2022-11-29_14h00.37.434,vts_reward_expectancy_bt_OFFLINE,2022.2.4,59.68464577547526,
0,0,0,1,0,1,0,0,star ,circle,1,0,1,0,2,8,32,10,,,,,,,,,,,,,,,,,,,,,,,,,,,,,,,,,,,,,,,,301.1391135631129,301.1391135631129,301.1391135631129,301.1391135631129,301.1391135631129,301.1391135631129,301.1391135631129,301.1391135631129,301.1391135631129,301.1391135631129,l,0.20391849102452397,1,459,1,301.3717025788501,302.8747907090001,,,,,,,,,,,,,,,,,,,,,,,,,,,,,,,,,,,,,,,,,,,,,,,,,,,,,,,,,,,,,,,,,,,,,,49664,2022-11-29_14h00.37.434,vts_reward_expectancy_bt_OFFLINE,2022.2.4,59.68464577547526,
0,1,0,0,0,0,1,0,circle,hexagon,1,0,1,0,2,9,33,4,,,,,,,,,,,,,,,,,,,,,,,,,,,,,,,,,,,,,,,,303.374940271955,303.374940271955,303.374940271955,303.374940271955,303.374940271955,303.374940271955,303.374940271955,303.374940271955,303.374940271955,303.374940271955,l,0.19599681114777923,1,460,1,303.5911901919171,305.0914683449082,305.0914683449082,,,,,,,,,,,,,,,,,,,,,,,,,,,,,,,,,,,,,,,,,,,,,,,,,,,,,,,,,,,,,,,,,,,,,49664,2022-11-29_14h00.37.434,vts_reward_expectancy_bt_OFFLINE,2022.2.4,59.68464577547526,
1,0,0,0,0,0,1,0,triangle,hexagon,1,0,1,0,2,10,34,1,,,,,,,,,,,,,,,,,,,,,,,,,,,,,,,,,,,,,,,,305.59148955205455,305.59148955205455,305.59148955205455,305.59148955205455,305.59148955205455,305.59148955205455,305.59148955205455,305.59148955205455,305.59148955205455,305.59148955205455,l,0.2641739738173783,10,470,1,305.87832663208246,307.37847022805363,,,,,,,,,,,,,,,,,,,,,,,,,,,,,,,,,,,,,,,,,,,,,,,,,,,,,,,,,,,,,,,,,,,,,,49664,2022-11-29_14h00.37.434,vts_reward_expectancy_bt_OFFLINE,2022.2.4,59.68464577547526,
0,0,0,1,1,0,0,0,star,triangle,1,0,1,0,2,11,35,9,,,,,,,,,,,,,,,,,,,,,,,,,,,,,,,,,,,,,,,,307.87859695311636,307.87859695311636,307.87859695311636,307.87859695311636,307.87859695311636,307.87859695311636,307.87859695311636,307.87859695311636,307.87859695311636,307.87859695311636,a,0.29378486471250653,1,471,1,308.19800933497027,309.7115068528801,,,,,,,,,,,,,,,,,,,,,,,,,,,,,,,,,,,,,,,,,,,,,,,,,,,,,,,,,,,,,,,,,,,,,,49664,2022-11-29_14h00.37.434,vts_reward_expectancy_bt_OFFLINE,2022.2.4,59.68464577547526,
1,0,0,0,0,0,0,1,triangle,star,1,0,1,0,3,0,36,2,,,,,,,,,,,,,,,,,,,,,,,,,,,,,,,,,,,,,,,,310.21151548298076,310.21151548298076,310.21151548298076,310.21151548298076,310.21151548298076,310.21151548298076,310.21151548298076,310.21151548298076,310.21151548298076,310.21151548298076,a,0.08687669830396771,10,481,1,310.33103813417256,311.83151940396056,,,,,,,,,,,,,,,,,,,,,,,,,,,,,,,,,,,,,,,,,,,,,,,,,,,,,,,,,,,,,,,,,,,,,,49664,2022-11-29_14h00.37.434,vts_reward_expectancy_bt_OFFLINE,2022.2.4,59.68464577547526,
1,0,0,0,0,0,1,0,triangle,hexagon,1,0,1,0,3,1,37,1,,,,,,,,,,,,,,,,,,,,,,,,,,,,,,,,,,,,,,,,312.3317825291306,312.3317825291306,312.3317825291306,312.3317825291306,312.3317825291306,312.3317825291306,312.3317825291306,312.3317825291306,312.3317825291306,312.3317825291306,a,0.2629170170985162,10,491,1,312.6155621469952,314.11612582812086,314.11612582812086,314.61613007215783,,,,,,,,,,,,,,,,,,,,,,,,,,,,,,,,,,,,,,,,,,,,,,,,,,,,,,,,,,,,,,,,,,,,49664,2022-11-29_14h00.37.434,vts_reward_expectancy_bt_OFFLINE,2022.2.4,59.68464577547526,
0,0,1,0,0,0,0,1,hexagon,star,1,0,1,0,3,2,38,8,,,,,,,,,,,,,,,,,,,,,,,,,,,,,,,,,,,,,,,,314.61613007215783,314.61613007215783,314.61613007215783,314.61613007215783,314.61613007215783,314.61613007215783,314.61613007215783,314.61613007215783,314.61613007215783,314.61613007215783,a,0.3299276349134743,10,501,1,314.96625825809315,316.46789464820176,,,,,,,,,,,,,,,,,,,,,,,,,,,,,,,,,,,,,,,,,,,,,,,,,,,,,,,,,,,,,,,,,,,,,,49664,2022-11-29_14h00.37.434,vts_reward_expectancy_bt_OFFLINE,2022.2.4,59.68464577547526,
0,0,0,1,0,1,0,0,star ,circle,1,0,1,0,3,3,39,10,,,,,,,,,,,,,,,,,,,,,,,,,,,,,,,,,,,,,,,,316.9677819260396,316.9677819260396,316.9677819260396,316.9677819260396,316.9677819260396,316.9677819260396,316.9677819260396,316.9677819260396,316.9677819260396,316.9677819260396,a,0.24988697096705437,10,511,1,317.23568974388763,318.7364124059677,318.7364124059677,,,,,,,,,,,,,,,,,,,,,,,,,,,,,,,,,,,,,,,,,,,,,,,,,,,,,,,,,,,,,,,,,,,,,49664,2022-11-29_14h00.37.434,vts_reward_expectancy_bt_OFFLINE,2022.2.4,59.68464577547526,
0,0,1,0,0,1,0,0,hexagon,circle,1,0,1,0,3,4,40,7,,,,,,,,,,,,,,,,,,,,,,,,,,,,,,,,,,,,,,,,319.252918953076,319.252918953076,319.252918953076,319.252918953076,319.252918953076,319.252918953076,319.252918953076,319.252918953076,319.252918953076,319.252918953076,a,1.0030065099708736,10,521,1,320.28663465427235,321.7886091629043,,,,,,,,,,,,,,,,,,,,,,,,,,,,,,,,,,,,,,,,,,,,,,,,,,,,,,,,,,,,,,,,,,,,,,49664,2022-11-29_14h00.37.434,vts_reward_expectancy_bt_OFFLINE,2022.2.4,59.68464577547526,
0,0,0,1,0,0,1,0,star,hexagon,1,0,1,0,3,5,41,11,,,,,,,,,,,,,,,,,,,,,,,,,,,,,,,,,,,,,,,,322.2888453002088,322.2888453002088,322.2888453002088,322.2888453002088,322.2888453002088,322.2888453002088,322.2888453002088,322.2888453002088,322.2888453002088,322.2888453002088,l,0.6001693978905678,10,531,1,322.9059371938929,324.40561980893835,324.40561980893835,324.9059162600897,,,,,,,,,,,,,,,,,,,,,,,,,,,,,,,,,,,,,,,,,,,,,,,,,,,,,,,,,,,,,,,,,,,,49664,2022-11-29_14h00.37.434,vts_reward_expectancy_bt_OFFLINE,2022.2.4,59.68464577547526,
1,0,0,0,0,1,0,0,triangle,circle,1,0,1,0,3,6,42,0,,,,,,,,,,,,,,,,,,,,,,,,,,,,,,,,,,,,,,,,324.9059162600897,324.9059162600897,324.9059162600897,324.9059162600897,324.9059162600897,324.9059162600897,324.9059162600897,324.9059162600897,324.9059162600897,324.9059162600897,l,0.5806152820587158,10,541,1,325.5065987552516,327.00918377097696,,,,,,,,,,,,,,,,,,,,,,,,,,,,,,,,,,,,,,,,,,,,,,,,,,,,,,,,,,,,,,,,,,,,,,49664,2022-11-29_14h00.37.434,vts_reward_expectancy_bt_OFFLINE,2022.2.4,59.68464577547526,
0,0,1,0,1,0,0,0,hexagon,triangle,1,0,1,0,3,7,43,6,,,,,,,,,,,,,,,,,,,,,,,,,,,,,,,,,,,,,,,,327.50952238496393,327.50952238496393,327.50952238496393,327.50952238496393,327.50952238496393,327.50952238496393,327.50952238496393,327.50952238496393,327.50952238496393,327.50952238496393,l,1.7921653408557177,1,542,1,329.341404769104,330.84336574794725,,,,,,,,,,,,,,,,,,,,,,,,,,,,,,,,,,,,,,,,,,,,,,,,,,,,,,,,,,,,,,,,,,,,,,49664,2022-11-29_14h00.37.434,vts_reward_expectancy_bt_OFFLINE,2022.2.4,59.68464577547526,
0,0,0,1,1,0,0,0,star,triangle,1,0,1,0,3,8,44,9,,,,,,,,,,,,,,,,,,,,,,,,,,,,,,,,,,,,,,,,331.34317639796063,331.34317639796063,331.34317639796063,331.34317639796063,331.34317639796063,331.34317639796063,331.34317639796063,331.34317639796063,331.34317639796063,331.34317639796063,a,0.2076487448066473,1,543,1,331.57959548197687,333.08027659822255,333.08027659822255,333.58018613699824,,,,,,,,,,,,,,,,,,,,,,,,,,,,,,,,,,,,,,,,,,,,,,,,,,,,,,,,,,,,,,,,,,,,49664,2022-11-29_14h00.37.434,vts_reward_expectancy_bt_OFFLINE,2022.2.4,59.68464577547526,
0,1,0,0,1,0,0,0,circle,triangle,1,0,1,0,3,9,45,3,,,,,,,,,,,,,,,,,,,,,,,,,,,,,,,,,,,,,,,,333.58018613699824,333.58018613699824,333.58018613699824,333.58018613699824,333.58018613699824,333.58018613699824,333.58018613699824,333.58018613699824,333.58018613699824,333.58018613699824,l,0.17667688662186265,1,544,1,333.7807741020806,335.2809500982985,335.2809500982985,335.7812480069697,,,,,,,,,,,,,,,,,,,,,,,,,,,,,,,,,,,,,,,,,,,,,,,,,,,,,,,,,,,,,,,,,,,,49664,2022-11-29_14h00.37.434,vts_reward_expectancy_bt_OFFLINE,2022.2.4,59.68464577547526,
0,1,0,0,0,0,0,1,circle,star,1,0,1,0,3,10,46,5,,,,,,,,,,,,,,,,,,,,,,,,,,,,,,,,,,,,,,,,335.7812480069697,335.7812480069697,335.7812480069697,335.7812480069697,335.7812480069697,335.7812480069697,335.7812480069697,335.7812480069697,335.7812480069697,335.7812480069697,a,0.05657638609409332,10,554,1,335.86621776316315,337.36664647608995,,,,,,,,,,,,,,,,,,,,,,,,,,,,,,,,,,,,,,,,,,,,,,,,,,,,,,,,,,,,,,,,,,,,,,49664,2022-11-29_14h00.37.434,vts_reward_expectancy_bt_OFFLINE,2022.2.4,59.68464577547526,
0,1,0,0,0,0,1,0,circle,hexagon,1,0,1,0,3,11,47,4,,,,,,,,,,,,,,,,,,,,,,,,,,,,,,,,,,,,,,,,337.867116750218,337.867116750218,337.867116750218,337.867116750218,337.867116750218,337.867116750218,337.867116750218,337.867116750218,337.867116750218,337.867116750218,a,0.02873722603544593,1,555,1,337.9195958292112,339.4334001732059,,,,,,,,,,,,,,,,,,,,,,,,,,,,,,,,,,,,,,,,,,,,,,,,,,,,,,,,,,,,,,,,,,,,,,49664,2022-11-29_14h00.37.434,vts_reward_expectancy_bt_OFFLINE,2022.2.4,59.68464577547526,
0,1,0,0,0,0,0,1,circle,star,2,0,2,0,0,0,0,5,,,,,,,,,,,,,,,,,,,,,,,,,,,,,,,,,,,,,,,,349.43644200917333,349.43644200917333,349.43644200917333,349.43644200917333,349.43644200917333,349.43644200917333,349.43644200917333,349.43644200917333,349.43644200917333,349.43644200917333,a,1.8701757909730077,1,556,2,351.32637864584103,352.8270788192749,,,,,,,,,,,,,,,,,,,,,,,,,,,,,,,,,,,,,,,,,,,,,,,,,,,,,,,,,,,,,,,,,,,,,,49664,2022-11-29_14h00.37.434,vts_reward_expectancy_bt_OFFLINE,2022.2.4,59.68464577547526,
0,0,1,0,0,0,0,1,hexagon,star,2,0,2,0,0,1,1,8,,,,,,,,,,,,,,,,,,,,,,,,,,,,,,,,,,,,,,,,353.3271256922744,353.3271256922744,353.3271256922744,353.3271256922744,353.3271256922744,353.3271256922744,353.3271256922744,353.3271256922744,353.3271256922744,353.3271256922744,l,0.4332542927004397,10,566,2,353.77993828989565,355.2957007740624,,,,,,,,,,,,,,,,,,,,,,,,,,,,,,,,,,,,,,,,,,,,,,,,,,,,,,,,,,,,,,,,,,,,,,49664,2022-11-29_14h00.37.434,vts_reward_expectancy_bt_OFFLINE,2022.2.4,59.68464577547526,
0,0,0,1,0,0,1,0,star,hexagon,2,0,2,0,0,2,2,11,,,,,,,,,,,,,,,,,,,,,,,,,,,,,,,,,,,,,,,,355.79570927796885,355.79570927796885,355.79570927796885,355.79570927796885,355.79570927796885,355.79570927796885,355.79570927796885,355.79570927796885,355.79570927796885,355.79570927796885,a,4.84977565612644,10,576,2,360.66577427694574,362.1682693082839,,,,,,,,,,,,,,,,,,,,,,,,,,,,,,,,,,,,,,,,,,,,,,,,,,,,,,,,,,,,,,,,,,,,,,49664,2022-11-29_14h00.37.434,vts_reward_expectancy_bt_OFFLINE,2022.2.4,59.68464577547526,
1,0,0,0,0,0,0,1,triangle,star,2,0,2,0,0,3,3,2,,,,,,,,,,,,,,,,,,,,,,,,,,,,,,,,,,,,,,,,362.66839590808377,362.66839590808377,362.66839590808377,362.66839590808377,362.66839590808377,362.66839590808377,362.66839590808377,362.66839590808377,362.66839590808377,362.66839590808377,l,0.31648330809548497,10,586,2,363.0185383139178,364.518645782955,364.518645782955,365.0189760341309,,,,,,,,,,,,,,,,,,,,,,,,,,,,,,,,,,,,,,,,,,,,,,,,,,,,,,,,,,,,,,,,,,,,49664,2022-11-29_14h00.37.434,vts_reward_expectancy_bt_OFFLINE,2022.2.4,59.68464577547526,
0,0,1,0,0,1,0,0,hexagon,circle,2,0,2,0,0,4,4,7,,,,,,,,,,,,,,,,,,,,,,,,,,,,,,,,,,,,,,,,365.0189760341309,365.0189760341309,365.0189760341309,365.0189760341309,365.0189760341309,365.0189760341309,365.0189760341309,365.0189760341309,365.0189760341309,365.0189760341309,a,0.7455403790809214,1,587,2,365.8008013102226,367.2874675942585,,,,,,,,,,,,,,,,,,,,,,,,,,,,,,,,,,,,,,,,,,,,,,,,,,,,,,,,,,,,,,,,,,,,,,49664,2022-11-29_14h00.37.434,vts_reward_expectancy_bt_OFFLINE,2022.2.4,59.68464577547526,
1,0,0,0,0,1,0,0,triangle,circle,2,0,2,0,0,5,5,0,,,,,,,,,,,,,,,,,,,,,,,,,,,,,,,,,,,,,,,,367.7878524111584,367.7878524111584,367.7878524111584,367.7878524111584,367.7878524111584,367.7878524111584,367.7878524111584,367.7878524111584,367.7878524111584,367.7878524111584,l,0.3834351496770978,1,588,2,368.1890575932339,369.68813812593,369.68813812593,370.1886605862528,,,,,,,,,,,,,,,,,,,,,,,,,,,,,,,,,,,,,,,,,,,,,,,,,,,,,,,,,,,,,,,,,,,,49664,2022-11-29_14h00.37.434,vts_reward_expectancy_bt_OFFLINE,2022.2.4,59.68464577547526,
0,0,0,1,1,0,0,0,star,triangle,2,0,2,0,0,6,6,9,,,,,,,,,,,,,,,,,,,,,,,,,,,,,,,,,,,,,,,,370.1886605862528,370.1886605862528,370.1886605862528,370.1886605862528,370.1886605862528,370.1886605862528,370.1886605862528,370.1886605862528,370.1886605862528,370.1886605862528,a,0.34625990875065327,1,589,2,370.5565755618736,372.0575683992356,,,,,,,,,,,,,,,,,,,,,,,,,,,,,,,,,,,,,,,,,,,,,,,,,,,,,,,,,,,,,,,,,,,,,,49664,2022-11-29_14h00.37.434,vts_reward_expectancy_bt_OFFLINE,2022.2.4,59.68464577547526,
0,1,0,0,1,0,0,0,circle,triangle,2,0,2,0,0,7,7,3,,,,,,,,,,,,,,,,,,,,,,,,,,,,,,,,,,,,,,,,372.5580094032921,372.5580094032921,372.5580094032921,372.5580094032921,372.5580094032921,372.5580094032921,372.5580094032921,372.5580094032921,372.5580094032921,372.5580094032921,a,0.2259444990195334,1,590,2,372.80890957592055,374.30831540888175,374.30831540888175,374.8087991331704,,,,,,,,,,,,,,,,,,,,,,,,,,,,,,,,,,,,,,,,,,,,,,,,,,,,,,,,,,,,,,,,,,,,49664,2022-11-29_14h00.37.434,vts_reward_expectancy_bt_OFFLINE,2022.2.4,59.68464577547526,
1,0,0,0,0,0,1,0,triangle,hexagon,2,0,2,0,0,8,8,1,,,,,,,,,,,,,,,,,,,,,,,,,,,,,,,,,,,,,,,,374.8087991331704,374.8087991331704,374.8087991331704,374.8087991331704,374.8087991331704,374.8087991331704,374.8087991331704,374.8087991331704,374.8087991331704,374.8087991331704,l,0.7321047247387469,10,600,2,375.561771763023,377.0624712482095,,,,,,,,,,,,,,,,,,,,,,,,,,,,,,,,,,,,,,,,,,,,,,,,,,,,,,,,,,,,,,,,,,,,,,49664,2022-11-29_14h00.37.434,vts_reward_expectancy_bt_OFFLINE,2022.2.4,59.68464577547526,
0,0,1,0,1,0,0,0,hexagon,triangle,2,0,2,0,0,9,9,6,,,,,,,,,,,,,,,,,,,,,,,,,,,,,,,,,,,,,,,,377.56271808501333,377.56271808501333,377.56271808501333,377.56271808501333,377.56271808501333,377.56271808501333,377.56271808501333,377.56271808501333,377.56271808501333,377.56271808501333,l,1.0722251553088427,1,601,2,378.66491525806487,380.1803012029268,,,,,,,,,,,,,,,,,,,,,,,,,,,,,,,,,,,,,,,,,,,,,,,,,,,,,,,,,,,,,,,,,,,,,,49664,2022-11-29_14h00.37.434,vts_reward_expectancy_bt_OFFLINE,2022.2.4,59.68464577547526,
0,0,0,1,0,1,0,0,star ,circle,2,0,2,0,0,10,10,10,,,,,,,,,,,,,,,,,,,,,,,,,,,,,,,,,,,,,,,,380.68021344486624,380.68021344486624,380.68021344486624,380.68021344486624,380.68021344486624,380.68021344486624,380.68021344486624,380.68021344486624,380.68021344486624,380.68021344486624,a,0.41778877191245556,1,602,2,381.1302835061215,382.6329425070435,382.6329425070435,383.1333855749108,,,,,,,,,,,,,,,,,,,,,,,,,,,,,,,,,,,,,,,,,,,,,,,,,,,,,,,,,,,,,,,,,,,,49664,2022-11-29_14h00.37.434,vts_reward_expectancy_bt_OFFLINE,2022.2.4,59.68464577547526,
0,1,0,0,0,0,1,0,circle,hexagon,2,0,2,0,0,11,11,4,,,,,,,,,,,,,,,,,,,,,,,,,,,,,,,,,,,,,,,,383.1333855749108,383.1333855749108,383.1333855749108,383.1333855749108,383.1333855749108,383.1333855749108,383.1333855749108,383.1333855749108,383.1333855749108,383.1333855749108,l,0.3384657548740506,10,612,2,383.50264669395983,385.01601244229823,,,,,,,,,,,,,,,,,,,,,,,,,,,,,,,,,,,,,,,,,,,,,,,,,,,,,,,,,,,,,,,,,,,,,,49664,2022-11-29_14h00.37.434,vts_reward_expectancy_bt_OFFLINE,2022.2.4,59.68464577547526,
0,1,0,0,1,0,0,0,circle,triangle,2,0,2,0,1,0,12,3,,,,,,,,,,,,,,,,,,,,,,,,,,,,,,,,,,,,,,,,385.50049480609596,385.50049480609596,385.50049480609596,385.50049480609596,385.50049480609596,385.50049480609596,385.50049480609596,385.50049480609596,385.50049480609596,385.50049480609596,a,1.5379607612267137,1,613,2,387.07004000619054,388.57040372211486,388.57040372211486,389.0704186609946,,,,,,,,,,,,,,,,,,,,,,,,,,,,,,,,,,,,,,,,,,,,,,,,,,,,,,,,,,,,,,,,,,,,49664,2022-11-29_14h00.37.434,vts_reward_expectancy_bt_OFFLINE,2022.2.4,59.68464577547526,
0,0,1,0,0,1,0,0,hexagon,circle,2,0,2,0,1,1,13,7,,,,,,,,,,,,,,,,,,,,,,,,,,,,,,,,,,,,,,,,389.0704186609946,389.0704186609946,389.0704186609946,389.0704186609946,389.0704186609946,389.0704186609946,389.0704186609946,389.0704186609946,389.0704186609946,389.0704186609946,a,0.7025535129942,10,623,2,389.80536722717807,391.30376189015806,391.30376189015806,391.8066084650345,,,,,,,,,,,,,,,,,,,,,,,,,,,,,,,,,,,,,,,,,,,,,,,,,,,,,,,,,,,,,,,,,,,,49664,2022-11-29_14h00.37.434,vts_reward_expectancy_bt_OFFLINE,2022.2.4,59.68464577547526,
1,0,0,0,0,1,0,0,triangle,circle,2,0,2,0,1,2,14,0,,,,,,,,,,,,,,,,,,,,,,,,,,,,,,,,,,,,,,,,391.8066084650345,391.8066084650345,391.8066084650345,391.8066084650345,391.8066084650345,391.8066084650345,391.8066084650345,391.8066084650345,391.8066084650345,391.8066084650345,l,0.8795576230622828,1,624,2,392.70981203904375,394.223126124125,,,,,,,,,,,,,,,,,,,,,,,,,,,,,,,,,,,,,,,,,,,,,,,,,,,,,,,,,,,,,,,,,,,,,,49664,2022-11-29_14h00.37.434,vts_reward_expectancy_bt_OFFLINE,2022.2.4,59.68464577547526,
0,0,1,0,0,0,0,1,hexagon,star,2,0,2,0,1,3,15,8,,,,,,,,,,,,,,,,,,,,,,,,,,,,,,,,,,,,,,,,394.72331051621586,394.72331051621586,394.72331051621586,394.72331051621586,394.72331051621586,394.72331051621586,394.72331051621586,394.72331051621586,394.72331051621586,394.72331051621586,a,1.439807037357241,10,634,2,396.1934182769619,397.69361995812505,,,,,,,,,,,,,,,,,,,,,,,,,,,,,,,,,,,,,,,,,,,,,,,,,,,,,,,,,,,,,,,,,,,,,,49664,2022-11-29_14h00.37.434,vts_reward_expectancy_bt_OFFLINE,2022.2.4,59.68464577547526,
0,1,0,0,0,0,0,1,circle,star,2,0,2,0,1,4,16,5,,,,,,,,,,,,,,,,,,,,,,,,,,,,,,,,,,,,,,,,398.1940316790715,398.1940316790715,398.1940316790715,398.1940316790715,398.1940316790715,398.1940316790715,398.1940316790715,398.1940316790715,398.1940316790715,398.1940316790715,a,2.2211703108623624,10,644,2,400.44553314708173,401.9472286379896,,,,,,,,,,,,,,,,,,,,,,,,,,,,,,,,,,,,,,,,,,,,,,,,,,,,,,,,,,,,,,,,,,,,,,49664,2022-11-29_14h00.37.434,vts_reward_expectancy_bt_OFFLINE,2022.2.4,59.68464577547526,
0,1,0,0,0,0,1,0,circle,hexagon,2,0,2,0,1,5,17,4,,,,,,,,,,,,,,,,,,,,,,,,,,,,,,,,,,,,,,,,402.447527048178,402.447527048178,402.447527048178,402.447527048178,402.447527048178,402.447527048178,402.447527048178,402.447527048178,402.447527048178,402.447527048178,l,1.0502056977711618,1,645,2,403.51781840017065,405.0307613299228,,,,,,,,,,,,,,,,,,,,,,,,,,,,,,,,,,,,,,,,,,,,,,,,,,,,,,,,,,,,,,,,,,,,,,49664,2022-11-29_14h00.37.434,vts_reward_expectancy_bt_OFFLINE,2022.2.4,59.68464577547526,
0,0,0,1,1,0,0,0,star,triangle,2,0,2,0,1,6,18,9,,,,,,,,,,,,,,,,,,,,,,,,,,,,,,,,,,,,,,,,405.53070123307407,405.53070123307407,405.53070123307407,405.53070123307407,405.53070123307407,405.53070123307407,405.53070123307407,405.53070123307407,405.53070123307407,405.53070123307407,a,0.9934760890901089,10,655,2,406.55391873186454,408.06722621200606,,,,,,,,,,,,,,,,,,,,,,,,,,,,,,,,,,,,,,,,,,,,,,,,,,,,,,,,,,,,,,,,,,,,,,49664,2022-11-29_14h00.37.434,vts_reward_expectancy_bt_OFFLINE,2022.2.4,59.68464577547526,
1,0,0,0,0,0,0,1,triangle,star,2,0,2,0,1,7,19,2,,,,,,,,,,,,,,,,,,,,,,,,,,,,,,,,,,,,,,,,408.5670806518756,408.5670806518756,408.5670806518756,408.5670806518756,408.5670806518756,408.5670806518756,408.5670806518756,408.5670806518756,408.5670806518756,408.5670806518756,l,1.1410363321192563,10,665,2,409.73521898593754,411.23589500784874,411.23589500784874,,,,,,,,,,,,,,,,,,,,,,,,,,,,,,,,,,,,,,,,,,,,,,,,,,,,,,,,,,,,,,,,,,,,,49664,2022-11-29_14h00.37.434,vts_reward_expectancy_bt_OFFLINE,2022.2.4,59.68464577547526,
0,0,0,1,0,1,0,0,star ,circle,2,0,2,0,1,8,20,10,,,,,,,,,,,,,,,,,,,,,,,,,,,,,,,,,,,,,,,,411.73668722622097,411.73668722622097,411.73668722622097,411.73668722622097,411.73668722622097,411.73668722622097,411.73668722622097,411.73668722622097,411.73668722622097,411.73668722622097,a,1.0433997940272093,10,675,2,412.80528748128563,414.3054275768809,414.3054275768809,414.8054151069373,,,,,,,,,,,,,,,,,,,,,,,,,,,,,,,,,,,,,,,,,,,,,,,,,,,,,,,,,,,,,,,,,,,,49664,2022-11-29_14h00.37.434,vts_reward_expectancy_bt_OFFLINE,2022.2.4,59.68464577547526,
0,0,0,1,0,0,1,0,star,hexagon,2,0,2,0,1,9,21,11,,,,,,,,,,,,,,,,,,,,,,,,,,,,,,,,,,,,,,,,414.8054151069373,414.8054151069373,414.8054151069373,414.8054151069373,414.8054151069373,414.8054151069373,414.8054151069373,414.8054151069373,414.8054151069373,414.8054151069373,l,0.8656507767736912,1,676,2,415.7036039819941,417.19168837787583,,,,,,,,,,,,,,,,,,,,,,,,,,,,,,,,,,,,,,,,,,,,,,,,,,,,,,,,,,,,,,,,,,,,,,49664,2022-11-29_14h00.37.434,vts_reward_expectancy_bt_OFFLINE,2022.2.4,59.68464577547526,
0,0,1,0,1,0,0,0,hexagon,triangle,2,0,2,0,1,10,22,6,,,,,,,,,,,,,,,,,,,,,,,,,,,,,,,,,,,,,,,,417.6918810810894,417.6918810810894,417.6918810810894,417.6918810810894,417.6918810810894,417.6918810810894,417.6918810810894,417.6918810810894,417.6918810810894,417.6918810810894,a,0.7917284360155463,1,677,2,418.51041798014194,420.0090187191963,,,,,,,,,,,,,,,,,,,,,,,,,,,,,,,,,,,,,,,,,,,,,,,,,,,,,,,,,,,,,,,,,,,,,,49664,2022-11-29_14h00.37.434,vts_reward_expectancy_bt_OFFLINE,2022.2.4,59.68464577547526,
1,0,0,0,0,0,1,0,triangle,hexagon,2,0,2,0,1,11,23,1,,,,,,,,,,,,,,,,,,,,,,,,,,,,,,,,,,,,,,,,420.509306485299,420.509306485299,420.509306485299,420.509306485299,420.509306485299,420.509306485299,420.509306485299,420.509306485299,420.509306485299,420.509306485299,a,0.6859418912790716,1,678,2,421.22582502523437,422.72859312500805,422.72859312500805,423.2285251459107,,,,,,,,,,,,,,,,,,,,,,,,,,,,,,,,,,,,,,,,,,,,,,,,,,,,,,,,,,,,,,,,,,,,49664,2022-11-29_14h00.37.434,vts_reward_expectancy_bt_OFFLINE,2022.2.4,59.68464577547526,
0,0,1,0,0,0,0,1,hexagon,star,2,0,2,0,2,0,24,8,,,,,,,,,,,,,,,,,,,,,,,,,,,,,,,,,,,,,,,,423.2285251459107,423.2285251459107,423.2285251459107,423.2285251459107,423.2285251459107,423.2285251459107,423.2285251459107,423.2285251459107,423.2285251459107,423.2285251459107,l,0.03631479712203145,10,688,2,423.29675683006644,424.7949842521921,424.7949842521921,425.2949265339412,,,,,,,,,,,,,,,,,,,,,,,,,,,,,,,,,,,,,,,,,,,,,,,,,,,,,,,,,,,,,,,,,,,,49664,2022-11-29_14h00.37.434,vts_reward_expectancy_bt_OFFLINE,2022.2.4,59.68464577547526,
1,0,0,0,0,0,0,1,triangle,star,2,0,2,0,2,1,25,2,,,,,,,,,,,,,,,,,,,,,,,,,,,,,,,,,,,,,,,,425.2949265339412,425.2949265339412,425.2949265339412,425.2949265339412,425.2949265339412,425.2949265339412,425.2949265339412,425.2949265339412,425.2949265339412,425.2949265339412,l,0.49119569966569543,1,689,2,425.8161247051321,427.3156628832221,,,,,,,,,,,,,,,,,,,,,,,,,,,,,,,,,,,,,,,,,,,,,,,,,,,,,,,,,,,,,,,,,,,,,,49664,2022-11-29_14h00.37.434,vts_reward_expectancy_bt_OFFLINE,2022.2.4,59.68464577547526,
0,0,1,0,1,0,0,0,hexagon,triangle,2,0,2,0,2,2,26,6,,,,,,,,,,,,,,,,,,,,,,,,,,,,,,,,,,,,,,,,427.81599470507354,427.81599470507354,427.81599470507354,427.81599470507354,427.81599470507354,427.81599470507354,427.81599470507354,427.81599470507354,427.81599470507354,427.81599470507354,a,0.10819526389241219,10,699,2,427.9516017511487,429.46668024826795,,,,,,,,,,,,,,,,,,,,,,,,,,,,,,,,,,,,,,,,,,,,,,,,,,,,,,,,,,,,,,,,,,,,,,49664,2022-11-29_14h00.37.434,vts_reward_expectancy_bt_OFFLINE,2022.2.4,59.68464577547526,
0,1,0,0,0,0,1,0,circle,hexagon,2,0,2,0,2,3,27,4,,,,,,,,,,,,,,,,,,,,,,,,,,,,,,,,,,,,,,,,429.96662789117545,429.96662789117545,429.96662789117545,429.96662789117545,429.96662789117545,429.96662789117545,429.96662789117545,429.96662789117545,429.96662789117545,429.96662789117545,a,0.45379684725776315,1,700,2,430.4643930308521,431.95238121785223,,,,,,,,,,,,,,,,,,,,,,,,,,,,,,,,,,,,,,,,,,,,,,,,,,,,,,,,,,,,,,,,,,,,,,49664,2022-11-29_14h00.37.434,vts_reward_expectancy_bt_OFFLINE,2022.2.4,59.68464577547526,
0,1,0,0,1,0,0,0,circle,triangle,2,0,2,0,2,4,28,3,,,,,,,,,,,,,,,,,,,,,,,,,,,,,,,,,,,,,,,,432.45253291912377,432.45253291912377,432.45253291912377,432.45253291912377,432.45253291912377,432.45253291912377,432.45253291912377,432.45253291912377,432.45253291912377,432.45253291912377,l,0.15120522491633892,1,701,2,432.63530458603054,434.1358003229834,434.1358003229834,434.63581369817257,,,,,,,,,,,,,,,,,,,,,,,,,,,,,,,,,,,,,,,,,,,,,,,,,,,,,,,,,,,,,,,,,,,,49664,2022-11-29_14h00.37.434,vts_reward_expectancy_bt_OFFLINE,2022.2.4,59.68464577547526,
0,0,0,1,0,1,0,0,star ,circle,2,0,2,0,2,5,29,10,,,,,,,,,,,,,,,,,,,,,,,,,,,,,,,,,,,,,,,,434.63581369817257,434.63581369817257,434.63581369817257,434.63581369817257,434.63581369817257,434.63581369817257,434.63581369817257,434.63581369817257,434.63581369817257,434.63581369817257,l,0.10493599390611053,10,711,2,434.7730686040595,436.28631768003106,,,,,,,,,,,,,,,,,,,,,,,,,,,,,,,,,,,,,,,,,,,,,,,,,,,,,,,,,,,,,,,,,,,,,,49664,2022-11-29_14h00.37.434,vts_reward_expectancy_bt_OFFLINE,2022.2.4,59.68464577547526,
0,0,0,1,0,0,1,0,star,hexagon,2,0,2,0,2,6,30,11,,,,,,,,,,,,,,,,,,,,,,,,,,,,,,,,,,,,,,,,436.7726497598924,436.7726497598924,436.7726497598924,436.7726497598924,436.7726497598924,436.7726497598924,436.7726497598924,436.7726497598924,436.7726497598924,436.7726497598924,l,0.2971496880054474,1,712,2,437.0923717939295,438.605587601196,,,,,,,,,,,,,,,,,,,,,,,,,,,,,,,,,,,,,,,,,,,,,,,,,,,,,,,,,,,,,,,,,,,,,,49664,2022-11-29_14h00.37.434,vts_reward_expectancy_bt_OFFLINE,2022.2.4,59.68464577547526,
0,0,0,1,1,0,0,0,star,triangle,2,0,2,0,2,7,31,9,,,,,,,,,,,,,,,,,,,,,,,,,,,,,,,,,,,,,,,,439.0903708478436,439.0903708478436,439.0903708478436,439.0903708478436,439.0903708478436,439.0903708478436,439.0903708478436,439.0903708478436,439.0903708478436,439.0903708478436,a,0.3189992685802281,1,713,2,439.4413561071269,440.94040563702583,440.94040563702583,441.440880686976,,,,,,,,,,,,,,,,,,,,,,,,,,,,,,,,,,,,,,,,,,,,,,,,,,,,,,,,,,,,,,,,,,,,49664,2022-11-29_14h00.37.434,vts_reward_expectancy_bt_OFFLINE,2022.2.4,59.68464577547526,
1,0,0,0,0,0,1,0,triangle,hexagon,2,0,2,0,2,8,32,1,,,,,,,,,,,,,,,,,,,,,,,,,,,,,,,,,,,,,,,,441.440880686976,441.440880686976,441.440880686976,441.440880686976,441.440880686976,441.440880686976,441.440880686976,441.440880686976,441.440880686976,441.440880686976,l,0.21845513675361872,1,714,2,441.6776021691039,443.1767003880814,443.1767003880814,443.6769102080725,,,,,,,,,,,,,,,,,,,,,,,,,,,,,,,,,,,,,,,,,,,,,,,,,,,,,,,,,,,,,,,,,,,,49664,2022-11-29_14h00.37.434,vts_reward_expectancy_bt_OFFLINE,2022.2.4,59.68464577547526,
1,0,0,0,0,1,0,0,triangle,circle,2,0,2,0,2,9,33,0,,,,,,,,,,,,,,,,,,,,,,,,,,,,,,,,,,,,,,,,443.6769102080725,443.6769102080725,443.6769102080725,443.6769102080725,443.6769102080725,443.6769102080725,443.6769102080725,443.6769102080725,443.6769102080725,443.6769102080725,l,0.5478525455109775,10,724,2,444.2459437130019,445.76117406086996,,,,,,,,,,,,,,,,,,,,,,,,,,,,,,,,,,,,,,,,,,,,,,,,,,,,,,,,,,,,,,,,,,,,,,49664,2022-11-29_14h00.37.434,vts_reward_expectancy_bt_OFFLINE,2022.2.4,59.68464577547526,
0,0,1,0,0,1,0,0,hexagon,circle,2,0,2,0,2,10,34,7,,,,,,,,,,,,,,,,,,,,,,,,,,,,,,,,,,,,,,,,446.26114270696416,446.26114270696416,446.26114270696416,446.26114270696416,446.26114270696416,446.26114270696416,446.26114270696416,446.26114270696416,446.26114270696416,446.26114270696416,l,0.24803910264745355,10,734,2,446.5261543490924,448.03034946508706,,,,,,,,,,,,,,,,,,,,,,,,,,,,,,,,,,,,,,,,,,,,,,,,,,,,,,,,,,,,,,,,,,,,,,49664,2022-11-29_14h00.37.434,vts_reward_expectancy_bt_OFFLINE,2022.2.4,59.68464577547526,
0,1,0,0,0,0,0,1,circle,star,2,0,2,0,2,11,35,5,,,,,,,,,,,,,,,,,,,,,,,,,,,,,,,,,,,,,,,,448.53074537124485,448.53074537124485,448.53074537124485,448.53074537124485,448.53074537124485,448.53074537124485,448.53074537124485,448.53074537124485,448.53074537124485,448.53074537124485,l,0.7011971492320299,10,744,2,449.2633534730412,450.7637893538922,450.7637893538922,451.2637475482188,,,,,,,,,,,,,,,,,,,,,,,,,,,,,,,,,,,,,,,,,,,,,,,,,,,,,,,,,,,,,,,,,,,,49664,2022-11-29_14h00.37.434,vts_reward_expectancy_bt_OFFLINE,2022.2.4,59.68464577547526,
0,0,1,0,0,1,0,0,hexagon,circle,2,0,2,0,3,0,36,7,,,,,,,,,,,,,,,,,,,,,,,,,,,,,,,,,,,,,,,,451.2637475482188,451.2637475482188,451.2637475482188,451.2637475482188,451.2637475482188,451.2637475482188,451.2637475482188,451.2637475482188,451.2637475482188,451.2637475482188,l,1.0161625728942454,1,745,2,452.3028455688618,453.817513840273,,,,,,,,,,,,,,,,,,,,,,,,,,,,,,,,,,,,,,,,,,,,,,,,,,,,,,,,,,,,,,,,,,,,,,49664,2022-11-29_14h00.37.434,vts_reward_expectancy_bt_OFFLINE,2022.2.4,59.68464577547526,
0,0,1,0,0,0,0,1,hexagon,star,2,0,2,0,3,1,37,8,,,,,,,,,,,,,,,,,,,,,,,,,,,,,,,,,,,,,,,,454.3178348932415,454.3178348932415,454.3178348932415,454.3178348932415,454.3178348932415,454.3178348932415,454.3178348932415,454.3178348932415,454.3178348932415,454.3178348932415,a,0.6629449017345905,10,755,2,455.00346702104434,456.5186873693019,,,,,,,,,,,,,,,,,,,,,,,,,,,,,,,,,,,,,,,,,,,,,,,,,,,,,,,,,,,,,,,,,,,,,,49664,2022-11-29_14h00.37.434,vts_reward_expectancy_bt_OFFLINE,2022.2.4,59.68464577547526,
0,1,0,0,0,0,0,1,circle,star,2,0,2,0,3,2,38,5,,,,,,,,,,,,,,,,,,,,,,,,,,,,,,,,,,,,,,,,457.003920475021,457.003920475021,457.003920475021,457.003920475021,457.003920475021,457.003920475021,457.003920475021,457.003920475021,457.003920475021,457.003920475021,a,0.9127307869493961,10,765,2,457.93810722930357,459.43833354115486,459.43833354115486,459.9382818341255,,,,,,,,,,,,,,,,,,,,,,,,,,,,,,,,,,,,,,,,,,,,,,,,,,,,,,,,,,,,,,,,,,,,49664,2022-11-29_14h00.37.434,vts_reward_expectancy_bt_OFFLINE,2022.2.4,59.68464577547526,
0,1,0,0,0,0,1,0,circle,hexagon,2,0,2,0,3,3,39,4,,,,,,,,,,,,,,,,,,,,,,,,,,,,,,,,,,,,,,,,459.9382818341255,459.9382818341255,459.9382818341255,459.9382818341255,459.9382818341255,459.9382818341255,459.9382818341255,459.9382818341255,459.9382818341255,459.9382818341255,l,0.8132830681279302,1,766,2,460.7742353682406,462.2742492542602,,,,,,,,,,,,,,,,,,,,,,,,,,,,,,,,,,,,,,,,,,,,,,,,,,,,,,,,,,,,,,,,,,,,,,49664,2022-11-29_14h00.37.434,vts_reward_expectancy_bt_OFFLINE,2022.2.4,59.68464577547526,
1,0,0,0,0,0,1,0,triangle,hexagon,2,0,2,0,3,4,40,1,,,,,,,,,,,,,,,,,,,,,,,,,,,,,,,,,,,,,,,,462.77453465526924,462.77453465526924,462.77453465526924,462.77453465526924,462.77453465526924,462.77453465526924,462.77453465526924,462.77453465526924,462.77453465526924,462.77453465526924,a,0.9474044647067785,1,767,2,463.7426315289922,465.24198777228594,465.24198777228594,,,,,,,,,,,,,,,,,,,,,,,,,,,,,,,,,,,,,,,,,,,,,,,,,,,,,,,,,,,,,,,,,,,,,49664,2022-11-29_14h00.37.434,vts_reward_expectancy_bt_OFFLINE,2022.2.4,59.68464577547526,
0,1,0,0,1,0,0,0,circle,triangle,2,0,2,0,3,5,41,3,,,,,,,,,,,,,,,,,,,,,,,,,,,,,,,,,,,,,,,,465.74196052225307,465.74196052225307,465.74196052225307,465.74196052225307,465.74196052225307,465.74196052225307,465.74196052225307,465.74196052225307,465.74196052225307,465.74196052225307,a,0.3884467496536672,1,768,2,466.1592063209973,467.6612920681946,,,,,,,,,,,,,,,,,,,,,,,,,,,,,,,,,,,,,,,,,,,,,,,,,,,,,,,,,,,,,,,,,,,,,,49664,2022-11-29_14h00.37.434,vts_reward_expectancy_bt_OFFLINE,2022.2.4,59.68464577547526,
0,0,1,0,1,0,0,0,hexagon,triangle,2,0,2,0,3,6,42,6,,,,,,,,,,,,,,,,,,,,,,,,,,,,,,,,,,,,,,,,468.1615163348615,468.1615163348615,468.1615163348615,468.1615163348615,468.1615163348615,468.1615163348615,468.1615163348615,468.1615163348615,468.1615163348615,468.1615163348615,a,1.0055758208036423,1,769,2,469.1959907319397,470.71240075398237,,,,,,,,,,,,,,,,,,,,,,,,,,,,,,,,,,,,,,,,,,,,,,,,,,,,,,,,,,,,,,,,,,,,,,49664,2022-11-29_14h00.37.434,vts_reward_expectancy_bt_OFFLINE,2022.2.4,59.68464577547526,
0,0,0,1,0,1,0,0,star ,circle,2,0,2,0,3,7,43,10,,,,,,,,,,,,,,,,,,,,,,,,,,,,,,,,,,,,,,,,471.2122024539858,471.2122024539858,471.2122024539858,471.2122024539858,471.2122024539858,471.2122024539858,471.2122024539858,471.2122024539858,471.2122024539858,471.2122024539858,l,0.14934609178453684,1,770,2,471.37979727005586,472.881610351149,,,,,,,,,,,,,,,,,,,,,,,,,,,,,,,,,,,,,,,,,,,,,,,,,,,,,,,,,,,,,,,,,,,,,,49664,2022-11-29_14h00.37.434,vts_reward_expectancy_bt_OFFLINE,2022.2.4,59.68464577547526,
0,0,0,1,1,0,0,0,star,triangle,2,0,2,0,3,8,44,9,,,,,,,,,,,,,,,,,,,,,,,,,,,,,,,,,,,,,,,,473.38226894289255,473.38226894289255,473.38226894289255,473.38226894289255,473.38226894289255,473.38226894289255,473.38226894289255,473.38226894289255,473.38226894289255,473.38226894289255,l,0.16121265990659595,1,771,2,473.5656866049394,475.0649248561822,475.0649248561822,475.56500706030056,,,,,,,,,,,,,,,,,,,,,,,,,,,,,,,,,,,,,,,,,,,,,,,,,,,,,,,,,,,,,,,,,,,,49664,2022-11-29_14h00.37.434,vts_reward_expectancy_bt_OFFLINE,2022.2.4,59.68464577547526,
1,0,0,0,0,1,0,0,triangle,circle,2,0,2,0,3,9,45,0,,,,,,,,,,,,,,,,,,,,,,,,,,,,,,,,,,,,,,,,475.56500706030056,475.56500706030056,475.56500706030056,475.56500706030056,475.56500706030056,475.56500706030056,475.56500706030056,475.56500706030056,475.56500706030056,475.56500706030056,a,0.3297068006359041,1,772,2,475.9165387460962,477.4184338422492,,,,,,,,,,,,,,,,,,,,,,,,,,,,,,,,,,,,,,,,,,,,,,,,,,,,,,,,,,,,,,,,,,,,,,49664,2022-11-29_14h00.37.434,vts_reward_expectancy_bt_OFFLINE,2022.2.4,59.68464577547526,
0,0,0,1,0,0,1,0,star,hexagon,2,0,2,0,3,10,46,11,,,,,,,,,,,,,,,,,,,,,,,,,,,,,,,,,,,,,,,,477.9186072652228,477.9186072652228,477.9186072652228,477.9186072652228,477.9186072652228,477.9186072652228,477.9186072652228,477.9186072652228,477.9186072652228,477.9186072652228,a,0.13615916576236486,10,782,2,478.087932233233,479.6027265242301,,,,,,,,,,,,,,,,,,,,,,,,,,,,,,,,,,,,,,,,,,,,,,,,,,,,,,,,,,,,,,,,,,,,,,49664,2022-11-29_14h00.37.434,vts_reward_expectancy_bt_OFFLINE,2022.2.4,59.68464577547526,
1,0,0,0,0,0,0,1,triangle,star,2,0,2,0,3,11,47,2,,,,,,,,,,,,,,,,,,,,,,,,,,,,,,,,,,,,,,,,480.1029314538464,480.1029314538464,480.1029314538464,480.1029314538464,480.1029314538464,480.1029314538464,480.1029314538464,480.1029314538464,480.1029314538464,480.1029314538464,l,2.2271622037515044,10,792,2,482.35719897411764,483.8558747651987,483.8558747651987,484.3621495482512,,,,,,,,,,,,,,,,,,,,,,,,,,,,,,,,,,,,,,,,,,,,,,,,,,,,,,,,,,,,,,,,,,,,49664,2022-11-29_14h00.37.434,vts_reward_expectancy_bt_OFFLINE,2022.2.4,59.68464577547526,
,,,,,,,,,,,,,,,,,,0,0,0,0,0,0,0,0,,,,,,,,,,,,,,,,,,,,,,,,,,,,,,,,,,,,,,,,,,,,,,,,529.5225263112225,,,W,174,hexagon,0.017039563041180372,525.2148403921165,526.6881063561887,526.6881063561887,526.6881063561887,1,0,f,1.2969111078418791,0,528.008445688989,,,,,,,,,,,,,,,,,,,,,,,,,,,,,,,,,,,,,,,,,,,,,,,,,,,,,,49664,2022-11-29_14h00.37.434,vts_reward_expectancy_bt_OFFLINE,2022.2.4,59.68464577547526,
,,,,,,,,,,,,,,,,,,0,0,0,0,1,0,1,0,,,,,,,,,,,,,,,,,,,,,,,,,,,,,,,,,,,,,,,,,,,,,,,,534.3427402502857,,534.8427904681303,H,139,triangle,0.015861108899116516,530.5182119971141,531.9918726589531,531.9918726589531,531.9918726589531,1,0,d,0.8194793276488781,0,532.842358855065,534.3427402502857,,,,,,,,,,,,,,,,,,,,,,,,,,,,,,,,,,,,,,,,,,,,,,,,,,,,,49664,2022-11-29_14h00.37.434,vts_reward_expectancy_bt_OFFLINE,2022.2.4,59.68464577547526,
,,,,,,,,,,,,,,,,,,0,0,0,0,2,0,2,0,,,,,,,,,,,,,,,,,,,,,,,,,,,,,,,,,,,,,,,,,,,,,,,,538.911661664024,,539.4120841841213,U,132,circle,0.0004997453652322292,535.3374902629294,536.8286785199307,536.8286785199307,536.8286785199307,1,0,f,0.5625074896961451,0,537.4127233359031,538.911661664024,,,,,,,,,,,,,,,,,,,,,,,,,,,,,,,,,,,,,,,,,,,,,,,,,,,,,49664,2022-11-29_14h00.37.434,vts_reward_expectancy_bt_OFFLINE,2022.2.4,59.68464577547526,
,,,,,,,,,,,,,,,,,,0,0,0,0,3,0,3,0,,,,,,,,,,,,,,,,,,,,,,,,,,,,,,,,,,,,,,,,,,,,,,,,543.7329156151973,,544.2333590309136,Y,167,star,0.0004931888543069363,539.9084288738668,541.3957743742503,541.3957743742503,541.3957743742503,1,0,f,0.8098076740279794,0,542.2329738782719,543.7329156151973,,,,,,,,,,,,,,,,,,,,,,,,,,,,,,,,,,,,,,,,,,,,,,,,,,,,,49664,2022-11-29_14h00.37.434,vts_reward_expectancy_bt_OFFLINE,2022.2.4,59.68464577547526,
,,,,,,,,,,,,,,,,,,0,0,0,0,4,0,4,0,,,,,,,,,,,,,,,,,,,,,,,,,,,,,,,,,,,,,,,,,,,,,,,,548.4855288169347,,548.9859111830592,S,146,triangle,0.0006766580045223236,544.7281174538657,546.2162351170555,546.2162351170555,546.2162351170555,1,0,f,0.7484416007064283,0,546.9864133698866,548.4855288169347,,,,,,,,,,,,,,,,,,,,,,,,,,,,,,,,,,,,,,,,,,,,,,,,,,,,,49664,2022-11-29_14h00.37.434,vts_reward_expectancy_bt_OFFLINE,2022.2.4,59.68464577547526,
,,,,,,,,,,,,,,,,,,0,0,0,0,5,0,5,0,,,,,,,,,,,,,,,,,,,,,,,,,,,,,,,,,,,,,,,,,,,,,,,,555.4897766481154,,,B,181,star,0.00017403718084096909,549.4818209200166,550.9696316611953,550.9696316611953,550.9696316611953,0,0,None,,0,553.9894888000563,,553.9736847700551,553.9736847700551,553.9736847700551,,,,,,,,,,,,,,,,,,,,,,,,,,,,,,,,,,,,,,,,,,,,,,,,,,49664,2022-11-29_14h00.37.434,vts_reward_expectancy_bt_OFFLINE,2022.2.4,59.68464577547526,
,,,,,,,,,,,,,,,,,,0,0,0,0,6,0,6,0,,,,,,,,,,,,,,,,,,,,,,,,,,,,,,,,,,,,,,,,,,,,,,,,560.1609787452035,,,F,125,hexagon,0.004596734885126352,556.4863411299884,557.9766739159822,557.9766739159822,557.9766739159822,1,1,d,0.6443473869003356,0,558.646225169301,,,,,,,,,,,,,,,,,,,,,,,,,,,,,,,,,,,,,,,,,,,,,,,,,,,,,,49664,2022-11-29_14h00.37.434,vts_reward_expectancy_bt_OFFLINE,2022.2.4,59.68464577547526,
,,,,,,,,,,,,,,,,,,0,0,0,0,7,0,7,0,,,,,,,,,,,,,,,,,,,,,,,,,,,,,,,,,,,,,,,,,,,,,,,,564.6978041478433,,,D,160,circle,0.015960395336151123,561.1560018002056,562.6296124281362,562.6296124281362,562.6296124281362,1,0,d,0.5469531887210906,0,563.1977442381904,564.6978041478433,,,,,,,,,,,,,,,,,,,,,,,,,,,,,,,,,,,,,,,,,,,,,,,,,,,,,49664,2022-11-29_14h00.37.434,vts_reward_expectancy_bt_OFFLINE,2022.2.4,59.68464577547526,
,,,,,,,,,,,,,,,,,,0,0,0,0,8,0,8,0,,,,,,,,,,,,,,,,,,,,,,,,,,,,,,,,,,,,,,,,,,,,,,,,569.3837860380299,,569.883787480183,W,174,hexagon,0.0004086648114025593,565.6925741271116,567.1831169431098,567.1831169431098,567.1831169431098,1,0,f,0.6734049087390304,0,567.884415932931,569.3837860380299,,,,,,,,,,,,,,,,,,,,,,,,,,,,,,,,,,,,,,,,,,,,,,,,,,,,,49664,2022-11-29_14h00.37.434,vts_reward_expectancy_bt_OFFLINE,2022.2.4,59.68464577547526,
,,,,,,,,,,,,,,,,,,0,0,0,0,9,0,9,0,,,,,,,,,,,,,,,,,,,,,,,,,,,,,,,,,,,,,,,,,,,,,,,,573.9547443492338,,574.4643951621838,H,139,triangle,0.00028146104887127876,570.3795607779175,571.8705909750424,571.8705909750424,571.8705909750424,1,0,d,0.565456657204777,0,572.454774661921,573.9547443492338,,,,,,,,,,,,,,,,,,,,,,,,,,,,,,,,,,,,,,,,,,,,,,,,,,,,,49664,2022-11-29_14h00.37.434,vts_reward_expectancy_bt_OFFLINE,2022.2.4,59.68464577547526,
,,,,,,,,,,,,,,,,,,,,,,,,,,0,0,0,0,0,0,0,0,,,,,,,,,,,,,,,,,,,,,,,,,,,,,,,,,,,,,,,,594.201861502137,,,U,174,triangle,0.0008345060050487518,,,,,1,0,,,1,592.6874728770927,,,,,590.4453762881458,591.9353806208819,591.9353806208819,591.9353806208819,k,0.729781009722501,,,,,,,,,,,,,,,,,,,,,,,,,,,,,,,,,,,,,,,,,,,,49664,2022-11-29_14h00.37.434,vts_reward_expectancy_bt_OFFLINE,2022.2.4,59.68464577547526,
,,,,,,,,,,,,,,,,,,,,,,,,,,0,0,0,0,1,0,1,0,,,,,,,,,,,,,,,,,,,,,,,,,,,,,,,,,,,,,,,,598.7393216472119,,,F,181,star,0.016197585966438055,,,,,1,0,,,1,597.2405182560906,598.7393216472119,,,,595.1982307410799,596.6724674622528,596.6724674622528,596.6724674622528,k,0.5374877112917602,,,,,,,,,,,,,,,,,,,,,,,,,,,,,,,,,,,,,,,,,,,,49664,2022-11-29_14h00.37.434,vts_reward_expectancy_bt_OFFLINE,2022.2.4,59.68464577547526,
,,,,,,,,,,,,,,,,,,,,,,,,,,0,0,0,0,2,0,2,0,,,,,,,,,,,,,,,,,,,,,,,,,,,,,,,,,,,,,,,,603.7095376821235,,,B,132,hexagon,0.0004856470040977001,,,,,1,0,,,1,602.1933713541366,,,,,599.735833637882,601.2238723360933,601.2238723360933,601.2238723360933,j,0.9469236647710204,,,,,,,,,,,,,,,,,,,,,,,,,,,,,,,,,,,,,,,,,,,,49664,2022-11-29_14h00.37.434,vts_reward_expectancy_bt_OFFLINE,2022.2.4,59.68464577547526,
,,,,,,,,,,,,,,,,,,,,,,,,,,0,0,0,0,3,0,3,0,,,,,,,,,,,,,,,,,,,,,,,,,,,,,,,,,,,,,,,,608.3467545569874,,,D,167,circle,0.018164894077926874,,,,,1,0,,,1,606.830416820012,,,,,604.7056423639879,606.176685824059,606.176685824059,606.176685824059,k,0.6297096111811697,,,,,,,,,,,,,,,,,,,,,,,,,,,,,,,,,,,,,,,,,,,,49664,2022-11-29_14h00.37.434,vts_reward_expectancy_bt_OFFLINE,2022.2.4,59.68464577547526,
,,,,,,,,,,,,,,,,,,,,,,,,,,0,0,0,0,4,0,4,0,,,,,,,,,,,,,,,,,,,,,,,,,,,,,,,,,,,,,,,,612.782451717183,,,W,125,triangle,0.0005832132883369923,,,,,1,0,,,1,611.2817852832377,,,,,609.3248077342287,610.8132289019413,610.8132289019413,610.8132289019413,j,0.448023967910558,,,,,,,,,,,,,,,,,,,,,,,,,,,,,,,,,,,,,,,,,,,,49664,2022-11-29_14h00.37.434,vts_reward_expectancy_bt_OFFLINE,2022.2.4,59.68464577547526,
,,,,,,,,,,,,,,,,,,,,,,,,,,0,0,0,0,5,0,5,0,,,,,,,,,,,,,,,,,,,,,,,,,,,,,,,,,,,,,,,,617.3035195749253,,,Y,160,circle,0.002941200975328684,,,,,1,0,,,1,615.8033923730254,617.3035195749253,,,,613.7787950681522,615.2666435888968,615.2666435888968,615.2666435888968,k,0.5067719188518822,,,,,,,,,,,,,,,,,,,,,,,,,,,,,,,,,,,,,,,,,,,,49664,2022-11-29_14h00.37.434,vts_reward_expectancy_bt_OFFLINE,2022.2.4,59.68464577547526,
,,,,,,,,,,,,,,,,,,,,,,,,,,0,0,0,0,6,0,6,0,,,,,,,,,,,,,,,,,,,,,,,,,,,,,,,,,,,,,,,,621.8905524201691,,,H,146,star,0.0006387596949934959,,,,,1,0,,,1,620.3887994820252,,,,,618.297953590285,619.786683794111,619.786683794111,619.786683794111,j,0.575951823964715,,,,,,,,,,,,,,,,,,,,,,,,,,,,,,,,,,,,,,,,,,,,49664,2022-11-29_14h00.37.434,vts_reward_expectancy_bt_OFFLINE,2022.2.4,59.68464577547526,
,,,,,,,,,,,,,,,,,,,,,,,,,,0,0,0,0,7,0,7,0,,,,,,,,,,,,,,,,,,,,,,,,,,,,,,,,,,,,,,,,626.525393076241,,,S,139,hexagon,0.0009348699823021889,,,,,1,0,,,1,625.0091138179414,,,,,622.8842971632257,624.3743828991428,624.3743828991428,624.3743828991428,j,0.6131394021213055,,,,,,,,,,,,,,,,,,,,,,,,,,,,,,,,,,,,,,,,,,,,49664,2022-11-29_14h00.37.434,vts_reward_expectancy_bt_OFFLINE,2022.2.4,59.68464577547526,
,,,,,,,,,,,,,,,,,,,,,,,,,,0,0,0,0,8,0,8,0,,,,,,,,,,,,,,,,,,,,,,,,,,,,,,,,,,,,,,,,631.2455342290923,,,U,174,circle,0.002595143858343363,,,,,1,0,,,1,629.729383291211,,,,,627.5054276189767,628.9949991190806,628.9949991190806,628.9949991190806,k,0.705868505872786,,,,,,,,,,,,,,,,,,,,,,,,,,,,,,,,,,,,,,,,,,,,49664,2022-11-29_14h00.37.434,vts_reward_expectancy_bt_OFFLINE,2022.2.4,59.68464577547526,
,,,,,,,,,,,,,,,,,,,,,,,,,,0,0,0,0,9,0,9,0,,,,,,,,,,,,,,,,,,,,,,,,,,,,,,,,,,,,,,,,635.7649105731398,,,F,181,hexagon,0.0027445140294730663,,,,,1,0,,,1,634.2505376399495,,,,,632.2253492251039,633.7139438991435,633.7139438991435,633.7139438991435,k,0.5103841535747051,,,,,,,,,,,,,,,,,,,,,,,,,,,,,,,,,,,,,,,,,,,,49664,2022-11-29_14h00.37.434,vts_reward_expectancy_bt_OFFLINE,2022.2.4,59.68464577547526,
,,,,,,,,,,,,,,,,,,,,,,,,,,,,,,,,,,0,0,0,0,0,0,0,0,,,,,,,,,,,,,,,,,,,,,,,,,,,,0,792,,,680.5320303691551,,,B,167,star,0.0009395945817232132,,,,,1,0,,,2,,,,,,,,,,,,675.9587152702734,675.9587152702734,675.9587152702734,675.9587152702734,677.4470657911152,677.4470657911152,677.4470657911152,677.4470657911152,677.4628196889535,677.4628196889535,677.4628196889535,677.4628196889535,-1,letter,NA,d,1.5426352103240788,vtsPrac,679.018874750007,,,,,,,,,,,,,,,,,,,,,,,,,49664,2022-11-29_14h00.37.434,vts_reward_expectancy_bt_OFFLINE,2022.2.4,59.68464577547526,
,,,,,,,,,,,,,,,,,,,,,,,,,,,,,,,,,,0,0,0,0,1,0,1,0,,,,,,,,,,,,,,,,,,,,,,,,,,,,0,792,,,685.2185290078633,,,D,181,hexagon,0.015987475868314505,,,,,1,0,,,2,,,,,,,,,,,,681.5271524861455,681.5271524861455,681.5271524861455,681.5271524861455,683.0010646912269,683.0010646912269,683.0010646912269,683.0010646912269,683.0335303260945,683.0335303260945,683.0335303260945,683.0335303260945,repeat,letter,lettRpt,d,0.6799410041421652,vtsPrac,683.7024167343043,,,,,,,,,,,,,,,,,,,,,,,,,49664,2022-11-29_14h00.37.434,vts_reward_expectancy_bt_OFFLINE,2022.2.4,59.68464577547526,
,,,,,,,,,,,,,,,,,,,,,,,,,,,,,,,,,,0,0,0,0,2,0,2,0,,,,,,,,,,,,,,,,,,,,,,,,,,,,0,792,,,689.721001251135,,690.2212188229896,U,132,circle,0.018096715211868286,,,,,1,0,,,2,,,,,,,,,,,,686.2152013941668,686.2152013941668,686.2152013941668,686.2152013941668,687.6879375632852,687.6879375632852,687.6879375632852,687.6879375632852,687.7205389351584,687.7205389351584,687.7205389351584,687.7205389351584,switch,number,numSwt,j,0.5045723100192845,vtsPrac,688.222617871128,689.721001251135,,,,,,,,,,,,,,,,,,,,,,,,49664,2022-11-29_14h00.37.434,vts_reward_expectancy_bt_OFFLINE,2022.2.4,59.68464577547526,
,,,,,,,,,,,,,,,,,,,,,,,,,,,,,,,,,,0,0,0,0,3,0,3,0,,,,,,,,,,,,,,,,,,,,,,,,,,,,0,792,,,694.8087444361299,,,F,139,hexagon,0.000370686873793602,,,,,1,0,,,2,,,,,,,,,,,,690.7181022032164,690.7181022032164,690.7181022032164,690.7181022032164,692.2078086640686,692.2078086640686,692.2078086640686,692.2078086640686,692.2235876801424,692.2235876801424,692.2235876801424,692.2235876801424,repeat,number,numRpt,j,1.059472044929862,vtsPrac,693.2929612603039,,,,,,,,,,,,,,,,,,,,,,,,,49664,2022-11-29_14h00.37.434,vts_reward_expectancy_bt_OFFLINE,2022.2.4,59.68464577547526,
,,,,,,,,,,,,,,,,,,,,,,,,,,,,,,,,,,0,0,0,0,4,0,4,0,,,,,,,,,,,,,,,,,,,,,,,,,,,,0,792,,,699.1947546750307,,,B,167,star,0.017707567662000656,,,,,1,0,,,2,,,,,,,,,,,,695.804927864112,695.804927864112,695.804927864112,695.804927864112,697.2781380731612,697.2781380731612,697.2781380731612,697.2781380731612,697.3117528609,697.3117528609,697.3117528609,697.3117528609,switch,letter,lettSwt,d,0.38799464888870716,vtsPrac,697.6958094551228,699.1947546750307,,,,,,,,,,,,,,,,,,,,,,,,49664,2022-11-29_14h00.37.434,vts_reward_expectancy_bt_OFFLINE,2022.2.4,59.68464577547526,
,,,,,,,,,,,,,,,,,,,,,,,,,,,,,,,,,,0,0,0,0,5,0,5,0,,,,,,,,,,,,,,,,,,,,,,,,,,,,0,792,,,703.8825292610563,,,D,181,circle,0.0005225110799074173,,,,,1,0,,,2,,,,,,,,,,,,700.1909531080164,700.1909531080164,700.1909531080164,700.1909531080164,701.6788310110569,701.6788310110569,701.6788310110569,701.6788310110569,701.696781123057,701.696781123057,701.696781123057,701.696781123057,repeat,letter,lettRpt,d,0.6554505610838532,vtsPrac,702.3663859330118,,,,,,,,,,,,,,,,,,,,,,,,,49664,2022-11-29_14h00.37.434,vts_reward_expectancy_bt_OFFLINE,2022.2.4,59.68464577547526,
,,,,,,,,,,,,,,,,,,,,,,,,,,,,,,,,,,0,0,0,0,6,0,6,0,,,,,,,,,,,,,,,,,,,,,,,,,,,,0,792,,,708.2852326952852,,708.7851799121127,U,132,hexagon,0.018089728895574808,,,,,1,0,,,2,,,,,,,,,,,,704.8785446351394,704.8785446351394,704.8785446351394,704.8785446351394,706.349075185135,706.349075185135,706.349075185135,706.349075185135,706.383117008023,706.383117008023,706.383117008023,706.383117008023,switch,number,numSwt,j,0.4179782420396805,vtsPrac,706.7863130150363,708.2852326952852,,,,,,,,,,,,,,,,,,,,,,,,49664,2022-11-29_14h00.37.434,vts_reward_expectancy_bt_OFFLINE,2022.2.4,59.68464577547526,
,,,,,,,,,,,,,,,,,,,,,,,,,,,,,,,,,,0,0,0,0,7,0,7,0,,,,,,,,,,,,,,,,,,,,,,,,,,,,0,792,,,713.1225482420996,,,F,139,star,0.0005941647104918957,,,,,1,0,,,2,,,,,,,,,,,,709.2813441702165,709.2813441702165,709.2813441702165,709.2813441702165,710.7692482280545,710.7692482280545,710.7692482280545,710.7692482280545,710.7870994629338,710.7870994629338,710.7870994629338,710.7870994629338,repeat,number,numRpt,j,0.8243315317668021,vtsPrac,711.621609129943,,,,,,,,,,,,,,,,,,,,,,,,,49664,2022-11-29_14h00.37.434,vts_reward_expectancy_bt_OFFLINE,2022.2.4,59.68464577547526,
,,,,,,,,,,,,,,,,,,,,,,,,,,,,,,,,,,0,0,0,0,8,0,8,0,,,,,,,,,,,,,,,,,,,,,,,,,,,,0,792,,,717.7087127128616,,,D,181,circle,0.002158427145332098,,,,,1,0,,,2,,,,,,,,,,,,714.1188186472282,714.1188186472282,714.1188186472282,714.1188186472282,715.6071438798681,715.6071438798681,715.6071438798681,715.6071438798681,715.6235963013023,715.6235963013023,715.6235963013023,715.6235963013023,repeat,number,numRpt,k,0.576867968775332,vtsPrac,716.2086139800958,,,,,,,,,,,,,,,,,,,,,,,,,49664,2022-11-29_14h00.37.434,vts_reward_expectancy_bt_OFFLINE,2022.2.4,59.68464577547526,
,,,,,,,,,,,,,,,,,,,,,,,,,,,,,,,,,,0,0,0,0,9,0,9,0,,,,,,,,,,,,,,,,,,,,,,,,,,,,0,792,,,722.2119247531518,,,S,167,star,0.002743316814303398,,,,,1,0,,,2,,,,,,,,,,,,718.7051586229354,718.7051586229354,718.7051586229354,718.7051586229354,720.1929172230884,720.1929172230884,720.1929172230884,720.1929172230884,720.2106629800983,720.2106629800983,720.2106629800983,720.2106629800983,switch,letter,lettSwt,f,0.4920164756476879,vtsPrac,720.7122807232663,,,,,,,,,,,,,,,,,,,,,,,,,49664,2022-11-29_14h00.37.434,vts_reward_expectancy_bt_OFFLINE,2022.2.4,59.68464577547526,
,,,,,,,,,,,,,,,,,,,,,,,,,,,,,,,,,,0,0,0,0,10,0,10,0,,,,,,,,,,,,,,,,,,,,,,,,,,,,0,792,,,726.7662272690795,,,W,146,hexagon,0.0026499470695853233,,,,,1,0,,,2,,,,,,,,,,,,723.2085490520112,723.2085490520112,723.2085490520112,723.2085490520112,724.6963982288726,724.6963982288726,724.6963982288726,724.6963982288726,724.7143206051551,724.7143206051551,724.7143206051551,724.7143206051551,repeat,letter,lettRpt,f,0.5451187016442418,vtsPrac,725.2654228298925,,,,,,,,,,,,,,,,,,,,,,,,,49664,2022-11-29_14h00.37.434,vts_reward_expectancy_bt_OFFLINE,2022.2.4,59.68464577547526,
,,,,,,,,,,,,,,,,,,,,,,,,,,,,,,,,,,0,0,0,0,11,0,11,0,,,,,,,,,,,,,,,,,,,,,,,,,,,,0,792,,,731.3351077800617,,,Y,160,triangle,0.0029430189169943333,,,,,1,0,,,2,,,,,,,,,,,,727.7621581801213,727.7621581801213,727.7621581801213,727.7621581801213,729.2499308739789,729.2499308739789,729.2499308739789,729.2499308739789,729.2678495128639,729.2678495128639,729.2678495128639,729.2678495128639,switch,number,numSwt,k,0.5477665201760828,vtsPrac,729.8192140599713,,,,,,,,,,,,,,,,,,,,,,,,,49664,2022-11-29_14h00.37.434,vts_reward_expectancy_bt_OFFLINE,2022.2.4,59.68464577547526,
,,,,,,,,,,,,,,,,,,,,,,,,,,,,,,,,,,0,0,0,0,12,0,12,0,,,,,,,,,,,,,,,,,,,,,,,,,,,,0,792,,,736.2385324188508,,,B,146,triangle,0.003092365339398384,,,,,1,0,,,2,,,,,,,,,,,,732.3150746058673,732.3150746058673,732.3150746058673,732.3150746058673,733.8033073581755,733.8033073581755,733.8033073581755,733.8033073581755,733.8212271779776,733.8212271779776,733.8212271779776,733.8212271779776,repeat,number,numRpt,j,0.8989181602373719,vtsPrac,734.7224122108892,,,,,,,,,,,,,,,,,,,,,,,,,49664,2022-11-29_14h00.37.434,vts_reward_expectancy_bt_OFFLINE,2022.2.4,59.68464577547526,
,,,,,,,,,,,,,,,,,,,,,,,,,,,,,,,,,,0,0,0,0,13,0,13,0,,,,,,,,,,,,,,,,,,,,,,,,,,,,0,792,,,740.7921113069169,,,W,167,circle,0.018114109057933092,,,,,1,0,,,2,,,,,,,,,,,,737.2347965412773,737.2347965412773,737.2347965412773,737.2347965412773,738.707049514167,738.707049514167,738.707049514167,738.707049514167,738.7410616390407,738.7410616390407,738.7410616390407,738.7410616390407,switch,letter,lettSwt,f,0.5409050160087645,vtsPrac,739.2761853388511,,,,,,,,,,,,,,,,,,,,,,,,,49664,2022-11-29_14h00.37.434,vts_reward_expectancy_bt_OFFLINE,2022.2.4,59.68464577547526,
,,,,,,,,,,,,,,,,,,,,,,,,,,,,,,,,,,0,0,0,0,14,0,14,0,,,,,,,,,,,,,,,,,,,,,,,,,,,,0,792,,,745.3111379081383,,745.8114665942267,D,160,circle,0.017606599256396294,,,,,1,0,,,2,,,,,,,,,,,,741.7879054378718,741.7879054378718,741.7879054378718,741.7879054378718,743.2603941522539,743.2603941522539,743.2603941522539,743.2603941522539,743.2943569100462,743.2943569100462,743.2943569100462,743.2943569100462,switch,number,numSwt,k,0.5205843709409237,vtsPrac,743.8127486500889,745.3111379081383,,,,,,,,,,,,,,,,,,,,,,,,49664,2022-11-29_14h00.37.434,vts_reward_expectancy_bt_OFFLINE,2022.2.4,59.68464577547526,
,,,,,,,,,,,,,,,,,,,,,,,,,,,,,,,,,,0,0,0,0,15,0,15,0,,,,,,,,,,,,,,,,,,,,,,,,,,,,0,792,,,749.7984618651681,,,Y,181,triangle,0.0006172508001327515,,,,,1,0,,,2,,,,,,,,,,,,746.3079148898832,746.3079148898832,746.3079148898832,746.3079148898832,747.7980254790746,747.7980254790746,747.7980254790746,747.7980254790746,747.81398596894,747.81398596894,747.81398596894,747.81398596894,switch,letter,lettSwt,f,0.4613132532685995,vtsPrac,748.2831888869405,,,,,,,,,,,,,,,,,,,,,,,,,49664,2022-11-29_14h00.37.434,vts_reward_expectancy_bt_OFFLINE,2022.2.4,59.68464577547526,
,,,,,,,,,,,,,,,,,,,,,,,,,,,,,,,,,,0,0,0,0,16,0,16,0,,,,,,,,,,,,,,,,,,,,,,,,,,,,0,792,,,754.8849111199379,,,S,181,star,0.01772112026810646,,,,,0,0,,,2,,,,,,,,,,,,750.794926804956,750.794926804956,750.794926804956,750.794926804956,752.2681141151115,752.2681141151115,752.2681141151115,752.2681141151115,752.3018677122891,752.3018677122891,752.3018677122891,752.3018677122891,switch,number,NA,j,1.0773491766303778,vtsPrac,753.3721534600481,,,,,,,,,,,,,,,,,,,,,,,,,49664,2022-11-29_14h00.37.434,vts_reward_expectancy_bt_OFFLINE,2022.2.4,59.68464577547526,
,,,,,,,,,,,,,,,,,,,,,,,,,,,,,,,,,,0,0,0,0,17,0,17,0,,,,,,,,,,,,,,,,,,,,,,,,,,,,0,792,,,759.505711380858,,,F,139,hexagon,0.01671786978840828,,,,,1,1,,,2,,,,,,,,,,,,755.8815614101477,755.8815614101477,755.8815614101477,755.8815614101477,757.3555715521798,757.3555715521798,757.3555715521798,757.3555715521798,757.387432880234,757.387432880234,757.387432880234,757.387432880234,repeat,number,numRpt,j,0.6013519000262022,vtsPrac,758.0032531749457,,,,,,,,,,,,,,,,,,,,,,,,,49664,2022-11-29_14h00.37.434,vts_reward_expectancy_bt_OFFLINE,2022.2.4,59.68464577547526,
,,,,,,,,,,,,,,,,,,,,,,,,,,,,,,,,,,0,0,0,0,18,0,18,0,,,,,,,,,,,,,,,,,,,,,,,,,,,,0,792,,,763.9253271492198,,764.425419641193,B,167,triangle,0.013998499140143394,,,,,1,0,,,2,,,,,,,,,,,,760.5014464859851,760.5014464859851,760.5014464859851,760.5014464859851,761.9746433198452,761.9746433198452,761.9746433198452,761.9746433198452,762.008606639225,762.008606639225,762.008606639225,762.008606639225,repeat,number,numRpt,k,0.426456440705806,vtsPrac,762.4266957119107,763.9253271492198,,,,,,,,,,,,,,,,,,,,,,,,49664,2022-11-29_14h00.37.434,vts_reward_expectancy_bt_OFFLINE,2022.2.4,59.68464577547526,
,,,,,,,,,,,,,,,,,,,,,,,,,,,,,,,,,,0,0,0,0,19,0,19,0,,,,,,,,,,,,,,,,,,,,,,,,,,,,0,792,,,768.8789028380997,,769.3789801611565,U,132,star,0.0005215960554778576,,,,,1,0,,,2,,,,,,,,,,,,764.9210290820338,764.9210290820338,764.9210290820338,764.9210290820338,766.4091823739,766.4091823739,766.4091823739,766.4091823739,766.4270032960922,766.4270032960922,766.4270032960922,766.4270032960922,repeat,number,numRpt,j,0.9533882797695696,vtsPrac,767.3806487638503,768.8789028380997,,,,,,,,,,,,,,,,,,,,,,,,49664,2022-11-29_14h00.37.434,vts_reward_expectancy_bt_OFFLINE,2022.2.4,59.68464577547526,
,,,,,,,,,,,,,,,,,,,,,,,,,,,,,,,,,,0,0,0,0,20,0,20,0,,,,,,,,,,,,,,,,,,,,,,,,,,,,0,792,,,773.4323523789644,,,F,167,triangle,0.00011345697566866875,,,,,1,0,,,2,,,,,,,,,,,,769.8750003650784,769.8750003650784,769.8750003650784,769.8750003650784,771.3627444002777,771.3627444002777,771.3627444002777,771.3627444002777,771.3808983671479,771.3808983671479,771.3808983671479,771.3808983671479,repeat,number,numRpt,k,0.533911301754415,vtsPrac,771.9180868472904,,,,,,,,,,,,,,,,,,,,,,,,,49664,2022-11-29_14h00.37.434,vts_reward_expectancy_bt_OFFLINE,2022.2.4,59.68464577547526,
,,,,,,,,,,,,,,,,,,,,,,,,,,,,,,,,,,0,0,0,0,21,0,21,0,,,,,,,,,,,,,,,,,,,,,,,,,,,,0,792,,,777.935833889991,,,S,174,hexagon,0.016745693050324917,,,,,1,0,,,2,,,,,,,,,,,,774.4283071942627,774.4283071942627,774.4283071942627,774.4283071942627,775.9007029230706,775.9007029230706,775.9007029230706,775.9007029230706,775.9343224018812,775.9343224018812,775.9343224018812,775.9343224018812,switch,letter,lettSwt,f,0.5080545772798359,vtsPrac,776.4356303359382,,,,,,,,,,,,,,,,,,,,,,,,,49664,2022-11-29_14h00.37.434,vts_reward_expectancy_bt_OFFLINE,2022.2.4,59.68464577547526,
,,,,,,,,,,,,,,,,,,,,,,,,,,,,,,,,,,0,0,0,0,22,0,22,0,,,,,,,,,,,,,,,,,,,,,,,,,,,,0,792,,,782.4733795388602,,,U,181,hexagon,0.002639853861182928,,,,,1,0,,,2,,,,,,,,,,,,778.9316812180914,778.9316812180914,778.9316812180914,778.9316812180914,780.4200095399283,780.4200095399283,780.4200095399283,780.4200095399283,780.4377648131922,780.4377648131922,780.4377648131922,780.4377648131922,repeat,letter,lettRpt,f,0.5333396829664707,vtsPrac,780.9723796350881,,,,,,,,,,,,,,,,,,,,,,,,,49664,2022-11-29_14h00.37.434,vts_reward_expectancy_bt_OFFLINE,2022.2.4,59.68464577547526,
,,,,,,,,,,,,,,,,,,,,,,,,,,,,,,,,,,0,0,0,0,23,0,23,0,,,,,,,,,,,,,,,,,,,,,,,,,,,,0,792,,,787.1435193559155,,,B,125,star,0.0022904998622834682,,,,,1,0,,,2,,,,,,,,,,,,783.4688540780917,783.4688540780917,783.4688540780917,783.4688540780917,784.9578603710979,784.9578603710979,784.9578603710979,784.9578603710979,784.974365578033,784.974365578033,784.974365578033,784.974365578033,repeat,letter,lettRpt,d,0.6537022781558335,vtsPrac,785.6424838048406,,,,,,,,,,,,,,,,,,,,,,,,,49664,2022-11-29_14h00.37.434,vts_reward_expectancy_bt_OFFLINE,2022.2.4,59.68464577547526,
,,,,,,,,,,,,,,,,,,,,,,,,,,,,,,,,,,0,0,0,0,24,0,24,0,,,,,,,,,,,,,,,,,,,,,,,,,,,,0,792,,,791.8638751050457,,,F,160,hexagon,0.002161703072488308,,,,,1,0,,,2,,,,,,,,,,,,788.1385688609444,788.1385688609444,788.1385688609444,788.1385688609444,789.6276952270418,789.6276952270418,789.6276952270418,789.6276952270418,789.6444814009592,789.6444814009592,789.6444814009592,789.6444814009592,repeat,letter,lettRpt,d,0.7082272828556597,vtsPrac,790.3626750549302,,,,,,,,,,,,,,,,,,,,,,,,,49664,2022-11-29_14h00.37.434,vts_reward_expectancy_bt_OFFLINE,2022.2.4,59.68464577547526,
,,,,,,,,,,,,,,,,,,,,,,,,,,,,,,,,,,0,0,0,0,25,0,25,0,,,,,,,,,,,,,,,,,,,,,,,,,,,,0,792,,,796.3478712802753,,,W,125,circle,0.001346298959106207,,,,,1,0,,,2,,,,,,,,,,,,792.8584221242927,792.8584221242927,792.8584221242927,792.8584221242927,794.3474893341772,794.3474893341772,794.3474893341772,794.3474893341772,794.364806949161,794.364806949161,794.364806949161,794.364806949161,switch,number,numSwt,j,0.47807535994797945,vtsPrac,794.8496672511101,796.3478712802753,,,,,,,,,,,,,,,,,,,,,,,,49664,2022-11-29_14h00.37.434,vts_reward_expectancy_bt_OFFLINE,2022.2.4,59.68464577547526,
