LTriangleOpac,LCircleOpac,LHexagonOpac,LStarOpac,RTriangleOpac,RCircleOpac,RHexagonOpac,RStarOpac,LShape_ID,RShape_ID,training_blocks.thisRepN,training_blocks.thisTrialN,training_blocks.thisN,training_blocks.thisIndex,training.thisRepN,training.thisTrialN,training.thisN,training.thisIndex,task1_prac_redo.thisRepN,task1_prac_redo.thisTrialN,task1_prac_redo.thisN,task1_prac_redo.thisIndex,task1_prac_trials.thisRepN,task1_prac_trials.thisTrialN,task1_prac_trials.thisN,task1_prac_trials.thisIndex,task2_prac_redo.thisRepN,task2_prac_redo.thisTrialN,task2_prac_redo.thisN,task2_prac_redo.thisIndex,task2_praac_trials.thisRepN,task2_praac_trials.thisTrialN,task2_praac_trials.thisN,task2_praac_trials.thisIndex,vts_prac_redo.thisRepN,vts_prac_redo.thisTrialN,vts_prac_redo.thisN,vts_prac_redo.thisIndex,vts_practice_trials.thisRepN,vts_practice_trials.thisTrialN,vts_practice_trials.thisN,vts_practice_trials.thisIndex,trials_norew.thisRepN,trials_norew.thisTrialN,trials_norew.thisN,trials_norew.thisIndex,block.thisRepN,block.thisTrialN,block.thisN,block.thisIndex,trials_rew.thisRepN,trials_rew.thisTrialN,trials_rew.thisN,trials_rew.thisIndex,key_resp.started,key_resp.keys,key_resp.rt,left_circle.started,right_circle.started,left_triangle.started,right_triangle.started,left_star.started,right_star.started,left_hexagon.started,right_hexagon.started,training_fix.started,training_resp.started,training_resp.keys,training_resp.rt,points_trial,points_cumul,trainBlock,training_feedback_txt.started,fix.started,training_feedback_txt.stopped,curr_topStim,curr_bottStim,curr_shape,ISI.started,tgt_fix_prac1.started,top_target_prac1.started,bott_target_prac1.started,target_resp_prac1.started,acc,E1,target_resp_prac1.keys,target_resp_prac1.rt,pracBlock,prac_fback_text.started,tgt_fix_prac2.started,top_target_prac2.started,bott_target_prac2.started,target_resp_prac2.started,target_resp_prac2.keys,target_resp_prac2.rt,prac_fback_text.stopped,star.started,hegagon.started,triangle.started,circle.started,star.stopped,hegagon.stopped,triangle.stopped,circle.stopped,top_target.started,tgt_fix.started,bot_target.started,target_resp.started,top_target.stopped,tgt_fix.stopped,bot_target.stopped,target_resp.stopped,alt,task,condition,target_resp.keys,rewCond,vts_fback.started,vts_fback.stopped,fix.stopped,target_resp.rt,blockNum,norew_fback.started,norew_fback.stopped,key_resp_2.keys,key_resp_2.rt,rewExpectancy,feedbk_text.started,feedbk_text.stopped,text_3.started,debrief.started,text_3.stopped,button.started,debrief.index,debrief.itemText,debrief.type,debrief.granularity,debrief.font,debrief.markerColor,debrief.response,debrief.rt,button.numClicks,button.timesOn,button.timesOff,participant,date,expName,psychopyVersion,frameRate,
,,,,,,,,,,,,,,,,,,,,,,,,,,,,,,,,,,,,,,,,,,,,,,,,,,,,,,486.9679731770302,space,35.9674607719644,,,,,,,,,,,,,,,,,,,,,,,,,,,,,,,,,,,,,,,,,,,,,,,,,,,,,,,,,,,,,,,,,,,,,,,,,,,,,,,,,,,,,,,,51930,2022-12-01_11h15.29.442,vts_reward_expectancy_bt_OFFLINE,2022.2.4,59.974684213751196,
0,0,0,1,0,0,1,0,star,hexagon,0,0,0,0,0,0,0,11,,,,,,,,,,,,,,,,,,,,,,,,,,,,,,,,,,,,,,,,557.592998742999,557.592998742999,557.592998742999,557.592998742999,557.592998742999,557.592998742999,557.592998742999,557.592998742999,557.592998742999,557.592998742999,a,3.917669487942476,1,1,0,561.5351377190091,563.0367737360066,,,,,,,,,,,,,,,,,,,,,,,,,,,,,,,,,,,,,,,,,,,,,,,,,,,,,,,,,,,,,,,,,,,,,,,51930,2022-12-01_11h15.29.442,vts_reward_expectancy_bt_OFFLINE,2022.2.4,59.974684213751196,
0,0,1,0,1,0,0,0,hexagon,triangle,0,0,0,0,0,1,1,6,,,,,,,,,,,,,,,,,,,,,,,,,,,,,,,,,,,,,,,,563.5374971560086,563.5374971560086,563.5374971560086,563.5374971560086,563.5374971560086,563.5374971560086,563.5374971560086,563.5374971560086,563.5374971560086,563.5374971560086,a,2.4868553869309835,1,2,0,566.0568528360454,567.5585267590359,,,,,,,,,,,,,,,,,,,,,,,,,,,,,,,,,,,,,,,,,,,,,,,,,,,,,,,,,,,,,,,,,,,,,,,51930,2022-12-01_11h15.29.442,vts_reward_expectancy_bt_OFFLINE,2022.2.4,59.974684213751196,
0,0,1,0,0,0,0,1,hexagon,star,0,0,0,0,0,2,2,8,,,,,,,,,,,,,,,,,,,,,,,,,,,,,,,,,,,,,,,,568.0590340750059,568.0590340750059,568.0590340750059,568.0590340750059,568.0590340750059,568.0590340750059,568.0590340750059,568.0590340750059,568.0590340750059,568.0590340750059,l,3.195704391982872,10,12,0,571.279401516018,572.7809960950399,,,,,,,,,,,,,,,,,,,,,,,,,,,,,,,,,,,,,,,,,,,,,,,,,,,,,,,,,,,,,,,,,,,,,,,51930,2022-12-01_11h15.29.442,vts_reward_expectancy_bt_OFFLINE,2022.2.4,59.974684213751196,
1,0,0,0,0,1,0,0,triangle,circle,0,0,0,0,0,3,3,0,,,,,,,,,,,,,,,,,,,,,,,,,,,,,,,,,,,,,,,,573.281540586031,573.281540586031,573.281540586031,573.281540586031,573.281540586031,573.281540586031,573.281540586031,573.281540586031,573.281540586031,573.281540586031,l,3.037998426996637,1,13,0,576.3515711660148,577.853218555043,,,,,,,,,,,,,,,,,,,,,,,,,,,,,,,,,,,,,,,,,,,,,,,,,,,,,,,,,,,,,,,,,,,,,,,51930,2022-12-01_11h15.29.442,vts_reward_expectancy_bt_OFFLINE,2022.2.4,59.974684213751196,
0,1,0,0,0,0,0,1,circle,star,0,0,0,0,0,4,4,5,,,,,,,,,,,,,,,,,,,,,,,,,,,,,,,,,,,,,,,,578.3536794800311,578.3536794800311,578.3536794800311,578.3536794800311,578.3536794800311,578.3536794800311,578.3536794800311,578.3536794800311,578.3536794800311,578.3536794800311,l,1.1089994399808347,10,23,0,579.4883002150455,580.9901421579998,,,,,,,,,,,,,,,,,,,,,,,,,,,,,,,,,,,,,,,,,,,,,,,,,,,,,,,,,,,,,,,,,,,,,,,51930,2022-12-01_11h15.29.442,vts_reward_expectancy_bt_OFFLINE,2022.2.4,59.974684213751196,
0,1,0,0,0,0,1,0,circle,hexagon,0,0,0,0,0,5,5,4,,,,,,,,,,,,,,,,,,,,,,,,,,,,,,,,,,,,,,,,581.4906009840197,581.4906009840197,581.4906009840197,581.4906009840197,581.4906009840197,581.4906009840197,581.4906009840197,581.4906009840197,581.4906009840197,581.4906009840197,a,1.0123269689502195,10,33,0,582.5254636300378,584.0267210570164,,,,,,,,,,,,,,,,,,,,,,,,,,,,,,,,,,,,,,,,,,,,,,,,,,,,,,,,,,,,,,,,,,,,,,,51930,2022-12-01_11h15.29.442,vts_reward_expectancy_bt_OFFLINE,2022.2.4,59.974684213751196,
1,0,0,0,0,0,0,1,triangle,star,0,0,0,0,0,6,6,2,,,,,,,,,,,,,,,,,,,,,,,,,,,,,,,,,,,,,,,,584.5274313500267,584.5274313500267,584.5274313500267,584.5274313500267,584.5274313500267,584.5274313500267,584.5274313500267,584.5274313500267,584.5274313500267,584.5274313500267,l,0.9849512479850091,1,34,0,585.5283359190216,587.0302255240385,,,,,,,,,,,,,,,,,,,,,,,,,,,,,,,,,,,,,,,,,,,,,,,,,,,,,,,,,,,,,,,,,,,,,,,51930,2022-12-01_11h15.29.442,vts_reward_expectancy_bt_OFFLINE,2022.2.4,59.974684213751196,
0,0,0,1,1,0,0,0,star,triangle,0,0,0,0,0,7,7,9,,,,,,,,,,,,,,,,,,,,,,,,,,,,,,,,,,,,,,,,587.5308378720074,587.5308378720074,587.5308378720074,587.5308378720074,587.5308378720074,587.5308378720074,587.5308378720074,587.5308378720074,587.5308378720074,587.5308378720074,l,2.5249734109384008,10,44,0,590.083592199022,591.5851911290083,,,,,,,,,,,,,,,,,,,,,,,,,,,,,,,,,,,,,,,,,,,,,,,,,,,,,,,,,,,,,,,,,,,,,,,51930,2022-12-01_11h15.29.442,vts_reward_expectancy_bt_OFFLINE,2022.2.4,59.974684213751196,
0,0,0,1,0,1,0,0,star ,circle,0,0,0,0,0,8,8,10,,,,,,,,,,,,,,,,,,,,,,,,,,,,,,,,,,,,,,,,592.0859770190436,592.0859770190436,592.0859770190436,592.0859770190436,592.0859770190436,592.0859770190436,592.0859770190436,592.0859770190436,592.0859770190436,592.0859770190436,a,1.0737798719783314,10,54,0,593.1868252020213,594.6885726670153,,,,,,,,,,,,,,,,,,,,,,,,,,,,,,,,,,,,,,,,,,,,,,,,,,,,,,,,,,,,,,,,,,,,,,,51930,2022-12-01_11h15.29.442,vts_reward_expectancy_bt_OFFLINE,2022.2.4,59.974684213751196,
1,0,0,0,0,0,1,0,triangle,hexagon,0,0,0,0,0,9,9,1,,,,,,,,,,,,,,,,,,,,,,,,,,,,,,,,,,,,,,,,595.1890612310381,595.1890612310381,595.1890612310381,595.1890612310381,595.1890612310381,595.1890612310381,595.1890612310381,595.1890612310381,595.1890612310381,595.1890612310381,a,1.530458342982456,10,64,0,596.7408292640466,598.2424311110517,,,,,,,,,,,,,,,,,,,,,,,,,,,,,,,,,,,,,,,,,,,,,,,,,,,,,,,,,,,,,,,,,,,,,,,51930,2022-12-01_11h15.29.442,vts_reward_expectancy_bt_OFFLINE,2022.2.4,59.974684213751196,
0,0,1,0,0,1,0,0,hexagon,circle,0,0,0,0,0,10,10,7,,,,,,,,,,,,,,,,,,,,,,,,,,,,,,,,,,,,,,,,598.743323221046,598.743323221046,598.743323221046,598.743323221046,598.743323221046,598.743323221046,598.743323221046,598.743323221046,598.743323221046,598.743323221046,l,2.0642889199079946,1,65,0,600.8284815320512,602.3300841900054,,,,,,,,,,,,,,,,,,,,,,,,,,,,,,,,,,,,,,,,,,,,,,,,,,,,,,,,,,,,,,,,,,,,,,,51930,2022-12-01_11h15.29.442,vts_reward_expectancy_bt_OFFLINE,2022.2.4,59.974684213751196,
0,1,0,0,1,0,0,0,circle,triangle,0,0,0,0,0,11,11,3,,,,,,,,,,,,,,,,,,,,,,,,,,,,,,,,,,,,,,,,602.8307200280251,602.8307200280251,602.8307200280251,602.8307200280251,602.8307200280251,602.8307200280251,602.8307200280251,602.8307200280251,602.8307200280251,602.8307200280251,l,1.304467853915412,10,75,0,604.1655134310131,605.6672894240473,,,,,,,,,,,,,,,,,,,,,,,,,,,,,,,,,,,,,,,,,,,,,,,,,,,,,,,,,,,,,,,,,,,,,,,51930,2022-12-01_11h15.29.442,vts_reward_expectancy_bt_OFFLINE,2022.2.4,59.974684213751196,
0,0,0,1,0,1,0,0,star ,circle,0,0,0,0,1,0,12,10,,,,,,,,,,,,,,,,,,,,,,,,,,,,,,,,,,,,,,,,606.1677762200125,606.1677762200125,606.1677762200125,606.1677762200125,606.1677762200125,606.1677762200125,606.1677762200125,606.1677762200125,606.1677762200125,606.1677762200125,a,1.1759201749810018,10,85,0,607.3692581430078,608.8709721949999,,,,,,,,,,,,,,,,,,,,,,,,,,,,,,,,,,,,,,,,,,,,,,,,,,,,,,,,,,,,,,,,,,,,,,,51930,2022-12-01_11h15.29.442,vts_reward_expectancy_bt_OFFLINE,2022.2.4,59.974684213751196,
1,0,0,0,0,1,0,0,triangle,circle,0,0,0,0,1,1,13,0,,,,,,,,,,,,,,,,,,,,,,,,,,,,,,,,,,,,,,,,609.3713223390514,609.3713223390514,609.3713223390514,609.3713223390514,609.3713223390514,609.3713223390514,609.3713223390514,609.3713223390514,609.3713223390514,609.3713223390514,l,1.3016296089626849,10,95,0,610.6894815069973,612.1914775550249,,,,,,,,,,,,,,,,,,,,,,,,,,,,,,,,,,,,,,,,,,,,,,,,,,,,,,,,,,,,,,,,,,,,,,,51930,2022-12-01_11h15.29.442,vts_reward_expectancy_bt_OFFLINE,2022.2.4,59.974684213751196,
1,0,0,0,0,0,0,1,triangle,star,0,0,0,0,1,2,14,2,,,,,,,,,,,,,,,,,,,,,,,,,,,,,,,,,,,,,,,,612.6917434900533,612.6917434900533,612.6917434900533,612.6917434900533,612.6917434900533,612.6917434900533,612.6917434900533,612.6917434900533,612.6917434900533,612.6917434900533,a,3.9233170969528146,10,105,0,616.646011475008,618.1478205980384,,,,,,,,,,,,,,,,,,,,,,,,,,,,,,,,,,,,,,,,,,,,,,,,,,,,,,,,,,,,,,,,,,,,,,,51930,2022-12-01_11h15.29.442,vts_reward_expectancy_bt_OFFLINE,2022.2.4,59.974684213751196,
0,1,0,0,0,0,0,1,circle,star,0,0,0,0,1,3,15,5,,,,,,,,,,,,,,,,,,,,,,,,,,,,,,,,,,,,,,,,618.6481336080469,618.6481336080469,618.6481336080469,618.6481336080469,618.6481336080469,618.6481336080469,618.6481336080469,618.6481336080469,618.6481336080469,618.6481336080469,l,2.9272883679368533,10,115,0,621.601677365019,623.1036740450072,,,,,,,,,,,,,,,,,,,,,,,,,,,,,,,,,,,,,,,,,,,,,,,,,,,,,,,,,,,,,,,,,,,,,,,51930,2022-12-01_11h15.29.442,vts_reward_expectancy_bt_OFFLINE,2022.2.4,59.974684213751196,
1,0,0,0,0,0,1,0,triangle,hexagon,0,0,0,0,1,4,16,1,,,,,,,,,,,,,,,,,,,,,,,,,,,,,,,,,,,,,,,,623.6040251660161,623.6040251660161,623.6040251660161,623.6040251660161,623.6040251660161,623.6040251660161,623.6040251660161,623.6040251660161,623.6040251660161,623.6040251660161,a,2.0271833139122464,10,125,0,625.6560258200043,627.1576467230334,,,,,,,,,,,,,,,,,,,,,,,,,,,,,,,,,,,,,,,,,,,,,,,,,,,,,,,,,,,,,,,,,,,,,,,51930,2022-12-01_11h15.29.442,vts_reward_expectancy_bt_OFFLINE,2022.2.4,59.974684213751196,
0,0,1,0,1,0,0,0,hexagon,triangle,0,0,0,0,1,5,17,6,,,,,,,,,,,,,,,,,,,,,,,,,,,,,,,,,,,,,,,,627.6582608510507,627.6582608510507,627.6582608510507,627.6582608510507,627.6582608510507,627.6582608510507,627.6582608510507,627.6582608510507,627.6582608510507,627.6582608510507,l,1.3341780490009114,10,135,0,629.0096331260283,630.5117579370271,,,,,,,,,,,,,,,,,,,,,,,,,,,,,,,,,,,,,,,,,,,,,,,,,,,,,,,,,,,,,,,,,,,,,,,51930,2022-12-01_11h15.29.442,vts_reward_expectancy_bt_OFFLINE,2022.2.4,59.974684213751196,
0,0,0,1,1,0,0,0,star,triangle,0,0,0,0,1,6,18,9,,,,,,,,,,,,,,,,,,,,,,,,,,,,,,,,,,,,,,,,631.0120683250134,631.0120683250134,631.0120683250134,631.0120683250134,631.0120683250134,631.0120683250134,631.0120683250134,631.0120683250134,631.0120683250134,631.0120683250134,l,1.7076877619838342,1,136,0,632.7471816220204,634.2489424539963,,,,,,,,,,,,,,,,,,,,,,,,,,,,,,,,,,,,,,,,,,,,,,,,,,,,,,,,,,,,,,,,,,,,,,,51930,2022-12-01_11h15.29.442,vts_reward_expectancy_bt_OFFLINE,2022.2.4,59.974684213751196,
0,1,0,0,1,0,0,0,circle,triangle,0,0,0,0,1,7,19,3,,,,,,,,,,,,,,,,,,,,,,,,,,,,,,,,,,,,,,,,634.7494003870524,634.7494003870524,634.7494003870524,634.7494003870524,634.7494003870524,634.7494003870524,634.7494003870524,634.7494003870524,634.7494003870524,634.7494003870524,l,2.0744310839218087,10,146,0,636.8525025910349,638.3532131190295,,,,,,,,,,,,,,,,,,,,,,,,,,,,,,,,,,,,,,,,,,,,,,,,,,,,,,,,,,,,,,,,,,,,,,,51930,2022-12-01_11h15.29.442,vts_reward_expectancy_bt_OFFLINE,2022.2.4,59.974684213751196,
0,1,0,0,0,0,1,0,circle,hexagon,0,0,0,0,1,8,20,4,,,,,,,,,,,,,,,,,,,,,,,,,,,,,,,,,,,,,,,,638.8539194120094,638.8539194120094,638.8539194120094,638.8539194120094,638.8539194120094,638.8539194120094,638.8539194120094,638.8539194120094,638.8539194120094,638.8539194120094,a,3.6495130319381133,10,156,0,642.5246487060213,644.0262314950232,,,,,,,,,,,,,,,,,,,,,,,,,,,,,,,,,,,,,,,,,,,,,,,,,,,,,,,,,,,,,,,,,,,,,,,51930,2022-12-01_11h15.29.442,vts_reward_expectancy_bt_OFFLINE,2022.2.4,59.974684213751196,
0,0,1,0,0,0,0,1,hexagon,star,0,0,0,0,1,9,21,8,,,,,,,,,,,,,,,,,,,,,,,,,,,,,,,,,,,,,,,,644.5268880150397,644.5268880150397,644.5268880150397,644.5268880150397,644.5268880150397,644.5268880150397,644.5268880150397,644.5268880150397,644.5268880150397,644.5268880150397,l,1.3608361829537898,1,157,0,645.9119497759966,647.4135842910036,,,,,,,,,,,,,,,,,,,,,,,,,,,,,,,,,,,,,,,,,,,,,,,,,,,,,,,,,,,,,,,,,,,,,,,51930,2022-12-01_11h15.29.442,vts_reward_expectancy_bt_OFFLINE,2022.2.4,59.974684213751196,
0,0,1,0,0,1,0,0,hexagon,circle,0,0,0,0,1,10,22,7,,,,,,,,,,,,,,,,,,,,,,,,,,,,,,,,,,,,,,,,647.91390068701,647.91390068701,647.91390068701,647.91390068701,647.91390068701,647.91390068701,647.91390068701,647.91390068701,647.91390068701,647.91390068701,l,2.286454248940572,1,158,0,650.2163508850499,651.718468623003,,,,,,,,,,,,,,,,,,,,,,,,,,,,,,,,,,,,,,,,,,,,,,,,,,,,,,,,,,,,,,,,,,,,,,,51930,2022-12-01_11h15.29.442,vts_reward_expectancy_bt_OFFLINE,2022.2.4,59.974684213751196,
0,0,0,1,0,0,1,0,star,hexagon,0,0,0,0,1,11,23,11,,,,,,,,,,,,,,,,,,,,,,,,,,,,,,,,,,,,,,,,652.2187514050165,652.2187514050165,652.2187514050165,652.2187514050165,652.2187514050165,652.2187514050165,652.2187514050165,652.2187514050165,652.2187514050165,652.2187514050165,a,1.387649240961764,10,168,0,653.6370755940443,655.1385578620248,,,,,,,,,,,,,,,,,,,,,,,,,,,,,,,,,,,,,,,,,,,,,,,,,,,,,,,,,,,,,,,,,,,,,,,51930,2022-12-01_11h15.29.442,vts_reward_expectancy_bt_OFFLINE,2022.2.4,59.974684213751196,
1,0,0,0,0,0,1,0,triangle,hexagon,0,0,0,0,2,0,24,1,,,,,,,,,,,,,,,,,,,,,,,,,,,,,,,,,,,,,,,,655.6391438970459,655.6391438970459,655.6391438970459,655.6391438970459,655.6391438970459,655.6391438970459,655.6391438970459,655.6391438970459,655.6391438970459,655.6391438970459,l,2.520763679931406,10,178,0,658.1919071340235,659.693423180026,,,,,,,,,,,,,,,,,,,,,,,,,,,,,,,,,,,,,,,,,,,,,,,,,,,,,,,,,,,,,,,,,,,,,,,51930,2022-12-01_11h15.29.442,vts_reward_expectancy_bt_OFFLINE,2022.2.4,59.974684213751196,
0,0,0,1,0,1,0,0,star ,circle,0,0,0,0,2,1,25,10,,,,,,,,,,,,,,,,,,,,,,,,,,,,,,,,,,,,,,,,660.1941350150155,660.1941350150155,660.1941350150155,660.1941350150155,660.1941350150155,660.1941350150155,660.1941350150155,660.1941350150155,660.1941350150155,660.1941350150155,l,1.7815298679633997,10,188,0,661.9960915380507,663.4978937230189,,,,,,,,,,,,,,,,,,,,,,,,,,,,,,,,,,,,,,,,,,,,,,,,,,,,,,,,,,,,,,,,,,,,,,,51930,2022-12-01_11h15.29.442,vts_reward_expectancy_bt_OFFLINE,2022.2.4,59.974684213751196,
1,0,0,0,0,0,0,1,triangle,star,0,0,0,0,2,2,26,2,,,,,,,,,,,,,,,,,,,,,,,,,,,,,,,,,,,,,,,,663.9984691989957,663.9984691989957,663.9984691989957,663.9984691989957,663.9984691989957,663.9984691989957,663.9984691989957,663.9984691989957,663.9984691989957,663.9984691989957,a,2.0724344509653747,1,189,0,666.1006989480229,667.6022837220225,,,,,,,,,,,,,,,,,,,,,,,,,,,,,,,,,,,,,,,,,,,,,,,,,,,,,,,,,,,,,,,,,,,,,,,51930,2022-12-01_11h15.29.442,vts_reward_expectancy_bt_OFFLINE,2022.2.4,59.974684213751196,
0,1,0,0,1,0,0,0,circle,triangle,0,0,0,0,2,3,27,3,,,,,,,,,,,,,,,,,,,,,,,,,,,,,,,,,,,,,,,,668.1028328610118,668.1028328610118,668.1028328610118,668.1028328610118,668.1028328610118,668.1028328610118,668.1028328610118,668.1028328610118,668.1028328610118,668.1028328610118,a,2.0319979309570044,10,199,0,670.1552577740513,671.6569445240311,,,,,,,,,,,,,,,,,,,,,,,,,,,,,,,,,,,,,,,,,,,,,,,,,,,,,,,,,,,,,,,,,,,,,,,51930,2022-12-01_11h15.29.442,vts_reward_expectancy_bt_OFFLINE,2022.2.4,59.974684213751196,
0,1,0,0,0,0,0,1,circle,star,0,0,0,0,2,4,28,5,,,,,,,,,,,,,,,,,,,,,,,,,,,,,,,,,,,,,,,,672.1575275790528,672.1575275790528,672.1575275790528,672.1575275790528,672.1575275790528,672.1575275790528,672.1575275790528,672.1575275790528,672.1575275790528,672.1575275790528,a,2.209930373937823,10,209,0,674.3934129570262,675.8947857890162,,,,,,,,,,,,,,,,,,,,,,,,,,,,,,,,,,,,,,,,,,,,,,,,,,,,,,,,,,,,,,,,,,,,,,,51930,2022-12-01_11h15.29.442,vts_reward_expectancy_bt_OFFLINE,2022.2.4,59.974684213751196,
0,0,1,0,1,0,0,0,hexagon,triangle,0,0,0,0,2,5,29,6,,,,,,,,,,,,,,,,,,,,,,,,,,,,,,,,,,,,,,,,676.3952966600191,676.3952966600191,676.3952966600191,676.3952966600191,676.3952966600191,676.3952966600191,676.3952966600191,676.3952966600191,676.3952966600191,676.3952966600191,a,1.9955118359066546,1,210,0,678.4140896940371,679.9157413530047,,,,,,,,,,,,,,,,,,,,,,,,,,,,,,,,,,,,,,,,,,,,,,,,,,,,,,,,,,,,,,,,,,,,,,,51930,2022-12-01_11h15.29.442,vts_reward_expectancy_bt_OFFLINE,2022.2.4,59.974684213751196,
0,1,0,0,0,0,1,0,circle,hexagon,0,0,0,0,2,6,30,4,,,,,,,,,,,,,,,,,,,,,,,,,,,,,,,,,,,,,,,,680.4164067410165,680.4164067410165,680.4164067410165,680.4164067410165,680.4164067410165,680.4164067410165,680.4164067410165,680.4164067410165,680.4164067410165,680.4164067410165,a,3.06228544091573,1,211,0,683.5032344600186,685.0047428570106,,,,,,,,,,,,,,,,,,,,,,,,,,,,,,,,,,,,,,,,,,,,,,,,,,,,,,,,,,,,,,,,,,,,,,,51930,2022-12-01_11h15.29.442,vts_reward_expectancy_bt_OFFLINE,2022.2.4,59.974684213751196,
1,0,0,0,0,1,0,0,triangle,circle,0,0,0,0,2,7,31,0,,,,,,,,,,,,,,,,,,,,,,,,,,,,,,,,,,,,,,,,685.5053946480039,685.5053946480039,685.5053946480039,685.5053946480039,685.5053946480039,685.5053946480039,685.5053946480039,685.5053946480039,685.5053946480039,685.5053946480039,l,2.24540007696487,1,212,0,687.7744632950053,689.2761662320117,,,,,,,,,,,,,,,,,,,,,,,,,,,,,,,,,,,,,,,,,,,,,,,,,,,,,,,,,,,,,,,,,,,,,,,51930,2022-12-01_11h15.29.442,vts_reward_expectancy_bt_OFFLINE,2022.2.4,59.974684213751196,
0,0,1,0,0,1,0,0,hexagon,circle,0,0,0,0,2,8,32,7,,,,,,,,,,,,,,,,,,,,,,,,,,,,,,,,,,,,,,,,689.7765534050413,689.7765534050413,689.7765534050413,689.7765534050413,689.7765534050413,689.7765534050413,689.7765534050413,689.7765534050413,689.7765534050413,689.7765534050413,a,1.1830212219501846,1,213,0,690.9779664940434,692.4797138420399,,,,,,,,,,,,,,,,,,,,,,,,,,,,,,,,,,,,,,,,,,,,,,,,,,,,,,,,,,,,,,,,,,,,,,,51930,2022-12-01_11h15.29.442,vts_reward_expectancy_bt_OFFLINE,2022.2.4,59.974684213751196,
0,0,1,0,0,0,0,1,hexagon,star,0,0,0,0,2,9,33,8,,,,,,,,,,,,,,,,,,,,,,,,,,,,,,,,,,,,,,,,692.9802802120103,692.9802802120103,692.9802802120103,692.9802802120103,692.9802802120103,692.9802802120103,692.9802802120103,692.9802802120103,692.9802802120103,692.9802802120103,l,3.0828311399091035,1,214,0,696.0838208890054,697.5856250660145,,,,,,,,,,,,,,,,,,,,,,,,,,,,,,,,,,,,,,,,,,,,,,,,,,,,,,,,,,,,,,,,,,,,,,,51930,2022-12-01_11h15.29.442,vts_reward_expectancy_bt_OFFLINE,2022.2.4,59.974684213751196,
0,0,0,1,0,0,1,0,star,hexagon,0,0,0,0,2,10,34,11,,,,,,,,,,,,,,,,,,,,,,,,,,,,,,,,,,,,,,,,698.0858263350092,698.0858263350092,698.0858263350092,698.0858263350092,698.0858263350092,698.0858263350092,698.0858263350092,698.0858263350092,698.0858263350092,698.0858263350092,l,2.28902752493741,10,224,0,700.405422219017,701.9068678560434,,,,,,,,,,,,,,,,,,,,,,,,,,,,,,,,,,,,,,,,,,,,,,,,,,,,,,,,,,,,,,,,,,,,,,,51930,2022-12-01_11h15.29.442,vts_reward_expectancy_bt_OFFLINE,2022.2.4,59.974684213751196,
0,0,0,1,1,0,0,0,star,triangle,0,0,0,0,2,11,35,9,,,,,,,,,,,,,,,,,,,,,,,,,,,,,,,,,,,,,,,,702.4074172420078,702.4074172420078,702.4074172420078,702.4074172420078,702.4074172420078,702.4074172420078,702.4074172420078,702.4074172420078,702.4074172420078,702.4074172420078,a,3.279296093969606,10,234,0,705.7109625430312,707.2126039930154,,,,,,,,,,,,,,,,,,,,,,,,,,,,,,,,,,,,,,,,,,,,,,,,,,,,,,,,,,,,,,,,,,,,,,,51930,2022-12-01_11h15.29.442,vts_reward_expectancy_bt_OFFLINE,2022.2.4,59.974684213751196,
0,0,0,1,1,0,0,0,star,triangle,0,0,0,0,3,0,36,9,,,,,,,,,,,,,,,,,,,,,,,,,,,,,,,,,,,,,,,,707.7132838080288,707.7132838080288,707.7132838080288,707.7132838080288,707.7132838080288,707.7132838080288,707.7132838080288,707.7132838080288,707.7132838080288,707.7132838080288,l,2.389511718938593,10,244,0,710.1327326240134,711.6344991800142,,,,,,,,,,,,,,,,,,,,,,,,,,,,,,,,,,,,,,,,,,,,,,,,,,,,,,,,,,,,,,,,,,,,,,,51930,2022-12-01_11h15.29.442,vts_reward_expectancy_bt_OFFLINE,2022.2.4,59.974684213751196,
0,0,1,0,1,0,0,0,hexagon,triangle,0,0,0,0,3,1,37,6,,,,,,,,,,,,,,,,,,,,,,,,,,,,,,,,,,,,,,,,712.1347219500458,712.1347219500458,712.1347219500458,712.1347219500458,712.1347219500458,712.1347219500458,712.1347219500458,712.1347219500458,712.1347219500458,712.1347219500458,a,3.055681322934106,1,245,0,715.2215096270083,716.723011765047,,,,,,,,,,,,,,,,,,,,,,,,,,,,,,,,,,,,,,,,,,,,,,,,,,,,,,,,,,,,,,,,,,,,,,,51930,2022-12-01_11h15.29.442,vts_reward_expectancy_bt_OFFLINE,2022.2.4,59.974684213751196,
1,0,0,0,0,0,1,0,triangle,hexagon,0,0,0,0,3,2,38,1,,,,,,,,,,,,,,,,,,,,,,,,,,,,,,,,,,,,,,,,717.2236360530369,717.2236360530369,717.2236360530369,717.2236360530369,717.2236360530369,717.2236360530369,717.2236360530369,717.2236360530369,717.2236360530369,717.2236360530369,l,0.8868927829898894,10,255,0,718.1412761060055,719.6428176900372,,,,,,,,,,,,,,,,,,,,,,,,,,,,,,,,,,,,,,,,,,,,,,,,,,,,,,,,,,,,,,,,,,,,,,,51930,2022-12-01_11h15.29.442,vts_reward_expectancy_bt_OFFLINE,2022.2.4,59.974684213751196,
0,0,1,0,0,1,0,0,hexagon,circle,0,0,0,0,3,3,39,7,,,,,,,,,,,,,,,,,,,,,,,,,,,,,,,,,,,,,,,,720.1434856250416,720.1434856250416,720.1434856250416,720.1434856250416,720.1434856250416,720.1434856250416,720.1434856250416,720.1434856250416,720.1434856250416,720.1434856250416,a,1.8559425039566122,1,256,0,722.0292034730082,723.5306242980296,,,,,,,,,,,,,,,,,,,,,,,,,,,,,,,,,,,,,,,,,,,,,,,,,,,,,,,,,,,,,,,,,,,,,,,51930,2022-12-01_11h15.29.442,vts_reward_expectancy_bt_OFFLINE,2022.2.4,59.974684213751196,
0,1,0,0,0,0,1,0,circle,hexagon,0,0,0,0,3,4,40,4,,,,,,,,,,,,,,,,,,,,,,,,,,,,,,,,,,,,,,,,724.0312088320497,724.0312088320497,724.0312088320497,724.0312088320497,724.0312088320497,724.0312088320497,724.0312088320497,724.0312088320497,724.0312088320497,724.0312088320497,l,3.67174525099108,10,266,0,727.7353857800481,729.2369829410454,,,,,,,,,,,,,,,,,,,,,,,,,,,,,,,,,,,,,,,,,,,,,,,,,,,,,,,,,,,,,,,,,,,,,,,51930,2022-12-01_11h15.29.442,vts_reward_expectancy_bt_OFFLINE,2022.2.4,59.974684213751196,
0,1,0,0,0,0,0,1,circle,star,0,0,0,0,3,5,41,5,,,,,,,,,,,,,,,,,,,,,,,,,,,,,,,,,,,,,,,,729.7378296109964,729.7378296109964,729.7378296109964,729.7378296109964,729.7378296109964,729.7378296109964,729.7378296109964,729.7378296109964,729.7378296109964,729.7378296109964,l,1.502335225988645,10,276,0,731.2724982650252,732.7740694610402,,,,,,,,,,,,,,,,,,,,,,,,,,,,,,,,,,,,,,,,,,,,,,,,,,,,,,,,,,,,,,,,,,,,,,,51930,2022-12-01_11h15.29.442,vts_reward_expectancy_bt_OFFLINE,2022.2.4,59.974684213751196,
0,0,1,0,0,0,0,1,hexagon,star,0,0,0,0,3,6,42,8,,,,,,,,,,,,,,,,,,,,,,,,,,,,,,,,,,,,,,,,733.2745778399985,733.2745778399985,733.2745778399985,733.2745778399985,733.2745778399985,733.2745778399985,733.2745778399985,733.2745778399985,733.2745778399985,733.2745778399985,a,1.2690312420018017,10,286,0,734.5761517260107,736.0779116480262,,,,,,,,,,,,,,,,,,,,,,,,,,,,,,,,,,,,,,,,,,,,,,,,,,,,,,,,,,,,,,,,,,,,,,,51930,2022-12-01_11h15.29.442,vts_reward_expectancy_bt_OFFLINE,2022.2.4,59.974684213751196,
0,0,0,1,0,1,0,0,star ,circle,0,0,0,0,3,7,43,10,,,,,,,,,,,,,,,,,,,,,,,,,,,,,,,,,,,,,,,,736.5787780760438,736.5787780760438,736.5787780760438,736.5787780760438,736.5787780760438,736.5787780760438,736.5787780760438,736.5787780760438,736.5787780760438,736.5787780760438,l,1.7326797159039415,1,287,0,738.3304726870265,739.8319713020464,739.8319713020464,,,,,,,,,,,,,,,,,,,,,,,,,,,,,,,,,,,,,,,,,,,,,,,,,,,,,,,,,,,,,,,,,,,,,,51930,2022-12-01_11h15.29.442,vts_reward_expectancy_bt_OFFLINE,2022.2.4,59.974684213751196,
0,1,0,0,1,0,0,0,circle,triangle,0,0,0,0,3,8,44,3,,,,,,,,,,,,,,,,,,,,,,,,,,,,,,,,,,,,,,,,740.3324893630343,740.3324893630343,740.3324893630343,740.3324893630343,740.3324893630343,740.3324893630343,740.3324893630343,740.3324893630343,740.3324893630343,740.3324893630343,a,2.5540605929563753,1,288,0,742.9187532680226,744.4203869530465,,,,,,,,,,,,,,,,,,,,,,,,,,,,,,,,,,,,,,,,,,,,,,,,,,,,,,,,,,,,,,,,,,,,,,,51930,2022-12-01_11h15.29.442,vts_reward_expectancy_bt_OFFLINE,2022.2.4,59.974684213751196,
1,0,0,0,0,0,0,1,triangle,star,0,0,0,0,3,9,45,2,,,,,,,,,,,,,,,,,,,,,,,,,,,,,,,,,,,,,,,,744.9211117530358,744.9211117530358,744.9211117530358,744.9211117530358,744.9211117530358,744.9211117530358,744.9211117530358,744.9211117530358,744.9211117530358,744.9211117530358,l,1.1582152629853226,10,298,0,746.1056471409975,747.6071457100334,,,,,,,,,,,,,,,,,,,,,,,,,,,,,,,,,,,,,,,,,,,,,,,,,,,,,,,,,,,,,,,,,,,,,,,51930,2022-12-01_11h15.29.442,vts_reward_expectancy_bt_OFFLINE,2022.2.4,59.974684213751196,
1,0,0,0,0,1,0,0,triangle,circle,0,0,0,0,3,10,46,0,,,,,,,,,,,,,,,,,,,,,,,,,,,,,,,,,,,,,,,,748.107795065036,748.107795065036,748.107795065036,748.107795065036,748.107795065036,748.107795065036,748.107795065036,748.107795065036,748.107795065036,748.107795065036,a,1.1077703629271127,10,308,0,749.2423818110256,750.7440792790148,,,,,,,,,,,,,,,,,,,,,,,,,,,,,,,,,,,,,,,,,,,,,,,,,,,,,,,,,,,,,,,,,,,,,,,51930,2022-12-01_11h15.29.442,vts_reward_expectancy_bt_OFFLINE,2022.2.4,59.974684213751196,
0,0,0,1,0,0,1,0,star,hexagon,0,0,0,0,3,11,47,11,,,,,,,,,,,,,,,,,,,,,,,,,,,,,,,,,,,,,,,,751.2446132160258,751.2446132160258,751.2446132160258,751.2446132160258,751.2446132160258,751.2446132160258,751.2446132160258,751.2446132160258,751.2446132160258,751.2446132160258,a,2.354393635003362,10,318,0,753.630407485005,755.132045913022,,,,,,,,,,,,,,,,,,,,,,,,,,,,,,,,,,,,,,,,,,,,,,,,,,,,,,,,,,,,,,,,,,,,,,,51930,2022-12-01_11h15.29.442,vts_reward_expectancy_bt_OFFLINE,2022.2.4,59.974684213751196,
0,0,1,0,0,1,0,0,hexagon,circle,1,0,1,0,0,0,0,7,,,,,,,,,,,,,,,,,,,,,,,,,,,,,,,,,,,,,,,,778.2468651760137,778.2468651760137,778.2468651760137,778.2468651760137,778.2468651760137,778.2468651760137,778.2468651760137,778.2468651760137,778.2468651760137,778.2468651760137,a,2.7036881339736283,1,319,1,780.9773260580259,782.4788840970141,,,,,,,,,,,,,,,,,,,,,,,,,,,,,,,,,,,,,,,,,,,,,,,,,,,,,,,,,,,,,,,,,,,,,,,51930,2022-12-01_11h15.29.442,vts_reward_expectancy_bt_OFFLINE,2022.2.4,59.974684213751196,
0,0,1,0,1,0,0,0,hexagon,triangle,1,0,1,0,0,1,1,6,,,,,,,,,,,,,,,,,,,,,,,,,,,,,,,,,,,,,,,,782.9795632870519,782.9795632870519,782.9795632870519,782.9795632870519,782.9795632870519,782.9795632870519,782.9795632870519,782.9795632870519,782.9795632870519,782.9795632870519,l,1.1476542169693857,10,329,1,784.1475697000278,785.6493253330118,,,,,,,,,,,,,,,,,,,,,,,,,,,,,,,,,,,,,,,,,,,,,,,,,,,,,,,,,,,,,,,,,,,,,,,51930,2022-12-01_11h15.29.442,vts_reward_expectancy_bt_OFFLINE,2022.2.4,59.974684213751196,
0,1,0,0,0,0,1,0,circle,hexagon,1,0,1,0,0,2,2,4,,,,,,,,,,,,,,,,,,,,,,,,,,,,,,,,,,,,,,,,786.1497787310509,786.1497787310509,786.1497787310509,786.1497787310509,786.1497787310509,786.1497787310509,786.1497787310509,786.1497787310509,786.1497787310509,786.1497787310509,a,1.241681324900128,1,330,1,787.4177197980462,788.9194565070211,,,,,,,,,,,,,,,,,,,,,,,,,,,,,,,,,,,,,,,,,,,,,,,,,,,,,,,,,,,,,,,,,,,,,,,51930,2022-12-01_11h15.29.442,vts_reward_expectancy_bt_OFFLINE,2022.2.4,59.974684213751196,
0,1,0,0,0,0,0,1,circle,star,1,0,1,0,0,3,3,5,,,,,,,,,,,,,,,,,,,,,,,,,,,,,,,,,,,,,,,,789.4199879550142,789.4199879550142,789.4199879550142,789.4199879550142,789.4199879550142,789.4199879550142,789.4199879550142,789.4199879550142,789.4199879550142,789.4199879550142,l,4.298701724968851,1,331,1,793.7414354979992,795.2429848840111,,,,,,,,,,,,,,,,,,,,,,,,,,,,,,,,,,,,,,,,,,,,,,,,,,,,,,,,,,,,,,,,,,,,,,,51930,2022-12-01_11h15.29.442,vts_reward_expectancy_bt_OFFLINE,2022.2.4,59.974684213751196,
1,0,0,0,0,0,1,0,triangle,hexagon,1,0,1,0,0,4,4,1,,,,,,,,,,,,,,,,,,,,,,,,,,,,,,,,,,,,,,,,795.7435890650377,795.7435890650377,795.7435890650377,795.7435890650377,795.7435890650377,795.7435890650377,795.7435890650377,795.7435890650377,795.7435890650377,795.7435890650377,a,1.2081047789542936,10,341,1,796.9783273690264,798.4800099020358,,,,,,,,,,,,,,,,,,,,,,,,,,,,,,,,,,,,,,,,,,,,,,,,,,,,,,,,,,,,,,,,,,,,,,,51930,2022-12-01_11h15.29.442,vts_reward_expectancy_bt_OFFLINE,2022.2.4,59.974684213751196,
1,0,0,0,0,1,0,0,triangle,circle,1,0,1,0,0,5,5,0,,,,,,,,,,,,,,,,,,,,,,,,,,,,,,,,,,,,,,,,798.9805192030035,798.9805192030035,798.9805192030035,798.9805192030035,798.9805192030035,798.9805192030035,798.9805192030035,798.9805192030035,798.9805192030035,798.9805192030035,l,4.138883044011891,1,342,1,803.1516592100379,804.6533636830281,,,,,,,,,,,,,,,,,,,,,,,,,,,,,,,,,,,,,,,,,,,,,,,,,,,,,,,,,,,,,,,,,,,,,,,51930,2022-12-01_11h15.29.442,vts_reward_expectancy_bt_OFFLINE,2022.2.4,59.974684213751196,
0,0,1,0,0,0,0,1,hexagon,star,1,0,1,0,0,6,6,8,,,,,,,,,,,,,,,,,,,,,,,,,,,,,,,,,,,,,,,,805.1538697640062,805.1538697640062,805.1538697640062,805.1538697640062,805.1538697640062,805.1538697640062,805.1538697640062,805.1538697640062,805.1538697640062,805.1538697640062,l,1.2939212599303573,10,352,1,806.4722662040149,807.9736976459972,,,,,,,,,,,,,,,,,,,,,,,,,,,,,,,,,,,,,,,,,,,,,,,,,,,,,,,,,,,,,,,,,,,,,,,51930,2022-12-01_11h15.29.442,vts_reward_expectancy_bt_OFFLINE,2022.2.4,59.974684213751196,
0,0,0,1,0,0,1,0,star,hexagon,1,0,1,0,0,7,7,11,,,,,,,,,,,,,,,,,,,,,,,,,,,,,,,,,,,,,,,,808.4743571110303,808.4743571110303,808.4743571110303,808.4743571110303,808.4743571110303,808.4743571110303,808.4743571110303,808.4743571110303,808.4743571110303,808.4743571110303,a,0.693165740929544,1,353,1,809.191778975015,810.6935643320321,,,,,,,,,,,,,,,,,,,,,,,,,,,,,,,,,,,,,,,,,,,,,,,,,,,,,,,,,,,,,,,,,,,,,,,51930,2022-12-01_11h15.29.442,vts_reward_expectancy_bt_OFFLINE,2022.2.4,59.974684213751196,
0,1,0,0,1,0,0,0,circle,triangle,1,0,1,0,0,8,8,3,,,,,,,,,,,,,,,,,,,,,,,,,,,,,,,,,,,,,,,,811.19385659002,811.19385659002,811.19385659002,811.19385659002,811.19385659002,811.19385659002,811.19385659002,811.19385659002,811.19385659002,811.19385659002,a,0.9419746659114026,1,354,1,812.1617761620437,813.6632237810409,,,,,,,,,,,,,,,,,,,,,,,,,,,,,,,,,,,,,,,,,,,,,,,,,,,,,,,,,,,,,,,,,,,,,,,51930,2022-12-01_11h15.29.442,vts_reward_expectancy_bt_OFFLINE,2022.2.4,59.974684213751196,
0,0,0,1,1,0,0,0,star,triangle,1,0,1,0,0,9,9,9,,,,,,,,,,,,,,,,,,,,,,,,,,,,,,,,,,,,,,,,814.1639797860407,814.1639797860407,814.1639797860407,814.1639797860407,814.1639797860407,814.1639797860407,814.1639797860407,814.1639797860407,814.1639797860407,814.1639797860407,a,1.186962503939867,10,364,1,815.3818652330083,816.8835342150414,,,,,,,,,,,,,,,,,,,,,,,,,,,,,,,,,,,,,,,,,,,,,,,,,,,,,,,,,,,,,,,,,,,,,,,51930,2022-12-01_11h15.29.442,vts_reward_expectancy_bt_OFFLINE,2022.2.4,59.974684213751196,
1,0,0,0,0,0,0,1,triangle,star,1,0,1,0,0,10,10,2,,,,,,,,,,,,,,,,,,,,,,,,,,,,,,,,,,,,,,,,817.3841653730487,817.3841653730487,817.3841653730487,817.3841653730487,817.3841653730487,817.3841653730487,817.3841653730487,817.3841653730487,817.3841653730487,817.3841653730487,l,1.352288770955056,1,365,1,818.7689276050078,820.2706307250191,,,,,,,,,,,,,,,,,,,,,,,,,,,,,,,,,,,,,,,,,,,,,,,,,,,,,,,,,,,,,,,,,,,,,,,51930,2022-12-01_11h15.29.442,vts_reward_expectancy_bt_OFFLINE,2022.2.4,59.974684213751196,
0,0,0,1,0,1,0,0,star ,circle,1,0,1,0,0,11,11,10,,,,,,,,,,,,,,,,,,,,,,,,,,,,,,,,,,,,,,,,820.7712930620182,820.7712930620182,820.7712930620182,820.7712930620182,820.7712930620182,820.7712930620182,820.7712930620182,820.7712930620182,820.7712930620182,820.7712930620182,a,4.060765146976337,1,366,1,824.85933402105,826.3609579470358,,,,,,,,,,,,,,,,,,,,,,,,,,,,,,,,,,,,,,,,,,,,,,,,,,,,,,,,,,,,,,,,,,,,,,,51930,2022-12-01_11h15.29.442,vts_reward_expectancy_bt_OFFLINE,2022.2.4,59.974684213751196,
0,0,1,0,0,1,0,0,hexagon,circle,1,0,1,0,1,0,12,7,,,,,,,,,,,,,,,,,,,,,,,,,,,,,,,,,,,,,,,,826.8616509989952,826.8616509989952,826.8616509989952,826.8616509989952,826.8616509989952,826.8616509989952,826.8616509989952,826.8616509989952,826.8616509989952,826.8616509989952,l,1.1135323399212211,10,376,1,827.995833395049,829.4975065180333,,,,,,,,,,,,,,,,,,,,,,,,,,,,,,,,,,,,,,,,,,,,,,,,,,,,,,,,,,,,,,,,,,,,,,,51930,2022-12-01_11h15.29.442,vts_reward_expectancy_bt_OFFLINE,2022.2.4,59.974684213751196,
0,0,0,1,0,1,0,0,star ,circle,1,0,1,0,1,1,13,10,,,,,,,,,,,,,,,,,,,,,,,,,,,,,,,,,,,,,,,,829.9981546730269,829.9981546730269,829.9981546730269,829.9981546730269,829.9981546730269,829.9981546730269,829.9981546730269,829.9981546730269,829.9981546730269,829.9981546730269,l,0.952289888926316,1,377,1,830.9824656270212,832.4843053850345,,,,,,,,,,,,,,,,,,,,,,,,,,,,,,,,,,,,,,,,,,,,,,,,,,,,,,,,,,,,,,,,,,,,,,,51930,2022-12-01_11h15.29.442,vts_reward_expectancy_bt_OFFLINE,2022.2.4,59.974684213751196,
0,0,1,0,1,0,0,0,hexagon,triangle,1,0,1,0,1,2,14,6,,,,,,,,,,,,,,,,,,,,,,,,,,,,,,,,,,,,,,,,832.9846602760372,832.9846602760372,832.9846602760372,832.9846602760372,832.9846602760372,832.9846602760372,832.9846602760372,832.9846602760372,832.9846602760372,832.9846602760372,a,3.9897662099683657,1,378,1,837.0057711250265,838.507291048998,,,,,,,,,,,,,,,,,,,,,,,,,,,,,,,,,,,,,,,,,,,,,,,,,,,,,,,,,,,,,,,,,,,,,,,51930,2022-12-01_11h15.29.442,vts_reward_expectancy_bt_OFFLINE,2022.2.4,59.974684213751196,
0,1,0,0,1,0,0,0,circle,triangle,1,0,1,0,1,3,15,3,,,,,,,,,,,,,,,,,,,,,,,,,,,,,,,,,,,,,,,,839.0078867450356,839.0078867450356,839.0078867450356,839.0078867450356,839.0078867450356,839.0078867450356,839.0078867450356,839.0078867450356,839.0078867450356,839.0078867450356,l,1.4075814399402589,10,388,1,840.4428976670024,841.9447766860249,,,,,,,,,,,,,,,,,,,,,,,,,,,,,,,,,,,,,,,,,,,,,,,,,,,,,,,,,,,,,,,,,,,,,,,51930,2022-12-01_11h15.29.442,vts_reward_expectancy_bt_OFFLINE,2022.2.4,59.974684213751196,
0,1,0,0,0,0,0,1,circle,star,1,0,1,0,1,4,16,5,,,,,,,,,,,,,,,,,,,,,,,,,,,,,,,,,,,,,,,,842.4449877580046,842.4449877580046,842.4449877580046,842.4449877580046,842.4449877580046,842.4449877580046,842.4449877580046,842.4449877580046,842.4449877580046,842.4449877580046,a,1.3540669729118235,10,398,1,843.8301099759992,845.3315901770256,,,,,,,,,,,,,,,,,,,,,,,,,,,,,,,,,,,,,,,,,,,,,,,,,,,,,,,,,,,,,,,,,,,,,,,51930,2022-12-01_11h15.29.442,vts_reward_expectancy_bt_OFFLINE,2022.2.4,59.974684213751196,
0,0,1,0,0,0,0,1,hexagon,star,1,0,1,0,1,5,17,8,,,,,,,,,,,,,,,,,,,,,,,,,,,,,,,,,,,,,,,,845.8321741450345,845.8321741450345,845.8321741450345,845.8321741450345,845.8321741450345,845.8321741450345,845.8321741450345,845.8321741450345,845.8321741450345,845.8321741450345,a,2.055165573954582,1,399,1,847.9177437860053,849.4194756260258,,,,,,,,,,,,,,,,,,,,,,,,,,,,,,,,,,,,,,,,,,,,,,,,,,,,,,,,,,,,,,,,,,,,,,,51930,2022-12-01_11h15.29.442,vts_reward_expectancy_bt_OFFLINE,2022.2.4,59.974684213751196,
0,0,0,1,0,0,1,0,star,hexagon,1,0,1,0,1,6,18,11,,,,,,,,,,,,,,,,,,,,,,,,,,,,,,,,,,,,,,,,849.9200555770076,849.9200555770076,849.9200555770076,849.9200555770076,849.9200555770076,849.9200555770076,849.9200555770076,849.9200555770076,849.9200555770076,849.9200555770076,a,3.6716195549233817,10,409,1,853.6242291890085,855.1257323200116,,,,,,,,,,,,,,,,,,,,,,,,,,,,,,,,,,,,,,,,,,,,,,,,,,,,,,,,,,,,,,,,,,,,,,,51930,2022-12-01_11h15.29.442,vts_reward_expectancy_bt_OFFLINE,2022.2.4,59.974684213751196,
1,0,0,0,0,0,1,0,triangle,hexagon,1,0,1,0,1,7,19,1,,,,,,,,,,,,,,,,,,,,,,,,,,,,,,,,,,,,,,,,855.6263628370361,855.6263628370361,855.6263628370361,855.6263628370361,855.6263628370361,855.6263628370361,855.6263628370361,855.6263628370361,855.6263628370361,855.6263628370361,a,0.9901628229417838,10,419,1,856.6440943090129,858.1457457760116,,,,,,,,,,,,,,,,,,,,,,,,,,,,,,,,,,,,,,,,,,,,,,,,,,,,,,,,,,,,,,,,,,,,,,,51930,2022-12-01_11h15.29.442,vts_reward_expectancy_bt_OFFLINE,2022.2.4,59.974684213751196,
0,0,0,1,1,0,0,0,star,triangle,1,0,1,0,1,8,20,9,,,,,,,,,,,,,,,,,,,,,,,,,,,,,,,,,,,,,,,,858.6463819030323,858.6463819030323,858.6463819030323,858.6463819030323,858.6463819030323,858.6463819030323,858.6463819030323,858.6463819030323,858.6463819030323,858.6463819030323,a,0.7925122159649618,1,420,1,859.463750098017,860.9654984600493,,,,,,,,,,,,,,,,,,,,,,,,,,,,,,,,,,,,,,,,,,,,,,,,,,,,,,,,,,,,,,,,,,,,,,,51930,2022-12-01_11h15.29.442,vts_reward_expectancy_bt_OFFLINE,2022.2.4,59.974684213751196,
0,1,0,0,0,0,1,0,circle,hexagon,1,0,1,0,1,9,21,4,,,,,,,,,,,,,,,,,,,,,,,,,,,,,,,,,,,,,,,,861.4660197030171,861.4660197030171,861.4660197030171,861.4660197030171,861.4660197030171,861.4660197030171,861.4660197030171,861.4660197030171,861.4660197030171,861.4660197030171,a,2.813568774960004,1,421,1,864.302421045024,865.8042009960045,,,,,,,,,,,,,,,,,,,,,,,,,,,,,,,,,,,,,,,,,,,,,,,,,,,,,,,,,,,,,,,,,,,,,,,51930,2022-12-01_11h15.29.442,vts_reward_expectancy_bt_OFFLINE,2022.2.4,59.974684213751196,
1,0,0,0,0,0,0,1,triangle,star,1,0,1,0,1,10,22,2,,,,,,,,,,,,,,,,,,,,,,,,,,,,,,,,,,,,,,,,866.3049454800203,866.3049454800203,866.3049454800203,866.3049454800203,866.3049454800203,866.3049454800203,866.3049454800203,866.3049454800203,866.3049454800203,866.3049454800203,l,2.6704152459278703,1,422,1,869.0077783190063,870.5095233430038,,,,,,,,,,,,,,,,,,,,,,,,,,,,,,,,,,,,,,,,,,,,,,,,,,,,,,,,,,,,,,,,,,,,,,,51930,2022-12-01_11h15.29.442,vts_reward_expectancy_bt_OFFLINE,2022.2.4,59.974684213751196,
1,0,0,0,0,1,0,0,triangle,circle,1,0,1,0,1,11,23,0,,,,,,,,,,,,,,,,,,,,,,,,,,,,,,,,,,,,,,,,871.0102553530014,871.0102553530014,871.0102553530014,871.0102553530014,871.0102553530014,871.0102553530014,871.0102553530014,871.0102553530014,871.0102553530014,871.0102553530014,a,0.9250455639557913,1,423,1,871.9613859290257,873.4630965790129,,,,,,,,,,,,,,,,,,,,,,,,,,,,,,,,,,,,,,,,,,,,,,,,,,,,,,,,,,,,,,,,,,,,,,,51930,2022-12-01_11h15.29.442,vts_reward_expectancy_bt_OFFLINE,2022.2.4,59.974684213751196,
0,0,1,0,0,1,0,0,hexagon,circle,1,0,1,0,2,0,24,7,,,,,,,,,,,,,,,,,,,,,,,,,,,,,,,,,,,,,,,,873.9633188699954,873.9633188699954,873.9633188699954,873.9633188699954,873.9633188699954,873.9633188699954,873.9633188699954,873.9633188699954,873.9633188699954,873.9633188699954,l,0.7734799119643867,1,424,1,874.7643835630151,876.2659812120255,,,,,,,,,,,,,,,,,,,,,,,,,,,,,,,,,,,,,,,,,,,,,,,,,,,,,,,,,,,,,,,,,,,,,,,51930,2022-12-01_11h15.29.442,vts_reward_expectancy_bt_OFFLINE,2022.2.4,59.974684213751196,
0,1,0,0,0,0,0,1,circle,star,1,0,1,0,2,1,25,5,,,,,,,,,,,,,,,,,,,,,,,,,,,,,,,,,,,,,,,,876.7665431250352,876.7665431250352,876.7665431250352,876.7665431250352,876.7665431250352,876.7665431250352,876.7665431250352,876.7665431250352,876.7665431250352,876.7665431250352,l,2.104426950972993,10,434,1,878.9021577149979,880.4039537770441,,,,,,,,,,,,,,,,,,,,,,,,,,,,,,,,,,,,,,,,,,,,,,,,,,,,,,,,,,,,,,,,,,,,,,,51930,2022-12-01_11h15.29.442,vts_reward_expectancy_bt_OFFLINE,2022.2.4,59.974684213751196,
1,0,0,0,0,0,1,0,triangle,hexagon,1,0,1,0,2,2,26,1,,,,,,,,,,,,,,,,,,,,,,,,,,,,,,,,,,,,,,,,880.9042049720301,880.9042049720301,880.9042049720301,880.9042049720301,880.9042049720301,880.9042049720301,880.9042049720301,880.9042049720301,880.9042049720301,880.9042049720301,a,5.574585510941688,1,435,1,886.5104160300107,888.0122333640466,,,,,,,,,,,,,,,,,,,,,,,,,,,,,,,,,,,,,,,,,,,,,,,,,,,,,,,,,,,,,,,,,,,,,,,51930,2022-12-01_11h15.29.442,vts_reward_expectancy_bt_OFFLINE,2022.2.4,59.974684213751196,
0,0,1,0,1,0,0,0,hexagon,triangle,1,0,1,0,2,3,27,6,,,,,,,,,,,,,,,,,,,,,,,,,,,,,,,,,,,,,,,,888.5126123100054,888.5126123100054,888.5126123100054,888.5126123100054,888.5126123100054,888.5126123100054,888.5126123100054,888.5126123100054,888.5126123100054,888.5126123100054,l,1.6075592149281874,10,445,1,890.1479014080251,891.649441763002,,,,,,,,,,,,,,,,,,,,,,,,,,,,,,,,,,,,,,,,,,,,,,,,,,,,,,,,,,,,,,,,,,,,,,,51930,2022-12-01_11h15.29.442,vts_reward_expectancy_bt_OFFLINE,2022.2.4,59.974684213751196,
0,0,0,1,0,1,0,0,star ,circle,1,0,1,0,2,4,28,10,,,,,,,,,,,,,,,,,,,,,,,,,,,,,,,,,,,,,,,,892.1499237410026,892.1499237410026,892.1499237410026,892.1499237410026,892.1499237410026,892.1499237410026,892.1499237410026,892.1499237410026,892.1499237410026,892.1499237410026,l,3.2335805929615162,10,455,1,895.4039336320129,896.905265762005,,,,,,,,,,,,,,,,,,,,,,,,,,,,,,,,,,,,,,,,,,,,,,,,,,,,,,,,,,,,,,,,,,,,,,,51930,2022-12-01_11h15.29.442,vts_reward_expectancy_bt_OFFLINE,2022.2.4,59.974684213751196,
1,0,0,0,0,1,0,0,triangle,circle,1,0,1,0,2,5,29,0,,,,,,,,,,,,,,,,,,,,,,,,,,,,,,,,,,,,,,,,897.4057320010033,897.4057320010033,897.4057320010033,897.4057320010033,897.4057320010033,897.4057320010033,897.4057320010033,897.4057320010033,897.4057320010033,897.4057320010033,l,1.392974141985178,10,465,1,898.8241471610381,900.325592387002,,,,,,,,,,,,,,,,,,,,,,,,,,,,,,,,,,,,,,,,,,,,,,,,,,,,,,,,,,,,,,,,,,,,,,,51930,2022-12-01_11h15.29.442,vts_reward_expectancy_bt_OFFLINE,2022.2.4,59.974684213751196,
0,1,0,0,0,0,1,0,circle,hexagon,1,0,1,0,2,6,30,4,,,,,,,,,,,,,,,,,,,,,,,,,,,,,,,,,,,,,,,,900.8261105860001,900.8261105860001,900.8261105860001,900.8261105860001,900.8261105860001,900.8261105860001,900.8261105860001,900.8261105860001,900.8261105860001,900.8261105860001,a,1.2856360569712706,10,475,1,902.1441876900499,903.6458261410007,,,,,,,,,,,,,,,,,,,,,,,,,,,,,,,,,,,,,,,,,,,,,,,,,,,,,,,,,,,,,,,,,,,,,,,51930,2022-12-01_11h15.29.442,vts_reward_expectancy_bt_OFFLINE,2022.2.4,59.974684213751196,
0,1,0,0,1,0,0,0,circle,triangle,1,0,1,0,2,7,31,3,,,,,,,,,,,,,,,,,,,,,,,,,,,,,,,,,,,,,,,,904.146502247022,904.146502247022,904.146502247022,904.146502247022,904.146502247022,904.146502247022,904.146502247022,904.146502247022,904.146502247022,904.146502247022,a,0.8126477939076722,10,485,1,904.9806470700423,906.4824602080043,,,,,,,,,,,,,,,,,,,,,,,,,,,,,,,,,,,,,,,,,,,,,,,,,,,,,,,,,,,,,,,,,,,,,,,51930,2022-12-01_11h15.29.442,vts_reward_expectancy_bt_OFFLINE,2022.2.4,59.974684213751196,
0,0,0,1,1,0,0,0,star,triangle,1,0,1,0,2,8,32,9,,,,,,,,,,,,,,,,,,,,,,,,,,,,,,,,,,,,,,,,906.9830483070109,906.9830483070109,906.9830483070109,906.9830483070109,906.9830483070109,906.9830483070109,906.9830483070109,906.9830483070109,906.9830483070109,906.9830483070109,l,1.1125577409402467,10,495,1,908.1178329820395,909.6192780550336,,,,,,,,,,,,,,,,,,,,,,,,,,,,,,,,,,,,,,,,,,,,,,,,,,,,,,,,,,,,,,,,,,,,,,,51930,2022-12-01_11h15.29.442,vts_reward_expectancy_bt_OFFLINE,2022.2.4,59.974684213751196,
1,0,0,0,0,0,0,1,triangle,star,1,0,1,0,2,9,33,2,,,,,,,,,,,,,,,,,,,,,,,,,,,,,,,,,,,,,,,,910.1196803930216,910.1196803930216,910.1196803930216,910.1196803930216,910.1196803930216,910.1196803930216,910.1196803930216,910.1196803930216,910.1196803930216,910.1196803930216,l,2.263727442943491,10,505,1,912.4055854120525,913.9071175680147,,,,,,,,,,,,,,,,,,,,,,,,,,,,,,,,,,,,,,,,,,,,,,,,,,,,,,,,,,,,,,,,,,,,,,,51930,2022-12-01_11h15.29.442,vts_reward_expectancy_bt_OFFLINE,2022.2.4,59.974684213751196,
0,0,1,0,0,0,0,1,hexagon,star,1,0,1,0,2,10,34,8,,,,,,,,,,,,,,,,,,,,,,,,,,,,,,,,,,,,,,,,914.4076705560437,914.4076705560437,914.4076705560437,914.4076705560437,914.4076705560437,914.4076705560437,914.4076705560437,914.4076705560437,914.4076705560437,914.4076705560437,l,2.008224294986576,10,515,1,916.4433116190485,917.9449952080031,,,,,,,,,,,,,,,,,,,,,,,,,,,,,,,,,,,,,,,,,,,,,,,,,,,,,,,,,,,,,,,,,,,,,,,51930,2022-12-01_11h15.29.442,vts_reward_expectancy_bt_OFFLINE,2022.2.4,59.974684213751196,
0,0,0,1,0,0,1,0,star,hexagon,1,0,1,0,2,11,35,11,,,,,,,,,,,,,,,,,,,,,,,,,,,,,,,,,,,,,,,,918.4459427600377,918.4459427600377,918.4459427600377,918.4459427600377,918.4459427600377,918.4459427600377,918.4459427600377,918.4459427600377,918.4459427600377,918.4459427600377,a,1.185469583957456,1,516,1,919.6637055640458,921.1654139390448,,,,,,,,,,,,,,,,,,,,,,,,,,,,,,,,,,,,,,,,,,,,,,,,,,,,,,,,,,,,,,,,,,,,,,,51930,2022-12-01_11h15.29.442,vts_reward_expectancy_bt_OFFLINE,2022.2.4,59.974684213751196,
1,0,0,0,0,0,1,0,triangle,hexagon,1,0,1,0,3,0,36,1,,,,,,,,,,,,,,,,,,,,,,,,,,,,,,,,,,,,,,,,921.6659146370366,921.6659146370366,921.6659146370366,921.6659146370366,921.6659146370366,921.6659146370366,921.6659146370366,921.6659146370366,921.6659146370366,921.6659146370366,a,0.9018969349563122,10,526,1,922.6002331970376,924.1019339479972,,,,,,,,,,,,,,,,,,,,,,,,,,,,,,,,,,,,,,,,,,,,,,,,,,,,,,,,,,,,,,,,,,,,,,,51930,2022-12-01_11h15.29.442,vts_reward_expectancy_bt_OFFLINE,2022.2.4,59.974684213751196,
0,0,1,0,0,0,0,1,hexagon,star,1,0,1,0,3,1,37,8,,,,,,,,,,,,,,,,,,,,,,,,,,,,,,,,,,,,,,,,924.6024352750392,924.6024352750392,924.6024352750392,924.6024352750392,924.6024352750392,924.6024352750392,924.6024352750392,924.6024352750392,924.6024352750392,924.6024352750392,l,1.0690294019295834,1,527,1,925.7036324870423,927.2052902440191,,,,,,,,,,,,,,,,,,,,,,,,,,,,,,,,,,,,,,,,,,,,,,,,,,,,,,,,,,,,,,,,,,,,,,,51930,2022-12-01_11h15.29.442,vts_reward_expectancy_bt_OFFLINE,2022.2.4,59.974684213751196,
0,0,1,0,0,1,0,0,hexagon,circle,1,0,1,0,3,2,38,7,,,,,,,,,,,,,,,,,,,,,,,,,,,,,,,,,,,,,,,,927.7059021260357,927.7059021260357,927.7059021260357,927.7059021260357,927.7059021260357,927.7059021260357,927.7059021260357,927.7059021260357,927.7059021260357,927.7059021260357,l,2.004521341936197,1,528,1,929.7415441930061,931.2432562080212,,,,,,,,,,,,,,,,,,,,,,,,,,,,,,,,,,,,,,,,,,,,,,,,,,,,,,,,,,,,,,,,,,,,,,,51930,2022-12-01_11h15.29.442,vts_reward_expectancy_bt_OFFLINE,2022.2.4,59.974684213751196,
0,1,0,0,0,0,0,1,circle,star,1,0,1,0,3,3,39,5,,,,,,,,,,,,,,,,,,,,,,,,,,,,,,,,,,,,,,,,931.7436131230206,931.7436131230206,931.7436131230206,931.7436131230206,931.7436131230206,931.7436131230206,931.7436131230206,931.7436131230206,931.7436131230206,931.7436131230206,a,1.175348722958006,10,538,1,932.9449469350511,934.4467503440101,,,,,,,,,,,,,,,,,,,,,,,,,,,,,,,,,,,,,,,,,,,,,,,,,,,,,,,,,,,,,,,,,,,,,,,51930,2022-12-01_11h15.29.442,vts_reward_expectancy_bt_OFFLINE,2022.2.4,59.974684213751196,
0,1,0,0,0,0,1,0,circle,hexagon,1,0,1,0,3,4,40,4,,,,,,,,,,,,,,,,,,,,,,,,,,,,,,,,,,,,,,,,934.9474239640404,934.9474239640404,934.9474239640404,934.9474239640404,934.9474239640404,934.9474239640404,934.9474239640404,934.9474239640404,934.9474239640404,934.9474239640404,a,0.9486286599421874,10,548,1,935.9148593780119,937.4167164340033,,,,,,,,,,,,,,,,,,,,,,,,,,,,,,,,,,,,,,,,,,,,,,,,,,,,,,,,,,,,,,,,,,,,,,,51930,2022-12-01_11h15.29.442,vts_reward_expectancy_bt_OFFLINE,2022.2.4,59.974684213751196,
1,0,0,0,0,0,0,1,triangle,star,1,0,1,0,3,5,41,2,,,,,,,,,,,,,,,,,,,,,,,,,,,,,,,,,,,,,,,,937.9174348440138,937.9174348440138,937.9174348440138,937.9174348440138,937.9174348440138,937.9174348440138,937.9174348440138,937.9174348440138,937.9174348440138,937.9174348440138,l,1.2901508839568123,10,558,1,939.2353330909973,940.7369189940509,,,,,,,,,,,,,,,,,,,,,,,,,,,,,,,,,,,,,,,,,,,,,,,,,,,,,,,,,,,,,,,,,,,,,,,51930,2022-12-01_11h15.29.442,vts_reward_expectancy_bt_OFFLINE,2022.2.4,59.974684213751196,
1,0,0,0,0,1,0,0,triangle,circle,1,0,1,0,3,6,42,0,,,,,,,,,,,,,,,,,,,,,,,,,,,,,,,,,,,,,,,,941.2373901760438,941.2373901760438,941.2373901760438,941.2373901760438,941.2373901760438,941.2373901760438,941.2373901760438,941.2373901760438,941.2373901760438,941.2373901760438,a,0.7932808469631709,1,559,1,942.0549809830263,943.5566188649973,,,,,,,,,,,,,,,,,,,,,,,,,,,,,,,,,,,,,,,,,,,,,,,,,,,,,,,,,,,,,,,,,,,,,,,51930,2022-12-01_11h15.29.442,vts_reward_expectancy_bt_OFFLINE,2022.2.4,59.974684213751196,
0,0,0,1,0,0,1,0,star,hexagon,1,0,1,0,3,7,43,11,,,,,,,,,,,,,,,,,,,,,,,,,,,,,,,,,,,,,,,,944.0572600760497,944.0572600760497,944.0572600760497,944.0572600760497,944.0572600760497,944.0572600760497,944.0572600760497,944.0572600760497,944.0572600760497,944.0572600760497,a,0.9512430589529686,1,560,1,945.0249279180425,946.5266286469996,,,,,,,,,,,,,,,,,,,,,,,,,,,,,,,,,,,,,,,,,,,,,,,,,,,,,,,,,,,,,,,,,,,,,,,51930,2022-12-01_11h15.29.442,vts_reward_expectancy_bt_OFFLINE,2022.2.4,59.974684213751196,
0,0,1,0,1,0,0,0,hexagon,triangle,1,0,1,0,3,8,44,6,,,,,,,,,,,,,,,,,,,,,,,,,,,,,,,,,,,,,,,,947.0271092480398,947.0271092480398,947.0271092480398,947.0271092480398,947.0271092480398,947.0271092480398,947.0271092480398,947.0271092480398,947.0271092480398,947.0271092480398,l,1.1177894339198247,10,570,1,948.1617183150374,949.6633537970483,,,,,,,,,,,,,,,,,,,,,,,,,,,,,,,,,,,,,,,,,,,,,,,,,,,,,,,,,,,,,,,,,,,,,,,51930,2022-12-01_11h15.29.442,vts_reward_expectancy_bt_OFFLINE,2022.2.4,59.974684213751196,
0,1,0,0,1,0,0,0,circle,triangle,1,0,1,0,3,9,45,3,,,,,,,,,,,,,,,,,,,,,,,,,,,,,,,,,,,,,,,,950.1640290210489,950.1640290210489,950.1640290210489,950.1640290210489,950.1640290210489,950.1640290210489,950.1640290210489,950.1640290210489,950.1640290210489,950.1640290210489,a,0.875221709953621,1,571,1,951.0649169060052,952.5667600000161,,,,,,,,,,,,,,,,,,,,,,,,,,,,,,,,,,,,,,,,,,,,,,,,,,,,,,,,,,,,,,,,,,,,,,,51930,2022-12-01_11h15.29.442,vts_reward_expectancy_bt_OFFLINE,2022.2.4,59.974684213751196,
0,0,0,1,0,1,0,0,star ,circle,1,0,1,0,3,10,46,10,,,,,,,,,,,,,,,,,,,,,,,,,,,,,,,,,,,,,,,,953.0674133050488,953.0674133050488,953.0674133050488,953.0674133050488,953.0674133050488,953.0674133050488,953.0674133050488,953.0674133050488,953.0674133050488,953.0674133050488,l,0.9010904599563219,1,572,1,953.9851018930203,955.4864325770177,,,,,,,,,,,,,,,,,,,,,,,,,,,,,,,,,,,,,,,,,,,,,,,,,,,,,,,,,,,,,,,,,,,,,,,51930,2022-12-01_11h15.29.442,vts_reward_expectancy_bt_OFFLINE,2022.2.4,59.974684213751196,
0,0,0,1,1,0,0,0,star,triangle,1,0,1,0,3,11,47,9,,,,,,,,,,,,,,,,,,,,,,,,,,,,,,,,,,,,,,,,955.987215391011,955.987215391011,955.987215391011,955.987215391011,955.987215391011,955.987215391011,955.987215391011,955.987215391011,955.987215391011,955.987215391011,l,0.9401337419403717,1,573,1,956.9549157959991,958.4564529850031,,,,,,,,,,,,,,,,,,,,,,,,,,,,,,,,,,,,,,,,,,,,,,,,,,,,,,,,,,,,,,,,,,,,,,,51930,2022-12-01_11h15.29.442,vts_reward_expectancy_bt_OFFLINE,2022.2.4,59.974684213751196,
0,0,1,0,1,0,0,0,hexagon,triangle,2,0,2,0,0,0,0,6,,,,,,,,,,,,,,,,,,,,,,,,,,,,,,,,,,,,,,,,978.7317462300416,978.7317462300416,978.7317462300416,978.7317462300416,978.7317462300416,978.7317462300416,978.7317462300416,978.7317462300416,978.7317462300416,978.7317462300416,l,2.155973677930888,10,583,2,980.9145590940025,982.416405822034,,,,,,,,,,,,,,,,,,,,,,,,,,,,,,,,,,,,,,,,,,,,,,,,,,,,,,,,,,,,,,,,,,,,,,,51930,2022-12-01_11h15.29.442,vts_reward_expectancy_bt_OFFLINE,2022.2.4,59.974684213751196,
0,1,0,0,0,0,0,1,circle,star,2,0,2,0,0,1,1,5,,,,,,,,,,,,,,,,,,,,,,,,,,,,,,,,,,,,,,,,982.9167528410326,982.9167528410326,982.9167528410326,982.9167528410326,982.9167528410326,982.9167528410326,982.9167528410326,982.9167528410326,982.9167528410326,982.9167528410326,l,1.2421801869058982,1,584,2,984.1850039670244,985.6867678660201,,,,,,,,,,,,,,,,,,,,,,,,,,,,,,,,,,,,,,,,,,,,,,,,,,,,,,,,,,,,,,,,,,,,,,,51930,2022-12-01_11h15.29.442,vts_reward_expectancy_bt_OFFLINE,2022.2.4,59.974684213751196,
1,0,0,0,0,0,1,0,triangle,hexagon,2,0,2,0,0,2,2,1,,,,,,,,,,,,,,,,,,,,,,,,,,,,,,,,,,,,,,,,986.1872701010434,986.1872701010434,986.1872701010434,986.1872701010434,986.1872701010434,986.1872701010434,986.1872701010434,986.1872701010434,986.1872701010434,986.1872701010434,a,1.124495510943234,1,585,2,987.3382654529996,988.8399809609982,,,,,,,,,,,,,,,,,,,,,,,,,,,,,,,,,,,,,,,,,,,,,,,,,,,,,,,,,,,,,,,,,,,,,,,51930,2022-12-01_11h15.29.442,vts_reward_expectancy_bt_OFFLINE,2022.2.4,59.974684213751196,
0,0,0,1,0,0,1,0,star,hexagon,2,0,2,0,0,3,3,11,,,,,,,,,,,,,,,,,,,,,,,,,,,,,,,,,,,,,,,,989.3405465620453,989.3405465620453,989.3405465620453,989.3405465620453,989.3405465620453,989.3405465620453,989.3405465620453,989.3405465620453,989.3405465620453,989.3405465620453,a,2.36242968699662,10,595,2,991.7264655260369,993.2281169430353,,,,,,,,,,,,,,,,,,,,,,,,,,,,,,,,,,,,,,,,,,,,,,,,,,,,,,,,,,,,,,,,,,,,,,,51930,2022-12-01_11h15.29.442,vts_reward_expectancy_bt_OFFLINE,2022.2.4,59.974684213751196,
1,0,0,0,0,1,0,0,triangle,circle,2,0,2,0,0,4,4,0,,,,,,,,,,,,,,,,,,,,,,,,,,,,,,,,,,,,,,,,993.728921670001,993.728921670001,993.728921670001,993.728921670001,993.728921670001,993.728921670001,993.728921670001,993.728921670001,993.728921670001,993.728921670001,l,2.5911049219430424,1,596,2,996.3483687530388,997.8498888080358,,,,,,,,,,,,,,,,,,,,,,,,,,,,,,,,,,,,,,,,,,,,,,,,,,,,,,,,,,,,,,,,,,,,,,,51930,2022-12-01_11h15.29.442,vts_reward_expectancy_bt_OFFLINE,2022.2.4,59.974684213751196,
0,0,0,1,1,0,0,0,star,triangle,2,0,2,0,0,5,5,9,,,,,,,,,,,,,,,,,,,,,,,,,,,,,,,,,,,,,,,,998.3505984920193,998.3505984920193,998.3505984920193,998.3505984920193,998.3505984920193,998.3505984920193,998.3505984920193,998.3505984920193,998.3505984920193,998.3505984920193,l,1.6736002819379792,10,606,2,1000.0523425100255,1001.5541820300277,,,,,,,,,,,,,,,,,,,,,,,,,,,,,,,,,,,,,,,,,,,,,,,,,,,,,,,,,,,,,,,,,,,,,,,51930,2022-12-01_11h15.29.442,vts_reward_expectancy_bt_OFFLINE,2022.2.4,59.974684213751196,
0,0,1,0,0,0,0,1,hexagon,star,2,0,2,0,0,6,6,8,,,,,,,,,,,,,,,,,,,,,,,,,,,,,,,,,,,,,,,,1002.0543852740084,1002.0543852740084,1002.0543852740084,1002.0543852740084,1002.0543852740084,1002.0543852740084,1002.0543852740084,1002.0543852740084,1002.0543852740084,1002.0543852740084,l,3.449210297956597,10,616,2,1005.5250345730456,1007.0267952239956,,,,,,,,,,,,,,,,,,,,,,,,,,,,,,,,,,,,,,,,,,,,,,,,,,,,,,,,,,,,,,,,,,,,,,,51930,2022-12-01_11h15.29.442,vts_reward_expectancy_bt_OFFLINE,2022.2.4,59.974684213751196,
1,0,0,0,0,0,0,1,triangle,star,2,0,2,0,0,7,7,2,,,,,,,,,,,,,,,,,,,,,,,,,,,,,,,,,,,,,,,,1007.5273132500006,1007.5273132500006,1007.5273132500006,1007.5273132500006,1007.5273132500006,1007.5273132500006,1007.5273132500006,1007.5273132500006,1007.5273132500006,1007.5273132500006,a,1.6323474699747749,1,617,2,1009.179235454998,1010.6807388580055,,,,,,,,,,,,,,,,,,,,,,,,,,,,,,,,,,,,,,,,,,,,,,,,,,,,,,,,,,,,,,,,,,,,,,,51930,2022-12-01_11h15.29.442,vts_reward_expectancy_bt_OFFLINE,2022.2.4,59.974684213751196,
0,0,0,1,0,1,0,0,star ,circle,2,0,2,0,0,8,8,10,,,,,,,,,,,,,,,,,,,,,,,,,,,,,,,,,,,,,,,,1011.1812317760196,1011.1812317760196,1011.1812317760196,1011.1812317760196,1011.1812317760196,1011.1812317760196,1011.1812317760196,1011.1812317760196,1011.1812317760196,1011.1812317760196,l,1.0022679019602947,1,618,2,1012.2158127200091,1013.7176836070139,,,,,,,,,,,,,,,,,,,,,,,,,,,,,,,,,,,,,,,,,,,,,,,,,,,,,,,,,,,,,,,,,,,,,,,51930,2022-12-01_11h15.29.442,vts_reward_expectancy_bt_OFFLINE,2022.2.4,59.974684213751196,
0,0,1,0,0,1,0,0,hexagon,circle,2,0,2,0,0,9,9,7,,,,,,,,,,,,,,,,,,,,,,,,,,,,,,,,,,,,,,,,1014.2179946170072,1014.2179946170072,1014.2179946170072,1014.2179946170072,1014.2179946170072,1014.2179946170072,1014.2179946170072,1014.2179946170072,1014.2179946170072,1014.2179946170072,a,3.5010294629610144,1,619,2,1017.738588887034,1019.2402327960008,,,,,,,,,,,,,,,,,,,,,,,,,,,,,,,,,,,,,,,,,,,,,,,,,,,,,,,,,,,,,,,,,,,,,,,51930,2022-12-01_11h15.29.442,vts_reward_expectancy_bt_OFFLINE,2022.2.4,59.974684213751196,
0,1,0,0,1,0,0,0,circle,triangle,2,0,2,0,0,10,10,3,,,,,,,,,,,,,,,,,,,,,,,,,,,,,,,,,,,,,,,,1019.7410494550131,1019.7410494550131,1019.7410494550131,1019.7410494550131,1019.7410494550131,1019.7410494550131,1019.7410494550131,1019.7410494550131,1019.7410494550131,1019.7410494550131,l,0.6901417199405842,10,629,2,1020.4582200020086,1021.9597555660293,,,,,,,,,,,,,,,,,,,,,,,,,,,,,,,,,,,,,,,,,,,,,,,,,,,,,,,,,,,,,,,,,,,,,,,51930,2022-12-01_11h15.29.442,vts_reward_expectancy_bt_OFFLINE,2022.2.4,59.974684213751196,
0,1,0,0,0,0,1,0,circle,hexagon,2,0,2,0,0,11,11,4,,,,,,,,,,,,,,,,,,,,,,,,,,,,,,,,,,,,,,,,1022.4603782590129,1022.4603782590129,1022.4603782590129,1022.4603782590129,1022.4603782590129,1022.4603782590129,1022.4603782590129,1022.4603782590129,1022.4603782590129,1022.4603782590129,a,0.5943760049995035,1,630,2,1023.0777553230291,1024.579408103018,,,,,,,,,,,,,,,,,,,,,,,,,,,,,,,,,,,,,,,,,,,,,,,,,,,,,,,,,,,,,,,,,,,,,,,51930,2022-12-01_11h15.29.442,vts_reward_expectancy_bt_OFFLINE,2022.2.4,59.974684213751196,
0,0,0,1,0,1,0,0,star ,circle,2,0,2,0,1,0,12,10,,,,,,,,,,,,,,,,,,,,,,,,,,,,,,,,,,,,,,,,1025.0799918459961,1025.0799918459961,1025.0799918459961,1025.0799918459961,1025.0799918459961,1025.0799918459961,1025.0799918459961,1025.0799918459961,1025.0799918459961,1025.0799918459961,l,0.5912656059372239,10,640,2,1025.6975631620153,1027.1989488010295,,,,,,,,,,,,,,,,,,,,,,,,,,,,,,,,,,,,,,,,,,,,,,,,,,,,,,,,,,,,,,,,,,,,,,,51930,2022-12-01_11h15.29.442,vts_reward_expectancy_bt_OFFLINE,2022.2.4,59.974684213751196,
0,0,0,1,1,0,0,0,star,triangle,2,0,2,0,1,1,13,9,,,,,,,,,,,,,,,,,,,,,,,,,,,,,,,,,,,,,,,,1027.6999056490022,1027.6999056490022,1027.6999056490022,1027.6999056490022,1027.6999056490022,1027.6999056490022,1027.6999056490022,1027.6999056490022,1027.6999056490022,1027.6999056490022,l,1.5627741299686022,1,641,2,1029.2846878070268,1030.7863307190128,,,,,,,,,,,,,,,,,,,,,,,,,,,,,,,,,,,,,,,,,,,,,,,,,,,,,,,,,,,,,,,,,,,,,,,51930,2022-12-01_11h15.29.442,vts_reward_expectancy_bt_OFFLINE,2022.2.4,59.974684213751196,
1,0,0,0,0,0,1,0,triangle,hexagon,2,0,2,0,1,2,14,1,,,,,,,,,,,,,,,,,,,,,,,,,,,,,,,,,,,,,,,,1031.2869048489956,1031.2869048489956,1031.2869048489956,1031.2869048489956,1031.2869048489956,1031.2869048489956,1031.2869048489956,1031.2869048489956,1031.2869048489956,1031.2869048489956,a,2.336613586929161,10,651,2,1033.6560681270203,1035.1576924310066,,,,,,,,,,,,,,,,,,,,,,,,,,,,,,,,,,,,,,,,,,,,,,,,,,,,,,,,,,,,,,,,,,,,,,,51930,2022-12-01_11h15.29.442,vts_reward_expectancy_bt_OFFLINE,2022.2.4,59.974684213751196,
1,0,0,0,0,0,0,1,triangle,star,2,0,2,0,1,3,15,2,,,,,,,,,,,,,,,,,,,,,,,,,,,,,,,,,,,,,,,,1035.6583410160383,1035.6583410160383,1035.6583410160383,1035.6583410160383,1035.6583410160383,1035.6583410160383,1035.6583410160383,1035.6583410160383,1035.6583410160383,1035.6583410160383,a,0.9899130579433404,1,652,2,1036.6762711130432,1038.1777507270453,,,,,,,,,,,,,,,,,,,,,,,,,,,,,,,,,,,,,,,,,,,,,,,,,,,,,,,,,,,,,,,,,,,,,,,51930,2022-12-01_11h15.29.442,vts_reward_expectancy_bt_OFFLINE,2022.2.4,59.974684213751196,
0,1,0,0,1,0,0,0,circle,triangle,2,0,2,0,1,4,16,3,,,,,,,,,,,,,,,,,,,,,,,,,,,,,,,,,,,,,,,,1038.6783875250258,1038.6783875250258,1038.6783875250258,1038.6783875250258,1038.6783875250258,1038.6783875250258,1038.6783875250258,1038.6783875250258,1038.6783875250258,1038.6783875250258,a,1.2486452019657008,1,653,2,1039.9463610050152,1041.448004052043,,,,,,,,,,,,,,,,,,,,,,,,,,,,,,,,,,,,,,,,,,,,,,,,,,,,,,,,,,,,,,,,,,,,,,,51930,2022-12-01_11h15.29.442,vts_reward_expectancy_bt_OFFLINE,2022.2.4,59.974684213751196,
0,0,0,1,0,0,1,0,star,hexagon,2,0,2,0,1,5,17,11,,,,,,,,,,,,,,,,,,,,,,,,,,,,,,,,,,,,,,,,1041.948539644014,1041.948539644014,1041.948539644014,1041.948539644014,1041.948539644014,1041.948539644014,1041.948539644014,1041.948539644014,1041.948539644014,1041.948539644014,a,1.970401331956964,1,654,2,1043.950837092998,1045.4524123220472,,,,,,,,,,,,,,,,,,,,,,,,,,,,,,,,,,,,,,,,,,,,,,,,,,,,,,,,,,,,,,,,,,,,,,,51930,2022-12-01_11h15.29.442,vts_reward_expectancy_bt_OFFLINE,2022.2.4,59.974684213751196,
0,0,1,0,1,0,0,0,hexagon,triangle,2,0,2,0,1,6,18,6,,,,,,,,,,,,,,,,,,,,,,,,,,,,,,,,,,,,,,,,1045.9531804050202,1045.9531804050202,1045.9531804050202,1045.9531804050202,1045.9531804050202,1045.9531804050202,1045.9531804050202,1045.9531804050202,1045.9531804050202,1045.9531804050202,l,0.783104543981608,1,655,2,1046.7540118110483,1048.2557367550326,,,,,,,,,,,,,,,,,,,,,,,,,,,,,,,,,,,,,,,,,,,,,,,,,,,,,,,,,,,,,,,,,,,,,,,51930,2022-12-01_11h15.29.442,vts_reward_expectancy_bt_OFFLINE,2022.2.4,59.974684213751196,
0,1,0,0,0,0,1,0,circle,hexagon,2,0,2,0,1,7,19,4,,,,,,,,,,,,,,,,,,,,,,,,,,,,,,,,,,,,,,,,1048.756234503002,1048.756234503002,1048.756234503002,1048.756234503002,1048.756234503002,1048.756234503002,1048.756234503002,1048.756234503002,1048.756234503002,1048.756234503002,a,0.6752391989575699,1,656,2,1049.456798223022,1050.9585394880269,,,,,,,,,,,,,,,,,,,,,,,,,,,,,,,,,,,,,,,,,,,,,,,,,,,,,,,,,,,,,,,,,,,,,,,51930,2022-12-01_11h15.29.442,vts_reward_expectancy_bt_OFFLINE,2022.2.4,59.974684213751196,
0,0,1,0,0,1,0,0,hexagon,circle,2,0,2,0,1,8,20,7,,,,,,,,,,,,,,,,,,,,,,,,,,,,,,,,,,,,,,,,1051.4588962250273,1051.4588962250273,1051.4588962250273,1051.4588962250273,1051.4588962250273,1051.4588962250273,1051.4588962250273,1051.4588962250273,1051.4588962250273,1051.4588962250273,l,1.044574916944839,1,657,2,1052.527061683999,1054.0285229150322,,,,,,,,,,,,,,,,,,,,,,,,,,,,,,,,,,,,,,,,,,,,,,,,,,,,,,,,,,,,,,,,,,,,,,,51930,2022-12-01_11h15.29.442,vts_reward_expectancy_bt_OFFLINE,2022.2.4,59.974684213751196,
1,0,0,0,0,1,0,0,triangle,circle,2,0,2,0,1,9,21,0,,,,,,,,,,,,,,,,,,,,,,,,,,,,,,,,,,,,,,,,1054.5290309690172,1054.5290309690172,1054.5290309690172,1054.5290309690172,1054.5290309690172,1054.5290309690172,1054.5290309690172,1054.5290309690172,1054.5290309690172,1054.5290309690172,l,1.4859438259154558,10,667,2,1056.0474992940435,1057.5490792010096,,,,,,,,,,,,,,,,,,,,,,,,,,,,,,,,,,,,,,,,,,,,,,,,,,,,,,,,,,,,,,,,,,,,,,,51930,2022-12-01_11h15.29.442,vts_reward_expectancy_bt_OFFLINE,2022.2.4,59.974684213751196,
0,0,1,0,0,0,0,1,hexagon,star,2,0,2,0,1,10,22,8,,,,,,,,,,,,,,,,,,,,,,,,,,,,,,,,,,,,,,,,1058.0498318780446,1058.0498318780446,1058.0498318780446,1058.0498318780446,1058.0498318780446,1058.0498318780446,1058.0498318780446,1058.0498318780446,1058.0498318780446,1058.0498318780446,l,1.8534343249630183,1,668,2,1059.9350625170046,1061.4367256740225,,,,,,,,,,,,,,,,,,,,,,,,,,,,,,,,,,,,,,,,,,,,,,,,,,,,,,,,,,,,,,,,,,,,,,,51930,2022-12-01_11h15.29.442,vts_reward_expectancy_bt_OFFLINE,2022.2.4,59.974684213751196,
0,1,0,0,0,0,0,1,circle,star,2,0,2,0,1,11,23,5,,,,,,,,,,,,,,,,,,,,,,,,,,,,,,,,,,,,,,,,1061.9373803340131,1061.9373803340131,1061.9373803340131,1061.9373803340131,1061.9373803340131,1061.9373803340131,1061.9373803340131,1061.9373803340131,1061.9373803340131,1061.9373803340131,a,0.5258933989680372,1,669,2,1062.4878085770179,1063.9897278920398,,,,,,,,,,,,,,,,,,,,,,,,,,,,,,,,,,,,,,,,,,,,,,,,,,,,,,,,,,,,,,,,,,,,,,,51930,2022-12-01_11h15.29.442,vts_reward_expectancy_bt_OFFLINE,2022.2.4,59.974684213751196,
0,0,1,0,1,0,0,0,hexagon,triangle,2,0,2,0,2,0,24,6,,,,,,,,,,,,,,,,,,,,,,,,,,,,,,,,,,,,,,,,1064.4902143260115,1064.4902143260115,1064.4902143260115,1064.4902143260115,1064.4902143260115,1064.4902143260115,1064.4902143260115,1064.4902143260115,1064.4902143260115,1064.4902143260115,l,2.3730752419796772,10,679,2,1066.8931295930524,1068.394548625045,,,,,,,,,,,,,,,,,,,,,,,,,,,,,,,,,,,,,,,,,,,,,,,,,,,,,,,,,,,,,,,,,,,,,,,51930,2022-12-01_11h15.29.442,vts_reward_expectancy_bt_OFFLINE,2022.2.4,59.974684213751196,
0,0,0,1,0,0,1,0,star,hexagon,2,0,2,0,2,1,25,11,,,,,,,,,,,,,,,,,,,,,,,,,,,,,,,,,,,,,,,,1068.8949524300406,1068.8949524300406,1068.8949524300406,1068.8949524300406,1068.8949524300406,1068.8949524300406,1068.8949524300406,1068.8949524300406,1068.8949524300406,1068.8949524300406,l,1.9757772599696182,1,680,2,1070.8972598999972,1072.3986854749965,,,,,,,,,,,,,,,,,,,,,,,,,,,,,,,,,,,,,,,,,,,,,,,,,,,,,,,,,,,,,,,,,,,,,,,51930,2022-12-01_11h15.29.442,vts_reward_expectancy_bt_OFFLINE,2022.2.4,59.974684213751196,
0,1,0,0,0,0,1,0,circle,hexagon,2,0,2,0,2,2,26,4,,,,,,,,,,,,,,,,,,,,,,,,,,,,,,,,,,,,,,,,1072.8992823790177,1072.8992823790177,1072.8992823790177,1072.8992823790177,1072.8992823790177,1072.8992823790177,1072.8992823790177,1072.8992823790177,1072.8992823790177,1072.8992823790177,a,2.0444938999717124,1,681,2,1074.9682504350203,1076.4700839860016,,,,,,,,,,,,,,,,,,,,,,,,,,,,,,,,,,,,,,,,,,,,,,,,,,,,,,,,,,,,,,,,,,,,,,,51930,2022-12-01_11h15.29.442,vts_reward_expectancy_bt_OFFLINE,2022.2.4,59.974684213751196,
1,0,0,0,0,1,0,0,triangle,circle,2,0,2,0,2,3,27,0,,,,,,,,,,,,,,,,,,,,,,,,,,,,,,,,,,,,,,,,1076.9707928300486,1076.9707928300486,1076.9707928300486,1076.9707928300486,1076.9707928300486,1076.9707928300486,1076.9707928300486,1076.9707928300486,1076.9707928300486,1076.9707928300486,l,0.8518992759636603,1,682,2,1077.8548631930025,1079.3567121420056,,,,,,,,,,,,,,,,,,,,,,,,,,,,,,,,,,,,,,,,,,,,,,,,,,,,,,,,,,,,,,,,,,,,,,,51930,2022-12-01_11h15.29.442,vts_reward_expectancy_bt_OFFLINE,2022.2.4,59.974684213751196,
0,0,1,0,0,0,0,1,hexagon,star,2,0,2,0,2,4,28,8,,,,,,,,,,,,,,,,,,,,,,,,,,,,,,,,,,,,,,,,1079.8570785930497,1079.8570785930497,1079.8570785930497,1079.8570785930497,1079.8570785930497,1079.8570785930497,1079.8570785930497,1079.8570785930497,1079.8570785930497,1079.8570785930497,a,3.4138575230026618,10,692,2,1083.2939528319985,1084.7956239230116,,,,,,,,,,,,,,,,,,,,,,,,,,,,,,,,,,,,,,,,,,,,,,,,,,,,,,,,,,,,,,,,,,,,,,,51930,2022-12-01_11h15.29.442,vts_reward_expectancy_bt_OFFLINE,2022.2.4,59.974684213751196,
0,0,0,1,0,1,0,0,star ,circle,2,0,2,0,2,5,29,10,,,,,,,,,,,,,,,,,,,,,,,,,,,,,,,,,,,,,,,,1085.2962132070097,1085.2962132070097,1085.2962132070097,1085.2962132070097,1085.2962132070097,1085.2962132070097,1085.2962132070097,1085.2962132070097,1085.2962132070097,1085.2962132070097,a,1.3831221089349128,10,702,2,1086.6979031260125,1088.199775576999,1088.199775576999,,,,,,,,,,,,,,,,,,,,,,,,,,,,,,,,,,,,,,,,,,,,,,,,,,,,,,,,,,,,,,,,,,,,,,51930,2022-12-01_11h15.29.442,vts_reward_expectancy_bt_OFFLINE,2022.2.4,59.974684213751196,
0,0,1,0,0,1,0,0,hexagon,circle,2,0,2,0,2,6,30,7,,,,,,,,,,,,,,,,,,,,,,,,,,,,,,,,,,,,,,,,1088.7001750460477,1088.7001750460477,1088.7001750460477,1088.7001750460477,1088.7001750460477,1088.7001750460477,1088.7001750460477,1088.7001750460477,1088.7001750460477,1088.7001750460477,l,1.1160128449555486,10,712,2,1089.8347410570132,1091.3363615320413,,,,,,,,,,,,,,,,,,,,,,,,,,,,,,,,,,,,,,,,,,,,,,,,,,,,,,,,,,,,,,,,,,,,,,,51930,2022-12-01_11h15.29.442,vts_reward_expectancy_bt_OFFLINE,2022.2.4,59.974684213751196,
1,0,0,0,0,0,1,0,triangle,hexagon,2,0,2,0,2,7,31,1,,,,,,,,,,,,,,,,,,,,,,,,,,,,,,,,,,,,,,,,1091.8369266670197,1091.8369266670197,1091.8369266670197,1091.8369266670197,1091.8369266670197,1091.8369266670197,1091.8369266670197,1091.8369266670197,1091.8369266670197,1091.8369266670197,l,1.457456812961027,10,722,2,1093.3217769450275,1094.8235615059966,,,,,,,,,,,,,,,,,,,,,,,,,,,,,,,,,,,,,,,,,,,,,,,,,,,,,,,,,,,,,,,,,,,,,,,51930,2022-12-01_11h15.29.442,vts_reward_expectancy_bt_OFFLINE,2022.2.4,59.974684213751196,
0,1,0,0,0,0,0,1,circle,star,2,0,2,0,2,8,32,5,,,,,,,,,,,,,,,,,,,,,,,,,,,,,,,,,,,,,,,,1095.3241459919955,1095.3241459919955,1095.3241459919955,1095.3241459919955,1095.3241459919955,1095.3241459919955,1095.3241459919955,1095.3241459919955,1095.3241459919955,1095.3241459919955,a,1.9864731469424441,1,723,2,1097.3431641370407,1098.8446688970434,,,,,,,,,,,,,,,,,,,,,,,,,,,,,,,,,,,,,,,,,,,,,,,,,,,,,,,,,,,,,,,,,,,,,,,51930,2022-12-01_11h15.29.442,vts_reward_expectancy_bt_OFFLINE,2022.2.4,59.974684213751196,
1,0,0,0,0,0,0,1,triangle,star,2,0,2,0,2,9,33,2,,,,,,,,,,,,,,,,,,,,,,,,,,,,,,,,,,,,,,,,1099.345245056029,1099.345245056029,1099.345245056029,1099.345245056029,1099.345245056029,1099.345245056029,1099.345245056029,1099.345245056029,1099.345245056029,1099.345245056029,l,1.253112637961749,10,733,2,1100.6298893000348,1102.1316009940347,,,,,,,,,,,,,,,,,,,,,,,,,,,,,,,,,,,,,,,,,,,,,,,,,,,,,,,,,,,,,,,,,,,,,,,51930,2022-12-01_11h15.29.442,vts_reward_expectancy_bt_OFFLINE,2022.2.4,59.974684213751196,
0,1,0,0,1,0,0,0,circle,triangle,2,0,2,0,2,10,34,3,,,,,,,,,,,,,,,,,,,,,,,,,,,,,,,,,,,,,,,,1102.632237295038,1102.632237295038,1102.632237295038,1102.632237295038,1102.632237295038,1102.632237295038,1102.632237295038,1102.632237295038,1102.632237295038,1102.632237295038,a,0.768105917959474,1,734,2,1103.4332449420472,1104.9346488110023,,,,,,,,,,,,,,,,,,,,,,,,,,,,,,,,,,,,,,,,,,,,,,,,,,,,,,,,,,,,,,,,,,,,,,,51930,2022-12-01_11h15.29.442,vts_reward_expectancy_bt_OFFLINE,2022.2.4,59.974684213751196,
0,0,0,1,1,0,0,0,star,triangle,2,0,2,0,2,11,35,9,,,,,,,,,,,,,,,,,,,,,,,,,,,,,,,,,,,,,,,,1105.4352850690484,1105.4352850690484,1105.4352850690484,1105.4352850690484,1105.4352850690484,1105.4352850690484,1105.4352850690484,1105.4352850690484,1105.4352850690484,1105.4352850690484,a,1.0437283739447594,10,744,2,1106.5030516600236,1108.0047500380315,,,,,,,,,,,,,,,,,,,,,,,,,,,,,,,,,,,,,,,,,,,,,,,,,,,,,,,,,,,,,,,,,,,,,,,51930,2022-12-01_11h15.29.442,vts_reward_expectancy_bt_OFFLINE,2022.2.4,59.974684213751196,
0,1,0,0,0,0,0,1,circle,star,2,0,2,0,3,0,36,5,,,,,,,,,,,,,,,,,,,,,,,,,,,,,,,,,,,,,,,,1108.5054701920017,1108.5054701920017,1108.5054701920017,1108.5054701920017,1108.5054701920017,1108.5054701920017,1108.5054701920017,1108.5054701920017,1108.5054701920017,1108.5054701920017,l,0.8061797789414413,10,754,2,1109.3395382870222,1110.8413693910115,,,,,,,,,,,,,,,,,,,,,,,,,,,,,,,,,,,,,,,,,,,,,,,,,,,,,,,,,,,,,,,,,,,,,,,51930,2022-12-01_11h15.29.442,vts_reward_expectancy_bt_OFFLINE,2022.2.4,59.974684213751196,
1,0,0,0,0,0,1,0,triangle,hexagon,2,0,2,0,3,1,37,1,,,,,,,,,,,,,,,,,,,,,,,,,,,,,,,,,,,,,,,,1111.3417359600426,1111.3417359600426,1111.3417359600426,1111.3417359600426,1111.3417359600426,1111.3417359600426,1111.3417359600426,1111.3417359600426,1111.3417359600426,1111.3417359600426,a,0.9286399099510163,10,764,2,1112.2925824670237,1113.7943938940298,,,,,,,,,,,,,,,,,,,,,,,,,,,,,,,,,,,,,,,,,,,,,,,,,,,,,,,,,,,,,,,,,,,,,,,51930,2022-12-01_11h15.29.442,vts_reward_expectancy_bt_OFFLINE,2022.2.4,59.974684213751196,
1,0,0,0,0,0,0,1,triangle,star,2,0,2,0,3,2,38,2,,,,,,,,,,,,,,,,,,,,,,,,,,,,,,,,,,,,,,,,1114.2950423870352,1114.2950423870352,1114.2950423870352,1114.2950423870352,1114.2950423870352,1114.2950423870352,1114.2950423870352,1114.2950423870352,1114.2950423870352,1114.2950423870352,l,0.6735383469494991,10,774,2,1114.995777707023,1116.4974333210266,,,,,,,,,,,,,,,,,,,,,,,,,,,,,,,,,,,,,,,,,,,,,,,,,,,,,,,,,,,,,,,,,,,,,,,51930,2022-12-01_11h15.29.442,vts_reward_expectancy_bt_OFFLINE,2022.2.4,59.974684213751196,
1,0,0,0,0,1,0,0,triangle,circle,2,0,2,0,3,3,39,0,,,,,,,,,,,,,,,,,,,,,,,,,,,,,,,,,,,,,,,,1116.9982382820453,1116.9982382820453,1116.9982382820453,1116.9982382820453,1116.9982382820453,1116.9982382820453,1116.9982382820453,1116.9982382820453,1116.9982382820453,1116.9982382820453,a,0.9689631219953299,1,775,2,1117.9990565630142,1119.5008236240246,,,,,,,,,,,,,,,,,,,,,,,,,,,,,,,,,,,,,,,,,,,,,,,,,,,,,,,,,,,,,,,,,,,,,,,51930,2022-12-01_11h15.29.442,vts_reward_expectancy_bt_OFFLINE,2022.2.4,59.974684213751196,
0,1,0,0,1,0,0,0,circle,triangle,2,0,2,0,3,4,40,3,,,,,,,,,,,,,,,,,,,,,,,,,,,,,,,,,,,,,,,,1120.001511922048,1120.001511922048,1120.001511922048,1120.001511922048,1120.001511922048,1120.001511922048,1120.001511922048,1120.001511922048,1120.001511922048,1120.001511922048,l,0.8697675909497775,10,785,2,1120.9022553520044,1122.4038332330529,,,,,,,,,,,,,,,,,,,,,,,,,,,,,,,,,,,,,,,,,,,,,,,,,,,,,,,,,,,,,,,,,,,,,,,51930,2022-12-01_11h15.29.442,vts_reward_expectancy_bt_OFFLINE,2022.2.4,59.974684213751196,
0,0,0,1,1,0,0,0,star,triangle,2,0,2,0,3,5,41,9,,,,,,,,,,,,,,,,,,,,,,,,,,,,,,,,,,,,,,,,1122.9044168679975,1122.9044168679975,1122.9044168679975,1122.9044168679975,1122.9044168679975,1122.9044168679975,1122.9044168679975,1122.9044168679975,1122.9044168679975,1122.9044168679975,l,1.454770298965741,10,795,2,1124.3896445740247,1125.8916152780293,,,,,,,,,,,,,,,,,,,,,,,,,,,,,,,,,,,,,,,,,,,,,,,,,,,,,,,,,,,,,,,,,,,,,,,51930,2022-12-01_11h15.29.442,vts_reward_expectancy_bt_OFFLINE,2022.2.4,59.974684213751196,
0,0,1,0,0,0,0,1,hexagon,star,2,0,2,0,3,6,42,8,,,,,,,,,,,,,,,,,,,,,,,,,,,,,,,,,,,,,,,,1126.391637998051,1126.391637998051,1126.391637998051,1126.391637998051,1126.391637998051,1126.391637998051,1126.391637998051,1126.391637998051,1126.391637998051,1126.391637998051,l,0.8566949879750609,10,805,2,1127.2761302250437,1128.7776265270077,,,,,,,,,,,,,,,,,,,,,,,,,,,,,,,,,,,,,,,,,,,,,,,,,,,,,,,,,,,,,,,,,,,,,,,51930,2022-12-01_11h15.29.442,vts_reward_expectancy_bt_OFFLINE,2022.2.4,59.974684213751196,
0,0,0,1,0,0,1,0,star,hexagon,2,0,2,0,3,7,43,11,,,,,,,,,,,,,,,,,,,,,,,,,,,,,,,,,,,,,,,,1129.2780450810096,1129.2780450810096,1129.2780450810096,1129.2780450810096,1129.2780450810096,1129.2780450810096,1129.2780450810096,1129.2780450810096,1129.2780450810096,1129.2780450810096,a,0.7936126429121941,10,815,2,1130.0956788850017,1131.597606506024,,,,,,,,,,,,,,,,,,,,,,,,,,,,,,,,,,,,,,,,,,,,,,,,,,,,,,,,,,,,,,,,,,,,,,,51930,2022-12-01_11h15.29.442,vts_reward_expectancy_bt_OFFLINE,2022.2.4,59.974684213751196,
0,0,1,0,0,1,0,0,hexagon,circle,2,0,2,0,3,8,44,7,,,,,,,,,,,,,,,,,,,,,,,,,,,,,,,,,,,,,,,,1132.0983047360205,1132.0983047360205,1132.0983047360205,1132.0983047360205,1132.0983047360205,1132.0983047360205,1132.0983047360205,1132.0983047360205,1132.0983047360205,1132.0983047360205,l,0.7092476799734868,1,816,2,1132.8321471160161,1134.3337707880419,,,,,,,,,,,,,,,,,,,,,,,,,,,,,,,,,,,,,,,,,,,,,,,,,,,,,,,,,,,,,,,,,,,,,,,51930,2022-12-01_11h15.29.442,vts_reward_expectancy_bt_OFFLINE,2022.2.4,59.974684213751196,
0,0,0,1,0,1,0,0,star ,circle,2,0,2,0,3,9,45,10,,,,,,,,,,,,,,,,,,,,,,,,,,,,,,,,,,,,,,,,1134.8342809770256,1134.8342809770256,1134.8342809770256,1134.8342809770256,1134.8342809770256,1134.8342809770256,1134.8342809770256,1134.8342809770256,1134.8342809770256,1134.8342809770256,a,0.9090016349800862,1,817,2,1135.768748773029,1137.2702629940468,,,,,,,,,,,,,,,,,,,,,,,,,,,,,,,,,,,,,,,,,,,,,,,,,,,,,,,,,,,,,,,,,,,,,,,51930,2022-12-01_11h15.29.442,vts_reward_expectancy_bt_OFFLINE,2022.2.4,59.974684213751196,
0,0,1,0,1,0,0,0,hexagon,triangle,2,0,2,0,3,10,46,6,,,,,,,,,,,,,,,,,,,,,,,,,,,,,,,,,,,,,,,,1137.7707634750404,1137.7707634750404,1137.7707634750404,1137.7707634750404,1137.7707634750404,1137.7707634750404,1137.7707634750404,1137.7707634750404,1137.7707634750404,1137.7707634750404,l,1.124463002954144,10,827,2,1138.9221515770187,1140.4237731110188,,,,,,,,,,,,,,,,,,,,,,,,,,,,,,,,,,,,,,,,,,,,,,,,,,,,,,,,,,,,,,,,,,,,,,,51930,2022-12-01_11h15.29.442,vts_reward_expectancy_bt_OFFLINE,2022.2.4,59.974684213751196,
0,1,0,0,0,0,1,0,circle,hexagon,2,0,2,0,3,11,47,4,,,,,,,,,,,,,,,,,,,,,,,,,,,,,,,,,,,,,,,,1140.9243484699982,1140.9243484699982,1140.9243484699982,1140.9243484699982,1140.9243484699982,1140.9243484699982,1140.9243484699982,1140.9243484699982,1140.9243484699982,1140.9243484699982,l,0.994676278962288,10,837,2,1141.942495520052,1143.4438576060347,,,,,,,,,,,,,,,,,,,,,,,,,,,,,,,,,,,,,,,,,,,,,,,,,,,,,,,,,,,,,,,,,,,,,,,51930,2022-12-01_11h15.29.442,vts_reward_expectancy_bt_OFFLINE,2022.2.4,59.974684213751196,
,,,,,,,,,,,,,,,,,,0,0,0,0,0,0,0,0,,,,,,,,,,,,,,,,,,,,,,,,,,,,,,,,,,,,,,,,,,,,,,,,1211.7858996830182,,H,139,star,0.0021542829927057028,1207.412126848998,1208.9161338830017,1208.9161338830017,1208.9161338830017,1,0,d,1.346581575984601,0,1210.2842175459955,,,,,,,,,,,,,,,,,,,,,,,,,,,,,,,,,,,,,,,,,,,,,,,,,,,,,,,,51930,2022-12-01_11h15.29.442,vts_reward_expectancy_bt_OFFLINE,2022.2.4,59.974684213751196,
,,,,,,,,,,,,,,,,,,0,0,0,0,1,0,1,0,,,,,,,,,,,,,,,,,,,,,,,,,,,,,,,,,,,,,,,,,,,,,,,,1216.5076823080308,,B,125,triangle,0.0014973250217735767,1212.7644140420016,1214.2718636030331,1214.2718636030331,1214.2718636030331,1,0,d,0.7110206129145809,0,1215.00602386205,,,,,,,,,,,,,,,,,,,,,,,,,,,,,,,,,,,,,,,,,,,,,,,,,,,,,,,,51930,2022-12-01_11h15.29.442,vts_reward_expectancy_bt_OFFLINE,2022.2.4,59.974684213751196,
,,,,,,,,,,,,,,,,,,0,0,0,0,2,0,2,0,,,,,,,,,,,,,,,,,,,,,,,,,,,,,,,,,,,,,,,,,,,,,,,,1221.279668127012,,Y,167,circle,0.0015798390377312899,1217.4870654290426,1218.9939147219993,1218.9939147219993,1218.9939147219993,1,0,f,0.7578668799833395,0,1219.7781807930442,,,,,,,,,,,,,,,,,,,,,,,,,,,,,,,,,,,,,,,,,,,,,,,,,,,,,,,,51930,2022-12-01_11h15.29.442,vts_reward_expectancy_bt_OFFLINE,2022.2.4,59.974684213751196,
,,,,,,,,,,,,,,,,,,0,0,0,0,3,0,3,0,,,,,,,,,,,,,,,,,,,,,,,,,,,,,,,,,,,,,,,,,,,,,,,,1226.2186462950194,,F,181,hexagon,0.001685585011728108,1222.2584955070051,1223.765783948009,1223.765783948009,1223.765783948009,1,0,d,0.9226741879829206,0,1224.71696393803,,,,,,,,,,,,,,,,,,,,,,,,,,,,,,,,,,,,,,,,,,,,,,,,,,,,,,,,51930,2022-12-01_11h15.29.442,vts_reward_expectancy_bt_OFFLINE,2022.2.4,59.974684213751196,
,,,,,,,,,,,,,,,,,,0,0,0,0,4,0,4,0,,,,,,,,,,,,,,,,,,,,,,,,,,,,,,,,,,,,,,,,,,,,,,,,1230.8569447420305,,W,174,hexagon,0.0014158139820210636,1227.1986021390185,1228.704689547012,1228.704689547012,1228.704689547012,1,0,f,0.6303956499905325,0,1229.355284329038,,,,,,,,,,,,,,,,,,,,,,,,,,,,,,,,,,,,,,,,,,,,,,,,,,,,,,,,51930,2022-12-01_11h15.29.442,vts_reward_expectancy_bt_OFFLINE,2022.2.4,59.974684213751196,
,,,,,,,,,,,,,,,,,,0,0,0,0,5,0,5,0,,,,,,,,,,,,,,,,,,,,,,,,,,,,,,,,,,,,,,,,,,,,,,,,1235.4953155850526,,U,146,triangle,0.0017035329947248101,1231.8355956680025,1233.342818584002,1233.342818584002,1233.342818584002,1,0,f,0.6239934919867665,0,1233.9937286660424,,,,,,,,,,,,,,,,,,,,,,,,,,,,,,,,,,,,,,,,,,,,,,,,,,,,,,,,51930,2022-12-01_11h15.29.442,vts_reward_expectancy_bt_OFFLINE,2022.2.4,59.974684213751196,
,,,,,,,,,,,,,,,,,,0,0,0,0,6,0,6,0,,,,,,,,,,,,,,,,,,,,,,,,,,,,,,,,,,,,,,,,,,,,,,,,1240.1503530640039,,D,160,star,0.001564416044857353,1236.4738164860173,1237.981245210045,1237.981245210045,1237.981245210045,1,0,d,0.6350419200025499,0,1238.6487110660528,,,,,,,,,,,,,,,,,,,,,,,,,,,,,,,,,,,,,,,,,,,,,,,,,,,,,,,,51930,2022-12-01_11h15.29.442,vts_reward_expectancy_bt_OFFLINE,2022.2.4,59.974684213751196,
,,,,,,,,,,,,,,,,,,0,0,0,0,7,0,7,0,,,,,,,,,,,,,,,,,,,,,,,,,,,,,,,,,,,,,,,,,,,,,,,,1244.6724182160106,,S,132,circle,0.0017392240115441382,1241.1290577110485,1242.6368290900136,1242.6368290900136,1242.6368290900136,1,0,f,0.5143862609984353,0,1243.1704449120443,,,,,,,,,,,,,,,,,,,,,,,,,,,,,,,,,,,,,,,,,,,,,,,,,,,,,,,,51930,2022-12-01_11h15.29.442,vts_reward_expectancy_bt_OFFLINE,2022.2.4,59.974684213751196,
,,,,,,,,,,,,,,,,,,0,0,0,0,8,0,8,0,,,,,,,,,,,,,,,,,,,,,,,,,,,,,,,,,,,,,,,,,,,,,,,,1249.360716191004,,H,139,star,0.0013193529448471963,1245.649339577998,1247.158280794043,1247.158280794043,1247.158280794043,1,0,d,0.6723188469768502,0,1247.8576671080082,,,,,,,,,,,,,,,,,,,,,,,,,,,,,,,,,,,,,,,,,,,,,,,,,,,,,,,,51930,2022-12-01_11h15.29.442,vts_reward_expectancy_bt_OFFLINE,2022.2.4,59.974684213751196,
,,,,,,,,,,,,,,,,,,0,0,0,0,9,0,9,0,,,,,,,,,,,,,,,,,,,,,,,,,,,,,,,,,,,,,,,,,,,,,,,,1253.9158394560218,,B,125,circle,0.0028128770063631237,1250.3380831360118,1251.8466628620517,1251.8466628620517,1251.8466628620517,1,0,d,0.5440122519503348,0,1252.4141869560117,,,,,,,,,,,,,,,,,,,,,,,,,,,,,,,,,,,,,,,,,,,,,,,,,,,,,,,,51930,2022-12-01_11h15.29.442,vts_reward_expectancy_bt_OFFLINE,2022.2.4,59.974684213751196,
,,,,,,,,,,,,,,,,,,,,,,,,,,0,0,0,0,0,0,0,0,,,,,,,,,,,,,,,,,,,,,,,,,,,,,,,,,,,,,,,,1303.3367703880067,,B,181,triangle,0.0016064660158008337,,,,,1,0,,,1,1301.8350129430182,1299.6100688610459,1301.117967260012,1301.117967260012,1301.117967260012,k,0.6893521859892644,,,,,,,,,,,,,,,,,,,,,,,,,,,,,,,,,,,,,,,,,,,,,,,,,,51930,2022-12-01_11h15.29.442,vts_reward_expectancy_bt_OFFLINE,2022.2.4,59.974684213751196,
,,,,,,,,,,,,,,,,,,,,,,,,,,0,0,0,0,1,0,1,0,,,,,,,,,,,,,,,,,,,,,,,,,,,,,,,,,,,,,,,,1308.325697157008,,Y,167,circle,0.0016702800057828426,,,,,1,0,,,1,1306.8241007250035,1304.3147877570009,1305.8227619350073,1305.8227619350073,1305.8227619350073,k,0.9687560189631768,,,,,,,,,,,,,,,,,,,,,,,,,,,,,,,,,,,,,,,,,,,,,,,,,,51930,2022-12-01_11h15.29.442,vts_reward_expectancy_bt_OFFLINE,2022.2.4,59.974684213751196,
,,,,,,,,,,,,,,,,,,,,,,,,,,0,0,0,0,2,0,2,0,,,,,,,,,,,,,,,,,,,,,,,,,,,,,,,,,,,,,,,,1312.9975964089972,,W,146,hexagon,0.0017191589577123523,,,,,1,0,,,1,1311.4958770090016,1309.3035115870298,1310.8117642620346,1310.8117642620346,1310.8117642620346,j,0.6589608719805256,,,,,,,,,,,,,,,,,,,,,,,,,,,,,,,,,,,,,,,,,,,,,,,,,,51930,2022-12-01_11h15.29.442,vts_reward_expectancy_bt_OFFLINE,2022.2.4,59.974684213751196,
,,,,,,,,,,,,,,,,,,,,,,,,,,0,0,0,0,3,0,3,0,,,,,,,,,,,,,,,,,,,,,,,,,,,,,,,,,,,,,,,,1317.6193427140242,,D,160,star,0.001834483991842717,,,,,1,0,,,1,1316.117607638007,1313.9758218250354,1315.4836145990412,1315.4836145990412,1315.4836145990412,k,0.6035987259820104,,,,,,,,,,,,,,,,,,,,,,,,,,,,,,,,,,,,,,,,,,,,,,,,,,51930,2022-12-01_11h15.29.442,vts_reward_expectancy_bt_OFFLINE,2022.2.4,59.974684213751196,
,,,,,,,,,,,,,,,,,,,,,,,,,,0,0,0,0,4,0,4,0,,,,,,,,,,,,,,,,,,,,,,,,,,,,,,,,,,,,,,,,1322.1909394889954,,F,139,triangle,0.0014990339986979961,,,,,1,0,,,1,1320.689556279045,1318.5979687280487,1320.1055270250072,1320.1055270250072,1320.1055270250072,j,0.5583556449855678,,,,,,,,,,,,,,,,,,,,,,,,,,,,,,,,,,,,,,,,,,,,,,,,,,51930,2022-12-01_11h15.29.442,vts_reward_expectancy_bt_OFFLINE,2022.2.4,59.974684213751196,
,,,,,,,,,,,,,,,,,,,,,,,,,,0,0,0,0,5,0,5,0,,,,,,,,,,,,,,,,,,,,,,,,,,,,,,,,,,,,,,,,1326.7794789460022,,H,174,hexagon,0.001541131001431495,,,,,1,0,,,1,1325.2777351630502,1323.1682953140116,1324.6772216550307,1324.6772216550307,1324.6772216550307,k,0.5776586839347146,,,,,,,,,,,,,,,,,,,,,,,,,,,,,,,,,,,,,,,,,,,,,,,,,,51930,2022-12-01_11h15.29.442,vts_reward_expectancy_bt_OFFLINE,2022.2.4,59.974684213751196,
,,,,,,,,,,,,,,,,,,,,,,,,,,0,0,0,0,6,0,6,0,,,,,,,,,,,,,,,,,,,,,,,,,,,,,,,,,,,,,,,,1331.267809689045,,S,132,star,0.0019963670056313276,,,,,1,0,,,1,1329.7660723419976,1327.7572835879982,1329.265564963047,1329.265564963047,1329.265564963047,j,0.46881680097430944,,,,,,,,,,,,,,,,,,,,,,,,,,,,,,,,,,,,,,,,,,,,,,,,,,51930,2022-12-01_11h15.29.442,vts_reward_expectancy_bt_OFFLINE,2022.2.4,59.974684213751196,
,,,,,,,,,,,,,,,,,,,,,,,,,,0,0,0,0,7,0,7,0,,,,,,,,,,,,,,,,,,,,,,,,,,,,,,,,,,,,,,,,1336.073000745033,,U,125,circle,0.0015752390027046204,,,,,1,0,,,1,1334.5713626540382,1332.2453016980435,1333.7537835740368,1333.7537835740368,1333.7537835740368,j,0.7889441979350522,,,,,,,,,,,,,,,,,,,,,,,,,,,,,,,,,,,,,,,,,,,,,,,,,,51930,2022-12-01_11h15.29.442,vts_reward_expectancy_bt_OFFLINE,2022.2.4,59.974684213751196,
,,,,,,,,,,,,,,,,,,,,,,,,,,0,0,0,0,8,0,8,0,,,,,,,,,,,,,,,,,,,,,,,,,,,,,,,,,,,,,,,,1340.5949245149968,,B,181,hexagon,0.0019158669747412205,,,,,1,0,,,1,1339.0930907230359,1337.0496418609982,1338.559354719997,1338.559354719997,1338.559354719997,k,0.5114013189449906,,,,,,,,,,,,,,,,,,,,,,,,,,,,,,,,,,,,,,,,,,,,,,,,,,51930,2022-12-01_11h15.29.442,vts_reward_expectancy_bt_OFFLINE,2022.2.4,59.974684213751196,
,,,,,,,,,,,,,,,,,,,,,,,,,,0,0,0,0,9,0,9,0,,,,,,,,,,,,,,,,,,,,,,,,,,,,,,,,,,,,,,,,1345.2820001970395,,Y,167,star,0.0017804739763960242,,,,,1,0,,,1,1343.7813560200157,1341.5718676670222,1343.080557420035,1343.080557420035,1343.080557420035,k,0.678390403976664,1345.2820001970395,,,,,,,,,,,,,,,,,,,,,,,,,,,,,,,,,,,,,,,,,,,,,,,,,51930,2022-12-01_11h15.29.442,vts_reward_expectancy_bt_OFFLINE,2022.2.4,59.974684213751196,
,,,,,,,,,,,,,,,,,,,,,,,,,,,,,,,,,,0,0,0,0,0,0,0,0,,,,,,,,,,,,,,,,,,,,,,,,,,,,0,837,,,1399.4761833720258,,W,174,triangle,0.0020099749672226608,,,,,-1,0,,,2,,,,,,,,,1393.465024686011,1393.465024686011,1393.465024686011,1393.465024686011,1394.971127444005,1394.971127444005,1394.971127444005,1394.971127444005,1394.971127444005,1394.971127444005,1394.971127444005,1394.971127444005,1397.9748862709966,1397.9748862709966,1397.9748862709966,1397.9748862709966,-1,no_choice,NA,None,vtsPrac,1397.9748862709966,1399.4761833720258,1399.9768456050078,,,,,,,,,,,,,,,,,,,,,,,,,51930,2022-12-01_11h15.29.442,vts_reward_expectancy_bt_OFFLINE,2022.2.4,59.974684213751196,
,,,,,,,,,,,,,,,,,,,,,,,,,,,,,,,,,,0,0,0,0,1,0,1,0,,,,,,,,,,,,,,,,,,,,,,,,,,,,0,837,,,1404.281595783017,,S,139,hexagon,0.009244036977179348,,,,,1,0,,,2,,,,,,,,,1400.4719313620008,1400.4719313620008,1400.4719313620008,1400.4719313620008,1401.9789149180287,1401.9789149180287,1401.9789149180287,1401.9789149180287,1401.9789149180287,1401.9789149180287,1401.9789149180287,1401.9789149180287,,,,,switch,letter,lettSwt,f,vtsPrac,1402.7798282900476,,,0.7799142389558256,,,,,,,,,,,,,,,,,,,,,,,,51930,2022-12-01_11h15.29.442,vts_reward_expectancy_bt_OFFLINE,2022.2.4,59.974684213751196,
,,,,,,,,,,,,,,,,,,,,,,,,,,,,,,,,,,0,0,0,0,2,0,2,0,,,,,,,,,,,,,,,,,,,,,,,,,,,,0,837,,,1408.919994743017,,B,132,hexagon,0.001673061982728541,,,,,1,0,,,2,,,,,,,,,1405.2605397760053,1405.2605397760053,1405.2605397760053,1405.2605397760053,1406.7675970889977,1406.7675970889977,1406.7675970889977,1406.7675970889977,1406.7675970889977,1406.7675970889977,1406.7675970889977,1406.7675970889977,,,,,repeat,letter,lettRpt,d,vtsPrac,1407.4183663120493,,,0.6313981689163484,,,,,,,,,,,,,,,,,,,,,,,,51930,2022-12-01_11h15.29.442,vts_reward_expectancy_bt_OFFLINE,2022.2.4,59.974684213751196,
,,,,,,,,,,,,,,,,,,,,,,,,,,,,,,,,,,0,0,0,0,3,0,3,0,,,,,,,,,,,,,,,,,,,,,,,,,,,,0,837,,,1413.6588075900218,,F,181,star,0.0012167129898443818,,,,,1,0,,,2,,,,,,,,,1409.9002619600506,1409.9002619600506,1409.9002619600506,1409.9002619600506,1411.4061081940308,1411.4061081940308,1411.4061081940308,1411.4061081940308,1411.4061081940308,1411.4061081940308,1411.4061081940308,1411.4061081940308,,,,,repeat,letter,lettRpt,d,vtsPrac,1412.1568575520068,,,0.7213016409659758,,,,,,,,,,,,,,,,,,,,,,,,51930,2022-12-01_11h15.29.442,vts_reward_expectancy_bt_OFFLINE,2022.2.4,59.974684213751196,
,,,,,,,,,,,,,,,,,,,,,,,,,,,,,,,,,,0,0,0,0,4,0,4,0,,,,,,,,,,,,,,,,,,,,,,,,,,,,0,837,,,1418.3137410130003,,W,174,circle,0.0012595289736054838,,,,,1,0,,,2,,,,,,,,,1414.6354374350049,1414.6354374350049,1414.6354374350049,1414.6354374350049,1416.1448104010196,1416.1448104010196,1416.1448104010196,1416.1448104010196,1416.1448104010196,1416.1448104010196,1416.1448104010196,1416.1448104010196,,,,,repeat,letter,lettRpt,f,vtsPrac,1416.8119814880192,,,0.6389473099843599,,,,,,,,,,,,,,,,,,,,,,,,51930,2022-12-01_11h15.29.442,vts_reward_expectancy_bt_OFFLINE,2022.2.4,59.974684213751196,
,,,,,,,,,,,,,,,,,,,,,,,,,,,,,,,,,,0,0,0,0,5,0,5,0,,,,,,,,,,,,,,,,,,,,,,,,,,,,0,837,,,1422.8019808510435,,S,139,star,0.001587281993124634,,,,,1,0,,,2,,,,,,,,,1419.2917137020268,1419.2917137020268,1419.2917137020268,1419.2917137020268,1420.7996986320359,1420.7996986320359,1420.7996986320359,1420.7996986320359,1420.7996986320359,1420.7996986320359,1420.7996986320359,1420.7996986320359,,,,,switch,number,numSwt,j,vtsPrac,1421.300562695018,,,0.47968235792359337,,,,,,,,,,,,,,,,,,,,,,,,51930,2022-12-01_11h15.29.442,vts_reward_expectancy_bt_OFFLINE,2022.2.4,59.974684213751196,
,,,,,,,,,,,,,,,,,,,,,,,,,,,,,,,,,,0,0,0,0,6,0,6,0,,,,,,,,,,,,,,,,,,,,,,,,,,,,0,837,,,1427.2734411130077,,B,132,hexagon,0.0015829990152269602,,,,,1,0,,,2,,,,,,,,,1423.7803885260364,1423.7803885260364,1423.7803885260364,1423.7803885260364,1425.2881437060423,1425.2881437060423,1425.2881437060423,1425.2881437060423,1425.2881437060423,1425.2881437060423,1425.2881437060423,1425.2881437060423,,,,,repeat,number,numRpt,j,vtsPrac,1425.7720003850409,,,0.45568436197936535,,,,,,,,,,,,,,,,,,,,,,,,51930,2022-12-01_11h15.29.442,vts_reward_expectancy_bt_OFFLINE,2022.2.4,59.974684213751196,
,,,,,,,,,,,,,,,,,,,,,,,,,,,,,,,,,,0,0,0,0,7,0,7,0,,,,,,,,,,,,,,,,,,,,,,,,,,,,0,837,,,1431.8955256210174,,F,181,triangle,0.0015529810334555805,,,,,1,0,,,2,,,,,,,,,1428.2507641100092,1428.2507641100092,1428.2507641100092,1428.2507641100092,1429.759692207037,1429.759692207037,1429.759692207037,1429.759692207037,1429.759692207037,1429.759692207037,1429.759692207037,1429.759692207037,,,,,switch,letter,lettSwt,d,vtsPrac,1430.3937466390198,,,0.6077439999789931,,,,,,,,,,,,,,,,,,,,,,,,51930,2022-12-01_11h15.29.442,vts_reward_expectancy_bt_OFFLINE,2022.2.4,59.974684213751196,
,,,,,,,,,,,,,,,,,,,,,,,,,,,,,,,,,,0,0,0,0,8,0,8,0,,,,,,,,,,,,,,,,,,,,,,,,,,,,0,837,,,1436.61749091401,,U,132,hexagon,0.0018403840367682278,,,,,1,0,,,2,,,,,,,,,1432.8730262720492,1432.8730262720492,1432.8730262720492,1432.8730262720492,1434.381340249034,1434.381340249034,1434.381340249034,1434.381340249034,1434.381340249034,1434.381340249034,1434.381340249034,1434.381340249034,,,,,repeat,letter,lettRpt,f,vtsPrac,1435.115503264009,,,0.7061115839751437,,,,,,,,,,,,,,,,,,,,,,,,51930,2022-12-01_11h15.29.442,vts_reward_expectancy_bt_OFFLINE,2022.2.4,59.974684213751196,
,,,,,,,,,,,,,,,,,,,,,,,,,,,,,,,,,,0,0,0,0,9,0,9,0,,,,,,,,,,,,,,,,,,,,,,,,,,,,0,837,,,1441.2226645400515,,Y,167,triangle,0.0015766569995321333,,,,,1,0,,,2,,,,,,,,,1437.5956650360022,1437.5956650360022,1437.5956650360022,1437.5956650360022,1439.1034979910473,1439.1034979910473,1439.1034979910473,1439.1034979910473,1439.1034979910473,1439.1034979910473,1439.1034979910473,1439.1034979910473,,,,,switch,number,numSwt,k,vtsPrac,1439.7206341300043,,,0.5846745469607413,,,,,,,,,,,,,,,,,,,,,,,,51930,2022-12-01_11h15.29.442,vts_reward_expectancy_bt_OFFLINE,2022.2.4,59.974684213751196,
,,,,,,,,,,,,,,,,,,,,,,,,,,,,,,,,,,0,0,0,0,10,0,10,0,,,,,,,,,,,,,,,,,,,,,,,,,,,,0,837,,,1445.7107459150138,,S,125,star,0.00186416000360623,,,,,1,0,,,2,,,,,,,,,1442.200280886027,1442.200280886027,1442.200280886027,1442.200280886027,1443.7085081569967,1443.7085081569967,1443.7085081569967,1443.7085081569967,1443.7085081569967,1443.7085081569967,1443.7085081569967,1443.7085081569967,,,,,repeat,number,numRpt,j,vtsPrac,1444.2090309190098,,,0.4753544759587385,,,,,,,,,,,,,,,,,,,,,,,,51930,2022-12-01_11h15.29.442,vts_reward_expectancy_bt_OFFLINE,2022.2.4,59.974684213751196,
,,,,,,,,,,,,,,,,,,,,,,,,,,,,,,,,,,0,0,0,0,11,0,11,0,,,,,,,,,,,,,,,,,,,,,,,,,,,,0,837,,,1450.1487497060443,,B,160,hexagon,0.0015301299863494933,,,,,1,0,,,2,,,,,,,,,1446.6891170480521,1446.6891170480521,1446.6891170480521,1446.6891170480521,1448.196693898004,1448.196693898004,1448.196693898004,1448.196693898004,1448.196693898004,1448.196693898004,1448.196693898004,1448.196693898004,,,,,repeat,number,numRpt,k,vtsPrac,1448.647029718035,,,0.4268525379593484,,,,,,,,,,,,,,,,,,,,,,,,51930,2022-12-01_11h15.29.442,vts_reward_expectancy_bt_OFFLINE,2022.2.4,59.974684213751196,
,,,,,,,,,,,,,,,,,,,,,,,,,,,,,,,,,,0,0,0,0,12,0,12,0,,,,,,,,,,,,,,,,,,,,,,,,,,,,0,837,,,1454.637074517028,,B,167,circle,0.0016186410211957991,,,,,1,0,,,2,,,,,,,,,1451.1251775050187,1451.1251775050187,1451.1251775050187,1451.1251775050187,1452.634963362012,1452.634963362012,1452.634963362012,1452.634963362012,1452.634963362012,1452.634963362012,1452.634963362012,1452.634963362012,,,,,repeat,number,numRpt,k,vtsPrac,1453.1356702350313,,,0.4683422099915333,,,,,,,,,,,,,,,,,,,,,,,,51930,2022-12-01_11h15.29.442,vts_reward_expectancy_bt_OFFLINE,2022.2.4,59.974684213751196,
,,,,,,,,,,,,,,,,,,,,,,,,,,,,,,,,,,0,0,0,0,13,0,13,0,,,,,,,,,,,,,,,,,,,,,,,,,,,,0,837,,,1459.192158014048,,S,174,star,0.0015367530286312103,,,,,1,0,,,2,,,,,,,,,1455.614742292033,1455.614742292033,1455.614742292033,1455.614742292033,1457.1230992140481,1457.1230992140481,1457.1230992140481,1457.1230992140481,1457.1230992140481,1457.1230992140481,1457.1230992140481,1457.1230992140481,,,,,repeat,number,numRpt,k,vtsPrac,1457.6906605100376,,,0.5480587489437312,,,,,,,,,,,,,,,,,,,,,,,,51930,2022-12-01_11h15.29.442,vts_reward_expectancy_bt_OFFLINE,2022.2.4,59.974684213751196,
,,,,,,,,,,,,,,,,,,,,,,,,,,,,,,,,,,0,0,0,0,14,0,14,0,,,,,,,,,,,,,,,,,,,,,,,,,,,,0,837,,,1463.663581522007,,U,181,star,0.0014430489973165095,,,,,1,0,,,2,,,,,,,,,1460.1703579270397,1460.1703579270397,1460.1703579270397,1460.1703579270397,1461.6781685260357,1461.6781685260357,1461.6781685260357,1461.6781685260357,1461.6781685260357,1461.6781685260357,1461.6781685260357,1461.6781685260357,,,,,switch,letter,lettSwt,f,vtsPrac,1462.1619196160464,,,0.4659278449253179,,,,,,,,,,,,,,,,,,,,,,,,51930,2022-12-01_11h15.29.442,vts_reward_expectancy_bt_OFFLINE,2022.2.4,59.974684213751196,
,,,,,,,,,,,,,,,,,,,,,,,,,,,,,,,,,,0,0,0,0,15,0,15,0,,,,,,,,,,,,,,,,,,,,,,,,,,,,0,837,,,1468.1187702559982,,D,139,triangle,0.001510303991381079,,,,,1,0,,,2,,,,,,,,,1464.6421471440117,1464.6421471440117,1464.6421471440117,1464.6421471440117,1466.1499000750482,1466.1499000750482,1466.1499000750482,1466.1499000750482,1466.1499000750482,1466.1499000750482,1466.1499000750482,1466.1499000750482,,,,,repeat,letter,lettRpt,d,vtsPrac,1466.6169239910087,,,0.45058888097992167,,,,,,,,,,,,,,,,,,,,,,,,51930,2022-12-01_11h15.29.442,vts_reward_expectancy_bt_OFFLINE,2022.2.4,59.974684213751196,
,,,,,,,,,,,,,,,,,,,,,,,,,,,,,,,,,,0,0,0,0,16,0,16,0,,,,,,,,,,,,,,,,,,,,,,,,,,,,0,837,,,1472.690163391002,,Y,125,circle,0.0012779899989254773,,,,,1,0,,,2,,,,,,,,,1469.0954705180484,1469.0954705180484,1469.0954705180484,1469.0954705180484,1470.6047853869968,1470.6047853869968,1470.6047853869968,1470.6047853869968,1470.6047853869968,1470.6047853869968,1470.6047853869968,1470.6047853869968,,,,,repeat,letter,lettRpt,f,vtsPrac,1471.188781364006,,,0.5619922769255936,,,,,,,,,,,,,,,,,,,,,,,,51930,2022-12-01_11h15.29.442,vts_reward_expectancy_bt_OFFLINE,2022.2.4,59.974684213751196,
,,,,,,,,,,,,,,,,,,,,,,,,,,,,,,,,,,0,0,0,0,17,0,17,0,,,,,,,,,,,,,,,,,,,,,,,,,,,,0,837,,,1477.1286288100528,,U,139,hexagon,0.0012845919700339437,,,,,1,0,,,2,,,,,,,,,1473.6689042320359,1473.6689042320359,1473.6689042320359,1473.6689042320359,1475.1762948690448,1475.1762948690448,1475.1762948690448,1475.1762948690448,1475.1762948690448,1475.1762948690448,1475.1762948690448,1475.1762948690448,,,,,switch,number,numSwt,j,vtsPrac,1475.6269209600287,,,0.4311240979586728,,,,,,,,,,,,,,,,,,,,,,,,51930,2022-12-01_11h15.29.442,vts_reward_expectancy_bt_OFFLINE,2022.2.4,59.974684213751196,
,,,,,,,,,,,,,,,,,,,,,,,,,,,,,,,,,,0,0,0,0,18,0,18,0,,,,,,,,,,,,,,,,,,,,,,,,,,,,0,837,,,1481.617328021035,,H,167,hexagon,0.0015247490373440087,,,,,1,0,,,2,,,,,,,,,1478.1061691780342,1478.1061691780342,1478.1061691780342,1478.1061691780342,1479.6146032290417,1479.6146032290417,1479.6146032290417,1479.6146032290417,1479.6146032290417,1479.6146032290417,1479.6146032290417,1479.6146032290417,,,,,switch,letter,lettSwt,d,vtsPrac,1480.115263970045,,,0.4721854869858362,,,,,,,,,,,,,,,,,,,,,,,,51930,2022-12-01_11h15.29.442,vts_reward_expectancy_bt_OFFLINE,2022.2.4,59.974684213751196,
,,,,,,,,,,,,,,,,,,,,,,,,,,,,,,,,,,0,0,0,0,19,0,19,0,,,,,,,,,,,,,,,,,,,,,,,,,,,,0,837,,,1486.1885942070512,,B,132,triangle,0.0018675909959711134,,,,,1,0,,,2,,,,,,,,,1482.5968985890504,1482.5968985890504,1482.5968985890504,1482.5968985890504,1484.1029115050333,1484.1029115050333,1484.1029115050333,1484.1029115050333,1484.1029115050333,1484.1029115050333,1484.1029115050333,1484.1029115050333,,,,,switch,number,numSwt,j,vtsPrac,1484.6872246720013,,,0.5601806349586695,,,,,,,,,,,,,,,,,,,,,,,,51930,2022-12-01_11h15.29.442,vts_reward_expectancy_bt_OFFLINE,2022.2.4,59.974684213751196,
,,,,,,,,,,,,,,,,,,,,,,,,,,,,,,,,,,0,0,0,0,20,0,20,0,,,,,,,,,,,,,,,,,,,,,,,,,,,,0,837,,,1490.7603843040415,,U,181,star,0.0017561709973961115,,,,,1,0,,,2,,,,,,,,,1487.16559487005,1487.16559487005,1487.16559487005,1487.16559487005,1488.6745861700037,1488.6745861700037,1488.6745861700037,1488.6745861700037,1488.6745861700037,1488.6745861700037,1488.6745861700037,1488.6745861700037,,,,,switch,letter,lettSwt,f,vtsPrac,1489.2586358100525,,,0.5646543499897234,,,,,,,,,,,,,,,,,,,,,,,,51930,2022-12-01_11h15.29.442,vts_reward_expectancy_bt_OFFLINE,2022.2.4,59.974684213751196,
,,,,,,,,,,,,,,,,,,,,,,,,,,,,,,,,,,0,0,0,0,21,0,21,0,,,,,,,,,,,,,,,,,,,,,,,,,,,,0,837,,,1495.3986469680094,,S,174,circle,0.0012909899814985693,,,,,1,0,,,2,,,,,,,,,1491.7382340400363,1491.7382340400363,1491.7382340400363,1491.7382340400363,1493.246239285043,1493.246239285043,1493.246239285043,1493.246239285043,1493.246239285043,1493.246239285043,1493.246239285043,1493.246239285043,,,,,repeat,letter,lettRpt,f,vtsPrac,1493.897291833011,,,0.6181007879786193,,,,,,,,,,,,,,,,,,,,,,,,51930,2022-12-01_11h15.29.442,vts_reward_expectancy_bt_OFFLINE,2022.2.4,59.974684213751196,
,,,,,,,,,,,,,,,,,,,,,,,,,,,,,,,,,,0,0,0,0,22,0,22,0,,,,,,,,,,,,,,,,,,,,,,,,,,,,0,837,,,1501.08837002801,,B,146,circle,0.001764048996847123,,,,,1,0,,,2,,,,,,,,,1496.3764457150246,1496.3764457150246,1496.3764457150246,1496.3764457150246,1497.884864221036,1497.884864221036,1497.884864221036,1497.884864221036,1497.884864221036,1497.884864221036,1497.884864221036,1497.884864221036,,,,,switch,number,numSwt,j,vtsPrac,1499.5867314880015,,,1.6736389049328864,,,,,,,,,,,,,,,,,,,,,,,,51930,2022-12-01_11h15.29.442,vts_reward_expectancy_bt_OFFLINE,2022.2.4,59.974684213751196,
,,,,,,,,,,,,,,,,,,,,,,,,,,,,,,,,,,0,0,0,0,23,0,23,0,,,,,,,,,,,,,,,,,,,,,,,,,,,,0,837,,,1505.6099101020372,,H,160,star,0.001972941041458398,,,,,0,0,,,2,,,,,,,,,1502.0664449059987,1502.0664449059987,1502.0664449059987,1502.0664449059987,1503.574504059041,1503.574504059041,1503.574504059041,1503.574504059041,1503.574504059041,1503.574504059041,1503.574504059041,1503.574504059041,,,,,repeat,number,NA,j,vtsPrac,1504.1083031450398,,,0.5056437489693053,,,,,,,,,,,,,,,,,,,,,,,,51930,2022-12-01_11h15.29.442,vts_reward_expectancy_bt_OFFLINE,2022.2.4,59.974684213751196,
,,,,,,,,,,,,,,,,,,,,,,,,,,,,,,,,,,0,0,0,0,24,0,24,0,,,,,,,,,,,,,,,,,,,,,,,,,,,,0,837,,,1510.4654919590103,,F,160,circle,0.0015250230208039284,,,,,1,1,,,2,,,,,,,,,1506.586402494053,1506.586402494053,1506.586402494053,1506.586402494053,1508.096097193018,1508.096097193018,1508.096097193018,1508.096097193018,1508.096097193018,1508.096097193018,1508.096097193018,1508.096097193018,,,,,switch,letter,lettSwt,d,vtsPrac,1508.9636840190506,,,0.8479467129218392,,,,,,,,,,,,,,,,,,,,,,,,51930,2022-12-01_11h15.29.442,vts_reward_expectancy_bt_OFFLINE,2022.2.4,59.974684213751196,
,,,,,,,,,,,,,,,,,,,,,,,,,,,,,,,,,,0,0,0,0,25,0,25,0,,,,,,,,,,,,,,,,,,,,,,,,,,,,0,837,,,1515.1872967830277,,D,181,hexagon,0.0014256520080380142,,,,,1,0,,,2,,,,,,,,,1511.4434703380102,1511.4434703380102,1511.4434703380102,1511.4434703380102,1512.9515102150035,1512.9515102150035,1512.9515102150035,1512.9515102150035,1512.9515102150035,1512.9515102150035,1512.9515102150035,1512.9515102150035,,,,,repeat,letter,lettRpt,d,vtsPrac,1513.6855111610494,,,0.7114512479165569,,,,,,,,,,,,,,,,,,,,,,,,51930,2022-12-01_11h15.29.442,vts_reward_expectancy_bt_OFFLINE,2022.2.4,59.974684213751196,
,,,,,,,,,,,,,,,,,,,,,,,,,,,,,,,,,,0,0,0,0,26,0,26,0,,,,,,,,,,,,,,,,,,,,,,,,,,,,0,837,,,1519.825756938022,,B,139,star,0.001464356028009206,,,,,1,0,,,2,,,,,,,,,1516.1659712170367,1516.1659712170367,1516.1659712170367,1516.1659712170367,1517.6734473050456,1517.6734473050456,1517.6734473050456,1517.6734473050456,1517.6734473050456,1517.6734473050456,1517.6734473050456,1517.6734473050456,,,,,switch,number,numSwt,j,vtsPrac,1518.3241317120264,,,0.6222419149125926,,,,,,,,,,,,,,,,,,,,,,,,51930,2022-12-01_11h15.29.442,vts_reward_expectancy_bt_OFFLINE,2022.2.4,59.974684213751196,
,,,,,,,,,,,,,,,,,,,,,,,,,,,,,,,,,,0,0,0,0,27,0,27,0,,,,,,,,,,,,,,,,,,,,,,,,,,,,0,837,,,1524.330612610036,,W,125,triangle,0.0013115190085954964,,,,,1,0,,,2,,,,,,,,,1520.8025810110266,1520.8025810110266,1520.8025810110266,1520.8025810110266,1522.3118447849993,1522.3118447849993,1522.3118447849993,1522.3118447849993,1522.3118447849993,1522.3118447849993,1522.3118447849993,1522.3118447849993,,,,,repeat,number,numRpt,j,vtsPrac,1522.8290625980007,,,0.4948171269497834,,,,,,,,,,,,,,,,,,,,,,,,51930,2022-12-01_11h15.29.442,vts_reward_expectancy_bt_OFFLINE,2022.2.4,59.974684213751196,
,,,,,,,,,,,,,,,,,,,,,,,,,,,,,,,,,,0,0,0,0,28,0,28,0,,,,,,,,,,,,,,,,,,,,,,,,,,,,0,837,,,1528.8021879590233,,D,139,hexagon,0.0016242649871855974,,,,,1,0,,,2,,,,,,,,,1525.3081222150358,1525.3081222150358,1525.3081222150358,1525.3081222150358,1526.8167871740297,1526.8167871740297,1526.8167871740297,1526.8167871740297,1526.8167871740297,1526.8167871740297,1526.8167871740297,1526.8167871740297,,,,,switch,letter,lettSwt,d,vtsPrac,1527.3005177850137,,,0.46283264196245,,,,,,,,,,,,,,,,,,,,,,,,51930,2022-12-01_11h15.29.442,vts_reward_expectancy_bt_OFFLINE,2022.2.4,59.974684213751196,
,,,,,,,,,,,,,,,,,,,,,,,,,,,,,,,,,,0,0,0,0,29,0,29,0,,,,,,,,,,,,,,,,,,,,,,,,,,,,0,837,,,1533.3907504280214,,Y,167,circle,0.0014802010264247656,,,,,1,0,,,2,,,,,,,,,1529.7796482070116,1529.7796482070116,1529.7796482070116,1529.7796482070116,1531.288238979003,1531.288238979003,1531.288238979003,1531.288238979003,1531.288238979003,1531.288238979003,1531.288238979003,1531.288238979003,,,,,repeat,letter,lettRpt,f,vtsPrac,1531.8889516950003,,,0.5680720659438521,,,,,,,,,,,,,,,,,,,,,,,,51930,2022-12-01_11h15.29.442,vts_reward_expectancy_bt_OFFLINE,2022.2.4,59.974684213751196,
