LTriangleOpac,LCircleOpac,LHexagonOpac,LStarOpac,RTriangleOpac,RCircleOpac,RHexagonOpac,RStarOpac,LShape_ID,RShape_ID,training_blocks.thisRepN,training_blocks.thisTrialN,training_blocks.thisN,training_blocks.thisIndex,training.thisRepN,training.thisTrialN,training.thisN,training.thisIndex,task1_prac_redo.thisRepN,task1_prac_redo.thisTrialN,task1_prac_redo.thisN,task1_prac_redo.thisIndex,task1_prac_trials.thisRepN,task1_prac_trials.thisTrialN,task1_prac_trials.thisN,task1_prac_trials.thisIndex,task2_prac_redo.thisRepN,task2_prac_redo.thisTrialN,task2_prac_redo.thisN,task2_prac_redo.thisIndex,task2_praac_trials.thisRepN,task2_praac_trials.thisTrialN,task2_praac_trials.thisN,task2_praac_trials.thisIndex,vts_prac_redo.thisRepN,vts_prac_redo.thisTrialN,vts_prac_redo.thisN,vts_prac_redo.thisIndex,vts_practice_trials.thisRepN,vts_practice_trials.thisTrialN,vts_practice_trials.thisN,vts_practice_trials.thisIndex,trials_norew.thisRepN,trials_norew.thisTrialN,trials_norew.thisN,trials_norew.thisIndex,block.thisRepN,block.thisTrialN,block.thisN,block.thisIndex,trials_rew.thisRepN,trials_rew.thisTrialN,trials_rew.thisN,trials_rew.thisIndex,key_resp.started,key_resp.keys,key_resp.rt,left_circle.started,right_circle.started,left_triangle.started,right_triangle.started,left_star.started,right_star.started,left_hexagon.started,right_hexagon.started,training_fix.started,training_resp.started,training_resp.keys,training_resp.rt,points_trial,points_cumul,trainBlock,training_feedback_txt.started,fix.started,training_feedback_txt.stopped,fix.stopped,curr_topStim,curr_bottStim,curr_shape,ISI.started,tgt_fix_prac1.started,top_target_prac1.started,bott_target_prac1.started,target_resp_prac1.started,acc,E1,target_resp_prac1.keys,target_resp_prac1.rt,pracBlock,prac_fback_text.started,prac_fback_text.stopped,tgt_fix_prac2.started,top_target_prac2.started,bott_target_prac2.started,target_resp_prac2.started,target_resp_prac2.keys,target_resp_prac2.rt,star.started,hegagon.started,triangle.started,circle.started,top_target.started,tgt_fix.started,bot_target.started,target_resp.started,star.stopped,hegagon.stopped,triangle.stopped,circle.stopped,top_target.stopped,tgt_fix.stopped,bot_target.stopped,target_resp.stopped,alt,task,condition,target_resp.keys,rewCond,vts_fback.started,target_resp.rt,vts_fback.stopped,blockNum,norew_fback.started,norew_fback.stopped,key_resp_2.keys,key_resp_2.rt,rewExpectancy,feedbk_text.started,feedbk_text.stopped,text_3.started,debrief.started,text_3.stopped,button.started,debrief.index,debrief.itemText,debrief.type,debrief.granularity,debrief.font,debrief.markerColor,debrief.response,debrief.rt,button.numClicks,button.timesOn,button.timesOff,participant,date,expName,psychopyVersion,frameRate,
,,,,,,,,,,,,,,,,,,,,,,,,,,,,,,,,,,,,,,,,,,,,,,,,,,,,,,308.3914326688973,space,17.82639182615094,,,,,,,,,,,,,,,,,,,,,,,,,,,,,,,,,,,,,,,,,,,,,,,,,,,,,,,,,,,,,,,,,,,,,,,,,,,,,,,,,,,,,,,,52585,2022-11-28_10h37.16.953,vts_reward_expectancy_bt_OFFLINE,2022.2.4,60.07718477533708,
0,0,0,1,0,0,1,0,star,hexagon,0,0,0,0,0,0,0,11,,,,,,,,,,,,,,,,,,,,,,,,,,,,,,,,,,,,,,,,364.4011552099837,364.4011552099837,364.4011552099837,364.4011552099837,364.4011552099837,364.4011552099837,364.4011552099837,364.4011552099837,364.4011552099837,364.4011552099837,a,2.3204181550536305,1,1,0,366.7538783689961,368.2556728319032,,,,,,,,,,,,,,,,,,,,,,,,,,,,,,,,,,,,,,,,,,,,,,,,,,,,,,,,,,,,,,,,,,,,,,,52585,2022-11-28_10h37.16.953,vts_reward_expectancy_bt_OFFLINE,2022.2.4,60.07718477533708,
1,0,0,0,0,0,1,0,triangle,hexagon,0,0,0,0,0,1,1,1,,,,,,,,,,,,,,,,,,,,,,,,,,,,,,,,,,,,,,,,368.75616743590217,368.75616743590217,368.75616743590217,368.75616743590217,368.75616743590217,368.75616743590217,368.75616743590217,368.75616743590217,368.75616743590217,368.75616743590217,l,1.260630679083988,10,11,0,370.0416577589931,371.54251286992803,,,,,,,,,,,,,,,,,,,,,,,,,,,,,,,,,,,,,,,,,,,,,,,,,,,,,,,,,,,,,,,,,,,,,,,52585,2022-11-28_10h37.16.953,vts_reward_expectancy_bt_OFFLINE,2022.2.4,60.07718477533708,
1,0,0,0,0,1,0,0,triangle,circle,0,0,0,0,0,2,2,0,,,,,,,,,,,,,,,,,,,,,,,,,,,,,,,,,,,,,,,,372.0432439019205,372.0432439019205,372.0432439019205,372.0432439019205,372.0432439019205,372.0432439019205,372.0432439019205,372.0432439019205,372.0432439019205,372.0432439019205,l,2.2716925661079586,1,12,0,374.34562321496196,375.84739924094174,,,,,,,,,,,,,,,,,,,,,,,,,,,,,,,,,,,,,,,,,,,,,,,,,,,,,,,,,,,,,,,,,,,,,,,52585,2022-11-28_10h37.16.953,vts_reward_expectancy_bt_OFFLINE,2022.2.4,60.07718477533708,
0,1,0,0,0,0,0,1,circle,star,0,0,0,0,0,3,3,5,,,,,,,,,,,,,,,,,,,,,,,,,,,,,,,,,,,,,,,,376.3476674068952,376.3476674068952,376.3476674068952,376.3476674068952,376.3476674068952,376.3476674068952,376.3476674068952,376.3476674068952,376.3476674068952,376.3476674068952,l,1.3095598850632086,10,22,0,377.6825568259228,379.18437495594844,379.18437495594844,,,,,,,,,,,,,,,,,,,,,,,,,,,,,,,,,,,,,,,,,,,,,,,,,,,,,,,,,,,,,,,,,,,,,,52585,2022-11-28_10h37.16.953,vts_reward_expectancy_bt_OFFLINE,2022.2.4,60.07718477533708,
0,1,0,0,0,0,1,0,circle,hexagon,0,0,0,0,0,4,4,4,,,,,,,,,,,,,,,,,,,,,,,,,,,,,,,,,,,,,,,,379.68469869100954,379.68469869100954,379.68469869100954,379.68469869100954,379.68469869100954,379.68469869100954,379.68469869100954,379.68469869100954,379.68469869100954,379.68469869100954,a,1.4827396421460435,1,23,0,381.1863436709391,382.6882905609673,,,,,,,,,,,,,,,,,,,,,,,,,,,,,,,,,,,,,,,,,,,,,,,,,,,,,,,,,,,,,,,,,,,,,,,52585,2022-11-28_10h37.16.953,vts_reward_expectancy_bt_OFFLINE,2022.2.4,60.07718477533708,
0,0,0,1,1,0,0,0,star,triangle,0,0,0,0,0,5,5,9,,,,,,,,,,,,,,,,,,,,,,,,,,,,,,,,,,,,,,,,383.1886302109342,383.1886302109342,383.1886302109342,383.1886302109342,383.1886302109342,383.1886302109342,383.1886302109342,383.1886302109342,383.1886302109342,383.1886302109342,a,1.5356552200391889,10,33,0,384.7570672999136,386.25869533990044,,,,,,,,,,,,,,,,,,,,,,,,,,,,,,,,,,,,,,,,,,,,,,,,,,,,,,,,,,,,,,,,,,,,,,,52585,2022-11-28_10h37.16.953,vts_reward_expectancy_bt_OFFLINE,2022.2.4,60.07718477533708,
1,0,0,0,0,0,0,1,triangle,star,0,0,0,0,0,6,6,2,,,,,,,,,,,,,,,,,,,,,,,,,,,,,,,,,,,,,,,,386.7591857709922,386.7591857709922,386.7591857709922,386.7591857709922,386.7591857709922,386.7591857709922,386.7591857709922,386.7591857709922,386.7591857709922,386.7591857709922,l,1.6643053111620247,10,43,0,388.4444293068955,389.9461545739323,,,,,,,,,,,,,,,,,,,,,,,,,,,,,,,,,,,,,,,,,,,,,,,,,,,,,,,,,,,,,,,,,,,,,,,52585,2022-11-28_10h37.16.953,vts_reward_expectancy_bt_OFFLINE,2022.2.4,60.07718477533708,
0,0,1,0,0,1,0,0,hexagon,circle,0,0,0,0,0,7,7,7,,,,,,,,,,,,,,,,,,,,,,,,,,,,,,,,,,,,,,,,390.4468047010014,390.4468047010014,390.4468047010014,390.4468047010014,390.4468047010014,390.4468047010014,390.4468047010014,390.4468047010014,390.4468047010014,390.4468047010014,a,1.635158524964936,10,53,0,392.09845729591325,393.6002027589129,393.6002027589129,,,,,,,,,,,,,,,,,,,,,,,,,,,,,,,,,,,,,,,,,,,,,,,,,,,,,,,,,,,,,,,,,,,,,,52585,2022-11-28_10h37.16.953,vts_reward_expectancy_bt_OFFLINE,2022.2.4,60.07718477533708,
0,0,1,0,0,0,0,1,hexagon,star,0,0,0,0,0,8,8,8,,,,,,,,,,,,,,,,,,,,,,,,,,,,,,,,,,,,,,,,394.1007120049326,394.1007120049326,394.1007120049326,394.1007120049326,394.1007120049326,394.1007120049326,394.1007120049326,394.1007120049326,394.1007120049326,394.1007120049326,l,1.1631654410157353,1,54,0,395.28534735389985,396.78697005694266,,,,,,,,,,,,,,,,,,,,,,,,,,,,,,,,,,,,,,,,,,,,,,,,,,,,,,,,,,,,,,,,,,,,,,,52585,2022-11-28_10h37.16.953,vts_reward_expectancy_bt_OFFLINE,2022.2.4,60.07718477533708,
0,0,0,1,0,1,0,0,star ,circle,0,0,0,0,0,9,9,10,,,,,,,,,,,,,,,,,,,,,,,,,,,,,,,,,,,,,,,,397.2876406299183,397.2876406299183,397.2876406299183,397.2876406299183,397.2876406299183,397.2876406299183,397.2876406299183,397.2876406299183,397.2876406299183,397.2876406299183,a,1.823801878024824,1,55,0,399.13964957895223,400.6411514809588,400.6411514809588,401.1417513609631,,,,,,,,,,,,,,,,,,,,,,,,,,,,,,,,,,,,,,,,,,,,,,,,,,,,,,,,,,,,,,,,,,,,,52585,2022-11-28_10h37.16.953,vts_reward_expectancy_bt_OFFLINE,2022.2.4,60.07718477533708,
0,1,0,0,1,0,0,0,circle,triangle,0,0,0,0,0,10,10,3,,,,,,,,,,,,,,,,,,,,,,,,,,,,,,,,,,,,,,,,401.1417513609631,401.1417513609631,401.1417513609631,401.1417513609631,401.1417513609631,401.1417513609631,401.1417513609631,401.1417513609631,401.1417513609631,401.1417513609631,l,5.690392008051276,1,56,0,406.86478660895955,408.36634051695,408.36634051695,,,,,,,,,,,,,,,,,,,,,,,,,,,,,,,,,,,,,,,,,,,,,,,,,,,,,,,,,,,,,,,,,,,,,,52585,2022-11-28_10h37.16.953,vts_reward_expectancy_bt_OFFLINE,2022.2.4,60.07718477533708,
0,0,1,0,1,0,0,0,hexagon,triangle,0,0,0,0,0,11,11,6,,,,,,,,,,,,,,,,,,,,,,,,,,,,,,,,,,,,,,,,408.8671193739865,408.8671193739865,408.8671193739865,408.8671193739865,408.8671193739865,408.8671193739865,408.8671193739865,408.8671193739865,408.8671193739865,408.8671193739865,a,1.2152393540600315,1,57,0,410.10175757692195,411.603209058987,411.603209058987,,,,,,,,,,,,,,,,,,,,,,,,,,,,,,,,,,,,,,,,,,,,,,,,,,,,,,,,,,,,,,,,,,,,,,52585,2022-11-28_10h37.16.953,vts_reward_expectancy_bt_OFFLINE,2022.2.4,60.07718477533708,
0,1,0,0,0,0,0,1,circle,star,0,0,0,0,1,0,12,5,,,,,,,,,,,,,,,,,,,,,,,,,,,,,,,,,,,,,,,,412.10395141900517,412.10395141900517,412.10395141900517,412.10395141900517,412.10395141900517,412.10395141900517,412.10395141900517,412.10395141900517,412.10395141900517,412.10395141900517,l,2.400007944088429,10,67,0,414.5230935809668,416.0247999689309,,,,,,,,,,,,,,,,,,,,,,,,,,,,,,,,,,,,,,,,,,,,,,,,,,,,,,,,,,,,,,,,,,,,,,,52585,2022-11-28_10h37.16.953,vts_reward_expectancy_bt_OFFLINE,2022.2.4,60.07718477533708,
1,0,0,0,0,0,1,0,triangle,hexagon,0,0,0,0,1,1,13,1,,,,,,,,,,,,,,,,,,,,,,,,,,,,,,,,,,,,,,,,416.52562449895777,416.52562449895777,416.52562449895777,416.52562449895777,416.52562449895777,416.52562449895777,416.52562449895777,416.52562449895777,416.52562449895777,416.52562449895777,l,1.40990178915672,1,68,0,417.9605700309621,419.46191750490107,,,,,,,,,,,,,,,,,,,,,,,,,,,,,,,,,,,,,,,,,,,,,,,,,,,,,,,,,,,,,,,,,,,,,,,52585,2022-11-28_10h37.16.953,vts_reward_expectancy_bt_OFFLINE,2022.2.4,60.07718477533708,
0,0,1,0,0,0,0,1,hexagon,star,0,0,0,0,1,2,14,8,,,,,,,,,,,,,,,,,,,,,,,,,,,,,,,,,,,,,,,,419.96270897390787,419.96270897390787,419.96270897390787,419.96270897390787,419.96270897390787,419.96270897390787,419.96270897390787,419.96270897390787,419.96270897390787,419.96270897390787,l,1.1451194250257686,1,69,0,421.13056602398865,422.63206709898077,,,,,,,,,,,,,,,,,,,,,,,,,,,,,,,,,,,,,,,,,,,,,,,,,,,,,,,,,,,,,,,,,,,,,,,52585,2022-11-28_10h37.16.953,vts_reward_expectancy_bt_OFFLINE,2022.2.4,60.07718477533708,
0,1,0,0,0,0,1,0,circle,hexagon,0,0,0,0,1,3,15,4,,,,,,,,,,,,,,,,,,,,,,,,,,,,,,,,,,,,,,,,423.1325961399125,423.1325961399125,423.1325961399125,423.1325961399125,423.1325961399125,423.1325961399125,423.1325961399125,423.1325961399125,423.1325961399125,423.1325961399125,l,2.216985829989426,10,79,0,425.36841597396415,426.8703975949902,,,,,,,,,,,,,,,,,,,,,,,,,,,,,,,,,,,,,,,,,,,,,,,,,,,,,,,,,,,,,,,,,,,,,,,52585,2022-11-28_10h37.16.953,vts_reward_expectancy_bt_OFFLINE,2022.2.4,60.07718477533708,
0,0,0,1,1,0,0,0,star,triangle,0,0,0,0,1,4,16,9,,,,,,,,,,,,,,,,,,,,,,,,,,,,,,,,,,,,,,,,427.37070140393917,427.37070140393917,427.37070140393917,427.37070140393917,427.37070140393917,427.37070140393917,427.37070140393917,427.37070140393917,427.37070140393917,427.37070140393917,a,1.5781835950911045,10,89,0,428.97247902094387,430.47435409692116,,,,,,,,,,,,,,,,,,,,,,,,,,,,,,,,,,,,,,,,,,,,,,,,,,,,,,,,,,,,,,,,,,,,,,,52585,2022-11-28_10h37.16.953,vts_reward_expectancy_bt_OFFLINE,2022.2.4,60.07718477533708,
0,0,1,0,0,1,0,0,hexagon,circle,0,0,0,0,1,5,17,7,,,,,,,,,,,,,,,,,,,,,,,,,,,,,,,,,,,,,,,,430.9747375450097,430.9747375450097,430.9747375450097,430.9747375450097,430.9747375450097,430.9747375450097,430.9747375450097,430.9747375450097,430.9747375450097,430.9747375450097,a,1.4961297950940207,10,99,0,432.49314543500077,433.9945727949962,,,,,,,,,,,,,,,,,,,,,,,,,,,,,,,,,,,,,,,,,,,,,,,,,,,,,,,,,,,,,,,,,,,,,,,52585,2022-11-28_10h37.16.953,vts_reward_expectancy_bt_OFFLINE,2022.2.4,60.07718477533708,
1,0,0,0,0,0,0,1,triangle,star,0,0,0,0,1,6,18,2,,,,,,,,,,,,,,,,,,,,,,,,,,,,,,,,,,,,,,,,434.4952435569139,434.4952435569139,434.4952435569139,434.4952435569139,434.4952435569139,434.4952435569139,434.4952435569139,434.4952435569139,434.4952435569139,434.4952435569139,l,1.4764796659583226,1,100,0,435.9969803720014,437.49838388094213,,,,,,,,,,,,,,,,,,,,,,,,,,,,,,,,,,,,,,,,,,,,,,,,,,,,,,,,,,,,,,,,,,,,,,,52585,2022-11-28_10h37.16.953,vts_reward_expectancy_bt_OFFLINE,2022.2.4,60.07718477533708,
0,1,0,0,1,0,0,0,circle,triangle,0,0,0,0,1,7,19,3,,,,,,,,,,,,,,,,,,,,,,,,,,,,,,,,,,,,,,,,437.9990855290089,437.9990855290089,437.9990855290089,437.9990855290089,437.9990855290089,437.9990855290089,437.9990855290089,437.9990855290089,437.9990855290089,437.9990855290089,l,1.7390418041031808,1,101,0,439.7678406969644,441.2694670249475,,,,,,,,,,,,,,,,,,,,,,,,,,,,,,,,,,,,,,,,,,,,,,,,,,,,,,,,,,,,,,,,,,,,,,,52585,2022-11-28_10h37.16.953,vts_reward_expectancy_bt_OFFLINE,2022.2.4,60.07718477533708,
0,0,1,0,1,0,0,0,hexagon,triangle,0,0,0,0,1,8,20,6,,,,,,,,,,,,,,,,,,,,,,,,,,,,,,,,,,,,,,,,441.7699334009085,441.7699334009085,441.7699334009085,441.7699334009085,441.7699334009085,441.7699334009085,441.7699334009085,441.7699334009085,441.7699334009085,441.7699334009085,a,0.9731123431120068,10,111,0,442.771051005926,444.272957306006,,,,,,,,,,,,,,,,,,,,,,,,,,,,,,,,,,,,,,,,,,,,,,,,,,,,,,,,,,,,,,,,,,,,,,,52585,2022-11-28_10h37.16.953,vts_reward_expectancy_bt_OFFLINE,2022.2.4,60.07718477533708,
0,0,0,1,0,1,0,0,star ,circle,0,0,0,0,1,9,21,10,,,,,,,,,,,,,,,,,,,,,,,,,,,,,,,,,,,,,,,,444.773298916989,444.773298916989,444.773298916989,444.773298916989,444.773298916989,444.773298916989,444.773298916989,444.773298916989,444.773298916989,444.773298916989,l,1.2772257680771872,1,112,0,446.07459756196477,447.57629069592804,,,,,,,,,,,,,,,,,,,,,,,,,,,,,,,,,,,,,,,,,,,,,,,,,,,,,,,,,,,,,,,,,,,,,,,52585,2022-11-28_10h37.16.953,vts_reward_expectancy_bt_OFFLINE,2022.2.4,60.07718477533708,
1,0,0,0,0,1,0,0,triangle,circle,0,0,0,0,1,10,22,0,,,,,,,,,,,,,,,,,,,,,,,,,,,,,,,,,,,,,,,,448.0769145959057,448.0769145959057,448.0769145959057,448.0769145959057,448.0769145959057,448.0769145959057,448.0769145959057,448.0769145959057,448.0769145959057,448.0769145959057,a,1.461590111022815,1,113,0,449.5620492269518,451.0634869709611,451.0634869709611,,,,,,,,,,,,,,,,,,,,,,,,,,,,,,,,,,,,,,,,,,,,,,,,,,,,,,,,,,,,,,,,,,,,,,52585,2022-11-28_10h37.16.953,vts_reward_expectancy_bt_OFFLINE,2022.2.4,60.07718477533708,
0,0,0,1,0,0,1,0,star,hexagon,0,0,0,0,1,11,23,11,,,,,,,,,,,,,,,,,,,,,,,,,,,,,,,,,,,,,,,,451.5640182159841,451.5640182159841,451.5640182159841,451.5640182159841,451.5640182159841,451.5640182159841,451.5640182159841,451.5640182159841,451.5640182159841,451.5640182159841,a,0.9449037070153281,10,123,0,452.5317490620073,454.03338626690675,,,,,,,,,,,,,,,,,,,,,,,,,,,,,,,,,,,,,,,,,,,,,,,,,,,,,,,,,,,,,,,,,,,,,,,52585,2022-11-28_10h37.16.953,vts_reward_expectancy_bt_OFFLINE,2022.2.4,60.07718477533708,
1,0,0,0,0,1,0,0,triangle,circle,0,0,0,0,2,0,24,0,,,,,,,,,,,,,,,,,,,,,,,,,,,,,,,,,,,,,,,,454.53408923500683,454.53408923500683,454.53408923500683,454.53408923500683,454.53408923500683,454.53408923500683,454.53408923500683,454.53408923500683,454.53408923500683,454.53408923500683,a,1.6980590870371088,1,124,0,456.2527047418989,457.75437296100426,,,,,,,,,,,,,,,,,,,,,,,,,,,,,,,,,,,,,,,,,,,,,,,,,,,,,,,,,,,,,,,,,,,,,,,52585,2022-11-28_10h37.16.953,vts_reward_expectancy_bt_OFFLINE,2022.2.4,60.07718477533708,
0,0,0,1,1,0,0,0,star,triangle,0,0,0,0,2,1,25,9,,,,,,,,,,,,,,,,,,,,,,,,,,,,,,,,,,,,,,,,458.2549775309162,458.2549775309162,458.2549775309162,458.2549775309162,458.2549775309162,458.2549775309162,458.2549775309162,458.2549775309162,458.2549775309162,458.2549775309162,a,0.7684757300885394,10,134,0,459.05565385497175,460.5574268850032,460.5574268850032,,,,,,,,,,,,,,,,,,,,,,,,,,,,,,,,,,,,,,,,,,,,,,,,,,,,,,,,,,,,,,,,,,,,,,52585,2022-11-28_10h37.16.953,vts_reward_expectancy_bt_OFFLINE,2022.2.4,60.07718477533708,
0,0,0,1,0,0,1,0,star,hexagon,0,0,0,0,2,2,26,11,,,,,,,,,,,,,,,,,,,,,,,,,,,,,,,,,,,,,,,,461.0578546889592,461.0578546889592,461.0578546889592,461.0578546889592,461.0578546889592,461.0578546889592,461.0578546889592,461.0578546889592,461.0578546889592,461.0578546889592,l,1.204850870068185,10,144,0,462.29267713893205,463.79417880496476,,,,,,,,,,,,,,,,,,,,,,,,,,,,,,,,,,,,,,,,,,,,,,,,,,,,,,,,,,,,,,,,,,,,,,,52585,2022-11-28_10h37.16.953,vts_reward_expectancy_bt_OFFLINE,2022.2.4,60.07718477533708,
0,1,0,0,0,0,1,0,circle,hexagon,0,0,0,0,2,3,27,4,,,,,,,,,,,,,,,,,,,,,,,,,,,,,,,,,,,,,,,,464.29491592699196,464.29491592699196,464.29491592699196,464.29491592699196,464.29491592699196,464.29491592699196,464.29491592699196,464.29491592699196,464.29491592699196,464.29491592699196,l,5.247621130081825,10,154,0,469.5671662999084,471.06916723493487,,,,,,,,,,,,,,,,,,,,,,,,,,,,,,,,,,,,,,,,,,,,,,,,,,,,,,,,,,,,,,,,,,,,,,,52585,2022-11-28_10h37.16.953,vts_reward_expectancy_bt_OFFLINE,2022.2.4,60.07718477533708,
1,0,0,0,0,0,1,0,triangle,hexagon,0,0,0,0,2,4,28,1,,,,,,,,,,,,,,,,,,,,,,,,,,,,,,,,,,,,,,,,471.56955349689815,471.56955349689815,471.56955349689815,471.56955349689815,471.56955349689815,471.56955349689815,471.56955349689815,471.56955349689815,471.56955349689815,471.56955349689815,a,4.870896645123139,10,164,0,476.45831619098317,477.95993884198833,477.95993884198833,,,,,,,,,,,,,,,,,,,,,,,,,,,,,,,,,,,,,,,,,,,,,,,,,,,,,,,,,,,,,,,,,,,,,,52585,2022-11-28_10h37.16.953,vts_reward_expectancy_bt_OFFLINE,2022.2.4,60.07718477533708,
1,0,0,0,0,0,0,1,triangle,star,0,0,0,0,2,5,29,2,,,,,,,,,,,,,,,,,,,,,,,,,,,,,,,,,,,,,,,,478.460476645967,478.460476645967,478.460476645967,478.460476645967,478.460476645967,478.460476645967,478.460476645967,478.460476645967,478.460476645967,478.460476645967,a,1.1518151139607653,1,165,0,479.64515204692725,481.1467009539483,,,,,,,,,,,,,,,,,,,,,,,,,,,,,,,,,,,,,,,,,,,,,,,,,,,,,,,,,,,,,,,,,,,,,,,52585,2022-11-28_10h37.16.953,vts_reward_expectancy_bt_OFFLINE,2022.2.4,60.07718477533708,
0,0,1,0,0,1,0,0,hexagon,circle,0,0,0,0,2,6,30,7,,,,,,,,,,,,,,,,,,,,,,,,,,,,,,,,,,,,,,,,481.6472146589076,481.6472146589076,481.6472146589076,481.6472146589076,481.6472146589076,481.6472146589076,481.6472146589076,481.6472146589076,481.6472146589076,481.6472146589076,l,1.4861129791243002,10,175,0,483.1655257199891,484.6672665559454,,,,,,,,,,,,,,,,,,,,,,,,,,,,,,,,,,,,,,,,,,,,,,,,,,,,,,,,,,,,,,,,,,,,,,,52585,2022-11-28_10h37.16.953,vts_reward_expectancy_bt_OFFLINE,2022.2.4,60.07718477533708,
0,0,1,0,0,0,0,1,hexagon,star,0,0,0,0,2,7,31,8,,,,,,,,,,,,,,,,,,,,,,,,,,,,,,,,,,,,,,,,485.167768285959,485.167768285959,485.167768285959,485.167768285959,485.167768285959,485.167768285959,485.167768285959,485.167768285959,485.167768285959,485.167768285959,l,1.6550872700754553,10,185,0,486.85310359694995,488.3547509239288,,,,,,,,,,,,,,,,,,,,,,,,,,,,,,,,,,,,,,,,,,,,,,,,,,,,,,,,,,,,,,,,,,,,,,,52585,2022-11-28_10h37.16.953,vts_reward_expectancy_bt_OFFLINE,2022.2.4,60.07718477533708,
0,1,0,0,1,0,0,0,circle,triangle,0,0,0,0,2,8,32,3,,,,,,,,,,,,,,,,,,,,,,,,,,,,,,,,,,,,,,,,488.8550777869532,488.8550777869532,488.8550777869532,488.8550777869532,488.8550777869532,488.8550777869532,488.8550777869532,488.8550777869532,488.8550777869532,488.8550777869532,a,1.536346192122437,1,186,0,490.4235211489722,491.92518471891526,,,,,,,,,,,,,,,,,,,,,,,,,,,,,,,,,,,,,,,,,,,,,,,,,,,,,,,,,,,,,,,,,,,,,,,52585,2022-11-28_10h37.16.953,vts_reward_expectancy_bt_OFFLINE,2022.2.4,60.07718477533708,
0,0,1,0,1,0,0,0,hexagon,triangle,0,0,0,0,2,9,33,6,,,,,,,,,,,,,,,,,,,,,,,,,,,,,,,,,,,,,,,,492.4259722859133,492.4259722859133,492.4259722859133,492.4259722859133,492.4259722859133,492.4259722859133,492.4259722859133,492.4259722859133,492.4259722859133,492.4259722859133,a,1.0122166080400348,10,196,0,493.4601937459083,494.9619022059487,,,,,,,,,,,,,,,,,,,,,,,,,,,,,,,,,,,,,,,,,,,,,,,,,,,,,,,,,,,,,,,,,,,,,,,52585,2022-11-28_10h37.16.953,vts_reward_expectancy_bt_OFFLINE,2022.2.4,60.07718477533708,
0,1,0,0,0,0,0,1,circle,star,0,0,0,0,2,10,34,5,,,,,,,,,,,,,,,,,,,,,,,,,,,,,,,,,,,,,,,,495.46259100490715,495.46259100490715,495.46259100490715,495.46259100490715,495.46259100490715,495.46259100490715,495.46259100490715,495.46259100490715,495.46259100490715,495.46259100490715,l,3.0389742960687727,10,206,0,498.53242403490003,500.03424001589883,,,,,,,,,,,,,,,,,,,,,,,,,,,,,,,,,,,,,,,,,,,,,,,,,,,,,,,,,,,,,,,,,,,,,,,52585,2022-11-28_10h37.16.953,vts_reward_expectancy_bt_OFFLINE,2022.2.4,60.07718477533708,
0,0,0,1,0,1,0,0,star ,circle,0,0,0,0,2,11,35,10,,,,,,,,,,,,,,,,,,,,,,,,,,,,,,,,,,,,,,,,500.53480848192703,500.53480848192703,500.53480848192703,500.53480848192703,500.53480848192703,500.53480848192703,500.53480848192703,500.53480848192703,500.53480848192703,500.53480848192703,a,0.9496634980896488,10,216,0,501.5023803859949,503.00418294698466,,,,,,,,,,,,,,,,,,,,,,,,,,,,,,,,,,,,,,,,,,,,,,,,,,,,,,,,,,,,,,,,,,,,,,,52585,2022-11-28_10h37.16.953,vts_reward_expectancy_bt_OFFLINE,2022.2.4,60.07718477533708,
0,0,1,0,0,0,0,1,hexagon,star,0,0,0,0,3,0,36,8,,,,,,,,,,,,,,,,,,,,,,,,,,,,,,,,,,,,,,,,503.50462995597627,503.50462995597627,503.50462995597627,503.50462995597627,503.50462995597627,503.50462995597627,503.50462995597627,503.50462995597627,503.50462995597627,503.50462995597627,l,0.8822662971215323,1,217,0,504.4055969839683,505.90729134192225,,,,,,,,,,,,,,,,,,,,,,,,,,,,,,,,,,,,,,,,,,,,,,,,,,,,,,,,,,,,,,,,,,,,,,,52585,2022-11-28_10h37.16.953,vts_reward_expectancy_bt_OFFLINE,2022.2.4,60.07718477533708,
0,0,1,0,1,0,0,0,hexagon,triangle,0,0,0,0,3,1,37,6,,,,,,,,,,,,,,,,,,,,,,,,,,,,,,,,,,,,,,,,506.40804064192344,506.40804064192344,506.40804064192344,506.40804064192344,506.40804064192344,506.40804064192344,506.40804064192344,506.40804064192344,506.40804064192344,506.40804064192344,a,1.9266586070880294,10,227,0,508.3600704749115,509.8618007620098,,,,,,,,,,,,,,,,,,,,,,,,,,,,,,,,,,,,,,,,,,,,,,,,,,,,,,,,,,,,,,,,,,,,,,,52585,2022-11-28_10h37.16.953,vts_reward_expectancy_bt_OFFLINE,2022.2.4,60.07718477533708,
0,0,0,1,1,0,0,0,star,triangle,0,0,0,0,3,2,38,9,,,,,,,,,,,,,,,,,,,,,,,,,,,,,,,,,,,,,,,,510.3622070159763,510.3622070159763,510.3622070159763,510.3622070159763,510.3622070159763,510.3622070159763,510.3622070159763,510.3622070159763,510.3622070159763,510.3622070159763,a,0.6609568520216271,10,237,0,511.0463583569508,512.5481569219846,,,,,,,,,,,,,,,,,,,,,,,,,,,,,,,,,,,,,,,,,,,,,,,,,,,,,,,,,,,,,,,,,,,,,,,52585,2022-11-28_10h37.16.953,vts_reward_expectancy_bt_OFFLINE,2022.2.4,60.07718477533708,
0,0,0,1,0,0,1,0,star,hexagon,0,0,0,0,3,3,39,11,,,,,,,,,,,,,,,,,,,,,,,,,,,,,,,,,,,,,,,,513.0488000109326,513.0488000109326,513.0488000109326,513.0488000109326,513.0488000109326,513.0488000109326,513.0488000109326,513.0488000109326,513.0488000109326,513.0488000109326,l,1.5527595040621236,10,247,0,514.633697949932,516.1352855969453,,,,,,,,,,,,,,,,,,,,,,,,,,,,,,,,,,,,,,,,,,,,,,,,,,,,,,,,,,,,,,,,,,,,,,,52585,2022-11-28_10h37.16.953,vts_reward_expectancy_bt_OFFLINE,2022.2.4,60.07718477533708,
1,0,0,0,0,1,0,0,triangle,circle,0,0,0,0,3,4,40,0,,,,,,,,,,,,,,,,,,,,,,,,,,,,,,,,,,,,,,,,516.636029051966,516.636029051966,516.636029051966,516.636029051966,516.636029051966,516.636029051966,516.636029051966,516.636029051966,516.636029051966,516.636029051966,l,4.806343475007452,1,248,0,521.4743896039436,522.9761760359397,,,,,,,,,,,,,,,,,,,,,,,,,,,,,,,,,,,,,,,,,,,,,,,,,,,,,,,,,,,,,,,,,,,,,,,52585,2022-11-28_10h37.16.953,vts_reward_expectancy_bt_OFFLINE,2022.2.4,60.07718477533708,
0,0,1,0,0,1,0,0,hexagon,circle,0,0,0,0,3,5,41,7,,,,,,,,,,,,,,,,,,,,,,,,,,,,,,,,,,,,,,,,523.4766378899803,523.4766378899803,523.4766378899803,523.4766378899803,523.4766378899803,523.4766378899803,523.4766378899803,523.4766378899803,523.4766378899803,523.4766378899803,l,1.2624119099928066,1,249,0,524.7616614359431,526.2631401489489,,,,,,,,,,,,,,,,,,,,,,,,,,,,,,,,,,,,,,,,,,,,,,,,,,,,,,,,,,,,,,,,,,,,,,,52585,2022-11-28_10h37.16.953,vts_reward_expectancy_bt_OFFLINE,2022.2.4,60.07718477533708,
0,1,0,0,1,0,0,0,circle,triangle,0,0,0,0,3,6,42,3,,,,,,,,,,,,,,,,,,,,,,,,,,,,,,,,,,,,,,,,526.7635697899386,526.7635697899386,526.7635697899386,526.7635697899386,526.7635697899386,526.7635697899386,526.7635697899386,526.7635697899386,526.7635697899386,526.7635697899386,l,2.09355772100389,1,250,0,528.8825409989804,530.384416276007,,,,,,,,,,,,,,,,,,,,,,,,,,,,,,,,,,,,,,,,,,,,,,,,,,,,,,,,,,,,,,,,,,,,,,,52585,2022-11-28_10h37.16.953,vts_reward_expectancy_bt_OFFLINE,2022.2.4,60.07718477533708,
1,0,0,0,0,0,1,0,triangle,hexagon,0,0,0,0,3,7,43,1,,,,,,,,,,,,,,,,,,,,,,,,,,,,,,,,,,,,,,,,530.8847909969045,530.8847909969045,530.8847909969045,530.8847909969045,530.8847909969045,530.8847909969045,530.8847909969045,530.8847909969045,530.8847909969045,530.8847909969045,l,1.1775799620663747,10,260,0,532.0861055459827,533.5877248609904,533.5877248609904,,,,,,,,,,,,,,,,,,,,,,,,,,,,,,,,,,,,,,,,,,,,,,,,,,,,,,,,,,,,,,,,,,,,,,52585,2022-11-28_10h37.16.953,vts_reward_expectancy_bt_OFFLINE,2022.2.4,60.07718477533708,
0,1,0,0,0,0,1,0,circle,hexagon,0,0,0,0,3,8,44,4,,,,,,,,,,,,,,,,,,,,,,,,,,,,,,,,,,,,,,,,534.0883415020071,534.0883415020071,534.0883415020071,534.0883415020071,534.0883415020071,534.0883415020071,534.0883415020071,534.0883415020071,534.0883415020071,534.0883415020071,a,0.9900609330506995,1,261,0,535.1061383789638,536.6080046899151,,,,,,,,,,,,,,,,,,,,,,,,,,,,,,,,,,,,,,,,,,,,,,,,,,,,,,,,,,,,,,,,,,,,,,,52585,2022-11-28_10h37.16.953,vts_reward_expectancy_bt_OFFLINE,2022.2.4,60.07718477533708,
0,1,0,0,0,0,0,1,circle,star,0,0,0,0,3,9,45,5,,,,,,,,,,,,,,,,,,,,,,,,,,,,,,,,,,,,,,,,537.108630980947,537.108630980947,537.108630980947,537.108630980947,537.108630980947,537.108630980947,537.108630980947,537.108630980947,537.108630980947,537.108630980947,l,1.4799470040015876,10,271,0,538.6103030949598,540.1117891469039,,,,,,,,,,,,,,,,,,,,,,,,,,,,,,,,,,,,,,,,,,,,,,,,,,,,,,,,,,,,,,,,,,,,,,,52585,2022-11-28_10h37.16.953,vts_reward_expectancy_bt_OFFLINE,2022.2.4,60.07718477533708,
1,0,0,0,0,0,0,1,triangle,star,0,0,0,0,3,10,46,2,,,,,,,,,,,,,,,,,,,,,,,,,,,,,,,,,,,,,,,,540.6123294219142,540.6123294219142,540.6123294219142,540.6123294219142,540.6123294219142,540.6123294219142,540.6123294219142,540.6123294219142,540.6123294219142,540.6123294219142,a,2.376539991120808,1,272,0,543.0150915059494,544.5167239019647,,,,,,,,,,,,,,,,,,,,,,,,,,,,,,,,,,,,,,,,,,,,,,,,,,,,,,,,,,,,,,,,,,,,,,,52585,2022-11-28_10h37.16.953,vts_reward_expectancy_bt_OFFLINE,2022.2.4,60.07718477533708,
0,0,0,1,0,1,0,0,star ,circle,0,0,0,0,3,11,47,10,,,,,,,,,,,,,,,,,,,,,,,,,,,,,,,,,,,,,,,,545.0171816569054,545.0171816569054,545.0171816569054,545.0171816569054,545.0171816569054,545.0171816569054,545.0171816569054,545.0171816569054,545.0171816569054,545.0171816569054,l,2.121256806072779,1,273,0,547.169554808992,548.6711475889897,,,,,,,,,,,,,,,,,,,,,,,,,,,,,,,,,,,,,,,,,,,,,,,,,,,,,,,,,,,,,,,,,,,,,,,52585,2022-11-28_10h37.16.953,vts_reward_expectancy_bt_OFFLINE,2022.2.4,60.07718477533708,
1,0,0,0,0,0,0,1,triangle,star,1,0,1,0,0,0,0,2,,,,,,,,,,,,,,,,,,,,,,,,,,,,,,,,,,,,,,,,557.1138237689156,557.1138237689156,557.1138237689156,557.1138237689156,557.1138237689156,557.1138237689156,557.1138237689156,557.1138237689156,557.1138237689156,557.1138237689156,l,3.773827077122405,1,274,1,560.9181870569009,562.4197733409237,562.4197733409237,,,,,,,,,,,,,,,,,,,,,,,,,,,,,,,,,,,,,,,,,,,,,,,,,,,,,,,,,,,,,,,,,,,,,,52585,2022-11-28_10h37.16.953,vts_reward_expectancy_bt_OFFLINE,2022.2.4,60.07718477533708,
1,0,0,0,0,0,1,0,triangle,hexagon,1,0,1,0,0,1,1,1,,,,,,,,,,,,,,,,,,,,,,,,,,,,,,,,,,,,,,,,562.9202243649634,562.9202243649634,562.9202243649634,562.9202243649634,562.9202243649634,562.9202243649634,562.9202243649634,562.9202243649634,562.9202243649634,562.9202243649634,l,3.097635291982442,10,284,1,566.0403461758979,567.5420342339203,,,,,,,,,,,,,,,,,,,,,,,,,,,,,,,,,,,,,,,,,,,,,,,,,,,,,,,,,,,,,,,,,,,,,,,52585,2022-11-28_10h37.16.953,vts_reward_expectancy_bt_OFFLINE,2022.2.4,60.07718477533708,
0,0,0,1,0,0,1,0,star,hexagon,1,0,1,0,0,2,2,11,,,,,,,,,,,,,,,,,,,,,,,,,,,,,,,,,,,,,,,,568.0427885398967,568.0427885398967,568.0427885398967,568.0427885398967,568.0427885398967,568.0427885398967,568.0427885398967,568.0427885398967,568.0427885398967,568.0427885398967,l,1.8023535950342193,10,294,1,569.8779167949688,571.3796267989092,,,,,,,,,,,,,,,,,,,,,,,,,,,,,,,,,,,,,,,,,,,,,,,,,,,,,,,,,,,,,,,,,,,,,,,52585,2022-11-28_10h37.16.953,vts_reward_expectancy_bt_OFFLINE,2022.2.4,60.07718477533708,
0,0,1,0,1,0,0,0,hexagon,triangle,1,0,1,0,0,3,3,6,,,,,,,,,,,,,,,,,,,,,,,,,,,,,,,,,,,,,,,,571.879988319939,571.879988319939,571.879988319939,571.879988319939,571.879988319939,571.879988319939,571.879988319939,571.879988319939,571.879988319939,571.879988319939,a,3.4641392569756135,10,304,1,575.3674110339489,576.869038656936,,,,,,,,,,,,,,,,,,,,,,,,,,,,,,,,,,,,,,,,,,,,,,,,,,,,,,,,,,,,,,,,,,,,,,,52585,2022-11-28_10h37.16.953,vts_reward_expectancy_bt_OFFLINE,2022.2.4,60.07718477533708,
1,0,0,0,0,1,0,0,triangle,circle,1,0,1,0,0,4,4,0,,,,,,,,,,,,,,,,,,,,,,,,,,,,,,,,,,,,,,,,577.3696184409782,577.3696184409782,577.3696184409782,577.3696184409782,577.3696184409782,577.3696184409782,577.3696184409782,577.3696184409782,577.3696184409782,577.3696184409782,a,4.411945058149286,1,305,1,581.8077743559843,583.3096537699457,,,,,,,,,,,,,,,,,,,,,,,,,,,,,,,,,,,,,,,,,,,,,,,,,,,,,,,,,,,,,,,,,,,,,,,52585,2022-11-28_10h37.16.953,vts_reward_expectancy_bt_OFFLINE,2022.2.4,60.07718477533708,
0,1,0,0,0,0,0,1,circle,star,1,0,1,0,0,5,5,5,,,,,,,,,,,,,,,,,,,,,,,,,,,,,,,,,,,,,,,,583.8099959269166,583.8099959269166,583.8099959269166,583.8099959269166,583.8099959269166,583.8099959269166,583.8099959269166,583.8099959269166,583.8099959269166,583.8099959269166,a,1.4931408311240375,10,315,1,585.328539438895,586.8300595589681,,,,,,,,,,,,,,,,,,,,,,,,,,,,,,,,,,,,,,,,,,,,,,,,,,,,,,,,,,,,,,,,,,,,,,,52585,2022-11-28_10h37.16.953,vts_reward_expectancy_bt_OFFLINE,2022.2.4,60.07718477533708,
0,1,0,0,0,0,1,0,circle,hexagon,1,0,1,0,0,6,6,4,,,,,,,,,,,,,,,,,,,,,,,,,,,,,,,,,,,,,,,,587.3304736790014,587.3304736790014,587.3304736790014,587.3304736790014,587.3304736790014,587.3304736790014,587.3304736790014,587.3304736790014,587.3304736790014,587.3304736790014,l,1.829920586082153,10,325,1,589.1825689699035,590.6841605239315,,,,,,,,,,,,,,,,,,,,,,,,,,,,,,,,,,,,,,,,,,,,,,,,,,,,,,,,,,,,,,,,,,,,,,,52585,2022-11-28_10h37.16.953,vts_reward_expectancy_bt_OFFLINE,2022.2.4,60.07718477533708,
0,0,1,0,0,1,0,0,hexagon,circle,1,0,1,0,0,7,7,7,,,,,,,,,,,,,,,,,,,,,,,,,,,,,,,,,,,,,,,,591.1849484239938,591.1849484239938,591.1849484239938,591.1849484239938,591.1849484239938,591.1849484239938,591.1849484239938,591.1849484239938,591.1849484239938,591.1849484239938,l,3.0720911510288715,1,326,1,594.2882184359478,595.789920068928,,,,,,,,,,,,,,,,,,,,,,,,,,,,,,,,,,,,,,,,,,,,,,,,,,,,,,,,,,,,,,,,,,,,,,,52585,2022-11-28_10h37.16.953,vts_reward_expectancy_bt_OFFLINE,2022.2.4,60.07718477533708,
0,0,0,1,1,0,0,0,star,triangle,1,0,1,0,0,8,8,9,,,,,,,,,,,,,,,,,,,,,,,,,,,,,,,,,,,,,,,,596.2904246489052,596.2904246489052,596.2904246489052,596.2904246489052,596.2904246489052,596.2904246489052,596.2904246489052,596.2904246489052,596.2904246489052,596.2904246489052,l,1.9845223390730098,10,336,1,598.2925805909326,599.7943799250061,599.7943799250061,,,,,,,,,,,,,,,,,,,,,,,,,,,,,,,,,,,,,,,,,,,,,,,,,,,,,,,,,,,,,,,,,,,,,,52585,2022-11-28_10h37.16.953,vts_reward_expectancy_bt_OFFLINE,2022.2.4,60.07718477533708,
0,1,0,0,1,0,0,0,circle,triangle,1,0,1,0,0,9,9,3,,,,,,,,,,,,,,,,,,,,,,,,,,,,,,,,,,,,,,,,600.2949460819364,600.2949460819364,600.2949460819364,600.2949460819364,600.2949460819364,600.2949460819364,600.2949460819364,600.2949460819364,600.2949460819364,600.2949460819364,l,1.884460833040066,1,337,1,602.1969142669113,603.6986526699038,603.6986526699038,,,,,,,,,,,,,,,,,,,,,,,,,,,,,,,,,,,,,,,,,,,,,,,,,,,,,,,,,,,,,,,,,,,,,,52585,2022-11-28_10h37.16.953,vts_reward_expectancy_bt_OFFLINE,2022.2.4,60.07718477533708,
0,0,1,0,0,0,0,1,hexagon,star,1,0,1,0,0,10,10,8,,,,,,,,,,,,,,,,,,,,,,,,,,,,,,,,,,,,,,,,604.1990351399872,604.1990351399872,604.1990351399872,604.1990351399872,604.1990351399872,604.1990351399872,604.1990351399872,604.1990351399872,604.1990351399872,604.1990351399872,a,1.4690508510684595,10,347,1,605.7007969989209,607.2023071699077,,,,,,,,,,,,,,,,,,,,,,,,,,,,,,,,,,,,,,,,,,,,,,,,,,,,,,,,,,,,,,,,,,,,,,,52585,2022-11-28_10h37.16.953,vts_reward_expectancy_bt_OFFLINE,2022.2.4,60.07718477533708,
0,0,0,1,0,1,0,0,star ,circle,1,0,1,0,0,11,11,10,,,,,,,,,,,,,,,,,,,,,,,,,,,,,,,,,,,,,,,,607.7029686949681,607.7029686949681,607.7029686949681,607.7029686949681,607.7029686949681,607.7029686949681,607.7029686949681,607.7029686949681,607.7029686949681,607.7029686949681,l,1.8890839599771425,1,348,1,609.6220254600048,611.1233821569476,,,,,,,,,,,,,,,,,,,,,,,,,,,,,,,,,,,,,,,,,,,,,,,,,,,,,,,,,,,,,,,,,,,,,,,52585,2022-11-28_10h37.16.953,vts_reward_expectancy_bt_OFFLINE,2022.2.4,60.07718477533708,
0,0,0,1,0,1,0,0,star ,circle,1,0,1,0,1,0,12,10,,,,,,,,,,,,,,,,,,,,,,,,,,,,,,,,,,,,,,,,611.6242441548966,611.6242441548966,611.6242441548966,611.6242441548966,611.6242441548966,611.6242441548966,611.6242441548966,611.6242441548966,611.6242441548966,611.6242441548966,a,1.2194144311361015,1,349,1,612.8754946439294,614.3769843369955,,,,,,,,,,,,,,,,,,,,,,,,,,,,,,,,,,,,,,,,,,,,,,,,,,,,,,,,,,,,,,,,,,,,,,,52585,2022-11-28_10h37.16.953,vts_reward_expectancy_bt_OFFLINE,2022.2.4,60.07718477533708,
0,1,0,0,1,0,0,0,circle,triangle,1,0,1,0,1,1,13,3,,,,,,,,,,,,,,,,,,,,,,,,,,,,,,,,,,,,,,,,614.8775591539452,614.8775591539452,614.8775591539452,614.8775591539452,614.8775591539452,614.8775591539452,614.8775591539452,614.8775591539452,614.8775591539452,614.8775591539452,a,1.7804676060331985,10,359,1,616.6796125449473,618.1813752090093,,,,,,,,,,,,,,,,,,,,,,,,,,,,,,,,,,,,,,,,,,,,,,,,,,,,,,,,,,,,,,,,,,,,,,,52585,2022-11-28_10h37.16.953,vts_reward_expectancy_bt_OFFLINE,2022.2.4,60.07718477533708,
0,1,0,0,0,0,0,1,circle,star,1,0,1,0,1,2,14,5,,,,,,,,,,,,,,,,,,,,,,,,,,,,,,,,,,,,,,,,618.6818412439898,618.6818412439898,618.6818412439898,618.6818412439898,618.6818412439898,618.6818412439898,618.6818412439898,618.6818412439898,618.6818412439898,618.6818412439898,l,1.0923024551011622,10,369,1,619.7998264619382,621.3012970949057,,,,,,,,,,,,,,,,,,,,,,,,,,,,,,,,,,,,,,,,,,,,,,,,,,,,,,,,,,,,,,,,,,,,,,,52585,2022-11-28_10h37.16.953,vts_reward_expectancy_bt_OFFLINE,2022.2.4,60.07718477533708,
0,0,1,0,0,1,0,0,hexagon,circle,1,0,1,0,1,3,15,7,,,,,,,,,,,,,,,,,,,,,,,,,,,,,,,,,,,,,,,,621.801853021956,621.801853021956,621.801853021956,621.801853021956,621.801853021956,621.801853021956,621.801853021956,621.801853021956,621.801853021956,621.801853021956,a,0.8983788850018755,1,370,1,622.7195707389619,624.2212356890086,,,,,,,,,,,,,,,,,,,,,,,,,,,,,,,,,,,,,,,,,,,,,,,,,,,,,,,,,,,,,,,,,,,,,,,52585,2022-11-28_10h37.16.953,vts_reward_expectancy_bt_OFFLINE,2022.2.4,60.07718477533708,
0,0,1,0,1,0,0,0,hexagon,triangle,1,0,1,0,1,4,16,6,,,,,,,,,,,,,,,,,,,,,,,,,,,,,,,,,,,,,,,,624.7217708718963,624.7217708718963,624.7217708718963,624.7217708718963,624.7217708718963,624.7217708718963,624.7217708718963,624.7217708718963,624.7217708718963,624.7217708718963,a,0.9255074700340629,10,380,1,625.6729742289754,627.1746414059307,,,,,,,,,,,,,,,,,,,,,,,,,,,,,,,,,,,,,,,,,,,,,,,,,,,,,,,,,,,,,,,,,,,,,,,52585,2022-11-28_10h37.16.953,vts_reward_expectancy_bt_OFFLINE,2022.2.4,60.07718477533708,
1,0,0,0,0,0,0,1,triangle,star,1,0,1,0,1,5,17,2,,,,,,,,,,,,,,,,,,,,,,,,,,,,,,,,,,,,,,,,627.6753103559604,627.6753103559604,627.6753103559604,627.6753103559604,627.6753103559604,627.6753103559604,627.6753103559604,627.6753103559604,627.6753103559604,627.6753103559604,l,1.5941649560118094,10,390,1,629.293470020988,630.7950207609683,,,,,,,,,,,,,,,,,,,,,,,,,,,,,,,,,,,,,,,,,,,,,,,,,,,,,,,,,,,,,,,,,,,,,,,52585,2022-11-28_10h37.16.953,vts_reward_expectancy_bt_OFFLINE,2022.2.4,60.07718477533708,
0,1,0,0,0,0,1,0,circle,hexagon,1,0,1,0,1,6,18,4,,,,,,,,,,,,,,,,,,,,,,,,,,,,,,,,,,,,,,,,631.2956372749759,631.2956372749759,631.2956372749759,631.2956372749759,631.2956372749759,631.2956372749759,631.2956372749759,631.2956372749759,631.2956372749759,631.2956372749759,a,2.610562517074868,1,391,1,633.9317835340044,635.4336321599549,,,,,,,,,,,,,,,,,,,,,,,,,,,,,,,,,,,,,,,,,,,,,,,,,,,,,,,,,,,,,,,,,,,,,,,52585,2022-11-28_10h37.16.953,vts_reward_expectancy_bt_OFFLINE,2022.2.4,60.07718477533708,
0,0,1,0,0,0,0,1,hexagon,star,1,0,1,0,1,7,19,8,,,,,,,,,,,,,,,,,,,,,,,,,,,,,,,,,,,,,,,,635.9341718849028,635.9341718849028,635.9341718849028,635.9341718849028,635.9341718849028,635.9341718849028,635.9341718849028,635.9341718849028,635.9341718849028,635.9341718849028,l,0.717627122066915,10,401,1,636.6686052168952,638.1701730039204,638.1701730039204,,,,,,,,,,,,,,,,,,,,,,,,,,,,,,,,,,,,,,,,,,,,,,,,,,,,,,,,,,,,,,,,,,,,,,52585,2022-11-28_10h37.16.953,vts_reward_expectancy_bt_OFFLINE,2022.2.4,60.07718477533708,
1,0,0,0,0,0,1,0,triangle,hexagon,1,0,1,0,1,8,20,1,,,,,,,,,,,,,,,,,,,,,,,,,,,,,,,,,,,,,,,,638.6706408369355,638.6706408369355,638.6706408369355,638.6706408369355,638.6706408369355,638.6706408369355,638.6706408369355,638.6706408369355,638.6706408369355,638.6706408369355,a,7.553869326133281,1,402,1,646.2456740639172,647.7471869169967,,,,,,,,,,,,,,,,,,,,,,,,,,,,,,,,,,,,,,,,,,,,,,,,,,,,,,,,,,,,,,,,,,,,,,,52585,2022-11-28_10h37.16.953,vts_reward_expectancy_bt_OFFLINE,2022.2.4,60.07718477533708,
0,0,0,1,1,0,0,0,star,triangle,1,0,1,0,1,9,21,9,,,,,,,,,,,,,,,,,,,,,,,,,,,,,,,,,,,,,,,,648.2479043009225,648.2479043009225,648.2479043009225,648.2479043009225,648.2479043009225,648.2479043009225,648.2479043009225,648.2479043009225,648.2479043009225,648.2479043009225,a,0.7558065981138498,10,412,1,649.0321222969797,650.5337028749054,,,,,,,,,,,,,,,,,,,,,,,,,,,,,,,,,,,,,,,,,,,,,,,,,,,,,,,,,,,,,,,,,,,,,,,52585,2022-11-28_10h37.16.953,vts_reward_expectancy_bt_OFFLINE,2022.2.4,60.07718477533708,
0,0,0,1,0,0,1,0,star,hexagon,1,0,1,0,1,10,22,11,,,,,,,,,,,,,,,,,,,,,,,,,,,,,,,,,,,,,,,,651.0343031259254,651.0343031259254,651.0343031259254,651.0343031259254,651.0343031259254,651.0343031259254,651.0343031259254,651.0343031259254,651.0343031259254,651.0343031259254,a,1.5694956361548975,1,413,1,652.6359874599148,654.1376014859416,,,,,,,,,,,,,,,,,,,,,,,,,,,,,,,,,,,,,,,,,,,,,,,,,,,,,,,,,,,,,,,,,,,,,,,52585,2022-11-28_10h37.16.953,vts_reward_expectancy_bt_OFFLINE,2022.2.4,60.07718477533708,
1,0,0,0,0,1,0,0,triangle,circle,1,0,1,0,1,11,23,0,,,,,,,,,,,,,,,,,,,,,,,,,,,,,,,,,,,,,,,,654.638105241931,654.638105241931,654.638105241931,654.638105241931,654.638105241931,654.638105241931,654.638105241931,654.638105241931,654.638105241931,654.638105241931,l,0.7110959910787642,10,423,1,655.372214090894,656.8740309039131,,,,,,,,,,,,,,,,,,,,,,,,,,,,,,,,,,,,,,,,,,,,,,,,,,,,,,,,,,,,,,,,,,,,,,,52585,2022-11-28_10h37.16.953,vts_reward_expectancy_bt_OFFLINE,2022.2.4,60.07718477533708,
0,0,0,1,0,0,1,0,star,hexagon,1,0,1,0,2,0,24,11,,,,,,,,,,,,,,,,,,,,,,,,,,,,,,,,,,,,,,,,657.374742430984,657.374742430984,657.374742430984,657.374742430984,657.374742430984,657.374742430984,657.374742430984,657.374742430984,657.374742430984,657.374742430984,a,0.5414118639891967,10,433,1,657.9417306788964,659.4433662960073,,,,,,,,,,,,,,,,,,,,,,,,,,,,,,,,,,,,,,,,,,,,,,,,,,,,,,,,,,,,,,,,,,,,,,,52585,2022-11-28_10h37.16.953,vts_reward_expectancy_bt_OFFLINE,2022.2.4,60.07718477533708,
0,1,0,0,1,0,0,0,circle,triangle,1,0,1,0,2,1,25,3,,,,,,,,,,,,,,,,,,,,,,,,,,,,,,,,,,,,,,,,659.9441085959552,659.9441085959552,659.9441085959552,659.9441085959552,659.9441085959552,659.9441085959552,659.9441085959552,659.9441085959552,659.9441085959552,659.9441085959552,l,1.8748370750108734,1,434,1,661.8460661799181,663.3479073689086,,,,,,,,,,,,,,,,,,,,,,,,,,,,,,,,,,,,,,,,,,,,,,,,,,,,,,,,,,,,,,,,,,,,,,,52585,2022-11-28_10h37.16.953,vts_reward_expectancy_bt_OFFLINE,2022.2.4,60.07718477533708,
0,1,0,0,0,0,0,1,circle,star,1,0,1,0,2,2,26,5,,,,,,,,,,,,,,,,,,,,,,,,,,,,,,,,,,,,,,,,663.848369685933,663.848369685933,663.848369685933,663.848369685933,663.848369685933,663.848369685933,663.848369685933,663.848369685933,663.848369685933,663.848369685933,l,1.2554059639805928,10,444,1,665.1332431439077,666.6347488919273,,,,,,,,,,,,,,,,,,,,,,,,,,,,,,,,,,,,,,,,,,,,,,,,,,,,,,,,,,,,,,,,,,,,,,,52585,2022-11-28_10h37.16.953,vts_reward_expectancy_bt_OFFLINE,2022.2.4,60.07718477533708,
1,0,0,0,0,1,0,0,triangle,circle,1,0,1,0,2,3,27,0,,,,,,,,,,,,,,,,,,,,,,,,,,,,,,,,,,,,,,,,667.1353548839688,667.1353548839688,667.1353548839688,667.1353548839688,667.1353548839688,667.1353548839688,667.1353548839688,667.1353548839688,667.1353548839688,667.1353548839688,a,0.9176120599731803,1,445,1,668.069862796925,669.5708478949964,669.5708478949964,670.0714190289145,,,,,,,,,,,,,,,,,,,,,,,,,,,,,,,,,,,,,,,,,,,,,,,,,,,,,,,,,,,,,,,,,,,,,52585,2022-11-28_10h37.16.953,vts_reward_expectancy_bt_OFFLINE,2022.2.4,60.07718477533708,
0,1,0,0,0,0,1,0,circle,hexagon,1,0,1,0,2,4,28,4,,,,,,,,,,,,,,,,,,,,,,,,,,,,,,,,,,,,,,,,670.0714190289145,670.0714190289145,670.0714190289145,670.0714190289145,670.0714190289145,670.0714190289145,670.0714190289145,670.0714190289145,670.0714190289145,670.0714190289145,l,0.5238167920615524,10,455,1,670.621973831905,672.1241119899787,,,,,,,,,,,,,,,,,,,,,,,,,,,,,,,,,,,,,,,,,,,,,,,,,,,,,,,,,,,,,,,,,,,,,,,52585,2022-11-28_10h37.16.953,vts_reward_expectancy_bt_OFFLINE,2022.2.4,60.07718477533708,
0,0,0,1,1,0,0,0,star,triangle,1,0,1,0,2,5,29,9,,,,,,,,,,,,,,,,,,,,,,,,,,,,,,,,,,,,,,,,672.6245717239799,672.6245717239799,672.6245717239799,672.6245717239799,672.6245717239799,672.6245717239799,672.6245717239799,672.6245717239799,672.6245717239799,672.6245717239799,a,0.5351038090884686,10,465,1,673.1920195199782,674.6935339649208,,,,,,,,,,,,,,,,,,,,,,,,,,,,,,,,,,,,,,,,,,,,,,,,,,,,,,,,,,,,,,,,,,,,,,,52585,2022-11-28_10h37.16.953,vts_reward_expectancy_bt_OFFLINE,2022.2.4,60.07718477533708,
1,0,0,0,0,0,0,1,triangle,star,1,0,1,0,2,6,30,2,,,,,,,,,,,,,,,,,,,,,,,,,,,,,,,,,,,,,,,,675.1940559999784,675.1940559999784,675.1940559999784,675.1940559999784,675.1940559999784,675.1940559999784,675.1940559999784,675.1940559999784,675.1940559999784,675.1940559999784,l,0.4294131570495665,1,466,1,675.6448130689096,677.1464968249202,,,,,,,,,,,,,,,,,,,,,,,,,,,,,,,,,,,,,,,,,,,,,,,,,,,,,,,,,,,,,,,,,,,,,,,52585,2022-11-28_10h37.16.953,vts_reward_expectancy_bt_OFFLINE,2022.2.4,60.07718477533708,
0,0,0,1,0,1,0,0,star ,circle,1,0,1,0,2,7,31,10,,,,,,,,,,,,,,,,,,,,,,,,,,,,,,,,,,,,,,,,677.6469962759875,677.6469962759875,677.6469962759875,677.6469962759875,677.6469962759875,677.6469962759875,677.6469962759875,677.6469962759875,677.6469962759875,677.6469962759875,a,0.6089463420212269,1,467,1,678.2810307049658,679.7826489598956,,,,,,,,,,,,,,,,,,,,,,,,,,,,,,,,,,,,,,,,,,,,,,,,,,,,,,,,,,,,,,,,,,,,,,,52585,2022-11-28_10h37.16.953,vts_reward_expectancy_bt_OFFLINE,2022.2.4,60.07718477533708,
1,0,0,0,0,0,1,0,triangle,hexagon,1,0,1,0,2,8,32,1,,,,,,,,,,,,,,,,,,,,,,,,,,,,,,,,,,,,,,,,680.2830101189902,680.2830101189902,680.2830101189902,680.2830101189902,680.2830101189902,680.2830101189902,680.2830101189902,680.2830101189902,680.2830101189902,680.2830101189902,l,1.2588976160623133,1,468,1,681.5678261959692,683.0695555709535,683.0695555709535,,,,,,,,,,,,,,,,,,,,,,,,,,,,,,,,,,,,,,,,,,,,,,,,,,,,,,,,,,,,,,,,,,,,,,52585,2022-11-28_10h37.16.953,vts_reward_expectancy_bt_OFFLINE,2022.2.4,60.07718477533708,
0,0,1,0,0,0,0,1,hexagon,star,1,0,1,0,2,9,33,8,,,,,,,,,,,,,,,,,,,,,,,,,,,,,,,,,,,,,,,,683.5703177519608,683.5703177519608,683.5703177519608,683.5703177519608,683.5703177519608,683.5703177519608,683.5703177519608,683.5703177519608,683.5703177519608,683.5703177519608,a,0.5359087301185355,1,469,1,684.1374910349259,685.6391127639217,,,,,,,,,,,,,,,,,,,,,,,,,,,,,,,,,,,,,,,,,,,,,,,,,,,,,,,,,,,,,,,,,,,,,,,52585,2022-11-28_10h37.16.953,vts_reward_expectancy_bt_OFFLINE,2022.2.4,60.07718477533708,
0,0,1,0,1,0,0,0,hexagon,triangle,1,0,1,0,2,10,34,6,,,,,,,,,,,,,,,,,,,,,,,,,,,,,,,,,,,,,,,,686.1397279299563,686.1397279299563,686.1397279299563,686.1397279299563,686.1397279299563,686.1397279299563,686.1397279299563,686.1397279299563,686.1397279299563,686.1397279299563,a,0.9025338171049953,10,479,1,687.0742446789518,688.5756466710009,,,,,,,,,,,,,,,,,,,,,,,,,,,,,,,,,,,,,,,,,,,,,,,,,,,,,,,,,,,,,,,,,,,,,,,52585,2022-11-28_10h37.16.953,vts_reward_expectancy_bt_OFFLINE,2022.2.4,60.07718477533708,
0,0,1,0,0,1,0,0,hexagon,circle,1,0,1,0,2,11,35,7,,,,,,,,,,,,,,,,,,,,,,,,,,,,,,,,,,,,,,,,689.0762695939047,689.0762695939047,689.0762695939047,689.0762695939047,689.0762695939047,689.0762695939047,689.0762695939047,689.0762695939047,689.0762695939047,689.0762695939047,l,0.5325882841134444,10,489,1,689.6266744559398,691.1284295159858,691.1284295159858,,,,,,,,,,,,,,,,,,,,,,,,,,,,,,,,,,,,,,,,,,,,,,,,,,,,,,,,,,,,,,,,,,,,,,52585,2022-11-28_10h37.16.953,vts_reward_expectancy_bt_OFFLINE,2022.2.4,60.07718477533708,
0,0,0,1,1,0,0,0,star,triangle,1,0,1,0,3,0,36,9,,,,,,,,,,,,,,,,,,,,,,,,,,,,,,,,,,,,,,,,691.6288759799208,691.6288759799208,691.6288759799208,691.6288759799208,691.6288759799208,691.6288759799208,691.6288759799208,691.6288759799208,691.6288759799208,691.6288759799208,a,0.5011173309758306,10,499,1,692.1628434199374,693.6646486569662,,,,,,,,,,,,,,,,,,,,,,,,,,,,,,,,,,,,,,,,,,,,,,,,,,,,,,,,,,,,,,,,,,,,,,,52585,2022-11-28_10h37.16.953,vts_reward_expectancy_bt_OFFLINE,2022.2.4,60.07718477533708,
0,1,0,0,0,0,1,0,circle,hexagon,1,0,1,0,3,1,37,4,,,,,,,,,,,,,,,,,,,,,,,,,,,,,,,,,,,,,,,,694.1649866210064,694.1649866210064,694.1649866210064,694.1649866210064,694.1649866210064,694.1649866210064,694.1649866210064,694.1649866210064,694.1649866210064,694.1649866210064,l,1.180225356016308,10,509,1,695.3662574809277,696.8682094819378,,,,,,,,,,,,,,,,,,,,,,,,,,,,,,,,,,,,,,,,,,,,,,,,,,,,,,,,,,,,,,,,,,,,,,,52585,2022-11-28_10h37.16.953,vts_reward_expectancy_bt_OFFLINE,2022.2.4,60.07718477533708,
1,0,0,0,0,0,0,1,triangle,star,1,0,1,0,3,2,38,2,,,,,,,,,,,,,,,,,,,,,,,,,,,,,,,,,,,,,,,,697.368609786965,697.368609786965,697.368609786965,697.368609786965,697.368609786965,697.368609786965,697.368609786965,697.368609786965,697.368609786965,697.368609786965,l,1.1380398460896686,1,510,1,698.5365610650042,700.0381224869052,,,,,,,,,,,,,,,,,,,,,,,,,,,,,,,,,,,,,,,,,,,,,,,,,,,,,,,,,,,,,,,,,,,,,,,52585,2022-11-28_10h37.16.953,vts_reward_expectancy_bt_OFFLINE,2022.2.4,60.07718477533708,
0,0,0,1,0,0,1,0,star,hexagon,1,0,1,0,3,3,39,11,,,,,,,,,,,,,,,,,,,,,,,,,,,,,,,,,,,,,,,,700.5386913509574,700.5386913509574,700.5386913509574,700.5386913509574,700.5386913509574,700.5386913509574,700.5386913509574,700.5386913509574,700.5386913509574,700.5386913509574,a,0.5017316429875791,10,520,1,701.0728111258941,702.5744735999033,702.5744735999033,,,,,,,,,,,,,,,,,,,,,,,,,,,,,,,,,,,,,,,,,,,,,,,,,,,,,,,,,,,,,,,,,,,,,,52585,2022-11-28_10h37.16.953,vts_reward_expectancy_bt_OFFLINE,2022.2.4,60.07718477533708,
0,1,0,0,1,0,0,0,circle,triangle,1,0,1,0,3,4,40,3,,,,,,,,,,,,,,,,,,,,,,,,,,,,,,,,,,,,,,,,703.0748625649139,703.0748625649139,703.0748625649139,703.0748625649139,703.0748625649139,703.0748625649139,703.0748625649139,703.0748625649139,703.0748625649139,703.0748625649139,l,0.8445525950519368,1,521,1,703.9426564519526,705.4443719720002,,,,,,,,,,,,,,,,,,,,,,,,,,,,,,,,,,,,,,,,,,,,,,,,,,,,,,,,,,,,,,,,,,,,,,,52585,2022-11-28_10h37.16.953,vts_reward_expectancy_bt_OFFLINE,2022.2.4,60.07718477533708,
0,0,1,0,1,0,0,0,hexagon,triangle,1,0,1,0,3,5,41,6,,,,,,,,,,,,,,,,,,,,,,,,,,,,,,,,,,,,,,,,705.9446331649087,705.9446331649087,705.9446331649087,705.9446331649087,705.9446331649087,705.9446331649087,705.9446331649087,705.9446331649087,705.9446331649087,705.9446331649087,a,0.4174413860309869,10,531,1,706.3791465869872,707.8802182959625,707.8802182959625,,,,,,,,,,,,,,,,,,,,,,,,,,,,,,,,,,,,,,,,,,,,,,,,,,,,,,,,,,,,,,,,,,,,,,52585,2022-11-28_10h37.16.953,vts_reward_expectancy_bt_OFFLINE,2022.2.4,60.07718477533708,
1,0,0,0,0,0,1,0,triangle,hexagon,1,0,1,0,3,6,42,1,,,,,,,,,,,,,,,,,,,,,,,,,,,,,,,,,,,,,,,,708.3809437239543,708.3809437239543,708.3809437239543,708.3809437239543,708.3809437239543,708.3809437239543,708.3809437239543,708.3809437239543,708.3809437239543,708.3809437239543,a,0.40929324203170836,1,532,1,708.8145315259462,710.3163687859196,710.3163687859196,,,,,,,,,,,,,,,,,,,,,,,,,,,,,,,,,,,,,,,,,,,,,,,,,,,,,,,,,,,,,,,,,,,,,,52585,2022-11-28_10h37.16.953,vts_reward_expectancy_bt_OFFLINE,2022.2.4,60.07718477533708,
0,0,1,0,0,1,0,0,hexagon,circle,1,0,1,0,3,7,43,7,,,,,,,,,,,,,,,,,,,,,,,,,,,,,,,,,,,,,,,,710.8168644648977,710.8168644648977,710.8168644648977,710.8168644648977,710.8168644648977,710.8168644648977,710.8168644648977,710.8168644648977,710.8168644648977,710.8168644648977,l,0.5050421120831743,1,533,1,711.3508506899234,712.8524921209319,,,,,,,,,,,,,,,,,,,,,,,,,,,,,,,,,,,,,,,,,,,,,,,,,,,,,,,,,,,,,,,,,,,,,,,52585,2022-11-28_10h37.16.953,vts_reward_expectancy_bt_OFFLINE,2022.2.4,60.07718477533708,
0,0,1,0,0,0,0,1,hexagon,star,1,0,1,0,3,8,44,8,,,,,,,,,,,,,,,,,,,,,,,,,,,,,,,,,,,,,,,,713.3530321950093,713.3530321950093,713.3530321950093,713.3530321950093,713.3530321950093,713.3530321950093,713.3530321950093,713.3530321950093,713.3530321950093,713.3530321950093,a,0.4345711260102689,1,534,1,713.8035683439812,715.3052404789487,715.3052404789487,715.8055428339867,,,,,,,,,,,,,,,,,,,,,,,,,,,,,,,,,,,,,,,,,,,,,,,,,,,,,,,,,,,,,,,,,,,,,52585,2022-11-28_10h37.16.953,vts_reward_expectancy_bt_OFFLINE,2022.2.4,60.07718477533708,
0,0,0,1,0,1,0,0,star ,circle,1,0,1,0,3,9,45,10,,,,,,,,,,,,,,,,,,,,,,,,,,,,,,,,,,,,,,,,715.8055428339867,715.8055428339867,715.8055428339867,715.8055428339867,715.8055428339867,715.8055428339867,715.8055428339867,715.8055428339867,715.8055428339867,715.8055428339867,a,0.4554693690733984,1,535,1,716.2894722199999,717.791104425909,,,,,,,,,,,,,,,,,,,,,,,,,,,,,,,,,,,,,,,,,,,,,,,,,,,,,,,,,,,,,,,,,,,,,,,52585,2022-11-28_10h37.16.953,vts_reward_expectancy_bt_OFFLINE,2022.2.4,60.07718477533708,
1,0,0,0,0,1,0,0,triangle,circle,1,0,1,0,3,10,46,0,,,,,,,,,,,,,,,,,,,,,,,,,,,,,,,,,,,,,,,,718.2918888189597,718.2918888189597,718.2918888189597,718.2918888189597,718.2918888189597,718.2918888189597,718.2918888189597,718.2918888189597,718.2918888189597,718.2918888189597,a,0.4797674680594355,1,536,1,718.7923592389561,720.2938432689989,,,,,,,,,,,,,,,,,,,,,,,,,,,,,,,,,,,,,,,,,,,,,,,,,,,,,,,,,,,,,,,,,,,,,,,52585,2022-11-28_10h37.16.953,vts_reward_expectancy_bt_OFFLINE,2022.2.4,60.07718477533708,
0,1,0,0,0,0,0,1,circle,star,1,0,1,0,3,11,47,5,,,,,,,,,,,,,,,,,,,,,,,,,,,,,,,,,,,,,,,,720.7945735389367,720.7945735389367,720.7945735389367,720.7945735389367,720.7945735389367,720.7945735389367,720.7945735389367,720.7945735389367,720.7945735389367,720.7945735389367,a,0.4282744330121204,1,537,1,721.2462069549365,722.7465432059253,,,,,,,,,,,,,,,,,,,,,,,,,,,,,,,,,,,,,,,,,,,,,,,,,,,,,,,,,,,,,,,,,,,,,,,52585,2022-11-28_10h37.16.953,vts_reward_expectancy_bt_OFFLINE,2022.2.4,60.07718477533708,
0,0,0,1,1,0,0,0,star,triangle,2,0,2,0,0,0,0,9,,,,,,,,,,,,,,,,,,,,,,,,,,,,,,,,,,,,,,,,753.5640094199916,753.5640094199916,753.5640094199916,753.5640094199916,753.5640094199916,753.5640094199916,753.5640094199916,753.5640094199916,753.5640094199916,753.5640094199916,a,1.0188117161160335,10,547,2,754.615129000973,756.1169643749017,756.1169643749017,,,,,,,,,,,,,,,,,,,,,,,,,,,,,,,,,,,,,,,,,,,,,,,,,,,,,,,,,,,,,,,,,,,,,,52585,2022-11-28_10h37.16.953,vts_reward_expectancy_bt_OFFLINE,2022.2.4,60.07718477533708,
0,1,0,0,1,0,0,0,circle,triangle,2,0,2,0,0,1,1,3,,,,,,,,,,,,,,,,,,,,,,,,,,,,,,,,,,,,,,,,756.6171285919845,756.6171285919845,756.6171285919845,756.6171285919845,756.6171285919845,756.6171285919845,756.6171285919845,756.6171285919845,756.6171285919845,756.6171285919845,l,1.0257439920678735,1,548,2,757.6684404819971,759.1700768090086,,,,,,,,,,,,,,,,,,,,,,,,,,,,,,,,,,,,,,,,,,,,,,,,,,,,,,,,,,,,,,,,,,,,,,,52585,2022-11-28_10h37.16.953,vts_reward_expectancy_bt_OFFLINE,2022.2.4,60.07718477533708,
0,1,0,0,0,0,1,0,circle,hexagon,2,0,2,0,0,2,2,4,,,,,,,,,,,,,,,,,,,,,,,,,,,,,,,,,,,,,,,,759.670728293946,759.670728293946,759.670728293946,759.670728293946,759.670728293946,759.670728293946,759.670728293946,759.670728293946,759.670728293946,759.670728293946,a,0.751820016070269,1,549,2,760.4550213989569,761.9565423500026,,,,,,,,,,,,,,,,,,,,,,,,,,,,,,,,,,,,,,,,,,,,,,,,,,,,,,,,,,,,,,,,,,,,,,,52585,2022-11-28_10h37.16.953,vts_reward_expectancy_bt_OFFLINE,2022.2.4,60.07718477533708,
0,0,1,0,0,1,0,0,hexagon,circle,2,0,2,0,0,3,3,7,,,,,,,,,,,,,,,,,,,,,,,,,,,,,,,,,,,,,,,,762.4571291899774,762.4571291899774,762.4571291899774,762.4571291899774,762.4571291899774,762.4571291899774,762.4571291899774,762.4571291899774,762.4571291899774,762.4571291899774,a,0.5628884329926223,1,550,2,763.041009005974,764.5428976059193,,,,,,,,,,,,,,,,,,,,,,,,,,,,,,,,,,,,,,,,,,,,,,,,,,,,,,,,,,,,,,,,,,,,,,,52585,2022-11-28_10h37.16.953,vts_reward_expectancy_bt_OFFLINE,2022.2.4,60.07718477533708,
0,0,0,1,0,0,1,0,star,hexagon,2,0,2,0,0,4,4,11,,,,,,,,,,,,,,,,,,,,,,,,,,,,,,,,,,,,,,,,765.0431310319109,765.0431310319109,765.0431310319109,765.0431310319109,765.0431310319109,765.0431310319109,765.0431310319109,765.0431310319109,765.0431310319109,765.0431310319109,a,0.4751572690438479,10,560,2,765.5441288090078,767.0455283649499,,,,,,,,,,,,,,,,,,,,,,,,,,,,,,,,,,,,,,,,,,,,,,,,,,,,,,,,,,,,,,,,,,,,,,,52585,2022-11-28_10h37.16.953,vts_reward_expectancy_bt_OFFLINE,2022.2.4,60.07718477533708,
1,0,0,0,0,0,1,0,triangle,hexagon,2,0,2,0,0,5,5,1,,,,,,,,,,,,,,,,,,,,,,,,,,,,,,,,,,,,,,,,767.5460983159719,767.5460983159719,767.5460983159719,767.5460983159719,767.5460983159719,767.5460983159719,767.5460983159719,767.5460983159719,767.5460983159719,767.5460983159719,l,0.952186610084027,10,570,2,768.5303587069502,770.0321238199249,,,,,,,,,,,,,,,,,,,,,,,,,,,,,,,,,,,,,,,,,,,,,,,,,,,,,,,,,,,,,,,,,,,,,,,52585,2022-11-28_10h37.16.953,vts_reward_expectancy_bt_OFFLINE,2022.2.4,60.07718477533708,
0,0,1,0,1,0,0,0,hexagon,triangle,2,0,2,0,0,6,6,6,,,,,,,,,,,,,,,,,,,,,,,,,,,,,,,,,,,,,,,,770.5326815469889,770.5326815469889,770.5326815469889,770.5326815469889,770.5326815469889,770.5326815469889,770.5326815469889,770.5326815469889,770.5326815469889,770.5326815469889,l,1.2858500509755686,1,571,2,771.8509398559108,773.3523166839732,,,,,,,,,,,,,,,,,,,,,,,,,,,,,,,,,,,,,,,,,,,,,,,,,,,,,,,,,,,,,,,,,,,,,,,52585,2022-11-28_10h37.16.953,vts_reward_expectancy_bt_OFFLINE,2022.2.4,60.07718477533708,
0,1,0,0,0,0,0,1,circle,star,2,0,2,0,0,7,7,5,,,,,,,,,,,,,,,,,,,,,,,,,,,,,,,,,,,,,,,,773.8530448209494,773.8530448209494,773.8530448209494,773.8530448209494,773.8530448209494,773.8530448209494,773.8530448209494,773.8530448209494,773.8530448209494,773.8530448209494,a,0.8225617270218208,1,572,2,774.7039560939884,776.2055091009242,,,,,,,,,,,,,,,,,,,,,,,,,,,,,,,,,,,,,,,,,,,,,,,,,,,,,,,,,,,,,,,,,,,,,,,52585,2022-11-28_10h37.16.953,vts_reward_expectancy_bt_OFFLINE,2022.2.4,60.07718477533708,
0,0,0,1,0,1,0,0,star ,circle,2,0,2,0,0,8,8,10,,,,,,,,,,,,,,,,,,,,,,,,,,,,,,,,,,,,,,,,776.7061137919081,776.7061137919081,776.7061137919081,776.7061137919081,776.7061137919081,776.7061137919081,776.7061137919081,776.7061137919081,776.7061137919081,776.7061137919081,a,0.6351800169795752,1,573,2,777.3735182259697,778.8752673009876,,,,,,,,,,,,,,,,,,,,,,,,,,,,,,,,,,,,,,,,,,,,,,,,,,,,,,,,,,,,,,,,,,,,,,,52585,2022-11-28_10h37.16.953,vts_reward_expectancy_bt_OFFLINE,2022.2.4,60.07718477533708,
0,0,1,0,0,0,0,1,hexagon,star,2,0,2,0,0,9,9,8,,,,,,,,,,,,,,,,,,,,,,,,,,,,,,,,,,,,,,,,779.3758281799965,779.3758281799965,779.3758281799965,779.3758281799965,779.3758281799965,779.3758281799965,779.3758281799965,779.3758281799965,779.3758281799965,779.3758281799965,l,0.8118719320045784,10,583,2,780.209797830903,781.7117969399551,,,,,,,,,,,,,,,,,,,,,,,,,,,,,,,,,,,,,,,,,,,,,,,,,,,,,,,,,,,,,,,,,,,,,,,52585,2022-11-28_10h37.16.953,vts_reward_expectancy_bt_OFFLINE,2022.2.4,60.07718477533708,
1,0,0,0,0,1,0,0,triangle,circle,2,0,2,0,0,10,10,0,,,,,,,,,,,,,,,,,,,,,,,,,,,,,,,,,,,,,,,,782.2123184219236,782.2123184219236,782.2123184219236,782.2123184219236,782.2123184219236,782.2123184219236,782.2123184219236,782.2123184219236,782.2123184219236,782.2123184219236,a,0.6199319770094007,1,584,2,782.8629776869202,784.3645088669145,,,,,,,,,,,,,,,,,,,,,,,,,,,,,,,,,,,,,,,,,,,,,,,,,,,,,,,,,,,,,,,,,,,,,,,52585,2022-11-28_10h37.16.953,vts_reward_expectancy_bt_OFFLINE,2022.2.4,60.07718477533708,
1,0,0,0,0,0,0,1,triangle,star,2,0,2,0,0,11,11,2,,,,,,,,,,,,,,,,,,,,,,,,,,,,,,,,,,,,,,,,784.8650882439688,784.8650882439688,784.8650882439688,784.8650882439688,784.8650882439688,784.8650882439688,784.8650882439688,784.8650882439688,784.8650882439688,784.8650882439688,l,0.442125873058103,1,585,2,785.332463389961,786.8338400899665,,,,,,,,,,,,,,,,,,,,,,,,,,,,,,,,,,,,,,,,,,,,,,,,,,,,,,,,,,,,,,,,,,,,,,,52585,2022-11-28_10h37.16.953,vts_reward_expectancy_bt_OFFLINE,2022.2.4,60.07718477533708,
0,0,1,0,0,0,0,1,hexagon,star,2,0,2,0,1,0,12,8,,,,,,,,,,,,,,,,,,,,,,,,,,,,,,,,,,,,,,,,787.3346329249907,787.3346329249907,787.3346329249907,787.3346329249907,787.3346329249907,787.3346329249907,787.3346329249907,787.3346329249907,787.3346329249907,787.3346329249907,a,0.49286986712832004,10,595,2,787.8518186789006,789.3533369419165,,,,,,,,,,,,,,,,,,,,,,,,,,,,,,,,,,,,,,,,,,,,,,,,,,,,,,,,,,,,,,,,,,,,,,,52585,2022-11-28_10h37.16.953,vts_reward_expectancy_bt_OFFLINE,2022.2.4,60.07718477533708,
0,1,0,0,0,0,1,0,circle,hexagon,2,0,2,0,1,1,13,4,,,,,,,,,,,,,,,,,,,,,,,,,,,,,,,,,,,,,,,,789.8538288469426,789.8538288469426,789.8538288469426,789.8538288469426,789.8538288469426,789.8538288469426,789.8538288469426,789.8538288469426,789.8538288469426,789.8538288469426,l,1.0227586571127176,10,605,2,790.9052304999204,792.4067473239265,,,,,,,,,,,,,,,,,,,,,,,,,,,,,,,,,,,,,,,,,,,,,,,,,,,,,,,,,,,,,,,,,,,,,,,52585,2022-11-28_10h37.16.953,vts_reward_expectancy_bt_OFFLINE,2022.2.4,60.07718477533708,
0,1,0,0,0,0,0,1,circle,star,2,0,2,0,1,2,14,5,,,,,,,,,,,,,,,,,,,,,,,,,,,,,,,,,,,,,,,,792.9072881009197,792.9072881009197,792.9072881009197,792.9072881009197,792.9072881009197,792.9072881009197,792.9072881009197,792.9072881009197,792.9072881009197,792.9072881009197,l,2.8629741210024804,10,615,2,795.7939546409762,797.2955454239855,,,,,,,,,,,,,,,,,,,,,,,,,,,,,,,,,,,,,,,,,,,,,,,,,,,,,,,,,,,,,,,,,,,,,,,52585,2022-11-28_10h37.16.953,vts_reward_expectancy_bt_OFFLINE,2022.2.4,60.07718477533708,
0,0,1,0,0,1,0,0,hexagon,circle,2,0,2,0,1,3,15,7,,,,,,,,,,,,,,,,,,,,,,,,,,,,,,,,,,,,,,,,797.7961323419586,797.7961323419586,797.7961323419586,797.7961323419586,797.7961323419586,797.7961323419586,797.7961323419586,797.7961323419586,797.7961323419586,797.7961323419586,a,0.484544059028849,10,625,2,798.3132953169988,799.8149559840094,,,,,,,,,,,,,,,,,,,,,,,,,,,,,,,,,,,,,,,,,,,,,,,,,,,,,,,,,,,,,,,,,,,,,,,52585,2022-11-28_10h37.16.953,vts_reward_expectancy_bt_OFFLINE,2022.2.4,60.07718477533708,
0,0,0,1,0,1,0,0,star ,circle,2,0,2,0,1,4,16,10,,,,,,,,,,,,,,,,,,,,,,,,,,,,,,,,,,,,,,,,800.3155111649539,800.3155111649539,800.3155111649539,800.3155111649539,800.3155111649539,800.3155111649539,800.3155111649539,800.3155111649539,800.3155111649539,800.3155111649539,l,0.36078266403637826,1,626,2,800.6994385899743,802.2009475759696,802.2009475759696,,,,,,,,,,,,,,,,,,,,,,,,,,,,,,,,,,,,,,,,,,,,,,,,,,,,,,,,,,,,,,,,,,,,,,52585,2022-11-28_10h37.16.953,vts_reward_expectancy_bt_OFFLINE,2022.2.4,60.07718477533708,
0,0,0,1,1,0,0,0,star,triangle,2,0,2,0,1,5,17,9,,,,,,,,,,,,,,,,,,,,,,,,,,,,,,,,,,,,,,,,802.7014433289878,802.7014433289878,802.7014433289878,802.7014433289878,802.7014433289878,802.7014433289878,802.7014433289878,802.7014433289878,802.7014433289878,802.7014433289878,l,0.3260591400321573,1,627,2,803.0521391239017,804.5534057569457,804.5534057569457,,,,,,,,,,,,,,,,,,,,,,,,,,,,,,,,,,,,,,,,,,,,,,,,,,,,,,,,,,,,,,,,,,,,,,52585,2022-11-28_10h37.16.953,vts_reward_expectancy_bt_OFFLINE,2022.2.4,60.07718477533708,
1,0,0,0,0,0,0,1,triangle,star,2,0,2,0,1,6,18,2,,,,,,,,,,,,,,,,,,,,,,,,,,,,,,,,,,,,,,,,805.0541438088985,805.0541438088985,805.0541438088985,805.0541438088985,805.0541438088985,805.0541438088985,805.0541438088985,805.0541438088985,805.0541438088985,805.0541438088985,a,0.4155727431643754,1,628,2,805.4878564059036,806.9895663909847,,,,,,,,,,,,,,,,,,,,,,,,,,,,,,,,,,,,,,,,,,,,,,,,,,,,,,,,,,,,,,,,,,,,,,,52585,2022-11-28_10h37.16.953,vts_reward_expectancy_bt_OFFLINE,2022.2.4,60.07718477533708,
1,0,0,0,0,0,1,0,triangle,hexagon,2,0,2,0,1,7,19,1,,,,,,,,,,,,,,,,,,,,,,,,,,,,,,,,,,,,,,,,807.4900625409791,807.4900625409791,807.4900625409791,807.4900625409791,807.4900625409791,807.4900625409791,807.4900625409791,807.4900625409791,807.4900625409791,807.4900625409791,l,0.521166795049794,10,638,2,808.0405699759722,809.5426138399635,,,,,,,,,,,,,,,,,,,,,,,,,,,,,,,,,,,,,,,,,,,,,,,,,,,,,,,,,,,,,,,,,,,,,,,52585,2022-11-28_10h37.16.953,vts_reward_expectancy_bt_OFFLINE,2022.2.4,60.07718477533708,
0,1,0,0,1,0,0,0,circle,triangle,2,0,2,0,1,8,20,3,,,,,,,,,,,,,,,,,,,,,,,,,,,,,,,,,,,,,,,,810.0429221699014,810.0429221699014,810.0429221699014,810.0429221699014,810.0429221699014,810.0429221699014,810.0429221699014,810.0429221699014,810.0429221699014,810.0429221699014,l,0.5448283390142024,10,648,2,810.610324078938,812.1119982158998,812.1119982158998,,,,,,,,,,,,,,,,,,,,,,,,,,,,,,,,,,,,,,,,,,,,,,,,,,,,,,,,,,,,,,,,,,,,,,52585,2022-11-28_10h37.16.953,vts_reward_expectancy_bt_OFFLINE,2022.2.4,60.07718477533708,
1,0,0,0,0,1,0,0,triangle,circle,2,0,2,0,1,9,21,0,,,,,,,,,,,,,,,,,,,,,,,,,,,,,,,,,,,,,,,,812.6123548418982,812.6123548418982,812.6123548418982,812.6123548418982,812.6123548418982,812.6123548418982,812.6123548418982,812.6123548418982,812.6123548418982,812.6123548418982,a,0.5296226659556851,1,649,2,813.1630272449693,814.6645822309656,,,,,,,,,,,,,,,,,,,,,,,,,,,,,,,,,,,,,,,,,,,,,,,,,,,,,,,,,,,,,,,,,,,,,,,52585,2022-11-28_10h37.16.953,vts_reward_expectancy_bt_OFFLINE,2022.2.4,60.07718477533708,
0,0,1,0,1,0,0,0,hexagon,triangle,2,0,2,0,1,10,22,6,,,,,,,,,,,,,,,,,,,,,,,,,,,,,,,,,,,,,,,,815.1654930909863,815.1654930909863,815.1654930909863,815.1654930909863,815.1654930909863,815.1654930909863,815.1654930909863,815.1654930909863,815.1654930909863,815.1654930909863,a,0.642801187117584,10,659,2,815.8327365799341,817.3345306509873,,,,,,,,,,,,,,,,,,,,,,,,,,,,,,,,,,,,,,,,,,,,,,,,,,,,,,,,,,,,,,,,,,,,,,,52585,2022-11-28_10h37.16.953,vts_reward_expectancy_bt_OFFLINE,2022.2.4,60.07718477533708,
0,0,0,1,0,0,1,0,star,hexagon,2,0,2,0,1,11,23,11,,,,,,,,,,,,,,,,,,,,,,,,,,,,,,,,,,,,,,,,817.8349867209326,817.8349867209326,817.8349867209326,817.8349867209326,817.8349867209326,817.8349867209326,817.8349867209326,817.8349867209326,817.8349867209326,817.8349867209326,a,0.6184447960695252,10,669,2,818.4857601559488,819.9873913360061,,,,,,,,,,,,,,,,,,,,,,,,,,,,,,,,,,,,,,,,,,,,,,,,,,,,,,,,,,,,,,,,,,,,,,,52585,2022-11-28_10h37.16.953,vts_reward_expectancy_bt_OFFLINE,2022.2.4,60.07718477533708,
0,0,0,1,1,0,0,0,star,triangle,2,0,2,0,2,0,24,9,,,,,,,,,,,,,,,,,,,,,,,,,,,,,,,,,,,,,,,,820.4878377669957,820.4878377669957,820.4878377669957,820.4878377669957,820.4878377669957,820.4878377669957,820.4878377669957,820.4878377669957,820.4878377669957,820.4878377669957,a,0.3175579900853336,1,670,2,820.8382697519846,822.3399906869745,,,,,,,,,,,,,,,,,,,,,,,,,,,,,,,,,,,,,,,,,,,,,,,,,,,,,,,,,,,,,,,,,,,,,,,52585,2022-11-28_10h37.16.953,vts_reward_expectancy_bt_OFFLINE,2022.2.4,60.07718477533708,
0,1,0,0,0,0,1,0,circle,hexagon,2,0,2,0,2,1,25,4,,,,,,,,,,,,,,,,,,,,,,,,,,,,,,,,,,,,,,,,822.8405754509149,822.8405754509149,822.8405754509149,822.8405754509149,822.8405754509149,822.8405754509149,822.8405754509149,822.8405754509149,822.8405754509149,822.8405754509149,l,0.32573238911572844,10,680,2,823.1913877109764,824.6923085509334,,,,,,,,,,,,,,,,,,,,,,,,,,,,,,,,,,,,,,,,,,,,,,,,,,,,,,,,,,,,,,,,,,,,,,,52585,2022-11-28_10h37.16.953,vts_reward_expectancy_bt_OFFLINE,2022.2.4,60.07718477533708,
0,1,0,0,0,0,0,1,circle,star,2,0,2,0,2,2,26,5,,,,,,,,,,,,,,,,,,,,,,,,,,,,,,,,,,,,,,,,825.1928801989416,825.1928801989416,825.1928801989416,825.1928801989416,825.1928801989416,825.1928801989416,825.1928801989416,825.1928801989416,825.1928801989416,825.1928801989416,l,0.4367932070745155,10,690,2,825.6602798919193,827.1619786189403,827.1619786189403,827.6625016309554,,,,,,,,,,,,,,,,,,,,,,,,,,,,,,,,,,,,,,,,,,,,,,,,,,,,,,,,,,,,,,,,,,,,,52585,2022-11-28_10h37.16.953,vts_reward_expectancy_bt_OFFLINE,2022.2.4,60.07718477533708,
0,0,1,0,0,0,0,1,hexagon,star,2,0,2,0,2,3,27,8,,,,,,,,,,,,,,,,,,,,,,,,,,,,,,,,,,,,,,,,827.6625016309554,827.6625016309554,827.6625016309554,827.6625016309554,827.6625016309554,827.6625016309554,827.6625016309554,827.6625016309554,827.6625016309554,827.6625016309554,l,0.46674422710202634,10,700,2,828.1462514019804,829.6478951189201,829.6478951189201,,,,,,,,,,,,,,,,,,,,,,,,,,,,,,,,,,,,,,,,,,,,,,,,,,,,,,,,,,,,,,,,,,,,,,52585,2022-11-28_10h37.16.953,vts_reward_expectancy_bt_OFFLINE,2022.2.4,60.07718477533708,
0,0,0,1,0,1,0,0,star ,circle,2,0,2,0,2,4,28,10,,,,,,,,,,,,,,,,,,,,,,,,,,,,,,,,,,,,,,,,830.1484058799688,830.1484058799688,830.1484058799688,830.1484058799688,830.1484058799688,830.1484058799688,830.1484058799688,830.1484058799688,830.1484058799688,830.1484058799688,a,0.8032097060931846,10,710,2,830.9828426099848,832.4844818660058,,,,,,,,,,,,,,,,,,,,,,,,,,,,,,,,,,,,,,,,,,,,,,,,,,,,,,,,,,,,,,,,,,,,,,,52585,2022-11-28_10h37.16.953,vts_reward_expectancy_bt_OFFLINE,2022.2.4,60.07718477533708,
1,0,0,0,0,0,1,0,triangle,hexagon,2,0,2,0,2,5,29,1,,,,,,,,,,,,,,,,,,,,,,,,,,,,,,,,,,,,,,,,832.9848832068965,832.9848832068965,832.9848832068965,832.9848832068965,832.9848832068965,832.9848832068965,832.9848832068965,832.9848832068965,832.9848832068965,832.9848832068965,l,0.9262787201441824,10,720,2,833.9360736139352,835.437750639976,835.437750639976,,,,,,,,,,,,,,,,,,,,,,,,,,,,,,,,,,,,,,,,,,,,,,,,,,,,,,,,,,,,,,,,,,,,,,52585,2022-11-28_10h37.16.953,vts_reward_expectancy_bt_OFFLINE,2022.2.4,60.07718477533708,
0,0,1,0,1,0,0,0,hexagon,triangle,2,0,2,0,2,6,30,6,,,,,,,,,,,,,,,,,,,,,,,,,,,,,,,,,,,,,,,,835.9382872649003,835.9382872649003,835.9382872649003,835.9382872649003,835.9382872649003,835.9382872649003,835.9382872649003,835.9382872649003,835.9382872649003,835.9382872649003,l,0.4920427300967276,1,721,2,836.4561682899948,837.9569530709414,,,,,,,,,,,,,,,,,,,,,,,,,,,,,,,,,,,,,,,,,,,,,,,,,,,,,,,,,,,,,,,,,,,,,,,52585,2022-11-28_10h37.16.953,vts_reward_expectancy_bt_OFFLINE,2022.2.4,60.07718477533708,
1,0,0,0,0,1,0,0,triangle,circle,2,0,2,0,2,7,31,0,,,,,,,,,,,,,,,,,,,,,,,,,,,,,,,,,,,,,,,,838.4576609899523,838.4576609899523,838.4576609899523,838.4576609899523,838.4576609899523,838.4576609899523,838.4576609899523,838.4576609899523,838.4576609899523,838.4576609899523,l,2.541157277068123,1,722,2,841.027025016956,842.528667720966,,,,,,,,,,,,,,,,,,,,,,,,,,,,,,,,,,,,,,,,,,,,,,,,,,,,,,,,,,,,,,,,,,,,,,,52585,2022-11-28_10h37.16.953,vts_reward_expectancy_bt_OFFLINE,2022.2.4,60.07718477533708,
0,1,0,0,1,0,0,0,circle,triangle,2,0,2,0,2,8,32,3,,,,,,,,,,,,,,,,,,,,,,,,,,,,,,,,,,,,,,,,843.0293490299955,843.0293490299955,843.0293490299955,843.0293490299955,843.0293490299955,843.0293490299955,843.0293490299955,843.0293490299955,843.0293490299955,843.0293490299955,a,1.5132423230679706,1,723,2,844.5642205649056,846.0660785899963,846.0660785899963,,,,,,,,,,,,,,,,,,,,,,,,,,,,,,,,,,,,,,,,,,,,,,,,,,,,,,,,,,,,,,,,,,,,,,52585,2022-11-28_10h37.16.953,vts_reward_expectancy_bt_OFFLINE,2022.2.4,60.07718477533708,
0,0,0,1,0,0,1,0,star,hexagon,2,0,2,0,2,9,33,11,,,,,,,,,,,,,,,,,,,,,,,,,,,,,,,,,,,,,,,,846.5664358258946,846.5664358258946,846.5664358258946,846.5664358258946,846.5664358258946,846.5664358258946,846.5664358258946,846.5664358258946,846.5664358258946,846.5664358258946,a,0.6765547110699117,10,733,2,847.2681928059319,848.7691666419851,,,,,,,,,,,,,,,,,,,,,,,,,,,,,,,,,,,,,,,,,,,,,,,,,,,,,,,,,,,,,,,,,,,,,,,52585,2022-11-28_10h37.16.953,vts_reward_expectancy_bt_OFFLINE,2022.2.4,60.07718477533708,
0,0,1,0,0,1,0,0,hexagon,circle,2,0,2,0,2,10,34,7,,,,,,,,,,,,,,,,,,,,,,,,,,,,,,,,,,,,,,,,849.2694547149586,849.2694547149586,849.2694547149586,849.2694547149586,849.2694547149586,849.2694547149586,849.2694547149586,849.2694547149586,849.2694547149586,849.2694547149586,a,0.551258114981465,10,743,2,849.8535189259565,851.3553318459308,,,,,,,,,,,,,,,,,,,,,,,,,,,,,,,,,,,,,,,,,,,,,,,,,,,,,,,,,,,,,,,,,,,,,,,52585,2022-11-28_10h37.16.953,vts_reward_expectancy_bt_OFFLINE,2022.2.4,60.07718477533708,
1,0,0,0,0,0,0,1,triangle,star,2,0,2,0,2,11,35,2,,,,,,,,,,,,,,,,,,,,,,,,,,,,,,,,,,,,,,,,851.855620185961,851.855620185961,851.855620185961,851.855620185961,851.855620185961,851.855620185961,851.855620185961,851.855620185961,851.855620185961,851.855620185961,l,0.7535288790240884,10,753,2,852.6398522369564,854.141732896911,,,,,,,,,,,,,,,,,,,,,,,,,,,,,,,,,,,,,,,,,,,,,,,,,,,,,,,,,,,,,,,,,,,,,,,52585,2022-11-28_10h37.16.953,vts_reward_expectancy_bt_OFFLINE,2022.2.4,60.07718477533708,
0,0,0,1,0,0,1,0,star,hexagon,2,0,2,0,3,0,36,11,,,,,,,,,,,,,,,,,,,,,,,,,,,,,,,,,,,,,,,,854.6422417409485,854.6422417409485,854.6422417409485,854.6422417409485,854.6422417409485,854.6422417409485,854.6422417409485,854.6422417409485,854.6422417409485,854.6422417409485,a,0.6451419551158324,10,763,2,855.3097000009147,856.8112392459298,,,,,,,,,,,,,,,,,,,,,,,,,,,,,,,,,,,,,,,,,,,,,,,,,,,,,,,,,,,,,,,,,,,,,,,52585,2022-11-28_10h37.16.953,vts_reward_expectancy_bt_OFFLINE,2022.2.4,60.07718477533708,
0,0,0,1,0,1,0,0,star ,circle,2,0,2,0,3,1,37,10,,,,,,,,,,,,,,,,,,,,,,,,,,,,,,,,,,,,,,,,857.3117181269918,857.3117181269918,857.3117181269918,857.3117181269918,857.3117181269918,857.3117181269918,857.3117181269918,857.3117181269918,857.3117181269918,857.3117181269918,a,0.551941980025731,10,773,2,857.8958246569382,859.3974130050046,,,,,,,,,,,,,,,,,,,,,,,,,,,,,,,,,,,,,,,,,,,,,,,,,,,,,,,,,,,,,,,,,,,,,,,52585,2022-11-28_10h37.16.953,vts_reward_expectancy_bt_OFFLINE,2022.2.4,60.07718477533708,
0,0,1,0,0,0,0,1,hexagon,star,2,0,2,0,3,2,38,8,,,,,,,,,,,,,,,,,,,,,,,,,,,,,,,,,,,,,,,,859.8978361249901,859.8978361249901,859.8978361249901,859.8978361249901,859.8978361249901,859.8978361249901,859.8978361249901,859.8978361249901,859.8978361249901,859.8978361249901,l,0.825338569120504,1,774,2,860.7499046039302,862.2504196289228,,,,,,,,,,,,,,,,,,,,,,,,,,,,,,,,,,,,,,,,,,,,,,,,,,,,,,,,,,,,,,,,,,,,,,,52585,2022-11-28_10h37.16.953,vts_reward_expectancy_bt_OFFLINE,2022.2.4,60.07718477533708,
0,1,0,0,0,0,1,0,circle,hexagon,2,0,2,0,3,3,39,4,,,,,,,,,,,,,,,,,,,,,,,,,,,,,,,,,,,,,,,,862.7509579159087,862.7509579159087,862.7509579159087,862.7509579159087,862.7509579159087,862.7509579159087,862.7509579159087,862.7509579159087,862.7509579159087,862.7509579159087,a,0.46836077503394336,1,775,2,863.2518209759146,864.7531110969139,,,,,,,,,,,,,,,,,,,,,,,,,,,,,,,,,,,,,,,,,,,,,,,,,,,,,,,,,,,,,,,,,,,,,,,52585,2022-11-28_10h37.16.953,vts_reward_expectancy_bt_OFFLINE,2022.2.4,60.07718477533708,
0,1,0,0,0,0,0,1,circle,star,2,0,2,0,3,4,40,5,,,,,,,,,,,,,,,,,,,,,,,,,,,,,,,,,,,,,,,,865.2537308050087,865.2537308050087,865.2537308050087,865.2537308050087,865.2537308050087,865.2537308050087,865.2537308050087,865.2537308050087,865.2537308050087,865.2537308050087,l,0.39603980514220893,10,785,2,865.6715631599072,867.1725932909176,,,,,,,,,,,,,,,,,,,,,,,,,,,,,,,,,,,,,,,,,,,,,,,,,,,,,,,,,,,,,,,,,,,,,,,52585,2022-11-28_10h37.16.953,vts_reward_expectancy_bt_OFFLINE,2022.2.4,60.07718477533708,
0,0,1,0,1,0,0,0,hexagon,triangle,2,0,2,0,3,5,41,6,,,,,,,,,,,,,,,,,,,,,,,,,,,,,,,,,,,,,,,,867.673119150917,867.673119150917,867.673119150917,867.673119150917,867.673119150917,867.673119150917,867.673119150917,867.673119150917,867.673119150917,867.673119150917,a,0.5636438390938565,10,795,2,868.2571641709656,869.7587754519191,,,,,,,,,,,,,,,,,,,,,,,,,,,,,,,,,,,,,,,,,,,,,,,,,,,,,,,,,,,,,,,,,,,,,,,52585,2022-11-28_10h37.16.953,vts_reward_expectancy_bt_OFFLINE,2022.2.4,60.07718477533708,
0,0,1,0,0,1,0,0,hexagon,circle,2,0,2,0,3,6,42,7,,,,,,,,,,,,,,,,,,,,,,,,,,,,,,,,,,,,,,,,870.2593960359227,870.2593960359227,870.2593960359227,870.2593960359227,870.2593960359227,870.2593960359227,870.2593960359227,870.2593960359227,870.2593960359227,870.2593960359227,a,0.7791492970427498,1,796,2,871.0609574560076,872.5619574649027,,,,,,,,,,,,,,,,,,,,,,,,,,,,,,,,,,,,,,,,,,,,,,,,,,,,,,,,,,,,,,,,,,,,,,,52585,2022-11-28_10h37.16.953,vts_reward_expectancy_bt_OFFLINE,2022.2.4,60.07718477533708,
0,1,0,0,1,0,0,0,circle,triangle,2,0,2,0,3,7,43,3,,,,,,,,,,,,,,,,,,,,,,,,,,,,,,,,,,,,,,,,873.0624561388977,873.0624561388977,873.0624561388977,873.0624561388977,873.0624561388977,873.0624561388977,873.0624561388977,873.0624561388977,873.0624561388977,873.0624561388977,l,0.5304296570830047,1,797,2,873.6129536139779,875.1145263959188,,,,,,,,,,,,,,,,,,,,,,,,,,,,,,,,,,,,,,,,,,,,,,,,,,,,,,,,,,,,,,,,,,,,,,,52585,2022-11-28_10h37.16.953,vts_reward_expectancy_bt_OFFLINE,2022.2.4,60.07718477533708,
0,0,0,1,1,0,0,0,star,triangle,2,0,2,0,3,8,44,9,,,,,,,,,,,,,,,,,,,,,,,,,,,,,,,,,,,,,,,,875.6152428699424,875.6152428699424,875.6152428699424,875.6152428699424,875.6152428699424,875.6152428699424,875.6152428699424,875.6152428699424,875.6152428699424,875.6152428699424,a,0.47561272408347577,10,807,2,876.1166316019371,877.6177197619108,,,,,,,,,,,,,,,,,,,,,,,,,,,,,,,,,,,,,,,,,,,,,,,,,,,,,,,,,,,,,,,,,,,,,,,52585,2022-11-28_10h37.16.953,vts_reward_expectancy_bt_OFFLINE,2022.2.4,60.07718477533708,
1,0,0,0,0,0,1,0,triangle,hexagon,2,0,2,0,3,9,45,1,,,,,,,,,,,,,,,,,,,,,,,,,,,,,,,,,,,,,,,,878.1180992289446,878.1180992289446,878.1180992289446,878.1180992289446,878.1180992289446,878.1180992289446,878.1180992289446,878.1180992289446,878.1180992289446,878.1180992289446,l,0.741011845995672,10,817,2,878.8856803419767,880.3873326159082,880.3873326159082,,,,,,,,,,,,,,,,,,,,,,,,,,,,,,,,,,,,,,,,,,,,,,,,,,,,,,,,,,,,,,,,,,,,,,52585,2022-11-28_10h37.16.953,vts_reward_expectancy_bt_OFFLINE,2022.2.4,60.07718477533708,
1,0,0,0,0,1,0,0,triangle,circle,2,0,2,0,3,10,46,0,,,,,,,,,,,,,,,,,,,,,,,,,,,,,,,,,,,,,,,,880.8876702709822,880.8876702709822,880.8876702709822,880.8876702709822,880.8876702709822,880.8876702709822,880.8876702709822,880.8876702709822,880.8876702709822,880.8876702709822,a,0.5350412720581517,10,827,2,881.4551022509113,882.9566457159817,,,,,,,,,,,,,,,,,,,,,,,,,,,,,,,,,,,,,,,,,,,,,,,,,,,,,,,,,,,,,,,,,,,,,,,52585,2022-11-28_10h37.16.953,vts_reward_expectancy_bt_OFFLINE,2022.2.4,60.07718477533708,
1,0,0,0,0,0,0,1,triangle,star,2,0,2,0,3,11,47,2,,,,,,,,,,,,,,,,,,,,,,,,,,,,,,,,,,,,,,,,883.4571920669405,883.4571920669405,883.4571920669405,883.4571920669405,883.4571920669405,883.4571920669405,883.4571920669405,883.4571920669405,883.4571920669405,883.4571920669405,l,0.60912437713705,10,837,2,884.0913069209782,885.5928578099702,,,,,,,,,,,,,,,,,,,,,,,,,,,,,,,,,,,,,,,,,,,,,,,,,,,,,,,,,,,,,,,,,,,,,,,52585,2022-11-28_10h37.16.953,vts_reward_expectancy_bt_OFFLINE,2022.2.4,60.07718477533708,
,,,,,,,,,,,,,,,,,,0,0,0,0,0,0,0,0,,,,,,,,,,,,,,,,,,,,,,,,,,,,,,,,,,,,,,,,,,,,,,,,968.0674080499448,,,D,167,triangle,0.001969135017134249,962.3942925649462,963.8791666709585,963.8791666709585,963.8791666709585,1,0,d,2.6557327460031956,0,966.5668178839842,968.0674080499448,,,,,,,,,,,,,,,,,,,,,,,,,,,,,,,,,,,,,,,,,,,,,,,,,,,,,,52585,2022-11-28_10h37.16.953,vts_reward_expectancy_bt_OFFLINE,2022.2.4,60.07718477533708,
,,,,,,,,,,,,,,,,,,0,0,0,0,1,0,1,0,,,,,,,,,,,,,,,,,,,,,,,,,,,,,,,,,,,,,,,,,,,,,,,,973.3563251399901,,,W,146,circle,0.0012307700235396624,969.0525207399623,970.5532385489205,970.5532385489205,970.5532385489205,1,0,f,1.2699929880909622,0,971.8547690300038,973.3563251399901,,,,,,,,,,,,,,,,,,,,,,,,,,,,,,,,,,,,,,,,,,,,,,,,,,,,,,52585,2022-11-28_10h37.16.953,vts_reward_expectancy_bt_OFFLINE,2022.2.4,60.07718477533708,
,,,,,,,,,,,,,,,,,,0,0,0,0,2,0,2,0,,,,,,,,,,,,,,,,,,,,,,,,,,,,,,,,,,,,,,,,,,,,,,,,978.695613126969,,,U,181,star,0.0010857260785996914,974.3409443299752,975.8426305649336,975.8426305649336,975.8426305649336,1,0,f,1.325275327078998,0,977.1939617359312,978.695613126969,,,,,,,,,,,,,,,,,,,,,,,,,,,,,,,,,,,,,,,,,,,,,,,,,,,,,,52585,2022-11-28_10h37.16.953,vts_reward_expectancy_bt_OFFLINE,2022.2.4,60.07718477533708,
,,,,,,,,,,,,,,,,,,0,0,0,0,3,0,3,0,,,,,,,,,,,,,,,,,,,,,,,,,,,,,,,,,,,,,,,,,,,,,,,,983.6343438409967,,,H,132,hexagon,0.0009718700312077999,979.6808407269418,981.1816290889401,981.1816290889401,981.1816290889401,1,0,d,0.9252489469945431,0,982.1329152259277,,,,,,,,,,,,,,,,,,,,,,,,,,,,,,,,,,,,,,,,,,,,,,,,,,,,,,,52585,2022-11-28_10h37.16.953,vts_reward_expectancy_bt_OFFLINE,2022.2.4,60.07718477533708,
,,,,,,,,,,,,,,,,,,0,0,0,0,4,0,4,0,,,,,,,,,,,,,,,,,,,,,,,,,,,,,,,,,,,,,,,,,,,,,,,,989.17385224998,,,B,139,hexagon,0.0013280800776556134,984.6195356999524,986.1205230159685,986.1205230159685,986.1205230159685,1,0,d,1.5334288050653413,0,987.6723304439802,989.17385224998,,,,,,,,,,,,,,,,,,,,,,,,,,,,,,,,,,,,,,,,,,,,,,,,,,,,,,52585,2022-11-28_10h37.16.953,vts_reward_expectancy_bt_OFFLINE,2022.2.4,60.07718477533708,
,,,,,,,,,,,,,,,,,,0,0,0,0,5,0,5,0,,,,,,,,,,,,,,,,,,,,,,,,,,,,,,,,,,,,,,,,,,,,,,,,993.8290261689108,,,Y,125,triangle,0.0008306690724566579,990.1583561189473,991.6598022069084,991.6598022069084,991.6598022069084,1,0,f,0.6416368159698322,0,992.3272749210009,,,,,,,,,,,,,,,,,,,,,,,,,,,,,,,,,,,,,,,,,,,,,,,,,,,,,,,52585,2022-11-28_10h37.16.953,vts_reward_expectancy_bt_OFFLINE,2022.2.4,60.07718477533708,
,,,,,,,,,,,,,,,,,,0,0,0,0,6,0,6,0,,,,,,,,,,,,,,,,,,,,,,,,,,,,,,,,,,,,,,,,,,,,,,,,998.8679782059044,,,S,160,circle,0.000962723046541214,994.8135400098981,996.3150771849323,996.3150771849323,996.3150771849323,1,0,f,1.024725524126552,0,997.3662993209437,,,,,,,,,,,,,,,,,,,,,,,,,,,,,,,,,,,,,,,,,,,,,,,,,,,,,,,52585,2022-11-28_10h37.16.953,vts_reward_expectancy_bt_OFFLINE,2022.2.4,60.07718477533708,
,,,,,,,,,,,,,,,,,,0,0,0,0,7,0,7,0,,,,,,,,,,,,,,,,,,,,,,,,,,,,,,,,,,,,,,,,,,,,,,,,1003.9736487269402,,,F,174,star,0.0013860630569979548,999.8524561799131,1001.3539667539299,1001.3539667539299,1001.3539667539299,1,0,d,1.0852784670423716,0,1002.4719899609918,,,,,,,,,,,,,,,,,,,,,,,,,,,,,,,,,,,,,,,,,,,,,,,,,,,,,,,52585,2022-11-28_10h37.16.953,vts_reward_expectancy_bt_OFFLINE,2022.2.4,60.07718477533708,
,,,,,,,,,,,,,,,,,,0,0,0,0,8,0,8,0,,,,,,,,,,,,,,,,,,,,,,,,,,,,,,,,,,,,,,,,,,,,,,,,1008.8288695389638,,,D,167,hexagon,0.0011725550284609199,1004.958031034912,1006.4597392039141,1006.4597392039141,1006.4597392039141,1,0,d,0.8378451430471614,0,1007.3273897819454,,,,,,,,,,,,,,,,,,,,,,,,,,,,,,,,,,,,,,,,,,,,,,,,,,,,,,,52585,2022-11-28_10h37.16.953,vts_reward_expectancy_bt_OFFLINE,2022.2.4,60.07718477533708,
,,,,,,,,,,,,,,,,,,0,0,0,0,9,0,9,0,,,,,,,,,,,,,,,,,,,,,,,,,,,,,,,,,,,,,,,,,,,,,,,,1013.5672806589864,,,W,146,circle,0.001279231975786388,1009.8133193319663,1011.3148248569341,1011.3148248569341,1011.3148248569341,1,0,f,0.7305111100431532,0,1012.0657685399055,,,,,,,,,,,,,,,,,,,,,,,,,,,,,,,,,,,,,,,,,,,,,,,,,,,,,,,52585,2022-11-28_10h37.16.953,vts_reward_expectancy_bt_OFFLINE,2022.2.4,60.07718477533708,
,,,,,,,,,,,,,,,,,,,,,,,,,,0,0,0,0,0,0,0,0,,,,,,,,,,,,,,,,,,,,,,,,,,,,,,,,,,,,,,,,1045.5196268419968,,,F,146,circle,0.0015046109911054373,,,,,1,0,,,1,1044.017858714913,1045.5196268419968,1040.2468424799154,1041.74845928594,1041.74845928594,1041.74845928594,j,2.2488675881177187,,,,,,,,,,,,,,,,,,,,,,,,,,,,,,,,,,,,,,,,,,,,,,,,52585,2022-11-28_10h37.16.953,vts_reward_expectancy_bt_OFFLINE,2022.2.4,60.07718477533708,
,,,,,,,,,,,,,,,,,,,,,,,,,,0,0,0,0,1,0,1,0,,,,,,,,,,,,,,,,,,,,,,,,,,,,,,,,,,,,,,,,1050.841908294009,,,U,125,hexagon,0.0008429070003330708,,,,,1,0,,,1,1049.3402115659555,,1046.5036300969077,1048.0054285709048,1048.0054285709048,1048.0054285709048,j,1.3026534010423347,,,,,,,,,,,,,,,,,,,,,,,,,,,,,,,,,,,,,,,,,,,,,,,,52585,2022-11-28_10h37.16.953,vts_reward_expectancy_bt_OFFLINE,2022.2.4,60.07718477533708,
,,,,,,,,,,,,,,,,,,,,,,,,,,0,0,0,0,2,0,2,0,,,,,,,,,,,,,,,,,,,,,,,,,,,,,,,,,,,,,,,,1056.2146106149303,,,S,160,triangle,0.0013900339836254716,,,,,1,0,,,1,1054.712878519902,,1051.826398849953,1053.328047315008,1053.328047315008,1053.328047315008,k,1.3588686541188508,,,,,,,,,,,,,,,,,,,,,,,,,,,,,,,,,,,,,,,,,,,,,,,,52585,2022-11-28_10h37.16.953,vts_reward_expectancy_bt_OFFLINE,2022.2.4,60.07718477533708,
,,,,,,,,,,,,,,,,,,,,,,,,,,0,0,0,0,3,0,3,0,,,,,,,,,,,,,,,,,,,,,,,,,,,,,,,,,,,,,,,,1060.8695691099856,,,H,132,star,0.0012674289755523205,,,,,1,0,,,1,1059.3679802649422,1060.8695691099856,1057.1991041019792,1058.7005631059874,1058.7005631059874,1058.7005631059874,j,0.642210197984241,,,,,,,,,,,,,,,,,,,,,,,,,,,,,,,,,,,,,,,,,,,,,,,,52585,2022-11-28_10h37.16.953,vts_reward_expectancy_bt_OFFLINE,2022.2.4,60.07718477533708,
,,,,,,,,,,,,,,,,,,,,,,,,,,0,0,0,0,4,0,4,0,,,,,,,,,,,,,,,,,,,,,,,,,,,,,,,,,,,,,,,,1066.208752225968,,,D,139,circle,0.0008786600083112717,,,,,1,0,,,1,1064.7072234759107,1066.208752225968,1061.8540064159315,1063.3555728349602,1063.3555728349602,1063.3555728349602,j,1.3326712920097634,,,,,,,,,,,,,,,,,,,,,,,,,,,,,,,,,,,,,,,,,,,,,,,,52585,2022-11-28_10h37.16.953,vts_reward_expectancy_bt_OFFLINE,2022.2.4,60.07718477533708,
,,,,,,,,,,,,,,,,,,,,,,,,,,0,0,0,0,5,0,5,0,,,,,,,,,,,,,,,,,,,,,,,,,,,,,,,,,,,,,,,,1070.7805744669167,,,W,181,hexagon,0.0012929149670526385,,,,,1,0,,,1,1069.2788006518967,1070.7805744669167,1067.193322335952,1068.6948941299925,1068.6948941299925,1068.6948941299925,k,0.5598074961453676,,,,,,,,,,,,,,,,,,,,,,,,,,,,,,,,,,,,,,,,,,,,,,,,52585,2022-11-28_10h37.16.953,vts_reward_expectancy_bt_OFFLINE,2022.2.4,60.07718477533708,
,,,,,,,,,,,,,,,,,,,,,,,,,,0,0,0,0,6,0,6,0,,,,,,,,,,,,,,,,,,,,,,,,,,,,,,,,,,,,,,,,1076.6536203209544,,,B,167,triangle,0.0010656419908627868,,,,,1,0,,,1,1075.15196775191,,1071.7649123759475,1073.2664350089617,1073.2664350089617,1073.2664350089617,k,1.8612858790438622,,,,,,,,,,,,,,,,,,,,,,,,,,,,,,,,,,,,,,,,,,,,,,,,52585,2022-11-28_10h37.16.953,vts_reward_expectancy_bt_OFFLINE,2022.2.4,60.07718477533708,
,,,,,,,,,,,,,,,,,,,,,,,,,,0,0,0,0,7,0,7,0,,,,,,,,,,,,,,,,,,,,,,,,,,,,,,,,,,,,,,,,1081.659200345981,,,Y,174,star,0.0012537779984995723,,,,,1,0,,,1,1080.1574573059333,1081.659200345981,1077.6381232859567,1079.1395987959113,1079.1395987959113,1079.1395987959113,k,0.9856721970718354,,,,,,,,,,,,,,,,,,,,,,,,,,,,,,,,,,,,,,,,,,,,,,,,52585,2022-11-28_10h37.16.953,vts_reward_expectancy_bt_OFFLINE,2022.2.4,60.07718477533708,
,,,,,,,,,,,,,,,,,,,,,,,,,,0,0,0,0,8,0,8,0,,,,,,,,,,,,,,,,,,,,,,,,,,,,,,,,,,,,,,,,1087.2821639269823,,,F,146,hexagon,0.0011389610590413213,,,,,1,0,,,1,1085.7802817849442,,1082.6437333249487,1084.1453126809793,1084.1453126809793,1084.1453126809793,j,1.6037698390427977,,,,,,,,,,,,,,,,,,,,,,,,,,,,,,,,,,,,,,,,,,,,,,,,52585,2022-11-28_10h37.16.953,vts_reward_expectancy_bt_OFFLINE,2022.2.4,60.07718477533708,
,,,,,,,,,,,,,,,,,,,,,,,,,,0,0,0,0,9,0,9,0,,,,,,,,,,,,,,,,,,,,,,,,,,,,,,,,,,,,,,,,1092.8717442539055,,,U,125,triangle,0.001329979975707829,,,,,1,0,,,1,1091.3699761189055,1092.8717442539055,1088.266607148922,1089.7684487059014,1089.7684487059014,1089.7684487059014,j,1.5849966451060027,,,,,,,,,,,,,,,,,,,,,,,,,,,,,,,,,,,,,,,,,,,,,,,,52585,2022-11-28_10h37.16.953,vts_reward_expectancy_bt_OFFLINE,2022.2.4,60.07718477533708,
,,,,,,,,,,,,,,,,,,,,,,,,,,,,,,,,,,0,0,0,0,0,0,0,0,,,,,,,,,,,,,,,,,,,,,,,,,,,,0,837,,,1133.5998681539204,,,D,132,triangle,0.0020444380352273583,,,,,-1,0,,,2,,,,,,,,,1127.5934429509798,1127.5934429509798,1127.5934429509798,1127.5934429509798,1129.0783283959609,1129.0783283959609,1129.0783283959609,1129.0783283959609,1129.094913831912,1129.094913831912,1129.094913831912,1129.094913831912,1132.098304719897,1132.098304719897,1132.098304719897,1132.098304719897,-1,no_choice,NA,None,vtsPrac,1132.098304719897,,,,,,,,,,,,,,,,,,,,,,,,,,52585,2022-11-28_10h37.16.953,vts_reward_expectancy_bt_OFFLINE,2022.2.4,60.07718477533708,
,,,,,,,,,,,,,,,,,,,,,,,,,,,,,,,,,,0,0,0,0,1,0,1,0,,,,,,,,,,,,,,,,,,,,,,,,,,,,0,837,,,1138.3719098389847,,,S,174,circle,0.009488897048868239,,,,,1,0,,,2,,,,,,,,,1134.6678202699404,1134.6678202699404,1134.6678202699404,1134.6678202699404,1136.0858929759124,1136.0858929759124,1136.0858929759124,1136.0858929759124,1136.1694339589449,1136.1694339589449,1136.1694339589449,1136.1694339589449,,,,,switch,letter,lettSwt,f,vtsPrac,1136.8700731249992,0.7412393339909613,,,,,,,,,,,,,,,,,,,,,,,,,52585,2022-11-28_10h37.16.953,vts_reward_expectancy_bt_OFFLINE,2022.2.4,60.07718477533708,
,,,,,,,,,,,,,,,,,,,,,,,,,,,,,,,,,,0,0,0,0,2,0,2,0,,,,,,,,,,,,,,,,,,,,,,,,,,,,0,837,,,1143.043710050988,,,U,139,circle,0.000847924966365099,,,,,1,0,,,2,,,,,,,,,1139.3401032759575,1139.3401032759575,1139.3401032759575,1139.3401032759575,1140.8411367959343,1140.8411367959343,1140.8411367959343,1140.8411367959343,1140.8411367959343,1140.8411367959343,1140.8411367959343,1140.8411367959343,,,,,repeat,letter,lettRpt,f,vtsPrac,1141.5419119199505,0.6777013600803912,1143.043710050988,,,,,,,,,,,,,,,,,,,,,,,,52585,2022-11-28_10h37.16.953,vts_reward_expectancy_bt_OFFLINE,2022.2.4,60.07718477533708,
,,,,,,,,,,,,,,,,,,,,,,,,,,,,,,,,,,0,0,0,0,3,0,3,0,,,,,,,,,,,,,,,,,,,,,,,,,,,,0,837,,,1147.882354475907,,,H,146,hexagon,0.0009584249928593636,,,,,1,0,,,2,,,,,,,,,1144.0280070248991,1144.0280070248991,1144.0280070248991,1144.0280070248991,1145.5297152649146,1145.5297152649146,1145.5297152649146,1145.5297152649146,1145.5297152649146,1145.5297152649146,1145.5297152649146,1145.5297152649146,,,,,switch,number,numSwt,j,vtsPrac,1146.3806223359425,0.8271998451091349,,,,,,,,,,,,,,,,,,,,,,,,,52585,2022-11-28_10h37.16.953,vts_reward_expectancy_bt_OFFLINE,2022.2.4,60.07718477533708,
,,,,,,,,,,,,,,,,,,,,,,,,,,,,,,,,,,0,0,0,0,4,0,4,0,,,,,,,,,,,,,,,,,,,,,,,,,,,,0,837,,,1152.5375388968969,,,D,132,star,0.0011218689614906907,,,,,1,0,,,2,,,,,,,,,1148.8668013300048,1148.8668013300048,1148.8668013300048,1148.8668013300048,1150.3683273599017,1150.3683273599017,1150.3683273599017,1150.3683273599017,1150.3683273599017,1150.3683273599017,1150.3683273599017,1150.3683273599017,,,,,repeat,number,numRpt,j,vtsPrac,1151.0358123339247,0.647021753131412,1152.5375388968969,,,,,,,,,,,,,,,,,,,,,,,,52585,2022-11-28_10h37.16.953,vts_reward_expectancy_bt_OFFLINE,2022.2.4,60.07718477533708,
,,,,,,,,,,,,,,,,,,,,,,,,,,,,,,,,,,0,0,0,0,5,0,5,0,,,,,,,,,,,,,,,,,,,,,,,,,,,,0,837,,,1157.009061703924,,,S,174,triangle,0.000915791024453938,,,,,1,0,,,2,,,,,,,,,1153.5218661669642,1153.5218661669642,1153.5218661669642,1153.5218661669642,1155.0236744289286,1155.0236744289286,1155.0236744289286,1155.0236744289286,1155.0236744289286,1155.0236744289286,1155.0236744289286,1155.0236744289286,,,,,switch,letter,lettSwt,f,vtsPrac,1155.5076273599407,0.4581832451513037,,,,,,,,,,,,,,,,,,,,,,,,,52585,2022-11-28_10h37.16.953,vts_reward_expectancy_bt_OFFLINE,2022.2.4,60.07718477533708,
,,,,,,,,,,,,,,,,,,,,,,,,,,,,,,,,,,0,0,0,0,6,0,6,0,,,,,,,,,,,,,,,,,,,,,,,,,,,,0,837,,,1161.6642543339403,,,U,139,star,0.001156507059931755,,,,,1,0,,,2,,,,,,,,,1157.9933355539106,1157.9933355539106,1157.9933355539106,1157.9933355539106,1159.4949668659829,1159.4949668659829,1159.4949668659829,1159.4949668659829,1159.4949668659829,1159.4949668659829,1159.4949668659829,1159.4949668659829,,,,,switch,number,numSwt,j,vtsPrac,1160.1625714919064,0.6353765691164881,1161.6642543339403,,,,,,,,,,,,,,,,,,,,,,,,52585,2022-11-28_10h37.16.953,vts_reward_expectancy_bt_OFFLINE,2022.2.4,60.07718477533708,
,,,,,,,,,,,,,,,,,,,,,,,,,,,,,,,,,,0,0,0,0,7,0,7,0,,,,,,,,,,,,,,,,,,,,,,,,,,,,0,837,,,1166.4527257320005,,,H,146,triangle,0.0013151350431144238,,,,,1,0,,,2,,,,,,,,,1162.64857238892,1162.64857238892,1162.64857238892,1162.64857238892,1164.1501369789476,1164.1501369789476,1164.1501369789476,1164.1501369789476,1164.1501369789476,1164.1501369789476,1164.1501369789476,1164.1501369789476,,,,,switch,letter,lettSwt,d,vtsPrac,1164.9512341599911,0.7833268659887835,1166.4527257320005,,,,,,,,,,,,,,,,,,,,,,,,52585,2022-11-28_10h37.16.953,vts_reward_expectancy_bt_OFFLINE,2022.2.4,60.07718477533708,
,,,,,,,,,,,,,,,,,,,,,,,,,,,,,,,,,,0,0,0,0,8,0,8,0,,,,,,,,,,,,,,,,,,,,,,,,,,,,0,837,,,1171.391717538936,,,B,125,hexagon,0.0010851109400391579,,,,,1,0,,,2,,,,,,,,,1167.4374829889275,1167.4374829889275,1167.4374829889275,1167.4374829889275,1168.939050082001,1168.939050082001,1168.939050082001,1168.939050082001,1168.939050082001,1168.939050082001,1168.939050082001,1168.939050082001,,,,,switch,number,numSwt,j,vtsPrac,1169.890059125959,0.9209150130627677,1171.391717538936,,,,,,,,,,,,,,,,,,,,,,,,52585,2022-11-28_10h37.16.953,vts_reward_expectancy_bt_OFFLINE,2022.2.4,60.07718477533708,
,,,,,,,,,,,,,,,,,,,,,,,,,,,,,,,,,,0,0,0,0,9,0,9,0,,,,,,,,,,,,,,,,,,,,,,,,,,,,0,837,,,1176.1635110119823,,,F,181,triangle,0.001203371910378337,,,,,1,0,,,2,,,,,,,,,1172.3762651019497,1172.3762651019497,1172.3762651019497,1172.3762651019497,1173.8778627059655,1173.8778627059655,1173.8778627059655,1173.8778627059655,1173.8778627059655,1173.8778627059655,1173.8778627059655,1173.8778627059655,,,,,switch,letter,lettSwt,d,vtsPrac,1174.6618216308998,0.7647229301510379,,,,,,,,,,,,,,,,,,,,,,,,,52585,2022-11-28_10h37.16.953,vts_reward_expectancy_bt_OFFLINE,2022.2.4,60.07718477533708,
,,,,,,,,,,,,,,,,,,,,,,,,,,,,,,,,,,0,0,0,0,10,0,10,0,,,,,,,,,,,,,,,,,,,,,,,,,,,,0,837,,,1181.3526927659987,,,D,160,hexagon,0.0012713830219581723,,,,,1,0,,,2,,,,,,,,,1177.1479444319848,1177.1479444319848,1177.1479444319848,1177.1479444319848,1178.649521280895,1178.649521280895,1178.649521280895,1178.649521280895,1178.649521280895,1178.649521280895,1178.649521280895,1178.649521280895,,,,,switch,number,numSwt,k,vtsPrac,1179.8511045399355,1.178473283071071,1181.3526927659987,,,,,,,,,,,,,,,,,,,,,,,,52585,2022-11-28_10h37.16.953,vts_reward_expectancy_bt_OFFLINE,2022.2.4,60.07718477533708,
,,,,,,,,,,,,,,,,,,,,,,,,,,,,,,,,,,0,0,0,0,11,0,11,0,,,,,,,,,,,,,,,,,,,,,,,,,,,,0,837,,,1185.8409995560069,,,S,146,circle,0.0008388700662180781,,,,,1,0,,,2,,,,,,,,,1182.3369871849427,1182.3369871849427,1182.3369871849427,1182.3369871849427,1183.838580529904,1183.838580529904,1183.838580529904,1183.838580529904,1183.838580529904,1183.838580529904,1183.838580529904,1183.838580529904,,,,,switch,letter,lettSwt,f,vtsPrac,1184.339351030998,0.4684966419590637,1185.8409995560069,,,,,,,,,,,,,,,,,,,,,,,,52585,2022-11-28_10h37.16.953,vts_reward_expectancy_bt_OFFLINE,2022.2.4,60.07718477533708,
,,,,,,,,,,,,,,,,,,,,,,,,,,,,,,,,,,0,0,0,0,12,0,12,0,,,,,,,,,,,,,,,,,,,,,,,,,,,,0,837,,,1190.4293731409125,,,Y,174,triangle,0.0008737179450690746,,,,,1,0,,,2,,,,,,,,,1186.8254294299986,1186.8254294299986,1186.8254294299986,1186.8254294299986,1188.3269474789267,1188.3269474789267,1188.3269474789267,1188.3269474789267,1188.3269474789267,1188.3269474789267,1188.3269474789267,1188.3269474789267,,,,,switch,number,numSwt,k,vtsPrac,1188.9277605939424,0.5694703100016341,,,,,,,,,,,,,,,,,,,,,,,,,52585,2022-11-28_10h37.16.953,vts_reward_expectancy_bt_OFFLINE,2022.2.4,60.07718477533708,
,,,,,,,,,,,,,,,,,,,,,,,,,,,,,,,,,,0,0,0,0,13,0,13,0,,,,,,,,,,,,,,,,,,,,,,,,,,,,0,837,,,1195.1012311849045,,,F,160,star,0.0012383869616314769,,,,,1,0,,,2,,,,,,,,,1191.413646451896,1191.413646451896,1191.413646451896,1191.413646451896,1192.9153883449035,1192.9153883449035,1192.9153883449035,1192.9153883449035,1192.9153883449035,1192.9153883449035,1192.9153883449035,1192.9153883449035,,,,,repeat,number,numRpt,k,vtsPrac,1193.599498764961,0.6607365801464766,,,,,,,,,,,,,,,,,,,,,,,,,52585,2022-11-28_10h37.16.953,vts_reward_expectancy_bt_OFFLINE,2022.2.4,60.07718477533708,
,,,,,,,,,,,,,,,,,,,,,,,,,,,,,,,,,,0,0,0,0,14,0,14,0,,,,,,,,,,,,,,,,,,,,,,,,,,,,0,837,,,1199.8229463549796,,,U,125,star,0.0011364719830453396,,,,,1,0,,,2,,,,,,,,,1196.0855123769725,1196.0855123769725,1196.0855123769725,1196.0855123769725,1197.5871274449164,1197.5871274449164,1197.5871274449164,1197.5871274449164,1197.5871274449164,1197.5871274449164,1197.5871274449164,1197.5871274449164,,,,,switch,letter,lettSwt,f,vtsPrac,1198.321356393979,0.7159831220051274,,,,,,,,,,,,,,,,,,,,,,,,,52585,2022-11-28_10h37.16.953,vts_reward_expectancy_bt_OFFLINE,2022.2.4,60.07718477533708,
,,,,,,,,,,,,,,,,,,,,,,,,,,,,,,,,,,0,0,0,0,15,0,15,0,,,,,,,,,,,,,,,,,,,,,,,,,,,,0,837,,,1204.4615834439173,,,D,132,triangle,0.0010285750031471252,,,,,1,0,,,2,,,,,,,,,1200.807309834985,1200.807309834985,1200.807309834985,1200.807309834985,1202.309272635961,1202.309272635961,1202.309272635961,1202.309272635961,1202.309272635961,1202.309272635961,1202.309272635961,1202.309272635961,,,,,repeat,letter,lettRpt,d,vtsPrac,1202.9597375890007,0.6283004040597007,,,,,,,,,,,,,,,,,,,,,,,,,52585,2022-11-28_10h37.16.953,vts_reward_expectancy_bt_OFFLINE,2022.2.4,60.07718477533708,
,,,,,,,,,,,,,,,,,,,,,,,,,,,,,,,,,,0,0,0,0,16,0,16,0,,,,,,,,,,,,,,,,,,,,,,,,,,,,0,837,,,1209.1000373209827,,,F,146,triangle,0.0012964499182999134,,,,,1,0,,,2,,,,,,,,,1205.4458186139818,1205.4458186139818,1205.4458186139818,1205.4458186139818,1206.9475170959486,1206.9475170959486,1206.9475170959486,1206.9475170959486,1206.9475170959486,1206.9475170959486,1206.9475170959486,1206.9475170959486,,,,,repeat,letter,lettRpt,d,vtsPrac,1207.598150020931,0.6254460600903258,1209.1000373209827,,,,,,,,,,,,,,,,,,,,,,,,52585,2022-11-28_10h37.16.953,vts_reward_expectancy_bt_OFFLINE,2022.2.4,60.07718477533708,
,,,,,,,,,,,,,,,,,,,,,,,,,,,,,,,,,,0,0,0,0,17,0,17,0,,,,,,,,,,,,,,,,,,,,,,,,,,,,0,837,,,1214.1722899489105,,,W,139,hexagon,0.000991859007626772,,,,,0,0,,,2,,,,,,,,,1210.0841915819328,1210.0841915819328,1210.0841915819328,1210.0841915819328,1211.586011208943,1211.586011208943,1211.586011208943,1211.586011208943,1211.586011208943,1211.586011208943,1211.586011208943,1211.586011208943,,,,,switch,number,NA,k,vtsPrac,1212.6707380919252,1.0517077080439776,,,,,,,,,,,,,,,,,,,,,,,,,52585,2022-11-28_10h37.16.953,vts_reward_expectancy_bt_OFFLINE,2022.2.4,60.07718477533708,
,,,,,,,,,,,,,,,,,,,,,,,,,,,,,,,,,,0,0,0,0,18,0,18,0,,,,,,,,,,,,,,,,,,,,,,,,,,,,0,837,,,1218.7105682659894,,,B,125,circle,0.001148871029727161,,,,,1,1,,,2,,,,,,,,,1215.156510264962,1215.156510264962,1215.156510264962,1215.156510264962,1216.6582871949067,1216.6582871949067,1216.6582871949067,1216.6582871949067,1216.6582871949067,1216.6582871949067,1216.6582871949067,1216.6582871949067,,,,,switch,letter,lettSwt,d,vtsPrac,1217.2088321049232,0.5118740970501676,,,,,,,,,,,,,,,,,,,,,,,,,52585,2022-11-28_10h37.16.953,vts_reward_expectancy_bt_OFFLINE,2022.2.4,60.07718477533708,
,,,,,,,,,,,,,,,,,,,,,,,,,,,,,,,,,,0,0,0,0,19,0,19,0,,,,,,,,,,,,,,,,,,,,,,,,,,,,0,837,,,1223.4990977809066,,,S,174,star,0.0011746450327336788,,,,,1,0,,,2,,,,,,,,,1219.6780986189842,1219.6780986189842,1219.6780986189842,1219.6780986189842,1221.1799478309695,1221.1799478309695,1221.1799478309695,1221.1799478309695,1221.1799478309695,1221.1799478309695,1221.1799478309695,1221.1799478309695,,,,,repeat,letter,lettRpt,f,vtsPrac,1221.9974235099507,0.7933657361427322,,,,,,,,,,,,,,,,,,,,,,,,,52585,2022-11-28_10h37.16.953,vts_reward_expectancy_bt_OFFLINE,2022.2.4,60.07718477533708,
,,,,,,,,,,,,,,,,,,,,,,,,,,,,,,,,,,0,0,0,0,20,0,20,0,,,,,,,,,,,,,,,,,,,,,,,,,,,,0,837,,,1228.2543217519997,,,B,181,star,0.001311104977503419,,,,,0,0,,,2,,,,,,,,,1224.4836302920012,1224.4836302920012,1224.4836302920012,1224.4836302920012,1225.985243125935,1225.985243125935,1225.985243125935,1225.985243125935,1225.985243125935,1225.985243125935,1225.985243125935,1225.985243125935,,,,,switch,number,NA,j,vtsPrac,1226.7527945609763,0.7364696910372004,,,,,,,,,,,,,,,,,,,,,,,,,52585,2022-11-28_10h37.16.953,vts_reward_expectancy_bt_OFFLINE,2022.2.4,60.07718477533708,
,,,,,,,,,,,,,,,,,,,,,,,,,,,,,,,,,,0,0,0,0,21,0,21,0,,,,,,,,,,,,,,,,,,,,,,,,,,,,0,837,,,1233.9773343409179,,,S,160,circle,0.0009547659428790212,,,,,1,1,,,2,,,,,,,,,1229.2389334009495,1229.2389334009495,1229.2389334009495,1229.2389334009495,1230.7403527109418,1230.7403527109418,1230.7403527109418,1230.7403527109418,1230.7403527109418,1230.7403527109418,1230.7403527109418,1230.7403527109418,,,,,switch,letter,lettSwt,f,vtsPrac,1232.4924016959267,1.7089971720706671,,,,,,,,,,,,,,,,,,,,,,,,,52585,2022-11-28_10h37.16.953,vts_reward_expectancy_bt_OFFLINE,2022.2.4,60.07718477533708,
,,,,,,,,,,,,,,,,,,,,,,,,,,,,,,,,,,0,0,0,0,22,0,22,0,,,,,,,,,,,,,,,,,,,,,,,,,,,,0,837,,,1238.4989265599288,,,H,132,triangle,0.0010356599232181907,,,,,1,0,,,2,,,,,,,,,1234.9616447889712,1234.9616447889712,1234.9616447889712,1234.9616447889712,1236.4632106069475,1236.4632106069475,1236.4632106069475,1236.4632106069475,1236.4632106069475,1236.4632106069475,1236.4632106069475,1236.4632106069475,,,,,repeat,letter,lettRpt,d,vtsPrac,1236.9973000519676,0.5081968730082735,,,,,,,,,,,,,,,,,,,,,,,,,52585,2022-11-28_10h37.16.953,vts_reward_expectancy_bt_OFFLINE,2022.2.4,60.07718477533708,
,,,,,,,,,,,,,,,,,,,,,,,,,,,,,,,,,,0,0,0,0,23,0,23,0,,,,,,,,,,,,,,,,,,,,,,,,,,,,0,837,,,1243.1539724959293,,,D,167,star,0.001235912088304758,,,,,1,0,,,2,,,,,,,,,1239.4833200339926,1239.4833200339926,1239.4833200339926,1239.4833200339926,1240.984935699962,1240.984935699962,1240.984935699962,1240.984935699962,1240.984935699962,1240.984935699962,1240.984935699962,1240.984935699962,,,,,repeat,letter,lettRpt,d,vtsPrac,1241.6524878249038,0.6348488259827718,,,,,,,,,,,,,,,,,,,,,,,,,52585,2022-11-28_10h37.16.953,vts_reward_expectancy_bt_OFFLINE,2022.2.4,60.07718477533708,
,,,,,,,,,,,,,,,,,,,,,,,,,,,,,,,,,,0,0,0,0,24,0,24,0,,,,,,,,,,,,,,,,,,,,,,,,,,,,0,837,,,1247.859182190965,,,F,174,triangle,0.0012592930579558015,,,,,1,0,,,2,,,,,,,,,1244.1384281408973,1244.1384281408973,1244.1384281408973,1244.1384281408973,1245.6400315449573,1245.6400315449573,1245.6400315449573,1245.6400315449573,1245.6400315449573,1245.6400315449573,1245.6400315449573,1245.6400315449573,,,,,repeat,letter,lettRpt,d,vtsPrac,1246.357589235995,0.6917684650979936,1247.859182190965,,,,,,,,,,,,,,,,,,,,,,,,52585,2022-11-28_10h37.16.953,vts_reward_expectancy_bt_OFFLINE,2022.2.4,60.07718477533708,
,,,,,,,,,,,,,,,,,,,,,,,,,,,,,,,,,,0,0,0,0,25,0,25,0,,,,,,,,,,,,,,,,,,,,,,,,,,,,0,837,,,1252.81462800398,,,Y,160,star,0.001339104026556015,,,,,1,0,,,2,,,,,,,,,1248.8435381419258,1248.8435381419258,1248.8435381419258,1248.8435381419258,1250.345418594894,1250.345418594894,1250.345418594894,1250.345418594894,1250.345418594894,1250.345418594894,1250.345418594894,1250.345418594894,,,,,switch,number,numSwt,k,vtsPrac,1251.313079945976,0.9488669000566006,,,,,,,,,,,,,,,,,,,,,,,,,52585,2022-11-28_10h37.16.953,vts_reward_expectancy_bt_OFFLINE,2022.2.4,60.07718477533708,
,,,,,,,,,,,,,,,,,,,,,,,,,,,,,,,,,,0,0,0,0,26,0,26,0,,,,,,,,,,,,,,,,,,,,,,,,,,,,0,837,,,1257.5865399339236,,,U,167,circle,0.00117856590077281,,,,,1,0,,,2,,,,,,,,,1253.7990130919497,1253.7990130919497,1253.7990130919497,1253.7990130919497,1255.3008737309137,1255.3008737309137,1255.3008737309137,1255.3008737309137,1255.3008737309137,1255.3008737309137,1255.3008737309137,1255.3008737309137,,,,,repeat,number,numRpt,k,vtsPrac,1256.084853721899,0.7518181579653174,,,,,,,,,,,,,,,,,,,,,,,,,52585,2022-11-28_10h37.16.953,vts_reward_expectancy_bt_OFFLINE,2022.2.4,60.07718477533708,
,,,,,,,,,,,,,,,,,,,,,,,,,,,,,,,,,,0,0,0,0,27,0,27,0,,,,,,,,,,,,,,,,,,,,,,,,,,,,0,837,,,1262.5255389189115,,,S,125,star,0.0011766389943659306,,,,,1,0,,,2,,,,,,,,,1258.5710469749756,1258.5710469749756,1258.5710469749756,1258.5710469749756,1260.0726499209413,1260.0726499209413,1260.0726499209413,1260.0726499209413,1260.0726499209413,1260.0726499209413,1260.0726499209413,1260.0726499209413,,,,,repeat,number,numRpt,j,vtsPrac,1261.0238533309894,0.9188340530963615,,,,,,,,,,,,,,,,,,,,,,,,,52585,2022-11-28_10h37.16.953,vts_reward_expectancy_bt_OFFLINE,2022.2.4,60.07718477533708,
,,,,,,,,,,,,,,,,,,,,,,,,,,,,,,,,,,0,0,0,0,28,0,28,0,,,,,,,,,,,,,,,,,,,,,,,,,,,,0,837,,,1267.2306375799235,,,W,125,circle,0.0012665350222960114,,,,,1,0,,,2,,,,,,,,,1263.509908864973,1263.509908864973,1263.509908864973,1263.509908864973,1265.011576815974,1265.011576815974,1265.011576815974,1265.011576815974,1265.011576815974,1265.011576815974,1265.011576815974,1265.011576815974,,,,,repeat,number,numRpt,j,vtsPrac,1265.7289850169327,0.6941876420751214,1267.2306375799235,,,,,,,,,,,,,,,,,,,,,,,,52585,2022-11-28_10h37.16.953,vts_reward_expectancy_bt_OFFLINE,2022.2.4,60.07718477533708,
