LTriangleOpac,LCircleOpac,LHexagonOpac,LStarOpac,RTriangleOpac,RCircleOpac,RHexagonOpac,RStarOpac,LShape_ID,RShape_ID,training_blocks.thisRepN,training_blocks.thisTrialN,training_blocks.thisN,training_blocks.thisIndex,training.thisRepN,training.thisTrialN,training.thisN,training.thisIndex,task1_prac_redo.thisRepN,task1_prac_redo.thisTrialN,task1_prac_redo.thisN,task1_prac_redo.thisIndex,task1_prac_trials.thisRepN,task1_prac_trials.thisTrialN,task1_prac_trials.thisN,task1_prac_trials.thisIndex,task2_prac_redo.thisRepN,task2_prac_redo.thisTrialN,task2_prac_redo.thisN,task2_prac_redo.thisIndex,task2_praac_trials.thisRepN,task2_praac_trials.thisTrialN,task2_praac_trials.thisN,task2_praac_trials.thisIndex,vts_prac_redo.thisRepN,vts_prac_redo.thisTrialN,vts_prac_redo.thisN,vts_prac_redo.thisIndex,vts_practice_trials.thisRepN,vts_practice_trials.thisTrialN,vts_practice_trials.thisN,vts_practice_trials.thisIndex,trials_norew.thisRepN,trials_norew.thisTrialN,trials_norew.thisN,trials_norew.thisIndex,block.thisRepN,block.thisTrialN,block.thisN,block.thisIndex,trials_rew.thisRepN,trials_rew.thisTrialN,trials_rew.thisN,trials_rew.thisIndex,key_resp.started,key_resp.keys,key_resp.rt,left_circle.started,right_circle.started,left_triangle.started,right_triangle.started,left_star.started,right_star.started,left_hexagon.started,right_hexagon.started,training_fix.started,training_resp.started,training_resp.keys,training_resp.rt,points_trial,points_cumul,trainBlock,training_feedback_txt.started,training_feedback_txt.stopped,fix.started,fix.stopped,curr_topStim,curr_bottStim,curr_shape,ISI.started,tgt_fix_prac1.started,top_target_prac1.started,bott_target_prac1.started,target_resp_prac1.started,acc,E1,target_resp_prac1.keys,target_resp_prac1.rt,pracBlock,prac_fback_text.started,prac_fback_text.stopped,tgt_fix_prac2.started,top_target_prac2.started,bott_target_prac2.started,target_resp_prac2.started,target_resp_prac2.keys,target_resp_prac2.rt,top_target_prac2.stopped,tgt_fix_prac2.stopped,bott_target_prac2.stopped,target_resp_prac2.stopped,star.started,hegagon.started,triangle.started,circle.started,top_target.started,tgt_fix.started,bot_target.started,target_resp.started,star.stopped,hegagon.stopped,triangle.stopped,circle.stopped,alt,task,condition,target_resp.keys,target_resp.rt,rewCond,vts_fback.started,vts_fback.stopped,top_target.stopped,tgt_fix.stopped,bot_target.stopped,target_resp.stopped,blockNum,norew_fback.started,norew_fback.stopped,key_resp_2.keys,key_resp_2.rt,rewExpectancy,feedbk_text.started,feedbk_text.stopped,text_3.started,debrief.started,text_3.stopped,button.started,debrief.index,debrief.itemText,debrief.type,debrief.granularity,debrief.font,debrief.markerColor,debrief.response,debrief.rt,button.numClicks,button.timesOn,button.timesOff,participant,date,expName,psychopyVersion,frameRate,
,,,,,,,,,,,,,,,,,,,,,,,,,,,,,,,,,,,,,,,,,,,,,,,,,,,,,,16.558218863006914,space,36.705069266987266,,,,,,,,,,,,,,,,,,,,,,,,,,,,,,,,,,,,,,,,,,,,,,,,,,,,,,,,,,,,,,,,,,,,,,,,,,,,,,,,,,,,,,,,,,,,53658,2022-11-22_14h05.45.831,vts_reward_expectancy_bt_OFFLINE,2022.2.4,59.95662174138107,
0,0,1,0,0,1,0,0,hexagon,circle,0,0,0,0,0,0,0,7,,,,,,,,,,,,,,,,,,,,,,,,,,,,,,,,,,,,,,,,78.82693437000853,78.82693437000853,78.82693437000853,78.82693437000853,78.82693437000853,78.82693437000853,78.82693437000853,78.82693437000853,78.82693437000853,78.82693437000853,a,3.3164974869869184,1,1,0,82.16392257899861,83.66554276901297,83.66554276901297,,,,,,,,,,,,,,,,,,,,,,,,,,,,,,,,,,,,,,,,,,,,,,,,,,,,,,,,,,,,,,,,,,,,,,,,,,53658,2022-11-22_14h05.45.831,vts_reward_expectancy_bt_OFFLINE,2022.2.4,59.95662174138107,
1,0,0,0,0,0,1,0,triangle,hexagon,0,0,0,0,0,1,1,1,,,,,,,,,,,,,,,,,,,,,,,,,,,,,,,,,,,,,,,,84.16627391500515,84.16627391500515,84.16627391500515,84.16627391500515,84.16627391500515,84.16627391500515,84.16627391500515,84.16627391500515,84.16627391500515,84.16627391500515,l,0.7443114089837763,1,2,0,84.9337953350041,,86.43508205999387,,,,,,,,,,,,,,,,,,,,,,,,,,,,,,,,,,,,,,,,,,,,,,,,,,,,,,,,,,,,,,,,,,,,,,,,,,53658,2022-11-22_14h05.45.831,vts_reward_expectancy_bt_OFFLINE,2022.2.4,59.95662174138107,
0,1,0,0,1,0,0,0,circle,triangle,0,0,0,0,0,2,2,3,,,,,,,,,,,,,,,,,,,,,,,,,,,,,,,,,,,,,,,,86.93578475300455,86.93578475300455,86.93578475300455,86.93578475300455,86.93578475300455,86.93578475300455,86.93578475300455,86.93578475300455,86.93578475300455,86.93578475300455,l,0.630949549988145,1,3,0,87.58654668199597,89.08818269500625,89.08818269500625,,,,,,,,,,,,,,,,,,,,,,,,,,,,,,,,,,,,,,,,,,,,,,,,,,,,,,,,,,,,,,,,,,,,,,,,,,53658,2022-11-22_14h05.45.831,vts_reward_expectancy_bt_OFFLINE,2022.2.4,59.95662174138107,
0,0,0,1,0,0,1,0,star,hexagon,0,0,0,0,0,3,3,11,,,,,,,,,,,,,,,,,,,,,,,,,,,,,,,,,,,,,,,,89.58886818500469,89.58886818500469,89.58886818500469,89.58886818500469,89.58886818500469,89.58886818500469,89.58886818500469,89.58886818500469,89.58886818500469,89.58886818500469,l,0.7013688320002984,1,4,0,90.322906943009,,91.82448950200342,,,,,,,,,,,,,,,,,,,,,,,,,,,,,,,,,,,,,,,,,,,,,,,,,,,,,,,,,,,,,,,,,,,,,,,,,,53658,2022-11-22_14h05.45.831,vts_reward_expectancy_bt_OFFLINE,2022.2.4,59.95662174138107,
0,0,0,1,1,0,0,0,star,triangle,0,0,0,0,0,4,4,9,,,,,,,,,,,,,,,,,,,,,,,,,,,,,,,,,,,,,,,,92.32504573001643,92.32504573001643,92.32504573001643,92.32504573001643,92.32504573001643,92.32504573001643,92.32504573001643,92.32504573001643,92.32504573001643,92.32504573001643,a,0.8891085849900264,10,14,0,93.24269281001762,94.74453790701227,94.74453790701227,,,,,,,,,,,,,,,,,,,,,,,,,,,,,,,,,,,,,,,,,,,,,,,,,,,,,,,,,,,,,,,,,,,,,,,,,,53658,2022-11-22_14h05.45.831,vts_reward_expectancy_bt_OFFLINE,2022.2.4,59.95662174138107,
1,0,0,0,0,0,0,1,triangle,star,0,0,0,0,0,5,5,2,,,,,,,,,,,,,,,,,,,,,,,,,,,,,,,,,,,,,,,,95.24486017500749,95.24486017500749,95.24486017500749,95.24486017500749,95.24486017500749,95.24486017500749,95.24486017500749,95.24486017500749,95.24486017500749,95.24486017500749,l,0.8381289139797445,1,15,0,96.11270428699208,,97.61409499999718,,,,,,,,,,,,,,,,,,,,,,,,,,,,,,,,,,,,,,,,,,,,,,,,,,,,,,,,,,,,,,,,,,,,,,,,,,53658,2022-11-22_14h05.45.831,vts_reward_expectancy_bt_OFFLINE,2022.2.4,59.95662174138107,
0,1,0,0,0,0,1,0,circle,hexagon,0,0,0,0,0,6,6,4,,,,,,,,,,,,,,,,,,,,,,,,,,,,,,,,,,,,,,,,98.11479980300646,98.11479980300646,98.11479980300646,98.11479980300646,98.11479980300646,98.11479980300646,98.11479980300646,98.11479980300646,98.11479980300646,98.11479980300646,a,0.81594445797964,10,25,0,98.94905727700097,,100.45076824200805,,,,,,,,,,,,,,,,,,,,,,,,,,,,,,,,,,,,,,,,,,,,,,,,,,,,,,,,,,,,,,,,,,,,,,,,,,53658,2022-11-22_14h05.45.831,vts_reward_expectancy_bt_OFFLINE,2022.2.4,59.95662174138107,
0,0,1,0,1,0,0,0,hexagon,triangle,0,0,0,0,0,7,7,6,,,,,,,,,,,,,,,,,,,,,,,,,,,,,,,,,,,,,,,,100.95131797000067,100.95131797000067,100.95131797000067,100.95131797000067,100.95131797000067,100.95131797000067,100.95131797000067,100.95131797000067,100.95131797000067,100.95131797000067,a,0.65641657699598,1,26,0,101.63523651400465,,103.13709241800825,,,,,,,,,,,,,,,,,,,,,,,,,,,,,,,,,,,,,,,,,,,,,,,,,,,,,,,,,,,,,,,,,,,,,,,,,,53658,2022-11-22_14h05.45.831,vts_reward_expectancy_bt_OFFLINE,2022.2.4,59.95662174138107,
0,0,1,0,0,0,0,1,hexagon,star,0,0,0,0,0,8,8,8,,,,,,,,,,,,,,,,,,,,,,,,,,,,,,,,,,,,,,,,103.63769003201742,103.63769003201742,103.63769003201742,103.63769003201742,103.63769003201742,103.63769003201742,103.63769003201742,103.63769003201742,103.63769003201742,103.63769003201742,a,0.8175554529880174,1,27,0,104.47165716000018,105.97352746501565,105.97352746501565,,,,,,,,,,,,,,,,,,,,,,,,,,,,,,,,,,,,,,,,,,,,,,,,,,,,,,,,,,,,,,,,,,,,,,,,,,53658,2022-11-22_14h05.45.831,vts_reward_expectancy_bt_OFFLINE,2022.2.4,59.95662174138107,
0,1,0,0,0,0,0,1,circle,star,0,0,0,0,0,9,9,5,,,,,,,,,,,,,,,,,,,,,,,,,,,,,,,,,,,,,,,,106.47388315800345,106.47388315800345,106.47388315800345,106.47388315800345,106.47388315800345,106.47388315800345,106.47388315800345,106.47388315800345,106.47388315800345,106.47388315800345,a,0.6254913149750791,10,37,0,107.12452967200079,108.62626957701286,108.62626957701286,,,,,,,,,,,,,,,,,,,,,,,,,,,,,,,,,,,,,,,,,,,,,,,,,,,,,,,,,,,,,,,,,,,,,,,,,,53658,2022-11-22_14h05.45.831,vts_reward_expectancy_bt_OFFLINE,2022.2.4,59.95662174138107,
1,0,0,0,0,1,0,0,triangle,circle,0,0,0,0,0,10,10,0,,,,,,,,,,,,,,,,,,,,,,,,,,,,,,,,,,,,,,,,109.12698294699658,109.12698294699658,109.12698294699658,109.12698294699658,109.12698294699658,109.12698294699658,109.12698294699658,109.12698294699658,109.12698294699658,109.12698294699658,a,0.5247450189781375,10,47,0,109.67750690801768,,111.17914699201356,,,,,,,,,,,,,,,,,,,,,,,,,,,,,,,,,,,,,,,,,,,,,,,,,,,,,,,,,,,,,,,,,,,,,,,,,,53658,2022-11-22_14h05.45.831,vts_reward_expectancy_bt_OFFLINE,2022.2.4,59.95662174138107,
0,0,0,1,0,1,0,0,star ,circle,0,0,0,0,0,11,11,10,,,,,,,,,,,,,,,,,,,,,,,,,,,,,,,,,,,,,,,,111.67988061899086,111.67988061899086,111.67988061899086,111.67988061899086,111.67988061899086,111.67988061899086,111.67988061899086,111.67988061899086,111.67988061899086,111.67988061899086,a,0.2787835029885173,10,57,0,111.98003879201133,,113.48158793500625,,,,,,,,,,,,,,,,,,,,,,,,,,,,,,,,,,,,,,,,,,,,,,,,,,,,,,,,,,,,,,,,,,,,,,,,,,53658,2022-11-22_14h05.45.831,vts_reward_expectancy_bt_OFFLINE,2022.2.4,59.95662174138107,
0,1,0,0,1,0,0,0,circle,triangle,0,0,0,0,1,0,12,3,,,,,,,,,,,,,,,,,,,,,,,,,,,,,,,,,,,,,,,,113.98242092001601,113.98242092001601,113.98242092001601,113.98242092001601,113.98242092001601,113.98242092001601,113.98242092001601,113.98242092001601,113.98242092001601,113.98242092001601,l,0.337743465002859,10,67,0,114.34921561399824,,115.85106895701028,,,,,,,,,,,,,,,,,,,,,,,,,,,,,,,,,,,,,,,,,,,,,,,,,,,,,,,,,,,,,,,,,,,,,,,,,,53658,2022-11-22_14h05.45.831,vts_reward_expectancy_bt_OFFLINE,2022.2.4,59.95662174138107,
0,0,1,0,0,0,0,1,hexagon,star,0,0,0,0,1,1,13,8,,,,,,,,,,,,,,,,,,,,,,,,,,,,,,,,,,,,,,,,116.35141617400222,116.35141617400222,116.35141617400222,116.35141617400222,116.35141617400222,116.35141617400222,116.35141617400222,116.35141617400222,116.35141617400222,116.35141617400222,a,0.6250936030119192,1,68,0,117.00215197500074,,118.50392402999569,,,,,,,,,,,,,,,,,,,,,,,,,,,,,,,,,,,,,,,,,,,,,,,,,,,,,,,,,,,,,,,,,,,,,,,,,,53658,2022-11-22_14h05.45.831,vts_reward_expectancy_bt_OFFLINE,2022.2.4,59.95662174138107,
1,0,0,0,0,0,1,0,triangle,hexagon,0,0,0,0,1,2,14,1,,,,,,,,,,,,,,,,,,,,,,,,,,,,,,,,,,,,,,,,119.00444122499903,119.00444122499903,119.00444122499903,119.00444122499903,119.00444122499903,119.00444122499903,119.00444122499903,119.00444122499903,119.00444122499903,119.00444122499903,l,0.5026932909968309,1,69,0,119.53837081199163,,121.03994603801402,,,,,,,,,,,,,,,,,,,,,,,,,,,,,,,,,,,,,,,,,,,,,,,,,,,,,,,,,,,,,,,,,,,,,,,,,,53658,2022-11-22_14h05.45.831,vts_reward_expectancy_bt_OFFLINE,2022.2.4,59.95662174138107,
0,0,1,0,1,0,0,0,hexagon,triangle,0,0,0,0,1,3,15,6,,,,,,,,,,,,,,,,,,,,,,,,,,,,,,,,,,,,,,,,121.54053860000568,121.54053860000568,121.54053860000568,121.54053860000568,121.54053860000568,121.54053860000568,121.54053860000568,121.54053860000568,121.54053860000568,121.54053860000568,a,0.3181985849805642,1,70,0,121.89090959401801,,123.39277449200745,,,,,,,,,,,,,,,,,,,,,,,,,,,,,,,,,,,,,,,,,,,,,,,,,,,,,,,,,,,,,,,,,,,,,,,,,,53658,2022-11-22_14h05.45.831,vts_reward_expectancy_bt_OFFLINE,2022.2.4,59.95662174138107,
0,1,0,0,0,0,0,1,circle,star,0,0,0,0,1,4,16,5,,,,,,,,,,,,,,,,,,,,,,,,,,,,,,,,,,,,,,,,123.89317924901843,123.89317924901843,123.89317924901843,123.89317924901843,123.89317924901843,123.89317924901843,123.89317924901843,123.89317924901843,123.89317924901843,123.89317924901843,a,0.5757652479805984,1,71,0,124.49398560301051,,125.99539763500798,,,,,,,,,,,,,,,,,,,,,,,,,,,,,,,,,,,,,,,,,,,,,,,,,,,,,,,,,,,,,,,,,,,,,,,,,,53658,2022-11-22_14h05.45.831,vts_reward_expectancy_bt_OFFLINE,2022.2.4,59.95662174138107,
0,0,0,1,0,0,1,0,star,hexagon,0,0,0,0,1,5,17,11,,,,,,,,,,,,,,,,,,,,,,,,,,,,,,,,,,,,,,,,126.49620507701184,126.49620507701184,126.49620507701184,126.49620507701184,126.49620507701184,126.49620507701184,126.49620507701184,126.49620507701184,126.49620507701184,126.49620507701184,a,0.5609502629959024,1,72,0,127.07998983899597,,128.58176030000322,,,,,,,,,,,,,,,,,,,,,,,,,,,,,,,,,,,,,,,,,,,,,,,,,,,,,,,,,,,,,,,,,,,,,,,,,,53658,2022-11-22_14h05.45.831,vts_reward_expectancy_bt_OFFLINE,2022.2.4,59.95662174138107,
0,0,0,1,0,1,0,0,star ,circle,0,0,0,0,1,6,18,10,,,,,,,,,,,,,,,,,,,,,,,,,,,,,,,,,,,,,,,,129.08232456000405,129.08232456000405,129.08232456000405,129.08232456000405,129.08232456000405,129.08232456000405,129.08232456000405,129.08232456000405,129.08232456000405,129.08232456000405,a,0.31595209197257645,1,73,0,129.4158824670012,130.91768510299153,130.91768510299153,,,,,,,,,,,,,,,,,,,,,,,,,,,,,,,,,,,,,,,,,,,,,,,,,,,,,,,,,,,,,,,,,,,,,,,,,,53658,2022-11-22_14h05.45.831,vts_reward_expectancy_bt_OFFLINE,2022.2.4,59.95662174138107,
0,0,1,0,0,1,0,0,hexagon,circle,0,0,0,0,1,7,19,7,,,,,,,,,,,,,,,,,,,,,,,,,,,,,,,,,,,,,,,,131.41822638799204,131.41822638799204,131.41822638799204,131.41822638799204,131.41822638799204,131.41822638799204,131.41822638799204,131.41822638799204,131.41822638799204,131.41822638799204,a,0.24174153999774717,10,83,0,131.68493730999762,,133.1867067090061,,,,,,,,,,,,,,,,,,,,,,,,,,,,,,,,,,,,,,,,,,,,,,,,,,,,,,,,,,,,,,,,,,,,,,,,,,53658,2022-11-22_14h05.45.831,vts_reward_expectancy_bt_OFFLINE,2022.2.4,59.95662174138107,
1,0,0,0,0,0,0,1,triangle,star,0,0,0,0,1,8,20,2,,,,,,,,,,,,,,,,,,,,,,,,,,,,,,,,,,,,,,,,133.68718494698987,133.68718494698987,133.68718494698987,133.68718494698987,133.68718494698987,133.68718494698987,133.68718494698987,133.68718494698987,133.68718494698987,133.68718494698987,l,1.7192936309729703,10,93,0,135.43918942299206,,136.94107470300514,,,,,,,,,,,,,,,,,,,,,,,,,,,,,,,,,,,,,,,,,,,,,,,,,,,,,,,,,,,,,,,,,,,,,,,,,,53658,2022-11-22_14h05.45.831,vts_reward_expectancy_bt_OFFLINE,2022.2.4,59.95662174138107,
0,1,0,0,0,0,1,0,circle,hexagon,0,0,0,0,1,9,21,4,,,,,,,,,,,,,,,,,,,,,,,,,,,,,,,,,,,,,,,,137.44138244001078,137.44138244001078,137.44138244001078,137.44138244001078,137.44138244001078,137.44138244001078,137.44138244001078,137.44138244001078,137.44138244001078,137.44138244001078,a,0.5624204469786491,1,94,0,138.02534408000065,,139.52717973900144,,,,,,,,,,,,,,,,,,,,,,,,,,,,,,,,,,,,,,,,,,,,,,,,,,,,,,,,,,,,,,,,,,,,,,,,,,53658,2022-11-22_14h05.45.831,vts_reward_expectancy_bt_OFFLINE,2022.2.4,59.95662174138107,
0,0,0,1,1,0,0,0,star,triangle,0,0,0,0,1,10,22,9,,,,,,,,,,,,,,,,,,,,,,,,,,,,,,,,,,,,,,,,140.02781197801232,140.02781197801232,140.02781197801232,140.02781197801232,140.02781197801232,140.02781197801232,140.02781197801232,140.02781197801232,140.02781197801232,140.02781197801232,a,1.115453954989789,1,95,0,141.16237004299182,,142.66396066901507,,,,,,,,,,,,,,,,,,,,,,,,,,,,,,,,,,,,,,,,,,,,,,,,,,,,,,,,,,,,,,,,,,,,,,,,,,53658,2022-11-22_14h05.45.831,vts_reward_expectancy_bt_OFFLINE,2022.2.4,59.95662174138107,
1,0,0,0,0,1,0,0,triangle,circle,0,0,0,0,1,11,23,0,,,,,,,,,,,,,,,,,,,,,,,,,,,,,,,,,,,,,,,,143.16443521899055,143.16443521899055,143.16443521899055,143.16443521899055,143.16443521899055,143.16443521899055,143.16443521899055,143.16443521899055,143.16443521899055,143.16443521899055,a,2.1196815019648056,10,105,0,145.3167902250134,,146.8183816029923,,,,,,,,,,,,,,,,,,,,,,,,,,,,,,,,,,,,,,,,,,,,,,,,,,,,,,,,,,,,,,,,,,,,,,,,,,53658,2022-11-22_14h05.45.831,vts_reward_expectancy_bt_OFFLINE,2022.2.4,59.95662174138107,
0,1,0,0,0,0,0,1,circle,star,0,0,0,0,2,0,24,5,,,,,,,,,,,,,,,,,,,,,,,,,,,,,,,,,,,,,,,,147.3189143470081,147.3189143470081,147.3189143470081,147.3189143470081,147.3189143470081,147.3189143470081,147.3189143470081,147.3189143470081,147.3189143470081,147.3189143470081,l,0.9795129039848689,1,106,0,148.3202440669993,,149.82172270299634,,,,,,,,,,,,,,,,,,,,,,,,,,,,,,,,,,,,,,,,,,,,,,,,,,,,,,,,,,,,,,,,,,,,,,,,,,53658,2022-11-22_14h05.45.831,vts_reward_expectancy_bt_OFFLINE,2022.2.4,59.95662174138107,
0,0,0,1,0,1,0,0,star ,circle,0,0,0,0,2,1,25,10,,,,,,,,,,,,,,,,,,,,,,,,,,,,,,,,,,,,,,,,150.32231635900098,150.32231635900098,150.32231635900098,150.32231635900098,150.32231635900098,150.32231635900098,150.32231635900098,150.32231635900098,150.32231635900098,150.32231635900098,a,1.059423724975204,1,107,0,151.40674642901286,,152.90849068199168,,,,,,,,,,,,,,,,,,,,,,,,,,,,,,,,,,,,,,,,,,,,,,,,,,,,,,,,,,,,,,,,,,,,,,,,,,53658,2022-11-22_14h05.45.831,vts_reward_expectancy_bt_OFFLINE,2022.2.4,59.95662174138107,
1,0,0,0,0,0,1,0,triangle,hexagon,0,0,0,0,2,2,26,1,,,,,,,,,,,,,,,,,,,,,,,,,,,,,,,,,,,,,,,,153.40907925801002,153.40907925801002,153.40907925801002,153.40907925801002,153.40907925801002,153.40907925801002,153.40907925801002,153.40907925801002,153.40907925801002,153.40907925801002,a,0.8294027539668605,10,117,0,154.25994350700057,,155.76179146199138,,,,,,,,,,,,,,,,,,,,,,,,,,,,,,,,,,,,,,,,,,,,,,,,,,,,,,,,,,,,,,,,,,,,,,,,,,53658,2022-11-22_14h05.45.831,vts_reward_expectancy_bt_OFFLINE,2022.2.4,59.95662174138107,
0,1,0,0,1,0,0,0,circle,triangle,0,0,0,0,2,3,27,3,,,,,,,,,,,,,,,,,,,,,,,,,,,,,,,,,,,,,,,,156.2621216980042,156.2621216980042,156.2621216980042,156.2621216980042,156.2621216980042,156.2621216980042,156.2621216980042,156.2621216980042,156.2621216980042,156.2621216980042,l,0.6668976249929983,1,118,0,156.94619526801398,158.44787568901666,158.44787568901666,,,,,,,,,,,,,,,,,,,,,,,,,,,,,,,,,,,,,,,,,,,,,,,,,,,,,,,,,,,,,,,,,,,,,,,,,,53658,2022-11-22_14h05.45.831,vts_reward_expectancy_bt_OFFLINE,2022.2.4,59.95662174138107,
1,0,0,0,0,1,0,0,triangle,circle,0,0,0,0,2,4,28,0,,,,,,,,,,,,,,,,,,,,,,,,,,,,,,,,,,,,,,,,158.94833567499882,158.94833567499882,158.94833567499882,158.94833567499882,158.94833567499882,158.94833567499882,158.94833567499882,158.94833567499882,158.94833567499882,158.94833567499882,a,0.29640532098710537,1,119,0,159.26537831799942,,160.7670366789971,,,,,,,,,,,,,,,,,,,,,,,,,,,,,,,,,,,,,,,,,,,,,,,,,,,,,,,,,,,,,,,,,,,,,,,,,,53658,2022-11-22_14h05.45.831,vts_reward_expectancy_bt_OFFLINE,2022.2.4,59.95662174138107,
1,0,0,0,0,0,0,1,triangle,star,0,0,0,0,2,5,29,2,,,,,,,,,,,,,,,,,,,,,,,,,,,,,,,,,,,,,,,,161.2677590700041,161.2677590700041,161.2677590700041,161.2677590700041,161.2677590700041,161.2677590700041,161.2677590700041,161.2677590700041,161.2677590700041,161.2677590700041,a,0.3290223029907793,10,129,0,161.61838944201008,,163.11974182000267,,,,,,,,,,,,,,,,,,,,,,,,,,,,,,,,,,,,,,,,,,,,,,,,,,,,,,,,,,,,,,,,,,,,,,,,,,53658,2022-11-22_14h05.45.831,vts_reward_expectancy_bt_OFFLINE,2022.2.4,59.95662174138107,
0,0,0,1,1,0,0,0,star,triangle,0,0,0,0,2,6,30,9,,,,,,,,,,,,,,,,,,,,,,,,,,,,,,,,,,,,,,,,163.62026261500432,163.62026261500432,163.62026261500432,163.62026261500432,163.62026261500432,163.62026261500432,163.62026261500432,163.62026261500432,163.62026261500432,163.62026261500432,a,0.23734096097177826,10,139,0,163.88740418999805,,165.38908715700381,,,,,,,,,,,,,,,,,,,,,,,,,,,,,,,,,,,,,,,,,,,,,,,,,,,,,,,,,,,,,,,,,,,,,,,,,,53658,2022-11-22_14h05.45.831,vts_reward_expectancy_bt_OFFLINE,2022.2.4,59.95662174138107,
0,0,1,0,0,0,0,1,hexagon,star,0,0,0,0,2,7,31,8,,,,,,,,,,,,,,,,,,,,,,,,,,,,,,,,,,,,,,,,165.88941542201792,165.88941542201792,165.88941542201792,165.88941542201792,165.88941542201792,165.88941542201792,165.88941542201792,165.88941542201792,165.88941542201792,165.88941542201792,a,0.2522296810057014,1,140,0,166.17320771201048,,167.67482223801198,,,,,,,,,,,,,,,,,,,,,,,,,,,,,,,,,,,,,,,,,,,,,,,,,,,,,,,,,,,,,,,,,,,,,,,,,,53658,2022-11-22_14h05.45.831,vts_reward_expectancy_bt_OFFLINE,2022.2.4,59.95662174138107,
0,0,1,0,0,1,0,0,hexagon,circle,0,0,0,0,2,8,32,7,,,,,,,,,,,,,,,,,,,,,,,,,,,,,,,,,,,,,,,,168.17554873399786,168.17554873399786,168.17554873399786,168.17554873399786,168.17554873399786,168.17554873399786,168.17554873399786,168.17554873399786,168.17554873399786,168.17554873399786,a,0.22736530797556043,10,150,0,168.4256294099905,,169.92742680199444,,,,,,,,,,,,,,,,,,,,,,,,,,,,,,,,,,,,,,,,,,,,,,,,,,,,,,,,,,,,,,,,,,,,,,,,,,53658,2022-11-22_14h05.45.831,vts_reward_expectancy_bt_OFFLINE,2022.2.4,59.95662174138107,
0,0,1,0,1,0,0,0,hexagon,triangle,0,0,0,0,2,9,33,6,,,,,,,,,,,,,,,,,,,,,,,,,,,,,,,,,,,,,,,,170.4277781599958,170.4277781599958,170.4277781599958,170.4277781599958,170.4277781599958,170.4277781599958,170.4277781599958,170.4277781599958,170.4277781599958,170.4277781599958,a,0.3042290919984225,1,151,0,170.76165312700323,,172.26321951500722,,,,,,,,,,,,,,,,,,,,,,,,,,,,,,,,,,,,,,,,,,,,,,,,,,,,,,,,,,,,,,,,,,,,,,,,,,53658,2022-11-22_14h05.45.831,vts_reward_expectancy_bt_OFFLINE,2022.2.4,59.95662174138107,
0,1,0,0,0,0,1,0,circle,hexagon,0,0,0,0,2,10,34,4,,,,,,,,,,,,,,,,,,,,,,,,,,,,,,,,,,,,,,,,172.7637418770173,172.7637418770173,172.7637418770173,172.7637418770173,172.7637418770173,172.7637418770173,172.7637418770173,172.7637418770173,172.7637418770173,172.7637418770173,a,0.24135106697212905,10,161,0,173.0309519250004,,174.53237735800212,,,,,,,,,,,,,,,,,,,,,,,,,,,,,,,,,,,,,,,,,,,,,,,,,,,,,,,,,,,,,,,,,,,,,,,,,,53658,2022-11-22_14h05.45.831,vts_reward_expectancy_bt_OFFLINE,2022.2.4,59.95662174138107,
0,0,0,1,0,0,1,0,star,hexagon,0,0,0,0,2,11,35,11,,,,,,,,,,,,,,,,,,,,,,,,,,,,,,,,,,,,,,,,175.0328953580174,175.0328953580174,175.0328953580174,175.0328953580174,175.0328953580174,175.0328953580174,175.0328953580174,175.0328953580174,175.0328953580174,175.0328953580174,a,0.20094624598277733,10,171,0,175.2665126649954,,176.7683059470146,,,,,,,,,,,,,,,,,,,,,,,,,,,,,,,,,,,,,,,,,,,,,,,,,,,,,,,,,,,,,,,,,,,,,,,,,,53658,2022-11-22_14h05.45.831,vts_reward_expectancy_bt_OFFLINE,2022.2.4,59.95662174138107,
0,0,0,1,0,0,1,0,star,hexagon,0,0,0,0,3,0,36,11,,,,,,,,,,,,,,,,,,,,,,,,,,,,,,,,,,,,,,,,177.2687048939988,177.2687048939988,177.2687048939988,177.2687048939988,177.2687048939988,177.2687048939988,177.2687048939988,177.2687048939988,177.2687048939988,177.2687048939988,a,0.12498675697133876,1,172,0,177.4188836849935,,178.92056519899052,,,,,,,,,,,,,,,,,,,,,,,,,,,,,,,,,,,,,,,,,,,,,,,,,,,,,,,,,,,,,,,,,,,,,,,,,,53658,2022-11-22_14h05.45.831,vts_reward_expectancy_bt_OFFLINE,2022.2.4,59.95662174138107,
1,0,0,0,0,0,0,1,triangle,star,0,0,0,0,3,1,37,2,,,,,,,,,,,,,,,,,,,,,,,,,,,,,,,,,,,,,,,,179.42108958700555,179.42108958700555,179.42108958700555,179.42108958700555,179.42108958700555,179.42108958700555,179.42108958700555,179.42108958700555,179.42108958700555,179.42108958700555,a,0.08689325698651373,1,173,0,179.5382214479905,,181.03975556400837,,,,,,,,,,,,,,,,,,,,,,,,,,,,,,,,,,,,,,,,,,,,,,,,,,,,,,,,,,,,,,,,,,,,,,,,,,53658,2022-11-22_14h05.45.831,vts_reward_expectancy_bt_OFFLINE,2022.2.4,59.95662174138107,
0,0,0,1,1,0,0,0,star,triangle,0,0,0,0,3,2,38,9,,,,,,,,,,,,,,,,,,,,,,,,,,,,,,,,,,,,,,,,181.53999827700318,181.53999827700318,181.53999827700318,181.53999827700318,181.53999827700318,181.53999827700318,181.53999827700318,181.53999827700318,181.53999827700318,181.53999827700318,a,0.11812697700224817,10,183,0,181.6901852900046,,183.19183647699538,,,,,,,,,,,,,,,,,,,,,,,,,,,,,,,,,,,,,,,,,,,,,,,,,,,,,,,,,,,,,,,,,,,,,,,,,,53658,2022-11-22_14h05.45.831,vts_reward_expectancy_bt_OFFLINE,2022.2.4,59.95662174138107,
0,0,1,0,0,1,0,0,hexagon,circle,0,0,0,0,3,3,39,7,,,,,,,,,,,,,,,,,,,,,,,,,,,,,,,,,,,,,,,,183.69238201799453,183.69238201799453,183.69238201799453,183.69238201799453,183.69238201799453,183.69238201799453,183.69238201799453,183.69238201799453,183.69238201799453,183.69238201799453,a,0.36106121097691357,10,193,0,184.07622878201073,,185.57798175798962,,,,,,,,,,,,,,,,,,,,,,,,,,,,,,,,,,,,,,,,,,,,,,,,,,,,,,,,,,,,,,,,,,,,,,,,,,53658,2022-11-22_14h05.45.831,vts_reward_expectancy_bt_OFFLINE,2022.2.4,59.95662174138107,
0,0,0,1,0,1,0,0,star ,circle,0,0,0,0,3,4,40,10,,,,,,,,,,,,,,,,,,,,,,,,,,,,,,,,,,,,,,,,186.07829856401077,186.07829856401077,186.07829856401077,186.07829856401077,186.07829856401077,186.07829856401077,186.07829856401077,186.07829856401077,186.07829856401077,186.07829856401077,a,0.6637471989961341,10,203,0,186.76260386500508,,188.2640871189942,,,,,,,,,,,,,,,,,,,,,,,,,,,,,,,,,,,,,,,,,,,,,,,,,,,,,,,,,,,,,,,,,,,,,,,,,,53658,2022-11-22_14h05.45.831,vts_reward_expectancy_bt_OFFLINE,2022.2.4,59.95662174138107,
0,1,0,0,0,0,0,1,circle,star,0,0,0,0,3,5,41,5,,,,,,,,,,,,,,,,,,,,,,,,,,,,,,,,,,,,,,,,188.76468592201127,188.76468592201127,188.76468592201127,188.76468592201127,188.76468592201127,188.76468592201127,188.76468592201127,188.76468592201127,188.76468592201127,188.76468592201127,l,1.5548550519743003,1,204,0,190.34976690000622,,191.8515625250002,,,,,,,,,,,,,,,,,,,,,,,,,,,,,,,,,,,,,,,,,,,,,,,,,,,,,,,,,,,,,,,,,,,,,,,,,,53658,2022-11-22_14h05.45.831,vts_reward_expectancy_bt_OFFLINE,2022.2.4,59.95662174138107,
1,0,0,0,0,0,1,0,triangle,hexagon,0,0,0,0,3,6,42,1,,,,,,,,,,,,,,,,,,,,,,,,,,,,,,,,,,,,,,,,192.3521082700172,192.3521082700172,192.3521082700172,192.3521082700172,192.3521082700172,192.3521082700172,192.3521082700172,192.3521082700172,192.3521082700172,192.3521082700172,a,0.409508016979089,10,214,0,192.78587262201472,,194.287657887995,,,,,,,,,,,,,,,,,,,,,,,,,,,,,,,,,,,,,,,,,,,,,,,,,,,,,,,,,,,,,,,,,,,,,,,,,,53658,2022-11-22_14h05.45.831,vts_reward_expectancy_bt_OFFLINE,2022.2.4,59.95662174138107,
1,0,0,0,0,1,0,0,triangle,circle,0,0,0,0,3,7,43,0,,,,,,,,,,,,,,,,,,,,,,,,,,,,,,,,,,,,,,,,194.78820740501396,194.78820740501396,194.78820740501396,194.78820740501396,194.78820740501396,194.78820740501396,194.78820740501396,194.78820740501396,194.78820740501396,194.78820740501396,a,0.15709435899043456,1,215,0,194.9716337280115,,196.47321230900707,,,,,,,,,,,,,,,,,,,,,,,,,,,,,,,,,,,,,,,,,,,,,,,,,,,,,,,,,,,,,,,,,,,,,,,,,,53658,2022-11-22_14h05.45.831,vts_reward_expectancy_bt_OFFLINE,2022.2.4,59.95662174138107,
0,1,0,0,1,0,0,0,circle,triangle,0,0,0,0,3,8,44,3,,,,,,,,,,,,,,,,,,,,,,,,,,,,,,,,,,,,,,,,196.9737764169986,196.9737764169986,196.9737764169986,196.9737764169986,196.9737764169986,196.9737764169986,196.9737764169986,196.9737764169986,196.9737764169986,196.9737764169986,a,0.07492811599513516,1,216,0,197.07395061998977,,198.5757306680025,,,,,,,,,,,,,,,,,,,,,,,,,,,,,,,,,,,,,,,,,,,,,,,,,,,,,,,,,,,,,,,,,,,,,,,,,,53658,2022-11-22_14h05.45.831,vts_reward_expectancy_bt_OFFLINE,2022.2.4,59.95662174138107,
0,0,1,0,1,0,0,0,hexagon,triangle,0,0,0,0,3,9,45,6,,,,,,,,,,,,,,,,,,,,,,,,,,,,,,,,,,,,,,,,199.07613771801698,199.07613771801698,199.07613771801698,199.07613771801698,199.07613771801698,199.07613771801698,199.07613771801698,199.07613771801698,199.07613771801698,199.07613771801698,a,0.07621305796783417,10,226,0,199.17617525500827,,200.67804592300672,,,,,,,,,,,,,,,,,,,,,,,,,,,,,,,,,,,,,,,,,,,,,,,,,,,,,,,,,,,,,,,,,,,,,,,,,,53658,2022-11-22_14h05.45.831,vts_reward_expectancy_bt_OFFLINE,2022.2.4,59.95662174138107,
0,1,0,0,0,0,1,0,circle,hexagon,0,0,0,0,3,10,46,4,,,,,,,,,,,,,,,,,,,,,,,,,,,,,,,,,,,,,,,,201.17860167799518,201.17860167799518,201.17860167799518,201.17860167799518,201.17860167799518,201.17860167799518,201.17860167799518,201.17860167799518,201.17860167799518,201.17860167799518,a,0.06692493098671548,10,236,0,201.2618390530115,202.76376800701837,202.76376800701837,,,,,,,,,,,,,,,,,,,,,,,,,,,,,,,,,,,,,,,,,,,,,,,,,,,,,,,,,,,,,,,,,,,,,,,,,,53658,2022-11-22_14h05.45.831,vts_reward_expectancy_bt_OFFLINE,2022.2.4,59.95662174138107,
0,0,1,0,0,0,0,1,hexagon,star,0,0,0,0,3,11,47,8,,,,,,,,,,,,,,,,,,,,,,,,,,,,,,,,,,,,,,,,203.2641022480093,203.2641022480093,203.2641022480093,203.2641022480093,203.2641022480093,203.2641022480093,203.2641022480093,203.2641022480093,203.2641022480093,203.2641022480093,a,0.3339052840019576,10,246,0,203.61465422299807,205.11630351399072,205.11630351399072,,,,,,,,,,,,,,,,,,,,,,,,,,,,,,,,,,,,,,,,,,,,,,,,,,,,,,,,,,,,,,,,,,,,,,,,,,53658,2022-11-22_14h05.45.831,vts_reward_expectancy_bt_OFFLINE,2022.2.4,59.95662174138107,
0,0,0,1,0,0,1,0,star,hexagon,1,0,1,0,0,0,0,11,,,,,,,,,,,,,,,,,,,,,,,,,,,,,,,,,,,,,,,,209.22079723401112,209.22079723401112,209.22079723401112,209.22079723401112,209.22079723401112,209.22079723401112,209.22079723401112,209.22079723401112,209.22079723401112,209.22079723401112,a,1.4756003159855027,10,256,1,210.72226301199407,,212.22416751700803,,,,,,,,,,,,,,,,,,,,,,,,,,,,,,,,,,,,,,,,,,,,,,,,,,,,,,,,,,,,,,,,,,,,,,,,,,53658,2022-11-22_14h05.45.831,vts_reward_expectancy_bt_OFFLINE,2022.2.4,59.95662174138107,
0,0,0,1,0,1,0,0,star ,circle,1,0,1,0,0,1,1,10,,,,,,,,,,,,,,,,,,,,,,,,,,,,,,,,,,,,,,,,212.72455282701412,212.72455282701412,212.72455282701412,212.72455282701412,212.72455282701412,212.72455282701412,212.72455282701412,212.72455282701412,212.72455282701412,212.72455282701412,a,0.25522486297995783,10,266,1,213.00816723200842,,214.5098591580172,,,,,,,,,,,,,,,,,,,,,,,,,,,,,,,,,,,,,,,,,,,,,,,,,,,,,,,,,,,,,,,,,,,,,,,,,,53658,2022-11-22_14h05.45.831,vts_reward_expectancy_bt_OFFLINE,2022.2.4,59.95662174138107,
1,0,0,0,0,0,1,0,triangle,hexagon,1,0,1,0,0,2,2,1,,,,,,,,,,,,,,,,,,,,,,,,,,,,,,,,,,,,,,,,215.0105261580029,215.0105261580029,215.0105261580029,215.0105261580029,215.0105261580029,215.0105261580029,215.0105261580029,215.0105261580029,215.0105261580029,215.0105261580029,a,0.3879417709831614,10,276,1,215.42781255301088,,216.92906009301078,,,,,,,,,,,,,,,,,,,,,,,,,,,,,,,,,,,,,,,,,,,,,,,,,,,,,,,,,,,,,,,,,,,,,,,,,,53658,2022-11-22_14h05.45.831,vts_reward_expectancy_bt_OFFLINE,2022.2.4,59.95662174138107,
1,0,0,0,0,1,0,0,triangle,circle,1,0,1,0,0,3,3,0,,,,,,,,,,,,,,,,,,,,,,,,,,,,,,,,,,,,,,,,217.42964047499117,217.42964047499117,217.42964047499117,217.42964047499117,217.42964047499117,217.42964047499117,217.42964047499117,217.42964047499117,217.42964047499117,217.42964047499117,a,0.2080192959983833,10,286,1,217.6634358690062,,219.16489246999845,,,,,,,,,,,,,,,,,,,,,,,,,,,,,,,,,,,,,,,,,,,,,,,,,,,,,,,,,,,,,,,,,,,,,,,,,,53658,2022-11-22_14h05.45.831,vts_reward_expectancy_bt_OFFLINE,2022.2.4,59.95662174138107,
0,1,0,0,0,0,0,1,circle,star,1,0,1,0,0,4,4,5,,,,,,,,,,,,,,,,,,,,,,,,,,,,,,,,,,,,,,,,219.66566349199275,219.66566349199275,219.66566349199275,219.66566349199275,219.66566349199275,219.66566349199275,219.66566349199275,219.66566349199275,219.66566349199275,219.66566349199275,a,0.3013217259722296,10,296,1,219.9991608200071,221.50100849801674,221.50100849801674,,,,,,,,,,,,,,,,,,,,,,,,,,,,,,,,,,,,,,,,,,,,,,,,,,,,,,,,,,,,,,,,,,,,,,,,,,53658,2022-11-22_14h05.45.831,vts_reward_expectancy_bt_OFFLINE,2022.2.4,59.95662174138107,
0,1,0,0,1,0,0,0,circle,triangle,1,0,1,0,0,5,5,3,,,,,,,,,,,,,,,,,,,,,,,,,,,,,,,,,,,,,,,,222.00145916899783,222.00145916899783,222.00145916899783,222.00145916899783,222.00145916899783,222.00145916899783,222.00145916899783,222.00145916899783,222.00145916899783,222.00145916899783,a,0.30530601300415583,10,306,1,222.33523155501462,,223.836722639011,,,,,,,,,,,,,,,,,,,,,,,,,,,,,,,,,,,,,,,,,,,,,,,,,,,,,,,,,,,,,,,,,,,,,,,,,,53658,2022-11-22_14h05.45.831,vts_reward_expectancy_bt_OFFLINE,2022.2.4,59.95662174138107,
0,1,0,0,0,0,1,0,circle,hexagon,1,0,1,0,0,6,6,4,,,,,,,,,,,,,,,,,,,,,,,,,,,,,,,,,,,,,,,,224.33729421300814,224.33729421300814,224.33729421300814,224.33729421300814,224.33729421300814,224.33729421300814,224.33729421300814,224.33729421300814,224.33729421300814,224.33729421300814,a,0.040725735016167164,1,307,1,224.4041746520088,,225.9057089650014,,,,,,,,,,,,,,,,,,,,,,,,,,,,,,,,,,,,,,,,,,,,,,,,,,,,,,,,,,,,,,,,,,,,,,,,,,53658,2022-11-22_14h05.45.831,vts_reward_expectancy_bt_OFFLINE,2022.2.4,59.95662174138107,
0,0,1,0,1,0,0,0,hexagon,triangle,1,0,1,0,0,7,7,6,,,,,,,,,,,,,,,,,,,,,,,,,,,,,,,,,,,,,,,,226.40651618901757,226.40651618901757,226.40651618901757,226.40651618901757,226.40651618901757,226.40651618901757,226.40651618901757,226.40651618901757,226.40651618901757,226.40651618901757,a,0.14141634400584735,1,308,1,226.57316297499347,,228.07485384499887,,,,,,,,,,,,,,,,,,,,,,,,,,,,,,,,,,,,,,,,,,,,,,,,,,,,,,,,,,,,,,,,,,,,,,,,,,53658,2022-11-22_14h05.45.831,vts_reward_expectancy_bt_OFFLINE,2022.2.4,59.95662174138107,
0,0,1,0,0,1,0,0,hexagon,circle,1,0,1,0,0,8,8,7,,,,,,,,,,,,,,,,,,,,,,,,,,,,,,,,,,,,,,,,228.57547823499772,228.57547823499772,228.57547823499772,228.57547823499772,228.57547823499772,228.57547823499772,228.57547823499772,228.57547823499772,228.57547823499772,228.57547823499772,l,0.23426797398133203,1,309,1,228.84248565201415,,230.3439788329997,,,,,,,,,,,,,,,,,,,,,,,,,,,,,,,,,,,,,,,,,,,,,,,,,,,,,,,,,,,,,,,,,,,,,,,,,,53658,2022-11-22_14h05.45.831,vts_reward_expectancy_bt_OFFLINE,2022.2.4,59.95662174138107,
0,0,0,1,1,0,0,0,star,triangle,1,0,1,0,0,9,9,9,,,,,,,,,,,,,,,,,,,,,,,,,,,,,,,,,,,,,,,,230.8445625989989,230.8445625989989,230.8445625989989,230.8445625989989,230.8445625989989,230.8445625989989,230.8445625989989,230.8445625989989,230.8445625989989,230.8445625989989,a,0.08036313598859124,10,319,1,230.94458531501004,,232.44630829701782,,,,,,,,,,,,,,,,,,,,,,,,,,,,,,,,,,,,,,,,,,,,,,,,,,,,,,,,,,,,,,,,,,,,,,,,,,53658,2022-11-22_14h05.45.831,vts_reward_expectancy_bt_OFFLINE,2022.2.4,59.95662174138107,
0,0,1,0,0,0,0,1,hexagon,star,1,0,1,0,0,10,10,8,,,,,,,,,,,,,,,,,,,,,,,,,,,,,,,,,,,,,,,,232.9469667180092,232.9469667180092,232.9469667180092,232.9469667180092,232.9469667180092,232.9469667180092,232.9469667180092,232.9469667180092,232.9469667180092,232.9469667180092,a,0.09210439398884773,1,320,1,233.06360722900718,,234.56547605799278,,,,,,,,,,,,,,,,,,,,,,,,,,,,,,,,,,,,,,,,,,,,,,,,,,,,,,,,,,,,,,,,,,,,,,,,,,53658,2022-11-22_14h05.45.831,vts_reward_expectancy_bt_OFFLINE,2022.2.4,59.95662174138107,
1,0,0,0,0,0,0,1,triangle,star,1,0,1,0,0,11,11,2,,,,,,,,,,,,,,,,,,,,,,,,,,,,,,,,,,,,,,,,235.06589497899404,235.06589497899404,235.06589497899404,235.06589497899404,235.06589497899404,235.06589497899404,235.06589497899404,235.06589497899404,235.06589497899404,235.06589497899404,a,0.009918061987264082,1,321,1,235.09928031801246,,236.60096344299382,,,,,,,,,,,,,,,,,,,,,,,,,,,,,,,,,,,,,,,,,,,,,,,,,,,,,,,,,,,,,,,,,,,,,,,,,,53658,2022-11-22_14h05.45.831,vts_reward_expectancy_bt_OFFLINE,2022.2.4,59.95662174138107,
0,1,0,0,1,0,0,0,circle,triangle,1,0,1,0,1,0,12,3,,,,,,,,,,,,,,,,,,,,,,,,,,,,,,,,,,,,,,,,237.10149754799204,237.10149754799204,237.10149754799204,237.10149754799204,237.10149754799204,237.10149754799204,237.10149754799204,237.10149754799204,237.10149754799204,237.10149754799204,a,0.06736632797401398,1,322,1,237.2013835280086,,238.70304401399335,,,,,,,,,,,,,,,,,,,,,,,,,,,,,,,,,,,,,,,,,,,,,,,,,,,,,,,,,,,,,,,,,,,,,,,,,,53658,2022-11-22_14h05.45.831,vts_reward_expectancy_bt_OFFLINE,2022.2.4,59.95662174138107,
0,0,1,0,1,0,0,0,hexagon,triangle,1,0,1,0,1,1,13,6,,,,,,,,,,,,,,,,,,,,,,,,,,,,,,,,,,,,,,,,239.20358541500173,239.20358541500173,239.20358541500173,239.20358541500173,239.20358541500173,239.20358541500173,239.20358541500173,239.20358541500173,239.20358541500173,239.20358541500173,a,0.14833048798027448,10,332,1,239.37055892299395,,240.8720953729935,,,,,,,,,,,,,,,,,,,,,,,,,,,,,,,,,,,,,,,,,,,,,,,,,,,,,,,,,,,,,,,,,,,,,,,,,,53658,2022-11-22_14h05.45.831,vts_reward_expectancy_bt_OFFLINE,2022.2.4,59.95662174138107,
0,1,0,0,0,0,1,0,circle,hexagon,1,0,1,0,1,2,14,4,,,,,,,,,,,,,,,,,,,,,,,,,,,,,,,,,,,,,,,,241.37286048999522,241.37286048999522,241.37286048999522,241.37286048999522,241.37286048999522,241.37286048999522,241.37286048999522,241.37286048999522,241.37286048999522,241.37286048999522,a,0.5886993359890766,1,333,1,242.0067942890164,,243.49196073500207,,,,,,,,,,,,,,,,,,,,,,,,,,,,,,,,,,,,,,,,,,,,,,,,,,,,,,,,,,,,,,,,,,,,,,,,,,53658,2022-11-22_14h05.45.831,vts_reward_expectancy_bt_OFFLINE,2022.2.4,59.95662174138107,
0,0,0,1,0,0,1,0,star,hexagon,1,0,1,0,1,3,15,11,,,,,,,,,,,,,,,,,,,,,,,,,,,,,,,,,,,,,,,,243.99230409701704,243.99230409701704,243.99230409701704,243.99230409701704,243.99230409701704,243.99230409701704,243.99230409701704,243.99230409701704,243.99230409701704,243.99230409701704,a,1.435508228983963,1,334,1,245.46065794699825,246.96230405999813,246.96230405999813,247.4628128200129,,,,,,,,,,,,,,,,,,,,,,,,,,,,,,,,,,,,,,,,,,,,,,,,,,,,,,,,,,,,,,,,,,,,,,,,,53658,2022-11-22_14h05.45.831,vts_reward_expectancy_bt_OFFLINE,2022.2.4,59.95662174138107,
0,1,0,0,0,0,0,1,circle,star,1,0,1,0,1,4,16,5,,,,,,,,,,,,,,,,,,,,,,,,,,,,,,,,,,,,,,,,247.4628128200129,247.4628128200129,247.4628128200129,247.4628128200129,247.4628128200129,247.4628128200129,247.4628128200129,247.4628128200129,247.4628128200129,247.4628128200129,a,2.7457309359742794,1,335,1,250.23355876500136,,251.73441705701407,,,,,,,,,,,,,,,,,,,,,,,,,,,,,,,,,,,,,,,,,,,,,,,,,,,,,,,,,,,,,,,,,,,,,,,,,,53658,2022-11-22_14h05.45.831,vts_reward_expectancy_bt_OFFLINE,2022.2.4,59.95662174138107,
0,0,1,0,0,0,0,1,hexagon,star,1,0,1,0,1,5,17,8,,,,,,,,,,,,,,,,,,,,,,,,,,,,,,,,,,,,,,,,252.235021822009,252.235021822009,252.235021822009,252.235021822009,252.235021822009,252.235021822009,252.235021822009,252.235021822009,252.235021822009,252.235021822009,a,0.24519464300828986,1,336,1,252.50172011301038,254.0034853440011,254.0034853440011,,,,,,,,,,,,,,,,,,,,,,,,,,,,,,,,,,,,,,,,,,,,,,,,,,,,,,,,,,,,,,,,,,,,,,,,,,53658,2022-11-22_14h05.45.831,vts_reward_expectancy_bt_OFFLINE,2022.2.4,59.95662174138107,
0,0,0,1,0,1,0,0,star ,circle,1,0,1,0,1,6,18,10,,,,,,,,,,,,,,,,,,,,,,,,,,,,,,,,,,,,,,,,254.5040371970099,254.5040371970099,254.5040371970099,254.5040371970099,254.5040371970099,254.5040371970099,254.5040371970099,254.5040371970099,254.5040371970099,254.5040371970099,l,0.7215203179803211,10,346,1,255.25497416299186,256.75667123199673,256.75667123199673,,,,,,,,,,,,,,,,,,,,,,,,,,,,,,,,,,,,,,,,,,,,,,,,,,,,,,,,,,,,,,,,,,,,,,,,,,53658,2022-11-22_14h05.45.831,vts_reward_expectancy_bt_OFFLINE,2022.2.4,59.95662174138107,
0,0,0,1,1,0,0,0,star,triangle,1,0,1,0,1,7,19,9,,,,,,,,,,,,,,,,,,,,,,,,,,,,,,,,,,,,,,,,257.25692480799626,257.25692480799626,257.25692480799626,257.25692480799626,257.25692480799626,257.25692480799626,257.25692480799626,257.25692480799626,257.25692480799626,257.25692480799626,l,0.1410026949888561,1,347,1,257.42384933901485,,258.9255913730012,,,,,,,,,,,,,,,,,,,,,,,,,,,,,,,,,,,,,,,,,,,,,,,,,,,,,,,,,,,,,,,,,,,,,,,,,,53658,2022-11-22_14h05.45.831,vts_reward_expectancy_bt_OFFLINE,2022.2.4,59.95662174138107,
1,0,0,0,0,1,0,0,triangle,circle,1,0,1,0,1,8,20,0,,,,,,,,,,,,,,,,,,,,,,,,,,,,,,,,,,,,,,,,259.4259931940178,259.4259931940178,259.4259931940178,259.4259931940178,259.4259931940178,259.4259931940178,259.4259931940178,259.4259931940178,259.4259931940178,259.4259931940178,l,0.1880406450072769,10,357,1,259.6434723389975,,261.1447229869955,,,,,,,,,,,,,,,,,,,,,,,,,,,,,,,,,,,,,,,,,,,,,,,,,,,,,,,,,,,,,,,,,,,,,,,,,,53658,2022-11-22_14h05.45.831,vts_reward_expectancy_bt_OFFLINE,2022.2.4,59.95662174138107,
1,0,0,0,0,0,0,1,triangle,star,1,0,1,0,1,9,21,2,,,,,,,,,,,,,,,,,,,,,,,,,,,,,,,,,,,,,,,,261.6451925979927,261.6451925979927,261.6451925979927,261.6451925979927,261.6451925979927,261.6451925979927,261.6451925979927,261.6451925979927,261.6451925979927,261.6451925979927,l,0.15126496698940173,10,367,1,261.8287218330079,,263.33034274500096,,,,,,,,,,,,,,,,,,,,,,,,,,,,,,,,,,,,,,,,,,,,,,,,,,,,,,,,,,,,,,,,,,,,,,,,,,53658,2022-11-22_14h05.45.831,vts_reward_expectancy_bt_OFFLINE,2022.2.4,59.95662174138107,
1,0,0,0,0,0,1,0,triangle,hexagon,1,0,1,0,1,10,22,1,,,,,,,,,,,,,,,,,,,,,,,,,,,,,,,,,,,,,,,,263.8309279739915,263.8309279739915,263.8309279739915,263.8309279739915,263.8309279739915,263.8309279739915,263.8309279739915,263.8309279739915,263.8309279739915,263.8309279739915,l,0.09230151999508962,1,368,1,263.9481463730044,,265.4493816680042,,,,,,,,,,,,,,,,,,,,,,,,,,,,,,,,,,,,,,,,,,,,,,,,,,,,,,,,,,,,,,,,,,,,,,,,,,53658,2022-11-22_14h05.45.831,vts_reward_expectancy_bt_OFFLINE,2022.2.4,59.95662174138107,
0,0,1,0,0,1,0,0,hexagon,circle,1,0,1,0,1,11,23,7,,,,,,,,,,,,,,,,,,,,,,,,,,,,,,,,,,,,,,,,265.95001700901776,265.95001700901776,265.95001700901776,265.95001700901776,265.95001700901776,265.95001700901776,265.95001700901776,265.95001700901776,265.95001700901776,265.95001700901776,l,0.21179915498942137,10,378,1,266.18436223699246,,267.68529557299917,,,,,,,,,,,,,,,,,,,,,,,,,,,,,,,,,,,,,,,,,,,,,,,,,,,,,,,,,,,,,,,,,,,,,,,,,,53658,2022-11-22_14h05.45.831,vts_reward_expectancy_bt_OFFLINE,2022.2.4,59.95662174138107,
0,1,0,0,0,0,0,1,circle,star,1,0,1,0,2,0,24,5,,,,,,,,,,,,,,,,,,,,,,,,,,,,,,,,,,,,,,,,268.18577664901386,268.18577664901386,268.18577664901386,268.18577664901386,268.18577664901386,268.18577664901386,268.18577664901386,268.18577664901386,268.18577664901386,268.18577664901386,l,0.1478575269866269,10,388,1,268.352677657007,,269.85437477499363,,,,,,,,,,,,,,,,,,,,,,,,,,,,,,,,,,,,,,,,,,,,,,,,,,,,,,,,,,,,,,,,,,,,,,,,,,53658,2022-11-22_14h05.45.831,vts_reward_expectancy_bt_OFFLINE,2022.2.4,59.95662174138107,
0,0,0,1,0,1,0,0,star ,circle,1,0,1,0,2,1,25,10,,,,,,,,,,,,,,,,,,,,,,,,,,,,,,,,,,,,,,,,270.35480715800077,270.35480715800077,270.35480715800077,270.35480715800077,270.35480715800077,270.35480715800077,270.35480715800077,270.35480715800077,270.35480715800077,270.35480715800077,l,0.2748703779943753,1,389,1,270.6561441239901,272.1566804680042,272.1566804680042,,,,,,,,,,,,,,,,,,,,,,,,,,,,,,,,,,,,,,,,,,,,,,,,,,,,,,,,,,,,,,,,,,,,,,,,,,53658,2022-11-22_14h05.45.831,vts_reward_expectancy_bt_OFFLINE,2022.2.4,59.95662174138107,
1,0,0,0,0,0,0,1,triangle,star,1,0,1,0,2,2,26,2,,,,,,,,,,,,,,,,,,,,,,,,,,,,,,,,,,,,,,,,272.65719201700995,272.65719201700995,272.65719201700995,272.65719201700995,272.65719201700995,272.65719201700995,272.65719201700995,272.65719201700995,272.65719201700995,272.65719201700995,l,0.17575375197338872,1,390,1,272.85765537800035,,274.35914985701675,,,,,,,,,,,,,,,,,,,,,,,,,,,,,,,,,,,,,,,,,,,,,,,,,,,,,,,,,,,,,,,,,,,,,,,,,,53658,2022-11-22_14h05.45.831,vts_reward_expectancy_bt_OFFLINE,2022.2.4,59.95662174138107,
0,0,1,0,0,0,0,1,hexagon,star,1,0,1,0,2,3,27,8,,,,,,,,,,,,,,,,,,,,,,,,,,,,,,,,,,,,,,,,274.85969795801793,274.85969795801793,274.85969795801793,274.85969795801793,274.85969795801793,274.85969795801793,274.85969795801793,274.85969795801793,274.85969795801793,274.85969795801793,l,0.05451445101061836,10,400,1,274.9439622820064,,276.4449331389915,,,,,,,,,,,,,,,,,,,,,,,,,,,,,,,,,,,,,,,,,,,,,,,,,,,,,,,,,,,,,,,,,,,,,,,,,,53658,2022-11-22_14h05.45.831,vts_reward_expectancy_bt_OFFLINE,2022.2.4,59.95662174138107,
0,0,1,0,0,1,0,0,hexagon,circle,1,0,1,0,2,4,28,7,,,,,,,,,,,,,,,,,,,,,,,,,,,,,,,,,,,,,,,,276.9454356089991,276.9454356089991,276.9454356089991,276.9454356089991,276.9454356089991,276.9454356089991,276.9454356089991,276.9454356089991,276.9454356089991,276.9454356089991,l,0.029068726988043636,10,410,1,276.9953729120025,,278.49712660501245,,,,,,,,,,,,,,,,,,,,,,,,,,,,,,,,,,,,,,,,,,,,,,,,,,,,,,,,,,,,,,,,,,,,,,,,,,53658,2022-11-22_14h05.45.831,vts_reward_expectancy_bt_OFFLINE,2022.2.4,59.95662174138107,
0,0,1,0,1,0,0,0,hexagon,triangle,1,0,1,0,2,5,29,6,,,,,,,,,,,,,,,,,,,,,,,,,,,,,,,,,,,,,,,,278.9975579130114,278.9975579130114,278.9975579130114,278.9975579130114,278.9975579130114,278.9975579130114,278.9975579130114,278.9975579130114,278.9975579130114,278.9975579130114,l,0.000902181986020878,10,420,1,279.0147236830089,280.51603031001287,280.51603031001287,281.016542168014,,,,,,,,,,,,,,,,,,,,,,,,,,,,,,,,,,,,,,,,,,,,,,,,,,,,,,,,,,,,,,,,,,,,,,,,,53658,2022-11-22_14h05.45.831,vts_reward_expectancy_bt_OFFLINE,2022.2.4,59.95662174138107,
1,0,0,0,0,0,1,0,triangle,hexagon,1,0,1,0,2,6,30,1,,,,,,,,,,,,,,,,,,,,,,,,,,,,,,,,,,,,,,,,281.016542168014,281.016542168014,281.016542168014,281.016542168014,281.016542168014,281.016542168014,281.016542168014,281.016542168014,281.016542168014,281.016542168014,l,0.23418606497580186,1,421,1,281.28345938801067,,282.7852034539974,,,,,,,,,,,,,,,,,,,,,,,,,,,,,,,,,,,,,,,,,,,,,,,,,,,,,,,,,,,,,,,,,,,,,,,,,,53658,2022-11-22_14h05.45.831,vts_reward_expectancy_bt_OFFLINE,2022.2.4,59.95662174138107,
0,0,0,1,1,0,0,0,star,triangle,1,0,1,0,2,7,31,9,,,,,,,,,,,,,,,,,,,,,,,,,,,,,,,,,,,,,,,,283.28571824901155,283.28571824901155,283.28571824901155,283.28571824901155,283.28571824901155,283.28571824901155,283.28571824901155,283.28571824901155,283.28571824901155,283.28571824901155,l,0.07832331900135614,1,422,1,283.38578711499576,,284.8874043050164,,,,,,,,,,,,,,,,,,,,,,,,,,,,,,,,,,,,,,,,,,,,,,,,,,,,,,,,,,,,,,,,,,,,,,,,,,53658,2022-11-22_14h05.45.831,vts_reward_expectancy_bt_OFFLINE,2022.2.4,59.95662174138107,
0,1,0,0,1,0,0,0,circle,triangle,1,0,1,0,2,8,32,3,,,,,,,,,,,,,,,,,,,,,,,,,,,,,,,,,,,,,,,,285.3881668999966,285.3881668999966,285.3881668999966,285.3881668999966,285.3881668999966,285.3881668999966,285.3881668999966,285.3881668999966,285.3881668999966,285.3881668999966,l,0.03462457098066807,1,423,1,285.4548518669908,,286.95635748200584,,,,,,,,,,,,,,,,,,,,,,,,,,,,,,,,,,,,,,,,,,,,,,,,,,,,,,,,,,,,,,,,,,,,,,,,,,53658,2022-11-22_14h05.45.831,vts_reward_expectancy_bt_OFFLINE,2022.2.4,59.95662174138107,
0,0,0,1,0,0,1,0,star,hexagon,1,0,1,0,2,9,33,11,,,,,,,,,,,,,,,,,,,,,,,,,,,,,,,,,,,,,,,,287.4570621220046,287.4570621220046,287.4570621220046,287.4570621220046,287.4570621220046,287.4570621220046,287.4570621220046,287.4570621220046,287.4570621220046,287.4570621220046,l,0.05886134397587739,1,424,1,287.5402748520137,,289.042129206995,,,,,,,,,,,,,,,,,,,,,,,,,,,,,,,,,,,,,,,,,,,,,,,,,,,,,,,,,,,,,,,,,,,,,,,,,,53658,2022-11-22_14h05.45.831,vts_reward_expectancy_bt_OFFLINE,2022.2.4,59.95662174138107,
0,1,0,0,0,0,1,0,circle,hexagon,1,0,1,0,2,10,34,4,,,,,,,,,,,,,,,,,,,,,,,,,,,,,,,,,,,,,,,,289.54269817701424,289.54269817701424,289.54269817701424,289.54269817701424,289.54269817701424,289.54269817701424,289.54269817701424,289.54269817701424,289.54269817701424,289.54269817701424,l,0.34731089998967946,1,425,1,289.90968133701244,,291.4114344190166,,,,,,,,,,,,,,,,,,,,,,,,,,,,,,,,,,,,,,,,,,,,,,,,,,,,,,,,,,,,,,,,,,,,,,,,,,53658,2022-11-22_14h05.45.831,vts_reward_expectancy_bt_OFFLINE,2022.2.4,59.95662174138107,
1,0,0,0,0,1,0,0,triangle,circle,1,0,1,0,2,11,35,0,,,,,,,,,,,,,,,,,,,,,,,,,,,,,,,,,,,,,,,,291.9118622250098,291.9118622250098,291.9118622250098,291.9118622250098,291.9118622250098,291.9118622250098,291.9118622250098,291.9118622250098,291.9118622250098,291.9118622250098,a,0.22807898797327653,10,435,1,292.1641105299932,,293.6641501970007,,,,,,,,,,,,,,,,,,,,,,,,,,,,,,,,,,,,,,,,,,,,,,,,,,,,,,,,,,,,,,,,,,,,,,,,,,53658,2022-11-22_14h05.45.831,vts_reward_expectancy_bt_OFFLINE,2022.2.4,59.95662174138107,
0,0,0,1,0,1,0,0,star ,circle,1,0,1,0,3,0,36,10,,,,,,,,,,,,,,,,,,,,,,,,,,,,,,,,,,,,,,,,294.1645318499941,294.1645318499941,294.1645318499941,294.1645318499941,294.1645318499941,294.1645318499941,294.1645318499941,294.1645318499941,294.1645318499941,294.1645318499941,a,0.034247038973262534,10,445,1,294.2313172639988,295.73299983900506,295.73299983900506,296.2336222430167,,,,,,,,,,,,,,,,,,,,,,,,,,,,,,,,,,,,,,,,,,,,,,,,,,,,,,,,,,,,,,,,,,,,,,,,,53658,2022-11-22_14h05.45.831,vts_reward_expectancy_bt_OFFLINE,2022.2.4,59.95662174138107,
0,0,0,1,1,0,0,0,star,triangle,1,0,1,0,3,1,37,9,,,,,,,,,,,,,,,,,,,,,,,,,,,,,,,,,,,,,,,,296.2336222430167,296.2336222430167,296.2336222430167,296.2336222430167,296.2336222430167,296.2336222430167,296.2336222430167,296.2336222430167,296.2336222430167,296.2336222430167,a,0.04721230600262061,10,455,1,296.3002736319904,,297.8017287100083,,,,,,,,,,,,,,,,,,,,,,,,,,,,,,,,,,,,,,,,,,,,,,,,,,,,,,,,,,,,,,,,,,,,,,,,,,53658,2022-11-22_14h05.45.831,vts_reward_expectancy_bt_OFFLINE,2022.2.4,59.95662174138107,
0,1,0,0,0,0,1,0,circle,hexagon,1,0,1,0,3,2,38,4,,,,,,,,,,,,,,,,,,,,,,,,,,,,,,,,,,,,,,,,298.30234263199964,298.30234263199964,298.30234263199964,298.30234263199964,298.30234263199964,298.30234263199964,298.30234263199964,298.30234263199964,298.30234263199964,298.30234263199964,a,0.21805216299253516,10,465,1,298.552706115006,300.05416093199165,300.05416093199165,300.5549329830101,,,,,,,,,,,,,,,,,,,,,,,,,,,,,,,,,,,,,,,,,,,,,,,,,,,,,,,,,,,,,,,,,,,,,,,,,53658,2022-11-22_14h05.45.831,vts_reward_expectancy_bt_OFFLINE,2022.2.4,59.95662174138107,
0,0,1,0,0,0,0,1,hexagon,star,1,0,1,0,3,3,39,8,,,,,,,,,,,,,,,,,,,,,,,,,,,,,,,,,,,,,,,,300.5549329830101,300.5549329830101,300.5549329830101,300.5549329830101,300.5549329830101,300.5549329830101,300.5549329830101,300.5549329830101,300.5549329830101,300.5549329830101,a,0.03423915198072791,1,466,1,300.6216373380157,302.1231725690013,302.1231725690013,,,,,,,,,,,,,,,,,,,,,,,,,,,,,,,,,,,,,,,,,,,,,,,,,,,,,,,,,,,,,,,,,,,,,,,,,,53658,2022-11-22_14h05.45.831,vts_reward_expectancy_bt_OFFLINE,2022.2.4,59.95662174138107,
0,1,0,0,1,0,0,0,circle,triangle,1,0,1,0,3,4,40,3,,,,,,,,,,,,,,,,,,,,,,,,,,,,,,,,,,,,,,,,302.6237644290086,302.6237644290086,302.6237644290086,302.6237644290086,302.6237644290086,302.6237644290086,302.6237644290086,302.6237644290086,302.6237644290086,302.6237644290086,l,0.37422241998137906,1,467,1,303.0243166680157,,304.5258165129926,,,,,,,,,,,,,,,,,,,,,,,,,,,,,,,,,,,,,,,,,,,,,,,,,,,,,,,,,,,,,,,,,,,,,,,,,,53658,2022-11-22_14h05.45.831,vts_reward_expectancy_bt_OFFLINE,2022.2.4,59.95662174138107,
1,0,0,0,0,0,0,1,triangle,star,1,0,1,0,3,5,41,2,,,,,,,,,,,,,,,,,,,,,,,,,,,,,,,,,,,,,,,,305.02646994401584,305.02646994401584,305.02646994401584,305.02646994401584,305.02646994401584,305.02646994401584,305.02646994401584,305.02646994401584,305.02646994401584,305.02646994401584,a,0.07454954297281802,1,468,1,305.1268664849922,,306.6279144670116,,,,,,,,,,,,,,,,,,,,,,,,,,,,,,,,,,,,,,,,,,,,,,,,,,,,,,,,,,,,,,,,,,,,,,,,,,53658,2022-11-22_14h05.45.831,vts_reward_expectancy_bt_OFFLINE,2022.2.4,59.95662174138107,
1,0,0,0,0,1,0,0,triangle,circle,1,0,1,0,3,6,42,0,,,,,,,,,,,,,,,,,,,,,,,,,,,,,,,,,,,,,,,,307.12865473199054,307.12865473199054,307.12865473199054,307.12865473199054,307.12865473199054,307.12865473199054,307.12865473199054,307.12865473199054,307.12865473199054,307.12865473199054,a,0.15525607799645513,1,469,1,307.31284501199843,308.8138377290161,308.8138377290161,,,,,,,,,,,,,,,,,,,,,,,,,,,,,,,,,,,,,,,,,,,,,,,,,,,,,,,,,,,,,,,,,,,,,,,,,,53658,2022-11-22_14h05.45.831,vts_reward_expectancy_bt_OFFLINE,2022.2.4,59.95662174138107,
0,1,0,0,0,0,0,1,circle,star,1,0,1,0,3,7,43,5,,,,,,,,,,,,,,,,,,,,,,,,,,,,,,,,,,,,,,,,309.3145619970164,309.3145619970164,309.3145619970164,309.3145619970164,309.3145619970164,309.3145619970164,309.3145619970164,309.3145619970164,309.3145619970164,309.3145619970164,a,0.20786042700638063,10,479,1,309.5648423669918,,311.04958011501003,,,,,,,,,,,,,,,,,,,,,,,,,,,,,,,,,,,,,,,,,,,,,,,,,,,,,,,,,,,,,,,,,,,,,,,,,,53658,2022-11-22_14h05.45.831,vts_reward_expectancy_bt_OFFLINE,2022.2.4,59.95662174138107,
0,0,1,0,0,1,0,0,hexagon,circle,1,0,1,0,3,8,44,7,,,,,,,,,,,,,,,,,,,,,,,,,,,,,,,,,,,,,,,,311.55024817900266,311.55024817900266,311.55024817900266,311.55024817900266,311.55024817900266,311.55024817900266,311.55024817900266,311.55024817900266,311.55024817900266,311.55024817900266,a,0.1438157289812807,10,489,1,311.7177725700021,,313.21868055901723,,,,,,,,,,,,,,,,,,,,,,,,,,,,,,,,,,,,,,,,,,,,,,,,,,,,,,,,,,,,,,,,,,,,,,,,,,53658,2022-11-22_14h05.45.831,vts_reward_expectancy_bt_OFFLINE,2022.2.4,59.95662174138107,
0,0,0,1,0,0,1,0,star,hexagon,1,0,1,0,3,9,45,11,,,,,,,,,,,,,,,,,,,,,,,,,,,,,,,,,,,,,,,,313.7192348620156,313.7192348620156,313.7192348620156,313.7192348620156,313.7192348620156,313.7192348620156,313.7192348620156,313.7192348620156,313.7192348620156,313.7192348620156,a,0.03463082999223843,10,499,1,313.80268419499043,,315.30434428999433,,,,,,,,,,,,,,,,,,,,,,,,,,,,,,,,,,,,,,,,,,,,,,,,,,,,,,,,,,,,,,,,,,,,,,,,,,53658,2022-11-22_14h05.45.831,vts_reward_expectancy_bt_OFFLINE,2022.2.4,59.95662174138107,
0,0,1,0,1,0,0,0,hexagon,triangle,1,0,1,0,3,10,46,6,,,,,,,,,,,,,,,,,,,,,,,,,,,,,,,,,,,,,,,,315.80489555199165,315.80489555199165,315.80489555199165,315.80489555199165,315.80489555199165,315.80489555199165,315.80489555199165,315.80489555199165,315.80489555199165,315.80489555199165,a,0.06292792200110853,1,500,1,315.9051982719975,,317.3900053400139,,,,,,,,,,,,,,,,,,,,,,,,,,,,,,,,,,,,,,,,,,,,,,,,,,,,,,,,,,,,,,,,,,,,,,,,,,53658,2022-11-22_14h05.45.831,vts_reward_expectancy_bt_OFFLINE,2022.2.4,59.95662174138107,
1,0,0,0,0,0,1,0,triangle,hexagon,1,0,1,0,3,11,47,1,,,,,,,,,,,,,,,,,,,,,,,,,,,,,,,,,,,,,,,,317.8906277430069,317.8906277430069,317.8906277430069,317.8906277430069,317.8906277430069,317.8906277430069,317.8906277430069,317.8906277430069,317.8906277430069,317.8906277430069,a,3.187440070993034,1,501,1,321.1274430140038,,322.62898629301344,,,,,,,,,,,,,,,,,,,,,,,,,,,,,,,,,,,,,,,,,,,,,,,,,,,,,,,,,,,,,,,,,,,,,,,,,,53658,2022-11-22_14h05.45.831,vts_reward_expectancy_bt_OFFLINE,2022.2.4,59.95662174138107,
0,1,0,0,0,0,0,1,circle,star,2,0,2,0,0,0,0,5,,,,,,,,,,,,,,,,,,,,,,,,,,,,,,,,,,,,,,,,328.7691640169942,328.7691640169942,328.7691640169942,328.7691640169942,328.7691640169942,328.7691640169942,328.7691640169942,328.7691640169942,328.7691640169942,328.7691640169942,a,1.6792698169883806,1,502,2,330.4880226649984,,331.9727884790045,,,,,,,,,,,,,,,,,,,,,,,,,,,,,,,,,,,,,,,,,,,,,,,,,,,,,,,,,,,,,,,,,,,,,,,,,,53658,2022-11-22_14h05.45.831,vts_reward_expectancy_bt_OFFLINE,2022.2.4,59.95662174138107,
0,0,1,0,0,0,0,1,hexagon,star,2,0,2,0,0,1,1,8,,,,,,,,,,,,,,,,,,,,,,,,,,,,,,,,,,,,,,,,332.47366679200786,332.47366679200786,332.47366679200786,332.47366679200786,332.47366679200786,332.47366679200786,332.47366679200786,332.47366679200786,332.47366679200786,332.47366679200786,a,0.5631177419854794,10,512,2,333.073949498008,,334.5588730649906,,,,,,,,,,,,,,,,,,,,,,,,,,,,,,,,,,,,,,,,,,,,,,,,,,,,,,,,,,,,,,,,,,,,,,,,,,53658,2022-11-22_14h05.45.831,vts_reward_expectancy_bt_OFFLINE,2022.2.4,59.95662174138107,
0,0,0,1,0,0,1,0,star,hexagon,2,0,2,0,0,2,2,11,,,,,,,,,,,,,,,,,,,,,,,,,,,,,,,,,,,,,,,,335.0595318739943,335.0595318739943,335.0595318739943,335.0595318739943,335.0595318739943,335.0595318739943,335.0595318739943,335.0595318739943,335.0595318739943,335.0595318739943,l,2.521745057980297,1,513,2,337.6291761570028,339.1306320349977,339.1306320349977,,,,,,,,,,,,,,,,,,,,,,,,,,,,,,,,,,,,,,,,,,,,,,,,,,,,,,,,,,,,,,,,,,,,,,,,,,53658,2022-11-22_14h05.45.831,vts_reward_expectancy_bt_OFFLINE,2022.2.4,59.95662174138107,
0,0,0,1,1,0,0,0,star,triangle,2,0,2,0,0,3,3,9,,,,,,,,,,,,,,,,,,,,,,,,,,,,,,,,,,,,,,,,339.6311802100099,339.6311802100099,339.6311802100099,339.6311802100099,339.6311802100099,339.6311802100099,339.6311802100099,339.6311802100099,339.6311802100099,339.6311802100099,a,0.1680568789888639,10,523,2,339.8482224789914,,341.34984654499567,,,,,,,,,,,,,,,,,,,,,,,,,,,,,,,,,,,,,,,,,,,,,,,,,,,,,,,,,,,,,,,,,,,,,,,,,,53658,2022-11-22_14h05.45.831,vts_reward_expectancy_bt_OFFLINE,2022.2.4,59.95662174138107,
1,0,0,0,0,1,0,0,triangle,circle,2,0,2,0,0,4,4,0,,,,,,,,,,,,,,,,,,,,,,,,,,,,,,,,,,,,,,,,341.8503677450062,341.8503677450062,341.8503677450062,341.8503677450062,341.8503677450062,341.8503677450062,341.8503677450062,341.8503677450062,341.8503677450062,341.8503677450062,a,0.4349154139927123,10,533,2,342.33423282799777,,343.8359682619921,,,,,,,,,,,,,,,,,,,,,,,,,,,,,,,,,,,,,,,,,,,,,,,,,,,,,,,,,,,,,,,,,,,,,,,,,,53658,2022-11-22_14h05.45.831,vts_reward_expectancy_bt_OFFLINE,2022.2.4,59.95662174138107,
0,0,1,0,1,0,0,0,hexagon,triangle,2,0,2,0,0,5,5,6,,,,,,,,,,,,,,,,,,,,,,,,,,,,,,,,,,,,,,,,344.3362692219962,344.3362692219962,344.3362692219962,344.3362692219962,344.3362692219962,344.3362692219962,344.3362692219962,344.3362692219962,344.3362692219962,344.3362692219962,a,0.6594566669955384,10,543,2,345.021629002993,,346.52233366001747,,,,,,,,,,,,,,,,,,,,,,,,,,,,,,,,,,,,,,,,,,,,,,,,,,,,,,,,,,,,,,,,,,,,,,,,,,53658,2022-11-22_14h05.45.831,vts_reward_expectancy_bt_OFFLINE,2022.2.4,59.95662174138107,
0,0,0,1,0,1,0,0,star ,circle,2,0,2,0,0,6,6,10,,,,,,,,,,,,,,,,,,,,,,,,,,,,,,,,,,,,,,,,347.02263195900014,347.02263195900014,347.02263195900014,347.02263195900014,347.02263195900014,347.02263195900014,347.02263195900014,347.02263195900014,347.02263195900014,347.02263195900014,a,0.504350118979346,10,553,2,347.5733962850063,,349.0750140880118,,,,,,,,,,,,,,,,,,,,,,,,,,,,,,,,,,,,,,,,,,,,,,,,,,,,,,,,,,,,,,,,,,,,,,,,,,53658,2022-11-22_14h05.45.831,vts_reward_expectancy_bt_OFFLINE,2022.2.4,59.95662174138107,
1,0,0,0,0,0,1,0,triangle,hexagon,2,0,2,0,0,7,7,1,,,,,,,,,,,,,,,,,,,,,,,,,,,,,,,,,,,,,,,,349.5755196920072,349.5755196920072,349.5755196920072,349.5755196920072,349.5755196920072,349.5755196920072,349.5755196920072,349.5755196920072,349.5755196920072,349.5755196920072,l,3.1495788719912525,10,563,2,352.7466463620076,,354.24745923199225,,,,,,,,,,,,,,,,,,,,,,,,,,,,,,,,,,,,,,,,,,,,,,,,,,,,,,,,,,,,,,,,,,,,,,,,,,53658,2022-11-22_14h05.45.831,vts_reward_expectancy_bt_OFFLINE,2022.2.4,59.95662174138107,
0,0,1,0,0,1,0,0,hexagon,circle,2,0,2,0,0,8,8,7,,,,,,,,,,,,,,,,,,,,,,,,,,,,,,,,,,,,,,,,354.74783301900607,354.74783301900607,354.74783301900607,354.74783301900607,354.74783301900607,354.74783301900607,354.74783301900607,354.74783301900607,354.74783301900607,354.74783301900607,a,1.1186789839994162,10,573,2,355.91577362499083,,357.4176355850068,,,,,,,,,,,,,,,,,,,,,,,,,,,,,,,,,,,,,,,,,,,,,,,,,,,,,,,,,,,,,,,,,,,,,,,,,,53658,2022-11-22_14h05.45.831,vts_reward_expectancy_bt_OFFLINE,2022.2.4,59.95662174138107,
1,0,0,0,0,0,0,1,triangle,star,2,0,2,0,0,9,9,2,,,,,,,,,,,,,,,,,,,,,,,,,,,,,,,,,,,,,,,,357.91824779001763,357.91824779001763,357.91824779001763,357.91824779001763,357.91824779001763,357.91824779001763,357.91824779001763,357.91824779001763,357.91824779001763,357.91824779001763,l,1.0967385949916206,1,574,2,359.05278536700644,,360.5545355619979,,,,,,,,,,,,,,,,,,,,,,,,,,,,,,,,,,,,,,,,,,,,,,,,,,,,,,,,,,,,,,,,,,,,,,,,,,53658,2022-11-22_14h05.45.831,vts_reward_expectancy_bt_OFFLINE,2022.2.4,59.95662174138107,
0,1,0,0,0,0,1,0,circle,hexagon,2,0,2,0,0,10,10,4,,,,,,,,,,,,,,,,,,,,,,,,,,,,,,,,,,,,,,,,361.0381756100105,361.0381756100105,361.0381756100105,361.0381756100105,361.0381756100105,361.0381756100105,361.0381756100105,361.0381756100105,361.0381756100105,361.0381756100105,l,1.0698934289976023,1,575,2,362.15596557900426,363.65775097199366,363.65775097199366,,,,,,,,,,,,,,,,,,,,,,,,,,,,,,,,,,,,,,,,,,,,,,,,,,,,,,,,,,,,,,,,,,,,,,,,,,53658,2022-11-22_14h05.45.831,vts_reward_expectancy_bt_OFFLINE,2022.2.4,59.95662174138107,
0,1,0,0,1,0,0,0,circle,triangle,2,0,2,0,0,11,11,3,,,,,,,,,,,,,,,,,,,,,,,,,,,,,,,,,,,,,,,,364.1583299729973,364.1583299729973,364.1583299729973,364.1583299729973,364.1583299729973,364.1583299729973,364.1583299729973,364.1583299729973,364.1583299729973,364.1583299729973,l,1.0445904750085901,10,585,2,365.24293228500756,,366.72770777801634,,,,,,,,,,,,,,,,,,,,,,,,,,,,,,,,,,,,,,,,,,,,,,,,,,,,,,,,,,,,,,,,,,,,,,,,,,53658,2022-11-22_14h05.45.831,vts_reward_expectancy_bt_OFFLINE,2022.2.4,59.95662174138107,
0,0,0,1,0,0,1,0,star,hexagon,2,0,2,0,1,0,12,11,,,,,,,,,,,,,,,,,,,,,,,,,,,,,,,,,,,,,,,,367.22834857500857,367.22834857500857,367.22834857500857,367.22834857500857,367.22834857500857,367.22834857500857,367.22834857500857,367.22834857500857,367.22834857500857,367.22834857500857,a,3.813519091985654,1,586,2,371.0827080369927,,372.5677456519916,,,,,,,,,,,,,,,,,,,,,,,,,,,,,,,,,,,,,,,,,,,,,,,,,,,,,,,,,,,,,,,,,,,,,,,,,,53658,2022-11-22_14h05.45.831,vts_reward_expectancy_bt_OFFLINE,2022.2.4,59.95662174138107,
0,0,1,0,0,1,0,0,hexagon,circle,2,0,2,0,1,1,13,7,,,,,,,,,,,,,,,,,,,,,,,,,,,,,,,,,,,,,,,,373.0681614619971,373.0681614619971,373.0681614619971,373.0681614619971,373.0681614619971,373.0681614619971,373.0681614619971,373.0681614619971,373.0681614619971,373.0681614619971,a,0.8768656239844859,1,587,2,373.97027731401613,,375.47082926199073,,,,,,,,,,,,,,,,,,,,,,,,,,,,,,,,,,,,,,,,,,,,,,,,,,,,,,,,,,,,,,,,,,,,,,,,,,53658,2022-11-22_14h05.45.831,vts_reward_expectancy_bt_OFFLINE,2022.2.4,59.95662174138107,
0,0,1,0,0,0,0,1,hexagon,star,2,0,2,0,1,2,14,8,,,,,,,,,,,,,,,,,,,,,,,,,,,,,,,,,,,,,,,,375.9713020519994,375.9713020519994,375.9713020519994,375.9713020519994,375.9713020519994,375.9713020519994,375.9713020519994,375.9713020519994,375.9713020519994,375.9713020519994,l,3.474788516992703,10,597,2,379.49201797301066,,380.9767509000085,,,,,,,,,,,,,,,,,,,,,,,,,,,,,,,,,,,,,,,,,,,,,,,,,,,,,,,,,,,,,,,,,,,,,,,,,,53658,2022-11-22_14h05.45.831,vts_reward_expectancy_bt_OFFLINE,2022.2.4,59.95662174138107,
0,1,0,0,0,0,1,0,circle,hexagon,2,0,2,0,1,3,15,4,,,,,,,,,,,,,,,,,,,,,,,,,,,,,,,,,,,,,,,,381.4773038320127,381.4773038320127,381.4773038320127,381.4773038320127,381.4773038320127,381.4773038320127,381.4773038320127,381.4773038320127,381.4773038320127,381.4773038320127,a,1.940664977999404,10,607,2,383.4475790669967,,384.9478724189976,,,,,,,,,,,,,,,,,,,,,,,,,,,,,,,,,,,,,,,,,,,,,,,,,,,,,,,,,,,,,,,,,,,,,,,,,,53658,2022-11-22_14h05.45.831,vts_reward_expectancy_bt_OFFLINE,2022.2.4,59.95662174138107,
1,0,0,0,0,1,0,0,triangle,circle,2,0,2,0,1,4,16,0,,,,,,,,,,,,,,,,,,,,,,,,,,,,,,,,,,,,,,,,385.44856199700735,385.44856199700735,385.44856199700735,385.44856199700735,385.44856199700735,385.44856199700735,385.44856199700735,385.44856199700735,385.44856199700735,385.44856199700735,a,1.243645162001485,1,608,2,386.7332703790162,,388.2183990729973,,,,,,,,,,,,,,,,,,,,,,,,,,,,,,,,,,,,,,,,,,,,,,,,,,,,,,,,,,,,,,,,,,,,,,,,,,53658,2022-11-22_14h05.45.831,vts_reward_expectancy_bt_OFFLINE,2022.2.4,59.95662174138107,
1,0,0,0,0,0,1,0,triangle,hexagon,2,0,2,0,1,5,17,1,,,,,,,,,,,,,,,,,,,,,,,,,,,,,,,,,,,,,,,,388.7189197599946,388.7189197599946,388.7189197599946,388.7189197599946,388.7189197599946,388.7189197599946,388.7189197599946,388.7189197599946,388.7189197599946,388.7189197599946,l,1.4719311599910725,10,618,2,390.23703357198974,,391.7388306570065,,,,,,,,,,,,,,,,,,,,,,,,,,,,,,,,,,,,,,,,,,,,,,,,,,,,,,,,,,,,,,,,,,,,,,,,,,53658,2022-11-22_14h05.45.831,vts_reward_expectancy_bt_OFFLINE,2022.2.4,59.95662174138107,
0,0,1,0,1,0,0,0,hexagon,triangle,2,0,2,0,1,6,18,6,,,,,,,,,,,,,,,,,,,,,,,,,,,,,,,,,,,,,,,,392.23937806198956,392.23937806198956,392.23937806198956,392.23937806198956,392.23937806198956,392.23937806198956,392.23937806198956,392.23937806198956,392.23937806198956,392.23937806198956,a,0.7184878409898374,1,619,2,393.0066795000166,,394.50853896999615,,,,,,,,,,,,,,,,,,,,,,,,,,,,,,,,,,,,,,,,,,,,,,,,,,,,,,,,,,,,,,,,,,,,,,,,,,53658,2022-11-22_14h05.45.831,vts_reward_expectancy_bt_OFFLINE,2022.2.4,59.95662174138107,
0,0,0,1,0,1,0,0,star ,circle,2,0,2,0,1,7,19,10,,,,,,,,,,,,,,,,,,,,,,,,,,,,,,,,,,,,,,,,395.00890625300235,395.00890625300235,395.00890625300235,395.00890625300235,395.00890625300235,395.00890625300235,395.00890625300235,395.00890625300235,395.00890625300235,395.00890625300235,a,0.7749817949952558,1,620,2,395.81135022701346,,397.311366155016,,,,,,,,,,,,,,,,,,,,,,,,,,,,,,,,,,,,,,,,,,,,,,,,,,,,,,,,,,,,,,,,,,,,,,,,,,53658,2022-11-22_14h05.45.831,vts_reward_expectancy_bt_OFFLINE,2022.2.4,59.95662174138107,
0,0,0,1,1,0,0,0,star,triangle,2,0,2,0,1,8,20,9,,,,,,,,,,,,,,,,,,,,,,,,,,,,,,,,,,,,,,,,397.8118997880083,397.8118997880083,397.8118997880083,397.8118997880083,397.8118997880083,397.8118997880083,397.8118997880083,397.8118997880083,397.8118997880083,397.8118997880083,a,1.1209427829890046,10,630,2,398.98008903401205,,400.4818293650169,,,,,,,,,,,,,,,,,,,,,,,,,,,,,,,,,,,,,,,,,,,,,,,,,,,,,,,,,,,,,,,,,,,,,,,,,,53658,2022-11-22_14h05.45.831,vts_reward_expectancy_bt_OFFLINE,2022.2.4,59.95662174138107,
0,1,0,0,1,0,0,0,circle,triangle,2,0,2,0,1,9,21,3,,,,,,,,,,,,,,,,,,,,,,,,,,,,,,,,,,,,,,,,400.9822951440001,400.9822951440001,400.9822951440001,400.9822951440001,400.9822951440001,400.9822951440001,400.9822951440001,400.9822951440001,400.9822951440001,400.9822951440001,a,0.8299372119945474,10,640,2,401.8348618079908,,403.3350169250043,,,,,,,,,,,,,,,,,,,,,,,,,,,,,,,,,,,,,,,,,,,,,,,,,,,,,,,,,,,,,,,,,,,,,,,,,,53658,2022-11-22_14h05.45.831,vts_reward_expectancy_bt_OFFLINE,2022.2.4,59.95662174138107,
0,1,0,0,0,0,0,1,circle,star,2,0,2,0,1,10,22,5,,,,,,,,,,,,,,,,,,,,,,,,,,,,,,,,,,,,,,,,403.8353757690056,403.8353757690056,403.8353757690056,403.8353757690056,403.8353757690056,403.8353757690056,403.8353757690056,403.8353757690056,403.8353757690056,403.8353757690056,a,0.4083138499991037,10,650,2,404.2860194980167,,405.7875505720149,,,,,,,,,,,,,,,,,,,,,,,,,,,,,,,,,,,,,,,,,,,,,,,,,,,,,,,,,,,,,,,,,,,,,,,,,,53658,2022-11-22_14h05.45.831,vts_reward_expectancy_bt_OFFLINE,2022.2.4,59.95662174138107,
1,0,0,0,0,0,0,1,triangle,star,2,0,2,0,1,11,23,2,,,,,,,,,,,,,,,,,,,,,,,,,,,,,,,,,,,,,,,,406.27144264499657,406.27144264499657,406.27144264499657,406.27144264499657,406.27144264499657,406.27144264499657,406.27144264499657,406.27144264499657,406.27144264499657,406.27144264499657,a,2.393162257008953,1,651,2,408.7074898130086,,410.19226712500677,,,,,,,,,,,,,,,,,,,,,,,,,,,,,,,,,,,,,,,,,,,,,,,,,,,,,,,,,,,,,,,,,,,,,,,,,,53658,2022-11-22_14h05.45.831,vts_reward_expectancy_bt_OFFLINE,2022.2.4,59.95662174138107,
1,0,0,0,0,0,1,0,triangle,hexagon,2,0,2,0,2,0,24,1,,,,,,,,,,,,,,,,,,,,,,,,,,,,,,,,,,,,,,,,410.6928543600079,410.6928543600079,410.6928543600079,410.6928543600079,410.6928543600079,410.6928543600079,410.6928543600079,410.6928543600079,410.6928543600079,410.6928543600079,l,1.2920311079942621,10,661,2,412.02808252500836,,413.512874462991,,,,,,,,,,,,,,,,,,,,,,,,,,,,,,,,,,,,,,,,,,,,,,,,,,,,,,,,,,,,,,,,,,,,,,,,,,53658,2022-11-22_14h05.45.831,vts_reward_expectancy_bt_OFFLINE,2022.2.4,59.95662174138107,
1,0,0,0,0,1,0,0,triangle,circle,2,0,2,0,2,1,25,0,,,,,,,,,,,,,,,,,,,,,,,,,,,,,,,,,,,,,,,,414.01331359701,414.01331359701,414.01331359701,414.01331359701,414.01331359701,414.01331359701,414.01331359701,414.01331359701,414.01331359701,414.01331359701,l,1.9531747789878864,10,671,2,416.01560101500945,,417.5171290319995,,,,,,,,,,,,,,,,,,,,,,,,,,,,,,,,,,,,,,,,,,,,,,,,,,,,,,,,,,,,,,,,,,,,,,,,,,53658,2022-11-22_14h05.45.831,vts_reward_expectancy_bt_OFFLINE,2022.2.4,59.95662174138107,
1,0,0,0,0,0,0,1,triangle,star,2,0,2,0,2,2,26,2,,,,,,,,,,,,,,,,,,,,,,,,,,,,,,,,,,,,,,,,418.01772140400135,418.01772140400135,418.01772140400135,418.01772140400135,418.01772140400135,418.01772140400135,418.01772140400135,418.01772140400135,418.01772140400135,418.01772140400135,l,1.604864673980046,1,672,2,419.66976879700087,,421.17143282899633,,,,,,,,,,,,,,,,,,,,,,,,,,,,,,,,,,,,,,,,,,,,,,,,,,,,,,,,,,,,,,,,,,,,,,,,,,53658,2022-11-22_14h05.45.831,vts_reward_expectancy_bt_OFFLINE,2022.2.4,59.95662174138107,
0,0,1,0,1,0,0,0,hexagon,triangle,2,0,2,0,2,3,27,6,,,,,,,,,,,,,,,,,,,,,,,,,,,,,,,,,,,,,,,,421.6718159650045,421.6718159650045,421.6718159650045,421.6718159650045,421.6718159650045,421.6718159650045,421.6718159650045,421.6718159650045,421.6718159650045,421.6718159650045,a,1.9115643559780437,10,682,2,423.6239235319954,,425.1087651429989,,,,,,,,,,,,,,,,,,,,,,,,,,,,,,,,,,,,,,,,,,,,,,,,,,,,,,,,,,,,,,,,,,,,,,,,,,53658,2022-11-22_14h05.45.831,vts_reward_expectancy_bt_OFFLINE,2022.2.4,59.95662174138107,
0,0,1,0,0,0,0,1,hexagon,star,2,0,2,0,2,4,28,8,,,,,,,,,,,,,,,,,,,,,,,,,,,,,,,,,,,,,,,,425.6094164440001,425.6094164440001,425.6094164440001,425.6094164440001,425.6094164440001,425.6094164440001,425.6094164440001,425.6094164440001,425.6094164440001,425.6094164440001,a,1.6303316189732868,10,692,2,427.2781463720021,,428.76291856201715,,,,,,,,,,,,,,,,,,,,,,,,,,,,,,,,,,,,,,,,,,,,,,,,,,,,,,,,,,,,,,,,,,,,,,,,,,53658,2022-11-22_14h05.45.831,vts_reward_expectancy_bt_OFFLINE,2022.2.4,59.95662174138107,
0,1,0,0,1,0,0,0,circle,triangle,2,0,2,0,2,5,29,3,,,,,,,,,,,,,,,,,,,,,,,,,,,,,,,,,,,,,,,,429.26347450198955,429.26347450198955,429.26347450198955,429.26347450198955,429.26347450198955,429.26347450198955,429.26347450198955,429.26347450198955,429.26347450198955,429.26347450198955,a,1.869942199002253,1,693,2,431.18222593399696,,432.6839409630047,,,,,,,,,,,,,,,,,,,,,,,,,,,,,,,,,,,,,,,,,,,,,,,,,,,,,,,,,,,,,,,,,,,,,,,,,,53658,2022-11-22_14h05.45.831,vts_reward_expectancy_bt_OFFLINE,2022.2.4,59.95662174138107,
0,1,0,0,0,0,1,0,circle,hexagon,2,0,2,0,2,6,30,4,,,,,,,,,,,,,,,,,,,,,,,,,,,,,,,,,,,,,,,,433.1844170920085,433.1844170920085,433.1844170920085,433.1844170920085,433.1844170920085,433.1844170920085,433.1844170920085,433.1844170920085,433.1844170920085,433.1844170920085,a,0.5582232050073799,1,694,2,433.77007451900863,,435.27008315199055,,,,,,,,,,,,,,,,,,,,,,,,,,,,,,,,,,,,,,,,,,,,,,,,,,,,,,,,,,,,,,,,,,,,,,,,,,53658,2022-11-22_14h05.45.831,vts_reward_expectancy_bt_OFFLINE,2022.2.4,59.95662174138107,
0,0,0,1,0,1,0,0,star ,circle,2,0,2,0,2,7,31,10,,,,,,,,,,,,,,,,,,,,,,,,,,,,,,,,,,,,,,,,435.7706759330176,435.7706759330176,435.7706759330176,435.7706759330176,435.7706759330176,435.7706759330176,435.7706759330176,435.7706759330176,435.7706759330176,435.7706759330176,a,0.45807503498508595,1,695,2,436.25625312299235,,437.7563971549971,,,,,,,,,,,,,,,,,,,,,,,,,,,,,,,,,,,,,,,,,,,,,,,,,,,,,,,,,,,,,,,,,,,,,,,,,,53658,2022-11-22_14h05.45.831,vts_reward_expectancy_bt_OFFLINE,2022.2.4,59.95662174138107,
0,1,0,0,0,0,0,1,circle,star,2,0,2,0,2,8,32,5,,,,,,,,,,,,,,,,,,,,,,,,,,,,,,,,,,,,,,,,438.25666109699523,438.25666109699523,438.25666109699523,438.25666109699523,438.25666109699523,438.25666109699523,438.25666109699523,438.25666109699523,438.25666109699523,438.25666109699523,a,0.6393596459820401,10,705,2,438.9408531039953,,440.4259478840104,,,,,,,,,,,,,,,,,,,,,,,,,,,,,,,,,,,,,,,,,,,,,,,,,,,,,,,,,,,,,,,,,,,,,,,,,,53658,2022-11-22_14h05.45.831,vts_reward_expectancy_bt_OFFLINE,2022.2.4,59.95662174138107,
0,0,0,1,1,0,0,0,star,triangle,2,0,2,0,2,9,33,9,,,,,,,,,,,,,,,,,,,,,,,,,,,,,,,,,,,,,,,,440.9263997230155,440.9263997230155,440.9263997230155,440.9263997230155,440.9263997230155,440.9263997230155,440.9263997230155,440.9263997230155,440.9263997230155,440.9263997230155,l,0.9955626830051187,1,706,2,441.9608451130043,,443.4457022820134,,,,,,,,,,,,,,,,,,,,,,,,,,,,,,,,,,,,,,,,,,,,,,,,,,,,,,,,,,,,,,,,,,,,,,,,,,53658,2022-11-22_14h05.45.831,vts_reward_expectancy_bt_OFFLINE,2022.2.4,59.95662174138107,
0,0,0,1,0,0,1,0,star,hexagon,2,0,2,0,2,10,34,11,,,,,,,,,,,,,,,,,,,,,,,,,,,,,,,,,,,,,,,,443.94645969901467,443.94645969901467,443.94645969901467,443.94645969901467,443.94645969901467,443.94645969901467,443.94645969901467,443.94645969901467,443.94645969901467,443.94645969901467,a,0.6420251529780217,1,707,2,444.6303715640097,,446.1154044920113,,,,,,,,,,,,,,,,,,,,,,,,,,,,,,,,,,,,,,,,,,,,,,,,,,,,,,,,,,,,,,,,,,,,,,,,,,53658,2022-11-22_14h05.45.831,vts_reward_expectancy_bt_OFFLINE,2022.2.4,59.95662174138107,
0,0,1,0,0,1,0,0,hexagon,circle,2,0,2,0,2,11,35,7,,,,,,,,,,,,,,,,,,,,,,,,,,,,,,,,,,,,,,,,446.6158422040171,446.6158422040171,446.6158422040171,446.6158422040171,446.6158422040171,446.6158422040171,446.6158422040171,446.6158422040171,446.6158422040171,446.6158422040171,a,0.6047615009883884,1,708,2,447.2665537589928,,448.76819072299986,,,,,,,,,,,,,,,,,,,,,,,,,,,,,,,,,,,,,,,,,,,,,,,,,,,,,,,,,,,,,,,,,,,,,,,,,,53658,2022-11-22_14h05.45.831,vts_reward_expectancy_bt_OFFLINE,2022.2.4,59.95662174138107,
0,1,0,0,0,0,1,0,circle,hexagon,2,0,2,0,3,0,36,4,,,,,,,,,,,,,,,,,,,,,,,,,,,,,,,,,,,,,,,,449.2689408590086,449.2689408590086,449.2689408590086,449.2689408590086,449.2689408590086,449.2689408590086,449.2689408590086,449.2689408590086,449.2689408590086,449.2689408590086,l,1.687551116978284,10,718,2,451.00408429201343,,452.5057116050157,,,,,,,,,,,,,,,,,,,,,,,,,,,,,,,,,,,,,,,,,,,,,,,,,,,,,,,,,,,,,,,,,,,,,,,,,,53658,2022-11-22_14h05.45.831,vts_reward_expectancy_bt_OFFLINE,2022.2.4,59.95662174138107,
0,0,0,1,0,1,0,0,star ,circle,2,0,2,0,3,1,37,10,,,,,,,,,,,,,,,,,,,,,,,,,,,,,,,,,,,,,,,,453.0062405249919,453.0062405249919,453.0062405249919,453.0062405249919,453.0062405249919,453.0062405249919,453.0062405249919,453.0062405249919,453.0062405249919,453.0062405249919,a,0.5374022469914053,10,728,2,453.5901260540122,,455.09198465701775,,,,,,,,,,,,,,,,,,,,,,,,,,,,,,,,,,,,,,,,,,,,,,,,,,,,,,,,,,,,,,,,,,,,,,,,,,53658,2022-11-22_14h05.45.831,vts_reward_expectancy_bt_OFFLINE,2022.2.4,59.95662174138107,
0,0,1,0,0,0,0,1,hexagon,star,2,0,2,0,3,2,38,8,,,,,,,,,,,,,,,,,,,,,,,,,,,,,,,,,,,,,,,,455.59259443799965,455.59259443799965,455.59259443799965,455.59259443799965,455.59259443799965,455.59259443799965,455.59259443799965,455.59259443799965,455.59259443799965,455.59259443799965,l,0.5743326489755418,1,729,2,456.21008058000007,,457.6948358200025,,,,,,,,,,,,,,,,,,,,,,,,,,,,,,,,,,,,,,,,,,,,,,,,,,,,,,,,,,,,,,,,,,,,,,,,,,53658,2022-11-22_14h05.45.831,vts_reward_expectancy_bt_OFFLINE,2022.2.4,59.95662174138107,
0,0,0,1,0,0,1,0,star,hexagon,2,0,2,0,3,3,39,11,,,,,,,,,,,,,,,,,,,,,,,,,,,,,,,,,,,,,,,,458.19542357799946,458.19542357799946,458.19542357799946,458.19542357799946,458.19542357799946,458.19542357799946,458.19542357799946,458.19542357799946,458.19542357799946,458.19542357799946,l,1.3022647479956504,10,739,2,459.54699954899843,461.0485178620147,461.0485178620147,,,,,,,,,,,,,,,,,,,,,,,,,,,,,,,,,,,,,,,,,,,,,,,,,,,,,,,,,,,,,,,,,,,,,,,,,,53658,2022-11-22_14h05.45.831,vts_reward_expectancy_bt_OFFLINE,2022.2.4,59.95662174138107,
1,0,0,0,0,1,0,0,triangle,circle,2,0,2,0,3,4,40,0,,,,,,,,,,,,,,,,,,,,,,,,,,,,,,,,,,,,,,,,461.54911708299187,461.54911708299187,461.54911708299187,461.54911708299187,461.54911708299187,461.54911708299187,461.54911708299187,461.54911708299187,461.54911708299187,461.54911708299187,a,0.5791626189893577,1,740,2,462.1666726080002,,463.66798706699046,,,,,,,,,,,,,,,,,,,,,,,,,,,,,,,,,,,,,,,,,,,,,,,,,,,,,,,,,,,,,,,,,,,,,,,,,,53658,2022-11-22_14h05.45.831,vts_reward_expectancy_bt_OFFLINE,2022.2.4,59.95662174138107,
0,0,0,1,1,0,0,0,star,triangle,2,0,2,0,3,5,41,9,,,,,,,,,,,,,,,,,,,,,,,,,,,,,,,,,,,,,,,,464.1519951669907,464.1519951669907,464.1519951669907,464.1519951669907,464.1519951669907,464.1519951669907,464.1519951669907,464.1519951669907,464.1519951669907,464.1519951669907,a,0.5861745009897277,10,750,2,464.7858653489966,,466.2877441419987,,,,,,,,,,,,,,,,,,,,,,,,,,,,,,,,,,,,,,,,,,,,,,,,,,,,,,,,,,,,,,,,,,,,,,,,,,53658,2022-11-22_14h05.45.831,vts_reward_expectancy_bt_OFFLINE,2022.2.4,59.95662174138107,
0,0,1,0,1,0,0,0,hexagon,triangle,2,0,2,0,3,6,42,6,,,,,,,,,,,,,,,,,,,,,,,,,,,,,,,,,,,,,,,,466.78815942798974,466.78815942798974,466.78815942798974,466.78815942798974,466.78815942798974,466.78815942798974,466.78815942798974,466.78815942798974,466.78815942798974,466.78815942798974,l,0.8089943929808214,1,751,2,467.6391402890149,,469.1241542950156,,,,,,,,,,,,,,,,,,,,,,,,,,,,,,,,,,,,,,,,,,,,,,,,,,,,,,,,,,,,,,,,,,,,,,,,,,53658,2022-11-22_14h05.45.831,vts_reward_expectancy_bt_OFFLINE,2022.2.4,59.95662174138107,
0,1,0,0,1,0,0,0,circle,triangle,2,0,2,0,3,7,43,3,,,,,,,,,,,,,,,,,,,,,,,,,,,,,,,,,,,,,,,,469.62457547700615,469.62457547700615,469.62457547700615,469.62457547700615,469.62457547700615,469.62457547700615,469.62457547700615,469.62457547700615,469.62457547700615,469.62457547700615,a,0.6378661509952508,10,761,2,470.30863734000013,,471.8105282190081,,,,,,,,,,,,,,,,,,,,,,,,,,,,,,,,,,,,,,,,,,,,,,,,,,,,,,,,,,,,,,,,,,,,,,,,,,53658,2022-11-22_14h05.45.831,vts_reward_expectancy_bt_OFFLINE,2022.2.4,59.95662174138107,
1,0,0,0,0,0,0,1,triangle,star,2,0,2,0,3,8,44,2,,,,,,,,,,,,,,,,,,,,,,,,,,,,,,,,,,,,,,,,472.3108049890143,472.3108049890143,472.3108049890143,472.3108049890143,472.3108049890143,472.3108049890143,472.3108049890143,472.3108049890143,472.3108049890143,472.3108049890143,l,0.5622057089931332,1,762,2,472.9116430330032,,474.3965904850047,,,,,,,,,,,,,,,,,,,,,,,,,,,,,,,,,,,,,,,,,,,,,,,,,,,,,,,,,,,,,,,,,,,,,,,,,,53658,2022-11-22_14h05.45.831,vts_reward_expectancy_bt_OFFLINE,2022.2.4,59.95662174138107,
0,1,0,0,0,0,0,1,circle,star,2,0,2,0,3,9,45,5,,,,,,,,,,,,,,,,,,,,,,,,,,,,,,,,,,,,,,,,474.8971503119974,474.8971503119974,474.8971503119974,474.8971503119974,474.8971503119974,474.8971503119974,474.8971503119974,474.8971503119974,474.8971503119974,474.8971503119974,a,1.1035491460061166,10,772,2,476.0485832990089,,477.54990006401204,,,,,,,,,,,,,,,,,,,,,,,,,,,,,,,,,,,,,,,,,,,,,,,,,,,,,,,,,,,,,,,,,,,,,,,,,,53658,2022-11-22_14h05.45.831,vts_reward_expectancy_bt_OFFLINE,2022.2.4,59.95662174138107,
0,0,1,0,0,1,0,0,hexagon,circle,2,0,2,0,3,10,46,7,,,,,,,,,,,,,,,,,,,,,,,,,,,,,,,,,,,,,,,,478.0504652289965,478.0504652289965,478.0504652289965,478.0504652289965,478.0504652289965,478.0504652289965,478.0504652289965,478.0504652289965,478.0504652289965,478.0504652289965,a,4.081785357993795,10,782,2,482.17181711201556,,483.6732633119973,,,,,,,,,,,,,,,,,,,,,,,,,,,,,,,,,,,,,,,,,,,,,,,,,,,,,,,,,,,,,,,,,,,,,,,,,,53658,2022-11-22_14h05.45.831,vts_reward_expectancy_bt_OFFLINE,2022.2.4,59.95662174138107,
1,0,0,0,0,0,1,0,triangle,hexagon,2,0,2,0,3,11,47,1,,,,,,,,,,,,,,,,,,,,,,,,,,,,,,,,,,,,,,,,484.15725691401167,484.15725691401167,484.15725691401167,484.15725691401167,484.15725691401167,484.15725691401167,484.15725691401167,484.15725691401167,484.15725691401167,484.15725691401167,l,1.2849050450022332,10,792,2,485.47563029499725,,486.9769744880032,,,,,,,,,,,,,,,,,,,,,,,,,,,,,,,,,,,,,,,,,,,,,,,,,,,,,,,,,,,,,,,,,,,,,,,,,,53658,2022-11-22_14h05.45.831,vts_reward_expectancy_bt_OFFLINE,2022.2.4,59.95662174138107,
,,,,,,,,,,,,,,,,,,0,0,0,0,0,0,0,0,,,,,,,,,,,,,,,,,,,,,,,,,,,,,,,,,,,,,,,,,,,,,,,,,517.243793385016,,125,F,circle,0.0020571229979395866,511.62148483798956,513.1226078630134,513.1226078630134,513.1226078630134,1,0,d,2.570652350987075,0,515.7426069230132,517.243793385016,,,,,,,,,,,,,,,,,,,,,,,,,,,,,,,,,,,,,,,,,,,,,,,,,,,,,,,,,,53658,2022-11-22_14h05.45.831,vts_reward_expectancy_bt_OFFLINE,2022.2.4,59.95662174138107,
,,,,,,,,,,,,,,,,,,0,0,0,0,1,0,1,0,,,,,,,,,,,,,,,,,,,,,,,,,,,,,,,,,,,,,,,,,,,,,,,,,522.149347922008,,139,D,triangle,0.0006158130127005279,518.228119692998,519.7299750340171,519.7299750340171,519.7299750340171,1,0,d,0.8687172809732147,0,520.6475029480061,522.149347922008,,,,,,,,,,,,,,,,,,,,,,,,,,,,,,,,,,,,,,,,,,,,,,,,,,,,,,,,,,53658,2022-11-22_14h05.45.831,vts_reward_expectancy_bt_OFFLINE,2022.2.4,59.95662174138107,
,,,,,,,,,,,,,,,,,,0,0,0,0,2,0,2,0,,,,,,,,,,,,,,,,,,,,,,,,,,,,,,,,,,,,,,,,,,,,,,,,,526.8709382149973,,132,Y,hexagon,0.0010121229861397296,523.1335801020032,524.6352415069996,524.6352415069996,524.6352415069996,1,0,d,0.7116396029887255,0,525.3861920830095,,,,,,,,,,,,,,,,,,,,,,,,,,,,,,,,,,,,,,,,,,,,,,,,,,,,,,,,,,,53658,2022-11-22_14h05.45.831,vts_reward_expectancy_bt_OFFLINE,2022.2.4,59.95662174138107,
,,,,,,,,,,,,,,,,,,0,0,0,0,3,0,3,0,,,,,,,,,,,,,,,,,,,,,,,,,,,,,,,,,,,,,,,,,,,,,,,,,531.626342544012,,181,U,star,0.0012745090061798692,527.856963942002,529.3570177970105,529.3570177970105,529.3570177970105,1,0,f,0.7381785909819882,0,530.1414916540089,,,,,,,,,,,,,,,,,,,,,,,,,,,,,,,,,,,,,,,,,,,,,,,,,,,,,,,,,,,53658,2022-11-22_14h05.45.831,vts_reward_expectancy_bt_OFFLINE,2022.2.4,59.95662174138107,
,,,,,,,,,,,,,,,,,,0,0,0,0,4,0,4,0,,,,,,,,,,,,,,,,,,,,,,,,,,,,,,,,,,,,,,,,,,,,,,,,,537.1490134389896,,167,B,star,0.0014438610232900828,532.6112248190038,534.1125241139962,534.1125241139962,534.1125241139962,1,0,f,1.4859223369858228,0,535.6474304019939,,,,,,,,,,,,,,,,,,,,,,,,,,,,,,,,,,,,,,,,,,,,,,,,,,,,,,,,,,,53658,2022-11-22_14h05.45.831,vts_reward_expectancy_bt_OFFLINE,2022.2.4,59.95662174138107,
,,,,,,,,,,,,,,,,,,0,0,0,0,5,0,5,0,,,,,,,,,,,,,,,,,,,,,,,,,,,,,,,,,,,,,,,,,,,,,,,,,542.6553353200143,,146,H,triangle,0.0013179370143916458,538.1336475939897,539.6352728450147,539.6352728450147,539.6352728450147,1,0,d,1.4967085259850137,0,541.1701820919989,,,,,,,,,,,,,,,,,,,,,,,,,,,,,,,,,,,,,,,,,,,,,,,,,,,,,,,,,,,53658,2022-11-22_14h05.45.831,vts_reward_expectancy_bt_OFFLINE,2022.2.4,59.95662174138107,
,,,,,,,,,,,,,,,,,,0,0,0,0,6,0,6,0,,,,,,,,,,,,,,,,,,,,,,,,,,,,,,,,,,,,,,,,,,,,,,,,,548.1281011289975,,174,W,hexagon,0.0010874289728235453,543.6396041480184,545.1414049119921,545.1414049119921,545.1414049119921,1,0,f,1.458920194010716,0,546.6430650640104,,,,,,,,,,,,,,,,,,,,,,,,,,,,,,,,,,,,,,,,,,,,,,,,,,,,,,,,,,,53658,2022-11-22_14h05.45.831,vts_reward_expectancy_bt_OFFLINE,2022.2.4,59.95662174138107,
,,,,,,,,,,,,,,,,,,0,0,0,0,7,0,7,0,,,,,,,,,,,,,,,,,,,,,,,,,,,,,,,,,,,,,,,,,,,,,,,,,554.184429201996,,160,S,circle,0.001624598982743919,549.1124072039966,550.613935988018,550.613935988018,550.613935988018,1,0,f,2.0518238010117784,0,552.6997337290086,,,,,,,,,,,,,,,,,,,,,,,,,,,,,,,,,,,,,,,,,,,,,,,,,,,,,,,,,,,53658,2022-11-22_14h05.45.831,vts_reward_expectancy_bt_OFFLINE,2022.2.4,59.95662174138107,
,,,,,,,,,,,,,,,,,,0,0,0,0,8,0,8,0,,,,,,,,,,,,,,,,,,,,,,,,,,,,,,,,,,,,,,,,,,,,,,,,,560.0744306289998,,125,F,hexagon,0.0006655429897364229,555.168965652003,556.6706133550033,556.6706133550033,556.6706133550033,1,0,d,1.8774708999844734,0,558.589474612003,,,,,,,,,,,,,,,,,,,,,,,,,,,,,,,,,,,,,,,,,,,,,,,,,,,,,,,,,,,53658,2022-11-22_14h05.45.831,vts_reward_expectancy_bt_OFFLINE,2022.2.4,59.95662174138107,
,,,,,,,,,,,,,,,,,,0,0,0,0,9,0,9,0,,,,,,,,,,,,,,,,,,,,,,,,,,,,,,,,,,,,,,,,,,,,,,,,,564.896457349998,,139,D,triangle,0.0014525839942507446,561.0589796080021,562.5605187290057,562.5605187290057,562.5605187290057,1,0,d,0.8148023569956422,0,563.4115577320044,,,,,,,,,,,,,,,,,,,,,,,,,,,,,,,,,,,,,,,,,,,,,,,,,,,,,,,,,,,53658,2022-11-22_14h05.45.831,vts_reward_expectancy_bt_OFFLINE,2022.2.4,59.95662174138107,
,,,,,,,,,,,,,,,,,,,,,,,,,,0,0,0,0,0,0,0,0,,,,,,,,,,,,,,,,,,,,,,,,,,,,,,,,,,,,,,,,,581.014087899006,,132,W,circle,0.0018777789955493063,,,,,1,0,,,1,579.5293299450132,,576.7593889140117,578.2610402819992,578.2610402819992,578.2610402819992,k,1.2250909539870918,,,,,,,,,,,,,,,,,,,,,,,,,,,,,,,,,,,,,,,,,,,,,,,,,,,,53658,2022-11-22_14h05.45.831,vts_reward_expectancy_bt_OFFLINE,2022.2.4,59.95662174138107,
,,,,,,,,,,,,,,,,,,,,,,,,,,0,0,0,0,1,0,1,0,,,,,,,,,,,,,,,,,,,,,,,,,,,,,,,,,,,,,,,,,588.0053753970133,588.5058474370162,174,F,hexagon,0.0010587349825073034,,,,,0,0,,,1,586.5035409379925,588.0053753970133,581.9984844519931,583.5001414419967,583.5001414419967,583.5001414419967,None,,586.5035409379925,586.5035409379925,586.5035409379925,586.5035409379925,,,,,,,,,,,,,,,,,,,,,,,,,,,,,,,,,,,,,,,,,,,,,,,,53658,2022-11-22_14h05.45.831,vts_reward_expectancy_bt_OFFLINE,2022.2.4,59.95662174138107,
,,,,,,,,,,,,,,,,,,,,,,,,,,0,0,0,0,2,0,2,0,,,,,,,,,,,,,,,,,,,,,,,,,,,,,,,,,,,,,,,,,594.1452897170093,,160,D,star,0.00849663998815231,,,,,1,1,,,1,592.6605287379934,,589.0063297440065,590.5080149320129,590.5080149320129,590.5080149320129,j,2.109735845006071,,,,,,,,,,,,,,,,,,,,,,,,,,,,,,,,,,,,,,,,,,,,,,,,,,,,53658,2022-11-22_14h05.45.831,vts_reward_expectancy_bt_OFFLINE,2022.2.4,59.95662174138107,
,,,,,,,,,,,,,,,,,,,,,,,,,,0,0,0,0,3,0,3,0,,,,,,,,,,,,,,,,,,,,,,,,,,,,,,,,,,,,,,,,,599.55124045501,,167,H,triangle,0.0011748640099540353,,,,,1,0,,,1,598.0665396870172,,595.1298079729895,596.6315653370111,596.6315653370111,596.6315653370111,j,1.3955987979716156,,,,,,,,,,,,,,,,,,,,,,,,,,,,,,,,,,,,,,,,,,,,,,,,,,,,53658,2022-11-22_14h05.45.831,vts_reward_expectancy_bt_OFFLINE,2022.2.4,59.95662174138107,
,,,,,,,,,,,,,,,,,,,,,,,,,,0,0,0,0,4,0,4,0,,,,,,,,,,,,,,,,,,,,,,,,,,,,,,,,,,,,,,,,,604.1563413389958,,146,Y,circle,0.0010404480271972716,,,,,1,0,,,1,602.6715168539959,,600.5358488770144,602.0373727249971,602.0373727249971,602.0373727249971,k,0.5908543829864357,,,,,,,,,,,,,,,,,,,,,,,,,,,,,,,,,,,,,,,,,,,,,,,,,,,,53658,2022-11-22_14h05.45.831,vts_reward_expectancy_bt_OFFLINE,2022.2.4,59.95662174138107,
,,,,,,,,,,,,,,,,,,,,,,,,,,0,0,0,0,5,0,5,0,,,,,,,,,,,,,,,,,,,,,,,,,,,,,,,,,,,,,,,,,609.6124851389905,,181,U,star,0.0013259060215204954,,,,,1,0,,,1,608.1276083569974,,605.1411058689991,606.6424799190136,606.6424799190136,606.6424799190136,k,1.4430332939955406,,,,,,,,,,,,,,,,,,,,,,,,,,,,,,,,,,,,,,,,,,,,,,,,,,,,53658,2022-11-22_14h05.45.831,vts_reward_expectancy_bt_OFFLINE,2022.2.4,59.95662174138107,
,,,,,,,,,,,,,,,,,,,,,,,,,,0,0,0,0,6,0,6,0,,,,,,,,,,,,,,,,,,,,,,,,,,,,,,,,,,,,,,,,,614.3176830380107,,125,S,hexagon,0.0011575999960768968,,,,,1,0,,,1,612.8159022020118,,610.596829859016,612.0984217149962,612.0984217149962,612.0984217149962,k,0.6681148459902033,,,,,,,,,,,,,,,,,,,,,,,,,,,,,,,,,,,,,,,,,,,,,,,,,,,,53658,2022-11-22_14h05.45.831,vts_reward_expectancy_bt_OFFLINE,2022.2.4,59.95662174138107,
,,,,,,,,,,,,,,,,,,,,,,,,,,0,0,0,0,7,0,7,0,,,,,,,,,,,,,,,,,,,,,,,,,,,,,,,,,,,,,,,,,618.9058991600177,,139,B,triangle,0.0011664750054478645,,,,,1,0,,,1,617.4041939880117,,615.3021118830075,616.8035610179941,616.8035610179941,616.8035610179941,j,0.551921500969911,,,,,,,,,,,,,,,,,,,,,,,,,,,,,,,,,,,,,,,,,,,,,,,,,,,,53658,2022-11-22_14h05.45.831,vts_reward_expectancy_bt_OFFLINE,2022.2.4,59.95662174138107,
,,,,,,,,,,,,,,,,,,,,,,,,,,0,0,0,0,8,0,8,0,,,,,,,,,,,,,,,,,,,,,,,,,,,,,,,,,,,,,,,,,623.5944728250033,,132,W,circle,0.001059189991792664,,,,,1,0,,,1,622.1094527090027,,619.8903061579913,621.3919911929988,621.3919911929988,621.3919911929988,k,0.6781887099787127,,,,,,,,,,,,,,,,,,,,,,,,,,,,,,,,,,,,,,,,,,,,,,,,,,,,53658,2022-11-22_14h05.45.831,vts_reward_expectancy_bt_OFFLINE,2022.2.4,59.95662174138107,
,,,,,,,,,,,,,,,,,,,,,,,,,,0,0,0,0,9,0,9,0,,,,,,,,,,,,,,,,,,,,,,,,,,,,,,,,,,,,,,,,,628.416555644013,,174,F,triangle,0.0014077359810471535,,,,,1,0,,,1,626.9148981079925,,624.5788612079923,626.0807977500081,626.0807977500081,626.0807977500081,j,0.7938256050110795,,,,,,,,,,,,,,,,,,,,,,,,,,,,,,,,,,,,,,,,,,,,,,,,,,,,53658,2022-11-22_14h05.45.831,vts_reward_expectancy_bt_OFFLINE,2022.2.4,59.95662174138107,
,,,,,,,,,,,,,,,,,,,,,,,,,,,,,,,,,,0,0,0,0,0,0,0,0,,,,,,,,,,,,,,,,,,,,,,,,,,,,0,792,,,,649.3728773579933,,174,F,triangle,0.0020880030060652643,,,,,1,0,,,2,,,,,,,,,,,,,644.30073623301,644.30073623301,644.30073623301,644.30073623301,645.7855360989925,645.7855360989925,645.7855360989925,645.7855360989925,645.8022810920083,645.8022810920083,645.8022810920083,645.8022810920083,-1,number,NA,f,2.0372822559729684,vtsPrac,647.8714317890117,649.3728773579933,,,,,,,,,,,,,,,,,,,,,,,,,,,,53658,2022-11-22_14h05.45.831,vts_reward_expectancy_bt_OFFLINE,2022.2.4,59.95662174138107,
,,,,,,,,,,,,,,,,,,,,,,,,,,,,,,,,,,0,0,0,0,1,0,1,0,,,,,,,,,,,,,,,,,,,,,,,,,,,,0,792,,,,654.9790955370117,,139,B,star,0.0009543640189804137,,,,,1,0,,,2,,,,,,,,,,,,,650.3576556550106,650.3576556550106,650.3576556550106,650.3576556550106,651.859058025002,651.859058025002,651.859058025002,651.859058025002,651.859058025002,651.859058025002,651.859058025002,651.859058025002,repeat,number,numRpt,d,1.5910412250086665,vtsPrac,653.4941526229959,,,,,,,,,,,,,,,,,,,,,,,,,,,,,53658,2022-11-22_14h05.45.831,vts_reward_expectancy_bt_OFFLINE,2022.2.4,59.95662174138107,
,,,,,,,,,,,,,,,,,,,,,,,,,,,,,,,,,,0,0,0,0,2,0,2,0,,,,,,,,,,,,,,,,,,,,,,,,,,,,0,792,,,,660.7688745220075,,167,U,circle,0.0012063560134265572,,,,,1,0,,,2,,,,,,,,,,,,,655.963783129002,655.963783129002,655.963783129002,655.963783129002,657.4653146170022,657.4653146170022,657.4653146170022,657.4653146170022,657.4653146170022,657.4653146170022,657.4653146170022,657.4653146170022,switch,letter,lettSwt,k,1.768598006980028,vtsPrac,659.2671499540156,,,,,,,,,,,,,,,,,,,,,,,,,,,,,53658,2022-11-22_14h05.45.831,vts_reward_expectancy_bt_OFFLINE,2022.2.4,59.95662174138107,
,,,,,,,,,,,,,,,,,,,,,,,,,,,,,,,,,,0,0,0,0,3,0,3,0,,,,,,,,,,,,,,,,,,,,,,,,,,,,0,792,,,,665.3237625900074,,146,Y,hexagon,0.0007776989950798452,,,,,1,0,,,2,,,,,,,,,,,,,661.7367855600023,661.7367855600023,661.7367855600023,661.7367855600023,663.238309272012,663.238309272012,663.238309272012,663.238309272012,663.238309272012,663.238309272012,663.238309272012,663.238309272012,repeat,letter,lettRpt,k,0.5605350059922785,vtsPrac,663.8388595780125,,,,,,,,,,,,,,,,,,,,,,,,,,,,,53658,2022-11-22_14h05.45.831,vts_reward_expectancy_bt_OFFLINE,2022.2.4,59.95662174138107,
,,,,,,,,,,,,,,,,,,,,,,,,,,,,,,,,,,0,0,0,0,4,0,4,0,,,,,,,,,,,,,,,,,,,,,,,,,,,,0,792,,,,670.1624555739982,,174,F,hexagon,0.0015369970060419291,,,,,1,0,,,2,,,,,,,,,,,,,666.3083146290155,666.3083146290155,666.3083146290155,666.3083146290155,667.8099186079926,667.8099186079926,667.8099186079926,667.8099186079926,667.8099186079926,667.8099186079926,667.8099186079926,667.8099186079926,switch,number,numSwt,f,0.8042169210093562,vtsPrac,668.6609988970158,,,,,,,,,,,,,,,,,,,,,,,,,,,,,53658,2022-11-22_14h05.45.831,vts_reward_expectancy_bt_OFFLINE,2022.2.4,59.95662174138107,
,,,,,,,,,,,,,,,,,,,,,,,,,,,,,,,,,,0,0,0,0,5,0,5,0,,,,,,,,,,,,,,,,,,,,,,,,,,,,0,792,,,,674.8010246749909,,139,B,circle,0.0010414889839012176,,,,,1,0,,,2,,,,,,,,,,,,,671.1303588080045,671.1303588080045,671.1303588080045,671.1303588080045,672.632040869008,672.632040869008,672.632040869008,672.632040869008,672.632040869008,672.632040869008,672.632040869008,672.632040869008,switch,letter,lettSwt,j,0.6407770229852758,vtsPrac,673.3161468839971,,,,,,,,,,,,,,,,,,,,,,,,,,,,,53658,2022-11-22_14h05.45.831,vts_reward_expectancy_bt_OFFLINE,2022.2.4,59.95662174138107,
,,,,,,,,,,,,,,,,,,,,,,,,,,,,,,,,,,0,0,0,0,6,0,6,0,,,,,,,,,,,,,,,,,,,,,,,,,,,,0,792,,,,680.2568831490062,,167,U,hexagon,0.0012485100014600903,,,,,1,0,,,2,,,,,,,,,,,,,675.7855826420127,675.7855826420127,675.7855826420127,675.7855826420127,677.287246168009,677.287246168009,677.287246168009,677.287246168009,677.287246168009,677.287246168009,677.287246168009,677.287246168009,repeat,letter,lettRpt,k,1.4304746720008552,vtsPrac,678.7553800590103,,,,,,,,,,,,,,,,,,,,,,,,,,,,,53658,2022-11-22_14h05.45.831,vts_reward_expectancy_bt_OFFLINE,2022.2.4,59.95662174138107,
,,,,,,,,,,,,,,,,,,,,,,,,,,,,,,,,,,0,0,0,0,7,0,7,0,,,,,,,,,,,,,,,,,,,,,,,,,,,,0,792,,,,685.1290586499963,,146,Y,triangle,0.0010276520042680204,,,,,0,0,,,2,,,,,,,,,,,,,681.2247722079919,681.2247722079919,681.2247722079919,681.2247722079919,682.7265343799954,682.7265343799954,682.7265343799954,682.7265343799954,682.7265343799954,682.7265343799954,682.7265343799954,682.7265343799954,switch,number,NA,f,0.851881473994581,vtsPrac,683.62727167501,,,,,,,,,,,,,,,,,,,,,,,,,,,,,53658,2022-11-22_14h05.45.831,vts_reward_expectancy_bt_OFFLINE,2022.2.4,59.95662174138107,
,,,,,,,,,,,,,,,,,,,,,,,,,,,,,,,,,,0,0,0,0,8,0,8,0,,,,,,,,,,,,,,,,,,,,,,,,,,,,0,792,,,,689.8177603970107,,132,B,circle,0.0011484170099720359,,,,,1,1,,,2,,,,,,,,,,,,,686.1134607139975,686.1134607139975,686.1134607139975,686.1134607139975,687.6153152740153,687.6153152740153,687.6153152740153,687.6153152740153,687.6153152740153,687.6153152740153,687.6153152740153,687.6153152740153,repeat,number,numRpt,d,0.6771851939847693,vtsPrac,688.3327065019985,,,,,,,,,,,,,,,,,,,,,,,,,,,,,53658,2022-11-22_14h05.45.831,vts_reward_expectancy_bt_OFFLINE,2022.2.4,59.95662174138107,
,,,,,,,,,,,,,,,,,,,,,,,,,,,,,,,,,,0,0,0,0,9,0,9,0,,,,,,,,,,,,,,,,,,,,,,,,,,,,0,792,,,,696.0742817920109,,160,S,star,0.0012873460073024035,,,,,1,0,,,2,,,,,,,,,,,,,690.802127211995,690.802127211995,690.802127211995,690.802127211995,692.3035076319939,692.3035076319939,692.3035076319939,692.3035076319939,692.3035076319939,692.3035076319939,692.3035076319939,692.3035076319939,repeat,number,numRpt,f,2.2214463299897034,vtsPrac,694.5727061220095,696.0742817920109,,,,,,,,,,,,,,,,,,,,,,,,,,,,53658,2022-11-22_14h05.45.831,vts_reward_expectancy_bt_OFFLINE,2022.2.4,59.95662174138107,
,,,,,,,,,,,,,,,,,,,,,,,,,,,,,,,,,,0,0,0,0,10,0,10,0,,,,,,,,,,,,,,,,,,,,,,,,,,,,0,792,,,,700.7130176589999,701.213570494001,174,Y,hexagon,0.0015219789929687977,,,,,1,0,,,2,,,,,,,,,,,,,697.0589620270184,697.0589620270184,697.0589620270184,697.0589620270184,698.5607797470002,698.5607797470002,698.5607797470002,698.5607797470002,698.5607797470002,698.5607797470002,698.5607797470002,698.5607797470002,switch,letter,lettSwt,k,0.6016251500113867,vtsPrac,699.211173268006,700.7130176589999,,,,,,,,,,,,,,,,,,,,,,,,,,,,53658,2022-11-22_14h05.45.831,vts_reward_expectancy_bt_OFFLINE,2022.2.4,59.95662174138107,
,,,,,,,,,,,,,,,,,,,,,,,,,,,,,,,,,,0,0,0,0,11,0,11,0,,,,,,,,,,,,,,,,,,,,,,,,,,,,0,792,,,,706.3692206350097,,139,D,triangle,0.00035351398400962353,,,,,1,0,,,2,,,,,,,,,,,,,701.697589724994,701.697589724994,701.697589724994,701.697589724994,703.1989937600156,703.1989937600156,703.1989937600156,703.1989937600156,703.1989937600156,703.1989937600156,703.1989937600156,703.1989937600156,switch,number,numSwt,d,1.620346924988553,vtsPrac,704.8675849850115,706.3692206350097,,,,,,,,,,,,,,,,,,,,,,,,,,,,53658,2022-11-22_14h05.45.831,vts_reward_expectancy_bt_OFFLINE,2022.2.4,59.95662174138107,
,,,,,,,,,,,,,,,,,,,,,,,,,,,,,,,,,,0,0,0,0,12,0,12,0,,,,,,,,,,,,,,,,,,,,,,,,,,,,0,792,,,,712.7260816220078,,174,B,star,0.0008576310065109283,,,,,1,0,,,2,,,,,,,,,,,,,707.3535628739919,707.3535628739919,707.3535628739919,707.3535628739919,708.8552581669937,708.8552581669937,708.8552581669937,708.8552581669937,708.8552581669937,708.8552581669937,708.8552581669937,708.8552581669937,repeat,number,numRpt,f,2.3215647989709396,vtsPrac,711.2244627969922,,,,,,,,,,,,,,,,,,,,,,,,,,,,,53658,2022-11-22_14h05.45.831,vts_reward_expectancy_bt_OFFLINE,2022.2.4,59.95662174138107,
,,,,,,,,,,,,,,,,,,,,,,,,,,,,,,,,,,0,0,0,0,13,0,13,0,,,,,,,,,,,,,,,,,,,,,,,,,,,,0,792,,,,719.7339726420178,,160,H,hexagon,0.001470808987505734,,,,,-1,0,,,2,,,,,,,,,,,,,713.7106794879946,713.7106794879946,713.7106794879946,713.7106794879946,715.2122206870117,715.2122206870117,715.2122206870117,715.2122206870117,715.2122206870117,715.2122206870117,715.2122206870117,715.2122206870117,switch,no_choice,NA,None,,vtsPrac,718.2323017219896,,718.2323017219896,718.2323017219896,718.2323017219896,718.2323017219896,,,,,,,,,,,,,,,,,,,,,,,,53658,2022-11-22_14h05.45.831,vts_reward_expectancy_bt_OFFLINE,2022.2.4,59.95662174138107,
,,,,,,,,,,,,,,,,,,,,,,,,,,,,,,,,,,0,0,0,0,14,0,14,0,,,,,,,,,,,,,,,,,,,,,,,,,,,,0,792,,,,724.6224990590126,,132,W,star,0.009132071980275214,,,,,1,0,,,2,,,,,,,,,,,,,720.7185072400025,720.7185072400025,720.7185072400025,720.7185072400025,722.220083518012,722.220083518012,722.220083518012,722.220083518012,722.220083518012,722.220083518012,722.220083518012,722.220083518012,switch,letter,lettSwt,k,0.8708790789823979,vtsPrac,723.1380029720021,,,,,,,,,,,,,,,,,,,,,,,,,,,,,53658,2022-11-22_14h05.45.831,vts_reward_expectancy_bt_OFFLINE,2022.2.4,59.95662174138107,
,,,,,,,,,,,,,,,,,,,,,,,,,,,,,,,,,,0,0,0,0,15,0,15,0,,,,,,,,,,,,,,,,,,,,,,,,,,,,0,792,,,,729.6615930040134,,139,U,circle,0.001666600990574807,,,,,1,0,,,2,,,,,,,,,,,,,725.6071397039923,725.6071397039923,725.6071397039923,725.6071397039923,727.1087397950178,727.1087397950178,727.1087397950178,727.1087397950178,727.1087397950178,727.1087397950178,727.1087397950178,727.1087397950178,repeat,letter,lettRpt,k,1.02485779998824,vtsPrac,728.1768792479998,,,,,,,,,,,,,,,,,,,,,,,,,,,,,53658,2022-11-22_14h05.45.831,vts_reward_expectancy_bt_OFFLINE,2022.2.4,59.95662174138107,
,,,,,,,,,,,,,,,,,,,,,,,,,,,,,,,,,,0,0,0,0,16,0,16,0,,,,,,,,,,,,,,,,,,,,,,,,,,,,0,792,,,,734.7839959970152,,146,W,hexagon,0.0014917700027581304,,,,,1,0,,,2,,,,,,,,,,,,,730.6460077989905,730.6460077989905,730.6460077989905,730.6460077989905,732.1477181829978,732.1477181829978,732.1477181829978,732.1477181829978,732.1477181829978,732.1477181829978,732.1477181829978,732.1477181829978,repeat,letter,lettRpt,k,1.1137594569881912,vtsPrac,733.2990092289983,,,,,,,,,,,,,,,,,,,,,,,,,,,,,53658,2022-11-22_14h05.45.831,vts_reward_expectancy_bt_OFFLINE,2022.2.4,59.95662174138107,
,,,,,,,,,,,,,,,,,,,,,,,,,,,,,,,,,,0,0,0,0,17,0,17,0,,,,,,,,,,,,,,,,,,,,,,,,,,,,0,792,,,,739.605869490013,,125,D,star,0.0011303900100756437,,,,,1,0,,,2,,,,,,,,,,,,,735.7682827780081,735.7682827780081,735.7682827780081,735.7682827780081,737.2698247719964,737.2698247719964,737.2698247719964,737.2698247719964,737.2698247719964,737.2698247719964,737.2698247719964,737.2698247719964,switch,number,numSwt,d,0.8080761669843923,vtsPrac,738.1209052430058,,,,,,,,,,,,,,,,,,,,,,,,,,,,,53658,2022-11-22_14h05.45.831,vts_reward_expectancy_bt_OFFLINE,2022.2.4,59.95662174138107,
,,,,,,,,,,,,,,,,,,,,,,,,,,,,,,,,,,0,0,0,0,18,0,18,0,,,,,,,,,,,,,,,,,,,,,,,,,,,,0,792,,,,744.3443203520146,,174,B,circle,0.001441669010091573,,,,,1,0,,,2,,,,,,,,,,,,,740.5904183989915,740.5904183989915,740.5904183989915,740.5904183989915,742.0918519300176,742.0918519300176,742.0918519300176,742.0918519300176,742.0918519300176,742.0918519300176,742.0918519300176,742.0918519300176,repeat,number,numRpt,f,0.7014812040142715,vtsPrac,742.8427195099939,,,,,,,,,,,,,,,,,,,,,,,,,,,,,53658,2022-11-22_14h05.45.831,vts_reward_expectancy_bt_OFFLINE,2022.2.4,59.95662174138107,
,,,,,,,,,,,,,,,,,,,,,,,,,,,,,,,,,,0,0,0,0,19,0,19,0,,,,,,,,,,,,,,,,,,,,,,,,,,,,0,792,,,,749.8171847799968,,167,U,star,0.0008438250224571675,,,,,1,0,,,2,,,,,,,,,,,,,745.3287120129971,745.3287120129971,745.3287120129971,745.3287120129971,746.8304819189943,746.8304819189943,746.8304819189943,746.8304819189943,746.8304819189943,746.8304819189943,746.8304819189943,746.8304819189943,switch,letter,lettSwt,k,1.4625000759842806,vtsPrac,748.3322296630067,,,,,,,,,,,,,,,,,,,,,,,,,,,,,53658,2022-11-22_14h05.45.831,vts_reward_expectancy_bt_OFFLINE,2022.2.4,59.95662174138107,
,,,,,,,,,,,,,,,,,,,,,,,,,,,,,,,,,,0,0,0,0,20,0,20,0,,,,,,,,,,,,,,,,,,,,,,,,,,,,0,792,,,,755.039399655012,,181,U,circle,0.0011470990139059722,,,,,1,0,,,2,,,,,,,,,,,,,750.8014689970005,750.8014689970005,750.8014689970005,750.8014689970005,752.3031980539963,752.3031980539963,752.3031980539963,752.3031980539963,752.3031980539963,752.3031980539963,752.3031980539963,752.3031980539963,repeat,letter,lettRpt,k,1.2001909419777803,vtsPrac,753.5380292730115,,,,,,,,,,,,,,,,,,,,,,,,,,,,,53658,2022-11-22_14h05.45.831,vts_reward_expectancy_bt_OFFLINE,2022.2.4,59.95662174138107,
,,,,,,,,,,,,,,,,,,,,,,,,,,,,,,,,,,0,0,0,0,21,0,21,0,,,,,,,,,,,,,,,,,,,,,,,,,,,,0,792,,,,760.9793975969951,,132,H,triangle,0.0009343959973193705,,,,,0,0,,,2,,,,,,,,,,,,,756.007261671999,756.007261671999,756.007261671999,756.007261671999,757.5089745180157,757.5089745180157,757.5089745180157,757.5089745180157,757.5089745180157,757.5089745180157,757.5089745180157,757.5089745180157,repeat,letter,NA,k,1.9455029669916257,vtsPrac,759.4945197300112,,,,,,,,,,,,,,,,,,,,,,,,,,,,,53658,2022-11-22_14h05.45.831,vts_reward_expectancy_bt_OFFLINE,2022.2.4,59.95662174138107,
,,,,,,,,,,,,,,,,,,,,,,,,,,,,,,,,,,0,0,0,0,22,0,22,0,,,,,,,,,,,,,,,,,,,,,,,,,,,,0,792,,,,766.3019839170156,,125,B,hexagon,0.0012043449969496578,,,,,1,1,,,2,,,,,,,,,,,,,761.9639422929904,761.9639422929904,761.9639422929904,761.9639422929904,763.465414922015,763.465414922015,763.465414922015,763.465414922015,763.465414922015,763.465414922015,763.465414922015,763.465414922015,switch,number,numSwt,d,1.2996043639723212,vtsPrac,764.8002286730043,,,,,,,,,,,,,,,,,,,,,,,,,,,,,53658,2022-11-22_14h05.45.831,vts_reward_expectancy_bt_OFFLINE,2022.2.4,59.95662174138107,
,,,,,,,,,,,,,,,,,,,,,,,,,,,,,,,,,,0,0,0,0,23,0,23,0,,,,,,,,,,,,,,,,,,,,,,,,,,,,0,792,,,,771.0236867100175,,174,W,star,0.0012948889925610274,,,,,1,0,,,2,,,,,,,,,,,,,767.2698731470155,767.2698731470155,767.2698731470155,767.2698731470155,768.7712296649988,768.7712296649988,768.7712296649988,768.7712296649988,768.7712296649988,768.7712296649988,768.7712296649988,768.7712296649988,switch,letter,lettSwt,k,0.7077733189798892,vtsPrac,769.5222142839921,,,,,,,,,,,,,,,,,,,,,,,,,,,,,53658,2022-11-22_14h05.45.831,vts_reward_expectancy_bt_OFFLINE,2022.2.4,59.95662174138107,
,,,,,,,,,,,,,,,,,,,,,,,,,,,,,,,,,,0,0,0,0,24,0,24,0,,,,,,,,,,,,,,,,,,,,,,,,,,,,0,792,,,,776.5631287290016,,160,W,triangle,0.0010286780016031116,,,,,1,0,,,2,,,,,,,,,,,,,771.9917640429921,771.9917640429921,771.9917640429921,771.9917640429921,773.4932313770114,773.4932313770114,773.4932313770114,773.4932313770114,773.4932313770114,773.4932313770114,773.4932313770114,773.4932313770114,repeat,letter,lettRpt,k,1.5207252299878746,vtsPrac,775.0614625920134,,,,,,,,,,,,,,,,,,,,,,,,,,,,,53658,2022-11-22_14h05.45.831,vts_reward_expectancy_bt_OFFLINE,2022.2.4,59.95662174138107,
,,,,,,,,,,,,,,,,,,,,,,,,,,,,,,,,,,0,0,0,0,25,0,25,0,,,,,,,,,,,,,,,,,,,,,,,,,,,,0,792,,,,781.8023729230044,,132,S,star,0.001212062983540818,,,,,1,0,,,2,,,,,,,,,,,,,777.5477320140053,777.5477320140053,777.5477320140053,777.5477320140053,779.0494143849937,779.0494143849937,779.0494143849937,779.0494143849937,779.0494143849937,779.0494143849937,779.0494143849937,779.0494143849937,repeat,letter,lettRpt,k,1.2078587359865196,vtsPrac,780.3010959789972,,,,,,,,,,,,,,,,,,,,,,,,,,,,,53658,2022-11-22_14h05.45.831,vts_reward_expectancy_bt_OFFLINE,2022.2.4,59.95662174138107,
,,,,,,,,,,,,,,,,,,,,,,,,,,,,,,,,,,0,0,0,0,26,0,26,0,,,,,,,,,,,,,,,,,,,,,,,,,,,,0,792,,,,787.1081962219905,,139,D,circle,0.0010795400012284517,,,,,1,0,,,2,,,,,,,,,,,,,782.770271084999,782.770271084999,782.770271084999,782.770271084999,784.2719694930129,784.2719694930129,784.2719694930129,784.2719694930129,784.2719694930129,784.2719694930129,784.2719694930129,784.2719694930129,repeat,letter,lettRpt,j,1.2854126029997133,vtsPrac,785.6064642450074,,,,,,,,,,,,,,,,,,,,,,,,,,,,,53658,2022-11-22_14h05.45.831,vts_reward_expectancy_bt_OFFLINE,2022.2.4,59.95662174138107,
