LTriangleOpac,LCircleOpac,LHexagonOpac,LStarOpac,RTriangleOpac,RCircleOpac,RHexagonOpac,RStarOpac,LShape_ID,RShape_ID,training_blocks.thisRepN,training_blocks.thisTrialN,training_blocks.thisN,training_blocks.thisIndex,training.thisRepN,training.thisTrialN,training.thisN,training.thisIndex,task1_prac_redo.thisRepN,task1_prac_redo.thisTrialN,task1_prac_redo.thisN,task1_prac_redo.thisIndex,task1_prac_trials.thisRepN,task1_prac_trials.thisTrialN,task1_prac_trials.thisN,task1_prac_trials.thisIndex,task2_prac_redo.thisRepN,task2_prac_redo.thisTrialN,task2_prac_redo.thisN,task2_prac_redo.thisIndex,task2_praac_trials.thisRepN,task2_praac_trials.thisTrialN,task2_praac_trials.thisN,task2_praac_trials.thisIndex,vts_prac_redo.thisRepN,vts_prac_redo.thisTrialN,vts_prac_redo.thisN,vts_prac_redo.thisIndex,vts_practice_trials.thisRepN,vts_practice_trials.thisTrialN,vts_practice_trials.thisN,vts_practice_trials.thisIndex,trials_norew.thisRepN,trials_norew.thisTrialN,trials_norew.thisN,trials_norew.thisIndex,block.thisRepN,block.thisTrialN,block.thisN,block.thisIndex,trials_rew.thisRepN,trials_rew.thisTrialN,trials_rew.thisN,trials_rew.thisIndex,key_resp.started,key_resp.keys,key_resp.rt,left_circle.started,right_circle.started,left_triangle.started,right_triangle.started,left_star.started,right_star.started,left_hexagon.started,right_hexagon.started,training_fix.started,training_resp.started,training_resp.keys,training_resp.rt,points_trial,points_cumul,trainBlock,training_feedback_txt.started,fix.started,training_feedback_txt.stopped,fix.stopped,curr_topStim,curr_bottStim,curr_shape,ISI.started,tgt_fix_prac1.started,top_target_prac1.started,bott_target_prac1.started,target_resp_prac1.started,acc,E1,target_resp_prac1.keys,target_resp_prac1.rt,pracBlock,prac_fback_text.started,top_target_prac1.stopped,bott_target_prac1.stopped,target_resp_prac1.stopped,tgt_fix_prac2.started,top_target_prac2.started,bott_target_prac2.started,target_resp_prac2.started,target_resp_prac2.keys,target_resp_prac2.rt,prac_fback_text.stopped,star.started,hegagon.started,triangle.started,circle.started,top_target.started,tgt_fix.started,bot_target.started,target_resp.started,star.stopped,hegagon.stopped,triangle.stopped,circle.stopped,alt,task,condition,target_resp.keys,target_resp.rt,rewCond,vts_fback.started,top_target.stopped,tgt_fix.stopped,bot_target.stopped,target_resp.stopped,blockNum,norew_fback.started,key_resp_2.keys,key_resp_2.rt,rewExpectancy,feedbk_text.started,text_3.started,debrief.started,text_3.stopped,button.started,debrief.index,debrief.itemText,debrief.type,debrief.granularity,debrief.font,debrief.markerColor,debrief.response,debrief.rt,button.numClicks,button.timesOn,button.timesOff,participant,date,expName,psychopyVersion,frameRate,
,,,,,,,,,,,,,,,,,,,,,,,,,,,,,,,,,,,,,,,,,,,,,,,,,,,,,,281.6223011640832,space,14.920533281285316,,,,,,,,,,,,,,,,,,,,,,,,,,,,,,,,,,,,,,,,,,,,,,,,,,,,,,,,,,,,,,,,,,,,,,,,,,,,,,,,,,,,,,,,54640,2022-12-01_08h06.47.788,vts_reward_expectancy_bt_OFFLINE,2022.2.4,60.0205125541495,
0,0,1,0,1,0,0,0,hexagon,triangle,0,0,0,0,0,0,0,6,,,,,,,,,,,,,,,,,,,,,,,,,,,,,,,,,,,,,,,,327.0348470918834,327.0348470918834,327.0348470918834,327.0348470918834,327.0348470918834,327.0348470918834,327.0348470918834,327.0348470918834,327.0348470918834,327.0348470918834,a,2.5066086780279875,10,10,0,329.5606798850931,331.0757316881791,,,,,,,,,,,,,,,,,,,,,,,,,,,,,,,,,,,,,,,,,,,,,,,,,,,,,,,,,,,,,,,,,,,,,,,54640,2022-12-01_08h06.47.788,vts_reward_expectancy_bt_OFFLINE,2022.2.4,60.0205125541495,
0,1,0,0,0,0,1,0,circle,hexagon,0,0,0,0,0,1,1,4,,,,,,,,,,,,,,,,,,,,,,,,,,,,,,,,,,,,,,,,331.57582237012684,331.57582237012684,331.57582237012684,331.57582237012684,331.57582237012684,331.57582237012684,331.57582237012684,331.57582237012684,331.57582237012684,331.57582237012684,l,2.071870120242238,1,11,0,333.68193221697584,335.19570586131886,,,,,,,,,,,,,,,,,,,,,,,,,,,,,,,,,,,,,,,,,,,,,,,,,,,,,,,,,,,,,,,,,,,,,,,54640,2022-12-01_08h06.47.788,vts_reward_expectancy_bt_OFFLINE,2022.2.4,60.0205125541495,
1,0,0,0,0,1,0,0,triangle,circle,0,0,0,0,0,2,2,0,,,,,,,,,,,,,,,,,,,,,,,,,,,,,,,,,,,,,,,,335.6959307543002,335.6959307543002,335.6959307543002,335.6959307543002,335.6959307543002,335.6959307543002,335.6959307543002,335.6959307543002,335.6959307543002,335.6959307543002,a,4.016046106815338,1,12,0,339.7325710533187,341.2330728871748,341.2330728871748,341.73335978621617,,,,,,,,,,,,,,,,,,,,,,,,,,,,,,,,,,,,,,,,,,,,,,,,,,,,,,,,,,,,,,,,,,,,,54640,2022-12-01_08h06.47.788,vts_reward_expectancy_bt_OFFLINE,2022.2.4,60.0205125541495,
1,0,0,0,0,0,0,1,triangle,star,0,0,0,0,0,3,3,2,,,,,,,,,,,,,,,,,,,,,,,,,,,,,,,,,,,,,,,,341.73335978621617,341.73335978621617,341.73335978621617,341.73335978621617,341.73335978621617,341.73335978621617,341.73335978621617,341.73335978621617,341.73335978621617,341.73335978621617,l,1.8032398018985987,1,13,0,343.5692452811636,345.06967902509496,345.06967902509496,345.56984227802604,,,,,,,,,,,,,,,,,,,,,,,,,,,,,,,,,,,,,,,,,,,,,,,,,,,,,,,,,,,,,,,,,,,,,54640,2022-12-01_08h06.47.788,vts_reward_expectancy_bt_OFFLINE,2022.2.4,60.0205125541495,
0,0,1,0,0,1,0,0,hexagon,circle,0,0,0,0,0,4,4,7,,,,,,,,,,,,,,,,,,,,,,,,,,,,,,,,,,,,,,,,345.56984227802604,345.56984227802604,345.56984227802604,345.56984227802604,345.56984227802604,345.56984227802604,345.56984227802604,345.56984227802604,345.56984227802604,345.56984227802604,l,2.6472584046423435,1,14,0,348.23740483401343,349.73984081530944,,,,,,,,,,,,,,,,,,,,,,,,,,,,,,,,,,,,,,,,,,,,,,,,,,,,,,,,,,,,,,,,,,,,,,,54640,2022-12-01_08h06.47.788,vts_reward_expectancy_bt_OFFLINE,2022.2.4,60.0205125541495,
0,0,0,1,0,1,0,0,star ,circle,0,0,0,0,0,5,5,10,,,,,,,,,,,,,,,,,,,,,,,,,,,,,,,,,,,,,,,,350.2398282852955,350.2398282852955,350.2398282852955,350.2398282852955,350.2398282852955,350.2398282852955,350.2398282852955,350.2398282852955,350.2398282852955,350.2398282852955,a,1.802165150642395,1,15,0,352.0740447482094,353.5761774890125,,,,,,,,,,,,,,,,,,,,,,,,,,,,,,,,,,,,,,,,,,,,,,,,,,,,,,,,,,,,,,,,,,,,,,,54640,2022-12-01_08h06.47.788,vts_reward_expectancy_bt_OFFLINE,2022.2.4,60.0205125541495,
0,1,0,0,1,0,0,0,circle,triangle,0,0,0,0,0,6,6,3,,,,,,,,,,,,,,,,,,,,,,,,,,,,,,,,,,,,,,,,354.0764590022154,354.0764590022154,354.0764590022154,354.0764590022154,354.0764590022154,354.0764590022154,354.0764590022154,354.0764590022154,354.0764590022154,354.0764590022154,a,2.994553222786635,1,16,0,357.0942376633175,358.59677196806297,,,,,,,,,,,,,,,,,,,,,,,,,,,,,,,,,,,,,,,,,,,,,,,,,,,,,,,,,,,,,,,,,,,,,,,54640,2022-12-01_08h06.47.788,vts_reward_expectancy_bt_OFFLINE,2022.2.4,60.0205125541495,
0,1,0,0,0,0,0,1,circle,star,0,0,0,0,0,7,7,5,,,,,,,,,,,,,,,,,,,,,,,,,,,,,,,,,,,,,,,,359.097069228068,359.097069228068,359.097069228068,359.097069228068,359.097069228068,359.097069228068,359.097069228068,359.097069228068,359.097069228068,359.097069228068,l,2.2494363919831812,1,17,0,361.3642310760915,362.86500680819154,362.86500680819154,363.3650733702816,,,,,,,,,,,,,,,,,,,,,,,,,,,,,,,,,,,,,,,,,,,,,,,,,,,,,,,,,,,,,,,,,,,,,54640,2022-12-01_08h06.47.788,vts_reward_expectancy_bt_OFFLINE,2022.2.4,60.0205125541495,
0,0,1,0,0,0,0,1,hexagon,star,0,0,0,0,0,8,8,8,,,,,,,,,,,,,,,,,,,,,,,,,,,,,,,,,,,,,,,,363.3650733702816,363.3650733702816,363.3650733702816,363.3650733702816,363.3650733702816,363.3650733702816,363.3650733702816,363.3650733702816,363.3650733702816,363.3650733702816,a,1.9872413650155067,10,27,0,365.38439290225506,366.88482810696587,366.88482810696587,367.38496000226587,,,,,,,,,,,,,,,,,,,,,,,,,,,,,,,,,,,,,,,,,,,,,,,,,,,,,,,,,,,,,,,,,,,,,54640,2022-12-01_08h06.47.788,vts_reward_expectancy_bt_OFFLINE,2022.2.4,60.0205125541495,
0,0,0,1,1,0,0,0,star,triangle,0,0,0,0,0,9,9,9,,,,,,,,,,,,,,,,,,,,,,,,,,,,,,,,,,,,,,,,367.38496000226587,367.38496000226587,367.38496000226587,367.38496000226587,367.38496000226587,367.38496000226587,367.38496000226587,367.38496000226587,367.38496000226587,367.38496000226587,l,1.6803196328692138,1,28,0,369.0887325340882,370.6047195373103,,,,,,,,,,,,,,,,,,,,,,,,,,,,,,,,,,,,,,,,,,,,,,,,,,,,,,,,,,,,,,,,,,,,,,,54640,2022-12-01_08h06.47.788,vts_reward_expectancy_bt_OFFLINE,2022.2.4,60.0205125541495,
1,0,0,0,0,0,1,0,triangle,hexagon,0,0,0,0,0,10,10,1,,,,,,,,,,,,,,,,,,,,,,,,,,,,,,,,,,,,,,,,371.0882249432616,371.0882249432616,371.0882249432616,371.0882249432616,371.0882249432616,371.0882249432616,371.0882249432616,371.0882249432616,371.0882249432616,371.0882249432616,l,1.9135513911023736,10,38,0,373.0238023418933,374.5245604258962,,,,,,,,,,,,,,,,,,,,,,,,,,,,,,,,,,,,,,,,,,,,,,,,,,,,,,,,,,,,,,,,,,,,,,,54640,2022-12-01_08h06.47.788,vts_reward_expectancy_bt_OFFLINE,2022.2.4,60.0205125541495,
0,0,0,1,0,0,1,0,star,hexagon,0,0,0,0,0,11,11,11,,,,,,,,,,,,,,,,,,,,,,,,,,,,,,,,,,,,,,,,375.02483362331986,375.02483362331986,375.02483362331986,375.02483362331986,375.02483362331986,375.02483362331986,375.02483362331986,375.02483362331986,375.02483362331986,375.02483362331986,a,1.58913360722363,1,39,0,376.6438401429914,378.15937525127083,,,,,,,,,,,,,,,,,,,,,,,,,,,,,,,,,,,,,,,,,,,,,,,,,,,,,,,,,,,,,,,,,,,,,,,54640,2022-12-01_08h06.47.788,vts_reward_expectancy_bt_OFFLINE,2022.2.4,60.0205125541495,
0,0,1,0,1,0,0,0,hexagon,triangle,0,0,0,0,1,0,12,6,,,,,,,,,,,,,,,,,,,,,,,,,,,,,,,,,,,,,,,,378.6446044500917,378.6446044500917,378.6446044500917,378.6446044500917,378.6446044500917,378.6446044500917,378.6446044500917,378.6446044500917,378.6446044500917,378.6446044500917,a,1.861397088970989,10,49,0,380.53037652606145,382.0459114559926,,,,,,,,,,,,,,,,,,,,,,,,,,,,,,,,,,,,,,,,,,,,,,,,,,,,,,,,,,,,,,,,,,,,,,,54640,2022-12-01_08h06.47.788,vts_reward_expectancy_bt_OFFLINE,2022.2.4,60.0205125541495,
0,1,0,0,1,0,0,0,circle,triangle,0,0,0,0,1,1,13,3,,,,,,,,,,,,,,,,,,,,,,,,,,,,,,,,,,,,,,,,382.5461555579677,382.5461555579677,382.5461555579677,382.5461555579677,382.5461555579677,382.5461555579677,382.5461555579677,382.5461555579677,382.5461555579677,382.5461555579677,a,2.6063114409334958,1,50,0,385.18380240211263,386.6993797752075,,,,,,,,,,,,,,,,,,,,,,,,,,,,,,,,,,,,,,,,,,,,,,,,,,,,,,,,,,,,,,,,,,,,,,,54640,2022-12-01_08h06.47.788,vts_reward_expectancy_bt_OFFLINE,2022.2.4,60.0205125541495,
1,0,0,0,0,0,0,1,triangle,star,0,0,0,0,1,2,14,2,,,,,,,,,,,,,,,,,,,,,,,,,,,,,,,,,,,,,,,,387.1992555190809,387.1992555190809,387.1992555190809,387.1992555190809,387.1992555190809,387.1992555190809,387.1992555190809,387.1992555190809,387.1992555190809,387.1992555190809,l,1.643700597807765,10,60,0,388.8700205949135,390.38582970015705,,,,,,,,,,,,,,,,,,,,,,,,,,,,,,,,,,,,,,,,,,,,,,,,,,,,,,,,,,,,,,,,,,,,,,,54640,2022-12-01_08h06.47.788,vts_reward_expectancy_bt_OFFLINE,2022.2.4,60.0205125541495,
0,1,0,0,0,0,1,0,circle,hexagon,0,0,0,0,1,3,15,4,,,,,,,,,,,,,,,,,,,,,,,,,,,,,,,,,,,,,,,,390.88600353198126,390.88600353198126,390.88600353198126,390.88600353198126,390.88600353198126,390.88600353198126,390.88600353198126,390.88600353198126,390.88600353198126,390.88600353198126,l,1.7376325689256191,10,70,0,392.65333182225004,394.15568410232663,,,,,,,,,,,,,,,,,,,,,,,,,,,,,,,,,,,,,,,,,,,,,,,,,,,,,,,,,,,,,,,,,,,,,,,54640,2022-12-01_08h06.47.788,vts_reward_expectancy_bt_OFFLINE,2022.2.4,60.0205125541495,
1,0,0,0,0,0,1,0,triangle,hexagon,0,0,0,0,1,4,16,1,,,,,,,,,,,,,,,,,,,,,,,,,,,,,,,,,,,,,,,,394.65578572731465,394.65578572731465,394.65578572731465,394.65578572731465,394.65578572731465,394.65578572731465,394.65578572731465,394.65578572731465,394.65578572731465,394.65578572731465,a,1.578623223118484,1,71,0,396.2581653823145,397.7738122572191,,,,,,,,,,,,,,,,,,,,,,,,,,,,,,,,,,,,,,,,,,,,,,,,,,,,,,,,,,,,,,,,,,,,,,,54640,2022-12-01_08h06.47.788,vts_reward_expectancy_bt_OFFLINE,2022.2.4,60.0205125541495,
0,0,0,1,0,1,0,0,star ,circle,0,0,0,0,1,5,17,10,,,,,,,,,,,,,,,,,,,,,,,,,,,,,,,,,,,,,,,,398.2736939522438,398.2736939522438,398.2736939522438,398.2736939522438,398.2736939522438,398.2736939522438,398.2736939522438,398.2736939522438,398.2736939522438,398.2736939522438,a,1.3705521482042968,1,72,0,399.6761366939172,401.17676188610494,401.17676188610494,401.677151564043,,,,,,,,,,,,,,,,,,,,,,,,,,,,,,,,,,,,,,,,,,,,,,,,,,,,,,,,,,,,,,,,,,,,,54640,2022-12-01_08h06.47.788,vts_reward_expectancy_bt_OFFLINE,2022.2.4,60.0205125541495,
1,0,0,0,0,1,0,0,triangle,circle,0,0,0,0,1,6,18,0,,,,,,,,,,,,,,,,,,,,,,,,,,,,,,,,,,,,,,,,401.677151564043,401.677151564043,401.677151564043,401.677151564043,401.677151564043,401.677151564043,401.677151564043,401.677151564043,401.677151564043,401.677151564043,l,1.3197435936890543,10,82,0,403.02929373132065,404.5294713033363,,,,,,,,,,,,,,,,,,,,,,,,,,,,,,,,,,,,,,,,,,,,,,,,,,,,,,,,,,,,,,,,,,,,,,,54640,2022-12-01_08h06.47.788,vts_reward_expectancy_bt_OFFLINE,2022.2.4,60.0205125541495,
0,0,0,1,1,0,0,0,star,triangle,0,0,0,0,1,7,19,9,,,,,,,,,,,,,,,,,,,,,,,,,,,,,,,,,,,,,,,,405.03009133413434,405.03009133413434,405.03009133413434,405.03009133413434,405.03009133413434,405.03009133413434,405.03009133413434,405.03009133413434,405.03009133413434,405.03009133413434,l,2.432569184806198,10,92,0,407.48052950622514,408.9833146841265,,,,,,,,,,,,,,,,,,,,,,,,,,,,,,,,,,,,,,,,,,,,,,,,,,,,,,,,,,,,,,,,,,,,,,,54640,2022-12-01_08h06.47.788,vts_reward_expectancy_bt_OFFLINE,2022.2.4,60.0205125541495,
0,0,0,1,0,0,1,0,star,hexagon,0,0,0,0,1,8,20,11,,,,,,,,,,,,,,,,,,,,,,,,,,,,,,,,,,,,,,,,409.4835613621399,409.4835613621399,409.4835613621399,409.4835613621399,409.4835613621399,409.4835613621399,409.4835613621399,409.4835613621399,409.4835613621399,409.4835613621399,l,1.7478692708536983,1,93,0,411.2520390972495,412.75148870330304,,,,,,,,,,,,,,,,,,,,,,,,,,,,,,,,,,,,,,,,,,,,,,,,,,,,,,,,,,,,,,,,,,,,,,,54640,2022-12-01_08h06.47.788,vts_reward_expectancy_bt_OFFLINE,2022.2.4,60.0205125541495,
0,1,0,0,0,0,0,1,circle,star,0,0,0,0,1,9,21,5,,,,,,,,,,,,,,,,,,,,,,,,,,,,,,,,,,,,,,,,413.25142710702494,413.25142710702494,413.25142710702494,413.25142710702494,413.25142710702494,413.25142710702494,413.25142710702494,413.25142710702494,413.25142710702494,413.25142710702494,l,1.4572998117655516,1,94,0,414.73697416996583,416.23774290597066,416.23774290597066,416.73792363516986,,,,,,,,,,,,,,,,,,,,,,,,,,,,,,,,,,,,,,,,,,,,,,,,,,,,,,,,,,,,,,,,,,,,,54640,2022-12-01_08h06.47.788,vts_reward_expectancy_bt_OFFLINE,2022.2.4,60.0205125541495,
0,0,1,0,0,1,0,0,hexagon,circle,0,0,0,0,1,10,22,7,,,,,,,,,,,,,,,,,,,,,,,,,,,,,,,,,,,,,,,,416.73792363516986,416.73792363516986,416.73792363516986,416.73792363516986,416.73792363516986,416.73792363516986,416.73792363516986,416.73792363516986,416.73792363516986,416.73792363516986,l,1.4246187158860266,1,95,0,418.1883872789331,419.6905887820758,,,,,,,,,,,,,,,,,,,,,,,,,,,,,,,,,,,,,,,,,,,,,,,,,,,,,,,,,,,,,,,,,,,,,,,54640,2022-12-01_08h06.47.788,vts_reward_expectancy_bt_OFFLINE,2022.2.4,60.0205125541495,
0,0,1,0,0,0,0,1,hexagon,star,0,0,0,0,1,11,23,8,,,,,,,,,,,,,,,,,,,,,,,,,,,,,,,,,,,,,,,,420.1908272849396,420.1908272849396,420.1908272849396,420.1908272849396,420.1908272849396,420.1908272849396,420.1908272849396,420.1908272849396,420.1908272849396,420.1908272849396,a,1.470898738130927,10,105,0,421.6931344810873,423.2086999421008,,,,,,,,,,,,,,,,,,,,,,,,,,,,,,,,,,,,,,,,,,,,,,,,,,,,,,,,,,,,,,,,,,,,,,,54640,2022-12-01_08h06.47.788,vts_reward_expectancy_bt_OFFLINE,2022.2.4,60.0205125541495,
0,0,0,1,0,1,0,0,star ,circle,0,0,0,0,2,0,24,10,,,,,,,,,,,,,,,,,,,,,,,,,,,,,,,,,,,,,,,,423.6941580493003,423.6941580493003,423.6941580493003,423.6941580493003,423.6941580493003,423.6941580493003,423.6941580493003,423.6941580493003,423.6941580493003,423.6941580493003,l,2.478995672892779,10,115,0,426.195086538326,427.6954282899387,427.6954282899387,428.1956121902913,,,,,,,,,,,,,,,,,,,,,,,,,,,,,,,,,,,,,,,,,,,,,,,,,,,,,,,,,,,,,,,,,,,,,54640,2022-12-01_08h06.47.788,vts_reward_expectancy_bt_OFFLINE,2022.2.4,60.0205125541495,
0,1,0,0,1,0,0,0,circle,triangle,0,0,0,0,2,1,25,3,,,,,,,,,,,,,,,,,,,,,,,,,,,,,,,,,,,,,,,,428.1956121902913,428.1956121902913,428.1956121902913,428.1956121902913,428.1956121902913,428.1956121902913,428.1956121902913,428.1956121902913,428.1956121902913,428.1956121902913,a,1.0932407900691032,10,125,0,429.3143128938973,430.81526818405837,,,,,,,,,,,,,,,,,,,,,,,,,,,,,,,,,,,,,,,,,,,,,,,,,,,,,,,,,,,,,,,,,,,,,,,54640,2022-12-01_08h06.47.788,vts_reward_expectancy_bt_OFFLINE,2022.2.4,60.0205125541495,
0,0,0,1,1,0,0,0,star,triangle,0,0,0,0,2,2,26,9,,,,,,,,,,,,,,,,,,,,,,,,,,,,,,,,,,,,,,,,431.3152028070763,431.3152028070763,431.3152028070763,431.3152028070763,431.3152028070763,431.3152028070763,431.3152028070763,431.3152028070763,431.3152028070763,431.3152028070763,a,2.0581709151156247,10,135,0,433.39942533290014,434.90168936923146,,,,,,,,,,,,,,,,,,,,,,,,,,,,,,,,,,,,,,,,,,,,,,,,,,,,,,,,,,,,,,,,,,,,,,,54640,2022-12-01_08h06.47.788,vts_reward_expectancy_bt_OFFLINE,2022.2.4,60.0205125541495,
1,0,0,0,0,0,0,1,triangle,star,0,0,0,0,2,3,27,2,,,,,,,,,,,,,,,,,,,,,,,,,,,,,,,,,,,,,,,,435.40202317293733,435.40202317293733,435.40202317293733,435.40202317293733,435.40202317293733,435.40202317293733,435.40202317293733,435.40202317293733,435.40202317293733,435.40202317293733,l,1.458276396151632,10,145,0,436.88567174691707,438.38613866921514,438.38613866921514,,,,,,,,,,,,,,,,,,,,,,,,,,,,,,,,,,,,,,,,,,,,,,,,,,,,,,,,,,,,,,,,,,,,,,54640,2022-12-01_08h06.47.788,vts_reward_expectancy_bt_OFFLINE,2022.2.4,60.0205125541495,
0,1,0,0,0,0,1,0,circle,hexagon,0,0,0,0,2,4,28,4,,,,,,,,,,,,,,,,,,,,,,,,,,,,,,,,,,,,,,,,438.8882055892609,438.8882055892609,438.8882055892609,438.8882055892609,438.8882055892609,438.8882055892609,438.8882055892609,438.8882055892609,438.8882055892609,438.8882055892609,a,1.336774280294776,1,146,0,440.2574573121965,441.77263584407046,,,,,,,,,,,,,,,,,,,,,,,,,,,,,,,,,,,,,,,,,,,,,,,,,,,,,,,,,,,,,,,,,,,,,,,54640,2022-12-01_08h06.47.788,vts_reward_expectancy_bt_OFFLINE,2022.2.4,60.0205125541495,
0,0,1,0,0,0,0,1,hexagon,star,0,0,0,0,2,5,29,8,,,,,,,,,,,,,,,,,,,,,,,,,,,,,,,,,,,,,,,,442.27270796103403,442.27270796103403,442.27270796103403,442.27270796103403,442.27270796103403,442.27270796103403,442.27270796103403,442.27270796103403,442.27270796103403,442.27270796103403,a,1.113049453124404,10,156,0,443.40829177806154,444.90916072623804,,,,,,,,,,,,,,,,,,,,,,,,,,,,,,,,,,,,,,,,,,,,,,,,,,,,,,,,,,,,,,,,,,,,,,,54640,2022-12-01_08h06.47.788,vts_reward_expectancy_bt_OFFLINE,2022.2.4,60.0205125541495,
1,0,0,0,0,0,1,0,triangle,hexagon,0,0,0,0,2,6,30,1,,,,,,,,,,,,,,,,,,,,,,,,,,,,,,,,,,,,,,,,445.4093078910373,445.4093078910373,445.4093078910373,445.4093078910373,445.4093078910373,445.4093078910373,445.4093078910373,445.4093078910373,445.4093078910373,445.4093078910373,l,1.3851377801038325,1,157,0,446.82691534888,448.32709228713065,448.32709228713065,,,,,,,,,,,,,,,,,,,,,,,,,,,,,,,,,,,,,,,,,,,,,,,,,,,,,,,,,,,,,,,,,,,,,,54640,2022-12-01_08h06.47.788,vts_reward_expectancy_bt_OFFLINE,2022.2.4,60.0205125541495,
0,1,0,0,0,0,0,1,circle,star,0,0,0,0,2,7,31,5,,,,,,,,,,,,,,,,,,,,,,,,,,,,,,,,,,,,,,,,448.8290436659008,448.8290436659008,448.8290436659008,448.8290436659008,448.8290436659008,448.8290436659008,448.8290436659008,448.8290436659008,448.8290436659008,448.8290436659008,a,1.7684562616050243,1,158,0,450.6294682342559,452.1299461913295,452.1299461913295,452.6300168549642,,,,,,,,,,,,,,,,,,,,,,,,,,,,,,,,,,,,,,,,,,,,,,,,,,,,,,,,,,,,,,,,,,,,,54640,2022-12-01_08h06.47.788,vts_reward_expectancy_bt_OFFLINE,2022.2.4,60.0205125541495,
0,0,1,0,0,1,0,0,hexagon,circle,0,0,0,0,2,8,32,7,,,,,,,,,,,,,,,,,,,,,,,,,,,,,,,,,,,,,,,,452.6300168549642,452.6300168549642,452.6300168549642,452.6300168549642,452.6300168549642,452.6300168549642,452.6300168549642,452.6300168549642,452.6300168549642,452.6300168549642,a,1.8498718170449138,10,168,0,454.500954402145,456.0168427079916,,,,,,,,,,,,,,,,,,,,,,,,,,,,,,,,,,,,,,,,,,,,,,,,,,,,,,,,,,,,,,,,,,,,,,,54640,2022-12-01_08h06.47.788,vts_reward_expectancy_bt_OFFLINE,2022.2.4,60.0205125541495,
1,0,0,0,0,1,0,0,triangle,circle,0,0,0,0,2,9,33,0,,,,,,,,,,,,,,,,,,,,,,,,,,,,,,,,,,,,,,,,456.5003300011158,456.5003300011158,456.5003300011158,456.5003300011158,456.5003300011158,456.5003300011158,456.5003300011158,456.5003300011158,456.5003300011158,456.5003300011158,l,1.3657749043777585,1,169,0,457.8857472301461,459.3864675760269,,,,,,,,,,,,,,,,,,,,,,,,,,,,,,,,,,,,,,,,,,,,,,,,,,,,,,,,,,,,,,,,,,,,,,,54640,2022-12-01_08h06.47.788,vts_reward_expectancy_bt_OFFLINE,2022.2.4,60.0205125541495,
0,0,1,0,1,0,0,0,hexagon,triangle,0,0,0,0,2,10,34,6,,,,,,,,,,,,,,,,,,,,,,,,,,,,,,,,,,,,,,,,459.8866518731229,459.8866518731229,459.8866518731229,459.8866518731229,459.8866518731229,459.8866518731229,459.8866518731229,459.8866518731229,459.8866518731229,459.8866518731229,a,1.3988216160796583,10,179,0,461.305730111897,462.8210976840928,,,,,,,,,,,,,,,,,,,,,,,,,,,,,,,,,,,,,,,,,,,,,,,,,,,,,,,,,,,,,,,,,,,,,,,54640,2022-12-01_08h06.47.788,vts_reward_expectancy_bt_OFFLINE,2022.2.4,60.0205125541495,
0,0,0,1,0,0,1,0,star,hexagon,0,0,0,0,2,11,35,11,,,,,,,,,,,,,,,,,,,,,,,,,,,,,,,,,,,,,,,,463.32083462830633,463.32083462830633,463.32083462830633,463.32083462830633,463.32083462830633,463.32083462830633,463.32083462830633,463.32083462830633,463.32083462830633,463.32083462830633,l,1.745368623174727,1,180,0,465.0922189070843,466.6074567208998,,,,,,,,,,,,,,,,,,,,,,,,,,,,,,,,,,,,,,,,,,,,,,,,,,,,,,,,,,,,,,,,,,,,,,,54640,2022-12-01_08h06.47.788,vts_reward_expectancy_bt_OFFLINE,2022.2.4,60.0205125541495,
1,0,0,0,0,0,1,0,triangle,hexagon,0,0,0,0,3,0,36,1,,,,,,,,,,,,,,,,,,,,,,,,,,,,,,,,,,,,,,,,467.10771153401583,467.10771153401583,467.10771153401583,467.10771153401583,467.10771153401583,467.10771153401583,467.10771153401583,467.10771153401583,467.10771153401583,467.10771153401583,l,1.7614296129904687,10,190,0,468.89570252224803,470.41078539192677,,,,,,,,,,,,,,,,,,,,,,,,,,,,,,,,,,,,,,,,,,,,,,,,,,,,,,,,,,,,,,,,,,,,,,,54640,2022-12-01_08h06.47.788,vts_reward_expectancy_bt_OFFLINE,2022.2.4,60.0205125541495,
1,0,0,0,0,0,0,1,triangle,star,0,0,0,0,3,1,37,2,,,,,,,,,,,,,,,,,,,,,,,,,,,,,,,,,,,,,,,,470.91076039196923,470.91076039196923,470.91076039196923,470.91076039196923,470.91076039196923,470.91076039196923,470.91076039196923,470.91076039196923,470.91076039196923,470.91076039196923,a,1.7827763138338923,10,200,0,472.71140774106607,474.21401189733297,,,,,,,,,,,,,,,,,,,,,,,,,,,,,,,,,,,,,,,,,,,,,,,,,,,,,,,,,,,,,,,,,,,,,,,54640,2022-12-01_08h06.47.788,vts_reward_expectancy_bt_OFFLINE,2022.2.4,60.0205125541495,
0,0,1,0,0,0,0,1,hexagon,star,0,0,0,0,3,2,38,8,,,,,,,,,,,,,,,,,,,,,,,,,,,,,,,,,,,,,,,,474.7140257433057,474.7140257433057,474.7140257433057,474.7140257433057,474.7140257433057,474.7140257433057,474.7140257433057,474.7140257433057,474.7140257433057,474.7140257433057,a,1.5349146779626608,10,210,0,476.2812365600839,477.78170870710164,477.78170870710164,478.28203665697947,,,,,,,,,,,,,,,,,,,,,,,,,,,,,,,,,,,,,,,,,,,,,,,,,,,,,,,,,,,,,,,,,,,,,54640,2022-12-01_08h06.47.788,vts_reward_expectancy_bt_OFFLINE,2022.2.4,60.0205125541495,
0,0,0,1,0,1,0,0,star ,circle,0,0,0,0,3,3,39,10,,,,,,,,,,,,,,,,,,,,,,,,,,,,,,,,,,,,,,,,478.28203665697947,478.28203665697947,478.28203665697947,478.28203665697947,478.28203665697947,478.28203665697947,478.28203665697947,478.28203665697947,478.28203665697947,478.28203665697947,l,1.578848322853446,10,220,0,479.8846820262261,481.3849474992603,481.3849474992603,481.8851280929521,,,,,,,,,,,,,,,,,,,,,,,,,,,,,,,,,,,,,,,,,,,,,,,,,,,,,,,,,,,,,,,,,,,,,54640,2022-12-01_08h06.47.788,vts_reward_expectancy_bt_OFFLINE,2022.2.4,60.0205125541495,
0,0,1,0,1,0,0,0,hexagon,triangle,0,0,0,0,3,4,40,6,,,,,,,,,,,,,,,,,,,,,,,,,,,,,,,,,,,,,,,,481.8851280929521,481.8851280929521,481.8851280929521,481.8851280929521,481.8851280929521,481.8851280929521,481.8851280929521,481.8851280929521,481.8851280929521,481.8851280929521,a,1.8909834958612919,1,221,0,483.8066151412204,485.32165041100234,,,,,,,,,,,,,,,,,,,,,,,,,,,,,,,,,,,,,,,,,,,,,,,,,,,,,,,,,,,,,,,,,,,,,,,54640,2022-12-01_08h06.47.788,vts_reward_expectancy_bt_OFFLINE,2022.2.4,60.0205125541495,
0,0,0,1,0,0,1,0,star,hexagon,0,0,0,0,3,5,41,11,,,,,,,,,,,,,,,,,,,,,,,,,,,,,,,,,,,,,,,,485.82183343498036,485.82183343498036,485.82183343498036,485.82183343498036,485.82183343498036,485.82183343498036,485.82183343498036,485.82183343498036,485.82183343498036,485.82183343498036,l,3.0287053869105875,10,231,0,488.87696720892563,490.39191840495914,,,,,,,,,,,,,,,,,,,,,,,,,,,,,,,,,,,,,,,,,,,,,,,,,,,,,,,,,,,,,,,,,,,,,,,54640,2022-12-01_08h06.47.788,vts_reward_expectancy_bt_OFFLINE,2022.2.4,60.0205125541495,
0,0,0,1,1,0,0,0,star,triangle,0,0,0,0,3,6,42,9,,,,,,,,,,,,,,,,,,,,,,,,,,,,,,,,,,,,,,,,490.8919578753412,490.8919578753412,490.8919578753412,490.8919578753412,490.8919578753412,490.8919578753412,490.8919578753412,490.8919578753412,490.8919578753412,490.8919578753412,a,1.1760629839263856,10,241,0,492.09262036392465,493.5947264148854,,,,,,,,,,,,,,,,,,,,,,,,,,,,,,,,,,,,,,,,,,,,,,,,,,,,,,,,,,,,,,,,,,,,,,,54640,2022-12-01_08h06.47.788,vts_reward_expectancy_bt_OFFLINE,2022.2.4,60.0205125541495,
0,1,0,0,1,0,0,0,circle,triangle,0,0,0,0,3,7,43,3,,,,,,,,,,,,,,,,,,,,,,,,,,,,,,,,,,,,,,,,494.095149863977,494.095149863977,494.095149863977,494.095149863977,494.095149863977,494.095149863977,494.095149863977,494.095149863977,494.095149863977,494.095149863977,a,1.2464716332033277,1,242,0,495.36428248602897,496.8793322290294,,,,,,,,,,,,,,,,,,,,,,,,,,,,,,,,,,,,,,,,,,,,,,,,,,,,,,,,,,,,,,,,,,,,,,,54640,2022-12-01_08h06.47.788,vts_reward_expectancy_bt_OFFLINE,2022.2.4,60.0205125541495,
0,1,0,0,0,0,1,0,circle,hexagon,0,0,0,0,3,8,44,4,,,,,,,,,,,,,,,,,,,,,,,,,,,,,,,,,,,,,,,,497.37965868925676,497.37965868925676,497.37965868925676,497.37965868925676,497.37965868925676,497.37965868925676,497.37965868925676,497.37965868925676,497.37965868925676,497.37965868925676,l,1.394320610910654,1,243,0,498.7986467271112,500.29904968105257,500.29904968105257,500.7993245990947,,,,,,,,,,,,,,,,,,,,,,,,,,,,,,,,,,,,,,,,,,,,,,,,,,,,,,,,,,,,,,,,,,,,,54640,2022-12-01_08h06.47.788,vts_reward_expectancy_bt_OFFLINE,2022.2.4,60.0205125541495,
0,1,0,0,0,0,0,1,circle,star,0,0,0,0,3,9,45,5,,,,,,,,,,,,,,,,,,,,,,,,,,,,,,,,,,,,,,,,500.7993245990947,500.7993245990947,500.7993245990947,500.7993245990947,500.7993245990947,500.7993245990947,500.7993245990947,500.7993245990947,500.7993245990947,500.7993245990947,a,0.9434380740858614,1,244,0,501.7661817409098,503.26691188989207,,,,,,,,,,,,,,,,,,,,,,,,,,,,,,,,,,,,,,,,,,,,,,,,,,,,,,,,,,,,,,,,,,,,,,,54640,2022-12-01_08h06.47.788,vts_reward_expectancy_bt_OFFLINE,2022.2.4,60.0205125541495,
1,0,0,0,0,1,0,0,triangle,circle,0,0,0,0,3,10,46,0,,,,,,,,,,,,,,,,,,,,,,,,,,,,,,,,,,,,,,,,503.76910176314414,503.76910176314414,503.76910176314414,503.76910176314414,503.76910176314414,503.76910176314414,503.76910176314414,503.76910176314414,503.76910176314414,503.76910176314414,l,1.2474026959389448,10,254,0,505.03836912009865,506.55316272517666,,,,,,,,,,,,,,,,,,,,,,,,,,,,,,,,,,,,,,,,,,,,,,,,,,,,,,,,,,,,,,,,,,,,,,,54640,2022-12-01_08h06.47.788,vts_reward_expectancy_bt_OFFLINE,2022.2.4,60.0205125541495,
0,0,1,0,0,1,0,0,hexagon,circle,0,0,0,0,3,11,47,7,,,,,,,,,,,,,,,,,,,,,,,,,,,,,,,,,,,,,,,,507.0534204612486,507.0534204612486,507.0534204612486,507.0534204612486,507.0534204612486,507.0534204612486,507.0534204612486,507.0534204612486,507.0534204612486,507.0534204612486,a,1.5183982220478356,1,255,0,508.59243047004566,510.10636862693354,,,,,,,,,,,,,,,,,,,,,,,,,,,,,,,,,,,,,,,,,,,,,,,,,,,,,,,,,,,,,,,,,,,,,,,54640,2022-12-01_08h06.47.788,vts_reward_expectancy_bt_OFFLINE,2022.2.4,60.0205125541495,
0,0,0,1,0,0,1,0,star,hexagon,1,0,1,0,0,0,0,11,,,,,,,,,,,,,,,,,,,,,,,,,,,,,,,,,,,,,,,,515.6204708740115,515.6204708740115,515.6204708740115,515.6204708740115,515.6204708740115,515.6204708740115,515.6204708740115,515.6204708740115,515.6204708740115,515.6204708740115,l,2.7618821039795876,1,256,1,518.4111330271699,519.9134547319263,,,,,,,,,,,,,,,,,,,,,,,,,,,,,,,,,,,,,,,,,,,,,,,,,,,,,,,,,,,,,,,,,,,,,,,54640,2022-12-01_08h06.47.788,vts_reward_expectancy_bt_OFFLINE,2022.2.4,60.0205125541495,
0,1,0,0,1,0,0,0,circle,triangle,1,0,1,0,0,1,1,3,,,,,,,,,,,,,,,,,,,,,,,,,,,,,,,,,,,,,,,,520.4138234411366,520.4138234411366,520.4138234411366,520.4138234411366,520.4138234411366,520.4138234411366,520.4138234411366,520.4138234411366,520.4138234411366,520.4138234411366,a,1.2536840350367129,1,257,1,521.698034754023,523.1979882093146,523.1979882093146,,,,,,,,,,,,,,,,,,,,,,,,,,,,,,,,,,,,,,,,,,,,,,,,,,,,,,,,,,,,,,,,,,,,,,54640,2022-12-01_08h06.47.788,vts_reward_expectancy_bt_OFFLINE,2022.2.4,60.0205125541495,
0,0,1,0,0,0,0,1,hexagon,star,1,0,1,0,0,2,2,8,,,,,,,,,,,,,,,,,,,,,,,,,,,,,,,,,,,,,,,,523.7000968470238,523.7000968470238,523.7000968470238,523.7000968470238,523.7000968470238,523.7000968470238,523.7000968470238,523.7000968470238,523.7000968470238,523.7000968470238,a,2.512537709902972,1,258,1,526.2342797350138,527.7349812672473,527.7349812672473,,,,,,,,,,,,,,,,,,,,,,,,,,,,,,,,,,,,,,,,,,,,,,,,,,,,,,,,,,,,,,,,,,,,,,54640,2022-12-01_08h06.47.788,vts_reward_expectancy_bt_OFFLINE,2022.2.4,60.0205125541495,
1,0,0,0,0,0,1,0,triangle,hexagon,1,0,1,0,0,3,3,1,,,,,,,,,,,,,,,,,,,,,,,,,,,,,,,,,,,,,,,,528.234846283216,528.234846283216,528.234846283216,528.234846283216,528.234846283216,528.234846283216,528.234846283216,528.234846283216,528.234846283216,528.234846283216,l,1.1962062758393586,10,268,1,529.4561586519703,530.9712440320291,,,,,,,,,,,,,,,,,,,,,,,,,,,,,,,,,,,,,,,,,,,,,,,,,,,,,,,,,,,,,,,,,,,,,,,54640,2022-12-01_08h06.47.788,vts_reward_expectancy_bt_OFFLINE,2022.2.4,60.0205125541495,
0,1,0,0,0,0,1,0,circle,hexagon,1,0,1,0,0,4,4,4,,,,,,,,,,,,,,,,,,,,,,,,,,,,,,,,,,,,,,,,531.4711660612375,531.4711660612375,531.4711660612375,531.4711660612375,531.4711660612375,531.4711660612375,531.4711660612375,531.4711660612375,531.4711660612375,531.4711660612375,a,1.300537038128823,10,278,1,532.7885771971196,534.2908545411192,,,,,,,,,,,,,,,,,,,,,,,,,,,,,,,,,,,,,,,,,,,,,,,,,,,,,,,,,,,,,,,,,,,,,,,54640,2022-12-01_08h06.47.788,vts_reward_expectancy_bt_OFFLINE,2022.2.4,60.0205125541495,
0,1,0,0,0,0,0,1,circle,star,1,0,1,0,0,5,5,5,,,,,,,,,,,,,,,,,,,,,,,,,,,,,,,,,,,,,,,,534.7909357580356,534.7909357580356,534.7909357580356,534.7909357580356,534.7909357580356,534.7909357580356,534.7909357580356,534.7909357580356,534.7909357580356,534.7909357580356,a,0.9066857933066785,10,288,1,535.7248224439099,537.2254830910824,537.2254830910824,,,,,,,,,,,,,,,,,,,,,,,,,,,,,,,,,,,,,,,,,,,,,,,,,,,,,,,,,,,,,,,,,,,,,,54640,2022-12-01_08h06.47.788,vts_reward_expectancy_bt_OFFLINE,2022.2.4,60.0205125541495,
0,0,1,0,1,0,0,0,hexagon,triangle,1,0,1,0,0,6,6,6,,,,,,,,,,,,,,,,,,,,,,,,,,,,,,,,,,,,,,,,537.7252834141254,537.7252834141254,537.7252834141254,537.7252834141254,537.7252834141254,537.7252834141254,537.7252834141254,537.7252834141254,537.7252834141254,537.7252834141254,l,1.8089839220046997,1,289,1,539.5633430313319,541.0787991350517,,,,,,,,,,,,,,,,,,,,,,,,,,,,,,,,,,,,,,,,,,,,,,,,,,,,,,,,,,,,,,,,,,,,,,,54640,2022-12-01_08h06.47.788,vts_reward_expectancy_bt_OFFLINE,2022.2.4,60.0205125541495,
0,0,0,1,1,0,0,0,star,triangle,1,0,1,0,0,7,7,9,,,,,,,,,,,,,,,,,,,,,,,,,,,,,,,,,,,,,,,,541.5616728332825,541.5616728332825,541.5616728332825,541.5616728332825,541.5616728332825,541.5616728332825,541.5616728332825,541.5616728332825,541.5616728332825,541.5616728332825,a,0.9418340041302145,1,290,1,542.5291245682165,544.031486865133,,,,,,,,,,,,,,,,,,,,,,,,,,,,,,,,,,,,,,,,,,,,,,,,,,,,,,,,,,,,,,,,,,,,,,,54640,2022-12-01_08h06.47.788,vts_reward_expectancy_bt_OFFLINE,2022.2.4,60.0205125541495,
0,0,0,1,0,1,0,0,star ,circle,1,0,1,0,0,8,8,10,,,,,,,,,,,,,,,,,,,,,,,,,,,,,,,,,,,,,,,,544.5317127793096,544.5317127793096,544.5317127793096,544.5317127793096,544.5317127793096,544.5317127793096,544.5317127793096,544.5317127793096,544.5317127793096,544.5317127793096,l,0.31309735029935837,1,291,1,544.8654442341067,546.3654738119803,546.3654738119803,546.8656743760221,,,,,,,,,,,,,,,,,,,,,,,,,,,,,,,,,,,,,,,,,,,,,,,,,,,,,,,,,,,,,,,,,,,,,54640,2022-12-01_08h06.47.788,vts_reward_expectancy_bt_OFFLINE,2022.2.4,60.0205125541495,
1,0,0,0,0,1,0,0,triangle,circle,1,0,1,0,0,9,9,0,,,,,,,,,,,,,,,,,,,,,,,,,,,,,,,,,,,,,,,,546.8656743760221,546.8656743760221,546.8656743760221,546.8656743760221,546.8656743760221,546.8656743760221,546.8656743760221,546.8656743760221,546.8656743760221,546.8656743760221,l,1.2863955958746374,1,292,1,548.1831961832941,549.6854278831743,,,,,,,,,,,,,,,,,,,,,,,,,,,,,,,,,,,,,,,,,,,,,,,,,,,,,,,,,,,,,,,,,,,,,,,54640,2022-12-01_08h06.47.788,vts_reward_expectancy_bt_OFFLINE,2022.2.4,60.0205125541495,
0,0,1,0,0,1,0,0,hexagon,circle,1,0,1,0,0,10,10,7,,,,,,,,,,,,,,,,,,,,,,,,,,,,,,,,,,,,,,,,550.1854212139733,550.1854212139733,550.1854212139733,550.1854212139733,550.1854212139733,550.1854212139733,550.1854212139733,550.1854212139733,550.1854212139733,550.1854212139733,a,0.40803489787504077,10,302,1,550.6213505701162,552.1361814993434,,,,,,,,,,,,,,,,,,,,,,,,,,,,,,,,,,,,,,,,,,,,,,,,,,,,,,,,,,,,,,,,,,,,,,,54640,2022-12-01_08h06.47.788,vts_reward_expectancy_bt_OFFLINE,2022.2.4,60.0205125541495,
1,0,0,0,0,0,0,1,triangle,star,1,0,1,0,0,11,11,2,,,,,,,,,,,,,,,,,,,,,,,,,,,,,,,,,,,,,,,,552.636208685115,552.636208685115,552.636208685115,552.636208685115,552.636208685115,552.636208685115,552.636208685115,552.636208685115,552.636208685115,552.636208685115,a,1.1641132473014295,1,303,1,553.8244633302093,555.3391933362,,,,,,,,,,,,,,,,,,,,,,,,,,,,,,,,,,,,,,,,,,,,,,,,,,,,,,,,,,,,,,,,,,,,,,,54640,2022-12-01_08h06.47.788,vts_reward_expectancy_bt_OFFLINE,2022.2.4,60.0205125541495,
0,1,0,0,0,0,0,1,circle,star,1,0,1,0,1,0,12,5,,,,,,,,,,,,,,,,,,,,,,,,,,,,,,,,,,,,,,,,555.8393430099823,555.8393430099823,555.8393430099823,555.8393430099823,555.8393430099823,555.8393430099823,555.8393430099823,555.8393430099823,555.8393430099823,555.8393430099823,l,0.8173257526941597,10,313,1,556.6873484193347,558.1904637389816,,,,,,,,,,,,,,,,,,,,,,,,,,,,,,,,,,,,,,,,,,,,,,,,,,,,,,,,,,,,,,,,,,,,,,,54640,2022-12-01_08h06.47.788,vts_reward_expectancy_bt_OFFLINE,2022.2.4,60.0205125541495,
0,1,0,0,1,0,0,0,circle,triangle,1,0,1,0,1,1,13,3,,,,,,,,,,,,,,,,,,,,,,,,,,,,,,,,,,,,,,,,558.6755673750304,558.6755673750304,558.6755673750304,558.6755673750304,558.6755673750304,558.6755673750304,558.6755673750304,558.6755673750304,558.6755673750304,558.6755673750304,l,1.4131787661463022,10,323,1,560.1094647552818,561.6100483923219,561.6100483923219,562.1100859539583,,,,,,,,,,,,,,,,,,,,,,,,,,,,,,,,,,,,,,,,,,,,,,,,,,,,,,,,,,,,,,,,,,,,,54640,2022-12-01_08h06.47.788,vts_reward_expectancy_bt_OFFLINE,2022.2.4,60.0205125541495,
0,0,1,0,1,0,0,0,hexagon,triangle,1,0,1,0,1,2,14,6,,,,,,,,,,,,,,,,,,,,,,,,,,,,,,,,,,,,,,,,562.1100859539583,562.1100859539583,562.1100859539583,562.1100859539583,562.1100859539583,562.1100859539583,562.1100859539583,562.1100859539583,562.1100859539583,562.1100859539583,a,1.410210289992392,10,333,1,563.5438185282983,565.0463913478889,,,,,,,,,,,,,,,,,,,,,,,,,,,,,,,,,,,,,,,,,,,,,,,,,,,,,,,,,,,,,,,,,,,,,,,54640,2022-12-01_08h06.47.788,vts_reward_expectancy_bt_OFFLINE,2022.2.4,60.0205125541495,
0,0,0,1,0,1,0,0,star ,circle,1,0,1,0,1,3,15,10,,,,,,,,,,,,,,,,,,,,,,,,,,,,,,,,,,,,,,,,565.5466532409191,565.5466532409191,565.5466532409191,565.5466532409191,565.5466532409191,565.5466532409191,565.5466532409191,565.5466532409191,565.5466532409191,565.5466532409191,a,1.1923203649930656,10,343,1,566.763953988906,568.2641392452642,568.2641392452642,,,,,,,,,,,,,,,,,,,,,,,,,,,,,,,,,,,,,,,,,,,,,,,,,,,,,,,,,,,,,,,,,,,,,,54640,2022-12-01_08h06.47.788,vts_reward_expectancy_bt_OFFLINE,2022.2.4,60.0205125541495,
1,0,0,0,0,0,0,1,triangle,star,1,0,1,0,1,4,16,2,,,,,,,,,,,,,,,,,,,,,,,,,,,,,,,,,,,,,,,,568.7661928590387,568.7661928590387,568.7661928590387,568.7661928590387,568.7661928590387,568.7661928590387,568.7661928590387,568.7661928590387,568.7661928590387,568.7661928590387,l,3.7654905882664025,10,353,1,572.5511870472692,574.053273584228,,,,,,,,,,,,,,,,,,,,,,,,,,,,,,,,,,,,,,,,,,,,,,,,,,,,,,,,,,,,,,,,,,,,,,,54640,2022-12-01_08h06.47.788,vts_reward_expectancy_bt_OFFLINE,2022.2.4,60.0205125541495,
0,1,0,0,0,0,1,0,circle,hexagon,1,0,1,0,1,5,17,4,,,,,,,,,,,,,,,,,,,,,,,,,,,,,,,,,,,,,,,,574.5535967079923,574.5535967079923,574.5535967079923,574.5535967079923,574.5535967079923,574.5535967079923,574.5535967079923,574.5535967079923,574.5535967079923,574.5535967079923,a,3.3217698791995645,10,363,1,577.9048227760941,579.4069519932382,,,,,,,,,,,,,,,,,,,,,,,,,,,,,,,,,,,,,,,,,,,,,,,,,,,,,,,,,,,,,,,,,,,,,,,54640,2022-12-01_08h06.47.788,vts_reward_expectancy_bt_OFFLINE,2022.2.4,60.0205125541495,
1,0,0,0,0,1,0,0,triangle,circle,1,0,1,0,1,6,18,0,,,,,,,,,,,,,,,,,,,,,,,,,,,,,,,,,,,,,,,,579.9073020042852,579.9073020042852,579.9073020042852,579.9073020042852,579.9073020042852,579.9073020042852,579.9073020042852,579.9073020042852,579.9073020042852,579.9073020042852,a,2.0749302860349417,1,364,1,582.0102560380474,583.5252826493233,,,,,,,,,,,,,,,,,,,,,,,,,,,,,,,,,,,,,,,,,,,,,,,,,,,,,,,,,,,,,,,,,,,,,,,54640,2022-12-01_08h06.47.788,vts_reward_expectancy_bt_OFFLINE,2022.2.4,60.0205125541495,
0,0,1,0,0,0,0,1,hexagon,star,1,0,1,0,1,7,19,8,,,,,,,,,,,,,,,,,,,,,,,,,,,,,,,,,,,,,,,,584.0103841400705,584.0103841400705,584.0103841400705,584.0103841400705,584.0103841400705,584.0103841400705,584.0103841400705,584.0103841400705,584.0103841400705,584.0103841400705,a,1.4037058693356812,1,365,1,585.4447239208966,586.9448457462713,586.9448457462713,587.445068738889,,,,,,,,,,,,,,,,,,,,,,,,,,,,,,,,,,,,,,,,,,,,,,,,,,,,,,,,,,,,,,,,,,,,,54640,2022-12-01_08h06.47.788,vts_reward_expectancy_bt_OFFLINE,2022.2.4,60.0205125541495,
0,0,1,0,0,1,0,0,hexagon,circle,1,0,1,0,1,8,20,7,,,,,,,,,,,,,,,,,,,,,,,,,,,,,,,,,,,,,,,,587.445068738889,587.445068738889,587.445068738889,587.445068738889,587.445068738889,587.445068738889,587.445068738889,587.445068738889,587.445068738889,587.445068738889,l,0.5335865439847112,1,366,1,587.9958231551573,589.4976402721368,,,,,,,,,,,,,,,,,,,,,,,,,,,,,,,,,,,,,,,,,,,,,,,,,,,,,,,,,,,,,,,,,,,,,,,54640,2022-12-01_08h06.47.788,vts_reward_expectancy_bt_OFFLINE,2022.2.4,60.0205125541495,
0,0,0,1,0,0,1,0,star,hexagon,1,0,1,0,1,9,21,11,,,,,,,,,,,,,,,,,,,,,,,,,,,,,,,,,,,,,,,,589.9978125281632,589.9978125281632,589.9978125281632,589.9978125281632,589.9978125281632,589.9978125281632,589.9978125281632,589.9978125281632,589.9978125281632,589.9978125281632,a,1.0632932647131383,10,376,1,591.0837345281616,592.5989680942148,,,,,,,,,,,,,,,,,,,,,,,,,,,,,,,,,,,,,,,,,,,,,,,,,,,,,,,,,,,,,,,,,,,,,,,54640,2022-12-01_08h06.47.788,vts_reward_expectancy_bt_OFFLINE,2022.2.4,60.0205125541495,
0,0,0,1,1,0,0,0,star,triangle,1,0,1,0,1,10,22,9,,,,,,,,,,,,,,,,,,,,,,,,,,,,,,,,,,,,,,,,593.0823242780752,593.0823242780752,593.0823242780752,593.0823242780752,593.0823242780752,593.0823242780752,593.0823242780752,593.0823242780752,593.0823242780752,593.0823242780752,a,1.2190511883236468,10,386,1,594.3187039471231,595.8185151210055,595.8185151210055,596.3186775199138,,,,,,,,,,,,,,,,,,,,,,,,,,,,,,,,,,,,,,,,,,,,,,,,,,,,,,,,,,,,,,,,,,,,,54640,2022-12-01_08h06.47.788,vts_reward_expectancy_bt_OFFLINE,2022.2.4,60.0205125541495,
1,0,0,0,0,0,1,0,triangle,hexagon,1,0,1,0,1,11,23,1,,,,,,,,,,,,,,,,,,,,,,,,,,,,,,,,,,,,,,,,596.3186775199138,596.3186775199138,596.3186775199138,596.3186775199138,596.3186775199138,596.3186775199138,596.3186775199138,596.3186775199138,596.3186775199138,596.3186775199138,l,2.4379827729426324,1,387,1,598.7893254109658,600.3053187220357,,,,,,,,,,,,,,,,,,,,,,,,,,,,,,,,,,,,,,,,,,,,,,,,,,,,,,,,,,,,,,,,,,,,,,,54640,2022-12-01_08h06.47.788,vts_reward_expectancy_bt_OFFLINE,2022.2.4,60.0205125541495,
0,0,0,1,0,1,0,0,star ,circle,1,0,1,0,2,0,24,10,,,,,,,,,,,,,,,,,,,,,,,,,,,,,,,,,,,,,,,,600.8053090670146,600.8053090670146,600.8053090670146,600.8053090670146,600.8053090670146,600.8053090670146,600.8053090670146,600.8053090670146,600.8053090670146,600.8053090670146,a,1.3939062380231917,1,388,1,602.2226753151044,603.7248927359469,,,,,,,,,,,,,,,,,,,,,,,,,,,,,,,,,,,,,,,,,,,,,,,,,,,,,,,,,,,,,,,,,,,,,,,54640,2022-12-01_08h06.47.788,vts_reward_expectancy_bt_OFFLINE,2022.2.4,60.0205125541495,
0,1,0,0,0,0,1,0,circle,hexagon,1,0,1,0,2,1,25,4,,,,,,,,,,,,,,,,,,,,,,,,,,,,,,,,,,,,,,,,604.2250700579025,604.2250700579025,604.2250700579025,604.2250700579025,604.2250700579025,604.2250700579025,604.2250700579025,604.2250700579025,604.2250700579025,604.2250700579025,a,1.5752703500911593,10,398,1,605.8280744701624,607.342965924181,,,,,,,,,,,,,,,,,,,,,,,,,,,,,,,,,,,,,,,,,,,,,,,,,,,,,,,,,,,,,,,,,,,,,,,54640,2022-12-01_08h06.47.788,vts_reward_expectancy_bt_OFFLINE,2022.2.4,60.0205125541495,
0,1,0,0,0,0,0,1,circle,star,1,0,1,0,2,2,26,5,,,,,,,,,,,,,,,,,,,,,,,,,,,,,,,,,,,,,,,,607.8266155873425,607.8266155873425,607.8266155873425,607.8266155873425,607.8266155873425,607.8266155873425,607.8266155873425,607.8266155873425,607.8266155873425,607.8266155873425,a,1.2700971248559654,1,399,1,609.1296537141316,610.6294164611027,610.6294164611027,611.1294259619899,,,,,,,,,,,,,,,,,,,,,,,,,,,,,,,,,,,,,,,,,,,,,,,,,,,,,,,,,,,,,,,,,,,,,54640,2022-12-01_08h06.47.788,vts_reward_expectancy_bt_OFFLINE,2022.2.4,60.0205125541495,
0,0,0,1,0,0,1,0,star,hexagon,1,0,1,0,2,3,27,11,,,,,,,,,,,,,,,,,,,,,,,,,,,,,,,,,,,,,,,,611.1294259619899,611.1294259619899,611.1294259619899,611.1294259619899,611.1294259619899,611.1294259619899,611.1294259619899,611.1294259619899,611.1294259619899,611.1294259619899,l,0.5885128239169717,10,409,1,611.7486719558947,613.2634805589914,,,,,,,,,,,,,,,,,,,,,,,,,,,,,,,,,,,,,,,,,,,,,,,,,,,,,,,,,,,,,,,,,,,,,,,54640,2022-12-01_08h06.47.788,vts_reward_expectancy_bt_OFFLINE,2022.2.4,60.0205125541495,
1,0,0,0,0,1,0,0,triangle,circle,1,0,1,0,2,4,28,0,,,,,,,,,,,,,,,,,,,,,,,,,,,,,,,,,,,,,,,,613.7487176260911,613.7487176260911,613.7487176260911,613.7487176260911,613.7487176260911,613.7487176260911,613.7487176260911,613.7487176260911,613.7487176260911,613.7487176260911,l,0.837587483227253,1,410,1,614.6181524163112,616.1330621573143,,,,,,,,,,,,,,,,,,,,,,,,,,,,,,,,,,,,,,,,,,,,,,,,,,,,,,,,,,,,,,,,,,,,,,,54640,2022-12-01_08h06.47.788,vts_reward_expectancy_bt_OFFLINE,2022.2.4,60.0205125541495,
1,0,0,0,0,0,0,1,triangle,star,1,0,1,0,2,5,29,2,,,,,,,,,,,,,,,,,,,,,,,,,,,,,,,,,,,,,,,,616.6330787353218,616.6330787353218,616.6330787353218,616.6330787353218,616.6330787353218,616.6330787353218,616.6330787353218,616.6330787353218,616.6330787353218,616.6330787353218,a,3.376207006163895,1,411,1,620.0370999160223,621.5368074281141,621.5368074281141,622.0370582761243,,,,,,,,,,,,,,,,,,,,,,,,,,,,,,,,,,,,,,,,,,,,,,,,,,,,,,,,,,,,,,,,,,,,,54640,2022-12-01_08h06.47.788,vts_reward_expectancy_bt_OFFLINE,2022.2.4,60.0205125541495,
0,0,1,0,0,1,0,0,hexagon,circle,1,0,1,0,2,6,30,7,,,,,,,,,,,,,,,,,,,,,,,,,,,,,,,,,,,,,,,,622.0370582761243,622.0370582761243,622.0370582761243,622.0370582761243,622.0370582761243,622.0370582761243,622.0370582761243,622.0370582761243,622.0370582761243,622.0370582761243,a,0.7396741011179984,10,421,1,622.806506362278,624.3063560333103,,,,,,,,,,,,,,,,,,,,,,,,,,,,,,,,,,,,,,,,,,,,,,,,,,,,,,,,,,,,,,,,,,,,,,,54640,2022-12-01_08h06.47.788,vts_reward_expectancy_bt_OFFLINE,2022.2.4,60.0205125541495,
0,0,1,0,1,0,0,0,hexagon,triangle,1,0,1,0,2,7,31,6,,,,,,,,,,,,,,,,,,,,,,,,,,,,,,,,,,,,,,,,624.8066384172998,624.8066384172998,624.8066384172998,624.8066384172998,624.8066384172998,624.8066384172998,624.8066384172998,624.8066384172998,624.8066384172998,624.8066384172998,a,1.0645141871646047,10,431,1,625.8909900151193,627.3908251351677,627.3908251351677,627.8909411560744,,,,,,,,,,,,,,,,,,,,,,,,,,,,,,,,,,,,,,,,,,,,,,,,,,,,,,,,,,,,,,,,,,,,,54640,2022-12-01_08h06.47.788,vts_reward_expectancy_bt_OFFLINE,2022.2.4,60.0205125541495,
1,0,0,0,0,0,1,0,triangle,hexagon,1,0,1,0,2,8,32,1,,,,,,,,,,,,,,,,,,,,,,,,,,,,,,,,,,,,,,,,627.8909411560744,627.8909411560744,627.8909411560744,627.8909411560744,627.8909411560744,627.8909411560744,627.8909411560744,627.8909411560744,627.8909411560744,627.8909411560744,l,0.9843179127201438,1,432,1,628.8955833571963,630.4103217520751,,,,,,,,,,,,,,,,,,,,,,,,,,,,,,,,,,,,,,,,,,,,,,,,,,,,,,,,,,,,,,,,,,,,,,,54640,2022-12-01_08h06.47.788,vts_reward_expectancy_bt_OFFLINE,2022.2.4,60.0205125541495,
0,0,0,1,1,0,0,0,star,triangle,1,0,1,0,2,9,33,9,,,,,,,,,,,,,,,,,,,,,,,,,,,,,,,,,,,,,,,,630.9105542972684,630.9105542972684,630.9105542972684,630.9105542972684,630.9105542972684,630.9105542972684,630.9105542972684,630.9105542972684,630.9105542972684,630.9105542972684,l,1.1143954028375447,10,442,1,632.0464802552015,633.5617427220568,,,,,,,,,,,,,,,,,,,,,,,,,,,,,,,,,,,,,,,,,,,,,,,,,,,,,,,,,,,,,,,,,,,,,,,54640,2022-12-01_08h06.47.788,vts_reward_expectancy_bt_OFFLINE,2022.2.4,60.0205125541495,
0,0,1,0,0,0,0,1,hexagon,star,1,0,1,0,2,10,34,8,,,,,,,,,,,,,,,,,,,,,,,,,,,,,,,,,,,,,,,,634.0468534049578,634.0468534049578,634.0468534049578,634.0468534049578,634.0468534049578,634.0468534049578,634.0468534049578,634.0468534049578,634.0468534049578,634.0468534049578,l,0.9374844478443265,10,452,1,635.0140111651272,636.5143184983172,636.5143184983172,637.014410013333,,,,,,,,,,,,,,,,,,,,,,,,,,,,,,,,,,,,,,,,,,,,,,,,,,,,,,,,,,,,,,,,,,,,,54640,2022-12-01_08h06.47.788,vts_reward_expectancy_bt_OFFLINE,2022.2.4,60.0205125541495,
0,1,0,0,1,0,0,0,circle,triangle,1,0,1,0,2,11,35,3,,,,,,,,,,,,,,,,,,,,,,,,,,,,,,,,,,,,,,,,637.014410013333,637.014410013333,637.014410013333,637.014410013333,637.014410013333,637.014410013333,637.014410013333,637.014410013333,637.014410013333,637.014410013333,l,0.8042503157630563,1,453,1,637.8506675390527,639.3506364040077,,,,,,,,,,,,,,,,,,,,,,,,,,,,,,,,,,,,,,,,,,,,,,,,,,,,,,,,,,,,,,,,,,,,,,,54640,2022-12-01_08h06.47.788,vts_reward_expectancy_bt_OFFLINE,2022.2.4,60.0205125541495,
0,1,0,0,0,0,1,0,circle,hexagon,1,0,1,0,3,0,36,4,,,,,,,,,,,,,,,,,,,,,,,,,,,,,,,,,,,,,,,,639.8506474080496,639.8506474080496,639.8506474080496,639.8506474080496,639.8506474080496,639.8506474080496,639.8506474080496,639.8506474080496,639.8506474080496,639.8506474080496,a,0.35303458105772734,1,454,1,640.2346709491685,641.7347703692503,641.7347703692503,642.2349770059809,,,,,,,,,,,,,,,,,,,,,,,,,,,,,,,,,,,,,,,,,,,,,,,,,,,,,,,,,,,,,,,,,,,,,54640,2022-12-01_08h06.47.788,vts_reward_expectancy_bt_OFFLINE,2022.2.4,60.0205125541495,
0,1,0,0,0,0,0,1,circle,star,1,0,1,0,3,1,37,5,,,,,,,,,,,,,,,,,,,,,,,,,,,,,,,,,,,,,,,,642.2349770059809,642.2349770059809,642.2349770059809,642.2349770059809,642.2349770059809,642.2349770059809,642.2349770059809,642.2349770059809,642.2349770059809,642.2349770059809,a,0.4901942200958729,10,464,1,642.7548599760048,644.2542241653427,,,,,,,,,,,,,,,,,,,,,,,,,,,,,,,,,,,,,,,,,,,,,,,,,,,,,,,,,,,,,,,,,,,,,,,54640,2022-12-01_08h06.47.788,vts_reward_expectancy_bt_OFFLINE,2022.2.4,60.0205125541495,
1,0,0,0,0,0,1,0,triangle,hexagon,1,0,1,0,3,2,38,1,,,,,,,,,,,,,,,,,,,,,,,,,,,,,,,,,,,,,,,,644.7543745110743,644.7543745110743,644.7543745110743,644.7543745110743,644.7543745110743,644.7543745110743,644.7543745110743,644.7543745110743,644.7543745110743,644.7543745110743,a,1.0297397603280842,1,465,1,645.8072979729623,647.321926729288,,,,,,,,,,,,,,,,,,,,,,,,,,,,,,,,,,,,,,,,,,,,,,,,,,,,,,,,,,,,,,,,,,,,,,,54640,2022-12-01_08h06.47.788,vts_reward_expectancy_bt_OFFLINE,2022.2.4,60.0205125541495,
1,0,0,0,0,0,0,1,triangle,star,1,0,1,0,3,3,39,2,,,,,,,,,,,,,,,,,,,,,,,,,,,,,,,,,,,,,,,,647.8220548280515,647.8220548280515,647.8220548280515,647.8220548280515,647.8220548280515,647.8220548280515,647.8220548280515,647.8220548280515,647.8220548280515,647.8220548280515,l,4.161136923823506,10,475,1,652.010990132112,653.5260220249183,,,,,,,,,,,,,,,,,,,,,,,,,,,,,,,,,,,,,,,,,,,,,,,,,,,,,,,,,,,,,,,,,,,,,,,54640,2022-12-01_08h06.47.788,vts_reward_expectancy_bt_OFFLINE,2022.2.4,60.0205125541495,
0,0,0,1,0,1,0,0,star ,circle,1,0,1,0,3,4,40,10,,,,,,,,,,,,,,,,,,,,,,,,,,,,,,,,,,,,,,,,654.0115661793388,654.0115661793388,654.0115661793388,654.0115661793388,654.0115661793388,654.0115661793388,654.0115661793388,654.0115661793388,654.0115661793388,654.0115661793388,a,2.0453611509874463,10,485,1,656.0794653953053,657.5793472370133,657.5793472370133,658.079525270965,,,,,,,,,,,,,,,,,,,,,,,,,,,,,,,,,,,,,,,,,,,,,,,,,,,,,,,,,,,,,,,,,,,,,54640,2022-12-01_08h06.47.788,vts_reward_expectancy_bt_OFFLINE,2022.2.4,60.0205125541495,
0,0,1,0,1,0,0,0,hexagon,triangle,1,0,1,0,3,5,41,6,,,,,,,,,,,,,,,,,,,,,,,,,,,,,,,,,,,,,,,,658.079525270965,658.079525270965,658.079525270965,658.079525270965,658.079525270965,658.079525270965,658.079525270965,658.079525270965,658.079525270965,658.079525270965,a,5.987997036892921,10,495,1,664.0857297191396,665.586123175919,665.586123175919,,,,,,,,,,,,,,,,,,,,,,,,,,,,,,,,,,,,,,,,,,,,,,,,,,,,,,,,,,,,,,,,,,,,,,54640,2022-12-01_08h06.47.788,vts_reward_expectancy_bt_OFFLINE,2022.2.4,60.0205125541495,
0,0,1,0,0,1,0,0,hexagon,circle,1,0,1,0,3,6,42,7,,,,,,,,,,,,,,,,,,,,,,,,,,,,,,,,,,,,,,,,666.0862370082177,666.0862370082177,666.0862370082177,666.0862370082177,666.0862370082177,666.0862370082177,666.0862370082177,666.0862370082177,666.0862370082177,666.0862370082177,l,1.8627635459415615,1,496,1,667.9724639300257,669.4723905213177,,,,,,,,,,,,,,,,,,,,,,,,,,,,,,,,,,,,,,,,,,,,,,,,,,,,,,,,,,,,,,,,,,,,,,,54640,2022-12-01_08h06.47.788,vts_reward_expectancy_bt_OFFLINE,2022.2.4,60.0205125541495,
0,0,0,1,0,0,1,0,star,hexagon,1,0,1,0,3,7,43,11,,,,,,,,,,,,,,,,,,,,,,,,,,,,,,,,,,,,,,,,669.9726717071608,669.9726717071608,669.9726717071608,669.9726717071608,669.9726717071608,669.9726717071608,669.9726717071608,669.9726717071608,669.9726717071608,669.9726717071608,l,2.070479996036738,1,497,1,672.0741804949939,673.5739784198813,673.5739784198813,,,,,,,,,,,,,,,,,,,,,,,,,,,,,,,,,,,,,,,,,,,,,,,,,,,,,,,,,,,,,,,,,,,,,,54640,2022-12-01_08h06.47.788,vts_reward_expectancy_bt_OFFLINE,2022.2.4,60.0205125541495,
1,0,0,0,0,1,0,0,triangle,circle,1,0,1,0,3,8,44,0,,,,,,,,,,,,,,,,,,,,,,,,,,,,,,,,,,,,,,,,674.0761750242673,674.0761750242673,674.0761750242673,674.0761750242673,674.0761750242673,674.0761750242673,674.0761750242673,674.0761750242673,674.0761750242673,674.0761750242673,a,1.8605155339464545,1,498,1,675.9604274509475,677.4606907679699,677.4606907679699,677.9605679931119,,,,,,,,,,,,,,,,,,,,,,,,,,,,,,,,,,,,,,,,,,,,,,,,,,,,,,,,,,,,,,,,,,,,,54640,2022-12-01_08h06.47.788,vts_reward_expectancy_bt_OFFLINE,2022.2.4,60.0205125541495,
0,0,0,1,1,0,0,0,star,triangle,1,0,1,0,3,9,45,9,,,,,,,,,,,,,,,,,,,,,,,,,,,,,,,,,,,,,,,,677.9605679931119,677.9605679931119,677.9605679931119,677.9605679931119,677.9605679931119,677.9605679931119,677.9605679931119,677.9605679931119,677.9605679931119,677.9605679931119,l,1.351198066957295,1,499,1,679.3304458251223,680.8301902650855,680.8301902650855,681.330296380911,,,,,,,,,,,,,,,,,,,,,,,,,,,,,,,,,,,,,,,,,,,,,,,,,,,,,,,,,,,,,,,,,,,,,54640,2022-12-01_08h06.47.788,vts_reward_expectancy_bt_OFFLINE,2022.2.4,60.0205125541495,
0,0,1,0,0,0,0,1,hexagon,star,1,0,1,0,3,10,46,8,,,,,,,,,,,,,,,,,,,,,,,,,,,,,,,,,,,,,,,,681.330296380911,681.330296380911,681.330296380911,681.330296380911,681.330296380911,681.330296380911,681.330296380911,681.330296380911,681.330296380911,681.330296380911,l,1.4803368812426925,1,500,1,682.8318046219647,684.333292319905,,,,,,,,,,,,,,,,,,,,,,,,,,,,,,,,,,,,,,,,,,,,,,,,,,,,,,,,,,,,,,,,,,,,,,,54640,2022-12-01_08h06.47.788,vts_reward_expectancy_bt_OFFLINE,2022.2.4,60.0205125541495,
0,1,0,0,1,0,0,0,circle,triangle,1,0,1,0,3,11,47,3,,,,,,,,,,,,,,,,,,,,,,,,,,,,,,,,,,,,,,,,684.8334878319874,684.8334878319874,684.8334878319874,684.8334878319874,684.8334878319874,684.8334878319874,684.8334878319874,684.8334878319874,684.8334878319874,684.8334878319874,l,1.0596402818337083,10,510,1,685.9199263202026,687.4345906791277,,,,,,,,,,,,,,,,,,,,,,,,,,,,,,,,,,,,,,,,,,,,,,,,,,,,,,,,,,,,,,,,,,,,,,,54640,2022-12-01_08h06.47.788,vts_reward_expectancy_bt_OFFLINE,2022.2.4,60.0205125541495,
0,1,0,0,0,0,1,0,circle,hexagon,2,0,2,0,0,0,0,4,,,,,,,,,,,,,,,,,,,,,,,,,,,,,,,,,,,,,,,,691.7324692909606,691.7324692909606,691.7324692909606,691.7324692909606,691.7324692909606,691.7324692909606,691.7324692909606,691.7324692909606,691.7324692909606,691.7324692909606,a,1.4956634622067213,1,511,2,693.2576097692363,694.757461217232,,,,,,,,,,,,,,,,,,,,,,,,,,,,,,,,,,,,,,,,,,,,,,,,,,,,,,,,,,,,,,,,,,,,,,,54640,2022-12-01_08h06.47.788,vts_reward_expectancy_bt_OFFLINE,2022.2.4,60.0205125541495,
0,1,0,0,0,0,0,1,circle,star,2,0,2,0,0,1,1,5,,,,,,,,,,,,,,,,,,,,,,,,,,,,,,,,,,,,,,,,695.2575520733371,695.2575520733371,695.2575520733371,695.2575520733371,695.2575520733371,695.2575520733371,695.2575520733371,695.2575520733371,695.2575520733371,695.2575520733371,l,0.9415368461050093,10,521,2,696.2271297150292,697.7418828043155,,,,,,,,,,,,,,,,,,,,,,,,,,,,,,,,,,,,,,,,,,,,,,,,,,,,,,,,,,,,,,,,,,,,,,,54640,2022-12-01_08h06.47.788,vts_reward_expectancy_bt_OFFLINE,2022.2.4,60.0205125541495,
0,0,0,1,0,1,0,0,star ,circle,2,0,2,0,0,2,2,10,,,,,,,,,,,,,,,,,,,,,,,,,,,,,,,,,,,,,,,,698.2419205242768,698.2419205242768,698.2419205242768,698.2419205242768,698.2419205242768,698.2419205242768,698.2419205242768,698.2419205242768,698.2419205242768,698.2419205242768,l,1.0050420979969203,1,522,2,699.2804693449289,700.794788364321,,,,,,,,,,,,,,,,,,,,,,,,,,,,,,,,,,,,,,,,,,,,,,,,,,,,,,,,,,,,,,,,,,,,,,,54640,2022-12-01_08h06.47.788,vts_reward_expectancy_bt_OFFLINE,2022.2.4,60.0205125541495,
0,0,0,1,1,0,0,0,star,triangle,2,0,2,0,0,3,3,9,,,,,,,,,,,,,,,,,,,,,,,,,,,,,,,,,,,,,,,,701.2946975692175,701.2946975692175,701.2946975692175,701.2946975692175,701.2946975692175,701.2946975692175,701.2946975692175,701.2946975692175,701.2946975692175,701.2946975692175,l,1.1033993461169302,10,532,2,702.4307626592927,703.9307265589014,703.9307265589014,704.4309863569215,,,,,,,,,,,,,,,,,,,,,,,,,,,,,,,,,,,,,,,,,,,,,,,,,,,,,,,,,,,,,,,,,,,,,54640,2022-12-01_08h06.47.788,vts_reward_expectancy_bt_OFFLINE,2022.2.4,60.0205125541495,
0,1,0,0,1,0,0,0,circle,triangle,2,0,2,0,0,4,4,3,,,,,,,,,,,,,,,,,,,,,,,,,,,,,,,,,,,,,,,,704.4309863569215,704.4309863569215,704.4309863569215,704.4309863569215,704.4309863569215,704.4309863569215,704.4309863569215,704.4309863569215,704.4309863569215,704.4309863569215,a,2.1522652939893305,10,542,2,706.6151852910407,708.1157542760484,708.1157542760484,708.6161881731823,,,,,,,,,,,,,,,,,,,,,,,,,,,,,,,,,,,,,,,,,,,,,,,,,,,,,,,,,,,,,,,,,,,,,54640,2022-12-01_08h06.47.788,vts_reward_expectancy_bt_OFFLINE,2022.2.4,60.0205125541495,
1,0,0,0,0,0,0,1,triangle,star,2,0,2,0,0,5,5,2,,,,,,,,,,,,,,,,,,,,,,,,,,,,,,,,,,,,,,,,708.6161881731823,708.6161881731823,708.6161881731823,708.6161881731823,708.6161881731823,708.6161881731823,708.6161881731823,708.6161881731823,708.6161881731823,708.6161881731823,l,2.9951501390896738,1,543,2,711.6384068462066,713.1363293151371,,,,,,,,,,,,,,,,,,,,,,,,,,,,,,,,,,,,,,,,,,,,,,,,,,,,,,,,,,,,,,,,,,,,,,,54640,2022-12-01_08h06.47.788,vts_reward_expectancy_bt_OFFLINE,2022.2.4,60.0205125541495,
1,0,0,0,0,0,1,0,triangle,hexagon,2,0,2,0,0,6,6,1,,,,,,,,,,,,,,,,,,,,,,,,,,,,,,,,,,,,,,,,713.6364101371728,713.6364101371728,713.6364101371728,713.6364101371728,713.6364101371728,713.6364101371728,713.6364101371728,713.6364101371728,713.6364101371728,713.6364101371728,l,2.5202460107393563,10,553,2,716.1903860229068,717.689695877023,717.689695877023,718.1898764679208,,,,,,,,,,,,,,,,,,,,,,,,,,,,,,,,,,,,,,,,,,,,,,,,,,,,,,,,,,,,,,,,,,,,,54640,2022-12-01_08h06.47.788,vts_reward_expectancy_bt_OFFLINE,2022.2.4,60.0205125541495,
0,0,1,0,0,1,0,0,hexagon,circle,2,0,2,0,0,7,7,7,,,,,,,,,,,,,,,,,,,,,,,,,,,,,,,,,,,,,,,,718.1898764679208,718.1898764679208,718.1898764679208,718.1898764679208,718.1898764679208,718.1898764679208,718.1898764679208,718.1898764679208,718.1898764679208,718.1898764679208,a,3.468535440042615,10,563,2,721.6772094140761,723.1770327351987,723.1770327351987,723.6767754252069,,,,,,,,,,,,,,,,,,,,,,,,,,,,,,,,,,,,,,,,,,,,,,,,,,,,,,,,,,,,,,,,,,,,,54640,2022-12-01_08h06.47.788,vts_reward_expectancy_bt_OFFLINE,2022.2.4,60.0205125541495,
0,0,0,1,0,0,1,0,star,hexagon,2,0,2,0,0,8,8,11,,,,,,,,,,,,,,,,,,,,,,,,,,,,,,,,,,,,,,,,723.6767754252069,723.6767754252069,723.6767754252069,723.6767754252069,723.6767754252069,723.6767754252069,723.6767754252069,723.6767754252069,723.6767754252069,723.6767754252069,l,1.8630095971748233,10,573,2,725.5636331620626,727.0631824759766,727.0631824759766,727.563350789249,,,,,,,,,,,,,,,,,,,,,,,,,,,,,,,,,,,,,,,,,,,,,,,,,,,,,,,,,,,,,,,,,,,,,54640,2022-12-01_08h06.47.788,vts_reward_expectancy_bt_OFFLINE,2022.2.4,60.0205125541495,
0,0,1,0,0,0,0,1,hexagon,star,2,0,2,0,0,9,9,8,,,,,,,,,,,,,,,,,,,,,,,,,,,,,,,,,,,,,,,,727.563350789249,727.563350789249,727.563350789249,727.563350789249,727.563350789249,727.563350789249,727.563350789249,727.563350789249,727.563350789249,727.563350789249,l,7.540034401696175,10,583,2,735.1211266103201,736.6372413849458,,,,,,,,,,,,,,,,,,,,,,,,,,,,,,,,,,,,,,,,,,,,,,,,,,,,,,,,,,,,,,,,,,,,,,,54640,2022-12-01_08h06.47.788,vts_reward_expectancy_bt_OFFLINE,2022.2.4,60.0205125541495,
0,0,1,0,1,0,0,0,hexagon,triangle,2,0,2,0,0,10,10,6,,,,,,,,,,,,,,,,,,,,,,,,,,,,,,,,,,,,,,,,737.1373541741632,737.1373541741632,737.1373541741632,737.1373541741632,737.1373541741632,737.1373541741632,737.1373541741632,737.1373541741632,737.1373541741632,737.1373541741632,a,1.6669770223088562,1,584,2,738.826231950894,740.3403452560306,,,,,,,,,,,,,,,,,,,,,,,,,,,,,,,,,,,,,,,,,,,,,,,,,,,,,,,,,,,,,,,,,,,,,,,54640,2022-12-01_08h06.47.788,vts_reward_expectancy_bt_OFFLINE,2022.2.4,60.0205125541495,
1,0,0,0,0,1,0,0,triangle,circle,2,0,2,0,0,11,11,0,,,,,,,,,,,,,,,,,,,,,,,,,,,,,,,,,,,,,,,,740.8406913429499,740.8406913429499,740.8406913429499,740.8406913429499,740.8406913429499,740.8406913429499,740.8406913429499,740.8406913429499,740.8406913429499,740.8406913429499,a,1.260153500828892,10,594,2,742.1273191682994,743.6415341729298,,,,,,,,,,,,,,,,,,,,,,,,,,,,,,,,,,,,,,,,,,,,,,,,,,,,,,,,,,,,,,,,,,,,,,,54640,2022-12-01_08h06.47.788,vts_reward_expectancy_bt_OFFLINE,2022.2.4,60.0205125541495,
0,0,1,0,0,0,0,1,hexagon,star,2,0,2,0,1,0,12,8,,,,,,,,,,,,,,,,,,,,,,,,,,,,,,,,,,,,,,,,744.1268654842861,744.1268654842861,744.1268654842861,744.1268654842861,744.1268654842861,744.1268654842861,744.1268654842861,744.1268654842861,744.1268654842861,744.1268654842861,l,1.9677440100349486,1,595,2,746.1146236122586,747.6280565829948,,,,,,,,,,,,,,,,,,,,,,,,,,,,,,,,,,,,,,,,,,,,,,,,,,,,,,,,,,,,,,,,,,,,,,,54640,2022-12-01_08h06.47.788,vts_reward_expectancy_bt_OFFLINE,2022.2.4,60.0205125541495,
0,1,0,0,1,0,0,0,circle,triangle,2,0,2,0,1,1,13,3,,,,,,,,,,,,,,,,,,,,,,,,,,,,,,,,,,,,,,,,748.1283100699075,748.1283100699075,748.1283100699075,748.1283100699075,748.1283100699075,748.1283100699075,748.1283100699075,748.1283100699075,748.1283100699075,748.1283100699075,l,1.5329072894528508,10,605,2,749.6951735680923,751.1981723969802,,,,,,,,,,,,,,,,,,,,,,,,,,,,,,,,,,,,,,,,,,,,,,,,,,,,,,,,,,,,,,,,,,,,,,,54640,2022-12-01_08h06.47.788,vts_reward_expectancy_bt_OFFLINE,2022.2.4,60.0205125541495,
0,0,1,0,1,0,0,0,hexagon,triangle,2,0,2,0,1,2,14,6,,,,,,,,,,,,,,,,,,,,,,,,,,,,,,,,,,,,,,,,751.6981547041796,751.6981547041796,751.6981547041796,751.6981547041796,751.6981547041796,751.6981547041796,751.6981547041796,751.6981547041796,751.6981547041796,751.6981547041796,a,2.1830039713531733,10,615,2,753.9014506503008,755.4013842851855,755.4013842851855,755.9015924553387,,,,,,,,,,,,,,,,,,,,,,,,,,,,,,,,,,,,,,,,,,,,,,,,,,,,,,,,,,,,,,,,,,,,,54640,2022-12-01_08h06.47.788,vts_reward_expectancy_bt_OFFLINE,2022.2.4,60.0205125541495,
0,0,0,1,0,1,0,0,star ,circle,2,0,2,0,1,3,15,10,,,,,,,,,,,,,,,,,,,,,,,,,,,,,,,,,,,,,,,,755.9015924553387,755.9015924553387,755.9015924553387,755.9015924553387,755.9015924553387,755.9015924553387,755.9015924553387,755.9015924553387,755.9015924553387,755.9015924553387,l,1.4885631711222231,10,625,2,757.4194339183159,758.921034659259,,,,,,,,,,,,,,,,,,,,,,,,,,,,,,,,,,,,,,,,,,,,,,,,,,,,,,,,,,,,,,,,,,,,,,,54640,2022-12-01_08h06.47.788,vts_reward_expectancy_bt_OFFLINE,2022.2.4,60.0205125541495,
0,0,1,0,0,1,0,0,hexagon,circle,2,0,2,0,1,4,16,7,,,,,,,,,,,,,,,,,,,,,,,,,,,,,,,,,,,,,,,,759.4212307180278,759.4212307180278,759.4212307180278,759.4212307180278,759.4212307180278,759.4212307180278,759.4212307180278,759.4212307180278,759.4212307180278,759.4212307180278,l,1.738902669865638,10,635,2,761.1893116813153,762.6890111402608,762.6890111402608,763.1892599361017,,,,,,,,,,,,,,,,,,,,,,,,,,,,,,,,,,,,,,,,,,,,,,,,,,,,,,,,,,,,,,,,,,,,,54640,2022-12-01_08h06.47.788,vts_reward_expectancy_bt_OFFLINE,2022.2.4,60.0205125541495,
0,1,0,0,0,0,1,0,circle,hexagon,2,0,2,0,1,5,17,4,,,,,,,,,,,,,,,,,,,,,,,,,,,,,,,,,,,,,,,,763.1892599361017,763.1892599361017,763.1892599361017,763.1892599361017,763.1892599361017,763.1892599361017,763.1892599361017,763.1892599361017,763.1892599361017,763.1892599361017,a,1.8630154128186405,1,636,2,765.0778999812901,766.5923472163267,,,,,,,,,,,,,,,,,,,,,,,,,,,,,,,,,,,,,,,,,,,,,,,,,,,,,,,,,,,,,,,,,,,,,,,54640,2022-12-01_08h06.47.788,vts_reward_expectancy_bt_OFFLINE,2022.2.4,60.0205125541495,
0,0,0,1,1,0,0,0,star,triangle,2,0,2,0,1,6,18,9,,,,,,,,,,,,,,,,,,,,,,,,,,,,,,,,,,,,,,,,767.0922720879316,767.0922720879316,767.0922720879316,767.0922720879316,767.0922720879316,767.0922720879316,767.0922720879316,767.0922720879316,767.0922720879316,767.0922720879316,l,5.587717655580491,1,637,2,772.6978581422009,774.1986439591274,,,,,,,,,,,,,,,,,,,,,,,,,,,,,,,,,,,,,,,,,,,,,,,,,,,,,,,,,,,,,,,,,,,,,,,54640,2022-12-01_08h06.47.788,vts_reward_expectancy_bt_OFFLINE,2022.2.4,60.0205125541495,
1,0,0,0,0,1,0,0,triangle,circle,2,0,2,0,1,7,19,0,,,,,,,,,,,,,,,,,,,,,,,,,,,,,,,,,,,,,,,,774.6988757541403,774.6988757541403,774.6988757541403,774.6988757541403,774.6988757541403,774.6988757541403,774.6988757541403,774.6988757541403,774.6988757541403,774.6988757541403,a,1.716269712895155,1,638,2,776.433733927086,777.9333477192558,777.9333477192558,778.4331347770058,,,,,,,,,,,,,,,,,,,,,,,,,,,,,,,,,,,,,,,,,,,,,,,,,,,,,,,,,,,,,,,,,,,,,54640,2022-12-01_08h06.47.788,vts_reward_expectancy_bt_OFFLINE,2022.2.4,60.0205125541495,
0,1,0,0,0,0,0,1,circle,star,2,0,2,0,1,8,20,5,,,,,,,,,,,,,,,,,,,,,,,,,,,,,,,,,,,,,,,,778.4331347770058,778.4331347770058,778.4331347770058,778.4331347770058,778.4331347770058,778.4331347770058,778.4331347770058,778.4331347770058,778.4331347770058,778.4331347770058,a,1.5601937361061573,1,639,2,780.020445690956,781.5197282619774,781.5197282619774,782.0198405990377,,,,,,,,,,,,,,,,,,,,,,,,,,,,,,,,,,,,,,,,,,,,,,,,,,,,,,,,,,,,,,,,,,,,,54640,2022-12-01_08h06.47.788,vts_reward_expectancy_bt_OFFLINE,2022.2.4,60.0205125541495,
1,0,0,0,0,0,1,0,triangle,hexagon,2,0,2,0,1,9,21,1,,,,,,,,,,,,,,,,,,,,,,,,,,,,,,,,,,,,,,,,782.0198405990377,782.0198405990377,782.0198405990377,782.0198405990377,782.0198405990377,782.0198405990377,782.0198405990377,782.0198405990377,782.0198405990377,782.0198405990377,a,1.3595914761535823,1,640,2,783.4051370332018,784.9062397102825,,,,,,,,,,,,,,,,,,,,,,,,,,,,,,,,,,,,,,,,,,,,,,,,,,,,,,,,,,,,,,,,,,,,,,,54640,2022-12-01_08h06.47.788,vts_reward_expectancy_bt_OFFLINE,2022.2.4,60.0205125541495,
1,0,0,0,0,0,0,1,triangle,star,2,0,2,0,1,10,22,2,,,,,,,,,,,,,,,,,,,,,,,,,,,,,,,,,,,,,,,,785.406538376119,785.406538376119,785.406538376119,785.406538376119,785.406538376119,785.406538376119,785.406538376119,785.406538376119,785.406538376119,785.406538376119,l,1.5958777610212564,10,650,2,787.0267913131975,788.5410545570776,,,,,,,,,,,,,,,,,,,,,,,,,,,,,,,,,,,,,,,,,,,,,,,,,,,,,,,,,,,,,,,,,,,,,,,54640,2022-12-01_08h06.47.788,vts_reward_expectancy_bt_OFFLINE,2022.2.4,60.0205125541495,
0,0,0,1,0,0,1,0,star,hexagon,2,0,2,0,1,11,23,11,,,,,,,,,,,,,,,,,,,,,,,,,,,,,,,,,,,,,,,,789.026326417923,789.026326417923,789.026326417923,789.026326417923,789.026326417923,789.026326417923,789.026326417923,789.026326417923,789.026326417923,789.026326417923,a,1.3061828771606088,1,651,2,790.3632533391938,791.8772744373418,,,,,,,,,,,,,,,,,,,,,,,,,,,,,,,,,,,,,,,,,,,,,,,,,,,,,,,,,,,,,,,,,,,,,,,54640,2022-12-01_08h06.47.788,vts_reward_expectancy_bt_OFFLINE,2022.2.4,60.0205125541495,
0,0,0,1,0,0,1,0,star,hexagon,2,0,2,0,2,0,24,11,,,,,,,,,,,,,,,,,,,,,,,,,,,,,,,,,,,,,,,,792.3772729933262,792.3772729933262,792.3772729933262,792.3772729933262,792.3772729933262,792.3772729933262,792.3772729933262,792.3772729933262,792.3772729933262,792.3772729933262,l,2.3435946023091674,10,661,2,794.7497790860943,796.2641723062843,,,,,,,,,,,,,,,,,,,,,,,,,,,,,,,,,,,,,,,,,,,,,,,,,,,,,,,,,,,,,,,,,,,,,,,54640,2022-12-01_08h06.47.788,vts_reward_expectancy_bt_OFFLINE,2022.2.4,60.0205125541495,
0,1,0,0,0,0,0,1,circle,star,2,0,2,0,2,1,25,5,,,,,,,,,,,,,,,,,,,,,,,,,,,,,,,,,,,,,,,,796.764121604152,796.764121604152,796.764121604152,796.764121604152,796.764121604152,796.764121604152,796.764121604152,796.764121604152,796.764121604152,796.764121604152,l,2.051482770126313,10,671,2,798.8344490230083,800.3341085473076,800.3341085473076,800.8341687088832,,,,,,,,,,,,,,,,,,,,,,,,,,,,,,,,,,,,,,,,,,,,,,,,,,,,,,,,,,,,,,,,,,,,,54640,2022-12-01_08h06.47.788,vts_reward_expectancy_bt_OFFLINE,2022.2.4,60.0205125541495,
0,0,1,0,1,0,0,0,hexagon,triangle,2,0,2,0,2,2,26,6,,,,,,,,,,,,,,,,,,,,,,,,,,,,,,,,,,,,,,,,800.8341687088832,800.8341687088832,800.8341687088832,800.8341687088832,800.8341687088832,800.8341687088832,800.8341687088832,800.8341687088832,800.8341687088832,800.8341687088832,a,2.583387979771942,10,681,2,803.4364430741407,804.9373651202768,,,,,,,,,,,,,,,,,,,,,,,,,,,,,,,,,,,,,,,,,,,,,,,,,,,,,,,,,,,,,,,,,,,,,,,54640,2022-12-01_08h06.47.788,vts_reward_expectancy_bt_OFFLINE,2022.2.4,60.0205125541495,
1,0,0,0,0,1,0,0,triangle,circle,2,0,2,0,2,3,27,0,,,,,,,,,,,,,,,,,,,,,,,,,,,,,,,,,,,,,,,,805.4380089761689,805.4380089761689,805.4380089761689,805.4380089761689,805.4380089761689,805.4380089761689,805.4380089761689,805.4380089761689,805.4380089761689,805.4380089761689,a,1.5004013292491436,1,682,2,806.9582823789679,808.4721256443299,,,,,,,,,,,,,,,,,,,,,,,,,,,,,,,,,,,,,,,,,,,,,,,,,,,,,,,,,,,,,,,,,,,,,,,54640,2022-12-01_08h06.47.788,vts_reward_expectancy_bt_OFFLINE,2022.2.4,60.0205125541495,
0,1,0,0,0,0,1,0,circle,hexagon,2,0,2,0,2,4,28,4,,,,,,,,,,,,,,,,,,,,,,,,,,,,,,,,,,,,,,,,808.9572730381042,808.9572730381042,808.9572730381042,808.9572730381042,808.9572730381042,808.9572730381042,808.9572730381042,808.9572730381042,808.9572730381042,808.9572730381042,a,1.739488460123539,1,683,2,810.7258338020183,812.2253016890027,812.2253016890027,812.7253241329454,,,,,,,,,,,,,,,,,,,,,,,,,,,,,,,,,,,,,,,,,,,,,,,,,,,,,,,,,,,,,,,,,,,,,54640,2022-12-01_08h06.47.788,vts_reward_expectancy_bt_OFFLINE,2022.2.4,60.0205125541495,
0,0,0,1,0,1,0,0,star ,circle,2,0,2,0,2,5,29,10,,,,,,,,,,,,,,,,,,,,,,,,,,,,,,,,,,,,,,,,812.7253241329454,812.7253241329454,812.7253241329454,812.7253241329454,812.7253241329454,812.7253241329454,812.7253241329454,812.7253241329454,812.7253241329454,812.7253241329454,l,1.446702605113387,10,693,2,814.1976076420397,815.7118297950365,,,,,,,,,,,,,,,,,,,,,,,,,,,,,,,,,,,,,,,,,,,,,,,,,,,,,,,,,,,,,,,,,,,,,,,54640,2022-12-01_08h06.47.788,vts_reward_expectancy_bt_OFFLINE,2022.2.4,60.0205125541495,
1,0,0,0,0,0,0,1,triangle,star,2,0,2,0,2,6,30,2,,,,,,,,,,,,,,,,,,,,,,,,,,,,,,,,,,,,,,,,816.211766497232,816.211766497232,816.211766497232,816.211766497232,816.211766497232,816.211766497232,816.211766497232,816.211766497232,816.211766497232,816.211766497232,a,1.234044201206416,1,694,2,817.4654328292236,818.9649863000959,,,,,,,,,,,,,,,,,,,,,,,,,,,,,,,,,,,,,,,,,,,,,,,,,,,,,,,,,,,,,,,,,,,,,,,54640,2022-12-01_08h06.47.788,vts_reward_expectancy_bt_OFFLINE,2022.2.4,60.0205125541495,
0,0,1,0,0,1,0,0,hexagon,circle,2,0,2,0,2,7,31,7,,,,,,,,,,,,,,,,,,,,,,,,,,,,,,,,,,,,,,,,819.4648622549139,819.4648622549139,819.4648622549139,819.4648622549139,819.4648622549139,819.4648622549139,819.4648622549139,819.4648622549139,819.4648622549139,819.4648622549139,a,2.9203686411492527,1,695,2,822.4165644431487,823.9183524451219,,,,,,,,,,,,,,,,,,,,,,,,,,,,,,,,,,,,,,,,,,,,,,,,,,,,,,,,,,,,,,,,,,,,,,,54640,2022-12-01_08h06.47.788,vts_reward_expectancy_bt_OFFLINE,2022.2.4,60.0205125541495,
0,0,0,1,1,0,0,0,star,triangle,2,0,2,0,2,8,32,9,,,,,,,,,,,,,,,,,,,,,,,,,,,,,,,,,,,,,,,,824.418387263082,824.418387263082,824.418387263082,824.418387263082,824.418387263082,824.418387263082,824.418387263082,824.418387263082,824.418387263082,824.418387263082,l,1.3982506426982582,1,696,2,825.8367333118804,827.3359802169725,827.3359802169725,827.8364251363091,,,,,,,,,,,,,,,,,,,,,,,,,,,,,,,,,,,,,,,,,,,,,,,,,,,,,,,,,,,,,,,,,,,,,54640,2022-12-01_08h06.47.788,vts_reward_expectancy_bt_OFFLINE,2022.2.4,60.0205125541495,
1,0,0,0,0,0,1,0,triangle,hexagon,2,0,2,0,2,9,33,1,,,,,,,,,,,,,,,,,,,,,,,,,,,,,,,,,,,,,,,,827.8364251363091,827.8364251363091,827.8364251363091,827.8364251363091,827.8364251363091,827.8364251363091,827.8364251363091,827.8364251363091,827.8364251363091,827.8364251363091,l,2.8633886920288205,1,697,2,830.7240675189532,832.2395337200724,,,,,,,,,,,,,,,,,,,,,,,,,,,,,,,,,,,,,,,,,,,,,,,,,,,,,,,,,,,,,,,,,,,,,,,54640,2022-12-01_08h06.47.788,vts_reward_expectancy_bt_OFFLINE,2022.2.4,60.0205125541495,
0,0,1,0,0,0,0,1,hexagon,star,2,0,2,0,2,10,34,8,,,,,,,,,,,,,,,,,,,,,,,,,,,,,,,,,,,,,,,,832.7398881050758,832.7398881050758,832.7398881050758,832.7398881050758,832.7398881050758,832.7398881050758,832.7398881050758,832.7398881050758,832.7398881050758,832.7398881050758,a,1.1994838509708643,10,707,2,833.9620736800134,835.4760711272247,,,,,,,,,,,,,,,,,,,,,,,,,,,,,,,,,,,,,,,,,,,,,,,,,,,,,,,,,,,,,,,,,,,,,,,54640,2022-12-01_08h06.47.788,vts_reward_expectancy_bt_OFFLINE,2022.2.4,60.0205125541495,
0,1,0,0,1,0,0,0,circle,triangle,2,0,2,0,2,11,35,3,,,,,,,,,,,,,,,,,,,,,,,,,,,,,,,,,,,,,,,,835.9763499149121,835.9763499149121,835.9763499149121,835.9763499149121,835.9763499149121,835.9763499149121,835.9763499149121,835.9763499149121,835.9763499149121,835.9763499149121,a,1.4507079017348588,10,717,2,837.4456570539623,838.9457737822086,,,,,,,,,,,,,,,,,,,,,,,,,,,,,,,,,,,,,,,,,,,,,,,,,,,,,,,,,,,,,,,,,,,,,,,54640,2022-12-01_08h06.47.788,vts_reward_expectancy_bt_OFFLINE,2022.2.4,60.0205125541495,
0,0,0,1,0,1,0,0,star ,circle,2,0,2,0,3,0,36,10,,,,,,,,,,,,,,,,,,,,,,,,,,,,,,,,,,,,,,,,839.4460273869336,839.4460273869336,839.4460273869336,839.4460273869336,839.4460273869336,839.4460273869336,839.4460273869336,839.4460273869336,839.4460273869336,839.4460273869336,l,1.716340878047049,1,718,2,841.1833840142936,842.6971585960127,,,,,,,,,,,,,,,,,,,,,,,,,,,,,,,,,,,,,,,,,,,,,,,,,,,,,,,,,,,,,,,,,,,,,,,54640,2022-12-01_08h06.47.788,vts_reward_expectancy_bt_OFFLINE,2022.2.4,60.0205125541495,
0,0,0,1,1,0,0,0,star,triangle,2,0,2,0,3,1,37,9,,,,,,,,,,,,,,,,,,,,,,,,,,,,,,,,,,,,,,,,843.1973963603377,843.1973963603377,843.1973963603377,843.1973963603377,843.1973963603377,843.1973963603377,843.1973963603377,843.1973963603377,843.1973963603377,843.1973963603377,a,1.5766291408799589,1,719,2,844.8008494479582,846.3004413200542,846.3004413200542,846.8005233481526,,,,,,,,,,,,,,,,,,,,,,,,,,,,,,,,,,,,,,,,,,,,,,,,,,,,,,,,,,,,,,,,,,,,,54640,2022-12-01_08h06.47.788,vts_reward_expectancy_bt_OFFLINE,2022.2.4,60.0205125541495,
0,1,0,0,0,0,0,1,circle,star,2,0,2,0,3,2,38,5,,,,,,,,,,,,,,,,,,,,,,,,,,,,,,,,,,,,,,,,846.8005233481526,846.8005233481526,846.8005233481526,846.8005233481526,846.8005233481526,846.8005233481526,846.8005233481526,846.8005233481526,846.8005233481526,846.8005233481526,a,1.809662587940693,10,729,2,848.6375441430137,850.136928814929,,,,,,,,,,,,,,,,,,,,,,,,,,,,,,,,,,,,,,,,,,,,,,,,,,,,,,,,,,,,,,,,,,,,,,,54640,2022-12-01_08h06.47.788,vts_reward_expectancy_bt_OFFLINE,2022.2.4,60.0205125541495,
0,0,1,0,0,1,0,0,hexagon,circle,2,0,2,0,3,3,39,7,,,,,,,,,,,,,,,,,,,,,,,,,,,,,,,,,,,,,,,,850.6371392682195,850.6371392682195,850.6371392682195,850.6371392682195,850.6371392682195,850.6371392682195,850.6371392682195,850.6371392682195,850.6371392682195,850.6371392682195,l,3.1372063541784883,10,739,2,853.8034160332754,855.307412234135,,,,,,,,,,,,,,,,,,,,,,,,,,,,,,,,,,,,,,,,,,,,,,,,,,,,,,,,,,,,,,,,,,,,,,,54640,2022-12-01_08h06.47.788,vts_reward_expectancy_bt_OFFLINE,2022.2.4,60.0205125541495,
0,0,0,1,0,0,1,0,star,hexagon,2,0,2,0,3,4,40,11,,,,,,,,,,,,,,,,,,,,,,,,,,,,,,,,,,,,,,,,855.8073550863191,855.8073550863191,855.8073550863191,855.8073550863191,855.8073550863191,855.8073550863191,855.8073550863191,855.8073550863191,855.8073550863191,855.8073550863191,l,4.413849599659443,10,749,2,860.2454296792857,861.7448359131813,861.7448359131813,862.2446605493315,,,,,,,,,,,,,,,,,,,,,,,,,,,,,,,,,,,,,,,,,,,,,,,,,,,,,,,,,,,,,,,,,,,,,54640,2022-12-01_08h06.47.788,vts_reward_expectancy_bt_OFFLINE,2022.2.4,60.0205125541495,
1,0,0,0,0,0,1,0,triangle,hexagon,2,0,2,0,3,5,41,1,,,,,,,,,,,,,,,,,,,,,,,,,,,,,,,,,,,,,,,,862.2446605493315,862.2446605493315,862.2446605493315,862.2446605493315,862.2446605493315,862.2446605493315,862.2446605493315,862.2446605493315,862.2446605493315,862.2446605493315,a,3.849018743261695,1,750,2,866.1183533971198,867.6321615208872,,,,,,,,,,,,,,,,,,,,,,,,,,,,,,,,,,,,,,,,,,,,,,,,,,,,,,,,,,,,,,,,,,,,,,,54640,2022-12-01_08h06.47.788,vts_reward_expectancy_bt_OFFLINE,2022.2.4,60.0205125541495,
1,0,0,0,0,0,0,1,triangle,star,2,0,2,0,3,6,42,2,,,,,,,,,,,,,,,,,,,,,,,,,,,,,,,,,,,,,,,,868.1320643909276,868.1320643909276,868.1320643909276,868.1320643909276,868.1320643909276,868.1320643909276,868.1320643909276,868.1320643909276,868.1320643909276,868.1320643909276,a,1.8663988313637674,10,760,2,870.0213462500833,871.5351591450162,,,,,,,,,,,,,,,,,,,,,,,,,,,,,,,,,,,,,,,,,,,,,,,,,,,,,,,,,,,,,,,,,,,,,,,54640,2022-12-01_08h06.47.788,vts_reward_expectancy_bt_OFFLINE,2022.2.4,60.0205125541495,
0,1,0,0,0,0,1,0,circle,hexagon,2,0,2,0,3,7,43,4,,,,,,,,,,,,,,,,,,,,,,,,,,,,,,,,,,,,,,,,872.0353490062989,872.0353490062989,872.0353490062989,872.0353490062989,872.0353490062989,872.0353490062989,872.0353490062989,872.0353490062989,872.0353490062989,872.0353490062989,l,1.4624967449344695,10,770,2,873.5204645949416,875.0216134279035,,,,,,,,,,,,,,,,,,,,,,,,,,,,,,,,,,,,,,,,,,,,,,,,,,,,,,,,,,,,,,,,,,,,,,,54640,2022-12-01_08h06.47.788,vts_reward_expectancy_bt_OFFLINE,2022.2.4,60.0205125541495,
0,0,1,0,0,0,0,1,hexagon,star,2,0,2,0,3,8,44,8,,,,,,,,,,,,,,,,,,,,,,,,,,,,,,,,,,,,,,,,875.5218756003305,875.5218756003305,875.5218756003305,875.5218756003305,875.5218756003305,875.5218756003305,875.5218756003305,875.5218756003305,875.5218756003305,875.5218756003305,a,1.7211461598053575,10,780,2,877.2740208040923,878.78983254591,,,,,,,,,,,,,,,,,,,,,,,,,,,,,,,,,,,,,,,,,,,,,,,,,,,,,,,,,,,,,,,,,,,,,,,54640,2022-12-01_08h06.47.788,vts_reward_expectancy_bt_OFFLINE,2022.2.4,60.0205125541495,
0,1,0,0,1,0,0,0,circle,triangle,2,0,2,0,3,9,45,3,,,,,,,,,,,,,,,,,,,,,,,,,,,,,,,,,,,,,,,,879.2748521841131,879.2748521841131,879.2748521841131,879.2748521841131,879.2748521841131,879.2748521841131,879.2748521841131,879.2748521841131,879.2748521841131,879.2748521841131,a,5.96841537207365,10,790,2,885.263478720095,886.7630022219382,886.7630022219382,887.2630056450143,,,,,,,,,,,,,,,,,,,,,,,,,,,,,,,,,,,,,,,,,,,,,,,,,,,,,,,,,,,,,,,,,,,,,54640,2022-12-01_08h06.47.788,vts_reward_expectancy_bt_OFFLINE,2022.2.4,60.0205125541495,
0,0,1,0,1,0,0,0,hexagon,triangle,2,0,2,0,3,10,46,6,,,,,,,,,,,,,,,,,,,,,,,,,,,,,,,,,,,,,,,,887.2630056450143,887.2630056450143,887.2630056450143,887.2630056450143,887.2630056450143,887.2630056450143,887.2630056450143,887.2630056450143,887.2630056450143,887.2630056450143,a,7.5091043883003294,1,791,2,894.8061432442628,896.3201416949742,,,,,,,,,,,,,,,,,,,,,,,,,,,,,,,,,,,,,,,,,,,,,,,,,,,,,,,,,,,,,,,,,,,,,,,54640,2022-12-01_08h06.47.788,vts_reward_expectancy_bt_OFFLINE,2022.2.4,60.0205125541495,
1,0,0,0,0,1,0,0,triangle,circle,2,0,2,0,3,11,47,0,,,,,,,,,,,,,,,,,,,,,,,,,,,,,,,,,,,,,,,,896.8201353373006,896.8201353373006,896.8201353373006,896.8201353373006,896.8201353373006,896.8201353373006,896.8201353373006,896.8201353373006,896.8201353373006,896.8201353373006,a,2.3396537583321333,10,801,2,899.1931671169586,900.7069433731958,,,,,,,,,,,,,,,,,,,,,,,,,,,,,,,,,,,,,,,,,,,,,,,,,,,,,,,,,,,,,,,,,,,,,,,54640,2022-12-01_08h06.47.788,vts_reward_expectancy_bt_OFFLINE,2022.2.4,60.0205125541495,
,,,,,,,,,,,,,,,,,,0,0,0,0,0,0,0,0,,,,,,,,,,,,,,,,,,,,,,,,,,,,,,,,,,,,,,,,,,,,,,,,948.4739662460051,,,125,Y,circle,-0.0006737848743796349,942.911171651911,944.3891469761729,944.3891469761729,944.3891469761729,0,0,f,2.5405029631219804,0,946.9613469392061,,,,,,,,,,,,,,,,,,,,,,,,,,,,,,,,,,,,,,,,,,,,,,,,,,,,,,,54640,2022-12-01_08h06.47.788,vts_reward_expectancy_bt_OFFLINE,2022.2.4,60.0205125541495,
,,,,,,,,,,,,,,,,,,0,0,0,0,1,0,1,0,,,,,,,,,,,,,,,,,,,,,,,,,,,,,,,,,,,,,,,,,,,,,,,,954.2296840962954,,,160,S,star,0.0018253480084240437,949.4667910030112,950.9433900951408,950.9433900951408,950.9433900951408,1,1,f,1.7592020072042942,0,952.7302858931944,,,,,,,,,,,,,,,,,,,,,,,,,,,,,,,,,,,,,,,,,,,,,,,,,,,,,,,54640,2022-12-01_08h06.47.788,vts_reward_expectancy_bt_OFFLINE,2022.2.4,60.0205125541495,
,,,,,,,,,,,,,,,,,,0,0,0,0,2,0,2,0,,,,,,,,,,,,,,,,,,,,,,,,,,,,,,,,,,,,,,,,,,,,,,,,960.2338479282334,,,174,W,triangle,0.0021868348121643066,955.2380730020814,956.7137128543109,956.7137128543109,956.7137128543109,1,0,f,1.9848936819471419,0,958.7312133479863,,,,,,,,,,,,,,,,,,,,,,,,,,,,,,,,,,,,,,,,,,,,,,,,,,,,,,,54640,2022-12-01_08h06.47.788,vts_reward_expectancy_bt_OFFLINE,2022.2.4,60.0205125541495,
,,,,,,,,,,,,,,,,,,0,0,0,0,3,0,3,0,,,,,,,,,,,,,,,,,,,,,,,,,,,,,,,,,,,,,,,,,,,,,,,,964.9871275071055,,,181,U,hexagon,0.0011733961291611195,961.2418726179749,962.7180214142427,962.7180214142427,962.7180214142427,1,0,f,0.7399238902144134,0,963.4859697269276,,,,,,,,,,,,,,,,,,,,,,,,,,,,,,,,,,,,,,,,,,,,,,,,,,,,,,,54640,2022-12-01_08h06.47.788,vts_reward_expectancy_bt_OFFLINE,2022.2.4,60.0205125541495,
,,,,,,,,,,,,,,,,,,0,0,0,0,4,0,4,0,,,,,,,,,,,,,,,,,,,,,,,,,,,,,,,,,,,,,,,,,,,,,,,,969.6740768002346,,,167,H,circle,0.0018815258517861366,965.9945083050989,967.4713478418998,967.4713478418998,967.4713478418998,1,0,f,0.6768855270929635,0,968.1730363899842,,,,,,,,,,,,,,,,,,,,,,,,,,,,,,,,,,,,,,,,,,,,,,,,,,,,,,,54640,2022-12-01_08h06.47.788,vts_reward_expectancy_bt_OFFLINE,2022.2.4,60.0205125541495,
,,,,,,,,,,,,,,,,,,0,0,0,0,5,0,5,0,,,,,,,,,,,,,,,,,,,,,,,,,,,,,,,,,,,,,,,,,,,,,,,,974.5440912330523,,,132,D,star,0.0018649650737643242,970.6815107171424,972.1580284759402,972.1580284759402,972.1580284759402,0,0,f,0.8622177303768694,0,973.0451772022061,,,,,,,,,,,,,,,,,,,,,,,,,,,,,,,,,,,,,,,,,,,,,,,,,,,,,,,54640,2022-12-01_08h06.47.788,vts_reward_expectancy_bt_OFFLINE,2022.2.4,60.0205125541495,
,,,,,,,,,,,,,,,,,,0,0,0,0,6,0,6,0,,,,,,,,,,,,,,,,,,,,,,,,,,,,,,,,,,,,,,,,,,,,,,,,979.8480473081581,,,139,F,hexagon,0.001990322954952717,975.5522357402369,977.0283485939726,977.0283485939726,977.0283485939726,0,1,f,1.2904921798035502,0,978.3472256623209,,,,,,,,,,,,,,,,,,,,,,,,,,,,,,,,,,,,,,,,,,,,,,,,,,,,,,,54640,2022-12-01_08h06.47.788,vts_reward_expectancy_bt_OFFLINE,2022.2.4,60.0205125541495,
,,,,,,,,,,,,,,,,,,0,0,0,0,7,0,7,0,,,,,,,,,,,,,,,,,,,,,,,,,,,,,,,,,,,,,,,,,,,,,,,,986.8523434973322,,,146,B,triangle,0.0018292148597538471,980.8553376691416,982.332109014038,982.332109014038,982.332109014038,0,1,None,,0,985.3518047551624,985.3352046520449,985.3352046520449,985.3352046520449,,,,,,,,,,,,,,,,,,,,,,,,,,,,,,,,,,,,,,,,,,,,,,,,,,,,54640,2022-12-01_08h06.47.788,vts_reward_expectancy_bt_OFFLINE,2022.2.4,60.0205125541495,
,,,,,,,,,,,,,,,,,,0,0,0,0,8,0,8,0,,,,,,,,,,,,,,,,,,,,,,,,,,,,,,,,,,,,,,,,,,,,,,,,992.2394022839144,,,125,Y,star,0.006451715715229511,987.8597333850339,989.3385660769418,989.3385660769418,989.3385660769418,1,1,d,1.3670954359695315,0,990.7255913419649,,,,,,,,,,,,,,,,,,,,,,,,,,,,,,,,,,,,,,,,,,,,,,,,,,,,,,,54640,2022-12-01_08h06.47.788,vts_reward_expectancy_bt_OFFLINE,2022.2.4,60.0205125541495,
,,,,,,,,,,,,,,,,,,0,0,0,0,9,0,9,0,,,,,,,,,,,,,,,,,,,,,,,,,,,,,,,,,,,,,,,,,,,,,,,,997.5262702982873,,,160,S,circle,0.01631007995456457,993.2343426872976,994.7086621383205,994.7086621383205,994.7086621383205,1,0,f,1.273644131142646,0,996.0106194801629,,,,,,,,,,,,,,,,,,,,,,,,,,,,,,,,,,,,,,,,,,,,,,,,,,,,,,,54640,2022-12-01_08h06.47.788,vts_reward_expectancy_bt_OFFLINE,2022.2.4,60.0205125541495,
,,,,,,,,,,,,,,,,,,1,0,1,0,0,0,0,0,,,,,,,,,,,,,,,,,,,,,,,,,,,,,,,,,,,,,,,,,,,,,,,,1009.336324413307,,,125,W,circle,0.0023284167982637882,1005.3237902782857,1006.8001740812324,1006.8001740812324,1006.8001740812324,1,0,d,1.0066080088727176,1,1007.8357155229896,,,,,,,,,,,,,,,,,,,,,,,,,,,,,,,,,,,,,,,,,,,,,,,,,,,,,,,54640,2022-12-01_08h06.47.788,vts_reward_expectancy_bt_OFFLINE,2022.2.4,60.0205125541495,
,,,,,,,,,,,,,,,,,,1,0,1,0,1,0,1,0,,,,,,,,,,,,,,,,,,,,,,,,,,,,,,,,,,,,,,,,,,,,,,,,1014.0064548789524,,,174,Y,hexagon,0.0019751102663576603,1010.3445815532468,1011.8203423982486,1011.8203423982486,1011.8203423982486,1,0,f,0.6666262033395469,1,1012.505813124124,,,,,,,,,,,,,,,,,,,,,,,,,,,,,,,,,,,,,,,,,,,,,,,,,,,,,,,54640,2022-12-01_08h06.47.788,vts_reward_expectancy_bt_OFFLINE,2022.2.4,60.0205125541495,
,,,,,,,,,,,,,,,,,,1,0,1,0,2,0,2,0,,,,,,,,,,,,,,,,,,,,,,,,,,,,,,,,,,,,,,,,,,,,,,,,1019.2433447991498,,,146,D,triangle,0.0019653206691145897,1015.0135564329103,1016.4907386661507,1016.4907386661507,1016.4907386661507,1,0,d,1.2283788141794503,1,1017.7427377658896,,,,,,,,,,,,,,,,,,,,,,,,,,,,,,,,,,,,,,,,,,,,,,,,,,,,,,,54640,2022-12-01_08h06.47.788,vts_reward_expectancy_bt_OFFLINE,2022.2.4,60.0205125541495,
,,,,,,,,,,,,,,,,,,1,0,1,0,3,0,3,0,,,,,,,,,,,,,,,,,,,,,,,,,,,,,,,,,,,,,,,,,,,,,,,,1023.911836782936,,,167,S,star,0.0020417040213942528,1020.250790625345,1021.7277206219733,1021.7277206219733,1021.7277206219733,1,0,f,0.6491866828873754,1,1022.3963503651321,,,,,,,,,,,,,,,,,,,,,,,,,,,,,,,,,,,,,,,,,,,,,,,,,,,,,,,54640,2022-12-01_08h06.47.788,vts_reward_expectancy_bt_OFFLINE,2022.2.4,60.0205125541495,
,,,,,,,,,,,,,,,,,,1,0,1,0,4,0,4,0,,,,,,,,,,,,,,,,,,,,,,,,,,,,,,,,,,,,,,,,,,,,,,,,1028.7489050459117,,,139,F,triangle,0.0020452551543712616,1024.9041020129807,1026.3812081492506,1026.3812081492506,1026.3812081492506,1,0,d,0.8222485859878361,1,1027.2330635599792,,,,,,,,,,,,,,,,,,,,,,,,,,,,,,,,,,,,,,,,,,,,,,,,,,,,,,,54640,2022-12-01_08h06.47.788,vts_reward_expectancy_bt_OFFLINE,2022.2.4,60.0205125541495,
,,,,,,,,,,,,,,,,,,1,0,1,0,5,0,5,0,,,,,,,,,,,,,,,,,,,,,,,,,,,,,,,,,,,,,,,,,,,,,,,,1033.8358111460693,,,160,H,hexagon,0.0019278591498732567,1029.741383745335,1031.218259613961,1031.218259613961,1031.218259613961,1,0,f,1.0809119730256498,1,1032.3202234511264,,,,,,,,,,,,,,,,,,,,,,,,,,,,,,,,,,,,,,,,,,,,,,,,,,,,,,,54640,2022-12-01_08h06.47.788,vts_reward_expectancy_bt_OFFLINE,2022.2.4,60.0205125541495,
,,,,,,,,,,,,,,,,,,1,0,1,0,6,0,6,0,,,,,,,,,,,,,,,,,,,,,,,,,,,,,,,,,,,,,,,,,,,,,,,,1039.1744692632928,,,181,B,circle,0.002039426937699318,1034.82856949931,1036.3053623670712,1036.3053623670712,1036.3053623670712,1,0,f,1.3388238330371678,1,1037.6739997291006,,,,,,,,,,,,,,,,,,,,,,,,,,,,,,,,,,,,,,,,,,,,,,,,,,,,,,,54640,2022-12-01_08h06.47.788,vts_reward_expectancy_bt_OFFLINE,2022.2.4,60.0205125541495,
,,,,,,,,,,,,,,,,,,1,0,1,0,7,0,7,0,,,,,,,,,,,,,,,,,,,,,,,,,,,,,,,,,,,,,,,,,,,,,,,,1045.3620513281785,,,132,U,star,0.0019991621375083923,1040.1818367429078,1041.658763132058,1041.658763132058,1041.658763132058,1,0,d,2.1843263511545956,1,1043.8614524691366,,,,,,,,,,,,,,,,,,,,,,,,,,,,,,,,,,,,,,,,,,,,,,,,,,,,,,,54640,2022-12-01_08h06.47.788,vts_reward_expectancy_bt_OFFLINE,2022.2.4,60.0205125541495,
,,,,,,,,,,,,,,,,,,1,0,1,0,8,0,8,0,,,,,,,,,,,,,,,,,,,,,,,,,,,,,,,,,,,,,,,,,,,,,,,,1050.182183003053,,,125,W,triangle,0.0017453641630709171,1046.3693555463105,1047.8464340292849,1047.8464340292849,1047.8464340292849,1,0,d,0.811498586088419,1,1048.6812583729625,,,,,,,,,,,,,,,,,,,,,,,,,,,,,,,,,,,,,,,,,,,,,,,,,,,,,,,54640,2022-12-01_08h06.47.788,vts_reward_expectancy_bt_OFFLINE,2022.2.4,60.0205125541495,
,,,,,,,,,,,,,,,,,,1,0,1,0,9,0,9,0,,,,,,,,,,,,,,,,,,,,,,,,,,,,,,,,,,,,,,,,,,,,,,,,1054.9858515430242,,,174,Y,hexagon,0.0020922389812767506,1051.1896084030159,1052.6665303492919,1052.6665303492919,1052.6665303492919,1,0,f,0.7952497941441834,1,1053.485620639287,,,,,,,,,,,,,,,,,,,,,,,,,,,,,,,,,,,,,,,,,,,,,,,,,,,,,,,54640,2022-12-01_08h06.47.788,vts_reward_expectancy_bt_OFFLINE,2022.2.4,60.0205125541495,
,,,,,,,,,,,,,,,,,,,,,,,,,,0,0,0,0,0,0,0,0,,,,,,,,,,,,,,,,,,,,,,,,,,,,,,,,,,,,,,,,1074.5169599573128,,1075.0172299230471,139,U,star,0.000574993435293436,,,,,1,0,,,2,1073.0163953471929,,,,1069.0023666671477,1070.4804636249319,1070.4804636249319,1070.4804636249319,k,2.502063435036689,1074.5169599573128,,,,,,,,,,,,,,,,,,,,,,,,,,,,,,,,,,,,,,,,,,,,,54640,2022-12-01_08h06.47.788,vts_reward_expectancy_bt_OFFLINE,2022.2.4,60.0205125541495,
,,,,,,,,,,,,,,,,,,,,,,,,,,0,0,0,0,1,0,1,0,,,,,,,,,,,,,,,,,,,,,,,,,,,,,,,,,,,,,,,,1079.8539012540132,,,132,H,triangle,0.014955997932702303,,,,,1,0,,,2,1078.3550854520872,,,,1075.528546700254,1077.0176494088955,1077.0176494088955,1077.0176494088955,j,1.3085152278654277,,,,,,,,,,,,,,,,,,,,,,,,,,,,,,,,,,,,,,,,,,,,,,54640,2022-12-01_08h06.47.788,vts_reward_expectancy_bt_OFFLINE,2022.2.4,60.0205125541495,
,,,,,,,,,,,,,,,,,,,,,,,,,,0,0,0,0,2,0,2,0,,,,,,,,,,,,,,,,,,,,,,,,,,,,,,,,,,,,,,,,1084.7076069912873,,,174,W,hexagon,0.0020625446923077106,,,,,1,0,,,2,1083.207117271144,,,,1080.861314216163,1082.337958924938,1082.337958924938,1082.337958924938,k,0.8365048402920365,,,,,,,,,,,,,,,,,,,,,,,,,,,,,,,,,,,,,,,,,,,,,,54640,2022-12-01_08h06.47.788,vts_reward_expectancy_bt_OFFLINE,2022.2.4,60.0205125541495,
,,,,,,,,,,,,,,,,,,,,,,,,,,0,0,0,0,3,0,3,0,,,,,,,,,,,,,,,,,,,,,,,,,,,,,,,,,,,,,,,,1089.594344810117,,,125,D,circle,0.001938781701028347,,,,,1,0,,,2,1088.0939252502285,,,,1085.7147359861992,1087.1917059239931,1087.1917059239931,1087.1917059239931,j,0.8775153080932796,,,,,,,,,,,,,,,,,,,,,,,,,,,,,,,,,,,,,,,,,,,,,,54640,2022-12-01_08h06.47.788,vts_reward_expectancy_bt_OFFLINE,2022.2.4,60.0205125541495,
,,,,,,,,,,,,,,,,,,,,,,,,,,0,0,0,0,4,0,4,0,,,,,,,,,,,,,,,,,,,,,,,,,,,,,,,,,,,,,,,,1094.1479549189098,,,160,B,hexagon,0.0020827529951930046,,,,,1,0,,,2,1092.6473231082782,,,,1090.6014167349786,1092.0786847732961,1092.0786847732961,1092.0786847732961,j,0.5464382069185376,,,,,,,,,,,,,,,,,,,,,,,,,,,,,,,,,,,,,,,,,,,,,,54640,2022-12-01_08h06.47.788,vts_reward_expectancy_bt_OFFLINE,2022.2.4,60.0205125541495,
,,,,,,,,,,,,,,,,,,,,,,,,,,0,0,0,0,5,0,5,0,,,,,,,,,,,,,,,,,,,,,,,,,,,,,,,,,,,,,,,,1098.9163473132066,,1099.4183349539526,181,S,triangle,0.0019988701678812504,,,,,1,0,,,2,1097.4160208730027,,,,1095.1552943643183,1096.632014863193,1096.632014863193,1096.632014863193,k,0.7519205491989851,1098.9163473132066,,,,,,,,,,,,,,,,,,,,,,,,,,,,,,,,,,,,,,,,,,,,,54640,2022-12-01_08h06.47.788,vts_reward_expectancy_bt_OFFLINE,2022.2.4,60.0205125541495,
,,,,,,,,,,,,,,,,,,,,,,,,,,0,0,0,0,6,0,6,0,,,,,,,,,,,,,,,,,,,,,,,,,,,,,,,,,,,,,,,,1103.90305045899,,,167,Y,circle,-0.00012065470218658447,,,,,1,0,,,2,1102.387785921339,,,,1099.9251890480518,1101.402456200216,1101.402456200216,1101.402456200216,k,0.965611747931689,,,,,,,,,,,,,,,,,,,,,,,,,,,,,,,,,,,,,,,,,,,,,,54640,2022-12-01_08h06.47.788,vts_reward_expectancy_bt_OFFLINE,2022.2.4,60.0205125541495,
,,,,,,,,,,,,,,,,,,,,,,,,,,0,0,0,0,7,0,7,0,,,,,,,,,,,,,,,,,,,,,,,,,,,,,,,,,,,,,,,,1108.873579731211,,1109.3756495909765,146,F,star,0.002236533910036087,,,,,1,0,,,2,1107.373310097959,,,,1104.8953825361095,1106.3726053689606,1106.3726053689606,1106.3726053689606,j,0.9684429909102619,1108.873579731211,,,,,,,,,,,,,,,,,,,,,,,,,,,,,,,,,,,,,,,,,,,,,54640,2022-12-01_08h06.47.788,vts_reward_expectancy_bt_OFFLINE,2022.2.4,60.0205125541495,
,,,,,,,,,,,,,,,,,,,,,,,,,,0,0,0,0,8,0,8,0,,,,,,,,,,,,,,,,,,,,,,,,,,,,,,,,,,,,,,,,1114.1624627602287,,,139,U,hexagon,5.3299590945243835e-06,,,,,1,0,,,2,1112.6622798503377,,,,1109.8824363751337,1111.3599490909837,1111.3599490909837,1111.3599490909837,k,1.2799354130402207,,,,,,,,,,,,,,,,,,,,,,,,,,,,,,,,,,,,,,,,,,,,,,54640,2022-12-01_08h06.47.788,vts_reward_expectancy_bt_OFFLINE,2022.2.4,60.0205125541495,
,,,,,,,,,,,,,,,,,,,,,,,,,,0,0,0,0,9,0,9,0,,,,,,,,,,,,,,,,,,,,,,,,,,,,,,,,,,,,,,,,1118.831133573316,,1119.3351794402115,132,H,triangle,0.0018980968743562698,,,,,1,0,,,2,1117.3304541772231,,,,1115.1696537462994,1116.6464497661218,1116.6464497661218,1116.6464497661218,j,0.65163488779217,1118.831133573316,,,,,,,,,,,,,,,,,,,,,,,,,,,,,,,,,,,,,,,,,,,,,54640,2022-12-01_08h06.47.788,vts_reward_expectancy_bt_OFFLINE,2022.2.4,60.0205125541495,
,,,,,,,,,,,,,,,,,,,,,,,,,,,,,,,,,,0,0,0,0,0,0,0,0,,,,,,,,,,,,,,,,,,,,,,,,,,,,0,801,,,1161.1124638789333,,,146,B,circle,0.002529032062739134,,,,,1,0,,,3,,,,,,,,,,,,1156.2341572172008,1156.2341572172008,1156.2341572172008,1156.2341572172008,1157.7095410670154,1157.7095410670154,1157.7095410670154,1157.7095410670154,1157.7428471501917,1157.7428471501917,1157.7428471501917,1157.7428471501917,-1,letter,NA,j,1.8575871009379625,vtsPrac,1159.5993666672148,,,,,,,,,,,,,,,,,,,,,,,,,,54640,2022-12-01_08h06.47.788,vts_reward_expectancy_bt_OFFLINE,2022.2.4,60.0205125541495,
,,,,,,,,,,,,,,,,,,,,,,,,,,,,,,,,,,0,0,0,0,1,0,1,0,,,,,,,,,,,,,,,,,,,,,,,,,,,,0,801,,,1168.100268648006,,,174,H,hexagon,0.016804653219878674,,,,,-1,0,,,3,,,,,,,,,,,,1162.1088136741892,1162.1088136741892,1162.1088136741892,1162.1088136741892,1163.5801604269072,1163.5801604269072,1163.5801604269072,1163.5801604269072,1163.6134466333315,1163.6134466333315,1163.6134466333315,1163.6134466333315,switch,no_choice,NA,None,,vtsPrac,1166.5864512501284,1166.5864512501284,1166.5864512501284,1166.5864512501284,1166.5864512501284,,,,,,,,,,,,,,,,,,,,,,54640,2022-12-01_08h06.47.788,vts_reward_expectancy_bt_OFFLINE,2022.2.4,60.0205125541495,
,,,,,,,,,,,,,,,,,,,,,,,,,,,,,,,,,,0,0,0,0,2,0,2,0,,,,,,,,,,,,,,,,,,,,,,,,,,,,0,801,,,1173.03733741818,,,125,Y,star,0.004462361801415682,,,,,1,0,,,3,,,,,,,,,,,,1169.1089227162302,1169.1089227162302,1169.1089227162302,1169.1089227162302,1170.586295825895,1170.586295825895,1170.586295825895,1170.586295825895,1170.6196139119565,1170.6196139119565,1170.6196139119565,1170.6196139119565,switch,number,numSwt,d,0.9168358300812542,vtsPrac,1171.5231534452178,,,,,,,,,,,,,,,,,,,,,,,,,,54640,2022-12-01_08h06.47.788,vts_reward_expectancy_bt_OFFLINE,2022.2.4,60.0205125541495,
,,,,,,,,,,,,,,,,,,,,,,,,,,,,,,,,,,0,0,0,0,3,0,3,0,,,,,,,,,,,,,,,,,,,,,,,,,,,,0,801,,,1178.3577139531262,,,139,U,hexagon,0.016850581392645836,,,,,1,0,,,3,,,,,,,,,,,,1174.034272768069,1174.034272768069,1174.034272768069,1174.034272768069,1175.5068342569284,1175.5068342569284,1175.5068342569284,1175.5068342569284,1175.539967502933,1175.539967502933,1175.539967502933,1175.539967502933,repeat,number,numRpt,d,1.3068303032778203,vtsPrac,1176.8423472149298,,,,,,,,,,,,,,,,,,,,,,,,,,54640,2022-12-01_08h06.47.788,vts_reward_expectancy_bt_OFFLINE,2022.2.4,60.0205125541495,
,,,,,,,,,,,,,,,,,,,,,,,,,,,,,,,,,,0,0,0,0,4,0,4,0,,,,,,,,,,,,,,,,,,,,,,,,,,,,0,801,,,1183.7279706872068,,,146,B,circle,0.01688519911840558,,,,,1,0,,,3,,,,,,,,,,,,1179.3536083200015,1179.3536083200015,1179.3536083200015,1179.3536083200015,1180.8269304782152,1180.8269304782152,1180.8269304782152,1180.8269304782152,1180.8604627912864,1180.8604627912864,1180.8604627912864,1180.8604627912864,repeat,number,numRpt,d,1.3647825131192803,vtsPrac,1182.212812829297,,,,,,,,,,,,,,,,,,,,,,,,,,54640,2022-12-01_08h06.47.788,vts_reward_expectancy_bt_OFFLINE,2022.2.4,60.0205125541495,
,,,,,,,,,,,,,,,,,,,,,,,,,,,,,,,,,,0,0,0,0,5,0,5,0,,,,,,,,,,,,,,,,,,,,,,,,,,,,0,801,,,1188.4484591102228,,,174,H,hexagon,0.002218912821263075,,,,,1,0,,,3,,,,,,,,,,,,1184.7203405969776,1184.7203405969776,1184.7203405969776,1184.7203405969776,1186.197628240101,1186.197628240101,1186.197628240101,1186.197628240101,1186.2310087322257,1186.2310087322257,1186.2310087322257,1186.2310087322257,switch,letter,lettSwt,j,0.7084474856965244,vtsPrac,1186.9329382870346,,,,,,,,,,,,,,,,,,,,,,,,,,54640,2022-12-01_08h06.47.788,vts_reward_expectancy_bt_OFFLINE,2022.2.4,60.0205125541495,
,,,,,,,,,,,,,,,,,,,,,,,,,,,,,,,,,,0,0,0,0,6,0,6,0,,,,,,,,,,,,,,,,,,,,,,,,,,,,0,801,,,1193.318721766118,,,125,Y,triangle,0.016914408653974533,,,,,1,0,,,3,,,,,,,,,,,,1189.4443414569832,1189.4443414569832,1189.4443414569832,1189.4443414569832,1190.9177980623208,1190.9177980623208,1190.9177980623208,1190.9177980623208,1190.9510689871386,1190.9510689871386,1190.9510689871386,1190.9510689871386,switch,number,numSwt,d,0.8590582450851798,vtsPrac,1191.8034178311937,,,,,,,,,,,,,,,,,,,,,,,,,,54640,2022-12-01_08h06.47.788,vts_reward_expectancy_bt_OFFLINE,2022.2.4,60.0205125541495,
,,,,,,,,,,,,,,,,,,,,,,,,,,,,,,,,,,0,0,0,0,7,0,7,0,,,,,,,,,,,,,,,,,,,,,,,,,,,,0,801,,,1197.8721952550113,,,139,U,star,0.01683991029858589,,,,,1,0,,,3,,,,,,,,,,,,1194.3143095979467,1194.3143095979467,1194.3143095979467,1194.3143095979467,1195.7881667730398,1195.7881667730398,1195.7881667730398,1195.7881667730398,1195.821177050937,1195.821177050937,1195.821177050937,1195.821177050937,switch,letter,lettSwt,k,0.546226994600147,vtsPrac,1196.357068211306,,,,,,,,,,,,,,,,,,,,,,,,,,54640,2022-12-01_08h06.47.788,vts_reward_expectancy_bt_OFFLINE,2022.2.4,60.0205125541495,
,,,,,,,,,,,,,,,,,,,,,,,,,,,,,,,,,,0,0,0,0,8,0,8,0,,,,,,,,,,,,,,,,,,,,,,,,,,,,0,801,,,1202.5253964709118,,,139,H,star,0.016639837063848972,,,,,1,0,,,3,,,,,,,,,,,,1198.8675284041092,1198.8675284041092,1198.8675284041092,1198.8675284041092,1200.3416146612726,1200.3416146612726,1200.3416146612726,1200.3416146612726,1200.3748597712256,1200.3748597712256,1200.3748597712256,1200.3748597712256,repeat,letter,lettRpt,j,0.6495265387929976,vtsPrac,1201.010618621949,,,,,,,,,,,,,,,,,,,,,,,,,,54640,2022-12-01_08h06.47.788,vts_reward_expectancy_bt_OFFLINE,2022.2.4,60.0205125541495,
,,,,,,,,,,,,,,,,,,,,,,,,,,,,,,,,,,0,0,0,0,9,0,9,0,,,,,,,,,,,,,,,,,,,,,,,,,,,,0,801,,,1208.0627364860848,,,146,F,triangle,0.01680993987247348,,,,,1,0,,,3,,,,,,,,,,,,1203.521786338184,1203.521786338184,1203.521786338184,1203.521786338184,1204.9949999218807,1204.9949999218807,1204.9949999218807,1204.9949999218807,1205.0280267791823,1205.0280267791823,1205.0280267791823,1205.0280267791823,switch,number,numSwt,d,1.5209376942366362,vtsPrac,1206.547697673086,,,,,,,,,,,,,,,,,,,,,,,,,,54640,2022-12-01_08h06.47.788,vts_reward_expectancy_bt_OFFLINE,2022.2.4,60.0205125541495,
,,,,,,,,,,,,,,,,,,,,,,,,,,,,,,,,,,0,0,0,0,10,0,10,0,,,,,,,,,,,,,,,,,,,,,,,,,,,,0,801,,,1212.7329925750382,,,174,W,triangle,0.016996228136122227,,,,,1,0,,,3,,,,,,,,,,,,1209.0589471473359,1209.0589471473359,1209.0589471473359,1209.0589471473359,1210.5321637853049,1210.5321637853049,1210.5321637853049,1210.5321637853049,1210.5653355899267,1210.5653355899267,1210.5653355899267,1210.5653355899267,switch,letter,lettSwt,k,0.6519919922575355,vtsPrac,1211.2175714229234,,,,,,,,,,,,,,,,,,,,,,,,,,54640,2022-12-01_08h06.47.788,vts_reward_expectancy_bt_OFFLINE,2022.2.4,60.0205125541495,
,,,,,,,,,,,,,,,,,,,,,,,,,,,,,,,,,,0,0,0,0,11,0,11,0,,,,,,,,,,,,,,,,,,,,,,,,,,,,0,801,,,1218.0868059722707,,,167,D,star,0.01687053171917796,,,,,1,0,,,3,,,,,,,,,,,,1213.729242355097,1213.729242355097,1213.729242355097,1213.729242355097,1215.2023041523062,1215.2023041523062,1215.2023041523062,1215.2023041523062,1215.2354797669686,1215.2354797669686,1215.2354797669686,1215.2354797669686,switch,number,numSwt,f,1.3492128970101476,vtsPrac,1216.5716078579426,,,,,,,,,,,,,,,,,,,,,,,,,,54640,2022-12-01_08h06.47.788,vts_reward_expectancy_bt_OFFLINE,2022.2.4,60.0205125541495,
,,,,,,,,,,,,,,,,,,,,,,,,,,,,,,,,,,0,0,0,0,12,0,12,0,,,,,,,,,,,,,,,,,,,,,,,,,,,,0,801,,,1222.6568538160063,,,181,F,triangle,0.017091799061745405,,,,,1,0,,,3,,,,,,,,,,,,1219.082873603329,1219.082873603329,1219.082873603329,1219.082873603329,1220.555983227212,1220.555983227212,1220.555983227212,1220.555983227212,1220.5894612651318,1220.5894612651318,1220.5894612651318,1220.5894612651318,repeat,number,numRpt,f,0.5635094852186739,vtsPrac,1221.1417020922527,,,,,,,,,,,,,,,,,,,,,,,,,,54640,2022-12-01_08h06.47.788,vts_reward_expectancy_bt_OFFLINE,2022.2.4,60.0205125541495,
,,,,,,,,,,,,,,,,,,,,,,,,,,,,,,,,,,0,0,0,0,13,0,13,0,,,,,,,,,,,,,,,,,,,,,,,,,,,,0,801,,,1228.0941655039787,,,132,D,circle,0.01693298015743494,,,,,1,0,,,3,,,,,,,,,,,,1223.6526572001167,1223.6526572001167,1223.6526572001167,1223.6526572001167,1225.1261268532835,1225.1261268532835,1225.1261268532835,1225.1261268532835,1225.1595706981607,1225.1595706981607,1225.1595706981607,1225.1595706981607,repeat,number,numRpt,d,1.4271823782473803,vtsPrac,1226.5790079343133,,,,,,,,,,,,,,,,,,,,,,,,,,54640,2022-12-01_08h06.47.788,vts_reward_expectancy_bt_OFFLINE,2022.2.4,60.0205125541495,
,,,,,,,,,,,,,,,,,,,,,,,,,,,,,,,,,,0,0,0,0,14,0,14,0,,,,,,,,,,,,,,,,,,,,,,,,,,,,0,801,,,1232.7808131659403,,,167,Y,hexagon,0.016824653837829828,,,,,1,0,,,3,,,,,,,,,,,,1229.089782193303,1229.089782193303,1229.089782193303,1229.089782193303,1230.5633909902535,1230.5633909902535,1230.5633909902535,1230.5633909902535,1230.5967152090743,1230.5967152090743,1230.5967152090743,1230.5967152090743,repeat,number,numRpt,f,0.6808976028114557,vtsPrac,1231.2659627762623,,,,,,,,,,,,,,,,,,,,,,,,,,54640,2022-12-01_08h06.47.788,vts_reward_expectancy_bt_OFFLINE,2022.2.4,60.0205125541495,
,,,,,,,,,,,,,,,,,,,,,,,,,,,,,,,,,,0,0,0,0,15,0,15,0,,,,,,,,,,,,,,,,,,,,,,,,,,,,0,801,,,1237.5844000549987,,,174,U,circle,0.016628614626824856,,,,,1,0,,,3,,,,,,,,,,,,1233.776739510242,1233.776739510242,1233.776739510242,1233.776739510242,1235.2501663588919,1235.2501663588919,1235.2501663588919,1235.2501663588919,1235.2835782230832,1235.2835782230832,1235.2835782230832,1235.2835782230832,switch,letter,lettSwt,k,0.7864262158982456,vtsPrac,1236.0693467771634,,,,,,,,,,,,,,,,,,,,,,,,,,54640,2022-12-01_08h06.47.788,vts_reward_expectancy_bt_OFFLINE,2022.2.4,60.0205125541495,
,,,,,,,,,,,,,,,,,,,,,,,,,,,,,,,,,,0,0,0,0,16,0,16,0,,,,,,,,,,,,,,,,,,,,,,,,,,,,0,801,,,1242.5213841032237,,,174,D,star,0.016934628132730722,,,,,1,0,,,3,,,,,,,,,,,,1238.5802374882624,1238.5802374882624,1238.5802374882624,1238.5802374882624,1240.0537581900135,1240.0537581900135,1240.0537581900135,1240.0537581900135,1240.0870356541127,1240.0870356541127,1240.0870356541127,1240.0870356541127,switch,number,numSwt,f,0.9339727521874011,vtsPrac,1241.0068035749719,,,,,,,,,,,,,,,,,,,,,,,,,,54640,2022-12-01_08h06.47.788,vts_reward_expectancy_bt_OFFLINE,2022.2.4,60.0205125541495,
,,,,,,,,,,,,,,,,,,,,,,,,,,,,,,,,,,0,0,0,0,17,0,17,0,,,,,,,,,,,,,,,,,,,,,,,,,,,,0,801,,,1247.1248426111415,,,181,H,circle,0.01651930622756481,,,,,1,0,,,3,,,,,,,,,,,,1243.5179242859595,1243.5179242859595,1243.5179242859595,1243.5179242859595,1244.9904697970487,1244.9904697970487,1244.9904697970487,1244.9904697970487,1245.0240363013,1245.0240363013,1245.0240363013,1245.0240363013,switch,letter,lettSwt,j,0.5876838751137257,vtsPrac,1245.6099123330787,,,,,,,,,,,,,,,,,,,,,,,,,,54640,2022-12-01_08h06.47.788,vts_reward_expectancy_bt_OFFLINE,2022.2.4,60.0205125541495,
,,,,,,,,,,,,,,,,,,,,,,,,,,,,,,,,,,0,0,0,0,18,0,18,0,,,,,,,,,,,,,,,,,,,,,,,,,,,,0,801,,,1251.9782937183045,,,146,U,triangle,0.016440329141914845,,,,,1,0,,,3,,,,,,,,,,,,1248.120515073184,1248.120515073184,1248.120515073184,1248.120515073184,1249.593962997198,1249.593962997198,1249.593962997198,1249.593962997198,1249.6273346561939,1249.6273346561939,1249.6273346561939,1249.6273346561939,repeat,letter,lettRpt,k,0.844278268981725,vtsPrac,1250.463654550258,,,,,,,,,,,,,,,,,,,,,,,,,,54640,2022-12-01_08h06.47.788,vts_reward_expectancy_bt_OFFLINE,2022.2.4,60.0205125541495,
,,,,,,,,,,,,,,,,,,,,,,,,,,,,,,,,,,0,0,0,0,19,0,19,0,,,,,,,,,,,,,,,,,,,,,,,,,,,,0,801,,,1256.6819313443266,,,167,Y,circle,0.01655907789245248,,,,,1,0,,,3,,,,,,,,,,,,1252.9741500769742,1252.9741500769742,1252.9741500769742,1252.9741500769742,1254.4475985420868,1254.4475985420868,1254.4475985420868,1254.4475985420868,1254.48105871398,1254.48105871398,1254.48105871398,1254.48105871398,repeat,letter,lettRpt,k,0.6926813167519867,vtsPrac,1255.167017661035,,,,,,,,,,,,,,,,,,,,,,,,,,54640,2022-12-01_08h06.47.788,vts_reward_expectancy_bt_OFFLINE,2022.2.4,60.0205125541495,
,,,,,,,,,,,,,,,,,,,,,,,,,,,,,,,,,,0,0,0,0,20,0,20,0,,,,,,,,,,,,,,,,,,,,,,,,,,,,0,801,,,1261.4189040921628,,,132,H,triangle,0.01692288788035512,,,,,1,0,,,3,,,,,,,,,,,,1257.6778290932998,1257.6778290932998,1257.6778290932998,1257.6778290932998,1259.151182177011,1259.151182177011,1259.151182177011,1259.151182177011,1259.1844480661675,1259.1844480661675,1259.1844480661675,1259.1844480661675,switch,number,numSwt,d,0.7259809970855713,vtsPrac,1259.9037698009051,,,,,,,,,,,,,,,,,,,,,,,,,,54640,2022-12-01_08h06.47.788,vts_reward_expectancy_bt_OFFLINE,2022.2.4,60.0205125541495,
