LTriangleOpac,LCircleOpac,LHexagonOpac,LStarOpac,RTriangleOpac,RCircleOpac,RHexagonOpac,RStarOpac,LShape_ID,RShape_ID,training_blocks.thisRepN,training_blocks.thisTrialN,training_blocks.thisN,training_blocks.thisIndex,training.thisRepN,training.thisTrialN,training.thisN,training.thisIndex,task1_prac_redo.thisRepN,task1_prac_redo.thisTrialN,task1_prac_redo.thisN,task1_prac_redo.thisIndex,task1_prac_trials.thisRepN,task1_prac_trials.thisTrialN,task1_prac_trials.thisN,task1_prac_trials.thisIndex,task2_prac_redo.thisRepN,task2_prac_redo.thisTrialN,task2_prac_redo.thisN,task2_prac_redo.thisIndex,task2_praac_trials.thisRepN,task2_praac_trials.thisTrialN,task2_praac_trials.thisN,task2_praac_trials.thisIndex,vts_prac_redo.thisRepN,vts_prac_redo.thisTrialN,vts_prac_redo.thisN,vts_prac_redo.thisIndex,vts_practice_trials.thisRepN,vts_practice_trials.thisTrialN,vts_practice_trials.thisN,vts_practice_trials.thisIndex,trials_norew.thisRepN,trials_norew.thisTrialN,trials_norew.thisN,trials_norew.thisIndex,block.thisRepN,block.thisTrialN,block.thisN,block.thisIndex,trials_rew.thisRepN,trials_rew.thisTrialN,trials_rew.thisN,trials_rew.thisIndex,key_resp.started,key_resp.keys,key_resp.rt,left_circle.started,right_circle.started,left_triangle.started,right_triangle.started,left_star.started,right_star.started,left_hexagon.started,right_hexagon.started,training_fix.started,training_resp.started,training_resp.keys,training_resp.rt,points_trial,points_cumul,trainBlock,training_feedback_txt.started,fix.started,training_feedback_txt.stopped,fix.stopped,curr_topStim,curr_bottStim,curr_shape,ISI.started,tgt_fix_prac1.started,top_target_prac1.started,bott_target_prac1.started,target_resp_prac1.started,acc,E1,target_resp_prac1.keys,target_resp_prac1.rt,pracBlock,prac_fback_text.started,prac_fback_text.stopped,tgt_fix_prac2.started,top_target_prac2.started,bott_target_prac2.started,target_resp_prac2.started,target_resp_prac2.keys,target_resp_prac2.rt,star.started,hegagon.started,triangle.started,circle.started,top_target.started,tgt_fix.started,bot_target.started,target_resp.started,star.stopped,hegagon.stopped,triangle.stopped,circle.stopped,alt,task,condition,target_resp.keys,target_resp.rt,rewCond,vts_fback.started,vts_fback.stopped,blockNum,norew_fback.started,norew_fback.stopped,key_resp_2.keys,key_resp_2.rt,rewExpectancy,feedbk_text.started,feedbk_text.stopped,text_3.started,debrief.started,text_3.stopped,button.started,debrief.index,debrief.itemText,debrief.type,debrief.granularity,debrief.font,debrief.markerColor,debrief.response,debrief.rt,button.numClicks,button.timesOn,button.timesOff,participant,date,expName,psychopyVersion,frameRate,
,,,,,,,,,,,,,,,,,,,,,,,,,,,,,,,,,,,,,,,,,,,,,,,,,,,,,,12.48317521600984,space,16.68925276491791,,,,,,,,,,,,,,,,,,,,,,,,,,,,,,,,,,,,,,,,,,,,,,,,,,,,,,,,,,,,,,,,,,,,,,,,,,,,,,,,,,,,55382,2022-11-11_08h56.46.107,vts_reward_expectancy_bt_OFFLINE,2022.2.4,60.10376468513205,
0,0,1,0,0,1,0,0,hexagon,circle,0,0,0,0,0,0,0,7,,,,,,,,,,,,,,,,,,,,,,,,,,,,,,,,,,,,,,,,49.34465476695914,49.34465476695914,49.34465476695914,49.34465476695914,49.34465476695914,49.34465476695914,49.34465476695914,49.34465476695914,49.34465476695914,49.34465476695914,a,2.5303526939824224,1,1,0,51.90241944696754,53.40292136289645,,,,,,,,,,,,,,,,,,,,,,,,,,,,,,,,,,,,,,,,,,,,,,,,,,,,,,,,,,,,,,,,,,,55382,2022-11-11_08h56.46.107,vts_reward_expectancy_bt_OFFLINE,2022.2.4,60.10376468513205,
0,0,0,1,0,1,0,0,star ,circle,0,0,0,0,0,1,1,10,,,,,,,,,,,,,,,,,,,,,,,,,,,,,,,,,,,,,,,,53.90311657998245,53.90311657998245,53.90311657998245,53.90311657998245,53.90311657998245,53.90311657998245,53.90311657998245,53.90311657998245,53.90311657998245,53.90311657998245,a,0.9645473799901083,1,2,0,54.88690752990078,56.38740964489989,56.38740964489989,56.88728125800844,,,,,,,,,,,,,,,,,,,,,,,,,,,,,,,,,,,,,,,,,,,,,,,,,,,,,,,,,,,,,,,,,55382,2022-11-11_08h56.46.107,vts_reward_expectancy_bt_OFFLINE,2022.2.4,60.10376468513205,
0,0,0,1,1,0,0,0,star,triangle,0,0,0,0,0,2,2,9,,,,,,,,,,,,,,,,,,,,,,,,,,,,,,,,,,,,,,,,56.88728125800844,56.88728125800844,56.88728125800844,56.88728125800844,56.88728125800844,56.88728125800844,56.88728125800844,56.88728125800844,56.88728125800844,56.88728125800844,a,0.7029565720586106,1,3,0,57.620992981945165,59.12344769691117,,,,,,,,,,,,,,,,,,,,,,,,,,,,,,,,,,,,,,,,,,,,,,,,,,,,,,,,,,,,,,,,,,,55382,2022-11-11_08h56.46.107,vts_reward_expectancy_bt_OFFLINE,2022.2.4,60.10376468513205,
0,1,0,0,0,0,1,0,circle,hexagon,0,0,0,0,0,3,3,4,,,,,,,,,,,,,,,,,,,,,,,,,,,,,,,,,,,,,,,,59.62364546896424,59.62364546896424,59.62364546896424,59.62364546896424,59.62364546896424,59.62364546896424,59.62364546896424,59.62364546896424,59.62364546896424,59.62364546896424,a,1.8481395439011976,10,13,0,61.49293637298979,62.99161892698612,,,,,,,,,,,,,,,,,,,,,,,,,,,,,,,,,,,,,,,,,,,,,,,,,,,,,,,,,,,,,,,,,,,55382,2022-11-11_08h56.46.107,vts_reward_expectancy_bt_OFFLINE,2022.2.4,60.10376468513205,
0,0,1,0,0,0,0,1,hexagon,star,0,0,0,0,0,4,4,8,,,,,,,,,,,,,,,,,,,,,,,,,,,,,,,,,,,,,,,,63.49364824197255,63.49364824197255,63.49364824197255,63.49364824197255,63.49364824197255,63.49364824197255,63.49364824197255,63.49364824197255,63.49364824197255,63.49364824197255,a,2.455814928980544,10,23,0,65.97783343098126,67.47848943399731,67.47848943399731,,,,,,,,,,,,,,,,,,,,,,,,,,,,,,,,,,,,,,,,,,,,,,,,,,,,,,,,,,,,,,,,,,55382,2022-11-11_08h56.46.107,vts_reward_expectancy_bt_OFFLINE,2022.2.4,60.10376468513205,
0,0,1,0,1,0,0,0,hexagon,triangle,0,0,0,0,0,5,5,6,,,,,,,,,,,,,,,,,,,,,,,,,,,,,,,,,,,,,,,,67.97843517293222,67.97843517293222,67.97843517293222,67.97843517293222,67.97843517293222,67.97843517293222,67.97843517293222,67.97843517293222,67.97843517293222,67.97843517293222,l,1.9324118200456724,10,33,0,69.93104825296905,71.43157528096344,71.43157528096344,71.93154450296424,,,,,,,,,,,,,,,,,,,,,,,,,,,,,,,,,,,,,,,,,,,,,,,,,,,,,,,,,,,,,,,,,55382,2022-11-11_08h56.46.107,vts_reward_expectancy_bt_OFFLINE,2022.2.4,60.10376468513205,
0,1,0,0,1,0,0,0,circle,triangle,0,0,0,0,0,6,6,3,,,,,,,,,,,,,,,,,,,,,,,,,,,,,,,,,,,,,,,,71.93154450296424,71.93154450296424,71.93154450296424,71.93154450296424,71.93154450296424,71.93154450296424,71.93154450296424,71.93154450296424,71.93154450296424,71.93154450296424,a,1.7588484269799665,10,43,0,73.71779477200471,75.21812241594307,75.21812241594307,,,,,,,,,,,,,,,,,,,,,,,,,,,,,,,,,,,,,,,,,,,,,,,,,,,,,,,,,,,,,,,,,,55382,2022-11-11_08h56.46.107,vts_reward_expectancy_bt_OFFLINE,2022.2.4,60.10376468513205,
0,0,0,1,0,0,1,0,star,hexagon,0,0,0,0,0,7,7,11,,,,,,,,,,,,,,,,,,,,,,,,,,,,,,,,,,,,,,,,75.71825869800523,75.71825869800523,75.71825869800523,75.71825869800523,75.71825869800523,75.71825869800523,75.71825869800523,75.71825869800523,75.71825869800523,75.71825869800523,l,1.6739424070110545,10,53,0,77.41893315990455,78.92127195291687,,,,,,,,,,,,,,,,,,,,,,,,,,,,,,,,,,,,,,,,,,,,,,,,,,,,,,,,,,,,,,,,,,,55382,2022-11-11_08h56.46.107,vts_reward_expectancy_bt_OFFLINE,2022.2.4,60.10376468513205,
1,0,0,0,0,0,1,0,triangle,hexagon,0,0,0,0,0,8,8,1,,,,,,,,,,,,,,,,,,,,,,,,,,,,,,,,,,,,,,,,79.42163277592044,79.42163277592044,79.42163277592044,79.42163277592044,79.42163277592044,79.42163277592044,79.42163277592044,79.42163277592044,79.42163277592044,79.42163277592044,l,1.1987150199711323,10,63,0,80.63867720996495,82.1391257889336,82.1391257889336,82.63926420593634,,,,,,,,,,,,,,,,,,,,,,,,,,,,,,,,,,,,,,,,,,,,,,,,,,,,,,,,,,,,,,,,,55382,2022-11-11_08h56.46.107,vts_reward_expectancy_bt_OFFLINE,2022.2.4,60.10376468513205,
1,0,0,0,0,1,0,0,triangle,circle,0,0,0,0,0,9,9,0,,,,,,,,,,,,,,,,,,,,,,,,,,,,,,,,,,,,,,,,82.63926420593634,82.63926420593634,82.63926420593634,82.63926420593634,82.63926420593634,82.63926420593634,82.63926420593634,82.63926420593634,82.63926420593634,82.63926420593634,l,1.2663745289901271,10,73,0,83.92502395692281,85.42569030891173,85.42569030891173,,,,,,,,,,,,,,,,,,,,,,,,,,,,,,,,,,,,,,,,,,,,,,,,,,,,,,,,,,,,,,,,,,55382,2022-11-11_08h56.46.107,vts_reward_expectancy_bt_OFFLINE,2022.2.4,60.10376468513205,
1,0,0,0,0,0,0,1,triangle,star,0,0,0,0,0,10,10,2,,,,,,,,,,,,,,,,,,,,,,,,,,,,,,,,,,,,,,,,85.92540821398143,85.92540821398143,85.92540821398143,85.92540821398143,85.92540821398143,85.92540821398143,85.92540821398143,85.92540821398143,85.92540821398143,85.92540821398143,a,1.4789985209936276,1,74,0,87.42747126496397,88.92864968092181,,,,,,,,,,,,,,,,,,,,,,,,,,,,,,,,,,,,,,,,,,,,,,,,,,,,,,,,,,,,,,,,,,,55382,2022-11-11_08h56.46.107,vts_reward_expectancy_bt_OFFLINE,2022.2.4,60.10376468513205,
0,1,0,0,0,0,0,1,circle,star,0,0,0,0,0,11,11,5,,,,,,,,,,,,,,,,,,,,,,,,,,,,,,,,,,,,,,,,89.42891302600037,89.42891302600037,89.42891302600037,89.42891302600037,89.42891302600037,89.42891302600037,89.42891302600037,89.42891302600037,89.42891302600037,89.42891302600037,a,1.4182174439774826,10,84,0,90.87954034097493,92.37966018100269,92.37966018100269,92.8798058029497,,,,,,,,,,,,,,,,,,,,,,,,,,,,,,,,,,,,,,,,,,,,,,,,,,,,,,,,,,,,,,,,,55382,2022-11-11_08h56.46.107,vts_reward_expectancy_bt_OFFLINE,2022.2.4,60.10376468513205,
1,0,0,0,0,0,1,0,triangle,hexagon,0,0,0,0,1,0,12,1,,,,,,,,,,,,,,,,,,,,,,,,,,,,,,,,,,,,,,,,92.8798058029497,92.8798058029497,92.8798058029497,92.8798058029497,92.8798058029497,92.8798058029497,92.8798058029497,92.8798058029497,92.8798058029497,92.8798058029497,a,1.141015411936678,1,85,0,94.0504220109433,95.54961585998535,95.54961585998535,,,,,,,,,,,,,,,,,,,,,,,,,,,,,,,,,,,,,,,,,,,,,,,,,,,,,,,,,,,,,,,,,,55382,2022-11-11_08h56.46.107,vts_reward_expectancy_bt_OFFLINE,2022.2.4,60.10376468513205,
1,0,0,0,0,0,0,1,triangle,star,0,0,0,0,1,1,13,2,,,,,,,,,,,,,,,,,,,,,,,,,,,,,,,,,,,,,,,,96.0496464179596,96.0496464179596,96.0496464179596,96.0496464179596,96.0496464179596,96.0496464179596,96.0496464179596,96.0496464179596,96.0496464179596,96.0496464179596,a,0.8503186500165612,1,86,0,96.916718982975,98.41907524690032,,,,,,,,,,,,,,,,,,,,,,,,,,,,,,,,,,,,,,,,,,,,,,,,,,,,,,,,,,,,,,,,,,,55382,2022-11-11_08h56.46.107,vts_reward_expectancy_bt_OFFLINE,2022.2.4,60.10376468513205,
0,0,1,0,0,0,0,1,hexagon,star,0,0,0,0,1,2,14,8,,,,,,,,,,,,,,,,,,,,,,,,,,,,,,,,,,,,,,,,98.91894588491414,98.91894588491414,98.91894588491414,98.91894588491414,98.91894588491414,98.91894588491414,98.91894588491414,98.91894588491414,98.91894588491414,98.91894588491414,l,0.7260213390691206,10,96,0,99.67129809898324,101.18659439391922,,,,,,,,,,,,,,,,,,,,,,,,,,,,,,,,,,,,,,,,,,,,,,,,,,,,,,,,,,,,,,,,,,,55382,2022-11-11_08h56.46.107,vts_reward_expectancy_bt_OFFLINE,2022.2.4,60.10376468513205,
0,0,0,1,1,0,0,0,star,triangle,0,0,0,0,1,3,15,9,,,,,,,,,,,,,,,,,,,,,,,,,,,,,,,,,,,,,,,,101.6869191059377,101.6869191059377,101.6869191059377,101.6869191059377,101.6869191059377,101.6869191059377,101.6869191059377,101.6869191059377,101.6869191059377,101.6869191059377,a,1.6834106760798022,10,106,0,103.38966858491767,104.88982185395434,104.88982185395434,,,,,,,,,,,,,,,,,,,,,,,,,,,,,,,,,,,,,,,,,,,,,,,,,,,,,,,,,,,,,,,,,,55382,2022-11-11_08h56.46.107,vts_reward_expectancy_bt_OFFLINE,2022.2.4,60.10376468513205,
0,0,1,0,0,1,0,0,hexagon,circle,0,0,0,0,1,4,16,7,,,,,,,,,,,,,,,,,,,,,,,,,,,,,,,,,,,,,,,,105.38991126790643,105.38991126790643,105.38991126790643,105.38991126790643,105.38991126790643,105.38991126790643,105.38991126790643,105.38991126790643,105.38991126790643,105.38991126790643,l,0.9159649290377274,1,107,0,106.32539641996846,107.84105054591782,,,,,,,,,,,,,,,,,,,,,,,,,,,,,,,,,,,,,,,,,,,,,,,,,,,,,,,,,,,,,,,,,,,55382,2022-11-11_08h56.46.107,vts_reward_expectancy_bt_OFFLINE,2022.2.4,60.10376468513205,
0,1,0,0,0,0,0,1,circle,star,0,0,0,0,1,5,17,5,,,,,,,,,,,,,,,,,,,,,,,,,,,,,,,,,,,,,,,,108.32646462891717,108.32646462891717,108.32646462891717,108.32646462891717,108.32646462891717,108.32646462891717,108.32646462891717,108.32646462891717,108.32646462891717,108.32646462891717,a,1.0063825399847701,1,108,0,109.36005458096042,110.86071776400786,110.86071776400786,111.36061431793496,,,,,,,,,,,,,,,,,,,,,,,,,,,,,,,,,,,,,,,,,,,,,,,,,,,,,,,,,,,,,,,,,55382,2022-11-11_08h56.46.107,vts_reward_expectancy_bt_OFFLINE,2022.2.4,60.10376468513205,
0,1,0,0,1,0,0,0,circle,triangle,0,0,0,0,1,6,18,3,,,,,,,,,,,,,,,,,,,,,,,,,,,,,,,,,,,,,,,,111.36061431793496,111.36061431793496,111.36061431793496,111.36061431793496,111.36061431793496,111.36061431793496,111.36061431793496,111.36061431793496,111.36061431793496,111.36061431793496,a,0.863268380984664,10,118,0,112.24639182398096,113.74661526596174,,,,,,,,,,,,,,,,,,,,,,,,,,,,,,,,,,,,,,,,,,,,,,,,,,,,,,,,,,,,,,,,,,,55382,2022-11-11_08h56.46.107,vts_reward_expectancy_bt_OFFLINE,2022.2.4,60.10376468513205,
0,1,0,0,0,0,1,0,circle,hexagon,0,0,0,0,1,7,19,4,,,,,,,,,,,,,,,,,,,,,,,,,,,,,,,,,,,,,,,,114.24689664097968,114.24689664097968,114.24689664097968,114.24689664097968,114.24689664097968,114.24689664097968,114.24689664097968,114.24689664097968,114.24689664097968,114.24689664097968,l,0.7216606510337442,10,128,0,114.99727226700634,116.49767811992206,116.49767811992206,116.99763999599963,,,,,,,,,,,,,,,,,,,,,,,,,,,,,,,,,,,,,,,,,,,,,,,,,,,,,,,,,,,,,,,,,55382,2022-11-11_08h56.46.107,vts_reward_expectancy_bt_OFFLINE,2022.2.4,60.10376468513205,
0,0,0,1,0,1,0,0,star ,circle,0,0,0,0,1,8,20,10,,,,,,,,,,,,,,,,,,,,,,,,,,,,,,,,,,,,,,,,116.99763999599963,116.99763999599963,116.99763999599963,116.99763999599963,116.99763999599963,116.99763999599963,116.99763999599963,116.99763999599963,116.99763999599963,116.99763999599963,a,1.6279141929699108,10,138,0,118.6505715289386,120.15263436792884,,,,,,,,,,,,,,,,,,,,,,,,,,,,,,,,,,,,,,,,,,,,,,,,,,,,,,,,,,,,,,,,,,,55382,2022-11-11_08h56.46.107,vts_reward_expectancy_bt_OFFLINE,2022.2.4,60.10376468513205,
0,0,0,1,0,0,1,0,star,hexagon,0,0,0,0,1,9,21,11,,,,,,,,,,,,,,,,,,,,,,,,,,,,,,,,,,,,,,,,120.65271261590533,120.65271261590533,120.65271261590533,120.65271261590533,120.65271261590533,120.65271261590533,120.65271261590533,120.65271261590533,120.65271261590533,120.65271261590533,l,0.9758449810324237,1,139,0,121.65626733400859,123.15843036200386,,,,,,,,,,,,,,,,,,,,,,,,,,,,,,,,,,,,,,,,,,,,,,,,,,,,,,,,,,,,,,,,,,,55382,2022-11-11_08h56.46.107,vts_reward_expectancy_bt_OFFLINE,2022.2.4,60.10376468513205,
1,0,0,0,0,1,0,0,triangle,circle,0,0,0,0,1,10,22,0,,,,,,,,,,,,,,,,,,,,,,,,,,,,,,,,,,,,,,,,123.6557931099087,123.6557931099087,123.6557931099087,123.6557931099087,123.6557931099087,123.6557931099087,123.6557931099087,123.6557931099087,123.6557931099087,123.6557931099087,l,1.0562663939781487,1,140,0,124.73776919499505,126.2382523509441,126.2382523509441,126.73810825799592,,,,,,,,,,,,,,,,,,,,,,,,,,,,,,,,,,,,,,,,,,,,,,,,,,,,,,,,,,,,,,,,,55382,2022-11-11_08h56.46.107,vts_reward_expectancy_bt_OFFLINE,2022.2.4,60.10376468513205,
0,0,1,0,1,0,0,0,hexagon,triangle,0,0,0,0,1,11,23,6,,,,,,,,,,,,,,,,,,,,,,,,,,,,,,,,,,,,,,,,126.73810825799592,126.73810825799592,126.73810825799592,126.73810825799592,126.73810825799592,126.73810825799592,126.73810825799592,126.73810825799592,126.73810825799592,126.73810825799592,a,0.7184394239448011,10,150,0,127.48931099299807,128.99100903293584,,,,,,,,,,,,,,,,,,,,,,,,,,,,,,,,,,,,,,,,,,,,,,,,,,,,,,,,,,,,,,,,,,,55382,2022-11-11_08h56.46.107,vts_reward_expectancy_bt_OFFLINE,2022.2.4,60.10376468513205,
0,0,1,0,0,1,0,0,hexagon,circle,0,0,0,0,2,0,24,7,,,,,,,,,,,,,,,,,,,,,,,,,,,,,,,,,,,,,,,,129.491280592978,129.491280592978,129.491280592978,129.491280592978,129.491280592978,129.491280592978,129.491280592978,129.491280592978,129.491280592978,129.491280592978,l,2.9380143149755895,10,160,0,132.45908820990007,133.961188724963,,,,,,,,,,,,,,,,,,,,,,,,,,,,,,,,,,,,,,,,,,,,,,,,,,,,,,,,,,,,,,,,,,,55382,2022-11-11_08h56.46.107,vts_reward_expectancy_bt_OFFLINE,2022.2.4,60.10376468513205,
0,0,0,1,1,0,0,0,star,triangle,0,0,0,0,2,1,25,9,,,,,,,,,,,,,,,,,,,,,,,,,,,,,,,,,,,,,,,,134.4615510959411,134.4615510959411,134.4615510959411,134.4615510959411,134.4615510959411,134.4615510959411,134.4615510959411,134.4615510959411,134.4615510959411,134.4615510959411,l,1.7822037220466882,10,170,0,136.26202972093597,137.76242649089545,137.76242649089545,,,,,,,,,,,,,,,,,,,,,,,,,,,,,,,,,,,,,,,,,,,,,,,,,,,,,,,,,,,,,,,,,,55382,2022-11-11_08h56.46.107,vts_reward_expectancy_bt_OFFLINE,2022.2.4,60.10376468513205,
0,0,0,1,0,1,0,0,star ,circle,0,0,0,0,2,2,26,10,,,,,,,,,,,,,,,,,,,,,,,,,,,,,,,,,,,,,,,,138.2647593289148,138.2647593289148,138.2647593289148,138.2647593289148,138.2647593289148,138.2647593289148,138.2647593289148,138.2647593289148,138.2647593289148,138.2647593289148,a,1.5006569949910045,10,180,0,139.7820916539058,141.28254894993734,141.28254894993734,141.78290757292416,,,,,,,,,,,,,,,,,,,,,,,,,,,,,,,,,,,,,,,,,,,,,,,,,,,,,,,,,,,,,,,,,55382,2022-11-11_08h56.46.107,vts_reward_expectancy_bt_OFFLINE,2022.2.4,60.10376468513205,
1,0,0,0,0,0,0,1,triangle,star,0,0,0,0,2,3,27,2,,,,,,,,,,,,,,,,,,,,,,,,,,,,,,,,,,,,,,,,141.78290757292416,141.78290757292416,141.78290757292416,141.78290757292416,141.78290757292416,141.78290757292416,141.78290757292416,141.78290757292416,141.78290757292416,141.78290757292416,l,2.1558830649591982,1,181,0,143.9702793569304,145.4861782368971,,,,,,,,,,,,,,,,,,,,,,,,,,,,,,,,,,,,,,,,,,,,,,,,,,,,,,,,,,,,,,,,,,,55382,2022-11-11_08h56.46.107,vts_reward_expectancy_bt_OFFLINE,2022.2.4,60.10376468513205,
0,1,0,0,0,0,1,0,circle,hexagon,0,0,0,0,2,4,28,4,,,,,,,,,,,,,,,,,,,,,,,,,,,,,,,,,,,,,,,,145.98599037295207,145.98599037295207,145.98599037295207,145.98599037295207,145.98599037295207,145.98599037295207,145.98599037295207,145.98599037295207,145.98599037295207,145.98599037295207,l,1.3507173379184678,1,182,0,147.35337867995258,148.8554942799965,,,,,,,,,,,,,,,,,,,,,,,,,,,,,,,,,,,,,,,,,,,,,,,,,,,,,,,,,,,,,,,,,,,55382,2022-11-11_08h56.46.107,vts_reward_expectancy_bt_OFFLINE,2022.2.4,60.10376468513205,
0,1,0,0,0,0,0,1,circle,star,0,0,0,0,2,5,29,5,,,,,,,,,,,,,,,,,,,,,,,,,,,,,,,,,,,,,,,,149.35579122195486,149.35579122195486,149.35579122195486,149.35579122195486,149.35579122195486,149.35579122195486,149.35579122195486,149.35579122195486,149.35579122195486,149.35579122195486,l,1.1760997279779986,10,192,0,150.5583160649985,152.0732239849167,,,,,,,,,,,,,,,,,,,,,,,,,,,,,,,,,,,,,,,,,,,,,,,,,,,,,,,,,,,,,,,,,,,55382,2022-11-11_08h56.46.107,vts_reward_expectancy_bt_OFFLINE,2022.2.4,60.10376468513205,
0,0,1,0,0,0,0,1,hexagon,star,0,0,0,0,2,6,30,8,,,,,,,,,,,,,,,,,,,,,,,,,,,,,,,,,,,,,,,,152.57366708491463,152.57366708491463,152.57366708491463,152.57366708491463,152.57366708491463,152.57366708491463,152.57366708491463,152.57366708491463,152.57366708491463,152.57366708491463,a,0.6810433579375967,10,202,0,153.27559258590918,154.7763385089347,154.7763385089347,,,,,,,,,,,,,,,,,,,,,,,,,,,,,,,,,,,,,,,,,,,,,,,,,,,,,,,,,,,,,,,,,,55382,2022-11-11_08h56.46.107,vts_reward_expectancy_bt_OFFLINE,2022.2.4,60.10376468513205,
1,0,0,0,0,0,1,0,triangle,hexagon,0,0,0,0,2,7,31,1,,,,,,,,,,,,,,,,,,,,,,,,,,,,,,,,,,,,,,,,155.2763880629791,155.2763880629791,155.2763880629791,155.2763880629791,155.2763880629791,155.2763880629791,155.2763880629791,155.2763880629791,155.2763880629791,155.2763880629791,a,0.8590545339975506,1,203,0,156.1622211089125,157.67693087097723,,,,,,,,,,,,,,,,,,,,,,,,,,,,,,,,,,,,,,,,,,,,,,,,,,,,,,,,,,,,,,,,,,,55382,2022-11-11_08h56.46.107,vts_reward_expectancy_bt_OFFLINE,2022.2.4,60.10376468513205,
0,0,0,1,0,0,1,0,star,hexagon,0,0,0,0,2,8,32,11,,,,,,,,,,,,,,,,,,,,,,,,,,,,,,,,,,,,,,,,158.1703861108981,158.1703861108981,158.1703861108981,158.1703861108981,158.1703861108981,158.1703861108981,158.1703861108981,158.1703861108981,158.1703861108981,158.1703861108981,l,0.48484348610509187,10,213,0,158.68164605891798,160.19665103394073,,,,,,,,,,,,,,,,,,,,,,,,,,,,,,,,,,,,,,,,,,,,,,,,,,,,,,,,,,,,,,,,,,,55382,2022-11-11_08h56.46.107,vts_reward_expectancy_bt_OFFLINE,2022.2.4,60.10376468513205,
0,1,0,0,1,0,0,0,circle,triangle,0,0,0,0,2,9,33,3,,,,,,,,,,,,,,,,,,,,,,,,,,,,,,,,,,,,,,,,160.69697389099747,160.69697389099747,160.69697389099747,160.69697389099747,160.69697389099747,160.69697389099747,160.69697389099747,160.69697389099747,160.69697389099747,160.69697389099747,l,0.5336196239804849,10,223,0,161.26374056492932,162.76443699595984,162.76443699595984,,,,,,,,,,,,,,,,,,,,,,,,,,,,,,,,,,,,,,,,,,,,,,,,,,,,,,,,,,,,,,,,,,55382,2022-11-11_08h56.46.107,vts_reward_expectancy_bt_OFFLINE,2022.2.4,60.10376468513205,
1,0,0,0,0,1,0,0,triangle,circle,0,0,0,0,2,10,34,0,,,,,,,,,,,,,,,,,,,,,,,,,,,,,,,,,,,,,,,,163.2663210569881,163.2663210569881,163.2663210569881,163.2663210569881,163.2663210569881,163.2663210569881,163.2663210569881,163.2663210569881,163.2663210569881,163.2663210569881,a,0.653018185053952,10,233,0,163.95000545994844,165.45056457689498,165.45056457689498,,,,,,,,,,,,,,,,,,,,,,,,,,,,,,,,,,,,,,,,,,,,,,,,,,,,,,,,,,,,,,,,,,55382,2022-11-11_08h56.46.107,vts_reward_expectancy_bt_OFFLINE,2022.2.4,60.10376468513205,
0,0,1,0,1,0,0,0,hexagon,triangle,0,0,0,0,2,11,35,6,,,,,,,,,,,,,,,,,,,,,,,,,,,,,,,,,,,,,,,,165.9505461449735,165.9505461449735,165.9505461449735,165.9505461449735,165.9505461449735,165.9505461449735,165.9505461449735,165.9505461449735,165.9505461449735,165.9505461449735,l,0.6811001159949228,1,234,0,166.65252766292542,168.16491139889695,,,,,,,,,,,,,,,,,,,,,,,,,,,,,,,,,,,,,,,,,,,,,,,,,,,,,,,,,,,,,,,,,,,55382,2022-11-11_08h56.46.107,vts_reward_expectancy_bt_OFFLINE,2022.2.4,60.10376468513205,
0,0,0,1,0,1,0,0,star ,circle,0,0,0,0,3,0,36,10,,,,,,,,,,,,,,,,,,,,,,,,,,,,,,,,,,,,,,,,168.6533749869559,168.6533749869559,168.6533749869559,168.6533749869559,168.6533749869559,168.6533749869559,168.6533749869559,168.6533749869559,168.6533749869559,168.6533749869559,a,0.9029046680079773,1,235,0,169.58730451995507,171.0875404549297,171.0875404549297,171.58750425092876,,,,,,,,,,,,,,,,,,,,,,,,,,,,,,,,,,,,,,,,,,,,,,,,,,,,,,,,,,,,,,,,,55382,2022-11-11_08h56.46.107,vts_reward_expectancy_bt_OFFLINE,2022.2.4,60.10376468513205,
0,1,0,0,1,0,0,0,circle,triangle,0,0,0,0,3,1,37,3,,,,,,,,,,,,,,,,,,,,,,,,,,,,,,,,,,,,,,,,171.58750425092876,171.58750425092876,171.58750425092876,171.58750425092876,171.58750425092876,171.58750425092876,171.58750425092876,171.58750425092876,171.58750425092876,171.58750425092876,a,0.5566478810505942,10,245,0,172.17369240394328,173.67368670192081,,,,,,,,,,,,,,,,,,,,,,,,,,,,,,,,,,,,,,,,,,,,,,,,,,,,,,,,,,,,,,,,,,,55382,2022-11-11_08h56.46.107,vts_reward_expectancy_bt_OFFLINE,2022.2.4,60.10376468513205,
0,0,1,0,0,1,0,0,hexagon,circle,0,0,0,0,3,2,38,7,,,,,,,,,,,,,,,,,,,,,,,,,,,,,,,,,,,,,,,,174.1740334799979,174.1740334799979,174.1740334799979,174.1740334799979,174.1740334799979,174.1740334799979,174.1740334799979,174.1740334799979,174.1740334799979,174.1740334799979,a,0.6706673230510205,10,255,0,174.87428433296736,176.3745978169609,176.3745978169609,176.87475941993762,,,,,,,,,,,,,,,,,,,,,,,,,,,,,,,,,,,,,,,,,,,,,,,,,,,,,,,,,,,,,,,,,55382,2022-11-11_08h56.46.107,vts_reward_expectancy_bt_OFFLINE,2022.2.4,60.10376468513205,
1,0,0,0,0,0,1,0,triangle,hexagon,0,0,0,0,3,3,39,1,,,,,,,,,,,,,,,,,,,,,,,,,,,,,,,,,,,,,,,,176.87475941993762,176.87475941993762,176.87475941993762,176.87475941993762,176.87475941993762,176.87475941993762,176.87475941993762,176.87475941993762,176.87475941993762,176.87475941993762,l,0.5117348529165611,1,256,0,177.41041426791344,178.9109350919025,,,,,,,,,,,,,,,,,,,,,,,,,,,,,,,,,,,,,,,,,,,,,,,,,,,,,,,,,,,,,,,,,,,55382,2022-11-11_08h56.46.107,vts_reward_expectancy_bt_OFFLINE,2022.2.4,60.10376468513205,
0,1,0,0,0,0,0,1,circle,star,0,0,0,0,3,4,40,5,,,,,,,,,,,,,,,,,,,,,,,,,,,,,,,,,,,,,,,,179.4109320079442,179.4109320079442,179.4109320079442,179.4109320079442,179.4109320079442,179.4109320079442,179.4109320079442,179.4109320079442,179.4109320079442,179.4109320079442,l,0.6194436140358448,1,257,0,180.06128407199867,181.5616495090071,181.5616495090071,182.06155013793614,,,,,,,,,,,,,,,,,,,,,,,,,,,,,,,,,,,,,,,,,,,,,,,,,,,,,,,,,,,,,,,,,55382,2022-11-11_08h56.46.107,vts_reward_expectancy_bt_OFFLINE,2022.2.4,60.10376468513205,
0,0,0,1,1,0,0,0,star,triangle,0,0,0,0,3,5,41,9,,,,,,,,,,,,,,,,,,,,,,,,,,,,,,,,,,,,,,,,182.06155013793614,182.06155013793614,182.06155013793614,182.06155013793614,182.06155013793614,182.06155013793614,182.06155013793614,182.06155013793614,182.06155013793614,182.06155013793614,a,2.109196587000042,1,258,0,184.19770183297805,185.69834544695914,185.69834544695914,186.19855169497896,,,,,,,,,,,,,,,,,,,,,,,,,,,,,,,,,,,,,,,,,,,,,,,,,,,,,,,,,,,,,,,,,55382,2022-11-11_08h56.46.107,vts_reward_expectancy_bt_OFFLINE,2022.2.4,60.10376468513205,
0,0,0,1,0,0,1,0,star,hexagon,0,0,0,0,3,6,42,11,,,,,,,,,,,,,,,,,,,,,,,,,,,,,,,,,,,,,,,,186.19855169497896,186.19855169497896,186.19855169497896,186.19855169497896,186.19855169497896,186.19855169497896,186.19855169497896,186.19855169497896,186.19855169497896,186.19855169497896,a,0.9993216749280691,10,268,0,187.21783745696303,188.717990814941,,,,,,,,,,,,,,,,,,,,,,,,,,,,,,,,,,,,,,,,,,,,,,,,,,,,,,,,,,,,,,,,,,,55382,2022-11-11_08h56.46.107,vts_reward_expectancy_bt_OFFLINE,2022.2.4,60.10376468513205,
0,1,0,0,0,0,1,0,circle,hexagon,0,0,0,0,3,7,43,4,,,,,,,,,,,,,,,,,,,,,,,,,,,,,,,,,,,,,,,,189.21814653789625,189.21814653789625,189.21814653789625,189.21814653789625,189.21814653789625,189.21814653789625,189.21814653789625,189.21814653789625,189.21814653789625,189.21814653789625,a,0.993798568029888,10,278,0,190.23532191000413,191.73553255700972,191.73553255700972,,,,,,,,,,,,,,,,,,,,,,,,,,,,,,,,,,,,,,,,,,,,,,,,,,,,,,,,,,,,,,,,,,55382,2022-11-11_08h56.46.107,vts_reward_expectancy_bt_OFFLINE,2022.2.4,60.10376468513205,
1,0,0,0,0,0,0,1,triangle,star,0,0,0,0,3,8,44,2,,,,,,,,,,,,,,,,,,,,,,,,,,,,,,,,,,,,,,,,192.2360101119848,192.2360101119848,192.2360101119848,192.2360101119848,192.2360101119848,192.2360101119848,192.2360101119848,192.2360101119848,192.2360101119848,192.2360101119848,l,0.8229144179495052,10,288,0,193.08625900698826,194.58855163899716,,,,,,,,,,,,,,,,,,,,,,,,,,,,,,,,,,,,,,,,,,,,,,,,,,,,,,,,,,,,,,,,,,,55382,2022-11-11_08h56.46.107,vts_reward_expectancy_bt_OFFLINE,2022.2.4,60.10376468513205,
0,0,1,0,1,0,0,0,hexagon,triangle,0,0,0,0,3,9,45,6,,,,,,,,,,,,,,,,,,,,,,,,,,,,,,,,,,,,,,,,195.0886450120015,195.0886450120015,195.0886450120015,195.0886450120015,195.0886450120015,195.0886450120015,195.0886450120015,195.0886450120015,195.0886450120015,195.0886450120015,l,0.7259118430083618,10,298,0,195.8393247720087,197.33973597199656,197.33973597199656,197.83924819796812,,,,,,,,,,,,,,,,,,,,,,,,,,,,,,,,,,,,,,,,,,,,,,,,,,,,,,,,,,,,,,,,,55382,2022-11-11_08h56.46.107,vts_reward_expectancy_bt_OFFLINE,2022.2.4,60.10376468513205,
0,0,1,0,0,0,0,1,hexagon,star,0,0,0,0,3,10,46,8,,,,,,,,,,,,,,,,,,,,,,,,,,,,,,,,,,,,,,,,197.83924819796812,197.83924819796812,197.83924819796812,197.83924819796812,197.83924819796812,197.83924819796812,197.83924819796812,197.83924819796812,197.83924819796812,197.83924819796812,a,1.3398728179745376,1,299,0,199.2108223279938,200.7260359969223,,,,,,,,,,,,,,,,,,,,,,,,,,,,,,,,,,,,,,,,,,,,,,,,,,,,,,,,,,,,,,,,,,,55382,2022-11-11_08h56.46.107,vts_reward_expectancy_bt_OFFLINE,2022.2.4,60.10376468513205,
1,0,0,0,0,1,0,0,triangle,circle,0,0,0,0,3,11,47,0,,,,,,,,,,,,,,,,,,,,,,,,,,,,,,,,,,,,,,,,201.22612144390587,201.22612144390587,201.22612144390587,201.22612144390587,201.22612144390587,201.22612144390587,201.22612144390587,201.22612144390587,201.22612144390587,201.22612144390587,l,0.7095308259595186,10,309,0,201.96173393900972,203.46203852200415,,,,,,,,,,,,,,,,,,,,,,,,,,,,,,,,,,,,,,,,,,,,,,,,,,,,,,,,,,,,,,,,,,,55382,2022-11-11_08h56.46.107,vts_reward_expectancy_bt_OFFLINE,2022.2.4,60.10376468513205,
0,0,1,0,0,0,0,1,hexagon,star,1,0,1,0,0,0,0,8,,,,,,,,,,,,,,,,,,,,,,,,,,,,,,,,,,,,,,,,259.2462392519228,259.2462392519228,259.2462392519228,259.2462392519228,259.2462392519228,259.2462392519228,259.2462392519228,259.2462392519228,259.2462392519228,259.2462392519228,l,2.3953051560092717,10,319,1,261.6701658288948,263.17069150099996,263.17069150099996,,,,,,,,,,,,,,,,,,,,,,,,,,,,,,,,,,,,,,,,,,,,,,,,,,,,,,,,,,,,,,,,,,55382,2022-11-11_08h56.46.107,vts_reward_expectancy_bt_OFFLINE,2022.2.4,60.10376468513205,
0,0,1,0,1,0,0,0,hexagon,triangle,1,0,1,0,0,1,1,6,,,,,,,,,,,,,,,,,,,,,,,,,,,,,,,,,,,,,,,,263.6724181059981,263.6724181059981,263.6724181059981,263.6724181059981,263.6724181059981,263.6724181059981,263.6724181059981,263.6724181059981,263.6724181059981,263.6724181059981,l,2.3227027209941298,1,320,1,266.0251929149963,267.5406727619702,,,,,,,,,,,,,,,,,,,,,,,,,,,,,,,,,,,,,,,,,,,,,,,,,,,,,,,,,,,,,,,,,,,55382,2022-11-11_08h56.46.107,vts_reward_expectancy_bt_OFFLINE,2022.2.4,60.10376468513205,
0,0,0,1,1,0,0,0,star,triangle,1,0,1,0,0,2,2,9,,,,,,,,,,,,,,,,,,,,,,,,,,,,,,,,,,,,,,,,268.0242105949437,268.0242105949437,268.0242105949437,268.0242105949437,268.0242105949437,268.0242105949437,268.0242105949437,268.0242105949437,268.0242105949437,268.0242105949437,l,0.9534153839340433,10,330,1,269.01064790890086,270.5100166439079,270.5100166439079,271.0102929129498,,,,,,,,,,,,,,,,,,,,,,,,,,,,,,,,,,,,,,,,,,,,,,,,,,,,,,,,,,,,,,,,,55382,2022-11-11_08h56.46.107,vts_reward_expectancy_bt_OFFLINE,2022.2.4,60.10376468513205,
1,0,0,0,0,0,1,0,triangle,hexagon,1,0,1,0,0,3,3,1,,,,,,,,,,,,,,,,,,,,,,,,,,,,,,,,,,,,,,,,271.0102929129498,271.0102929129498,271.0102929129498,271.0102929129498,271.0102929129498,271.0102929129498,271.0102929129498,271.0102929129498,271.0102929129498,271.0102929129498,a,2.0729505229974166,10,340,1,273.11141474195756,274.61370441992767,,,,,,,,,,,,,,,,,,,,,,,,,,,,,,,,,,,,,,,,,,,,,,,,,,,,,,,,,,,,,,,,,,,55382,2022-11-11_08h56.46.107,vts_reward_expectancy_bt_OFFLINE,2022.2.4,60.10376468513205,
0,1,0,0,0,0,0,1,circle,star,1,0,1,0,0,4,4,5,,,,,,,,,,,,,,,,,,,,,,,,,,,,,,,,,,,,,,,,275.11385540489573,275.11385540489573,275.11385540489573,275.11385540489573,275.11385540489573,275.11385540489573,275.11385540489573,275.11385540489573,275.11385540489573,275.11385540489573,a,1.198882453958504,10,350,1,276.33076900593005,277.8315421839943,277.8315421839943,,,,,,,,,,,,,,,,,,,,,,,,,,,,,,,,,,,,,,,,,,,,,,,,,,,,,,,,,,,,,,,,,,55382,2022-11-11_08h56.46.107,vts_reward_expectancy_bt_OFFLINE,2022.2.4,60.10376468513205,
1,0,0,0,0,1,0,0,triangle,circle,1,0,1,0,0,5,5,0,,,,,,,,,,,,,,,,,,,,,,,,,,,,,,,,,,,,,,,,278.33358882996254,278.33358882996254,278.33358882996254,278.33358882996254,278.33358882996254,278.33358882996254,278.33358882996254,278.33358882996254,278.33358882996254,278.33358882996254,a,3.8742085159756243,1,351,1,282.23713172995485,283.7369746679906,,,,,,,,,,,,,,,,,,,,,,,,,,,,,,,,,,,,,,,,,,,,,,,,,,,,,,,,,,,,,,,,,,,55382,2022-11-11_08h56.46.107,vts_reward_expectancy_bt_OFFLINE,2022.2.4,60.10376468513205,
0,1,0,0,0,0,1,0,circle,hexagon,1,0,1,0,0,6,6,4,,,,,,,,,,,,,,,,,,,,,,,,,,,,,,,,,,,,,,,,284.23729192093015,284.23729192093015,284.23729192093015,284.23729192093015,284.23729192093015,284.23729192093015,284.23729192093015,284.23729192093015,284.23729192093015,284.23729192093015,l,0.6146678030490875,10,361,1,284.8730542389676,286.38792977598496,,,,,,,,,,,,,,,,,,,,,,,,,,,,,,,,,,,,,,,,,,,,,,,,,,,,,,,,,,,,,,,,,,,55382,2022-11-11_08h56.46.107,vts_reward_expectancy_bt_OFFLINE,2022.2.4,60.10376468513205,
0,0,0,1,0,1,0,0,star ,circle,1,0,1,0,0,7,7,10,,,,,,,,,,,,,,,,,,,,,,,,,,,,,,,,,,,,,,,,286.88833543797955,286.88833543797955,286.88833543797955,286.88833543797955,286.88833543797955,286.88833543797955,286.88833543797955,286.88833543797955,286.88833543797955,286.88833543797955,a,0.6415054290555418,10,371,1,287.5552837270079,289.057629738003,,,,,,,,,,,,,,,,,,,,,,,,,,,,,,,,,,,,,,,,,,,,,,,,,,,,,,,,,,,,,,,,,,,55382,2022-11-11_08h56.46.107,vts_reward_expectancy_bt_OFFLINE,2022.2.4,60.10376468513205,
1,0,0,0,0,0,0,1,triangle,star,1,0,1,0,0,8,8,2,,,,,,,,,,,,,,,,,,,,,,,,,,,,,,,,,,,,,,,,289.5577285749605,289.5577285749605,289.5577285749605,289.5577285749605,289.5577285749605,289.5577285749605,289.5577285749605,289.5577285749605,289.5577285749605,289.5577285749605,a,0.7735959909623489,1,372,1,290.3602116049733,291.8751416929299,,,,,,,,,,,,,,,,,,,,,,,,,,,,,,,,,,,,,,,,,,,,,,,,,,,,,,,,,,,,,,,,,,,55382,2022-11-11_08h56.46.107,vts_reward_expectancy_bt_OFFLINE,2022.2.4,60.10376468513205,
0,1,0,0,1,0,0,0,circle,triangle,1,0,1,0,0,9,9,3,,,,,,,,,,,,,,,,,,,,,,,,,,,,,,,,,,,,,,,,292.3753272179747,292.3753272179747,292.3753272179747,292.3753272179747,292.3753272179747,292.3753272179747,292.3753272179747,292.3753272179747,292.3753272179747,292.3753272179747,l,0.6324730080086738,1,373,1,293.02579133596737,294.5279399859719,,,,,,,,,,,,,,,,,,,,,,,,,,,,,,,,,,,,,,,,,,,,,,,,,,,,,,,,,,,,,,,,,,,55382,2022-11-11_08h56.46.107,vts_reward_expectancy_bt_OFFLINE,2022.2.4,60.10376468513205,
0,0,0,1,0,0,1,0,star,hexagon,1,0,1,0,0,10,10,11,,,,,,,,,,,,,,,,,,,,,,,,,,,,,,,,,,,,,,,,295.02826859790366,295.02826859790366,295.02826859790366,295.02826859790366,295.02826859790366,295.02826859790366,295.02826859790366,295.02826859790366,295.02826859790366,295.02826859790366,a,1.2423645270755515,10,383,1,296.29769656900316,297.81275693897624,,,,,,,,,,,,,,,,,,,,,,,,,,,,,,,,,,,,,,,,,,,,,,,,,,,,,,,,,,,,,,,,,,,55382,2022-11-11_08h56.46.107,vts_reward_expectancy_bt_OFFLINE,2022.2.4,60.10376468513205,
0,0,1,0,0,1,0,0,hexagon,circle,1,0,1,0,0,11,11,7,,,,,,,,,,,,,,,,,,,,,,,,,,,,,,,,,,,,,,,,298.30005490989424,298.30005490989424,298.30005490989424,298.30005490989424,298.30005490989424,298.30005490989424,298.30005490989424,298.30005490989424,298.30005490989424,298.30005490989424,l,1.0083001520251855,10,393,1,299.33185736695305,300.8322479809867,300.8322479809867,,,,,,,,,,,,,,,,,,,,,,,,,,,,,,,,,,,,,,,,,,,,,,,,,,,,,,,,,,,,,,,,,,55382,2022-11-11_08h56.46.107,vts_reward_expectancy_bt_OFFLINE,2022.2.4,60.10376468513205,
1,0,0,0,0,0,0,1,triangle,star,1,0,1,0,1,0,12,2,,,,,,,,,,,,,,,,,,,,,,,,,,,,,,,,,,,,,,,,301.33233657397795,301.33233657397795,301.33233657397795,301.33233657397795,301.33233657397795,301.33233657397795,301.33233657397795,301.33233657397795,301.33233657397795,301.33233657397795,l,1.441992770996876,1,394,1,302.80194298294373,304.30187547090463,,,,,,,,,,,,,,,,,,,,,,,,,,,,,,,,,,,,,,,,,,,,,,,,,,,,,,,,,,,,,,,,,,,55382,2022-11-11_08h56.46.107,vts_reward_expectancy_bt_OFFLINE,2022.2.4,60.10376468513205,
0,1,0,0,0,0,0,1,circle,star,1,0,1,0,1,1,13,5,,,,,,,,,,,,,,,,,,,,,,,,,,,,,,,,,,,,,,,,304.80204971600324,304.80204971600324,304.80204971600324,304.80204971600324,304.80204971600324,304.80204971600324,304.80204971600324,304.80204971600324,304.80204971600324,304.80204971600324,a,0.6271727790590376,10,404,1,305.4545536820078,306.96953061700333,,,,,,,,,,,,,,,,,,,,,,,,,,,,,,,,,,,,,,,,,,,,,,,,,,,,,,,,,,,,,,,,,,,55382,2022-11-11_08h56.46.107,vts_reward_expectancy_bt_OFFLINE,2022.2.4,60.10376468513205,
1,0,0,0,0,1,0,0,triangle,circle,1,0,1,0,1,2,14,0,,,,,,,,,,,,,,,,,,,,,,,,,,,,,,,,,,,,,,,,307.46973151899874,307.46973151899874,307.46973151899874,307.46973151899874,307.46973151899874,307.46973151899874,307.46973151899874,307.46973151899874,307.46973151899874,307.46973151899874,l,1.1547109369421378,10,414,1,308.6551611080067,310.15604693698697,310.15604693698697,310.65600577299483,,,,,,,,,,,,,,,,,,,,,,,,,,,,,,,,,,,,,,,,,,,,,,,,,,,,,,,,,,,,,,,,,55382,2022-11-11_08h56.46.107,vts_reward_expectancy_bt_OFFLINE,2022.2.4,60.10376468513205,
0,0,1,0,0,0,0,1,hexagon,star,1,0,1,0,1,3,15,8,,,,,,,,,,,,,,,,,,,,,,,,,,,,,,,,,,,,,,,,310.65600577299483,310.65600577299483,310.65600577299483,310.65600577299483,310.65600577299483,310.65600577299483,310.65600577299483,310.65600577299483,310.65600577299483,310.65600577299483,l,0.7014374770224094,1,415,1,311.39067111199256,312.8900610799901,312.8900610799901,,,,,,,,,,,,,,,,,,,,,,,,,,,,,,,,,,,,,,,,,,,,,,,,,,,,,,,,,,,,,,,,,,55382,2022-11-11_08h56.46.107,vts_reward_expectancy_bt_OFFLINE,2022.2.4,60.10376468513205,
0,1,0,0,1,0,0,0,circle,triangle,1,0,1,0,1,4,16,3,,,,,,,,,,,,,,,,,,,,,,,,,,,,,,,,,,,,,,,,313.3921099459985,313.3921099459985,313.3921099459985,313.3921099459985,313.3921099459985,313.3921099459985,313.3921099459985,313.3921099459985,313.3921099459985,313.3921099459985,l,0.5874073310988024,1,416,1,314.0092087939847,315.50967997999396,315.50967997999396,316.00960781797767,,,,,,,,,,,,,,,,,,,,,,,,,,,,,,,,,,,,,,,,,,,,,,,,,,,,,,,,,,,,,,,,,55382,2022-11-11_08h56.46.107,vts_reward_expectancy_bt_OFFLINE,2022.2.4,60.10376468513205,
0,0,1,0,1,0,0,0,hexagon,triangle,1,0,1,0,1,5,17,6,,,,,,,,,,,,,,,,,,,,,,,,,,,,,,,,,,,,,,,,316.00960781797767,316.00960781797767,316.00960781797767,316.00960781797767,316.00960781797767,316.00960781797767,316.00960781797767,316.00960781797767,316.00960781797767,316.00960781797767,a,0.6016813609749079,10,426,1,316.64401080296375,318.1439105429454,318.1439105429454,,,,,,,,,,,,,,,,,,,,,,,,,,,,,,,,,,,,,,,,,,,,,,,,,,,,,,,,,,,,,,,,,,55382,2022-11-11_08h56.46.107,vts_reward_expectancy_bt_OFFLINE,2022.2.4,60.10376468513205,
0,0,0,1,0,0,1,0,star,hexagon,1,0,1,0,1,6,18,11,,,,,,,,,,,,,,,,,,,,,,,,,,,,,,,,,,,,,,,,318.6459352929378,318.6459352929378,318.6459352929378,318.6459352929378,318.6459352929378,318.6459352929378,318.6459352929378,318.6459352929378,318.6459352929378,318.6459352929378,a,1.5889859889866784,10,436,1,320.2632804259192,321.76362805091776,321.76362805091776,,,,,,,,,,,,,,,,,,,,,,,,,,,,,,,,,,,,,,,,,,,,,,,,,,,,,,,,,,,,,,,,,,55382,2022-11-11_08h56.46.107,vts_reward_expectancy_bt_OFFLINE,2022.2.4,60.10376468513205,
1,0,0,0,0,0,1,0,triangle,hexagon,1,0,1,0,1,7,19,1,,,,,,,,,,,,,,,,,,,,,,,,,,,,,,,,,,,,,,,,322.26366598194,322.26366598194,322.26366598194,322.26366598194,322.26366598194,322.26366598194,322.26366598194,322.26366598194,322.26366598194,322.26366598194,l,0.8288683251012117,10,446,1,323.11427373299375,324.6165787379723,,,,,,,,,,,,,,,,,,,,,,,,,,,,,,,,,,,,,,,,,,,,,,,,,,,,,,,,,,,,,,,,,,,55382,2022-11-11_08h56.46.107,vts_reward_expectancy_bt_OFFLINE,2022.2.4,60.10376468513205,
0,1,0,0,0,0,1,0,circle,hexagon,1,0,1,0,1,8,20,4,,,,,,,,,,,,,,,,,,,,,,,,,,,,,,,,,,,,,,,,325.11675270600244,325.11675270600244,325.11675270600244,325.11675270600244,325.11675270600244,325.11675270600244,325.11675270600244,325.11675270600244,325.11675270600244,325.11675270600244,a,0.9339774560648948,1,447,1,326.0848334149923,327.584324283991,327.584324283991,328.08431486191694,,,,,,,,,,,,,,,,,,,,,,,,,,,,,,,,,,,,,,,,,,,,,,,,,,,,,,,,,,,,,,,,,55382,2022-11-11_08h56.46.107,vts_reward_expectancy_bt_OFFLINE,2022.2.4,60.10376468513205,
0,0,0,1,1,0,0,0,star,triangle,1,0,1,0,1,9,21,9,,,,,,,,,,,,,,,,,,,,,,,,,,,,,,,,,,,,,,,,328.08431486191694,328.08431486191694,328.08431486191694,328.08431486191694,328.08431486191694,328.08431486191694,328.08431486191694,328.08431486191694,328.08431486191694,328.08431486191694,l,0.6776106789475307,1,448,1,328.78669402597006,330.2872945839772,330.2872945839772,,,,,,,,,,,,,,,,,,,,,,,,,,,,,,,,,,,,,,,,,,,,,,,,,,,,,,,,,,,,,,,,,,55382,2022-11-11_08h56.46.107,vts_reward_expectancy_bt_OFFLINE,2022.2.4,60.10376468513205,
0,0,0,1,0,1,0,0,star ,circle,1,0,1,0,1,10,22,10,,,,,,,,,,,,,,,,,,,,,,,,,,,,,,,,,,,,,,,,330.78700195392594,330.78700195392594,330.78700195392594,330.78700195392594,330.78700195392594,330.78700195392594,330.78700195392594,330.78700195392594,330.78700195392594,330.78700195392594,a,0.5749758969759569,1,449,1,331.3880327149527,332.88824463495985,332.88824463495985,,,,,,,,,,,,,,,,,,,,,,,,,,,,,,,,,,,,,,,,,,,,,,,,,,,,,,,,,,,,,,,,,,55382,2022-11-11_08h56.46.107,vts_reward_expectancy_bt_OFFLINE,2022.2.4,60.10376468513205,
0,0,1,0,0,1,0,0,hexagon,circle,1,0,1,0,1,11,23,7,,,,,,,,,,,,,,,,,,,,,,,,,,,,,,,,,,,,,,,,333.39001042291056,333.39001042291056,333.39001042291056,333.39001042291056,333.39001042291056,333.39001042291056,333.39001042291056,333.39001042291056,333.39001042291056,333.39001042291056,l,0.5920924040256068,1,450,1,334.0073708249256,335.50749998597894,335.50749998597894,,,,,,,,,,,,,,,,,,,,,,,,,,,,,,,,,,,,,,,,,,,,,,,,,,,,,,,,,,,,,,,,,,55382,2022-11-11_08h56.46.107,vts_reward_expectancy_bt_OFFLINE,2022.2.4,60.10376468513205,
0,0,1,0,1,0,0,0,hexagon,triangle,1,0,1,0,2,0,24,6,,,,,,,,,,,,,,,,,,,,,,,,,,,,,,,,,,,,,,,,336.00743630097713,336.00743630097713,336.00743630097713,336.00743630097713,336.00743630097713,336.00743630097713,336.00743630097713,336.00743630097713,336.00743630097713,336.00743630097713,l,0.38231057103257626,1,451,1,336.40814391500317,337.9083215389401,337.9083215389401,,,,,,,,,,,,,,,,,,,,,,,,,,,,,,,,,,,,,,,,,,,,,,,,,,,,,,,,,,,,,,,,,,55382,2022-11-11_08h56.46.107,vts_reward_expectancy_bt_OFFLINE,2022.2.4,60.10376468513205,
0,0,0,1,0,0,1,0,star,hexagon,1,0,1,0,2,1,25,11,,,,,,,,,,,,,,,,,,,,,,,,,,,,,,,,,,,,,,,,338.41041362890974,338.41041362890974,338.41041362890974,338.41041362890974,338.41041362890974,338.41041362890974,338.41041362890974,338.41041362890974,338.41041362890974,338.41041362890974,l,0.320188052020967,10,461,1,338.7625825389987,340.27795558492653,,,,,,,,,,,,,,,,,,,,,,,,,,,,,,,,,,,,,,,,,,,,,,,,,,,,,,,,,,,,,,,,,,,55382,2022-11-11_08h56.46.107,vts_reward_expectancy_bt_OFFLINE,2022.2.4,60.10376468513205,
0,0,1,0,0,0,0,1,hexagon,star,1,0,1,0,2,2,26,8,,,,,,,,,,,,,,,,,,,,,,,,,,,,,,,,,,,,,,,,340.77786698995624,340.77786698995624,340.77786698995624,340.77786698995624,340.77786698995624,340.77786698995624,340.77786698995624,340.77786698995624,340.77786698995624,340.77786698995624,l,0.8220506770303473,10,471,1,341.6285615368979,343.12861277593765,343.12861277593765,,,,,,,,,,,,,,,,,,,,,,,,,,,,,,,,,,,,,,,,,,,,,,,,,,,,,,,,,,,,,,,,,,55382,2022-11-11_08h56.46.107,vts_reward_expectancy_bt_OFFLINE,2022.2.4,60.10376468513205,
1,0,0,0,0,0,1,0,triangle,hexagon,1,0,1,0,2,3,27,1,,,,,,,,,,,,,,,,,,,,,,,,,,,,,,,,,,,,,,,,343.63080072193407,343.63080072193407,343.63080072193407,343.63080072193407,343.63080072193407,343.63080072193407,343.63080072193407,343.63080072193407,343.63080072193407,343.63080072193407,a,1.0966015370795503,1,472,1,344.75003221200313,346.2648379049497,,,,,,,,,,,,,,,,,,,,,,,,,,,,,,,,,,,,,,,,,,,,,,,,,,,,,,,,,,,,,,,,,,,55382,2022-11-11_08h56.46.107,vts_reward_expectancy_bt_OFFLINE,2022.2.4,60.10376468513205,
0,1,0,0,0,0,1,0,circle,hexagon,1,0,1,0,2,4,28,4,,,,,,,,,,,,,,,,,,,,,,,,,,,,,,,,,,,,,,,,346.76538657199126,346.76538657199126,346.76538657199126,346.76538657199126,346.76538657199126,346.76538657199126,346.76538657199126,346.76538657199126,346.76538657199126,346.76538657199126,l,0.7409226399613544,1,473,1,347.53261356893927,349.0344913509907,,,,,,,,,,,,,,,,,,,,,,,,,,,,,,,,,,,,,,,,,,,,,,,,,,,,,,,,,,,,,,,,,,,55382,2022-11-11_08h56.46.107,vts_reward_expectancy_bt_OFFLINE,2022.2.4,60.10376468513205,
0,0,0,1,1,0,0,0,star,triangle,1,0,1,0,2,5,29,9,,,,,,,,,,,,,,,,,,,,,,,,,,,,,,,,,,,,,,,,349.53461288195103,349.53461288195103,349.53461288195103,349.53461288195103,349.53461288195103,349.53461288195103,349.53461288195103,349.53461288195103,349.53461288195103,349.53461288195103,l,1.4696603909833357,10,483,1,351.03639389690943,352.5356831050012,352.5356831050012,353.0360504259588,,,,,,,,,,,,,,,,,,,,,,,,,,,,,,,,,,,,,,,,,,,,,,,,,,,,,,,,,,,,,,,,,55382,2022-11-11_08h56.46.107,vts_reward_expectancy_bt_OFFLINE,2022.2.4,60.10376468513205,
1,0,0,0,0,0,0,1,triangle,star,1,0,1,0,2,6,30,2,,,,,,,,,,,,,,,,,,,,,,,,,,,,,,,,,,,,,,,,353.0360504259588,353.0360504259588,353.0360504259588,353.0360504259588,353.0360504259588,353.0360504259588,353.0360504259588,353.0360504259588,353.0360504259588,353.0360504259588,a,1.118587614968419,1,484,1,354.17498303798493,355.68867553700693,,,,,,,,,,,,,,,,,,,,,,,,,,,,,,,,,,,,,,,,,,,,,,,,,,,,,,,,,,,,,,,,,,,55382,2022-11-11_08h56.46.107,vts_reward_expectancy_bt_OFFLINE,2022.2.4,60.10376468513205,
0,0,0,1,0,1,0,0,star ,circle,1,0,1,0,2,7,31,10,,,,,,,,,,,,,,,,,,,,,,,,,,,,,,,,,,,,,,,,356.1887926539639,356.1887926539639,356.1887926539639,356.1887926539639,356.1887926539639,356.1887926539639,356.1887926539639,356.1887926539639,356.1887926539639,356.1887926539639,l,0.7339613989461213,10,494,1,356.94200414791703,358.44141255295835,,,,,,,,,,,,,,,,,,,,,,,,,,,,,,,,,,,,,,,,,,,,,,,,,,,,,,,,,,,,,,,,,,,55382,2022-11-11_08h56.46.107,vts_reward_expectancy_bt_OFFLINE,2022.2.4,60.10376468513205,
1,0,0,0,0,1,0,0,triangle,circle,1,0,1,0,2,8,32,0,,,,,,,,,,,,,,,,,,,,,,,,,,,,,,,,,,,,,,,,358.9415491189575,358.9415491189575,358.9415491189575,358.9415491189575,358.9415491189575,358.9415491189575,358.9415491189575,358.9415491189575,358.9415491189575,358.9415491189575,a,1.6945999159943312,1,495,1,360.66163826792035,362.17652433691546,,,,,,,,,,,,,,,,,,,,,,,,,,,,,,,,,,,,,,,,,,,,,,,,,,,,,,,,,,,,,,,,,,,55382,2022-11-11_08h56.46.107,vts_reward_expectancy_bt_OFFLINE,2022.2.4,60.10376468513205,
0,0,1,0,0,1,0,0,hexagon,circle,1,0,1,0,2,9,33,7,,,,,,,,,,,,,,,,,,,,,,,,,,,,,,,,,,,,,,,,362.6762996299658,362.6762996299658,362.6762996299658,362.6762996299658,362.6762996299658,362.6762996299658,362.6762996299658,362.6762996299658,362.6762996299658,362.6762996299658,l,0.40031869208905846,1,496,1,363.0940218239557,364.59561812796164,,,,,,,,,,,,,,,,,,,,,,,,,,,,,,,,,,,,,,,,,,,,,,,,,,,,,,,,,,,,,,,,,,,55382,2022-11-11_08h56.46.107,vts_reward_expectancy_bt_OFFLINE,2022.2.4,60.10376468513205,
0,1,0,0,1,0,0,0,circle,triangle,1,0,1,0,2,10,34,3,,,,,,,,,,,,,,,,,,,,,,,,,,,,,,,,,,,,,,,,365.0957583269337,365.0957583269337,365.0957583269337,365.0957583269337,365.0957583269337,365.0957583269337,365.0957583269337,365.0957583269337,365.0957583269337,365.0957583269337,l,0.32060134306084365,10,506,1,365.4483109379653,366.9631368468981,,,,,,,,,,,,,,,,,,,,,,,,,,,,,,,,,,,,,,,,,,,,,,,,,,,,,,,,,,,,,,,,,,,55382,2022-11-11_08h56.46.107,vts_reward_expectancy_bt_OFFLINE,2022.2.4,60.10376468513205,
0,1,0,0,0,0,0,1,circle,star,1,0,1,0,2,11,35,5,,,,,,,,,,,,,,,,,,,,,,,,,,,,,,,,,,,,,,,,367.4467564629158,367.4467564629158,367.4467564629158,367.4467564629158,367.4467564629158,367.4467564629158,367.4467564629158,367.4467564629158,367.4467564629158,367.4467564629158,l,0.940561123075895,10,516,1,368.4159915319178,369.9160475669196,369.9160475669196,370.4164211069001,,,,,,,,,,,,,,,,,,,,,,,,,,,,,,,,,,,,,,,,,,,,,,,,,,,,,,,,,,,,,,,,,55382,2022-11-11_08h56.46.107,vts_reward_expectancy_bt_OFFLINE,2022.2.4,60.10376468513205,
0,1,0,0,1,0,0,0,circle,triangle,1,0,1,0,3,0,36,3,,,,,,,,,,,,,,,,,,,,,,,,,,,,,,,,,,,,,,,,370.4164211069001,370.4164211069001,370.4164211069001,370.4164211069001,370.4164211069001,370.4164211069001,370.4164211069001,370.4164211069001,370.4164211069001,370.4164211069001,a,1.0643640540074557,10,526,1,371.5004646499874,373.0003011219669,373.0003011219669,,,,,,,,,,,,,,,,,,,,,,,,,,,,,,,,,,,,,,,,,,,,,,,,,,,,,,,,,,,,,,,,,,55382,2022-11-11_08h56.46.107,vts_reward_expectancy_bt_OFFLINE,2022.2.4,60.10376468513205,
0,0,0,1,0,1,0,0,star ,circle,1,0,1,0,3,1,37,10,,,,,,,,,,,,,,,,,,,,,,,,,,,,,,,,,,,,,,,,373.5026119449176,373.5026119449176,373.5026119449176,373.5026119449176,373.5026119449176,373.5026119449176,373.5026119449176,373.5026119449176,373.5026119449176,373.5026119449176,l,1.2746837630402297,10,536,1,374.803912033909,376.303314846009,376.303314846009,376.8038251919206,,,,,,,,,,,,,,,,,,,,,,,,,,,,,,,,,,,,,,,,,,,,,,,,,,,,,,,,,,,,,,,,,55382,2022-11-11_08h56.46.107,vts_reward_expectancy_bt_OFFLINE,2022.2.4,60.10376468513205,
0,0,0,1,1,0,0,0,star,triangle,1,0,1,0,3,2,38,9,,,,,,,,,,,,,,,,,,,,,,,,,,,,,,,,,,,,,,,,376.8038251919206,376.8038251919206,376.8038251919206,376.8038251919206,376.8038251919206,376.8038251919206,376.8038251919206,376.8038251919206,376.8038251919206,376.8038251919206,l,1.7421898170141503,1,537,1,378.5869849019218,380.08993950800505,,,,,,,,,,,,,,,,,,,,,,,,,,,,,,,,,,,,,,,,,,,,,,,,,,,,,,,,,,,,,,,,,,,55382,2022-11-11_08h56.46.107,vts_reward_expectancy_bt_OFFLINE,2022.2.4,60.10376468513205,
0,0,1,0,0,1,0,0,hexagon,circle,1,0,1,0,3,3,39,7,,,,,,,,,,,,,,,,,,,,,,,,,,,,,,,,,,,,,,,,380.59034951089416,380.59034951089416,380.59034951089416,380.59034951089416,380.59034951089416,380.59034951089416,380.59034951089416,380.59034951089416,380.59034951089416,380.59034951089416,l,1.7701383309904486,1,538,1,382.391551974928,383.8932336809812,,,,,,,,,,,,,,,,,,,,,,,,,,,,,,,,,,,,,,,,,,,,,,,,,,,,,,,,,,,,,,,,,,,55382,2022-11-11_08h56.46.107,vts_reward_expectancy_bt_OFFLINE,2022.2.4,60.10376468513205,
0,0,1,0,1,0,0,0,hexagon,triangle,1,0,1,0,3,4,40,6,,,,,,,,,,,,,,,,,,,,,,,,,,,,,,,,,,,,,,,,384.39372603897937,384.39372603897937,384.39372603897937,384.39372603897937,384.39372603897937,384.39372603897937,384.39372603897937,384.39372603897937,384.39372603897937,384.39372603897937,a,1.5211765459971502,10,548,1,385.95822831091937,387.46122439496685,,,,,,,,,,,,,,,,,,,,,,,,,,,,,,,,,,,,,,,,,,,,,,,,,,,,,,,,,,,,,,,,,,,55382,2022-11-11_08h56.46.107,vts_reward_expectancy_bt_OFFLINE,2022.2.4,60.10376468513205,
0,1,0,0,0,0,0,1,circle,star,1,0,1,0,3,5,41,5,,,,,,,,,,,,,,,,,,,,,,,,,,,,,,,,,,,,,,,,387.9612350499956,387.9612350499956,387.9612350499956,387.9612350499956,387.9612350499956,387.9612350499956,387.9612350499956,387.9612350499956,387.9612350499956,387.9612350499956,a,3.185196191072464,10,558,1,391.1649270639755,392.66492031200323,392.66492031200323,393.1651661939686,,,,,,,,,,,,,,,,,,,,,,,,,,,,,,,,,,,,,,,,,,,,,,,,,,,,,,,,,,,,,,,,,55382,2022-11-11_08h56.46.107,vts_reward_expectancy_bt_OFFLINE,2022.2.4,60.10376468513205,
1,0,0,0,0,1,0,0,triangle,circle,1,0,1,0,3,6,42,0,,,,,,,,,,,,,,,,,,,,,,,,,,,,,,,,,,,,,,,,393.1651661939686,393.1651661939686,393.1651661939686,393.1651661939686,393.1651661939686,393.1651661939686,393.1651661939686,393.1651661939686,393.1651661939686,393.1651661939686,a,1.446615485008806,10,568,1,394.63471393391956,396.13463413889986,396.13463413889986,396.6347194989212,,,,,,,,,,,,,,,,,,,,,,,,,,,,,,,,,,,,,,,,,,,,,,,,,,,,,,,,,,,,,,,,,55382,2022-11-11_08h56.46.107,vts_reward_expectancy_bt_OFFLINE,2022.2.4,60.10376468513205,
1,0,0,0,0,0,1,0,triangle,hexagon,1,0,1,0,3,7,43,1,,,,,,,,,,,,,,,,,,,,,,,,,,,,,,,,,,,,,,,,396.6347194989212,396.6347194989212,396.6347194989212,396.6347194989212,396.6347194989212,396.6347194989212,396.6347194989212,396.6347194989212,396.6347194989212,396.6347194989212,l,1.3750613529700786,1,569,1,398.0378119919915,399.53798560390715,,,,,,,,,,,,,,,,,,,,,,,,,,,,,,,,,,,,,,,,,,,,,,,,,,,,,,,,,,,,,,,,,,,55382,2022-11-11_08h56.46.107,vts_reward_expectancy_bt_OFFLINE,2022.2.4,60.10376468513205,
0,0,0,1,0,0,1,0,star,hexagon,1,0,1,0,3,8,44,11,,,,,,,,,,,,,,,,,,,,,,,,,,,,,,,,,,,,,,,,400.0379883409478,400.0379883409478,400.0379883409478,400.0379883409478,400.0379883409478,400.0379883409478,400.0379883409478,400.0379883409478,400.0379883409478,400.0379883409478,l,1.1103036149870604,10,579,1,401.17443927098066,402.6890321630053,,,,,,,,,,,,,,,,,,,,,,,,,,,,,,,,,,,,,,,,,,,,,,,,,,,,,,,,,,,,,,,,,,,55382,2022-11-11_08h56.46.107,vts_reward_expectancy_bt_OFFLINE,2022.2.4,60.10376468513205,
0,0,1,0,0,0,0,1,hexagon,star,1,0,1,0,3,9,45,8,,,,,,,,,,,,,,,,,,,,,,,,,,,,,,,,,,,,,,,,403.18892714893445,403.18892714893445,403.18892714893445,403.18892714893445,403.18892714893445,403.18892714893445,403.18892714893445,403.18892714893445,403.18892714893445,403.18892714893445,a,1.234486640081741,1,580,1,404.4436370219337,405.95870253199246,,,,,,,,,,,,,,,,,,,,,,,,,,,,,,,,,,,,,,,,,,,,,,,,,,,,,,,,,,,,,,,,,,,55382,2022-11-11_08h56.46.107,vts_reward_expectancy_bt_OFFLINE,2022.2.4,60.10376468513205,
1,0,0,0,0,0,0,1,triangle,star,1,0,1,0,3,10,46,2,,,,,,,,,,,,,,,,,,,,,,,,,,,,,,,,,,,,,,,,406.4587024319917,406.4587024319917,406.4587024319917,406.4587024319917,406.4587024319917,406.4587024319917,406.4587024319917,406.4587024319917,406.4587024319917,406.4587024319917,a,0.7994148819707334,10,590,1,407.2786084059626,408.77799073199276,,,,,,,,,,,,,,,,,,,,,,,,,,,,,,,,,,,,,,,,,,,,,,,,,,,,,,,,,,,,,,,,,,,55382,2022-11-11_08h56.46.107,vts_reward_expectancy_bt_OFFLINE,2022.2.4,60.10376468513205,
0,1,0,0,0,0,1,0,circle,hexagon,1,0,1,0,3,11,47,4,,,,,,,,,,,,,,,,,,,,,,,,,,,,,,,,,,,,,,,,409.27822620701045,409.27822620701045,409.27822620701045,409.27822620701045,409.27822620701045,409.27822620701045,409.27822620701045,409.27822620701045,409.27822620701045,409.27822620701045,l,2.4689406469697133,10,600,1,411.7792491778964,413.27956119400915,413.27956119400915,,,,,,,,,,,,,,,,,,,,,,,,,,,,,,,,,,,,,,,,,,,,,,,,,,,,,,,,,,,,,,,,,,55382,2022-11-11_08h56.46.107,vts_reward_expectancy_bt_OFFLINE,2022.2.4,60.10376468513205,
0,1,0,0,0,0,1,0,circle,hexagon,2,0,2,0,0,0,0,4,,,,,,,,,,,,,,,,,,,,,,,,,,,,,,,,,,,,,,,,417.9274823568994,417.9274823568994,417.9274823568994,417.9274823568994,417.9274823568994,417.9274823568994,417.9274823568994,417.9274823568994,417.9274823568994,417.9274823568994,a,1.7956248880364,10,610,2,419.75338277290575,421.2528873279225,421.2528873279225,421.75294686097186,,,,,,,,,,,,,,,,,,,,,,,,,,,,,,,,,,,,,,,,,,,,,,,,,,,,,,,,,,,,,,,,,55382,2022-11-11_08h56.46.107,vts_reward_expectancy_bt_OFFLINE,2022.2.4,60.10376468513205,
0,0,1,0,0,1,0,0,hexagon,circle,2,0,2,0,0,1,1,7,,,,,,,,,,,,,,,,,,,,,,,,,,,,,,,,,,,,,,,,421.75294686097186,421.75294686097186,421.75294686097186,421.75294686097186,421.75294686097186,421.75294686097186,421.75294686097186,421.75294686097186,421.75294686097186,421.75294686097186,l,1.5034504310460761,1,611,2,423.28952271095477,424.7891350539867,,,,,,,,,,,,,,,,,,,,,,,,,,,,,,,,,,,,,,,,,,,,,,,,,,,,,,,,,,,,,,,,,,,55382,2022-11-11_08h56.46.107,vts_reward_expectancy_bt_OFFLINE,2022.2.4,60.10376468513205,
1,0,0,0,0,0,1,0,triangle,hexagon,2,0,2,0,0,2,2,1,,,,,,,,,,,,,,,,,,,,,,,,,,,,,,,,,,,,,,,,425.2894126669271,425.2894126669271,425.2894126669271,425.2894126669271,425.2894126669271,425.2894126669271,425.2894126669271,425.2894126669271,425.2894126669271,425.2894126669271,l,0.7452340499730781,1,612,2,426.05711129889823,427.5570936849108,,,,,,,,,,,,,,,,,,,,,,,,,,,,,,,,,,,,,,,,,,,,,,,,,,,,,,,,,,,,,,,,,,,55382,2022-11-11_08h56.46.107,vts_reward_expectancy_bt_OFFLINE,2022.2.4,60.10376468513205,
0,0,1,0,0,0,0,1,hexagon,star,2,0,2,0,0,3,3,8,,,,,,,,,,,,,,,,,,,,,,,,,,,,,,,,,,,,,,,,428.05726059293374,428.05726059293374,428.05726059293374,428.05726059293374,428.05726059293374,428.05726059293374,428.05726059293374,428.05726059293374,428.05726059293374,428.05726059293374,l,1.0827510060044006,1,613,2,429.16024576791096,430.66003577189986,430.66003577189986,431.16008881898597,,,,,,,,,,,,,,,,,,,,,,,,,,,,,,,,,,,,,,,,,,,,,,,,,,,,,,,,,,,,,,,,,55382,2022-11-11_08h56.46.107,vts_reward_expectancy_bt_OFFLINE,2022.2.4,60.10376468513205,
0,1,0,0,0,0,0,1,circle,star,2,0,2,0,0,4,4,5,,,,,,,,,,,,,,,,,,,,,,,,,,,,,,,,,,,,,,,,431.16008881898597,431.16008881898597,431.16008881898597,431.16008881898597,431.16008881898597,431.16008881898597,431.16008881898597,431.16008881898597,431.16008881898597,431.16008881898597,l,0.6579610169865191,1,614,2,431.8443328499561,433.344139453955,433.344139453955,,,,,,,,,,,,,,,,,,,,,,,,,,,,,,,,,,,,,,,,,,,,,,,,,,,,,,,,,,,,,,,,,,55382,2022-11-11_08h56.46.107,vts_reward_expectancy_bt_OFFLINE,2022.2.4,60.10376468513205,
0,1,0,0,1,0,0,0,circle,triangle,2,0,2,0,0,5,5,3,,,,,,,,,,,,,,,,,,,,,,,,,,,,,,,,,,,,,,,,433.84624218498357,433.84624218498357,433.84624218498357,433.84624218498357,433.84624218498357,433.84624218498357,433.84624218498357,433.84624218498357,433.84624218498357,433.84624218498357,a,1.8979800950037315,10,624,2,435.76616330398247,437.28104054299183,,,,,,,,,,,,,,,,,,,,,,,,,,,,,,,,,,,,,,,,,,,,,,,,,,,,,,,,,,,,,,,,,,,55382,2022-11-11_08h56.46.107,vts_reward_expectancy_bt_OFFLINE,2022.2.4,60.10376468513205,
1,0,0,0,0,0,0,1,triangle,star,2,0,2,0,0,6,6,2,,,,,,,,,,,,,,,,,,,,,,,,,,,,,,,,,,,,,,,,437.76442800392397,437.76442800392397,437.76442800392397,437.76442800392397,437.76442800392397,437.76442800392397,437.76442800392397,437.76442800392397,437.76442800392397,437.76442800392397,l,0.8484306980390102,1,625,2,438.635681103915,440.13402185891755,,,,,,,,,,,,,,,,,,,,,,,,,,,,,,,,,,,,,,,,,,,,,,,,,,,,,,,,,,,,,,,,,,,55382,2022-11-11_08h56.46.107,vts_reward_expectancy_bt_OFFLINE,2022.2.4,60.10376468513205,
0,0,1,0,1,0,0,0,hexagon,triangle,2,0,2,0,0,7,7,6,,,,,,,,,,,,,,,,,,,,,,,,,,,,,,,,,,,,,,,,440.6340477699414,440.6340477699414,440.6340477699414,440.6340477699414,440.6340477699414,440.6340477699414,440.6340477699414,440.6340477699414,440.6340477699414,440.6340477699414,a,0.5325868809595704,10,635,2,441.18673389800824,442.6847635769518,,443.18488799396437,,,,,,,,,,,,,,,,,,,,,,,,,,,,,,,,,,,,,,,,,,,,,,,,,,,,,,,,,,,,,,,,,55382,2022-11-11_08h56.46.107,vts_reward_expectancy_bt_OFFLINE,2022.2.4,60.10376468513205,
0,0,0,1,0,1,0,0,star ,circle,2,0,2,0,0,8,8,10,,,,,,,,,,,,,,,,,,,,,,,,,,,,,,,,,,,,,,,,443.18488799396437,443.18488799396437,443.18488799396437,443.18488799396437,443.18488799396437,443.18488799396437,443.18488799396437,443.18488799396437,443.18488799396437,443.18488799396437,a,0.9189311600057408,10,645,2,444.1215552149806,445.6208765129559,445.6208765129559,446.1209819779033,,,,,,,,,,,,,,,,,,,,,,,,,,,,,,,,,,,,,,,,,,,,,,,,,,,,,,,,,,,,,,,,,55382,2022-11-11_08h56.46.107,vts_reward_expectancy_bt_OFFLINE,2022.2.4,60.10376468513205,
0,0,0,1,1,0,0,0,star,triangle,2,0,2,0,0,9,9,9,,,,,,,,,,,,,,,,,,,,,,,,,,,,,,,,,,,,,,,,446.1209819779033,446.1209819779033,446.1209819779033,446.1209819779033,446.1209819779033,446.1209819779033,446.1209819779033,446.1209819779033,446.1209819779033,446.1209819779033,l,0.6941596099641174,1,646,2,446.84075417695567,448.355139336898,,,,,,,,,,,,,,,,,,,,,,,,,,,,,,,,,,,,,,,,,,,,,,,,,,,,,,,,,,,,,,,,,,,55382,2022-11-11_08h56.46.107,vts_reward_expectancy_bt_OFFLINE,2022.2.4,60.10376468513205,
1,0,0,0,0,1,0,0,triangle,circle,2,0,2,0,0,10,10,0,,,,,,,,,,,,,,,,,,,,,,,,,,,,,,,,,,,,,,,,448.84059679997154,448.84059679997154,448.84059679997154,448.84059679997154,448.84059679997154,448.84059679997154,448.84059679997154,448.84059679997154,448.84059679997154,448.84059679997154,a,0.764527733088471,10,656,2,449.6385739799589,451.14122177497484,,,,,,,,,,,,,,,,,,,,,,,,,,,,,,,,,,,,,,,,,,,,,,,,,,,,,,,,,,,,,,,,,,,55382,2022-11-11_08h56.46.107,vts_reward_expectancy_bt_OFFLINE,2022.2.4,60.10376468513205,
0,0,0,1,0,0,1,0,star,hexagon,2,0,2,0,0,11,11,11,,,,,,,,,,,,,,,,,,,,,,,,,,,,,,,,,,,,,,,,451.64162186090834,451.64162186090834,451.64162186090834,451.64162186090834,451.64162186090834,451.64162186090834,451.64162186090834,451.64162186090834,451.64162186090834,451.64162186090834,a,0.7529967200243846,10,666,2,452.42592034395784,453.92748942191247,,,,,,,,,,,,,,,,,,,,,,,,,,,,,,,,,,,,,,,,,,,,,,,,,,,,,,,,,,,,,,,,,,,55382,2022-11-11_08h56.46.107,vts_reward_expectancy_bt_OFFLINE,2022.2.4,60.10376468513205,
0,1,0,0,0,0,1,0,circle,hexagon,2,0,2,0,1,0,12,4,,,,,,,,,,,,,,,,,,,,,,,,,,,,,,,,,,,,,,,,454.42771443200763,454.42771443200763,454.42771443200763,454.42771443200763,454.42771443200763,454.42771443200763,454.42771443200763,454.42771443200763,454.42771443200763,454.42771443200763,l,0.47586894407868385,10,676,2,454.929441629909,456.4451426638989,,,,,,,,,,,,,,,,,,,,,,,,,,,,,,,,,,,,,,,,,,,,,,,,,,,,,,,,,,,,,,,,,,,55382,2022-11-11_08h56.46.107,vts_reward_expectancy_bt_OFFLINE,2022.2.4,60.10376468513205,
0,0,1,0,0,1,0,0,hexagon,circle,2,0,2,0,1,1,13,7,,,,,,,,,,,,,,,,,,,,,,,,,,,,,,,,,,,,,,,,456.9450567049207,456.9450567049207,456.9450567049207,456.9450567049207,456.9450567049207,456.9450567049207,456.9450567049207,456.9450567049207,456.9450567049207,456.9450567049207,l,0.9293510479619727,1,677,2,457.9100825089263,459.3977598740021,,,,,,,,,,,,,,,,,,,,,,,,,,,,,,,,,,,,,,,,,,,,,,,,,,,,,,,,,,,,,,,,,,,55382,2022-11-11_08h56.46.107,vts_reward_expectancy_bt_OFFLINE,2022.2.4,60.10376468513205,
1,0,0,0,0,0,1,0,triangle,hexagon,2,0,2,0,1,2,14,1,,,,,,,,,,,,,,,,,,,,,,,,,,,,,,,,,,,,,,,,459.89833691797685,459.89833691797685,459.89833691797685,459.89833691797685,459.89833691797685,459.89833691797685,459.89833691797685,459.89833691797685,459.89833691797685,459.89833691797685,l,0.6198334670625627,1,678,2,460.54995585093275,462.0657291209791,,,,,,,,,,,,,,,,,,,,,,,,,,,,,,,,,,,,,,,,,,,,,,,,,,,,,,,,,,,,,,,,,,,55382,2022-11-11_08h56.46.107,vts_reward_expectancy_bt_OFFLINE,2022.2.4,60.10376468513205,
0,0,1,0,0,0,0,1,hexagon,star,2,0,2,0,1,3,15,8,,,,,,,,,,,,,,,,,,,,,,,,,,,,,,,,,,,,,,,,462.5656141740037,462.5656141740037,462.5656141740037,462.5656141740037,462.5656141740037,462.5656141740037,462.5656141740037,462.5656141740037,462.5656141740037,462.5656141740037,a,0.4955649159383029,1,679,2,463.08359108294826,464.5851812589681,,,,,,,,,,,,,,,,,,,,,,,,,,,,,,,,,,,,,,,,,,,,,,,,,,,,,,,,,,,,,,,,,,,55382,2022-11-11_08h56.46.107,vts_reward_expectancy_bt_OFFLINE,2022.2.4,60.10376468513205,
1,0,0,0,0,1,0,0,triangle,circle,2,0,2,0,1,4,16,0,,,,,,,,,,,,,,,,,,,,,,,,,,,,,,,,,,,,,,,,465.0852803479647,465.0852803479647,465.0852803479647,465.0852803479647,465.0852803479647,465.0852803479647,465.0852803479647,465.0852803479647,465.0852803479647,465.0852803479647,a,1.0361996779683977,10,689,2,466.1552249479573,467.66971391800325,,,,,,,,,,,,,,,,,,,,,,,,,,,,,,,,,,,,,,,,,,,,,,,,,,,,,,,,,,,,,,,,,,,55382,2022-11-11_08h56.46.107,vts_reward_expectancy_bt_OFFLINE,2022.2.4,60.10376468513205,
0,0,0,1,0,0,1,0,star,hexagon,2,0,2,0,1,5,17,11,,,,,,,,,,,,,,,,,,,,,,,,,,,,,,,,,,,,,,,,468.16967098996975,468.16967098996975,468.16967098996975,468.16967098996975,468.16967098996975,468.16967098996975,468.16967098996975,468.16967098996975,468.16967098996975,468.16967098996975,l,0.7409815789433196,1,690,2,468.9413005199749,470.455647950992,,,,,,,,,,,,,,,,,,,,,,,,,,,,,,,,,,,,,,,,,,,,,,,,,,,,,,,,,,,,,,,,,,,55382,2022-11-11_08h56.46.107,vts_reward_expectancy_bt_OFFLINE,2022.2.4,60.10376468513205,
1,0,0,0,0,0,0,1,triangle,star,2,0,2,0,1,6,18,2,,,,,,,,,,,,,,,,,,,,,,,,,,,,,,,,,,,,,,,,470.95591855596285,470.95591855596285,470.95591855596285,470.95591855596285,470.95591855596285,470.95591855596285,470.95591855596285,470.95591855596285,470.95591855596285,470.95591855596285,a,0.6323344029951841,10,700,2,471.60914701991715,473.12352728599217,,,,,,,,,,,,,,,,,,,,,,,,,,,,,,,,,,,,,,,,,,,,,,,,,,,,,,,,,,,,,,,,,,,55382,2022-11-11_08h56.46.107,vts_reward_expectancy_bt_OFFLINE,2022.2.4,60.10376468513205,
0,0,0,1,0,1,0,0,star ,circle,2,0,2,0,1,7,19,10,,,,,,,,,,,,,,,,,,,,,,,,,,,,,,,,,,,,,,,,473.6086564249126,473.6086564249126,473.6086564249126,473.6086564249126,473.6086564249126,473.6086564249126,473.6086564249126,473.6086564249126,473.6086564249126,473.6086564249126,a,1.3329332509310916,10,710,2,474.9602561289212,476.4594468349824,476.4594468349824,476.95998295396566,,,,,,,,,,,,,,,,,,,,,,,,,,,,,,,,,,,,,,,,,,,,,,,,,,,,,,,,,,,,,,,,,55382,2022-11-11_08h56.46.107,vts_reward_expectancy_bt_OFFLINE,2022.2.4,60.10376468513205,
0,1,0,0,0,0,0,1,circle,star,2,0,2,0,1,8,20,5,,,,,,,,,,,,,,,,,,,,,,,,,,,,,,,,,,,,,,,,476.95998295396566,476.95998295396566,476.95998295396566,476.95998295396566,476.95998295396566,476.95998295396566,476.95998295396566,476.95998295396566,476.95998295396566,476.95998295396566,a,0.8272796820383519,10,720,2,477.81130686192773,479.31280192092527,,,,,,,,,,,,,,,,,,,,,,,,,,,,,,,,,,,,,,,,,,,,,,,,,,,,,,,,,,,,,,,,,,,55382,2022-11-11_08h56.46.107,vts_reward_expectancy_bt_OFFLINE,2022.2.4,60.10376468513205,
0,0,0,1,1,0,0,0,star,triangle,2,0,2,0,1,9,21,9,,,,,,,,,,,,,,,,,,,,,,,,,,,,,,,,,,,,,,,,479.8128942269832,479.8128942269832,479.8128942269832,479.8128942269832,479.8128942269832,479.8128942269832,479.8128942269832,479.8128942269832,479.8128942269832,479.8128942269832,l,0.5513877179473639,1,721,2,480.39843630895484,481.91378568694927,,,,,,,,,,,,,,,,,,,,,,,,,,,,,,,,,,,,,,,,,,,,,,,,,,,,,,,,,,,,,,,,,,,55382,2022-11-11_08h56.46.107,vts_reward_expectancy_bt_OFFLINE,2022.2.4,60.10376468513205,
0,0,1,0,1,0,0,0,hexagon,triangle,2,0,2,0,1,10,22,6,,,,,,,,,,,,,,,,,,,,,,,,,,,,,,,,,,,,,,,,482.4138772269944,482.4138772269944,482.4138772269944,482.4138772269944,482.4138772269944,482.4138772269944,482.4138772269944,482.4138772269944,482.4138772269944,482.4138772269944,l,0.6726101411040872,1,722,2,483.11491709190886,484.6163947539171,,,,,,,,,,,,,,,,,,,,,,,,,,,,,,,,,,,,,,,,,,,,,,,,,,,,,,,,,,,,,,,,,,,55382,2022-11-11_08h56.46.107,vts_reward_expectancy_bt_OFFLINE,2022.2.4,60.10376468513205,
0,1,0,0,1,0,0,0,circle,triangle,2,0,2,0,1,11,23,3,,,,,,,,,,,,,,,,,,,,,,,,,,,,,,,,,,,,,,,,485.1164919899311,485.1164919899311,485.1164919899311,485.1164919899311,485.1164919899311,485.1164919899311,485.1164919899311,485.1164919899311,485.1164919899311,485.1164919899311,l,0.8736194160301238,10,732,2,486.01958566799294,487.53425558900926,,,,,,,,,,,,,,,,,,,,,,,,,,,,,,,,,,,,,,,,,,,,,,,,,,,,,,,,,,,,,,,,,,,55382,2022-11-11_08h56.46.107,vts_reward_expectancy_bt_OFFLINE,2022.2.4,60.10376468513205,
0,0,1,0,0,0,0,1,hexagon,star,2,0,2,0,2,0,24,8,,,,,,,,,,,,,,,,,,,,,,,,,,,,,,,,,,,,,,,,488.01754628890194,488.01754628890194,488.01754628890194,488.01754628890194,488.01754628890194,488.01754628890194,488.01754628890194,488.01754628890194,488.01754628890194,488.01754628890194,a,1.6063627280527726,10,742,2,489.6541223039385,491.1539177369559,491.1539177369559,491.6540324270027,,,,,,,,,,,,,,,,,,,,,,,,,,,,,,,,,,,,,,,,,,,,,,,,,,,,,,,,,,,,,,,,,55382,2022-11-11_08h56.46.107,vts_reward_expectancy_bt_OFFLINE,2022.2.4,60.10376468513205,
0,0,0,1,1,0,0,0,star,triangle,2,0,2,0,2,1,25,9,,,,,,,,,,,,,,,,,,,,,,,,,,,,,,,,,,,,,,,,491.6540324270027,491.6540324270027,491.6540324270027,491.6540324270027,491.6540324270027,491.6540324270027,491.6540324270027,491.6540324270027,491.6540324270027,491.6540324270027,l,0.8604576420038939,1,743,2,492.55193696997594,494.03975952696055,,,,,,,,,,,,,,,,,,,,,,,,,,,,,,,,,,,,,,,,,,,,,,,,,,,,,,,,,,,,,,,,,,,55382,2022-11-11_08h56.46.107,vts_reward_expectancy_bt_OFFLINE,2022.2.4,60.10376468513205,
0,1,0,0,1,0,0,0,circle,triangle,2,0,2,0,2,2,26,3,,,,,,,,,,,,,,,,,,,,,,,,,,,,,,,,,,,,,,,,494.54031522595324,494.54031522595324,494.54031522595324,494.54031522595324,494.54031522595324,494.54031522595324,494.54031522595324,494.54031522595324,494.54031522595324,494.54031522595324,l,0.45001634303480387,1,744,2,495.00802181090694,496.5075965200085,496.5075965200085,497.00763558992185,,,,,,,,,,,,,,,,,,,,,,,,,,,,,,,,,,,,,,,,,,,,,,,,,,,,,,,,,,,,,,,,,55382,2022-11-11_08h56.46.107,vts_reward_expectancy_bt_OFFLINE,2022.2.4,60.10376468513205,
1,0,0,0,0,1,0,0,triangle,circle,2,0,2,0,2,3,27,0,,,,,,,,,,,,,,,,,,,,,,,,,,,,,,,,,,,,,,,,497.00763558992185,497.00763558992185,497.00763558992185,497.00763558992185,497.00763558992185,497.00763558992185,497.00763558992185,497.00763558992185,497.00763558992185,497.00763558992185,l,0.5809836430707946,10,754,2,497.61092692497186,499.11018783890177,,,,,,,,,,,,,,,,,,,,,,,,,,,,,,,,,,,,,,,,,,,,,,,,,,,,,,,,,,,,,,,,,,,55382,2022-11-11_08h56.46.107,vts_reward_expectancy_bt_OFFLINE,2022.2.4,60.10376468513205,
0,0,1,0,0,1,0,0,hexagon,circle,2,0,2,0,2,4,28,7,,,,,,,,,,,,,,,,,,,,,,,,,,,,,,,,,,,,,,,,499.61062703991774,499.61062703991774,499.61062703991774,499.61062703991774,499.61062703991774,499.61062703991774,499.61062703991774,499.61062703991774,499.61062703991774,499.61062703991774,a,0.8135371800744906,1,755,2,500.44725142093375,501.96134666295256,,,,,,,,,,,,,,,,,,,,,,,,,,,,,,,,,,,,,,,,,,,,,,,,,,,,,,,,,,,,,,,,,,,55382,2022-11-11_08h56.46.107,vts_reward_expectancy_bt_OFFLINE,2022.2.4,60.10376468513205,
0,0,1,0,1,0,0,0,hexagon,triangle,2,0,2,0,2,5,29,6,,,,,,,,,,,,,,,,,,,,,,,,,,,,,,,,,,,,,,,,502.4612760359887,502.4612760359887,502.4612760359887,502.4612760359887,502.4612760359887,502.4612760359887,502.4612760359887,502.4612760359887,502.4612760359887,502.4612760359887,a,0.6630662370007485,10,765,2,503.14803749893326,504.6476880129194,,,,,,,,,,,,,,,,,,,,,,,,,,,,,,,,,,,,,,,,,,,,,,,,,,,,,,,,,,,,,,,,,,,55382,2022-11-11_08h56.46.107,vts_reward_expectancy_bt_OFFLINE,2022.2.4,60.10376468513205,
1,0,0,0,0,0,1,0,triangle,hexagon,2,0,2,0,2,6,30,1,,,,,,,,,,,,,,,,,,,,,,,,,,,,,,,,,,,,,,,,505.1477732359199,505.1477732359199,505.1477732359199,505.1477732359199,505.1477732359199,505.1477732359199,505.1477732359199,505.1477732359199,505.1477732359199,505.1477732359199,l,0.743570005055517,10,775,2,505.91544392495416,507.4153025120031,507.4153025120031,507.91531375190243,,,,,,,,,,,,,,,,,,,,,,,,,,,,,,,,,,,,,,,,,,,,,,,,,,,,,,,,,,,,,,,,,55382,2022-11-11_08h56.46.107,vts_reward_expectancy_bt_OFFLINE,2022.2.4,60.10376468513205,
1,0,0,0,0,0,0,1,triangle,star,2,0,2,0,2,7,31,2,,,,,,,,,,,,,,,,,,,,,,,,,,,,,,,,,,,,,,,,507.91531375190243,507.91531375190243,507.91531375190243,507.91531375190243,507.91531375190243,507.91531375190243,507.91531375190243,507.91531375190243,507.91531375190243,507.91531375190243,a,0.9355841340729967,1,776,2,508.8710471600061,510.38470979896374,,,,,,,,,,,,,,,,,,,,,,,,,,,,,,,,,,,,,,,,,,,,,,,,,,,,,,,,,,,,,,,,,,,55382,2022-11-11_08h56.46.107,vts_reward_expectancy_bt_OFFLINE,2022.2.4,60.10376468513205,
0,0,0,1,0,1,0,0,star ,circle,2,0,2,0,2,8,32,10,,,,,,,,,,,,,,,,,,,,,,,,,,,,,,,,,,,,,,,,510.8846792569384,510.8846792569384,510.8846792569384,510.8846792569384,510.8846792569384,510.8846792569384,510.8846792569384,510.8846792569384,510.8846792569384,510.8846792569384,l,0.5530213780002668,10,786,2,511.4715173569275,512.9859526680084,,,,,,,,,,,,,,,,,,,,,,,,,,,,,,,,,,,,,,,,,,,,,,,,,,,,,,,,,,,,,,,,,,,55382,2022-11-11_08h56.46.107,vts_reward_expectancy_bt_OFFLINE,2022.2.4,60.10376468513205,
0,1,0,0,0,0,0,1,circle,star,2,0,2,0,2,9,33,5,,,,,,,,,,,,,,,,,,,,,,,,,,,,,,,,,,,,,,,,513.4710485449759,513.4710485449759,513.4710485449759,513.4710485449759,513.4710485449759,513.4710485449759,513.4710485449759,513.4710485449759,513.4710485449759,513.4710485449759,a,0.8581688329577446,10,796,2,514.3560536319856,515.8555048699491,515.8555048699491,516.3552345199278,,,,,,,,,,,,,,,,,,,,,,,,,,,,,,,,,,,,,,,,,,,,,,,,,,,,,,,,,,,,,,,,,55382,2022-11-11_08h56.46.107,vts_reward_expectancy_bt_OFFLINE,2022.2.4,60.10376468513205,
0,1,0,0,0,0,1,0,circle,hexagon,2,0,2,0,2,10,34,4,,,,,,,,,,,,,,,,,,,,,,,,,,,,,,,,,,,,,,,,516.3552345199278,516.3552345199278,516.3552345199278,516.3552345199278,516.3552345199278,516.3552345199278,516.3552345199278,516.3552345199278,516.3552345199278,516.3552345199278,l,0.6632412290200591,1,797,2,517.0418967909645,518.5411282309797,,,,,,,,,,,,,,,,,,,,,,,,,,,,,,,,,,,,,,,,,,,,,,,,,,,,,,,,,,,,,,,,,,,55382,2022-11-11_08h56.46.107,vts_reward_expectancy_bt_OFFLINE,2022.2.4,60.10376468513205,
0,0,0,1,0,0,1,0,star,hexagon,2,0,2,0,2,11,35,11,,,,,,,,,,,,,,,,,,,,,,,,,,,,,,,,,,,,,,,,519.0414870289387,519.0414870289387,519.0414870289387,519.0414870289387,519.0414870289387,519.0414870289387,519.0414870289387,519.0414870289387,519.0414870289387,519.0414870289387,l,0.3512559849768877,1,798,2,519.4253749449272,520.9256800248986,520.9256800248986,521.4257869179128,,,,,,,,,,,,,,,,,,,,,,,,,,,,,,,,,,,,,,,,,,,,,,,,,,,,,,,,,,,,,,,,,55382,2022-11-11_08h56.46.107,vts_reward_expectancy_bt_OFFLINE,2022.2.4,60.10376468513205,
0,0,0,1,1,0,0,0,star,triangle,2,0,2,0,3,0,36,9,,,,,,,,,,,,,,,,,,,,,,,,,,,,,,,,,,,,,,,,521.4257869179128,521.4257869179128,521.4257869179128,521.4257869179128,521.4257869179128,521.4257869179128,521.4257869179128,521.4257869179128,521.4257869179128,521.4257869179128,l,0.7117185750976205,1,799,2,522.1607443409739,523.6614782909164,,,,,,,,,,,,,,,,,,,,,,,,,,,,,,,,,,,,,,,,,,,,,,,,,,,,,,,,,,,,,,,,,,,55382,2022-11-11_08h56.46.107,vts_reward_expectancy_bt_OFFLINE,2022.2.4,60.10376468513205,
0,1,0,0,0,0,1,0,circle,hexagon,2,0,2,0,3,1,37,4,,,,,,,,,,,,,,,,,,,,,,,,,,,,,,,,,,,,,,,,524.1619181119604,524.1619181119604,524.1619181119604,524.1619181119604,524.1619181119604,524.1619181119604,524.1619181119604,524.1619181119604,524.1619181119604,524.1619181119604,a,0.5862703620223328,10,809,2,524.7817857109476,526.2959983689943,,,,,,,,,,,,,,,,,,,,,,,,,,,,,,,,,,,,,,,,,,,,,,,,,,,,,,,,,,,,,,,,,,,55382,2022-11-11_08h56.46.107,vts_reward_expectancy_bt_OFFLINE,2022.2.4,60.10376468513205,
0,1,0,0,0,0,0,1,circle,star,2,0,2,0,3,2,38,5,,,,,,,,,,,,,,,,,,,,,,,,,,,,,,,,,,,,,,,,526.7960479699541,526.7960479699541,526.7960479699541,526.7960479699541,526.7960479699541,526.7960479699541,526.7960479699541,526.7960479699541,526.7960479699541,526.7960479699541,l,0.6410091309808195,10,819,2,527.4645905259531,528.9652785919607,,,,,,,,,,,,,,,,,,,,,,,,,,,,,,,,,,,,,,,,,,,,,,,,,,,,,,,,,,,,,,,,,,,55382,2022-11-11_08h56.46.107,vts_reward_expectancy_bt_OFFLINE,2022.2.4,60.10376468513205,
0,0,0,1,0,0,1,0,star,hexagon,2,0,2,0,3,3,39,11,,,,,,,,,,,,,,,,,,,,,,,,,,,,,,,,,,,,,,,,529.4654371609213,529.4654371609213,529.4654371609213,529.4654371609213,529.4654371609213,529.4654371609213,529.4654371609213,529.4654371609213,529.4654371609213,529.4654371609213,a,0.7385743850609288,10,829,2,530.2342713499675,531.7496974739479,,,,,,,,,,,,,,,,,,,,,,,,,,,,,,,,,,,,,,,,,,,,,,,,,,,,,,,,,,,,,,,,,,,55382,2022-11-11_08h56.46.107,vts_reward_expectancy_bt_OFFLINE,2022.2.4,60.10376468513205,
0,0,0,1,0,1,0,0,star ,circle,2,0,2,0,3,4,40,10,,,,,,,,,,,,,,,,,,,,,,,,,,,,,,,,,,,,,,,,532.2498904019594,532.2498904019594,532.2498904019594,532.2498904019594,532.2498904019594,532.2498904019594,532.2498904019594,532.2498904019594,532.2498904019594,532.2498904019594,a,1.8129511129809543,10,839,2,534.0870627929689,535.5863056519302,535.5863056519302,,,,,,,,,,,,,,,,,,,,,,,,,,,,,,,,,,,,,,,,,,,,,,,,,,,,,,,,,,,,,,,,,,55382,2022-11-11_08h56.46.107,vts_reward_expectancy_bt_OFFLINE,2022.2.4,60.10376468513205,
0,0,1,0,0,1,0,0,hexagon,circle,2,0,2,0,3,5,41,7,,,,,,,,,,,,,,,,,,,,,,,,,,,,,,,,,,,,,,,,536.0866652259137,536.0866652259137,536.0866652259137,536.0866652259137,536.0866652259137,536.0866652259137,536.0866652259137,536.0866652259137,536.0866652259137,536.0866652259137,l,1.6789060820592567,10,849,2,537.7879251249833,539.2895079619484,,,,,,,,,,,,,,,,,,,,,,,,,,,,,,,,,,,,,,,,,,,,,,,,,,,,,,,,,,,,,,,,,,,55382,2022-11-11_08h56.46.107,vts_reward_expectancy_bt_OFFLINE,2022.2.4,60.10376468513205,
1,0,0,0,0,0,1,0,triangle,hexagon,2,0,2,0,3,6,42,1,,,,,,,,,,,,,,,,,,,,,,,,,,,,,,,,,,,,,,,,539.7898424979066,539.7898424979066,539.7898424979066,539.7898424979066,539.7898424979066,539.7898424979066,539.7898424979066,539.7898424979066,539.7898424979066,539.7898424979066,a,2.126487854984589,10,859,2,541.9415904259076,543.4378977059387,543.4378977059387,,,,,,,,,,,,,,,,,,,,,,,,,,,,,,,,,,,,,,,,,,,,,,,,,,,,,,,,,,,,,,,,,,55382,2022-11-11_08h56.46.107,vts_reward_expectancy_bt_OFFLINE,2022.2.4,60.10376468513205,
1,0,0,0,0,1,0,0,triangle,circle,2,0,2,0,3,7,43,0,,,,,,,,,,,,,,,,,,,,,,,,,,,,,,,,,,,,,,,,543.9432718969183,543.9432718969183,543.9432718969183,543.9432718969183,543.9432718969183,543.9432718969183,543.9432718969183,543.9432718969183,543.9432718969183,543.9432718969183,a,0.9090294220950454,10,869,2,544.8779313989216,546.3770091279875,546.3770091279875,546.8771904199384,,,,,,,,,,,,,,,,,,,,,,,,,,,,,,,,,,,,,,,,,,,,,,,,,,,,,,,,,,,,,,,,,55382,2022-11-11_08h56.46.107,vts_reward_expectancy_bt_OFFLINE,2022.2.4,60.10376468513205,
0,0,1,0,1,0,0,0,hexagon,triangle,2,0,2,0,3,8,44,6,,,,,,,,,,,,,,,,,,,,,,,,,,,,,,,,,,,,,,,,546.8771904199384,546.8771904199384,546.8771904199384,546.8771904199384,546.8771904199384,546.8771904199384,546.8771904199384,546.8771904199384,546.8771904199384,546.8771904199384,l,0.6081829559989274,1,870,2,547.5141584629891,549.0134070198983,,,,,,,,,,,,,,,,,,,,,,,,,,,,,,,,,,,,,,,,,,,,,,,,,,,,,,,,,,,,,,,,,,,55382,2022-11-11_08h56.46.107,vts_reward_expectancy_bt_OFFLINE,2022.2.4,60.10376468513205,
1,0,0,0,0,0,0,1,triangle,star,2,0,2,0,3,9,45,2,,,,,,,,,,,,,,,,,,,,,,,,,,,,,,,,,,,,,,,,549.5136270079529,549.5136270079529,549.5136270079529,549.5136270079529,549.5136270079529,549.5136270079529,549.5136270079529,549.5136270079529,549.5136270079529,549.5136270079529,l,0.6269724760204554,10,880,2,550.1671076409984,551.6809340909822,,,,,,,,,,,,,,,,,,,,,,,,,,,,,,,,,,,,,,,,,,,,,,,,,,,,,,,,,,,,,,,,,,,55382,2022-11-11_08h56.46.107,vts_reward_expectancy_bt_OFFLINE,2022.2.4,60.10376468513205,
0,0,1,0,0,0,0,1,hexagon,star,2,0,2,0,3,10,46,8,,,,,,,,,,,,,,,,,,,,,,,,,,,,,,,,,,,,,,,,552.1644101169659,552.1644101169659,552.1644101169659,552.1644101169659,552.1644101169659,552.1644101169659,552.1644101169659,552.1644101169659,552.1644101169659,552.1644101169659,a,0.6989404630148783,1,881,2,552.884850392933,554.3838948869379,,,,,,,,,,,,,,,,,,,,,,,,,,,,,,,,,,,,,,,,,,,,,,,,,,,,,,,,,,,,,,,,,,,55382,2022-11-11_08h56.46.107,vts_reward_expectancy_bt_OFFLINE,2022.2.4,60.10376468513205,
0,1,0,0,1,0,0,0,circle,triangle,2,0,2,0,3,11,47,3,,,,,,,,,,,,,,,,,,,,,,,,,,,,,,,,,,,,,,,,554.8839196698973,554.8839196698973,554.8839196698973,554.8839196698973,554.8839196698973,554.8839196698973,554.8839196698973,554.8839196698973,554.8839196698973,554.8839196698973,a,0.5437326650135219,1,882,2,555.4523103859974,556.9514349879464,556.9514349879464,557.457100941916,,,,,,,,,,,,,,,,,,,,,,,,,,,,,,,,,,,,,,,,,,,,,,,,,,,,,,,,,,,,,,,,,55382,2022-11-11_08h56.46.107,vts_reward_expectancy_bt_OFFLINE,2022.2.4,60.10376468513205,
,,,,,,,,,,,,,,,,,,0,0,0,0,0,0,0,0,,,,,,,,,,,,,,,,,,,,,,,,,,,,,,,,,,,,,,,,,,,,,,,,594.429558862932,,,146,S,star,0.0009817029349505901,588.4537178439787,589.9430367369205,589.9430367369205,589.9430367369205,1,0,d,2.9612919450737536,0,592.9305034059798,,,,,,,,,,,,,,,,,,,,,,,,,,,,,,,,,,,,,,,,,,,,,,,,,,,55382,2022-11-11_08h56.46.107,vts_reward_expectancy_bt_OFFLINE,2022.2.4,60.10376468513205,
,,,,,,,,,,,,,,,,,,0,0,0,0,1,0,1,0,,,,,,,,,,,,,,,,,,,,,,,,,,,,,,,,,,,,,,,,,,,,,,,,599.4498358559795,,,167,F,triangle,0.00480953196529299,595.4264370989986,596.9137463469524,596.9137463469524,596.9137463469524,1,0,f,1.0084909769939259,0,597.9490388359409,,,,,,,,,,,,,,,,,,,,,,,,,,,,,,,,,,,,,,,,,,,,,,,,,,,55382,2022-11-11_08h56.46.107,vts_reward_expectancy_bt_OFFLINE,2022.2.4,60.10376468513205,
,,,,,,,,,,,,,,,,,,0,0,0,0,2,0,2,0,,,,,,,,,,,,,,,,,,,,,,,,,,,,,,,,,,,,,,,,,,,,,,,,605.0369735629065,,,132,D,circle,0.0016618090448901057,600.4454504429596,601.9340596349211,601.9340596349211,601.9340596349211,1,0,d,1.5682190040824935,0,603.5229333780007,,,,,,,,,,,,,,,,,,,,,,,,,,,,,,,,,,,,,,,,,,,,,,,,,,,55382,2022-11-11_08h56.46.107,vts_reward_expectancy_bt_OFFLINE,2022.2.4,60.10376468513205,
,,,,,,,,,,,,,,,,,,0,0,0,0,3,0,3,0,,,,,,,,,,,,,,,,,,,,,,,,,,,,,,,,,,,,,,,,,,,,,,,,609.823981805006,,,174,W,hexagon,0.013833556906320155,606.0324733349262,607.5212734099478,607.5212734099478,607.5212734099478,1,0,f,0.7734697300475091,0,608.3226945509668,,,,,,,,,,,,,,,,,,,,,,,,,,,,,,,,,,,,,,,,,,,,,,,,,,,55382,2022-11-11_08h56.46.107,vts_reward_expectancy_bt_OFFLINE,2022.2.4,60.10376468513205,
,,,,,,,,,,,,,,,,,,0,0,0,0,4,0,4,0,,,,,,,,,,,,,,,,,,,,,,,,,,,,,,,,,,,,,,,,,,,,,,,,614.5943174309796,,,160,Y,circle,0.0021538089495152235,610.8196789779468,612.3081930999178,612.3081930999178,612.3081930999178,1,0,f,0.7568831640528515,0,613.0933141289279,,,,,,,,,,,,,,,,,,,,,,,,,,,,,,,,,,,,,,,,,,,,,,,,,,,55382,2022-11-11_08h56.46.107,vts_reward_expectancy_bt_OFFLINE,2022.2.4,60.10376468513205,
,,,,,,,,,,,,,,,,,,0,0,0,0,5,0,5,0,,,,,,,,,,,,,,,,,,,,,,,,,,,,,,,,,,,,,,,,,,,,,,,,619.2811672349926,,,125,B,star,0.0017586899921298027,615.5899864319945,617.0783095009392,617.0783095009392,617.0783095009392,1,0,d,0.6786996149457991,0,617.7800273799803,,,,,,,,,,,,,,,,,,,,,,,,,,,,,,,,,,,,,,,,,,,,,,,,,,,55382,2022-11-11_08h56.46.107,vts_reward_expectancy_bt_OFFLINE,2022.2.4,60.10376468513205,
,,,,,,,,,,,,,,,,,,0,0,0,0,6,0,6,0,,,,,,,,,,,,,,,,,,,,,,,,,,,,,,,,,,,,,,,,,,,,,,,,624.3849336939165,,,139,H,hexagon,0.0017217169515788555,620.2767821039306,621.7652569100028,621.7652569100028,621.7652569100028,1,0,d,1.0993164060637355,0,622.8835588289658,,,,,,,,,,,,,,,,,,,,,,,,,,,,,,,,,,,,,,,,,,,,,,,,,,,55382,2022-11-11_08h56.46.107,vts_reward_expectancy_bt_OFFLINE,2022.2.4,60.10376468513205,
,,,,,,,,,,,,,,,,,,0,0,0,0,7,0,7,0,,,,,,,,,,,,,,,,,,,,,,,,,,,,,,,,,,,,,,,,,,,,,,,,629.4882323089987,,,181,U,triangle,0.002185535035096109,625.3802909619408,626.8688048738986,626.8688048738986,626.8688048738986,1,0,f,1.0917055149329826,0,627.9874963338953,,,,,,,,,,,,,,,,,,,,,,,,,,,,,,,,,,,,,,,,,,,,,,,,,,,55382,2022-11-11_08h56.46.107,vts_reward_expectancy_bt_OFFLINE,2022.2.4,60.10376468513205,
,,,,,,,,,,,,,,,,,,0,0,0,0,8,0,8,0,,,,,,,,,,,,,,,,,,,,,,,,,,,,,,,,,,,,,,,,,,,,,,,,634.3753626279067,,,146,S,hexagon,0.0020345529774203897,630.4837529849028,631.9726751159178,631.9726751159178,631.9726751159178,1,0,d,0.8703124449821189,0,632.8744178150082,,,,,,,,,,,,,,,,,,,,,,,,,,,,,,,,,,,,,,,,,,,,,,,,,,,55382,2022-11-11_08h56.46.107,vts_reward_expectancy_bt_OFFLINE,2022.2.4,60.10376468513205,
,,,,,,,,,,,,,,,,,,0,0,0,0,9,0,9,0,,,,,,,,,,,,,,,,,,,,,,,,,,,,,,,,,,,,,,,,,,,,,,,,640.2794776449446,,640.7888173100073,167,F,star,0.0020566079765558243,635.370611022925,636.8594734029612,636.8594734029612,636.8594734029612,1,0,f,1.9013349119341,0,638.780392274959,640.2794776449446,,,,,,,,,,,,,,,,,,,,,,,,,,,,,,,,,,,,,,,,,,,,,,,,,,55382,2022-11-11_08h56.46.107,vts_reward_expectancy_bt_OFFLINE,2022.2.4,60.10376468513205,
,,,,,,,,,,,,,,,,,,,,,,,,,,0,0,0,0,0,0,0,0,,,,,,,,,,,,,,,,,,,,,,,,,,,,,,,,,,,,,,,,664.8474330769386,,,167,Y,circle,0.0027276950422674417,,,,,1,0,,,1,663.3470023219706,,660.4394503328949,661.9278561739484,661.9278561739484,661.9278561739484,k,1.393055627006106,,,,,,,,,,,,,,,,,,,,,,,,,,,,,,,,,,,,,,,,,,,,55382,2022-11-11_08h56.46.107,vts_reward_expectancy_bt_OFFLINE,2022.2.4,60.10376468513205,
,,,,,,,,,,,,,,,,,,,,,,,,,,0,0,0,0,1,0,1,0,,,,,,,,,,,,,,,,,,,,,,,,,,,,,,,,,,,,,,,,669.834395206999,,,146,U,hexagon,0.0018607989186421037,,,,,1,0,,,1,668.333301746985,,665.8427427569404,667.3315192399314,667.3315192399314,667.3315192399314,k,0.9734627490397543,,,,,,,,,,,,,,,,,,,,,,,,,,,,,,,,,,,,,,,,,,,,55382,2022-11-11_08h56.46.107,vts_reward_expectancy_bt_OFFLINE,2022.2.4,60.10376468513205,
,,,,,,,,,,,,,,,,,,,,,,,,,,0,0,0,0,2,0,2,0,,,,,,,,,,,,,,,,,,,,,,,,,,,,,,,,,,,,,,,,674.9212576749269,,,174,F,star,0.0023573979269713163,,,,,1,0,,,1,673.4208470289595,,670.829787098919,672.3183808119502,672.3183808119502,672.3183808119502,j,1.083914345013909,,,,,,,,,,,,,,,,,,,,,,,,,,,,,,,,,,,,,,,,,,,,55382,2022-11-11_08h56.46.107,vts_reward_expectancy_bt_OFFLINE,2022.2.4,60.10376468513205,
,,,,,,,,,,,,,,,,,,,,,,,,,,0,0,0,0,3,0,3,0,,,,,,,,,,,,,,,,,,,,,,,,,,,,,,,,,,,,,,,,679.6916348219384,,,125,B,triangle,0.0017193270614370704,,,,,1,0,,,1,678.1906500479672,,675.9167100599734,677.4055883398978,677.4055883398978,677.4055883398978,j,0.7550572600448504,,,,,,,,,,,,,,,,,,,,,,,,,,,,,,,,,,,,,,,,,,,,55382,2022-11-11_08h56.46.107,vts_reward_expectancy_bt_OFFLINE,2022.2.4,60.10376468513205,
,,,,,,,,,,,,,,,,,,,,,,,,,,0,0,0,0,4,0,4,0,,,,,,,,,,,,,,,,,,,,,,,,,,,,,,,,,,,,,,,,684.3949779549148,,,160,D,hexagon,0.0020176629768684506,,,,,1,0,,,1,682.8941248609917,,680.6870889209677,682.1758378859377,682.1758378859377,682.1758378859377,j,0.6872295360080898,,,,,,,,,,,,,,,,,,,,,,,,,,,,,,,,,,,,,,,,,,,,55382,2022-11-11_08h56.46.107,vts_reward_expectancy_bt_OFFLINE,2022.2.4,60.10376468513205,
,,,,,,,,,,,,,,,,,,,,,,,,,,0,0,0,0,5,0,5,0,,,,,,,,,,,,,,,,,,,,,,,,,,,,,,,,,,,,,,,,689.0817947089672,,,139,S,star,0.0020440020598471165,,,,,1,0,,,1,687.581296260003,,685.3906366729643,686.8791254489915,686.8791254489915,686.8791254489915,k,0.6759981260402128,,,,,,,,,,,,,,,,,,,,,,,,,,,,,,,,,,,,,,,,,,,,55382,2022-11-11_08h56.46.107,vts_reward_expectancy_bt_OFFLINE,2022.2.4,60.10376468513205,
,,,,,,,,,,,,,,,,,,,,,,,,,,0,0,0,0,6,0,6,0,,,,,,,,,,,,,,,,,,,,,,,,,,,,,,,,,,,,,,,,693.9686906109564,,,132,W,triangle,0.0019428269006311893,,,,,1,0,,,1,692.4683956468944,,690.0773553329054,691.5662905490026,691.5662905490026,691.5662905490026,k,0.8832258740440011,,,,,,,,,,,,,,,,,,,,,,,,,,,,,,,,,,,,,,,,,,,,55382,2022-11-11_08h56.46.107,vts_reward_expectancy_bt_OFFLINE,2022.2.4,60.10376468513205,
,,,,,,,,,,,,,,,,,,,,,,,,,,0,0,0,0,7,0,7,0,,,,,,,,,,,,,,,,,,,,,,,,,,,,,,,,,,,,,,,,698.8225443429546,,,181,H,circle,0.0017547979950904846,,,,,1,0,,,1,697.3199905219954,,694.9642431649845,696.4529335489497,696.4529335489497,696.4529335489497,j,0.8343212839681655,,,,,,,,,,,,,,,,,,,,,,,,,,,,,,,,,,,,,,,,,,,,55382,2022-11-11_08h56.46.107,vts_reward_expectancy_bt_OFFLINE,2022.2.4,60.10376468513205,
,,,,,,,,,,,,,,,,,,,,,,,,,,0,0,0,0,8,0,8,0,,,,,,,,,,,,,,,,,,,,,,,,,,,,,,,,,,,,,,,,703.5243249679916,,,167,Y,hexagon,0.0003969359677284956,,,,,1,0,,,1,702.0090029709972,,699.8174850780051,701.3066209449898,701.3066209449898,701.3066209449898,k,0.6831742810318246,,,,,,,,,,,,,,,,,,,,,,,,,,,,,,,,,,,,,,,,,,,,55382,2022-11-11_08h56.46.107,vts_reward_expectancy_bt_OFFLINE,2022.2.4,60.10376468513205,
,,,,,,,,,,,,,,,,,,,,,,,,,,0,0,0,0,9,0,9,0,,,,,,,,,,,,,,,,,,,,,,,,,,,,,,,,,,,,,,,,708.3110080899205,,,146,U,star,0.0018336588982492685,,,,,1,0,,,1,706.7954201980028,,704.50420884497,705.9932631419506,705.9932631419506,705.9932631419506,k,0.7773994540330023,,,,,,,,,,,,,,,,,,,,,,,,,,,,,,,,,,,,,,,,,,,,55382,2022-11-11_08h56.46.107,vts_reward_expectancy_bt_OFFLINE,2022.2.4,60.10376468513205,
,,,,,,,,,,,,,,,,,,,,,,,,,,,,,,,,,,0,0,0,0,0,0,0,0,,,,,,,,,,,,,,,,,,,,,,,,,,,,0,882,,,744.3388801359106,,,139,Y,star,0.0025750530185177922,,,,,1,0,,,2,,,,,,,,,739.5646438729018,739.5646438729018,739.5646438729018,739.5646438729018,741.052387083997,741.052387083997,741.052387083997,741.052387083997,741.0688072659541,741.0688072659541,741.0688072659541,741.0688072659541,-1,number,NA,d,1.7542378409998491,vtsPrac,742.8400456579402,,,,,,,,,,,,,,,,,,,,,,,,,55382,2022-11-11_08h56.46.107,vts_reward_expectancy_bt_OFFLINE,2022.2.4,60.10376468513205,
,,,,,,,,,,,,,,,,,,,,,,,,,,,,,,,,,,0,0,0,0,1,0,1,0,,,,,,,,,,,,,,,,,,,,,,,,,,,,0,882,,,749.3589837480104,,,174,B,triangle,0.001851525972597301,,,,,1,0,,,2,,,,,,,,,745.3346177319763,745.3346177319763,745.3346177319763,745.3346177319763,746.8227210500045,746.8227210500045,746.8227210500045,746.8227210500045,746.8396020299988,746.8396020299988,746.8396020299988,746.8396020299988,repeat,number,numRpt,f,1.0136581240221858,vtsPrac,747.8587863479042,,,,,,,,,,,,,,,,,,,,,,,,,55382,2022-11-11_08h56.46.107,vts_reward_expectancy_bt_OFFLINE,2022.2.4,60.10376468513205,
,,,,,,,,,,,,,,,,,,,,,,,,,,,,,,,,,,0,0,0,0,2,0,2,0,,,,,,,,,,,,,,,,,,,,,,,,,,,,0,882,,,754.1626500259154,,,132,H,hexagon,0.001667951000854373,,,,,1,0,,,2,,,,,,,,,750.3544846419245,750.3544846419245,750.3544846419245,750.3544846419245,751.8432505659293,751.8432505659293,751.8432505659293,751.8432505659293,751.8598343739286,751.8598343739286,751.8598343739286,751.8598343739286,repeat,number,numRpt,d,0.7964224211173132,vtsPrac,752.6620566719212,,,,,,,,,,,,,,,,,,,,,,,,,55382,2022-11-11_08h56.46.107,vts_reward_expectancy_bt_OFFLINE,2022.2.4,60.10376468513205,
,,,,,,,,,,,,,,,,,,,,,,,,,,,,,,,,,,0,0,0,0,3,0,3,0,,,,,,,,,,,,,,,,,,,,,,,,,,,,0,882,,,758.8326204889454,,,167,D,star,0.0017104349099099636,,,,,1,0,,,2,,,,,,,,,755.1580827189609,755.1580827189609,755.1580827189609,755.1580827189609,756.6466702319449,756.6466702319449,756.6466702319449,756.6466702319449,756.6633232010063,756.6633232010063,756.6633232010063,756.6633232010063,repeat,number,numRpt,f,0.6619654560927302,vtsPrac,757.3321365249576,,,,,,,,,,,,,,,,,,,,,,,,,55382,2022-11-11_08h56.46.107,vts_reward_expectancy_bt_OFFLINE,2022.2.4,60.10376468513205,
,,,,,,,,,,,,,,,,,,,,,,,,,,,,,,,,,,0,0,0,0,4,0,4,0,,,,,,,,,,,,,,,,,,,,,,,,,,,,0,882,,,763.6695173359476,,,139,Y,star,0.0024354319320991635,,,,,1,0,,,2,,,,,,,,,759.8284642299404,759.8284642299404,759.8284642299404,759.8284642299404,761.317090650904,761.317090650904,761.317090650904,761.317090650904,761.3337963249069,761.3337963249069,761.3337963249069,761.3337963249069,repeat,number,numRpt,d,0.8189172060228884,vtsPrac,762.1691386849852,,,,,,,,,,,,,,,,,,,,,,,,,55382,2022-11-11_08h56.46.107,vts_reward_expectancy_bt_OFFLINE,2022.2.4,60.10376468513205,
,,,,,,,,,,,,,,,,,,,,,,,,,,,,,,,,,,0,0,0,0,5,0,5,0,,,,,,,,,,,,,,,,,,,,,,,,,,,,0,882,,,768.6401008749381,,,174,B,hexagon,0.001899267896078527,,,,,1,0,,,2,,,,,,,,,764.6645130600082,764.6645130600082,764.6645130600082,764.6645130600082,766.1537750989664,766.1537750989664,766.1537750989664,766.1537750989664,766.170665726997,766.170665726997,766.170665726997,766.170665726997,repeat,number,numRpt,f,0.9657363969599828,vtsPrac,767.1395193699282,,,,,,,,,,,,,,,,,,,,,,,,,55382,2022-11-11_08h56.46.107,vts_reward_expectancy_bt_OFFLINE,2022.2.4,60.10376468513205,
,,,,,,,,,,,,,,,,,,,,,,,,,,,,,,,,,,0,0,0,0,6,0,6,0,,,,,,,,,,,,,,,,,,,,,,,,,,,,0,882,,,773.5416393019259,,,132,H,circle,0.0016231759218499064,,,,,1,0,,,2,,,,,,,,,769.6350122309523,769.6350122309523,769.6350122309523,769.6350122309523,771.1241094529396,771.1241094529396,771.1241094529396,771.1241094529396,771.1405996169196,771.1405996169196,771.1405996169196,771.1405996169196,repeat,number,numRpt,d,0.8784524530638009,vtsPrac,772.0263094468974,,,,,,,,,,,,,,,,,,,,,,,,,55382,2022-11-11_08h56.46.107,vts_reward_expectancy_bt_OFFLINE,2022.2.4,60.10376468513205,
,,,,,,,,,,,,,,,,,,,,,,,,,,,,,,,,,,0,0,0,0,7,0,7,0,,,,,,,,,,,,,,,,,,,,,,,,,,,,0,882,,,779.0807016199687,,,167,D,triangle,0.0021004490554332733,,,,,1,0,,,2,,,,,,,,,774.5219082589028,774.5219082589028,774.5219082589028,774.5219082589028,776.0110145439394,776.0110145439394,776.0110145439394,776.0110145439394,776.0278010529,776.0278010529,776.0278010529,776.0278010529,repeat,number,numRpt,f,1.5493585789809003,vtsPrac,777.5804397650063,,,,,,,,,,,,,,,,,,,,,,,,,55382,2022-11-11_08h56.46.107,vts_reward_expectancy_bt_OFFLINE,2022.2.4,60.10376468513205,
,,,,,,,,,,,,,,,,,,,,,,,,,,,,,,,,,,0,0,0,0,8,0,8,0,,,,,,,,,,,,,,,,,,,,,,,,,,,,0,882,,,784.0510990279727,,,160,H,circle,0.0019782480085268617,,,,,1,0,,,2,,,,,,,,,780.0764283639146,780.0764283639146,780.0764283639146,780.0764283639146,781.5648768600076,781.5648768600076,781.5648768600076,781.5648768600076,781.5815843779128,781.5815843779128,781.5815843779128,781.5815843779128,repeat,number,numRpt,f,0.9569857399910688,vtsPrac,782.5502945019398,,,,,,,,,,,,,,,,,,,,,,,,,55382,2022-11-11_08h56.46.107,vts_reward_expectancy_bt_OFFLINE,2022.2.4,60.10376468513205,
,,,,,,,,,,,,,,,,,,,,,,,,,,,,,,,,,,0,0,0,0,9,0,9,0,,,,,,,,,,,,,,,,,,,,,,,,,,,,0,882,,,788.9714223669143,,,139,Y,hexagon,0.002051904099062085,,,,,1,0,,,2,,,,,,,,,785.0458004039247,785.0458004039247,785.0458004039247,785.0458004039247,786.5351991569623,786.5351991569623,786.5351991569623,786.5351991569623,786.5520321479999,786.5520321479999,786.5520321479999,786.5520321479999,repeat,number,numRpt,d,0.9144838430220261,vtsPrac,787.4708636279684,,,,,,,,,,,,,,,,,,,,,,,,,55382,2022-11-11_08h56.46.107,vts_reward_expectancy_bt_OFFLINE,2022.2.4,60.10376468513205,
,,,,,,,,,,,,,,,,,,,,,,,,,,,,,,,,,,0,0,0,0,10,0,10,0,,,,,,,,,,,,,,,,,,,,,,,,,,,,0,882,,,793.7915801999625,,,181,F,star,0.001706665032543242,,,,,1,0,,,2,,,,,,,,,789.9668887949083,789.9668887949083,789.9668887949083,789.9668887949083,791.4554336739238,791.4554336739238,791.4554336739238,791.4554336739238,791.4719869439723,791.4719869439723,791.4719869439723,791.4719869439723,repeat,number,numRpt,f,0.8096844729734585,vtsPrac,792.2915562120033,,,,,,,,,,,,,,,,,,,,,,,,,55382,2022-11-11_08h56.46.107,vts_reward_expectancy_bt_OFFLINE,2022.2.4,60.10376468513205,
,,,,,,,,,,,,,,,,,,,,,,,,,,,,,,,,,,0,0,0,0,11,0,11,0,,,,,,,,,,,,,,,,,,,,,,,,,,,,0,882,,,798.6621603879612,,,167,S,circle,0.0015756350476294756,,,,,1,0,,,2,,,,,,,,,794.7870208239183,794.7870208239183,794.7870208239183,794.7870208239183,796.2758660919499,796.2758660919499,796.2758660919499,796.2758660919499,796.2926144989906,796.2926144989906,796.2926144989906,796.2926144989906,repeat,number,numRpt,f,0.8604836110025644,vtsPrac,797.1611836259253,,,,,,,,,,,,,,,,,,,,,,,,,55382,2022-11-11_08h56.46.107,vts_reward_expectancy_bt_OFFLINE,2022.2.4,60.10376468513205,
,,,,,,,,,,,,,,,,,,,,,,,,,,,,,,,,,,0,0,0,0,12,0,12,0,,,,,,,,,,,,,,,,,,,,,,,,,,,,0,882,,,803.8654366699047,,,132,F,circle,0.0020309550454840064,,,,,1,0,,,2,,,,,,,,,799.6570685890038,799.6570685890038,799.6570685890038,799.6570685890038,801.1462866389193,801.1462866389193,801.1462866389193,801.1462866389193,801.1626806099666,801.1626806099666,801.1626806099666,801.1626806099666,repeat,number,numRpt,d,1.198777641984634,vtsPrac,802.3651743819937,,,,,,,,,,,,,,,,,,,,,,,,,55382,2022-11-11_08h56.46.107,vts_reward_expectancy_bt_OFFLINE,2022.2.4,60.10376468513205,
,,,,,,,,,,,,,,,,,,,,,,,,,,,,,,,,,,0,0,0,0,13,0,13,0,,,,,,,,,,,,,,,,,,,,,,,,,,,,0,882,,,808.9024210619973,,,146,H,star,0.0018423569854348898,,,,,1,0,,,2,,,,,,,,,804.8602744959062,804.8602744959062,804.8602744959062,804.8602744959062,806.3496999669587,806.3496999669587,806.3496999669587,806.3496999669587,806.3662685479503,806.3662685479503,806.3662685479503,806.3662685479503,repeat,number,numRpt,d,1.0245301730465144,vtsPrac,807.4022493659286,,,,,,,,,,,,,,,,,,,,,,,,,55382,2022-11-11_08h56.46.107,vts_reward_expectancy_bt_OFFLINE,2022.2.4,60.10376468513205,
,,,,,,,,,,,,,,,,,,,,,,,,,,,,,,,,,,0,0,0,0,14,0,14,0,,,,,,,,,,,,,,,,,,,,,,,,,,,,0,882,,,813.6209339929046,,,181,B,circle,0.0016610579332336783,,,,,1,0,,,2,,,,,,,,,809.8976241439814,809.8976241439814,809.8976241439814,809.8976241439814,811.3867550699506,811.3867550699506,811.3867550699506,811.3867550699506,811.4031256589806,811.4031256589806,811.4031256589806,811.4031256589806,repeat,number,numRpt,f,0.6903441009344533,vtsPrac,812.1057874419494,,,,,,,,,,,,,,,,,,,,,,,,,55382,2022-11-11_08h56.46.107,vts_reward_expectancy_bt_OFFLINE,2022.2.4,60.10376468513205,
,,,,,,,,,,,,,,,,,,,,,,,,,,,,,,,,,,0,0,0,0,15,0,15,0,,,,,,,,,,,,,,,,,,,,,,,,,,,,0,882,,,818.4744350709952,,,160,W,triangle,0.0019326000474393368,,,,,0,0,,,2,,,,,,,,,814.6017258520005,814.6017258520005,814.6017258520005,814.6017258520005,816.0901778369443,816.0901778369443,816.0901778369443,816.0901778369443,816.1068808739074,816.1068808739074,816.1068808739074,816.1068808739074,repeat,number,NA,d,0.836123644025065,vtsPrac,816.9604308779817,,,,,,,,,,,,,,,,,,,,,,,,,55382,2022-11-11_08h56.46.107,vts_reward_expectancy_bt_OFFLINE,2022.2.4,60.10376468513205,
,,,,,,,,,,,,,,,,,,,,,,,,,,,,,,,,,,0,0,0,0,16,0,16,0,,,,,,,,,,,,,,,,,,,,,,,,,,,,0,882,,,823.1446694979677,,,132,U,hexagon,0.0018528009532019496,,,,,1,1,,,2,,,,,,,,,819.4545286319917,819.4545286319917,819.4545286319917,819.4545286319917,820.9436278420035,820.9436278420035,820.9436278420035,820.9436278420035,820.9604149519,820.9604149519,820.9604149519,820.9604149519,repeat,number,numRpt,d,0.6513095949776471,vtsPrac,821.6297372339759,,,,,,,,,,,,,,,,,,,,,,,,,55382,2022-11-11_08h56.46.107,vts_reward_expectancy_bt_OFFLINE,2022.2.4,60.10376468513205,
,,,,,,,,,,,,,,,,,,,,,,,,,,,,,,,,,,0,0,0,0,17,0,17,0,,,,,,,,,,,,,,,,,,,,,,,,,,,,0,882,,,828.0650393879041,,,146,D,triangle,0.014715275028720498,,,,,1,0,,,2,,,,,,,,,824.1406336239306,824.1406336239306,824.1406336239306,824.1406336239306,825.6140358709963,825.6140358709963,825.6140358709963,825.6140358709963,825.6472919599619,825.6472919599619,825.6472919599619,825.6472919599619,repeat,number,numRpt,d,0.9081201601075009,vtsPrac,826.5497388469521,,,,,,,,,,,,,,,,,,,,,,,,,55382,2022-11-11_08h56.46.107,vts_reward_expectancy_bt_OFFLINE,2022.2.4,60.10376468513205,
,,,,,,,,,,,,,,,,,,,,,,,,,,,,,,,,,,0,0,0,0,18,0,18,0,,,,,,,,,,,,,,,,,,,,,,,,,,,,0,882,,,832.8683209539158,,,167,F,hexagon,0.016665410017594695,,,,,1,0,,,2,,,,,,,,,829.0608879749198,829.0608879749198,829.0608879749198,829.0608879749198,830.5344665559242,830.5344665559242,830.5344665559242,830.5344665559242,830.5674962699413,830.5674962699413,830.5674962699413,830.5674962699413,repeat,number,numRpt,f,0.7927104029804468,vtsPrac,831.3532223859802,,,,,,,,,,,,,,,,,,,,,,,,,55382,2022-11-11_08h56.46.107,vts_reward_expectancy_bt_OFFLINE,2022.2.4,60.10376468513205,
,,,,,,,,,,,,,,,,,,,,,,,,,,,,,,,,,,0,0,0,0,19,0,19,0,,,,,,,,,,,,,,,,,,,,,,,,,,,,0,882,,,838.0554178929888,,,174,B,star,0.016914112027734518,,,,,1,0,,,2,,,,,,,,,833.8642871709308,833.8642871709308,833.8642871709308,833.8642871709308,835.337921610917,835.337921610917,835.337921610917,835.337921610917,835.3712362209335,835.3712362209335,835.3712362209335,835.3712362209335,repeat,number,numRpt,f,1.197495448985137,vtsPrac,836.556783524924,,,,,,,,,,,,,,,,,,,,,,,,,55382,2022-11-11_08h56.46.107,vts_reward_expectancy_bt_OFFLINE,2022.2.4,60.10376468513205,
,,,,,,,,,,,,,,,,,,,,,,,,,,,,,,,,,,0,0,0,0,20,0,20,0,,,,,,,,,,,,,,,,,,,,,,,,,,,,0,882,,,843.275747142965,,,181,D,circle,0.00047000497579574585,,,,,1,0,,,2,,,,,,,,,839.0517272430006,839.0517272430006,839.0517272430006,839.0517272430006,840.5417196629569,840.5417196629569,840.5417196629569,840.5417196629569,840.558048917912,840.558048917912,840.558048917912,840.558048917912,repeat,number,numRpt,f,1.1912230709567666,vtsPrac,841.7612706549698,,,,,,,,,,,,,,,,,,,,,,,,,55382,2022-11-11_08h56.46.107,vts_reward_expectancy_bt_OFFLINE,2022.2.4,60.10376468513205,
,,,,,,,,,,,,,,,,,,,,,,,,,,,,,,,,,,0,0,0,0,21,0,21,0,,,,,,,,,,,,,,,,,,,,,,,,,,,,0,882,,,848.1293324709404,,,174,S,star,0.0018455979879945517,,,,,1,0,,,2,,,,,,,,,844.2562995780027,844.2562995780027,844.2562995780027,844.2562995780027,845.7453549909405,845.7453549909405,845.7453549909405,845.7453549909405,845.7620527589461,845.7620527589461,845.7620527589461,845.7620527589461,repeat,number,numRpt,f,0.8476632670499384,vtsPrac,846.6142216589069,,,,,,,,,,,,,,,,,,,,,,,,,55382,2022-11-11_08h56.46.107,vts_reward_expectancy_bt_OFFLINE,2022.2.4,60.10376468513205,
,,,,,,,,,,,,,,,,,,,,,,,,,,,,,,,,,,0,0,0,0,22,0,22,0,,,,,,,,,,,,,,,,,,,,,,,,,,,,0,882,,,852.8330451799557,,,146,F,hexagon,0.01691843697335571,,,,,1,0,,,2,,,,,,,,,849.1256806309102,849.1256806309102,849.1256806309102,849.1256806309102,850.5988814209122,850.5988814209122,850.5988814209122,850.5988814209122,850.6320176129229,850.6320176129229,850.6320176129229,850.6320176129229,repeat,number,numRpt,d,0.6860812560189515,vtsPrac,851.3179222960025,,,,,,,,,,,,,,,,,,,,,,,,,55382,2022-11-11_08h56.46.107,vts_reward_expectancy_bt_OFFLINE,2022.2.4,60.10376468513205,
,,,,,,,,,,,,,,,,,,,,,,,,,,,,,,,,,,0,0,0,0,23,0,23,0,,,,,,,,,,,,,,,,,,,,,,,,,,,,0,882,,,857.570005137939,,,132,W,circle,0.01687281799968332,,,,,1,0,,,2,,,,,,,,,853.8291312009096,853.8291312009096,853.8291312009096,853.8291312009096,855.3024493259145,855.3024493259145,855.3024493259145,855.3024493259145,855.3357377769426,855.3357377769426,855.3357377769426,855.3357377769426,repeat,number,numRpt,d,0.7189227909548208,vtsPrac,856.05491178995,,,,,,,,,,,,,,,,,,,,,,,,,55382,2022-11-11_08h56.46.107,vts_reward_expectancy_bt_OFFLINE,2022.2.4,60.10376468513205,
,,,,,,,,,,,,,,,,,,,,,,,,,,,,,,,,,,0,0,0,0,24,0,24,0,,,,,,,,,,,,,,,,,,,,,,,,,,,,0,882,,,863.4405254209414,,,139,D,star,0.01701497402973473,,,,,1,0,,,2,,,,,,,,,858.5658480599523,858.5658480599523,858.5658480599523,858.5658480599523,860.0392208819976,860.0392208819976,860.0392208819976,860.0392208819976,860.0726810769411,860.0726810769411,860.0726810769411,860.0726810769411,switch,letter,lettSwt,j,1.8662025050725788,vtsPrac,861.9255203939974,,,,,,,,,,,,,,,,,,,,,,,,,55382,2022-11-11_08h56.46.107,vts_reward_expectancy_bt_OFFLINE,2022.2.4,60.10376468513205,
,,,,,,,,,,,,,,,,,,,,,,,,,,,,,,,,,,0,0,0,0,25,0,25,0,,,,,,,,,,,,,,,,,,,,,,,,,,,,0,882,,,868.9460522430018,,,181,W,triangle,0.001989962998777628,,,,,1,0,,,2,,,,,,,,,864.4208230219083,864.4208230219083,864.4208230219083,864.4208230219083,865.9097721189028,865.9097721189028,865.9097721189028,865.9097721189028,865.9266509779263,865.9266509779263,865.9266509779263,865.9266509779263,repeat,letter,lettRpt,k,1.5083675930509344,vtsPrac,867.4461062279297,,,,,,,,,,,,,,,,,,,,,,,,,55382,2022-11-11_08h56.46.107,vts_reward_expectancy_bt_OFFLINE,2022.2.4,60.10376468513205,
,,,,,,,,,,,,,,,,,,,,,,,,,,,,,,,,,,0,0,0,0,26,0,26,0,,,,,,,,,,,,,,,,,,,,,,,,,,,,0,882,,,873.6779502729187,,,125,B,star,0.0017647029599174857,,,,,1,0,,,2,,,,,,,,,869.9414879429387,869.9414879429387,869.9414879429387,869.9414879429387,871.4305083049694,871.4305083049694,871.4305083049694,871.4305083049694,871.4467579359189,871.4467579359189,871.4467579359189,871.4467579359189,repeat,letter,lettRpt,j,0.7131618099519983,vtsPrac,872.1664675018983,,,,,,,,,,,,,,,,,,,,,,,,,55382,2022-11-11_08h56.46.107,vts_reward_expectancy_bt_OFFLINE,2022.2.4,60.10376468513205,
,,,,,,,,,,,,,,,,,,,,,,,,,,,,,,,,,,0,0,0,0,27,0,27,0,,,,,,,,,,,,,,,,,,,,,,,,,,,,0,882,,,878.6938326759264,,,174,Y,triangle,0.0018677529878914356,,,,,1,0,,,2,,,,,,,,,874.661530845915,874.661530845915,874.661530845915,874.661530845915,876.1506337969331,876.1506337969331,876.1506337969331,876.1506337969331,876.1669369339943,876.1669369339943,876.1669369339943,876.1669369339943,repeat,letter,lettRpt,k,1.0115969239268452,vtsPrac,877.1865574229741,,,,,,,,,,,,,,,,,,,,,,,,,55382,2022-11-11_08h56.46.107,vts_reward_expectancy_bt_OFFLINE,2022.2.4,60.10376468513205,
,,,,,,,,,,,,,,,,,,,,,,,,,,,,,,,,,,0,0,0,0,28,0,28,0,,,,,,,,,,,,,,,,,,,,,,,,,,,,0,882,,,883.6551103279926,,,125,F,star,0.0017952299676835537,,,,,1,0,,,2,,,,,,,,,879.6819310300052,879.6819310300052,879.6819310300052,879.6819310300052,881.1709332379978,881.1709332379978,881.1709332379978,881.1709332379978,881.1875806349562,881.1875806349562,881.1875806349562,881.1875806349562,repeat,letter,lettRpt,j,0.9404134810902178,vtsPrac,882.1399304319639,,,,,,,,,,,,,,,,,,,,,,,,,55382,2022-11-11_08h56.46.107,vts_reward_expectancy_bt_OFFLINE,2022.2.4,60.10376468513205,
