LTriangleOpac,LCircleOpac,LHexagonOpac,LStarOpac,RTriangleOpac,RCircleOpac,RHexagonOpac,RStarOpac,LShape_ID,RShape_ID,training_blocks.thisRepN,training_blocks.thisTrialN,training_blocks.thisN,training_blocks.thisIndex,training.thisRepN,training.thisTrialN,training.thisN,training.thisIndex,task1_prac_redo.thisRepN,task1_prac_redo.thisTrialN,task1_prac_redo.thisN,task1_prac_redo.thisIndex,task1_prac_trials.thisRepN,task1_prac_trials.thisTrialN,task1_prac_trials.thisN,task1_prac_trials.thisIndex,task2_prac_redo.thisRepN,task2_prac_redo.thisTrialN,task2_prac_redo.thisN,task2_prac_redo.thisIndex,task2_praac_trials.thisRepN,task2_praac_trials.thisTrialN,task2_praac_trials.thisN,task2_praac_trials.thisIndex,vts_prac_redo.thisRepN,vts_prac_redo.thisTrialN,vts_prac_redo.thisN,vts_prac_redo.thisIndex,vts_practice_trials.thisRepN,vts_practice_trials.thisTrialN,vts_practice_trials.thisN,vts_practice_trials.thisIndex,trials_norew.thisRepN,trials_norew.thisTrialN,trials_norew.thisN,trials_norew.thisIndex,block.thisRepN,block.thisTrialN,block.thisN,block.thisIndex,trials_rew.thisRepN,trials_rew.thisTrialN,trials_rew.thisN,trials_rew.thisIndex,key_resp.started,key_resp.keys,key_resp.rt,left_circle.started,right_circle.started,left_triangle.started,right_triangle.started,left_star.started,right_star.started,left_hexagon.started,right_hexagon.started,training_fix.started,training_resp.started,training_resp.keys,training_resp.rt,points_trial,points_cumul,trainBlock,training_feedback_txt.started,fix.started,training_feedback_txt.stopped,curr_topStim,curr_bottStim,curr_shape,ISI.started,tgt_fix_prac1.started,top_target_prac1.started,bott_target_prac1.started,target_resp_prac1.started,acc,E1,target_resp_prac1.keys,target_resp_prac1.rt,pracBlock,prac_fback_text.started,tgt_fix_prac2.started,top_target_prac2.started,bott_target_prac2.started,target_resp_prac2.started,target_resp_prac2.keys,target_resp_prac2.rt,star.started,hegagon.started,triangle.started,circle.started,star.stopped,hegagon.stopped,triangle.stopped,circle.stopped,top_target.started,tgt_fix.started,bot_target.started,target_resp.started,top_target.stopped,tgt_fix.stopped,bot_target.stopped,target_resp.stopped,alt,task,condition,target_resp.keys,rewCond,vts_fback.started,vts_fback.stopped,fix.stopped,target_resp.rt,blockNum,norew_fback.started,norew_fback.stopped,key_resp_2.keys,key_resp_2.rt,rewExpectancy,feedbk_text.started,feedbk_text.stopped,text_3.started,text_3.stopped,button.started,debrief.index,debrief.itemText,debrief.type,debrief.granularity,debrief.font,debrief.markerColor,debrief.response,debrief.rt,button.numClicks,button.timesOn,button.timesOff,participant,date,expName,psychopyVersion,frameRate,
,,,,,,,,,,,,,,,,,,,,,,,,,,,,,,,,,,,,,,,,,,,,,,,,,,,,,,13.896553477001362,space,30.86425075600164,,,,,,,,,,,,,,,,,,,,,,,,,,,,,,,,,,,,,,,,,,,,,,,,,,,,,,,,,,,,,,,,,,,,,,,,,,,,,,,,,,,,,,55493,2022-10-25_13h56.41.374,vts_reward_expectancy_bt_OFFLINE,2022.2.4,60.137185186996454,
0,0,1,0,0,0,0,1,hexagon,star,0,0,0,0,0,0,0,8,,,,,,,,,,,,,,,,,,,,,,,,,,,,,,,,,,,,,,,,77.23275322300105,77.23275322300105,77.23275322300105,77.23275322300105,77.23275322300105,77.23275322300105,77.23275322300105,77.23275322300105,77.23275322300105,77.23275322300105,l,1.7109202360006748,1,1,0,78.97402615000101,80.47569490100068,,,,,,,,,,,,,,,,,,,,,,,,,,,,,,,,,,,,,,,,,,,,,,,,,,,,,,,,,,,,,,,,,,,,,55493,2022-10-25_13h56.41.374,vts_reward_expectancy_bt_OFFLINE,2022.2.4,60.137185186996454,
0,1,0,0,1,0,0,0,circle,triangle,0,0,0,0,0,1,1,3,,,,,,,,,,,,,,,,,,,,,,,,,,,,,,,,,,,,,,,,80.97615378800037,80.97615378800037,80.97615378800037,80.97615378800037,80.97615378800037,80.97615378800037,80.97615378800037,80.97615378800037,80.97615378800037,80.97615378800037,a,3.3282495940002264,10,11,0,84.32988580100027,85.83140299200022,,,,,,,,,,,,,,,,,,,,,,,,,,,,,,,,,,,,,,,,,,,,,,,,,,,,,,,,,,,,,,,,,,,,,55493,2022-10-25_13h56.41.374,vts_reward_expectancy_bt_OFFLINE,2022.2.4,60.137185186996454,
0,0,1,0,0,1,0,0,hexagon,circle,0,0,0,0,0,2,2,7,,,,,,,,,,,,,,,,,,,,,,,,,,,,,,,,,,,,,,,,86.33205489700049,86.33205489700049,86.33205489700049,86.33205489700049,86.33205489700049,86.33205489700049,86.33205489700049,86.33205489700049,86.33205489700049,86.33205489700049,l,1.995785690000048,1,12,0,88.35109442800058,89.85263507899981,,,,,,,,,,,,,,,,,,,,,,,,,,,,,,,,,,,,,,,,,,,,,,,,,,,,,,,,,,,,,,,,,,,,,55493,2022-10-25_13h56.41.374,vts_reward_expectancy_bt_OFFLINE,2022.2.4,60.137185186996454,
0,1,0,0,0,0,0,1,circle,star,0,0,0,0,0,3,3,5,,,,,,,,,,,,,,,,,,,,,,,,,,,,,,,,,,,,,,,,90.35326351600088,90.35326351600088,90.35326351600088,90.35326351600088,90.35326351600088,90.35326351600088,90.35326351600088,90.35326351600088,90.35326351600088,90.35326351600088,l,1.207079599998906,1,13,0,91.58801022199987,93.08961812300004,,,,,,,,,,,,,,,,,,,,,,,,,,,,,,,,,,,,,,,,,,,,,,,,,,,,,,,,,,,,,,,,,,,,,55493,2022-10-25_13h56.41.374,vts_reward_expectancy_bt_OFFLINE,2022.2.4,60.137185186996454,
0,0,0,1,1,0,0,0,star,triangle,0,0,0,0,0,4,4,9,,,,,,,,,,,,,,,,,,,,,,,,,,,,,,,,,,,,,,,,93.5901811470012,93.5901811470012,93.5901811470012,93.5901811470012,93.5901811470012,93.5901811470012,93.5901811470012,93.5901811470012,93.5901811470012,93.5901811470012,l,1.6417768760002218,10,23,0,95.25865338200128,96.76030824200097,,,,,,,,,,,,,,,,,,,,,,,,,,,,,,,,,,,,,,,,,,,,,,,,,,,,,,,,,,,,,,,,,,,,,55493,2022-10-25_13h56.41.374,vts_reward_expectancy_bt_OFFLINE,2022.2.4,60.137185186996454,
0,0,0,1,0,1,0,0,star ,circle,0,0,0,0,0,5,5,10,,,,,,,,,,,,,,,,,,,,,,,,,,,,,,,,,,,,,,,,97.26097851200029,97.26097851200029,97.26097851200029,97.26097851200029,97.26097851200029,97.26097851200029,97.26097851200029,97.26097851200029,97.26097851200029,97.26097851200029,a,1.3230806819992722,10,33,0,98.61242210500131,100.11401119900074,,,,,,,,,,,,,,,,,,,,,,,,,,,,,,,,,,,,,,,,,,,,,,,,,,,,,,,,,,,,,,,,,,,,,55493,2022-10-25_13h56.41.374,vts_reward_expectancy_bt_OFFLINE,2022.2.4,60.137185186996454,
0,0,0,1,0,0,1,0,star,hexagon,0,0,0,0,0,6,6,11,,,,,,,,,,,,,,,,,,,,,,,,,,,,,,,,,,,,,,,,100.61451992900038,100.61451992900038,100.61451992900038,100.61451992900038,100.61451992900038,100.61451992900038,100.61451992900038,100.61451992900038,100.61451992900038,100.61451992900038,l,1.8021462579999934,1,34,0,102.4332373289999,103.93495699300001,,,,,,,,,,,,,,,,,,,,,,,,,,,,,,,,,,,,,,,,,,,,,,,,,,,,,,,,,,,,,,,,,,,,,55493,2022-10-25_13h56.41.374,vts_reward_expectancy_bt_OFFLINE,2022.2.4,60.137185186996454,
1,0,0,0,0,0,0,1,triangle,star,0,0,0,0,0,7,7,2,,,,,,,,,,,,,,,,,,,,,,,,,,,,,,,,,,,,,,,,104.43535305899968,104.43535305899968,104.43535305899968,104.43535305899968,104.43535305899968,104.43535305899968,104.43535305899968,104.43535305899968,104.43535305899968,104.43535305899968,a,1.6449993740006903,10,44,0,106.10388448000049,107.60567850200096,,,,,,,,,,,,,,,,,,,,,,,,,,,,,,,,,,,,,,,,,,,,,,,,,,,,,,,,,,,,,,,,,,,,,55493,2022-10-25_13h56.41.374,vts_reward_expectancy_bt_OFFLINE,2022.2.4,60.137185186996454,
0,1,0,0,0,0,1,0,circle,hexagon,0,0,0,0,0,8,8,4,,,,,,,,,,,,,,,,,,,,,,,,,,,,,,,,,,,,,,,,108.10619613100062,108.10619613100062,108.10619613100062,108.10619613100062,108.10619613100062,108.10619613100062,108.10619613100062,108.10619613100062,108.10619613100062,108.10619613100062,a,2.45425909900041,10,54,0,110.59224520499993,112.0938355039998,,,,,,,,,,,,,,,,,,,,,,,,,,,,,,,,,,,,,,,,,,,,,,,,,,,,,,,,,,,,,,,,,,,,,55493,2022-10-25_13h56.41.374,vts_reward_expectancy_bt_OFFLINE,2022.2.4,60.137185186996454,
0,0,1,0,1,0,0,0,hexagon,triangle,0,0,0,0,0,9,9,6,,,,,,,,,,,,,,,,,,,,,,,,,,,,,,,,,,,,,,,,112.59441617999983,112.59441617999983,112.59441617999983,112.59441617999983,112.59441617999983,112.59441617999983,112.59441617999983,112.59441617999983,112.59441617999983,112.59441617999983,l,1.269765279999774,10,64,0,113.89592156800063,115.39759899199998,,,,,,,,,,,,,,,,,,,,,,,,,,,,,,,,,,,,,,,,,,,,,,,,,,,,,,,,,,,,,,,,,,,,,55493,2022-10-25_13h56.41.374,vts_reward_expectancy_bt_OFFLINE,2022.2.4,60.137185186996454,
1,0,0,0,0,0,1,0,triangle,hexagon,0,0,0,0,0,10,10,1,,,,,,,,,,,,,,,,,,,,,,,,,,,,,,,,,,,,,,,,115.89826129300127,115.89826129300127,115.89826129300127,115.89826129300127,115.89826129300127,115.89826129300127,115.89826129300127,115.89826129300127,115.89826129300127,115.89826129300127,a,0.893812884001818,1,65,0,116.81582012699982,118.31742797799961,,,,,,,,,,,,,,,,,,,,,,,,,,,,,,,,,,,,,,,,,,,,,,,,,,,,,,,,,,,,,,,,,,,,,55493,2022-10-25_13h56.41.374,vts_reward_expectancy_bt_OFFLINE,2022.2.4,60.137185186996454,
1,0,0,0,0,1,0,0,triangle,circle,0,0,0,0,0,11,11,0,,,,,,,,,,,,,,,,,,,,,,,,,,,,,,,,,,,,,,,,118.8179417400006,118.8179417400006,118.8179417400006,118.8179417400006,118.8179417400006,118.8179417400006,118.8179417400006,118.8179417400006,118.8179417400006,118.8179417400006,l,2.2773938620011904,10,75,0,121.12054578300013,122.62219020200064,,,,,,,,,,,,,,,,,,,,,,,,,,,,,,,,,,,,,,,,,,,,,,,,,,,,,,,,,,,,,,,,,,,,,55493,2022-10-25_13h56.41.374,vts_reward_expectancy_bt_OFFLINE,2022.2.4,60.137185186996454,
0,1,0,0,0,0,0,1,circle,star,0,0,0,0,1,0,12,5,,,,,,,,,,,,,,,,,,,,,,,,,,,,,,,,,,,,,,,,123.12268544499966,123.12268544499966,123.12268544499966,123.12268544499966,123.12268544499966,123.12268544499966,123.12268544499966,123.12268544499966,123.12268544499966,123.12268544499966,a,0.9018258260002767,10,85,0,124.05719887899977,125.55870732100084,,,,,,,,,,,,,,,,,,,,,,,,,,,,,,,,,,,,,,,,,,,,,,,,,,,,,,,,,,,,,,,,,,,,,55493,2022-10-25_13h56.41.374,vts_reward_expectancy_bt_OFFLINE,2022.2.4,60.137185186996454,
0,0,0,1,0,0,1,0,star,hexagon,0,0,0,0,1,1,13,11,,,,,,,,,,,,,,,,,,,,,,,,,,,,,,,,,,,,,,,,126.05924734099972,126.05924734099972,126.05924734099972,126.05924734099972,126.05924734099972,126.05924734099972,126.05924734099972,126.05924734099972,126.05924734099972,126.05924734099972,a,2.596784535000552,1,86,0,128.67884381800104,130.18040723800004,,,,,,,,,,,,,,,,,,,,,,,,,,,,,,,,,,,,,,,,,,,,,,,,,,,,,,,,,,,,,,,,,,,,,55493,2022-10-25_13h56.41.374,vts_reward_expectancy_bt_OFFLINE,2022.2.4,60.137185186996454,
0,0,1,0,1,0,0,0,hexagon,triangle,0,0,0,0,1,2,14,6,,,,,,,,,,,,,,,,,,,,,,,,,,,,,,,,,,,,,,,,130.6810675050001,130.6810675050001,130.6810675050001,130.6810675050001,130.6810675050001,130.6810675050001,130.6810675050001,130.6810675050001,130.6810675050001,130.6810675050001,l,1.0387884169995232,10,96,0,131.74885186100073,133.25060099300026,,,,,,,,,,,,,,,,,,,,,,,,,,,,,,,,,,,,,,,,,,,,,,,,,,,,,,,,,,,,,,,,,,,,,55493,2022-10-25_13h56.41.374,vts_reward_expectancy_bt_OFFLINE,2022.2.4,60.137185186996454,
0,0,1,0,0,0,0,1,hexagon,star,0,0,0,0,1,3,15,8,,,,,,,,,,,,,,,,,,,,,,,,,,,,,,,,,,,,,,,,133.7511005289998,133.7511005289998,133.7511005289998,133.7511005289998,133.7511005289998,133.7511005289998,133.7511005289998,133.7511005289998,133.7511005289998,133.7511005289998,a,2.4803744820001157,1,97,0,136.25385963400004,137.75546795900118,,,,,,,,,,,,,,,,,,,,,,,,,,,,,,,,,,,,,,,,,,,,,,,,,,,,,,,,,,,,,,,,,,,,,55493,2022-10-25_13h56.41.374,vts_reward_expectancy_bt_OFFLINE,2022.2.4,60.137185186996454,
0,1,0,0,1,0,0,0,circle,triangle,0,0,0,0,1,4,16,3,,,,,,,,,,,,,,,,,,,,,,,,,,,,,,,,,,,,,,,,138.25606532799975,138.25606532799975,138.25606532799975,138.25606532799975,138.25606532799975,138.25606532799975,138.25606532799975,138.25606532799975,138.25606532799975,138.25606532799975,a,1.1682340430015756,1,98,0,139.4408854630001,140.94234935900022,,,,,,,,,,,,,,,,,,,,,,,,,,,,,,,,,,,,,,,,,,,,,,,,,,,,,,,,,,,,,,,,,,,,,55493,2022-10-25_13h56.41.374,vts_reward_expectancy_bt_OFFLINE,2022.2.4,60.137185186996454,
1,0,0,0,0,0,1,0,triangle,hexagon,0,0,0,0,1,5,17,1,,,,,,,,,,,,,,,,,,,,,,,,,,,,,,,,,,,,,,,,141.44293253599972,141.44293253599972,141.44293253599972,141.44293253599972,141.44293253599972,141.44293253599972,141.44293253599972,141.44293253599972,141.44293253599972,141.44293253599972,a,1.2369617969998217,10,108,0,142.71108641400133,144.21266084300078,,,,,,,,,,,,,,,,,,,,,,,,,,,,,,,,,,,,,,,,,,,,,,,,,,,,,,,,,,,,,,,,,,,,,55493,2022-10-25_13h56.41.374,vts_reward_expectancy_bt_OFFLINE,2022.2.4,60.137185186996454,
0,0,1,0,0,1,0,0,hexagon,circle,0,0,0,0,1,6,18,7,,,,,,,,,,,,,,,,,,,,,,,,,,,,,,,,,,,,,,,,144.713148326,144.713148326,144.713148326,144.713148326,144.713148326,144.713148326,144.713148326,144.713148326,144.713148326,144.713148326,l,0.9194575310011714,10,118,0,145.66422503300055,147.1658770260001,,,,,,,,,,,,,,,,,,,,,,,,,,,,,,,,,,,,,,,,,,,,,,,,,,,,,,,,,,,,,,,,,,,,,55493,2022-10-25_13h56.41.374,vts_reward_expectancy_bt_OFFLINE,2022.2.4,60.137185186996454,
0,0,0,1,1,0,0,0,star,triangle,0,0,0,0,1,7,19,9,,,,,,,,,,,,,,,,,,,,,,,,,,,,,,,,,,,,,,,,147.66648240500035,147.66648240500035,147.66648240500035,147.66648240500035,147.66648240500035,147.66648240500035,147.66648240500035,147.66648240500035,147.66648240500035,147.66648240500035,l,1.2135301639991667,10,128,0,148.9013484010011,150.4029444429998,,,,,,,,,,,,,,,,,,,,,,,,,,,,,,,,,,,,,,,,,,,,,,,,,,,,,,,,,,,,,,,,,,,,,55493,2022-10-25_13h56.41.374,vts_reward_expectancy_bt_OFFLINE,2022.2.4,60.137185186996454,
0,1,0,0,0,0,1,0,circle,hexagon,0,0,0,0,1,8,20,4,,,,,,,,,,,,,,,,,,,,,,,,,,,,,,,,,,,,,,,,150.90336086500065,150.90336086500065,150.90336086500065,150.90336086500065,150.90336086500065,150.90336086500065,150.90336086500065,150.90336086500065,150.90336086500065,150.90336086500065,a,0.7770968820004782,1,129,0,151.70420378699964,153.20588433900048,,,,,,,,,,,,,,,,,,,,,,,,,,,,,,,,,,,,,,,,,,,,,,,,,,,,,,,,,,,,,,,,,,,,,55493,2022-10-25_13h56.41.374,vts_reward_expectancy_bt_OFFLINE,2022.2.4,60.137185186996454,
1,0,0,0,0,0,0,1,triangle,star,0,0,0,0,1,9,21,2,,,,,,,,,,,,,,,,,,,,,,,,,,,,,,,,,,,,,,,,153.70640437099973,153.70640437099973,153.70640437099973,153.70640437099973,153.70640437099973,153.70640437099973,153.70640437099973,153.70640437099973,153.70640437099973,153.70640437099973,a,0.9258154769995599,10,139,0,154.6574264310002,156.15913331299998,,,,,,,,,,,,,,,,,,,,,,,,,,,,,,,,,,,,,,,,,,,,,,,,,,,,,,,,,,,,,,,,,,,,,55493,2022-10-25_13h56.41.374,vts_reward_expectancy_bt_OFFLINE,2022.2.4,60.137185186996454,
0,0,0,1,0,1,0,0,star ,circle,0,0,0,0,1,10,22,10,,,,,,,,,,,,,,,,,,,,,,,,,,,,,,,,,,,,,,,,156.65967333300068,156.65967333300068,156.65967333300068,156.65967333300068,156.65967333300068,156.65967333300068,156.65967333300068,156.65967333300068,156.65967333300068,156.65967333300068,l,0.9075489440001547,10,149,0,157.59418634100075,159.09574525800053,,,,,,,,,,,,,,,,,,,,,,,,,,,,,,,,,,,,,,,,,,,,,,,,,,,,,,,,,,,,,,,,,,,,,55493,2022-10-25_13h56.41.374,vts_reward_expectancy_bt_OFFLINE,2022.2.4,60.137185186996454,
1,0,0,0,0,1,0,0,triangle,circle,0,0,0,0,1,11,23,0,,,,,,,,,,,,,,,,,,,,,,,,,,,,,,,,,,,,,,,,159.59631372500007,159.59631372500007,159.59631372500007,159.59631372500007,159.59631372500007,159.59631372500007,159.59631372500007,159.59631372500007,159.59631372500007,159.59631372500007,l,1.4353624429986667,10,159,0,161.06460054700074,162.56624621300034,,,,,,,,,,,,,,,,,,,,,,,,,,,,,,,,,,,,,,,,,,,,,,,,,,,,,,,,,,,,,,,,,,,,,55493,2022-10-25_13h56.41.374,vts_reward_expectancy_bt_OFFLINE,2022.2.4,60.137185186996454,
1,0,0,0,0,0,0,1,triangle,star,0,0,0,0,2,0,24,2,,,,,,,,,,,,,,,,,,,,,,,,,,,,,,,,,,,,,,,,163.06659056600074,163.06659056600074,163.06659056600074,163.06659056600074,163.06659056600074,163.06659056600074,163.06659056600074,163.06659056600074,163.06659056600074,163.06659056600074,a,0.9340697830011777,10,169,0,164.01790635700127,165.51951231600106,,,,,,,,,,,,,,,,,,,,,,,,,,,,,,,,,,,,,,,,,,,,,,,,,,,,,,,,,,,,,,,,,,,,,55493,2022-10-25_13h56.41.374,vts_reward_expectancy_bt_OFFLINE,2022.2.4,60.137185186996454,
0,1,0,0,0,0,1,0,circle,hexagon,0,0,0,0,2,1,25,4,,,,,,,,,,,,,,,,,,,,,,,,,,,,,,,,,,,,,,,,166.02002068100046,166.02002068100046,166.02002068100046,166.02002068100046,166.02002068100046,166.02002068100046,166.02002068100046,166.02002068100046,166.02002068100046,166.02002068100046,a,1.332640430999163,1,170,0,167.37151591200018,168.87318793800114,,,,,,,,,,,,,,,,,,,,,,,,,,,,,,,,,,,,,,,,,,,,,,,,,,,,,,,,,,,,,,,,,,,,,55493,2022-10-25_13h56.41.374,vts_reward_expectancy_bt_OFFLINE,2022.2.4,60.137185186996454,
0,0,1,0,0,0,0,1,hexagon,star,0,0,0,0,2,2,26,8,,,,,,,,,,,,,,,,,,,,,,,,,,,,,,,,,,,,,,,,169.37377019800078,169.37377019800078,169.37377019800078,169.37377019800078,169.37377019800078,169.37377019800078,169.37377019800078,169.37377019800078,169.37377019800078,169.37377019800078,a,1.225987013998747,1,171,0,170.62525815499976,172.12676516400097,,,,,,,,,,,,,,,,,,,,,,,,,,,,,,,,,,,,,,,,,,,,,,,,,,,,,,,,,,,,,,,,,,,,,55493,2022-10-25_13h56.41.374,vts_reward_expectancy_bt_OFFLINE,2022.2.4,60.137185186996454,
1,0,0,0,0,0,1,0,triangle,hexagon,0,0,0,0,2,3,27,1,,,,,,,,,,,,,,,,,,,,,,,,,,,,,,,,,,,,,,,,172.62729561299966,172.62729561299966,172.62729561299966,172.62729561299966,172.62729561299966,172.62729561299966,172.62729561299966,172.62729561299966,172.62729561299966,172.62729561299966,a,1.1880759370014857,10,181,0,173.84528895699987,175.34688069600088,,,,,,,,,,,,,,,,,,,,,,,,,,,,,,,,,,,,,,,,,,,,,,,,,,,,,,,,,,,,,,,,,,,,,55493,2022-10-25_13h56.41.374,vts_reward_expectancy_bt_OFFLINE,2022.2.4,60.137185186996454,
0,1,0,0,1,0,0,0,circle,triangle,0,0,0,0,2,4,28,3,,,,,,,,,,,,,,,,,,,,,,,,,,,,,,,,,,,,,,,,175.84762775499985,175.84762775499985,175.84762775499985,175.84762775499985,175.84762775499985,175.84762775499985,175.84762775499985,175.84762775499985,175.84762775499985,175.84762775499985,a,0.6807803490009974,10,191,0,176.54831094800102,178.04994988300132,,,,,,,,,,,,,,,,,,,,,,,,,,,,,,,,,,,,,,,,,,,,,,,,,,,,,,,,,,,,,,,,,,,,,55493,2022-10-25_13h56.41.374,vts_reward_expectancy_bt_OFFLINE,2022.2.4,60.137185186996454,
0,0,1,0,0,1,0,0,hexagon,circle,0,0,0,0,2,5,29,7,,,,,,,,,,,,,,,,,,,,,,,,,,,,,,,,,,,,,,,,178.5506034050013,178.5506034050013,178.5506034050013,178.5506034050013,178.5506034050013,178.5506034050013,178.5506034050013,178.5506034050013,178.5506034050013,178.5506034050013,l,1.0181136840019462,10,201,0,179.60188842000025,181.10343318200103,,,,,,,,,,,,,,,,,,,,,,,,,,,,,,,,,,,,,,,,,,,,,,,,,,,,,,,,,,,,,,,,,,,,,55493,2022-10-25_13h56.41.374,vts_reward_expectancy_bt_OFFLINE,2022.2.4,60.137185186996454,
0,0,0,1,1,0,0,0,star,triangle,0,0,0,0,2,6,30,9,,,,,,,,,,,,,,,,,,,,,,,,,,,,,,,,,,,,,,,,181.60393586900136,181.60393586900136,181.60393586900136,181.60393586900136,181.60393586900136,181.60393586900136,181.60393586900136,181.60393586900136,181.60393586900136,181.60393586900136,l,0.8192202980008005,10,211,0,182.45484815500095,183.95639380400098,,,,,,,,,,,,,,,,,,,,,,,,,,,,,,,,,,,,,,,,,,,,,,,,,,,,,,,,,,,,,,,,,,,,,55493,2022-10-25_13h56.41.374,vts_reward_expectancy_bt_OFFLINE,2022.2.4,60.137185186996454,
0,0,1,0,1,0,0,0,hexagon,triangle,0,0,0,0,2,7,31,6,,,,,,,,,,,,,,,,,,,,,,,,,,,,,,,,,,,,,,,,184.45705955700032,184.45705955700032,184.45705955700032,184.45705955700032,184.45705955700032,184.45705955700032,184.45705955700032,184.45705955700032,184.45705955700032,184.45705955700032,l,0.9994549399998505,10,221,0,185.47494507900046,186.97662848599975,,,,,,,,,,,,,,,,,,,,,,,,,,,,,,,,,,,,,,,,,,,,,,,,,,,,,,,,,,,,,,,,,,,,,55493,2022-10-25_13h56.41.374,vts_reward_expectancy_bt_OFFLINE,2022.2.4,60.137185186996454,
0,1,0,0,0,0,0,1,circle,star,0,0,0,0,2,8,32,5,,,,,,,,,,,,,,,,,,,,,,,,,,,,,,,,,,,,,,,,187.47709535300055,187.47709535300055,187.47709535300055,187.47709535300055,187.47709535300055,187.47709535300055,187.47709535300055,187.47709535300055,187.47709535300055,187.47709535300055,a,0.7390534130008746,10,231,0,188.24447683000108,189.74620164200132,,,,,,,,,,,,,,,,,,,,,,,,,,,,,,,,,,,,,,,,,,,,,,,,,,,,,,,,,,,,,,,,,,,,,55493,2022-10-25_13h56.41.374,vts_reward_expectancy_bt_OFFLINE,2022.2.4,60.137185186996454,
1,0,0,0,0,1,0,0,triangle,circle,0,0,0,0,2,9,33,0,,,,,,,,,,,,,,,,,,,,,,,,,,,,,,,,,,,,,,,,190.24672832500073,190.24672832500073,190.24672832500073,190.24672832500073,190.24672832500073,190.24672832500073,190.24672832500073,190.24672832500073,190.24672832500073,190.24672832500073,l,1.7691498990006949,10,241,0,192.04870095200022,193.55041972300023,,,,,,,,,,,,,,,,,,,,,,,,,,,,,,,,,,,,,,,,,,,,,,,,,,,,,,,,,,,,,,,,,,,,,55493,2022-10-25_13h56.41.374,vts_reward_expectancy_bt_OFFLINE,2022.2.4,60.137185186996454,
0,0,0,1,0,0,1,0,star,hexagon,0,0,0,0,2,10,34,11,,,,,,,,,,,,,,,,,,,,,,,,,,,,,,,,,,,,,,,,194.0510145340013,194.0510145340013,194.0510145340013,194.0510145340013,194.0510145340013,194.0510145340013,194.0510145340013,194.0510145340013,194.0510145340013,194.0510145340013,a,2.109234199000639,1,242,0,196.1865293610008,197.68825897100032,,,,,,,,,,,,,,,,,,,,,,,,,,,,,,,,,,,,,,,,,,,,,,,,,,,,,,,,,,,,,,,,,,,,,55493,2022-10-25_13h56.41.374,vts_reward_expectancy_bt_OFFLINE,2022.2.4,60.137185186996454,
0,0,0,1,0,1,0,0,star ,circle,0,0,0,0,2,11,35,10,,,,,,,,,,,,,,,,,,,,,,,,,,,,,,,,,,,,,,,,198.18864316800136,198.18864316800136,198.18864316800136,198.18864316800136,198.18864316800136,198.18864316800136,198.18864316800136,198.18864316800136,198.18864316800136,198.18864316800136,l,0.6678941139998642,10,252,0,198.87294680299965,200.37455875200067,,,,,,,,,,,,,,,,,,,,,,,,,,,,,,,,,,,,,,,,,,,,,,,,,,,,,,,,,,,,,,,,,,,,,55493,2022-10-25_13h56.41.374,vts_reward_expectancy_bt_OFFLINE,2022.2.4,60.137185186996454,
0,1,0,0,1,0,0,0,circle,triangle,0,0,0,0,3,0,36,3,,,,,,,,,,,,,,,,,,,,,,,,,,,,,,,,,,,,,,,,200.8742195550003,200.8742195550003,200.8742195550003,200.8742195550003,200.8742195550003,200.8742195550003,200.8742195550003,200.8742195550003,200.8742195550003,200.8742195550003,a,0.806015998001385,10,262,0,201.70935554900097,203.21123199700014,,,,,,,,,,,,,,,,,,,,,,,,,,,,,,,,,,,,,,,,,,,,,,,,,,,,,,,,,,,,,,,,,,,,,55493,2022-10-25_13h56.41.374,vts_reward_expectancy_bt_OFFLINE,2022.2.4,60.137185186996454,
0,0,1,0,0,1,0,0,hexagon,circle,0,0,0,0,3,1,37,7,,,,,,,,,,,,,,,,,,,,,,,,,,,,,,,,,,,,,,,,203.71172830700016,203.71172830700016,203.71172830700016,203.71172830700016,203.71172830700016,203.71172830700016,203.71172830700016,203.71172830700016,203.71172830700016,203.71172830700016,l,0.79205904400078,10,272,0,204.52898943500077,206.0308315559996,,,,,,,,,,,,,,,,,,,,,,,,,,,,,,,,,,,,,,,,,,,,,,,,,,,,,,,,,,,,,,,,,,,,,55493,2022-10-25_13h56.41.374,vts_reward_expectancy_bt_OFFLINE,2022.2.4,60.137185186996454,
0,1,0,0,0,0,0,1,circle,star,0,0,0,0,3,2,38,5,,,,,,,,,,,,,,,,,,,,,,,,,,,,,,,,,,,,,,,,206.53146578199994,206.53146578199994,206.53146578199994,206.53146578199994,206.53146578199994,206.53146578199994,206.53146578199994,206.53146578199994,206.53146578199994,206.53146578199994,a,1.051927088001321,10,282,0,207.6160179790004,209.1175773169998,,,,,,,,,,,,,,,,,,,,,,,,,,,,,,,,,,,,,,,,,,,,,,,,,,,,,,,,,,,,,,,,,,,,,55493,2022-10-25_13h56.41.374,vts_reward_expectancy_bt_OFFLINE,2022.2.4,60.137185186996454,
1,0,0,0,0,0,0,1,triangle,star,0,0,0,0,3,3,39,2,,,,,,,,,,,,,,,,,,,,,,,,,,,,,,,,,,,,,,,,209.6181981589998,209.6181981589998,209.6181981589998,209.6181981589998,209.6181981589998,209.6181981589998,209.6181981589998,209.6181981589998,209.6181981589998,209.6181981589998,a,1.5344465140005923,1,283,0,211.16988772700097,212.67139543899975,,,,,,,,,,,,,,,,,,,,,,,,,,,,,,,,,,,,,,,,,,,,,,,,,,,,,,,,,,,,,,,,,,,,,55493,2022-10-25_13h56.41.374,vts_reward_expectancy_bt_OFFLINE,2022.2.4,60.137185186996454,
0,0,0,1,0,1,0,0,star ,circle,0,0,0,0,3,4,40,10,,,,,,,,,,,,,,,,,,,,,,,,,,,,,,,,,,,,,,,,213.1719884209997,213.1719884209997,213.1719884209997,213.1719884209997,213.1719884209997,213.1719884209997,213.1719884209997,213.1719884209997,213.1719884209997,213.1719884209997,l,1.2594597780007462,10,293,0,214.45692175800104,215.9585486040014,,,,,,,,,,,,,,,,,,,,,,,,,,,,,,,,,,,,,,,,,,,,,,,,,,,,,,,,,,,,,,,,,,,,,55493,2022-10-25_13h56.41.374,vts_reward_expectancy_bt_OFFLINE,2022.2.4,60.137185186996454,
0,0,0,1,0,0,1,0,star,hexagon,0,0,0,0,3,5,41,11,,,,,,,,,,,,,,,,,,,,,,,,,,,,,,,,,,,,,,,,216.45914279000135,216.45914279000135,216.45914279000135,216.45914279000135,216.45914279000135,216.45914279000135,216.45914279000135,216.45914279000135,216.45914279000135,216.45914279000135,a,1.6445883230007894,1,294,0,218.12747761300125,219.6291995749998,,,,,,,,,,,,,,,,,,,,,,,,,,,,,,,,,,,,,,,,,,,,,,,,,,,,,,,,,,,,,,,,,,,,,55493,2022-10-25_13h56.41.374,vts_reward_expectancy_bt_OFFLINE,2022.2.4,60.137185186996454,
0,1,0,0,0,0,1,0,circle,hexagon,0,0,0,0,3,6,42,4,,,,,,,,,,,,,,,,,,,,,,,,,,,,,,,,,,,,,,,,220.1298114860001,220.1298114860001,220.1298114860001,220.1298114860001,220.1298114860001,220.1298114860001,220.1298114860001,220.1298114860001,220.1298114860001,220.1298114860001,a,0.7825499610007682,1,295,0,220.93056035500013,222.43231933300012,,,,,,,,,,,,,,,,,,,,,,,,,,,,,,,,,,,,,,,,,,,,,,,,,,,,,,,,,,,,,,,,,,,,,55493,2022-10-25_13h56.41.374,vts_reward_expectancy_bt_OFFLINE,2022.2.4,60.137185186996454,
0,0,0,1,1,0,0,0,star,triangle,0,0,0,0,3,7,43,9,,,,,,,,,,,,,,,,,,,,,,,,,,,,,,,,,,,,,,,,222.9328798990009,222.9328798990009,222.9328798990009,222.9328798990009,222.9328798990009,222.9328798990009,222.9328798990009,222.9328798990009,222.9328798990009,222.9328798990009,l,0.7395000529995741,10,305,0,223.70040901500033,225.20204734300023,,,,,,,,,,,,,,,,,,,,,,,,,,,,,,,,,,,,,,,,,,,,,,,,,,,,,,,,,,,,,,,,,,,,,55493,2022-10-25_13h56.41.374,vts_reward_expectancy_bt_OFFLINE,2022.2.4,60.137185186996454,
1,0,0,0,0,1,0,0,triangle,circle,0,0,0,0,3,8,44,0,,,,,,,,,,,,,,,,,,,,,,,,,,,,,,,,,,,,,,,,225.70260201699966,225.70260201699966,225.70260201699966,225.70260201699966,225.70260201699966,225.70260201699966,225.70260201699966,225.70260201699966,225.70260201699966,225.70260201699966,l,0.7771305380010745,10,315,0,226.5033692500001,228.0051298039998,,,,,,,,,,,,,,,,,,,,,,,,,,,,,,,,,,,,,,,,,,,,,,,,,,,,,,,,,,,,,,,,,,,,,55493,2022-10-25_13h56.41.374,vts_reward_expectancy_bt_OFFLINE,2022.2.4,60.137185186996454,
0,0,1,0,1,0,0,0,hexagon,triangle,0,0,0,0,3,9,45,6,,,,,,,,,,,,,,,,,,,,,,,,,,,,,,,,,,,,,,,,228.50568096100142,228.50568096100142,228.50568096100142,228.50568096100142,228.50568096100142,228.50568096100142,228.50568096100142,228.50568096100142,228.50568096100142,228.50568096100142,a,1.4071282410004642,1,316,0,229.94065091100128,231.44231504799973,,,,,,,,,,,,,,,,,,,,,,,,,,,,,,,,,,,,,,,,,,,,,,,,,,,,,,,,,,,,,,,,,,,,,55493,2022-10-25_13h56.41.374,vts_reward_expectancy_bt_OFFLINE,2022.2.4,60.137185186996454,
0,0,1,0,0,0,0,1,hexagon,star,0,0,0,0,3,10,46,8,,,,,,,,,,,,,,,,,,,,,,,,,,,,,,,,,,,,,,,,231.94271791100073,231.94271791100073,231.94271791100073,231.94271791100073,231.94271791100073,231.94271791100073,231.94271791100073,231.94271791100073,231.94271791100073,231.94271791100073,a,1.688707789999171,1,317,0,233.6612148380009,235.16294673999982,,,,,,,,,,,,,,,,,,,,,,,,,,,,,,,,,,,,,,,,,,,,,,,,,,,,,,,,,,,,,,,,,,,,,55493,2022-10-25_13h56.41.374,vts_reward_expectancy_bt_OFFLINE,2022.2.4,60.137185186996454,
1,0,0,0,0,0,1,0,triangle,hexagon,0,0,0,0,3,11,47,1,,,,,,,,,,,,,,,,,,,,,,,,,,,,,,,,,,,,,,,,235.6634292130002,235.6634292130002,235.6634292130002,235.6634292130002,235.6634292130002,235.6634292130002,235.6634292130002,235.6634292130002,235.6634292130002,235.6634292130002,a,0.903813564000302,10,327,0,236.5978755369997,238.0995653789996,,,,,,,,,,,,,,,,,,,,,,,,,,,,,,,,,,,,,,,,,,,,,,,,,,,,,,,,,,,,,,,,,,,,,55493,2022-10-25_13h56.41.374,vts_reward_expectancy_bt_OFFLINE,2022.2.4,60.137185186996454,
0,0,1,0,0,0,0,1,hexagon,star,1,0,1,0,0,0,0,8,,,,,,,,,,,,,,,,,,,,,,,,,,,,,,,,,,,,,,,,246.44872150100127,246.44872150100127,246.44872150100127,246.44872150100127,246.44872150100127,246.44872150100127,246.44872150100127,246.44872150100127,246.44872150100127,246.44872150100127,l,2.1119446119992062,1,328,1,248.57773977000033,250.0794785650014,,,,,,,,,,,,,,,,,,,,,,,,,,,,,,,,,,,,,,,,,,,,,,,,,,,,,,,,,,,,,,,,,,,,,55493,2022-10-25_13h56.41.374,vts_reward_expectancy_bt_OFFLINE,2022.2.4,60.137185186996454,
1,0,0,0,0,1,0,0,triangle,circle,1,0,1,0,0,1,1,0,,,,,,,,,,,,,,,,,,,,,,,,,,,,,,,,,,,,,,,,250.58000853500016,250.58000853500016,250.58000853500016,250.58000853500016,250.58000853500016,250.58000853500016,250.58000853500016,250.58000853500016,250.58000853500016,250.58000853500016,l,0.7081890690005821,1,329,1,251.31408870999985,252.81572221900024,,,,,,,,,,,,,,,,,,,,,,,,,,,,,,,,,,,,,,,,,,,,,,,,,,,,,,,,,,,,,,,,,,,,,55493,2022-10-25_13h56.41.374,vts_reward_expectancy_bt_OFFLINE,2022.2.4,60.137185186996454,
1,0,0,0,0,0,0,1,triangle,star,1,0,1,0,0,2,2,2,,,,,,,,,,,,,,,,,,,,,,,,,,,,,,,,,,,,,,,,253.31630395400134,253.31630395400134,253.31630395400134,253.31630395400134,253.31630395400134,253.31630395400134,253.31630395400134,253.31630395400134,253.31630395400134,253.31630395400134,a,0.7631836090004072,10,339,1,254.1005175350001,255.60226699899977,,,,,,,,,,,,,,,,,,,,,,,,,,,,,,,,,,,,,,,,,,,,,,,,,,,,,,,,,,,,,,,,,,,,,55493,2022-10-25_13h56.41.374,vts_reward_expectancy_bt_OFFLINE,2022.2.4,60.137185186996454,
0,0,1,0,0,1,0,0,hexagon,circle,1,0,1,0,0,3,3,7,,,,,,,,,,,,,,,,,,,,,,,,,,,,,,,,,,,,,,,,256.10265311500007,256.10265311500007,256.10265311500007,256.10265311500007,256.10265311500007,256.10265311500007,256.10265311500007,256.10265311500007,256.10265311500007,256.10265311500007,l,0.7449267949996283,10,349,1,256.8704122859999,258.37197981700047,,,,,,,,,,,,,,,,,,,,,,,,,,,,,,,,,,,,,,,,,,,,,,,,,,,,,,,,,,,,,,,,,,,,,55493,2022-10-25_13h56.41.374,vts_reward_expectancy_bt_OFFLINE,2022.2.4,60.137185186996454,
0,0,0,1,1,0,0,0,star,triangle,1,0,1,0,0,4,4,9,,,,,,,,,,,,,,,,,,,,,,,,,,,,,,,,,,,,,,,,258.8725961500004,258.8725961500004,258.8725961500004,258.8725961500004,258.8725961500004,258.8725961500004,258.8725961500004,258.8725961500004,258.8725961500004,258.8725961500004,l,0.7356570629999624,1,350,1,259.6401175339997,261.1415801740004,,,,,,,,,,,,,,,,,,,,,,,,,,,,,,,,,,,,,,,,,,,,,,,,,,,,,,,,,,,,,,,,,,,,,55493,2022-10-25_13h56.41.374,vts_reward_expectancy_bt_OFFLINE,2022.2.4,60.137185186996454,
0,0,0,1,0,0,1,0,star,hexagon,1,0,1,0,0,5,5,11,,,,,,,,,,,,,,,,,,,,,,,,,,,,,,,,,,,,,,,,261.64217536700016,261.64217536700016,261.64217536700016,261.64217536700016,261.64217536700016,261.64217536700016,261.64217536700016,261.64217536700016,261.64217536700016,261.64217536700016,l,0.9410861640008079,10,360,1,262.6098528000002,264.11153592200026,,,,,,,,,,,,,,,,,,,,,,,,,,,,,,,,,,,,,,,,,,,,,,,,,,,,,,,,,,,,,,,,,,,,,55493,2022-10-25_13h56.41.374,vts_reward_expectancy_bt_OFFLINE,2022.2.4,60.137185186996454,
0,1,0,0,1,0,0,0,circle,triangle,1,0,1,0,0,6,6,3,,,,,,,,,,,,,,,,,,,,,,,,,,,,,,,,,,,,,,,,264.6120997550006,264.6120997550006,264.6120997550006,264.6120997550006,264.6120997550006,264.6120997550006,264.6120997550006,264.6120997550006,264.6120997550006,264.6120997550006,a,0.5485541699999885,10,370,1,265.17942373000005,266.6810726340009,,,,,,,,,,,,,,,,,,,,,,,,,,,,,,,,,,,,,,,,,,,,,,,,,,,,,,,,,,,,,,,,,,,,,55493,2022-10-25_13h56.41.374,vts_reward_expectancy_bt_OFFLINE,2022.2.4,60.137185186996454,
0,0,0,1,0,1,0,0,star ,circle,1,0,1,0,0,7,7,10,,,,,,,,,,,,,,,,,,,,,,,,,,,,,,,,,,,,,,,,267.181581062001,267.181581062001,267.181581062001,267.181581062001,267.181581062001,267.181581062001,267.181581062001,267.181581062001,267.181581062001,267.181581062001,l,0.546415156999501,10,380,1,267.7489560560007,269.25053453500004,,,,,,,,,,,,,,,,,,,,,,,,,,,,,,,,,,,,,,,,,,,,,,,,,,,,,,,,,,,,,,,,,,,,,55493,2022-10-25_13h56.41.374,vts_reward_expectancy_bt_OFFLINE,2022.2.4,60.137185186996454,
0,0,1,0,1,0,0,0,hexagon,triangle,1,0,1,0,0,8,8,6,,,,,,,,,,,,,,,,,,,,,,,,,,,,,,,,,,,,,,,,269.75116860399976,269.75116860399976,269.75116860399976,269.75116860399976,269.75116860399976,269.75116860399976,269.75116860399976,269.75116860399976,269.75116860399976,269.75116860399976,l,1.1049011970007996,10,390,1,270.88571686400064,272.38731229900077,,,,,,,,,,,,,,,,,,,,,,,,,,,,,,,,,,,,,,,,,,,,,,,,,,,,,,,,,,,,,,,,,,,,,55493,2022-10-25_13h56.41.374,vts_reward_expectancy_bt_OFFLINE,2022.2.4,60.137185186996454,
0,1,0,0,0,0,0,1,circle,star,1,0,1,0,0,9,9,5,,,,,,,,,,,,,,,,,,,,,,,,,,,,,,,,,,,,,,,,272.8879460799999,272.8879460799999,272.8879460799999,272.8879460799999,272.8879460799999,272.8879460799999,272.8879460799999,272.8879460799999,272.8879460799999,272.8879460799999,a,0.4874956120002025,1,391,1,273.4052933570001,274.90689584400025,,,,,,,,,,,,,,,,,,,,,,,,,,,,,,,,,,,,,,,,,,,,,,,,,,,,,,,,,,,,,,,,,,,,,55493,2022-10-25_13h56.41.374,vts_reward_expectancy_bt_OFFLINE,2022.2.4,60.137185186996454,
1,0,0,0,0,0,1,0,triangle,hexagon,1,0,1,0,0,10,10,1,,,,,,,,,,,,,,,,,,,,,,,,,,,,,,,,,,,,,,,,275.40753584900085,275.40753584900085,275.40753584900085,275.40753584900085,275.40753584900085,275.40753584900085,275.40753584900085,275.40753584900085,275.40753584900085,275.40753584900085,a,0.6965447820002737,1,392,1,276.124848589001,277.62655426400124,,,,,,,,,,,,,,,,,,,,,,,,,,,,,,,,,,,,,,,,,,,,,,,,,,,,,,,,,,,,,,,,,,,,,55493,2022-10-25_13h56.41.374,vts_reward_expectancy_bt_OFFLINE,2022.2.4,60.137185186996454,
0,1,0,0,0,0,1,0,circle,hexagon,1,0,1,0,0,11,11,4,,,,,,,,,,,,,,,,,,,,,,,,,,,,,,,,,,,,,,,,278.12708726799974,278.12708726799974,278.12708726799974,278.12708726799974,278.12708726799974,278.12708726799974,278.12708726799974,278.12708726799974,278.12708726799974,278.12708726799974,a,0.6174547330010682,10,402,1,278.76104524699986,280.2626094719999,,,,,,,,,,,,,,,,,,,,,,,,,,,,,,,,,,,,,,,,,,,,,,,,,,,,,,,,,,,,,,,,,,,,,55493,2022-10-25_13h56.41.374,vts_reward_expectancy_bt_OFFLINE,2022.2.4,60.137185186996454,
0,0,1,0,1,0,0,0,hexagon,triangle,1,0,1,0,1,0,12,6,,,,,,,,,,,,,,,,,,,,,,,,,,,,,,,,,,,,,,,,280.76316473299994,280.76316473299994,280.76316473299994,280.76316473299994,280.76316473299994,280.76316473299994,280.76316473299994,280.76316473299994,280.76316473299994,280.76316473299994,l,0.7813722120008606,1,403,1,281.56398683500083,283.0656953890011,,,,,,,,,,,,,,,,,,,,,,,,,,,,,,,,,,,,,,,,,,,,,,,,,,,,,,,,,,,,,,,,,,,,,55493,2022-10-25_13h56.41.374,vts_reward_expectancy_bt_OFFLINE,2022.2.4,60.137185186996454,
0,0,1,0,0,1,0,0,hexagon,circle,1,0,1,0,1,1,13,7,,,,,,,,,,,,,,,,,,,,,,,,,,,,,,,,,,,,,,,,283.5661975820003,283.5661975820003,283.5661975820003,283.5661975820003,283.5661975820003,283.5661975820003,283.5661975820003,283.5661975820003,283.5661975820003,283.5661975820003,l,0.9856471709990728,10,413,1,284.58405315799973,286.0857343389998,,,,,,,,,,,,,,,,,,,,,,,,,,,,,,,,,,,,,,,,,,,,,,,,,,,,,,,,,,,,,,,,,,,,,55493,2022-10-25_13h56.41.374,vts_reward_expectancy_bt_OFFLINE,2022.2.4,60.137185186996454,
1,0,0,0,0,1,0,0,triangle,circle,1,0,1,0,1,2,14,0,,,,,,,,,,,,,,,,,,,,,,,,,,,,,,,,,,,,,,,,286.58618686299997,286.58618686299997,286.58618686299997,286.58618686299997,286.58618686299997,286.58618686299997,286.58618686299997,286.58618686299997,286.58618686299997,286.58618686299997,a,0.7669846290009446,1,414,1,287.3704016410011,288.872235801,,,,,,,,,,,,,,,,,,,,,,,,,,,,,,,,,,,,,,,,,,,,,,,,,,,,,,,,,,,,,,,,,,,,,55493,2022-10-25_13h56.41.374,vts_reward_expectancy_bt_OFFLINE,2022.2.4,60.137185186996454,
0,1,0,0,0,0,1,0,circle,hexagon,1,0,1,0,1,3,15,4,,,,,,,,,,,,,,,,,,,,,,,,,,,,,,,,,,,,,,,,289.3729129200001,289.3729129200001,289.3729129200001,289.3729129200001,289.3729129200001,289.3729129200001,289.3729129200001,289.3729129200001,289.3729129200001,289.3729129200001,a,0.6113893520014244,10,424,1,290.00691699900017,291.5084086300012,,,,,,,,,,,,,,,,,,,,,,,,,,,,,,,,,,,,,,,,,,,,,,,,,,,,,,,,,,,,,,,,,,,,,55493,2022-10-25_13h56.41.374,vts_reward_expectancy_bt_OFFLINE,2022.2.4,60.137185186996454,
0,0,0,1,0,1,0,0,star ,circle,1,0,1,0,1,4,16,10,,,,,,,,,,,,,,,,,,,,,,,,,,,,,,,,,,,,,,,,292.00897336399976,292.00897336399976,292.00897336399976,292.00897336399976,292.00897336399976,292.00897336399976,292.00897336399976,292.00897336399976,292.00897336399976,292.00897336399976,l,0.5672151540002233,10,434,1,292.5930792750005,294.0946523769999,,,,,,,,,,,,,,,,,,,,,,,,,,,,,,,,,,,,,,,,,,,,,,,,,,,,,,,,,,,,,,,,,,,,,55493,2022-10-25_13h56.41.374,vts_reward_expectancy_bt_OFFLINE,2022.2.4,60.137185186996454,
0,0,1,0,0,0,0,1,hexagon,star,1,0,1,0,1,5,17,8,,,,,,,,,,,,,,,,,,,,,,,,,,,,,,,,,,,,,,,,294.595274057001,294.595274057001,294.595274057001,294.595274057001,294.595274057001,294.595274057001,294.595274057001,294.595274057001,294.595274057001,294.595274057001,a,1.9086901360005868,10,444,1,296.5304990580007,298.03229595300036,,,,,,,,,,,,,,,,,,,,,,,,,,,,,,,,,,,,,,,,,,,,,,,,,,,,,,,,,,,,,,,,,,,,,55493,2022-10-25_13h56.41.374,vts_reward_expectancy_bt_OFFLINE,2022.2.4,60.137185186996454,
1,0,0,0,0,0,1,0,triangle,hexagon,1,0,1,0,1,6,18,1,,,,,,,,,,,,,,,,,,,,,,,,,,,,,,,,,,,,,,,,298.53271359599967,298.53271359599967,298.53271359599967,298.53271359599967,298.53271359599967,298.53271359599967,298.53271359599967,298.53271359599967,298.53271359599967,298.53271359599967,a,1.0034878490005212,10,454,1,299.5673511290006,301.06904981499974,,,,,,,,,,,,,,,,,,,,,,,,,,,,,,,,,,,,,,,,,,,,,,,,,,,,,,,,,,,,,,,,,,,,,55493,2022-10-25_13h56.41.374,vts_reward_expectancy_bt_OFFLINE,2022.2.4,60.137185186996454,
1,0,0,0,0,0,0,1,triangle,star,1,0,1,0,1,7,19,2,,,,,,,,,,,,,,,,,,,,,,,,,,,,,,,,,,,,,,,,301.5696254659997,301.5696254659997,301.5696254659997,301.5696254659997,301.5696254659997,301.5696254659997,301.5696254659997,301.5696254659997,301.5696254659997,301.5696254659997,a,0.6382393240000965,1,455,1,302.2368586490011,303.7386289120004,,,,,,,,,,,,,,,,,,,,,,,,,,,,,,,,,,,,,,,,,,,,,,,,,,,,,,,,,,,,,,,,,,,,,55493,2022-10-25_13h56.41.374,vts_reward_expectancy_bt_OFFLINE,2022.2.4,60.137185186996454,
0,0,0,1,0,0,1,0,star,hexagon,1,0,1,0,1,8,20,11,,,,,,,,,,,,,,,,,,,,,,,,,,,,,,,,,,,,,,,,304.2390781480008,304.2390781480008,304.2390781480008,304.2390781480008,304.2390781480008,304.2390781480008,304.2390781480008,304.2390781480008,304.2390781480008,304.2390781480008,l,1.752688271999432,1,456,1,306.0246151290012,307.5260908630007,,,,,,,,,,,,,,,,,,,,,,,,,,,,,,,,,,,,,,,,,,,,,,,,,,,,,,,,,,,,,,,,,,,,,55493,2022-10-25_13h56.41.374,vts_reward_expectancy_bt_OFFLINE,2022.2.4,60.137185186996454,
0,0,0,1,1,0,0,0,star,triangle,1,0,1,0,1,9,21,9,,,,,,,,,,,,,,,,,,,,,,,,,,,,,,,,,,,,,,,,308.026528235001,308.026528235001,308.026528235001,308.026528235001,308.026528235001,308.026528235001,308.026528235001,308.026528235001,308.026528235001,308.026528235001,l,0.6770585009999195,10,466,1,308.72753515300064,310.22902960400097,,,,,,,,,,,,,,,,,,,,,,,,,,,,,,,,,,,,,,,,,,,,,,,,,,,,,,,,,,,,,,,,,,,,,55493,2022-10-25_13h56.41.374,vts_reward_expectancy_bt_OFFLINE,2022.2.4,60.137185186996454,
0,1,0,0,1,0,0,0,circle,triangle,1,0,1,0,1,10,22,3,,,,,,,,,,,,,,,,,,,,,,,,,,,,,,,,,,,,,,,,310.72973526700116,310.72973526700116,310.72973526700116,310.72973526700116,310.72973526700116,310.72973526700116,310.72973526700116,310.72973526700116,310.72973526700116,310.72973526700116,a,0.9912388719985756,10,476,1,311.74758714900054,313.24909496300097,,,,,,,,,,,,,,,,,,,,,,,,,,,,,,,,,,,,,,,,,,,,,,,,,,,,,,,,,,,,,,,,,,,,,55493,2022-10-25_13h56.41.374,vts_reward_expectancy_bt_OFFLINE,2022.2.4,60.137185186996454,
0,1,0,0,0,0,0,1,circle,star,1,0,1,0,1,11,23,5,,,,,,,,,,,,,,,,,,,,,,,,,,,,,,,,,,,,,,,,313.7496919740006,313.7496919740006,313.7496919740006,313.7496919740006,313.7496919740006,313.7496919740006,313.7496919740006,313.7496919740006,313.7496919740006,313.7496919740006,a,0.7865807510006562,10,486,1,314.5674321770002,316.06891052300125,,,,,,,,,,,,,,,,,,,,,,,,,,,,,,,,,,,,,,,,,,,,,,,,,,,,,,,,,,,,,,,,,,,,,55493,2022-10-25_13h56.41.374,vts_reward_expectancy_bt_OFFLINE,2022.2.4,60.137185186996454,
0,0,0,1,0,1,0,0,star ,circle,1,0,1,0,2,0,24,10,,,,,,,,,,,,,,,,,,,,,,,,,,,,,,,,,,,,,,,,316.56953834700107,316.56953834700107,316.56953834700107,316.56953834700107,316.56953834700107,316.56953834700107,316.56953834700107,316.56953834700107,316.56953834700107,316.56953834700107,l,0.5422023570008605,1,487,1,317.13670732100036,318.63835343900064,,,,,,,,,,,,,,,,,,,,,,,,,,,,,,,,,,,,,,,,,,,,,,,,,,,,,,,,,,,,,,,,,,,,,55493,2022-10-25_13h56.41.374,vts_reward_expectancy_bt_OFFLINE,2022.2.4,60.137185186996454,
0,0,1,0,0,0,0,1,hexagon,star,1,0,1,0,2,1,25,8,,,,,,,,,,,,,,,,,,,,,,,,,,,,,,,,,,,,,,,,319.13906108500123,319.13906108500123,319.13906108500123,319.13906108500123,319.13906108500123,319.13906108500123,319.13906108500123,319.13906108500123,319.13906108500123,319.13906108500123,a,1.0521107780004968,1,488,1,320.22348310100097,321.7251794969998,,,,,,,,,,,,,,,,,,,,,,,,,,,,,,,,,,,,,,,,,,,,,,,,,,,,,,,,,,,,,,,,,,,,,55493,2022-10-25_13h56.41.374,vts_reward_expectancy_bt_OFFLINE,2022.2.4,60.137185186996454,
0,1,0,0,1,0,0,0,circle,triangle,1,0,1,0,2,2,26,3,,,,,,,,,,,,,,,,,,,,,,,,,,,,,,,,,,,,,,,,322.22558136800035,322.22558136800035,322.22558136800035,322.22558136800035,322.22558136800035,322.22558136800035,322.22558136800035,322.22558136800035,322.22558136800035,322.22558136800035,a,0.567063608999888,10,498,1,322.8097774350008,324.31129721900106,,,,,,,,,,,,,,,,,,,,,,,,,,,,,,,,,,,,,,,,,,,,,,,,,,,,,,,,,,,,,,,,,,,,,55493,2022-10-25_13h56.41.374,vts_reward_expectancy_bt_OFFLINE,2022.2.4,60.137185186996454,
1,0,0,0,0,0,1,0,triangle,hexagon,1,0,1,0,2,3,27,1,,,,,,,,,,,,,,,,,,,,,,,,,,,,,,,,,,,,,,,,324.81180651199975,324.81180651199975,324.81180651199975,324.81180651199975,324.81180651199975,324.81180651199975,324.81180651199975,324.81180651199975,324.81180651199975,324.81180651199975,a,0.8526089489987498,10,508,1,325.69608283900016,327.1978447220008,,,,,,,,,,,,,,,,,,,,,,,,,,,,,,,,,,,,,,,,,,,,,,,,,,,,,,,,,,,,,,,,,,,,,55493,2022-10-25_13h56.41.374,vts_reward_expectancy_bt_OFFLINE,2022.2.4,60.137185186996454,
0,0,0,1,1,0,0,0,star,triangle,1,0,1,0,2,4,28,9,,,,,,,,,,,,,,,,,,,,,,,,,,,,,,,,,,,,,,,,327.6982598200011,327.6982598200011,327.6982598200011,327.6982598200011,327.6982598200011,327.6982598200011,327.6982598200011,327.6982598200011,327.6982598200011,327.6982598200011,l,0.8774582220012235,1,509,1,328.5993126070007,330.10105190000104,,,,,,,,,,,,,,,,,,,,,,,,,,,,,,,,,,,,,,,,,,,,,,,,,,,,,,,,,,,,,,,,,,,,,55493,2022-10-25_13h56.41.374,vts_reward_expectancy_bt_OFFLINE,2022.2.4,60.137185186996454,
0,1,0,0,0,0,0,1,circle,star,1,0,1,0,2,5,29,5,,,,,,,,,,,,,,,,,,,,,,,,,,,,,,,,,,,,,,,,330.6017012700013,330.6017012700013,330.6017012700013,330.6017012700013,330.6017012700013,330.6017012700013,330.6017012700013,330.6017012700013,330.6017012700013,330.6017012700013,a,0.5668651590003719,10,519,1,331.18545657899995,332.687167985001,,,,,,,,,,,,,,,,,,,,,,,,,,,,,,,,,,,,,,,,,,,,,,,,,,,,,,,,,,,,,,,,,,,,,55493,2022-10-25_13h56.41.374,vts_reward_expectancy_bt_OFFLINE,2022.2.4,60.137185186996454,
0,0,1,0,1,0,0,0,hexagon,triangle,1,0,1,0,2,6,30,6,,,,,,,,,,,,,,,,,,,,,,,,,,,,,,,,,,,,,,,,333.1877574549999,333.1877574549999,333.1877574549999,333.1877574549999,333.1877574549999,333.1877574549999,333.1877574549999,333.1877574549999,333.1877574549999,333.1877574549999,l,0.7489420640013122,10,529,1,333.95522137100124,335.4569048600006,,,,,,,,,,,,,,,,,,,,,,,,,,,,,,,,,,,,,,,,,,,,,,,,,,,,,,,,,,,,,,,,,,,,,55493,2022-10-25_13h56.41.374,vts_reward_expectancy_bt_OFFLINE,2022.2.4,60.137185186996454,
0,0,0,1,0,0,1,0,star,hexagon,1,0,1,0,2,7,31,11,,,,,,,,,,,,,,,,,,,,,,,,,,,,,,,,,,,,,,,,335.9574065270008,335.9574065270008,335.9574065270008,335.9574065270008,335.9574065270008,335.9574065270008,335.9574065270008,335.9574065270008,335.9574065270008,335.9574065270008,a,1.682987807000245,1,530,1,337.65929029200015,339.16103555100017,,,,,,,,,,,,,,,,,,,,,,,,,,,,,,,,,,,,,,,,,,,,,,,,,,,,,,,,,,,,,,,,,,,,,55493,2022-10-25_13h56.41.374,vts_reward_expectancy_bt_OFFLINE,2022.2.4,60.137185186996454,
1,0,0,0,0,0,0,1,triangle,star,1,0,1,0,2,8,32,2,,,,,,,,,,,,,,,,,,,,,,,,,,,,,,,,,,,,,,,,339.6615315480012,339.6615315480012,339.6615315480012,339.6615315480012,339.6615315480012,339.6615315480012,339.6615315480012,339.6615315480012,339.6615315480012,339.6615315480012,a,0.5227633849990525,10,540,1,340.2122646360003,341.7138502510006,,,,,,,,,,,,,,,,,,,,,,,,,,,,,,,,,,,,,,,,,,,,,,,,,,,,,,,,,,,,,,,,,,,,,55493,2022-10-25_13h56.41.374,vts_reward_expectancy_bt_OFFLINE,2022.2.4,60.137185186996454,
1,0,0,0,0,1,0,0,triangle,circle,1,0,1,0,2,9,33,0,,,,,,,,,,,,,,,,,,,,,,,,,,,,,,,,,,,,,,,,342.21439668200037,342.21439668200037,342.21439668200037,342.21439668200037,342.21439668200037,342.21439668200037,342.21439668200037,342.21439668200037,342.21439668200037,342.21439668200037,l,0.46626501100035966,1,541,1,342.69822052400013,344.19988821600055,,,,,,,,,,,,,,,,,,,,,,,,,,,,,,,,,,,,,,,,,,,,,,,,,,,,,,,,,,,,,,,,,,,,,55493,2022-10-25_13h56.41.374,vts_reward_expectancy_bt_OFFLINE,2022.2.4,60.137185186996454,
0,1,0,0,0,0,1,0,circle,hexagon,1,0,1,0,2,10,34,4,,,,,,,,,,,,,,,,,,,,,,,,,,,,,,,,,,,,,,,,344.70040003100075,344.70040003100075,344.70040003100075,344.70040003100075,344.70040003100075,344.70040003100075,344.70040003100075,344.70040003100075,344.70040003100075,344.70040003100075,a,0.4187592299986136,10,551,1,345.1510998470003,346.65258618900043,,,,,,,,,,,,,,,,,,,,,,,,,,,,,,,,,,,,,,,,,,,,,,,,,,,,,,,,,,,,,,,,,,,,,55493,2022-10-25_13h56.41.374,vts_reward_expectancy_bt_OFFLINE,2022.2.4,60.137185186996454,
0,0,1,0,0,1,0,0,hexagon,circle,1,0,1,0,2,11,35,7,,,,,,,,,,,,,,,,,,,,,,,,,,,,,,,,,,,,,,,,347.15309443000115,347.15309443000115,347.15309443000115,347.15309443000115,347.15309443000115,347.15309443000115,347.15309443000115,347.15309443000115,347.15309443000115,347.15309443000115,l,0.4546238250004535,10,561,1,347.63703716800046,349.1386764630006,,,,,,,,,,,,,,,,,,,,,,,,,,,,,,,,,,,,,,,,,,,,,,,,,,,,,,,,,,,,,,,,,,,,,55493,2022-10-25_13h56.41.374,vts_reward_expectancy_bt_OFFLINE,2022.2.4,60.137185186996454,
1,0,0,0,0,1,0,0,triangle,circle,1,0,1,0,3,0,36,0,,,,,,,,,,,,,,,,,,,,,,,,,,,,,,,,,,,,,,,,349.6393143100013,349.6393143100013,349.6393143100013,349.6393143100013,349.6393143100013,349.6393143100013,349.6393143100013,349.6393143100013,349.6393143100013,349.6393143100013,l,0.5921442979997664,10,571,1,350.2565813710007,351.7581746249998,,,,,,,,,,,,,,,,,,,,,,,,,,,,,,,,,,,,,,,,,,,,,,,,,,,,,,,,,,,,,,,,,,,,,55493,2022-10-25_13h56.41.374,vts_reward_expectancy_bt_OFFLINE,2022.2.4,60.137185186996454,
0,0,1,0,0,0,0,1,hexagon,star,1,0,1,0,3,1,37,8,,,,,,,,,,,,,,,,,,,,,,,,,,,,,,,,,,,,,,,,352.25888175100044,352.25888175100044,352.25888175100044,352.25888175100044,352.25888175100044,352.25888175100044,352.25888175100044,352.25888175100044,352.25888175100044,352.25888175100044,a,0.4615423159993952,1,572,1,352.7427242619997,354.244278948001,,,,,,,,,,,,,,,,,,,,,,,,,,,,,,,,,,,,,,,,,,,,,,,,,,,,,,,,,,,,,,,,,,,,,55493,2022-10-25_13h56.41.374,vts_reward_expectancy_bt_OFFLINE,2022.2.4,60.137185186996454,
0,0,0,1,0,0,1,0,star,hexagon,1,0,1,0,3,2,38,11,,,,,,,,,,,,,,,,,,,,,,,,,,,,,,,,,,,,,,,,354.7448762940003,354.7448762940003,354.7448762940003,354.7448762940003,354.7448762940003,354.7448762940003,354.7448762940003,354.7448762940003,354.7448762940003,354.7448762940003,l,1.3915169179999793,1,573,1,356.16331406599966,357.6648749040014,,,,,,,,,,,,,,,,,,,,,,,,,,,,,,,,,,,,,,,,,,,,,,,,,,,,,,,,,,,,,,,,,,,,,55493,2022-10-25_13h56.41.374,vts_reward_expectancy_bt_OFFLINE,2022.2.4,60.137185186996454,
0,1,0,0,0,0,0,1,circle,star,1,0,1,0,3,3,39,5,,,,,,,,,,,,,,,,,,,,,,,,,,,,,,,,,,,,,,,,358.16529094200087,358.16529094200087,358.16529094200087,358.16529094200087,358.16529094200087,358.16529094200087,358.16529094200087,358.16529094200087,358.16529094200087,358.16529094200087,a,0.4110185800000181,10,583,1,358.59855580899966,360.10078098899976,,,,,,,,,,,,,,,,,,,,,,,,,,,,,,,,,,,,,,,,,,,,,,,,,,,,,,,,,,,,,,,,,,,,,55493,2022-10-25_13h56.41.374,vts_reward_expectancy_bt_OFFLINE,2022.2.4,60.137185186996454,
0,0,1,0,0,1,0,0,hexagon,circle,1,0,1,0,3,4,40,7,,,,,,,,,,,,,,,,,,,,,,,,,,,,,,,,,,,,,,,,360.60129784200035,360.60129784200035,360.60129784200035,360.60129784200035,360.60129784200035,360.60129784200035,360.60129784200035,360.60129784200035,360.60129784200035,360.60129784200035,l,0.7432416999999987,1,584,1,361.36902772400026,362.8705548580001,,,,,,,,,,,,,,,,,,,,,,,,,,,,,,,,,,,,,,,,,,,,,,,,,,,,,,,,,,,,,,,,,,,,,55493,2022-10-25_13h56.41.374,vts_reward_expectancy_bt_OFFLINE,2022.2.4,60.137185186996454,
1,0,0,0,0,0,0,1,triangle,star,1,0,1,0,3,5,41,2,,,,,,,,,,,,,,,,,,,,,,,,,,,,,,,,,,,,,,,,363.37108965600055,363.37108965600055,363.37108965600055,363.37108965600055,363.37108965600055,363.37108965600055,363.37108965600055,363.37108965600055,363.37108965600055,363.37108965600055,a,0.5569953510002961,10,594,1,363.9551537210009,365.45683783999993,,,,,,,,,,,,,,,,,,,,,,,,,,,,,,,,,,,,,,,,,,,,,,,,,,,,,,,,,,,,,,,,,,,,,55493,2022-10-25_13h56.41.374,vts_reward_expectancy_bt_OFFLINE,2022.2.4,60.137185186996454,
0,1,0,0,1,0,0,0,circle,triangle,1,0,1,0,3,6,42,3,,,,,,,,,,,,,,,,,,,,,,,,,,,,,,,,,,,,,,,,365.9572689760007,365.9572689760007,365.9572689760007,365.9572689760007,365.9572689760007,365.9572689760007,365.9572689760007,365.9572689760007,365.9572689760007,365.9572689760007,a,0.6022245650001423,10,604,1,366.59126689500044,368.09295902899976,,,,,,,,,,,,,,,,,,,,,,,,,,,,,,,,,,,,,,,,,,,,,,,,,,,,,,,,,,,,,,,,,,,,,55493,2022-10-25_13h56.41.374,vts_reward_expectancy_bt_OFFLINE,2022.2.4,60.137185186996454,
1,0,0,0,0,0,1,0,triangle,hexagon,1,0,1,0,3,7,43,1,,,,,,,,,,,,,,,,,,,,,,,,,,,,,,,,,,,,,,,,368.5936094410008,368.5936094410008,368.5936094410008,368.5936094410008,368.5936094410008,368.5936094410008,368.5936094410008,368.5936094410008,368.5936094410008,368.5936094410008,a,1.0624999819992809,1,605,1,369.6780662550009,371.1796717010002,,,,,,,,,,,,,,,,,,,,,,,,,,,,,,,,,,,,,,,,,,,,,,,,,,,,,,,,,,,,,,,,,,,,,55493,2022-10-25_13h56.41.374,vts_reward_expectancy_bt_OFFLINE,2022.2.4,60.137185186996454,
0,0,1,0,1,0,0,0,hexagon,triangle,1,0,1,0,3,8,44,6,,,,,,,,,,,,,,,,,,,,,,,,,,,,,,,,,,,,,,,,371.6803006910013,371.6803006910013,371.6803006910013,371.6803006910013,371.6803006910013,371.6803006910013,371.6803006910013,371.6803006910013,371.6803006910013,371.6803006910013,a,0.7681743829998595,1,606,1,372.4810644200006,373.9828764190006,,,,,,,,,,,,,,,,,,,,,,,,,,,,,,,,,,,,,,,,,,,,,,,,,,,,,,,,,,,,,,,,,,,,,55493,2022-10-25_13h56.41.374,vts_reward_expectancy_bt_OFFLINE,2022.2.4,60.137185186996454,
0,1,0,0,0,0,1,0,circle,hexagon,1,0,1,0,3,9,45,4,,,,,,,,,,,,,,,,,,,,,,,,,,,,,,,,,,,,,,,,374.48328961900006,374.48328961900006,374.48328961900006,374.48328961900006,374.48328961900006,374.48328961900006,374.48328961900006,374.48328961900006,374.48328961900006,374.48328961900006,a,0.517263706000449,1,607,1,375.01728723999986,376.5190069,,,,,,,,,,,,,,,,,,,,,,,,,,,,,,,,,,,,,,,,,,,,,,,,,,,,,,,,,,,,,,,,,,,,,55493,2022-10-25_13h56.41.374,vts_reward_expectancy_bt_OFFLINE,2022.2.4,60.137185186996454,
0,0,0,1,0,1,0,0,star ,circle,1,0,1,0,3,10,46,10,,,,,,,,,,,,,,,,,,,,,,,,,,,,,,,,,,,,,,,,377.0194982140001,377.0194982140001,377.0194982140001,377.0194982140001,377.0194982140001,377.0194982140001,377.0194982140001,377.0194982140001,377.0194982140001,377.0194982140001,l,0.35683733000041684,10,617,1,377.4033538580006,378.9048211730005,,,,,,,,,,,,,,,,,,,,,,,,,,,,,,,,,,,,,,,,,,,,,,,,,,,,,,,,,,,,,,,,,,,,,55493,2022-10-25_13h56.41.374,vts_reward_expectancy_bt_OFFLINE,2022.2.4,60.137185186996454,
0,0,0,1,1,0,0,0,star,triangle,1,0,1,0,3,11,47,9,,,,,,,,,,,,,,,,,,,,,,,,,,,,,,,,,,,,,,,,379.4053196320001,379.4053196320001,379.4053196320001,379.4053196320001,379.4053196320001,379.4053196320001,379.4053196320001,379.4053196320001,379.4053196320001,379.4053196320001,l,0.8347117369994521,1,618,1,380.2728582110012,381.774604694001,,,,,,,,,,,,,,,,,,,,,,,,,,,,,,,,,,,,,,,,,,,,,,,,,,,,,,,,,,,,,,,,,,,,,55493,2022-10-25_13h56.41.374,vts_reward_expectancy_bt_OFFLINE,2022.2.4,60.137185186996454,
1,0,0,0,0,0,0,1,triangle,star,2,0,2,0,0,0,0,2,,,,,,,,,,,,,,,,,,,,,,,,,,,,,,,,,,,,,,,,388.73933770199983,388.73933770199983,388.73933770199983,388.73933770199983,388.73933770199983,388.73933770199983,388.73933770199983,388.73933770199983,388.73933770199983,388.73933770199983,a,2.14769944299951,10,628,2,390.91812642399964,392.4197487199999,,,,,,,,,,,,,,,,,,,,,,,,,,,,,,,,,,,,,,,,,,,,,,,,,,,,,,,,,,,,,,,,,,,,,55493,2022-10-25_13h56.41.374,vts_reward_expectancy_bt_OFFLINE,2022.2.4,60.137185186996454,
0,1,0,0,1,0,0,0,circle,triangle,2,0,2,0,0,1,1,3,,,,,,,,,,,,,,,,,,,,,,,,,,,,,,,,,,,,,,,,392.9202218680002,392.9202218680002,392.9202218680002,392.9202218680002,392.9202218680002,392.9202218680002,392.9202218680002,392.9202218680002,392.9202218680002,392.9202218680002,a,0.5029160150006646,10,638,2,393.45416846100125,394.9558346539998,,,,,,,,,,,,,,,,,,,,,,,,,,,,,,,,,,,,,,,,,,,,,,,,,,,,,,,,,,,,,,,,,,,,,55493,2022-10-25_13h56.41.374,vts_reward_expectancy_bt_OFFLINE,2022.2.4,60.137185186996454,
0,1,0,0,0,0,0,1,circle,star,2,0,2,0,0,2,2,5,,,,,,,,,,,,,,,,,,,,,,,,,,,,,,,,,,,,,,,,395.4564955650003,395.4564955650003,395.4564955650003,395.4564955650003,395.4564955650003,395.4564955650003,395.4564955650003,395.4564955650003,395.4564955650003,395.4564955650003,a,0.6561233220018039,1,639,2,396.14062753800135,397.64210698399984,,,,,,,,,,,,,,,,,,,,,,,,,,,,,,,,,,,,,,,,,,,,,,,,,,,,,,,,,,,,,,,,,,,,,55493,2022-10-25_13h56.41.374,vts_reward_expectancy_bt_OFFLINE,2022.2.4,60.137185186996454,
1,0,0,0,0,1,0,0,triangle,circle,2,0,2,0,0,3,3,0,,,,,,,,,,,,,,,,,,,,,,,,,,,,,,,,,,,,,,,,398.14273097000114,398.14273097000114,398.14273097000114,398.14273097000114,398.14273097000114,398.14273097000114,398.14273097000114,398.14273097000114,398.14273097000114,398.14273097000114,l,0.5060170189990458,10,649,2,398.6766067080007,400.1783687019997,,,,,,,,,,,,,,,,,,,,,,,,,,,,,,,,,,,,,,,,,,,,,,,,,,,,,,,,,,,,,,,,,,,,,55493,2022-10-25_13h56.41.374,vts_reward_expectancy_bt_OFFLINE,2022.2.4,60.137185186996454,
0,0,1,0,0,0,0,1,hexagon,star,2,0,2,0,0,4,4,8,,,,,,,,,,,,,,,,,,,,,,,,,,,,,,,,,,,,,,,,400.6788501120009,400.6788501120009,400.6788501120009,400.6788501120009,400.6788501120009,400.6788501120009,400.6788501120009,400.6788501120009,400.6788501120009,400.6788501120009,l,1.2815459160010505,1,650,2,401.98036409400083,403.4820537530013,,,,,,,,,,,,,,,,,,,,,,,,,,,,,,,,,,,,,,,,,,,,,,,,,,,,,,,,,,,,,,,,,,,,,55493,2022-10-25_13h56.41.374,vts_reward_expectancy_bt_OFFLINE,2022.2.4,60.137185186996454,
0,1,0,0,0,0,1,0,circle,hexagon,2,0,2,0,0,5,5,4,,,,,,,,,,,,,,,,,,,,,,,,,,,,,,,,,,,,,,,,403.98247347300094,403.98247347300094,403.98247347300094,403.98247347300094,403.98247347300094,403.98247347300094,403.98247347300094,403.98247347300094,403.98247347300094,403.98247347300094,a,0.5456428069992398,10,660,2,404.5497358800003,406.0514915040003,,,,,,,,,,,,,,,,,,,,,,,,,,,,,,,,,,,,,,,,,,,,,,,,,,,,,,,,,,,,,,,,,,,,,55493,2022-10-25_13h56.41.374,vts_reward_expectancy_bt_OFFLINE,2022.2.4,60.137185186996454,
0,0,1,0,0,1,0,0,hexagon,circle,2,0,2,0,0,6,6,7,,,,,,,,,,,,,,,,,,,,,,,,,,,,,,,,,,,,,,,,406.5519782070005,406.5519782070005,406.5519782070005,406.5519782070005,406.5519782070005,406.5519782070005,406.5519782070005,406.5519782070005,406.5519782070005,406.5519782070005,a,1.0005434819995571,1,661,2,407.56995027000085,409.0714679900011,,,,,,,,,,,,,,,,,,,,,,,,,,,,,,,,,,,,,,,,,,,,,,,,,,,,,,,,,,,,,,,,,,,,,55493,2022-10-25_13h56.41.374,vts_reward_expectancy_bt_OFFLINE,2022.2.4,60.137185186996454,
1,0,0,0,0,0,1,0,triangle,hexagon,2,0,2,0,0,7,7,1,,,,,,,,,,,,,,,,,,,,,,,,,,,,,,,,,,,,,,,,409.572019661,409.572019661,409.572019661,409.572019661,409.572019661,409.572019661,409.572019661,409.572019661,409.572019661,409.572019661,a,0.8846999639990827,10,671,2,410.4896500240011,411.99146487300095,,,,,,,,,,,,,,,,,,,,,,,,,,,,,,,,,,,,,,,,,,,,,,,,,,,,,,,,,,,,,,,,,,,,,55493,2022-10-25_13h56.41.374,vts_reward_expectancy_bt_OFFLINE,2022.2.4,60.137185186996454,
0,0,0,1,0,1,0,0,star ,circle,2,0,2,0,0,8,8,10,,,,,,,,,,,,,,,,,,,,,,,,,,,,,,,,,,,,,,,,412.4919112830012,412.4919112830012,412.4919112830012,412.4919112830012,412.4919112830012,412.4919112830012,412.4919112830012,412.4919112830012,412.4919112830012,412.4919112830012,l,0.4840892550000717,10,681,2,413.00901471399993,414.5107855160004,,,,,,,,,,,,,,,,,,,,,,,,,,,,,,,,,,,,,,,,,,,,,,,,,,,,,,,,,,,,,,,,,,,,,55493,2022-10-25_13h56.41.374,vts_reward_expectancy_bt_OFFLINE,2022.2.4,60.137185186996454,
0,0,0,1,0,0,1,0,star,hexagon,2,0,2,0,0,9,9,11,,,,,,,,,,,,,,,,,,,,,,,,,,,,,,,,,,,,,,,,415.01129000400033,415.01129000400033,415.01129000400033,415.01129000400033,415.01129000400033,415.01129000400033,415.01129000400033,415.01129000400033,415.01129000400033,415.01129000400033,l,0.557049762999668,1,682,2,415.5952375369998,417.09703472300134,,,,,,,,,,,,,,,,,,,,,,,,,,,,,,,,,,,,,,,,,,,,,,,,,,,,,,,,,,,,,,,,,,,,,55493,2022-10-25_13h56.41.374,vts_reward_expectancy_bt_OFFLINE,2022.2.4,60.137185186996454,
0,0,0,1,1,0,0,0,star,triangle,2,0,2,0,0,10,10,9,,,,,,,,,,,,,,,,,,,,,,,,,,,,,,,,,,,,,,,,417.59738858700075,417.59738858700075,417.59738858700075,417.59738858700075,417.59738858700075,417.59738858700075,417.59738858700075,417.59738858700075,417.59738858700075,417.59738858700075,l,0.5704175990013027,1,683,2,418.198070456001,419.69989868500124,,,,,,,,,,,,,,,,,,,,,,,,,,,,,,,,,,,,,,,,,,,,,,,,,,,,,,,,,,,,,,,,,,,,,55493,2022-10-25_13h56.41.374,vts_reward_expectancy_bt_OFFLINE,2022.2.4,60.137185186996454,
0,0,1,0,1,0,0,0,hexagon,triangle,2,0,2,0,0,11,11,6,,,,,,,,,,,,,,,,,,,,,,,,,,,,,,,,,,,,,,,,420.2004205310004,420.2004205310004,420.2004205310004,420.2004205310004,420.2004205310004,420.2004205310004,420.2004205310004,420.2004205310004,420.2004205310004,420.2004205310004,a,0.7034831009987101,10,693,2,420.93452812800024,422.43623315200057,,,,,,,,,,,,,,,,,,,,,,,,,,,,,,,,,,,,,,,,,,,,,,,,,,,,,,,,,,,,,,,,,,,,,55493,2022-10-25_13h56.41.374,vts_reward_expectancy_bt_OFFLINE,2022.2.4,60.137185186996454,
0,0,1,0,0,0,0,1,hexagon,star,2,0,2,0,1,0,12,8,,,,,,,,,,,,,,,,,,,,,,,,,,,,,,,,,,,,,,,,422.9367327500004,422.9367327500004,422.9367327500004,422.9367327500004,422.9367327500004,422.9367327500004,422.9367327500004,422.9367327500004,422.9367327500004,422.9367327500004,a,0.4872070099991106,1,694,2,423.45409596100035,424.9556732889996,,,,,,,,,,,,,,,,,,,,,,,,,,,,,,,,,,,,,,,,,,,,,,,,,,,,,,,,,,,,,,,,,,,,,55493,2022-10-25_13h56.41.374,vts_reward_expectancy_bt_OFFLINE,2022.2.4,60.137185186996454,
0,0,0,1,0,0,1,0,star,hexagon,2,0,2,0,1,1,13,11,,,,,,,,,,,,,,,,,,,,,,,,,,,,,,,,,,,,,,,,425.4562251660009,425.4562251660009,425.4562251660009,425.4562251660009,425.4562251660009,425.4562251660009,425.4562251660009,425.4562251660009,425.4562251660009,425.4562251660009,l,0.40027139099947817,1,695,2,425.87340596300055,427.37500431400076,427.37500431400076,,,,,,,,,,,,,,,,,,,,,,,,,,,,,,,,,,,,,,,,,,,,,,,,,,,,,,,,,,,,,,,,,,,,55493,2022-10-25_13h56.41.374,vts_reward_expectancy_bt_OFFLINE,2022.2.4,60.137185186996454,
0,1,0,0,0,0,0,1,circle,star,2,0,2,0,1,2,14,5,,,,,,,,,,,,,,,,,,,,,,,,,,,,,,,,,,,,,,,,427.87550988099974,427.87550988099974,427.87550988099974,427.87550988099974,427.87550988099974,427.87550988099974,427.87550988099974,427.87550988099974,427.87550988099974,427.87550988099974,a,0.4202638119986659,10,705,2,428.3262713210006,429.82770892200097,,,,,,,,,,,,,,,,,,,,,,,,,,,,,,,,,,,,,,,,,,,,,,,,,,,,,,,,,,,,,,,,,,,,,55493,2022-10-25_13h56.41.374,vts_reward_expectancy_bt_OFFLINE,2022.2.4,60.137185186996454,
1,0,0,0,0,0,1,0,triangle,hexagon,2,0,2,0,1,3,15,1,,,,,,,,,,,,,,,,,,,,,,,,,,,,,,,,,,,,,,,,430.32843774700086,430.32843774700086,430.32843774700086,430.32843774700086,430.32843774700086,430.32843774700086,430.32843774700086,430.32843774700086,430.32843774700086,430.32843774700086,a,0.6559274370010826,1,706,2,431.01232454800083,432.5139381930003,,,,,,,,,,,,,,,,,,,,,,,,,,,,,,,,,,,,,,,,,,,,,,,,,,,,,,,,,,,,,,,,,,,,,55493,2022-10-25_13h56.41.374,vts_reward_expectancy_bt_OFFLINE,2022.2.4,60.137185186996454,
1,0,0,0,0,1,0,0,triangle,circle,2,0,2,0,1,4,16,0,,,,,,,,,,,,,,,,,,,,,,,,,,,,,,,,,,,,,,,,433.0146845550007,433.0146845550007,433.0146845550007,433.0146845550007,433.0146845550007,433.0146845550007,433.0146845550007,433.0146845550007,433.0146845550007,433.0146845550007,l,0.6405856310011586,10,716,2,433.68183164200127,435.1837092229998,,,,,,,,,,,,,,,,,,,,,,,,,,,,,,,,,,,,,,,,,,,,,,,,,,,,,,,,,,,,,,,,,,,,,55493,2022-10-25_13h56.41.374,vts_reward_expectancy_bt_OFFLINE,2022.2.4,60.137185186996454,
0,0,1,0,1,0,0,0,hexagon,triangle,2,0,2,0,1,5,17,6,,,,,,,,,,,,,,,,,,,,,,,,,,,,,,,,,,,,,,,,435.6841706280011,435.6841706280011,435.6841706280011,435.6841706280011,435.6841706280011,435.6841706280011,435.6841706280011,435.6841706280011,435.6841706280011,435.6841706280011,l,1.2918179200005397,10,726,2,437.00230354700034,438.503891235001,,,,,,,,,,,,,,,,,,,,,,,,,,,,,,,,,,,,,,,,,,,,,,,,,,,,,,,,,,,,,,,,,,,,,55493,2022-10-25_13h56.41.374,vts_reward_expectancy_bt_OFFLINE,2022.2.4,60.137185186996454,
0,1,0,0,1,0,0,0,circle,triangle,2,0,2,0,1,6,18,3,,,,,,,,,,,,,,,,,,,,,,,,,,,,,,,,,,,,,,,,439.00465776000055,439.00465776000055,439.00465776000055,439.00465776000055,439.00465776000055,439.00465776000055,439.00465776000055,439.00465776000055,439.00465776000055,439.00465776000055,a,0.5407453309999255,1,727,2,439.5717546490014,441.07342772500124,,,,,,,,,,,,,,,,,,,,,,,,,,,,,,,,,,,,,,,,,,,,,,,,,,,,,,,,,,,,,,,,,,,,,55493,2022-10-25_13h56.41.374,vts_reward_expectancy_bt_OFFLINE,2022.2.4,60.137185186996454,
0,0,1,0,0,1,0,0,hexagon,circle,2,0,2,0,1,7,19,7,,,,,,,,,,,,,,,,,,,,,,,,,,,,,,,,,,,,,,,,441.57392854700083,441.57392854700083,441.57392854700083,441.57392854700083,441.57392854700083,441.57392854700083,441.57392854700083,441.57392854700083,441.57392854700083,441.57392854700083,l,0.4255276190015138,10,737,2,442.0244385820006,443.5260175170006,,,,,,,,,,,,,,,,,,,,,,,,,,,,,,,,,,,,,,,,,,,,,,,,,,,,,,,,,,,,,,,,,,,,,55493,2022-10-25_13h56.41.374,vts_reward_expectancy_bt_OFFLINE,2022.2.4,60.137185186996454,
0,1,0,0,0,0,1,0,circle,hexagon,2,0,2,0,1,8,20,4,,,,,,,,,,,,,,,,,,,,,,,,,,,,,,,,,,,,,,,,444.0266365410007,444.0266365410007,444.0266365410007,444.0266365410007,444.0266365410007,444.0266365410007,444.0266365410007,444.0266365410007,444.0266365410007,444.0266365410007,a,0.4854120910003985,10,747,2,444.54388225300136,446.04567394399965,,,,,,,,,,,,,,,,,,,,,,,,,,,,,,,,,,,,,,,,,,,,,,,,,,,,,,,,,,,,,,,,,,,,,55493,2022-10-25_13h56.41.374,vts_reward_expectancy_bt_OFFLINE,2022.2.4,60.137185186996454,
0,0,0,1,0,1,0,0,star ,circle,2,0,2,0,1,9,21,10,,,,,,,,,,,,,,,,,,,,,,,,,,,,,,,,,,,,,,,,446.54615065800135,446.54615065800135,446.54615065800135,446.54615065800135,446.54615065800135,446.54615065800135,446.54615065800135,446.54615065800135,446.54615065800135,446.54615065800135,l,0.5504899669995211,10,757,2,447.1134535520014,448.61532355800045,,,,,,,,,,,,,,,,,,,,,,,,,,,,,,,,,,,,,,,,,,,,,,,,,,,,,,,,,,,,,,,,,,,,,55493,2022-10-25_13h56.41.374,vts_reward_expectancy_bt_OFFLINE,2022.2.4,60.137185186996454,
1,0,0,0,0,0,0,1,triangle,star,2,0,2,0,1,10,22,2,,,,,,,,,,,,,,,,,,,,,,,,,,,,,,,,,,,,,,,,449.11571405799987,449.11571405799987,449.11571405799987,449.11571405799987,449.11571405799987,449.11571405799987,449.11571405799987,449.11571405799987,449.11571405799987,449.11571405799987,a,0.5330337940013123,10,767,2,449.66626741599976,451.1679676720014,,,,,,,,,,,,,,,,,,,,,,,,,,,,,,,,,,,,,,,,,,,,,,,,,,,,,,,,,,,,,,,,,,,,,55493,2022-10-25_13h56.41.374,vts_reward_expectancy_bt_OFFLINE,2022.2.4,60.137185186996454,
0,0,0,1,1,0,0,0,star,triangle,2,0,2,0,1,11,23,9,,,,,,,,,,,,,,,,,,,,,,,,,,,,,,,,,,,,,,,,451.66842629700113,451.66842629700113,451.66842629700113,451.66842629700113,451.66842629700113,451.66842629700113,451.66842629700113,451.66842629700113,451.66842629700113,451.66842629700113,l,0.4837622739996732,10,777,2,452.1690897740009,453.6706549900009,,,,,,,,,,,,,,,,,,,,,,,,,,,,,,,,,,,,,,,,,,,,,,,,,,,,,,,,,,,,,,,,,,,,,55493,2022-10-25_13h56.41.374,vts_reward_expectancy_bt_OFFLINE,2022.2.4,60.137185186996454,
0,0,0,1,1,0,0,0,star,triangle,2,0,2,0,2,0,24,9,,,,,,,,,,,,,,,,,,,,,,,,,,,,,,,,,,,,,,,,454.1710673360012,454.1710673360012,454.1710673360012,454.1710673360012,454.1710673360012,454.1710673360012,454.1710673360012,454.1710673360012,454.1710673360012,454.1710673360012,l,0.5656669729996793,1,778,2,454.7551977960011,456.2568783700008,,,,,,,,,,,,,,,,,,,,,,,,,,,,,,,,,,,,,,,,,,,,,,,,,,,,,,,,,,,,,,,,,,,,,55493,2022-10-25_13h56.41.374,vts_reward_expectancy_bt_OFFLINE,2022.2.4,60.137185186996454,
0,0,1,0,1,0,0,0,hexagon,triangle,2,0,2,0,2,1,25,6,,,,,,,,,,,,,,,,,,,,,,,,,,,,,,,,,,,,,,,,456.7573510380007,456.7573510380007,456.7573510380007,456.7573510380007,456.7573510380007,456.7573510380007,456.7573510380007,456.7573510380007,456.7573510380007,456.7573510380007,l,0.7785461760013277,1,779,2,457.55828215600013,459.05992725800024,,,,,,,,,,,,,,,,,,,,,,,,,,,,,,,,,,,,,,,,,,,,,,,,,,,,,,,,,,,,,,,,,,,,,55493,2022-10-25_13h56.41.374,vts_reward_expectancy_bt_OFFLINE,2022.2.4,60.137185186996454,
0,0,1,0,0,1,0,0,hexagon,circle,2,0,2,0,2,2,26,7,,,,,,,,,,,,,,,,,,,,,,,,,,,,,,,,,,,,,,,,459.56048061300135,459.56048061300135,459.56048061300135,459.56048061300135,459.56048061300135,459.56048061300135,459.56048061300135,459.56048061300135,459.56048061300135,459.56048061300135,l,0.5753608899995015,10,789,2,460.16122709200135,461.66277800900025,,,,,,,,,,,,,,,,,,,,,,,,,,,,,,,,,,,,,,,,,,,,,,,,,,,,,,,,,,,,,,,,,,,,,55493,2022-10-25_13h56.41.374,vts_reward_expectancy_bt_OFFLINE,2022.2.4,60.137185186996454,
0,1,0,0,1,0,0,0,circle,triangle,2,0,2,0,2,3,27,3,,,,,,,,,,,,,,,,,,,,,,,,,,,,,,,,,,,,,,,,462.16323415400075,462.16323415400075,462.16323415400075,462.16323415400075,462.16323415400075,462.16323415400075,462.16323415400075,462.16323415400075,462.16323415400075,462.16323415400075,a,1.1252214489995822,1,790,2,463.31472349199976,464.8162798020003,,,,,,,,,,,,,,,,,,,,,,,,,,,,,,,,,,,,,,,,,,,,,,,,,,,,,,,,,,,,,,,,,,,,,55493,2022-10-25_13h56.41.374,vts_reward_expectancy_bt_OFFLINE,2022.2.4,60.137185186996454,
1,0,0,0,0,1,0,0,triangle,circle,2,0,2,0,2,4,28,0,,,,,,,,,,,,,,,,,,,,,,,,,,,,,,,,,,,,,,,,465.31693568300034,465.31693568300034,465.31693568300034,465.31693568300034,465.31693568300034,465.31693568300034,465.31693568300034,465.31693568300034,465.31693568300034,465.31693568300034,l,2.0422607279997465,10,800,2,467.385760612,468.887454138001,,,,,,,,,,,,,,,,,,,,,,,,,,,,,,,,,,,,,,,,,,,,,,,,,,,,,,,,,,,,,,,,,,,,,55493,2022-10-25_13h56.41.374,vts_reward_expectancy_bt_OFFLINE,2022.2.4,60.137185186996454,
0,1,0,0,0,0,0,1,circle,star,2,0,2,0,2,5,29,5,,,,,,,,,,,,,,,,,,,,,,,,,,,,,,,,,,,,,,,,469.38795693999964,469.38795693999964,469.38795693999964,469.38795693999964,469.38795693999964,469.38795693999964,469.38795693999964,469.38795693999964,469.38795693999964,469.38795693999964,a,0.8607613330004824,10,810,2,470.27231041100094,471.77388357200107,,,,,,,,,,,,,,,,,,,,,,,,,,,,,,,,,,,,,,,,,,,,,,,,,,,,,,,,,,,,,,,,,,,,,55493,2022-10-25_13h56.41.374,vts_reward_expectancy_bt_OFFLINE,2022.2.4,60.137185186996454,
0,0,0,1,0,1,0,0,star ,circle,2,0,2,0,2,6,30,10,,,,,,,,,,,,,,,,,,,,,,,,,,,,,,,,,,,,,,,,472.27452118600013,472.27452118600013,472.27452118600013,472.27452118600013,472.27452118600013,472.27452118600013,472.27452118600013,472.27452118600013,472.27452118600013,472.27452118600013,a,1.245772031001252,10,820,2,473.5427013860008,475.04426357900047,,,,,,,,,,,,,,,,,,,,,,,,,,,,,,,,,,,,,,,,,,,,,,,,,,,,,,,,,,,,,,,,,,,,,55493,2022-10-25_13h56.41.374,vts_reward_expectancy_bt_OFFLINE,2022.2.4,60.137185186996454,
1,0,0,0,0,0,1,0,triangle,hexagon,2,0,2,0,2,7,31,1,,,,,,,,,,,,,,,,,,,,,,,,,,,,,,,,,,,,,,,,475.54481431600107,475.54481431600107,475.54481431600107,475.54481431600107,475.54481431600107,475.54481431600107,475.54481431600107,475.54481431600107,475.54481431600107,475.54481431600107,a,1.6077265550011361,10,830,2,477.17989767200015,478.6817193650004,,,,,,,,,,,,,,,,,,,,,,,,,,,,,,,,,,,,,,,,,,,,,,,,,,,,,,,,,,,,,,,,,,,,,55493,2022-10-25_13h56.41.374,vts_reward_expectancy_bt_OFFLINE,2022.2.4,60.137185186996454,
0,1,0,0,0,0,1,0,circle,hexagon,2,0,2,0,2,8,32,4,,,,,,,,,,,,,,,,,,,,,,,,,,,,,,,,,,,,,,,,479.1821054990014,479.1821054990014,479.1821054990014,479.1821054990014,479.1821054990014,479.1821054990014,479.1821054990014,479.1821054990014,479.1821054990014,479.1821054990014,a,2.121464168001694,10,840,2,481.3345689630005,482.8361485020014,,,,,,,,,,,,,,,,,,,,,,,,,,,,,,,,,,,,,,,,,,,,,,,,,,,,,,,,,,,,,,,,,,,,,55493,2022-10-25_13h56.41.374,vts_reward_expectancy_bt_OFFLINE,2022.2.4,60.137185186996454,
0,0,1,0,0,0,0,1,hexagon,star,2,0,2,0,2,9,33,8,,,,,,,,,,,,,,,,,,,,,,,,,,,,,,,,,,,,,,,,483.3368320509999,483.3368320509999,483.3368320509999,483.3368320509999,483.3368320509999,483.3368320509999,483.3368320509999,483.3368320509999,483.3368320509999,483.3368320509999,a,1.8473656619989924,1,841,2,485.2054729909996,486.70710182400035,,,,,,,,,,,,,,,,,,,,,,,,,,,,,,,,,,,,,,,,,,,,,,,,,,,,,,,,,,,,,,,,,,,,,55493,2022-10-25_13h56.41.374,vts_reward_expectancy_bt_OFFLINE,2022.2.4,60.137185186996454,
0,0,0,1,0,0,1,0,star,hexagon,2,0,2,0,2,10,34,11,,,,,,,,,,,,,,,,,,,,,,,,,,,,,,,,,,,,,,,,487.2076391339997,487.2076391339997,487.2076391339997,487.2076391339997,487.2076391339997,487.2076391339997,487.2076391339997,487.2076391339997,487.2076391339997,487.2076391339997,a,1.3925433519998478,1,842,2,488.62584902399976,490.12741460800135,,,,,,,,,,,,,,,,,,,,,,,,,,,,,,,,,,,,,,,,,,,,,,,,,,,,,,,,,,,,,,,,,,,,,55493,2022-10-25_13h56.41.374,vts_reward_expectancy_bt_OFFLINE,2022.2.4,60.137185186996454,
1,0,0,0,0,0,0,1,triangle,star,2,0,2,0,2,11,35,2,,,,,,,,,,,,,,,,,,,,,,,,,,,,,,,,,,,,,,,,490.628045681,490.628045681,490.628045681,490.628045681,490.628045681,490.628045681,490.628045681,490.628045681,490.628045681,490.628045681,a,0.8685785320012656,10,852,2,491.52901667399965,493.0307023910009,,,,,,,,,,,,,,,,,,,,,,,,,,,,,,,,,,,,,,,,,,,,,,,,,,,,,,,,,,,,,,,,,,,,,55493,2022-10-25_13h56.41.374,vts_reward_expectancy_bt_OFFLINE,2022.2.4,60.137185186996454,
0,0,0,1,0,0,1,0,star,hexagon,2,0,2,0,3,0,36,11,,,,,,,,,,,,,,,,,,,,,,,,,,,,,,,,,,,,,,,,493.53118747900044,493.53118747900044,493.53118747900044,493.53118747900044,493.53118747900044,493.53118747900044,493.53118747900044,493.53118747900044,493.53118747900044,493.53118747900044,a,1.5013635180002893,1,853,2,495.04946002900033,496.55112309000106,,,,,,,,,,,,,,,,,,,,,,,,,,,,,,,,,,,,,,,,,,,,,,,,,,,,,,,,,,,,,,,,,,,,,55493,2022-10-25_13h56.41.374,vts_reward_expectancy_bt_OFFLINE,2022.2.4,60.137185186996454,
0,0,1,0,0,1,0,0,hexagon,circle,2,0,2,0,3,1,37,7,,,,,,,,,,,,,,,,,,,,,,,,,,,,,,,,,,,,,,,,497.0516705299997,497.0516705299997,497.0516705299997,497.0516705299997,497.0516705299997,497.0516705299997,497.0516705299997,497.0516705299997,497.0516705299997,497.0516705299997,l,0.587945301000218,10,863,2,497.66905506200055,499.17088562699973,,,,,,,,,,,,,,,,,,,,,,,,,,,,,,,,,,,,,,,,,,,,,,,,,,,,,,,,,,,,,,,,,,,,,55493,2022-10-25_13h56.41.374,vts_reward_expectancy_bt_OFFLINE,2022.2.4,60.137185186996454,
1,0,0,0,0,1,0,0,triangle,circle,2,0,2,0,3,2,38,0,,,,,,,,,,,,,,,,,,,,,,,,,,,,,,,,,,,,,,,,499.6714495770011,499.6714495770011,499.6714495770011,499.6714495770011,499.6714495770011,499.6714495770011,499.6714495770011,499.6714495770011,499.6714495770011,499.6714495770011,l,0.5205469760003325,10,873,2,500.222027197,501.7237001930007,,,,,,,,,,,,,,,,,,,,,,,,,,,,,,,,,,,,,,,,,,,,,,,,,,,,,,,,,,,,,,,,,,,,,55493,2022-10-25_13h56.41.374,vts_reward_expectancy_bt_OFFLINE,2022.2.4,60.137185186996454,
0,0,1,0,1,0,0,0,hexagon,triangle,2,0,2,0,3,3,39,6,,,,,,,,,,,,,,,,,,,,,,,,,,,,,,,,,,,,,,,,502.22433525999986,502.22433525999986,502.22433525999986,502.22433525999986,502.22433525999986,502.22433525999986,502.22433525999986,502.22433525999986,502.22433525999986,502.22433525999986,l,0.8954228830007196,10,883,2,503.1419554310014,504.6437103650005,,,,,,,,,,,,,,,,,,,,,,,,,,,,,,,,,,,,,,,,,,,,,,,,,,,,,,,,,,,,,,,,,,,,,55493,2022-10-25_13h56.41.374,vts_reward_expectancy_bt_OFFLINE,2022.2.4,60.137185186996454,
1,0,0,0,0,0,0,1,triangle,star,2,0,2,0,3,4,40,2,,,,,,,,,,,,,,,,,,,,,,,,,,,,,,,,,,,,,,,,505.14414930900057,505.14414930900057,505.14414930900057,505.14414930900057,505.14414930900057,505.14414930900057,505.14414930900057,505.14414930900057,505.14414930900057,505.14414930900057,l,0.9273977920001926,1,884,2,506.09607348400095,507.59680291100085,,,,,,,,,,,,,,,,,,,,,,,,,,,,,,,,,,,,,,,,,,,,,,,,,,,,,,,,,,,,,,,,,,,,,55493,2022-10-25_13h56.41.374,vts_reward_expectancy_bt_OFFLINE,2022.2.4,60.137185186996454,
0,1,0,0,0,0,1,0,circle,hexagon,2,0,2,0,3,5,41,4,,,,,,,,,,,,,,,,,,,,,,,,,,,,,,,,,,,,,,,,508.09737504199984,508.09737504199984,508.09737504199984,508.09737504199984,508.09737504199984,508.09737504199984,508.09737504199984,508.09737504199984,508.09737504199984,508.09737504199984,a,0.5830231759991875,1,885,2,508.6981604040011,510.19973004700114,,,,,,,,,,,,,,,,,,,,,,,,,,,,,,,,,,,,,,,,,,,,,,,,,,,,,,,,,,,,,,,,,,,,,55493,2022-10-25_13h56.41.374,vts_reward_expectancy_bt_OFFLINE,2022.2.4,60.137185186996454,
1,0,0,0,0,0,1,0,triangle,hexagon,2,0,2,0,3,6,42,1,,,,,,,,,,,,,,,,,,,,,,,,,,,,,,,,,,,,,,,,510.700240776001,510.700240776001,510.700240776001,510.700240776001,510.700240776001,510.700240776001,510.700240776001,510.700240776001,510.700240776001,510.700240776001,a,0.7638447440003802,10,895,2,511.48435452299964,512.9861290650006,,,,,,,,,,,,,,,,,,,,,,,,,,,,,,,,,,,,,,,,,,,,,,,,,,,,,,,,,,,,,,,,,,,,,55493,2022-10-25_13h56.41.374,vts_reward_expectancy_bt_OFFLINE,2022.2.4,60.137185186996454,
0,1,0,0,1,0,0,0,circle,triangle,2,0,2,0,3,7,43,3,,,,,,,,,,,,,,,,,,,,,,,,,,,,,,,,,,,,,,,,513.4865432940005,513.4865432940005,513.4865432940005,513.4865432940005,513.4865432940005,513.4865432940005,513.4865432940005,513.4865432940005,513.4865432940005,513.4865432940005,a,0.5527123409992782,1,896,2,514.0705892810001,515.5722599420005,,,,,,,,,,,,,,,,,,,,,,,,,,,,,,,,,,,,,,,,,,,,,,,,,,,,,,,,,,,,,,,,,,,,,55493,2022-10-25_13h56.41.374,vts_reward_expectancy_bt_OFFLINE,2022.2.4,60.137185186996454,
0,0,1,0,0,0,0,1,hexagon,star,2,0,2,0,3,8,44,8,,,,,,,,,,,,,,,,,,,,,,,,,,,,,,,,,,,,,,,,516.0728852280008,516.0728852280008,516.0728852280008,516.0728852280008,516.0728852280008,516.0728852280008,516.0728852280008,516.0728852280008,516.0728852280008,516.0728852280008,a,1.0233873309989576,1,897,2,517.1238937569997,518.6255384560009,,,,,,,,,,,,,,,,,,,,,,,,,,,,,,,,,,,,,,,,,,,,,,,,,,,,,,,,,,,,,,,,,,,,,55493,2022-10-25_13h56.41.374,vts_reward_expectancy_bt_OFFLINE,2022.2.4,60.137185186996454,
0,1,0,0,0,0,0,1,circle,star,2,0,2,0,3,9,45,5,,,,,,,,,,,,,,,,,,,,,,,,,,,,,,,,,,,,,,,,519.1260643620008,519.1260643620008,519.1260643620008,519.1260643620008,519.1260643620008,519.1260643620008,519.1260643620008,519.1260643620008,519.1260643620008,519.1260643620008,a,0.3615369430008286,10,907,2,519.509932246001,521.011405872001,,,,,,,,,,,,,,,,,,,,,,,,,,,,,,,,,,,,,,,,,,,,,,,,,,,,,,,,,,,,,,,,,,,,,55493,2022-10-25_13h56.41.374,vts_reward_expectancy_bt_OFFLINE,2022.2.4,60.137185186996454,
0,0,0,1,0,1,0,0,star ,circle,2,0,2,0,3,10,46,10,,,,,,,,,,,,,,,,,,,,,,,,,,,,,,,,,,,,,,,,521.5120894000011,521.5120894000011,521.5120894000011,521.5120894000011,521.5120894000011,521.5120894000011,521.5120894000011,521.5120894000011,521.5120894000011,521.5120894000011,l,0.4725233049994131,10,917,2,522.012406418,523.5143859430009,,,,,,,,,,,,,,,,,,,,,,,,,,,,,,,,,,,,,,,,,,,,,,,,,,,,,,,,,,,,,,,,,,,,,55493,2022-10-25_13h56.41.374,vts_reward_expectancy_bt_OFFLINE,2022.2.4,60.137185186996454,
0,0,0,1,1,0,0,0,star,triangle,2,0,2,0,3,11,47,9,,,,,,,,,,,,,,,,,,,,,,,,,,,,,,,,,,,,,,,,524.0148094150009,524.0148094150009,524.0148094150009,524.0148094150009,524.0148094150009,524.0148094150009,524.0148094150009,524.0148094150009,524.0148094150009,524.0148094150009,l,0.5684246780001558,10,927,2,524.6155640720008,526.1172563380005,,,,,,,,,,,,,,,,,,,,,,,,,,,,,,,,,,,,,,,,,,,,,,,,,,,,,,,,,,,,,,,,,,,,,55493,2022-10-25_13h56.41.374,vts_reward_expectancy_bt_OFFLINE,2022.2.4,60.137185186996454,
,,,,,,,,,,,,,,,,,,0,0,0,0,0,0,0,0,,,,,,,,,,,,,,,,,,,,,,,,,,,,,,,,,,,,,,,,,,,,,,,,587.3347226120004,,160,W,star,0.0021412360001704656,582.4106387110005,583.9143392220012,583.9143392220012,583.9143392220012,1,0,f,1.9019844440008455,0,585.834795187,,,,,,,,,,,,,,,,,,,,,,,,,,,,,,,,,,,,,,,,,,,,,,,,,,,,,,55493,2022-10-25_13h56.41.374,vts_reward_expectancy_bt_OFFLINE,2022.2.4,60.137185186996454,
,,,,,,,,,,,,,,,,,,0,0,0,0,1,0,1,0,,,,,,,,,,,,,,,,,,,,,,,,,,,,,,,,,,,,,,,,,,,,,,,,592.974293489,,125,H,hexagon,0.001328843000010238,588.3159564770012,589.8210632150003,589.8210632150003,589.8210632150003,1,0,d,1.6264605119995394,0,591.4727299570004,,,,,,,,,,,,,,,,,,,,,,,,,,,,,,,,,,,,,,,,,,,,,,,,,,,,,,55493,2022-10-25_13h56.41.374,vts_reward_expectancy_bt_OFFLINE,2022.2.4,60.137185186996454,
,,,,,,,,,,,,,,,,,,0,0,0,0,2,0,2,0,,,,,,,,,,,,,,,,,,,,,,,,,,,,,,,,,,,,,,,,,,,,,,,,597.9132119280002,,146,S,circle,0.0017119860003731446,593.9549855470013,595.4604280559997,595.4604280559997,595.4604280559997,1,0,d,0.932029716001125,0,596.4114437740009,,,,,,,,,,,,,,,,,,,,,,,,,,,,,,,,,,,,,,,,,,,,,,,,,,,,,,55493,2022-10-25_13h56.41.374,vts_reward_expectancy_bt_OFFLINE,2022.2.4,60.137185186996454,
,,,,,,,,,,,,,,,,,,0,0,0,0,3,0,3,0,,,,,,,,,,,,,,,,,,,,,,,,,,,,,,,,,,,,,,,,,,,,,,,,602.6182543100003,,139,Y,triangle,0.00154873400060751,598.8956248150007,600.3990896690011,600.3990896690011,600.3990896690011,1,0,d,0.6899034870002652,0,601.1165010650002,,,,,,,,,,,,,,,,,,,,,,,,,,,,,,,,,,,,,,,,,,,,,,,,,,,,,,55493,2022-10-25_13h56.41.374,vts_reward_expectancy_bt_OFFLINE,2022.2.4,60.137185186996454,
,,,,,,,,,,,,,,,,,,0,0,0,0,4,0,4,0,,,,,,,,,,,,,,,,,,,,,,,,,,,,,,,,,,,,,,,,,,,,,,,,607.2067513680013,,174,U,circle,0.001722169999993639,603.601014717,605.1044589419998,605.1044589419998,605.1044589419998,1,0,f,0.5752583980010968,0,605.7050497510008,,,,,,,,,,,,,,,,,,,,,,,,,,,,,,,,,,,,,,,,,,,,,,,,,,,,,,55493,2022-10-25_13h56.41.374,vts_reward_expectancy_bt_OFFLINE,2022.2.4,60.137185186996454,
,,,,,,,,,,,,,,,,,,0,0,0,0,5,0,5,0,,,,,,,,,,,,,,,,,,,,,,,,,,,,,,,,,,,,,,,,,,,,,,,,612.162205134,,167,B,star,0.0014795080005569616,608.1860730090011,609.6927612220006,609.6927612220006,609.6927612220006,1,0,f,0.9395354560001579,0,610.660414078,,,,,,,,,,,,,,,,,,,,,,,,,,,,,,,,,,,,,,,,,,,,,,,,,,,,,,55493,2022-10-25_13h56.41.374,vts_reward_expectancy_bt_OFFLINE,2022.2.4,60.137185186996454,
,,,,,,,,,,,,,,,,,,0,0,0,0,6,0,6,0,,,,,,,,,,,,,,,,,,,,,,,,,,,,,,,,,,,,,,,,,,,,,,,,616.900881294001,,132,D,hexagon,0.001609404998816899,613.1416023490001,614.6484895810008,614.6484895810008,614.6484895810008,1,0,d,0.7196216199990886,0,615.3993457289998,,,,,,,,,,,,,,,,,,,,,,,,,,,,,,,,,,,,,,,,,,,,,,,,,,,,,,55493,2022-10-25_13h56.41.374,vts_reward_expectancy_bt_OFFLINE,2022.2.4,60.137185186996454,
,,,,,,,,,,,,,,,,,,0,0,0,0,7,0,7,0,,,,,,,,,,,,,,,,,,,,,,,,,,,,,,,,,,,,,,,,,,,,,,,,621.5057182550008,,181,F,triangle,0.0016448930000478867,617.8807071240008,619.3866921469998,619.3866921469998,619.3866921469998,1,0,f,0.5894854389989632,0,620.0040634899997,,,,,,,,,,,,,,,,,,,,,,,,,,,,,,,,,,,,,,,,,,,,,,,,,,,,,,55493,2022-10-25_13h56.41.374,vts_reward_expectancy_bt_OFFLINE,2022.2.4,60.137185186996454,
,,,,,,,,,,,,,,,,,,0,0,0,0,8,0,8,0,,,,,,,,,,,,,,,,,,,,,,,,,,,,,,,,,,,,,,,,,,,,,,,,626.5947275540002,,160,W,triangle,0.0015140110008360352,622.4846827310012,623.9920019720012,623.9920019720012,623.9920019720012,1,0,f,1.0802448379999987,0,625.0930311970005,,,,,,,,,,,,,,,,,,,,,,,,,,,,,,,,,,,,,,,,,,,,,,,,,,,,,,55493,2022-10-25_13h56.41.374,vts_reward_expectancy_bt_OFFLINE,2022.2.4,60.137185186996454,
,,,,,,,,,,,,,,,,,,0,0,0,0,9,0,9,0,,,,,,,,,,,,,,,,,,,,,,,,,,,,,,,,,,,,,,,,,,,,,,,,631.1330962030006,,125,H,circle,0.001737307000439614,627.5737779210012,629.0807097310008,629.0807097310008,629.0807097310008,1,0,d,0.5268244600010803,0,629.6315092050008,,,,,,,,,,,,,,,,,,,,,,,,,,,,,,,,,,,,,,,,,,,,,,,,,,,,,,55493,2022-10-25_13h56.41.374,vts_reward_expectancy_bt_OFFLINE,2022.2.4,60.137185186996454,
,,,,,,,,,,,,,,,,,,,,,,,,,,0,0,0,0,0,0,0,0,,,,,,,,,,,,,,,,,,,,,,,,,,,,,,,,,,,,,,,,658.846857134,,181,D,triangle,0.0021312040007614996,,,,,1,0,,,1,657.3452620750013,654.27056395,655.7771194140005,655.7771194140005,655.7771194140005,j,1.5427813200003584,,,,,,,,,,,,,,,,,,,,,,,,,,,,,,,,,,,,,,,,,,,,,,,,55493,2022-10-25_13h56.41.374,vts_reward_expectancy_bt_OFFLINE,2022.2.4,60.137185186996454,
,,,,,,,,,,,,,,,,,,,,,,,,,,0,0,0,0,1,0,1,0,,,,,,,,,,,,,,,,,,,,,,,,,,,,,,,,,,,,,,,,663.5687266410005,,125,B,hexagon,0.001366169000903028,,,,,1,0,,,1,662.0671146780005,659.826686411001,661.332846360001,661.332846360001,661.332846360001,j,0.7157393569996202,,,,,,,,,,,,,,,,,,,,,,,,,,,,,,,,,,,,,,,,,,,,,,,,55493,2022-10-25_13h56.41.374,vts_reward_expectancy_bt_OFFLINE,2022.2.4,60.137185186996454,
,,,,,,,,,,,,,,,,,,,,,,,,,,0,0,0,0,2,0,2,0,,,,,,,,,,,,,,,,,,,,,,,,,,,,,,,,,,,,,,,,668.3240274529999,,160,U,circle,0.0016056179993029218,,,,,1,0,,,1,666.822376215001,664.548581168001,666.0548094670012,666.0548094670012,666.0548094670012,k,0.7367420970003877,,,,,,,,,,,,,,,,,,,,,,,,,,,,,,,,,,,,,,,,,,,,,,,,55493,2022-10-25_13h56.41.374,vts_reward_expectancy_bt_OFFLINE,2022.2.4,60.137185186996454,
,,,,,,,,,,,,,,,,,,,,,,,,,,0,0,0,0,3,0,3,0,,,,,,,,,,,,,,,,,,,,,,,,,,,,,,,,,,,,,,,,673.396371795001,,132,F,star,0.0015684919999330305,,,,,1,0,,,1,671.8945305260004,669.3038958730012,670.8101343590006,670.8101343590006,670.8101343590006,j,1.0622876359993825,,,,,,,,,,,,,,,,,,,,,,,,,,,,,,,,,,,,,,,,,,,,,,,,55493,2022-10-25_13h56.41.374,vts_reward_expectancy_bt_OFFLINE,2022.2.4,60.137185186996454,
,,,,,,,,,,,,,,,,,,,,,,,,,,0,0,0,0,4,0,4,0,,,,,,,,,,,,,,,,,,,,,,,,,,,,,,,,,,,,,,,,679.0025568450001,,146,Y,hexagon,0.0016766489989095135,,,,,1,0,,,1,677.5008750800007,674.3777366610011,675.8823812829996,675.8823812829996,675.8823812829996,k,1.5979257950002648,,,,,,,,,,,,,,,,,,,,,,,,,,,,,,,,,,,,,,,,,,,,,,,,55493,2022-10-25_13h56.41.374,vts_reward_expectancy_bt_OFFLINE,2022.2.4,60.137185186996454,
,,,,,,,,,,,,,,,,,,,,,,,,,,0,0,0,0,5,0,5,0,,,,,,,,,,,,,,,,,,,,,,,,,,,,,,,,,,,,,,,,685.5264506580006,,139,S,triangle,0.001302917999055353,,,,,1,0,,,1,684.024859567,679.9812006480006,681.4885878870009,681.4885878870009,681.4885878870009,k,2.510919746999207,,,,,,,,,,,,,,,,,,,,,,,,,,,,,,,,,,,,,,,,,,,,,,,,55493,2022-10-25_13h56.41.374,vts_reward_expectancy_bt_OFFLINE,2022.2.4,60.137185186996454,
,,,,,,,,,,,,,,,,,,,,,,,,,,0,0,0,0,6,0,6,0,,,,,,,,,,,,,,,,,,,,,,,,,,,,,,,,,,,,,,,,690.4986424170002,,174,H,circle,0.0015054400009830715,,,,,1,0,,,1,688.9971360590007,686.5078995720014,688.0123973589998,688.0123973589998,688.0123973589998,j,0.9636406190002162,,,,,,,,,,,,,,,,,,,,,,,,,,,,,,,,,,,,,,,,,,,,,,,,55493,2022-10-25_13h56.41.374,vts_reward_expectancy_bt_OFFLINE,2022.2.4,60.137185186996454,
,,,,,,,,,,,,,,,,,,,,,,,,,,0,0,0,0,7,0,7,0,,,,,,,,,,,,,,,,,,,,,,,,,,,,,,,,,,,,,,,,695.1204345440001,,167,W,star,0.0016035089993238216,,,,,1,0,,,1,693.6186698800011,691.4779757369997,692.9846590500001,692.9846590500001,692.9846590500001,k,0.6072923570009152,,,,,,,,,,,,,,,,,,,,,,,,,,,,,,,,,,,,,,,,,,,,,,,,55493,2022-10-25_13h56.41.374,vts_reward_expectancy_bt_OFFLINE,2022.2.4,60.137185186996454,
,,,,,,,,,,,,,,,,,,,,,,,,,,0,0,0,0,8,0,8,0,,,,,,,,,,,,,,,,,,,,,,,,,,,,,,,,,,,,,,,,699.7920398100014,,181,D,triangle,0.0014116909987933468,,,,,1,0,,,1,698.2903168940011,696.0989919510012,697.6063856370001,697.6063856370001,697.6063856370001,j,0.6570866400015802,,,,,,,,,,,,,,,,,,,,,,,,,,,,,,,,,,,,,,,,,,,,,,,,55493,2022-10-25_13h56.41.374,vts_reward_expectancy_bt_OFFLINE,2022.2.4,60.137185186996454,
,,,,,,,,,,,,,,,,,,,,,,,,,,0,0,0,0,9,0,9,0,,,,,,,,,,,,,,,,,,,,,,,,,,,,,,,,,,,,,,,,704.3974048640011,,125,B,hexagon,0.001218802999574109,,,,,1,0,,,1,702.8954434110001,700.7712886460013,702.2781959610002,702.2781959610002,702.2781959610002,j,0.5936611170000106,,,,,,,,,,,,,,,,,,,,,,,,,,,,,,,,,,,,,,,,,,,,,,,,55493,2022-10-25_13h56.41.374,vts_reward_expectancy_bt_OFFLINE,2022.2.4,60.137185186996454,
,,,,,,,,,,,,,,,,,,,,,,,,,,,,,,,,,,0,0,0,0,0,0,0,0,,,,,,,,,,,,,,,,,,,,,,,,,,,,0,927,,,750.9485473800014,,146,U,circle,0.0021759379997092765,,,,,-1,0,,,2,,,,,,,,744.9412821100013,744.9412821100013,744.9412821100013,744.9412821100013,746.4436942030006,746.4436942030006,746.4436942030006,746.4436942030006,746.4436942030006,746.4436942030006,746.4436942030006,746.4436942030006,749.4473399910003,749.4473399910003,749.4473399910003,749.4473399910003,-1,no_choice,NA,None,vtsPrac,749.4473399910003,750.9485473800014,751.449076025001,,,,,,,,,,,,,,,,,,,,,,,,55493,2022-10-25_13h56.41.374,vts_reward_expectancy_bt_OFFLINE,2022.2.4,60.137185186996454,
,,,,,,,,,,,,,,,,,,,,,,,,,,,,,,,,,,0,0,0,0,1,0,1,0,,,,,,,,,,,,,,,,,,,,,,,,,,,,0,927,,,755.9207145250002,,139,F,triangle,0.009161033998680068,,,,,1,0,,,2,,,,,,,,751.9456880609996,751.9456880609996,751.9456880609996,751.9456880609996,753.4510309050002,753.4510309050002,753.4510309050002,753.4510309050002,753.4510309050002,753.4510309050002,753.4510309050002,753.4510309050002,,,,,switch,number,numSwt,d,vtsPrac,754.4184708749999,,,0.9486187670008803,,,,,,,,,,,,,,,,,,,,,,,55493,2022-10-25_13h56.41.374,vts_reward_expectancy_bt_OFFLINE,2022.2.4,60.137185186996454,
,,,,,,,,,,,,,,,,,,,,,,,,,,,,,,,,,,0,0,0,0,2,0,2,0,,,,,,,,,,,,,,,,,,,,,,,,,,,,0,927,,,760.6592780270003,,132,B,hexagon,0.0022722789999534143,,,,,1,0,,,2,,,,,,,,756.9023347990005,756.9023347990005,756.9023347990005,756.9023347990005,758.4069209120007,758.4069209120007,758.4069209120007,758.4069209120007,758.4069209120007,758.4069209120007,758.4069209120007,758.4069209120007,,,,,repeat,number,numRpt,d,vtsPrac,759.1577458310003,,,0.7213215669999045,,,,,,,,,,,,,,,,,,,,,,,55493,2022-10-25_13h56.41.374,vts_reward_expectancy_bt_OFFLINE,2022.2.4,60.137185186996454,
,,,,,,,,,,,,,,,,,,,,,,,,,,,,,,,,,,0,0,0,0,3,0,3,0,,,,,,,,,,,,,,,,,,,,,,,,,,,,0,927,,,765.1975282929998,,181,D,star,0.0016599640002823435,,,,,1,0,,,2,,,,,,,,761.6416491979999,761.6416491979999,761.6416491979999,761.6416491979999,763.1452551020011,763.1452551020011,763.1452551020011,763.1452551020011,763.1452551020011,763.1452551020011,763.1452551020011,763.1452551020011,,,,,switch,letter,lettSwt,j,vtsPrac,763.6959373770005,,,0.5187530820003303,,,,,,,,,,,,,,,,,,,,,,,55493,2022-10-25_13h56.41.374,vts_reward_expectancy_bt_OFFLINE,2022.2.4,60.137185186996454,
,,,,,,,,,,,,,,,,,,,,,,,,,,,,,,,,,,0,0,0,0,4,0,4,0,,,,,,,,,,,,,,,,,,,,,,,,,,,,0,927,,,769.9863089179998,,146,U,triangle,0.0015923480004857993,,,,,1,0,,,2,,,,,,,,766.1788654829998,766.1788654829998,766.1788654829998,766.1788654829998,767.6835322740008,767.6835322740008,767.6835322740008,767.6835322740008,767.6835322740008,767.6835322740008,767.6835322740008,767.6835322740008,,,,,repeat,letter,lettRpt,k,vtsPrac,768.4846556840002,,,0.772929609998755,,,,,,,,,,,,,,,,,,,,,,,55493,2022-10-25_13h56.41.374,vts_reward_expectancy_bt_OFFLINE,2022.2.4,60.137185186996454,
,,,,,,,,,,,,,,,,,,,,,,,,,,,,,,,,,,0,0,0,0,5,0,5,0,,,,,,,,,,,,,,,,,,,,,,,,,,,,0,927,,,774.8583436370009,,139,F,hexagon,0.001480200000514742,,,,,1,0,,,2,,,,,,,,770.9676609270009,770.9676609270009,770.9676609270009,770.9676609270009,772.4721641590004,772.4721641590004,772.4721641590004,772.4721641590004,772.4721641590004,772.4721641590004,772.4721641590004,772.4721641590004,,,,,repeat,letter,lettRpt,j,vtsPrac,773.3567785270006,,,0.8635586929995043,,,,,,,,,,,,,,,,,,,,,,,55493,2022-10-25_13h56.41.374,vts_reward_expectancy_bt_OFFLINE,2022.2.4,60.137185186996454,
,,,,,,,,,,,,,,,,,,,,,,,,,,,,,,,,,,0,0,0,0,6,0,6,0,,,,,,,,,,,,,,,,,,,,,,,,,,,,0,927,,,779.4133825580011,,132,B,hexagon,0.001623911000933731,,,,,1,0,,,2,,,,,,,,775.8378148610009,775.8378148610009,775.8378148610009,775.8378148610009,777.3442799350014,777.3442799350014,777.3442799350014,777.3442799350014,777.3442799350014,777.3442799350014,777.3442799350014,777.3442799350014,,,,,switch,number,numSwt,d,vtsPrac,777.9116903100003,,,0.5440713040006813,,,,,,,,,,,,,,,,,,,,,,,55493,2022-10-25_13h56.41.374,vts_reward_expectancy_bt_OFFLINE,2022.2.4,60.137185186996454,
,,,,,,,,,,,,,,,,,,,,,,,,,,,,,,,,,,0,0,0,0,7,0,7,0,,,,,,,,,,,,,,,,,,,,,,,,,,,,0,927,,,784.201949227001,,181,D,triangle,0.0017471869996370515,,,,,1,0,,,2,,,,,,,,780.3925589179998,780.3925589179998,780.3925589179998,780.3925589179998,781.8994236360013,781.8994236360013,781.8994236360013,781.8994236360013,781.8994236360013,781.8994236360013,781.8994236360013,781.8994236360013,,,,,switch,letter,lettSwt,j,vtsPrac,782.7003826740001,,,0.7798797020004713,,,,,,,,,,,,,,,,,,,,,,,55493,2022-10-25_13h56.41.374,vts_reward_expectancy_bt_OFFLINE,2022.2.4,60.137185186996454,
,,,,,,,,,,,,,,,,,,,,,,,,,,,,,,,,,,0,0,0,0,8,0,8,0,,,,,,,,,,,,,,,,,,,,,,,,,,,,0,927,,,789.374310276,,146,B,hexagon,0.0014870150007482152,,,,,1,0,,,2,,,,,,,,785.1819683249996,785.1819683249996,785.1819683249996,785.1819683249996,786.6880604950002,786.6880604950002,786.6880604950002,786.6880604950002,786.6880604950002,786.6880604950002,786.6880604950002,786.6880604950002,,,,,switch,number,numSwt,d,vtsPrac,787.8726849760005,,,1.1680624159998843,,,,,,,,,,,,,,,,,,,,,,,55493,2022-10-25_13h56.41.374,vts_reward_expectancy_bt_OFFLINE,2022.2.4,60.137185186996454,
,,,,,,,,,,,,,,,,,,,,,,,,,,,,,,,,,,0,0,0,0,9,0,9,0,,,,,,,,,,,,,,,,,,,,,,,,,,,,0,927,,,794.329718938001,,139,U,triangle,0.001247592999789049,,,,,1,0,,,2,,,,,,,,790.3555372690007,790.3555372690007,790.3555372690007,790.3555372690007,791.860385465001,791.860385465001,791.860385465001,791.860385465001,791.860385465001,791.860385465001,791.860385465001,791.860385465001,,,,,repeat,number,numRpt,d,vtsPrac,792.828143965,,,0.9473884340004588,,,,,,,,,,,,,,,,,,,,,,,55493,2022-10-25_13h56.41.374,vts_reward_expectancy_bt_OFFLINE,2022.2.4,60.137185186996454,
,,,,,,,,,,,,,,,,,,,,,,,,,,,,,,,,,,0,0,0,0,10,0,10,0,,,,,,,,,,,,,,,,,,,,,,,,,,,,0,927,,,800.4197583069999,,167,F,circle,0.0015924149993225,,,,,1,0,,,2,,,,,,,,795.3117099240008,795.3117099240008,795.3117099240008,795.3117099240008,796.8158609109996,796.8158609109996,796.8158609109996,796.8158609109996,796.8158609109996,796.8158609109996,796.8158609109996,796.8158609109996,,,,,repeat,number,numRpt,f,vtsPrac,798.9181084230004,,,2.080628618001356,,,,,,,,,,,,,,,,,,,,,,,55493,2022-10-25_13h56.41.374,vts_reward_expectancy_bt_OFFLINE,2022.2.4,60.137185186996454,
,,,,,,,,,,,,,,,,,,,,,,,,,,,,,,,,,,0,0,0,0,11,0,11,0,,,,,,,,,,,,,,,,,,,,,,,,,,,,0,927,,,805.0916187000003,,160,H,triangle,0.0013461070011544507,,,,,1,0,,,2,,,,,,,,801.4027591160011,801.4027591160011,801.4027591160011,801.4027591160011,802.9058218230002,802.9058218230002,802.9058218230002,802.9058218230002,802.9058218230002,802.9058218230002,802.9058218230002,802.9058218230002,,,,,switch,letter,lettSwt,j,vtsPrac,803.5900807489998,,,0.6547329240002,,,,,,,,,,,,,,,,,,,,,,,55493,2022-10-25_13h56.41.374,vts_reward_expectancy_bt_OFFLINE,2022.2.4,60.137185186996454,
,,,,,,,,,,,,,,,,,,,,,,,,,,,,,,,,,,0,0,0,0,12,0,12,0,,,,,,,,,,,,,,,,,,,,,,,,,,,,0,927,,,810.0804595790014,,139,F,star,0.0014835760011919774,,,,,1,0,,,2,,,,,,,,806.0700172010002,806.0700172010002,806.0700172010002,806.0700172010002,807.5776142230006,807.5776142230006,807.5776142230006,807.5776142230006,807.5776142230006,807.5776142230006,807.5776142230006,807.5776142230006,,,,,switch,number,numSwt,d,vtsPrac,808.5787996119998,,,0.9828995209991263,,,,,,,,,,,,,,,,,,,,,,,55493,2022-10-25_13h56.41.374,vts_reward_expectancy_bt_OFFLINE,2022.2.4,60.137185186996454,
,,,,,,,,,,,,,,,,,,,,,,,,,,,,,,,,,,0,0,0,0,13,0,13,0,,,,,,,,,,,,,,,,,,,,,,,,,,,,0,927,,,815.086026936,,146,D,triangle,0.0012424249998730375,,,,,1,0,,,2,,,,,,,,811.0598624129998,811.0598624129998,811.0598624129998,811.0598624129998,812.5665992450013,812.5665992450013,812.5665992450013,812.5665992450013,812.5665992450013,812.5665992450013,812.5665992450013,812.5665992450013,,,,,switch,letter,lettSwt,j,vtsPrac,813.5843307750001,,,0.9855491159996745,,,,,,,,,,,,,,,,,,,,,,,55493,2022-10-25_13h56.41.374,vts_reward_expectancy_bt_OFFLINE,2022.2.4,60.137185186996454,
,,,,,,,,,,,,,,,,,,,,,,,,,,,,,,,,,,0,0,0,0,14,0,14,0,,,,,,,,,,,,,,,,,,,,,,,,,,,,0,927,,,819.607411885001,,125,W,hexagon,0.001589233999766293,,,,,1,0,,,2,,,,,,,,816.0685454060003,816.0685454060003,816.0685454060003,816.0685454060003,817.5719965260014,817.5719965260014,817.5719965260014,817.5719965260014,817.5719965260014,817.5719965260014,817.5719965260014,817.5719965260014,,,,,repeat,letter,lettRpt,k,vtsPrac,818.1056610800006,,,0.5072136889993999,,,,,,,,,,,,,,,,,,,,,,,55493,2022-10-25_13h56.41.374,vts_reward_expectancy_bt_OFFLINE,2022.2.4,60.137185186996454,
,,,,,,,,,,,,,,,,,,,,,,,,,,,,,,,,,,0,0,0,0,15,0,15,0,,,,,,,,,,,,,,,,,,,,,,,,,,,,0,927,,,824.2461267689996,,160,B,circle,0.002059120000922121,,,,,1,0,,,2,,,,,,,,820.5868028670011,820.5868028670011,820.5868028670011,820.5868028670011,822.0935993310013,822.0935993310013,822.0935993310013,822.0935993310013,822.0935993310013,822.0935993310013,822.0935993310013,822.0935993310013,,,,,repeat,letter,lettRpt,j,vtsPrac,822.7443387540006,,,0.6344680319998588,,,,,,,,,,,,,,,,,,,,,,,55493,2022-10-25_13h56.41.374,vts_reward_expectancy_bt_OFFLINE,2022.2.4,60.137185186996454,
,,,,,,,,,,,,,,,,,,,,,,,,,,,,,,,,,,,,,,,,,,0,0,0,0,,,,,,,,,,,,,,,,,,,,,,,,0,927,,,857.3325816190008,,132,U,star,0.00244322300022759,,,,,1,0,,,,,,,,,,,853.5758930280008,853.5758930280008,853.5758930280008,853.5758930280008,855.0801000410011,855.0801000410011,855.0801000410011,855.0801000410011,855.0801000410011,855.0801000410011,855.0801000410011,855.0801000410011,,,,,switch,number,numSwt,d,noRew,,,,0.7274768850002147,0,855.8311005760006,,,,,,,,,,,,,,,,,,,,,55493,2022-10-25_13h56.41.374,vts_reward_expectancy_bt_OFFLINE,2022.2.4,60.137185186996454,
,,,,,,,,,,,,,,,,,,,,,,,,,,,,,,,,,,,,,,,,,,1,0,1,0,,,,,,,,,,,,,,,,,,,,,,,,0,927,,,861.9877090919999,,125,W,circle,0.0015105310012586415,,,,,1,0,,,,,,,,,,,858.3140605680001,858.3140605680001,858.3140605680001,858.3140605680001,859.8184613040012,859.8184613040012,859.8184613040012,859.8184613040012,859.8184613040012,859.8184613040012,859.8184613040012,859.8184613040012,,,,,repeat,number,numRpt,d,noRew,,,,0.6451028729989048,0,860.4859553950009,,,,,,,,,,,,,,,,,,,,,55493,2022-10-25_13h56.41.374,vts_reward_expectancy_bt_OFFLINE,2022.2.4,60.137185186996454,
,,,,,,,,,,,,,,,,,,,,,,,,,,,,,,,,,,,,,,,,,,2,0,2,0,,,,,,,,,,,,,,,,,,,,,,,,0,927,,,866.926460480001,,146,Y,star,0.001517306998721324,,,,,1,0,,,,,,,,,,,862.9700122820013,862.9700122820013,862.9700122820013,862.9700122820013,864.4740014590006,864.4740014590006,864.4740014590006,864.4740014590006,864.4740014590006,864.4740014590006,864.4740014590006,864.4740014590006,,,,,repeat,number,numRpt,d,noRew,,,,0.9255736670002079,0,865.4247421680011,,,,,,,,,,,,,,,,,,,,,55493,2022-10-25_13h56.41.374,vts_reward_expectancy_bt_OFFLINE,2022.2.4,60.137185186996454,
,,,,,,,,,,,,,,,,,,,,,,,,,,,,,,,,,,,,,,,,,,3,0,3,0,,,,,,,,,,,,,,,,,,,,,,,,0,927,,,871.4482372519997,,167,B,triangle,0.0015685460002714535,,,,,1,0,,,,,,,,,,,867.9052862790013,867.9052862790013,867.9052862790013,867.9052862790013,869.4126935559998,869.4126935559998,869.4126935559998,869.4126935559998,869.4126935559998,869.4126935559998,869.4126935559998,869.4126935559998,,,,,switch,letter,lettSwt,j,noRew,,,,0.5077903140008857,0,869.946489932001,,,,,,,,,,,,,,,,,,,,,55493,2022-10-25_13h56.41.374,vts_reward_expectancy_bt_OFFLINE,2022.2.4,60.137185186996454,
,,,,,,,,,,,,,,,,,,,,,,,,,,,,,,,,,,,,,,,,,,4,0,4,0,,,,,,,,,,,,,,,,,,,,,,,,0,927,,,876.7372426519996,,132,U,star,0.0017194530009874143,,,,,1,0,,,,,,,,,,,872.4275120109996,872.4275120109996,872.4275120109996,872.4275120109996,873.9341895140005,873.9341895140005,873.9341895140005,873.9341895140005,873.9341895140005,873.9341895140005,873.9341895140005,873.9341895140005,,,,,switch,number,numSwt,d,noRew,,,,1.2822676930009038,0,875.2356514450003,,,,,,,,,,,,,,,,,,,,,55493,2022-10-25_13h56.41.374,vts_reward_expectancy_bt_OFFLINE,2022.2.4,60.137185186996454,
,,,,,,,,,,,,,,,,,,,,,,,,,,,,,,,,,,,,,,,,,,5,0,5,0,,,,,,,,,,,,,,,,,,,,,,,,0,927,,,881.4427264060014,,125,W,triangle,0.0016369469994970132,,,,,1,0,,,,,,,,,,,877.7154923329999,877.7154923329999,877.7154923329999,877.7154923329999,879.2235836199998,879.2235836199998,879.2235836199998,879.2235836199998,879.2235836199998,879.2235836199998,879.2235836199998,879.2235836199998,,,,,switch,letter,lettSwt,k,noRew,,,,0.6887767179996445,0,879.9412600450014,,,,,,,,,,,,,,,,,,,,,55493,2022-10-25_13h56.41.374,vts_reward_expectancy_bt_OFFLINE,2022.2.4,60.137185186996454,
,,,,,,,,,,,,,,,,,,,,,,,,,,,,,,,,,,,,,,,,,,6,0,6,0,,,,,,,,,,,,,,,,,,,,,,,,0,927,,,886.2813658659998,,146,Y,triangle,0.0015412730008392828,,,,,1,0,,,,,,,,,,,882.4241801910011,882.4241801910011,882.4241801910011,882.4241801910011,883.9286114940005,883.9286114940005,883.9286114940005,883.9286114940005,883.9286114940005,883.9286114940005,883.9286114940005,883.9286114940005,,,,,repeat,letter,lettRpt,k,noRew,,,,0.8236808820001897,0,884.7795000080005,,,,,,,,,,,,,,,,,,,,,55493,2022-10-25_13h56.41.374,vts_reward_expectancy_bt_OFFLINE,2022.2.4,60.137185186996454,
,,,,,,,,,,,,,,,,,,,,,,,,,,,,,,,,,,,,,,,,,,7,0,7,0,,,,,,,,,,,,,,,,,,,,,,,,0,927,,,890.9196116000003,,167,B,hexagon,0.0016865450015757233,,,,,1,0,,,,,,,,,,,887.2626351660001,887.2626351660001,887.2626351660001,887.2626351660001,888.7673319360001,888.7673319360001,888.7673319360001,888.7673319360001,888.7673319360001,888.7673319360001,888.7673319360001,888.7673319360001,,,,,repeat,letter,lettRpt,j,noRew,,,,0.6333723299994745,0,889.4179171579999,890.9196116000003,,,,,,,,,,,,,,,,,,,,55493,2022-10-25_13h56.41.374,vts_reward_expectancy_bt_OFFLINE,2022.2.4,60.137185186996454,
,,,,,,,,,,,,,,,,,,,,,,,,,,,,,,,,,,,,,,,,,,8,0,8,0,,,,,,,,,,,,,,,,,,,,,,,,0,927,,,895.6081908070009,,146,B,triangle,0.000972009998804424,,,,,1,0,,,,,,,,,,,891.8982992689998,891.8982992689998,891.8982992689998,891.8982992689998,893.4057185230013,893.4057185230013,893.4057185230013,893.4057185230013,893.4057185230013,893.4057185230013,893.4057185230013,893.4057185230013,,,,,repeat,letter,lettRpt,j,noRew,,,,0.6746051830014039,0,894.1064779340013,,,,,,,,,,,,,,,,,,,,,55493,2022-10-25_13h56.41.374,vts_reward_expectancy_bt_OFFLINE,2022.2.4,60.137185186996454,
,,,,,,,,,,,,,,,,,,,,,,,,,,,,,,,,,,,,,,,,,,9,0,9,0,,,,,,,,,,,,,,,,,,,,,,,,0,927,,,900.5469703939998,,132,Y,hexagon,0.0015750839993415866,,,,,1,0,,,,,,,,,,,896.5899590179997,896.5899590179997,896.5899590179997,896.5899590179997,898.0941823499998,898.0941823499998,898.0941823499998,898.0941823499998,898.0941823499998,898.0941823499998,898.0941823499998,898.0941823499998,,,,,switch,number,numSwt,d,noRew,,,,0.9220988240012957,0,899.0455283620013,,,,,,,,,,,,,,,,,,,,,55493,2022-10-25_13h56.41.374,vts_reward_expectancy_bt_OFFLINE,2022.2.4,60.137185186996454,
,,,,,,,,,,,,,,,,,,,,,,,,,,,,,,,,,,,,,,,,,,10,0,10,0,,,,,,,,,,,,,,,,,,,,,,,,0,927,,,905.218722218,,125,S,triangle,0.0013806320002913708,,,,,1,0,,,,,,,,,,,901.527688102,901.527688102,901.527688102,901.527688102,903.0330300799997,903.0330300799997,903.0330300799997,903.0330300799997,903.0330300799997,903.0330300799997,903.0330300799997,903.0330300799997,,,,,repeat,number,numRpt,d,noRew,,,,0.6550895979999041,0,903.7164296990013,,,,,,,,,,,,,,,,,,,,,55493,2022-10-25_13h56.41.374,vts_reward_expectancy_bt_OFFLINE,2022.2.4,60.137185186996454,
,,,,,,,,,,,,,,,,,,,,,,,,,,,,,,,,,,,,,,,,,,11,0,11,0,,,,,,,,,,,,,,,,,,,,,,,,0,927,,,909.8071150590004,,139,H,star,0.0016470610007672803,,,,,1,0,,,,,,,,,,,906.1984576690011,906.1984576690011,906.1984576690011,906.1984576690011,907.7048221759997,907.7048221759997,907.7048221759997,907.7048221759997,907.7048221759997,907.7048221759997,907.7048221759997,907.7048221759997,,,,,switch,letter,lettSwt,j,noRew,,,,0.5747629790002975,0,908.305431191,,,,,,,,,,,,,,,,,,,,,55493,2022-10-25_13h56.41.374,vts_reward_expectancy_bt_OFFLINE,2022.2.4,60.137185186996454,
,,,,,,,,,,,,,,,,,,,,,,,,,,,,,,,,,,,,,,,,,,12,0,12,0,,,,,,,,,,,,,,,,,,,,,,,,0,927,,,914.6625428839998,,174,S,circle,0.0016113769997900818,,,,,1,0,,,,,,,,,,,910.7886929600008,910.7886929600008,910.7886929600008,910.7886929600008,912.2932529820009,912.2932529820009,912.2932529820009,912.2932529820009,912.2932529820009,912.2932529820009,912.2932529820009,912.2932529820009,,,,,switch,number,numSwt,f,noRew,,,,0.8508811870015052,0,913.1607695290004,,,,,,,,,,,,,,,,,,,,,55493,2022-10-25_13h56.41.374,vts_reward_expectancy_bt_OFFLINE,2022.2.4,60.137185186996454,
,,,,,,,,,,,,,,,,,,,,,,,,,,,,,,,,,,,,,,,,,,13,0,13,0,,,,,,,,,,,,,,,,,,,,,,,,0,927,,,919.4509682750013,,132,H,star,0.0013332160015124828,,,,,1,0,,,,,,,,,,,915.6420273570002,915.6420273570002,915.6420273570002,915.6420273570002,917.1485173560013,917.1485173560013,917.1485173560013,917.1485173560013,917.1485173560013,917.1485173560013,917.1485173560013,917.1485173560013,,,,,repeat,number,numRpt,d,noRew,,,,0.7800561630010634,0,917.9493603290011,,,,,,,,,,,,,,,,,,,,,55493,2022-10-25_13h56.41.374,vts_reward_expectancy_bt_OFFLINE,2022.2.4,60.137185186996454,
,,,,,,,,,,,,,,,,,,,,,,,,,,,,,,,,,,,,,,,,,,14,0,14,0,,,,,,,,,,,,,,,,,,,,,,,,0,927,,,924.5567040389997,,160,B,star,0.0015299910010071471,,,,,1,0,,,,,,,,,,,920.4325646569996,920.4325646569996,920.4325646569996,920.4325646569996,921.9370525570012,921.9370525570012,921.9370525570012,921.9370525570012,921.9370525570012,921.9370525570012,921.9370525570012,921.9370525570012,,,,,switch,letter,lettSwt,j,noRew,,,,1.094641063000381,0,923.0549203130013,,,,,,,,,,,,,,,,,,,,,55493,2022-10-25_13h56.41.374,vts_reward_expectancy_bt_OFFLINE,2022.2.4,60.137185186996454,
