LTriangleOpac,LCircleOpac,LHexagonOpac,LStarOpac,RTriangleOpac,RCircleOpac,RHexagonOpac,RStarOpac,LShape_ID,RShape_ID,training_blocks.thisRepN,training_blocks.thisTrialN,training_blocks.thisN,training_blocks.thisIndex,training.thisRepN,training.thisTrialN,training.thisN,training.thisIndex,task1_prac_redo.thisRepN,task1_prac_redo.thisTrialN,task1_prac_redo.thisN,task1_prac_redo.thisIndex,task1_prac_trials.thisRepN,task1_prac_trials.thisTrialN,task1_prac_trials.thisN,task1_prac_trials.thisIndex,task2_prac_redo.thisRepN,task2_prac_redo.thisTrialN,task2_prac_redo.thisN,task2_prac_redo.thisIndex,task2_praac_trials.thisRepN,task2_praac_trials.thisTrialN,task2_praac_trials.thisN,task2_praac_trials.thisIndex,vts_prac_redo.thisRepN,vts_prac_redo.thisTrialN,vts_prac_redo.thisN,vts_prac_redo.thisIndex,vts_practice_trials.thisRepN,vts_practice_trials.thisTrialN,vts_practice_trials.thisN,vts_practice_trials.thisIndex,trials_norew.thisRepN,trials_norew.thisTrialN,trials_norew.thisN,trials_norew.thisIndex,block.thisRepN,block.thisTrialN,block.thisN,block.thisIndex,trials_rew.thisRepN,trials_rew.thisTrialN,trials_rew.thisN,trials_rew.thisIndex,key_resp.started,key_resp.keys,key_resp.rt,left_circle.started,right_circle.started,left_triangle.started,right_triangle.started,left_star.started,right_star.started,left_hexagon.started,right_hexagon.started,training_fix.started,training_resp.started,training_resp.keys,training_resp.rt,points_trial,points_cumul,trainBlock,training_feedback_txt.started,fix.started,training_feedback_txt.stopped,fix.stopped,curr_topStim,curr_bottStim,curr_shape,ISI.started,tgt_fix_prac1.started,top_target_prac1.started,bott_target_prac1.started,target_resp_prac1.started,top_target_prac1.stopped,bott_target_prac1.stopped,target_resp_prac1.stopped,acc,E1,target_resp_prac1.keys,pracBlock,prac_fback_text.started,target_resp_prac1.rt,prac_fback_text.stopped,tgt_fix_prac2.started,top_target_prac2.started,bott_target_prac2.started,target_resp_prac2.started,target_resp_prac2.keys,target_resp_prac2.rt,star.started,hegagon.started,triangle.started,circle.started,top_target.started,tgt_fix.started,bot_target.started,target_resp.started,star.stopped,hegagon.stopped,triangle.stopped,circle.stopped,alt,task,condition,target_resp.keys,target_resp.rt,rewCond,vts_fback.started,vts_fback.stopped,blockNum,norew_fback.started,norew_fback.stopped,key_resp_2.keys,key_resp_2.rt,rewExpectancy,feedbk_text.started,feedbk_text.stopped,text_3.started,text_3.stopped,button.started,debrief.index,debrief.itemText,debrief.type,debrief.granularity,debrief.font,debrief.markerColor,debrief.response,debrief.rt,button.numClicks,button.timesOn,button.timesOff,participant,date,expName,psychopyVersion,frameRate,
,,,,,,,,,,,,,,,,,,,,,,,,,,,,,,,,,,,,,,,,,,,,,,,,,,,,,,405.2623040030012,space,35.09677526797168,,,,,,,,,,,,,,,,,,,,,,,,,,,,,,,,,,,,,,,,,,,,,,,,,,,,,,,,,,,,,,,,,,,,,,,,,,,,,,,,,,,,,,55611,2022-11-02_14h33.37.150,vts_reward_expectancy_bt_OFFLINE,2022.2.4,59.924121894600574,
0,0,0,1,0,0,1,0,star,hexagon,0,0,0,0,0,0,0,11,,,,,,,,,,,,,,,,,,,,,,,,,,,,,,,,,,,,,,,,468.9639417231083,468.9639417231083,468.9639417231083,468.9639417231083,468.9639417231083,468.9639417231083,468.9639417231083,468.9639417231083,468.9639417231083,468.9639417231083,l,2.2351513180183247,10,10,0,471.2219524170505,472.7370275510475,,,,,,,,,,,,,,,,,,,,,,,,,,,,,,,,,,,,,,,,,,,,,,,,,,,,,,,,,,,,,,,,,,,,,55611,2022-11-02_14h33.37.150,vts_reward_expectancy_bt_OFFLINE,2022.2.4,59.924121894600574,
1,0,0,0,0,0,0,1,triangle,star,0,0,0,0,0,1,1,2,,,,,,,,,,,,,,,,,,,,,,,,,,,,,,,,,,,,,,,,473.2369385570055,473.2369385570055,473.2369385570055,473.2369385570055,473.2369385570055,473.2369385570055,473.2369385570055,473.2369385570055,473.2369385570055,473.2369385570055,a,5.274459294974804,1,11,0,478.542140581063,480.0432167830877,,,,,,,,,,,,,,,,,,,,,,,,,,,,,,,,,,,,,,,,,,,,,,,,,,,,,,,,,,,,,,,,,,,,,55611,2022-11-02_14h33.37.150,vts_reward_expectancy_bt_OFFLINE,2022.2.4,59.924121894600574,
0,0,0,1,0,1,0,0,star ,circle,0,0,0,0,0,2,2,10,,,,,,,,,,,,,,,,,,,,,,,,,,,,,,,,,,,,,,,,480.5435089980019,480.5435089980019,480.5435089980019,480.5435089980019,480.5435089980019,480.5435089980019,480.5435089980019,480.5435089980019,480.5435089980019,480.5435089980019,a,1.2403441809583455,1,12,0,481.81047788704745,483.3109678460751,483.3109678460751,,,,,,,,,,,,,,,,,,,,,,,,,,,,,,,,,,,,,,,,,,,,,,,,,,,,,,,,,,,,,,,,,,,,55611,2022-11-02_14h33.37.150,vts_reward_expectancy_bt_OFFLINE,2022.2.4,59.924121894600574,
0,0,1,0,0,1,0,0,hexagon,circle,0,0,0,0,0,3,3,7,,,,,,,,,,,,,,,,,,,,,,,,,,,,,,,,,,,,,,,,483.8148540670518,483.8148540670518,483.8148540670518,483.8148540670518,483.8148540670518,483.8148540670518,483.8148540670518,483.8148540670518,483.8148540670518,483.8148540670518,l,1.0809108139947057,10,22,0,484.9146436640294,486.41398058703635,486.41398058703635,486.9141110390192,,,,,,,,,,,,,,,,,,,,,,,,,,,,,,,,,,,,,,,,,,,,,,,,,,,,,,,,,,,,,,,,,,,55611,2022-11-02_14h33.37.150,vts_reward_expectancy_bt_OFFLINE,2022.2.4,59.924121894600574,
1,0,0,0,0,1,0,0,triangle,circle,0,0,0,0,0,4,4,0,,,,,,,,,,,,,,,,,,,,,,,,,,,,,,,,,,,,,,,,486.9141110390192,486.9141110390192,486.9141110390192,486.9141110390192,486.9141110390192,486.9141110390192,486.9141110390192,486.9141110390192,486.9141110390192,486.9141110390192,l,3.0696087409742177,10,32,0,490.0005976241082,491.5010459960904,491.5010459960904,492.0013567600399,,,,,,,,,,,,,,,,,,,,,,,,,,,,,,,,,,,,,,,,,,,,,,,,,,,,,,,,,,,,,,,,,,,55611,2022-11-02_14h33.37.150,vts_reward_expectancy_bt_OFFLINE,2022.2.4,59.924121894600574,
1,0,0,0,0,0,1,0,triangle,hexagon,0,0,0,0,0,5,5,1,,,,,,,,,,,,,,,,,,,,,,,,,,,,,,,,,,,,,,,,492.0013567600399,492.0013567600399,492.0013567600399,492.0013567600399,492.0013567600399,492.0013567600399,492.0013567600399,492.0013567600399,492.0013567600399,492.0013567600399,a,4.806124044000171,1,33,0,496.8391319990624,498.33883640600834,498.33883640600834,,,,,,,,,,,,,,,,,,,,,,,,,,,,,,,,,,,,,,,,,,,,,,,,,,,,,,,,,,,,,,,,,,,,55611,2022-11-02_14h33.37.150,vts_reward_expectancy_bt_OFFLINE,2022.2.4,59.924121894600574,
0,0,0,1,1,0,0,0,star,triangle,0,0,0,0,0,6,6,9,,,,,,,,,,,,,,,,,,,,,,,,,,,,,,,,,,,,,,,,498.8407284991117,498.8407284991117,498.8407284991117,498.8407284991117,498.8407284991117,498.8407284991117,498.8407284991117,498.8407284991117,498.8407284991117,498.8407284991117,l,1.7748950779205188,10,43,0,500.6421879120171,502.14183684205636,,,,,,,,,,,,,,,,,,,,,,,,,,,,,,,,,,,,,,,,,,,,,,,,,,,,,,,,,,,,,,,,,,,,,55611,2022-11-02_14h33.37.150,vts_reward_expectancy_bt_OFFLINE,2022.2.4,59.924121894600574,
0,0,1,0,1,0,0,0,hexagon,triangle,0,0,0,0,0,7,7,6,,,,,,,,,,,,,,,,,,,,,,,,,,,,,,,,,,,,,,,,502.641757925041,502.641757925041,502.641757925041,502.641757925041,502.641757925041,502.641757925041,502.641757925041,502.641757925041,502.641757925041,502.641757925041,a,1.4450456589693204,10,53,0,504.11121855606325,505.61167695210315,505.61167695210315,506.1118144720094,,,,,,,,,,,,,,,,,,,,,,,,,,,,,,,,,,,,,,,,,,,,,,,,,,,,,,,,,,,,,,,,,,,55611,2022-11-02_14h33.37.150,vts_reward_expectancy_bt_OFFLINE,2022.2.4,59.924121894600574,
0,1,0,0,1,0,0,0,circle,triangle,0,0,0,0,0,8,8,3,,,,,,,,,,,,,,,,,,,,,,,,,,,,,,,,,,,,,,,,506.1118144720094,506.1118144720094,506.1118144720094,506.1118144720094,506.1118144720094,506.1118144720094,506.1118144720094,506.1118144720094,506.1118144720094,506.1118144720094,a,1.343373690964654,10,63,0,507.4788230101112,508.9814684250159,,,,,,,,,,,,,,,,,,,,,,,,,,,,,,,,,,,,,,,,,,,,,,,,,,,,,,,,,,,,,,,,,,,,,55611,2022-11-02_14h33.37.150,vts_reward_expectancy_bt_OFFLINE,2022.2.4,59.924121894600574,
0,1,0,0,0,0,0,1,circle,star,0,0,0,0,0,9,9,5,,,,,,,,,,,,,,,,,,,,,,,,,,,,,,,,,,,,,,,,509.48127227905206,509.48127227905206,509.48127227905206,509.48127227905206,509.48127227905206,509.48127227905206,509.48127227905206,509.48127227905206,509.48127227905206,509.48127227905206,a,1.1258189600193873,10,73,0,510.631962172105,512.132521498017,512.132521498017,512.632513353019,,,,,,,,,,,,,,,,,,,,,,,,,,,,,,,,,,,,,,,,,,,,,,,,,,,,,,,,,,,,,,,,,,,55611,2022-11-02_14h33.37.150,vts_reward_expectancy_bt_OFFLINE,2022.2.4,59.924121894600574,
0,1,0,0,0,0,1,0,circle,hexagon,0,0,0,0,0,10,10,4,,,,,,,,,,,,,,,,,,,,,,,,,,,,,,,,,,,,,,,,512.632513353019,512.632513353019,512.632513353019,512.632513353019,512.632513353019,512.632513353019,512.632513353019,512.632513353019,512.632513353019,512.632513353019,a,1.8384119749534875,10,83,0,514.5018483670428,516.0024448290933,516.0024448290933,,,,,,,,,,,,,,,,,,,,,,,,,,,,,,,,,,,,,,,,,,,,,,,,,,,,,,,,,,,,,,,,,,,,55611,2022-11-02_14h33.37.150,vts_reward_expectancy_bt_OFFLINE,2022.2.4,59.924121894600574,
0,0,1,0,0,0,0,1,hexagon,star,0,0,0,0,0,11,11,8,,,,,,,,,,,,,,,,,,,,,,,,,,,,,,,,,,,,,,,,516.5024589110399,516.5024589110399,516.5024589110399,516.5024589110399,516.5024589110399,516.5024589110399,516.5024589110399,516.5024589110399,516.5024589110399,516.5024589110399,a,1.2889157879399136,10,93,0,517.8194252391113,519.3222319940105,,,,,,,,,,,,,,,,,,,,,,,,,,,,,,,,,,,,,,,,,,,,,,,,,,,,,,,,,,,,,,,,,,,,,55611,2022-11-02_14h33.37.150,vts_reward_expectancy_bt_OFFLINE,2022.2.4,59.924121894600574,
1,0,0,0,0,1,0,0,triangle,circle,0,0,0,0,1,0,12,0,,,,,,,,,,,,,,,,,,,,,,,,,,,,,,,,,,,,,,,,519.8222423520638,519.8222423520638,519.8222423520638,519.8222423520638,519.8222423520638,519.8222423520638,519.8222423520638,519.8222423520638,519.8222423520638,519.8222423520638,l,0.9454203640343621,10,103,0,520.7891790351132,522.2898178750183,522.2898178750183,522.7899700640701,,,,,,,,,,,,,,,,,,,,,,,,,,,,,,,,,,,,,,,,,,,,,,,,,,,,,,,,,,,,,,,,,,,55611,2022-11-02_14h33.37.150,vts_reward_expectancy_bt_OFFLINE,2022.2.4,59.924121894600574,
0,0,0,1,1,0,0,0,star,triangle,0,0,0,0,1,1,13,9,,,,,,,,,,,,,,,,,,,,,,,,,,,,,,,,,,,,,,,,522.7899700640701,522.7899700640701,522.7899700640701,522.7899700640701,522.7899700640701,522.7899700640701,522.7899700640701,522.7899700640701,522.7899700640701,522.7899700640701,l,1.2332739050034434,1,104,0,524.044209123007,525.5595295960084,,,,,,,,,,,,,,,,,,,,,,,,,,,,,,,,,,,,,,,,,,,,,,,,,,,,,,,,,,,,,,,,,,,,,55611,2022-11-02_14h33.37.150,vts_reward_expectancy_bt_OFFLINE,2022.2.4,59.924121894600574,
0,0,0,1,0,1,0,0,star ,circle,0,0,0,0,1,2,14,10,,,,,,,,,,,,,,,,,,,,,,,,,,,,,,,,,,,,,,,,526.0598275490338,526.0598275490338,526.0598275490338,526.0598275490338,526.0598275490338,526.0598275490338,526.0598275490338,526.0598275490338,526.0598275490338,526.0598275490338,l,1.0270043809432536,10,114,0,527.1112550980179,528.6104568890296,528.6104568890296,,,,,,,,,,,,,,,,,,,,,,,,,,,,,,,,,,,,,,,,,,,,,,,,,,,,,,,,,,,,,,,,,,,,55611,2022-11-02_14h33.37.150,vts_reward_expectancy_bt_OFFLINE,2022.2.4,59.924121894600574,
0,0,1,0,0,1,0,0,hexagon,circle,0,0,0,0,1,3,15,7,,,,,,,,,,,,,,,,,,,,,,,,,,,,,,,,,,,,,,,,529.1126643890748,529.1126643890748,529.1126643890748,529.1126643890748,529.1126643890748,529.1126643890748,529.1126643890748,529.1126643890748,529.1126643890748,529.1126643890748,l,0.8785333730047569,10,124,0,530.0129670050228,531.5133512601024,531.5133512601024,532.0135523660574,,,,,,,,,,,,,,,,,,,,,,,,,,,,,,,,,,,,,,,,,,,,,,,,,,,,,,,,,,,,,,,,,,,55611,2022-11-02_14h33.37.150,vts_reward_expectancy_bt_OFFLINE,2022.2.4,59.924121894600574,
1,0,0,0,0,0,1,0,triangle,hexagon,0,0,0,0,1,4,16,1,,,,,,,,,,,,,,,,,,,,,,,,,,,,,,,,,,,,,,,,532.0135523660574,532.0135523660574,532.0135523660574,532.0135523660574,532.0135523660574,532.0135523660574,532.0135523660574,532.0135523660574,532.0135523660574,532.0135523660574,l,4.241880051908083,10,134,0,536.2838601100957,537.7842301590135,537.7842301590135,538.2843594000442,,,,,,,,,,,,,,,,,,,,,,,,,,,,,,,,,,,,,,,,,,,,,,,,,,,,,,,,,,,,,,,,,,,55611,2022-11-02_14h33.37.150,vts_reward_expectancy_bt_OFFLINE,2022.2.4,59.924121894600574,
0,0,1,0,0,0,0,1,hexagon,star,0,0,0,0,1,5,17,8,,,,,,,,,,,,,,,,,,,,,,,,,,,,,,,,,,,,,,,,538.2843594000442,538.2843594000442,538.2843594000442,538.2843594000442,538.2843594000442,538.2843594000442,538.2843594000442,538.2843594000442,538.2843594000442,538.2843594000442,a,1.0111857189331204,10,144,0,539.3199775220128,540.8204093860695,540.8204093860695,541.3206845720997,,,,,,,,,,,,,,,,,,,,,,,,,,,,,,,,,,,,,,,,,,,,,,,,,,,,,,,,,,,,,,,,,,,55611,2022-11-02_14h33.37.150,vts_reward_expectancy_bt_OFFLINE,2022.2.4,59.924121894600574,
0,1,0,0,0,0,0,1,circle,star,0,0,0,0,1,6,18,5,,,,,,,,,,,,,,,,,,,,,,,,,,,,,,,,,,,,,,,,541.3206845720997,541.3206845720997,541.3206845720997,541.3206845720997,541.3206845720997,541.3206845720997,541.3206845720997,541.3206845720997,541.3206845720997,541.3206845720997,a,0.934911509975791,10,154,0,542.2876150161028,543.7882895600051,543.7882895600051,,,,,,,,,,,,,,,,,,,,,,,,,,,,,,,,,,,,,,,,,,,,,,,,,,,,,,,,,,,,,,,,,,,,55611,2022-11-02_14h33.37.150,vts_reward_expectancy_bt_OFFLINE,2022.2.4,59.924121894600574,
1,0,0,0,0,0,0,1,triangle,star,0,0,0,0,1,7,19,2,,,,,,,,,,,,,,,,,,,,,,,,,,,,,,,,,,,,,,,,544.2902312290389,544.2902312290389,544.2902312290389,544.2902312290389,544.2902312290389,544.2902312290389,544.2902312290389,544.2902312290389,544.2902312290389,544.2902312290389,l,1.5571355000138283,1,155,0,545.8754920971114,547.3746732471045,547.3746732471045,547.8747859420255,,,,,,,,,,,,,,,,,,,,,,,,,,,,,,,,,,,,,,,,,,,,,,,,,,,,,,,,,,,,,,,,,,,55611,2022-11-02_14h33.37.150,vts_reward_expectancy_bt_OFFLINE,2022.2.4,59.924121894600574,
0,0,0,1,0,0,1,0,star,hexagon,0,0,0,0,1,8,20,11,,,,,,,,,,,,,,,,,,,,,,,,,,,,,,,,,,,,,,,,547.8747859420255,547.8747859420255,547.8747859420255,547.8747859420255,547.8747859420255,547.8747859420255,547.8747859420255,547.8747859420255,547.8747859420255,547.8747859420255,l,1.044996969983913,10,165,0,548.9455764261074,550.4609429360135,,,,,,,,,,,,,,,,,,,,,,,,,,,,,,,,,,,,,,,,,,,,,,,,,,,,,,,,,,,,,,,,,,,,,55611,2022-11-02_14h33.37.150,vts_reward_expectancy_bt_OFFLINE,2022.2.4,59.924121894600574,
0,1,0,0,0,0,1,0,circle,hexagon,0,0,0,0,1,9,21,4,,,,,,,,,,,,,,,,,,,,,,,,,,,,,,,,,,,,,,,,550.9612859850749,550.9612859850749,550.9612859850749,550.9612859850749,550.9612859850749,550.9612859850749,550.9612859850749,550.9612859850749,550.9612859850749,550.9612859850749,a,0.7579452028730884,10,175,0,551.7447941350983,553.2455189950997,553.2455189950997,,,,,,,,,,,,,,,,,,,,,,,,,,,,,,,,,,,,,,,,,,,,,,,,,,,,,,,,,,,,,,,,,,,,55611,2022-11-02_14h33.37.150,vts_reward_expectancy_bt_OFFLINE,2022.2.4,59.924121894600574,
0,1,0,0,1,0,0,0,circle,triangle,0,0,0,0,1,10,22,3,,,,,,,,,,,,,,,,,,,,,,,,,,,,,,,,,,,,,,,,553.7451965280343,553.7451965280343,553.7451965280343,553.7451965280343,553.7451965280343,553.7451965280343,553.7451965280343,553.7451965280343,553.7451965280343,553.7451965280343,a,0.9180324169574305,10,185,0,554.6808386550983,556.1818626370514,556.1818626370514,,,,,,,,,,,,,,,,,,,,,,,,,,,,,,,,,,,,,,,,,,,,,,,,,,,,,,,,,,,,,,,,,,,,55611,2022-11-02_14h33.37.150,vts_reward_expectancy_bt_OFFLINE,2022.2.4,59.924121894600574,
0,0,1,0,1,0,0,0,hexagon,triangle,0,0,0,0,1,11,23,6,,,,,,,,,,,,,,,,,,,,,,,,,,,,,,,,,,,,,,,,556.6817827910418,556.6817827910418,556.6817827910418,556.6817827910418,556.6817827910418,556.6817827910418,556.6817827910418,556.6817827910418,556.6817827910418,556.6817827910418,a,0.6131381849991158,10,195,0,557.3153231460601,558.8158436700469,558.8158436700469,,,,,,,,,,,,,,,,,,,,,,,,,,,,,,,,,,,,,,,,,,,,,,,,,,,,,,,,,,,,,,,,,,,,55611,2022-11-02_14h33.37.150,vts_reward_expectancy_bt_OFFLINE,2022.2.4,59.924121894600574,
0,0,0,1,0,1,0,0,star ,circle,0,0,0,0,2,0,24,10,,,,,,,,,,,,,,,,,,,,,,,,,,,,,,,,,,,,,,,,559.3179653490661,559.3179653490661,559.3179653490661,559.3179653490661,559.3179653490661,559.3179653490661,559.3179653490661,559.3179653490661,559.3179653490661,559.3179653490661,l,0.6170232899021357,1,196,0,559.9682276831008,561.4687443160219,,561.9687640760094,,,,,,,,,,,,,,,,,,,,,,,,,,,,,,,,,,,,,,,,,,,,,,,,,,,,,,,,,,,,,,,,,,,55611,2022-11-02_14h33.37.150,vts_reward_expectancy_bt_OFFLINE,2022.2.4,59.924121894600574,
0,0,0,1,1,0,0,0,star,triangle,0,0,0,0,2,1,25,9,,,,,,,,,,,,,,,,,,,,,,,,,,,,,,,,,,,,,,,,561.9687640760094,561.9687640760094,561.9687640760094,561.9687640760094,561.9687640760094,561.9687640760094,561.9687640760094,561.9687640760094,561.9687640760094,561.9687640760094,l,1.0711758959805593,1,197,0,563.0693978670752,564.571534914081,,,,,,,,,,,,,,,,,,,,,,,,,,,,,,,,,,,,,,,,,,,,,,,,,,,,,,,,,,,,,,,,,,,,,55611,2022-11-02_14h33.37.150,vts_reward_expectancy_bt_OFFLINE,2022.2.4,59.924121894600574,
1,0,0,0,0,0,0,1,triangle,star,0,0,0,0,2,2,26,2,,,,,,,,,,,,,,,,,,,,,,,,,,,,,,,,,,,,,,,,565.0716727280524,565.0716727280524,565.0716727280524,565.0716727280524,565.0716727280524,565.0716727280524,565.0716727280524,565.0716727280524,565.0716727280524,565.0716727280524,l,1.3674108519917354,1,198,0,566.4557586680166,567.9558949370403,567.9558949370403,568.456186428084,,,,,,,,,,,,,,,,,,,,,,,,,,,,,,,,,,,,,,,,,,,,,,,,,,,,,,,,,,,,,,,,,,,55611,2022-11-02_14h33.37.150,vts_reward_expectancy_bt_OFFLINE,2022.2.4,59.924121894600574,
0,1,0,0,0,0,0,1,circle,star,0,0,0,0,2,3,27,5,,,,,,,,,,,,,,,,,,,,,,,,,,,,,,,,,,,,,,,,568.456186428084,568.456186428084,568.456186428084,568.456186428084,568.456186428084,568.456186428084,568.456186428084,568.456186428084,568.456186428084,568.456186428084,a,0.7357744469773024,10,208,0,569.2101125490153,570.7256230140338,,,,,,,,,,,,,,,,,,,,,,,,,,,,,,,,,,,,,,,,,,,,,,,,,,,,,,,,,,,,,,,,,,,,,55611,2022-11-02_14h33.37.150,vts_reward_expectancy_bt_OFFLINE,2022.2.4,59.924121894600574,
1,0,0,0,0,0,1,0,triangle,hexagon,0,0,0,0,2,4,28,1,,,,,,,,,,,,,,,,,,,,,,,,,,,,,,,,,,,,,,,,571.2258378550177,571.2258378550177,571.2258378550177,571.2258378550177,571.2258378550177,571.2258378550177,571.2258378550177,571.2258378550177,571.2258378550177,571.2258378550177,l,1.4300489809829742,10,218,0,572.6761260050116,574.1787600960815,,,,,,,,,,,,,,,,,,,,,,,,,,,,,,,,,,,,,,,,,,,,,,,,,,,,,,,,,,,,,,,,,,,,,55611,2022-11-02_14h33.37.150,vts_reward_expectancy_bt_OFFLINE,2022.2.4,59.924121894600574,
0,0,0,1,0,0,1,0,star,hexagon,0,0,0,0,2,5,29,11,,,,,,,,,,,,,,,,,,,,,,,,,,,,,,,,,,,,,,,,574.6788332350552,574.6788332350552,574.6788332350552,574.6788332350552,574.6788332350552,574.6788332350552,574.6788332350552,574.6788332350552,574.6788332350552,574.6788332350552,l,1.5931362689007074,10,228,0,576.2961507400032,577.7965372420149,577.7965372420149,578.2966707720188,,,,,,,,,,,,,,,,,,,,,,,,,,,,,,,,,,,,,,,,,,,,,,,,,,,,,,,,,,,,,,,,,,,55611,2022-11-02_14h33.37.150,vts_reward_expectancy_bt_OFFLINE,2022.2.4,59.924121894600574,
1,0,0,0,0,1,0,0,triangle,circle,0,0,0,0,2,6,30,0,,,,,,,,,,,,,,,,,,,,,,,,,,,,,,,,,,,,,,,,578.2966707720188,578.2966707720188,578.2966707720188,578.2966707720188,578.2966707720188,578.2966707720188,578.2966707720188,578.2966707720188,578.2966707720188,578.2966707720188,l,0.6471785010071471,1,229,0,578.9672870470677,580.4663954800926,580.4663954800926,580.9662835740019,,,,,,,,,,,,,,,,,,,,,,,,,,,,,,,,,,,,,,,,,,,,,,,,,,,,,,,,,,,,,,,,,,,55611,2022-11-02_14h33.37.150,vts_reward_expectancy_bt_OFFLINE,2022.2.4,59.924121894600574,
0,0,1,0,1,0,0,0,hexagon,triangle,0,0,0,0,2,7,31,6,,,,,,,,,,,,,,,,,,,,,,,,,,,,,,,,,,,,,,,,580.9662835740019,580.9662835740019,580.9662835740019,580.9662835740019,580.9662835740019,580.9662835740019,580.9662835740019,580.9662835740019,580.9662835740019,580.9662835740019,a,1.232848501065746,10,239,0,582.2181944110198,583.7173396890284,583.7173396890284,,,,,,,,,,,,,,,,,,,,,,,,,,,,,,,,,,,,,,,,,,,,,,,,,,,,,,,,,,,,,,,,,,,,55611,2022-11-02_14h33.37.150,vts_reward_expectancy_bt_OFFLINE,2022.2.4,59.924121894600574,
0,1,0,0,0,0,1,0,circle,hexagon,0,0,0,0,2,8,32,4,,,,,,,,,,,,,,,,,,,,,,,,,,,,,,,,,,,,,,,,584.219271521084,584.219271521084,584.219271521084,584.219271521084,584.219271521084,584.219271521084,584.219271521084,584.219271521084,584.219271521084,584.219271521084,a,0.9399867240572348,10,249,0,585.1862128910143,586.6868368680589,586.6868368680589,587.18708999909,,,,,,,,,,,,,,,,,,,,,,,,,,,,,,,,,,,,,,,,,,,,,,,,,,,,,,,,,,,,,,,,,,,55611,2022-11-02_14h33.37.150,vts_reward_expectancy_bt_OFFLINE,2022.2.4,59.924121894600574,
0,1,0,0,1,0,0,0,circle,triangle,0,0,0,0,2,9,33,3,,,,,,,,,,,,,,,,,,,,,,,,,,,,,,,,,,,,,,,,587.18708999909,587.18708999909,587.18708999909,587.18708999909,587.18708999909,587.18708999909,587.18708999909,587.18708999909,587.18708999909,587.18708999909,a,0.6926523229340091,10,259,0,587.9041632500011,589.4065484621096,,,,,,,,,,,,,,,,,,,,,,,,,,,,,,,,,,,,,,,,,,,,,,,,,,,,,,,,,,,,,,,,,,,,,55611,2022-11-02_14h33.37.150,vts_reward_expectancy_bt_OFFLINE,2022.2.4,59.924121894600574,
0,0,1,0,0,1,0,0,hexagon,circle,0,0,0,0,2,10,34,7,,,,,,,,,,,,,,,,,,,,,,,,,,,,,,,,,,,,,,,,589.9066258741077,589.9066258741077,589.9066258741077,589.9066258741077,589.9066258741077,589.9066258741077,589.9066258741077,589.9066258741077,589.9066258741077,589.9066258741077,l,0.9402268180856481,10,269,0,590.8735605271067,592.3740134150721,592.3740134150721,592.8742719190195,,,,,,,,,,,,,,,,,,,,,,,,,,,,,,,,,,,,,,,,,,,,,,,,,,,,,,,,,,,,,,,,,,,55611,2022-11-02_14h33.37.150,vts_reward_expectancy_bt_OFFLINE,2022.2.4,59.924121894600574,
0,0,1,0,0,0,0,1,hexagon,star,0,0,0,0,2,11,35,8,,,,,,,,,,,,,,,,,,,,,,,,,,,,,,,,,,,,,,,,592.8742719190195,592.8742719190195,592.8742719190195,592.8742719190195,592.8742719190195,592.8742719190195,592.8742719190195,592.8742719190195,592.8742719190195,592.8742719190195,l,1.2214137009577826,1,270,0,594.1282774530118,595.6439274250297,,,,,,,,,,,,,,,,,,,,,,,,,,,,,,,,,,,,,,,,,,,,,,,,,,,,,,,,,,,,,,,,,,,,,55611,2022-11-02_14h33.37.150,vts_reward_expectancy_bt_OFFLINE,2022.2.4,59.924121894600574,
1,0,0,0,0,1,0,0,triangle,circle,0,0,0,0,3,0,36,0,,,,,,,,,,,,,,,,,,,,,,,,,,,,,,,,,,,,,,,,596.1271706710104,596.1271706710104,596.1271706710104,596.1271706710104,596.1271706710104,596.1271706710104,596.1271706710104,596.1271706710104,596.1271706710104,596.1271706710104,l,0.5121647940250114,10,280,0,596.6623875080841,598.178199031041,,,,,,,,,,,,,,,,,,,,,,,,,,,,,,,,,,,,,,,,,,,,,,,,,,,,,,,,,,,,,,,,,,,,,55611,2022-11-02_14h33.37.150,vts_reward_expectancy_bt_OFFLINE,2022.2.4,59.924121894600574,
1,0,0,0,0,0,1,0,triangle,hexagon,0,0,0,0,3,1,37,1,,,,,,,,,,,,,,,,,,,,,,,,,,,,,,,,,,,,,,,,598.6782468591118,598.6782468591118,598.6782468591118,598.6782468591118,598.6782468591118,598.6782468591118,598.6782468591118,598.6782468591118,598.6782468591118,598.6782468591118,l,0.7136280320119113,10,290,0,599.4137500160141,600.9144829970319,600.9144829970319,,,,,,,,,,,,,,,,,,,,,,,,,,,,,,,,,,,,,,,,,,,,,,,,,,,,,,,,,,,,,,,,,,,,55611,2022-11-02_14h33.37.150,vts_reward_expectancy_bt_OFFLINE,2022.2.4,59.924121894600574,
0,1,0,0,0,0,1,0,circle,hexagon,0,0,0,0,3,2,38,4,,,,,,,,,,,,,,,,,,,,,,,,,,,,,,,,,,,,,,,,601.4144728970714,601.4144728970714,601.4144728970714,601.4144728970714,601.4144728970714,601.4144728970714,601.4144728970714,601.4144728970714,601.4144728970714,601.4144728970714,a,0.8169779109302908,10,300,0,602.2481002201093,603.7484958540881,603.7484958540881,,,,,,,,,,,,,,,,,,,,,,,,,,,,,,,,,,,,,,,,,,,,,,,,,,,,,,,,,,,,,,,,,,,,55611,2022-11-02_14h33.37.150,vts_reward_expectancy_bt_OFFLINE,2022.2.4,59.924121894600574,
0,0,0,1,0,0,1,0,star,hexagon,0,0,0,0,3,3,39,11,,,,,,,,,,,,,,,,,,,,,,,,,,,,,,,,,,,,,,,,604.2506863910239,604.2506863910239,604.2506863910239,604.2506863910239,604.2506863910239,604.2506863910239,604.2506863910239,604.2506863910239,604.2506863910239,604.2506863910239,l,1.0606340679805726,10,310,0,605.3345079220599,606.8349328680197,606.8349328680197,607.3349082310451,,,,,,,,,,,,,,,,,,,,,,,,,,,,,,,,,,,,,,,,,,,,,,,,,,,,,,,,,,,,,,,,,,,55611,2022-11-02_14h33.37.150,vts_reward_expectancy_bt_OFFLINE,2022.2.4,59.924121894600574,
0,1,0,0,0,0,0,1,circle,star,0,0,0,0,3,4,40,5,,,,,,,,,,,,,,,,,,,,,,,,,,,,,,,,,,,,,,,,607.3349082310451,607.3349082310451,607.3349082310451,607.3349082310451,607.3349082310451,607.3349082310451,607.3349082310451,607.3349082310451,607.3349082310451,607.3349082310451,a,0.5043844770407304,10,320,0,607.8686125600943,609.3709664620692,,,,,,,,,,,,,,,,,,,,,,,,,,,,,,,,,,,,,,,,,,,,,,,,,,,,,,,,,,,,,,,,,,,,,55611,2022-11-02_14h33.37.150,vts_reward_expectancy_bt_OFFLINE,2022.2.4,59.924121894600574,
0,1,0,0,1,0,0,0,circle,triangle,0,0,0,0,3,5,41,3,,,,,,,,,,,,,,,,,,,,,,,,,,,,,,,,,,,,,,,,609.871192494058,609.871192494058,609.871192494058,609.871192494058,609.871192494058,609.871192494058,609.871192494058,609.871192494058,609.871192494058,609.871192494058,a,0.44778402301017195,10,330,0,610.3379669591086,611.8383302550064,611.8383302550064,612.3386951111024,,,,,,,,,,,,,,,,,,,,,,,,,,,,,,,,,,,,,,,,,,,,,,,,,,,,,,,,,,,,,,,,,,,55611,2022-11-02_14h33.37.150,vts_reward_expectancy_bt_OFFLINE,2022.2.4,59.924121894600574,
0,0,1,0,0,1,0,0,hexagon,circle,0,0,0,0,3,6,42,7,,,,,,,,,,,,,,,,,,,,,,,,,,,,,,,,,,,,,,,,612.3386951111024,612.3386951111024,612.3386951111024,612.3386951111024,612.3386951111024,612.3386951111024,612.3386951111024,612.3386951111024,612.3386951111024,612.3386951111024,l,0.5646167619852349,10,340,0,612.9222122270148,614.4247080980567,,,,,,,,,,,,,,,,,,,,,,,,,,,,,,,,,,,,,,,,,,,,,,,,,,,,,,,,,,,,,,,,,,,,,55611,2022-11-02_14h33.37.150,vts_reward_expectancy_bt_OFFLINE,2022.2.4,59.924121894600574,
0,0,1,0,0,0,0,1,hexagon,star,0,0,0,0,3,7,43,8,,,,,,,,,,,,,,,,,,,,,,,,,,,,,,,,,,,,,,,,614.9247357810382,614.9247357810382,614.9247357810382,614.9247357810382,614.9247357810382,614.9247357810382,614.9247357810382,614.9247357810382,614.9247357810382,614.9247357810382,a,0.7470779829891399,10,350,0,615.6918069761014,617.1922834180295,617.1922834180295,617.6922432930442,,,,,,,,,,,,,,,,,,,,,,,,,,,,,,,,,,,,,,,,,,,,,,,,,,,,,,,,,,,,,,,,,,,55611,2022-11-02_14h33.37.150,vts_reward_expectancy_bt_OFFLINE,2022.2.4,59.924121894600574,
0,0,1,0,1,0,0,0,hexagon,triangle,0,0,0,0,3,8,44,6,,,,,,,,,,,,,,,,,,,,,,,,,,,,,,,,,,,,,,,,617.6922432930442,617.6922432930442,617.6922432930442,617.6922432930442,617.6922432930442,617.6922432930442,617.6922432930442,617.6922432930442,617.6922432930442,617.6922432930442,a,0.6993360940832645,10,360,0,618.4093262220267,619.9118522540666,,,,,,,,,,,,,,,,,,,,,,,,,,,,,,,,,,,,,,,,,,,,,,,,,,,,,,,,,,,,,,,,,,,,,55611,2022-11-02_14h33.37.150,vts_reward_expectancy_bt_OFFLINE,2022.2.4,59.924121894600574,
0,0,0,1,0,1,0,0,star ,circle,0,0,0,0,3,9,45,10,,,,,,,,,,,,,,,,,,,,,,,,,,,,,,,,,,,,,,,,620.4119667120976,620.4119667120976,620.4119667120976,620.4119667120976,620.4119667120976,620.4119667120976,620.4119667120976,620.4119667120976,620.4119667120976,620.4119667120976,l,0.45930190896615386,1,361,0,620.8970264190575,622.395946924109,622.395946924109,622.8959425711073,,,,,,,,,,,,,,,,,,,,,,,,,,,,,,,,,,,,,,,,,,,,,,,,,,,,,,,,,,,,,,,,,,,55611,2022-11-02_14h33.37.150,vts_reward_expectancy_bt_OFFLINE,2022.2.4,59.924121894600574,
0,0,0,1,1,0,0,0,star,triangle,0,0,0,0,3,10,46,9,,,,,,,,,,,,,,,,,,,,,,,,,,,,,,,,,,,,,,,,622.8959425711073,622.8959425711073,622.8959425711073,622.8959425711073,622.8959425711073,622.8959425711073,622.8959425711073,622.8959425711073,622.8959425711073,622.8959425711073,a,1.7435899549163878,1,362,0,624.6654999040766,626.165854751016,626.165854751016,626.6659774410073,,,,,,,,,,,,,,,,,,,,,,,,,,,,,,,,,,,,,,,,,,,,,,,,,,,,,,,,,,,,,,,,,,,55611,2022-11-02_14h33.37.150,vts_reward_expectancy_bt_OFFLINE,2022.2.4,59.924121894600574,
1,0,0,0,0,0,0,1,triangle,star,0,0,0,0,3,11,47,2,,,,,,,,,,,,,,,,,,,,,,,,,,,,,,,,,,,,,,,,626.6659774410073,626.6659774410073,626.6659774410073,626.6659774410073,626.6659774410073,626.6659774410073,626.6659774410073,626.6659774410073,626.6659774410073,626.6659774410073,a,0.6055017829639837,1,363,0,627.2996300800005,628.7998872770695,628.7998872770695,,,,,,,,,,,,,,,,,,,,,,,,,,,,,,,,,,,,,,,,,,,,,,,,,,,,,,,,,,,,,,,,,,,,55611,2022-11-02_14h33.37.150,vts_reward_expectancy_bt_OFFLINE,2022.2.4,59.924121894600574,
1,0,0,0,0,1,0,0,triangle,circle,1,0,1,0,0,0,0,0,,,,,,,,,,,,,,,,,,,,,,,,,,,,,,,,,,,,,,,,643.3552895950852,643.3552895950852,643.3552895950852,643.3552895950852,643.3552895950852,643.3552895950852,643.3552895950852,643.3552895950852,643.3552895950852,643.3552895950852,l,0.8280529020121321,10,373,1,644.2145173250465,645.7136551110307,645.7136551110307,,,,,,,,,,,,,,,,,,,,,,,,,,,,,,,,,,,,,,,,,,,,,,,,,,,,,,,,,,,,,,,,,,,,55611,2022-11-02_14h33.37.150,vts_reward_expectancy_bt_OFFLINE,2022.2.4,59.924121894600574,
0,1,0,0,0,0,1,0,circle,hexagon,1,0,1,0,0,1,1,4,,,,,,,,,,,,,,,,,,,,,,,,,,,,,,,,,,,,,,,,646.2137717830483,646.2137717830483,646.2137717830483,646.2137717830483,646.2137717830483,646.2137717830483,646.2137717830483,646.2137717830483,646.2137717830483,646.2137717830483,a,0.6014874689280987,10,383,1,646.8471057300922,648.34790015209,648.34790015209,648.8479948620079,,,,,,,,,,,,,,,,,,,,,,,,,,,,,,,,,,,,,,,,,,,,,,,,,,,,,,,,,,,,,,,,,,,55611,2022-11-02_14h33.37.150,vts_reward_expectancy_bt_OFFLINE,2022.2.4,59.924121894600574,
0,0,1,0,1,0,0,0,hexagon,triangle,1,0,1,0,0,2,2,6,,,,,,,,,,,,,,,,,,,,,,,,,,,,,,,,,,,,,,,,648.8479948620079,648.8479948620079,648.8479948620079,648.8479948620079,648.8479948620079,648.8479948620079,648.8479948620079,648.8479948620079,648.8479948620079,648.8479948620079,a,0.5916246909182519,10,393,1,649.4667667309986,650.9674622000894,,,,,,,,,,,,,,,,,,,,,,,,,,,,,,,,,,,,,,,,,,,,,,,,,,,,,,,,,,,,,,,,,,,,,55611,2022-11-02_14h33.37.150,vts_reward_expectancy_bt_OFFLINE,2022.2.4,59.924121894600574,
0,0,0,1,1,0,0,0,star,triangle,1,0,1,0,0,3,3,9,,,,,,,,,,,,,,,,,,,,,,,,,,,,,,,,,,,,,,,,651.46745202702,651.46745202702,651.46745202702,651.46745202702,651.46745202702,651.46745202702,651.46745202702,651.46745202702,651.46745202702,651.46745202702,l,0.7873255559243262,1,394,1,652.2861828140449,653.8016568160383,,,,,,,,,,,,,,,,,,,,,,,,,,,,,,,,,,,,,,,,,,,,,,,,,,,,,,,,,,,,,,,,,,,,,55611,2022-11-02_14h33.37.150,vts_reward_expectancy_bt_OFFLINE,2022.2.4,59.924121894600574,
1,0,0,0,0,0,1,0,triangle,hexagon,1,0,1,0,0,4,4,1,,,,,,,,,,,,,,,,,,,,,,,,,,,,,,,,,,,,,,,,654.2868565650424,654.2868565650424,654.2868565650424,654.2868565650424,654.2868565650424,654.2868565650424,654.2868565650424,654.2868565650424,654.2868565650424,654.2868565650424,l,1.0004460740601644,1,395,1,655.3040344309993,656.8044573001098,656.8044573001098,657.3046865620418,,,,,,,,,,,,,,,,,,,,,,,,,,,,,,,,,,,,,,,,,,,,,,,,,,,,,,,,,,,,,,,,,,,55611,2022-11-02_14h33.37.150,vts_reward_expectancy_bt_OFFLINE,2022.2.4,59.924121894600574,
0,1,0,0,0,0,0,1,circle,star,1,0,1,0,0,5,5,5,,,,,,,,,,,,,,,,,,,,,,,,,,,,,,,,,,,,,,,,657.3046865620418,657.3046865620418,657.3046865620418,657.3046865620418,657.3046865620418,657.3046865620418,657.3046865620418,657.3046865620418,657.3046865620418,657.3046865620418,a,0.8220759970135987,10,405,1,658.1569717481034,659.6576083800755,,,,,,,,,,,,,,,,,,,,,,,,,,,,,,,,,,,,,,,,,,,,,,,,,,,,,,,,,,,,,,,,,,,,,55611,2022-11-02_14h33.37.150,vts_reward_expectancy_bt_OFFLINE,2022.2.4,59.924121894600574,
0,0,0,1,0,1,0,0,star ,circle,1,0,1,0,0,6,6,10,,,,,,,,,,,,,,,,,,,,,,,,,,,,,,,,,,,,,,,,660.1577373880427,660.1577373880427,660.1577373880427,660.1577373880427,660.1577373880427,660.1577373880427,660.1577373880427,660.1577373880427,660.1577373880427,660.1577373880427,a,1.017152233980596,10,415,1,661.1915136760799,662.6919605520088,662.6919605520088,663.1919628740288,,,,,,,,,,,,,,,,,,,,,,,,,,,,,,,,,,,,,,,,,,,,,,,,,,,,,,,,,,,,,,,,,,,55611,2022-11-02_14h33.37.150,vts_reward_expectancy_bt_OFFLINE,2022.2.4,59.924121894600574,
0,0,1,0,0,0,0,1,hexagon,star,1,0,1,0,0,7,7,8,,,,,,,,,,,,,,,,,,,,,,,,,,,,,,,,,,,,,,,,663.1919628740288,663.1919628740288,663.1919628740288,663.1919628740288,663.1919628740288,663.1919628740288,663.1919628740288,663.1919628740288,663.1919628740288,663.1919628740288,a,1.4318410090636462,10,425,1,664.6441354100825,666.1450512500014,666.1450512500014,666.6451228880323,,,,,,,,,,,,,,,,,,,,,,,,,,,,,,,,,,,,,,,,,,,,,,,,,,,,,,,,,,,,,,,,,,,55611,2022-11-02_14h33.37.150,vts_reward_expectancy_bt_OFFLINE,2022.2.4,59.924121894600574,
1,0,0,0,0,0,0,1,triangle,star,1,0,1,0,0,8,8,2,,,,,,,,,,,,,,,,,,,,,,,,,,,,,,,,,,,,,,,,666.6451228880323,666.6451228880323,666.6451228880323,666.6451228880323,666.6451228880323,666.6451228880323,666.6451228880323,666.6451228880323,666.6451228880323,666.6451228880323,a,1.0182847590185702,1,426,1,667.6960869790055,669.197985288105,,,,,,,,,,,,,,,,,,,,,,,,,,,,,,,,,,,,,,,,,,,,,,,,,,,,,,,,,,,,,,,,,,,,,55611,2022-11-02_14h33.37.150,vts_reward_expectancy_bt_OFFLINE,2022.2.4,59.924121894600574,
0,1,0,0,1,0,0,0,circle,triangle,1,0,1,0,0,9,9,3,,,,,,,,,,,,,,,,,,,,,,,,,,,,,,,,,,,,,,,,669.6980738400016,669.6980738400016,669.6980738400016,669.6980738400016,669.6980738400016,669.6980738400016,669.6980738400016,669.6980738400016,669.6980738400016,669.6980738400016,a,0.781434862059541,10,436,1,670.5001898630289,672.0155358390184,,,,,,,,,,,,,,,,,,,,,,,,,,,,,,,,,,,,,,,,,,,,,,,,,,,,,,,,,,,,,,,,,,,,,55611,2022-11-02_14h33.37.150,vts_reward_expectancy_bt_OFFLINE,2022.2.4,59.924121894600574,
0,0,1,0,0,1,0,0,hexagon,circle,1,0,1,0,0,10,10,7,,,,,,,,,,,,,,,,,,,,,,,,,,,,,,,,,,,,,,,,672.5158449941082,672.5158449941082,672.5158449941082,672.5158449941082,672.5158449941082,672.5158449941082,672.5158449941082,672.5158449941082,672.5158449941082,672.5158449941082,l,0.8521307779010385,10,446,1,673.3992375010857,674.9017251150217,,,,,,,,,,,,,,,,,,,,,,,,,,,,,,,,,,,,,,,,,,,,,,,,,,,,,,,,,,,,,,,,,,,,,55611,2022-11-02_14h33.37.150,vts_reward_expectancy_bt_OFFLINE,2022.2.4,59.924121894600574,
0,0,0,1,0,0,1,0,star,hexagon,1,0,1,0,0,11,11,11,,,,,,,,,,,,,,,,,,,,,,,,,,,,,,,,,,,,,,,,675.4020950070117,675.4020950070117,675.4020950070117,675.4020950070117,675.4020950070117,675.4020950070117,675.4020950070117,675.4020950070117,675.4020950070117,675.4020950070117,l,1.9731605029664934,10,456,1,677.4024578760145,678.9032114600996,678.9032114600996,,,,,,,,,,,,,,,,,,,,,,,,,,,,,,,,,,,,,,,,,,,,,,,,,,,,,,,,,,,,,,,,,,,,55611,2022-11-02_14h33.37.150,vts_reward_expectancy_bt_OFFLINE,2022.2.4,59.924121894600574,
0,0,1,0,0,1,0,0,hexagon,circle,1,0,1,0,1,0,12,7,,,,,,,,,,,,,,,,,,,,,,,,,,,,,,,,,,,,,,,,679.4052395410836,679.4052395410836,679.4052395410836,679.4052395410836,679.4052395410836,679.4052395410836,679.4052395410836,679.4052395410836,679.4052395410836,679.4052395410836,l,0.6897548889974132,1,457,1,680.1241680510575,681.6393424320268,,,,,,,,,,,,,,,,,,,,,,,,,,,,,,,,,,,,,,,,,,,,,,,,,,,,,,,,,,,,,,,,,,,,,55611,2022-11-02_14h33.37.150,vts_reward_expectancy_bt_OFFLINE,2022.2.4,59.924121894600574,
0,1,0,0,1,0,0,0,circle,triangle,1,0,1,0,1,1,13,3,,,,,,,,,,,,,,,,,,,,,,,,,,,,,,,,,,,,,,,,682.1395780050661,682.1395780050661,682.1395780050661,682.1395780050661,682.1395780050661,682.1395780050661,682.1395780050661,682.1395780050661,682.1395780050661,682.1395780050661,a,0.9722168480511755,1,458,1,683.1399484840222,684.6422639940865,,,,,,,,,,,,,,,,,,,,,,,,,,,,,,,,,,,,,,,,,,,,,,,,,,,,,,,,,,,,,,,,,,,,,55611,2022-11-02_14h33.37.150,vts_reward_expectancy_bt_OFFLINE,2022.2.4,59.924121894600574,
0,1,0,0,0,0,0,1,circle,star,1,0,1,0,1,2,14,5,,,,,,,,,,,,,,,,,,,,,,,,,,,,,,,,,,,,,,,,685.1424853720237,685.1424853720237,685.1424853720237,685.1424853720237,685.1424853720237,685.1424853720237,685.1424853720237,685.1424853720237,685.1424853720237,685.1424853720237,l,1.5775166020030156,1,459,1,686.7431163250003,688.2434479870135,688.2434479870135,688.7436789140338,,,,,,,,,,,,,,,,,,,,,,,,,,,,,,,,,,,,,,,,,,,,,,,,,,,,,,,,,,,,,,,,,,,55611,2022-11-02_14h33.37.150,vts_reward_expectancy_bt_OFFLINE,2022.2.4,59.924121894600574,
1,0,0,0,0,0,1,0,triangle,hexagon,1,0,1,0,1,3,15,1,,,,,,,,,,,,,,,,,,,,,,,,,,,,,,,,,,,,,,,,688.7436789140338,688.7436789140338,688.7436789140338,688.7436789140338,688.7436789140338,688.7436789140338,688.7436789140338,688.7436789140338,688.7436789140338,688.7436789140338,l,0.6071996199898422,1,460,1,689.378967148019,690.8796060070163,690.8796060070163,691.3798103610752,,,,,,,,,,,,,,,,,,,,,,,,,,,,,,,,,,,,,,,,,,,,,,,,,,,,,,,,,,,,,,,,,,,55611,2022-11-02_14h33.37.150,vts_reward_expectancy_bt_OFFLINE,2022.2.4,59.924121894600574,
0,1,0,0,0,0,1,0,circle,hexagon,1,0,1,0,1,4,16,4,,,,,,,,,,,,,,,,,,,,,,,,,,,,,,,,,,,,,,,,691.3798103610752,691.3798103610752,691.3798103610752,691.3798103610752,691.3798103610752,691.3798103610752,691.3798103610752,691.3798103610752,691.3798103610752,691.3798103610752,l,0.963103951071389,10,470,1,692.3656144890701,693.8809520551004,,,,,,,,,,,,,,,,,,,,,,,,,,,,,,,,,,,,,,,,,,,,,,,,,,,,,,,,,,,,,,,,,,,,,55611,2022-11-02_14h33.37.150,vts_reward_expectancy_bt_OFFLINE,2022.2.4,59.924121894600574,
0,0,0,1,0,1,0,0,star ,circle,1,0,1,0,1,5,17,10,,,,,,,,,,,,,,,,,,,,,,,,,,,,,,,,,,,,,,,,694.3662581871031,694.3662581871031,694.3662581871031,694.3662581871031,694.3662581871031,694.3662581871031,694.3662581871031,694.3662581871031,694.3662581871031,694.3662581871031,a,0.5615182990441099,10,480,1,694.9497569500236,696.4502415660536,696.4502415660536,696.9504523470532,,,,,,,,,,,,,,,,,,,,,,,,,,,,,,,,,,,,,,,,,,,,,,,,,,,,,,,,,,,,,,,,,,,55611,2022-11-02_14h33.37.150,vts_reward_expectancy_bt_OFFLINE,2022.2.4,59.924121894600574,
0,0,0,1,1,0,0,0,star,triangle,1,0,1,0,1,6,18,9,,,,,,,,,,,,,,,,,,,,,,,,,,,,,,,,,,,,,,,,696.9504523470532,696.9504523470532,696.9504523470532,696.9504523470532,696.9504523470532,696.9504523470532,696.9504523470532,696.9504523470532,696.9504523470532,696.9504523470532,a,0.5051583290332928,1,481,1,697.4858164211037,698.9861209430965,,,,,,,,,,,,,,,,,,,,,,,,,,,,,,,,,,,,,,,,,,,,,,,,,,,,,,,,,,,,,,,,,,,,,55611,2022-11-02_14h33.37.150,vts_reward_expectancy_bt_OFFLINE,2022.2.4,59.924121894600574,
1,0,0,0,0,1,0,0,triangle,circle,1,0,1,0,1,7,19,0,,,,,,,,,,,,,,,,,,,,,,,,,,,,,,,,,,,,,,,,699.4865183160873,699.4865183160873,699.4865183160873,699.4865183160873,699.4865183160873,699.4865183160873,699.4865183160873,699.4865183160873,699.4865183160873,699.4865183160873,a,1.056587188038975,10,491,1,700.5727189111058,702.0873444860335,,,,,,,,,,,,,,,,,,,,,,,,,,,,,,,,,,,,,,,,,,,,,,,,,,,,,,,,,,,,,,,,,,,,,55611,2022-11-02_14h33.37.150,vts_reward_expectancy_bt_OFFLINE,2022.2.4,59.924121894600574,
1,0,0,0,0,0,0,1,triangle,star,1,0,1,0,1,8,20,2,,,,,,,,,,,,,,,,,,,,,,,,,,,,,,,,,,,,,,,,702.5874157981016,702.5874157981016,702.5874157981016,702.5874157981016,702.5874157981016,702.5874157981016,702.5874157981016,702.5874157981016,702.5874157981016,702.5874157981016,l,1.0677076189313084,1,492,1,703.6882659350522,705.1905617070151,,,,,,,,,,,,,,,,,,,,,,,,,,,,,,,,,,,,,,,,,,,,,,,,,,,,,,,,,,,,,,,,,,,,,55611,2022-11-02_14h33.37.150,vts_reward_expectancy_bt_OFFLINE,2022.2.4,59.924121894600574,
0,0,1,0,1,0,0,0,hexagon,triangle,1,0,1,0,1,9,21,6,,,,,,,,,,,,,,,,,,,,,,,,,,,,,,,,,,,,,,,,705.6908429560717,705.6908429560717,705.6908429560717,705.6908429560717,705.6908429560717,705.6908429560717,705.6908429560717,705.6908429560717,705.6908429560717,705.6908429560717,l,1.5645655969856307,1,493,1,707.2742580560734,708.7751244070241,708.7751244070241,,,,,,,,,,,,,,,,,,,,,,,,,,,,,,,,,,,,,,,,,,,,,,,,,,,,,,,,,,,,,,,,,,,,55611,2022-11-02_14h33.37.150,vts_reward_expectancy_bt_OFFLINE,2022.2.4,59.924121894600574,
0,0,0,1,0,0,1,0,star,hexagon,1,0,1,0,1,10,22,11,,,,,,,,,,,,,,,,,,,,,,,,,,,,,,,,,,,,,,,,709.2768169350456,709.2768169350456,709.2768169350456,709.2768169350456,709.2768169350456,709.2768169350456,709.2768169350456,709.2768169350456,709.2768169350456,709.2768169350456,a,1.2505590830696747,1,494,1,710.5443744700169,712.0447934300173,712.0447934300173,712.5448870530818,,,,,,,,,,,,,,,,,,,,,,,,,,,,,,,,,,,,,,,,,,,,,,,,,,,,,,,,,,,,,,,,,,,55611,2022-11-02_14h33.37.150,vts_reward_expectancy_bt_OFFLINE,2022.2.4,59.924121894600574,
0,0,1,0,0,0,0,1,hexagon,star,1,0,1,0,1,11,23,8,,,,,,,,,,,,,,,,,,,,,,,,,,,,,,,,,,,,,,,,712.5448870530818,712.5448870530818,712.5448870530818,712.5448870530818,712.5448870530818,712.5448870530818,712.5448870530818,712.5448870530818,712.5448870530818,712.5448870530818,l,2.542742716963403,10,504,1,715.1163241320755,716.6315271580825,,,,,,,,,,,,,,,,,,,,,,,,,,,,,,,,,,,,,,,,,,,,,,,,,,,,,,,,,,,,,,,,,,,,,55611,2022-11-02_14h33.37.150,vts_reward_expectancy_bt_OFFLINE,2022.2.4,59.924121894600574,
0,0,0,1,1,0,0,0,star,triangle,1,0,1,0,2,0,24,9,,,,,,,,,,,,,,,,,,,,,,,,,,,,,,,,,,,,,,,,717.1316025520209,717.1316025520209,717.1316025520209,717.1316025520209,717.1316025520209,717.1316025520209,717.1316025520209,717.1316025520209,717.1316025520209,717.1316025520209,l,1.787746954942122,1,505,1,718.9483717620606,720.4514426940586,,,,,,,,,,,,,,,,,,,,,,,,,,,,,,,,,,,,,,,,,,,,,,,,,,,,,,,,,,,,,,,,,,,,,55611,2022-11-02_14h33.37.150,vts_reward_expectancy_bt_OFFLINE,2022.2.4,59.924121894600574,
0,0,0,1,0,0,1,0,star,hexagon,1,0,1,0,2,1,25,11,,,,,,,,,,,,,,,,,,,,,,,,,,,,,,,,,,,,,,,,720.9514974710764,720.9514974710764,720.9514974710764,720.9514974710764,720.9514974710764,720.9514974710764,720.9514974710764,720.9514974710764,720.9514974710764,720.9514974710764,l,1.7354416489833966,10,515,1,722.7189600870479,724.2213308310602,,,,,,,,,,,,,,,,,,,,,,,,,,,,,,,,,,,,,,,,,,,,,,,,,,,,,,,,,,,,,,,,,,,,,55611,2022-11-02_14h33.37.150,vts_reward_expectancy_bt_OFFLINE,2022.2.4,59.924121894600574,
1,0,0,0,0,0,1,0,triangle,hexagon,1,0,1,0,2,2,26,1,,,,,,,,,,,,,,,,,,,,,,,,,,,,,,,,,,,,,,,,724.7212549720425,724.7212549720425,724.7212549720425,724.7212549720425,724.7212549720425,724.7212549720425,724.7212549720425,724.7212549720425,724.7212549720425,724.7212549720425,a,1.8628101979847997,10,525,1,726.6056018540403,728.1059701610357,728.1059701610357,,,,,,,,,,,,,,,,,,,,,,,,,,,,,,,,,,,,,,,,,,,,,,,,,,,,,,,,,,,,,,,,,,,,55611,2022-11-02_14h33.37.150,vts_reward_expectancy_bt_OFFLINE,2022.2.4,59.924121894600574,
1,0,0,0,0,0,0,1,triangle,star,1,0,1,0,2,3,27,2,,,,,,,,,,,,,,,,,,,,,,,,,,,,,,,,,,,,,,,,728.6059897840023,728.6059897840023,728.6059897840023,728.6059897840023,728.6059897840023,728.6059897840023,728.6059897840023,728.6059897840023,728.6059897840023,728.6059897840023,l,0.9616608540527523,1,526,1,729.5936494190246,731.1088989540003,,,,,,,,,,,,,,,,,,,,,,,,,,,,,,,,,,,,,,,,,,,,,,,,,,,,,,,,,,,,,,,,,,,,,55611,2022-11-02_14h33.37.150,vts_reward_expectancy_bt_OFFLINE,2022.2.4,59.924121894600574,
0,1,0,0,0,0,1,0,circle,hexagon,1,0,1,0,2,4,28,4,,,,,,,,,,,,,,,,,,,,,,,,,,,,,,,,,,,,,,,,731.6091020440217,731.6091020440217,731.6091020440217,731.6091020440217,731.6091020440217,731.6091020440217,731.6091020440217,731.6091020440217,731.6091020440217,731.6091020440217,l,1.3506623089779168,10,536,1,732.978665827075,734.4787090370664,,,,,,,,,,,,,,,,,,,,,,,,,,,,,,,,,,,,,,,,,,,,,,,,,,,,,,,,,,,,,,,,,,,,,55611,2022-11-02_14h33.37.150,vts_reward_expectancy_bt_OFFLINE,2022.2.4,59.924121894600574,
0,0,1,0,0,1,0,0,hexagon,circle,1,0,1,0,2,5,29,7,,,,,,,,,,,,,,,,,,,,,,,,,,,,,,,,,,,,,,,,734.9788955610711,734.9788955610711,734.9788955610711,734.9788955610711,734.9788955610711,734.9788955610711,734.9788955610711,734.9788955610711,734.9788955610711,734.9788955610711,a,0.9724401659332216,1,537,1,735.9809744420927,737.4963380950503,,,,,,,,,,,,,,,,,,,,,,,,,,,,,,,,,,,,,,,,,,,,,,,,,,,,,,,,,,,,,,,,,,,,,55611,2022-11-02_14h33.37.150,vts_reward_expectancy_bt_OFFLINE,2022.2.4,59.924121894600574,
0,0,1,0,1,0,0,0,hexagon,triangle,1,0,1,0,2,6,30,6,,,,,,,,,,,,,,,,,,,,,,,,,,,,,,,,,,,,,,,,737.9798955540173,737.9798955540173,737.9798955540173,737.9798955540173,737.9798955540173,737.9798955540173,737.9798955540173,737.9798955540173,737.9798955540173,737.9798955540173,l,1.499862750992179,1,538,1,739.4988316980889,740.999466050067,740.999466050067,,,,,,,,,,,,,,,,,,,,,,,,,,,,,,,,,,,,,,,,,,,,,,,,,,,,,,,,,,,,,,,,,,,,55611,2022-11-02_14h33.37.150,vts_reward_expectancy_bt_OFFLINE,2022.2.4,59.924121894600574,
0,1,0,0,1,0,0,0,circle,triangle,1,0,1,0,2,7,31,3,,,,,,,,,,,,,,,,,,,,,,,,,,,,,,,,,,,,,,,,741.4996618400328,741.4996618400328,741.4996618400328,741.4996618400328,741.4996618400328,741.4996618400328,741.4996618400328,741.4996618400328,741.4996618400328,741.4996618400328,l,1.083766276948154,1,539,1,742.6004826771095,744.1024852660485,,,,,,,,,,,,,,,,,,,,,,,,,,,,,,,,,,,,,,,,,,,,,,,,,,,,,,,,,,,,,,,,,,,,,55611,2022-11-02_14h33.37.150,vts_reward_expectancy_bt_OFFLINE,2022.2.4,59.924121894600574,
0,0,0,1,0,1,0,0,star ,circle,1,0,1,0,2,8,32,10,,,,,,,,,,,,,,,,,,,,,,,,,,,,,,,,,,,,,,,,744.6026552510448,744.6026552510448,744.6026552510448,744.6026552510448,744.6026552510448,744.6026552510448,744.6026552510448,744.6026552510448,744.6026552510448,744.6026552510448,l,0.532227321062237,10,549,1,745.1551068600966,746.6699817510089,,,,,,,,,,,,,,,,,,,,,,,,,,,,,,,,,,,,,,,,,,,,,,,,,,,,,,,,,,,,,,,,,,,,,55611,2022-11-02_14h33.37.150,vts_reward_expectancy_bt_OFFLINE,2022.2.4,59.924121894600574,
0,0,1,0,0,0,0,1,hexagon,star,1,0,1,0,2,9,33,8,,,,,,,,,,,,,,,,,,,,,,,,,,,,,,,,,,,,,,,,747.1701567290584,747.1701567290584,747.1701567290584,747.1701567290584,747.1701567290584,747.1701567290584,747.1701567290584,747.1701567290584,747.1701567290584,747.1701567290584,a,0.9249455649405718,10,559,1,748.1208367830841,749.6229688191088,,,,,,,,,,,,,,,,,,,,,,,,,,,,,,,,,,,,,,,,,,,,,,,,,,,,,,,,,,,,,,,,,,,,,55611,2022-11-02_14h33.37.150,vts_reward_expectancy_bt_OFFLINE,2022.2.4,59.924121894600574,
0,1,0,0,0,0,0,1,circle,star,1,0,1,0,2,10,34,5,,,,,,,,,,,,,,,,,,,,,,,,,,,,,,,,,,,,,,,,750.1230521580437,750.1230521580437,750.1230521580437,750.1230521580437,750.1230521580437,750.1230521580437,750.1230521580437,750.1230521580437,750.1230521580437,750.1230521580437,a,0.9798390299547464,10,569,1,751.1237536460394,752.6241153250448,,,,,,,,,,,,,,,,,,,,,,,,,,,,,,,,,,,,,,,,,,,,,,,,,,,,,,,,,,,,,,,,,,,,,55611,2022-11-02_14h33.37.150,vts_reward_expectancy_bt_OFFLINE,2022.2.4,59.924121894600574,
1,0,0,0,0,1,0,0,triangle,circle,1,0,1,0,2,11,35,0,,,,,,,,,,,,,,,,,,,,,,,,,,,,,,,,,,,,,,,,753.123965942068,753.123965942068,753.123965942068,753.123965942068,753.123965942068,753.123965942068,753.123965942068,753.123965942068,753.123965942068,753.123965942068,l,0.6993983018910512,10,579,1,753.8411386280786,755.3432142820675,,,,,,,,,,,,,,,,,,,,,,,,,,,,,,,,,,,,,,,,,,,,,,,,,,,,,,,,,,,,,,,,,,,,,55611,2022-11-02_14h33.37.150,vts_reward_expectancy_bt_OFFLINE,2022.2.4,59.924121894600574,
0,0,1,0,0,0,0,1,hexagon,star,1,0,1,0,3,0,36,8,,,,,,,,,,,,,,,,,,,,,,,,,,,,,,,,,,,,,,,,755.8437867030734,755.8437867030734,755.8437867030734,755.8437867030734,755.8437867030734,755.8437867030734,755.8437867030734,755.8437867030734,755.8437867030734,755.8437867030734,a,0.7401866880245507,10,589,1,756.6106453390094,758.1111762330402,758.1111762330402,,,,,,,,,,,,,,,,,,,,,,,,,,,,,,,,,,,,,,,,,,,,,,,,,,,,,,,,,,,,,,,,,,,,55611,2022-11-02_14h33.37.150,vts_reward_expectancy_bt_OFFLINE,2022.2.4,59.924121894600574,
0,0,0,1,1,0,0,0,star,triangle,1,0,1,0,3,1,37,9,,,,,,,,,,,,,,,,,,,,,,,,,,,,,,,,,,,,,,,,758.6112356620142,758.6112356620142,758.6112356620142,758.6112356620142,758.6112356620142,758.6112356620142,758.6112356620142,758.6112356620142,758.6112356620142,758.6112356620142,a,1.035584107041359,1,590,1,759.6658545900136,761.1808874550043,,,,,,,,,,,,,,,,,,,,,,,,,,,,,,,,,,,,,,,,,,,,,,,,,,,,,,,,,,,,,,,,,,,,,55611,2022-11-02_14h33.37.150,vts_reward_expectancy_bt_OFFLINE,2022.2.4,59.924121894600574,
1,0,0,0,0,0,1,0,triangle,hexagon,1,0,1,0,3,2,38,1,,,,,,,,,,,,,,,,,,,,,,,,,,,,,,,,,,,,,,,,761.6807766350685,761.6807766350685,761.6807766350685,761.6807766350685,761.6807766350685,761.6807766350685,761.6807766350685,761.6807766350685,761.6807766350685,761.6807766350685,l,0.8468065710039809,1,591,1,762.5479696590919,764.0502650510753,,,,,,,,,,,,,,,,,,,,,,,,,,,,,,,,,,,,,,,,,,,,,,,,,,,,,,,,,,,,,,,,,,,,,55611,2022-11-02_14h33.37.150,vts_reward_expectancy_bt_OFFLINE,2022.2.4,59.924121894600574,
1,0,0,0,0,1,0,0,triangle,circle,1,0,1,0,3,3,39,0,,,,,,,,,,,,,,,,,,,,,,,,,,,,,,,,,,,,,,,,764.5505194510333,764.5505194510333,764.5505194510333,764.5505194510333,764.5505194510333,764.5505194510333,764.5505194510333,764.5505194510333,764.5505194510333,764.5505194510333,a,0.8647363249910995,1,592,1,765.4346650380176,766.9346412030281,766.9346412030281,767.4347827620804,,,,,,,,,,,,,,,,,,,,,,,,,,,,,,,,,,,,,,,,,,,,,,,,,,,,,,,,,,,,,,,,,,,55611,2022-11-02_14h33.37.150,vts_reward_expectancy_bt_OFFLINE,2022.2.4,59.924121894600574,
0,1,0,0,0,0,0,1,circle,star,1,0,1,0,3,4,40,5,,,,,,,,,,,,,,,,,,,,,,,,,,,,,,,,,,,,,,,,767.4347827620804,767.4347827620804,767.4347827620804,767.4347827620804,767.4347827620804,767.4347827620804,767.4347827620804,767.4347827620804,767.4347827620804,767.4347827620804,a,0.5809762240387499,10,602,1,768.0372371220728,769.5374263150152,,,,,,,,,,,,,,,,,,,,,,,,,,,,,,,,,,,,,,,,,,,,,,,,,,,,,,,,,,,,,,,,,,,,,55611,2022-11-02_14h33.37.150,vts_reward_expectancy_bt_OFFLINE,2022.2.4,59.924121894600574,
0,0,0,1,0,1,0,0,star ,circle,1,0,1,0,3,5,41,10,,,,,,,,,,,,,,,,,,,,,,,,,,,,,,,,,,,,,,,,770.0375869550044,770.0375869550044,770.0375869550044,770.0375869550044,770.0375869550044,770.0375869550044,770.0375869550044,770.0375869550044,770.0375869550044,770.0375869550044,a,0.6016768129775301,10,612,1,770.6711898600915,772.171765080071,772.171765080071,772.6718413770432,,,,,,,,,,,,,,,,,,,,,,,,,,,,,,,,,,,,,,,,,,,,,,,,,,,,,,,,,,,,,,,,,,,55611,2022-11-02_14h33.37.150,vts_reward_expectancy_bt_OFFLINE,2022.2.4,59.924121894600574,
0,0,0,1,0,0,1,0,star,hexagon,1,0,1,0,3,6,42,11,,,,,,,,,,,,,,,,,,,,,,,,,,,,,,,,,,,,,,,,772.6718413770432,772.6718413770432,772.6718413770432,772.6718413770432,772.6718413770432,772.6718413770432,772.6718413770432,772.6718413770432,772.6718413770432,772.6718413770432,a,0.5039389049634337,1,613,1,773.2077948340448,774.7076924560824,,,,,,,,,,,,,,,,,,,,,,,,,,,,,,,,,,,,,,,,,,,,,,,,,,,,,,,,,,,,,,,,,,,,,55611,2022-11-02_14h33.37.150,vts_reward_expectancy_bt_OFFLINE,2022.2.4,59.924121894600574,
0,0,1,0,1,0,0,0,hexagon,triangle,1,0,1,0,3,7,43,6,,,,,,,,,,,,,,,,,,,,,,,,,,,,,,,,,,,,,,,,775.2079746450763,775.2079746450763,775.2079746450763,775.2079746450763,775.2079746450763,775.2079746450763,775.2079746450763,775.2079746450763,775.2079746450763,775.2079746450763,a,0.5835808949777856,10,623,1,775.8105183120351,777.3254621910164,,,,,,,,,,,,,,,,,,,,,,,,,,,,,,,,,,,,,,,,,,,,,,,,,,,,,,,,,,,,,,,,,,,,,55611,2022-11-02_14h33.37.150,vts_reward_expectancy_bt_OFFLINE,2022.2.4,59.924121894600574,
1,0,0,0,0,0,0,1,triangle,star,1,0,1,0,3,8,44,2,,,,,,,,,,,,,,,,,,,,,,,,,,,,,,,,,,,,,,,,777.8254518320318,777.8254518320318,777.8254518320318,777.8254518320318,777.8254518320318,777.8254518320318,777.8254518320318,777.8254518320318,777.8254518320318,777.8254518320318,a,1.318069785949774,1,624,1,779.1637593880296,780.6784818650922,,,,,,,,,,,,,,,,,,,,,,,,,,,,,,,,,,,,,,,,,,,,,,,,,,,,,,,,,,,,,,,,,,,,,55611,2022-11-02_14h33.37.150,vts_reward_expectancy_bt_OFFLINE,2022.2.4,59.924121894600574,
0,1,0,0,1,0,0,0,circle,triangle,1,0,1,0,3,9,45,3,,,,,,,,,,,,,,,,,,,,,,,,,,,,,,,,,,,,,,,,781.178714534035,781.178714534035,781.178714534035,781.178714534035,781.178714534035,781.178714534035,781.178714534035,781.178714534035,781.178714534035,781.178714534035,a,0.6372095178812742,10,634,1,781.8479491620092,783.3629861470545,,,,,,,,,,,,,,,,,,,,,,,,,,,,,,,,,,,,,,,,,,,,,,,,,,,,,,,,,,,,,,,,,,,,,55611,2022-11-02_14h33.37.150,vts_reward_expectancy_bt_OFFLINE,2022.2.4,59.924121894600574,
0,1,0,0,0,0,1,0,circle,hexagon,1,0,1,0,3,10,46,4,,,,,,,,,,,,,,,,,,,,,,,,,,,,,,,,,,,,,,,,783.8461115990067,783.8461115990067,783.8461115990067,783.8461115990067,783.8461115990067,783.8461115990067,783.8461115990067,783.8461115990067,783.8461115990067,783.8461115990067,a,0.7856649529421702,10,644,1,784.6488642110489,786.1489525020588,786.1489525020588,786.6490938450443,,,,,,,,,,,,,,,,,,,,,,,,,,,,,,,,,,,,,,,,,,,,,,,,,,,,,,,,,,,,,,,,,,,55611,2022-11-02_14h33.37.150,vts_reward_expectancy_bt_OFFLINE,2022.2.4,59.924121894600574,
0,0,1,0,0,1,0,0,hexagon,circle,1,0,1,0,3,11,47,7,,,,,,,,,,,,,,,,,,,,,,,,,,,,,,,,,,,,,,,,786.6490938450443,786.6490938450443,786.6490938450443,786.6490938450443,786.6490938450443,786.6490938450443,786.6490938450443,786.6490938450443,786.6490938450443,786.6490938450443,a,1.3340218228986487,10,654,1,788.0006301180692,789.5017972380156,,,,,,,,,,,,,,,,,,,,,,,,,,,,,,,,,,,,,,,,,,,,,,,,,,,,,,,,,,,,,,,,,,,,,55611,2022-11-02_14h33.37.150,vts_reward_expectancy_bt_OFFLINE,2022.2.4,59.924121894600574,
0,1,0,0,0,0,1,0,circle,hexagon,2,0,2,0,0,0,0,4,,,,,,,,,,,,,,,,,,,,,,,,,,,,,,,,,,,,,,,,794.6005364661105,794.6005364661105,794.6005364661105,794.6005364661105,794.6005364661105,794.6005364661105,794.6005364661105,794.6005364661105,794.6005364661105,794.6005364661105,a,0.87879982101731,1,655,2,795.5085083730519,797.0230284261052,,,,,,,,,,,,,,,,,,,,,,,,,,,,,,,,,,,,,,,,,,,,,,,,,,,,,,,,,,,,,,,,,,,,,55611,2022-11-02_14h33.37.150,vts_reward_expectancy_bt_OFFLINE,2022.2.4,59.924121894600574,
1,0,0,0,0,1,0,0,triangle,circle,2,0,2,0,0,1,1,0,,,,,,,,,,,,,,,,,,,,,,,,,,,,,,,,,,,,,,,,797.5234406850068,797.5234406850068,797.5234406850068,797.5234406850068,797.5234406850068,797.5234406850068,797.5234406850068,797.5234406850068,797.5234406850068,797.5234406850068,a,0.49927906901575625,1,656,2,798.0409262240864,799.5427051610313,,,,,,,,,,,,,,,,,,,,,,,,,,,,,,,,,,,,,,,,,,,,,,,,,,,,,,,,,,,,,,,,,,,,,55611,2022-11-02_14h33.37.150,vts_reward_expectancy_bt_OFFLINE,2022.2.4,59.924121894600574,
0,1,0,0,1,0,0,0,circle,triangle,2,0,2,0,0,2,2,3,,,,,,,,,,,,,,,,,,,,,,,,,,,,,,,,,,,,,,,,800.042853032006,800.042853032006,800.042853032006,800.042853032006,800.042853032006,800.042853032006,800.042853032006,800.042853032006,800.042853032006,800.042853032006,a,0.5257300538942218,10,666,2,800.5955508940388,802.1103157550097,,,,,,,,,,,,,,,,,,,,,,,,,,,,,,,,,,,,,,,,,,,,,,,,,,,,,,,,,,,,,,,,,,,,,55611,2022-11-02_14h33.37.150,vts_reward_expectancy_bt_OFFLINE,2022.2.4,59.924121894600574,
0,0,0,1,0,1,0,0,star ,circle,2,0,2,0,0,3,3,10,,,,,,,,,,,,,,,,,,,,,,,,,,,,,,,,,,,,,,,,802.6102279910119,802.6102279910119,802.6102279910119,802.6102279910119,802.6102279910119,802.6102279910119,802.6102279910119,802.6102279910119,802.6102279910119,802.6102279910119,l,0.5571341549511999,10,676,2,803.1943471240811,804.6963297560578,,,,,,,,,,,,,,,,,,,,,,,,,,,,,,,,,,,,,,,,,,,,,,,,,,,,,,,,,,,,,,,,,,,,,55611,2022-11-02_14h33.37.150,vts_reward_expectancy_bt_OFFLINE,2022.2.4,59.924121894600574,
0,0,1,0,0,1,0,0,hexagon,circle,2,0,2,0,0,4,4,7,,,,,,,,,,,,,,,,,,,,,,,,,,,,,,,,,,,,,,,,805.1965489560971,805.1965489560971,805.1965489560971,805.1965489560971,805.1965489560971,805.1965489560971,805.1965489560971,805.1965489560971,805.1965489560971,805.1965489560971,a,0.5311595479724929,10,686,2,805.7471618350828,807.24702596711,807.24702596711,807.7473637270741,,,,,,,,,,,,,,,,,,,,,,,,,,,,,,,,,,,,,,,,,,,,,,,,,,,,,,,,,,,,,,,,,,,55611,2022-11-02_14h33.37.150,vts_reward_expectancy_bt_OFFLINE,2022.2.4,59.924121894600574,
1,0,0,0,0,0,0,1,triangle,star,2,0,2,0,0,5,5,2,,,,,,,,,,,,,,,,,,,,,,,,,,,,,,,,,,,,,,,,807.7473637270741,807.7473637270741,807.7473637270741,807.7473637270741,807.7473637270741,807.7473637270741,807.7473637270741,807.7473637270741,807.7473637270741,807.7473637270741,l,0.7080284400144592,1,687,2,808.4834353600163,809.9833743521012,,,,,,,,,,,,,,,,,,,,,,,,,,,,,,,,,,,,,,,,,,,,,,,,,,,,,,,,,,,,,,,,,,,,,55611,2022-11-02_14h33.37.150,vts_reward_expectancy_bt_OFFLINE,2022.2.4,59.924121894600574,
0,0,1,0,0,0,0,1,hexagon,star,2,0,2,0,0,6,6,8,,,,,,,,,,,,,,,,,,,,,,,,,,,,,,,,,,,,,,,,810.483780383016,810.483780383016,810.483780383016,810.483780383016,810.483780383016,810.483780383016,810.483780383016,810.483780383016,810.483780383016,810.483780383016,a,0.5551662420621142,10,697,2,811.0696859770687,812.5841761271004,,,,,,,,,,,,,,,,,,,,,,,,,,,,,,,,,,,,,,,,,,,,,,,,,,,,,,,,,,,,,,,,,,,,,55611,2022-11-02_14h33.37.150,vts_reward_expectancy_bt_OFFLINE,2022.2.4,59.924121894600574,
1,0,0,0,0,0,1,0,triangle,hexagon,2,0,2,0,0,7,7,1,,,,,,,,,,,,,,,,,,,,,,,,,,,,,,,,,,,,,,,,813.0843331640353,813.0843331640353,813.0843331640353,813.0843331640353,813.0843331640353,813.0843331640353,813.0843331640353,813.0843331640353,813.0843331640353,813.0843331640353,l,0.5631700099911541,10,707,2,813.6683432540158,815.1704772911035,,,,,,,,,,,,,,,,,,,,,,,,,,,,,,,,,,,,,,,,,,,,,,,,,,,,,,,,,,,,,,,,,,,,,55611,2022-11-02_14h33.37.150,vts_reward_expectancy_bt_OFFLINE,2022.2.4,59.924121894600574,
0,0,1,0,1,0,0,0,hexagon,triangle,2,0,2,0,0,8,8,6,,,,,,,,,,,,,,,,,,,,,,,,,,,,,,,,,,,,,,,,815.6707444740459,815.6707444740459,815.6707444740459,815.6707444740459,815.6707444740459,815.6707444740459,815.6707444740459,815.6707444740459,815.6707444740459,815.6707444740459,a,0.9527356560574844,10,717,2,816.654808824067,818.1550485420739,818.1550485420739,818.6549505160656,,,,,,,,,,,,,,,,,,,,,,,,,,,,,,,,,,,,,,,,,,,,,,,,,,,,,,,,,,,,,,,,,,,55611,2022-11-02_14h33.37.150,vts_reward_expectancy_bt_OFFLINE,2022.2.4,59.924121894600574,
0,0,0,1,1,0,0,0,star,triangle,2,0,2,0,0,9,9,9,,,,,,,,,,,,,,,,,,,,,,,,,,,,,,,,,,,,,,,,818.6549505160656,818.6549505160656,818.6549505160656,818.6549505160656,818.6549505160656,818.6549505160656,818.6549505160656,818.6549505160656,818.6549505160656,818.6549505160656,l,1.103798046009615,1,718,2,819.7913364680717,821.2912241070298,821.2912241070298,821.7913604340283,,,,,,,,,,,,,,,,,,,,,,,,,,,,,,,,,,,,,,,,,,,,,,,,,,,,,,,,,,,,,,,,,,,55611,2022-11-02_14h33.37.150,vts_reward_expectancy_bt_OFFLINE,2022.2.4,59.924121894600574,
0,1,0,0,0,0,0,1,circle,star,2,0,2,0,0,10,10,5,,,,,,,,,,,,,,,,,,,,,,,,,,,,,,,,,,,,,,,,821.7913604340283,821.7913604340283,821.7913604340283,821.7913604340283,821.7913604340283,821.7913604340283,821.7913604340283,821.7913604340283,821.7913604340283,821.7913604340283,a,1.1995350118959323,10,728,2,823.0110962790204,824.5109275160357,,,,,,,,,,,,,,,,,,,,,,,,,,,,,,,,,,,,,,,,,,,,,,,,,,,,,,,,,,,,,,,,,,,,,55611,2022-11-02_14h33.37.150,vts_reward_expectancy_bt_OFFLINE,2022.2.4,59.924121894600574,
0,0,0,1,0,0,1,0,star,hexagon,2,0,2,0,0,11,11,11,,,,,,,,,,,,,,,,,,,,,,,,,,,,,,,,,,,,,,,,825.0109358570771,825.0109358570771,825.0109358570771,825.0109358570771,825.0109358570771,825.0109358570771,825.0109358570771,825.0109358570771,825.0109358570771,825.0109358570771,l,0.6683479159837589,1,729,2,825.7121816910803,827.2117896931013,827.2117896931013,827.7119737850735,,,,,,,,,,,,,,,,,,,,,,,,,,,,,,,,,,,,,,,,,,,,,,,,,,,,,,,,,,,,,,,,,,,55611,2022-11-02_14h33.37.150,vts_reward_expectancy_bt_OFFLINE,2022.2.4,59.924121894600574,
0,0,0,1,0,1,0,0,star ,circle,2,0,2,0,1,0,12,10,,,,,,,,,,,,,,,,,,,,,,,,,,,,,,,,,,,,,,,,827.7119737850735,827.7119737850735,827.7119737850735,827.7119737850735,827.7119737850735,827.7119737850735,827.7119737850735,827.7119737850735,827.7119737850735,827.7119737850735,l,0.9670461009955034,10,739,2,828.6984769720584,830.1980450000847,,,,,,,,,,,,,,,,,,,,,,,,,,,,,,,,,,,,,,,,,,,,,,,,,,,,,,,,,,,,,,,,,,,,,55611,2022-11-02_14h33.37.150,vts_reward_expectancy_bt_OFFLINE,2022.2.4,59.924121894600574,
0,0,1,0,0,0,0,1,hexagon,star,2,0,2,0,1,1,13,8,,,,,,,,,,,,,,,,,,,,,,,,,,,,,,,,,,,,,,,,830.6981973380316,830.6981973380316,830.6981973380316,830.6981973380316,830.6981973380316,830.6981973380316,830.6981973380316,830.6981973380316,830.6981973380316,830.6981973380316,l,0.5646153209963813,10,749,2,831.2826644310262,832.7823686590418,832.7823686590418,833.2825136990286,,,,,,,,,,,,,,,,,,,,,,,,,,,,,,,,,,,,,,,,,,,,,,,,,,,,,,,,,,,,,,,,,,,55611,2022-11-02_14h33.37.150,vts_reward_expectancy_bt_OFFLINE,2022.2.4,59.924121894600574,
0,1,0,0,0,0,1,0,circle,hexagon,2,0,2,0,1,2,14,4,,,,,,,,,,,,,,,,,,,,,,,,,,,,,,,,,,,,,,,,833.2825136990286,833.2825136990286,833.2825136990286,833.2825136990286,833.2825136990286,833.2825136990286,833.2825136990286,833.2825136990286,833.2825136990286,833.2825136990286,a,0.9484323658980429,10,759,2,834.252097106073,835.7517870620359,835.7517870620359,836.2520662960596,,,,,,,,,,,,,,,,,,,,,,,,,,,,,,,,,,,,,,,,,,,,,,,,,,,,,,,,,,,,,,,,,,,55611,2022-11-02_14h33.37.150,vts_reward_expectancy_bt_OFFLINE,2022.2.4,59.924121894600574,
0,1,0,0,1,0,0,0,circle,triangle,2,0,2,0,1,3,15,3,,,,,,,,,,,,,,,,,,,,,,,,,,,,,,,,,,,,,,,,836.2520662960596,836.2520662960596,836.2520662960596,836.2520662960596,836.2520662960596,836.2520662960596,836.2520662960596,836.2520662960596,836.2520662960596,836.2520662960596,l,0.5718488449929282,1,760,2,836.8549713380635,838.3694133170648,,,,,,,,,,,,,,,,,,,,,,,,,,,,,,,,,,,,,,,,,,,,,,,,,,,,,,,,,,,,,,,,,,,,,55611,2022-11-02_14h33.37.150,vts_reward_expectancy_bt_OFFLINE,2022.2.4,59.924121894600574,
1,0,0,0,0,0,1,0,triangle,hexagon,2,0,2,0,1,4,16,1,,,,,,,,,,,,,,,,,,,,,,,,,,,,,,,,,,,,,,,,838.86949305702,838.86949305702,838.86949305702,838.86949305702,838.86949305702,838.86949305702,838.86949305702,838.86949305702,838.86949305702,838.86949305702,l,1.242319209035486,10,770,2,840.1412179290783,841.6558536270168,,,,,,,,,,,,,,,,,,,,,,,,,,,,,,,,,,,,,,,,,,,,,,,,,,,,,,,,,,,,,,,,,,,,,55611,2022-11-02_14h33.37.150,vts_reward_expectancy_bt_OFFLINE,2022.2.4,59.924121894600574,
1,0,0,0,0,0,0,1,triangle,star,2,0,2,0,1,5,17,2,,,,,,,,,,,,,,,,,,,,,,,,,,,,,,,,,,,,,,,,842.1558606070466,842.1558606070466,842.1558606070466,842.1558606070466,842.1558606070466,842.1558606070466,842.1558606070466,842.1558606070466,842.1558606070466,842.1558606070466,l,1.1237099569989368,1,771,2,843.3088336340152,844.8087716520531,,,,,,,,,,,,,,,,,,,,,,,,,,,,,,,,,,,,,,,,,,,,,,,,,,,,,,,,,,,,,,,,,,,,,55611,2022-11-02_14h33.37.150,vts_reward_expectancy_bt_OFFLINE,2022.2.4,59.924121894600574,
0,0,0,1,1,0,0,0,star,triangle,2,0,2,0,1,6,18,9,,,,,,,,,,,,,,,,,,,,,,,,,,,,,,,,,,,,,,,,845.3090503450949,845.3090503450949,845.3090503450949,845.3090503450949,845.3090503450949,845.3090503450949,845.3090503450949,845.3090503450949,845.3090503450949,845.3090503450949,l,0.8026357580674812,1,772,2,846.1429980610264,847.6429691680241,847.6429691680241,848.1432684210595,,,,,,,,,,,,,,,,,,,,,,,,,,,,,,,,,,,,,,,,,,,,,,,,,,,,,,,,,,,,,,,,,,,55611,2022-11-02_14h33.37.150,vts_reward_expectancy_bt_OFFLINE,2022.2.4,59.924121894600574,
1,0,0,0,0,1,0,0,triangle,circle,2,0,2,0,1,7,19,0,,,,,,,,,,,,,,,,,,,,,,,,,,,,,,,,,,,,,,,,848.1432684210595,848.1432684210595,848.1432684210595,848.1432684210595,848.1432684210595,848.1432684210595,848.1432684210595,848.1432684210595,848.1432684210595,848.1432684210595,a,0.7040809829486534,10,782,2,848.8796837100526,850.3793593420414,,,,,,,,,,,,,,,,,,,,,,,,,,,,,,,,,,,,,,,,,,,,,,,,,,,,,,,,,,,,,,,,,,,,,55611,2022-11-02_14h33.37.150,vts_reward_expectancy_bt_OFFLINE,2022.2.4,59.924121894600574,
0,0,1,0,1,0,0,0,hexagon,triangle,2,0,2,0,1,8,20,6,,,,,,,,,,,,,,,,,,,,,,,,,,,,,,,,,,,,,,,,850.8793412580853,850.8793412580853,850.8793412580853,850.8793412580853,850.8793412580853,850.8793412580853,850.8793412580853,850.8793412580853,850.8793412580853,850.8793412580853,l,2.2484292939770967,10,792,2,853.1477800720604,854.6494152439991,,,,,,,,,,,,,,,,,,,,,,,,,,,,,,,,,,,,,,,,,,,,,,,,,,,,,,,,,,,,,,,,,,,,,55611,2022-11-02_14h33.37.150,vts_reward_expectancy_bt_OFFLINE,2022.2.4,59.924121894600574,
0,0,0,1,0,0,1,0,star,hexagon,2,0,2,0,1,9,21,11,,,,,,,,,,,,,,,,,,,,,,,,,,,,,,,,,,,,,,,,855.1493875510059,855.1493875510059,855.1493875510059,855.1493875510059,855.1493875510059,855.1493875510059,855.1493875510059,855.1493875510059,855.1493875510059,855.1493875510059,l,0.5464393069269136,10,802,2,855.7168206000933,857.2168423640542,857.2168423640542,857.7172073960537,,,,,,,,,,,,,,,,,,,,,,,,,,,,,,,,,,,,,,,,,,,,,,,,,,,,,,,,,,,,,,,,,,,55611,2022-11-02_14h33.37.150,vts_reward_expectancy_bt_OFFLINE,2022.2.4,59.924121894600574,
0,0,1,0,0,1,0,0,hexagon,circle,2,0,2,0,1,10,22,7,,,,,,,,,,,,,,,,,,,,,,,,,,,,,,,,,,,,,,,,857.7172073960537,857.7172073960537,857.7172073960537,857.7172073960537,857.7172073960537,857.7172073960537,857.7172073960537,857.7172073960537,857.7172073960537,857.7172073960537,a,0.5297611460555345,1,803,2,858.2822271210607,859.7695971390931,,,,,,,,,,,,,,,,,,,,,,,,,,,,,,,,,,,,,,,,,,,,,,,,,,,,,,,,,,,,,,,,,,,,,55611,2022-11-02_14h33.37.150,vts_reward_expectancy_bt_OFFLINE,2022.2.4,59.924121894600574,
0,1,0,0,0,0,0,1,circle,star,2,0,2,0,1,11,23,5,,,,,,,,,,,,,,,,,,,,,,,,,,,,,,,,,,,,,,,,860.2699126980733,860.2699126980733,860.2699126980733,860.2699126980733,860.2699126980733,860.2699126980733,860.2699126980733,860.2699126980733,860.2699126980733,860.2699126980733,a,0.9771480879280716,10,813,2,861.2729320490034,862.787465200061,,,,,,,,,,,,,,,,,,,,,,,,,,,,,,,,,,,,,,,,,,,,,,,,,,,,,,,,,,,,,,,,,,,,,55611,2022-11-02_14h33.37.150,vts_reward_expectancy_bt_OFFLINE,2022.2.4,59.924121894600574,
1,0,0,0,0,0,0,1,triangle,star,2,0,2,0,2,0,24,2,,,,,,,,,,,,,,,,,,,,,,,,,,,,,,,,,,,,,,,,863.2873110061046,863.2873110061046,863.2873110061046,863.2873110061046,863.2873110061046,863.2873110061046,863.2873110061046,863.2873110061046,863.2873110061046,863.2873110061046,a,0.5365354239474982,10,823,2,863.8549028281122,865.3568534360966,,,,,,,,,,,,,,,,,,,,,,,,,,,,,,,,,,,,,,,,,,,,,,,,,,,,,,,,,,,,,,,,,,,,,55611,2022-11-02_14h33.37.150,vts_reward_expectancy_bt_OFFLINE,2022.2.4,59.924121894600574,
0,0,1,0,0,0,0,1,hexagon,star,2,0,2,0,2,1,25,8,,,,,,,,,,,,,,,,,,,,,,,,,,,,,,,,,,,,,,,,865.856974056107,865.856974056107,865.856974056107,865.856974056107,865.856974056107,865.856974056107,865.856974056107,865.856974056107,865.856974056107,865.856974056107,l,0.47060977399814874,1,824,2,866.3597725500586,867.8745941880625,,,,,,,,,,,,,,,,,,,,,,,,,,,,,,,,,,,,,,,,,,,,,,,,,,,,,,,,,,,,,,,,,,,,,55611,2022-11-02_14h33.37.150,vts_reward_expectancy_bt_OFFLINE,2022.2.4,59.924121894600574,
0,1,0,0,1,0,0,0,circle,triangle,2,0,2,0,2,2,26,3,,,,,,,,,,,,,,,,,,,,,,,,,,,,,,,,,,,,,,,,868.3577494900674,868.3577494900674,868.3577494900674,868.3577494900674,868.3577494900674,868.3577494900674,868.3577494900674,868.3577494900674,868.3577494900674,868.3577494900674,l,0.6416019590105861,1,825,2,869.0256731820991,870.5273318180116,,,,,,,,,,,,,,,,,,,,,,,,,,,,,,,,,,,,,,,,,,,,,,,,,,,,,,,,,,,,,,,,,,,,,55611,2022-11-02_14h33.37.150,vts_reward_expectancy_bt_OFFLINE,2022.2.4,59.924121894600574,
0,0,1,0,0,1,0,0,hexagon,circle,2,0,2,0,2,3,27,7,,,,,,,,,,,,,,,,,,,,,,,,,,,,,,,,,,,,,,,,871.0273638500366,871.0273638500366,871.0273638500366,871.0273638500366,871.0273638500366,871.0273638500366,871.0273638500366,871.0273638500366,871.0273638500366,871.0273638500366,a,0.6195275250356644,10,835,2,871.6802164200926,873.1948927220656,,,,,,,,,,,,,,,,,,,,,,,,,,,,,,,,,,,,,,,,,,,,,,,,,,,,,,,,,,,,,,,,,,,,,55611,2022-11-02_14h33.37.150,vts_reward_expectancy_bt_OFFLINE,2022.2.4,59.924121894600574,
0,0,0,1,1,0,0,0,star,triangle,2,0,2,0,2,4,28,9,,,,,,,,,,,,,,,,,,,,,,,,,,,,,,,,,,,,,,,,873.6781778500881,873.6781778500881,873.6781778500881,873.6781778500881,873.6781778500881,873.6781778500881,873.6781778500881,873.6781778500881,873.6781778500881,873.6781778500881,a,1.0730739929713309,1,836,2,874.7834046570351,876.2979627350578,,,,,,,,,,,,,,,,,,,,,,,,,,,,,,,,,,,,,,,,,,,,,,,,,,,,,,,,,,,,,,,,,,,,,55611,2022-11-02_14h33.37.150,vts_reward_expectancy_bt_OFFLINE,2022.2.4,59.924121894600574,
1,0,0,0,0,0,1,0,triangle,hexagon,2,0,2,0,2,5,29,1,,,,,,,,,,,,,,,,,,,,,,,,,,,,,,,,,,,,,,,,876.7979797160951,876.7979797160951,876.7979797160951,876.7979797160951,876.7979797160951,876.7979797160951,876.7979797160951,876.7979797160951,876.7979797160951,876.7979797160951,l,0.8813484970014542,10,846,2,877.7012318790657,879.2005947320722,,,,,,,,,,,,,,,,,,,,,,,,,,,,,,,,,,,,,,,,,,,,,,,,,,,,,,,,,,,,,,,,,,,,,55611,2022-11-02_14h33.37.150,vts_reward_expectancy_bt_OFFLINE,2022.2.4,59.924121894600574,
1,0,0,0,0,1,0,0,triangle,circle,2,0,2,0,2,6,30,0,,,,,,,,,,,,,,,,,,,,,,,,,,,,,,,,,,,,,,,,879.7009353680769,879.7009353680769,879.7009353680769,879.7009353680769,879.7009353680769,879.7009353680769,879.7009353680769,879.7009353680769,879.7009353680769,879.7009353680769,l,0.6346228799084201,10,856,2,880.367771931109,881.8684115071082,881.8684115071082,882.3684957940131,,,,,,,,,,,,,,,,,,,,,,,,,,,,,,,,,,,,,,,,,,,,,,,,,,,,,,,,,,,,,,,,,,,55611,2022-11-02_14h33.37.150,vts_reward_expectancy_bt_OFFLINE,2022.2.4,59.924121894600574,
0,0,1,0,1,0,0,0,hexagon,triangle,2,0,2,0,2,7,31,6,,,,,,,,,,,,,,,,,,,,,,,,,,,,,,,,,,,,,,,,882.3684957940131,882.3684957940131,882.3684957940131,882.3684957940131,882.3684957940131,882.3684957940131,882.3684957940131,882.3684957940131,882.3684957940131,882.3684957940131,a,0.6952490110415965,10,866,2,883.0862842210336,884.5877019900363,,,,,,,,,,,,,,,,,,,,,,,,,,,,,,,,,,,,,,,,,,,,,,,,,,,,,,,,,,,,,,,,,,,,,55611,2022-11-02_14h33.37.150,vts_reward_expectancy_bt_OFFLINE,2022.2.4,59.924121894600574,
0,0,0,1,0,1,0,0,star ,circle,2,0,2,0,2,8,32,10,,,,,,,,,,,,,,,,,,,,,,,,,,,,,,,,,,,,,,,,885.087796960026,885.087796960026,885.087796960026,885.087796960026,885.087796960026,885.087796960026,885.087796960026,885.087796960026,885.087796960026,885.087796960026,a,0.552037377958186,10,876,2,885.671492352034,887.1722214510664,887.1722214510664,887.672438337002,,,,,,,,,,,,,,,,,,,,,,,,,,,,,,,,,,,,,,,,,,,,,,,,,,,,,,,,,,,,,,,,,,,55611,2022-11-02_14h33.37.150,vts_reward_expectancy_bt_OFFLINE,2022.2.4,59.924121894600574,
0,1,0,0,0,0,1,0,circle,hexagon,2,0,2,0,2,9,33,4,,,,,,,,,,,,,,,,,,,,,,,,,,,,,,,,,,,,,,,,887.672438337002,887.672438337002,887.672438337002,887.672438337002,887.672438337002,887.672438337002,887.672438337002,887.672438337002,887.672438337002,887.672438337002,l,0.8784467169316486,10,886,2,888.5735025770264,890.0748848310905,,,,,,,,,,,,,,,,,,,,,,,,,,,,,,,,,,,,,,,,,,,,,,,,,,,,,,,,,,,,,,,,,,,,,55611,2022-11-02_14h33.37.150,vts_reward_expectancy_bt_OFFLINE,2022.2.4,59.924121894600574,
0,0,0,1,0,0,1,0,star,hexagon,2,0,2,0,2,10,34,11,,,,,,,,,,,,,,,,,,,,,,,,,,,,,,,,,,,,,,,,890.5750956090633,890.5750956090633,890.5750956090633,890.5750956090633,890.5750956090633,890.5750956090633,890.5750956090633,890.5750956090633,890.5750956090633,890.5750956090633,l,0.5361848979955539,10,896,2,891.1429822740611,892.642601194093,892.642601194093,893.1427756830817,,,,,,,,,,,,,,,,,,,,,,,,,,,,,,,,,,,,,,,,,,,,,,,,,,,,,,,,,,,,,,,,,,,55611,2022-11-02_14h33.37.150,vts_reward_expectancy_bt_OFFLINE,2022.2.4,59.924121894600574,
0,1,0,0,0,0,0,1,circle,star,2,0,2,0,2,11,35,5,,,,,,,,,,,,,,,,,,,,,,,,,,,,,,,,,,,,,,,,893.1427756830817,893.1427756830817,893.1427756830817,893.1427756830817,893.1427756830817,893.1427756830817,893.1427756830817,893.1427756830817,893.1427756830817,893.1427756830817,a,0.6001591730164364,10,906,2,893.7606044400018,895.2621031670133,,,,,,,,,,,,,,,,,,,,,,,,,,,,,,,,,,,,,,,,,,,,,,,,,,,,,,,,,,,,,,,,,,,,,55611,2022-11-02_14h33.37.150,vts_reward_expectancy_bt_OFFLINE,2022.2.4,59.924121894600574,
0,0,1,0,1,0,0,0,hexagon,triangle,2,0,2,0,3,0,36,6,,,,,,,,,,,,,,,,,,,,,,,,,,,,,,,,,,,,,,,,895.7622513259994,895.7622513259994,895.7622513259994,895.7622513259994,895.7622513259994,895.7622513259994,895.7622513259994,895.7622513259994,895.7622513259994,895.7622513259994,a,0.6773405149579048,10,916,2,896.4634437860223,897.9632591190748,897.9632591190748,898.4629192370921,,,,,,,,,,,,,,,,,,,,,,,,,,,,,,,,,,,,,,,,,,,,,,,,,,,,,,,,,,,,,,,,,,,55611,2022-11-02_14h33.37.150,vts_reward_expectancy_bt_OFFLINE,2022.2.4,59.924121894600574,
1,0,0,0,0,0,0,1,triangle,star,2,0,2,0,3,1,37,2,,,,,,,,,,,,,,,,,,,,,,,,,,,,,,,,,,,,,,,,898.4629192370921,898.4629192370921,898.4629192370921,898.4629192370921,898.4629192370921,898.4629192370921,898.4629192370921,898.4629192370921,898.4629192370921,898.4629192370921,a,0.8085891070077196,1,917,2,899.3132142371032,900.8159045110224,,,,,,,,,,,,,,,,,,,,,,,,,,,,,,,,,,,,,,,,,,,,,,,,,,,,,,,,,,,,,,,,,,,,,55611,2022-11-02_14h33.37.150,vts_reward_expectancy_bt_OFFLINE,2022.2.4,59.924121894600574,
0,1,0,0,0,0,0,1,circle,star,2,0,2,0,3,2,38,5,,,,,,,,,,,,,,,,,,,,,,,,,,,,,,,,,,,,,,,,901.2993501570309,901.2993501570309,901.2993501570309,901.2993501570309,901.2993501570309,901.2993501570309,901.2993501570309,901.2993501570309,901.2993501570309,901.2993501570309,l,1.2441577279241756,10,927,2,902.5696795900585,904.0809853040846,,,,,,,,,,,,,,,,,,,,,,,,,,,,,,,,,,,,,,,,,,,,,,,,,,,,,,,,,,,,,,,,,,,,,55611,2022-11-02_14h33.37.150,vts_reward_expectancy_bt_OFFLINE,2022.2.4,59.924121894600574,
1,0,0,0,0,1,0,0,triangle,circle,2,0,2,0,3,3,39,0,,,,,,,,,,,,,,,,,,,,,,,,,,,,,,,,,,,,,,,,904.5690223440761,904.5690223440761,904.5690223440761,904.5690223440761,904.5690223440761,904.5690223440761,904.5690223440761,904.5690223440761,904.5690223440761,904.5690223440761,a,0.9339377689175308,1,928,2,905.5229565190384,907.036325416062,,,,,,,,,,,,,,,,,,,,,,,,,,,,,,,,,,,,,,,,,,,,,,,,,,,,,,,,,,,,,,,,,,,,,55611,2022-11-02_14h33.37.150,vts_reward_expectancy_bt_OFFLINE,2022.2.4,59.924121894600574,
0,0,0,1,0,1,0,0,star ,circle,2,0,2,0,3,4,40,10,,,,,,,,,,,,,,,,,,,,,,,,,,,,,,,,,,,,,,,,907.5366337191081,907.5366337191081,907.5366337191081,907.5366337191081,907.5366337191081,907.5366337191081,907.5366337191081,907.5366337191081,907.5366337191081,907.5366337191081,l,0.4222493440611288,10,938,2,907.9895965950564,909.4892110080691,,,,,,,,,,,,,,,,,,,,,,,,,,,,,,,,,,,,,,,,,,,,,,,,,,,,,,,,,,,,,,,,,,,,,55611,2022-11-02_14h33.37.150,vts_reward_expectancy_bt_OFFLINE,2022.2.4,59.924121894600574,
0,0,1,0,0,1,0,0,hexagon,circle,2,0,2,0,3,5,41,7,,,,,,,,,,,,,,,,,,,,,,,,,,,,,,,,,,,,,,,,909.9894084620755,909.9894084620755,909.9894084620755,909.9894084620755,909.9894084620755,909.9894084620755,909.9894084620755,909.9894084620755,909.9894084620755,909.9894084620755,l,0.40938853402622044,1,939,2,910.4259821360465,911.9402195730945,,,,,,,,,,,,,,,,,,,,,,,,,,,,,,,,,,,,,,,,,,,,,,,,,,,,,,,,,,,,,,,,,,,,,55611,2022-11-02_14h33.37.150,vts_reward_expectancy_bt_OFFLINE,2022.2.4,59.924121894600574,
0,0,1,0,0,0,0,1,hexagon,star,2,0,2,0,3,6,42,8,,,,,,,,,,,,,,,,,,,,,,,,,,,,,,,,,,,,,,,,912.4402317210333,912.4402317210333,912.4402317210333,912.4402317210333,912.4402317210333,912.4402317210333,912.4402317210333,912.4402317210333,912.4402317210333,912.4402317210333,a,0.7506842089351267,10,949,2,913.2105313600041,914.7096766980831,,,,,,,,,,,,,,,,,,,,,,,,,,,,,,,,,,,,,,,,,,,,,,,,,,,,,,,,,,,,,,,,,,,,,55611,2022-11-02_14h33.37.150,vts_reward_expectancy_bt_OFFLINE,2022.2.4,59.924121894600574,
0,0,0,1,0,0,1,0,star,hexagon,2,0,2,0,3,7,43,11,,,,,,,,,,,,,,,,,,,,,,,,,,,,,,,,,,,,,,,,915.2098892900394,915.2098892900394,915.2098892900394,915.2098892900394,915.2098892900394,915.2098892900394,915.2098892900394,915.2098892900394,915.2098892900394,915.2098892900394,l,0.757908402942121,10,959,2,915.9943399060285,917.49394962308,917.49394962308,917.9939667620929,,,,,,,,,,,,,,,,,,,,,,,,,,,,,,,,,,,,,,,,,,,,,,,,,,,,,,,,,,,,,,,,,,,55611,2022-11-02_14h33.37.150,vts_reward_expectancy_bt_OFFLINE,2022.2.4,59.924121894600574,
1,0,0,0,0,0,1,0,triangle,hexagon,2,0,2,0,3,8,44,1,,,,,,,,,,,,,,,,,,,,,,,,,,,,,,,,,,,,,,,,917.9939667620929,917.9939667620929,917.9939667620929,917.9939667620929,917.9939667620929,917.9939667620929,917.9939667620929,917.9939667620929,917.9939667620929,917.9939667620929,a,1.7808945899596438,1,960,2,919.7995809140848,921.3141153040342,,,,,,,,,,,,,,,,,,,,,,,,,,,,,,,,,,,,,,,,,,,,,,,,,,,,,,,,,,,,,,,,,,,,,55611,2022-11-02_14h33.37.150,vts_reward_expectancy_bt_OFFLINE,2022.2.4,59.924121894600574,
0,1,0,0,0,0,1,0,circle,hexagon,2,0,2,0,3,9,45,4,,,,,,,,,,,,,,,,,,,,,,,,,,,,,,,,,,,,,,,,921.7972367201,921.7972367201,921.7972367201,921.7972367201,921.7972367201,921.7972367201,921.7972367201,921.7972367201,921.7972367201,921.7972367201,l,0.6429006450343877,10,970,2,922.4673543180106,923.9813232510351,,,,,,,,,,,,,,,,,,,,,,,,,,,,,,,,,,,,,,,,,,,,,,,,,,,,,,,,,,,,,,,,,,,,,55611,2022-11-02_14h33.37.150,vts_reward_expectancy_bt_OFFLINE,2022.2.4,59.924121894600574,
0,0,0,1,1,0,0,0,star,triangle,2,0,2,0,3,10,46,9,,,,,,,,,,,,,,,,,,,,,,,,,,,,,,,,,,,,,,,,924.4668933560606,924.4668933560606,924.4668933560606,924.4668933560606,924.4668933560606,924.4668933560606,924.4668933560606,924.4668933560606,924.4668933560606,924.4668933560606,l,0.7159938350087032,1,971,2,925.2035852071131,926.7177995180245,,,,,,,,,,,,,,,,,,,,,,,,,,,,,,,,,,,,,,,,,,,,,,,,,,,,,,,,,,,,,,,,,,,,,55611,2022-11-02_14h33.37.150,vts_reward_expectancy_bt_OFFLINE,2022.2.4,59.924121894600574,
0,1,0,0,1,0,0,0,circle,triangle,2,0,2,0,3,11,47,3,,,,,,,,,,,,,,,,,,,,,,,,,,,,,,,,,,,,,,,,927.2178199150367,927.2178199150367,927.2178199150367,927.2178199150367,927.2178199150367,927.2178199150367,927.2178199150367,927.2178199150367,927.2178199150367,927.2178199150367,a,0.46940595796331763,10,981,2,927.7211894940119,929.2203578300541,,,,,,,,,,,,,,,,,,,,,,,,,,,,,,,,,,,,,,,,,,,,,,,,,,,,,,,,,,,,,,,,,,,,,55611,2022-11-02_14h33.37.150,vts_reward_expectancy_bt_OFFLINE,2022.2.4,59.924121894600574,
,,,,,,,,,,,,,,,,,,0,0,0,0,0,0,0,0,,,,,,,,,,,,,,,,,,,,,,,,,,,,,,,,,,,,,,,,,,,,,,,,979.8739516240312,,,U,181,star,0.017154364031739533,973.8809209740721,975.3536540800706,975.3536540800706,975.3536540800706,978.3545830750372,978.3545830750372,978.3545830750372,0,0,None,0,978.3714697280666,,,,,,,,,,,,,,,,,,,,,,,,,,,,,,,,,,,,,,,,,,,,,,,,,,,55611,2022-11-02_14h33.37.150,vts_reward_expectancy_bt_OFFLINE,2022.2.4,59.924121894600574,
,,,,,,,,,,,,,,,,,,0,0,0,0,1,0,1,0,,,,,,,,,,,,,,,,,,,,,,,,,,,,,,,,,,,,,,,,,,,,,,,,985.0773308620555,,,D,146,circle,0.006388345966115594,980.8696527830325,982.3578101641033,982.3578101641033,982.3578101641033,,,,1,1,d,0,983.5781930180965,1.1942489159991965,,,,,,,,,,,,,,,,,,,,,,,,,,,,,,,,,,,,,,,,,,,,,,,,,,55611,2022-11-02_14h33.37.150,vts_reward_expectancy_bt_OFFLINE,2022.2.4,59.924121894600574,
,,,,,,,,,,,,,,,,,,0,0,0,0,2,0,2,0,,,,,,,,,,,,,,,,,,,,,,,,,,,,,,,,,,,,,,,,,,,,,,,,990.3978606120218,,,W,139,hexagon,0.0019357949495315552,986.0735820711125,987.5615203171037,987.5615203171037,987.5615203171037,,,,1,0,f,0,988.8965309310006,1.3025204460136592,,,,,,,,,,,,,,,,,,,,,,,,,,,,,,,,,,,,,,,,,,,,,,,,,,55611,2022-11-02_14h33.37.150,vts_reward_expectancy_bt_OFFLINE,2022.2.4,59.924121894600574,
,,,,,,,,,,,,,,,,,,0,0,0,0,3,0,3,0,,,,,,,,,,,,,,,,,,,,,,,,,,,,,,,,,,,,,,,,,,,,,,,,995.1013220790774,,,F,125,triangle,0.0018090649973601103,991.393848081003,992.8821601300733,992.8821601300733,992.8821601300733,,,,1,0,d,0,993.599813280045,0.6937422389164567,,,,,,,,,,,,,,,,,,,,,,,,,,,,,,,,,,,,,,,,,,,,,,,,,,55611,2022-11-02_14h33.37.150,vts_reward_expectancy_bt_OFFLINE,2022.2.4,59.924121894600574,
,,,,,,,,,,,,,,,,,,0,0,0,0,4,0,4,0,,,,,,,,,,,,,,,,,,,,,,,,,,,,,,,,,,,,,,,,,,,,,,,,999.6049479640787,,,Y,174,star,0.002202057046815753,996.0972922299989,997.5856739151059,997.5856739151059,997.5856739151059,,,,1,0,f,0,998.1037084920099,0.4861491739284247,,,,,,,,,,,,,,,,,,,,,,,,,,,,,,,,,,,,,,,,,,,,,,,,,,55611,2022-11-02_14h33.37.150,vts_reward_expectancy_bt_OFFLINE,2022.2.4,59.924121894600574,
,,,,,,,,,,,,,,,,,,0,0,0,0,5,0,5,0,,,,,,,,,,,,,,,,,,,,,,,,,,,,,,,,,,,,,,,,,,,,,,,,1004.3080427950481,,,H,132,triangle,0.001943966024555266,1000.6005706600845,1002.0889831490349,1002.0889831490349,1002.0889831490349,,,,1,0,d,0,1002.8069662080379,0.693921567988582,,,,,,,,,,,,,,,,,,,,,,,,,,,,,,,,,,,,,,,,,,,,,,,,,,55611,2022-11-02_14h33.37.150,vts_reward_expectancy_bt_OFFLINE,2022.2.4,59.924121894600574,
,,,,,,,,,,,,,,,,,,0,0,0,0,6,0,6,0,,,,,,,,,,,,,,,,,,,,,,,,,,,,,,,,,,,,,,,,,,,,,,,,1008.9433468150673,,,B,167,hexagon,0.0020727840019389987,1005.3035444871057,1006.7927325950004,1006.7927325950004,1006.7927325950004,,,,1,0,d,0,1007.4439327330329,0.631095927907154,1008.9433468150673,,,,,,,,,,,,,,,,,,,,,,,,,,,,,,,,,,,,,,,,,,,,,,,,,55611,2022-11-02_14h33.37.150,vts_reward_expectancy_bt_OFFLINE,2022.2.4,59.924121894600574,
,,,,,,,,,,,,,,,,,,0,0,0,0,7,0,7,0,,,,,,,,,,,,,,,,,,,,,,,,,,,,,,,,,,,,,,,,,,,,,,,,1013.8468497470021,,,S,160,circle,0.001757254940457642,1009.940553789027,1011.4296280021081,1011.4296280021081,1011.4296280021081,,,,1,0,f,0,1012.3473108480684,0.8898338709259406,1013.8468497470021,,,,,,,,,,,,,,,,,,,,,,,,,,,,,,,,,,,,,,,,,,,,,,,,,55611,2022-11-02_14h33.37.150,vts_reward_expectancy_bt_OFFLINE,2022.2.4,59.924121894600574,
,,,,,,,,,,,,,,,,,,0,0,0,0,8,0,8,0,,,,,,,,,,,,,,,,,,,,,,,,,,,,,,,,,,,,,,,,,,,,,,,,1018.70069083001,,,U,181,hexagon,0.0020359429763630033,1014.8432612990728,1016.3331090240972,1016.3331090240972,1016.3331090240972,,,,1,0,f,0,1017.2010990030831,0.8501312190201133,1018.70069083001,,,,,,,,,,,,,,,,,,,,,,,,,,,,,,,,,,,,,,,,,,,,,,,,,55611,2022-11-02_14h33.37.150,vts_reward_expectancy_bt_OFFLINE,2022.2.4,59.924121894600574,
,,,,,,,,,,,,,,,,,,0,0,0,0,9,0,9,0,,,,,,,,,,,,,,,,,,,,,,,,,,,,,,,,,,,,,,,,,,,,,,,,1023.4209370580502,,,D,146,circle,0.004993910901248455,1019.6988729340956,1021.1865405280842,1021.1865405280842,1021.1865405280842,,,,1,0,d,0,1021.9051315360703,0.7004340719431639,,,,,,,,,,,,,,,,,,,,,,,,,,,,,,,,,,,,,,,,,,,,,,,,,,55611,2022-11-02_14h33.37.150,vts_reward_expectancy_bt_OFFLINE,2022.2.4,59.924121894600574,
,,,,,,,,,,,,,,,,,,,,,,,,,,0,0,0,0,0,0,0,0,,,,,,,,,,,,,,,,,,,,,,,,,,,,,,,,,,,,,,,,1068.0200680200942,,,Y,160,triangle,0.0009148219833150506,,,,,,,,2,0,,1,1066.5058440261055,,,1064.3128472421085,1065.8026688630925,1065.8026688630925,1065.8026688630925,f,0.6681417590007186,,,,,,,,,,,,,,,,,,,,,,,,,,,,,,,,,,,,,,,,,,,55611,2022-11-02_14h33.37.150,vts_reward_expectancy_bt_OFFLINE,2022.2.4,59.924121894600574,
,,,,,,,,,,,,,,,,,,,,,,,,,,0,0,0,0,1,0,1,0,,,,,,,,,,,,,,,,,,,,,,,,,,,,,,,,,,,,,,,,1073.9571305520367,,,H,181,circle,0.015411093016155064,,,,,,,,1,0,,1,1072.443414938054,,,1069.0158786460524,1070.4895864750724,1070.4895864750724,1070.4895864750724,k,1.933997712098062,,,,,,,,,,,,,,,,,,,,,,,,,,,,,,,,,,,,,,,,,,,55611,2022-11-02_14h33.37.150,vts_reward_expectancy_bt_OFFLINE,2022.2.4,59.924121894600574,
,,,,,,,,,,,,,,,,,,,,,,,,,,0,0,0,0,2,0,2,0,,,,,,,,,,,,,,,,,,,,,,,,,,,,,,,,,,,,,,,,1079.1942252230365,,,F,167,hexagon,0.0015714799519628286,,,,,,,,1,0,,1,1077.6785724910442,,,1074.937522009015,1076.426797516062,1076.426797516062,1076.426797516062,k,1.2285518499556929,,,,,,,,,,,,,,,,,,,,,,,,,,,,,,,,,,,,,,,,,,,55611,2022-11-02_14h33.37.150,vts_reward_expectancy_bt_OFFLINE,2022.2.4,59.924121894600574,
,,,,,,,,,,,,,,,,,,,,,,,,,,0,0,0,0,3,0,3,0,,,,,,,,,,,,,,,,,,,,,,,,,,,,,,,,,,,,,,,,1084.1314020660939,,,S,125,star,0.002098365919664502,,,,,,,,1,0,,1,1082.6319540221011,,1084.1314020660939,1080.174639705103,1081.6640708390623,1081.6640708390623,1081.6640708390623,j,0.9436895699473098,,,,,,,,,,,,,,,,,,,,,,,,,,,,,,,,,,,,,,,,,,,55611,2022-11-02_14h33.37.150,vts_reward_expectancy_bt_OFFLINE,2022.2.4,59.924121894600574,
,,,,,,,,,,,,,,,,,,,,,,,,,,0,0,0,0,4,0,4,0,,,,,,,,,,,,,,,,,,,,,,,,,,,,,,,,,,,,,,,,1089.270034823101,,,B,139,star,0.0018532610265538096,,,,,,,,1,0,,1,1087.7692247430095,,,1085.128310027998,1086.617252959055,1086.617252959055,1086.617252959055,j,1.1337626059539616,,,,,,,,,,,,,,,,,,,,,,,,,,,,,,,,,,,,,,,,,,,55611,2022-11-02_14h33.37.150,vts_reward_expectancy_bt_OFFLINE,2022.2.4,59.924121894600574,
,,,,,,,,,,,,,,,,,,,,,,,,,,0,0,0,0,5,0,5,0,,,,,,,,,,,,,,,,,,,,,,,,,,,,,,,,,,,,,,,,1094.1219852750655,,,W,174,circle,0.0017086410662159324,,,,,,,,1,0,,1,1092.6227978430688,,1094.1219852750655,1090.2653834620724,1091.7544857989997,1091.7544857989997,1091.7544857989997,k,0.837583297980018,,,,,,,,,,,,,,,,,,,,,,,,,,,,,,,,,,,,,,,,,,,55611,2022-11-02_14h33.37.150,vts_reward_expectancy_bt_OFFLINE,2022.2.4,59.924121894600574,
,,,,,,,,,,,,,,,,,,,,,,,,,,0,0,0,0,6,0,6,0,,,,,,,,,,,,,,,,,,,,,,,,,,,,,,,,,,,,,,,,1098.9753543960396,,,D,132,triangle,0.001982867019250989,,,,,,,,1,0,,1,1097.4761752650375,,1098.9753543960396,1095.1192271551117,1096.607972345082,1096.607972345082,1096.607972345082,j,0.8478400099556893,,,,,,,,,,,,,,,,,,,,,,,,,,,,,,,,,,,,,,,,,,,55611,2022-11-02_14h33.37.150,vts_reward_expectancy_bt_OFFLINE,2022.2.4,59.924121894600574,
,,,,,,,,,,,,,,,,,,,,,,,,,,0,0,0,0,7,0,7,0,,,,,,,,,,,,,,,,,,,,,,,,,,,,,,,,,,,,,,,,1103.9123133230023,,,U,146,hexagon,0.0022197869839146733,,,,,,,,1,0,,1,1102.4131220800336,,1103.9123133230023,1099.972574558109,1101.461489112,1101.461489112,1101.461489112,j,0.9300244230544195,,,,,,,,,,,,,,,,,,,,,,,,,,,,,,,,,,,,,,,,,,,55611,2022-11-02_14h33.37.150,vts_reward_expectancy_bt_OFFLINE,2022.2.4,59.924121894600574,
,,,,,,,,,,,,,,,,,,,,,,,,,,0,0,0,0,8,0,8,0,,,,,,,,,,,,,,,,,,,,,,,,,,,,,,,,,,,,,,,,1108.8493104641093,,,Y,160,hexagon,0.0017943650018423796,,,,,,,,1,0,,1,1107.350151575054,,1108.8493104641093,1104.9092438950902,1106.3985499680275,1106.3985499680275,1106.3985499680275,k,0.9284616829827428,,,,,,,,,,,,,,,,,,,,,,,,,,,,,,,,,,,,,,,,,,,55611,2022-11-02_14h33.37.150,vts_reward_expectancy_bt_OFFLINE,2022.2.4,59.924121894600574,
,,,,,,,,,,,,,,,,,,,,,,,,,,0,0,0,0,9,0,9,0,,,,,,,,,,,,,,,,,,,,,,,,,,,,,,,,,,,,,,,,1113.519505012082,,,H,181,star,0.00206395098939538,,,,,,,,1,0,,1,1112.0038455920294,,,1109.8459331990452,1111.3355926870136,1111.3355926870136,1111.3355926870136,k,0.6398038899060339,,,,,,,,,,,,,,,,,,,,,,,,,,,,,,,,,,,,,,,,,,,55611,2022-11-02_14h33.37.150,vts_reward_expectancy_bt_OFFLINE,2022.2.4,59.924121894600574,
,,,,,,,,,,,,,,,,,,,,,,,,,,,,,,,,,,0,0,0,0,0,0,0,0,,,,,,,,,,,,,,,,,,,,,,,,,,,,0,981,,,1153.898734714021,,,W,146,circle,0.0022106069372966886,,,,,,,,0,0,,2,,,,,,,,,,1149.8269602250075,1149.8269602250075,1149.8269602250075,1149.8269602250075,1151.3146175650181,1151.3146175650181,1151.3146175650181,1151.3146175650181,1151.3312326070154,1151.3312326070154,1151.3312326070154,1151.3312326070154,-1,letter,NA,d,1.0451919049955904,vtsPrac,1152.3848341940902,,,,,,,,,,,,,,,,,,,,,,,,55611,2022-11-02_14h33.37.150,vts_reward_expectancy_bt_OFFLINE,2022.2.4,59.924121894600574,
,,,,,,,,,,,,,,,,,,,,,,,,,,,,,,,,,,0,0,0,0,1,0,1,0,,,,,,,,,,,,,,,,,,,,,,,,,,,,0,981,,,1159.1359776980244,,,B,132,triangle,0.0017815680475905538,,,,,,,,1,1,,2,,,,,,,,,,1154.8798849550076,1154.8798849550076,1154.8798849550076,1154.8798849550076,1156.3681849510176,1156.3681849510176,1156.3681849510176,1156.3681849510176,1156.3848447360797,1156.3848447360797,1156.3848447360797,1156.3848447360797,switch,number,numSwt,j,1.223718047956936,vtsPrac,1157.6218391360017,,,,,,,,,,,,,,,,,,,,,,,,55611,2022-11-02_14h33.37.150,vts_reward_expectancy_bt_OFFLINE,2022.2.4,59.924121894600574,
,,,,,,,,,,,,,,,,,,,,,,,,,,,,,,,,,,0,0,0,0,2,0,2,0,,,,,,,,,,,,,,,,,,,,,,,,,,,,0,981,,,1164.9081930660177,,,F,167,star,0.0018277509370818734,,,,,,,,1,0,,2,,,,,,,,,,1160.116285575088,1160.116285575088,1160.116285575088,1160.116285575088,1161.605297809001,1161.605297809001,1161.605297809001,1161.605297809001,1161.6219240931096,1161.6219240931096,1161.6219240931096,1161.6219240931096,repeat,number,numRpt,k,1.770021627889946,vtsPrac,1163.407400765107,,,,,,,,,,,,,,,,,,,,,,,,55611,2022-11-02_14h33.37.150,vts_reward_expectancy_bt_OFFLINE,2022.2.4,59.924121894600574,
,,,,,,,,,,,,,,,,,,,,,,,,,,,,,,,,,,0,0,0,0,3,0,3,0,,,,,,,,,,,,,,,,,,,,,,,,,,,,0,981,,,1169.7119150731014,,,U,181,circle,0.0019249849719926715,,,,,,,,0,0,,2,,,,,,,,,,1165.9043536710087,1165.9043536710087,1165.9043536710087,1165.9043536710087,1167.3926731410902,1167.3926731410902,1167.3926731410902,1167.3926731410902,1167.4091929780552,1167.4091929780552,1167.4091929780552,1167.4091929780552,switch,letter,NA,d,0.7910714019089937,vtsPrac,1168.2128668380901,,,,,,,,,,,,,,,,,,,,,,,,55611,2022-11-02_14h33.37.150,vts_reward_expectancy_bt_OFFLINE,2022.2.4,59.924121894600574,
,,,,,,,,,,,,,,,,,,,,,,,,,,,,,,,,,,0,0,0,0,4,0,4,0,,,,,,,,,,,,,,,,,,,,,,,,,,,,0,981,,,1174.9821779520717,,,W,146,hexagon,0.0019164340337738395,,,,,,,,1,1,,2,,,,,,,,,,1170.7075036150636,1170.7075036150636,1170.7075036150636,1170.7075036150636,1172.1960844700225,1172.1960844700225,1172.1960844700225,1172.1960844700225,1172.2127785540652,1172.2127785540652,1172.2127785540652,1172.2127785540652,switch,number,numSwt,j,1.2596203169086948,vtsPrac,1173.4833010230213,,,,,,,,,,,,,,,,,,,,,,,,55611,2022-11-02_14h33.37.150,vts_reward_expectancy_bt_OFFLINE,2022.2.4,59.924121894600574,
,,,,,,,,,,,,,,,,,,,,,,,,,,,,,,,,,,0,0,0,0,5,0,5,0,,,,,,,,,,,,,,,,,,,,,,,,,,,,0,981,,,1180.1025735400617,,,B,132,circle,0.0019991430453956127,,,,,,,,1,0,,2,,,,,,,,,,1175.9780559530482,1175.9780559530482,1175.9780559530482,1175.9780559530482,1177.4662256740266,1177.4662256740266,1177.4662256740266,1177.4662256740266,1177.483129505068,1177.483129505068,1177.483129505068,1177.483129505068,repeat,number,numRpt,j,1.1097645019181073,vtsPrac,1178.6017858870327,,,,,,,,,,,,,,,,,,,,,,,,55611,2022-11-02_14h33.37.150,vts_reward_expectancy_bt_OFFLINE,2022.2.4,59.924121894600574,
,,,,,,,,,,,,,,,,,,,,,,,,,,,,,,,,,,0,0,0,0,6,0,6,0,,,,,,,,,,,,,,,,,,,,,,,,,,,,0,981,,,1186.9568486750359,,1187.45706814609,F,167,star,0.0019546300172805786,,,,,,,,1,0,,2,,,,,,,,,,1181.0982986170566,1181.0982986170566,1181.0982986170566,1181.0982986170566,1182.5867974180728,1182.5867974180728,1182.5867974180728,1182.5867974180728,1182.6034134820802,1182.6034134820802,1182.6034134820802,1182.6034134820802,switch,letter,lettSwt,d,2.84509038599208,vtsPrac,1185.4574318000814,1186.9568486750359,,,,,,,,,,,,,,,,,,,,,,,55611,2022-11-02_14h33.37.150,vts_reward_expectancy_bt_OFFLINE,2022.2.4,59.924121894600574,
,,,,,,,,,,,,,,,,,,,,,,,,,,,,,,,,,,0,0,0,0,7,0,7,0,,,,,,,,,,,,,,,,,,,,,,,,,,,,0,981,,,1192.1938361860812,,1192.6939536470454,U,181,circle,0.0005727260140702128,,,,,,,,1,0,,2,,,,,,,,,,1187.952725609066,1187.952725609066,1187.952725609066,1187.952725609066,1189.4431624230929,1189.4431624230929,1189.4431624230929,1189.4431624230929,1189.459498549113,1189.459498549113,1189.459498549113,1189.459498549113,repeat,letter,lettRpt,f,1.2287024828838184,vtsPrac,1190.69483734807,1192.1938361860812,,,,,,,,,,,,,,,,,,,,,,,55611,2022-11-02_14h33.37.150,vts_reward_expectancy_bt_OFFLINE,2022.2.4,59.924121894600574,
,,,,,,,,,,,,,,,,,,,,,,,,,,,,,,,,,,0,0,0,0,8,0,8,0,,,,,,,,,,,,,,,,,,,,,,,,,,,,0,981,,,1197.7978455810808,,,B,167,hexagon,0.0004272590158507228,,,,,,,,1,0,,2,,,,,,,,,,1193.1897601910168,1193.1897601910168,1193.1897601910168,1193.1897601910168,1194.680023233057,1194.680023233057,1194.680023233057,1194.680023233057,1194.6966292660218,1194.6966292660218,1194.6966292660218,1194.6966292660218,switch,number,numSwt,k,1.5833995430730283,vtsPrac,1196.2821453460492,,,,,,,,,,,,,,,,,,,,,,,,55611,2022-11-02_14h33.37.150,vts_reward_expectancy_bt_OFFLINE,2022.2.4,59.924121894600574,
,,,,,,,,,,,,,,,,,,,,,,,,,,,,,,,,,,0,0,0,0,9,0,9,0,,,,,,,,,,,,,,,,,,,,,,,,,,,,0,981,,,1203.318237154046,,,U,181,star,0.016691955970600247,,,,,,,,1,0,,2,,,,,,,,,,1198.793941978016,1198.793941978016,1198.793941978016,1198.793941978016,1200.2671181650367,1200.2671181650367,1200.2671181650367,1200.2671181650367,1200.3004800160415,1200.3004800160415,1200.3004800160415,1200.3004800160415,repeat,number,numRpt,k,1.5237515189219266,vtsPrac,1201.819329377031,1203.318237154046,,,,,,,,,,,,,,,,,,,,,,,55611,2022-11-02_14h33.37.150,vts_reward_expectancy_bt_OFFLINE,2022.2.4,59.924121894600574,
,,,,,,,,,,,,,,,,,,,,,,,,,,,,,,,,,,0,0,0,0,10,0,10,0,,,,,,,,,,,,,,,,,,,,,,,,,,,,0,981,,,1208.6054366200697,,1209.105634255102,D,139,triangle,0.0003319180104881525,,,,,,,,1,0,,2,,,,,,,,,,1204.3146174320718,1204.3146174320718,1204.3146174320718,1204.3146174320718,1205.8044773150468,1205.8044773150468,1205.8044773150468,1205.8044773150468,1205.8212605681038,1205.8212605681038,1205.8212605681038,1205.8212605681038,repeat,number,numRpt,j,1.2747294739820063,vtsPrac,1207.1063155489974,1208.6054366200697,,,,,,,,,,,,,,,,,,,,,,,55611,2022-11-02_14h33.37.150,vts_reward_expectancy_bt_OFFLINE,2022.2.4,59.924121894600574,
,,,,,,,,,,,,,,,,,,,,,,,,,,,,,,,,,,0,0,0,0,11,0,11,0,,,,,,,,,,,,,,,,,,,,,,,,,,,,0,981,,,1213.7091321790358,,,S,160,circle,0.00032726896461099386,,,,,,,,1,0,,2,,,,,,,,,,1209.6022494770586,1209.6022494770586,1209.6022494770586,1209.6022494770586,1211.0916491310345,1211.0916491310345,1211.0916491310345,1211.0916491310345,1211.1081916580442,1211.1081916580442,1211.1081916580442,1211.1081916580442,switch,letter,lettSwt,f,1.0758247439516708,vtsPrac,1212.1936138990568,,,,,,,,,,,,,,,,,,,,,,,,55611,2022-11-02_14h33.37.150,vts_reward_expectancy_bt_OFFLINE,2022.2.4,59.924121894600574,
,,,,,,,,,,,,,,,,,,,,,,,,,,,,,,,,,,0,0,0,0,12,0,12,0,,,,,,,,,,,,,,,,,,,,,,,,,,,,0,981,,,1218.7961386580719,,,F,167,triangle,0.016634294064715505,,,,,,,,1,0,,2,,,,,,,,,,1214.7052414300852,1214.7052414300852,1214.7052414300852,1214.7052414300852,1216.1782413930632,1216.1782413930632,1216.1782413930632,1216.1782413930632,1216.211820326047,1216.211820326047,1216.211820326047,1216.211820326047,switch,number,numSwt,k,1.077523866086267,vtsPrac,1217.2805048940936,,,,,,,,,,,,,,,,,,,,,,,,55611,2022-11-02_14h33.37.150,vts_reward_expectancy_bt_OFFLINE,2022.2.4,59.924121894600574,
,,,,,,,,,,,,,,,,,,,,,,,,,,,,,,,,,,0,0,0,0,13,0,13,0,,,,,,,,,,,,,,,,,,,,,,,,,,,,0,981,,,1223.3995916490676,,,Y,146,circle,0.016869270941242576,,,,,,,,1,0,,2,,,,,,,,,,1219.7928256921005,1219.7928256921005,1219.7928256921005,1219.7928256921005,1221.2654368990334,1221.2654368990334,1221.2654368990334,1221.2654368990334,1221.2987482800381,1221.2987482800381,1221.2987482800381,1221.2987482800381,switch,letter,lettSwt,f,0.61427955806721,vtsPrac,1221.9000443560071,1223.3995916490676,,,,,,,,,,,,,,,,,,,,,,,55611,2022-11-02_14h33.37.150,vts_reward_expectancy_bt_OFFLINE,2022.2.4,59.924121894600574,
,,,,,,,,,,,,,,,,,,,,,,,,,,,,,,,,,,0,0,0,0,14,0,14,0,,,,,,,,,,,,,,,,,,,,,,,,,,,,0,981,,,1228.2531691790791,,,B,139,triangle,0.0003970310790464282,,,,,,,,1,0,,2,,,,,,,,,,1224.39599893603,1224.39599893603,1224.39599893603,1224.39599893603,1225.8855586580466,1225.8855586580466,1225.8855586580466,1225.8855586580466,1225.9022139790468,1225.9022139790468,1225.9022139790468,1225.9022139790468,switch,number,numSwt,j,0.8336034700041637,vtsPrac,1226.7378530320711,,,,,,,,,,,,,,,,,,,,,,,,55611,2022-11-02_14h33.37.150,vts_reward_expectancy_bt_OFFLINE,2022.2.4,59.924121894600574,
,,,,,,,,,,,,,,,,,,,,,,,,,,,,,,,,,,0,0,0,0,15,0,15,0,,,,,,,,,,,,,,,,,,,,,,,,,,,,0,981,,,1232.9065706951078,,,S,174,star,0.016499232035130262,,,,,,,,1,0,,2,,,,,,,,,,1229.249064497999,1229.249064497999,1229.249064497999,1229.249064497999,1230.7227093140827,1230.7227093140827,1230.7227093140827,1230.7227093140827,1230.755858636112,1230.755858636112,1230.755858636112,1230.755858636112,repeat,number,numRpt,k,0.6451037679798901,vtsPrac,1231.3909805091098,,,,,,,,,,,,,,,,,,,,,,,,55611,2022-11-02_14h33.37.150,vts_reward_expectancy_bt_OFFLINE,2022.2.4,59.924121894600574,
,,,,,,,,,,,,,,,,,,,,,,,,,,,,,,,,,,,,,,,,,,0,0,0,0,,,,,,,,,,,,,,,,,,,,,,,,0,981,,,1259.8940187830012,,1260.3941048880806,U,139,hexagon,0.003021026961505413,,,,,,,,1,0,,,,,,,,,,,,1255.8525175180985,1255.8525175180985,1255.8525175180985,1255.8525175180985,1257.3411744460464,1257.3411744460464,1257.3411744460464,1257.3411744460464,1257.358013354009,1257.358013354009,1257.358013354009,1257.358013354009,switch,letter,lettSwt,f,1.018352956045419,noRew,,,0,1258.3935887250118,1259.8940187830012,,,,,,,,,,,,,,,,,,,,55611,2022-11-02_14h33.37.150,vts_reward_expectancy_bt_OFFLINE,2022.2.4,59.924121894600574,
,,,,,,,,,,,,,,,,,,,,,,,,,,,,,,,,,,,,,,,,,,1,0,1,0,,,,,,,,,,,,,,,,,,,,,,,,0,981,,,1264.797653144109,,1265.2977918620454,S,167,star,0.0006753900088369846,,,,,,,,1,0,,,,,,,,,,,,1260.8898533750325,1260.8898533750325,1260.8898533750325,1260.8898533750325,1262.3781908680685,1262.3781908680685,1262.3781908680685,1262.3781908680685,1262.39486372401,1262.39486372401,1262.39486372401,1262.39486372401,repeat,letter,lettRpt,f,0.8852355410344899,noRew,,,0,1263.2955728500383,1264.797653144109,,,,,,,,,,,,,,,,,,,,55611,2022-11-02_14h33.37.150,vts_reward_expectancy_bt_OFFLINE,2022.2.4,59.924121894600574,
,,,,,,,,,,,,,,,,,,,,,,,,,,,,,,,,,,,,,,,,,,2,0,2,0,,,,,,,,,,,,,,,,,,,,,,,,0,981,,,1269.667873642058,,,F,160,triangle,-9.194610174745321e-05,,,,,,,,1,0,,,,,,,,,,,,1265.7934289930854,1265.7934289930854,1265.7934289930854,1265.7934289930854,1267.2818589180242,1267.2818589180242,1267.2818589180242,1267.2818589180242,1267.2984912690008,1267.2984912690008,1267.2984912690008,1267.2984912690008,repeat,letter,lettRpt,d,0.8614546060562134,noRew,,,0,1268.16701367707,,,,,,,,,,,,,,,,,,,,,55611,2022-11-02_14h33.37.150,vts_reward_expectancy_bt_OFFLINE,2022.2.4,59.924121894600574,
,,,,,,,,,,,,,,,,,,,,,,,,,,,,,,,,,,,,,,,,,,3,0,3,0,,,,,,,,,,,,,,,,,,,,,,,,0,981,,,1274.654629571014,,,Y,146,circle,0.0022547399858012795,,,,,,,,1,0,,,,,,,,,,,,1270.6635218100855,1270.6635218100855,1270.6635218100855,1270.6635218100855,1272.1521148961037,1272.1521148961037,1272.1521148961037,1272.1521148961037,1272.168968825019,1272.168968825019,1272.168968825019,1272.168968825019,switch,number,numSwt,j,0.9827600020216778,noRew,,,0,1273.1546662200708,,,,,,,,,,,,,,,,,,,,,55611,2022-11-02_14h33.37.150,vts_reward_expectancy_bt_OFFLINE,2022.2.4,59.924121894600574,
,,,,,,,,,,,,,,,,,,,,,,,,,,,,,,,,,,,,,,,,,,4,0,4,0,,,,,,,,,,,,,,,,,,,,,,,,0,981,,,1279.408426660113,,,U,139,hexagon,0.0018423459259793162,,,,,,,,1,0,,,,,,,,,,,,1275.6500021721004,1275.6500021721004,1275.6500021721004,1275.6500021721004,1277.1389280210715,1277.1389280210715,1277.1389280210715,1277.1389280210715,1277.155644188053,1277.155644188053,1277.155644188053,1277.155644188053,repeat,number,numRpt,j,0.7479862780310214,noRew,,,0,1277.9079616600648,,,,,,,,,,,,,,,,,,,,,55611,2022-11-02_14h33.37.150,vts_reward_expectancy_bt_OFFLINE,2022.2.4,59.924121894600574,
,,,,,,,,,,,,,,,,,,,,,,,,,,,,,,,,,,,,,,,,,,5,0,5,0,,,,,,,,,,,,,,,,,,,,,,,,0,981,,,1284.2267090670066,,,S,167,triangle,0.0020056270295754075,,,,,,,,1,0,,,,,,,,,,,,1280.403857755009,1280.403857755009,1280.403857755009,1280.403857755009,1281.8928530249977,1281.8928530249977,1281.8928530249977,1281.8928530249977,1281.9091846511,1281.9091846511,1281.9091846511,1281.9091846511,repeat,number,numRpt,k,0.8028576609212905,noRew,,,0,1282.7279543920886,1284.2267090670066,,,,,,,,,,,,,,,,,,,,55611,2022-11-02_14h33.37.150,vts_reward_expectancy_bt_OFFLINE,2022.2.4,59.924121894600574,
,,,,,,,,,,,,,,,,,,,,,,,,,,,,,,,,,,,,,,,,,,6,0,6,0,,,,,,,,,,,,,,,,,,,,,,,,0,981,,,1289.3137148700189,,,F,160,star,0.001963190035894513,,,,,,,,1,0,,,,,,,,,,,,1285.2235812910367,1285.2235812910367,1285.2235812910367,1285.2235812910367,1286.7129562000046,1286.7129562000046,1286.7129562000046,1286.7129562000046,1286.7296748090303,1286.7296748090303,1286.7296748090303,1286.7296748090303,repeat,number,numRpt,k,1.0538267000811175,noRew,,,0,1287.7985781390453,,,,,,,,,,,,,,,,,,,,,55611,2022-11-02_14h33.37.150,vts_reward_expectancy_bt_OFFLINE,2022.2.4,59.924121894600574,
,,,,,,,,,,,,,,,,,,,,,,,,,,,,,,,,,,,,,,,,,,7,0,7,0,,,,,,,,,,,,,,,,,,,,,,,,0,981,,,1294.300660100067,,,Y,146,hexagon,0.0019725830061361194,,,,,,,,1,0,,,,,,,,,,,,1290.2940948120086,1290.2940948120086,1290.2940948120086,1290.2940948120086,1291.7831319851102,1291.7831319851102,1291.7831319851102,1291.7831319851102,1291.7999445860041,1291.7999445860041,1291.7999445860041,1291.7999445860041,repeat,number,numRpt,j,0.9839046039851382,noRew,,,0,1292.7861566460924,,,,,,,,,,,,,,,,,,,,,55611,2022-11-02_14h33.37.150,vts_reward_expectancy_bt_OFFLINE,2022.2.4,59.924121894600574,
,,,,,,,,,,,,,,,,,,,,,,,,,,,,,,,,,,,,,,,,,,8,0,8,0,,,,,,,,,,,,,,,,,,,,,,,,0,981,,,1299.2875195770757,,,F,146,triangle,0.0014376230537891388,,,,,,,,1,0,,,,,,,,,,,,1295.281298260088,1295.281298260088,1295.281298260088,1295.281298260088,1296.7702473381069,1296.7702473381069,1296.7702473381069,1296.7702473381069,1296.7869533520425,1296.7869533520425,1296.7869533520425,1296.7869533520425,switch,letter,lettSwt,d,0.973435788997449,noRew,,,0,1297.7726148040965,,,,,,,,,,,,,,,,,,,,,55611,2022-11-02_14h33.37.150,vts_reward_expectancy_bt_OFFLINE,2022.2.4,59.924121894600574,
,,,,,,,,,,,,,,,,,,,,,,,,,,,,,,,,,,,,,,,,,,9,0,9,0,,,,,,,,,,,,,,,,,,,,,,,,0,981,,,1304.124652594095,,,D,181,star,0.00202469399664551,,,,,,,,1,0,,,,,,,,,,,,1300.2682396681048,1300.2682396681048,1300.2682396681048,1300.2682396681048,1301.7568391010864,1301.7568391010864,1301.7568391010864,1301.7568391010864,1301.7737979840022,1301.7737979840022,1301.7737979840022,1301.7737979840022,switch,number,numSwt,k,0.8341808390105143,noRew,,,0,1302.609848551103,,,,,,,,,,,,,,,,,,,,,55611,2022-11-02_14h33.37.150,vts_reward_expectancy_bt_OFFLINE,2022.2.4,59.924121894600574,
,,,,,,,,,,,,,,,,,,,,,,,,,,,,,,,,,,,,,,,,,,10,0,10,0,,,,,,,,,,,,,,,,,,,,,,,,0,981,,,1308.744782295078,,,Y,139,triangle,0.001594153931364417,,,,,,,,1,0,,,,,,,,,,,,1305.1052924930118,1305.1052924930118,1305.1052924930118,1305.1052924930118,1306.594146358082,1306.594146358082,1306.594146358082,1306.594146358082,1306.6108900110703,1306.6108900110703,1306.6108900110703,1306.6108900110703,switch,letter,lettSwt,f,0.6052629729965702,noRew,,,0,1307.229638090008,,,,,,,,,,,,,,,,,,,,,55611,2022-11-02_14h33.37.150,vts_reward_expectancy_bt_OFFLINE,2022.2.4,59.924121894600574,
,,,,,,,,,,,,,,,,,,,,,,,,,,,,,,,,,,,,,,,,,,11,0,11,0,,,,,,,,,,,,,,,,,,,,,,,,0,981,,,1313.5649710830767,,,W,132,hexagon,0.016929523088037968,,,,,,,,1,0,,,,,,,,,,,,1309.740789378062,1309.740789378062,1309.740789378062,1309.740789378062,1311.2142382661114,1311.2142382661114,1311.2142382661114,1311.2142382661114,1311.2476398260333,1311.2476398260333,1311.2476398260333,1311.2476398260333,repeat,letter,lettRpt,f,0.816888774977997,noRew,,,0,1312.0501569850603,,,,,,,,,,,,,,,,,,,,,55611,2022-11-02_14h33.37.150,vts_reward_expectancy_bt_OFFLINE,2022.2.4,59.924121894600574,
