LTriangleOpac,LCircleOpac,LHexagonOpac,LStarOpac,RTriangleOpac,RCircleOpac,RHexagonOpac,RStarOpac,LShape_ID,RShape_ID,training_blocks.thisRepN,training_blocks.thisTrialN,training_blocks.thisN,training_blocks.thisIndex,training.thisRepN,training.thisTrialN,training.thisN,training.thisIndex,task1_prac_redo.thisRepN,task1_prac_redo.thisTrialN,task1_prac_redo.thisN,task1_prac_redo.thisIndex,task1_prac_trials.thisRepN,task1_prac_trials.thisTrialN,task1_prac_trials.thisN,task1_prac_trials.thisIndex,task2_prac_redo.thisRepN,task2_prac_redo.thisTrialN,task2_prac_redo.thisN,task2_prac_redo.thisIndex,task2_praac_trials.thisRepN,task2_praac_trials.thisTrialN,task2_praac_trials.thisN,task2_praac_trials.thisIndex,vts_prac_redo.thisRepN,vts_prac_redo.thisTrialN,vts_prac_redo.thisN,vts_prac_redo.thisIndex,vts_practice_trials.thisRepN,vts_practice_trials.thisTrialN,vts_practice_trials.thisN,vts_practice_trials.thisIndex,trials_norew.thisRepN,trials_norew.thisTrialN,trials_norew.thisN,trials_norew.thisIndex,block.thisRepN,block.thisTrialN,block.thisN,block.thisIndex,trials_rew.thisRepN,trials_rew.thisTrialN,trials_rew.thisN,trials_rew.thisIndex,key_resp.started,key_resp.keys,key_resp.rt,left_circle.started,right_circle.started,left_triangle.started,right_triangle.started,left_star.started,right_star.started,left_hexagon.started,right_hexagon.started,training_fix.started,training_resp.started,training_resp.keys,training_resp.rt,points_trial,points_cumul,trainBlock,training_feedback_txt.started,fix.started,training_feedback_txt.stopped,fix.stopped,curr_topStim,curr_bottStim,curr_shape,ISI.started,tgt_fix_prac1.started,top_target_prac1.started,bott_target_prac1.started,target_resp_prac1.started,acc,E1,target_resp_prac1.keys,target_resp_prac1.rt,pracBlock,prac_fback_text.started,prac_fback_text.stopped,tgt_fix_prac2.started,top_target_prac2.started,bott_target_prac2.started,target_resp_prac2.started,target_resp_prac2.keys,target_resp_prac2.rt,star.started,hegagon.started,triangle.started,circle.started,top_target.started,tgt_fix.started,bot_target.started,target_resp.started,star.stopped,hegagon.stopped,triangle.stopped,circle.stopped,alt,task,condition,target_resp.keys,target_resp.rt,rewCond,vts_fback.started,vts_fback.stopped,blockNum,norew_fback.started,norew_fback.stopped,key_resp_2.keys,key_resp_2.rt,rewExpectancy,feedbk_text.started,feedbk_text.stopped,text_3.started,debrief.started,text_3.stopped,button.started,debrief.index,debrief.itemText,debrief.type,debrief.granularity,debrief.font,debrief.markerColor,debrief.response,debrief.rt,button.numClicks,button.timesOn,button.timesOff,participant,date,expName,psychopyVersion,frameRate,
,,,,,,,,,,,,,,,,,,,,,,,,,,,,,,,,,,,,,,,,,,,,,,,,,,,,,,19.847062636865303,space,17.878195733064786,,,,,,,,,,,,,,,,,,,,,,,,,,,,,,,,,,,,,,,,,,,,,,,,,,,,,,,,,,,,,,,,,,,,,,,,,,,,,,,,,,,,58413,2022-11-17_13h58.43.079,vts_reward_expectancy_bt_OFFLINE,2022.2.4,59.86501480712133,
1,0,0,0,0,0,0,1,triangle,star,0,0,0,0,0,0,0,2,,,,,,,,,,,,,,,,,,,,,,,,,,,,,,,,,,,,,,,,72.06389738782309,72.06389738782309,72.06389738782309,72.06389738782309,72.06389738782309,72.06389738782309,72.06389738782309,72.06389738782309,72.06389738782309,72.06389738782309,l,2.788884272100404,10,10,0,74.87433777190745,76.38897657999769,,,,,,,,,,,,,,,,,,,,,,,,,,,,,,,,,,,,,,,,,,,,,,,,,,,,,,,,,,,,,,,,,,,58413,2022-11-17_13h58.43.079,vts_reward_expectancy_bt_OFFLINE,2022.2.4,59.86501480712133,
0,0,1,0,1,0,0,0,hexagon,triangle,0,0,0,0,0,1,1,6,,,,,,,,,,,,,,,,,,,,,,,,,,,,,,,,,,,,,,,,76.88930504699238,76.88930504699238,76.88930504699238,76.88930504699238,76.88930504699238,76.88930504699238,76.88930504699238,76.88930504699238,76.88930504699238,76.88930504699238,a,2.002198122208938,10,20,0,78.90853221993893,80.40895487880334,80.40895487880334,80.90909596998245,,,,,,,,,,,,,,,,,,,,,,,,,,,,,,,,,,,,,,,,,,,,,,,,,,,,,,,,,,,,,,,,,58413,2022-11-17_13h58.43.079,vts_reward_expectancy_bt_OFFLINE,2022.2.4,59.86501480712133,
1,0,0,0,0,1,0,0,triangle,circle,0,0,0,0,0,2,2,0,,,,,,,,,,,,,,,,,,,,,,,,,,,,,,,,,,,,,,,,80.90909596998245,80.90909596998245,80.90909596998245,80.90909596998245,80.90909596998245,80.90909596998245,80.90909596998245,80.90909596998245,80.90909596998245,80.90909596998245,a,1.7066492531448603,1,21,0,82.64570243493654,84.14560631196946,84.14560631196946,84.64571045082994,,,,,,,,,,,,,,,,,,,,,,,,,,,,,,,,,,,,,,,,,,,,,,,,,,,,,,,,,,,,,,,,,58413,2022-11-17_13h58.43.079,vts_reward_expectancy_bt_OFFLINE,2022.2.4,59.86501480712133,
0,0,1,0,0,0,0,1,hexagon,star,0,0,0,0,0,3,3,8,,,,,,,,,,,,,,,,,,,,,,,,,,,,,,,,,,,,,,,,84.64571045082994,84.64571045082994,84.64571045082994,84.64571045082994,84.64571045082994,84.64571045082994,84.64571045082994,84.64571045082994,84.64571045082994,84.64571045082994,l,0.7255315650254488,1,22,0,85.39591446099803,86.89654893986881,86.89654893986881,,,,,,,,,,,,,,,,,,,,,,,,,,,,,,,,,,,,,,,,,,,,,,,,,,,,,,,,,,,,,,,,,,58413,2022-11-17_13h58.43.079,vts_reward_expectancy_bt_OFFLINE,2022.2.4,59.86501480712133,
0,1,0,0,0,0,0,1,circle,star,0,0,0,0,0,4,4,5,,,,,,,,,,,,,,,,,,,,,,,,,,,,,,,,,,,,,,,,87.39843107596971,87.39843107596971,87.39843107596971,87.39843107596971,87.39843107596971,87.39843107596971,87.39843107596971,87.39843107596971,87.39843107596971,87.39843107596971,l,0.8197875230107456,10,32,0,88.24958174792118,89.74953081994317,89.74953081994317,90.24951558886096,,,,,,,,,,,,,,,,,,,,,,,,,,,,,,,,,,,,,,,,,,,,,,,,,,,,,,,,,,,,,,,,,58413,2022-11-17_13h58.43.079,vts_reward_expectancy_bt_OFFLINE,2022.2.4,59.86501480712133,
1,0,0,0,0,0,1,0,triangle,hexagon,0,0,0,0,0,5,5,1,,,,,,,,,,,,,,,,,,,,,,,,,,,,,,,,,,,,,,,,90.24951558886096,90.24951558886096,90.24951558886096,90.24951558886096,90.24951558886096,90.24951558886096,90.24951558886096,90.24951558886096,90.24951558886096,90.24951558886096,a,0.9043923560529947,10,42,0,91.18318216386251,92.68561199703254,,,,,,,,,,,,,,,,,,,,,,,,,,,,,,,,,,,,,,,,,,,,,,,,,,,,,,,,,,,,,,,,,,,58413,2022-11-17_13h58.43.079,vts_reward_expectancy_bt_OFFLINE,2022.2.4,59.86501480712133,
0,1,0,0,1,0,0,0,circle,triangle,0,0,0,0,0,6,6,3,,,,,,,,,,,,,,,,,,,,,,,,,,,,,,,,,,,,,,,,93.18581674690358,93.18581674690358,93.18581674690358,93.18581674690358,93.18581674690358,93.18581674690358,93.18581674690358,93.18581674690358,93.18581674690358,93.18581674690358,l,1.0620332560501993,1,43,0,94.27029527793638,95.77001858688891,95.77001858688891,96.27038907399401,,,,,,,,,,,,,,,,,,,,,,,,,,,,,,,,,,,,,,,,,,,,,,,,,,,,,,,,,,,,,,,,,58413,2022-11-17_13h58.43.079,vts_reward_expectancy_bt_OFFLINE,2022.2.4,59.86501480712133,
0,0,1,0,0,1,0,0,hexagon,circle,0,0,0,0,0,7,7,7,,,,,,,,,,,,,,,,,,,,,,,,,,,,,,,,,,,,,,,,96.27038907399401,96.27038907399401,96.27038907399401,96.27038907399401,96.27038907399401,96.27038907399401,96.27038907399401,96.27038907399401,96.27038907399401,96.27038907399401,l,1.8477765680290759,10,53,0,98.14001047797501,99.64002057584003,99.64002057584003,100.14019560092129,,,,,,,,,,,,,,,,,,,,,,,,,,,,,,,,,,,,,,,,,,,,,,,,,,,,,,,,,,,,,,,,,58413,2022-11-17_13h58.43.079,vts_reward_expectancy_bt_OFFLINE,2022.2.4,59.86501480712133,
0,1,0,0,0,0,1,0,circle,hexagon,0,0,0,0,0,8,8,4,,,,,,,,,,,,,,,,,,,,,,,,,,,,,,,,,,,,,,,,100.14019560092129,100.14019560092129,100.14019560092129,100.14019560092129,100.14019560092129,100.14019560092129,100.14019560092129,100.14019560092129,100.14019560092129,100.14019560092129,a,1.4774665280710906,1,54,0,101.64132421300747,103.14307957398705,,,,,,,,,,,,,,,,,,,,,,,,,,,,,,,,,,,,,,,,,,,,,,,,,,,,,,,,,,,,,,,,,,,58413,2022-11-17_13h58.43.079,vts_reward_expectancy_bt_OFFLINE,2022.2.4,59.86501480712133,
0,0,0,1,1,0,0,0,star,triangle,0,0,0,0,0,9,9,9,,,,,,,,,,,,,,,,,,,,,,,,,,,,,,,,,,,,,,,,103.64308385387994,103.64308385387994,103.64308385387994,103.64308385387994,103.64308385387994,103.64308385387994,103.64308385387994,103.64308385387994,103.64308385387994,103.64308385387994,a,0.9789257489610463,10,64,0,104.64451468898915,106.14426783192903,106.14426783192903,106.64452171884477,,,,,,,,,,,,,,,,,,,,,,,,,,,,,,,,,,,,,,,,,,,,,,,,,,,,,,,,,,,,,,,,,58413,2022-11-17_13h58.43.079,vts_reward_expectancy_bt_OFFLINE,2022.2.4,59.86501480712133,
0,0,0,1,0,0,1,0,star,hexagon,0,0,0,0,0,10,10,11,,,,,,,,,,,,,,,,,,,,,,,,,,,,,,,,,,,,,,,,106.64452171884477,106.64452171884477,106.64452171884477,106.64452171884477,106.64452171884477,106.64452171884477,106.64452171884477,106.64452171884477,106.64452171884477,106.64452171884477,a,0.7212888519279659,1,65,0,107.39736961200833,108.89723360002972,108.89723360002972,109.39732056786306,,,,,,,,,,,,,,,,,,,,,,,,,,,,,,,,,,,,,,,,,,,,,,,,,,,,,,,,,,,,,,,,,58413,2022-11-17_13h58.43.079,vts_reward_expectancy_bt_OFFLINE,2022.2.4,59.86501480712133,
0,0,0,1,0,1,0,0,star ,circle,0,0,0,0,0,11,11,10,,,,,,,,,,,,,,,,,,,,,,,,,,,,,,,,,,,,,,,,109.39732056786306,109.39732056786306,109.39732056786306,109.39732056786306,109.39732056786306,109.39732056786306,109.39732056786306,109.39732056786306,109.39732056786306,109.39732056786306,a,1.367009670007974,1,66,0,110.78102504881099,112.28356125182472,,,,,,,,,,,,,,,,,,,,,,,,,,,,,,,,,,,,,,,,,,,,,,,,,,,,,,,,,,,,,,,,,,,58413,2022-11-17_13h58.43.079,vts_reward_expectancy_bt_OFFLINE,2022.2.4,59.86501480712133,
0,0,0,1,0,1,0,0,star ,circle,0,0,0,0,1,0,12,10,,,,,,,,,,,,,,,,,,,,,,,,,,,,,,,,,,,,,,,,112.78349954495206,112.78349954495206,112.78349954495206,112.78349954495206,112.78349954495206,112.78349954495206,112.78349954495206,112.78349954495206,112.78349954495206,112.78349954495206,l,0.6128010752145201,1,67,0,113.4169871059712,114.9177297258284,114.9177297258284,115.4177200468257,,,,,,,,,,,,,,,,,,,,,,,,,,,,,,,,,,,,,,,,,,,,,,,,,,,,,,,,,,,,,,,,,58413,2022-11-17_13h58.43.079,vts_reward_expectancy_bt_OFFLINE,2022.2.4,59.86501480712133,
0,0,1,0,1,0,0,0,hexagon,triangle,0,0,0,0,1,1,13,6,,,,,,,,,,,,,,,,,,,,,,,,,,,,,,,,,,,,,,,,115.4177200468257,115.4177200468257,115.4177200468257,115.4177200468257,115.4177200468257,115.4177200468257,115.4177200468257,115.4177200468257,115.4177200468257,115.4177200468257,a,1.5459659101907164,1,68,0,116.98489578487352,118.48748994502239,,,,,,,,,,,,,,,,,,,,,,,,,,,,,,,,,,,,,,,,,,,,,,,,,,,,,,,,,,,,,,,,,,,58413,2022-11-17_13h58.43.079,vts_reward_expectancy_bt_OFFLINE,2022.2.4,59.86501480712133,
0,0,1,0,0,0,0,1,hexagon,star,0,0,0,0,1,2,14,8,,,,,,,,,,,,,,,,,,,,,,,,,,,,,,,,,,,,,,,,118.98761250800453,118.98761250800453,118.98761250800453,118.98761250800453,118.98761250800453,118.98761250800453,118.98761250800453,118.98761250800453,118.98761250800453,118.98761250800453,l,0.586065516108647,1,69,0,119.60442871483974,121.10509383492172,121.10509383492172,,,,,,,,,,,,,,,,,,,,,,,,,,,,,,,,,,,,,,,,,,,,,,,,,,,,,,,,,,,,,,,,,,58413,2022-11-17_13h58.43.079,vts_reward_expectancy_bt_OFFLINE,2022.2.4,59.86501480712133,
1,0,0,0,0,1,0,0,triangle,circle,0,0,0,0,1,3,15,0,,,,,,,,,,,,,,,,,,,,,,,,,,,,,,,,,,,,,,,,121.60540429293178,121.60540429293178,121.60540429293178,121.60540429293178,121.60540429293178,121.60540429293178,121.60540429293178,121.60540429293178,121.60540429293178,121.60540429293178,l,2.107605152996257,10,79,0,123.74208985990845,125.24164706189185,125.24164706189185,125.74201327096671,,,,,,,,,,,,,,,,,,,,,,,,,,,,,,,,,,,,,,,,,,,,,,,,,,,,,,,,,,,,,,,,,58413,2022-11-17_13h58.43.079,vts_reward_expectancy_bt_OFFLINE,2022.2.4,59.86501480712133,
0,0,0,1,1,0,0,0,star,triangle,0,0,0,0,1,4,16,9,,,,,,,,,,,,,,,,,,,,,,,,,,,,,,,,,,,,,,,,125.74201327096671,125.74201327096671,125.74201327096671,125.74201327096671,125.74201327096671,125.74201327096671,125.74201327096671,125.74201327096671,125.74201327096671,125.74201327096671,a,0.5707061551511288,1,80,0,126.34262263285927,127.84446282382123,,,,,,,,,,,,,,,,,,,,,,,,,,,,,,,,,,,,,,,,,,,,,,,,,,,,,,,,,,,,,,,,,,,58413,2022-11-17_13h58.43.079,vts_reward_expectancy_bt_OFFLINE,2022.2.4,59.86501480712133,
0,1,0,0,0,0,1,0,circle,hexagon,0,0,0,0,1,5,17,4,,,,,,,,,,,,,,,,,,,,,,,,,,,,,,,,,,,,,,,,128.34460099390708,128.34460099390708,128.34460099390708,128.34460099390708,128.34460099390708,128.34460099390708,128.34460099390708,128.34460099390708,128.34460099390708,128.34460099390708,l,0.8138351100496948,1,81,0,129.17842770391144,130.67851944081485,130.67851944081485,131.17876485688612,,,,,,,,,,,,,,,,,,,,,,,,,,,,,,,,,,,,,,,,,,,,,,,,,,,,,,,,,,,,,,,,,58413,2022-11-17_13h58.43.079,vts_reward_expectancy_bt_OFFLINE,2022.2.4,59.86501480712133,
0,1,0,0,1,0,0,0,circle,triangle,0,0,0,0,1,6,18,3,,,,,,,,,,,,,,,,,,,,,,,,,,,,,,,,,,,,,,,,131.17876485688612,131.17876485688612,131.17876485688612,131.17876485688612,131.17876485688612,131.17876485688612,131.17876485688612,131.17876485688612,131.17876485688612,131.17876485688612,a,1.175069672986865,10,91,0,132.38243311992846,133.88199318386614,133.88199318386614,134.3817606419325,,,,,,,,,,,,,,,,,,,,,,,,,,,,,,,,,,,,,,,,,,,,,,,,,,,,,,,,,,,,,,,,,58413,2022-11-17_13h58.43.079,vts_reward_expectancy_bt_OFFLINE,2022.2.4,59.86501480712133,
0,1,0,0,0,0,0,1,circle,star,0,0,0,0,1,7,19,5,,,,,,,,,,,,,,,,,,,,,,,,,,,,,,,,,,,,,,,,134.3817606419325,134.3817606419325,134.3817606419325,134.3817606419325,134.3817606419325,134.3817606419325,134.3817606419325,134.3817606419325,134.3817606419325,134.3817606419325,l,0.8405220862478018,10,101,0,135.24903307994828,136.74952341686003,136.74952341686003,137.2474600598216,,,,,,,,,,,,,,,,,,,,,,,,,,,,,,,,,,,,,,,,,,,,,,,,,,,,,,,,,,,,,,,,,58413,2022-11-17_13h58.43.079,vts_reward_expectancy_bt_OFFLINE,2022.2.4,59.86501480712133,
0,0,1,0,0,1,0,0,hexagon,circle,0,0,0,0,1,8,20,7,,,,,,,,,,,,,,,,,,,,,,,,,,,,,,,,,,,,,,,,137.2474600598216,137.2474600598216,137.2474600598216,137.2474600598216,137.2474600598216,137.2474600598216,137.2474600598216,137.2474600598216,137.2474600598216,137.2474600598216,l,2.00366870011203,1,102,0,139.2699561708141,140.76921228389256,140.76921228389256,141.2697152728215,,,,,,,,,,,,,,,,,,,,,,,,,,,,,,,,,,,,,,,,,,,,,,,,,,,,,,,,,,,,,,,,,58413,2022-11-17_13h58.43.079,vts_reward_expectancy_bt_OFFLINE,2022.2.4,59.86501480712133,
1,0,0,0,0,0,1,0,triangle,hexagon,0,0,0,0,1,9,21,1,,,,,,,,,,,,,,,,,,,,,,,,,,,,,,,,,,,,,,,,141.2697152728215,141.2697152728215,141.2697152728215,141.2697152728215,141.2697152728215,141.2697152728215,141.2697152728215,141.2697152728215,141.2697152728215,141.2697152728215,l,1.2322921650484204,1,103,0,142.52198502491228,144.02260605385527,144.02260605385527,,,,,,,,,,,,,,,,,,,,,,,,,,,,,,,,,,,,,,,,,,,,,,,,,,,,,,,,,,,,,,,,,,58413,2022-11-17_13h58.43.079,vts_reward_expectancy_bt_OFFLINE,2022.2.4,59.86501480712133,
1,0,0,0,0,0,0,1,triangle,star,0,0,0,0,1,10,22,2,,,,,,,,,,,,,,,,,,,,,,,,,,,,,,,,,,,,,,,,144.52271400182508,144.52271400182508,144.52271400182508,144.52271400182508,144.52271400182508,144.52271400182508,144.52271400182508,144.52271400182508,144.52271400182508,144.52271400182508,l,1.2861110931262374,1,104,0,145.83944402099587,147.3421213380061,,,,,,,,,,,,,,,,,,,,,,,,,,,,,,,,,,,,,,,,,,,,,,,,,,,,,,,,,,,,,,,,,,,58413,2022-11-17_13h58.43.079,vts_reward_expectancy_bt_OFFLINE,2022.2.4,59.86501480712133,
0,0,0,1,0,0,1,0,star,hexagon,0,0,0,0,1,11,23,11,,,,,,,,,,,,,,,,,,,,,,,,,,,,,,,,,,,,,,,,147.84236632380635,147.84236632380635,147.84236632380635,147.84236632380635,147.84236632380635,147.84236632380635,147.84236632380635,147.84236632380635,147.84236632380635,147.84236632380635,l,2.3098384141921997,1,105,0,150.17648618784733,151.6770921438001,151.6770921438001,152.17735526594333,,,,,,,,,,,,,,,,,,,,,,,,,,,,,,,,,,,,,,,,,,,,,,,,,,,,,,,,,,,,,,,,,58413,2022-11-17_13h58.43.079,vts_reward_expectancy_bt_OFFLINE,2022.2.4,59.86501480712133,
1,0,0,0,0,1,0,0,triangle,circle,0,0,0,0,2,0,24,0,,,,,,,,,,,,,,,,,,,,,,,,,,,,,,,,,,,,,,,,152.17735526594333,152.17735526594333,152.17735526594333,152.17735526594333,152.17735526594333,152.17735526594333,152.17735526594333,152.17735526594333,152.17735526594333,152.17735526594333,a,1.0458307371009141,10,115,0,153.24696642998606,154.74658348388039,154.74658348388039,155.24666015501134,,,,,,,,,,,,,,,,,,,,,,,,,,,,,,,,,,,,,,,,,,,,,,,,,,,,,,,,,,,,,,,,,58413,2022-11-17_13h58.43.079,vts_reward_expectancy_bt_OFFLINE,2022.2.4,59.86501480712133,
1,0,0,0,0,0,0,1,triangle,star,0,0,0,0,2,1,25,2,,,,,,,,,,,,,,,,,,,,,,,,,,,,,,,,,,,,,,,,155.24666015501134,155.24666015501134,155.24666015501134,155.24666015501134,155.24666015501134,155.24666015501134,155.24666015501134,155.24666015501134,155.24666015501134,155.24666015501134,a,1.8240978568792343,10,125,0,157.09743969491683,158.59965896001086,,,,,,,,,,,,,,,,,,,,,,,,,,,,,,,,,,,,,,,,,,,,,,,,,,,,,,,,,,,,,,,,,,,58413,2022-11-17_13h58.43.079,vts_reward_expectancy_bt_OFFLINE,2022.2.4,59.86501480712133,
0,0,0,1,1,0,0,0,star,triangle,0,0,0,0,2,2,26,9,,,,,,,,,,,,,,,,,,,,,,,,,,,,,,,,,,,,,,,,159.0997887328267,159.0997887328267,159.0997887328267,159.0997887328267,159.0997887328267,159.0997887328267,159.0997887328267,159.0997887328267,159.0997887328267,159.0997887328267,a,1.3135161800310016,1,126,0,160.4346658019349,161.93443497503176,161.93443497503176,,,,,,,,,,,,,,,,,,,,,,,,,,,,,,,,,,,,,,,,,,,,,,,,,,,,,,,,,,,,,,,,,,58413,2022-11-17_13h58.43.079,vts_reward_expectancy_bt_OFFLINE,2022.2.4,59.86501480712133,
0,1,0,0,0,0,0,1,circle,star,0,0,0,0,2,3,27,5,,,,,,,,,,,,,,,,,,,,,,,,,,,,,,,,,,,,,,,,162.43660817295313,162.43660817295313,162.43660817295313,162.43660817295313,162.43660817295313,162.43660817295313,162.43660817295313,162.43660817295313,162.43660817295313,162.43660817295313,l,0.8669104781001806,1,127,0,163.32000333280303,164.82059908192605,164.82059908192605,165.3208507609088,,,,,,,,,,,,,,,,,,,,,,,,,,,,,,,,,,,,,,,,,,,,,,,,,,,,,,,,,,,,,,,,,58413,2022-11-17_13h58.43.079,vts_reward_expectancy_bt_OFFLINE,2022.2.4,59.86501480712133,
0,0,0,1,0,1,0,0,star ,circle,0,0,0,0,2,4,28,10,,,,,,,,,,,,,,,,,,,,,,,,,,,,,,,,,,,,,,,,165.3208507609088,165.3208507609088,165.3208507609088,165.3208507609088,165.3208507609088,165.3208507609088,165.3208507609088,165.3208507609088,165.3208507609088,165.3208507609088,a,0.6716298658866435,1,128,0,166.02077974192798,167.52350514684804,,,,,,,,,,,,,,,,,,,,,,,,,,,,,,,,,,,,,,,,,,,,,,,,,,,,,,,,,,,,,,,,,,,58413,2022-11-17_13h58.43.079,vts_reward_expectancy_bt_OFFLINE,2022.2.4,59.86501480712133,
0,0,0,1,0,0,1,0,star,hexagon,0,0,0,0,2,5,29,11,,,,,,,,,,,,,,,,,,,,,,,,,,,,,,,,,,,,,,,,168.02360082091764,168.02360082091764,168.02360082091764,168.02360082091764,168.02360082091764,168.02360082091764,168.02360082091764,168.02360082091764,168.02360082091764,168.02360082091764,a,0.8837311509996653,1,129,0,168.92403013585135,170.42447431897745,170.42447431897745,170.92457455396652,,,,,,,,,,,,,,,,,,,,,,,,,,,,,,,,,,,,,,,,,,,,,,,,,,,,,,,,,,,,,,,,,58413,2022-11-17_13h58.43.079,vts_reward_expectancy_bt_OFFLINE,2022.2.4,59.86501480712133,
0,0,1,0,1,0,0,0,hexagon,triangle,0,0,0,0,2,6,30,6,,,,,,,,,,,,,,,,,,,,,,,,,,,,,,,,,,,,,,,,170.92457455396652,170.92457455396652,170.92457455396652,170.92457455396652,170.92457455396652,170.92457455396652,170.92457455396652,170.92457455396652,170.92457455396652,170.92457455396652,a,1.0199642581865191,1,130,0,171.97505138395354,173.47743809199892,,,,,,,,,,,,,,,,,,,,,,,,,,,,,,,,,,,,,,,,,,,,,,,,,,,,,,,,,,,,,,,,,,,58413,2022-11-17_13h58.43.079,vts_reward_expectancy_bt_OFFLINE,2022.2.4,59.86501480712133,
1,0,0,0,0,0,1,0,triangle,hexagon,0,0,0,0,2,7,31,1,,,,,,,,,,,,,,,,,,,,,,,,,,,,,,,,,,,,,,,,173.97766174888238,173.97766174888238,173.97766174888238,173.97766174888238,173.97766174888238,173.97766174888238,173.97766174888238,173.97766174888238,173.97766174888238,173.97766174888238,l,0.9028589338995516,1,131,0,174.9112377059646,176.4118714039214,176.4118714039214,176.91207977896556,,,,,,,,,,,,,,,,,,,,,,,,,,,,,,,,,,,,,,,,,,,,,,,,,,,,,,,,,,,,,,,,,58413,2022-11-17_13h58.43.079,vts_reward_expectancy_bt_OFFLINE,2022.2.4,59.86501480712133,
0,1,0,0,0,0,1,0,circle,hexagon,0,0,0,0,2,8,32,4,,,,,,,,,,,,,,,,,,,,,,,,,,,,,,,,,,,,,,,,176.91207977896556,176.91207977896556,176.91207977896556,176.91207977896556,176.91207977896556,176.91207977896556,176.91207977896556,176.91207977896556,176.91207977896556,176.91207977896556,l,1.0855524591170251,1,132,0,178.01432470884174,179.5147121178452,179.5147121178452,180.01490715681575,,,,,,,,,,,,,,,,,,,,,,,,,,,,,,,,,,,,,,,,,,,,,,,,,,,,,,,,,,,,,,,,,58413,2022-11-17_13h58.43.079,vts_reward_expectancy_bt_OFFLINE,2022.2.4,59.86501480712133,
0,0,1,0,0,0,0,1,hexagon,star,0,0,0,0,2,9,33,8,,,,,,,,,,,,,,,,,,,,,,,,,,,,,,,,,,,,,,,,180.01490715681575,180.01490715681575,180.01490715681575,180.01490715681575,180.01490715681575,180.01490715681575,180.01490715681575,180.01490715681575,180.01490715681575,180.01490715681575,l,0.6257521491497755,1,133,0,180.66510122199543,182.1658210880123,182.1658210880123,,,,,,,,,,,,,,,,,,,,,,,,,,,,,,,,,,,,,,,,,,,,,,,,,,,,,,,,,,,,,,,,,,58413,2022-11-17_13h58.43.079,vts_reward_expectancy_bt_OFFLINE,2022.2.4,59.86501480712133,
0,0,1,0,0,1,0,0,hexagon,circle,0,0,0,0,2,10,34,7,,,,,,,,,,,,,,,,,,,,,,,,,,,,,,,,,,,,,,,,182.66763686784543,182.66763686784543,182.66763686784543,182.66763686784543,182.66763686784543,182.66763686784543,182.66763686784543,182.66763686784543,182.66763686784543,182.66763686784543,l,1.1462456709705293,10,143,0,183.8356031018775,185.3355190840084,185.3355190840084,185.83571748482063,,,,,,,,,,,,,,,,,,,,,,,,,,,,,,,,,,,,,,,,,,,,,,,,,,,,,,,,,,,,,,,,,58413,2022-11-17_13h58.43.079,vts_reward_expectancy_bt_OFFLINE,2022.2.4,59.86501480712133,
0,1,0,0,1,0,0,0,circle,triangle,0,0,0,0,2,11,35,3,,,,,,,,,,,,,,,,,,,,,,,,,,,,,,,,,,,,,,,,185.83571748482063,185.83571748482063,185.83571748482063,185.83571748482063,185.83571748482063,185.83571748482063,185.83571748482063,185.83571748482063,185.83571748482063,185.83571748482063,l,1.3429592931643128,10,153,0,187.20264693489298,188.70517103001475,,,,,,,,,,,,,,,,,,,,,,,,,,,,,,,,,,,,,,,,,,,,,,,,,,,,,,,,,,,,,,,,,,,58413,2022-11-17_13h58.43.079,vts_reward_expectancy_bt_OFFLINE,2022.2.4,59.86501480712133,
0,0,0,1,0,0,1,0,star,hexagon,0,0,0,0,3,0,36,11,,,,,,,,,,,,,,,,,,,,,,,,,,,,,,,,,,,,,,,,189.205538112903,189.205538112903,189.205538112903,189.205538112903,189.205538112903,189.205538112903,189.205538112903,189.205538112903,189.205538112903,189.205538112903,a,0.695521725108847,1,154,0,189.9233342478983,191.42285057995468,191.42285057995468,191.92286356189288,,,,,,,,,,,,,,,,,,,,,,,,,,,,,,,,,,,,,,,,,,,,,,,,,,,,,,,,,,,,,,,,,58413,2022-11-17_13h58.43.079,vts_reward_expectancy_bt_OFFLINE,2022.2.4,59.86501480712133,
0,0,0,1,0,1,0,0,star ,circle,0,0,0,0,3,1,37,10,,,,,,,,,,,,,,,,,,,,,,,,,,,,,,,,,,,,,,,,191.92286356189288,191.92286356189288,191.92286356189288,191.92286356189288,191.92286356189288,191.92286356189288,191.92286356189288,191.92286356189288,191.92286356189288,191.92286356189288,a,0.5656971051357687,1,155,0,192.50818432983942,194.00903664482757,194.00903664482757,194.50908095296472,,,,,,,,,,,,,,,,,,,,,,,,,,,,,,,,,,,,,,,,,,,,,,,,,,,,,,,,,,,,,,,,,58413,2022-11-17_13h58.43.079,vts_reward_expectancy_bt_OFFLINE,2022.2.4,59.86501480712133,
0,1,0,0,0,0,0,1,circle,star,0,0,0,0,3,2,38,5,,,,,,,,,,,,,,,,,,,,,,,,,,,,,,,,,,,,,,,,194.50908095296472,194.50908095296472,194.50908095296472,194.50908095296472,194.50908095296472,194.50908095296472,194.50908095296472,194.50908095296472,194.50908095296472,194.50908095296472,l,0.6234145541675389,1,156,0,195.15913362894207,196.65986406290904,196.65986406290904,197.15997268096544,,,,,,,,,,,,,,,,,,,,,,,,,,,,,,,,,,,,,,,,,,,,,,,,,,,,,,,,,,,,,,,,,58413,2022-11-17_13h58.43.079,vts_reward_expectancy_bt_OFFLINE,2022.2.4,59.86501480712133,
0,0,0,1,1,0,0,0,star,triangle,0,0,0,0,3,3,39,9,,,,,,,,,,,,,,,,,,,,,,,,,,,,,,,,,,,,,,,,197.15997268096544,197.15997268096544,197.15997268096544,197.15997268096544,197.15997268096544,197.15997268096544,197.15997268096544,197.15997268096544,197.15997268096544,197.15997268096544,a,0.6277737950440496,10,166,0,197.8134978369344,199.31258705398068,199.31258705398068,199.81303422385827,,,,,,,,,,,,,,,,,,,,,,,,,,,,,,,,,,,,,,,,,,,,,,,,,,,,,,,,,,,,,,,,,58413,2022-11-17_13h58.43.079,vts_reward_expectancy_bt_OFFLINE,2022.2.4,59.86501480712133,
1,0,0,0,0,0,0,1,triangle,star,0,0,0,0,3,4,40,2,,,,,,,,,,,,,,,,,,,,,,,,,,,,,,,,,,,,,,,,199.81303422385827,199.81303422385827,199.81303422385827,199.81303422385827,199.81303422385827,199.81303422385827,199.81303422385827,199.81303422385827,199.81303422385827,199.81303422385827,l,0.6179236772004515,1,167,0,200.4629748389125,201.96350397588685,201.96350397588685,,,,,,,,,,,,,,,,,,,,,,,,,,,,,,,,,,,,,,,,,,,,,,,,,,,,,,,,,,,,,,,,,,58413,2022-11-17_13h58.43.079,vts_reward_expectancy_bt_OFFLINE,2022.2.4,59.86501480712133,
1,0,0,0,0,0,1,0,triangle,hexagon,0,0,0,0,3,5,41,1,,,,,,,,,,,,,,,,,,,,,,,,,,,,,,,,,,,,,,,,202.46550077293068,202.46550077293068,202.46550077293068,202.46550077293068,202.46550077293068,202.46550077293068,202.46550077293068,202.46550077293068,202.46550077293068,202.46550077293068,a,1.250790426041931,10,177,0,203.7493024119176,205.24971618899144,205.24971618899144,205.7500726408325,,,,,,,,,,,,,,,,,,,,,,,,,,,,,,,,,,,,,,,,,,,,,,,,,,,,,,,,,,,,,,,,,58413,2022-11-17_13h58.43.079,vts_reward_expectancy_bt_OFFLINE,2022.2.4,59.86501480712133,
0,0,1,0,0,1,0,0,hexagon,circle,0,0,0,0,3,6,42,7,,,,,,,,,,,,,,,,,,,,,,,,,,,,,,,,,,,,,,,,205.7500726408325,205.7500726408325,205.7500726408325,205.7500726408325,205.7500726408325,205.7500726408325,205.7500726408325,205.7500726408325,205.7500726408325,205.7500726408325,l,1.8694731281138957,10,187,0,207.635714934906,209.1363000930287,209.1363000930287,209.63659448199905,,,,,,,,,,,,,,,,,,,,,,,,,,,,,,,,,,,,,,,,,,,,,,,,,,,,,,,,,,,,,,,,,58413,2022-11-17_13h58.43.079,vts_reward_expectancy_bt_OFFLINE,2022.2.4,59.86501480712133,
0,0,1,0,0,0,0,1,hexagon,star,0,0,0,0,3,7,43,8,,,,,,,,,,,,,,,,,,,,,,,,,,,,,,,,,,,,,,,,209.63659448199905,209.63659448199905,209.63659448199905,209.63659448199905,209.63659448199905,209.63659448199905,209.63659448199905,209.63659448199905,209.63659448199905,209.63659448199905,a,1.077182981185615,1,188,0,210.7379178549163,212.23749200394377,212.23749200394377,,,,,,,,,,,,,,,,,,,,,,,,,,,,,,,,,,,,,,,,,,,,,,,,,,,,,,,,,,,,,,,,,,58413,2022-11-17_13h58.43.079,vts_reward_expectancy_bt_OFFLINE,2022.2.4,59.86501480712133,
0,1,0,0,0,0,1,0,circle,hexagon,0,0,0,0,3,8,44,4,,,,,,,,,,,,,,,,,,,,,,,,,,,,,,,,,,,,,,,,212.73946311883628,212.73946311883628,212.73946311883628,212.73946311883628,212.73946311883628,212.73946311883628,212.73946311883628,212.73946311883628,212.73946311883628,212.73946311883628,l,0.9553565089590847,1,189,0,213.7234265478328,215.22369902092032,215.22369902092032,215.72416848200373,,,,,,,,,,,,,,,,,,,,,,,,,,,,,,,,,,,,,,,,,,,,,,,,,,,,,,,,,,,,,,,,,58413,2022-11-17_13h58.43.079,vts_reward_expectancy_bt_OFFLINE,2022.2.4,59.86501480712133,
1,0,0,0,0,1,0,0,triangle,circle,0,0,0,0,3,9,45,0,,,,,,,,,,,,,,,,,,,,,,,,,,,,,,,,,,,,,,,,215.72416848200373,215.72416848200373,215.72416848200373,215.72416848200373,215.72416848200373,215.72416848200373,215.72416848200373,215.72416848200373,215.72416848200373,215.72416848200373,l,1.7396326849702746,1,190,0,217.49310049181804,218.99352053995244,218.99352053995244,219.4938524758909,,,,,,,,,,,,,,,,,,,,,,,,,,,,,,,,,,,,,,,,,,,,,,,,,,,,,,,,,,,,,,,,,58413,2022-11-17_13h58.43.079,vts_reward_expectancy_bt_OFFLINE,2022.2.4,59.86501480712133,
0,1,0,0,1,0,0,0,circle,triangle,0,0,0,0,3,10,46,3,,,,,,,,,,,,,,,,,,,,,,,,,,,,,,,,,,,,,,,,219.4938524758909,219.4938524758909,219.4938524758909,219.4938524758909,219.4938524758909,219.4938524758909,219.4938524758909,219.4938524758909,219.4938524758909,219.4938524758909,a,1.6942135898862034,10,200,0,221.2124423258938,222.71355057088658,,,,,,,,,,,,,,,,,,,,,,,,,,,,,,,,,,,,,,,,,,,,,,,,,,,,,,,,,,,,,,,,,,,58413,2022-11-17_13h58.43.079,vts_reward_expectancy_bt_OFFLINE,2022.2.4,59.86501480712133,
0,0,1,0,1,0,0,0,hexagon,triangle,0,0,0,0,3,11,47,6,,,,,,,,,,,,,,,,,,,,,,,,,,,,,,,,,,,,,,,,223.21372594195418,223.21372594195418,223.21372594195418,223.21372594195418,223.21372594195418,223.21372594195418,223.21372594195418,223.21372594195418,223.21372594195418,223.21372594195418,l,1.7762966710142791,10,210,0,225.0142136439681,226.5148856798187,226.5148856798187,,,,,,,,,,,,,,,,,,,,,,,,,,,,,,,,,,,,,,,,,,,,,,,,,,,,,,,,,,,,,,,,,,58413,2022-11-17_13h58.43.079,vts_reward_expectancy_bt_OFFLINE,2022.2.4,59.86501480712133,
1,0,0,0,0,1,0,0,triangle,circle,1,0,1,0,0,0,0,0,,,,,,,,,,,,,,,,,,,,,,,,,,,,,,,,,,,,,,,,232.1966679948382,232.1966679948382,232.1966679948382,232.1966679948382,232.1966679948382,232.1966679948382,232.1966679948382,232.1966679948382,232.1966679948382,232.1966679948382,l,1.827961988048628,10,220,1,234.0546395520214,235.55497564584948,235.55497564584948,236.05510116997175,,,,,,,,,,,,,,,,,,,,,,,,,,,,,,,,,,,,,,,,,,,,,,,,,,,,,,,,,,,,,,,,,58413,2022-11-17_13h58.43.079,vts_reward_expectancy_bt_OFFLINE,2022.2.4,59.86501480712133,
0,1,0,0,0,0,0,1,circle,star,1,0,1,0,0,1,1,5,,,,,,,,,,,,,,,,,,,,,,,,,,,,,,,,,,,,,,,,236.05510116997175,236.05510116997175,236.05510116997175,236.05510116997175,236.05510116997175,236.05510116997175,236.05510116997175,236.05510116997175,236.05510116997175,236.05510116997175,l,2.0197323681786656,1,221,1,238.1077157438267,239.60844130790792,239.60844130790792,240.10840643080883,,,,,,,,,,,,,,,,,,,,,,,,,,,,,,,,,,,,,,,,,,,,,,,,,,,,,,,,,,,,,,,,,58413,2022-11-17_13h58.43.079,vts_reward_expectancy_bt_OFFLINE,2022.2.4,59.86501480712133,
1,0,0,0,0,0,1,0,triangle,hexagon,1,0,1,0,0,2,2,1,,,,,,,,,,,,,,,,,,,,,,,,,,,,,,,,,,,,,,,,240.10840643080883,240.10840643080883,240.10840643080883,240.10840643080883,240.10840643080883,240.10840643080883,240.10840643080883,240.10840643080883,240.10840643080883,240.10840643080883,a,0.9027095560450107,10,231,1,241.04208792187274,242.54479750199243,,,,,,,,,,,,,,,,,,,,,,,,,,,,,,,,,,,,,,,,,,,,,,,,,,,,,,,,,,,,,,,,,,,58413,2022-11-17_13h58.43.079,vts_reward_expectancy_bt_OFFLINE,2022.2.4,59.86501480712133,
0,0,1,0,1,0,0,0,hexagon,triangle,1,0,1,0,0,3,3,6,,,,,,,,,,,,,,,,,,,,,,,,,,,,,,,,,,,,,,,,243.0449986779131,243.0449986779131,243.0449986779131,243.0449986779131,243.0449986779131,243.0449986779131,243.0449986779131,243.0449986779131,243.0449986779131,243.0449986779131,l,0.9699001889675856,10,241,1,244.045395698864,245.54559800494462,245.54559800494462,246.04593878402375,,,,,,,,,,,,,,,,,,,,,,,,,,,,,,,,,,,,,,,,,,,,,,,,,,,,,,,,,,,,,,,,,58413,2022-11-17_13h58.43.079,vts_reward_expectancy_bt_OFFLINE,2022.2.4,59.86501480712133,
0,1,0,0,0,0,1,0,circle,hexagon,1,0,1,0,0,4,4,4,,,,,,,,,,,,,,,,,,,,,,,,,,,,,,,,,,,,,,,,246.04593878402375,246.04593878402375,246.04593878402375,246.04593878402375,246.04593878402375,246.04593878402375,246.04593878402375,246.04593878402375,246.04593878402375,246.04593878402375,a,0.692327467026189,10,251,1,246.76287586591206,248.2652765759267,,,,,,,,,,,,,,,,,,,,,,,,,,,,,,,,,,,,,,,,,,,,,,,,,,,,,,,,,,,,,,,,,,,58413,2022-11-17_13h58.43.079,vts_reward_expectancy_bt_OFFLINE,2022.2.4,59.86501480712133,
0,0,1,0,0,1,0,0,hexagon,circle,1,0,1,0,0,5,5,7,,,,,,,,,,,,,,,,,,,,,,,,,,,,,,,,,,,,,,,,248.76513250288554,248.76513250288554,248.76513250288554,248.76513250288554,248.76513250288554,248.76513250288554,248.76513250288554,248.76513250288554,248.76513250288554,248.76513250288554,l,0.8532428571488708,10,261,1,249.64913050201721,251.14970760280266,251.14970760280266,251.64973338902928,,,,,,,,,,,,,,,,,,,,,,,,,,,,,,,,,,,,,,,,,,,,,,,,,,,,,,,,,,,,,,,,,58413,2022-11-17_13h58.43.079,vts_reward_expectancy_bt_OFFLINE,2022.2.4,59.86501480712133,
0,0,1,0,0,0,0,1,hexagon,star,1,0,1,0,0,6,6,8,,,,,,,,,,,,,,,,,,,,,,,,,,,,,,,,,,,,,,,,251.64973338902928,251.64973338902928,251.64973338902928,251.64973338902928,251.64973338902928,251.64973338902928,251.64973338902928,251.64973338902928,251.64973338902928,251.64973338902928,a,1.3208561590872705,1,262,1,253.00228661787696,254.5027327388525,254.5027327388525,255.00274616084062,,,,,,,,,,,,,,,,,,,,,,,,,,,,,,,,,,,,,,,,,,,,,,,,,,,,,,,,,,,,,,,,,58413,2022-11-17_13h58.43.079,vts_reward_expectancy_bt_OFFLINE,2022.2.4,59.86501480712133,
0,0,0,1,0,1,0,0,star ,circle,1,0,1,0,0,7,7,10,,,,,,,,,,,,,,,,,,,,,,,,,,,,,,,,,,,,,,,,255.00274616084062,255.00274616084062,255.00274616084062,255.00274616084062,255.00274616084062,255.00274616084062,255.00274616084062,255.00274616084062,255.00274616084062,255.00274616084062,l,1.01718191918917,10,272,1,256.03821191191673,257.53888855781406,,,,,,,,,,,,,,,,,,,,,,,,,,,,,,,,,,,,,,,,,,,,,,,,,,,,,,,,,,,,,,,,,,,58413,2022-11-17_13h58.43.079,vts_reward_expectancy_bt_OFFLINE,2022.2.4,59.86501480712133,
0,1,0,0,1,0,0,0,circle,triangle,1,0,1,0,0,8,8,3,,,,,,,,,,,,,,,,,,,,,,,,,,,,,,,,,,,,,,,,258.0390989209991,258.0390989209991,258.0390989209991,258.0390989209991,258.0390989209991,258.0390989209991,258.0390989209991,258.0390989209991,258.0390989209991,258.0390989209991,a,0.81542176194489,10,282,1,258.8726882520132,260.3730415008031,260.3730415008031,260.8733342299238,,,,,,,,,,,,,,,,,,,,,,,,,,,,,,,,,,,,,,,,,,,,,,,,,,,,,,,,,,,,,,,,,58413,2022-11-17_13h58.43.079,vts_reward_expectancy_bt_OFFLINE,2022.2.4,59.86501480712133,
0,0,0,1,1,0,0,0,star,triangle,1,0,1,0,0,9,9,9,,,,,,,,,,,,,,,,,,,,,,,,,,,,,,,,,,,,,,,,260.8733342299238,260.8733342299238,260.8733342299238,260.8733342299238,260.8733342299238,260.8733342299238,260.8733342299238,260.8733342299238,260.8733342299238,260.8733342299238,l,1.0863885479047894,10,292,1,261.99023069883697,263.49282741197385,,,,,,,,,,,,,,,,,,,,,,,,,,,,,,,,,,,,,,,,,,,,,,,,,,,,,,,,,,,,,,,,,,,58413,2022-11-17_13h58.43.079,vts_reward_expectancy_bt_OFFLINE,2022.2.4,59.86501480712133,
0,0,0,1,0,0,1,0,star,hexagon,1,0,1,0,0,10,10,11,,,,,,,,,,,,,,,,,,,,,,,,,,,,,,,,,,,,,,,,263.9932023859583,263.9932023859583,263.9932023859583,263.9932023859583,263.9932023859583,263.9932023859583,263.9932023859583,263.9932023859583,263.9932023859583,263.9932023859583,l,1.2639393522404134,10,302,1,265.2769774799235,266.77741542388685,266.77741542388685,267.2775815518107,,,,,,,,,,,,,,,,,,,,,,,,,,,,,,,,,,,,,,,,,,,,,,,,,,,,,,,,,,,,,,,,,58413,2022-11-17_13h58.43.079,vts_reward_expectancy_bt_OFFLINE,2022.2.4,59.86501480712133,
1,0,0,0,0,0,0,1,triangle,star,1,0,1,0,0,11,11,2,,,,,,,,,,,,,,,,,,,,,,,,,,,,,,,,,,,,,,,,267.2775815518107,267.2775815518107,267.2775815518107,267.2775815518107,267.2775815518107,267.2775815518107,267.2775815518107,267.2775815518107,267.2775815518107,267.2775815518107,a,0.8032200441230088,10,312,1,268.1130856368691,269.6136046028696,269.6136046028696,270.113743647933,,,,,,,,,,,,,,,,,,,,,,,,,,,,,,,,,,,,,,,,,,,,,,,,,,,,,,,,,,,,,,,,,58413,2022-11-17_13h58.43.079,vts_reward_expectancy_bt_OFFLINE,2022.2.4,59.86501480712133,
0,0,1,0,0,1,0,0,hexagon,circle,1,0,1,0,1,0,12,7,,,,,,,,,,,,,,,,,,,,,,,,,,,,,,,,,,,,,,,,270.113743647933,270.113743647933,270.113743647933,270.113743647933,270.113743647933,270.113743647933,270.113743647933,270.113743647933,270.113743647933,270.113743647933,l,0.9813363491557539,10,322,1,271.1140483948402,272.6163421818055,,,,,,,,,,,,,,,,,,,,,,,,,,,,,,,,,,,,,,,,,,,,,,,,,,,,,,,,,,,,,,,,,,,58413,2022-11-17_13h58.43.079,vts_reward_expectancy_bt_OFFLINE,2022.2.4,59.86501480712133,
1,0,0,0,0,0,1,0,triangle,hexagon,1,0,1,0,1,1,13,1,,,,,,,,,,,,,,,,,,,,,,,,,,,,,,,,,,,,,,,,273.1168991778977,273.1168991778977,273.1168991778977,273.1168991778977,273.1168991778977,273.1168991778977,273.1168991778977,273.1168991778977,273.1168991778977,273.1168991778977,a,0.9369892841205001,10,332,1,274.08366966084577,275.5841736688744,275.5841736688744,,,,,,,,,,,,,,,,,,,,,,,,,,,,,,,,,,,,,,,,,,,,,,,,,,,,,,,,,,,,,,,,,,58413,2022-11-17_13h58.43.079,vts_reward_expectancy_bt_OFFLINE,2022.2.4,59.86501480712133,
0,0,0,1,0,0,1,0,star,hexagon,1,0,1,0,1,2,14,11,,,,,,,,,,,,,,,,,,,,,,,,,,,,,,,,,,,,,,,,276.0843786459882,276.0843786459882,276.0843786459882,276.0843786459882,276.0843786459882,276.0843786459882,276.0843786459882,276.0843786459882,276.0843786459882,276.0843786459882,l,0.8617140068672597,1,333,1,276.969363985816,278.4705696150195,,,,,,,,,,,,,,,,,,,,,,,,,,,,,,,,,,,,,,,,,,,,,,,,,,,,,,,,,,,,,,,,,,,58413,2022-11-17_13h58.43.079,vts_reward_expectancy_bt_OFFLINE,2022.2.4,59.86501480712133,
0,0,0,1,0,1,0,0,star ,circle,1,0,1,0,1,3,15,10,,,,,,,,,,,,,,,,,,,,,,,,,,,,,,,,,,,,,,,,278.970737850992,278.970737850992,278.970737850992,278.970737850992,278.970737850992,278.970737850992,278.970737850992,278.970737850992,278.970737850992,278.970737850992,l,0.9672507019713521,10,343,1,279.9710044940002,281.47182621387765,281.47182621387765,281.97192013892345,,,,,,,,,,,,,,,,,,,,,,,,,,,,,,,,,,,,,,,,,,,,,,,,,,,,,,,,,,,,,,,,,58413,2022-11-17_13h58.43.079,vts_reward_expectancy_bt_OFFLINE,2022.2.4,59.86501480712133,
0,1,0,0,0,0,0,1,circle,star,1,0,1,0,1,4,16,5,,,,,,,,,,,,,,,,,,,,,,,,,,,,,,,,,,,,,,,,281.97192013892345,281.97192013892345,281.97192013892345,281.97192013892345,281.97192013892345,281.97192013892345,281.97192013892345,281.97192013892345,281.97192013892345,281.97192013892345,a,1.3080564909614623,10,353,1,283.30719125596806,284.8077174660284,284.8077174660284,285.307894913014,,,,,,,,,,,,,,,,,,,,,,,,,,,,,,,,,,,,,,,,,,,,,,,,,,,,,,,,,,,,,,,,,58413,2022-11-17_13h58.43.079,vts_reward_expectancy_bt_OFFLINE,2022.2.4,59.86501480712133,
0,0,1,0,0,0,0,1,hexagon,star,1,0,1,0,1,5,17,8,,,,,,,,,,,,,,,,,,,,,,,,,,,,,,,,,,,,,,,,285.307894913014,285.307894913014,285.307894913014,285.307894913014,285.307894913014,285.307894913014,285.307894913014,285.307894913014,285.307894913014,285.307894913014,l,1.2454613489098847,1,354,1,286.5764798168093,288.07746389787644,,,,,,,,,,,,,,,,,,,,,,,,,,,,,,,,,,,,,,,,,,,,,,,,,,,,,,,,,,,,,,,,,,,58413,2022-11-17_13h58.43.079,vts_reward_expectancy_bt_OFFLINE,2022.2.4,59.86501480712133,
0,1,0,0,1,0,0,0,circle,triangle,1,0,1,0,1,6,18,3,,,,,,,,,,,,,,,,,,,,,,,,,,,,,,,,,,,,,,,,288.5778696718626,288.5778696718626,288.5778696718626,288.5778696718626,288.5778696718626,288.5778696718626,288.5778696718626,288.5778696718626,288.5778696718626,288.5778696718626,a,0.8218251729849726,10,364,1,289.4297173328232,290.94509638287127,,,,,,,,,,,,,,,,,,,,,,,,,,,,,,,,,,,,,,,,,,,,,,,,,,,,,,,,,,,,,,,,,,,58413,2022-11-17_13h58.43.079,vts_reward_expectancy_bt_OFFLINE,2022.2.4,59.86501480712133,
0,0,1,0,1,0,0,0,hexagon,triangle,1,0,1,0,1,7,19,6,,,,,,,,,,,,,,,,,,,,,,,,,,,,,,,,,,,,,,,,291.4453907490242,291.4453907490242,291.4453907490242,291.4453907490242,291.4453907490242,291.4453907490242,291.4453907490242,291.4453907490242,291.4453907490242,291.4453907490242,l,1.2067009282764047,10,374,1,292.6812637608964,294.1817205448169,294.1817205448169,294.68191835982725,,,,,,,,,,,,,,,,,,,,,,,,,,,,,,,,,,,,,,,,,,,,,,,,,,,,,,,,,,,,,,,,,58413,2022-11-17_13h58.43.079,vts_reward_expectancy_bt_OFFLINE,2022.2.4,59.86501480712133,
0,0,0,1,1,0,0,0,star,triangle,1,0,1,0,1,8,20,9,,,,,,,,,,,,,,,,,,,,,,,,,,,,,,,,,,,,,,,,294.68191835982725,294.68191835982725,294.68191835982725,294.68191835982725,294.68191835982725,294.68191835982725,294.68191835982725,294.68191835982725,294.68191835982725,294.68191835982725,l,1.1302280090749264,1,375,1,295.8334493730217,297.33271744381636,297.33271744381636,,,,,,,,,,,,,,,,,,,,,,,,,,,,,,,,,,,,,,,,,,,,,,,,,,,,,,,,,,,,,,,,,,58413,2022-11-17_13h58.43.079,vts_reward_expectancy_bt_OFFLINE,2022.2.4,59.86501480712133,
1,0,0,0,0,1,0,0,triangle,circle,1,0,1,0,1,9,21,0,,,,,,,,,,,,,,,,,,,,,,,,,,,,,,,,,,,,,,,,297.8345380509272,297.8345380509272,297.8345380509272,297.8345380509272,297.8345380509272,297.8345380509272,297.8345380509272,297.8345380509272,297.8345380509272,297.8345380509272,l,0.9708036950323731,10,385,1,298.83697138284333,300.3523293749895,,,,,,,,,,,,,,,,,,,,,,,,,,,,,,,,,,,,,,,,,,,,,,,,,,,,,,,,,,,,,,,,,,,58413,2022-11-17_13h58.43.079,vts_reward_expectancy_bt_OFFLINE,2022.2.4,59.86501480712133,
0,1,0,0,0,0,1,0,circle,hexagon,1,0,1,0,1,10,22,4,,,,,,,,,,,,,,,,,,,,,,,,,,,,,,,,,,,,,,,,300.8525903909467,300.8525903909467,300.8525903909467,300.8525903909467,300.8525903909467,300.8525903909467,300.8525903909467,300.8525903909467,300.8525903909467,300.8525903909467,a,0.8113866429775953,1,386,1,301.68788645090535,303.18842009594664,,,,,,,,,,,,,,,,,,,,,,,,,,,,,,,,,,,,,,,,,,,,,,,,,,,,,,,,,,,,,,,,,,,58413,2022-11-17_13h58.43.079,vts_reward_expectancy_bt_OFFLINE,2022.2.4,59.86501480712133,
1,0,0,0,0,0,0,1,triangle,star,1,0,1,0,1,11,23,2,,,,,,,,,,,,,,,,,,,,,,,,,,,,,,,,,,,,,,,,303.6887264198158,303.6887264198158,303.6887264198158,303.6887264198158,303.6887264198158,303.6887264198158,303.6887264198158,303.6887264198158,303.6887264198158,303.6887264198158,a,0.798173394985497,1,387,1,304.50563259096816,306.00608378695324,306.00608378695324,306.5061671519652,,,,,,,,,,,,,,,,,,,,,,,,,,,,,,,,,,,,,,,,,,,,,,,,,,,,,,,,,,,,,,,,,58413,2022-11-17_13h58.43.079,vts_reward_expectancy_bt_OFFLINE,2022.2.4,59.86501480712133,
0,1,0,0,0,0,0,1,circle,star,1,0,1,0,2,0,24,5,,,,,,,,,,,,,,,,,,,,,,,,,,,,,,,,,,,,,,,,306.5061671519652,306.5061671519652,306.5061671519652,306.5061671519652,306.5061671519652,306.5061671519652,306.5061671519652,306.5061671519652,306.5061671519652,306.5061671519652,l,0.6813471601344645,1,388,1,307.20647440780886,308.7088748549577,,,,,,,,,,,,,,,,,,,,,,,,,,,,,,,,,,,,,,,,,,,,,,,,,,,,,,,,,,,,,,,,,,,58413,2022-11-17_13h58.43.079,vts_reward_expectancy_bt_OFFLINE,2022.2.4,59.86501480712133,
0,0,0,1,0,0,1,0,star,hexagon,1,0,1,0,2,1,25,11,,,,,,,,,,,,,,,,,,,,,,,,,,,,,,,,,,,,,,,,309.2089989569504,309.2089989569504,309.2089989569504,309.2089989569504,309.2089989569504,309.2089989569504,309.2089989569504,309.2089989569504,309.2089989569504,309.2089989569504,l,1.443226956995204,1,389,1,310.6765057479497,312.17670174501836,312.17670174501836,,,,,,,,,,,,,,,,,,,,,,,,,,,,,,,,,,,,,,,,,,,,,,,,,,,,,,,,,,,,,,,,,,58413,2022-11-17_13h58.43.079,vts_reward_expectancy_bt_OFFLINE,2022.2.4,59.86501480712133,
0,0,0,1,0,1,0,0,star ,circle,1,0,1,0,2,2,26,10,,,,,,,,,,,,,,,,,,,,,,,,,,,,,,,,,,,,,,,,312.6789683739189,312.6789683739189,312.6789683739189,312.6789683739189,312.6789683739189,312.6789683739189,312.6789683739189,312.6789683739189,312.6789683739189,312.6789683739189,l,1.2364002431277186,10,399,1,313.94759090896696,315.44663418084383,315.44663418084383,315.9468448618427,,,,,,,,,,,,,,,,,,,,,,,,,,,,,,,,,,,,,,,,,,,,,,,,,,,,,,,,,,,,,,,,,58413,2022-11-17_13h58.43.079,vts_reward_expectancy_bt_OFFLINE,2022.2.4,59.86501480712133,
1,0,0,0,0,0,1,0,triangle,hexagon,1,0,1,0,2,3,27,1,,,,,,,,,,,,,,,,,,,,,,,,,,,,,,,,,,,,,,,,315.9468448618427,315.9468448618427,315.9468448618427,315.9468448618427,315.9468448618427,315.9468448618427,315.9468448618427,315.9468448618427,315.9468448618427,315.9468448618427,a,1.1188134378753603,10,409,1,317.0971284499392,318.5996014759876,,,,,,,,,,,,,,,,,,,,,,,,,,,,,,,,,,,,,,,,,,,,,,,,,,,,,,,,,,,,,,,,,,,58413,2022-11-17_13h58.43.079,vts_reward_expectancy_bt_OFFLINE,2022.2.4,59.86501480712133,
0,0,1,0,1,0,0,0,hexagon,triangle,1,0,1,0,2,4,28,6,,,,,,,,,,,,,,,,,,,,,,,,,,,,,,,,,,,,,,,,319.09991692681797,319.09991692681797,319.09991692681797,319.09991692681797,319.09991692681797,319.09991692681797,319.09991692681797,319.09991692681797,319.09991692681797,319.09991692681797,l,1.1491354319732636,10,419,1,320.2666794199031,321.7672918338794,321.7672918338794,322.26757655502297,,,,,,,,,,,,,,,,,,,,,,,,,,,,,,,,,,,,,,,,,,,,,,,,,,,,,,,,,,,,,,,,,58413,2022-11-17_13h58.43.079,vts_reward_expectancy_bt_OFFLINE,2022.2.4,59.86501480712133,
1,0,0,0,0,1,0,0,triangle,circle,1,0,1,0,2,5,29,0,,,,,,,,,,,,,,,,,,,,,,,,,,,,,,,,,,,,,,,,322.26757655502297,322.26757655502297,322.26757655502297,322.26757655502297,322.26757655502297,322.26757655502297,322.26757655502297,322.26757655502297,322.26757655502297,322.26757655502297,l,0.9177809271495789,10,429,1,323.20297217182815,324.7039853648748,324.7039853648748,325.20388700580224,,,,,,,,,,,,,,,,,,,,,,,,,,,,,,,,,,,,,,,,,,,,,,,,,,,,,,,,,,,,,,,,,58413,2022-11-17_13h58.43.079,vts_reward_expectancy_bt_OFFLINE,2022.2.4,59.86501480712133,
0,0,0,1,1,0,0,0,star,triangle,1,0,1,0,2,6,30,9,,,,,,,,,,,,,,,,,,,,,,,,,,,,,,,,,,,,,,,,325.20388700580224,325.20388700580224,325.20388700580224,325.20388700580224,325.20388700580224,325.20388700580224,325.20388700580224,325.20388700580224,325.20388700580224,325.20388700580224,l,1.0300007660407573,10,439,1,326.25436880486086,327.7566491169855,,,,,,,,,,,,,,,,,,,,,,,,,,,,,,,,,,,,,,,,,,,,,,,,,,,,,,,,,,,,,,,,,,,58413,2022-11-17_13h58.43.079,vts_reward_expectancy_bt_OFFLINE,2022.2.4,59.86501480712133,
0,1,0,0,1,0,0,0,circle,triangle,1,0,1,0,2,7,31,3,,,,,,,,,,,,,,,,,,,,,,,,,,,,,,,,,,,,,,,,328.25681778485887,328.25681778485887,328.25681778485887,328.25681778485887,328.25681778485887,328.25681778485887,328.25681778485887,328.25681778485887,328.25681778485887,328.25681778485887,a,0.9927672841586173,10,449,1,329.27379556489177,330.7741553178057,330.7741553178057,,,,,,,,,,,,,,,,,,,,,,,,,,,,,,,,,,,,,,,,,,,,,,,,,,,,,,,,,,,,,,,,,,58413,2022-11-17_13h58.43.079,vts_reward_expectancy_bt_OFFLINE,2022.2.4,59.86501480712133,
0,0,1,0,0,0,0,1,hexagon,star,1,0,1,0,2,8,32,8,,,,,,,,,,,,,,,,,,,,,,,,,,,,,,,,,,,,,,,,331.27446528780274,331.27446528780274,331.27446528780274,331.27446528780274,331.27446528780274,331.27446528780274,331.27446528780274,331.27446528780274,331.27446528780274,331.27446528780274,a,0.9232166570145637,10,459,1,332.2247640758287,333.7270898858551,,,,,,,,,,,,,,,,,,,,,,,,,,,,,,,,,,,,,,,,,,,,,,,,,,,,,,,,,,,,,,,,,,,58413,2022-11-17_13h58.43.079,vts_reward_expectancy_bt_OFFLINE,2022.2.4,59.86501480712133,
0,1,0,0,0,0,1,0,circle,hexagon,1,0,1,0,2,9,33,4,,,,,,,,,,,,,,,,,,,,,,,,,,,,,,,,,,,,,,,,334.22747730999254,334.22747730999254,334.22747730999254,334.22747730999254,334.22747730999254,334.22747730999254,334.22747730999254,334.22747730999254,334.22747730999254,334.22747730999254,a,0.7371613848954439,10,469,1,334.9943098258227,336.4948419400025,336.4948419400025,336.9950406169519,,,,,,,,,,,,,,,,,,,,,,,,,,,,,,,,,,,,,,,,,,,,,,,,,,,,,,,,,,,,,,,,,58413,2022-11-17_13h58.43.079,vts_reward_expectancy_bt_OFFLINE,2022.2.4,59.86501480712133,
1,0,0,0,0,0,0,1,triangle,star,1,0,1,0,2,10,34,2,,,,,,,,,,,,,,,,,,,,,,,,,,,,,,,,,,,,,,,,336.9950406169519,336.9950406169519,336.9950406169519,336.9950406169519,336.9950406169519,336.9950406169519,336.9950406169519,336.9950406169519,336.9950406169519,336.9950406169519,a,1.1195709900930524,10,479,1,338.147306056926,339.64789979183115,339.64789979183115,340.1480358198751,,,,,,,,,,,,,,,,,,,,,,,,,,,,,,,,,,,,,,,,,,,,,,,,,,,,,,,,,,,,,,,,,58413,2022-11-17_13h58.43.079,vts_reward_expectancy_bt_OFFLINE,2022.2.4,59.86501480712133,
0,0,1,0,0,1,0,0,hexagon,circle,1,0,1,0,2,11,35,7,,,,,,,,,,,,,,,,,,,,,,,,,,,,,,,,,,,,,,,,340.1480358198751,340.1480358198751,340.1480358198751,340.1480358198751,340.1480358198751,340.1480358198751,340.1480358198751,340.1480358198751,340.1480358198751,340.1480358198751,l,0.7453929751645774,10,489,1,340.914963302901,342.42032518493943,,,,,,,,,,,,,,,,,,,,,,,,,,,,,,,,,,,,,,,,,,,,,,,,,,,,,,,,,,,,,,,,,,,58413,2022-11-17_13h58.43.079,vts_reward_expectancy_bt_OFFLINE,2022.2.4,59.86501480712133,
0,0,0,1,0,0,1,0,star,hexagon,1,0,1,0,3,0,36,11,,,,,,,,,,,,,,,,,,,,,,,,,,,,,,,,,,,,,,,,342.9175031699706,342.9175031699706,342.9175031699706,342.9175031699706,342.9175031699706,342.9175031699706,342.9175031699706,342.9175031699706,342.9175031699706,342.9175031699706,l,1.1718525742180645,1,490,1,344.11994927492924,345.63511763489805,,,,,,,,,,,,,,,,,,,,,,,,,,,,,,,,,,,,,,,,,,,,,,,,,,,,,,,,,,,,,,,,,,,58413,2022-11-17_13h58.43.079,vts_reward_expectancy_bt_OFFLINE,2022.2.4,59.86501480712133,
1,0,0,0,0,0,0,1,triangle,star,1,0,1,0,3,1,37,2,,,,,,,,,,,,,,,,,,,,,,,,,,,,,,,,,,,,,,,,346.13532274984755,346.13532274984755,346.13532274984755,346.13532274984755,346.13532274984755,346.13532274984755,346.13532274984755,346.13532274984755,346.13532274984755,346.13532274984755,a,1.0031869560480118,10,500,1,347.17130801291205,348.6714507578872,,,,,,,,,,,,,,,,,,,,,,,,,,,,,,,,,,,,,,,,,,,,,,,,,,,,,,,,,,,,,,,,,,,58413,2022-11-17_13h58.43.079,vts_reward_expectancy_bt_OFFLINE,2022.2.4,59.86501480712133,
1,0,0,0,0,1,0,0,triangle,circle,1,0,1,0,3,2,38,0,,,,,,,,,,,,,,,,,,,,,,,,,,,,,,,,,,,,,,,,349.1717146988958,349.1717146988958,349.1717146988958,349.1717146988958,349.1717146988958,349.1717146988958,349.1717146988958,349.1717146988958,349.1717146988958,349.1717146988958,l,1.003875439055264,10,510,1,350.20562921185046,351.705868484918,351.705868484918,352.2062092849519,,,,,,,,,,,,,,,,,,,,,,,,,,,,,,,,,,,,,,,,,,,,,,,,,,,,,,,,,,,,,,,,,58413,2022-11-17_13h58.43.079,vts_reward_expectancy_bt_OFFLINE,2022.2.4,59.86501480712133,
0,0,0,1,1,0,0,0,star,triangle,1,0,1,0,3,3,39,9,,,,,,,,,,,,,,,,,,,,,,,,,,,,,,,,,,,,,,,,352.2062092849519,352.2062092849519,352.2062092849519,352.2062092849519,352.2062092849519,352.2062092849519,352.2062092849519,352.2062092849519,352.2062092849519,352.2062092849519,l,1.5240960880182683,10,520,1,353.75855016103014,355.25889837299474,355.25889837299474,355.75943051697686,,,,,,,,,,,,,,,,,,,,,,,,,,,,,,,,,,,,,,,,,,,,,,,,,,,,,,,,,,,,,,,,,58413,2022-11-17_13h58.43.079,vts_reward_expectancy_bt_OFFLINE,2022.2.4,59.86501480712133,
0,0,1,0,0,1,0,0,hexagon,circle,1,0,1,0,3,4,40,7,,,,,,,,,,,,,,,,,,,,,,,,,,,,,,,,,,,,,,,,355.75943051697686,355.75943051697686,355.75943051697686,355.75943051697686,355.75943051697686,355.75943051697686,355.75943051697686,355.75943051697686,355.75943051697686,355.75943051697686,l,0.6601036081556231,10,530,1,356.44268277287483,357.94492393685505,,,,,,,,,,,,,,,,,,,,,,,,,,,,,,,,,,,,,,,,,,,,,,,,,,,,,,,,,,,,,,,,,,,58413,2022-11-17_13h58.43.079,vts_reward_expectancy_bt_OFFLINE,2022.2.4,59.86501480712133,
0,1,0,0,0,0,1,0,circle,hexagon,1,0,1,0,3,5,41,4,,,,,,,,,,,,,,,,,,,,,,,,,,,,,,,,,,,,,,,,358.44536017091013,358.44536017091013,358.44536017091013,358.44536017091013,358.44536017091013,358.44536017091013,358.44536017091013,358.44536017091013,358.44536017091013,358.44536017091013,a,0.7526262251194566,1,531,1,359.230515770847,360.7295247768052,360.7295247768052,361.2297171498649,,,,,,,,,,,,,,,,,,,,,,,,,,,,,,,,,,,,,,,,,,,,,,,,,,,,,,,,,,,,,,,,,58413,2022-11-17_13h58.43.079,vts_reward_expectancy_bt_OFFLINE,2022.2.4,59.86501480712133,
0,0,1,0,0,0,0,1,hexagon,star,1,0,1,0,3,6,42,8,,,,,,,,,,,,,,,,,,,,,,,,,,,,,,,,,,,,,,,,361.2297171498649,361.2297171498649,361.2297171498649,361.2297171498649,361.2297171498649,361.2297171498649,361.2297171498649,361.2297171498649,361.2297171498649,361.2297171498649,a,1.6932702471967787,1,532,1,362.9488279300276,364.4490912668407,364.4490912668407,364.94934651697986,,,,,,,,,,,,,,,,,,,,,,,,,,,,,,,,,,,,,,,,,,,,,,,,,,,,,,,,,,,,,,,,,58413,2022-11-17_13h58.43.079,vts_reward_expectancy_bt_OFFLINE,2022.2.4,59.86501480712133,
1,0,0,0,0,0,1,0,triangle,hexagon,1,0,1,0,3,7,43,1,,,,,,,,,,,,,,,,,,,,,,,,,,,,,,,,,,,,,,,,364.94934651697986,364.94934651697986,364.94934651697986,364.94934651697986,364.94934651697986,364.94934651697986,364.94934651697986,364.94934651697986,364.94934651697986,364.94934651697986,a,1.100407293997705,10,542,1,366.06844617798924,367.5689660599455,,,,,,,,,,,,,,,,,,,,,,,,,,,,,,,,,,,,,,,,,,,,,,,,,,,,,,,,,,,,,,,,,,,58413,2022-11-17_13h58.43.079,vts_reward_expectancy_bt_OFFLINE,2022.2.4,59.86501480712133,
0,1,0,0,0,0,0,1,circle,star,1,0,1,0,3,8,44,5,,,,,,,,,,,,,,,,,,,,,,,,,,,,,,,,,,,,,,,,368.06915362901054,368.06915362901054,368.06915362901054,368.06915362901054,368.06915362901054,368.06915362901054,368.06915362901054,368.06915362901054,368.06915362901054,368.06915362901054,a,1.4345048710238189,1,543,1,369.5364594159182,371.03717569680884,371.03717569680884,371.53712975094095,,,,,,,,,,,,,,,,,,,,,,,,,,,,,,,,,,,,,,,,,,,,,,,,,,,,,,,,,,,,,,,,,58413,2022-11-17_13h58.43.079,vts_reward_expectancy_bt_OFFLINE,2022.2.4,59.86501480712133,
0,0,1,0,1,0,0,0,hexagon,triangle,1,0,1,0,3,9,45,6,,,,,,,,,,,,,,,,,,,,,,,,,,,,,,,,,,,,,,,,371.53712975094095,371.53712975094095,371.53712975094095,371.53712975094095,371.53712975094095,371.53712975094095,371.53712975094095,371.53712975094095,371.53712975094095,371.53712975094095,l,0.9486574621405452,10,553,1,372.5072005779948,374.00632625981234,374.00632625981234,374.5065522119403,,,,,,,,,,,,,,,,,,,,,,,,,,,,,,,,,,,,,,,,,,,,,,,,,,,,,,,,,,,,,,,,,58413,2022-11-17_13h58.43.079,vts_reward_expectancy_bt_OFFLINE,2022.2.4,59.86501480712133,
0,1,0,0,1,0,0,0,circle,triangle,1,0,1,0,3,10,46,3,,,,,,,,,,,,,,,,,,,,,,,,,,,,,,,,,,,,,,,,374.5065522119403,374.5065522119403,374.5065522119403,374.5065522119403,374.5065522119403,374.5065522119403,374.5065522119403,374.5065522119403,374.5065522119403,374.5065522119403,a,0.6336263041011989,10,563,1,375.1569884419441,376.6572269119788,376.6572269119788,377.1573608620092,,,,,,,,,,,,,,,,,,,,,,,,,,,,,,,,,,,,,,,,,,,,,,,,,,,,,,,,,,,,,,,,,58413,2022-11-17_13h58.43.079,vts_reward_expectancy_bt_OFFLINE,2022.2.4,59.86501480712133,
0,0,0,1,0,1,0,0,star ,circle,1,0,1,0,3,11,47,10,,,,,,,,,,,,,,,,,,,,,,,,,,,,,,,,,,,,,,,,377.1573608620092,377.1573608620092,377.1573608620092,377.1573608620092,377.1573608620092,377.1573608620092,377.1573608620092,377.1573608620092,377.1573608620092,377.1573608620092,l,1.2679343610070646,10,573,1,378.44310536794364,379.94359678402543,379.94359678402543,380.4508129898459,,,,,,,,,,,,,,,,,,,,,,,,,,,,,,,,,,,,,,,,,,,,,,,,,,,,,,,,,,,,,,,,,58413,2022-11-17_13h58.43.079,vts_reward_expectancy_bt_OFFLINE,2022.2.4,59.86501480712133,
0,1,0,0,1,0,0,0,circle,triangle,2,0,2,0,0,0,0,3,,,,,,,,,,,,,,,,,,,,,,,,,,,,,,,,,,,,,,,,383.9915898209438,383.9915898209438,383.9915898209438,383.9915898209438,383.9915898209438,383.9915898209438,383.9915898209438,383.9915898209438,383.9915898209438,383.9915898209438,a,1.4995638369582593,10,583,2,385.5149469538592,387.0147920008749,387.0147920008749,,,,,,,,,,,,,,,,,,,,,,,,,,,,,,,,,,,,,,,,,,,,,,,,,,,,,,,,,,,,,,,,,,58413,2022-11-17_13h58.43.079,vts_reward_expectancy_bt_OFFLINE,2022.2.4,59.86501480712133,
1,0,0,0,0,1,0,0,triangle,circle,2,0,2,0,0,1,1,0,,,,,,,,,,,,,,,,,,,,,,,,,,,,,,,,,,,,,,,,387.51667308202013,387.51667308202013,387.51667308202013,387.51667308202013,387.51667308202013,387.51667308202013,387.51667308202013,387.51667308202013,387.51667308202013,387.51667308202013,l,0.6181581942364573,10,593,2,388.16655990993604,389.6674396598246,389.6674396598246,390.167588993907,,,,,,,,,,,,,,,,,,,,,,,,,,,,,,,,,,,,,,,,,,,,,,,,,,,,,,,,,,,,,,,,,58413,2022-11-17_13h58.43.079,vts_reward_expectancy_bt_OFFLINE,2022.2.4,59.86501480712133,
0,1,0,0,0,0,0,1,circle,star,2,0,2,0,0,2,2,5,,,,,,,,,,,,,,,,,,,,,,,,,,,,,,,,,,,,,,,,390.167588993907,390.167588993907,390.167588993907,390.167588993907,390.167588993907,390.167588993907,390.167588993907,390.167588993907,390.167588993907,390.167588993907,a,0.6107873779255897,10,603,2,390.8013631380163,392.30187211884186,392.30187211884186,,,,,,,,,,,,,,,,,,,,,,,,,,,,,,,,,,,,,,,,,,,,,,,,,,,,,,,,,,,,,,,,,,58413,2022-11-17_13h58.43.079,vts_reward_expectancy_bt_OFFLINE,2022.2.4,59.86501480712133,
1,0,0,0,0,0,1,0,triangle,hexagon,2,0,2,0,0,3,3,1,,,,,,,,,,,,,,,,,,,,,,,,,,,,,,,,,,,,,,,,392.8037318920251,392.8037318920251,392.8037318920251,392.8037318920251,392.8037318920251,392.8037318920251,392.8037318920251,392.8037318920251,392.8037318920251,392.8037318920251,a,0.6419848210643977,10,613,2,393.47080323682167,394.97092290897854,394.97092290897854,395.4714534548111,,,,,,,,,,,,,,,,,,,,,,,,,,,,,,,,,,,,,,,,,,,,,,,,,,,,,,,,,,,,,,,,,58413,2022-11-17_13h58.43.079,vts_reward_expectancy_bt_OFFLINE,2022.2.4,59.86501480712133,
1,0,0,0,0,0,0,1,triangle,star,2,0,2,0,0,4,4,2,,,,,,,,,,,,,,,,,,,,,,,,,,,,,,,,,,,,,,,,395.4714534548111,395.4714534548111,395.4714534548111,395.4714534548111,395.4714534548111,395.4714534548111,395.4714534548111,395.4714534548111,395.4714534548111,395.4714534548111,a,0.6297913880553097,10,623,2,396.12178485188633,397.6238857328426,,,,,,,,,,,,,,,,,,,,,,,,,,,,,,,,,,,,,,,,,,,,,,,,,,,,,,,,,,,,,,,,,,,58413,2022-11-17_13h58.43.079,vts_reward_expectancy_bt_OFFLINE,2022.2.4,59.86501480712133,
0,0,0,1,1,0,0,0,star,triangle,2,0,2,0,0,5,5,9,,,,,,,,,,,,,,,,,,,,,,,,,,,,,,,,,,,,,,,,398.1239196578972,398.1239196578972,398.1239196578972,398.1239196578972,398.1239196578972,398.1239196578972,398.1239196578972,398.1239196578972,398.1239196578972,398.1239196578972,l,0.6537784358952194,10,633,2,398.80809677788056,400.30844272091053,400.30844272091053,400.8085180078633,,,,,,,,,,,,,,,,,,,,,,,,,,,,,,,,,,,,,,,,,,,,,,,,,,,,,,,,,,,,,,,,,58413,2022-11-17_13h58.43.079,vts_reward_expectancy_bt_OFFLINE,2022.2.4,59.86501480712133,
0,0,1,0,0,0,0,1,hexagon,star,2,0,2,0,0,6,6,8,,,,,,,,,,,,,,,,,,,,,,,,,,,,,,,,,,,,,,,,400.8085180078633,400.8085180078633,400.8085180078633,400.8085180078633,400.8085180078633,400.8085180078633,400.8085180078633,400.8085180078633,400.8085180078633,400.8085180078633,a,0.714315066114068,1,634,2,401.54399781883694,403.0444852539804,,,,,,,,,,,,,,,,,,,,,,,,,,,,,,,,,,,,,,,,,,,,,,,,,,,,,,,,,,,,,,,,,,,58413,2022-11-17_13h58.43.079,vts_reward_expectancy_bt_OFFLINE,2022.2.4,59.86501480712133,
0,1,0,0,0,0,1,0,circle,hexagon,2,0,2,0,0,7,7,4,,,,,,,,,,,,,,,,,,,,,,,,,,,,,,,,,,,,,,,,403.54457657481544,403.54457657481544,403.54457657481544,403.54457657481544,403.54457657481544,403.54457657481544,403.54457657481544,403.54457657481544,403.54457657481544,403.54457657481544,a,0.9031924172304571,10,644,2,404.48036847403273,405.99565068096854,,,,,,,,,,,,,,,,,,,,,,,,,,,,,,,,,,,,,,,,,,,,,,,,,,,,,,,,,,,,,,,,,,,58413,2022-11-17_13h58.43.079,vts_reward_expectancy_bt_OFFLINE,2022.2.4,59.86501480712133,
0,0,1,0,0,1,0,0,hexagon,circle,2,0,2,0,0,8,8,7,,,,,,,,,,,,,,,,,,,,,,,,,,,,,,,,,,,,,,,,406.49604023993015,406.49604023993015,406.49604023993015,406.49604023993015,406.49604023993015,406.49604023993015,406.49604023993015,406.49604023993015,406.49604023993015,406.49604023993015,l,1.2145401660818607,10,654,2,407.73148290696554,409.2317021798808,409.2317021798808,,,,,,,,,,,,,,,,,,,,,,,,,,,,,,,,,,,,,,,,,,,,,,,,,,,,,,,,,,,,,,,,,,58413,2022-11-17_13h58.43.079,vts_reward_expectancy_bt_OFFLINE,2022.2.4,59.86501480712133,
0,0,0,1,0,1,0,0,star ,circle,2,0,2,0,0,9,9,10,,,,,,,,,,,,,,,,,,,,,,,,,,,,,,,,,,,,,,,,409.7321011198219,409.7321011198219,409.7321011198219,409.7321011198219,409.7321011198219,409.7321011198219,409.7321011198219,409.7321011198219,409.7321011198219,409.7321011198219,a,2.231253703124821,10,664,2,411.9830961159896,413.48497444181703,,,,,,,,,,,,,,,,,,,,,,,,,,,,,,,,,,,,,,,,,,,,,,,,,,,,,,,,,,,,,,,,,,,58413,2022-11-17_13h58.43.079,vts_reward_expectancy_bt_OFFLINE,2022.2.4,59.86501480712133,
0,0,1,0,1,0,0,0,hexagon,triangle,2,0,2,0,0,10,10,6,,,,,,,,,,,,,,,,,,,,,,,,,,,,,,,,,,,,,,,,413.98560581100173,413.98560581100173,413.98560581100173,413.98560581100173,413.98560581100173,413.98560581100173,413.98560581100173,413.98560581100173,413.98560581100173,413.98560581100173,l,0.9363732179626822,10,674,2,414.9526481819339,416.45317628001794,416.45317628001794,416.95324948290363,,,,,,,,,,,,,,,,,,,,,,,,,,,,,,,,,,,,,,,,,,,,,,,,,,,,,,,,,,,,,,,,,58413,2022-11-17_13h58.43.079,vts_reward_expectancy_bt_OFFLINE,2022.2.4,59.86501480712133,
0,0,0,1,0,0,1,0,star,hexagon,2,0,2,0,0,11,11,11,,,,,,,,,,,,,,,,,,,,,,,,,,,,,,,,,,,,,,,,416.95324948290363,416.95324948290363,416.95324948290363,416.95324948290363,416.95324948290363,416.95324948290363,416.95324948290363,416.95324948290363,416.95324948290363,416.95324948290363,l,1.2205631341785192,1,675,2,418.205360036809,419.7062287298031,419.7062287298031,420.20630599581636,,,,,,,,,,,,,,,,,,,,,,,,,,,,,,,,,,,,,,,,,,,,,,,,,,,,,,,,,,,,,,,,,58413,2022-11-17_13h58.43.079,vts_reward_expectancy_bt_OFFLINE,2022.2.4,59.86501480712133,
0,0,0,1,1,0,0,0,star,triangle,2,0,2,0,1,0,12,9,,,,,,,,,,,,,,,,,,,,,,,,,,,,,,,,,,,,,,,,420.20630599581636,420.20630599581636,420.20630599581636,420.20630599581636,420.20630599581636,420.20630599581636,420.20630599581636,420.20630599581636,420.20630599581636,420.20630599581636,l,1.7700205959845334,10,685,2,422.00899729900993,423.5093717968557,,,,,,,,,,,,,,,,,,,,,,,,,,,,,,,,,,,,,,,,,,,,,,,,,,,,,,,,,,,,,,,,,,,58413,2022-11-17_13h58.43.079,vts_reward_expectancy_bt_OFFLINE,2022.2.4,59.86501480712133,
1,0,0,0,0,1,0,0,triangle,circle,2,0,2,0,1,1,13,0,,,,,,,,,,,,,,,,,,,,,,,,,,,,,,,,,,,,,,,,424.00941594690084,424.00941594690084,424.00941594690084,424.00941594690084,424.00941594690084,424.00941594690084,424.00941594690084,424.00941594690084,424.00941594690084,424.00941594690084,l,1.0274735260754824,10,695,2,425.0599557280075,426.56038746098056,426.56038746098056,427.06059131701477,,,,,,,,,,,,,,,,,,,,,,,,,,,,,,,,,,,,,,,,,,,,,,,,,,,,,,,,,,,,,,,,,58413,2022-11-17_13h58.43.079,vts_reward_expectancy_bt_OFFLINE,2022.2.4,59.86501480712133,
0,0,1,0,1,0,0,0,hexagon,triangle,2,0,2,0,1,2,14,6,,,,,,,,,,,,,,,,,,,,,,,,,,,,,,,,,,,,,,,,427.06059131701477,427.06059131701477,427.06059131701477,427.06059131701477,427.06059131701477,427.06059131701477,427.06059131701477,427.06059131701477,427.06059131701477,427.06059131701477,l,1.1946318361442536,10,705,2,428.2795990118757,429.7800281129312,429.7800281129312,430.28017087094486,,,,,,,,,,,,,,,,,,,,,,,,,,,,,,,,,,,,,,,,,,,,,,,,,,,,,,,,,,,,,,,,,58413,2022-11-17_13h58.43.079,vts_reward_expectancy_bt_OFFLINE,2022.2.4,59.86501480712133,
0,0,0,1,0,1,0,0,star ,circle,2,0,2,0,1,3,15,10,,,,,,,,,,,,,,,,,,,,,,,,,,,,,,,,,,,,,,,,430.28017087094486,430.28017087094486,430.28017087094486,430.28017087094486,430.28017087094486,430.28017087094486,430.28017087094486,430.28017087094486,430.28017087094486,430.28017087094486,l,1.2592161069624126,10,715,2,431.5640363418497,433.06620263890363,,,,,,,,,,,,,,,,,,,,,,,,,,,,,,,,,,,,,,,,,,,,,,,,,,,,,,,,,,,,,,,,,,,58413,2022-11-17_13h58.43.079,vts_reward_expectancy_bt_OFFLINE,2022.2.4,59.86501480712133,
0,1,0,0,0,0,0,1,circle,star,2,0,2,0,1,4,16,5,,,,,,,,,,,,,,,,,,,,,,,,,,,,,,,,,,,,,,,,433.5666371618863,433.5666371618863,433.5666371618863,433.5666371618863,433.5666371618863,433.5666371618863,433.5666371618863,433.5666371618863,433.5666371618863,433.5666371618863,a,1.4376967060379684,1,716,2,435.0359497249592,436.5508301688824,,,,,,,,,,,,,,,,,,,,,,,,,,,,,,,,,,,,,,,,,,,,,,,,,,,,,,,,,,,,,,,,,,,58413,2022-11-17_13h58.43.079,vts_reward_expectancy_bt_OFFLINE,2022.2.4,59.86501480712133,
0,0,1,0,0,1,0,0,hexagon,circle,2,0,2,0,1,5,17,7,,,,,,,,,,,,,,,,,,,,,,,,,,,,,,,,,,,,,,,,437.0511361688841,437.0511361688841,437.0511361688841,437.0511361688841,437.0511361688841,437.0511361688841,437.0511361688841,437.0511361688841,437.0511361688841,437.0511361688841,l,1.0583434829022735,1,717,2,438.13688102480955,439.63724150694907,439.63724150694907,440.13736215396784,,,,,,,,,,,,,,,,,,,,,,,,,,,,,,,,,,,,,,,,,,,,,,,,,,,,,,,,,,,,,,,,,58413,2022-11-17_13h58.43.079,vts_reward_expectancy_bt_OFFLINE,2022.2.4,59.86501480712133,
0,1,0,0,1,0,0,0,circle,triangle,2,0,2,0,1,6,18,3,,,,,,,,,,,,,,,,,,,,,,,,,,,,,,,,,,,,,,,,440.13736215396784,440.13736215396784,440.13736215396784,440.13736215396784,440.13736215396784,440.13736215396784,440.13736215396784,440.13736215396784,440.13736215396784,440.13736215396784,a,1.2684616539627314,10,727,2,441.438334435923,442.9401386778336,,,,,,,,,,,,,,,,,,,,,,,,,,,,,,,,,,,,,,,,,,,,,,,,,,,,,,,,,,,,,,,,,,,58413,2022-11-17_13h58.43.079,vts_reward_expectancy_bt_OFFLINE,2022.2.4,59.86501480712133,
1,0,0,0,0,0,1,0,triangle,hexagon,2,0,2,0,1,7,19,1,,,,,,,,,,,,,,,,,,,,,,,,,,,,,,,,,,,,,,,,443.44046864984557,443.44046864984557,443.44046864984557,443.44046864984557,443.44046864984557,443.44046864984557,443.44046864984557,443.44046864984557,443.44046864984557,443.44046864984557,a,0.9363267049193382,10,737,2,444.4075590018183,445.9077821269166,445.9077821269166,446.4077811788302,,,,,,,,,,,,,,,,,,,,,,,,,,,,,,,,,,,,,,,,,,,,,,,,,,,,,,,,,,,,,,,,,58413,2022-11-17_13h58.43.079,vts_reward_expectancy_bt_OFFLINE,2022.2.4,59.86501480712133,
1,0,0,0,0,0,0,1,triangle,star,2,0,2,0,1,8,20,2,,,,,,,,,,,,,,,,,,,,,,,,,,,,,,,,,,,,,,,,446.4077811788302,446.4077811788302,446.4077811788302,446.4077811788302,446.4077811788302,446.4077811788302,446.4077811788302,446.4077811788302,446.4077811788302,446.4077811788302,a,0.8709221330936998,10,747,2,447.30837892880663,448.81072767684236,,,,,,,,,,,,,,,,,,,,,,,,,,,,,,,,,,,,,,,,,,,,,,,,,,,,,,,,,,,,,,,,,,,58413,2022-11-17_13h58.43.079,vts_reward_expectancy_bt_OFFLINE,2022.2.4,59.86501480712133,
0,1,0,0,0,0,1,0,circle,hexagon,2,0,2,0,1,9,21,4,,,,,,,,,,,,,,,,,,,,,,,,,,,,,,,,,,,,,,,,449.3109847200103,449.3109847200103,449.3109847200103,449.3109847200103,449.3109847200103,449.3109847200103,449.3109847200103,449.3109847200103,449.3109847200103,449.3109847200103,a,0.7698997899424285,10,757,2,450.1122997798957,451.61178568191826,451.61178568191826,452.11199499783106,,,,,,,,,,,,,,,,,,,,,,,,,,,,,,,,,,,,,,,,,,,,,,,,,,,,,,,,,,,,,,,,,58413,2022-11-17_13h58.43.079,vts_reward_expectancy_bt_OFFLINE,2022.2.4,59.86501480712133,
0,0,0,1,0,0,1,0,star,hexagon,2,0,2,0,1,10,22,11,,,,,,,,,,,,,,,,,,,,,,,,,,,,,,,,,,,,,,,,452.11199499783106,452.11199499783106,452.11199499783106,452.11199499783106,452.11199499783106,452.11199499783106,452.11199499783106,452.11199499783106,452.11199499783106,452.11199499783106,l,0.8143976530991495,1,758,2,452.9496998109389,454.4647793630138,,,,,,,,,,,,,,,,,,,,,,,,,,,,,,,,,,,,,,,,,,,,,,,,,,,,,,,,,,,,,,,,,,,58413,2022-11-17_13h58.43.079,vts_reward_expectancy_bt_OFFLINE,2022.2.4,59.86501480712133,
0,0,1,0,0,0,0,1,hexagon,star,2,0,2,0,1,11,23,8,,,,,,,,,,,,,,,,,,,,,,,,,,,,,,,,,,,,,,,,454.9650715989992,454.9650715989992,454.9650715989992,454.9650715989992,454.9650715989992,454.9650715989992,454.9650715989992,454.9650715989992,454.9650715989992,454.9650715989992,l,2.33782786806114,1,759,2,457.33232480380684,458.834798657801,,,,,,,,,,,,,,,,,,,,,,,,,,,,,,,,,,,,,,,,,,,,,,,,,,,,,,,,,,,,,,,,,,,58413,2022-11-17_13h58.43.079,vts_reward_expectancy_bt_OFFLINE,2022.2.4,59.86501480712133,
0,0,0,1,0,1,0,0,star ,circle,2,0,2,0,2,0,24,10,,,,,,,,,,,,,,,,,,,,,,,,,,,,,,,,,,,,,,,,459.3349398539867,459.3349398539867,459.3349398539867,459.3349398539867,459.3349398539867,459.3349398539867,459.3349398539867,459.3349398539867,459.3349398539867,459.3349398539867,l,1.1517588610295206,10,769,2,460.51920547382906,462.0191050488502,462.0191050488502,,,,,,,,,,,,,,,,,,,,,,,,,,,,,,,,,,,,,,,,,,,,,,,,,,,,,,,,,,,,,,,,,,58413,2022-11-17_13h58.43.079,vts_reward_expectancy_bt_OFFLINE,2022.2.4,59.86501480712133,
0,1,0,0,0,0,0,1,circle,star,2,0,2,0,2,1,25,5,,,,,,,,,,,,,,,,,,,,,,,,,,,,,,,,,,,,,,,,462.5223336238414,462.5223336238414,462.5223336238414,462.5223336238414,462.5223336238414,462.5223336238414,462.5223336238414,462.5223336238414,462.5223336238414,462.5223336238414,a,0.6538787470199168,10,779,2,463.20530527690426,464.70552240288816,464.70552240288816,465.205694421893,,,,,,,,,,,,,,,,,,,,,,,,,,,,,,,,,,,,,,,,,,,,,,,,,,,,,,,,,,,,,,,,,58413,2022-11-17_13h58.43.079,vts_reward_expectancy_bt_OFFLINE,2022.2.4,59.86501480712133,
1,0,0,0,0,1,0,0,triangle,circle,2,0,2,0,2,2,26,0,,,,,,,,,,,,,,,,,,,,,,,,,,,,,,,,,,,,,,,,465.205694421893,465.205694421893,465.205694421893,465.205694421893,465.205694421893,465.205694421893,465.205694421893,465.205694421893,465.205694421893,465.205694421893,l,1.762358516221866,10,789,2,466.990103129996,468.4918551919982,,,,,,,,,,,,,,,,,,,,,,,,,,,,,,,,,,,,,,,,,,,,,,,,,,,,,,,,,,,,,,,,,,,58413,2022-11-17_13h58.43.079,vts_reward_expectancy_bt_OFFLINE,2022.2.4,59.86501480712133,
0,0,1,0,0,0,0,1,hexagon,star,2,0,2,0,2,3,27,8,,,,,,,,,,,,,,,,,,,,,,,,,,,,,,,,,,,,,,,,468.99211782589555,468.99211782589555,468.99211782589555,468.99211782589555,468.99211782589555,468.99211782589555,468.99211782589555,468.99211782589555,468.99211782589555,468.99211782589555,a,0.7538971502799541,10,799,2,469.7759220828302,471.27625144599006,471.27625144599006,,,,,,,,,,,,,,,,,,,,,,,,,,,,,,,,,,,,,,,,,,,,,,,,,,,,,,,,,,,,,,,,,,58413,2022-11-17_13h58.43.079,vts_reward_expectancy_bt_OFFLINE,2022.2.4,59.86501480712133,
0,0,0,1,1,0,0,0,star,triangle,2,0,2,0,2,4,28,9,,,,,,,,,,,,,,,,,,,,,,,,,,,,,,,,,,,,,,,,471.7763758630026,471.7763758630026,471.7763758630026,471.7763758630026,471.7763758630026,471.7763758630026,471.7763758630026,471.7763758630026,471.7763758630026,471.7763758630026,l,1.356075590942055,10,809,2,473.16311076981947,474.6626907719765,474.6626907719765,475.16294428287074,,,,,,,,,,,,,,,,,,,,,,,,,,,,,,,,,,,,,,,,,,,,,,,,,,,,,,,,,,,,,,,,,58413,2022-11-17_13h58.43.079,vts_reward_expectancy_bt_OFFLINE,2022.2.4,59.86501480712133,
0,1,0,0,0,0,1,0,circle,hexagon,2,0,2,0,2,5,29,4,,,,,,,,,,,,,,,,,,,,,,,,,,,,,,,,,,,,,,,,475.16294428287074,475.16294428287074,475.16294428287074,475.16294428287074,475.16294428287074,475.16294428287074,475.16294428287074,475.16294428287074,475.16294428287074,475.16294428287074,a,0.793381140101701,1,810,2,475.9821407778654,477.4947569358628,,,,,,,,,,,,,,,,,,,,,,,,,,,,,,,,,,,,,,,,,,,,,,,,,,,,,,,,,,,,,,,,,,,58413,2022-11-17_13h58.43.079,vts_reward_expectancy_bt_OFFLINE,2022.2.4,59.86501480712133,
1,0,0,0,0,0,0,1,triangle,star,2,0,2,0,2,6,30,2,,,,,,,,,,,,,,,,,,,,,,,,,,,,,,,,,,,,,,,,477.98238367494196,477.98238367494196,477.98238367494196,477.98238367494196,477.98238367494196,477.98238367494196,477.98238367494196,477.98238367494196,477.98238367494196,477.98238367494196,a,1.3831794681027532,10,820,2,479.38503602403216,480.89999333093874,,,,,,,,,,,,,,,,,,,,,,,,,,,,,,,,,,,,,,,,,,,,,,,,,,,,,,,,,,,,,,,,,,,58413,2022-11-17_13h58.43.079,vts_reward_expectancy_bt_OFFLINE,2022.2.4,59.86501480712133,
0,0,1,0,0,1,0,0,hexagon,circle,2,0,2,0,2,7,31,7,,,,,,,,,,,,,,,,,,,,,,,,,,,,,,,,,,,,,,,,481.40028188796714,481.40028188796714,481.40028188796714,481.40028188796714,481.40028188796714,481.40028188796714,481.40028188796714,481.40028188796714,481.40028188796714,481.40028188796714,l,1.7338335390668362,10,830,2,483.1531480709091,484.6534612858668,484.6534612858668,485.1533552289475,,,,,,,,,,,,,,,,,,,,,,,,,,,,,,,,,,,,,,,,,,,,,,,,,,,,,,,,,,,,,,,,,58413,2022-11-17_13h58.43.079,vts_reward_expectancy_bt_OFFLINE,2022.2.4,59.86501480712133,
0,0,1,0,1,0,0,0,hexagon,triangle,2,0,2,0,2,8,32,6,,,,,,,,,,,,,,,,,,,,,,,,,,,,,,,,,,,,,,,,485.1533552289475,485.1533552289475,485.1533552289475,485.1533552289475,485.1533552289475,485.1533552289475,485.1533552289475,485.1533552289475,485.1533552289475,485.1533552289475,l,1.0416441622655839,10,840,2,486.22104897000827,487.72305436385795,,,,,,,,,,,,,,,,,,,,,,,,,,,,,,,,,,,,,,,,,,,,,,,,,,,,,,,,,,,,,,,,,,,58413,2022-11-17_13h58.43.079,vts_reward_expectancy_bt_OFFLINE,2022.2.4,59.86501480712133,
0,0,0,1,0,0,1,0,star,hexagon,2,0,2,0,2,9,33,11,,,,,,,,,,,,,,,,,,,,,,,,,,,,,,,,,,,,,,,,488.22317975899205,488.22317975899205,488.22317975899205,488.22317975899205,488.22317975899205,488.22317975899205,488.22317975899205,488.22317975899205,488.22317975899205,488.22317975899205,l,1.256431012880057,10,850,2,489.5068766188342,491.0073373520281,491.0073373520281,,,,,,,,,,,,,,,,,,,,,,,,,,,,,,,,,,,,,,,,,,,,,,,,,,,,,,,,,,,,,,,,,,58413,2022-11-17_13h58.43.079,vts_reward_expectancy_bt_OFFLINE,2022.2.4,59.86501480712133,
0,1,0,0,1,0,0,0,circle,triangle,2,0,2,0,2,10,34,3,,,,,,,,,,,,,,,,,,,,,,,,,,,,,,,,,,,,,,,,491.50758665381,491.50758665381,491.50758665381,491.50758665381,491.50758665381,491.50758665381,491.50758665381,491.50758665381,491.50758665381,491.50758665381,a,0.5707841280382127,10,860,2,492.1077069710009,493.61010638880543,,,,,,,,,,,,,,,,,,,,,,,,,,,,,,,,,,,,,,,,,,,,,,,,,,,,,,,,,,,,,,,,,,,58413,2022-11-17_13h58.43.079,vts_reward_expectancy_bt_OFFLINE,2022.2.4,59.86501480712133,
1,0,0,0,0,0,1,0,triangle,hexagon,2,0,2,0,2,11,35,1,,,,,,,,,,,,,,,,,,,,,,,,,,,,,,,,,,,,,,,,494.1105038318783,494.1105038318783,494.1105038318783,494.1105038318783,494.1105038318783,494.1105038318783,494.1105038318783,494.1105038318783,494.1105038318783,494.1105038318783,a,0.9267096400726587,10,870,2,495.0609273829032,496.5611714848783,496.5611714848783,497.06161015387625,,,,,,,,,,,,,,,,,,,,,,,,,,,,,,,,,,,,,,,,,,,,,,,,,,,,,,,,,,,,,,,,,58413,2022-11-17_13h58.43.079,vts_reward_expectancy_bt_OFFLINE,2022.2.4,59.86501480712133,
0,1,0,0,0,0,0,1,circle,star,2,0,2,0,3,0,36,5,,,,,,,,,,,,,,,,,,,,,,,,,,,,,,,,,,,,,,,,497.06161015387625,497.06161015387625,497.06161015387625,497.06161015387625,497.06161015387625,497.06161015387625,497.06161015387625,497.06161015387625,497.06161015387625,497.06161015387625,a,0.6091852232348174,10,880,2,497.6973578268662,499.19725794391707,499.19725794391707,499.6973750558682,,,,,,,,,,,,,,,,,,,,,,,,,,,,,,,,,,,,,,,,,,,,,,,,,,,,,,,,,,,,,,,,,58413,2022-11-17_13h58.43.079,vts_reward_expectancy_bt_OFFLINE,2022.2.4,59.86501480712133,
0,0,1,0,0,1,0,0,hexagon,circle,2,0,2,0,3,1,37,7,,,,,,,,,,,,,,,,,,,,,,,,,,,,,,,,,,,,,,,,499.6973750558682,499.6973750558682,499.6973750558682,499.6973750558682,499.6973750558682,499.6973750558682,499.6973750558682,499.6973750558682,499.6973750558682,499.6973750558682,l,0.7972163639497012,10,890,2,500.5148721889127,502.0149757480249,502.0149757480249,502.5127985009458,,,,,,,,,,,,,,,,,,,,,,,,,,,,,,,,,,,,,,,,,,,,,,,,,,,,,,,,,,,,,,,,,58413,2022-11-17_13h58.43.079,vts_reward_expectancy_bt_OFFLINE,2022.2.4,59.86501480712133,
0,1,0,0,1,0,0,0,circle,triangle,2,0,2,0,3,2,38,3,,,,,,,,,,,,,,,,,,,,,,,,,,,,,,,,,,,,,,,,502.5127985009458,502.5127985009458,502.5127985009458,502.5127985009458,502.5127985009458,502.5127985009458,502.5127985009458,502.5127985009458,502.5127985009458,502.5127985009458,a,0.557949131121859,1,891,2,503.10269529582,504.6178584219888,,,,,,,,,,,,,,,,,,,,,,,,,,,,,,,,,,,,,,,,,,,,,,,,,,,,,,,,,,,,,,,,,,,58413,2022-11-17_13h58.43.079,vts_reward_expectancy_bt_OFFLINE,2022.2.4,59.86501480712133,
1,0,0,0,0,0,0,1,triangle,star,2,0,2,0,3,3,39,2,,,,,,,,,,,,,,,,,,,,,,,,,,,,,,,,,,,,,,,,505.11820924584754,505.11820924584754,505.11820924584754,505.11820924584754,505.11820924584754,505.11820924584754,505.11820924584754,505.11820924584754,505.11820924584754,505.11820924584754,a,0.7532962278928608,10,901,2,505.90380504284985,507.4188715238124,,,,,,,,,,,,,,,,,,,,,,,,,,,,,,,,,,,,,,,,,,,,,,,,,,,,,,,,,,,,,,,,,,,58413,2022-11-17_13h58.43.079,vts_reward_expectancy_bt_OFFLINE,2022.2.4,59.86501480712133,
0,0,1,0,0,0,0,1,hexagon,star,2,0,2,0,3,4,40,8,,,,,,,,,,,,,,,,,,,,,,,,,,,,,,,,,,,,,,,,507.9041093690321,507.9041093690321,507.9041093690321,507.9041093690321,507.9041093690321,507.9041093690321,507.9041093690321,507.9041093690321,507.9041093690321,507.9041093690321,a,0.6911823030095547,1,902,2,508.6236179508269,510.1217077500187,,510.6214973558672,,,,,,,,,,,,,,,,,,,,,,,,,,,,,,,,,,,,,,,,,,,,,,,,,,,,,,,,,,,,,,,,,58413,2022-11-17_13h58.43.079,vts_reward_expectancy_bt_OFFLINE,2022.2.4,59.86501480712133,
0,0,0,1,0,0,1,0,star,hexagon,2,0,2,0,3,5,41,11,,,,,,,,,,,,,,,,,,,,,,,,,,,,,,,,,,,,,,,,510.6214973558672,510.6214973558672,510.6214973558672,510.6214973558672,510.6214973558672,510.6214973558672,510.6214973558672,510.6214973558672,510.6214973558672,510.6214973558672,l,0.7074583240319043,1,903,2,511.35572651284747,512.8574436039198,,,,,,,,,,,,,,,,,,,,,,,,,,,,,,,,,,,,,,,,,,,,,,,,,,,,,,,,,,,,,,,,,,,58413,2022-11-17_13h58.43.079,vts_reward_expectancy_bt_OFFLINE,2022.2.4,59.86501480712133,
0,0,1,0,1,0,0,0,hexagon,triangle,2,0,2,0,3,6,42,6,,,,,,,,,,,,,,,,,,,,,,,,,,,,,,,,,,,,,,,,513.357961185975,513.357961185975,513.357961185975,513.357961185975,513.357961185975,513.357961185975,513.357961185975,513.357961185975,513.357961185975,513.357961185975,l,0.8163852612487972,10,913,2,514.1942372198682,515.7086079819128,,,,,,,,,,,,,,,,,,,,,,,,,,,,,,,,,,,,,,,,,,,,,,,,,,,,,,,,,,,,,,,,,,,58413,2022-11-17_13h58.43.079,vts_reward_expectancy_bt_OFFLINE,2022.2.4,59.86501480712133,
0,1,0,0,0,0,1,0,circle,hexagon,2,0,2,0,3,7,43,4,,,,,,,,,,,,,,,,,,,,,,,,,,,,,,,,,,,,,,,,516.2087860528845,516.2087860528845,516.2087860528845,516.2087860528845,516.2087860528845,516.2087860528845,516.2087860528845,516.2087860528845,516.2087860528845,516.2087860528845,a,0.6771256208885461,1,914,2,516.9114675240126,518.411412301939,,,,,,,,,,,,,,,,,,,,,,,,,,,,,,,,,,,,,,,,,,,,,,,,,,,,,,,,,,,,,,,,,,,58413,2022-11-17_13h58.43.079,vts_reward_expectancy_bt_OFFLINE,2022.2.4,59.86501480712133,
0,0,0,1,0,1,0,0,star ,circle,2,0,2,0,3,8,44,10,,,,,,,,,,,,,,,,,,,,,,,,,,,,,,,,,,,,,,,,518.9117463298608,518.9117463298608,518.9117463298608,518.9117463298608,518.9117463298608,518.9117463298608,518.9117463298608,518.9117463298608,518.9117463298608,518.9117463298608,l,0.6068114291410893,10,924,2,519.5477860958781,521.0625292449258,,,,,,,,,,,,,,,,,,,,,,,,,,,,,,,,,,,,,,,,,,,,,,,,,,,,,,,,,,,,,,,,,,,58413,2022-11-17_13h58.43.079,vts_reward_expectancy_bt_OFFLINE,2022.2.4,59.86501480712133,
1,0,0,0,0,0,1,0,triangle,hexagon,2,0,2,0,3,9,45,1,,,,,,,,,,,,,,,,,,,,,,,,,,,,,,,,,,,,,,,,521.5627055109944,521.5627055109944,521.5627055109944,521.5627055109944,521.5627055109944,521.5627055109944,521.5627055109944,521.5627055109944,521.5627055109944,521.5627055109944,a,1.6344161410816014,10,934,2,523.2153314438183,524.715619609924,524.715619609924,,,,,,,,,,,,,,,,,,,,,,,,,,,,,,,,,,,,,,,,,,,,,,,,,,,,,,,,,,,,,,,,,,58413,2022-11-17_13h58.43.079,vts_reward_expectancy_bt_OFFLINE,2022.2.4,59.86501480712133,
1,0,0,0,0,1,0,0,triangle,circle,2,0,2,0,3,10,46,0,,,,,,,,,,,,,,,,,,,,,,,,,,,,,,,,,,,,,,,,525.2158659258857,525.2158659258857,525.2158659258857,525.2158659258857,525.2158659258857,525.2158659258857,525.2158659258857,525.2158659258857,525.2158659258857,525.2158659258857,l,0.7727270130999386,10,944,2,526.0167005870026,527.516715535894,527.516715535894,,,,,,,,,,,,,,,,,,,,,,,,,,,,,,,,,,,,,,,,,,,,,,,,,,,,,,,,,,,,,,,,,,58413,2022-11-17_13h58.43.079,vts_reward_expectancy_bt_OFFLINE,2022.2.4,59.86501480712133,
0,0,0,1,1,0,0,0,star,triangle,2,0,2,0,3,11,47,9,,,,,,,,,,,,,,,,,,,,,,,,,,,,,,,,,,,,,,,,528.018548093969,528.018548093969,528.018548093969,528.018548093969,528.018548093969,528.018548093969,528.018548093969,528.018548093969,528.018548093969,528.018548093969,l,0.849197442876175,10,954,2,528.886046399828,530.3863616799936,530.3863616799936,530.8927260208875,,,,,,,,,,,,,,,,,,,,,,,,,,,,,,,,,,,,,,,,,,,,,,,,,,,,,,,,,,,,,,,,,58413,2022-11-17_13h58.43.079,vts_reward_expectancy_bt_OFFLINE,2022.2.4,59.86501480712133,
,,,,,,,,,,,,,,,,,,0,0,0,0,0,0,0,0,,,,,,,,,,,,,,,,,,,,,,,,,,,,,,,,,,,,,,,,,,,,,,,,580.5725748590194,,,F,125,triangle,0.017228942131623626,576.1153434999287,577.5914991828613,577.5914991828613,577.5914991828613,1,0,d,1.4314756521489471,0,579.0579048369545,,,,,,,,,,,,,,,,,,,,,,,,,,,,,,,,,,,,,,,,,,,,,,,,,,,58413,2022-11-17_13h58.43.079,vts_reward_expectancy_bt_OFFLINE,2022.2.4,59.86501480712133,
,,,,,,,,,,,,,,,,,,0,0,0,0,1,0,1,0,,,,,,,,,,,,,,,,,,,,,,,,,,,,,,,,,,,,,,,,,,,,,,,,585.2094656988047,,585.7094589530025,Y,181,hexagon,0.01563583593815565,581.5693935570307,583.0421896299813,583.0421896299813,583.0421896299813,1,0,f,0.6503570559434593,0,583.7101128268987,585.2094656988047,,,,,,,,,,,,,,,,,,,,,,,,,,,,,,,,,,,,,,,,,,,,,,,,,,58413,2022-11-17_13h58.43.079,vts_reward_expectancy_bt_OFFLINE,2022.2.4,59.86501480712133,
,,,,,,,,,,,,,,,,,,0,0,0,0,2,0,2,0,,,,,,,,,,,,,,,,,,,,,,,,,,,,,,,,,,,,,,,,,,,,,,,,590.1128489440307,,590.613067163853,U,139,circle,-8.76991543918848e-05,586.2063400479965,587.6957219569013,587.6957219569013,587.6957219569013,1,0,f,0.889789768261835,0,588.6132652380038,590.1128489440307,,,,,,,,,,,,,,,,,,,,,,,,,,,,,,,,,,,,,,,,,,,,,,,,,,58413,2022-11-17_13h58.43.079,vts_reward_expectancy_bt_OFFLINE,2022.2.4,59.86501480712133,
,,,,,,,,,,,,,,,,,,0,0,0,0,3,0,3,0,,,,,,,,,,,,,,,,,,,,,,,,,,,,,,,,,,,,,,,,,,,,,,,,596.8006231808104,,,D,146,star,0.0003742289263755083,591.1106224409305,592.6023121247999,592.6023121247999,592.6023121247999,1,0,d,2.6663234550505877,0,595.300607186975,,,,,,,,,,,,,,,,,,,,,,,,,,,,,,,,,,,,,,,,,,,,,,,,,,,58413,2022-11-17_13h58.43.079,vts_reward_expectancy_bt_OFFLINE,2022.2.4,59.86501480712133,
,,,,,,,,,,,,,,,,,,0,0,0,0,4,0,4,0,,,,,,,,,,,,,,,,,,,,,,,,,,,,,,,,,,,,,,,,,,,,,,,,601.5041086319834,,602.0042689258698,H,132,triangle,0.0006728959269821644,597.7970136548392,599.2868527458049,599.2868527458049,599.2868527458049,1,0,d,0.684658823069185,0,600.0038427268155,601.5041086319834,,,,,,,,,,,,,,,,,,,,,,,,,,,,,,,,,,,,,,,,,,,,,,,,,,58413,2022-11-17_13h58.43.079,vts_reward_expectancy_bt_OFFLINE,2022.2.4,59.86501480712133,
,,,,,,,,,,,,,,,,,,0,0,0,0,5,0,5,0,,,,,,,,,,,,,,,,,,,,,,,,,,,,,,,,,,,,,,,,,,,,,,,,606.0741281039082,,606.5744357858784,W,167,circle,-0.00021228683181107044,602.501009055879,603.9903872588184,603.9903872588184,603.9903872588184,1,0,f,0.5597794952336699,0,604.5741071908269,606.0741281039082,,,,,,,,,,,,,,,,,,,,,,,,,,,,,,,,,,,,,,,,,,,,,,,,,,58413,2022-11-17_13h58.43.079,vts_reward_expectancy_bt_OFFLINE,2022.2.4,59.86501480712133,
,,,,,,,,,,,,,,,,,,0,0,0,0,6,0,6,0,,,,,,,,,,,,,,,,,,,,,,,,,,,,,,,,,,,,,,,,,,,,,,,,610.6276010349393,,611.1279276078567,B,160,hexagon,0.00046505010686814785,607.0711742918938,608.5605968448799,608.5605968448799,608.5605968448799,1,0,d,0.5466739069670439,0,609.1278808068018,610.6276010349393,,,,,,,,,,,,,,,,,,,,,,,,,,,,,,,,,,,,,,,,,,,,,,,,,,58413,2022-11-17_13h58.43.079,vts_reward_expectancy_bt_OFFLINE,2022.2.4,59.86501480712133,
,,,,,,,,,,,,,,,,,,0,0,0,0,7,0,7,0,,,,,,,,,,,,,,,,,,,,,,,,,,,,,,,,,,,,,,,,,,,,,,,,615.2812983738258,,,S,174,star,0.0005761801730841398,611.6246128638741,613.1140995328315,613.1140995328315,613.1140995328315,1,0,f,0.6396667351946235,0,613.7811551329214,615.2812983738258,,,,,,,,,,,,,,,,,,,,,,,,,,,,,,,,,,,,,,,,,,,,,,,,,,58413,2022-11-17_13h58.43.079,vts_reward_expectancy_bt_OFFLINE,2022.2.4,59.86501480712133,
,,,,,,,,,,,,,,,,,,0,0,0,0,8,0,8,0,,,,,,,,,,,,,,,,,,,,,,,,,,,,,,,,,,,,,,,,,,,,,,,,620.0017251519021,,620.5016823248006,F,125,hexagon,0.000553398160263896,616.2767387069762,617.7675564258825,617.7675564258825,617.7675564258825,1,0,d,0.7117475599516183,0,618.5013365028426,620.0017251519021,,,,,,,,,,,,,,,,,,,,,,,,,,,,,,,,,,,,,,,,,,,,,,,,,,58413,2022-11-17_13h58.43.079,vts_reward_expectancy_bt_OFFLINE,2022.2.4,59.86501480712133,
,,,,,,,,,,,,,,,,,,0,0,0,0,9,0,9,0,,,,,,,,,,,,,,,,,,,,,,,,,,,,,,,,,,,,,,,,,,,,,,,,624.5883386449423,,,Y,181,circle,0.000642324099317193,620.997111880919,622.4857175289653,622.4857175289653,622.4857175289653,1,0,f,0.5828985129483044,0,623.0884136839304,624.5883386449423,,,,,,,,,,,,,,,,,,,,,,,,,,,,,,,,,,,,,,,,,,,,,,,,,,58413,2022-11-17_13h58.43.079,vts_reward_expectancy_bt_OFFLINE,2022.2.4,59.86501480712133,
,,,,,,,,,,,,,,,,,,,,,,,,,,0,0,0,0,0,0,0,0,,,,,,,,,,,,,,,,,,,,,,,,,,,,,,,,,,,,,,,,649.4732985589653,,649.9731755899265,B,139,hexagon,0.002375063020735979,,,,,1,0,,,1,647.9734488658141,649.4732985589653,645.0322807379998,646.520286927931,646.520286927931,646.520286927931,j,1.4234715551137924,,,,,,,,,,,,,,,,,,,,,,,,,,,,,,,,,,,,,,,,,,,,58413,2022-11-17_13h58.43.079,vts_reward_expectancy_bt_OFFLINE,2022.2.4,59.86501480712133,
,,,,,,,,,,,,,,,,,,,,,,,,,,0,0,0,0,1,0,1,0,,,,,,,,,,,,,,,,,,,,,,,,,,,,,,,,,,,,,,,,654.1766648120247,,,Y,125,circle,0.0002774579916149378,,,,,1,0,,,1,652.6625472258311,,650.4694332859945,651.9573227518704,651.9573227518704,651.9573227518704,j,0.6782145430333912,,,,,,,,,,,,,,,,,,,,,,,,,,,,,,,,,,,,,,,,,,,,58413,2022-11-17_13h58.43.079,vts_reward_expectancy_bt_OFFLINE,2022.2.4,59.86501480712133,
,,,,,,,,,,,,,,,,,,,,,,,,,,0,0,0,0,2,0,2,0,,,,,,,,,,,,,,,,,,,,,,,,,,,,,,,,,,,,,,,,658.713439439889,,,U,167,triangle,0.009828703012317419,,,,,1,0,,,1,657.2117091948166,,655.1724301448558,656.6609317138791,656.6609317138791,656.6609317138791,k,0.5193437370471656,,,,,,,,,,,,,,,,,,,,,,,,,,,,,,,,,,,,,,,,,,,,58413,2022-11-17_13h58.43.079,vts_reward_expectancy_bt_OFFLINE,2022.2.4,59.86501480712133,
,,,,,,,,,,,,,,,,,,,,,,,,,,0,0,0,0,3,0,3,0,,,,,,,,,,,,,,,,,,,,,,,,,,,,,,,,,,,,,,,,663.4168325138744,,,D,160,star,0.0021309470757842064,,,,,1,0,,,1,661.9145994170103,,659.7092906918842,661.1976659169886,661.1976659169886,661.1976659169886,k,0.68507249513641,,,,,,,,,,,,,,,,,,,,,,,,,,,,,,,,,,,,,,,,,,,,58413,2022-11-17_13h58.43.079,vts_reward_expectancy_bt_OFFLINE,2022.2.4,59.86501480712133,
,,,,,,,,,,,,,,,,,,,,,,,,,,0,0,0,0,4,0,4,0,,,,,,,,,,,,,,,,,,,,,,,,,,,,,,,,,,,,,,,,668.0040140729398,,,W,174,circle,0.0010465241502970457,,,,,1,0,,,1,666.5020586720202,,664.4126856448129,665.9010505678598,665.9010505678598,665.9010505678598,k,0.5833766399882734,,,,,,,,,,,,,,,,,,,,,,,,,,,,,,,,,,,,,,,,,,,,58413,2022-11-17_13h58.43.079,vts_reward_expectancy_bt_OFFLINE,2022.2.4,59.86501480712133,
,,,,,,,,,,,,,,,,,,,,,,,,,,0,0,0,0,5,0,5,0,,,,,,,,,,,,,,,,,,,,,,,,,,,,,,,,,,,,,,,,672.9575969798025,,,F,146,hexagon,0.001853402005508542,,,,,1,0,,,1,671.45589680993,,668.9992308618966,670.4879820169881,670.4879820169881,670.4879820169881,j,0.9362267490942031,,,,,,,,,,,,,,,,,,,,,,,,,,,,,,,,,,,,,,,,,,,,58413,2022-11-17_13h58.43.079,vts_reward_expectancy_bt_OFFLINE,2022.2.4,59.86501480712133,
,,,,,,,,,,,,,,,,,,,,,,,,,,0,0,0,0,6,0,6,0,,,,,,,,,,,,,,,,,,,,,,,,,,,,,,,,,,,,,,,,677.6260293889791,,,H,181,triangle,0.007910160114988685,,,,,1,0,,,1,676.126082865987,677.6260293889791,673.9553578998893,675.4413464148529,675.4413464148529,675.4413464148529,k,0.6633781441487372,,,,,,,,,,,,,,,,,,,,,,,,,,,,,,,,,,,,,,,,,,,,58413,2022-11-17_13h58.43.079,vts_reward_expectancy_bt_OFFLINE,2022.2.4,59.86501480712133,
,,,,,,,,,,,,,,,,,,,,,,,,,,0,0,0,0,7,0,7,0,,,,,,,,,,,,,,,,,,,,,,,,,,,,,,,,,,,,,,,,682.4127248739824,,,S,132,star,0.002159261144697666,,,,,1,0,,,1,680.9128867578693,682.4127248739824,678.6232236169744,680.1119988260325,680.1119988260325,680.1119988260325,j,0.7739299980457872,,,,,,,,,,,,,,,,,,,,,,,,,,,,,,,,,,,,,,,,,,,,58413,2022-11-17_13h58.43.079,vts_reward_expectancy_bt_OFFLINE,2022.2.4,59.86501480712133,
,,,,,,,,,,,,,,,,,,,,,,,,,,0,0,0,0,8,0,8,0,,,,,,,,,,,,,,,,,,,,,,,,,,,,,,,,,,,,,,,,687.1163462868426,,687.6164807269815,B,139,triangle,0.0018493570387363434,,,,,1,0,,,1,685.6165659038816,687.1163462868426,683.4097849789541,684.8987743179314,684.8987743179314,684.8987743179314,j,0.6899601530749351,,,,,,,,,,,,,,,,,,,,,,,,,,,,,,,,,,,,,,,,,,,,58413,2022-11-17_13h58.43.079,vts_reward_expectancy_bt_OFFLINE,2022.2.4,59.86501480712133,
,,,,,,,,,,,,,,,,,,,,,,,,,,0,0,0,0,9,0,9,0,,,,,,,,,,,,,,,,,,,,,,,,,,,,,,,,,,,,,,,,691.7196377059445,,692.2226598500274,Y,125,star,0.00033597415313124657,,,,,1,0,,,1,690.220063886838,691.7196377059445,688.1125880118925,689.6024018779863,689.6024018779863,689.6024018779863,j,0.598817917983979,,,,,,,,,,,,,,,,,,,,,,,,,,,,,,,,,,,,,,,,,,,,58413,2022-11-17_13h58.43.079,vts_reward_expectancy_bt_OFFLINE,2022.2.4,59.86501480712133,
,,,,,,,,,,,,,,,,,,,,,,,,,,,,,,,,,,0,0,0,0,0,0,0,0,,,,,,,,,,,,,,,,,,,,,,,,,,,,0,954,,,737.1359002278186,,,D,174,triangle,0.0008919420652091503,,,,,1,0,,,2,,,,,,,,,731.8626723198686,731.8626723198686,731.8626723198686,731.8626723198686,733.3512424109504,733.3512424109504,733.3512424109504,733.3512424109504,733.3676262078807,733.3676262078807,733.3676262078807,733.3676262078807,-1,letter,NA,d,2.2456073069479316,vtsPrac,735.6227709539235,,,,,,,,,,,,,,,,,,,,,,,,,58413,2022-11-17_13h58.43.079,vts_reward_expectancy_bt_OFFLINE,2022.2.4,59.86501480712133,
,,,,,,,,,,,,,,,,,,,,,,,,,,,,,,,,,,0,0,0,0,1,0,1,0,,,,,,,,,,,,,,,,,,,,,,,,,,,,0,954,,,743.3917200579308,,,U,146,star,0.016763412859290838,,,,,1,0,,,2,,,,,,,,,738.1325973498169,738.1325973498169,738.1325973498169,738.1325973498169,739.6054791649804,739.6054791649804,739.6054791649804,739.6054791649804,739.6386631529313,739.6386631529313,739.6386631529313,739.6386631529313,switch,number,numSwt,j,2.2587462400551885,vtsPrac,741.8902257988229,,,,,,,,,,,,,,,,,,,,,,,,,58413,2022-11-17_13h58.43.079,vts_reward_expectancy_bt_OFFLINE,2022.2.4,59.86501480712133,
,,,,,,,,,,,,,,,,,,,,,,,,,,,,,,,,,,0,0,0,0,2,0,2,0,,,,,,,,,,,,,,,,,,,,,,,,,,,,0,954,,,748.2954901398625,,,Y,125,hexagon,0.0020031051244586706,,,,,1,0,,,2,,,,,,,,,744.387926992029,744.387926992029,744.387926992029,744.387926992029,745.8760894858278,745.8760894858278,745.8760894858278,745.8760894858278,745.8926348478999,745.8926348478999,745.8926348478999,745.8926348478999,switch,letter,lettSwt,f,0.892692097928375,vtsPrac,746.7940877438523,,,,,,,,,,,,,,,,,,,,,,,,,58413,2022-11-17_13h58.43.079,vts_reward_expectancy_bt_OFFLINE,2022.2.4,59.86501480712133,
,,,,,,,,,,,,,,,,,,,,,,,,,,,,,,,,,,0,0,0,0,3,0,3,0,,,,,,,,,,,,,,,,,,,,,,,,,,,,0,954,,,753.300454627024,,,H,139,triangle,0.001727103954181075,,,,,1,0,,,2,,,,,,,,,749.291857627919,749.291857627919,749.291857627919,749.291857627919,750.7796024659183,750.7796024659183,750.7796024659183,750.7796024659183,750.7962911329232,750.7962911329232,750.7962911329232,750.7962911329232,repeat,letter,lettRpt,d,0.9950921789277345,vtsPrac,751.7978553059511,,,,,,,,,,,,,,,,,,,,,,,,,58413,2022-11-17_13h58.43.079,vts_reward_expectancy_bt_OFFLINE,2022.2.4,59.86501480712133,
,,,,,,,,,,,,,,,,,,,,,,,,,,,,,,,,,,0,0,0,0,4,0,4,0,,,,,,,,,,,,,,,,,,,,,,,,,,,,0,954,,,758.0192687730305,,,D,174,hexagon,0.0017383769154548645,,,,,1,0,,,2,,,,,,,,,754.2945836589206,754.2945836589206,754.2945836589206,754.2945836589206,755.7834013279062,755.7834013279062,755.7834013279062,755.7834013279062,755.7999870418571,755.7999870418571,755.7999870418571,755.7999870418571,switch,number,numSwt,k,0.7052698959596455,vtsPrac,756.5182574619539,,,,,,,,,,,,,,,,,,,,,,,,,58413,2022-11-17_13h58.43.079,vts_reward_expectancy_bt_OFFLINE,2022.2.4,59.86501480712133,
,,,,,,,,,,,,,,,,,,,,,,,,,,,,,,,,,,0,0,0,0,5,0,5,0,,,,,,,,,,,,,,,,,,,,,,,,,,,,0,954,,,763.1563442829065,,,U,146,triangle,0.0018116640858352184,,,,,1,0,,,2,,,,,,,,,759.0145633288193,759.0145633288193,759.0145633288193,759.0145633288193,760.503289434826,760.503289434826,760.503289434826,760.503289434826,760.5201616249979,760.5201616249979,760.5201616249979,760.5201616249979,repeat,number,numRpt,j,1.1276085360441357,vtsPrac,761.6546820839867,,,,,,,,,,,,,,,,,,,,,,,,,58413,2022-11-17_13h58.43.079,vts_reward_expectancy_bt_OFFLINE,2022.2.4,59.86501480712133,
,,,,,,,,,,,,,,,,,,,,,,,,,,,,,,,,,,0,0,0,0,6,0,6,0,,,,,,,,,,,,,,,,,,,,,,,,,,,,0,954,,,767.8595716229174,,,Y,125,triangle,0.0018631001003086567,,,,,1,0,,,2,,,,,,,,,764.1516231619753,764.1516231619753,764.1516231619753,764.1516231619753,765.6403041959275,765.6403041959275,765.6403041959275,765.6403041959275,765.6572379330173,765.6572379330173,765.6572379330173,765.6572379330173,switch,letter,lettSwt,f,0.6927328361198306,vtsPrac,766.3582098418847,,,,,,,,,,,,,,,,,,,,,,,,,58413,2022-11-17_13h58.43.079,vts_reward_expectancy_bt_OFFLINE,2022.2.4,59.86501480712133,
,,,,,,,,,,,,,,,,,,,,,,,,,,,,,,,,,,0,0,0,0,7,0,7,0,,,,,,,,,,,,,,,,,,,,,,,,,,,,0,954,,,773.6804618798196,,,H,139,circle,0.001974188955500722,,,,,1,0,,,2,,,,,,,,,768.85532959993,768.85532959993,768.85532959993,768.85532959993,770.3438640639652,770.3438640639652,770.3438640639652,770.3438640639652,770.3605803488754,770.3605803488754,770.3605803488754,770.3605803488754,switch,number,numSwt,j,1.8170241611078382,vtsPrac,772.1794742888305,,,,,,,,,,,,,,,,,,,,,,,,,58413,2022-11-17_13h58.43.079,vts_reward_expectancy_bt_OFFLINE,2022.2.4,59.86501480712133,
,,,,,,,,,,,,,,,,,,,,,,,,,,,,,,,,,,0,0,0,0,8,0,8,0,,,,,,,,,,,,,,,,,,,,,,,,,,,,0,954,,,779.0676275659353,,,U,139,circle,0.0019669539760798216,,,,,1,0,,,2,,,,,,,,,774.6763281528838,774.6763281528838,774.6763281528838,774.6763281528838,776.1644450018648,776.1644450018648,776.1644450018648,776.1644450018648,776.181182477856,776.181182477856,776.181182477856,776.181182477856,repeat,number,numRpt,j,1.3749440440442413,vtsPrac,777.5660711359233,,,,,,,,,,,,,,,,,,,,,,,,,58413,2022-11-17_13h58.43.079,vts_reward_expectancy_bt_OFFLINE,2022.2.4,59.86501480712133,
,,,,,,,,,,,,,,,,,,,,,,,,,,,,,,,,,,0,0,0,0,9,0,9,0,,,,,,,,,,,,,,,,,,,,,,,,,,,,0,954,,,784.0879218648188,,,W,174,star,0.0018453660886734724,,,,,1,0,,,2,,,,,,,,,780.0637026659679,780.0637026659679,780.0637026659679,780.0637026659679,781.5515455459245,781.5515455459245,781.5515455459245,781.5515455459245,781.5684907599352,781.5684907599352,781.5684907599352,781.5684907599352,switch,letter,lettSwt,f,1.0162065501790494,vtsPrac,782.58681574394,,,,,,,,,,,,,,,,,,,,,,,,,58413,2022-11-17_13h58.43.079,vts_reward_expectancy_bt_OFFLINE,2022.2.4,59.86501480712133,
,,,,,,,,,,,,,,,,,,,,,,,,,,,,,,,,,,0,0,0,0,10,0,10,0,,,,,,,,,,,,,,,,,,,,,,,,,,,,0,954,,,789.5580931468867,,790.0585481110029,S,167,hexagon,0.0018668179400265217,,,,,1,0,,,2,,,,,,,,,785.0840726639144,785.0840726639144,785.0840726639144,785.0840726639144,786.572068591835,786.572068591835,786.572068591835,786.572068591835,786.5888058608398,786.5888058608398,786.5888058608398,786.5888058608398,switch,number,numSwt,k,1.4525691410526633,vtsPrac,788.0578535418026,789.5580931468867,,,,,,,,,,,,,,,,,,,,,,,,58413,2022-11-17_13h58.43.079,vts_reward_expectancy_bt_OFFLINE,2022.2.4,59.86501480712133,
,,,,,,,,,,,,,,,,,,,,,,,,,,,,,,,,,,0,0,0,0,11,0,11,0,,,,,,,,,,,,,,,,,,,,,,,,,,,,0,954,,,794.8287897508126,,795.3288645178545,D,125,triangle,-0.0006862010341137648,,,,,1,0,,,2,,,,,,,,,790.5661540408619,790.5661540408619,790.5661540408619,790.5661540408619,792.0425199228339,792.0425199228339,792.0425199228339,792.0425199228339,792.0760692809708,792.0760692809708,792.0760692809708,792.0760692809708,switch,letter,lettSwt,d,1.2589900810271502,vtsPrac,793.3291108158883,794.8287897508126,,,,,,,,,,,,,,,,,,,,,,,,58413,2022-11-17_13h58.43.079,vts_reward_expectancy_bt_OFFLINE,2022.2.4,59.86501480712133,
,,,,,,,,,,,,,,,,,,,,,,,,,,,,,,,,,,0,0,0,0,12,0,12,0,,,,,,,,,,,,,,,,,,,,,,,,,,,,0,954,,,800.1323042749427,,800.6325603339355,Y,174,hexagon,0.0006661969237029552,,,,,1,0,,,2,,,,,,,,,795.8248885548674,795.8248885548674,795.8248885548674,795.8248885548674,797.312795514008,797.312795514008,797.312795514008,797.312795514008,797.32958035497,797.32958035497,797.32958035497,797.32958035497,repeat,letter,lettRpt,f,1.2873956109397113,vtsPrac,798.6319043999538,800.1323042749427,,,,,,,,,,,,,,,,,,,,,,,,58413,2022-11-17_13h58.43.079,vts_reward_expectancy_bt_OFFLINE,2022.2.4,59.86501480712133,
,,,,,,,,,,,,,,,,,,,,,,,,,,,,,,,,,,0,0,0,0,13,0,13,0,,,,,,,,,,,,,,,,,,,,,,,,,,,,0,954,,,805.1362564340234,,805.6362982678693,B,132,star,0.014864573022350669,,,,,1,0,,,2,,,,,,,,,801.1451476358343,801.1451476358343,801.1451476358343,801.1451476358343,802.6331987290177,802.6331987290177,802.6331987290177,802.6331987290177,802.6500696570147,802.6500696570147,802.6500696570147,802.6500696570147,repeat,letter,lettRpt,d,0.9844719031825662,vtsPrac,803.6367055929732,805.1362564340234,,,,,,,,,,,,,,,,,,,,,,,,58413,2022-11-17_13h58.43.079,vts_reward_expectancy_bt_OFFLINE,2022.2.4,59.86501480712133,
,,,,,,,,,,,,,,,,,,,,,,,,,,,,,,,,,,0,0,0,0,14,0,14,0,,,,,,,,,,,,,,,,,,,,,,,,,,,,0,954,,,810.3063744648825,,810.8065871719737,H,125,star,0.0003278970252722502,,,,,1,0,,,2,,,,,,,,,806.1322334748693,806.1322334748693,806.1322334748693,806.1322334748693,807.6201840080321,807.6201840080321,807.6201840080321,807.6201840080321,807.6369760700036,807.6369760700036,807.6369760700036,807.6369760700036,switch,number,numSwt,j,1.16134194098413,vtsPrac,808.8070284018759,810.3063744648825,,,,,,,,,,,,,,,,,,,,,,,,58413,2022-11-17_13h58.43.079,vts_reward_expectancy_bt_OFFLINE,2022.2.4,59.86501480712133,
,,,,,,,,,,,,,,,,,,,,,,,,,,,,,,,,,,0,0,0,0,15,0,15,0,,,,,,,,,,,,,,,,,,,,,,,,,,,,0,954,,,815.860059292987,,816.360517869005,F,160,circle,0.00028785597532987595,,,,,1,0,,,2,,,,,,,,,811.3033409069758,811.3033409069758,811.3033409069758,811.3033409069758,812.7926445929334,812.7926445929334,812.7926445929334,812.7926445929334,812.8092491410207,812.8092491410207,812.8092491410207,812.8092491410207,switch,letter,lettSwt,d,1.5465654709842056,vtsPrac,814.3609471379314,815.860059292987,,,,,,,,,,,,,,,,,,,,,,,,58413,2022-11-17_13h58.43.079,vts_reward_expectancy_bt_OFFLINE,2022.2.4,59.86501480712133,
,,,,,,,,,,,,,,,,,,,,,,,,,,,,,,,,,,0,0,0,0,16,0,16,0,,,,,,,,,,,,,,,,,,,,,,,,,,,,0,954,,,820.8138772789389,,821.314347948879,U,167,hexagon,0.000521776033565402,,,,,1,0,,,2,,,,,,,,,816.8566055009142,816.8566055009142,816.8566055009142,816.8566055009142,818.3462982778437,818.3462982778437,818.3462982778437,818.3462982778437,818.3631022218615,818.3631022218615,818.3631022218615,818.3631022218615,switch,number,numSwt,k,0.9430584639776498,vtsPrac,819.3145412409212,820.8138772789389,,,,,,,,,,,,,,,,,,,,,,,,58413,2022-11-17_13h58.43.079,vts_reward_expectancy_bt_OFFLINE,2022.2.4,59.86501480712133,
,,,,,,,,,,,,,,,,,,,,,,,,,,,,,,,,,,0,0,0,0,17,0,17,0,,,,,,,,,,,,,,,,,,,,,,,,,,,,0,954,,,826.1509357190225,,826.6511690740008,S,181,star,0.0002632690593600273,,,,,1,0,,,2,,,,,,,,,821.8106064659078,821.8106064659078,821.8106064659078,821.8106064659078,823.2999172678683,823.2999172678683,823.2999172678683,823.2999172678683,823.3168477418367,823.3168477418367,823.3168477418367,823.3168477418367,repeat,number,numRpt,k,1.3225384932011366,vtsPrac,824.6519960698206,826.1509357190225,,,,,,,,,,,,,,,,,,,,,,,,58413,2022-11-17_13h58.43.079,vts_reward_expectancy_bt_OFFLINE,2022.2.4,59.86501480712133,
,,,,,,,,,,,,,,,,,,,,,,,,,,,,,,,,,,0,0,0,0,18,0,18,0,,,,,,,,,,,,,,,,,,,,,,,,,,,,0,954,,,831.5879764379933,,832.088200080907,D,132,star,0.00027618114836513996,,,,,1,0,,,2,,,,,,,,,827.1469872610178,827.1469872610178,827.1469872610178,827.1469872610178,828.6366875539534,828.6366875539534,828.6366875539534,828.6366875539534,828.6537150389049,828.6537150389049,828.6537150389049,828.6537150389049,switch,letter,lettSwt,d,1.4314792300574481,vtsPrac,830.0887310758699,831.5879764379933,,,,,,,,,,,,,,,,,,,,,,,,58413,2022-11-17_13h58.43.079,vts_reward_expectancy_bt_OFFLINE,2022.2.4,59.86501480712133,
,,,,,,,,,,,,,,,,,,,,,,,,,,,,,,,,,,0,0,0,0,19,0,19,0,,,,,,,,,,,,,,,,,,,,,,,,,,,,0,954,,,836.9751995529514,,837.4754675098229,W,125,circle,0.0004723949823528528,,,,,1,0,,,2,,,,,,,,,832.5846709948964,832.5846709948964,832.5846709948964,832.5846709948964,834.0743386349641,834.0743386349641,834.0743386349641,834.0743386349641,834.090868688887,834.090868688887,834.090868688887,834.090868688887,switch,number,numSwt,j,1.3722055631224066,vtsPrac,835.4759699800052,836.9751995529514,,,,,,,,,,,,,,,,,,,,,,,,58413,2022-11-17_13h58.43.079,vts_reward_expectancy_bt_OFFLINE,2022.2.4,59.86501480712133,
,,,,,,,,,,,,,,,,,,,,,,,,,,,,,,,,,,0,0,0,0,20,0,20,0,,,,,,,,,,,,,,,,,,,,,,,,,,,,0,954,,,841.62879982288,,842.128883987898,B,139,hexagon,0.00016336212866008282,,,,,1,0,,,2,,,,,,,,,837.9717373838648,837.9717373838648,837.9717373838648,837.9717373838648,839.4611270669848,839.4611270669848,839.4611270669848,839.4611270669848,839.4780455038417,839.4780455038417,839.4780455038417,839.4780455038417,switch,letter,lettSwt,d,0.6423353059217334,vtsPrac,840.1291876458563,841.62879982288,,,,,,,,,,,,,,,,,,,,,,,,58413,2022-11-17_13h58.43.079,vts_reward_expectancy_bt_OFFLINE,2022.2.4,59.86501480712133,
,,,,,,,,,,,,,,,,,,,,,,,,,,,,,,,,,,0,0,0,0,21,0,21,0,,,,,,,,,,,,,,,,,,,,,,,,,,,,0,954,,,846.9825882059522,,,H,146,circle,0.000512097030878067,,,,,1,0,,,2,,,,,,,,,842.6252489308827,842.6252489308827,842.6252489308827,842.6252489308827,844.1147079488728,844.1147079488728,844.1147079488728,844.1147079488728,844.1316883619875,844.1316883619875,844.1316883619875,844.1316883619875,switch,number,numSwt,j,1.3324703150428832,vtsPrac,845.466886020964,,,,,,,,,,,,,,,,,,,,,,,,,58413,2022-11-17_13h58.43.079,vts_reward_expectancy_bt_OFFLINE,2022.2.4,59.86501480712133,
,,,,,,,,,,,,,,,,,,,,,,,,,,,,,,,,,,0,0,0,0,22,0,22,0,,,,,,,,,,,,,,,,,,,,,,,,,,,,0,954,,,852.2691646579187,,852.767131700879,F,181,circle,0.01675649988465011,,,,,1,0,,,2,,,,,,,,,847.9789041159675,847.9789041159675,847.9789041159675,847.9789041159675,849.451939748833,849.451939748833,849.451939748833,849.451939748833,849.4851945608389,849.4851945608389,849.4851945608389,849.4851945608389,repeat,number,numRpt,k,1.2940545079763979,vtsPrac,850.7701703868806,852.2691646579187,,,,,,,,,,,,,,,,,,,,,,,,58413,2022-11-17_13h58.43.079,vts_reward_expectancy_bt_OFFLINE,2022.2.4,59.86501480712133,
,,,,,,,,,,,,,,,,,,,,,,,,,,,,,,,,,,0,0,0,0,23,0,23,0,,,,,,,,,,,,,,,,,,,,,,,,,,,,0,954,,,857.2897906859871,,,D,132,triangle,0.00043314509093761444,,,,,1,0,,,2,,,,,,,,,853.2776630020235,853.2776630020235,853.2776630020235,853.2776630020235,854.7556718559936,854.7556718559936,854.7556718559936,854.7556718559936,854.7889145989902,854.7889145989902,854.7889145989902,854.7889145989902,switch,letter,lettSwt,d,1.0085633269045502,vtsPrac,855.7907336889766,857.2897906859871,,,,,,,,,,,,,,,,,,,,,,,,58413,2022-11-17_13h58.43.079,vts_reward_expectancy_bt_OFFLINE,2022.2.4,59.86501480712133,
,,,,,,,,,,,,,,,,,,,,,,,,,,,,,,,,,,0,0,0,0,24,0,24,0,,,,,,,,,,,,,,,,,,,,,,,,,,,,0,954,,,862.3103305688128,,,S,125,circle,0.009298908989876509,,,,,1,0,,,2,,,,,,,,,858.2897476309445,858.2897476309445,858.2897476309445,858.2897476309445,859.7758716749959,859.7758716749959,859.7758716749959,859.7758716749959,859.7924420370255,859.7924420370255,859.7924420370255,859.7924420370255,switch,number,numSwt,j,0.9953194900881499,vtsPrac,860.7947901238222,,,,,,,,,,,,,,,,,,,,,,,,,58413,2022-11-17_13h58.43.079,vts_reward_expectancy_bt_OFFLINE,2022.2.4,59.86501480712133,
