LTriangleOpac,LCircleOpac,LHexagonOpac,LStarOpac,RTriangleOpac,RCircleOpac,RHexagonOpac,RStarOpac,LShape_ID,RShape_ID,training_blocks.thisRepN,training_blocks.thisTrialN,training_blocks.thisN,training_blocks.thisIndex,training.thisRepN,training.thisTrialN,training.thisN,training.thisIndex,task1_prac_redo.thisRepN,task1_prac_redo.thisTrialN,task1_prac_redo.thisN,task1_prac_redo.thisIndex,task1_prac_trials.thisRepN,task1_prac_trials.thisTrialN,task1_prac_trials.thisN,task1_prac_trials.thisIndex,task2_prac_redo.thisRepN,task2_prac_redo.thisTrialN,task2_prac_redo.thisN,task2_prac_redo.thisIndex,task2_praac_trials.thisRepN,task2_praac_trials.thisTrialN,task2_praac_trials.thisN,task2_praac_trials.thisIndex,vts_prac_redo.thisRepN,vts_prac_redo.thisTrialN,vts_prac_redo.thisN,vts_prac_redo.thisIndex,vts_practice_trials.thisRepN,vts_practice_trials.thisTrialN,vts_practice_trials.thisN,vts_practice_trials.thisIndex,trials_norew.thisRepN,trials_norew.thisTrialN,trials_norew.thisN,trials_norew.thisIndex,block.thisRepN,block.thisTrialN,block.thisN,block.thisIndex,trials_rew.thisRepN,trials_rew.thisTrialN,trials_rew.thisN,trials_rew.thisIndex,key_resp.started,key_resp.keys,key_resp.rt,left_circle.started,right_circle.started,left_triangle.started,right_triangle.started,left_star.started,right_star.started,left_hexagon.started,right_hexagon.started,training_fix.started,training_resp.started,training_resp.keys,training_resp.rt,points_trial,points_cumul,trainBlock,training_feedback_txt.started,fix.started,training_feedback_txt.stopped,fix.stopped,curr_topStim,curr_bottStim,curr_shape,ISI.started,tgt_fix_prac1.started,top_target_prac1.started,bott_target_prac1.started,target_resp_prac1.started,acc,E1,target_resp_prac1.keys,target_resp_prac1.rt,pracBlock,prac_fback_text.started,prac_fback_text.stopped,tgt_fix_prac2.started,top_target_prac2.started,bott_target_prac2.started,target_resp_prac2.started,target_resp_prac2.keys,target_resp_prac2.rt,top_target_prac2.stopped,bott_target_prac2.stopped,target_resp_prac2.stopped,star.started,hegagon.started,triangle.started,circle.started,top_target.started,tgt_fix.started,bot_target.started,target_resp.started,star.stopped,hegagon.stopped,triangle.stopped,circle.stopped,alt,task,condition,target_resp.keys,target_resp.rt,rewCond,vts_fback.started,vts_fback.stopped,blockNum,norew_fback.started,top_target.stopped,tgt_fix.stopped,bot_target.stopped,target_resp.stopped,norew_fback.stopped,key_resp_2.keys,key_resp_2.rt,rewExpectancy,feedbk_text.started,feedbk_text.stopped,text_3.started,debrief.started,text_3.stopped,button.started,debrief.index,debrief.itemText,debrief.type,debrief.granularity,debrief.font,debrief.markerColor,debrief.response,debrief.rt,button.numClicks,button.timesOn,button.timesOff,participant,date,expName,psychopyVersion,frameRate,
,,,,,,,,,,,,,,,,,,,,,,,,,,,,,,,,,,,,,,,,,,,,,,,,,,,,,,318.3723807509523,space,12.73519814806059,,,,,,,,,,,,,,,,,,,,,,,,,,,,,,,,,,,,,,,,,,,,,,,,,,,,,,,,,,,,,,,,,,,,,,,,,,,,,,,,,,,,,,,,,,,59446,2022-11-16_14h33.19.232,vts_reward_expectancy_bt_OFFLINE,2022.2.4,59.94312095600669,
0,0,0,1,1,0,0,0,star,triangle,0,0,0,0,0,0,0,9,,,,,,,,,,,,,,,,,,,,,,,,,,,,,,,,,,,,,,,,344.0035197469406,344.0035197469406,344.0035197469406,344.0035197469406,344.0035197469406,344.0035197469406,344.0035197469406,344.0035197469406,344.0035197469406,344.0035197469406,l,0.9748794520273805,10,10,0,345.01143809384666,346.52637985604815,,,,,,,,,,,,,,,,,,,,,,,,,,,,,,,,,,,,,,,,,,,,,,,,,,,,,,,,,,,,,,,,,,,,,,,,,,59446,2022-11-16_14h33.19.232,vts_reward_expectancy_bt_OFFLINE,2022.2.4,59.94312095600669,
1,0,0,0,0,0,1,0,triangle,hexagon,0,0,0,0,0,1,1,1,,,,,,,,,,,,,,,,,,,,,,,,,,,,,,,,,,,,,,,,347.0264487080276,347.0264487080276,347.0264487080276,347.0264487080276,347.0264487080276,347.0264487080276,347.0264487080276,347.0264487080276,347.0264487080276,347.0264487080276,a,0.945601694053039,10,20,0,347.9933251498733,349.4959745318629,,,,,,,,,,,,,,,,,,,,,,,,,,,,,,,,,,,,,,,,,,,,,,,,,,,,,,,,,,,,,,,,,,,,,,,,,,59446,2022-11-16_14h33.19.232,vts_reward_expectancy_bt_OFFLINE,2022.2.4,59.94312095600669,
0,1,0,0,1,0,0,0,circle,triangle,0,0,0,0,0,2,2,3,,,,,,,,,,,,,,,,,,,,,,,,,,,,,,,,,,,,,,,,349.99637713306583,349.99637713306583,349.99637713306583,349.99637713306583,349.99637713306583,349.99637713306583,349.99637713306583,349.99637713306583,349.99637713306583,349.99637713306583,a,1.3608366700354964,10,30,0,351.37987830792554,352.8804814100731,352.8804814100731,353.3807575989049,,,,,,,,,,,,,,,,,,,,,,,,,,,,,,,,,,,,,,,,,,,,,,,,,,,,,,,,,,,,,,,,,,,,,,,,59446,2022-11-16_14h33.19.232,vts_reward_expectancy_bt_OFFLINE,2022.2.4,59.94312095600669,
0,0,0,1,0,0,1,0,star,hexagon,0,0,0,0,0,3,3,11,,,,,,,,,,,,,,,,,,,,,,,,,,,,,,,,,,,,,,,,353.3807575989049,353.3807575989049,353.3807575989049,353.3807575989049,353.3807575989049,353.3807575989049,353.3807575989049,353.3807575989049,353.3807575989049,353.3807575989049,l,1.7692233270499855,10,40,0,355.1664913778659,356.66709173098207,356.66709173098207,357.1672926938627,,,,,,,,,,,,,,,,,,,,,,,,,,,,,,,,,,,,,,,,,,,,,,,,,,,,,,,,,,,,,,,,,,,,,,,,59446,2022-11-16_14h33.19.232,vts_reward_expectancy_bt_OFFLINE,2022.2.4,59.94312095600669,
0,1,0,0,0,0,1,0,circle,hexagon,0,0,0,0,0,4,4,4,,,,,,,,,,,,,,,,,,,,,,,,,,,,,,,,,,,,,,,,357.1672926938627,357.1672926938627,357.1672926938627,357.1672926938627,357.1672926938627,357.1672926938627,357.1672926938627,357.1672926938627,357.1672926938627,357.1672926938627,a,1.649127050768584,10,50,0,358.83632070198655,360.33681266289204,360.33681266289204,360.83704368094914,,,,,,,,,,,,,,,,,,,,,,,,,,,,,,,,,,,,,,,,,,,,,,,,,,,,,,,,,,,,,,,,,,,,,,,,59446,2022-11-16_14h33.19.232,vts_reward_expectancy_bt_OFFLINE,2022.2.4,59.94312095600669,
1,0,0,0,0,1,0,0,triangle,circle,0,0,0,0,0,5,5,0,,,,,,,,,,,,,,,,,,,,,,,,,,,,,,,,,,,,,,,,360.83704368094914,360.83704368094914,360.83704368094914,360.83704368094914,360.83704368094914,360.83704368094914,360.83704368094914,360.83704368094914,360.83704368094914,360.83704368094914,a,0.7364143638405949,10,60,0,361.603830663953,363.10444644698873,363.10444644698873,,,,,,,,,,,,,,,,,,,,,,,,,,,,,,,,,,,,,,,,,,,,,,,,,,,,,,,,,,,,,,,,,,,,,,,,,59446,2022-11-16_14h33.19.232,vts_reward_expectancy_bt_OFFLINE,2022.2.4,59.94312095600669,
0,0,1,0,0,0,0,1,hexagon,star,0,0,0,0,0,6,6,8,,,,,,,,,,,,,,,,,,,,,,,,,,,,,,,,,,,,,,,,363.6066430849023,363.6066430849023,363.6066430849023,363.6066430849023,363.6066430849023,363.6066430849023,363.6066430849023,363.6066430849023,363.6066430849023,363.6066430849023,a,1.9948702498804778,1,61,0,365.624944383977,367.1244893448893,367.1244893448893,367.62483813706785,,,,,,,,,,,,,,,,,,,,,,,,,,,,,,,,,,,,,,,,,,,,,,,,,,,,,,,,,,,,,,,,,,,,,,,,59446,2022-11-16_14h33.19.232,vts_reward_expectancy_bt_OFFLINE,2022.2.4,59.94312095600669,
0,0,1,0,0,1,0,0,hexagon,circle,0,0,0,0,0,7,7,7,,,,,,,,,,,,,,,,,,,,,,,,,,,,,,,,,,,,,,,,367.62483813706785,367.62483813706785,367.62483813706785,367.62483813706785,367.62483813706785,367.62483813706785,367.62483813706785,367.62483813706785,367.62483813706785,367.62483813706785,l,0.8219511660281569,10,71,0,368.47735633398406,369.9773801548872,369.9773801548872,370.47773855389096,,,,,,,,,,,,,,,,,,,,,,,,,,,,,,,,,,,,,,,,,,,,,,,,,,,,,,,,,,,,,,,,,,,,,,,,59446,2022-11-16_14h33.19.232,vts_reward_expectancy_bt_OFFLINE,2022.2.4,59.94312095600669,
1,0,0,0,0,0,0,1,triangle,star,0,0,0,0,0,8,8,2,,,,,,,,,,,,,,,,,,,,,,,,,,,,,,,,,,,,,,,,370.47773855389096,370.47773855389096,370.47773855389096,370.47773855389096,370.47773855389096,370.47773855389096,370.47773855389096,370.47773855389096,370.47773855389096,370.47773855389096,a,0.5566906989552081,10,81,0,371.0609133790713,372.5615565830376,372.5615565830376,373.0617845079396,,,,,,,,,,,,,,,,,,,,,,,,,,,,,,,,,,,,,,,,,,,,,,,,,,,,,,,,,,,,,,,,,,,,,,,,59446,2022-11-16_14h33.19.232,vts_reward_expectancy_bt_OFFLINE,2022.2.4,59.94312095600669,
0,1,0,0,0,0,0,1,circle,star,0,0,0,0,0,9,9,5,,,,,,,,,,,,,,,,,,,,,,,,,,,,,,,,,,,,,,,,373.0617845079396,373.0617845079396,373.0617845079396,373.0617845079396,373.0617845079396,373.0617845079396,373.0617845079396,373.0617845079396,373.0617845079396,373.0617845079396,a,0.5608337798621505,10,91,0,373.6472952258773,375.1475785190705,375.1475785190705,,,,,,,,,,,,,,,,,,,,,,,,,,,,,,,,,,,,,,,,,,,,,,,,,,,,,,,,,,,,,,,,,,,,,,,,,59446,2022-11-16_14h33.19.232,vts_reward_expectancy_bt_OFFLINE,2022.2.4,59.94312095600669,
0,0,1,0,1,0,0,0,hexagon,triangle,0,0,0,0,0,10,10,6,,,,,,,,,,,,,,,,,,,,,,,,,,,,,,,,,,,,,,,,375.6479068689514,375.6479068689514,375.6479068689514,375.6479068689514,375.6479068689514,375.6479068689514,375.6479068689514,375.6479068689514,375.6479068689514,375.6479068689514,l,0.9556476369034499,1,92,0,376.63238090090454,378.1321829389781,378.1321829389781,,,,,,,,,,,,,,,,,,,,,,,,,,,,,,,,,,,,,,,,,,,,,,,,,,,,,,,,,,,,,,,,,,,,,,,,,59446,2022-11-16_14h33.19.232,vts_reward_expectancy_bt_OFFLINE,2022.2.4,59.94312095600669,
0,0,0,1,0,1,0,0,star ,circle,0,0,0,0,0,11,11,10,,,,,,,,,,,,,,,,,,,,,,,,,,,,,,,,,,,,,,,,378.63420917093754,378.63420917093754,378.63420917093754,378.63420917093754,378.63420917093754,378.63420917093754,378.63420917093754,378.63420917093754,378.63420917093754,378.63420917093754,l,0.6475982100237161,10,102,0,379.3017829868477,380.80157502088696,380.80157502088696,381.3016807420645,,,,,,,,,,,,,,,,,,,,,,,,,,,,,,,,,,,,,,,,,,,,,,,,,,,,,,,,,,,,,,,,,,,,,,,,59446,2022-11-16_14h33.19.232,vts_reward_expectancy_bt_OFFLINE,2022.2.4,59.94312095600669,
0,0,0,1,0,1,0,0,star ,circle,0,0,0,0,1,0,12,10,,,,,,,,,,,,,,,,,,,,,,,,,,,,,,,,,,,,,,,,381.3016807420645,381.3016807420645,381.3016807420645,381.3016807420645,381.3016807420645,381.3016807420645,381.3016807420645,381.3016807420645,381.3016807420645,381.3016807420645,l,0.4999547798652202,1,103,0,381.81929189898074,383.3190185269341,383.3190185269341,,,,,,,,,,,,,,,,,,,,,,,,,,,,,,,,,,,,,,,,,,,,,,,,,,,,,,,,,,,,,,,,,,,,,,,,,59446,2022-11-16_14h33.19.232,vts_reward_expectancy_bt_OFFLINE,2022.2.4,59.94312095600669,
0,0,0,1,0,0,1,0,star,hexagon,0,0,0,0,1,1,13,11,,,,,,,,,,,,,,,,,,,,,,,,,,,,,,,,,,,,,,,,383.8211601700168,383.8211601700168,383.8211601700168,383.8211601700168,383.8211601700168,383.8211601700168,383.8211601700168,383.8211601700168,383.8211601700168,383.8211601700168,a,0.68061145208776,10,113,0,384.52245460404083,386.02211994002573,386.02211994002573,386.5221863540355,,,,,,,,,,,,,,,,,,,,,,,,,,,,,,,,,,,,,,,,,,,,,,,,,,,,,,,,,,,,,,,,,,,,,,,,59446,2022-11-16_14h33.19.232,vts_reward_expectancy_bt_OFFLINE,2022.2.4,59.94312095600669,
0,0,1,0,0,1,0,0,hexagon,circle,0,0,0,0,1,2,14,7,,,,,,,,,,,,,,,,,,,,,,,,,,,,,,,,,,,,,,,,386.5221863540355,386.5221863540355,386.5221863540355,386.5221863540355,386.5221863540355,386.5221863540355,386.5221863540355,386.5221863540355,386.5221863540355,386.5221863540355,l,0.7468561369460076,10,123,0,387.28896094695665,388.79133017593995,,,,,,,,,,,,,,,,,,,,,,,,,,,,,,,,,,,,,,,,,,,,,,,,,,,,,,,,,,,,,,,,,,,,,,,,,,59446,2022-11-16_14h33.19.232,vts_reward_expectancy_bt_OFFLINE,2022.2.4,59.94312095600669,
0,0,0,1,1,0,0,0,star,triangle,0,0,0,0,1,3,15,9,,,,,,,,,,,,,,,,,,,,,,,,,,,,,,,,,,,,,,,,389.29170140996575,389.29170140996575,389.29170140996575,389.29170140996575,389.29170140996575,389.29170140996575,389.29170140996575,389.29170140996575,389.29170140996575,389.29170140996575,a,0.44177457387559116,1,124,0,389.7595591379795,391.25909763691016,391.25909763691016,391.7590401270427,,,,,,,,,,,,,,,,,,,,,,,,,,,,,,,,,,,,,,,,,,,,,,,,,,,,,,,,,,,,,,,,,,,,,,,,59446,2022-11-16_14h33.19.232,vts_reward_expectancy_bt_OFFLINE,2022.2.4,59.94312095600669,
1,0,0,0,0,0,1,0,triangle,hexagon,0,0,0,0,1,4,16,1,,,,,,,,,,,,,,,,,,,,,,,,,,,,,,,,,,,,,,,,391.7590401270427,391.7590401270427,391.7590401270427,391.7590401270427,391.7590401270427,391.7590401270427,391.7590401270427,391.7590401270427,391.7590401270427,391.7590401270427,a,0.8435099418275058,1,125,0,392.62583139096387,394.1285875889007,,,,,,,,,,,,,,,,,,,,,,,,,,,,,,,,,,,,,,,,,,,,,,,,,,,,,,,,,,,,,,,,,,,,,,,,,,59446,2022-11-16_14h33.19.232,vts_reward_expectancy_bt_OFFLINE,2022.2.4,59.94312095600669,
0,1,0,0,1,0,0,0,circle,triangle,0,0,0,0,1,5,17,3,,,,,,,,,,,,,,,,,,,,,,,,,,,,,,,,,,,,,,,,394.62874541198835,394.62874541198835,394.62874541198835,394.62874541198835,394.62874541198835,394.62874541198835,394.62874541198835,394.62874541198835,394.62874541198835,394.62874541198835,a,0.9094302630983293,10,135,0,395.5631228990387,397.0628640030045,397.0628640030045,397.5632280809805,,,,,,,,,,,,,,,,,,,,,,,,,,,,,,,,,,,,,,,,,,,,,,,,,,,,,,,,,,,,,,,,,,,,,,,,59446,2022-11-16_14h33.19.232,vts_reward_expectancy_bt_OFFLINE,2022.2.4,59.94312095600669,
1,0,0,0,0,0,0,1,triangle,star,0,0,0,0,1,6,18,2,,,,,,,,,,,,,,,,,,,,,,,,,,,,,,,,,,,,,,,,397.5632280809805,397.5632280809805,397.5632280809805,397.5632280809805,397.5632280809805,397.5632280809805,397.5632280809805,397.5632280809805,397.5632280809805,397.5632280809805,l,0.49519833899103105,10,145,0,398.0798825349193,399.5822919958737,,,,,,,,,,,,,,,,,,,,,,,,,,,,,,,,,,,,,,,,,,,,,,,,,,,,,,,,,,,,,,,,,,,,,,,,,,59446,2022-11-16_14h33.19.232,vts_reward_expectancy_bt_OFFLINE,2022.2.4,59.94312095600669,
0,0,1,0,1,0,0,0,hexagon,triangle,0,0,0,0,1,7,19,6,,,,,,,,,,,,,,,,,,,,,,,,,,,,,,,,,,,,,,,,400.0827770428732,400.0827770428732,400.0827770428732,400.0827770428732,400.0827770428732,400.0827770428732,400.0827770428732,400.0827770428732,400.0827770428732,400.0827770428732,a,0.6871557291597128,1,146,0,400.8006245868746,402.2999437658582,402.2999437658582,402.8002130128443,,,,,,,,,,,,,,,,,,,,,,,,,,,,,,,,,,,,,,,,,,,,,,,,,,,,,,,,,,,,,,,,,,,,,,,,59446,2022-11-16_14h33.19.232,vts_reward_expectancy_bt_OFFLINE,2022.2.4,59.94312095600669,
1,0,0,0,0,1,0,0,triangle,circle,0,0,0,0,1,8,20,0,,,,,,,,,,,,,,,,,,,,,,,,,,,,,,,,,,,,,,,,402.8002130128443,402.8002130128443,402.8002130128443,402.8002130128443,402.8002130128443,402.8002130128443,402.8002130128443,402.8002130128443,402.8002130128443,402.8002130128443,a,0.5692843389697373,10,156,0,403.4003644438926,404.9028080930002,,,,,,,,,,,,,,,,,,,,,,,,,,,,,,,,,,,,,,,,,,,,,,,,,,,,,,,,,,,,,,,,,,,,,,,,,,59446,2022-11-16_14h33.19.232,vts_reward_expectancy_bt_OFFLINE,2022.2.4,59.94312095600669,
0,1,0,0,0,0,0,1,circle,star,0,0,0,0,1,9,21,5,,,,,,,,,,,,,,,,,,,,,,,,,,,,,,,,,,,,,,,,405.4032098548487,405.4032098548487,405.4032098548487,405.4032098548487,405.4032098548487,405.4032098548487,405.4032098548487,405.4032098548487,405.4032098548487,405.4032098548487,l,0.5079940520226955,10,166,0,405.93662684597075,407.4371393469628,407.4371393469628,407.9373154779896,,,,,,,,,,,,,,,,,,,,,,,,,,,,,,,,,,,,,,,,,,,,,,,,,,,,,,,,,,,,,,,,,,,,,,,,59446,2022-11-16_14h33.19.232,vts_reward_expectancy_bt_OFFLINE,2022.2.4,59.94312095600669,
0,1,0,0,0,0,1,0,circle,hexagon,0,0,0,0,1,10,22,4,,,,,,,,,,,,,,,,,,,,,,,,,,,,,,,,,,,,,,,,407.9373154779896,407.9373154779896,407.9373154779896,407.9373154779896,407.9373154779896,407.9373154779896,407.9373154779896,407.9373154779896,407.9373154779896,407.9373154779896,a,0.5398965780623257,10,176,0,408.5058622919023,410.0064232139848,410.0064232139848,410.50675334292464,,,,,,,,,,,,,,,,,,,,,,,,,,,,,,,,,,,,,,,,,,,,,,,,,,,,,,,,,,,,,,,,,,,,,,,,59446,2022-11-16_14h33.19.232,vts_reward_expectancy_bt_OFFLINE,2022.2.4,59.94312095600669,
0,0,1,0,0,0,0,1,hexagon,star,0,0,0,0,1,11,23,8,,,,,,,,,,,,,,,,,,,,,,,,,,,,,,,,,,,,,,,,410.50675334292464,410.50675334292464,410.50675334292464,410.50675334292464,410.50675334292464,410.50675334292464,410.50675334292464,410.50675334292464,410.50675334292464,410.50675334292464,l,0.3884552719537169,1,177,0,410.92421978502534,412.42404649592936,412.42404649592936,412.9241916919127,,,,,,,,,,,,,,,,,,,,,,,,,,,,,,,,,,,,,,,,,,,,,,,,,,,,,,,,,,,,,,,,,,,,,,,,59446,2022-11-16_14h33.19.232,vts_reward_expectancy_bt_OFFLINE,2022.2.4,59.94312095600669,
0,0,0,1,1,0,0,0,star,triangle,0,0,0,0,2,0,24,9,,,,,,,,,,,,,,,,,,,,,,,,,,,,,,,,,,,,,,,,412.9241916919127,412.9241916919127,412.9241916919127,412.9241916919127,412.9241916919127,412.9241916919127,412.9241916919127,412.9241916919127,412.9241916919127,412.9241916919127,a,0.6264425530098379,1,178,0,413.57624846394174,415.0767957000062,415.0767957000062,415.5770020589698,,,,,,,,,,,,,,,,,,,,,,,,,,,,,,,,,,,,,,,,,,,,,,,,,,,,,,,,,,,,,,,,,,,,,,,,59446,2022-11-16_14h33.19.232,vts_reward_expectancy_bt_OFFLINE,2022.2.4,59.94312095600669,
0,1,0,0,1,0,0,0,circle,triangle,0,0,0,0,2,1,25,3,,,,,,,,,,,,,,,,,,,,,,,,,,,,,,,,,,,,,,,,415.5770020589698,415.5770020589698,415.5770020589698,415.5770020589698,415.5770020589698,415.5770020589698,415.5770020589698,415.5770020589698,415.5770020589698,415.5770020589698,a,0.6958226691931486,1,179,0,416.29390230285935,417.7942739010323,417.7942739010323,,,,,,,,,,,,,,,,,,,,,,,,,,,,,,,,,,,,,,,,,,,,,,,,,,,,,,,,,,,,,,,,,,,,,,,,,59446,2022-11-16_14h33.19.232,vts_reward_expectancy_bt_OFFLINE,2022.2.4,59.94312095600669,
0,0,1,0,0,1,0,0,hexagon,circle,0,0,0,0,2,2,26,7,,,,,,,,,,,,,,,,,,,,,,,,,,,,,,,,,,,,,,,,418.29450678406283,418.29450678406283,418.29450678406283,418.29450678406283,418.29450678406283,418.29450678406283,418.29450678406283,418.29450678406283,418.29450678406283,418.29450678406283,l,0.5894093590322882,10,189,0,418.9143852009438,420.41400513984263,420.41400513984263,420.9140764998738,,,,,,,,,,,,,,,,,,,,,,,,,,,,,,,,,,,,,,,,,,,,,,,,,,,,,,,,,,,,,,,,,,,,,,,,59446,2022-11-16_14h33.19.232,vts_reward_expectancy_bt_OFFLINE,2022.2.4,59.94312095600669,
0,0,0,1,0,1,0,0,star ,circle,0,0,0,0,2,3,27,10,,,,,,,,,,,,,,,,,,,,,,,,,,,,,,,,,,,,,,,,420.9140764998738,420.9140764998738,420.9140764998738,420.9140764998738,420.9140764998738,420.9140764998738,420.9140764998738,420.9140764998738,420.9140764998738,420.9140764998738,l,0.5240247901529074,1,190,0,421.4652412319556,422.96480603702366,422.96480603702366,,,,,,,,,,,,,,,,,,,,,,,,,,,,,,,,,,,,,,,,,,,,,,,,,,,,,,,,,,,,,,,,,,,,,,,,,59446,2022-11-16_14h33.19.232,vts_reward_expectancy_bt_OFFLINE,2022.2.4,59.94312095600669,
1,0,0,0,0,0,0,1,triangle,star,0,0,0,0,2,4,28,2,,,,,,,,,,,,,,,,,,,,,,,,,,,,,,,,,,,,,,,,423.47056779195555,423.47056779195555,423.47056779195555,423.47056779195555,423.47056779195555,423.47056779195555,423.47056779195555,423.47056779195555,423.47056779195555,423.47056779195555,l,0.8695877538993955,1,191,0,424.3669366070535,425.8678215770051,425.8678215770051,426.36804965604097,,,,,,,,,,,,,,,,,,,,,,,,,,,,,,,,,,,,,,,,,,,,,,,,,,,,,,,,,,,,,,,,,,,,,,,,59446,2022-11-16_14h33.19.232,vts_reward_expectancy_bt_OFFLINE,2022.2.4,59.94312095600669,
1,0,0,0,0,0,1,0,triangle,hexagon,0,0,0,0,2,5,29,1,,,,,,,,,,,,,,,,,,,,,,,,,,,,,,,,,,,,,,,,426.36804965604097,426.36804965604097,426.36804965604097,426.36804965604097,426.36804965604097,426.36804965604097,426.36804965604097,426.36804965604097,426.36804965604097,426.36804965604097,a,0.6154058519750834,1,192,0,427.00116056692787,428.5039162400644,,,,,,,,,,,,,,,,,,,,,,,,,,,,,,,,,,,,,,,,,,,,,,,,,,,,,,,,,,,,,,,,,,,,,,,,,,59446,2022-11-16_14h33.19.232,vts_reward_expectancy_bt_OFFLINE,2022.2.4,59.94312095600669,
0,1,0,0,0,0,0,1,circle,star,0,0,0,0,2,6,30,5,,,,,,,,,,,,,,,,,,,,,,,,,,,,,,,,,,,,,,,,429.0040171209257,429.0040171209257,429.0040171209257,429.0040171209257,429.0040171209257,429.0040171209257,429.0040171209257,429.0040171209257,429.0040171209257,429.0040171209257,a,0.47799084591679275,10,202,0,429.50521830888465,431.00479554897174,431.00479554897174,431.5047696409747,,,,,,,,,,,,,,,,,,,,,,,,,,,,,,,,,,,,,,,,,,,,,,,,,,,,,,,,,,,,,,,,,,,,,,,,59446,2022-11-16_14h33.19.232,vts_reward_expectancy_bt_OFFLINE,2022.2.4,59.94312095600669,
0,0,0,1,0,0,1,0,star,hexagon,0,0,0,0,2,7,31,11,,,,,,,,,,,,,,,,,,,,,,,,,,,,,,,,,,,,,,,,431.5047696409747,431.5047696409747,431.5047696409747,431.5047696409747,431.5047696409747,431.5047696409747,431.5047696409747,431.5047696409747,431.5047696409747,431.5047696409747,l,0.9465770570095628,1,203,0,432.47286464087665,433.97426122496836,,,,,,,,,,,,,,,,,,,,,,,,,,,,,,,,,,,,,,,,,,,,,,,,,,,,,,,,,,,,,,,,,,,,,,,,,,59446,2022-11-16_14h33.19.232,vts_reward_expectancy_bt_OFFLINE,2022.2.4,59.94312095600669,
0,0,1,0,1,0,0,0,hexagon,triangle,0,0,0,0,2,8,32,6,,,,,,,,,,,,,,,,,,,,,,,,,,,,,,,,,,,,,,,,434.4745197938755,434.4745197938755,434.4745197938755,434.4745197938755,434.4745197938755,434.4745197938755,434.4745197938755,434.4745197938755,434.4745197938755,434.4745197938755,l,0.6669374618213624,10,213,0,435.15913799987175,436.6585237549152,436.6585237549152,437.1587400250137,,,,,,,,,,,,,,,,,,,,,,,,,,,,,,,,,,,,,,,,,,,,,,,,,,,,,,,,,,,,,,,,,,,,,,,,59446,2022-11-16_14h33.19.232,vts_reward_expectancy_bt_OFFLINE,2022.2.4,59.94312095600669,
0,1,0,0,0,0,1,0,circle,hexagon,0,0,0,0,2,9,33,4,,,,,,,,,,,,,,,,,,,,,,,,,,,,,,,,,,,,,,,,437.1587400250137,437.1587400250137,437.1587400250137,437.1587400250137,437.1587400250137,437.1587400250137,437.1587400250137,437.1587400250137,437.1587400250137,437.1587400250137,a,0.6142435050569475,10,223,0,437.79232074087486,439.29455639002845,,,,,,,,,,,,,,,,,,,,,,,,,,,,,,,,,,,,,,,,,,,,,,,,,,,,,,,,,,,,,,,,,,,,,,,,,,59446,2022-11-16_14h33.19.232,vts_reward_expectancy_bt_OFFLINE,2022.2.4,59.94312095600669,
0,0,1,0,0,0,0,1,hexagon,star,0,0,0,0,2,10,34,8,,,,,,,,,,,,,,,,,,,,,,,,,,,,,,,,,,,,,,,,439.79498539003544,439.79498539003544,439.79498539003544,439.79498539003544,439.79498539003544,439.79498539003544,439.79498539003544,439.79498539003544,439.79498539003544,439.79498539003544,l,1.015690425876528,1,224,0,440.8296737440396,442.3292503999546,442.3292503999546,442.82913248986006,,,,,,,,,,,,,,,,,,,,,,,,,,,,,,,,,,,,,,,,,,,,,,,,,,,,,,,,,,,,,,,,,,,,,,,,59446,2022-11-16_14h33.19.232,vts_reward_expectancy_bt_OFFLINE,2022.2.4,59.94312095600669,
1,0,0,0,0,1,0,0,triangle,circle,0,0,0,0,2,11,35,0,,,,,,,,,,,,,,,,,,,,,,,,,,,,,,,,,,,,,,,,442.82913248986006,442.82913248986006,442.82913248986006,442.82913248986006,442.82913248986006,442.82913248986006,442.82913248986006,442.82913248986006,442.82913248986006,442.82913248986006,a,1.1657386478036642,1,225,0,444.0148136599455,445.5154023459181,445.5154023459181,446.0156436469406,,,,,,,,,,,,,,,,,,,,,,,,,,,,,,,,,,,,,,,,,,,,,,,,,,,,,,,,,,,,,,,,,,,,,,,,59446,2022-11-16_14h33.19.232,vts_reward_expectancy_bt_OFFLINE,2022.2.4,59.94312095600669,
0,0,1,0,1,0,0,0,hexagon,triangle,0,0,0,0,3,0,36,6,,,,,,,,,,,,,,,,,,,,,,,,,,,,,,,,,,,,,,,,446.0156436469406,446.0156436469406,446.0156436469406,446.0156436469406,446.0156436469406,446.0156436469406,446.0156436469406,446.0156436469406,446.0156436469406,446.0156436469406,l,1.0061069198418409,10,235,0,447.0505474200472,448.5516473769676,,,,,,,,,,,,,,,,,,,,,,,,,,,,,,,,,,,,,,,,,,,,,,,,,,,,,,,,,,,,,,,,,,,,,,,,,,59446,2022-11-16_14h33.19.232,vts_reward_expectancy_bt_OFFLINE,2022.2.4,59.94312095600669,
0,0,1,0,0,0,0,1,hexagon,star,0,0,0,0,3,1,37,8,,,,,,,,,,,,,,,,,,,,,,,,,,,,,,,,,,,,,,,,449.0519854959566,449.0519854959566,449.0519854959566,449.0519854959566,449.0519854959566,449.0519854959566,449.0519854959566,449.0519854959566,449.0519854959566,449.0519854959566,l,1.0068960019852966,10,245,0,450.0857442559209,451.586156798061,451.586156798061,452.08627041406,,,,,,,,,,,,,,,,,,,,,,,,,,,,,,,,,,,,,,,,,,,,,,,,,,,,,,,,,,,,,,,,,,,,,,,,59446,2022-11-16_14h33.19.232,vts_reward_expectancy_bt_OFFLINE,2022.2.4,59.94312095600669,
0,1,0,0,0,0,1,0,circle,hexagon,0,0,0,0,3,2,38,4,,,,,,,,,,,,,,,,,,,,,,,,,,,,,,,,,,,,,,,,452.08627041406,452.08627041406,452.08627041406,452.08627041406,452.08627041406,452.08627041406,452.08627041406,452.08627041406,452.08627041406,452.08627041406,a,0.5606035620439798,10,255,0,452.6694951369427,454.17215497093275,,,,,,,,,,,,,,,,,,,,,,,,,,,,,,,,,,,,,,,,,,,,,,,,,,,,,,,,,,,,,,,,,,,,,,,,,,59446,2022-11-16_14h33.19.232,vts_reward_expectancy_bt_OFFLINE,2022.2.4,59.94312095600669,
0,1,0,0,1,0,0,0,circle,triangle,0,0,0,0,3,3,39,3,,,,,,,,,,,,,,,,,,,,,,,,,,,,,,,,,,,,,,,,454.67241928190924,454.67241928190924,454.67241928190924,454.67241928190924,454.67241928190924,454.67241928190924,454.67241928190924,454.67241928190924,454.67241928190924,454.67241928190924,a,0.8875377520453185,10,265,0,455.5893841490615,457.0901169918943,457.0901169918943,457.5900695649907,,,,,,,,,,,,,,,,,,,,,,,,,,,,,,,,,,,,,,,,,,,,,,,,,,,,,,,,,,,,,,,,,,,,,,,,59446,2022-11-16_14h33.19.232,vts_reward_expectancy_bt_OFFLINE,2022.2.4,59.94312095600669,
0,0,0,1,1,0,0,0,star,triangle,0,0,0,0,3,4,40,9,,,,,,,,,,,,,,,,,,,,,,,,,,,,,,,,,,,,,,,,457.5900695649907,457.5900695649907,457.5900695649907,457.5900695649907,457.5900695649907,457.5900695649907,457.5900695649907,457.5900695649907,457.5900695649907,457.5900695649907,a,0.7389198550954461,1,266,0,458.35804486693814,459.85949404584244,,,,,,,,,,,,,,,,,,,,,,,,,,,,,,,,,,,,,,,,,,,,,,,,,,,,,,,,,,,,,,,,,,,,,,,,,,59446,2022-11-16_14h33.19.232,vts_reward_expectancy_bt_OFFLINE,2022.2.4,59.94312095600669,
0,0,0,1,0,1,0,0,star ,circle,0,0,0,0,3,5,41,10,,,,,,,,,,,,,,,,,,,,,,,,,,,,,,,,,,,,,,,,460.3597273500636,460.3597273500636,460.3597273500636,460.3597273500636,460.3597273500636,460.3597273500636,460.3597273500636,460.3597273500636,460.3597273500636,460.3597273500636,l,0.43212932301685214,10,276,0,460.81096477387473,462.31011733901687,462.31011733901687,462.81055776402354,,,,,,,,,,,,,,,,,,,,,,,,,,,,,,,,,,,,,,,,,,,,,,,,,,,,,,,,,,,,,,,,,,,,,,,,59446,2022-11-16_14h33.19.232,vts_reward_expectancy_bt_OFFLINE,2022.2.4,59.94312095600669,
0,0,1,0,0,1,0,0,hexagon,circle,0,0,0,0,3,6,42,7,,,,,,,,,,,,,,,,,,,,,,,,,,,,,,,,,,,,,,,,462.81055776402354,462.81055776402354,462.81055776402354,462.81055776402354,462.81055776402354,462.81055776402354,462.81055776402354,462.81055776402354,462.81055776402354,462.81055776402354,l,0.6030227448791265,10,286,0,463.44429063703865,464.946565389866,,,,,,,,,,,,,,,,,,,,,,,,,,,,,,,,,,,,,,,,,,,,,,,,,,,,,,,,,,,,,,,,,,,,,,,,,,59446,2022-11-16_14h33.19.232,vts_reward_expectancy_bt_OFFLINE,2022.2.4,59.94312095600669,
0,1,0,0,0,0,0,1,circle,star,0,0,0,0,3,7,43,5,,,,,,,,,,,,,,,,,,,,,,,,,,,,,,,,,,,,,,,,465.4467405548785,465.4467405548785,465.4467405548785,465.4467405548785,465.4467405548785,465.4467405548785,465.4467405548785,465.4467405548785,465.4467405548785,465.4467405548785,a,0.8010995858348906,10,296,0,466.28043868998066,467.780582546955,,,,,,,,,,,,,,,,,,,,,,,,,,,,,,,,,,,,,,,,,,,,,,,,,,,,,,,,,,,,,,,,,,,,,,,,,,59446,2022-11-16_14h33.19.232,vts_reward_expectancy_bt_OFFLINE,2022.2.4,59.94312095600669,
0,0,0,1,0,0,1,0,star,hexagon,0,0,0,0,3,8,44,11,,,,,,,,,,,,,,,,,,,,,,,,,,,,,,,,,,,,,,,,468.2807702550199,468.2807702550199,468.2807702550199,468.2807702550199,468.2807702550199,468.2807702550199,468.2807702550199,468.2807702550199,468.2807702550199,468.2807702550199,l,0.5997173609212041,1,297,0,468.9148225078825,470.4167538098991,,,,,,,,,,,,,,,,,,,,,,,,,,,,,,,,,,,,,,,,,,,,,,,,,,,,,,,,,,,,,,,,,,,,,,,,,,59446,2022-11-16_14h33.19.232,vts_reward_expectancy_bt_OFFLINE,2022.2.4,59.94312095600669,
1,0,0,0,0,0,0,1,triangle,star,0,0,0,0,3,9,45,2,,,,,,,,,,,,,,,,,,,,,,,,,,,,,,,,,,,,,,,,470.9171606588643,470.9171606588643,470.9171606588643,470.9171606588643,470.9171606588643,470.9171606588643,470.9171606588643,470.9171606588643,470.9171606588643,470.9171606588643,l,0.7661816128529608,10,307,0,471.70232075592503,473.2179071728606,,,,,,,,,,,,,,,,,,,,,,,,,,,,,,,,,,,,,,,,,,,,,,,,,,,,,,,,,,,,,,,,,,,,,,,,,,59446,2022-11-16_14h33.19.232,vts_reward_expectancy_bt_OFFLINE,2022.2.4,59.94312095600669,
1,0,0,0,0,0,1,0,triangle,hexagon,0,0,0,0,3,10,46,1,,,,,,,,,,,,,,,,,,,,,,,,,,,,,,,,,,,,,,,,473.70328276394866,473.70328276394866,473.70328276394866,473.70328276394866,473.70328276394866,473.70328276394866,473.70328276394866,473.70328276394866,473.70328276394866,473.70328276394866,a,0.4887905928771943,10,317,0,474.22013812488876,475.7208022349514,475.7208022349514,,,,,,,,,,,,,,,,,,,,,,,,,,,,,,,,,,,,,,,,,,,,,,,,,,,,,,,,,,,,,,,,,,,,,,,,,59446,2022-11-16_14h33.19.232,vts_reward_expectancy_bt_OFFLINE,2022.2.4,59.94312095600669,
1,0,0,0,0,1,0,0,triangle,circle,0,0,0,0,3,11,47,0,,,,,,,,,,,,,,,,,,,,,,,,,,,,,,,,,,,,,,,,476.220528496895,476.220528496895,476.220528496895,476.220528496895,476.220528496895,476.220528496895,476.220528496895,476.220528496895,476.220528496895,476.220528496895,l,0.4579838740173727,1,318,0,476.705470938934,478.2050946538802,478.2050946538802,,,,,,,,,,,,,,,,,,,,,,,,,,,,,,,,,,,,,,,,,,,,,,,,,,,,,,,,,,,,,,,,,,,,,,,,,59446,2022-11-16_14h33.19.232,vts_reward_expectancy_bt_OFFLINE,2022.2.4,59.94312095600669,
0,0,1,0,0,1,0,0,hexagon,circle,1,0,1,0,0,0,0,7,,,,,,,,,,,,,,,,,,,,,,,,,,,,,,,,,,,,,,,,483.0024865719024,483.0024865719024,483.0024865719024,483.0024865719024,483.0024865719024,483.0024865719024,483.0024865719024,483.0024865719024,483.0024865719024,483.0024865719024,l,1.066577784018591,10,328,1,484.0954825358931,485.5947406059131,485.5947406059131,486.09478869405575,,,,,,,,,,,,,,,,,,,,,,,,,,,,,,,,,,,,,,,,,,,,,,,,,,,,,,,,,,,,,,,,,,,,,,,,59446,2022-11-16_14h33.19.232,vts_reward_expectancy_bt_OFFLINE,2022.2.4,59.94312095600669,
0,1,0,0,0,0,1,0,circle,hexagon,1,0,1,0,0,1,1,4,,,,,,,,,,,,,,,,,,,,,,,,,,,,,,,,,,,,,,,,486.09478869405575,486.09478869405575,486.09478869405575,486.09478869405575,486.09478869405575,486.09478869405575,486.09478869405575,486.09478869405575,486.09478869405575,486.09478869405575,a,0.5515588619746268,10,338,1,486.6782286078669,488.17891702684574,488.17891702684574,,,,,,,,,,,,,,,,,,,,,,,,,,,,,,,,,,,,,,,,,,,,,,,,,,,,,,,,,,,,,,,,,,,,,,,,,59446,2022-11-16_14h33.19.232,vts_reward_expectancy_bt_OFFLINE,2022.2.4,59.94312095600669,
0,0,0,1,0,0,1,0,star,hexagon,1,0,1,0,0,2,2,11,,,,,,,,,,,,,,,,,,,,,,,,,,,,,,,,,,,,,,,,488.6808169039432,488.6808169039432,488.6808169039432,488.6808169039432,488.6808169039432,488.6808169039432,488.6808169039432,488.6808169039432,488.6808169039432,488.6808169039432,a,1.0480611159000546,1,339,1,489.7494107489474,491.24850669899024,491.24850669899024,491.74846842396073,,,,,,,,,,,,,,,,,,,,,,,,,,,,,,,,,,,,,,,,,,,,,,,,,,,,,,,,,,,,,,,,,,,,,,,,59446,2022-11-16_14h33.19.232,vts_reward_expectancy_bt_OFFLINE,2022.2.4,59.94312095600669,
0,1,0,0,1,0,0,0,circle,triangle,1,0,1,0,0,3,3,3,,,,,,,,,,,,,,,,,,,,,,,,,,,,,,,,,,,,,,,,491.74846842396073,491.74846842396073,491.74846842396073,491.74846842396073,491.74846842396073,491.74846842396073,491.74846842396073,491.74846842396073,491.74846842396073,491.74846842396073,a,1.5235134128015488,1,340,1,493.2990891749505,494.8015000689775,,,,,,,,,,,,,,,,,,,,,,,,,,,,,,,,,,,,,,,,,,,,,,,,,,,,,,,,,,,,,,,,,,,,,,,,,,59446,2022-11-16_14h33.19.232,vts_reward_expectancy_bt_OFFLINE,2022.2.4,59.94312095600669,
1,0,0,0,0,0,1,0,triangle,hexagon,1,0,1,0,0,4,4,1,,,,,,,,,,,,,,,,,,,,,,,,,,,,,,,,,,,,,,,,495.3018155680038,495.3018155680038,495.3018155680038,495.3018155680038,495.3018155680038,495.3018155680038,495.3018155680038,495.3018155680038,495.3018155680038,495.3018155680038,a,1.7390934699214995,10,350,1,497.070854797028,498.57134063891135,,,,,,,,,,,,,,,,,,,,,,,,,,,,,,,,,,,,,,,,,,,,,,,,,,,,,,,,,,,,,,,,,,,,,,,,,,59446,2022-11-16_14h33.19.232,vts_reward_expectancy_bt_OFFLINE,2022.2.4,59.94312095600669,
1,0,0,0,0,1,0,0,triangle,circle,1,0,1,0,0,5,5,0,,,,,,,,,,,,,,,,,,,,,,,,,,,,,,,,,,,,,,,,499.07159920595586,499.07159920595586,499.07159920595586,499.07159920595586,499.07159920595586,499.07159920595586,499.07159920595586,499.07159920595586,499.07159920595586,499.07159920595586,a,1.2776074511930346,10,360,1,500.3721348720137,501.87250929605216,501.87250929605216,,,,,,,,,,,,,,,,,,,,,,,,,,,,,,,,,,,,,,,,,,,,,,,,,,,,,,,,,,,,,,,,,,,,,,,,,59446,2022-11-16_14h33.19.232,vts_reward_expectancy_bt_OFFLINE,2022.2.4,59.94312095600669,
0,0,0,1,1,0,0,0,star,triangle,1,0,1,0,0,6,6,9,,,,,,,,,,,,,,,,,,,,,,,,,,,,,,,,,,,,,,,,502.3728219489567,502.3728219489567,502.3728219489567,502.3728219489567,502.3728219489567,502.3728219489567,502.3728219489567,502.3728219489567,502.3728219489567,502.3728219489567,l,2.4207920159678906,1,361,1,504.8257423818577,506.3260484819766,506.3260484819766,506.8262388210278,,,,,,,,,,,,,,,,,,,,,,,,,,,,,,,,,,,,,,,,,,,,,,,,,,,,,,,,,,,,,,,,,,,,,,,,59446,2022-11-16_14h33.19.232,vts_reward_expectancy_bt_OFFLINE,2022.2.4,59.94312095600669,
0,1,0,0,0,0,0,1,circle,star,1,0,1,0,0,7,7,5,,,,,,,,,,,,,,,,,,,,,,,,,,,,,,,,,,,,,,,,506.8262388210278,506.8262388210278,506.8262388210278,506.8262388210278,506.8262388210278,506.8262388210278,506.8262388210278,506.8262388210278,506.8262388210278,506.8262388210278,l,0.7452095160260797,1,362,1,507.5930458998773,509.09533842885867,,,,,,,,,,,,,,,,,,,,,,,,,,,,,,,,,,,,,,,,,,,,,,,,,,,,,,,,,,,,,,,,,,,,,,,,,,59446,2022-11-16_14h33.19.232,vts_reward_expectancy_bt_OFFLINE,2022.2.4,59.94312095600669,
1,0,0,0,0,0,0,1,triangle,star,1,0,1,0,0,8,8,2,,,,,,,,,,,,,,,,,,,,,,,,,,,,,,,,,,,,,,,,509.5957277370617,509.5957277370617,509.5957277370617,509.5957277370617,509.5957277370617,509.5957277370617,509.5957277370617,509.5957277370617,509.5957277370617,509.5957277370617,a,0.9349421258084476,10,372,1,510.5629576789215,512.0633570079226,512.0633570079226,512.5632585859857,,,,,,,,,,,,,,,,,,,,,,,,,,,,,,,,,,,,,,,,,,,,,,,,,,,,,,,,,,,,,,,,,,,,,,,,59446,2022-11-16_14h33.19.232,vts_reward_expectancy_bt_OFFLINE,2022.2.4,59.94312095600669,
0,0,1,0,0,0,0,1,hexagon,star,1,0,1,0,0,9,9,8,,,,,,,,,,,,,,,,,,,,,,,,,,,,,,,,,,,,,,,,512.5632585859857,512.5632585859857,512.5632585859857,512.5632585859857,512.5632585859857,512.5632585859857,512.5632585859857,512.5632585859857,512.5632585859857,512.5632585859857,a,1.5794049489777535,1,373,1,514.1672213780694,515.6663835200015,515.6663835200015,516.166650445899,,,,,,,,,,,,,,,,,,,,,,,,,,,,,,,,,,,,,,,,,,,,,,,,,,,,,,,,,,,,,,,,,,,,,,,,59446,2022-11-16_14h33.19.232,vts_reward_expectancy_bt_OFFLINE,2022.2.4,59.94312095600669,
0,0,1,0,1,0,0,0,hexagon,triangle,1,0,1,0,0,10,10,6,,,,,,,,,,,,,,,,,,,,,,,,,,,,,,,,,,,,,,,,516.166650445899,516.166650445899,516.166650445899,516.166650445899,516.166650445899,516.166650445899,516.166650445899,516.166650445899,516.166650445899,516.166650445899,l,0.9122957510408014,10,383,1,517.1023895440158,518.6027746479958,,,,,,,,,,,,,,,,,,,,,,,,,,,,,,,,,,,,,,,,,,,,,,,,,,,,,,,,,,,,,,,,,,,,,,,,,,59446,2022-11-16_14h33.19.232,vts_reward_expectancy_bt_OFFLINE,2022.2.4,59.94312095600669,
0,0,0,1,0,1,0,0,star ,circle,1,0,1,0,0,11,11,10,,,,,,,,,,,,,,,,,,,,,,,,,,,,,,,,,,,,,,,,519.1027464920189,519.1027464920189,519.1027464920189,519.1027464920189,519.1027464920189,519.1027464920189,519.1027464920189,519.1027464920189,519.1027464920189,519.1027464920189,a,1.4069795589894056,10,393,1,520.5367202190682,522.0370853738859,522.0370853738859,522.5374217359349,,,,,,,,,,,,,,,,,,,,,,,,,,,,,,,,,,,,,,,,,,,,,,,,,,,,,,,,,,,,,,,,,,,,,,,,59446,2022-11-16_14h33.19.232,vts_reward_expectancy_bt_OFFLINE,2022.2.4,59.94312095600669,
1,0,0,0,0,1,0,0,triangle,circle,1,0,1,0,1,0,12,0,,,,,,,,,,,,,,,,,,,,,,,,,,,,,,,,,,,,,,,,522.5374217359349,522.5374217359349,522.5374217359349,522.5374217359349,522.5374217359349,522.5374217359349,522.5374217359349,522.5374217359349,522.5374217359349,522.5374217359349,a,0.7736182759981602,10,403,1,523.337561768014,524.8400382359978,,,,,,,,,,,,,,,,,,,,,,,,,,,,,,,,,,,,,,,,,,,,,,,,,,,,,,,,,,,,,,,,,,,,,,,,,,59446,2022-11-16_14h33.19.232,vts_reward_expectancy_bt_OFFLINE,2022.2.4,59.94312095600669,
1,0,0,0,0,0,1,0,triangle,hexagon,1,0,1,0,1,1,13,1,,,,,,,,,,,,,,,,,,,,,,,,,,,,,,,,,,,,,,,,525.340032808017,525.340032808017,525.340032808017,525.340032808017,525.340032808017,525.340032808017,525.340032808017,525.340032808017,525.340032808017,525.340032808017,a,1.5948427219409496,10,413,1,526.9572830079123,528.458022526931,528.458022526931,,,,,,,,,,,,,,,,,,,,,,,,,,,,,,,,,,,,,,,,,,,,,,,,,,,,,,,,,,,,,,,,,,,,,,,,,59446,2022-11-16_14h33.19.232,vts_reward_expectancy_bt_OFFLINE,2022.2.4,59.94312095600669,
0,1,0,0,1,0,0,0,circle,triangle,1,0,1,0,1,2,14,3,,,,,,,,,,,,,,,,,,,,,,,,,,,,,,,,,,,,,,,,528.9601008419413,528.9601008419413,528.9601008419413,528.9601008419413,528.9601008419413,528.9601008419413,528.9601008419413,528.9601008419413,528.9601008419413,528.9601008419413,l,0.7753532640635967,10,423,1,529.7603244220372,531.260710290866,531.260710290866,531.7609731019475,,,,,,,,,,,,,,,,,,,,,,,,,,,,,,,,,,,,,,,,,,,,,,,,,,,,,,,,,,,,,,,,,,,,,,,,59446,2022-11-16_14h33.19.232,vts_reward_expectancy_bt_OFFLINE,2022.2.4,59.94312095600669,
0,0,1,0,0,1,0,0,hexagon,circle,1,0,1,0,1,3,15,7,,,,,,,,,,,,,,,,,,,,,,,,,,,,,,,,,,,,,,,,531.7609731019475,531.7609731019475,531.7609731019475,531.7609731019475,531.7609731019475,531.7609731019475,531.7609731019475,531.7609731019475,531.7609731019475,531.7609731019475,l,0.7314004141371697,1,424,1,532.5129367010668,534.0138262209948,,,,,,,,,,,,,,,,,,,,,,,,,,,,,,,,,,,,,,,,,,,,,,,,,,,,,,,,,,,,,,,,,,,,,,,,,,59446,2022-11-16_14h33.19.232,vts_reward_expectancy_bt_OFFLINE,2022.2.4,59.94312095600669,
0,1,0,0,0,0,0,1,circle,star,1,0,1,0,1,4,16,5,,,,,,,,,,,,,,,,,,,,,,,,,,,,,,,,,,,,,,,,534.513847444905,534.513847444905,534.513847444905,534.513847444905,534.513847444905,534.513847444905,534.513847444905,534.513847444905,534.513847444905,534.513847444905,l,1.195337634999305,1,425,1,535.7309476118535,537.2316474688705,537.2316474688705,537.7318345250096,,,,,,,,,,,,,,,,,,,,,,,,,,,,,,,,,,,,,,,,,,,,,,,,,,,,,,,,,,,,,,,,,,,,,,,,59446,2022-11-16_14h33.19.232,vts_reward_expectancy_bt_OFFLINE,2022.2.4,59.94312095600669,
0,1,0,0,0,0,1,0,circle,hexagon,1,0,1,0,1,5,17,4,,,,,,,,,,,,,,,,,,,,,,,,,,,,,,,,,,,,,,,,537.7318345250096,537.7318345250096,537.7318345250096,537.7318345250096,537.7318345250096,537.7318345250096,537.7318345250096,537.7318345250096,537.7318345250096,537.7318345250096,a,0.813303048023954,1,426,1,538.5701822028495,540.0844280209858,,,,,,,,,,,,,,,,,,,,,,,,,,,,,,,,,,,,,,,,,,,,,,,,,,,,,,,,,,,,,,,,,,,,,,,,,,59446,2022-11-16_14h33.19.232,vts_reward_expectancy_bt_OFFLINE,2022.2.4,59.94312095600669,
0,0,0,1,0,1,0,0,star ,circle,1,0,1,0,1,6,18,10,,,,,,,,,,,,,,,,,,,,,,,,,,,,,,,,,,,,,,,,540.5844888288993,540.5844888288993,540.5844888288993,540.5844888288993,540.5844888288993,540.5844888288993,540.5844888288993,540.5844888288993,540.5844888288993,540.5844888288993,a,1.1776167780626565,1,427,1,541.7850595829077,543.2852803738788,543.2852803738788,,,,,,,,,,,,,,,,,,,,,,,,,,,,,,,,,,,,,,,,,,,,,,,,,,,,,,,,,,,,,,,,,,,,,,,,,59446,2022-11-16_14h33.19.232,vts_reward_expectancy_bt_OFFLINE,2022.2.4,59.94312095600669,
0,0,0,1,0,0,1,0,star,hexagon,1,0,1,0,1,7,19,11,,,,,,,,,,,,,,,,,,,,,,,,,,,,,,,,,,,,,,,,543.78755575791,543.78755575791,543.78755575791,543.78755575791,543.78755575791,543.78755575791,543.78755575791,543.78755575791,543.78755575791,543.78755575791,l,0.6076754520181566,1,428,1,544.4209859508555,545.9215708959382,545.9215708959382,546.4218430989422,,,,,,,,,,,,,,,,,,,,,,,,,,,,,,,,,,,,,,,,,,,,,,,,,,,,,,,,,,,,,,,,,,,,,,,,59446,2022-11-16_14h33.19.232,vts_reward_expectancy_bt_OFFLINE,2022.2.4,59.94312095600669,
0,0,0,1,1,0,0,0,star,triangle,1,0,1,0,1,8,20,9,,,,,,,,,,,,,,,,,,,,,,,,,,,,,,,,,,,,,,,,546.4218430989422,546.4218430989422,546.4218430989422,546.4218430989422,546.4218430989422,546.4218430989422,546.4218430989422,546.4218430989422,546.4218430989422,546.4218430989422,l,0.6850546768400818,1,429,1,547.1388500779867,548.6411324320361,,,,,,,,,,,,,,,,,,,,,,,,,,,,,,,,,,,,,,,,,,,,,,,,,,,,,,,,,,,,,,,,,,,,,,,,,,59446,2022-11-16_14h33.19.232,vts_reward_expectancy_bt_OFFLINE,2022.2.4,59.94312095600669,
0,0,1,0,0,0,0,1,hexagon,star,1,0,1,0,1,9,21,8,,,,,,,,,,,,,,,,,,,,,,,,,,,,,,,,,,,,,,,,549.1413881899789,549.1413881899789,549.1413881899789,549.1413881899789,549.1413881899789,549.1413881899789,549.1413881899789,549.1413881899789,549.1413881899789,549.1413881899789,a,1.4531797729432583,1,430,1,550.6253733059857,552.1258661129978,552.1258661129978,552.6260762850288,,,,,,,,,,,,,,,,,,,,,,,,,,,,,,,,,,,,,,,,,,,,,,,,,,,,,,,,,,,,,,,,,,,,,,,,59446,2022-11-16_14h33.19.232,vts_reward_expectancy_bt_OFFLINE,2022.2.4,59.94312095600669,
1,0,0,0,0,0,0,1,triangle,star,1,0,1,0,1,10,22,2,,,,,,,,,,,,,,,,,,,,,,,,,,,,,,,,,,,,,,,,552.6260762850288,552.6260762850288,552.6260762850288,552.6260762850288,552.6260762850288,552.6260762850288,552.6260762850288,552.6260762850288,552.6260762850288,552.6260762850288,a,0.7465073589701205,10,440,1,553.3941452919971,554.895292110974,,,,,,,,,,,,,,,,,,,,,,,,,,,,,,,,,,,,,,,,,,,,,,,,,,,,,,,,,,,,,,,,,,,,,,,,,,59446,2022-11-16_14h33.19.232,vts_reward_expectancy_bt_OFFLINE,2022.2.4,59.94312095600669,
0,0,1,0,1,0,0,0,hexagon,triangle,1,0,1,0,1,11,23,6,,,,,,,,,,,,,,,,,,,,,,,,,,,,,,,,,,,,,,,,555.3953895668965,555.3953895668965,555.3953895668965,555.3953895668965,555.3953895668965,555.3953895668965,555.3953895668965,555.3953895668965,555.3953895668965,555.3953895668965,l,0.9030681161675602,10,450,1,556.3291650440078,557.8296937488485,557.8296937488485,558.329495138023,,,,,,,,,,,,,,,,,,,,,,,,,,,,,,,,,,,,,,,,,,,,,,,,,,,,,,,,,,,,,,,,,,,,,,,,59446,2022-11-16_14h33.19.232,vts_reward_expectancy_bt_OFFLINE,2022.2.4,59.94312095600669,
1,0,0,0,0,0,1,0,triangle,hexagon,1,0,1,0,2,0,24,1,,,,,,,,,,,,,,,,,,,,,,,,,,,,,,,,,,,,,,,,558.329495138023,558.329495138023,558.329495138023,558.329495138023,558.329495138023,558.329495138023,558.329495138023,558.329495138023,558.329495138023,558.329495138023,a,0.5221333510708064,10,460,1,558.8818059049081,560.3824261839036,560.3824261839036,,,,,,,,,,,,,,,,,,,,,,,,,,,,,,,,,,,,,,,,,,,,,,,,,,,,,,,,,,,,,,,,,,,,,,,,,59446,2022-11-16_14h33.19.232,vts_reward_expectancy_bt_OFFLINE,2022.2.4,59.94312095600669,
0,1,0,0,1,0,0,0,circle,triangle,1,0,1,0,2,1,25,3,,,,,,,,,,,,,,,,,,,,,,,,,,,,,,,,,,,,,,,,560.8825303830672,560.8825303830672,560.8825303830672,560.8825303830672,560.8825303830672,560.8825303830672,560.8825303830672,560.8825303830672,560.8825303830672,560.8825303830672,l,0.3879091669805348,1,461,1,561.3004930019379,562.7996911678929,,,,,,,,,,,,,,,,,,,,,,,,,,,,,,,,,,,,,,,,,,,,,,,,,,,,,,,,,,,,,,,,,,,,,,,,,,59446,2022-11-16_14h33.19.232,vts_reward_expectancy_bt_OFFLINE,2022.2.4,59.94312095600669,
0,1,0,0,0,0,1,0,circle,hexagon,1,0,1,0,2,2,26,4,,,,,,,,,,,,,,,,,,,,,,,,,,,,,,,,,,,,,,,,563.3000794108957,563.3000794108957,563.3000794108957,563.3000794108957,563.3000794108957,563.3000794108957,563.3000794108957,563.3000794108957,563.3000794108957,563.3000794108957,a,1.3574642851017416,10,471,1,564.6875631459989,566.2028929749504,,,,,,,,,,,,,,,,,,,,,,,,,,,,,,,,,,,,,,,,,,,,,,,,,,,,,,,,,,,,,,,,,,,,,,,,,,59446,2022-11-16_14h33.19.232,vts_reward_expectancy_bt_OFFLINE,2022.2.4,59.94312095600669,
1,0,0,0,0,1,0,0,triangle,circle,1,0,1,0,2,3,27,0,,,,,,,,,,,,,,,,,,,,,,,,,,,,,,,,,,,,,,,,566.7031426609028,566.7031426609028,566.7031426609028,566.7031426609028,566.7031426609028,566.7031426609028,566.7031426609028,566.7031426609028,566.7031426609028,566.7031426609028,a,0.6658902990166098,1,472,1,567.3885863148607,568.8890258260071,,,,,,,,,,,,,,,,,,,,,,,,,,,,,,,,,,,,,,,,,,,,,,,,,,,,,,,,,,,,,,,,,,,,,,,,,,59446,2022-11-16_14h33.19.232,vts_reward_expectancy_bt_OFFLINE,2022.2.4,59.94312095600669,
1,0,0,0,0,0,0,1,triangle,star,1,0,1,0,2,4,28,2,,,,,,,,,,,,,,,,,,,,,,,,,,,,,,,,,,,,,,,,569.3893914290238,569.3893914290238,569.3893914290238,569.3893914290238,569.3893914290238,569.3893914290238,569.3893914290238,569.3893914290238,569.3893914290238,569.3893914290238,a,0.690266284160316,10,482,1,570.1080329359975,571.623288129922,,,,,,,,,,,,,,,,,,,,,,,,,,,,,,,,,,,,,,,,,,,,,,,,,,,,,,,,,,,,,,,,,,,,,,,,,,59446,2022-11-16_14h33.19.232,vts_reward_expectancy_bt_OFFLINE,2022.2.4,59.94312095600669,
0,0,0,1,1,0,0,0,star,triangle,1,0,1,0,2,5,29,9,,,,,,,,,,,,,,,,,,,,,,,,,,,,,,,,,,,,,,,,572.1236120408867,572.1236120408867,572.1236120408867,572.1236120408867,572.1236120408867,572.1236120408867,572.1236120408867,572.1236120408867,572.1236120408867,572.1236120408867,l,0.6117449740413576,10,492,1,572.7571943260264,574.2594779799692,,,,,,,,,,,,,,,,,,,,,,,,,,,,,,,,,,,,,,,,,,,,,,,,,,,,,,,,,,,,,,,,,,,,,,,,,,59446,2022-11-16_14h33.19.232,vts_reward_expectancy_bt_OFFLINE,2022.2.4,59.94312095600669,
0,0,1,0,0,1,0,0,hexagon,circle,1,0,1,0,2,6,30,7,,,,,,,,,,,,,,,,,,,,,,,,,,,,,,,,,,,,,,,,574.7599132140167,574.7599132140167,574.7599132140167,574.7599132140167,574.7599132140167,574.7599132140167,574.7599132140167,574.7599132140167,574.7599132140167,574.7599132140167,a,0.428712815977633,1,493,1,575.2116474730428,576.7269996819086,,,,,,,,,,,,,,,,,,,,,,,,,,,,,,,,,,,,,,,,,,,,,,,,,,,,,,,,,,,,,,,,,,,,,,,,,,59446,2022-11-16_14h33.19.232,vts_reward_expectancy_bt_OFFLINE,2022.2.4,59.94312095600669,
0,0,1,0,1,0,0,0,hexagon,triangle,1,0,1,0,2,7,31,6,,,,,,,,,,,,,,,,,,,,,,,,,,,,,,,,,,,,,,,,577.2271974100731,577.2271974100731,577.2271974100731,577.2271974100731,577.2271974100731,577.2271974100731,577.2271974100731,577.2271974100731,577.2271974100731,577.2271974100731,l,0.8628552388399839,10,503,1,578.1123678940348,579.6133934380487,,,,,,,,,,,,,,,,,,,,,,,,,,,,,,,,,,,,,,,,,,,,,,,,,,,,,,,,,,,,,,,,,,,,,,,,,,59446,2022-11-16_14h33.19.232,vts_reward_expectancy_bt_OFFLINE,2022.2.4,59.94312095600669,
0,0,1,0,0,0,0,1,hexagon,star,1,0,1,0,2,8,32,8,,,,,,,,,,,,,,,,,,,,,,,,,,,,,,,,,,,,,,,,580.1135087739676,580.1135087739676,580.1135087739676,580.1135087739676,580.1135087739676,580.1135087739676,580.1135087739676,580.1135087739676,580.1135087739676,580.1135087739676,l,1.138797339051962,1,504,1,581.2822646968998,582.7976197700482,,,,,,,,,,,,,,,,,,,,,,,,,,,,,,,,,,,,,,,,,,,,,,,,,,,,,,,,,,,,,,,,,,,,,,,,,,59446,2022-11-16_14h33.19.232,vts_reward_expectancy_bt_OFFLINE,2022.2.4,59.94312095600669,
0,0,0,1,0,0,1,0,star,hexagon,1,0,1,0,2,9,33,11,,,,,,,,,,,,,,,,,,,,,,,,,,,,,,,,,,,,,,,,583.297946079867,583.297946079867,583.297946079867,583.297946079867,583.297946079867,583.297946079867,583.297946079867,583.297946079867,583.297946079867,583.297946079867,a,1.2611557219643146,1,505,1,584.583743361989,586.084232180845,586.084232180845,586.584496024996,,,,,,,,,,,,,,,,,,,,,,,,,,,,,,,,,,,,,,,,,,,,,,,,,,,,,,,,,,,,,,,,,,,,,,,,59446,2022-11-16_14h33.19.232,vts_reward_expectancy_bt_OFFLINE,2022.2.4,59.94312095600669,
0,1,0,0,0,0,0,1,circle,star,1,0,1,0,2,10,34,5,,,,,,,,,,,,,,,,,,,,,,,,,,,,,,,,,,,,,,,,586.584496024996,586.584496024996,586.584496024996,586.584496024996,586.584496024996,586.584496024996,586.584496024996,586.584496024996,586.584496024996,586.584496024996,a,1.8905855400953442,10,515,1,588.5030749230646,590.0040896348655,,,,,,,,,,,,,,,,,,,,,,,,,,,,,,,,,,,,,,,,,,,,,,,,,,,,,,,,,,,,,,,,,,,,,,,,,,59446,2022-11-16_14h33.19.232,vts_reward_expectancy_bt_OFFLINE,2022.2.4,59.94312095600669,
0,0,0,1,0,1,0,0,star ,circle,1,0,1,0,2,11,35,10,,,,,,,,,,,,,,,,,,,,,,,,,,,,,,,,,,,,,,,,590.5041840060148,590.5041840060148,590.5041840060148,590.5041840060148,590.5041840060148,590.5041840060148,590.5041840060148,590.5041840060148,590.5041840060148,590.5041840060148,l,0.4566604329738766,10,525,1,590.9876522968989,592.4883466148749,592.4883466148749,592.9882467240095,,,,,,,,,,,,,,,,,,,,,,,,,,,,,,,,,,,,,,,,,,,,,,,,,,,,,,,,,,,,,,,,,,,,,,,,59446,2022-11-16_14h33.19.232,vts_reward_expectancy_bt_OFFLINE,2022.2.4,59.94312095600669,
0,0,0,1,0,1,0,0,star ,circle,1,0,1,0,3,0,36,10,,,,,,,,,,,,,,,,,,,,,,,,,,,,,,,,,,,,,,,,592.9882467240095,592.9882467240095,592.9882467240095,592.9882467240095,592.9882467240095,592.9882467240095,592.9882467240095,592.9882467240095,592.9882467240095,592.9882467240095,l,0.5601017768494785,10,535,1,593.5698092849925,595.0744793480262,,,,,,,,,,,,,,,,,,,,,,,,,,,,,,,,,,,,,,,,,,,,,,,,,,,,,,,,,,,,,,,,,,,,,,,,,,59446,2022-11-16_14h33.19.232,vts_reward_expectancy_bt_OFFLINE,2022.2.4,59.94312095600669,
0,1,0,0,0,0,1,0,circle,hexagon,1,0,1,0,3,1,37,4,,,,,,,,,,,,,,,,,,,,,,,,,,,,,,,,,,,,,,,,595.5746760289185,595.5746760289185,595.5746760289185,595.5746760289185,595.5746760289185,595.5746760289185,595.5746760289185,595.5746760289185,595.5746760289185,595.5746760289185,a,1.4275657180696726,10,545,1,597.0251974829007,598.5253938320093,598.5253938320093,,,,,,,,,,,,,,,,,,,,,,,,,,,,,,,,,,,,,,,,,,,,,,,,,,,,,,,,,,,,,,,,,,,,,,,,,59446,2022-11-16_14h33.19.232,vts_reward_expectancy_bt_OFFLINE,2022.2.4,59.94312095600669,
0,0,0,1,0,0,1,0,star,hexagon,1,0,1,0,3,2,38,11,,,,,,,,,,,,,,,,,,,,,,,,,,,,,,,,,,,,,,,,599.027477521915,599.027477521915,599.027477521915,599.027477521915,599.027477521915,599.027477521915,599.027477521915,599.027477521915,599.027477521915,599.027477521915,a,2.0485195768997073,10,555,1,601.0952597009018,602.5955545129254,602.5955545129254,603.0958269920666,,,,,,,,,,,,,,,,,,,,,,,,,,,,,,,,,,,,,,,,,,,,,,,,,,,,,,,,,,,,,,,,,,,,,,,,59446,2022-11-16_14h33.19.232,vts_reward_expectancy_bt_OFFLINE,2022.2.4,59.94312095600669,
0,0,1,0,0,0,0,1,hexagon,star,1,0,1,0,3,3,39,8,,,,,,,,,,,,,,,,,,,,,,,,,,,,,,,,,,,,,,,,603.0958269920666,603.0958269920666,603.0958269920666,603.0958269920666,603.0958269920666,603.0958269920666,603.0958269920666,603.0958269920666,603.0958269920666,603.0958269920666,l,0.9945543040521443,1,556,1,604.1164710579906,605.6318306778558,,,,,,,,,,,,,,,,,,,,,,,,,,,,,,,,,,,,,,,,,,,,,,,,,,,,,,,,,,,,,,,,,,,,,,,,,,59446,2022-11-16_14h33.19.232,vts_reward_expectancy_bt_OFFLINE,2022.2.4,59.94312095600669,
0,1,0,0,0,0,0,1,circle,star,1,0,1,0,3,4,40,5,,,,,,,,,,,,,,,,,,,,,,,,,,,,,,,,,,,,,,,,606.1320568360388,606.1320568360388,606.1320568360388,606.1320568360388,606.1320568360388,606.1320568360388,606.1320568360388,606.1320568360388,606.1320568360388,606.1320568360388,a,1.4233738959301263,1,557,1,607.5827225809917,609.0848769759759,,,,,,,,,,,,,,,,,,,,,,,,,,,,,,,,,,,,,,,,,,,,,,,,,,,,,,,,,,,,,,,,,,,,,,,,,,59446,2022-11-16_14h33.19.232,vts_reward_expectancy_bt_OFFLINE,2022.2.4,59.94312095600669,
1,0,0,0,0,0,0,1,triangle,star,1,0,1,0,3,5,41,2,,,,,,,,,,,,,,,,,,,,,,,,,,,,,,,,,,,,,,,,609.5849286720622,609.5849286720622,609.5849286720622,609.5849286720622,609.5849286720622,609.5849286720622,609.5849286720622,609.5849286720622,609.5849286720622,609.5849286720622,a,0.7048436440527439,10,567,1,610.320497039007,611.8358463188633,,,,,,,,,,,,,,,,,,,,,,,,,,,,,,,,,,,,,,,,,,,,,,,,,,,,,,,,,,,,,,,,,,,,,,,,,,59446,2022-11-16_14h33.19.232,vts_reward_expectancy_bt_OFFLINE,2022.2.4,59.94312095600669,
0,0,1,0,1,0,0,0,hexagon,triangle,1,0,1,0,3,6,42,6,,,,,,,,,,,,,,,,,,,,,,,,,,,,,,,,,,,,,,,,612.3194271409884,612.3194271409884,612.3194271409884,612.3194271409884,612.3194271409884,612.3194271409884,612.3194271409884,612.3194271409884,612.3194271409884,612.3194271409884,l,0.389722665771842,1,568,1,612.7381168010179,614.2386318719946,,,,,,,,,,,,,,,,,,,,,,,,,,,,,,,,,,,,,,,,,,,,,,,,,,,,,,,,,,,,,,,,,,,,,,,,,,59446,2022-11-16_14h33.19.232,vts_reward_expectancy_bt_OFFLINE,2022.2.4,59.94312095600669,
0,1,0,0,1,0,0,0,circle,triangle,1,0,1,0,3,7,43,3,,,,,,,,,,,,,,,,,,,,,,,,,,,,,,,,,,,,,,,,614.7387788060587,614.7387788060587,614.7387788060587,614.7387788060587,614.7387788060587,614.7387788060587,614.7387788060587,614.7387788060587,614.7387788060587,614.7387788060587,l,0.3657445248682052,1,569,1,615.1222703328822,616.6226954408921,616.6226954408921,617.1230235849507,,,,,,,,,,,,,,,,,,,,,,,,,,,,,,,,,,,,,,,,,,,,,,,,,,,,,,,,,,,,,,,,,,,,,,,,59446,2022-11-16_14h33.19.232,vts_reward_expectancy_bt_OFFLINE,2022.2.4,59.94312095600669,
1,0,0,0,0,0,1,0,triangle,hexagon,1,0,1,0,3,8,44,1,,,,,,,,,,,,,,,,,,,,,,,,,,,,,,,,,,,,,,,,617.1230235849507,617.1230235849507,617.1230235849507,617.1230235849507,617.1230235849507,617.1230235849507,617.1230235849507,617.1230235849507,617.1230235849507,617.1230235849507,a,0.3901350940577686,10,579,1,617.5420536750462,619.0419472078793,,,,,,,,,,,,,,,,,,,,,,,,,,,,,,,,,,,,,,,,,,,,,,,,,,,,,,,,,,,,,,,,,,,,,,,,,,59446,2022-11-16_14h33.19.232,vts_reward_expectancy_bt_OFFLINE,2022.2.4,59.94312095600669,
0,0,1,0,0,1,0,0,hexagon,circle,1,0,1,0,3,9,45,7,,,,,,,,,,,,,,,,,,,,,,,,,,,,,,,,,,,,,,,,619.5424334539566,619.5424334539566,619.5424334539566,619.5424334539566,619.5424334539566,619.5424334539566,619.5424334539566,619.5424334539566,619.5424334539566,619.5424334539566,l,0.827306147897616,1,580,1,620.3948335049208,621.9099598559551,,,,,,,,,,,,,,,,,,,,,,,,,,,,,,,,,,,,,,,,,,,,,,,,,,,,,,,,,,,,,,,,,,,,,,,,,,59446,2022-11-16_14h33.19.232,vts_reward_expectancy_bt_OFFLINE,2022.2.4,59.94312095600669,
0,0,0,1,1,0,0,0,star,triangle,1,0,1,0,3,10,46,9,,,,,,,,,,,,,,,,,,,,,,,,,,,,,,,,,,,,,,,,622.4101470229216,622.4101470229216,622.4101470229216,622.4101470229216,622.4101470229216,622.4101470229216,622.4101470229216,622.4101470229216,622.4101470229216,622.4101470229216,l,0.3456727317534387,1,581,1,622.7767655469943,624.2793799240608,,,,,,,,,,,,,,,,,,,,,,,,,,,,,,,,,,,,,,,,,,,,,,,,,,,,,,,,,,,,,,,,,,,,,,,,,,59446,2022-11-16_14h33.19.232,vts_reward_expectancy_bt_OFFLINE,2022.2.4,59.94312095600669,
1,0,0,0,0,1,0,0,triangle,circle,1,0,1,0,3,11,47,0,,,,,,,,,,,,,,,,,,,,,,,,,,,,,,,,,,,,,,,,624.7795686100144,624.7795686100144,624.7795686100144,624.7795686100144,624.7795686100144,624.7795686100144,624.7795686100144,624.7795686100144,624.7795686100144,624.7795686100144,a,0.47389288805425167,10,591,1,625.2812596899457,626.7969568979461,,,,,,,,,,,,,,,,,,,,,,,,,,,,,,,,,,,,,,,,,,,,,,,,,,,,,,,,,,,,,,,,,,,,,,,,,,59446,2022-11-16_14h33.19.232,vts_reward_expectancy_bt_OFFLINE,2022.2.4,59.94312095600669,
0,1,0,0,1,0,0,0,circle,triangle,2,0,2,0,0,0,0,3,,,,,,,,,,,,,,,,,,,,,,,,,,,,,,,,,,,,,,,,629.3778544529341,629.3778544529341,629.3778544529341,629.3778544529341,629.3778544529341,629.3778544529341,629.3778544529341,629.3778544529341,629.3778544529341,629.3778544529341,l,0.9824499399401248,10,601,2,630.3834867288824,631.8838605419733,631.8838605419733,632.3840756618883,,,,,,,,,,,,,,,,,,,,,,,,,,,,,,,,,,,,,,,,,,,,,,,,,,,,,,,,,,,,,,,,,,,,,,,,59446,2022-11-16_14h33.19.232,vts_reward_expectancy_bt_OFFLINE,2022.2.4,59.94312095600669,
1,0,0,0,0,1,0,0,triangle,circle,2,0,2,0,0,1,1,0,,,,,,,,,,,,,,,,,,,,,,,,,,,,,,,,,,,,,,,,632.3840756618883,632.3840756618883,632.3840756618883,632.3840756618883,632.3840756618883,632.3840756618883,632.3840756618883,632.3840756618883,632.3840756618883,632.3840756618883,a,0.6086819868069142,1,602,2,633.0198752300348,634.5198596869595,,,,,,,,,,,,,,,,,,,,,,,,,,,,,,,,,,,,,,,,,,,,,,,,,,,,,,,,,,,,,,,,,,,,,,,,,,59446,2022-11-16_14h33.19.232,vts_reward_expectancy_bt_OFFLINE,2022.2.4,59.94312095600669,
1,0,0,0,0,0,1,0,triangle,hexagon,2,0,2,0,0,2,2,1,,,,,,,,,,,,,,,,,,,,,,,,,,,,,,,,,,,,,,,,635.0199898248538,635.0199898248538,635.0199898248538,635.0199898248538,635.0199898248538,635.0199898248538,635.0199898248538,635.0199898248538,635.0199898248538,635.0199898248538,a,0.8876295699737966,1,603,2,635.9372894349508,637.4375123190694,637.4375123190694,637.9378881580196,,,,,,,,,,,,,,,,,,,,,,,,,,,,,,,,,,,,,,,,,,,,,,,,,,,,,,,,,,,,,,,,,,,,,,,,59446,2022-11-16_14h33.19.232,vts_reward_expectancy_bt_OFFLINE,2022.2.4,59.94312095600669,
0,0,1,0,0,1,0,0,hexagon,circle,2,0,2,0,0,3,3,7,,,,,,,,,,,,,,,,,,,,,,,,,,,,,,,,,,,,,,,,637.9378881580196,637.9378881580196,637.9378881580196,637.9378881580196,637.9378881580196,637.9378881580196,637.9378881580196,637.9378881580196,637.9378881580196,637.9378881580196,a,0.4439937248826027,10,613,2,638.4067660409492,639.9070723848417,,,,,,,,,,,,,,,,,,,,,,,,,,,,,,,,,,,,,,,,,,,,,,,,,,,,,,,,,,,,,,,,,,,,,,,,,,59446,2022-11-16_14h33.19.232,vts_reward_expectancy_bt_OFFLINE,2022.2.4,59.94312095600669,
0,1,0,0,0,0,0,1,circle,star,2,0,2,0,0,4,4,5,,,,,,,,,,,,,,,,,,,,,,,,,,,,,,,,,,,,,,,,640.4072646528948,640.4072646528948,640.4072646528948,640.4072646528948,640.4072646528948,640.4072646528948,640.4072646528948,640.4072646528948,640.4072646528948,640.4072646528948,a,0.5180292259901762,10,623,2,640.9574914330151,642.4581455509178,642.4581455509178,642.9581824569032,,,,,,,,,,,,,,,,,,,,,,,,,,,,,,,,,,,,,,,,,,,,,,,,,,,,,,,,,,,,,,,,,,,,,,,,59446,2022-11-16_14h33.19.232,vts_reward_expectancy_bt_OFFLINE,2022.2.4,59.94312095600669,
0,0,1,0,1,0,0,0,hexagon,triangle,2,0,2,0,0,5,5,6,,,,,,,,,,,,,,,,,,,,,,,,,,,,,,,,,,,,,,,,642.9581824569032,642.9581824569032,642.9581824569032,642.9581824569032,642.9581824569032,642.9581824569032,642.9581824569032,642.9581824569032,642.9581824569032,642.9581824569032,a,0.29534877091646194,10,633,2,643.2749409149401,644.7775649048854,,,,,,,,,,,,,,,,,,,,,,,,,,,,,,,,,,,,,,,,,,,,,,,,,,,,,,,,,,,,,,,,,,,,,,,,,,59446,2022-11-16_14h33.19.232,vts_reward_expectancy_bt_OFFLINE,2022.2.4,59.94312095600669,
0,0,1,0,0,0,0,1,hexagon,star,2,0,2,0,0,6,6,8,,,,,,,,,,,,,,,,,,,,,,,,,,,,,,,,,,,,,,,,645.277741604019,645.277741604019,645.277741604019,645.277741604019,645.277741604019,645.277741604019,645.277741604019,645.277741604019,645.277741604019,645.277741604019,l,0.2711347369477153,1,634,2,645.5793660769705,647.0947241368704,,,,,,,,,,,,,,,,,,,,,,,,,,,,,,,,,,,,,,,,,,,,,,,,,,,,,,,,,,,,,,,,,,,,,,,,,,59446,2022-11-16_14h33.19.232,vts_reward_expectancy_bt_OFFLINE,2022.2.4,59.94312095600669,
0,0,0,1,0,1,0,0,star ,circle,2,0,2,0,0,7,7,10,,,,,,,,,,,,,,,,,,,,,,,,,,,,,,,,,,,,,,,,647.57823903393,647.57823903393,647.57823903393,647.57823903393,647.57823903393,647.57823903393,647.57823903393,647.57823903393,647.57823903393,647.57823903393,l,0.7385282048489898,10,644,2,648.3472907210235,649.8475852839183,,,,,,,,,,,,,,,,,,,,,,,,,,,,,,,,,,,,,,,,,,,,,,,,,,,,,,,,,,,,,,,,,,,,,,,,,,59446,2022-11-16_14h33.19.232,vts_reward_expectancy_bt_OFFLINE,2022.2.4,59.94312095600669,
0,0,0,1,0,0,1,0,star,hexagon,2,0,2,0,0,8,8,11,,,,,,,,,,,,,,,,,,,,,,,,,,,,,,,,,,,,,,,,650.3478761578444,650.3478761578444,650.3478761578444,650.3478761578444,650.3478761578444,650.3478761578444,650.3478761578444,650.3478761578444,650.3478761578444,650.3478761578444,a,1.1971437248867005,10,654,2,651.5650475348812,653.0654199619312,653.0654199619312,,,,,,,,,,,,,,,,,,,,,,,,,,,,,,,,,,,,,,,,,,,,,,,,,,,,,,,,,,,,,,,,,,,,,,,,,59446,2022-11-16_14h33.19.232,vts_reward_expectancy_bt_OFFLINE,2022.2.4,59.94312095600669,
0,1,0,0,0,0,1,0,circle,hexagon,2,0,2,0,0,9,9,4,,,,,,,,,,,,,,,,,,,,,,,,,,,,,,,,,,,,,,,,653.5654839859344,653.5654839859344,653.5654839859344,653.5654839859344,653.5654839859344,653.5654839859344,653.5654839859344,653.5654839859344,653.5654839859344,653.5654839859344,a,0.9383791049476713,10,664,2,654.5344706398901,656.0349394718651,656.0349394718651,656.5349907900672,,,,,,,,,,,,,,,,,,,,,,,,,,,,,,,,,,,,,,,,,,,,,,,,,,,,,,,,,,,,,,,,,,,,,,,,59446,2022-11-16_14h33.19.232,vts_reward_expectancy_bt_OFFLINE,2022.2.4,59.94312095600669,
0,0,0,1,1,0,0,0,star,triangle,2,0,2,0,0,10,10,9,,,,,,,,,,,,,,,,,,,,,,,,,,,,,,,,,,,,,,,,656.5349907900672,656.5349907900672,656.5349907900672,656.5349907900672,656.5349907900672,656.5349907900672,656.5349907900672,656.5349907900672,656.5349907900672,656.5349907900672,l,0.816228860989213,1,665,2,657.370953121921,658.8711835150607,,,,,,,,,,,,,,,,,,,,,,,,,,,,,,,,,,,,,,,,,,,,,,,,,,,,,,,,,,,,,,,,,,,,,,,,,,59446,2022-11-16_14h33.19.232,vts_reward_expectancy_bt_OFFLINE,2022.2.4,59.94312095600669,
1,0,0,0,0,0,0,1,triangle,star,2,0,2,0,0,11,11,2,,,,,,,,,,,,,,,,,,,,,,,,,,,,,,,,,,,,,,,,659.3714441959746,659.3714441959746,659.3714441959746,659.3714441959746,659.3714441959746,659.3714441959746,659.3714441959746,659.3714441959746,659.3714441959746,659.3714441959746,l,1.5678143599070609,1,666,2,660.9718647459522,662.4726061220281,662.4726061220281,662.9726924628485,,,,,,,,,,,,,,,,,,,,,,,,,,,,,,,,,,,,,,,,,,,,,,,,,,,,,,,,,,,,,,,,,,,,,,,,59446,2022-11-16_14h33.19.232,vts_reward_expectancy_bt_OFFLINE,2022.2.4,59.94312095600669,
1,0,0,0,0,0,0,1,triangle,star,2,0,2,0,1,0,12,2,,,,,,,,,,,,,,,,,,,,,,,,,,,,,,,,,,,,,,,,662.9726924628485,662.9726924628485,662.9726924628485,662.9726924628485,662.9726924628485,662.9726924628485,662.9726924628485,662.9726924628485,662.9726924628485,662.9726924628485,a,0.8476532129570842,10,676,2,663.8434220009949,665.3588003499899,,,,,,,,,,,,,,,,,,,,,,,,,,,,,,,,,,,,,,,,,,,,,,,,,,,,,,,,,,,,,,,,,,,,,,,,,,59446,2022-11-16_14h33.19.232,vts_reward_expectancy_bt_OFFLINE,2022.2.4,59.94312095600669,
0,1,0,0,0,0,0,1,circle,star,2,0,2,0,1,1,13,5,,,,,,,,,,,,,,,,,,,,,,,,,,,,,,,,,,,,,,,,665.8588219739031,665.8588219739031,665.8588219739031,665.8588219739031,665.8588219739031,665.8588219739031,665.8588219739031,665.8588219739031,665.8588219739031,665.8588219739031,a,0.8971313580404967,1,677,2,666.7775500488933,668.2763781119138,,,,,,,,,,,,,,,,,,,,,,,,,,,,,,,,,,,,,,,,,,,,,,,,,,,,,,,,,,,,,,,,,,,,,,,,,,59446,2022-11-16_14h33.19.232,vts_reward_expectancy_bt_OFFLINE,2022.2.4,59.94312095600669,
0,0,1,0,0,1,0,0,hexagon,circle,2,0,2,0,1,2,14,7,,,,,,,,,,,,,,,,,,,,,,,,,,,,,,,,,,,,,,,,668.7784630379174,668.7784630379174,668.7784630379174,668.7784630379174,668.7784630379174,668.7784630379174,668.7784630379174,668.7784630379174,668.7784630379174,668.7784630379174,l,0.9250346960034221,10,687,2,669.7309419040103,671.2461500498466,,,,,,,,,,,,,,,,,,,,,,,,,,,,,,,,,,,,,,,,,,,,,,,,,,,,,,,,,,,,,,,,,,,,,,,,,,59446,2022-11-16_14h33.19.232,vts_reward_expectancy_bt_OFFLINE,2022.2.4,59.94312095600669,
0,0,0,1,0,1,0,0,star ,circle,2,0,2,0,1,3,15,10,,,,,,,,,,,,,,,,,,,,,,,,,,,,,,,,,,,,,,,,671.7460459540598,671.7460459540598,671.7460459540598,671.7460459540598,671.7460459540598,671.7460459540598,671.7460459540598,671.7460459540598,671.7460459540598,671.7460459540598,l,0.6809944729320705,1,688,2,672.448362583993,673.9487931819167,,,,,,,,,,,,,,,,,,,,,,,,,,,,,,,,,,,,,,,,,,,,,,,,,,,,,,,,,,,,,,,,,,,,,,,,,,59446,2022-11-16_14h33.19.232,vts_reward_expectancy_bt_OFFLINE,2022.2.4,59.94312095600669,
1,0,0,0,0,1,0,0,triangle,circle,2,0,2,0,1,4,16,0,,,,,,,,,,,,,,,,,,,,,,,,,,,,,,,,,,,,,,,,674.4487608638592,674.4487608638592,674.4487608638592,674.4487608638592,674.4487608638592,674.4487608638592,674.4487608638592,674.4487608638592,674.4487608638592,674.4487608638592,a,0.5313310269266367,1,689,2,674.9991494140122,676.4995664069429,676.4995664069429,676.9998244710732,,,,,,,,,,,,,,,,,,,,,,,,,,,,,,,,,,,,,,,,,,,,,,,,,,,,,,,,,,,,,,,,,,,,,,,,59446,2022-11-16_14h33.19.232,vts_reward_expectancy_bt_OFFLINE,2022.2.4,59.94312095600669,
0,1,0,0,0,0,1,0,circle,hexagon,2,0,2,0,1,5,17,4,,,,,,,,,,,,,,,,,,,,,,,,,,,,,,,,,,,,,,,,676.9998244710732,676.9998244710732,676.9998244710732,676.9998244710732,676.9998244710732,676.9998244710732,676.9998244710732,676.9998244710732,676.9998244710732,676.9998244710732,a,0.6466346420347691,1,690,2,677.666852532886,679.1690983839799,,,,,,,,,,,,,,,,,,,,,,,,,,,,,,,,,,,,,,,,,,,,,,,,,,,,,,,,,,,,,,,,,,,,,,,,,,59446,2022-11-16_14h33.19.232,vts_reward_expectancy_bt_OFFLINE,2022.2.4,59.94312095600669,
0,1,0,0,1,0,0,0,circle,triangle,2,0,2,0,1,6,18,3,,,,,,,,,,,,,,,,,,,,,,,,,,,,,,,,,,,,,,,,679.6693868839648,679.6693868839648,679.6693868839648,679.6693868839648,679.6693868839648,679.6693868839648,679.6693868839648,679.6693868839648,679.6693868839648,679.6693868839648,l,0.5646470820065588,1,691,2,680.2531971698627,681.7531461028848,681.7531461028848,682.2537356750108,,,,,,,,,,,,,,,,,,,,,,,,,,,,,,,,,,,,,,,,,,,,,,,,,,,,,,,,,,,,,,,,,,,,,,,,59446,2022-11-16_14h33.19.232,vts_reward_expectancy_bt_OFFLINE,2022.2.4,59.94312095600669,
0,0,1,0,0,0,0,1,hexagon,star,2,0,2,0,1,7,19,8,,,,,,,,,,,,,,,,,,,,,,,,,,,,,,,,,,,,,,,,682.2537356750108,682.2537356750108,682.2537356750108,682.2537356750108,682.2537356750108,682.2537356750108,682.2537356750108,682.2537356750108,682.2537356750108,682.2537356750108,a,0.3551143310032785,10,701,2,682.6394773558713,684.1393277980387,,,,,,,,,,,,,,,,,,,,,,,,,,,,,,,,,,,,,,,,,,,,,,,,,,,,,,,,,,,,,,,,,,,,,,,,,,59446,2022-11-16_14h33.19.232,vts_reward_expectancy_bt_OFFLINE,2022.2.4,59.94312095600669,
0,0,0,1,0,0,1,0,star,hexagon,2,0,2,0,1,8,20,11,,,,,,,,,,,,,,,,,,,,,,,,,,,,,,,,,,,,,,,,684.6395656168461,684.6395656168461,684.6395656168461,684.6395656168461,684.6395656168461,684.6395656168461,684.6395656168461,684.6395656168461,684.6395656168461,684.6395656168461,l,0.9049307629466057,10,711,2,685.5736261550337,687.0738744258415,687.0738744258415,687.5741806689184,,,,,,,,,,,,,,,,,,,,,,,,,,,,,,,,,,,,,,,,,,,,,,,,,,,,,,,,,,,,,,,,,,,,,,,,59446,2022-11-16_14h33.19.232,vts_reward_expectancy_bt_OFFLINE,2022.2.4,59.94312095600669,
0,0,0,1,1,0,0,0,star,triangle,2,0,2,0,1,9,21,9,,,,,,,,,,,,,,,,,,,,,,,,,,,,,,,,,,,,,,,,687.5741806689184,687.5741806689184,687.5741806689184,687.5741806689184,687.5741806689184,687.5741806689184,687.5741806689184,687.5741806689184,687.5741806689184,687.5741806689184,a,1.0762087530456483,1,712,2,688.668062929064,690.1770446070004,,,,,,,,,,,,,,,,,,,,,,,,,,,,,,,,,,,,,,,,,,,,,,,,,,,,,,,,,,,,,,,,,,,,,,,,,,59446,2022-11-16_14h33.19.232,vts_reward_expectancy_bt_OFFLINE,2022.2.4,59.94312095600669,
0,0,1,0,1,0,0,0,hexagon,triangle,2,0,2,0,1,10,22,6,,,,,,,,,,,,,,,,,,,,,,,,,,,,,,,,,,,,,,,,690.676950284047,690.676950284047,690.676950284047,690.676950284047,690.676950284047,690.676950284047,690.676950284047,690.676950284047,690.676950284047,690.676950284047,l,0.38020173995755613,10,722,2,691.0795884190593,692.5941960609052,,,,,,,,,,,,,,,,,,,,,,,,,,,,,,,,,,,,,,,,,,,,,,,,,,,,,,,,,,,,,,,,,,,,,,,,,,59446,2022-11-16_14h33.19.232,vts_reward_expectancy_bt_OFFLINE,2022.2.4,59.94312095600669,
1,0,0,0,0,0,1,0,triangle,hexagon,2,0,2,0,1,11,23,1,,,,,,,,,,,,,,,,,,,,,,,,,,,,,,,,,,,,,,,,693.0946998409927,693.0946998409927,693.0946998409927,693.0946998409927,693.0946998409927,693.0946998409927,693.0946998409927,693.0946998409927,693.0946998409927,693.0946998409927,a,0.5050912809092551,1,723,2,693.6305076868739,695.130461043911,,,,,,,,,,,,,,,,,,,,,,,,,,,,,,,,,,,,,,,,,,,,,,,,,,,,,,,,,,,,,,,,,,,,,,,,,,59446,2022-11-16_14h33.19.232,vts_reward_expectancy_bt_OFFLINE,2022.2.4,59.94312095600669,
0,0,1,0,0,0,0,1,hexagon,star,2,0,2,0,2,0,24,8,,,,,,,,,,,,,,,,,,,,,,,,,,,,,,,,,,,,,,,,695.6304286280647,695.6304286280647,695.6304286280647,695.6304286280647,695.6304286280647,695.6304286280647,695.6304286280647,695.6304286280647,695.6304286280647,695.6304286280647,a,0.5232561128214002,1,724,2,696.1811231758911,697.6813853080384,697.6813853080384,698.1816880048718,,,,,,,,,,,,,,,,,,,,,,,,,,,,,,,,,,,,,,,,,,,,,,,,,,,,,,,,,,,,,,,,,,,,,,,,59446,2022-11-16_14h33.19.232,vts_reward_expectancy_bt_OFFLINE,2022.2.4,59.94312095600669,
1,0,0,0,0,0,0,1,triangle,star,2,0,2,0,2,1,25,2,,,,,,,,,,,,,,,,,,,,,,,,,,,,,,,,,,,,,,,,698.1816880048718,698.1816880048718,698.1816880048718,698.1816880048718,698.1816880048718,698.1816880048718,698.1816880048718,698.1816880048718,698.1816880048718,698.1816880048718,a,0.5379928448237479,10,734,2,698.7527859630063,700.2674519629218,,,,,,,,,,,,,,,,,,,,,,,,,,,,,,,,,,,,,,,,,,,,,,,,,,,,,,,,,,,,,,,,,,,,,,,,,,59446,2022-11-16_14h33.19.232,vts_reward_expectancy_bt_OFFLINE,2022.2.4,59.94312095600669,
0,1,0,0,0,0,0,1,circle,star,2,0,2,0,2,2,26,5,,,,,,,,,,,,,,,,,,,,,,,,,,,,,,,,,,,,,,,,700.7678968019318,700.7678968019318,700.7678968019318,700.7678968019318,700.7678968019318,700.7678968019318,700.7678968019318,700.7678968019318,700.7678968019318,700.7678968019318,a,0.41498689190484583,1,735,2,701.2033757378813,702.7182817249559,,,,,,,,,,,,,,,,,,,,,,,,,,,,,,,,,,,,,,,,,,,,,,,,,,,,,,,,,,,,,,,,,,,,,,,,,,59446,2022-11-16_14h33.19.232,vts_reward_expectancy_bt_OFFLINE,2022.2.4,59.94312095600669,
0,0,1,0,0,1,0,0,hexagon,circle,2,0,2,0,2,3,27,7,,,,,,,,,,,,,,,,,,,,,,,,,,,,,,,,,,,,,,,,703.2183184048627,703.2183184048627,703.2183184048627,703.2183184048627,703.2183184048627,703.2183184048627,703.2183184048627,703.2183184048627,703.2183184048627,703.2183184048627,l,0.14782487088814378,10,745,2,703.387433283031,704.8877537508961,,,,,,,,,,,,,,,,,,,,,,,,,,,,,,,,,,,,,,,,,,,,,,,,,,,,,,,,,,,,,,,,,,,,,,,,,,59446,2022-11-16_14h33.19.232,vts_reward_expectancy_bt_OFFLINE,2022.2.4,59.94312095600669,
0,0,0,1,0,0,1,0,star,hexagon,2,0,2,0,2,4,28,11,,,,,,,,,,,,,,,,,,,,,,,,,,,,,,,,,,,,,,,,705.3881372269243,705.3881372269243,705.3881372269243,705.3881372269243,705.3881372269243,705.3881372269243,705.3881372269243,705.3881372269243,705.3881372269243,705.3881372269243,l,0.39654586906544864,1,746,2,705.8070992699359,707.3218971809838,,,,,,,,,,,,,,,,,,,,,,,,,,,,,,,,,,,,,,,,,,,,,,,,,,,,,,,,,,,,,,,,,,,,,,,,,,59446,2022-11-16_14h33.19.232,vts_reward_expectancy_bt_OFFLINE,2022.2.4,59.94312095600669,
0,1,0,0,0,0,1,0,circle,hexagon,2,0,2,0,2,5,29,4,,,,,,,,,,,,,,,,,,,,,,,,,,,,,,,,,,,,,,,,707.822070467053,707.822070467053,707.822070467053,707.822070467053,707.822070467053,707.822070467053,707.822070467053,707.822070467053,707.822070467053,707.822070467053,a,0.763378094881773,1,747,2,708.6061290039215,710.1080408820417,,,,,,,,,,,,,,,,,,,,,,,,,,,,,,,,,,,,,,,,,,,,,,,,,,,,,,,,,,,,,,,,,,,,,,,,,,59446,2022-11-16_14h33.19.232,vts_reward_expectancy_bt_OFFLINE,2022.2.4,59.94312095600669,
1,0,0,0,0,1,0,0,triangle,circle,2,0,2,0,2,6,30,0,,,,,,,,,,,,,,,,,,,,,,,,,,,,,,,,,,,,,,,,710.6082399580628,710.6082399580628,710.6082399580628,710.6082399580628,710.6082399580628,710.6082399580628,710.6082399580628,710.6082399580628,710.6082399580628,710.6082399580628,a,0.4527603609021753,10,757,2,711.0923654299695,712.5922961439937,712.5922961439937,713.0923724060412,,,,,,,,,,,,,,,,,,,,,,,,,,,,,,,,,,,,,,,,,,,,,,,,,,,,,,,,,,,,,,,,,,,,,,,,59446,2022-11-16_14h33.19.232,vts_reward_expectancy_bt_OFFLINE,2022.2.4,59.94312095600669,
0,0,1,0,1,0,0,0,hexagon,triangle,2,0,2,0,2,7,31,6,,,,,,,,,,,,,,,,,,,,,,,,,,,,,,,,,,,,,,,,713.0923724060412,713.0923724060412,713.0923724060412,713.0923724060412,713.0923724060412,713.0923724060412,713.0923724060412,713.0923724060412,713.0923724060412,713.0923724060412,l,0.42095820303075016,1,758,2,713.5448628850281,715.0449010769371,,,,,,,,,,,,,,,,,,,,,,,,,,,,,,,,,,,,,,,,,,,,,,,,,,,,,,,,,,,,,,,,,,,,,,,,,,59446,2022-11-16_14h33.19.232,vts_reward_expectancy_bt_OFFLINE,2022.2.4,59.94312095600669,
1,0,0,0,0,0,1,0,triangle,hexagon,2,0,2,0,2,8,32,1,,,,,,,,,,,,,,,,,,,,,,,,,,,,,,,,,,,,,,,,715.5452114390209,715.5452114390209,715.5452114390209,715.5452114390209,715.5452114390209,715.5452114390209,715.5452114390209,715.5452114390209,715.5452114390209,715.5452114390209,a,0.3761562549043447,10,768,2,715.9479075670242,717.462490570033,,,,,,,,,,,,,,,,,,,,,,,,,,,,,,,,,,,,,,,,,,,,,,,,,,,,,,,,,,,,,,,,,,,,,,,,,,59446,2022-11-16_14h33.19.232,vts_reward_expectancy_bt_OFFLINE,2022.2.4,59.94312095600669,
0,0,0,1,1,0,0,0,star,triangle,2,0,2,0,2,9,33,9,,,,,,,,,,,,,,,,,,,,,,,,,,,,,,,,,,,,,,,,717.9627326519694,717.9627326519694,717.9627326519694,717.9627326519694,717.9627326519694,717.9627326519694,717.9627326519694,717.9627326519694,717.9627326519694,717.9627326519694,l,1.2112585080321878,10,778,2,719.1987138479017,720.6988303018734,720.6988303018734,721.1988575239666,,,,,,,,,,,,,,,,,,,,,,,,,,,,,,,,,,,,,,,,,,,,,,,,,,,,,,,,,,,,,,,,,,,,,,,,59446,2022-11-16_14h33.19.232,vts_reward_expectancy_bt_OFFLINE,2022.2.4,59.94312095600669,
0,0,0,1,0,1,0,0,star ,circle,2,0,2,0,2,10,34,10,,,,,,,,,,,,,,,,,,,,,,,,,,,,,,,,,,,,,,,,721.1988575239666,721.1988575239666,721.1988575239666,721.1988575239666,721.1988575239666,721.1988575239666,721.1988575239666,721.1988575239666,721.1988575239666,721.1988575239666,l,0.48255834588781,1,779,2,721.7017177829985,723.216463259887,,,,,,,,,,,,,,,,,,,,,,,,,,,,,,,,,,,,,,,,,,,,,,,,,,,,,,,,,,,,,,,,,,,,,,,,,,59446,2022-11-16_14h33.19.232,vts_reward_expectancy_bt_OFFLINE,2022.2.4,59.94312095600669,
0,1,0,0,1,0,0,0,circle,triangle,2,0,2,0,2,11,35,3,,,,,,,,,,,,,,,,,,,,,,,,,,,,,,,,,,,,,,,,723.7031768199522,723.7031768199522,723.7031768199522,723.7031768199522,723.7031768199522,723.7031768199522,723.7031768199522,723.7031768199522,723.7031768199522,723.7031768199522,l,0.43113665492273867,10,789,2,724.1546232569963,725.668935440015,,,,,,,,,,,,,,,,,,,,,,,,,,,,,,,,,,,,,,,,,,,,,,,,,,,,,,,,,,,,,,,,,,,,,,,,,,59446,2022-11-16_14h33.19.232,vts_reward_expectancy_bt_OFFLINE,2022.2.4,59.94312095600669,
0,0,1,0,0,0,0,1,hexagon,star,2,0,2,0,3,0,36,8,,,,,,,,,,,,,,,,,,,,,,,,,,,,,,,,,,,,,,,,726.1692006860394,726.1692006860394,726.1692006860394,726.1692006860394,726.1692006860394,726.1692006860394,726.1692006860394,726.1692006860394,726.1692006860394,726.1692006860394,a,0.4396919358987361,10,799,2,726.6368774638977,728.136696371017,728.136696371017,728.6370071580168,,,,,,,,,,,,,,,,,,,,,,,,,,,,,,,,,,,,,,,,,,,,,,,,,,,,,,,,,,,,,,,,,,,,,,,,59446,2022-11-16_14h33.19.232,vts_reward_expectancy_bt_OFFLINE,2022.2.4,59.94312095600669,
0,0,0,1,0,0,1,0,star,hexagon,2,0,2,0,3,1,37,11,,,,,,,,,,,,,,,,,,,,,,,,,,,,,,,,,,,,,,,,728.6370071580168,728.6370071580168,728.6370071580168,728.6370071580168,728.6370071580168,728.6370071580168,728.6370071580168,728.6370071580168,728.6370071580168,728.6370071580168,l,0.9420391800813377,10,809,2,729.6062321490608,731.1064368099906,731.1064368099906,731.6063357358798,,,,,,,,,,,,,,,,,,,,,,,,,,,,,,,,,,,,,,,,,,,,,,,,,,,,,,,,,,,,,,,,,,,,,,,,59446,2022-11-16_14h33.19.232,vts_reward_expectancy_bt_OFFLINE,2022.2.4,59.94312095600669,
0,0,0,1,1,0,0,0,star,triangle,2,0,2,0,3,2,38,9,,,,,,,,,,,,,,,,,,,,,,,,,,,,,,,,,,,,,,,,731.6063357358798,731.6063357358798,731.6063357358798,731.6063357358798,731.6063357358798,731.6063357358798,731.6063357358798,731.6063357358798,731.6063357358798,731.6063357358798,l,0.5612540959846228,1,810,2,732.1924586868845,733.6953270719387,,,,,,,,,,,,,,,,,,,,,,,,,,,,,,,,,,,,,,,,,,,,,,,,,,,,,,,,,,,,,,,,,,,,,,,,,,59446,2022-11-16_14h33.19.232,vts_reward_expectancy_bt_OFFLINE,2022.2.4,59.94312095600669,
0,0,1,0,1,0,0,0,hexagon,triangle,2,0,2,0,3,3,39,6,,,,,,,,,,,,,,,,,,,,,,,,,,,,,,,,,,,,,,,,734.1925887649413,734.1925887649413,734.1925887649413,734.1925887649413,734.1925887649413,734.1925887649413,734.1925887649413,734.1925887649413,734.1925887649413,734.1925887649413,l,0.4268880421295762,1,811,2,734.643383941846,736.1428426420316,736.1428426420316,736.6433932029177,,,,,,,,,,,,,,,,,,,,,,,,,,,,,,,,,,,,,,,,,,,,,,,,,,,,,,,,,,,,,,,,,,,,,,,,59446,2022-11-16_14h33.19.232,vts_reward_expectancy_bt_OFFLINE,2022.2.4,59.94312095600669,
0,1,0,0,1,0,0,0,circle,triangle,2,0,2,0,3,4,40,3,,,,,,,,,,,,,,,,,,,,,,,,,,,,,,,,,,,,,,,,736.6433932029177,736.6433932029177,736.6433932029177,736.6433932029177,736.6433932029177,736.6433932029177,736.6433932029177,736.6433932029177,736.6433932029177,736.6433932029177,l,0.39597226376645267,10,821,2,737.0626608729362,738.577370201936,,,,,,,,,,,,,,,,,,,,,,,,,,,,,,,,,,,,,,,,,,,,,,,,,,,,,,,,,,,,,,,,,,,,,,,,,,59446,2022-11-16_14h33.19.232,vts_reward_expectancy_bt_OFFLINE,2022.2.4,59.94312095600669,
0,1,0,0,0,0,1,0,circle,hexagon,2,0,2,0,3,5,41,4,,,,,,,,,,,,,,,,,,,,,,,,,,,,,,,,,,,,,,,,739.0626504130196,739.0626504130196,739.0626504130196,739.0626504130196,739.0626504130196,739.0626504130196,739.0626504130196,739.0626504130196,739.0626504130196,739.0626504130196,l,0.7891043110284954,10,831,2,739.8802160818595,741.3801340230275,741.3801340230275,741.8803700129502,,,,,,,,,,,,,,,,,,,,,,,,,,,,,,,,,,,,,,,,,,,,,,,,,,,,,,,,,,,,,,,,,,,,,,,,59446,2022-11-16_14h33.19.232,vts_reward_expectancy_bt_OFFLINE,2022.2.4,59.94312095600669,
1,0,0,0,0,1,0,0,triangle,circle,2,0,2,0,3,6,42,0,,,,,,,,,,,,,,,,,,,,,,,,,,,,,,,,,,,,,,,,741.8803700129502,741.8803700129502,741.8803700129502,741.8803700129502,741.8803700129502,741.8803700129502,741.8803700129502,741.8803700129502,741.8803700129502,741.8803700129502,a,0.5356457477901131,1,832,2,742.4481415918563,743.9496760868933,743.9496760868933,,,,,,,,,,,,,,,,,,,,,,,,,,,,,,,,,,,,,,,,,,,,,,,,,,,,,,,,,,,,,,,,,,,,,,,,,59446,2022-11-16_14h33.19.232,vts_reward_expectancy_bt_OFFLINE,2022.2.4,59.94312095600669,
0,1,0,0,0,0,0,1,circle,star,2,0,2,0,3,7,43,5,,,,,,,,,,,,,,,,,,,,,,,,,,,,,,,,,,,,,,,,744.4495705349836,744.4495705349836,744.4495705349836,744.4495705349836,744.4495705349836,744.4495705349836,744.4495705349836,744.4495705349836,744.4495705349836,744.4495705349836,a,0.5664105268660933,1,833,2,745.0338641409762,746.5340518259909,746.5340518259909,747.033965802053,,,,,,,,,,,,,,,,,,,,,,,,,,,,,,,,,,,,,,,,,,,,,,,,,,,,,,,,,,,,,,,,,,,,,,,,59446,2022-11-16_14h33.19.232,vts_reward_expectancy_bt_OFFLINE,2022.2.4,59.94312095600669,
0,0,1,0,0,1,0,0,hexagon,circle,2,0,2,0,3,8,44,7,,,,,,,,,,,,,,,,,,,,,,,,,,,,,,,,,,,,,,,,747.033965802053,747.033965802053,747.033965802053,747.033965802053,747.033965802053,747.033965802053,747.033965802053,747.033965802053,747.033965802053,747.033965802053,a,0.38859507301822305,1,834,2,747.4517003369983,748.9533761600032,,,,,,,,,,,,,,,,,,,,,,,,,,,,,,,,,,,,,,,,,,,,,,,,,,,,,,,,,,,,,,,,,,,,,,,,,,59446,2022-11-16_14h33.19.232,vts_reward_expectancy_bt_OFFLINE,2022.2.4,59.94312095600669,
1,0,0,0,0,0,1,0,triangle,hexagon,2,0,2,0,3,9,45,1,,,,,,,,,,,,,,,,,,,,,,,,,,,,,,,,,,,,,,,,749.4537381180562,749.4537381180562,749.4537381180562,749.4537381180562,749.4537381180562,749.4537381180562,749.4537381180562,749.4537381180562,749.4537381180562,749.4537381180562,a,0.4550791571382433,1,835,2,749.9377661459148,751.4374597370625,751.4374597370625,751.9377603940666,,,,,,,,,,,,,,,,,,,,,,,,,,,,,,,,,,,,,,,,,,,,,,,,,,,,,,,,,,,,,,,,,,,,,,,,59446,2022-11-16_14h33.19.232,vts_reward_expectancy_bt_OFFLINE,2022.2.4,59.94312095600669,
1,0,0,0,0,0,0,1,triangle,star,2,0,2,0,3,10,46,2,,,,,,,,,,,,,,,,,,,,,,,,,,,,,,,,,,,,,,,,751.9377603940666,751.9377603940666,751.9377603940666,751.9377603940666,751.9377603940666,751.9377603940666,751.9377603940666,751.9377603940666,751.9377603940666,751.9377603940666,a,0.37861428083851933,10,845,2,752.3405005668756,753.8401627398562,,,,,,,,,,,,,,,,,,,,,,,,,,,,,,,,,,,,,,,,,,,,,,,,,,,,,,,,,,,,,,,,,,,,,,,,,,59446,2022-11-16_14h33.19.232,vts_reward_expectancy_bt_OFFLINE,2022.2.4,59.94312095600669,
0,0,0,1,0,1,0,0,star ,circle,2,0,2,0,3,11,47,10,,,,,,,,,,,,,,,,,,,,,,,,,,,,,,,,,,,,,,,,754.3404104639776,754.3404104639776,754.3404104639776,754.3404104639776,754.3404104639776,754.3404104639776,754.3404104639776,754.3404104639776,754.3404104639776,754.3404104639776,l,0.3845657450146973,10,855,2,754.7572695789859,756.2578753288835,756.2578753288835,756.7623774928506,,,,,,,,,,,,,,,,,,,,,,,,,,,,,,,,,,,,,,,,,,,,,,,,,,,,,,,,,,,,,,,,,,,,,,,,59446,2022-11-16_14h33.19.232,vts_reward_expectancy_bt_OFFLINE,2022.2.4,59.94312095600669,
,,,,,,,,,,,,,,,,,,0,0,0,0,0,0,0,0,,,,,,,,,,,,,,,,,,,,,,,,,,,,,,,,,,,,,,,,,,,,,,,,787.9134905808605,,,B,132,star,0.0007508138660341501,784.1241317118984,785.612599811051,785.612599811051,785.612599811051,1,0,d,0.7593718529678881,0,786.3993771730457,,,,,,,,,,,,,,,,,,,,,,,,,,,,,,,,,,,,,,,,,,,,,,,,,,,,,,,,,,59446,2022-11-16_14h33.19.232,vts_reward_expectancy_bt_OFFLINE,2022.2.4,59.94312095600669,
,,,,,,,,,,,,,,,,,,0,0,0,0,1,0,1,0,,,,,,,,,,,,,,,,,,,,,,,,,,,,,,,,,,,,,,,,,,,,,,,,792.6503698329907,,793.1504389650654,D,167,triangle,0.016614157939329743,788.9109419349115,790.3829092909582,790.3829092909582,790.3829092909582,1,0,d,0.7491041971370578,0,791.1508071380667,792.6503698329907,,,,,,,,,,,,,,,,,,,,,,,,,,,,,,,,,,,,,,,,,,,,,,,,,,,,,,,,,59446,2022-11-16_14h33.19.232,vts_reward_expectancy_bt_OFFLINE,2022.2.4,59.94312095600669,
,,,,,,,,,,,,,,,,,,0,0,0,0,2,0,2,0,,,,,,,,,,,,,,,,,,,,,,,,,,,,,,,,,,,,,,,,,,,,,,,,797.1038955629338,,797.6040406739339,Y,139,circle,0.0004082741215825081,793.6471254520584,795.1365203089081,795.1365203089081,795.1365203089081,1,0,f,0.4385577067732811,0,795.6041778170038,797.1038955629338,,,,,,,,,,,,,,,,,,,,,,,,,,,,,,,,,,,,,,,,,,,,,,,,,,,,,,,,,59446,2022-11-16_14h33.19.232,vts_reward_expectancy_bt_OFFLINE,2022.2.4,59.94312095600669,
,,,,,,,,,,,,,,,,,,0,0,0,0,3,0,3,0,,,,,,,,,,,,,,,,,,,,,,,,,,,,,,,,,,,,,,,,,,,,,,,,801.7074321389664,,802.2073215378914,W,181,hexagon,0.0003635268658399582,798.1002465840429,799.5898933589924,799.5898933589924,799.5898933589924,1,0,f,0.5871089529246092,0,800.2078976649791,801.7074321389664,,,,,,,,,,,,,,,,,,,,,,,,,,,,,,,,,,,,,,,,,,,,,,,,,,,,,,,,,59446,2022-11-16_14h33.19.232,vts_reward_expectancy_bt_OFFLINE,2022.2.4,59.94312095600669,
,,,,,,,,,,,,,,,,,,0,0,0,0,4,0,4,0,,,,,,,,,,,,,,,,,,,,,,,,,,,,,,,,,,,,,,,,,,,,,,,,806.3942503039725,,806.8942560839932,H,174,hexagon,0.0006417920812964439,802.7043211138807,804.1932026720606,804.1932026720606,804.1932026720606,1,0,d,0.6762605679687113,0,804.8945919368416,806.3942503039725,,,,,,,,,,,,,,,,,,,,,,,,,,,,,,,,,,,,,,,,,,,,,,,,,,,,,,,,,59446,2022-11-16_14h33.19.232,vts_reward_expectancy_bt_OFFLINE,2022.2.4,59.94312095600669,
,,,,,,,,,,,,,,,,,,0,0,0,0,5,0,5,0,,,,,,,,,,,,,,,,,,,,,,,,,,,,,,,,,,,,,,,,,,,,,,,,811.0645562729333,,,S,146,circle,0.00029565603472292423,807.3905296579469,808.8803843718488,808.8803843718488,808.8803843718488,1,0,f,0.6566674681380391,0,809.5643306369893,,,,,,,,,,,,,,,,,,,,,,,,,,,,,,,,,,,,,,,,,,,,,,,,,,,,,,,,,,59446,2022-11-16_14h33.19.232,vts_reward_expectancy_bt_OFFLINE,2022.2.4,59.94312095600669,
,,,,,,,,,,,,,,,,,,0,0,0,0,6,0,6,0,,,,,,,,,,,,,,,,,,,,,,,,,,,,,,,,,,,,,,,,,,,,,,,,815.7512465340551,,,F,125,triangle,0.0004121609963476658,812.0607079388574,813.5485953169409,813.5485953169409,813.5485953169409,1,0,d,0.6807320769876242,0,814.2512501359452,,,,,,,,,,,,,,,,,,,,,,,,,,,,,,,,,,,,,,,,,,,,,,,,,,,,,,,,,,59446,2022-11-16_14h33.19.232,vts_reward_expectancy_bt_OFFLINE,2022.2.4,59.94312095600669,
,,,,,,,,,,,,,,,,,,0,0,0,0,7,0,7,0,,,,,,,,,,,,,,,,,,,,,,,,,,,,,,,,,,,,,,,,,,,,,,,,820.3213830168825,,820.8214785270393,U,160,star,0.00043032877147197723,816.7474559179973,818.2355585210025,818.2355585210025,818.2355585210025,1,0,f,0.5615157848224044,0,818.8218391828705,820.3213830168825,,,,,,,,,,,,,,,,,,,,,,,,,,,,,,,,,,,,,,,,,,,,,,,,,,,,,,,,,59446,2022-11-16_14h33.19.232,vts_reward_expectancy_bt_OFFLINE,2022.2.4,59.94312095600669,
,,,,,,,,,,,,,,,,,,0,0,0,0,8,0,8,0,,,,,,,,,,,,,,,,,,,,,,,,,,,,,,,,,,,,,,,,,,,,,,,,824.874801246915,,,B,132,triangle,0.00013276911340653896,821.3169253929518,822.8057723739184,822.8057723739184,822.8057723739184,1,0,d,0.5470705481711775,0,823.373119748896,,,,,,,,,,,,,,,,,,,,,,,,,,,,,,,,,,,,,,,,,,,,,,,,,,,,,,,,,,59446,2022-11-16_14h33.19.232,vts_reward_expectancy_bt_OFFLINE,2022.2.4,59.94312095600669,
,,,,,,,,,,,,,,,,,,0,0,0,0,9,0,9,0,,,,,,,,,,,,,,,,,,,,,,,,,,,,,,,,,,,,,,,,,,,,,,,,829.4283559960313,,,D,167,circle,0.0019214949570596218,825.8705260129645,827.3589625589084,827.3589625589084,827.3589625589084,1,0,d,0.5503878938034177,0,827.9272674198728,,,,,,,,,,,,,,,,,,,,,,,,,,,,,,,,,,,,,,,,,,,,,,,,,,,,,,,,,,59446,2022-11-16_14h33.19.232,vts_reward_expectancy_bt_OFFLINE,2022.2.4,59.94312095600669,
,,,,,,,,,,,,,,,,,,,,,,,,,,0,0,0,0,0,0,0,0,,,,,,,,,,,,,,,,,,,,,,,,,,,,,,,,,,,,,,,,857.4309480190277,,,Y,174,circle,0.017270611133426428,,,,,0,0,,,1,855.9170968600083,,853.507676017005,854.9797484320588,854.9797484320588,854.9797484320588,j,0.9094833070412278,,,,,,,,,,,,,,,,,,,,,,,,,,,,,,,,,,,,,,,,,,,,,,,,,,,59446,2022-11-16_14h33.19.232,vts_reward_expectancy_bt_OFFLINE,2022.2.4,59.94312095600669,
,,,,,,,,,,,,,,,,,,,,,,,,,,0,0,0,0,1,0,1,0,,,,,,,,,,,,,,,,,,,,,,,,,,,,,,,,,,,,,,,,862.4345183370169,,,W,181,triangle,0.016569099854677916,,,,,2,1,,,1,860.9376729629003,,858.4273147659842,859.9001716969069,859.9001716969069,859.9001716969069,f,1.00791727588512,,,,,,,,,,,,,,,,,,,,,,,,,,,,,,,,,,,,,,,,,,,,,,,,,,,59446,2022-11-16_14h33.19.232,vts_reward_expectancy_bt_OFFLINE,2022.2.4,59.94312095600669,
,,,,,,,,,,,,,,,,,,,,,,,,,,0,0,0,0,2,0,2,0,,,,,,,,,,,,,,,,,,,,,,,,,,,,,,,,,,,,,,,,868.2716856710613,,,S,139,star,0.00041441991925239563,,,,,0,0,,,1,866.7572843050584,,863.4308877179865,864.9204941999633,864.9204941999633,864.9204941999633,k,1.815242304932326,,,,,,,,,,,,,,,,,,,,,,,,,,,,,,,,,,,,,,,,,,,,,,,,,,,59446,2022-11-16_14h33.19.232,vts_reward_expectancy_bt_OFFLINE,2022.2.4,59.94312095600669,
,,,,,,,,,,,,,,,,,,,,,,,,,,0,0,0,0,3,0,3,0,,,,,,,,,,,,,,,,,,,,,,,,,,,,,,,,,,,,,,,,875.2613718600478,,,F,167,hexagon,0.01701921597123146,,,,,0,1,,,1,873.7588675708976,,869.2682269029319,870.7411735670175,870.7411735670175,870.7411735670175,None,,873.7420284519903,873.7420284519903,873.7420284519903,,,,,,,,,,,,,,,,,,,,,,,,,,,,,,,,,,,,,,,,,,,,,,,,59446,2022-11-16_14h33.19.232,vts_reward_expectancy_bt_OFFLINE,2022.2.4,59.94312095600669,
,,,,,,,,,,,,,,,,,,,,,,,,,,0,0,0,0,4,0,4,0,,,,,,,,,,,,,,,,,,,,,,,,,,,,,,,,,,,,,,,,882.2656379318796,,,U,146,star,0.006752055138349533,,,,,0,1,,,1,880.7653086548671,,876.2573701168876,877.7455606248695,877.7455606248695,877.7455606248695,None,,880.7487496999092,880.7487496999092,880.7487496999092,,,,,,,,,,,,,,,,,,,,,,,,,,,,,,,,,,,,,,,,,,,,,,,,59446,2022-11-16_14h33.19.232,vts_reward_expectancy_bt_OFFLINE,2022.2.4,59.94312095600669,
,,,,,,,,,,,,,,,,,,,,,,,,,,0,0,0,0,5,0,5,0,,,,,,,,,,,,,,,,,,,,,,,,,,,,,,,,,,,,,,,,888.1031210508663,,888.6028513470665,D,132,circle,0.010860403068363667,,,,,1,1,,,1,886.6024100719951,888.1031210508663,883.2622278090566,884.7517468919978,884.7517468919978,884.7517468919978,j,1.8184141728561372,,,,,,,,,,,,,,,,,,,,,,,,,,,,,,,,,,,,,,,,,,,,,,,,,,,59446,2022-11-16_14h33.19.232,vts_reward_expectancy_bt_OFFLINE,2022.2.4,59.94312095600669,
,,,,,,,,,,,,,,,,,,,,,,,,,,0,0,0,0,6,0,6,0,,,,,,,,,,,,,,,,,,,,,,,,,,,,,,,,,,,,,,,,892.6898127950262,,893.1899150758982,B,160,hexagon,-0.0001955518964678049,,,,,1,0,,,1,891.1901957339142,892.6898127950262,889.0995334729087,890.5888956929557,890.5888956929557,890.5888956929557,k,0.582302528899163,,,,,,,,,,,,,,,,,,,,,,,,,,,,,,,,,,,,,,,,,,,,,,,,,,,59446,2022-11-16_14h33.19.232,vts_reward_expectancy_bt_OFFLINE,2022.2.4,59.94312095600669,
,,,,,,,,,,,,,,,,,,,,,,,,,,0,0,0,0,7,0,7,0,,,,,,,,,,,,,,,,,,,,,,,,,,,,,,,,,,,,,,,,897.5434571099468,,898.0434886808507,H,125,triangle,0.0006351680494844913,,,,,1,0,,,1,896.0437528719194,897.5434571099468,893.6858852959704,895.1759048348758,895.1759048348758,895.1759048348758,j,0.8451892838347703,,,,,,,,,,,,,,,,,,,,,,,,,,,,,,,,,,,,,,,,,,,,,,,,,,,59446,2022-11-16_14h33.19.232,vts_reward_expectancy_bt_OFFLINE,2022.2.4,59.94312095600669,
,,,,,,,,,,,,,,,,,,,,,,,,,,0,0,0,0,8,0,8,0,,,,,,,,,,,,,,,,,,,,,,,,,,,,,,,,,,,,,,,,902.0467275739647,,902.5470753980335,Y,174,circle,0.0006652949377894402,,,,,1,0,,,1,900.5468134069815,902.0467275739647,898.5397169028874,900.0295038518962,900.0295038518962,900.0295038518962,k,0.49181651696562767,,,,,,,,,,,,,,,,,,,,,,,,,,,,,,,,,,,,,,,,,,,,,,,,,,,59446,2022-11-16_14h33.19.232,vts_reward_expectancy_bt_OFFLINE,2022.2.4,59.94312095600669,
,,,,,,,,,,,,,,,,,,,,,,,,,,0,0,0,0,9,0,9,0,,,,,,,,,,,,,,,,,,,,,,,,,,,,,,,,,,,,,,,,906.7003866948653,,,W,181,star,0.0004496390465646982,,,,,1,0,,,1,905.1847393109929,,903.0430735189002,904.5327166109346,904.5327166109346,904.5327166109346,k,0.6340315460693091,,,,,,,,,,,,,,,,,,,,,,,,,,,,,,,,,,,,,,,,,,,,,,,,,,,59446,2022-11-16_14h33.19.232,vts_reward_expectancy_bt_OFFLINE,2022.2.4,59.94312095600669,
,,,,,,,,,,,,,,,,,,,,,,,,,,1,0,1,0,0,0,0,0,,,,,,,,,,,,,,,,,,,,,,,,,,,,,,,,,,,,,,,,918.1746817140374,,918.6749376449734,F,160,hexagon,0.0027934678364545107,,,,,1,0,,,2,916.6741961359512,918.1746817140374,914.5014989988413,915.9905805669259,915.9905805669259,915.9905805669259,k,0.6516388859599829,,,,,,,,,,,,,,,,,,,,,,,,,,,,,,,,,,,,,,,,,,,,,,,,,,,59446,2022-11-16_14h33.19.232,vts_reward_expectancy_bt_OFFLINE,2022.2.4,59.94312095600669,
,,,,,,,,,,,,,,,,,,,,,,,,,,1,0,1,0,1,0,1,0,,,,,,,,,,,,,,,,,,,,,,,,,,,,,,,,,,,,,,,,922.72834095289,,923.2284443648532,H,146,circle,-0.000840446911752224,,,,,1,0,,,2,921.2287313619163,922.72834095289,919.182387865847,920.661018922925,920.661018922925,920.661018922925,j,0.549942275043577,,,,,,,,,,,,,,,,,,,,,,,,,,,,,,,,,,,,,,,,,,,,,,,,,,,59446,2022-11-16_14h33.19.232,vts_reward_expectancy_bt_OFFLINE,2022.2.4,59.94312095600669,
,,,,,,,,,,,,,,,,,,,,,,,,,,1,0,1,0,2,0,2,0,,,,,,,,,,,,,,,,,,,,,,,,,,,,,,,,,,,,,,,,927.2485204630066,,,B,167,triangle,0.00015348196029663086,,,,,1,0,,,2,925.7325953659602,,923.7241042659152,925.2142751389183,925.2142751389183,925.2142751389183,k,0.49698036001063883,,,,,,,,,,,,,,,,,,,,,,,,,,,,,,,,,,,,,,,,,,,,,,,,,,,59446,2022-11-16_14h33.19.232,vts_reward_expectancy_bt_OFFLINE,2022.2.4,59.94312095600669,
,,,,,,,,,,,,,,,,,,,,,,,,,,1,0,1,0,3,0,3,0,,,,,,,,,,,,,,,,,,,,,,,,,,,,,,,,,,,,,,,,931.8351575250272,,932.3352259348612,U,132,star,0.0005650278180837631,,,,,1,0,,,2,930.3359763359185,931.8351575250272,928.2280292019714,929.7177460370585,929.7177460370585,929.7177460370585,j,0.594094191910699,,,,,,,,,,,,,,,,,,,,,,,,,,,,,,,,,,,,,,,,,,,,,,,,,,,59446,2022-11-16_14h33.19.232,vts_reward_expectancy_bt_OFFLINE,2022.2.4,59.94312095600669,
,,,,,,,,,,,,,,,,,,,,,,,,,,1,0,1,0,4,0,4,0,,,,,,,,,,,,,,,,,,,,,,,,,,,,,,,,,,,,,,,,936.5053777338471,,937.0056418660097,Y,174,circle,0.00043575093150138855,,,,,1,0,,,2,935.0060518160462,936.5053777338471,932.8314165249467,934.3211236959323,934.3211236959323,934.3211236959323,k,0.6596353189088404,,,,,,,,,,,,,,,,,,,,,,,,,,,,,,,,,,,,,,,,,,,,,,,,,,,59446,2022-11-16_14h33.19.232,vts_reward_expectancy_bt_OFFLINE,2022.2.4,59.94312095600669,
,,,,,,,,,,,,,,,,,,,,,,,,,,1,0,1,0,5,0,5,0,,,,,,,,,,,,,,,,,,,,,,,,,,,,,,,,,,,,,,,,941.042076474987,,941.5423611449078,D,181,triangle,4.810909740626812e-05,,,,,1,0,,,2,939.5430175669026,941.042076474987,937.5014438100625,938.991376366932,938.991376366932,938.991376366932,k,0.5234434481244534,,,,,,,,,,,,,,,,,,,,,,,,,,,,,,,,,,,,,,,,,,,,,,,,,,,59446,2022-11-16_14h33.19.232,vts_reward_expectancy_bt_OFFLINE,2022.2.4,59.94312095600669,
,,,,,,,,,,,,,,,,,,,,,,,,,,1,0,1,0,6,0,6,0,,,,,,,,,,,,,,,,,,,,,,,,,,,,,,,,,,,,,,,,945.8623305070214,,946.3626573169604,W,125,hexagon,0.0006578490138053894,,,,,1,0,,,2,944.3618710569572,945.8623305070214,942.0381668738555,943.5264783939347,943.5264783939347,943.5264783939347,j,0.8036417497787625,,,,,,,,,,,,,,,,,,,,,,,,,,,,,,,,,,,,,,,,,,,,,,,,,,,59446,2022-11-16_14h33.19.232,vts_reward_expectancy_bt_OFFLINE,2022.2.4,59.94312095600669,
,,,,,,,,,,,,,,,,,,,,,,,,,,1,0,1,0,7,0,7,0,,,,,,,,,,,,,,,,,,,,,,,,,,,,,,,,,,,,,,,,950.4660038719885,,,S,139,star,-0.0005263551138341427,,,,,1,0,,,2,948.9502029509749,,946.8586924169213,948.3467613579705,948.3467613579705,948.3467613579705,j,0.5853657370898873,,,,,,,,,,,,,,,,,,,,,,,,,,,,,,,,,,,,,,,,,,,,,,,,,,,59446,2022-11-16_14h33.19.232,vts_reward_expectancy_bt_OFFLINE,2022.2.4,59.94312095600669,
,,,,,,,,,,,,,,,,,,,,,,,,,,1,0,1,0,8,0,8,0,,,,,,,,,,,,,,,,,,,,,,,,,,,,,,,,,,,,,,,,954.9861203199252,,,F,160,star,0.01637639501132071,,,,,1,0,,,2,953.4847328630276,,951.4614917780273,952.933402084047,952.933402084047,952.933402084047,k,0.5331845581531525,,,,,,,,,,,,,,,,,,,,,,,,,,,,,,,,,,,,,,,,,,,,,,,,,,,59446,2022-11-16_14h33.19.232,vts_reward_expectancy_bt_OFFLINE,2022.2.4,59.94312095600669,
,,,,,,,,,,,,,,,,,,,,,,,,,,1,0,1,0,9,0,9,0,,,,,,,,,,,,,,,,,,,,,,,,,,,,,,,,,,,,,,,,959.5227298759855,,,H,146,circle,0.002779973903670907,,,,,1,0,,,2,958.0206018660683,959.5227298759855,955.9818945489824,957.4700239398517,957.4700239398517,957.4700239398517,j,0.5181816951371729,,,,,,,,,,,,,,,,,,,,,,,,,,,,,,,,,,,,,,,,,,,,,,,,,,,59446,2022-11-16_14h33.19.232,vts_reward_expectancy_bt_OFFLINE,2022.2.4,59.94312095600669,
,,,,,,,,,,,,,,,,,,,,,,,,,,,,,,,,,,0,0,0,0,0,0,0,0,,,,,,,,,,,,,,,,,,,,,,,,,,,,0,855,,,1001.8028001789935,,,Y,132,triangle,0.0008113200310617685,,,,,1,0,,,3,,,,,,,,,,,,997.2630482038949,997.2630482038949,997.2630482038949,997.2630482038949,998.7493408389855,998.7493408389855,998.7493408389855,998.7493408389855,998.7665140598547,998.7665140598547,998.7665140598547,998.7665140598547,-1,letter,NA,f,1.5086795839015394,vtsPrac,1000.2894697869197,,,,,,,,,,,,,,,,,,,,,,,,,,,,,59446,2022-11-16_14h33.19.232,vts_reward_expectancy_bt_OFFLINE,2022.2.4,59.94312095600669,
,,,,,,,,,,,,,,,,,,,,,,,,,,,,,,,,,,0,0,0,0,1,0,1,0,,,,,,,,,,,,,,,,,,,,,,,,,,,,0,855,,,1006.5229646710213,,1007.0229863990098,U,174,hexagon,0.01655472000129521,,,,,1,0,,,3,,,,,,,,,,,,1002.7996496369597,1002.7996496369597,1002.7996496369597,1002.7996496369597,1004.2722584658768,1004.2722584658768,1004.2722584658768,1004.2722584658768,1004.3052851660177,1004.3052851660177,1004.3052851660177,1004.3052851660177,repeat,letter,lettRpt,f,0.7325215451419353,vtsPrac,1005.0239565779921,1006.5229646710213,,,,,,,,,,,,,,,,,,,,,,,,,,,,59446,2022-11-16_14h33.19.232,vts_reward_expectancy_bt_OFFLINE,2022.2.4,59.94312095600669,
,,,,,,,,,,,,,,,,,,,,,,,,,,,,,,,,,,0,0,0,0,2,0,2,0,,,,,,,,,,,,,,,,,,,,,,,,,,,,0,855,,,1011.643314251909,,1012.1435109360609,H,160,circle,0.0001660599373281002,,,,,1,0,,,3,,,,,,,,,,,,1007.5197543860413,1007.5197543860413,1007.5197543860413,1007.5197543860413,1009.0090983819682,1009.0090983819682,1009.0090983819682,1009.0090983819682,1009.0254924688488,1009.0254924688488,1009.0254924688488,1009.0254924688488,switch,number,numSwt,k,1.1039938419125974,vtsPrac,1010.1439241438638,1011.643314251909,,,,,,,,,,,,,,,,,,,,,,,,,,,,59446,2022-11-16_14h33.19.232,vts_reward_expectancy_bt_OFFLINE,2022.2.4,59.94312095600669,
,,,,,,,,,,,,,,,,,,,,,,,,,,,,,,,,,,0,0,0,0,3,0,3,0,,,,,,,,,,,,,,,,,,,,,,,,,,,,0,855,,,1016.3468942709733,,1016.8467892420013,W,167,star,0.00039146491326391697,,,,,1,0,,,3,,,,,,,,,,,,1012.6396616578568,1012.6396616578568,1012.6396616578568,1012.6396616578568,1014.1293258180376,1014.1293258180376,1014.1293258180376,1014.1293258180376,1014.1455019309651,1014.1455019309651,1014.1455019309651,1014.1455019309651,switch,letter,lettSwt,f,0.6865781520027667,vtsPrac,1014.8477357700467,1016.3468942709733,,,,,,,,,,,,,,,,,,,,,,,,,,,,59446,2022-11-16_14h33.19.232,vts_reward_expectancy_bt_OFFLINE,2022.2.4,59.94312095600669,
,,,,,,,,,,,,,,,,,,,,,,,,,,,,,,,,,,0,0,0,0,4,0,4,0,,,,,,,,,,,,,,,,,,,,,,,,,,,,0,855,,,1021.0170534478966,,1021.5170638510026,Y,132,circle,0.00022019213065505028,,,,,1,0,,,3,,,,,,,,,,,,1017.3427435529884,1017.3427435529884,1017.3427435529884,1017.3427435529884,1018.830910040997,1018.830910040997,1018.830910040997,1018.830910040997,1018.8476236688439,1018.8476236688439,1018.8476236688439,1018.8476236688439,switch,number,numSwt,j,0.6538167579565197,vtsPrac,1019.516414240934,1021.0170534478966,,,,,,,,,,,,,,,,,,,,,,,,,,,,59446,2022-11-16_14h33.19.232,vts_reward_expectancy_bt_OFFLINE,2022.2.4,59.94312095600669,
,,,,,,,,,,,,,,,,,,,,,,,,,,,,,,,,,,0,0,0,0,5,0,5,0,,,,,,,,,,,,,,,,,,,,,,,,,,,,0,855,,,1026.0874011178967,,1026.587639993988,U,174,hexagon,0.014746793080121279,,,,,1,0,,,3,,,,,,,,,,,,1022.0293779720087,1022.0293779720087,1022.0293779720087,1022.0293779720087,1023.5178969099652,1023.5178969099652,1023.5178969099652,1023.5178969099652,1023.5344055648893,1023.5344055648893,1023.5344055648893,1023.5344055648893,repeat,number,numRpt,k,1.0408812770619988,vtsPrac,1024.5881171498913,1026.0874011178967,,,,,,,,,,,,,,,,,,,,,,,,,,,,59446,2022-11-16_14h33.19.232,vts_reward_expectancy_bt_OFFLINE,2022.2.4,59.94312095600669,
,,,,,,,,,,,,,,,,,,,,,,,,,,,,,,,,,,0,0,0,0,6,0,6,0,,,,,,,,,,,,,,,,,,,,,,,,,,,,0,855,,,1030.8241420290433,,,H,160,circle,0.00020118500106036663,,,,,1,0,,,3,,,,,,,,,,,,1027.0835208960343,1027.0835208960343,1027.0835208960343,1027.0835208960343,1028.5715041779913,1028.5715041779913,1028.5715041779913,1028.5715041779913,1028.5880451160483,1028.5880451160483,1028.5880451160483,1028.5880451160483,repeat,number,numRpt,k,0.7343573828693479,vtsPrac,1029.3249993498903,1030.8241420290433,,,,,,,,,,,,,,,,,,,,,,,,,,,,59446,2022-11-16_14h33.19.232,vts_reward_expectancy_bt_OFFLINE,2022.2.4,59.94312095600669,
,,,,,,,,,,,,,,,,,,,,,,,,,,,,,,,,,,0,0,0,0,7,0,7,0,,,,,,,,,,,,,,,,,,,,,,,,,,,,0,855,,,1035.5276640919037,,,W,167,triangle,0.0004999670200049877,,,,,1,0,,,3,,,,,,,,,,,,1031.8203868388664,1031.8203868388664,1031.8203868388664,1031.8203868388664,1033.3086642748676,1033.3086642748676,1033.3086642748676,1033.3086642748676,1033.3251296030357,1033.3251296030357,1033.3251296030357,1033.3251296030357,repeat,number,numRpt,k,0.6775835377629846,vtsPrac,1034.0119658198673,,,,,,,,,,,,,,,,,,,,,,,,,,,,,59446,2022-11-16_14h33.19.232,vts_reward_expectancy_bt_OFFLINE,2022.2.4,59.94312095600669,
,,,,,,,,,,,,,,,,,,,,,,,,,,,,,,,,,,0,0,0,0,8,0,8,0,,,,,,,,,,,,,,,,,,,,,,,,,,,,0,855,,,1040.1646085449029,,,S,139,triangle,0.01659851404838264,,,,,1,0,,,3,,,,,,,,,,,,1036.5242531460244,1036.5242531460244,1036.5242531460244,1036.5242531460244,1037.9952578109223,1037.9952578109223,1037.9952578109223,1037.9952578109223,1038.0285507510416,1038.0285507510416,1038.0285507510416,1038.0285507510416,switch,letter,lettSwt,f,0.6490154759958386,vtsPrac,1038.6633027228527,,,,,,,,,,,,,,,,,,,,,,,,,,,,,59446,2022-11-16_14h33.19.232,vts_reward_expectancy_bt_OFFLINE,2022.2.4,59.94312095600669,
,,,,,,,,,,,,,,,,,,,,,,,,,,,,,,,,,,0,0,0,0,9,0,9,0,,,,,,,,,,,,,,,,,,,,,,,,,,,,0,855,,,1044.8013654029928,,,F,174,star,0.0021737071219831705,,,,,1,0,,,3,,,,,,,,,,,,1041.160720804939,1041.160720804939,1041.160720804939,1041.160720804939,1042.6487056040205,1042.6487056040205,1042.6487056040205,1042.6487056040205,1042.6654414790682,1042.6654414790682,1042.6654414790682,1042.6654414790682,switch,number,numSwt,k,0.6198138010222465,vtsPrac,1043.3001517278608,,,,,,,,,,,,,,,,,,,,,,,,,,,,,59446,2022-11-16_14h33.19.232,vts_reward_expectancy_bt_OFFLINE,2022.2.4,59.94312095600669,
,,,,,,,,,,,,,,,,,,,,,,,,,,,,,,,,,,0,0,0,0,10,0,10,0,,,,,,,,,,,,,,,,,,,,,,,,,,,,0,855,,,1049.8549887659028,,,B,181,hexagon,0.0024232170544564724,,,,,1,0,,,3,,,,,,,,,,,,1045.7979729990475,1045.7979729990475,1045.7979729990475,1045.7979729990475,1047.2856869760435,1047.2856869760435,1047.2856869760435,1047.2856869760435,1047.3022611900233,1047.3022611900233,1047.3022611900233,1047.3022611900233,switch,letter,lettSwt,d,1.0447393648792058,vtsPrac,1048.354396832874,,,,,,,,,,,,,,,,,,,,,,,,,,,,,59446,2022-11-16_14h33.19.232,vts_reward_expectancy_bt_OFFLINE,2022.2.4,59.94312095600669,
,,,,,,,,,,,,,,,,,,,,,,,,,,,,,,,,,,0,0,0,0,11,0,11,0,,,,,,,,,,,,,,,,,,,,,,,,,,,,0,855,,,1054.992043624865,,,H,125,triangle,0.0017460009548813105,,,,,1,0,,,3,,,,,,,,,,,,1050.8509686789475,1050.8509686789475,1050.8509686789475,1050.8509686789475,1052.3392386899795,1052.3392386899795,1052.3392386899795,1052.3392386899795,1052.355769783957,1052.355769783957,1052.355769783957,1052.355769783957,switch,number,numSwt,j,1.1337358399759978,vtsPrac,1053.4913766710088,,,,,,,,,,,,,,,,,,,,,,,,,,,,,59446,2022-11-16_14h33.19.232,vts_reward_expectancy_bt_OFFLINE,2022.2.4,59.94312095600669,
,,,,,,,,,,,,,,,,,,,,,,,,,,,,,,,,,,0,0,0,0,12,0,12,0,,,,,,,,,,,,,,,,,,,,,,,,,,,,0,855,,,1060.862656551879,,1061.3626732379198,B,174,circle,0.0018842080608010292,,,,,1,0,,,3,,,,,,,,,,,,1055.9879769228864,1055.9879769228864,1055.9879769228864,1055.9879769228864,1057.4762732540257,1057.4762732540257,1057.4762732540257,1057.4762732540257,1057.4930001250468,1057.4930001250468,1057.4930001250468,1057.4930001250468,repeat,number,numRpt,k,1.8582366059999913,vtsPrac,1059.3634935540613,1060.862656551879,,,,,,,,,,,,,,,,,,,,,,,,,,,,59446,2022-11-16_14h33.19.232,vts_reward_expectancy_bt_OFFLINE,2022.2.4,59.94312095600669,
,,,,,,,,,,,,,,,,,,,,,,,,,,,,,,,,,,0,0,0,0,13,0,13,0,,,,,,,,,,,,,,,,,,,,,,,,,,,,0,855,,,1065.7828679280356,,,D,125,hexagon,0.0004087388515472412,,,,,1,0,,,3,,,,,,,,,,,,1061.8591561948415,1061.8591561948415,1061.8591561948415,1061.8591561948415,1063.34688120801,1063.34688120801,1063.34688120801,1063.34688120801,1063.363482243847,1063.363482243847,1063.363482243847,1063.363482243847,switch,letter,lettSwt,d,0.8922222710680217,vtsPrac,1064.2671698250342,,,,,,,,,,,,,,,,,,,,,,,,,,,,,59446,2022-11-16_14h33.19.232,vts_reward_expectancy_bt_OFFLINE,2022.2.4,59.94312095600669,
,,,,,,,,,,,,,,,,,,,,,,,,,,,,,,,,,,0,0,0,0,14,0,14,0,,,,,,,,,,,,,,,,,,,,,,,,,,,,0,855,,,1070.386496329913,,,U,167,triangle,0.016817515017464757,,,,,1,0,,,3,,,,,,,,,,,,1066.7787285428494,1066.7787285428494,1066.7787285428494,1066.7787285428494,1068.2504615599755,1068.2504615599755,1068.2504615599755,1068.2504615599755,1068.2838348450605,1068.2838348450605,1068.2838348450605,1068.2838348450605,repeat,letter,lettRpt,f,0.6015271849464625,vtsPrac,1068.8837953498587,1070.386496329913,,,,,,,,,,,,,,,,,,,,,,,,,,,,59446,2022-11-16_14h33.19.232,vts_reward_expectancy_bt_OFFLINE,2022.2.4,59.94312095600669,
,,,,,,,,,,,,,,,,,,,,,,,,,,,,,,,,,,0,0,0,0,15,0,15,0,,,,,,,,,,,,,,,,,,,,,,,,,,,,0,855,,,1075.9234911929816,,,S,160,hexagon,0.0004626929294317961,,,,,1,0,,,3,,,,,,,,,,,,1071.382305948995,1071.382305948995,1071.382305948995,1071.382305948995,1072.8708439779002,1072.8708439779002,1072.8708439779002,1072.8708439779002,1072.8873335379176,1072.8873335379176,1072.8873335379176,1072.8873335379176,switch,number,numSwt,k,1.5164065710268915,vtsPrac,1074.4077531239018,,,,,,,,,,,,,,,,,,,,,,,,,,,,,59446,2022-11-16_14h33.19.232,vts_reward_expectancy_bt_OFFLINE,2022.2.4,59.94312095600669,
,,,,,,,,,,,,,,,,,,,,,,,,,,,,,,,,,,0,0,0,0,16,0,16,0,,,,,,,,,,,,,,,,,,,,,,,,,,,,0,855,,,1080.8939035329968,,1081.3940620319918,S,174,triangle,0.017122328048571944,,,,,1,0,,,3,,,,,,,,,,,,1076.9192719219718,1076.9192719219718,1076.9192719219718,1076.9192719219718,1078.391107315896,1078.391107315896,1078.391107315896,1078.391107315896,1078.4242966359016,1078.4242966359016,1078.4242966359016,1078.4242966359016,switch,letter,lettSwt,f,0.9691559148486704,vtsPrac,1079.3933652590495,1080.8939035329968,,,,,,,,,,,,,,,,,,,,,,,,,,,,59446,2022-11-16_14h33.19.232,vts_reward_expectancy_bt_OFFLINE,2022.2.4,59.94312095600669,
