LTriangleOpac,LCircleOpac,LHexagonOpac,LStarOpac,RTriangleOpac,RCircleOpac,RHexagonOpac,RStarOpac,LShape_ID,RShape_ID,training_blocks.thisRepN,training_blocks.thisTrialN,training_blocks.thisN,training_blocks.thisIndex,training.thisRepN,training.thisTrialN,training.thisN,training.thisIndex,task1_prac_redo.thisRepN,task1_prac_redo.thisTrialN,task1_prac_redo.thisN,task1_prac_redo.thisIndex,task1_prac_trials.thisRepN,task1_prac_trials.thisTrialN,task1_prac_trials.thisN,task1_prac_trials.thisIndex,task2_prac_redo.thisRepN,task2_prac_redo.thisTrialN,task2_prac_redo.thisN,task2_prac_redo.thisIndex,task2_praac_trials.thisRepN,task2_praac_trials.thisTrialN,task2_praac_trials.thisN,task2_praac_trials.thisIndex,vts_prac_redo.thisRepN,vts_prac_redo.thisTrialN,vts_prac_redo.thisN,vts_prac_redo.thisIndex,vts_practice_trials.thisRepN,vts_practice_trials.thisTrialN,vts_practice_trials.thisN,vts_practice_trials.thisIndex,trials_norew.thisRepN,trials_norew.thisTrialN,trials_norew.thisN,trials_norew.thisIndex,block.thisRepN,block.thisTrialN,block.thisN,block.thisIndex,trials_rew.thisRepN,trials_rew.thisTrialN,trials_rew.thisN,trials_rew.thisIndex,key_resp.started,key_resp.keys,key_resp.rt,left_circle.started,right_circle.started,left_triangle.started,right_triangle.started,left_star.started,right_star.started,left_hexagon.started,right_hexagon.started,training_fix.started,training_resp.started,training_resp.keys,training_resp.rt,points_trial,points_cumul,trainBlock,training_feedback_txt.started,fix.started,training_feedback_txt.stopped,fix.stopped,curr_topStim,curr_bottStim,curr_shape,ISI.started,tgt_fix_prac1.started,top_target_prac1.started,bott_target_prac1.started,target_resp_prac1.started,acc,E1,target_resp_prac1.keys,target_resp_prac1.rt,pracBlock,prac_fback_text.started,prac_fback_text.stopped,tgt_fix_prac2.started,top_target_prac2.started,bott_target_prac2.started,target_resp_prac2.started,target_resp_prac2.keys,target_resp_prac2.rt,star.started,hegagon.started,triangle.started,circle.started,top_target.started,tgt_fix.started,bot_target.started,target_resp.started,star.stopped,hegagon.stopped,triangle.stopped,circle.stopped,alt,task,condition,target_resp.keys,target_resp.rt,rewCond,vts_fback.started,vts_fback.stopped,blockNum,norew_fback.started,norew_fback.stopped,key_resp_2.keys,key_resp_2.rt,rewExpectancy,feedbk_text.started,feedbk_text.stopped,text_3.started,debrief.started,text_3.stopped,button.started,debrief.index,debrief.itemText,debrief.type,debrief.granularity,debrief.font,debrief.markerColor,debrief.response,debrief.rt,button.numClicks,button.timesOn,button.timesOff,participant,date,expName,psychopyVersion,frameRate,
,,,,,,,,,,,,,,,,,,,,,,,,,,,,,,,,,,,,,,,,,,,,,,,,,,,,,,13.772930781007744,space,28.708791314042173,,,,,,,,,,,,,,,,,,,,,,,,,,,,,,,,,,,,,,,,,,,,,,,,,,,,,,,,,,,,,,,,,,,,,,,,,,,,,,,,,,,,60295,2022-11-07_13h49.12.102,vts_reward_expectancy_bt_OFFLINE,2022.2.4,59.93227976183434,
0,0,1,0,0,0,0,1,hexagon,star,0,0,0,0,0,0,0,8,,,,,,,,,,,,,,,,,,,,,,,,,,,,,,,,,,,,,,,,64.93284851498902,64.93284851498902,64.93284851498902,64.93284851498902,64.93284851498902,64.93284851498902,64.93284851498902,64.93284851498902,64.93284851498902,64.93284851498902,l,2.941608018008992,10,10,0,67.8972346970113,69.41231298900675,,,,,,,,,,,,,,,,,,,,,,,,,,,,,,,,,,,,,,,,,,,,,,,,,,,,,,,,,,,,,,,,,,,60295,2022-11-07_13h49.12.102,vts_reward_expectancy_bt_OFFLINE,2022.2.4,59.93227976183434,
1,0,0,0,0,0,0,1,triangle,star,0,0,0,0,0,1,1,2,,,,,,,,,,,,,,,,,,,,,,,,,,,,,,,,,,,,,,,,69.89568619197235,69.89568619197235,69.89568619197235,69.89568619197235,69.89568619197235,69.89568619197235,69.89568619197235,69.89568619197235,69.89568619197235,69.89568619197235,l,1.1173211401328444,10,20,0,71.02954777295236,72.53174890601076,,,,,,,,,,,,,,,,,,,,,,,,,,,,,,,,,,,,,,,,,,,,,,,,,,,,,,,,,,,,,,,,,,,60295,2022-11-07_13h49.12.102,vts_reward_expectancy_bt_OFFLINE,2022.2.4,59.93227976183434,
0,1,0,0,0,0,0,1,circle,star,0,0,0,0,0,2,2,5,,,,,,,,,,,,,,,,,,,,,,,,,,,,,,,,,,,,,,,,73.03213860897813,73.03213860897813,73.03213860897813,73.03213860897813,73.03213860897813,73.03213860897813,73.03213860897813,73.03213860897813,73.03213860897813,73.03213860897813,l,0.9055076910881326,10,30,0,73.96564986894373,75.46636573097203,75.46636573097203,75.9663701870013,,,,,,,,,,,,,,,,,,,,,,,,,,,,,,,,,,,,,,,,,,,,,,,,,,,,,,,,,,,,,,,,,60295,2022-11-07_13h49.12.102,vts_reward_expectancy_bt_OFFLINE,2022.2.4,59.93227976183434,
0,0,0,1,0,1,0,0,star ,circle,0,0,0,0,0,3,3,10,,,,,,,,,,,,,,,,,,,,,,,,,,,,,,,,,,,,,,,,75.9663701870013,75.9663701870013,75.9663701870013,75.9663701870013,75.9663701870013,75.9663701870013,75.9663701870013,75.9663701870013,75.9663701870013,75.9663701870013,a,1.8191789410775527,10,40,0,77.80227481294423,79.30294067494106,79.30294067494106,79.80314866395202,,,,,,,,,,,,,,,,,,,,,,,,,,,,,,,,,,,,,,,,,,,,,,,,,,,,,,,,,,,,,,,,,60295,2022-11-07_13h49.12.102,vts_reward_expectancy_bt_OFFLINE,2022.2.4,59.93227976183434,
0,1,0,0,1,0,0,0,circle,triangle,0,0,0,0,0,4,4,3,,,,,,,,,,,,,,,,,,,,,,,,,,,,,,,,,,,,,,,,79.80314866395202,79.80314866395202,79.80314866395202,79.80314866395202,79.80314866395202,79.80314866395202,79.80314866395202,79.80314866395202,79.80314866395202,79.80314866395202,a,1.3586114550707862,1,41,0,81.18826878699474,82.6892774089938,,,,,,,,,,,,,,,,,,,,,,,,,,,,,,,,,,,,,,,,,,,,,,,,,,,,,,,,,,,,,,,,,,,60295,2022-11-07_13h49.12.102,vts_reward_expectancy_bt_OFFLINE,2022.2.4,59.93227976183434,
1,0,0,0,0,0,1,0,triangle,hexagon,0,0,0,0,0,5,5,1,,,,,,,,,,,,,,,,,,,,,,,,,,,,,,,,,,,,,,,,83.18931333092041,83.18931333092041,83.18931333092041,83.18931333092041,83.18931333092041,83.18931333092041,83.18931333092041,83.18931333092041,83.18931333092041,83.18931333092041,l,2.3936569780344144,1,42,0,85.60681810195092,87.10954804299399,,,,,,,,,,,,,,,,,,,,,,,,,,,,,,,,,,,,,,,,,,,,,,,,,,,,,,,,,,,,,,,,,,,60295,2022-11-07_13h49.12.102,vts_reward_expectancy_bt_OFFLINE,2022.2.4,59.93227976183434,
0,0,1,0,1,0,0,0,hexagon,triangle,0,0,0,0,0,6,6,6,,,,,,,,,,,,,,,,,,,,,,,,,,,,,,,,,,,,,,,,87.60955221299082,87.60955221299082,87.60955221299082,87.60955221299082,87.60955221299082,87.60955221299082,87.60955221299082,87.60955221299082,87.60955221299082,87.60955221299082,l,1.6740352300694212,1,43,0,89.3101588919526,90.81065964791924,90.81065964791924,91.31048951193225,,,,,,,,,,,,,,,,,,,,,,,,,,,,,,,,,,,,,,,,,,,,,,,,,,,,,,,,,,,,,,,,,60295,2022-11-07_13h49.12.102,vts_reward_expectancy_bt_OFFLINE,2022.2.4,59.93227976183434,
0,1,0,0,0,0,1,0,circle,hexagon,0,0,0,0,0,7,7,4,,,,,,,,,,,,,,,,,,,,,,,,,,,,,,,,,,,,,,,,91.31048951193225,91.31048951193225,91.31048951193225,91.31048951193225,91.31048951193225,91.31048951193225,91.31048951193225,91.31048951193225,91.31048951193225,91.31048951193225,a,2.394380597048439,10,53,0,93.7315497539239,95.23090375494212,95.23090375494212,95.73086425999645,,,,,,,,,,,,,,,,,,,,,,,,,,,,,,,,,,,,,,,,,,,,,,,,,,,,,,,,,,,,,,,,,60295,2022-11-07_13h49.12.102,vts_reward_expectancy_bt_OFFLINE,2022.2.4,59.93227976183434,
0,0,1,0,0,1,0,0,hexagon,circle,0,0,0,0,0,8,8,7,,,,,,,,,,,,,,,,,,,,,,,,,,,,,,,,,,,,,,,,95.73086425999645,95.73086425999645,95.73086425999645,95.73086425999645,95.73086425999645,95.73086425999645,95.73086425999645,95.73086425999645,95.73086425999645,95.73086425999645,l,1.3280290040420368,1,54,0,97.08459873998072,98.58378645696212,98.58378645696212,99.08396683190949,,,,,,,,,,,,,,,,,,,,,,,,,,,,,,,,,,,,,,,,,,,,,,,,,,,,,,,,,,,,,,,,,60295,2022-11-07_13h49.12.102,vts_reward_expectancy_bt_OFFLINE,2022.2.4,59.93227976183434,
1,0,0,0,0,1,0,0,triangle,circle,0,0,0,0,0,9,9,0,,,,,,,,,,,,,,,,,,,,,,,,,,,,,,,,,,,,,,,,99.08396683190949,99.08396683190949,99.08396683190949,99.08396683190949,99.08396683190949,99.08396683190949,99.08396683190949,99.08396683190949,99.08396683190949,99.08396683190949,l,1.0339385950937867,10,64,0,100.13609372393694,101.65160688699689,,,,,,,,,,,,,,,,,,,,,,,,,,,,,,,,,,,,,,,,,,,,,,,,,,,,,,,,,,,,,,,,,,,60295,2022-11-07_13h49.12.102,vts_reward_expectancy_bt_OFFLINE,2022.2.4,59.93227976183434,
0,0,0,1,0,0,1,0,star,hexagon,0,0,0,0,0,10,10,11,,,,,,,,,,,,,,,,,,,,,,,,,,,,,,,,,,,,,,,,102.1369481519796,102.1369481519796,102.1369481519796,102.1369481519796,102.1369481519796,102.1369481519796,102.1369481519796,102.1369481519796,102.1369481519796,102.1369481519796,a,1.4238492170115933,10,74,0,103.58778637892101,105.08817244891543,105.08817244891543,105.58829036494717,,,,,,,,,,,,,,,,,,,,,,,,,,,,,,,,,,,,,,,,,,,,,,,,,,,,,,,,,,,,,,,,,60295,2022-11-07_13h49.12.102,vts_reward_expectancy_bt_OFFLINE,2022.2.4,59.93227976183434,
0,0,0,1,1,0,0,0,star,triangle,0,0,0,0,0,11,11,9,,,,,,,,,,,,,,,,,,,,,,,,,,,,,,,,,,,,,,,,105.58829036494717,105.58829036494717,105.58829036494717,105.58829036494717,105.58829036494717,105.58829036494717,105.58829036494717,105.58829036494717,105.58829036494717,105.58829036494717,a,0.8530149389989674,10,84,0,106.47217619395815,107.97423147398513,,,,,,,,,,,,,,,,,,,,,,,,,,,,,,,,,,,,,,,,,,,,,,,,,,,,,,,,,,,,,,,,,,,60295,2022-11-07_13h49.12.102,vts_reward_expectancy_bt_OFFLINE,2022.2.4,59.93227976183434,
0,0,0,1,0,1,0,0,star ,circle,0,0,0,0,1,0,12,10,,,,,,,,,,,,,,,,,,,,,,,,,,,,,,,,,,,,,,,,108.4744795509614,108.4744795509614,108.4744795509614,108.4744795509614,108.4744795509614,108.4744795509614,108.4744795509614,108.4744795509614,108.4744795509614,108.4744795509614,a,0.7565003359923139,10,94,0,109.25795812194701,110.75866751698777,110.75866751698777,,,,,,,,,,,,,,,,,,,,,,,,,,,,,,,,,,,,,,,,,,,,,,,,,,,,,,,,,,,,,,,,,,60295,2022-11-07_13h49.12.102,vts_reward_expectancy_bt_OFFLINE,2022.2.4,59.93227976183434,
0,1,0,0,0,0,0,1,circle,star,0,0,0,0,1,1,13,5,,,,,,,,,,,,,,,,,,,,,,,,,,,,,,,,,,,,,,,,111.25868512492161,111.25868512492161,111.25868512492161,111.25868512492161,111.25868512492161,111.25868512492161,111.25868512492161,111.25868512492161,111.25868512492161,111.25868512492161,l,0.8869986600475386,10,104,0,112.17780415294692,113.67833589296788,113.67833589296788,114.17843380593695,,,,,,,,,,,,,,,,,,,,,,,,,,,,,,,,,,,,,,,,,,,,,,,,,,,,,,,,,,,,,,,,,60295,2022-11-07_13h49.12.102,vts_reward_expectancy_bt_OFFLINE,2022.2.4,59.93227976183434,
0,1,0,0,1,0,0,0,circle,triangle,0,0,0,0,1,2,14,3,,,,,,,,,,,,,,,,,,,,,,,,,,,,,,,,,,,,,,,,114.17843380593695,114.17843380593695,114.17843380593695,114.17843380593695,114.17843380593695,114.17843380593695,114.17843380593695,114.17843380593695,114.17843380593695,114.17843380593695,a,0.6104498109780252,1,105,0,114.8132950150175,116.31241598993074,116.31241598993074,116.81253166799434,,,,,,,,,,,,,,,,,,,,,,,,,,,,,,,,,,,,,,,,,,,,,,,,,,,,,,,,,,,,,,,,,60295,2022-11-07_13h49.12.102,vts_reward_expectancy_bt_OFFLINE,2022.2.4,59.93227976183434,
0,0,0,1,0,0,1,0,star,hexagon,0,0,0,0,1,3,15,11,,,,,,,,,,,,,,,,,,,,,,,,,,,,,,,,,,,,,,,,116.81253166799434,116.81253166799434,116.81253166799434,116.81253166799434,116.81253166799434,116.81253166799434,116.81253166799434,116.81253166799434,116.81253166799434,116.81253166799434,a,0.9356209869729355,10,115,0,117.76642953394912,119.2654090540018,119.2654090540018,119.7656603360083,,,,,,,,,,,,,,,,,,,,,,,,,,,,,,,,,,,,,,,,,,,,,,,,,,,,,,,,,,,,,,,,,60295,2022-11-07_13h49.12.102,vts_reward_expectancy_bt_OFFLINE,2022.2.4,59.93227976183434,
0,1,0,0,0,0,1,0,circle,hexagon,0,0,0,0,1,4,16,4,,,,,,,,,,,,,,,,,,,,,,,,,,,,,,,,,,,,,,,,119.7656603360083,119.7656603360083,119.7656603360083,119.7656603360083,119.7656603360083,119.7656603360083,119.7656603360083,119.7656603360083,119.7656603360083,119.7656603360083,l,1.9992136540822685,1,116,0,121.78433966101147,123.28542276402004,,,,,,,,,,,,,,,,,,,,,,,,,,,,,,,,,,,,,,,,,,,,,,,,,,,,,,,,,,,,,,,,,,,60295,2022-11-07_13h49.12.102,vts_reward_expectancy_bt_OFFLINE,2022.2.4,59.93227976183434,
1,0,0,0,0,1,0,0,triangle,circle,0,0,0,0,1,5,17,0,,,,,,,,,,,,,,,,,,,,,,,,,,,,,,,,,,,,,,,,123.78556591691449,123.78556591691449,123.78556591691449,123.78556591691449,123.78556591691449,123.78556591691449,123.78556591691449,123.78556591691449,123.78556591691449,123.78556591691449,l,1.3658163610380143,1,117,0,125.16934534697793,126.66977091494482,126.66977091494482,,,,,,,,,,,,,,,,,,,,,,,,,,,,,,,,,,,,,,,,,,,,,,,,,,,,,,,,,,,,,,,,,,60295,2022-11-07_13h49.12.102,vts_reward_expectancy_bt_OFFLINE,2022.2.4,59.93227976183434,
0,0,1,0,0,1,0,0,hexagon,circle,0,0,0,0,1,6,18,7,,,,,,,,,,,,,,,,,,,,,,,,,,,,,,,,,,,,,,,,127.17203127895482,127.17203127895482,127.17203127895482,127.17203127895482,127.17203127895482,127.17203127895482,127.17203127895482,127.17203127895482,127.17203127895482,127.17203127895482,l,2.7494957910384983,1,118,0,129.93946123798378,131.44039050501306,131.44039050501306,131.93982675299048,,,,,,,,,,,,,,,,,,,,,,,,,,,,,,,,,,,,,,,,,,,,,,,,,,,,,,,,,,,,,,,,,60295,2022-11-07_13h49.12.102,vts_reward_expectancy_bt_OFFLINE,2022.2.4,59.93227976183434,
0,0,1,0,0,0,0,1,hexagon,star,0,0,0,0,1,7,19,8,,,,,,,,,,,,,,,,,,,,,,,,,,,,,,,,,,,,,,,,131.93982675299048,131.93982675299048,131.93982675299048,131.93982675299048,131.93982675299048,131.93982675299048,131.93982675299048,131.93982675299048,131.93982675299048,131.93982675299048,l,0.9181072190403938,10,128,0,132.87704579601996,134.37629940593615,134.37629940593615,134.87640992598608,,,,,,,,,,,,,,,,,,,,,,,,,,,,,,,,,,,,,,,,,,,,,,,,,,,,,,,,,,,,,,,,,60295,2022-11-07_13h49.12.102,vts_reward_expectancy_bt_OFFLINE,2022.2.4,59.93227976183434,
1,0,0,0,0,0,0,1,triangle,star,0,0,0,0,1,8,20,2,,,,,,,,,,,,,,,,,,,,,,,,,,,,,,,,,,,,,,,,134.87640992598608,134.87640992598608,134.87640992598608,134.87640992598608,134.87640992598608,134.87640992598608,134.87640992598608,134.87640992598608,134.87640992598608,134.87640992598608,l,0.7156690290430561,10,138,0,135.6100359460106,137.11266292596702,,,,,,,,,,,,,,,,,,,,,,,,,,,,,,,,,,,,,,,,,,,,,,,,,,,,,,,,,,,,,,,,,,,60295,2022-11-07_13h49.12.102,vts_reward_expectancy_bt_OFFLINE,2022.2.4,59.93227976183434,
0,0,1,0,1,0,0,0,hexagon,triangle,0,0,0,0,1,9,21,6,,,,,,,,,,,,,,,,,,,,,,,,,,,,,,,,,,,,,,,,137.61268750799354,137.61268750799354,137.61268750799354,137.61268750799354,137.61268750799354,137.61268750799354,137.61268750799354,137.61268750799354,137.61268750799354,137.61268750799354,l,1.5338511561276391,10,148,0,139.16330950299744,140.6636399849085,140.6636399849085,141.16381182090845,,,,,,,,,,,,,,,,,,,,,,,,,,,,,,,,,,,,,,,,,,,,,,,,,,,,,,,,,,,,,,,,,60295,2022-11-07_13h49.12.102,vts_reward_expectancy_bt_OFFLINE,2022.2.4,59.93227976183434,
1,0,0,0,0,0,1,0,triangle,hexagon,0,0,0,0,1,10,22,1,,,,,,,,,,,,,,,,,,,,,,,,,,,,,,,,,,,,,,,,141.16381182090845,141.16381182090845,141.16381182090845,141.16381182090845,141.16381182090845,141.16381182090845,141.16381182090845,141.16381182090845,141.16381182090845,141.16381182090845,l,0.8962611280148849,1,149,0,142.08417229400948,143.5832693199627,143.5832693199627,144.0835562609136,,,,,,,,,,,,,,,,,,,,,,,,,,,,,,,,,,,,,,,,,,,,,,,,,,,,,,,,,,,,,,,,,60295,2022-11-07_13h49.12.102,vts_reward_expectancy_bt_OFFLINE,2022.2.4,59.93227976183434,
0,0,0,1,1,0,0,0,star,triangle,0,0,0,0,1,11,23,9,,,,,,,,,,,,,,,,,,,,,,,,,,,,,,,,,,,,,,,,144.0835562609136,144.0835562609136,144.0835562609136,144.0835562609136,144.0835562609136,144.0835562609136,144.0835562609136,144.0835562609136,144.0835562609136,144.0835562609136,a,0.7780716110719368,1,150,0,144.8837722359458,146.3843070429284,146.3843070429284,146.8844264600193,,,,,,,,,,,,,,,,,,,,,,,,,,,,,,,,,,,,,,,,,,,,,,,,,,,,,,,,,,,,,,,,,60295,2022-11-07_13h49.12.102,vts_reward_expectancy_bt_OFFLINE,2022.2.4,59.93227976183434,
0,1,0,0,1,0,0,0,circle,triangle,0,0,0,0,2,0,24,3,,,,,,,,,,,,,,,,,,,,,,,,,,,,,,,,,,,,,,,,146.8844264600193,146.8844264600193,146.8844264600193,146.8844264600193,146.8844264600193,146.8844264600193,146.8844264600193,146.8844264600193,146.8844264600193,146.8844264600193,a,1.4650355480844155,1,151,0,148.37021564296447,149.87087353190873,149.87087353190873,150.37088187795598,,,,,,,,,,,,,,,,,,,,,,,,,,,,,,,,,,,,,,,,,,,,,,,,,,,,,,,,,,,,,,,,,60295,2022-11-07_13h49.12.102,vts_reward_expectancy_bt_OFFLINE,2022.2.4,59.93227976183434,
1,0,0,0,0,0,0,1,triangle,star,0,0,0,0,2,1,25,2,,,,,,,,,,,,,,,,,,,,,,,,,,,,,,,,,,,,,,,,150.37088187795598,150.37088187795598,150.37088187795598,150.37088187795598,150.37088187795598,150.37088187795598,150.37088187795598,150.37088187795598,150.37088187795598,150.37088187795598,l,0.8591524650109932,10,161,0,151.25604544801172,152.75684127793647,,,,,,,,,,,,,,,,,,,,,,,,,,,,,,,,,,,,,,,,,,,,,,,,,,,,,,,,,,,,,,,,,,,60295,2022-11-07_13h49.12.102,vts_reward_expectancy_bt_OFFLINE,2022.2.4,59.93227976183434,
0,0,0,1,1,0,0,0,star,triangle,0,0,0,0,2,2,26,9,,,,,,,,,,,,,,,,,,,,,,,,,,,,,,,,,,,,,,,,153.25730796996504,153.25730796996504,153.25730796996504,153.25730796996504,153.25730796996504,153.25730796996504,153.25730796996504,153.25730796996504,153.25730796996504,153.25730796996504,a,0.7960104120429605,10,171,0,154.0739890949335,155.57458994002081,155.57458994002081,156.07459275296424,,,,,,,,,,,,,,,,,,,,,,,,,,,,,,,,,,,,,,,,,,,,,,,,,,,,,,,,,,,,,,,,,60295,2022-11-07_13h49.12.102,vts_reward_expectancy_bt_OFFLINE,2022.2.4,59.93227976183434,
0,0,1,0,0,1,0,0,hexagon,circle,0,0,0,0,2,3,27,7,,,,,,,,,,,,,,,,,,,,,,,,,,,,,,,,,,,,,,,,156.07459275296424,156.07459275296424,156.07459275296424,156.07459275296424,156.07459275296424,156.07459275296424,156.07459275296424,156.07459275296424,156.07459275296424,156.07459275296424,l,1.3988027850864455,1,172,0,157.49527303199284,159.0110587819945,,,,,,,,,,,,,,,,,,,,,,,,,,,,,,,,,,,,,,,,,,,,,,,,,,,,,,,,,,,,,,,,,,,60295,2022-11-07_13h49.12.102,vts_reward_expectancy_bt_OFFLINE,2022.2.4,59.93227976183434,
0,1,0,0,0,0,0,1,circle,star,0,0,0,0,2,4,28,5,,,,,,,,,,,,,,,,,,,,,,,,,,,,,,,,,,,,,,,,159.51136104995385,159.51136104995385,159.51136104995385,159.51136104995385,159.51136104995385,159.51136104995385,159.51136104995385,159.51136104995385,159.51136104995385,159.51136104995385,l,0.6283060590503737,10,182,0,160.16290739993565,161.66201185097452,161.66201185097452,,,,,,,,,,,,,,,,,,,,,,,,,,,,,,,,,,,,,,,,,,,,,,,,,,,,,,,,,,,,,,,,,,60295,2022-11-07_13h49.12.102,vts_reward_expectancy_bt_OFFLINE,2022.2.4,59.93227976183434,
0,0,0,1,0,1,0,0,star ,circle,0,0,0,0,2,5,29,10,,,,,,,,,,,,,,,,,,,,,,,,,,,,,,,,,,,,,,,,162.16399555897806,162.16399555897806,162.16399555897806,162.16399555897806,162.16399555897806,162.16399555897806,162.16399555897806,162.16399555897806,162.16399555897806,162.16399555897806,a,0.6994487420888618,10,192,0,162.88096008298453,164.38168340793345,164.38168340793345,164.88165431993548,,,,,,,,,,,,,,,,,,,,,,,,,,,,,,,,,,,,,,,,,,,,,,,,,,,,,,,,,,,,,,,,,60295,2022-11-07_13h49.12.102,vts_reward_expectancy_bt_OFFLINE,2022.2.4,59.93227976183434,
1,0,0,0,0,1,0,0,triangle,circle,0,0,0,0,2,6,30,0,,,,,,,,,,,,,,,,,,,,,,,,,,,,,,,,,,,,,,,,164.88165431993548,164.88165431993548,164.88165431993548,164.88165431993548,164.88165431993548,164.88165431993548,164.88165431993548,164.88165431993548,164.88165431993548,164.88165431993548,l,0.7487289550481364,1,193,0,165.64974408992566,167.15097342291847,,,,,,,,,,,,,,,,,,,,,,,,,,,,,,,,,,,,,,,,,,,,,,,,,,,,,,,,,,,,,,,,,,,60295,2022-11-07_13h49.12.102,vts_reward_expectancy_bt_OFFLINE,2022.2.4,59.93227976183434,
0,0,1,0,0,0,0,1,hexagon,star,0,0,0,0,2,7,31,8,,,,,,,,,,,,,,,,,,,,,,,,,,,,,,,,,,,,,,,,167.6511867599329,167.6511867599329,167.6511867599329,167.6511867599329,167.6511867599329,167.6511867599329,167.6511867599329,167.6511867599329,167.6511867599329,167.6511867599329,l,1.1747077220352367,1,194,0,168.85163468599785,170.35214925499167,170.35214925499167,170.85234722401947,,,,,,,,,,,,,,,,,,,,,,,,,,,,,,,,,,,,,,,,,,,,,,,,,,,,,,,,,,,,,,,,,60295,2022-11-07_13h49.12.102,vts_reward_expectancy_bt_OFFLINE,2022.2.4,59.93227976183434,
0,1,0,0,0,0,1,0,circle,hexagon,0,0,0,0,2,8,32,4,,,,,,,,,,,,,,,,,,,,,,,,,,,,,,,,,,,,,,,,170.85234722401947,170.85234722401947,170.85234722401947,170.85234722401947,170.85234722401947,170.85234722401947,170.85234722401947,170.85234722401947,170.85234722401947,170.85234722401947,l,0.7862185550620779,10,204,0,171.67071629595011,173.17160614090972,,,,,,,,,,,,,,,,,,,,,,,,,,,,,,,,,,,,,,,,,,,,,,,,,,,,,,,,,,,,,,,,,,,60295,2022-11-07_13h49.12.102,vts_reward_expectancy_bt_OFFLINE,2022.2.4,59.93227976183434,
1,0,0,0,0,0,1,0,triangle,hexagon,0,0,0,0,2,9,33,1,,,,,,,,,,,,,,,,,,,,,,,,,,,,,,,,,,,,,,,,173.67196107294876,173.67196107294876,173.67196107294876,173.67196107294876,173.67196107294876,173.67196107294876,173.67196107294876,173.67196107294876,173.67196107294876,173.67196107294876,l,0.7569319680333138,10,214,0,174.45530676294584,175.9560062289238,175.9560062289238,,,,,,,,,,,,,,,,,,,,,,,,,,,,,,,,,,,,,,,,,,,,,,,,,,,,,,,,,,,,,,,,,,60295,2022-11-07_13h49.12.102,vts_reward_expectancy_bt_OFFLINE,2022.2.4,59.93227976183434,
0,0,0,1,0,0,1,0,star,hexagon,0,0,0,0,2,10,34,11,,,,,,,,,,,,,,,,,,,,,,,,,,,,,,,,,,,,,,,,176.4559644999681,176.4559644999681,176.4559644999681,176.4559644999681,176.4559644999681,176.4559644999681,176.4559644999681,176.4559644999681,176.4559644999681,176.4559644999681,a,0.6394533570855856,10,224,0,177.1252597029088,178.62560096092056,178.62560096092056,179.12563448492438,,,,,,,,,,,,,,,,,,,,,,,,,,,,,,,,,,,,,,,,,,,,,,,,,,,,,,,,,,,,,,,,,60295,2022-11-07_13h49.12.102,vts_reward_expectancy_bt_OFFLINE,2022.2.4,59.93227976183434,
0,0,1,0,1,0,0,0,hexagon,triangle,0,0,0,0,2,11,35,6,,,,,,,,,,,,,,,,,,,,,,,,,,,,,,,,,,,,,,,,179.12563448492438,179.12563448492438,179.12563448492438,179.12563448492438,179.12563448492438,179.12563448492438,179.12563448492438,179.12563448492438,179.12563448492438,179.12563448492438,a,0.6913715620758012,1,225,0,179.84410866501275,181.34299234196078,181.34299234196078,,,,,,,,,,,,,,,,,,,,,,,,,,,,,,,,,,,,,,,,,,,,,,,,,,,,,,,,,,,,,,,,,,60295,2022-11-07_13h49.12.102,vts_reward_expectancy_bt_OFFLINE,2022.2.4,59.93227976183434,
0,0,0,1,0,0,1,0,star,hexagon,0,0,0,0,3,0,36,11,,,,,,,,,,,,,,,,,,,,,,,,,,,,,,,,,,,,,,,,181.84318520594388,181.84318520594388,181.84318520594388,181.84318520594388,181.84318520594388,181.84318520594388,181.84318520594388,181.84318520594388,181.84318520594388,181.84318520594388,a,0.5841626239707693,10,235,0,182.44698822300415,183.9626791869523,,,,,,,,,,,,,,,,,,,,,,,,,,,,,,,,,,,,,,,,,,,,,,,,,,,,,,,,,,,,,,,,,,,60295,2022-11-07_13h49.12.102,vts_reward_expectancy_bt_OFFLINE,2022.2.4,59.93227976183434,
0,0,0,1,0,1,0,0,star ,circle,0,0,0,0,3,1,37,10,,,,,,,,,,,,,,,,,,,,,,,,,,,,,,,,,,,,,,,,184.44597958400846,184.44597958400846,184.44597958400846,184.44597958400846,184.44597958400846,184.44597958400846,184.44597958400846,184.44597958400846,184.44597958400846,184.44597958400846,a,0.692503146128729,10,245,0,185.1629058449762,186.66359212994576,186.66359212994576,,,,,,,,,,,,,,,,,,,,,,,,,,,,,,,,,,,,,,,,,,,,,,,,,,,,,,,,,,,,,,,,,,60295,2022-11-07_13h49.12.102,vts_reward_expectancy_bt_OFFLINE,2022.2.4,59.93227976183434,
1,0,0,0,0,0,1,0,triangle,hexagon,0,0,0,0,3,2,38,1,,,,,,,,,,,,,,,,,,,,,,,,,,,,,,,,,,,,,,,,187.16559791797772,187.16559791797772,187.16559791797772,187.16559791797772,187.16559791797772,187.16559791797772,187.16559791797772,187.16559791797772,187.16559791797772,187.16559791797772,l,0.7757064880570397,1,246,0,187.96787987393327,189.48329904698767,,,,,,,,,,,,,,,,,,,,,,,,,,,,,,,,,,,,,,,,,,,,,,,,,,,,,,,,,,,,,,,,,,,60295,2022-11-07_13h49.12.102,vts_reward_expectancy_bt_OFFLINE,2022.2.4,59.93227976183434,
1,0,0,0,0,0,0,1,triangle,star,0,0,0,0,3,3,39,2,,,,,,,,,,,,,,,,,,,,,,,,,,,,,,,,,,,,,,,,189.98307131696492,189.98307131696492,189.98307131696492,189.98307131696492,189.98307131696492,189.98307131696492,189.98307131696492,189.98307131696492,189.98307131696492,189.98307131696492,l,0.6570262770401314,1,247,0,190.66692966897972,192.16915621701628,,,,,,,,,,,,,,,,,,,,,,,,,,,,,,,,,,,,,,,,,,,,,,,,,,,,,,,,,,,,,,,,,,,60295,2022-11-07_13h49.12.102,vts_reward_expectancy_bt_OFFLINE,2022.2.4,59.93227976183434,
0,0,1,0,0,1,0,0,hexagon,circle,0,0,0,0,3,4,40,7,,,,,,,,,,,,,,,,,,,,,,,,,,,,,,,,,,,,,,,,192.66924105596263,192.66924105596263,192.66924105596263,192.66924105596263,192.66924105596263,192.66924105596263,192.66924105596263,192.66924105596263,192.66924105596263,192.66924105596263,a,0.6946394580882043,10,257,0,193.38810897199437,194.90364162693731,,,,,,,,,,,,,,,,,,,,,,,,,,,,,,,,,,,,,,,,,,,,,,,,,,,,,,,,,,,,,,,,,,,60295,2022-11-07_13h49.12.102,vts_reward_expectancy_bt_OFFLINE,2022.2.4,59.93227976183434,
0,1,0,0,0,0,1,0,circle,hexagon,0,0,0,0,3,5,41,4,,,,,,,,,,,,,,,,,,,,,,,,,,,,,,,,,,,,,,,,195.387158447993,195.387158447993,195.387158447993,195.387158447993,195.387158447993,195.387158447993,195.387158447993,195.387158447993,195.387158447993,195.387158447993,l,0.5860385861014947,10,267,0,196.0038308330113,197.50628833298106,,,,,,,,,,,,,,,,,,,,,,,,,,,,,,,,,,,,,,,,,,,,,,,,,,,,,,,,,,,,,,,,,,,60295,2022-11-07_13h49.12.102,vts_reward_expectancy_bt_OFFLINE,2022.2.4,59.93227976183434,
0,1,0,0,1,0,0,0,circle,triangle,0,0,0,0,3,6,42,3,,,,,,,,,,,,,,,,,,,,,,,,,,,,,,,,,,,,,,,,198.0063262679614,198.0063262679614,198.0063262679614,198.0063262679614,198.0063262679614,198.0063262679614,198.0063262679614,198.0063262679614,198.0063262679614,198.0063262679614,a,0.6441994271008298,1,268,0,198.6754328549141,200.19057852600235,,,,,,,,,,,,,,,,,,,,,,,,,,,,,,,,,,,,,,,,,,,,,,,,,,,,,,,,,,,,,,,,,,,60295,2022-11-07_13h49.12.102,vts_reward_expectancy_bt_OFFLINE,2022.2.4,59.93227976183434,
0,1,0,0,0,0,0,1,circle,star,0,0,0,0,3,7,43,5,,,,,,,,,,,,,,,,,,,,,,,,,,,,,,,,,,,,,,,,200.6907779929461,200.6907779929461,200.6907779929461,200.6907779929461,200.6907779929461,200.6907779929461,200.6907779929461,200.6907779929461,200.6907779929461,200.6907779929461,l,0.6261014661286026,10,278,0,201.3428758259397,202.8434024179587,,,,,,,,,,,,,,,,,,,,,,,,,,,,,,,,,,,,,,,,,,,,,,,,,,,,,,,,,,,,,,,,,,,60295,2022-11-07_13h49.12.102,vts_reward_expectancy_bt_OFFLINE,2022.2.4,59.93227976183434,
0,0,0,1,1,0,0,0,star,triangle,0,0,0,0,3,8,44,9,,,,,,,,,,,,,,,,,,,,,,,,,,,,,,,,,,,,,,,,203.34354202600662,203.34354202600662,203.34354202600662,203.34354202600662,203.34354202600662,203.34354202600662,203.34354202600662,203.34354202600662,203.34354202600662,203.34354202600662,a,0.6070446850499138,10,288,0,203.97716933791526,205.4777464469662,205.4777464469662,205.97779967996757,,,,,,,,,,,,,,,,,,,,,,,,,,,,,,,,,,,,,,,,,,,,,,,,,,,,,,,,,,,,,,,,,60295,2022-11-07_13h49.12.102,vts_reward_expectancy_bt_OFFLINE,2022.2.4,59.93227976183434,
0,0,1,0,0,0,0,1,hexagon,star,0,0,0,0,3,9,45,8,,,,,,,,,,,,,,,,,,,,,,,,,,,,,,,,,,,,,,,,205.97779967996757,205.97779967996757,205.97779967996757,205.97779967996757,205.97779967996757,205.97779967996757,205.97779967996757,205.97779967996757,205.97779967996757,205.97779967996757,l,0.6492668191203848,10,298,0,206.6447548789438,208.14712189801503,,,,,,,,,,,,,,,,,,,,,,,,,,,,,,,,,,,,,,,,,,,,,,,,,,,,,,,,,,,,,,,,,,,60295,2022-11-07_13h49.12.102,vts_reward_expectancy_bt_OFFLINE,2022.2.4,59.93227976183434,
0,0,1,0,1,0,0,0,hexagon,triangle,0,0,0,0,3,10,46,6,,,,,,,,,,,,,,,,,,,,,,,,,,,,,,,,,,,,,,,,208.64739927498158,208.64739927498158,208.64739927498158,208.64739927498158,208.64739927498158,208.64739927498158,208.64739927498158,208.64739927498158,208.64739927498158,208.64739927498158,a,0.5900515101384372,10,308,0,209.264643191942,210.76464569591917,210.76464569591917,,,,,,,,,,,,,,,,,,,,,,,,,,,,,,,,,,,,,,,,,,,,,,,,,,,,,,,,,,,,,,,,,,60295,2022-11-07_13h49.12.102,vts_reward_expectancy_bt_OFFLINE,2022.2.4,59.93227976183434,
1,0,0,0,0,1,0,0,triangle,circle,0,0,0,0,3,11,47,0,,,,,,,,,,,,,,,,,,,,,,,,,,,,,,,,,,,,,,,,211.26475017692428,211.26475017692428,211.26475017692428,211.26475017692428,211.26475017692428,211.26475017692428,211.26475017692428,211.26475017692428,211.26475017692428,211.26475017692428,l,0.7067741500213742,1,309,0,211.99981051194482,213.5009741060203,,,,,,,,,,,,,,,,,,,,,,,,,,,,,,,,,,,,,,,,,,,,,,,,,,,,,,,,,,,,,,,,,,,60295,2022-11-07_13h49.12.102,vts_reward_expectancy_bt_OFFLINE,2022.2.4,59.93227976183434,
0,1,0,0,1,0,0,0,circle,triangle,1,0,1,0,0,0,0,3,,,,,,,,,,,,,,,,,,,,,,,,,,,,,,,,,,,,,,,,249.1708671329543,249.1708671329543,249.1708671329543,249.1708671329543,249.1708671329543,249.1708671329543,249.1708671329543,249.1708671329543,249.1708671329543,249.1708671329543,a,1.7947445820318535,10,319,1,250.9961501120124,252.49650438700337,,,,,,,,,,,,,,,,,,,,,,,,,,,,,,,,,,,,,,,,,,,,,,,,,,,,,,,,,,,,,,,,,,,60295,2022-11-07_13h49.12.102,vts_reward_expectancy_bt_OFFLINE,2022.2.4,59.93227976183434,
0,0,1,0,1,0,0,0,hexagon,triangle,1,0,1,0,0,1,1,6,,,,,,,,,,,,,,,,,,,,,,,,,,,,,,,,,,,,,,,,252.99675686401315,252.99675686401315,252.99675686401315,252.99675686401315,252.99675686401315,252.99675686401315,252.99675686401315,252.99675686401315,252.99675686401315,252.99675686401315,a,1.715794866089709,1,320,1,254.73237483296543,256.2477529679891,,,,,,,,,,,,,,,,,,,,,,,,,,,,,,,,,,,,,,,,,,,,,,,,,,,,,,,,,,,,,,,,,,,60295,2022-11-07_13h49.12.102,vts_reward_expectancy_bt_OFFLINE,2022.2.4,59.93227976183434,
0,0,0,1,0,0,1,0,star,hexagon,1,0,1,0,0,2,2,11,,,,,,,,,,,,,,,,,,,,,,,,,,,,,,,,,,,,,,,,256.74769182293676,256.74769182293676,256.74769182293676,256.74769182293676,256.74769182293676,256.74769182293676,256.74769182293676,256.74769182293676,256.74769182293676,256.74769182293676,a,1.0701503980671987,10,330,1,257.85065514594316,259.35075728897937,259.35075728897937,259.85086875001434,,,,,,,,,,,,,,,,,,,,,,,,,,,,,,,,,,,,,,,,,,,,,,,,,,,,,,,,,,,,,,,,,60295,2022-11-07_13h49.12.102,vts_reward_expectancy_bt_OFFLINE,2022.2.4,59.93227976183434,
0,1,0,0,0,0,1,0,circle,hexagon,1,0,1,0,0,3,3,4,,,,,,,,,,,,,,,,,,,,,,,,,,,,,,,,,,,,,,,,259.85086875001434,259.85086875001434,259.85086875001434,259.85086875001434,259.85086875001434,259.85086875001434,259.85086875001434,259.85086875001434,259.85086875001434,259.85086875001434,l,0.8581886630272493,1,331,1,260.73635603499133,262.23693402996287,,,,,,,,,,,,,,,,,,,,,,,,,,,,,,,,,,,,,,,,,,,,,,,,,,,,,,,,,,,,,,,,,,,60295,2022-11-07_13h49.12.102,vts_reward_expectancy_bt_OFFLINE,2022.2.4,59.93227976183434,
0,0,0,1,0,1,0,0,star ,circle,1,0,1,0,0,4,4,10,,,,,,,,,,,,,,,,,,,,,,,,,,,,,,,,,,,,,,,,262.7370120609412,262.7370120609412,262.7370120609412,262.7370120609412,262.7370120609412,262.7370120609412,262.7370120609412,262.7370120609412,262.7370120609412,262.7370120609412,a,0.6168624140555039,1,332,1,263.3706035289215,264.8711948769633,264.8711948769633,265.3713974659331,,,,,,,,,,,,,,,,,,,,,,,,,,,,,,,,,,,,,,,,,,,,,,,,,,,,,,,,,,,,,,,,,60295,2022-11-07_13h49.12.102,vts_reward_expectancy_bt_OFFLINE,2022.2.4,59.93227976183434,
0,0,0,1,1,0,0,0,star,triangle,1,0,1,0,0,5,5,9,,,,,,,,,,,,,,,,,,,,,,,,,,,,,,,,,,,,,,,,265.3713974659331,265.3713974659331,265.3713974659331,265.3713974659331,265.3713974659331,265.3713974659331,265.3713974659331,265.3713974659331,265.3713974659331,265.3713974659331,a,0.5360324400244281,10,342,1,265.94015938800294,267.4403981429059,,,,,,,,,,,,,,,,,,,,,,,,,,,,,,,,,,,,,,,,,,,,,,,,,,,,,,,,,,,,,,,,,,,60295,2022-11-07_13h49.12.102,vts_reward_expectancy_bt_OFFLINE,2022.2.4,59.93227976183434,
0,1,0,0,0,0,0,1,circle,star,1,0,1,0,0,6,6,5,,,,,,,,,,,,,,,,,,,,,,,,,,,,,,,,,,,,,,,,267.9409390919609,267.9409390919609,267.9409390919609,267.9409390919609,267.9409390919609,267.9409390919609,267.9409390919609,267.9409390919609,267.9409390919609,267.9409390919609,l,0.7565166730200872,10,352,1,268.7243791379733,270.2249430149095,270.2249430149095,270.7248926239554,,,,,,,,,,,,,,,,,,,,,,,,,,,,,,,,,,,,,,,,,,,,,,,,,,,,,,,,,,,,,,,,,60295,2022-11-07_13h49.12.102,vts_reward_expectancy_bt_OFFLINE,2022.2.4,59.93227976183434,
1,0,0,0,0,1,0,0,triangle,circle,1,0,1,0,0,7,7,0,,,,,,,,,,,,,,,,,,,,,,,,,,,,,,,,,,,,,,,,270.7248926239554,270.7248926239554,270.7248926239554,270.7248926239554,270.7248926239554,270.7248926239554,270.7248926239554,270.7248926239554,270.7248926239554,270.7248926239554,l,1.1557591770542786,1,353,1,271.9112946309615,273.4113168899203,,,,,,,,,,,,,,,,,,,,,,,,,,,,,,,,,,,,,,,,,,,,,,,,,,,,,,,,,,,,,,,,,,,60295,2022-11-07_13h49.12.102,vts_reward_expectancy_bt_OFFLINE,2022.2.4,59.93227976183434,
1,0,0,0,0,0,0,1,triangle,star,1,0,1,0,0,8,8,2,,,,,,,,,,,,,,,,,,,,,,,,,,,,,,,,,,,,,,,,273.91141939000227,273.91141939000227,273.91141939000227,273.91141939000227,273.91141939000227,273.91141939000227,273.91141939000227,273.91141939000227,273.91141939000227,273.91141939000227,l,0.524345368030481,10,363,1,274.4638342160033,275.97890189196914,,,,,,,,,,,,,,,,,,,,,,,,,,,,,,,,,,,,,,,,,,,,,,,,,,,,,,,,,,,,,,,,,,,60295,2022-11-07_13h49.12.102,vts_reward_expectancy_bt_OFFLINE,2022.2.4,59.93227976183434,
0,0,1,0,0,1,0,0,hexagon,circle,1,0,1,0,0,9,9,7,,,,,,,,,,,,,,,,,,,,,,,,,,,,,,,,,,,,,,,,276.479035604978,276.479035604978,276.479035604978,276.479035604978,276.479035604978,276.479035604978,276.479035604978,276.479035604978,276.479035604978,276.479035604978,a,1.1394154790323228,1,364,1,277.6500516969245,279.16531776695047,,,,,,,,,,,,,,,,,,,,,,,,,,,,,,,,,,,,,,,,,,,,,,,,,,,,,,,,,,,,,,,,,,,60295,2022-11-07_13h49.12.102,vts_reward_expectancy_bt_OFFLINE,2022.2.4,59.93227976183434,
0,0,1,0,0,0,0,1,hexagon,star,1,0,1,0,0,10,10,8,,,,,,,,,,,,,,,,,,,,,,,,,,,,,,,,,,,,,,,,279.66545150394086,279.66545150394086,279.66545150394086,279.66545150394086,279.66545150394086,279.66545150394086,279.66545150394086,279.66545150394086,279.66545150394086,279.66545150394086,l,0.6540205720812082,10,374,1,280.3510059789987,281.8661641799845,,,,,,,,,,,,,,,,,,,,,,,,,,,,,,,,,,,,,,,,,,,,,,,,,,,,,,,,,,,,,,,,,,,60295,2022-11-07_13h49.12.102,vts_reward_expectancy_bt_OFFLINE,2022.2.4,59.93227976183434,
1,0,0,0,0,0,1,0,triangle,hexagon,1,0,1,0,0,11,11,1,,,,,,,,,,,,,,,,,,,,,,,,,,,,,,,,,,,,,,,,282.3514205419924,282.3514205419924,282.3514205419924,282.3514205419924,282.3514205419924,282.3514205419924,282.3514205419924,282.3514205419924,282.3514205419924,282.3514205419924,l,1.1068974171066657,10,384,1,283.4853841760196,284.9857738990104,284.9857738990104,285.48604111594614,,,,,,,,,,,,,,,,,,,,,,,,,,,,,,,,,,,,,,,,,,,,,,,,,,,,,,,,,,,,,,,,,60295,2022-11-07_13h49.12.102,vts_reward_expectancy_bt_OFFLINE,2022.2.4,59.93227976183434,
1,0,0,0,0,1,0,0,triangle,circle,1,0,1,0,1,0,12,0,,,,,,,,,,,,,,,,,,,,,,,,,,,,,,,,,,,,,,,,285.48604111594614,285.48604111594614,285.48604111594614,285.48604111594614,285.48604111594614,285.48604111594614,285.48604111594614,285.48604111594614,285.48604111594614,285.48604111594614,l,1.0541009360458702,1,385,1,286.57153847895097,288.07203110295814,,,,,,,,,,,,,,,,,,,,,,,,,,,,,,,,,,,,,,,,,,,,,,,,,,,,,,,,,,,,,,,,,,,60295,2022-11-07_13h49.12.102,vts_reward_expectancy_bt_OFFLINE,2022.2.4,59.93227976183434,
0,0,1,0,0,1,0,0,hexagon,circle,1,0,1,0,1,1,13,7,,,,,,,,,,,,,,,,,,,,,,,,,,,,,,,,,,,,,,,,288.57240866299253,288.57240866299253,288.57240866299253,288.57240866299253,288.57240866299253,288.57240866299253,288.57240866299253,288.57240866299253,288.57240866299253,288.57240866299253,a,0.622907278011553,1,386,1,289.2230597200105,290.7230860419804,290.7230860419804,,,,,,,,,,,,,,,,,,,,,,,,,,,,,,,,,,,,,,,,,,,,,,,,,,,,,,,,,,,,,,,,,,60295,2022-11-07_13h49.12.102,vts_reward_expectancy_bt_OFFLINE,2022.2.4,59.93227976183434,
1,0,0,0,0,0,0,1,triangle,star,1,0,1,0,1,2,14,2,,,,,,,,,,,,,,,,,,,,,,,,,,,,,,,,,,,,,,,,291.22328655491583,291.22328655491583,291.22328655491583,291.22328655491583,291.22328655491583,291.22328655491583,291.22328655491583,291.22328655491583,291.22328655491583,291.22328655491583,l,0.5489966181339696,1,387,1,291.79011612199247,293.2925010200124,,,,,,,,,,,,,,,,,,,,,,,,,,,,,,,,,,,,,,,,,,,,,,,,,,,,,,,,,,,,,,,,,,,60295,2022-11-07_13h49.12.102,vts_reward_expectancy_bt_OFFLINE,2022.2.4,59.93227976183434,
0,0,0,1,0,1,0,0,star ,circle,1,0,1,0,1,3,15,10,,,,,,,,,,,,,,,,,,,,,,,,,,,,,,,,,,,,,,,,293.7928378599463,293.7928378599463,293.7928378599463,293.7928378599463,293.7928378599463,293.7928378599463,293.7928378599463,293.7928378599463,293.7928378599463,293.7928378599463,a,0.5553040719823912,1,388,1,294.37637081893627,295.87677828699816,295.87677828699816,296.3766883329954,,,,,,,,,,,,,,,,,,,,,,,,,,,,,,,,,,,,,,,,,,,,,,,,,,,,,,,,,,,,,,,,,60295,2022-11-07_13h49.12.102,vts_reward_expectancy_bt_OFFLINE,2022.2.4,59.93227976183434,
1,0,0,0,0,0,1,0,triangle,hexagon,1,0,1,0,1,4,16,1,,,,,,,,,,,,,,,,,,,,,,,,,,,,,,,,,,,,,,,,296.3766883329954,296.3766883329954,296.3766883329954,296.3766883329954,296.3766883329954,296.3766883329954,296.3766883329954,296.3766883329954,296.3766883329954,296.3766883329954,l,0.6717305940110236,1,389,1,297.07720455597155,298.57960173801985,,,,,,,,,,,,,,,,,,,,,,,,,,,,,,,,,,,,,,,,,,,,,,,,,,,,,,,,,,,,,,,,,,,60295,2022-11-07_13h49.12.102,vts_reward_expectancy_bt_OFFLINE,2022.2.4,59.93227976183434,
0,0,1,0,1,0,0,0,hexagon,triangle,1,0,1,0,1,5,17,6,,,,,,,,,,,,,,,,,,,,,,,,,,,,,,,,,,,,,,,,299.0798095439095,299.0798095439095,299.0798095439095,299.0798095439095,299.0798095439095,299.0798095439095,299.0798095439095,299.0798095439095,299.0798095439095,299.0798095439095,l,0.8603095421567559,10,399,1,299.9653116479749,301.46396036690567,,,,,,,,,,,,,,,,,,,,,,,,,,,,,,,,,,,,,,,,,,,,,,,,,,,,,,,,,,,,,,,,,,,60295,2022-11-07_13h49.12.102,vts_reward_expectancy_bt_OFFLINE,2022.2.4,59.93227976183434,
0,1,0,0,1,0,0,0,circle,triangle,1,0,1,0,1,6,18,3,,,,,,,,,,,,,,,,,,,,,,,,,,,,,,,,,,,,,,,,301.9637391900178,301.9637391900178,301.9637391900178,301.9637391900178,301.9637391900178,301.9637391900178,301.9637391900178,301.9637391900178,301.9637391900178,301.9637391900178,l,0.46229817206040025,10,409,1,302.4495067789685,303.9498605149565,,,,,,,,,,,,,,,,,,,,,,,,,,,,,,,,,,,,,,,,,,,,,,,,,,,,,,,,,,,,,,,,,,,60295,2022-11-07_13h49.12.102,vts_reward_expectancy_bt_OFFLINE,2022.2.4,59.93227976183434,
0,1,0,0,0,0,0,1,circle,star,1,0,1,0,1,7,19,5,,,,,,,,,,,,,,,,,,,,,,,,,,,,,,,,,,,,,,,,304.45042495895177,304.45042495895177,304.45042495895177,304.45042495895177,304.45042495895177,304.45042495895177,304.45042495895177,304.45042495895177,304.45042495895177,304.45042495895177,l,0.5639506920706481,10,419,1,305.03381128096953,306.53411750192754,306.53411750192754,307.0341930149589,,,,,,,,,,,,,,,,,,,,,,,,,,,,,,,,,,,,,,,,,,,,,,,,,,,,,,,,,,,,,,,,,60295,2022-11-07_13h49.12.102,vts_reward_expectancy_bt_OFFLINE,2022.2.4,59.93227976183434,
0,0,0,1,1,0,0,0,star,triangle,1,0,1,0,1,8,20,9,,,,,,,,,,,,,,,,,,,,,,,,,,,,,,,,,,,,,,,,307.0341930149589,307.0341930149589,307.0341930149589,307.0341930149589,307.0341930149589,307.0341930149589,307.0341930149589,307.0341930149589,307.0341930149589,307.0341930149589,a,0.5895512230927125,10,429,1,307.65331179997884,309.1537328339182,309.1537328339182,,,,,,,,,,,,,,,,,,,,,,,,,,,,,,,,,,,,,,,,,,,,,,,,,,,,,,,,,,,,,,,,,,60295,2022-11-07_13h49.12.102,vts_reward_expectancy_bt_OFFLINE,2022.2.4,59.93227976183434,
0,0,1,0,0,0,0,1,hexagon,star,1,0,1,0,1,9,21,8,,,,,,,,,,,,,,,,,,,,,,,,,,,,,,,,,,,,,,,,309.65408126299735,309.65408126299735,309.65408126299735,309.65408126299735,309.65408126299735,309.65408126299735,309.65408126299735,309.65408126299735,309.65408126299735,309.65408126299735,l,0.5465690289856866,1,430,1,310.2229663799517,311.73783135192934,,,,,,,,,,,,,,,,,,,,,,,,,,,,,,,,,,,,,,,,,,,,,,,,,,,,,,,,,,,,,,,,,,,60295,2022-11-07_13h49.12.102,vts_reward_expectancy_bt_OFFLINE,2022.2.4,59.93227976183434,
0,1,0,0,0,0,1,0,circle,hexagon,1,0,1,0,1,10,22,4,,,,,,,,,,,,,,,,,,,,,,,,,,,,,,,,,,,,,,,,312.2230811549816,312.2230811549816,312.2230811549816,312.2230811549816,312.2230811549816,312.2230811549816,312.2230811549816,312.2230811549816,312.2230811549816,312.2230811549816,l,0.6440205040853471,1,431,1,312.8902453839546,314.3909401409328,314.3909401409328,314.89112017001025,,,,,,,,,,,,,,,,,,,,,,,,,,,,,,,,,,,,,,,,,,,,,,,,,,,,,,,,,,,,,,,,,60295,2022-11-07_13h49.12.102,vts_reward_expectancy_bt_OFFLINE,2022.2.4,59.93227976183434,
0,0,0,1,0,0,1,0,star,hexagon,1,0,1,0,1,11,23,11,,,,,,,,,,,,,,,,,,,,,,,,,,,,,,,,,,,,,,,,314.89112017001025,314.89112017001025,314.89112017001025,314.89112017001025,314.89112017001025,314.89112017001025,314.89112017001025,314.89112017001025,314.89112017001025,314.89112017001025,a,0.48440565704368055,10,441,1,315.4083547749324,316.90858322696295,316.90858322696295,,,,,,,,,,,,,,,,,,,,,,,,,,,,,,,,,,,,,,,,,,,,,,,,,,,,,,,,,,,,,,,,,,60295,2022-11-07_13h49.12.102,vts_reward_expectancy_bt_OFFLINE,2022.2.4,59.93227976183434,
1,0,0,0,0,0,0,1,triangle,star,1,0,1,0,2,0,24,2,,,,,,,,,,,,,,,,,,,,,,,,,,,,,,,,,,,,,,,,317.41035004891455,317.41035004891455,317.41035004891455,317.41035004891455,317.41035004891455,317.41035004891455,317.41035004891455,317.41035004891455,317.41035004891455,317.41035004891455,l,0.6100834810640663,1,442,1,318.0460407990031,319.5611538629746,,,,,,,,,,,,,,,,,,,,,,,,,,,,,,,,,,,,,,,,,,,,,,,,,,,,,,,,,,,,,,,,,,,60295,2022-11-07_13h49.12.102,vts_reward_expectancy_bt_OFFLINE,2022.2.4,59.93227976183434,
0,0,1,0,0,1,0,0,hexagon,circle,1,0,1,0,2,1,25,7,,,,,,,,,,,,,,,,,,,,,,,,,,,,,,,,,,,,,,,,320.06131326791365,320.06131326791365,320.06131326791365,320.06131326791365,320.06131326791365,320.06131326791365,320.06131326791365,320.06131326791365,320.06131326791365,320.06131326791365,a,0.9847843741299585,10,452,1,321.07898320490494,322.58060982101597,,,,,,,,,,,,,,,,,,,,,,,,,,,,,,,,,,,,,,,,,,,,,,,,,,,,,,,,,,,,,,,,,,,60295,2022-11-07_13h49.12.102,vts_reward_expectancy_bt_OFFLINE,2022.2.4,59.93227976183434,
1,0,0,0,0,1,0,0,triangle,circle,1,0,1,0,2,2,26,0,,,,,,,,,,,,,,,,,,,,,,,,,,,,,,,,,,,,,,,,323.0809562240029,323.0809562240029,323.0809562240029,323.0809562240029,323.0809562240029,323.0809562240029,323.0809562240029,323.0809562240029,323.0809562240029,323.0809562240029,a,0.9684711589943618,1,453,1,324.08187901892234,325.5817837269278,325.5817837269278,326.08189083391335,,,,,,,,,,,,,,,,,,,,,,,,,,,,,,,,,,,,,,,,,,,,,,,,,,,,,,,,,,,,,,,,,60295,2022-11-07_13h49.12.102,vts_reward_expectancy_bt_OFFLINE,2022.2.4,59.93227976183434,
0,0,1,0,1,0,0,0,hexagon,triangle,1,0,1,0,2,3,27,6,,,,,,,,,,,,,,,,,,,,,,,,,,,,,,,,,,,,,,,,326.08189083391335,326.08189083391335,326.08189083391335,326.08189083391335,326.08189083391335,326.08189083391335,326.08189083391335,326.08189083391335,326.08189083391335,326.08189083391335,l,2.0861880221636966,10,463,1,328.20197131100576,329.70210447197314,329.70210447197314,330.2019198780181,,,,,,,,,,,,,,,,,,,,,,,,,,,,,,,,,,,,,,,,,,,,,,,,,,,,,,,,,,,,,,,,,60295,2022-11-07_13h49.12.102,vts_reward_expectancy_bt_OFFLINE,2022.2.4,59.93227976183434,
0,0,0,1,0,0,1,0,star,hexagon,1,0,1,0,2,4,28,11,,,,,,,,,,,,,,,,,,,,,,,,,,,,,,,,,,,,,,,,330.2019198780181,330.2019198780181,330.2019198780181,330.2019198780181,330.2019198780181,330.2019198780181,330.2019198780181,330.2019198780181,330.2019198780181,330.2019198780181,a,0.6092920260271057,10,473,1,330.8359187080059,332.33807746495586,,,,,,,,,,,,,,,,,,,,,,,,,,,,,,,,,,,,,,,,,,,,,,,,,,,,,,,,,,,,,,,,,,,60295,2022-11-07_13h49.12.102,vts_reward_expectancy_bt_OFFLINE,2022.2.4,59.93227976183434,
0,0,1,0,0,0,0,1,hexagon,star,1,0,1,0,2,5,29,8,,,,,,,,,,,,,,,,,,,,,,,,,,,,,,,,,,,,,,,,332.83805532194674,332.83805532194674,332.83805532194674,332.83805532194674,332.83805532194674,332.83805532194674,332.83805532194674,332.83805532194674,332.83805532194674,332.83805532194674,l,1.1928018149919808,1,474,1,334.05740851699375,335.57243407994974,,,,,,,,,,,,,,,,,,,,,,,,,,,,,,,,,,,,,,,,,,,,,,,,,,,,,,,,,,,,,,,,,,,60295,2022-11-07_13h49.12.102,vts_reward_expectancy_bt_OFFLINE,2022.2.4,59.93227976183434,
0,0,0,1,1,0,0,0,star,triangle,1,0,1,0,2,6,30,9,,,,,,,,,,,,,,,,,,,,,,,,,,,,,,,,,,,,,,,,336.07244456897024,336.07244456897024,336.07244456897024,336.07244456897024,336.07244456897024,336.07244456897024,336.07244456897024,336.07244456897024,336.07244456897024,336.07244456897024,a,0.7259920780779794,1,475,1,336.8230074499734,338.32522562891245,,,,,,,,,,,,,,,,,,,,,,,,,,,,,,,,,,,,,,,,,,,,,,,,,,,,,,,,,,,,,,,,,,,60295,2022-11-07_13h49.12.102,vts_reward_expectancy_bt_OFFLINE,2022.2.4,59.93227976183434,
1,0,0,0,0,0,1,0,triangle,hexagon,1,0,1,0,2,7,31,1,,,,,,,,,,,,,,,,,,,,,,,,,,,,,,,,,,,,,,,,338.82548354996834,338.82548354996834,338.82548354996834,338.82548354996834,338.82548354996834,338.82548354996834,338.82548354996834,338.82548354996834,338.82548354996834,338.82548354996834,l,1.0987849910743535,10,485,1,339.9445599769242,341.4596914879512,,,,,,,,,,,,,,,,,,,,,,,,,,,,,,,,,,,,,,,,,,,,,,,,,,,,,,,,,,,,,,,,,,,60295,2022-11-07_13h49.12.102,vts_reward_expectancy_bt_OFFLINE,2022.2.4,59.93227976183434,
0,0,0,1,0,1,0,0,star ,circle,1,0,1,0,2,8,32,10,,,,,,,,,,,,,,,,,,,,,,,,,,,,,,,,,,,,,,,,341.9429776140023,341.9429776140023,341.9429776140023,341.9429776140023,341.9429776140023,341.9429776140023,341.9429776140023,341.9429776140023,341.9429776140023,341.9429776140023,a,0.6138967310544103,10,495,1,342.5786662569735,344.0791139919311,344.0791139919311,,,,,,,,,,,,,,,,,,,,,,,,,,,,,,,,,,,,,,,,,,,,,,,,,,,,,,,,,,,,,,,,,,60295,2022-11-07_13h49.12.102,vts_reward_expectancy_bt_OFFLINE,2022.2.4,59.93227976183434,
0,1,0,0,0,0,1,0,circle,hexagon,1,0,1,0,2,9,33,4,,,,,,,,,,,,,,,,,,,,,,,,,,,,,,,,,,,,,,,,344.5793173769489,344.5793173769489,344.5793173769489,344.5793173769489,344.5793173769489,344.5793173769489,344.5793173769489,344.5793173769489,344.5793173769489,344.5793173769489,l,0.8132388889789581,1,496,1,345.4154292449821,346.9301966779167,,,,,,,,,,,,,,,,,,,,,,,,,,,,,,,,,,,,,,,,,,,,,,,,,,,,,,,,,,,,,,,,,,,60295,2022-11-07_13h49.12.102,vts_reward_expectancy_bt_OFFLINE,2022.2.4,59.93227976183434,
0,1,0,0,0,0,0,1,circle,star,1,0,1,0,2,10,34,5,,,,,,,,,,,,,,,,,,,,,,,,,,,,,,,,,,,,,,,,347.41543756995816,347.41543756995816,347.41543756995816,347.41543756995816,347.41543756995816,347.41543756995816,347.41543756995816,347.41543756995816,347.41543756995816,347.41543756995816,l,0.5193727290024981,10,506,1,347.96658755792305,349.46626324998215,349.46626324998215,349.9663132230053,,,,,,,,,,,,,,,,,,,,,,,,,,,,,,,,,,,,,,,,,,,,,,,,,,,,,,,,,,,,,,,,,60295,2022-11-07_13h49.12.102,vts_reward_expectancy_bt_OFFLINE,2022.2.4,59.93227976183434,
0,1,0,0,1,0,0,0,circle,triangle,1,0,1,0,2,11,35,3,,,,,,,,,,,,,,,,,,,,,,,,,,,,,,,,,,,,,,,,349.9663132230053,349.9663132230053,349.9663132230053,349.9663132230053,349.9663132230053,349.9663132230053,349.9663132230053,349.9663132230053,349.9663132230053,349.9663132230053,l,0.894237918080762,10,516,1,350.8838824619306,352.38591221591923,,,,,,,,,,,,,,,,,,,,,,,,,,,,,,,,,,,,,,,,,,,,,,,,,,,,,,,,,,,,,,,,,,,60295,2022-11-07_13h49.12.102,vts_reward_expectancy_bt_OFFLINE,2022.2.4,59.93227976183434,
0,1,0,0,0,0,1,0,circle,hexagon,1,0,1,0,3,0,36,4,,,,,,,,,,,,,,,,,,,,,,,,,,,,,,,,,,,,,,,,352.88604153797496,352.88604153797496,352.88604153797496,352.88604153797496,352.88604153797496,352.88604153797496,352.88604153797496,352.88604153797496,352.88604153797496,352.88604153797496,l,0.7643579540308565,1,517,1,353.6716879439773,355.18679640290793,,,,,,,,,,,,,,,,,,,,,,,,,,,,,,,,,,,,,,,,,,,,,,,,,,,,,,,,,,,,,,,,,,,60295,2022-11-07_13h49.12.102,vts_reward_expectancy_bt_OFFLINE,2022.2.4,59.93227976183434,
0,0,0,1,0,1,0,0,star ,circle,1,0,1,0,3,1,37,10,,,,,,,,,,,,,,,,,,,,,,,,,,,,,,,,,,,,,,,,355.67025924194604,355.67025924194604,355.67025924194604,355.67025924194604,355.67025924194604,355.67025924194604,355.67025924194604,355.67025924194604,355.67025924194604,355.67025924194604,a,0.60157663107384,1,518,1,356.3037941179937,357.80631308990996,,,,,,,,,,,,,,,,,,,,,,,,,,,,,,,,,,,,,,,,,,,,,,,,,,,,,,,,,,,,,,,,,,,60295,2022-11-07_13h49.12.102,vts_reward_expectancy_bt_OFFLINE,2022.2.4,59.93227976183434,
0,0,1,0,1,0,0,0,hexagon,triangle,1,0,1,0,3,2,38,6,,,,,,,,,,,,,,,,,,,,,,,,,,,,,,,,,,,,,,,,358.30652431899216,358.30652431899216,358.30652431899216,358.30652431899216,358.30652431899216,358.30652431899216,358.30652431899216,358.30652431899216,358.30652431899216,358.30652431899216,a,0.6096634321147576,1,519,1,358.9402369679883,360.44037930399645,360.44037930399645,360.9405947199557,,,,,,,,,,,,,,,,,,,,,,,,,,,,,,,,,,,,,,,,,,,,,,,,,,,,,,,,,,,,,,,,,60295,2022-11-07_13h49.12.102,vts_reward_expectancy_bt_OFFLINE,2022.2.4,59.93227976183434,
1,0,0,0,0,0,0,1,triangle,star,1,0,1,0,3,3,39,2,,,,,,,,,,,,,,,,,,,,,,,,,,,,,,,,,,,,,,,,360.9405947199557,360.9405947199557,360.9405947199557,360.9405947199557,360.9405947199557,360.9405947199557,360.9405947199557,360.9405947199557,360.9405947199557,360.9405947199557,l,0.5399269830668345,10,529,1,361.5100620680023,363.0099585019052,,,,,,,,,,,,,,,,,,,,,,,,,,,,,,,,,,,,,,,,,,,,,,,,,,,,,,,,,,,,,,,,,,,60295,2022-11-07_13h49.12.102,vts_reward_expectancy_bt_OFFLINE,2022.2.4,59.93227976183434,
0,0,0,1,0,0,1,0,star,hexagon,1,0,1,0,3,4,40,11,,,,,,,,,,,,,,,,,,,,,,,,,,,,,,,,,,,,,,,,363.51018388790544,363.51018388790544,363.51018388790544,363.51018388790544,363.51018388790544,363.51018388790544,363.51018388790544,363.51018388790544,363.51018388790544,363.51018388790544,a,0.591484592994675,10,539,1,364.1271512709791,365.6276935240021,365.6276935240021,,,,,,,,,,,,,,,,,,,,,,,,,,,,,,,,,,,,,,,,,,,,,,,,,,,,,,,,,,,,,,,,,,60295,2022-11-07_13h49.12.102,vts_reward_expectancy_bt_OFFLINE,2022.2.4,59.93227976183434,
0,0,0,1,1,0,0,0,star,triangle,1,0,1,0,3,5,41,9,,,,,,,,,,,,,,,,,,,,,,,,,,,,,,,,,,,,,,,,366.12754862592556,366.12754862592556,366.12754862592556,366.12754862592556,366.12754862592556,366.12754862592556,366.12754862592556,366.12754862592556,366.12754862592556,366.12754862592556,a,0.4158138290513307,10,549,1,366.56160962197464,368.0637301210081,,,,,,,,,,,,,,,,,,,,,,,,,,,,,,,,,,,,,,,,,,,,,,,,,,,,,,,,,,,,,,,,,,,60295,2022-11-07_13h49.12.102,vts_reward_expectancy_bt_OFFLINE,2022.2.4,59.93227976183434,
0,1,0,0,0,0,0,1,circle,star,1,0,1,0,3,6,42,5,,,,,,,,,,,,,,,,,,,,,,,,,,,,,,,,,,,,,,,,368.5638138829963,368.5638138829963,368.5638138829963,368.5638138829963,368.5638138829963,368.5638138829963,368.5638138829963,368.5638138829963,368.5638138829963,368.5638138829963,l,0.7693772719940171,10,559,1,369.36433335300535,370.8647586220177,370.8647586220177,371.36472277191933,,,,,,,,,,,,,,,,,,,,,,,,,,,,,,,,,,,,,,,,,,,,,,,,,,,,,,,,,,,,,,,,,60295,2022-11-07_13h49.12.102,vts_reward_expectancy_bt_OFFLINE,2022.2.4,59.93227976183434,
0,0,1,0,0,0,0,1,hexagon,star,1,0,1,0,3,7,43,8,,,,,,,,,,,,,,,,,,,,,,,,,,,,,,,,,,,,,,,,371.36472277191933,371.36472277191933,371.36472277191933,371.36472277191933,371.36472277191933,371.36472277191933,371.36472277191933,371.36472277191933,371.36472277191933,371.36472277191933,l,0.42216420313343406,10,569,1,371.81557639699895,373.3172878199257,,,,,,,,,,,,,,,,,,,,,,,,,,,,,,,,,,,,,,,,,,,,,,,,,,,,,,,,,,,,,,,,,,,60295,2022-11-07_13h49.12.102,vts_reward_expectancy_bt_OFFLINE,2022.2.4,59.93227976183434,
0,0,1,0,0,1,0,0,hexagon,circle,1,0,1,0,3,8,44,7,,,,,,,,,,,,,,,,,,,,,,,,,,,,,,,,,,,,,,,,373.8177307519363,373.8177307519363,373.8177307519363,373.8177307519363,373.8177307519363,373.8177307519363,373.8177307519363,373.8177307519363,373.8177307519363,373.8177307519363,a,0.7022267429856583,1,570,1,374.5526856610086,376.0516963049304,376.0516963049304,376.5517286469694,,,,,,,,,,,,,,,,,,,,,,,,,,,,,,,,,,,,,,,,,,,,,,,,,,,,,,,,,,,,,,,,,60295,2022-11-07_13h49.12.102,vts_reward_expectancy_bt_OFFLINE,2022.2.4,59.93227976183434,
1,0,0,0,0,0,1,0,triangle,hexagon,1,0,1,0,3,9,45,1,,,,,,,,,,,,,,,,,,,,,,,,,,,,,,,,,,,,,,,,376.5517286469694,376.5517286469694,376.5517286469694,376.5517286469694,376.5517286469694,376.5517286469694,376.5517286469694,376.5517286469694,376.5517286469694,376.5517286469694,l,0.8033764590509236,1,571,1,377.3871954509523,378.8881016119849,378.8881016119849,379.3881245169323,,,,,,,,,,,,,,,,,,,,,,,,,,,,,,,,,,,,,,,,,,,,,,,,,,,,,,,,,,,,,,,,,60295,2022-11-07_13h49.12.102,vts_reward_expectancy_bt_OFFLINE,2022.2.4,59.93227976183434,
0,1,0,0,1,0,0,0,circle,triangle,1,0,1,0,3,10,46,3,,,,,,,,,,,,,,,,,,,,,,,,,,,,,,,,,,,,,,,,379.3881245169323,379.3881245169323,379.3881245169323,379.3881245169323,379.3881245169323,379.3881245169323,379.3881245169323,379.3881245169323,379.3881245169323,379.3881245169323,l,1.049508020048961,10,581,1,380.45743040100206,381.9723134220112,,,,,,,,,,,,,,,,,,,,,,,,,,,,,,,,,,,,,,,,,,,,,,,,,,,,,,,,,,,,,,,,,,,60295,2022-11-07_13h49.12.102,vts_reward_expectancy_bt_OFFLINE,2022.2.4,59.93227976183434,
1,0,0,0,0,1,0,0,triangle,circle,1,0,1,0,3,11,47,0,,,,,,,,,,,,,,,,,,,,,,,,,,,,,,,,,,,,,,,,382.45767878892366,382.45767878892366,382.45767878892366,382.45767878892366,382.45767878892366,382.45767878892366,382.45767878892366,382.45767878892366,382.45767878892366,382.45767878892366,a,1.0182329580420628,10,591,1,383.50819479790516,385.0085522759473,385.0085522759473,385.5146412309259,,,,,,,,,,,,,,,,,,,,,,,,,,,,,,,,,,,,,,,,,,,,,,,,,,,,,,,,,,,,,,,,,60295,2022-11-07_13h49.12.102,vts_reward_expectancy_bt_OFFLINE,2022.2.4,59.93227976183434,
0,0,0,1,1,0,0,0,star,triangle,2,0,2,0,0,0,0,9,,,,,,,,,,,,,,,,,,,,,,,,,,,,,,,,,,,,,,,,391.5409925329732,391.5409925329732,391.5409925329732,391.5409925329732,391.5409925329732,391.5409925329732,391.5409925329732,391.5409925329732,391.5409925329732,391.5409925329732,a,1.3396311230026186,1,592,2,392.9006992059294,394.4156065719435,,,,,,,,,,,,,,,,,,,,,,,,,,,,,,,,,,,,,,,,,,,,,,,,,,,,,,,,,,,,,,,,,,,60295,2022-11-07_13h49.12.102,vts_reward_expectancy_bt_OFFLINE,2022.2.4,59.93227976183434,
0,0,0,1,0,1,0,0,star ,circle,2,0,2,0,0,1,1,10,,,,,,,,,,,,,,,,,,,,,,,,,,,,,,,,,,,,,,,,394.9160047440091,394.9160047440091,394.9160047440091,394.9160047440091,394.9160047440091,394.9160047440091,394.9160047440091,394.9160047440091,394.9160047440091,394.9160047440091,a,0.4509217591257766,1,593,2,395.39936402696185,396.89987997699063,396.89987997699063,,,,,,,,,,,,,,,,,,,,,,,,,,,,,,,,,,,,,,,,,,,,,,,,,,,,,,,,,,,,,,,,,,60295,2022-11-07_13h49.12.102,vts_reward_expectancy_bt_OFFLINE,2022.2.4,59.93227976183434,
1,0,0,0,0,0,0,1,triangle,star,2,0,2,0,0,2,2,2,,,,,,,,,,,,,,,,,,,,,,,,,,,,,,,,,,,,,,,,397.40184385492466,397.40184385492466,397.40184385492466,397.40184385492466,397.40184385492466,397.40184385492466,397.40184385492466,397.40184385492466,397.40184385492466,397.40184385492466,l,0.5980475159594789,1,594,2,398.01931528095156,399.51939549995586,399.51939549995586,400.0196990449913,,,,,,,,,,,,,,,,,,,,,,,,,,,,,,,,,,,,,,,,,,,,,,,,,,,,,,,,,,,,,,,,,60295,2022-11-07_13h49.12.102,vts_reward_expectancy_bt_OFFLINE,2022.2.4,59.93227976183434,
0,0,1,0,0,0,0,1,hexagon,star,2,0,2,0,0,3,3,8,,,,,,,,,,,,,,,,,,,,,,,,,,,,,,,,,,,,,,,,400.0196990449913,400.0196990449913,400.0196990449913,400.0196990449913,400.0196990449913,400.0196990449913,400.0196990449913,400.0196990449913,400.0196990449913,400.0196990449913,l,0.5679193179821596,10,604,2,400.6215616610134,402.1369685869431,,,,,,,,,,,,,,,,,,,,,,,,,,,,,,,,,,,,,,,,,,,,,,,,,,,,,,,,,,,,,,,,,,,60295,2022-11-07_13h49.12.102,vts_reward_expectancy_bt_OFFLINE,2022.2.4,59.93227976183434,
0,1,0,0,1,0,0,0,circle,triangle,2,0,2,0,0,4,4,3,,,,,,,,,,,,,,,,,,,,,,,,,,,,,,,,,,,,,,,,402.6390029590111,402.6390029590111,402.6390029590111,402.6390029590111,402.6390029590111,402.6390029590111,402.6390029590111,402.6390029590111,402.6390029590111,402.6390029590111,l,0.750355760101229,1,605,2,403.40842784394044,404.9232750359224,,,,,,,,,,,,,,,,,,,,,,,,,,,,,,,,,,,,,,,,,,,,,,,,,,,,,,,,,,,,,,,,,,,60295,2022-11-07_13h49.12.102,vts_reward_expectancy_bt_OFFLINE,2022.2.4,59.93227976183434,
1,0,0,0,0,1,0,0,triangle,circle,2,0,2,0,0,5,5,0,,,,,,,,,,,,,,,,,,,,,,,,,,,,,,,,,,,,,,,,405.4232898349874,405.4232898349874,405.4232898349874,405.4232898349874,405.4232898349874,405.4232898349874,405.4232898349874,405.4232898349874,405.4232898349874,405.4232898349874,a,0.7337066020118073,10,615,2,406.17655808199197,407.6760572619969,,,,,,,,,,,,,,,,,,,,,,,,,,,,,,,,,,,,,,,,,,,,,,,,,,,,,,,,,,,,,,,,,,,60295,2022-11-07_13h49.12.102,vts_reward_expectancy_bt_OFFLINE,2022.2.4,59.93227976183434,
1,0,0,0,0,0,1,0,triangle,hexagon,2,0,2,0,0,6,6,1,,,,,,,,,,,,,,,,,,,,,,,,,,,,,,,,,,,,,,,,408.17610486294143,408.17610486294143,408.17610486294143,408.17610486294143,408.17610486294143,408.17610486294143,408.17610486294143,408.17610486294143,408.17610486294143,408.17610486294143,a,0.9282557420665398,10,625,2,409.1277830519248,410.6269637119258,410.6269637119258,411.1273114399519,,,,,,,,,,,,,,,,,,,,,,,,,,,,,,,,,,,,,,,,,,,,,,,,,,,,,,,,,,,,,,,,,60295,2022-11-07_13h49.12.102,vts_reward_expectancy_bt_OFFLINE,2022.2.4,59.93227976183434,
0,0,1,0,0,1,0,0,hexagon,circle,2,0,2,0,0,7,7,7,,,,,,,,,,,,,,,,,,,,,,,,,,,,,,,,,,,,,,,,411.1273114399519,411.1273114399519,411.1273114399519,411.1273114399519,411.1273114399519,411.1273114399519,411.1273114399519,411.1273114399519,411.1273114399519,411.1273114399519,a,0.7107478739926592,1,626,2,411.8633007640019,413.3632244759938,,,,,,,,,,,,,,,,,,,,,,,,,,,,,,,,,,,,,,,,,,,,,,,,,,,,,,,,,,,,,,,,,,,60295,2022-11-07_13h49.12.102,vts_reward_expectancy_bt_OFFLINE,2022.2.4,59.93227976183434,
0,1,0,0,0,0,0,1,circle,star,2,0,2,0,0,8,8,5,,,,,,,,,,,,,,,,,,,,,,,,,,,,,,,,,,,,,,,,413.8635409149574,413.8635409149574,413.8635409149574,413.8635409149574,413.8635409149574,413.8635409149574,413.8635409149574,413.8635409149574,413.8635409149574,413.8635409149574,l,0.562699341098778,1,627,2,414.4474080390064,415.9475543779554,415.9475543779554,416.44766490592156,,,,,,,,,,,,,,,,,,,,,,,,,,,,,,,,,,,,,,,,,,,,,,,,,,,,,,,,,,,,,,,,,60295,2022-11-07_13h49.12.102,vts_reward_expectancy_bt_OFFLINE,2022.2.4,59.93227976183434,
0,0,1,0,1,0,0,0,hexagon,triangle,2,0,2,0,0,9,9,6,,,,,,,,,,,,,,,,,,,,,,,,,,,,,,,,,,,,,,,,416.44766490592156,416.44766490592156,416.44766490592156,416.44766490592156,416.44766490592156,416.44766490592156,416.44766490592156,416.44766490592156,416.44766490592156,416.44766490592156,l,1.0050683000590652,10,637,2,417.4857791699469,419.00069105695,,,,,,,,,,,,,,,,,,,,,,,,,,,,,,,,,,,,,,,,,,,,,,,,,,,,,,,,,,,,,,,,,,,60295,2022-11-07_13h49.12.102,vts_reward_expectancy_bt_OFFLINE,2022.2.4,59.93227976183434,
0,0,0,1,0,0,1,0,star,hexagon,2,0,2,0,0,10,10,11,,,,,,,,,,,,,,,,,,,,,,,,,,,,,,,,,,,,,,,,419.48364017298445,419.48364017298445,419.48364017298445,419.48364017298445,419.48364017298445,419.48364017298445,419.48364017298445,419.48364017298445,419.48364017298445,419.48364017298445,a,0.6685288479784504,1,638,2,420.1859534760006,421.7016152769793,,,,,,,,,,,,,,,,,,,,,,,,,,,,,,,,,,,,,,,,,,,,,,,,,,,,,,,,,,,,,,,,,,,60295,2022-11-07_13h49.12.102,vts_reward_expectancy_bt_OFFLINE,2022.2.4,59.93227976183434,
0,1,0,0,0,0,1,0,circle,hexagon,2,0,2,0,0,11,11,4,,,,,,,,,,,,,,,,,,,,,,,,,,,,,,,,,,,,,,,,422.2015009529423,422.2015009529423,422.2015009529423,422.2015009529423,422.2015009529423,422.2015009529423,422.2015009529423,422.2015009529423,422.2015009529423,422.2015009529423,l,0.6169127031462267,1,639,2,422.8379984209314,424.33751665090676,424.33751665090676,424.8376747019356,,,,,,,,,,,,,,,,,,,,,,,,,,,,,,,,,,,,,,,,,,,,,,,,,,,,,,,,,,,,,,,,,60295,2022-11-07_13h49.12.102,vts_reward_expectancy_bt_OFFLINE,2022.2.4,59.93227976183434,
1,0,0,0,0,0,0,1,triangle,star,2,0,2,0,1,0,12,2,,,,,,,,,,,,,,,,,,,,,,,,,,,,,,,,,,,,,,,,424.8376747019356,424.8376747019356,424.8376747019356,424.8376747019356,424.8376747019356,424.8376747019356,424.8376747019356,424.8376747019356,424.8376747019356,424.8376747019356,l,0.45671826403122395,10,649,2,425.32367101695854,426.8382760179229,,,,,,,,,,,,,,,,,,,,,,,,,,,,,,,,,,,,,,,,,,,,,,,,,,,,,,,,,,,,,,,,,,,60295,2022-11-07_13h49.12.102,vts_reward_expectancy_bt_OFFLINE,2022.2.4,59.93227976183434,
0,1,0,0,0,0,1,0,circle,hexagon,2,0,2,0,1,1,13,4,,,,,,,,,,,,,,,,,,,,,,,,,,,,,,,,,,,,,,,,427.3236506859539,427.3236506859539,427.3236506859539,427.3236506859539,427.3236506859539,427.3236506859539,427.3236506859539,427.3236506859539,427.3236506859539,427.3236506859539,l,1.0641153800534084,1,650,2,428.40966443391517,429.9248451599851,,,,,,,,,,,,,,,,,,,,,,,,,,,,,,,,,,,,,,,,,,,,,,,,,,,,,,,,,,,,,,,,,,,60295,2022-11-07_13h49.12.102,vts_reward_expectancy_bt_OFFLINE,2022.2.4,59.93227976183434,
0,0,1,0,1,0,0,0,hexagon,triangle,2,0,2,0,1,2,14,6,,,,,,,,,,,,,,,,,,,,,,,,,,,,,,,,,,,,,,,,430.42484941799194,430.42484941799194,430.42484941799194,430.42484941799194,430.42484941799194,430.42484941799194,430.42484941799194,430.42484941799194,430.42484941799194,430.42484941799194,a,1.2253376899752766,10,660,2,431.6783446689369,433.17774866195396,,,,,,,,,,,,,,,,,,,,,,,,,,,,,,,,,,,,,,,,,,,,,,,,,,,,,,,,,,,,,,,,,,,60295,2022-11-07_13h49.12.102,vts_reward_expectancy_bt_OFFLINE,2022.2.4,59.93227976183434,
0,0,0,1,1,0,0,0,star,triangle,2,0,2,0,1,3,15,9,,,,,,,,,,,,,,,,,,,,,,,,,,,,,,,,,,,,,,,,433.67797201499343,433.67797201499343,433.67797201499343,433.67797201499343,433.67797201499343,433.67797201499343,433.67797201499343,433.67797201499343,433.67797201499343,433.67797201499343,a,0.6503820411162451,10,670,2,434.3614320709603,435.86186648893636,435.86186648893636,436.36197193793487,,,,,,,,,,,,,,,,,,,,,,,,,,,,,,,,,,,,,,,,,,,,,,,,,,,,,,,,,,,,,,,,,60295,2022-11-07_13h49.12.102,vts_reward_expectancy_bt_OFFLINE,2022.2.4,59.93227976183434,
0,0,0,1,0,0,1,0,star,hexagon,2,0,2,0,1,4,16,11,,,,,,,,,,,,,,,,,,,,,,,,,,,,,,,,,,,,,,,,436.36197193793487,436.36197193793487,436.36197193793487,436.36197193793487,436.36197193793487,436.36197193793487,436.36197193793487,436.36197193793487,436.36197193793487,436.36197193793487,a,0.6659960960969329,10,680,2,437.0462689700071,438.548223174992,,,,,,,,,,,,,,,,,,,,,,,,,,,,,,,,,,,,,,,,,,,,,,,,,,,,,,,,,,,,,,,,,,,60295,2022-11-07_13h49.12.102,vts_reward_expectancy_bt_OFFLINE,2022.2.4,59.93227976183434,
0,1,0,0,1,0,0,0,circle,triangle,2,0,2,0,1,5,17,3,,,,,,,,,,,,,,,,,,,,,,,,,,,,,,,,,,,,,,,,439.04857800295576,439.04857800295576,439.04857800295576,439.04857800295576,439.04857800295576,439.04857800295576,439.04857800295576,439.04857800295576,439.04857800295576,439.04857800295576,l,1.051390181062743,1,681,2,440.132916057948,441.63260227499995,441.63260227499995,442.13243506196886,,,,,,,,,,,,,,,,,,,,,,,,,,,,,,,,,,,,,,,,,,,,,,,,,,,,,,,,,,,,,,,,,60295,2022-11-07_13h49.12.102,vts_reward_expectancy_bt_OFFLINE,2022.2.4,59.93227976183434,
0,1,0,0,0,0,0,1,circle,star,2,0,2,0,1,6,18,5,,,,,,,,,,,,,,,,,,,,,,,,,,,,,,,,,,,,,,,,442.13243506196886,442.13243506196886,442.13243506196886,442.13243506196886,442.13243506196886,442.13243506196886,442.13243506196886,442.13243506196886,442.13243506196886,442.13243506196886,l,0.5770056950859725,10,691,2,442.73761363490485,444.25213615898974,,,,,,,,,,,,,,,,,,,,,,,,,,,,,,,,,,,,,,,,,,,,,,,,,,,,,,,,,,,,,,,,,,,60295,2022-11-07_13h49.12.102,vts_reward_expectancy_bt_OFFLINE,2022.2.4,59.93227976183434,
0,0,0,1,0,1,0,0,star ,circle,2,0,2,0,1,7,19,10,,,,,,,,,,,,,,,,,,,,,,,,,,,,,,,,,,,,,,,,444.7522703029681,444.7522703029681,444.7522703029681,444.7522703029681,444.7522703029681,444.7522703029681,444.7522703029681,444.7522703029681,444.7522703029681,444.7522703029681,a,0.5449589689960703,10,701,2,445.31958338501863,446.8196579599753,,,,,,,,,,,,,,,,,,,,,,,,,,,,,,,,,,,,,,,,,,,,,,,,,,,,,,,,,,,,,,,,,,,60295,2022-11-07_13h49.12.102,vts_reward_expectancy_bt_OFFLINE,2022.2.4,59.93227976183434,
0,0,1,0,0,0,0,1,hexagon,star,2,0,2,0,1,8,20,8,,,,,,,,,,,,,,,,,,,,,,,,,,,,,,,,,,,,,,,,447.3216865239665,447.3216865239665,447.3216865239665,447.3216865239665,447.3216865239665,447.3216865239665,447.3216865239665,447.3216865239665,447.3216865239665,447.3216865239665,l,0.7436132960719988,10,711,2,448.0893237069249,449.58922784996685,449.58922784996685,450.0891932109371,,,,,,,,,,,,,,,,,,,,,,,,,,,,,,,,,,,,,,,,,,,,,,,,,,,,,,,,,,,,,,,,,60295,2022-11-07_13h49.12.102,vts_reward_expectancy_bt_OFFLINE,2022.2.4,59.93227976183434,
1,0,0,0,0,0,1,0,triangle,hexagon,2,0,2,0,1,9,21,1,,,,,,,,,,,,,,,,,,,,,,,,,,,,,,,,,,,,,,,,450.0891932109371,450.0891932109371,450.0891932109371,450.0891932109371,450.0891932109371,450.0891932109371,450.0891932109371,450.0891932109371,450.0891932109371,450.0891932109371,a,1.1594653370557353,10,721,2,451.2736925869249,452.77542511199135,,,,,,,,,,,,,,,,,,,,,,,,,,,,,,,,,,,,,,,,,,,,,,,,,,,,,,,,,,,,,,,,,,,60295,2022-11-07_13h49.12.102,vts_reward_expectancy_bt_OFFLINE,2022.2.4,59.93227976183434,
0,0,1,0,0,1,0,0,hexagon,circle,2,0,2,0,1,10,22,7,,,,,,,,,,,,,,,,,,,,,,,,,,,,,,,,,,,,,,,,453.2755861929618,453.2755861929618,453.2755861929618,453.2755861929618,453.2755861929618,453.2755861929618,453.2755861929618,453.2755861929618,453.2755861929618,453.2755861929618,a,1.3259563870960847,1,722,2,454.6286718439078,456.1432461210061,,,,,,,,,,,,,,,,,,,,,,,,,,,,,,,,,,,,,,,,,,,,,,,,,,,,,,,,,,,,,,,,,,,60295,2022-11-07_13h49.12.102,vts_reward_expectancy_bt_OFFLINE,2022.2.4,59.93227976183434,
1,0,0,0,0,1,0,0,triangle,circle,2,0,2,0,1,11,23,0,,,,,,,,,,,,,,,,,,,,,,,,,,,,,,,,,,,,,,,,456.64338715095073,456.64338715095073,456.64338715095073,456.64338715095073,456.64338715095073,456.64338715095073,456.64338715095073,456.64338715095073,456.64338715095073,456.64338715095073,a,1.3227249400224537,10,732,2,457.9984094989486,459.51313911401667,,,,,,,,,,,,,,,,,,,,,,,,,,,,,,,,,,,,,,,,,,,,,,,,,,,,,,,,,,,,,,,,,,,60295,2022-11-07_13h49.12.102,vts_reward_expectancy_bt_OFFLINE,2022.2.4,59.93227976183434,
0,0,0,1,0,1,0,0,star ,circle,2,0,2,0,2,0,24,10,,,,,,,,,,,,,,,,,,,,,,,,,,,,,,,,,,,,,,,,459.99660502001643,459.99660502001643,459.99660502001643,459.99660502001643,459.99660502001643,459.99660502001643,459.99660502001643,459.99660502001643,459.99660502001643,459.99660502001643,a,0.48968377499841154,10,742,2,460.51411315600853,462.01389756891876,462.01389756891876,,,,,,,,,,,,,,,,,,,,,,,,,,,,,,,,,,,,,,,,,,,,,,,,,,,,,,,,,,,,,,,,,,60295,2022-11-07_13h49.12.102,vts_reward_expectancy_bt_OFFLINE,2022.2.4,59.93227976183434,
0,1,0,0,0,0,0,1,circle,star,2,0,2,0,2,1,25,5,,,,,,,,,,,,,,,,,,,,,,,,,,,,,,,,,,,,,,,,462.515999138006,462.515999138006,462.515999138006,462.515999138006,462.515999138006,462.515999138006,462.515999138006,462.515999138006,462.515999138006,462.515999138006,l,1.119745867094025,10,752,2,463.6669013979845,465.16704366297927,465.16704366297927,465.66695677500684,,,,,,,,,,,,,,,,,,,,,,,,,,,,,,,,,,,,,,,,,,,,,,,,,,,,,,,,,,,,,,,,,60295,2022-11-07_13h49.12.102,vts_reward_expectancy_bt_OFFLINE,2022.2.4,59.93227976183434,
1,0,0,0,0,0,1,0,triangle,hexagon,2,0,2,0,2,2,26,1,,,,,,,,,,,,,,,,,,,,,,,,,,,,,,,,,,,,,,,,465.66695677500684,465.66695677500684,465.66695677500684,465.66695677500684,465.66695677500684,465.66695677500684,465.66695677500684,465.66695677500684,465.66695677500684,465.66695677500684,a,1.86140526807867,10,762,2,467.5535448889714,469.0534351649694,469.0534351649694,469.5536887939088,,,,,,,,,,,,,,,,,,,,,,,,,,,,,,,,,,,,,,,,,,,,,,,,,,,,,,,,,,,,,,,,,60295,2022-11-07_13h49.12.102,vts_reward_expectancy_bt_OFFLINE,2022.2.4,59.93227976183434,
0,0,1,0,0,1,0,0,hexagon,circle,2,0,2,0,2,3,27,7,,,,,,,,,,,,,,,,,,,,,,,,,,,,,,,,,,,,,,,,469.5536887939088,469.5536887939088,469.5536887939088,469.5536887939088,469.5536887939088,469.5536887939088,469.5536887939088,469.5536887939088,469.5536887939088,469.5536887939088,a,0.5961562370648608,1,763,2,470.1732648559846,471.68783651292324,,,,,,,,,,,,,,,,,,,,,,,,,,,,,,,,,,,,,,,,,,,,,,,,,,,,,,,,,,,,,,,,,,,60295,2022-11-07_13h49.12.102,vts_reward_expectancy_bt_OFFLINE,2022.2.4,59.93227976183434,
0,1,0,0,0,0,1,0,circle,hexagon,2,0,2,0,2,4,28,4,,,,,,,,,,,,,,,,,,,,,,,,,,,,,,,,,,,,,,,,472.18767850496806,472.18767850496806,472.18767850496806,472.18767850496806,472.18767850496806,472.18767850496806,472.18767850496806,472.18767850496806,472.18767850496806,472.18767850496806,l,1.4283410700736567,1,764,2,473.64131868898403,475.1406597360037,475.1406597360037,475.6410105379764,,,,,,,,,,,,,,,,,,,,,,,,,,,,,,,,,,,,,,,,,,,,,,,,,,,,,,,,,,,,,,,,,60295,2022-11-07_13h49.12.102,vts_reward_expectancy_bt_OFFLINE,2022.2.4,59.93227976183434,
0,0,1,0,0,0,0,1,hexagon,star,2,0,2,0,2,5,29,8,,,,,,,,,,,,,,,,,,,,,,,,,,,,,,,,,,,,,,,,475.6410105379764,475.6410105379764,475.6410105379764,475.6410105379764,475.6410105379764,475.6410105379764,475.6410105379764,475.6410105379764,475.6410105379764,475.6410105379764,l,0.8991500900592655,10,774,2,476.56064430391416,478.0604014620185,,,,,,,,,,,,,,,,,,,,,,,,,,,,,,,,,,,,,,,,,,,,,,,,,,,,,,,,,,,,,,,,,,,60295,2022-11-07_13h49.12.102,vts_reward_expectancy_bt_OFFLINE,2022.2.4,59.93227976183434,
0,0,1,0,1,0,0,0,hexagon,triangle,2,0,2,0,2,6,30,6,,,,,,,,,,,,,,,,,,,,,,,,,,,,,,,,,,,,,,,,478.5607758850092,478.5607758850092,478.5607758850092,478.5607758850092,478.5607758850092,478.5607758850092,478.5607758850092,478.5607758850092,478.5607758850092,478.5607758850092,l,0.7583952080458403,10,784,2,479.34498713200446,480.84468156890944,480.84468156890944,481.3447016389109,,,,,,,,,,,,,,,,,,,,,,,,,,,,,,,,,,,,,,,,,,,,,,,,,,,,,,,,,,,,,,,,,60295,2022-11-07_13h49.12.102,vts_reward_expectancy_bt_OFFLINE,2022.2.4,59.93227976183434,
1,0,0,0,0,0,0,1,triangle,star,2,0,2,0,2,7,31,2,,,,,,,,,,,,,,,,,,,,,,,,,,,,,,,,,,,,,,,,481.3447016389109,481.3447016389109,481.3447016389109,481.3447016389109,481.3447016389109,481.3447016389109,481.3447016389109,481.3447016389109,481.3447016389109,481.3447016389109,l,0.561957004130818,10,794,2,481.9294367249822,483.43069266795646,,,,,,,,,,,,,,,,,,,,,,,,,,,,,,,,,,,,,,,,,,,,,,,,,,,,,,,,,,,,,,,,,,,60295,2022-11-07_13h49.12.102,vts_reward_expectancy_bt_OFFLINE,2022.2.4,59.93227976183434,
0,0,0,1,0,0,1,0,star,hexagon,2,0,2,0,2,8,32,11,,,,,,,,,,,,,,,,,,,,,,,,,,,,,,,,,,,,,,,,483.9310015649535,483.9310015649535,483.9310015649535,483.9310015649535,483.9310015649535,483.9310015649535,483.9310015649535,483.9310015649535,483.9310015649535,483.9310015649535,a,1.913581619039178,10,804,2,485.8658304909477,487.3675106529845,,,,,,,,,,,,,,,,,,,,,,,,,,,,,,,,,,,,,,,,,,,,,,,,,,,,,,,,,,,,,,,,,,,60295,2022-11-07_13h49.12.102,vts_reward_expectancy_bt_OFFLINE,2022.2.4,59.93227976183434,
1,0,0,0,0,1,0,0,triangle,circle,2,0,2,0,2,9,33,0,,,,,,,,,,,,,,,,,,,,,,,,,,,,,,,,,,,,,,,,487.8674144259421,487.8674144259421,487.8674144259421,487.8674144259421,487.8674144259421,487.8674144259421,487.8674144259421,487.8674144259421,487.8674144259421,487.8674144259421,a,1.0262634950922802,10,814,2,488.9187728429679,490.4185795709491,490.4185795709491,490.91841236990876,,,,,,,,,,,,,,,,,,,,,,,,,,,,,,,,,,,,,,,,,,,,,,,,,,,,,,,,,,,,,,,,,60295,2022-11-07_13h49.12.102,vts_reward_expectancy_bt_OFFLINE,2022.2.4,59.93227976183434,
0,0,0,1,1,0,0,0,star,triangle,2,0,2,0,2,10,34,9,,,,,,,,,,,,,,,,,,,,,,,,,,,,,,,,,,,,,,,,490.91841236990876,490.91841236990876,490.91841236990876,490.91841236990876,490.91841236990876,490.91841236990876,490.91841236990876,490.91841236990876,490.91841236990876,490.91841236990876,a,0.4838375970721245,1,815,2,491.422015329008,492.92117399396375,,,,,,,,,,,,,,,,,,,,,,,,,,,,,,,,,,,,,,,,,,,,,,,,,,,,,,,,,,,,,,,,,,,60295,2022-11-07_13h49.12.102,vts_reward_expectancy_bt_OFFLINE,2022.2.4,59.93227976183434,
0,1,0,0,1,0,0,0,circle,triangle,2,0,2,0,2,11,35,3,,,,,,,,,,,,,,,,,,,,,,,,,,,,,,,,,,,,,,,,493.4214021100197,493.4214021100197,493.4214021100197,493.4214021100197,493.4214021100197,493.4214021100197,493.4214021100197,493.4214021100197,493.4214021100197,493.4214021100197,l,0.8383640040410683,10,825,2,494.2912227609195,495.8056294230046,,,,,,,,,,,,,,,,,,,,,,,,,,,,,,,,,,,,,,,,,,,,,,,,,,,,,,,,,,,,,,,,,,,60295,2022-11-07_13h49.12.102,vts_reward_expectancy_bt_OFFLINE,2022.2.4,59.93227976183434,
0,0,0,1,1,0,0,0,star,triangle,2,0,2,0,3,0,36,9,,,,,,,,,,,,,,,,,,,,,,,,,,,,,,,,,,,,,,,,496.3055973990122,496.3055973990122,496.3055973990122,496.3055973990122,496.3055973990122,496.3055973990122,496.3055973990122,496.3055973990122,496.3055973990122,496.3055973990122,a,0.5080566479591653,10,835,2,496.8402352889534,498.34187152492814,,,,,,,,,,,,,,,,,,,,,,,,,,,,,,,,,,,,,,,,,,,,,,,,,,,,,,,,,,,,,,,,,,,60295,2022-11-07_13h49.12.102,vts_reward_expectancy_bt_OFFLINE,2022.2.4,59.93227976183434,
1,0,0,0,0,0,1,0,triangle,hexagon,2,0,2,0,3,1,37,1,,,,,,,,,,,,,,,,,,,,,,,,,,,,,,,,,,,,,,,,498.8418996669352,498.8418996669352,498.8418996669352,498.8418996669352,498.8418996669352,498.8418996669352,498.8418996669352,498.8418996669352,498.8418996669352,498.8418996669352,a,0.9082402579952031,10,845,2,499.776695548906,501.27613827597816,501.27613827597816,501.7760943969479,,,,,,,,,,,,,,,,,,,,,,,,,,,,,,,,,,,,,,,,,,,,,,,,,,,,,,,,,,,,,,,,,60295,2022-11-07_13h49.12.102,vts_reward_expectancy_bt_OFFLINE,2022.2.4,59.93227976183434,
0,0,1,0,0,0,0,1,hexagon,star,2,0,2,0,3,2,38,8,,,,,,,,,,,,,,,,,,,,,,,,,,,,,,,,,,,,,,,,501.7760943969479,501.7760943969479,501.7760943969479,501.7760943969479,501.7760943969479,501.7760943969479,501.7760943969479,501.7760943969479,501.7760943969479,501.7760943969479,l,0.6751231380039826,1,846,2,502.4813751699403,503.99549897992983,,,,,,,,,,,,,,,,,,,,,,,,,,,,,,,,,,,,,,,,,,,,,,,,,,,,,,,,,,,,,,,,,,,60295,2022-11-07_13h49.12.102,vts_reward_expectancy_bt_OFFLINE,2022.2.4,59.93227976183434,
1,0,0,0,0,0,0,1,triangle,star,2,0,2,0,3,3,39,2,,,,,,,,,,,,,,,,,,,,,,,,,,,,,,,,,,,,,,,,504.49567441490944,504.49567441490944,504.49567441490944,504.49567441490944,504.49567441490944,504.49567441490944,504.49567441490944,504.49567441490944,504.49567441490944,504.49567441490944,l,0.5197171770269051,1,847,2,505.04715441796,506.54648178094067,506.54648178094067,,,,,,,,,,,,,,,,,,,,,,,,,,,,,,,,,,,,,,,,,,,,,,,,,,,,,,,,,,,,,,,,,,60295,2022-11-07_13h49.12.102,vts_reward_expectancy_bt_OFFLINE,2022.2.4,59.93227976183434,
0,0,1,0,0,1,0,0,hexagon,circle,2,0,2,0,3,4,40,7,,,,,,,,,,,,,,,,,,,,,,,,,,,,,,,,,,,,,,,,507.0466665609274,507.0466665609274,507.0466665609274,507.0466665609274,507.0466665609274,507.0466665609274,507.0466665609274,507.0466665609274,507.0466665609274,507.0466665609274,a,0.8382739891530946,10,857,2,507.91862838098314,509.43255224998575,,,,,,,,,,,,,,,,,,,,,,,,,,,,,,,,,,,,,,,,,,,,,,,,,,,,,,,,,,,,,,,,,,,60295,2022-11-07_13h49.12.102,vts_reward_expectancy_bt_OFFLINE,2022.2.4,59.93227976183434,
0,0,0,1,0,1,0,0,star ,circle,2,0,2,0,3,5,41,10,,,,,,,,,,,,,,,,,,,,,,,,,,,,,,,,,,,,,,,,509.9329445390031,509.9329445390031,509.9329445390031,509.9329445390031,509.9329445390031,509.9329445390031,509.9329445390031,509.9329445390031,509.9329445390031,509.9329445390031,a,0.4939446880016476,10,867,2,510.4506354739424,511.95031646697316,511.95031646697316,,,,,,,,,,,,,,,,,,,,,,,,,,,,,,,,,,,,,,,,,,,,,,,,,,,,,,,,,,,,,,,,,,60295,2022-11-07_13h49.12.102,vts_reward_expectancy_bt_OFFLINE,2022.2.4,59.93227976183434,
0,1,0,0,1,0,0,0,circle,triangle,2,0,2,0,3,6,42,3,,,,,,,,,,,,,,,,,,,,,,,,,,,,,,,,,,,,,,,,512.4523899389897,512.4523899389897,512.4523899389897,512.4523899389897,512.4523899389897,512.4523899389897,512.4523899389897,512.4523899389897,512.4523899389897,512.4523899389897,l,0.7091727090300992,10,877,2,513.1870592499617,514.6863115199376,514.6863115199376,515.1865838599624,,,,,,,,,,,,,,,,,,,,,,,,,,,,,,,,,,,,,,,,,,,,,,,,,,,,,,,,,,,,,,,,,60295,2022-11-07_13h49.12.102,vts_reward_expectancy_bt_OFFLINE,2022.2.4,59.93227976183434,
0,0,0,1,0,0,1,0,star,hexagon,2,0,2,0,3,7,43,11,,,,,,,,,,,,,,,,,,,,,,,,,,,,,,,,,,,,,,,,515.1865838599624,515.1865838599624,515.1865838599624,515.1865838599624,515.1865838599624,515.1865838599624,515.1865838599624,515.1865838599624,515.1865838599624,515.1865838599624,a,0.495192222064361,10,887,2,515.7044129279675,517.2040982159087,517.2040982159087,,,,,,,,,,,,,,,,,,,,,,,,,,,,,,,,,,,,,,,,,,,,,,,,,,,,,,,,,,,,,,,,,,60295,2022-11-07_13h49.12.102,vts_reward_expectancy_bt_OFFLINE,2022.2.4,59.93227976183434,
0,1,0,0,0,0,0,1,circle,star,2,0,2,0,3,8,44,5,,,,,,,,,,,,,,,,,,,,,,,,,,,,,,,,,,,,,,,,517.705916972016,517.705916972016,517.705916972016,517.705916972016,517.705916972016,517.705916972016,517.705916972016,517.705916972016,517.705916972016,517.705916972016,l,0.6310861770762131,10,897,2,518.3572796569206,519.8568128059851,519.8568128059851,,,,,,,,,,,,,,,,,,,,,,,,,,,,,,,,,,,,,,,,,,,,,,,,,,,,,,,,,,,,,,,,,,60295,2022-11-07_13h49.12.102,vts_reward_expectancy_bt_OFFLINE,2022.2.4,59.93227976183434,
0,0,1,0,1,0,0,0,hexagon,triangle,2,0,2,0,3,9,45,6,,,,,,,,,,,,,,,,,,,,,,,,,,,,,,,,,,,,,,,,520.3569452139782,520.3569452139782,520.3569452139782,520.3569452139782,520.3569452139782,520.3569452139782,520.3569452139782,520.3569452139782,520.3569452139782,520.3569452139782,l,1.005544941057451,10,907,2,521.3917578270193,522.8929825619562,,,,,,,,,,,,,,,,,,,,,,,,,,,,,,,,,,,,,,,,,,,,,,,,,,,,,,,,,,,,,,,,,,,60295,2022-11-07_13h49.12.102,vts_reward_expectancy_bt_OFFLINE,2022.2.4,59.93227976183434,
1,0,0,0,0,1,0,0,triangle,circle,2,0,2,0,3,10,46,0,,,,,,,,,,,,,,,,,,,,,,,,,,,,,,,,,,,,,,,,523.3932893479941,523.3932893479941,523.3932893479941,523.3932893479941,523.3932893479941,523.3932893479941,523.3932893479941,523.3932893479941,523.3932893479941,523.3932893479941,a,0.6259172019781545,1,908,2,524.0467600349803,525.5606562149478,,,,,,,,,,,,,,,,,,,,,,,,,,,,,,,,,,,,,,,,,,,,,,,,,,,,,,,,,,,,,,,,,,,60295,2022-11-07_13h49.12.102,vts_reward_expectancy_bt_OFFLINE,2022.2.4,59.93227976183434,
0,1,0,0,0,0,1,0,circle,hexagon,2,0,2,0,3,11,47,4,,,,,,,,,,,,,,,,,,,,,,,,,,,,,,,,,,,,,,,,526.0606590759708,526.0606590759708,526.0606590759708,526.0606590759708,526.0606590759708,526.0606590759708,526.0606590759708,526.0606590759708,526.0606590759708,526.0606590759708,l,0.8146488510537893,1,909,2,526.8957552269567,528.3967725619441,,,,,,,,,,,,,,,,,,,,,,,,,,,,,,,,,,,,,,,,,,,,,,,,,,,,,,,,,,,,,,,,,,,60295,2022-11-07_13h49.12.102,vts_reward_expectancy_bt_OFFLINE,2022.2.4,59.93227976183434,
,,,,,,,,,,,,,,,,,,0,0,0,0,0,0,0,0,,,,,,,,,,,,,,,,,,,,,,,,,,,,,,,,,,,,,,,,,,,,,,,,592.5605835960014,,593.0608542269329,167,U,circle,-0.0002913320204243064,586.9634900619276,588.4406711299671,588.4406711299671,588.4406711299671,1,0,f,2.5855137730250135,0,591.0613974169828,592.5605835960014,,,,,,,,,,,,,,,,,,,,,,,,,,,,,,,,,,,,,,,,,,,,,,,,,,60295,2022-11-07_13h49.12.102,vts_reward_expectancy_bt_OFFLINE,2022.2.4,59.93227976183434,
,,,,,,,,,,,,,,,,,,0,0,0,0,1,0,1,0,,,,,,,,,,,,,,,,,,,,,,,,,,,,,,,,,,,,,,,,,,,,,,,,597.2623013179982,,,139,F,triangle,0.0004623109707608819,593.5565540099051,595.0445975490147,595.0445975490147,595.0445975490147,1,0,d,0.6853859480470419,0,595.762904534,597.2623013179982,,,,,,,,,,,,,,,,,,,,,,,,,,,,,,,,,,,,,,,,,,,,,,,,,,60295,2022-11-07_13h49.12.102,vts_reward_expectancy_bt_OFFLINE,2022.2.4,59.93227976183434,
,,,,,,,,,,,,,,,,,,0,0,0,0,2,0,2,0,,,,,,,,,,,,,,,,,,,,,,,,,,,,,,,,,,,,,,,,,,,,,,,,601.8492719000205,,,132,H,star,0.0017475710483267903,598.2598985569784,599.7484197159065,599.7484197159065,599.7484197159065,1,0,d,0.5821676481282339,0,600.3496467379155,601.8492719000205,,,,,,,,,,,,,,,,,,,,,,,,,,,,,,,,,,,,,,,,,,,,,,,,,,60295,2022-11-07_13h49.12.102,vts_reward_expectancy_bt_OFFLINE,2022.2.4,59.93227976183434,
,,,,,,,,,,,,,,,,,,0,0,0,0,3,0,3,0,,,,,,,,,,,,,,,,,,,,,,,,,,,,,,,,,,,,,,,,,,,,,,,,606.4525075969286,,606.9529869739199,181,W,hexagon,0.000471960986033082,602.8576587329153,604.3349975289311,604.3349975289311,604.3349975289311,1,0,f,0.5865589750465006,0,604.9532032679999,606.4525075969286,,,,,,,,,,,,,,,,,,,,,,,,,,,,,,,,,,,,,,,,,,,,,,,,,,60295,2022-11-07_13h49.12.102,vts_reward_expectancy_bt_OFFLINE,2022.2.4,59.93227976183434,
,,,,,,,,,,,,,,,,,,0,0,0,0,4,0,4,0,,,,,,,,,,,,,,,,,,,,,,,,,,,,,,,,,,,,,,,,,,,,,,,,611.1728849899955,,611.6727927610045,160,B,star,0.00046315102372318506,607.4488638769835,608.9387864489108,608.9387864489108,608.9387864489108,1,0,f,0.7080757120857015,0,609.673530466971,611.1728849899955,,,,,,,,,,,,,,,,,,,,,,,,,,,,,,,,,,,,,,,,,,,,,,,,,,60295,2022-11-07_13h49.12.102,vts_reward_expectancy_bt_OFFLINE,2022.2.4,59.93227976183434,
,,,,,,,,,,,,,,,,,,0,0,0,0,5,0,5,0,,,,,,,,,,,,,,,,,,,,,,,,,,,,,,,,,,,,,,,,,,,,,,,,615.8596777389757,,,174,D,circle,0.0004829610697925091,612.1691508889198,613.6589514609659,613.6589514609659,613.6589514609659,1,0,f,0.6673205180559307,0,614.3452765659895,,,,,,,,,,,,,,,,,,,,,,,,,,,,,,,,,,,,,,,,,,,,,,,,,,,60295,2022-11-07_13h49.12.102,vts_reward_expectancy_bt_OFFLINE,2022.2.4,59.93227976183434,
,,,,,,,,,,,,,,,,,,0,0,0,0,6,0,6,0,,,,,,,,,,,,,,,,,,,,,,,,,,,,,,,,,,,,,,,,,,,,,,,,620.513236121973,,621.0133514169138,125,S,hexagon,0.01384534896351397,616.8560758419335,618.329152970924,618.329152970924,618.329152970924,1,0,d,0.6670013110851869,0,619.0142215669621,620.513236121973,,,,,,,,,,,,,,,,,,,,,,,,,,,,,,,,,,,,,,,,,,,,,,,,,,60295,2022-11-07_13h49.12.102,vts_reward_expectancy_bt_OFFLINE,2022.2.4,59.93227976183434,
,,,,,,,,,,,,,,,,,,0,0,0,0,7,0,7,0,,,,,,,,,,,,,,,,,,,,,,,,,,,,,,,,,,,,,,,,,,,,,,,,625.1498653729213,,625.6503501129337,146,Y,triangle,0.0001676370156928897,621.509374761954,622.9991635339102,622.9991635339102,622.9991635339102,1,0,d,0.6209359710337594,0,623.6506323169451,625.1498653729213,,,,,,,,,,,,,,,,,,,,,,,,,,,,,,,,,,,,,,,,,,,,,,,,,,60295,2022-11-07_13h49.12.102,vts_reward_expectancy_bt_OFFLINE,2022.2.4,59.93227976183434,
,,,,,,,,,,,,,,,,,,0,0,0,0,8,0,8,0,,,,,,,,,,,,,,,,,,,,,,,,,,,,,,,,,,,,,,,,,,,,,,,,630.0202884529717,,630.520567044965,167,U,triangle,0.00027294899336993694,626.1454535889206,627.6362231009407,627.6362231009407,627.6362231009407,1,0,f,0.8666145941242576,0,628.5207300479524,630.0202884529717,,,,,,,,,,,,,,,,,,,,,,,,,,,,,,,,,,,,,,,,,,,,,,,,,,60295,2022-11-07_13h49.12.102,vts_reward_expectancy_bt_OFFLINE,2022.2.4,59.93227976183434,
,,,,,,,,,,,,,,,,,,0,0,0,0,9,0,9,0,,,,,,,,,,,,,,,,,,,,,,,,,,,,,,,,,,,,,,,,,,,,,,,,634.7405306199798,,635.2510025589727,139,F,star,0.0003546799998730421,631.0162063349271,632.5062504929956,632.5062504929956,632.5062504929956,1,0,d,0.7105185419786721,0,633.2412821030011,634.7405306199798,,,,,,,,,,,,,,,,,,,,,,,,,,,,,,,,,,,,,,,,,,,,,,,,,,60295,2022-11-07_13h49.12.102,vts_reward_expectancy_bt_OFFLINE,2022.2.4,59.93227976183434,
,,,,,,,,,,,,,,,,,,,,,,,,,,0,0,0,0,0,0,0,0,,,,,,,,,,,,,,,,,,,,,,,,,,,,,,,,,,,,,,,,667.4183030779241,,,125,F,star,0.00227804493624717,,,,,1,0,,,1,665.9145506119821,,662.9567338989582,664.4454017459648,664.4454017459648,664.4454017459648,j,1.4433975589927286,,,,,,,,,,,,,,,,,,,,,,,,,,,,,,,,,,,,,,,,,,,,60295,2022-11-07_13h49.12.102,vts_reward_expectancy_bt_OFFLINE,2022.2.4,59.93227976183434,
,,,,,,,,,,,,,,,,,,,,,,,,,,0,0,0,0,1,0,1,0,,,,,,,,,,,,,,,,,,,,,,,,,,,,,,,,,,,,,,,,672.0333023889689,,672.5353072349681,174,B,hexagon,0.0014200980076566339,,,,,1,0,,,1,670.5328528200043,672.0333023889689,668.4105263149831,669.8992862550076,669.8992862550076,669.8992862550076,j,0.6019083810970187,,,,,,,,,,,,,,,,,,,,,,,,,,,,,,,,,,,,,,,,,,,,60295,2022-11-07_13h49.12.102,vts_reward_expectancy_bt_OFFLINE,2022.2.4,59.93227976183434,
,,,,,,,,,,,,,,,,,,,,,,,,,,0,0,0,0,2,0,2,0,,,,,,,,,,,,,,,,,,,,,,,,,,,,,,,,,,,,,,,,676.987161929952,,,181,U,circle,0.0006078239530324936,,,,,1,0,,,1,675.4712972029811,,673.0307723369915,674.5194255299866,674.5194255299866,674.5194255299866,k,0.920929481042549,,,,,,,,,,,,,,,,,,,,,,,,,,,,,,,,,,,,,,,,,,,,60295,2022-11-07_13h49.12.102,vts_reward_expectancy_bt_OFFLINE,2022.2.4,59.93227976183434,
,,,,,,,,,,,,,,,,,,,,,,,,,,0,0,0,0,3,0,3,0,,,,,,,,,,,,,,,,,,,,,,,,,,,,,,,,,,,,,,,,681.5405922299251,,682.0406494769268,139,D,triangle,0.0018411549972370267,,,,,1,0,,,1,680.0413051089272,681.5405922299251,677.9674609890208,679.4565046989592,679.4565046989592,679.4565046989592,j,0.5628707990981638,,,,,,,,,,,,,,,,,,,,,,,,,,,,,,,,,,,,,,,,,,,,60295,2022-11-07_13h49.12.102,vts_reward_expectancy_bt_OFFLINE,2022.2.4,59.93227976183434,
,,,,,,,,,,,,,,,,,,,,,,,,,,0,0,0,0,4,0,4,0,,,,,,,,,,,,,,,,,,,,,,,,,,,,,,,,,,,,,,,,686.1271931559313,,686.6275807539932,160,W,circle,0.0004395450232550502,,,,,1,0,,,1,684.6280241259374,686.1271931559313,682.5365498809842,684.0266248399857,684.0266248399857,684.0266248399857,k,0.5823781321523711,,,,,,,,,,,,,,,,,,,,,,,,,,,,,,,,,,,,,,,,,,,,60295,2022-11-07_13h49.12.102,vts_reward_expectancy_bt_OFFLINE,2022.2.4,59.93227976183434,
,,,,,,,,,,,,,,,,,,,,,,,,,,0,0,0,0,5,0,5,0,,,,,,,,,,,,,,,,,,,,,,,,,,,,,,,,,,,,,,,,690.7809843689902,,,167,S,triangle,0.000520315021276474,,,,,1,0,,,1,689.2650461900048,,687.123442096985,688.6134325469611,688.6134325469611,688.6134325469611,k,0.6307203420437872,,,,,,,,,,,,,,,,,,,,,,,,,,,,,,,,,,,,,,,,,,,,60295,2022-11-07_13h49.12.102,vts_reward_expectancy_bt_OFFLINE,2022.2.4,59.93227976183434,
,,,,,,,,,,,,,,,,,,,,,,,,,,0,0,0,0,6,0,6,0,,,,,,,,,,,,,,,,,,,,,,,,,,,,,,,,,,,,,,,,695.61781479395,,,132,H,hexagon,0.016623012954369187,,,,,1,0,,,1,694.1023908969946,,691.7767755279783,693.2504142579855,693.2504142579855,693.2504142579855,j,0.8324724159901962,,,,,,,,,,,,,,,,,,,,,,,,,,,,,,,,,,,,,,,,,,,,60295,2022-11-07_13h49.12.102,vts_reward_expectancy_bt_OFFLINE,2022.2.4,59.93227976183434,
,,,,,,,,,,,,,,,,,,,,,,,,,,0,0,0,0,7,0,7,0,,,,,,,,,,,,,,,,,,,,,,,,,,,,,,,,,,,,,,,,700.1712892039213,,700.671428591013,146,Y,star,0.01647570705972612,,,,,1,0,,,1,698.6705950109754,700.1712892039213,696.6137678970117,698.0870643679518,698.0870643679518,698.0870643679518,k,0.5512681551044807,,,,,,,,,,,,,,,,,,,,,,,,,,,,,,,,,,,,,,,,,,,,60295,2022-11-07_13h49.12.102,vts_reward_expectancy_bt_OFFLINE,2022.2.4,59.93227976183434,
,,,,,,,,,,,,,,,,,,,,,,,,,,0,0,0,0,8,0,8,0,,,,,,,,,,,,,,,,,,,,,,,,,,,,,,,,,,,,,,,,704.7915583869908,,705.2914878089214,125,F,hexagon,0.014810238964855671,,,,,1,0,,,1,703.2922335549956,704.7915583869908,701.183560433914,702.6573118059896,702.6573118059896,702.6573118059896,j,0.6050975910620764,,,,,,,,,,,,,,,,,,,,,,,,,,,,,,,,,,,,,,,,,,,,60295,2022-11-07_13h49.12.102,vts_reward_expectancy_bt_OFFLINE,2022.2.4,59.93227976183434,
,,,,,,,,,,,,,,,,,,,,,,,,,,0,0,0,0,9,0,9,0,,,,,,,,,,,,,,,,,,,,,,,,,,,,,,,,,,,,,,,,709.5783123750007,,,174,B,triangle,0.00038432504516094923,,,,,1,0,,,1,708.0625693859765,,705.7871365490137,707.2754235679749,707.2754235679749,707.2754235679749,j,0.7576925130560994,,,,,,,,,,,,,,,,,,,,,,,,,,,,,,,,,,,,,,,,,,,,60295,2022-11-07_13h49.12.102,vts_reward_expectancy_bt_OFFLINE,2022.2.4,59.93227976183434,
,,,,,,,,,,,,,,,,,,,,,,,,,,,,,,,,,,0,0,0,0,0,0,0,0,,,,,,,,,,,,,,,,,,,,,,,,,,,,0,909,,,772.5582481659949,,,181,U,star,0.0010056409519165754,,,,,1,0,,,2,,,,,,,,,767.550735172932,767.550735172932,767.550735172932,767.550735172932,769.038642550935,769.038642550935,769.038642550935,769.038642550935,769.0551578629529,769.0551578629529,769.0551578629529,769.0551578629529,-1,number,NA,f,1.9979488780954853,vtsPrac,771.0595984730171,,,,,,,,,,,,,,,,,,,,,,,,,60295,2022-11-07_13h49.12.102,vts_reward_expectancy_bt_OFFLINE,2022.2.4,59.93227976183434,
,,,,,,,,,,,,,,,,,,,,,,,,,,,,,,,,,,0,0,0,0,1,0,1,0,,,,,,,,,,,,,,,,,,,,,,,,,,,,0,909,,,777.7118429079419,,,174,S,hexagon,0.0018113090191036463,,,,,1,0,,,2,,,,,,,,,773.5539237019839,773.5539237019839,773.5539237019839,773.5539237019839,775.0424469199497,775.0424469199497,775.0424469199497,775.0424469199497,775.059044919908,775.059044919908,775.059044919908,775.059044919908,switch,letter,lettSwt,k,1.1463475511409342,vtsPrac,776.2113116779365,,,,,,,,,,,,,,,,,,,,,,,,,60295,2022-11-07_13h49.12.102,vts_reward_expectancy_bt_OFFLINE,2022.2.4,59.93227976183434,
,,,,,,,,,,,,,,,,,,,,,,,,,,,,,,,,,,0,0,0,0,2,0,2,0,,,,,,,,,,,,,,,,,,,,,,,,,,,,0,909,,,782.6821317969589,,,146,B,star,0.0017666519852355123,,,,,1,0,,,2,,,,,,,,,778.7078919679625,778.7078919679625,778.7078919679625,778.7078919679625,780.1961233909242,780.1961233909242,780.1961233909242,780.1961233909242,780.2127584699774,780.2127584699774,780.2127584699774,780.2127584699774,switch,number,numSwt,d,0.9658625640440732,vtsPrac,781.1813733309973,,,,,,,,,,,,,,,,,,,,,,,,,60295,2022-11-07_13h49.12.102,vts_reward_expectancy_bt_OFFLINE,2022.2.4,59.93227976183434,
,,,,,,,,,,,,,,,,,,,,,,,,,,,,,,,,,,0,0,0,0,3,0,3,0,,,,,,,,,,,,,,,,,,,,,,,,,,,,0,909,,,787.4338865280151,,,160,Y,circle,0.0019786619814112782,,,,,1,0,,,2,,,,,,,,,783.6783000059659,783.6783000059659,783.6783000059659,783.6783000059659,785.1666792839533,785.1666792839533,785.1666792839533,785.1666792839533,785.1829428749625,785.1829428749625,785.1829428749625,785.1829428749625,repeat,number,numRpt,f,0.7426223689690232,vtsPrac,785.9348496379098,787.4338865280151,,,,,,,,,,,,,,,,,,,,,,,,60295,2022-11-07_13h49.12.102,vts_reward_expectancy_bt_OFFLINE,2022.2.4,59.93227976183434,
,,,,,,,,,,,,,,,,,,,,,,,,,,,,,,,,,,0,0,0,0,4,0,4,0,,,,,,,,,,,,,,,,,,,,,,,,,,,,0,909,,,792.3040708509507,,,181,U,circle,0.0018353909254074097,,,,,1,0,,,2,,,,,,,,,788.431268012966,788.431268012966,788.431268012966,788.431268012966,789.9198004939826,789.9198004939826,789.9198004939826,789.9198004939826,789.9366252109176,789.9366252109176,789.9366252109176,789.9366252109176,repeat,number,numRpt,f,0.8386138130445033,vtsPrac,790.7888172999956,,,,,,,,,,,,,,,,,,,,,,,,,60295,2022-11-07_13h49.12.102,vts_reward_expectancy_bt_OFFLINE,2022.2.4,59.93227976183434,
,,,,,,,,,,,,,,,,,,,,,,,,,,,,,,,,,,0,0,0,0,5,0,5,0,,,,,,,,,,,,,,,,,,,,,,,,,,,,0,909,,,797.1076278599212,,,174,S,hexagon,0.0018069860525429249,,,,,1,0,,,2,,,,,,,,,793.2847400669707,793.2847400669707,793.2847400669707,793.2847400669707,794.7733218129724,794.7733218129724,794.7733218129724,794.7733218129724,794.7902703249129,794.7902703249129,794.7902703249129,794.7902703249129,repeat,number,numRpt,f,0.7896482450887561,vtsPrac,795.5920425719814,,,,,,,,,,,,,,,,,,,,,,,,,60295,2022-11-07_13h49.12.102,vts_reward_expectancy_bt_OFFLINE,2022.2.4,59.93227976183434,
,,,,,,,,,,,,,,,,,,,,,,,,,,,,,,,,,,0,0,0,0,6,0,6,0,,,,,,,,,,,,,,,,,,,,,,,,,,,,0,909,,,801.6112532929983,,,146,B,hexagon,0.0020978080574423075,,,,,1,0,,,2,,,,,,,,,798.0883370229276,798.0883370229276,798.0883370229276,798.0883370229276,799.5776735619875,799.5776735619875,799.5776735619875,799.5776735619875,799.5940188999521,799.5940188999521,799.5940188999521,799.5940188999521,switch,letter,lettSwt,j,0.49597563210409135,vtsPrac,800.0959691259777,,,,,,,,,,,,,,,,,,,,,,,,,60295,2022-11-07_13h49.12.102,vts_reward_expectancy_bt_OFFLINE,2022.2.4,59.93227976183434,
,,,,,,,,,,,,,,,,,,,,,,,,,,,,,,,,,,0,0,0,0,7,0,7,0,,,,,,,,,,,,,,,,,,,,,,,,,,,,0,909,,,806.2315093879588,,,160,Y,circle,0.01671793800778687,,,,,1,0,,,2,,,,,,,,,802.6073414830025,802.6073414830025,802.6073414830025,802.6073414830025,804.0806238999357,804.0806238999357,804.0806238999357,804.0806238999357,804.1140266439179,804.1140266439179,804.1140266439179,804.1140266439179,repeat,letter,lettRpt,k,0.6066727740690112,vtsPrac,804.716163782985,,,,,,,,,,,,,,,,,,,,,,,,,60295,2022-11-07_13h49.12.102,vts_reward_expectancy_bt_OFFLINE,2022.2.4,59.93227976183434,
,,,,,,,,,,,,,,,,,,,,,,,,,,,,,,,,,,0,0,0,0,8,0,8,0,,,,,,,,,,,,,,,,,,,,,,,,,,,,0,909,,,810.9017416299321,,,174,W,circle,0.016907403012737632,,,,,1,0,,,2,,,,,,,,,807.2277620589593,807.2277620589593,807.2277620589593,807.2277620589593,808.7007953609573,808.7007953609573,808.7007953609573,808.7007953609573,808.7341187959537,808.7341187959537,808.7341187959537,808.7341187959537,repeat,letter,lettRpt,k,0.666985685005784,vtsPrac,809.3865112869535,,,,,,,,,,,,,,,,,,,,,,,,,60295,2022-11-07_13h49.12.102,vts_reward_expectancy_bt_OFFLINE,2022.2.4,59.93227976183434,
,,,,,,,,,,,,,,,,,,,,,,,,,,,,,,,,,,0,0,0,0,9,0,9,0,,,,,,,,,,,,,,,,,,,,,,,,,,,,0,909,,,816.7222209619358,,,146,H,triangle,0.0164468209259212,,,,,1,0,,,2,,,,,,,,,811.8976479499834,811.8976479499834,811.8976479499834,811.8976479499834,813.3708104279358,813.3708104279358,813.3708104279358,813.3708104279358,813.4041116239969,813.4041116239969,813.4041116239969,813.4041116239969,repeat,letter,lettRpt,j,1.8124370271107182,vtsPrac,815.2070332629373,,,,,,,,,,,,,,,,,,,,,,,,,60295,2022-11-07_13h49.12.102,vts_reward_expectancy_bt_OFFLINE,2022.2.4,59.93227976183434,
,,,,,,,,,,,,,,,,,,,,,,,,,,,,,,,,,,0,0,0,0,10,0,10,0,,,,,,,,,,,,,,,,,,,,,,,,,,,,0,909,,,821.5424956929637,,822.0425681229681,139,F,circle,0.016596890054643154,,,,,1,0,,,2,,,,,,,,,817.7190786309075,817.7190786309075,817.7190786309075,817.7190786309075,819.191523137968,819.191523137968,819.191523137968,819.191523137968,819.225002135965,819.225002135965,819.225002135965,819.225002135965,switch,number,numSwt,d,0.8185445520794019,vtsPrac,820.0419079109561,821.5424956929637,,,,,,,,,,,,,,,,,,,,,,,,60295,2022-11-07_13h49.12.102,vts_reward_expectancy_bt_OFFLINE,2022.2.4,59.93227976183434,
,,,,,,,,,,,,,,,,,,,,,,,,,,,,,,,,,,0,0,0,0,11,0,11,0,,,,,,,,,,,,,,,,,,,,,,,,,,,,0,909,,,827.0127278659493,,,167,U,star,0.014798432937823236,,,,,1,0,,,2,,,,,,,,,822.5551811329788,822.5551811329788,822.5551811329788,822.5551811329788,824.0284070279449,824.0284070279449,824.0284070279449,824.0284070279449,824.0617696290137,824.0617696290137,824.0617696290137,824.0617696290137,switch,letter,lettSwt,k,1.4491895521059632,vtsPrac,825.4972422019346,,,,,,,,,,,,,,,,,,,,,,,,,60295,2022-11-07_13h49.12.102,vts_reward_expectancy_bt_OFFLINE,2022.2.4,59.93227976183434,
,,,,,,,,,,,,,,,,,,,,,,,,,,,,,,,,,,0,0,0,0,12,0,12,0,,,,,,,,,,,,,,,,,,,,,,,,,,,,0,909,,,831.8666900369572,,832.36666293093,181,D,star,0.016967231989838183,,,,,1,0,,,2,,,,,,,,,828.0095432839589,828.0095432839589,828.0095432839589,828.0095432839589,829.482273321948,829.482273321948,829.482273321948,829.482273321948,829.5153149649268,829.5153149649268,829.5153149649268,829.5153149649268,repeat,letter,lettRpt,j,0.8566144520882517,vtsPrac,830.3676295049954,831.8666900369572,,,,,,,,,,,,,,,,,,,,,,,,60295,2022-11-07_13h49.12.102,vts_reward_expectancy_bt_OFFLINE,2022.2.4,59.93227976183434,
,,,,,,,,,,,,,,,,,,,,,,,,,,,,,,,,,,0,0,0,0,13,0,13,0,,,,,,,,,,,,,,,,,,,,,,,,,,,,0,909,,,836.6200204929337,,,160,F,triangle,0.0006024920148774981,,,,,1,0,,,2,,,,,,,,,832.8628261139384,832.8628261139384,832.8628261139384,832.8628261139384,834.3523565370124,834.3523565370124,834.3523565370124,834.3523565370124,834.3692303670105,834.3692303670105,834.3692303670105,834.3692303670105,repeat,letter,lettRpt,j,0.72195681813173,vtsPrac,835.104830786935,,,,,,,,,,,,,,,,,,,,,,,,,60295,2022-11-07_13h49.12.102,vts_reward_expectancy_bt_OFFLINE,2022.2.4,59.93227976183434,
,,,,,,,,,,,,,,,,,,,,,,,,,,,,,,,,,,0,0,0,0,14,0,14,0,,,,,,,,,,,,,,,,,,,,,,,,,,,,0,909,,,841.3570176869398,,,167,U,star,0.01621406606864184,,,,,1,0,,,2,,,,,,,,,837.6158081250032,837.6158081250032,837.6158081250032,837.6158081250032,839.089212148916,839.089212148916,839.089212148916,839.089212148916,839.1226955439197,839.1226955439197,839.1226955439197,839.1226955439197,switch,number,numSwt,f,0.7337623699568212,vtsPrac,839.8416867059423,,,,,,,,,,,,,,,,,,,,,,,,,60295,2022-11-07_13h49.12.102,vts_reward_expectancy_bt_OFFLINE,2022.2.4,59.93227976183434,
,,,,,,,,,,,,,,,,,,,,,,,,,,,,,,,,,,0,0,0,0,15,0,15,0,,,,,,,,,,,,,,,,,,,,,,,,,,,,0,909,,,846.4107313939603,,,125,Y,circle,0.016897269058972597,,,,,1,0,,,2,,,,,,,,,842.3536876769504,842.3536876769504,842.3536876769504,842.3536876769504,843.826193686924,843.826193686924,843.826193686924,843.826193686924,843.8599403880071,843.8599403880071,843.8599403880071,843.8599403880071,repeat,number,numRpt,d,1.0361412680940703,vtsPrac,844.8952879339922,,,,,,,,,,,,,,,,,,,,,,,,,60295,2022-11-07_13h49.12.102,vts_reward_expectancy_bt_OFFLINE,2022.2.4,59.93227976183434,
,,,,,,,,,,,,,,,,,,,,,,,,,,,,,,,,,,0,0,0,0,16,0,16,0,,,,,,,,,,,,,,,,,,,,,,,,,,,,0,909,,,851.2809884479502,,,160,F,hexagon,0.016912490013055503,,,,,1,0,,,2,,,,,,,,,847.4068650319241,847.4068650319241,847.4068650319241,847.4068650319241,848.8798164679902,848.8798164679902,848.8798164679902,848.8798164679902,848.9133884269977,848.9133884269977,848.9133884269977,848.9133884269977,repeat,number,numRpt,f,0.8545409460784867,vtsPrac,849.7655744119547,,,,,,,,,,,,,,,,,,,,,,,,,60295,2022-11-07_13h49.12.102,vts_reward_expectancy_bt_OFFLINE,2022.2.4,59.93227976183434,
,,,,,,,,,,,,,,,,,,,,,,,,,,,,,,,,,,0,0,0,0,17,0,17,0,,,,,,,,,,,,,,,,,,,,,,,,,,,,0,909,,,855.9846069460036,,,125,H,triangle,0.016622666968032718,,,,,1,0,,,2,,,,,,,,,852.2769454809604,852.2769454809604,852.2769454809604,852.2769454809604,853.7502573629608,853.7502573629608,853.7502573629608,853.7502573629608,853.7834257739596,853.7834257739596,853.7834257739596,853.7834257739596,switch,letter,lettSwt,j,0.6871262110071257,vtsPrac,854.4694138279883,,,,,,,,,,,,,,,,,,,,,,,,,60295,2022-11-07_13h49.12.102,vts_reward_expectancy_bt_OFFLINE,2022.2.4,59.93227976183434,
,,,,,,,,,,,,,,,,,,,,,,,,,,,,,,,,,,0,0,0,0,18,0,18,0,,,,,,,,,,,,,,,,,,,,,,,,,,,,0,909,,,860.7045820949133,,,167,U,circle,0.016328883008100092,,,,,1,0,,,2,,,,,,,,,856.9805619160179,856.9805619160179,856.9805619160179,856.9805619160179,858.4537726109847,858.4537726109847,858.4537726109847,858.4537726109847,858.4868217579788,858.4868217579788,858.4868217579788,858.4868217579788,switch,number,numSwt,f,0.7082113600336015,vtsPrac,859.1891308769118,,,,,,,,,,,,,,,,,,,,,,,,,60295,2022-11-07_13h49.12.102,vts_reward_expectancy_bt_OFFLINE,2022.2.4,59.93227976183434,
,,,,,,,,,,,,,,,,,,,,,,,,,,,,,,,,,,0,0,0,0,19,0,19,0,,,,,,,,,,,,,,,,,,,,,,,,,,,,0,909,,,865.3413062309846,,865.8415276819142,174,S,star,0.016833190922625363,,,,,1,0,,,2,,,,,,,,,861.7007499979809,861.7007499979809,861.7007499979809,861.7007499979809,863.1738254779484,863.1738254779484,863.1738254779484,863.1738254779484,863.2074266109848,863.2074266109848,863.2074266109848,863.2074266109848,repeat,number,numRpt,f,0.6350122190779075,vtsPrac,863.8407958099851,865.3413062309846,,,,,,,,,,,,,,,,,,,,,,,,60295,2022-11-07_13h49.12.102,vts_reward_expectancy_bt_OFFLINE,2022.2.4,59.93227976183434,
,,,,,,,,,,,,,,,,,,,,,,,,,,,,,,,,,,0,0,0,0,20,0,20,0,,,,,,,,,,,,,,,,,,,,,,,,,,,,0,909,,,869.9949690909125,,,139,H,triangle,0.014236412942409515,,,,,1,0,,,2,,,,,,,,,866.353839661926,866.353839661926,866.353839661926,866.353839661926,867.8274109439226,867.8274109439226,867.8274109439226,867.8274109439226,867.8607862549834,867.8607862549834,867.8607862549834,867.8607862549834,switch,letter,lettSwt,j,0.6286519401473925,vtsPrac,868.479441146017,,,,,,,,,,,,,,,,,,,,,,,,,60295,2022-11-07_13h49.12.102,vts_reward_expectancy_bt_OFFLINE,2022.2.4,59.93227976183434,
,,,,,,,,,,,,,,,,,,,,,,,,,,,,,,,,,,0,0,0,0,21,0,21,0,,,,,,,,,,,,,,,,,,,,,,,,,,,,0,909,,,874.6817904659547,,,146,B,circle,0.016863127006217837,,,,,1,0,,,2,,,,,,,,,870.9910735120066,870.9910735120066,870.9910735120066,870.9910735120066,872.4622819219949,872.4622819219949,872.4622819219949,872.4622819219949,872.4960233949823,872.4960233949823,872.4960233949823,872.4960233949823,repeat,letter,lettRpt,j,0.674034895026125,vtsPrac,873.1666136289714,,,,,,,,,,,,,,,,,,,,,,,,,60295,2022-11-07_13h49.12.102,vts_reward_expectancy_bt_OFFLINE,2022.2.4,59.93227976183434,
,,,,,,,,,,,,,,,,,,,,,,,,,,,,,,,,,,0,0,0,0,22,0,22,0,,,,,,,,,,,,,,,,,,,,,,,,,,,,0,909,,,879.3853731839918,,,132,U,circle,0.016976915998384356,,,,,1,0,,,2,,,,,,,,,875.6776700100163,875.6776700100163,875.6776700100163,875.6776700100163,877.1493122029351,877.1493122029351,877.1493122029351,877.1493122029351,877.1826618009945,877.1826618009945,877.1826618009945,877.1826618009945,switch,number,numSwt,d,0.6896493099629879,vtsPrac,877.8699620169355,,,,,,,,,,,,,,,,,,,,,,,,,60295,2022-11-07_13h49.12.102,vts_reward_expectancy_bt_OFFLINE,2022.2.4,59.93227976183434,
,,,,,,,,,,,,,,,,,,,,,,,,,,,,,,,,,,0,0,0,0,23,0,23,0,,,,,,,,,,,,,,,,,,,,,,,,,,,,0,909,,,884.3224452639697,,884.8225564729655,174,D,hexagon,0.016819861019030213,,,,,1,0,,,2,,,,,,,,,880.3811761629768,880.3811761629768,880.3811761629768,880.3811761629768,881.8527427109657,881.8527427109657,881.8527427109657,881.8527427109657,881.8862086039735,881.8862086039735,881.8862086039735,881.8862086039735,repeat,number,numRpt,f,0.9359278520569205,vtsPrac,882.8216200339375,884.3224452639697,,,,,,,,,,,,,,,,,,,,,,,,60295,2022-11-07_13h49.12.102,vts_reward_expectancy_bt_OFFLINE,2022.2.4,59.93227976183434,
,,,,,,,,,,,,,,,,,,,,,,,,,,,,,,,,,,0,0,0,0,24,0,24,0,,,,,,,,,,,,,,,,,,,,,,,,,,,,0,909,,,889.7761009680107,,,132,Y,star,0.014620018075220287,,,,,1,0,,,2,,,,,,,,,885.3346608619904,885.3346608619904,885.3346608619904,885.3346608619904,886.8230257629184,886.8230257629184,886.8230257629184,886.8230257629184,886.8400263839867,886.8400263839867,886.8400263839867,886.8400263839867,switch,letter,lettSwt,k,1.4101672400720417,vtsPrac,888.2608978659846,,,,,,,,,,,,,,,,,,,,,,,,,60295,2022-11-07_13h49.12.102,vts_reward_expectancy_bt_OFFLINE,2022.2.4,59.93227976183434,
,,,,,,,,,,,,,,,,,,,,,,,,,,,,,,,,,,0,0,0,0,25,0,25,0,,,,,,,,,,,,,,,,,,,,,,,,,,,,0,909,,,894.6128220459213,,,139,B,hexagon,0.017196423024870455,,,,,1,0,,,2,,,,,,,,,890.7718567979755,890.7718567979755,890.7718567979755,890.7718567979755,892.2434322109912,892.2434322109912,892.2434322109912,892.2434322109912,892.2769862179412,892.2769862179412,892.2769862179412,892.2769862179412,repeat,letter,lettRpt,j,0.8283740719780326,vtsPrac,893.0974323470145,,,,,,,,,,,,,,,,,,,,,,,,,60295,2022-11-07_13h49.12.102,vts_reward_expectancy_bt_OFFLINE,2022.2.4,59.93227976183434,
,,,,,,,,,,,,,,,,,,,,,,,,,,,,,,,,,,0,0,0,0,26,0,26,0,,,,,,,,,,,,,,,,,,,,,,,,,,,,0,909,,,899.6000081989914,,,160,H,hexagon,0.016929590958170593,,,,,1,0,,,2,,,,,,,,,895.6087304370012,895.6087304370012,895.6087304370012,895.6087304370012,897.0804169239709,897.0804169239709,897.0804169239709,897.0804169239709,897.1138998459792,897.1138998459792,897.1138998459792,897.1138998459792,repeat,letter,lettRpt,j,0.9754969230853021,vtsPrac,898.0847303749761,,,,,,,,,,,,,,,,,,,,,,,,,60295,2022-11-07_13h49.12.102,vts_reward_expectancy_bt_OFFLINE,2022.2.4,59.93227976183434,
