LTriangleOpac,LCircleOpac,LHexagonOpac,LStarOpac,RTriangleOpac,RCircleOpac,RHexagonOpac,RStarOpac,LShape_ID,RShape_ID,training_blocks.thisRepN,training_blocks.thisTrialN,training_blocks.thisN,training_blocks.thisIndex,training.thisRepN,training.thisTrialN,training.thisN,training.thisIndex,task1_prac_redo.thisRepN,task1_prac_redo.thisTrialN,task1_prac_redo.thisN,task1_prac_redo.thisIndex,task1_prac_trials.thisRepN,task1_prac_trials.thisTrialN,task1_prac_trials.thisN,task1_prac_trials.thisIndex,task2_prac_redo.thisRepN,task2_prac_redo.thisTrialN,task2_prac_redo.thisN,task2_prac_redo.thisIndex,task2_praac_trials.thisRepN,task2_praac_trials.thisTrialN,task2_praac_trials.thisN,task2_praac_trials.thisIndex,vts_prac_redo.thisRepN,vts_prac_redo.thisTrialN,vts_prac_redo.thisN,vts_prac_redo.thisIndex,vts_practice_trials.thisRepN,vts_practice_trials.thisTrialN,vts_practice_trials.thisN,vts_practice_trials.thisIndex,trials_norew.thisRepN,trials_norew.thisTrialN,trials_norew.thisN,trials_norew.thisIndex,block.thisRepN,block.thisTrialN,block.thisN,block.thisIndex,trials_rew.thisRepN,trials_rew.thisTrialN,trials_rew.thisN,trials_rew.thisIndex,key_resp.started,key_resp.keys,key_resp.rt,left_circle.started,right_circle.started,left_triangle.started,right_triangle.started,left_star.started,right_star.started,left_hexagon.started,right_hexagon.started,training_fix.started,training_resp.started,training_resp.keys,training_resp.rt,points_trial,points_cumul,trainBlock,training_feedback_txt.started,training_feedback_txt.stopped,fix.started,fix.stopped,curr_topStim,curr_bottStim,curr_shape,ISI.started,tgt_fix_prac1.started,top_target_prac1.started,bott_target_prac1.started,target_resp_prac1.started,top_target_prac1.stopped,tgt_fix_prac1.stopped,bott_target_prac1.stopped,target_resp_prac1.stopped,acc,E1,target_resp_prac1.keys,pracBlock,prac_fback_text.started,prac_fback_text.stopped,target_resp_prac1.rt,tgt_fix_prac2.started,top_target_prac2.started,bott_target_prac2.started,target_resp_prac2.started,target_resp_prac2.keys,target_resp_prac2.rt,star.started,hegagon.started,triangle.started,circle.started,top_target.started,tgt_fix.started,bot_target.started,target_resp.started,star.stopped,hegagon.stopped,triangle.stopped,circle.stopped,alt,task,condition,target_resp.keys,target_resp.rt,rewCond,vts_fback.started,vts_fback.stopped,blockNum,norew_fback.started,norew_fback.stopped,key_resp_2.keys,key_resp_2.rt,rewExpectancy,feedbk_text.started,feedbk_text.stopped,text_3.started,debrief.started,text_3.stopped,button.started,debrief.index,debrief.itemText,debrief.type,debrief.granularity,debrief.font,debrief.markerColor,debrief.response,debrief.rt,button.numClicks,button.timesOn,button.timesOff,participant,date,expName,psychopyVersion,frameRate,
,,,,,,,,,,,,,,,,,,,,,,,,,,,,,,,,,,,,,,,,,,,,,,,,,,,,,,400.0082959400024,space,35.53971774800448,,,,,,,,,,,,,,,,,,,,,,,,,,,,,,,,,,,,,,,,,,,,,,,,,,,,,,,,,,,,,,,,,,,,,,,,,,,,,,,,,,,,,,,,60300,2022-11-22_08h04.11.743,vts_reward_expectancy_bt_OFFLINE,2022.2.4,60.21672552549697,
0,0,1,0,0,1,0,0,hexagon,circle,0,0,0,0,0,0,0,7,,,,,,,,,,,,,,,,,,,,,,,,,,,,,,,,,,,,,,,,460.4398072640179,460.4398072640179,460.4398072640179,460.4398072640179,460.4398072640179,460.4398072640179,460.4398072640179,460.4398072640179,460.4398072640179,460.4398072640179,a,0.895122570975218,1,1,0,461.35757280600956,462.8591400430014,462.8591400430014,,,,,,,,,,,,,,,,,,,,,,,,,,,,,,,,,,,,,,,,,,,,,,,,,,,,,,,,,,,,,,,,,,,,,,60300,2022-11-22_08h04.11.743,vts_reward_expectancy_bt_OFFLINE,2022.2.4,60.21672552549697,
0,0,1,0,0,0,0,1,hexagon,star,0,0,0,0,0,1,1,8,,,,,,,,,,,,,,,,,,,,,,,,,,,,,,,,,,,,,,,,463.3595749090018,463.3595749090018,463.3595749090018,463.3595749090018,463.3595749090018,463.3595749090018,463.3595749090018,463.3595749090018,463.3595749090018,463.3595749090018,a,0.8565995910030324,1,2,0,464.244077965006,,465.74572567801806,,,,,,,,,,,,,,,,,,,,,,,,,,,,,,,,,,,,,,,,,,,,,,,,,,,,,,,,,,,,,,,,,,,,,,60300,2022-11-22_08h04.11.743,vts_reward_expectancy_bt_OFFLINE,2022.2.4,60.21672552549697,
0,0,0,1,1,0,0,0,star,triangle,0,0,0,0,0,2,2,9,,,,,,,,,,,,,,,,,,,,,,,,,,,,,,,,,,,,,,,,466.2462461090181,466.2462461090181,466.2462461090181,466.2462461090181,466.2462461090181,466.2462461090181,466.2462461090181,466.2462461090181,466.2462461090181,466.2462461090181,a,0.9748586809728295,10,12,0,467.2473877960001,,468.7489288340148,,,,,,,,,,,,,,,,,,,,,,,,,,,,,,,,,,,,,,,,,,,,,,,,,,,,,,,,,,,,,,,,,,,,,,60300,2022-11-22_08h04.11.743,vts_reward_expectancy_bt_OFFLINE,2022.2.4,60.21672552549697,
1,0,0,0,0,0,1,0,triangle,hexagon,0,0,0,0,0,3,3,1,,,,,,,,,,,,,,,,,,,,,,,,,,,,,,,,,,,,,,,,469.24953222999466,469.24953222999466,469.24953222999466,469.24953222999466,469.24953222999466,469.24953222999466,469.24953222999466,469.24953222999466,469.24953222999466,469.24953222999466,a,0.6596040069707669,1,13,0,469.9334925050207,,471.43512724601896,,,,,,,,,,,,,,,,,,,,,,,,,,,,,,,,,,,,,,,,,,,,,,,,,,,,,,,,,,,,,,,,,,,,,,60300,2022-11-22_08h04.11.743,vts_reward_expectancy_bt_OFFLINE,2022.2.4,60.21672552549697,
0,0,0,1,0,1,0,0,star ,circle,0,0,0,0,0,4,4,10,,,,,,,,,,,,,,,,,,,,,,,,,,,,,,,,,,,,,,,,471.93567495100433,471.93567495100433,471.93567495100433,471.93567495100433,471.93567495100433,471.93567495100433,471.93567495100433,471.93567495100433,471.93567495100433,471.93567495100433,a,0.6179982089961413,1,14,0,472.58640085501247,,474.08807920801337,,,,,,,,,,,,,,,,,,,,,,,,,,,,,,,,,,,,,,,,,,,,,,,,,,,,,,,,,,,,,,,,,,,,,,60300,2022-11-22_08h04.11.743,vts_reward_expectancy_bt_OFFLINE,2022.2.4,60.21672552549697,
1,0,0,0,0,1,0,0,triangle,circle,0,0,0,0,0,5,5,0,,,,,,,,,,,,,,,,,,,,,,,,,,,,,,,,,,,,,,,,474.58871650500805,474.58871650500805,474.58871650500805,474.58871650500805,474.58871650500805,474.58871650500805,474.58871650500805,474.58871650500805,474.58871650500805,474.58871650500805,l,0.4849159639852587,10,24,0,475.10605462500826,,476.60739441099577,,,,,,,,,,,,,,,,,,,,,,,,,,,,,,,,,,,,,,,,,,,,,,,,,,,,,,,,,,,,,,,,,,,,,,60300,2022-11-22_08h04.11.743,vts_reward_expectancy_bt_OFFLINE,2022.2.4,60.21672552549697,
0,0,1,0,1,0,0,0,hexagon,triangle,0,0,0,0,0,6,6,6,,,,,,,,,,,,,,,,,,,,,,,,,,,,,,,,,,,,,,,,477.1082082130015,477.1082082130015,477.1082082130015,477.1082082130015,477.1082082130015,477.1082082130015,477.1082082130015,477.1082082130015,477.1082082130015,477.1082082130015,a,0.3947027579706628,10,34,0,477.5251241160149,,479.0267648700101,,,,,,,,,,,,,,,,,,,,,,,,,,,,,,,,,,,,,,,,,,,,,,,,,,,,,,,,,,,,,,,,,,,,,,60300,2022-11-22_08h04.11.743,vts_reward_expectancy_bt_OFFLINE,2022.2.4,60.21672552549697,
1,0,0,0,0,0,0,1,triangle,star,0,0,0,0,0,7,7,2,,,,,,,,,,,,,,,,,,,,,,,,,,,,,,,,,,,,,,,,479.5273953640135,479.5273953640135,479.5273953640135,479.5273953640135,479.5273953640135,479.5273953640135,479.5273953640135,479.5273953640135,479.5273953640135,479.5273953640135,l,0.5417493819841184,10,44,0,480.09485750601743,,481.5963548310101,,,,,,,,,,,,,,,,,,,,,,,,,,,,,,,,,,,,,,,,,,,,,,,,,,,,,,,,,,,,,,,,,,,,,,60300,2022-11-22_08h04.11.743,vts_reward_expectancy_bt_OFFLINE,2022.2.4,60.21672552549697,
0,1,0,0,0,0,0,1,circle,star,0,0,0,0,0,8,8,5,,,,,,,,,,,,,,,,,,,,,,,,,,,,,,,,,,,,,,,,482.09693482800503,482.09693482800503,482.09693482800503,482.09693482800503,482.09693482800503,482.09693482800503,482.09693482800503,482.09693482800503,482.09693482800503,482.09693482800503,a,0.6036906729859766,10,54,0,482.7310158010223,,484.23276308801724,,,,,,,,,,,,,,,,,,,,,,,,,,,,,,,,,,,,,,,,,,,,,,,,,,,,,,,,,,,,,,,,,,,,,,60300,2022-11-22_08h04.11.743,vts_reward_expectancy_bt_OFFLINE,2022.2.4,60.21672552549697,
0,1,0,0,1,0,0,0,circle,triangle,0,0,0,0,0,9,9,3,,,,,,,,,,,,,,,,,,,,,,,,,,,,,,,,,,,,,,,,484.7333389510168,484.7333389510168,484.7333389510168,484.7333389510168,484.7333389510168,484.7333389510168,484.7333389510168,484.7333389510168,484.7333389510168,484.7333389510168,a,0.5207523809804115,10,64,0,485.28386739399866,,486.7853962210065,,,,,,,,,,,,,,,,,,,,,,,,,,,,,,,,,,,,,,,,,,,,,,,,,,,,,,,,,,,,,,,,,,,,,,60300,2022-11-22_08h04.11.743,vts_reward_expectancy_bt_OFFLINE,2022.2.4,60.21672552549697,
0,1,0,0,0,0,1,0,circle,hexagon,0,0,0,0,0,10,10,4,,,,,,,,,,,,,,,,,,,,,,,,,,,,,,,,,,,,,,,,487.28599863901036,487.28599863901036,487.28599863901036,487.28599863901036,487.28599863901036,487.28599863901036,487.28599863901036,487.28599863901036,487.28599863901036,487.28599863901036,a,0.544932415970834,10,74,0,487.85325534801814,,489.3548955300066,,,,,,,,,,,,,,,,,,,,,,,,,,,,,,,,,,,,,,,,,,,,,,,,,,,,,,,,,,,,,,,,,,,,,,60300,2022-11-22_08h04.11.743,vts_reward_expectancy_bt_OFFLINE,2022.2.4,60.21672552549697,
0,0,0,1,0,0,1,0,star,hexagon,0,0,0,0,0,11,11,11,,,,,,,,,,,,,,,,,,,,,,,,,,,,,,,,,,,,,,,,489.85542930901283,489.85542930901283,489.85542930901283,489.85542930901283,489.85542930901283,489.85542930901283,489.85542930901283,489.85542930901283,489.85542930901283,489.85542930901283,a,0.5296949909825344,10,84,0,490.40615024999715,,491.90776211800403,,,,,,,,,,,,,,,,,,,,,,,,,,,,,,,,,,,,,,,,,,,,,,,,,,,,,,,,,,,,,,,,,,,,,,60300,2022-11-22_08h04.11.743,vts_reward_expectancy_bt_OFFLINE,2022.2.4,60.21672552549697,
1,0,0,0,0,0,0,1,triangle,star,0,0,0,0,1,0,12,2,,,,,,,,,,,,,,,,,,,,,,,,,,,,,,,,,,,,,,,,492.4083638510201,492.4083638510201,492.4083638510201,492.4083638510201,492.4083638510201,492.4083638510201,492.4083638510201,492.4083638510201,492.4083638510201,492.4083638510201,l,0.5649095079861581,1,85,0,492.992410019011,,494.4941929000197,,,,,,,,,,,,,,,,,,,,,,,,,,,,,,,,,,,,,,,,,,,,,,,,,,,,,,,,,,,,,,,,,,,,,,60300,2022-11-22_08h04.11.743,vts_reward_expectancy_bt_OFFLINE,2022.2.4,60.21672552549697,
0,0,1,0,0,0,0,1,hexagon,star,0,0,0,0,1,1,13,8,,,,,,,,,,,,,,,,,,,,,,,,,,,,,,,,,,,,,,,,494.99454839300597,494.99454839300597,494.99454839300597,494.99454839300597,494.99454839300597,494.99454839300597,494.99454839300597,494.99454839300597,494.99454839300597,494.99454839300597,a,0.8362878289772198,1,86,0,495.8622376200219,,497.3638876490004,,,,,,,,,,,,,,,,,,,,,,,,,,,,,,,,,,,,,,,,,,,,,,,,,,,,,,,,,,,,,,,,,,,,,,60300,2022-11-22_08h04.11.743,vts_reward_expectancy_bt_OFFLINE,2022.2.4,60.21672552549697,
0,0,0,1,0,0,1,0,star,hexagon,0,0,0,0,1,2,14,11,,,,,,,,,,,,,,,,,,,,,,,,,,,,,,,,,,,,,,,,497.86458189602126,497.86458189602126,497.86458189602126,497.86458189602126,497.86458189602126,497.86458189602126,497.86458189602126,497.86458189602126,497.86458189602126,497.86458189602126,a,0.6094525999797042,10,96,0,498.49844570001005,,500.00014955402,,,,,,,,,,,,,,,,,,,,,,,,,,,,,,,,,,,,,,,,,,,,,,,,,,,,,,,,,,,,,,,,,,,,,,60300,2022-11-22_08h04.11.743,vts_reward_expectancy_bt_OFFLINE,2022.2.4,60.21672552549697,
1,0,0,0,0,0,1,0,triangle,hexagon,0,0,0,0,1,3,15,1,,,,,,,,,,,,,,,,,,,,,,,,,,,,,,,,,,,,,,,,500.50073783900007,500.50073783900007,500.50073783900007,500.50073783900007,500.50073783900007,500.50073783900007,500.50073783900007,500.50073783900007,500.50073783900007,500.50073783900007,a,1.0352288789872546,1,97,0,501.5685944400029,,503.0700608830084,,,,,,,,,,,,,,,,,,,,,,,,,,,,,,,,,,,,,,,,,,,,,,,,,,,,,,,,,,,,,,,,,,,,,,60300,2022-11-22_08h04.11.743,vts_reward_expectancy_bt_OFFLINE,2022.2.4,60.21672552549697,
0,1,0,0,0,0,0,1,circle,star,0,0,0,0,1,4,16,5,,,,,,,,,,,,,,,,,,,,,,,,,,,,,,,,,,,,,,,,503.57057388301473,503.57057388301473,503.57057388301473,503.57057388301473,503.57057388301473,503.57057388301473,503.57057388301473,503.57057388301473,503.57057388301473,503.57057388301473,l,0.70968594198348,10,107,0,504.30473160301335,,505.8064325750165,,,,,,,,,,,,,,,,,,,,,,,,,,,,,,,,,,,,,,,,,,,,,,,,,,,,,,,,,,,,,,,,,,,,,,60300,2022-11-22_08h04.11.743,vts_reward_expectancy_bt_OFFLINE,2022.2.4,60.21672552549697,
1,0,0,0,0,1,0,0,triangle,circle,0,0,0,0,1,5,17,0,,,,,,,,,,,,,,,,,,,,,,,,,,,,,,,,,,,,,,,,506.3069975200051,506.3069975200051,506.3069975200051,506.3069975200051,506.3069975200051,506.3069975200051,506.3069975200051,506.3069975200051,506.3069975200051,506.3069975200051,l,0.5841748899838421,1,108,0,506.9077091650106,508.40926810901146,508.40926810901146,,,,,,,,,,,,,,,,,,,,,,,,,,,,,,,,,,,,,,,,,,,,,,,,,,,,,,,,,,,,,,,,,,,,,,60300,2022-11-22_08h04.11.743,vts_reward_expectancy_bt_OFFLINE,2022.2.4,60.21672552549697,
0,0,0,1,1,0,0,0,star,triangle,0,0,0,0,1,6,18,9,,,,,,,,,,,,,,,,,,,,,,,,,,,,,,,,,,,,,,,,508.90991280501476,508.90991280501476,508.90991280501476,508.90991280501476,508.90991280501476,508.90991280501476,508.90991280501476,508.90991280501476,508.90991280501476,508.90991280501476,a,0.4347453989612404,1,109,0,509.3769628400041,,510.8786762240052,,,,,,,,,,,,,,,,,,,,,,,,,,,,,,,,,,,,,,,,,,,,,,,,,,,,,,,,,,,,,,,,,,,,,,60300,2022-11-22_08h04.11.743,vts_reward_expectancy_bt_OFFLINE,2022.2.4,60.21672552549697,
0,0,0,1,0,1,0,0,star ,circle,0,0,0,0,1,7,19,10,,,,,,,,,,,,,,,,,,,,,,,,,,,,,,,,,,,,,,,,511.3793467300129,511.3793467300129,511.3793467300129,511.3793467300129,511.3793467300129,511.3793467300129,511.3793467300129,511.3793467300129,511.3793467300129,511.3793467300129,a,0.46121295899502,1,110,0,511.86321265401784,,513.3647506780108,,,,,,,,,,,,,,,,,,,,,,,,,,,,,,,,,,,,,,,,,,,,,,,,,,,,,,,,,,,,,,,,,,,,,,60300,2022-11-22_08h04.11.743,vts_reward_expectancy_bt_OFFLINE,2022.2.4,60.21672552549697,
0,1,0,0,0,0,1,0,circle,hexagon,0,0,0,0,1,8,20,4,,,,,,,,,,,,,,,,,,,,,,,,,,,,,,,,,,,,,,,,513.8652996680175,513.8652996680175,513.8652996680175,513.8652996680175,513.8652996680175,513.8652996680175,513.8652996680175,513.8652996680175,513.8652996680175,513.8652996680175,l,0.9018460249644704,10,120,0,514.799745663011,,516.3012723800202,,,,,,,,,,,,,,,,,,,,,,,,,,,,,,,,,,,,,,,,,,,,,,,,,,,,,,,,,,,,,,,,,,,,,,60300,2022-11-22_08h04.11.743,vts_reward_expectancy_bt_OFFLINE,2022.2.4,60.21672552549697,
0,0,1,0,1,0,0,0,hexagon,triangle,0,0,0,0,1,9,21,6,,,,,,,,,,,,,,,,,,,,,,,,,,,,,,,,,,,,,,,,516.8019707330095,516.8019707330095,516.8019707330095,516.8019707330095,516.8019707330095,516.8019707330095,516.8019707330095,516.8019707330095,516.8019707330095,516.8019707330095,a,0.8007529299648013,10,130,0,517.6194765840191,519.1210795649968,519.1210795649968,,,,,,,,,,,,,,,,,,,,,,,,,,,,,,,,,,,,,,,,,,,,,,,,,,,,,,,,,,,,,,,,,,,,,,60300,2022-11-22_08h04.11.743,vts_reward_expectancy_bt_OFFLINE,2022.2.4,60.21672552549697,
0,0,1,0,0,1,0,0,hexagon,circle,0,0,0,0,1,10,22,7,,,,,,,,,,,,,,,,,,,,,,,,,,,,,,,,,,,,,,,,519.6218348790135,519.6218348790135,519.6218348790135,519.6218348790135,519.6218348790135,519.6218348790135,519.6218348790135,519.6218348790135,519.6218348790135,519.6218348790135,a,0.6110861149791162,10,140,0,520.2556590980093,,521.7573392640043,,,,,,,,,,,,,,,,,,,,,,,,,,,,,,,,,,,,,,,,,,,,,,,,,,,,,,,,,,,,,,,,,,,,,,60300,2022-11-22_08h04.11.743,vts_reward_expectancy_bt_OFFLINE,2022.2.4,60.21672552549697,
0,1,0,0,1,0,0,0,circle,triangle,0,0,0,0,1,11,23,3,,,,,,,,,,,,,,,,,,,,,,,,,,,,,,,,,,,,,,,,522.2580379430146,522.2580379430146,522.2580379430146,522.2580379430146,522.2580379430146,522.2580379430146,522.2580379430146,522.2580379430146,522.2580379430146,522.2580379430146,a,0.6415909439674579,1,141,0,522.9254116710217,,524.4269793239946,,,,,,,,,,,,,,,,,,,,,,,,,,,,,,,,,,,,,,,,,,,,,,,,,,,,,,,,,,,,,,,,,,,,,,60300,2022-11-22_08h04.11.743,vts_reward_expectancy_bt_OFFLINE,2022.2.4,60.21672552549697,
0,0,1,0,0,1,0,0,hexagon,circle,0,0,0,0,2,0,24,7,,,,,,,,,,,,,,,,,,,,,,,,,,,,,,,,,,,,,,,,524.9274677550129,524.9274677550129,524.9274677550129,524.9274677550129,524.9274677550129,524.9274677550129,524.9274677550129,524.9274677550129,524.9274677550129,524.9274677550129,a,0.694684078975115,1,142,0,525.6450054300076,,527.1466627650079,,,,,,,,,,,,,,,,,,,,,,,,,,,,,,,,,,,,,,,,,,,,,,,,,,,,,,,,,,,,,,,,,,,,,,60300,2022-11-22_08h04.11.743,vts_reward_expectancy_bt_OFFLINE,2022.2.4,60.21672552549697,
1,0,0,0,0,1,0,0,triangle,circle,0,0,0,0,2,1,25,0,,,,,,,,,,,,,,,,,,,,,,,,,,,,,,,,,,,,,,,,527.6474176150223,527.6474176150223,527.6474176150223,527.6474176150223,527.6474176150223,527.6474176150223,527.6474176150223,527.6474176150223,527.6474176150223,527.6474176150223,l,0.5851488960033748,10,152,0,528.2647510500101,,529.7664674690168,,,,,,,,,,,,,,,,,,,,,,,,,,,,,,,,,,,,,,,,,,,,,,,,,,,,,,,,,,,,,,,,,,,,,,60300,2022-11-22_08h04.11.743,vts_reward_expectancy_bt_OFFLINE,2022.2.4,60.21672552549697,
0,0,0,1,1,0,0,0,star,triangle,0,0,0,0,2,2,26,9,,,,,,,,,,,,,,,,,,,,,,,,,,,,,,,,,,,,,,,,530.2670194430102,530.2670194430102,530.2670194430102,530.2670194430102,530.2670194430102,530.2670194430102,530.2670194430102,530.2670194430102,530.2670194430102,530.2670194430102,a,0.6206789309799206,10,162,0,530.9175220650213,,532.4192336310225,,,,,,,,,,,,,,,,,,,,,,,,,,,,,,,,,,,,,,,,,,,,,,,,,,,,,,,,,,,,,,,,,,,,,,60300,2022-11-22_08h04.11.743,vts_reward_expectancy_bt_OFFLINE,2022.2.4,60.21672552549697,
0,0,0,1,0,1,0,0,star ,circle,0,0,0,0,2,3,27,10,,,,,,,,,,,,,,,,,,,,,,,,,,,,,,,,,,,,,,,,532.9195459900075,532.9195459900075,532.9195459900075,532.9195459900075,532.9195459900075,532.9195459900075,532.9195459900075,532.9195459900075,532.9195459900075,532.9195459900075,l,0.7257350059808232,10,172,0,533.6704868530214,,535.172117367998,,,,,,,,,,,,,,,,,,,,,,,,,,,,,,,,,,,,,,,,,,,,,,,,,,,,,,,,,,,,,,,,,,,,,,60300,2022-11-22_08h04.11.743,vts_reward_expectancy_bt_OFFLINE,2022.2.4,60.21672552549697,
0,1,0,0,0,0,0,1,circle,star,0,0,0,0,2,4,28,5,,,,,,,,,,,,,,,,,,,,,,,,,,,,,,,,,,,,,,,,535.6726750899979,535.6726750899979,535.6726750899979,535.6726750899979,535.6726750899979,535.6726750899979,535.6726750899979,535.6726750899979,535.6726750899979,535.6726750899979,l,0.6386890299909282,1,173,0,536.340250260022,,537.8419095910212,,,,,,,,,,,,,,,,,,,,,,,,,,,,,,,,,,,,,,,,,,,,,,,,,,,,,,,,,,,,,,,,,,,,,,60300,2022-11-22_08h04.11.743,vts_reward_expectancy_bt_OFFLINE,2022.2.4,60.21672552549697,
0,0,0,1,0,0,1,0,star,hexagon,0,0,0,0,2,5,29,11,,,,,,,,,,,,,,,,,,,,,,,,,,,,,,,,,,,,,,,,538.3425918540161,538.3425918540161,538.3425918540161,538.3425918540161,538.3425918540161,538.3425918540161,538.3425918540161,538.3425918540161,538.3425918540161,538.3425918540161,a,0.8158946189796552,10,183,0,539.1765789049969,540.6782946800231,540.6782946800231,,,,,,,,,,,,,,,,,,,,,,,,,,,,,,,,,,,,,,,,,,,,,,,,,,,,,,,,,,,,,,,,,,,,,,60300,2022-11-22_08h04.11.743,vts_reward_expectancy_bt_OFFLINE,2022.2.4,60.21672552549697,
1,0,0,0,0,0,0,1,triangle,star,0,0,0,0,2,6,30,2,,,,,,,,,,,,,,,,,,,,,,,,,,,,,,,,,,,,,,,,541.1787681500136,541.1787681500136,541.1787681500136,541.1787681500136,541.1787681500136,541.1787681500136,541.1787681500136,541.1787681500136,541.1787681500136,541.1787681500136,a,0.8255248979839962,1,184,0,542.0297590749979,,543.5315352700127,,,,,,,,,,,,,,,,,,,,,,,,,,,,,,,,,,,,,,,,,,,,,,,,,,,,,,,,,,,,,,,,,,,,,,60300,2022-11-22_08h04.11.743,vts_reward_expectancy_bt_OFFLINE,2022.2.4,60.21672552549697,
1,0,0,0,0,0,1,0,triangle,hexagon,0,0,0,0,2,7,31,1,,,,,,,,,,,,,,,,,,,,,,,,,,,,,,,,,,,,,,,,544.0319691660115,544.0319691660115,544.0319691660115,544.0319691660115,544.0319691660115,544.0319691660115,544.0319691660115,544.0319691660115,544.0319691660115,544.0319691660115,a,0.9527908589807339,1,185,0,545.0163792130188,,546.5179537280055,,,,,,,,,,,,,,,,,,,,,,,,,,,,,,,,,,,,,,,,,,,,,,,,,,,,,,,,,,,,,,,,,,,,,,60300,2022-11-22_08h04.11.743,vts_reward_expectancy_bt_OFFLINE,2022.2.4,60.21672552549697,
0,1,0,0,0,0,1,0,circle,hexagon,0,0,0,0,2,8,32,4,,,,,,,,,,,,,,,,,,,,,,,,,,,,,,,,,,,,,,,,547.0185762589972,547.0185762589972,547.0185762589972,547.0185762589972,547.0185762589972,547.0185762589972,547.0185762589972,547.0185762589972,547.0185762589972,547.0185762589972,a,0.8353649749769829,10,195,0,547.8860825989977,,549.3878323590034,,,,,,,,,,,,,,,,,,,,,,,,,,,,,,,,,,,,,,,,,,,,,,,,,,,,,,,,,,,,,,,,,,,,,,60300,2022-11-22_08h04.11.743,vts_reward_expectancy_bt_OFFLINE,2022.2.4,60.21672552549697,
0,0,1,0,1,0,0,0,hexagon,triangle,0,0,0,0,2,9,33,6,,,,,,,,,,,,,,,,,,,,,,,,,,,,,,,,,,,,,,,,549.888339630008,549.888339630008,549.888339630008,549.888339630008,549.888339630008,549.888339630008,549.888339630008,549.888339630008,549.888339630008,549.888339630008,a,0.9022034389781766,10,205,0,550.8226313240011,,552.3246913710027,,,,,,,,,,,,,,,,,,,,,,,,,,,,,,,,,,,,,,,,,,,,,,,,,,,,,,,,,,,,,,,,,,,,,,60300,2022-11-22_08h04.11.743,vts_reward_expectancy_bt_OFFLINE,2022.2.4,60.21672552549697,
0,1,0,0,1,0,0,0,circle,triangle,0,0,0,0,2,10,34,3,,,,,,,,,,,,,,,,,,,,,,,,,,,,,,,,,,,,,,,,552.824945194996,552.824945194996,552.824945194996,552.824945194996,552.824945194996,552.824945194996,552.824945194996,552.824945194996,552.824945194996,552.824945194996,a,0.868675206991611,10,215,0,553.7259073310124,,555.2277018490131,,,,,,,,,,,,,,,,,,,,,,,,,,,,,,,,,,,,,,,,,,,,,,,,,,,,,,,,,,,,,,,,,,,,,,60300,2022-11-22_08h04.11.743,vts_reward_expectancy_bt_OFFLINE,2022.2.4,60.21672552549697,
0,0,1,0,0,0,0,1,hexagon,star,0,0,0,0,2,11,35,8,,,,,,,,,,,,,,,,,,,,,,,,,,,,,,,,,,,,,,,,555.728178778023,555.728178778023,555.728178778023,555.728178778023,555.728178778023,555.728178778023,555.728178778023,555.728178778023,555.728178778023,555.728178778023,l,0.8455209909880068,1,216,0,556.5959493140108,,558.0975930890127,,,,,,,,,,,,,,,,,,,,,,,,,,,,,,,,,,,,,,,,,,,,,,,,,,,,,,,,,,,,,,,,,,,,,,60300,2022-11-22_08h04.11.743,vts_reward_expectancy_bt_OFFLINE,2022.2.4,60.21672552549697,
0,1,0,0,0,0,1,0,circle,hexagon,0,0,0,0,3,0,36,4,,,,,,,,,,,,,,,,,,,,,,,,,,,,,,,,,,,,,,,,558.5981805729971,558.5981805729971,558.5981805729971,558.5981805729971,558.5981805729971,558.5981805729971,558.5981805729971,558.5981805729971,558.5981805729971,558.5981805729971,a,0.8781737039971631,10,226,0,559.4995171240007,,561.0009291490132,,,,,,,,,,,,,,,,,,,,,,,,,,,,,,,,,,,,,,,,,,,,,,,,,,,,,,,,,,,,,,,,,,,,,,60300,2022-11-22_08h04.11.743,vts_reward_expectancy_bt_OFFLINE,2022.2.4,60.21672552549697,
1,0,0,0,0,1,0,0,triangle,circle,0,0,0,0,3,1,37,0,,,,,,,,,,,,,,,,,,,,,,,,,,,,,,,,,,,,,,,,561.5011536210077,561.5011536210077,561.5011536210077,561.5011536210077,561.5011536210077,561.5011536210077,561.5011536210077,561.5011536210077,561.5011536210077,561.5011536210077,l,1.1487837669847067,10,236,0,562.669113543001,,564.1707410890085,,,,,,,,,,,,,,,,,,,,,,,,,,,,,,,,,,,,,,,,,,,,,,,,,,,,,,,,,,,,,,,,,,,,,,60300,2022-11-22_08h04.11.743,vts_reward_expectancy_bt_OFFLINE,2022.2.4,60.21672552549697,
0,0,1,0,0,0,0,1,hexagon,star,0,0,0,0,3,2,38,8,,,,,,,,,,,,,,,,,,,,,,,,,,,,,,,,,,,,,,,,564.6713100710185,564.6713100710185,564.6713100710185,564.6713100710185,564.6713100710185,564.6713100710185,564.6713100710185,564.6713100710185,564.6713100710185,564.6713100710185,a,1.0605942159891129,1,237,0,565.7559522640076,,567.2573955260159,,,,,,,,,,,,,,,,,,,,,,,,,,,,,,,,,,,,,,,,,,,,,,,,,,,,,,,,,,,,,,,,,,,,,,60300,2022-11-22_08h04.11.743,vts_reward_expectancy_bt_OFFLINE,2022.2.4,60.21672552549697,
0,1,0,0,1,0,0,0,circle,triangle,0,0,0,0,3,3,39,3,,,,,,,,,,,,,,,,,,,,,,,,,,,,,,,,,,,,,,,,567.7583317040117,567.7583317040117,567.7583317040117,567.7583317040117,567.7583317040117,567.7583317040117,567.7583317040117,567.7583317040117,567.7583317040117,567.7583317040117,a,0.8198952549719252,10,247,0,568.6091189430153,,570.1108118980192,,,,,,,,,,,,,,,,,,,,,,,,,,,,,,,,,,,,,,,,,,,,,,,,,,,,,,,,,,,,,,,,,,,,,,60300,2022-11-22_08h04.11.743,vts_reward_expectancy_bt_OFFLINE,2022.2.4,60.21672552549697,
0,0,1,0,1,0,0,0,hexagon,triangle,0,0,0,0,3,4,40,6,,,,,,,,,,,,,,,,,,,,,,,,,,,,,,,,,,,,,,,,570.6112778550014,570.6112778550014,570.6112778550014,570.6112778550014,570.6112778550014,570.6112778550014,570.6112778550014,570.6112778550014,570.6112778550014,570.6112778550014,a,0.7013948129897472,1,248,0,571.3453828280035,,572.8470353680023,,,,,,,,,,,,,,,,,,,,,,,,,,,,,,,,,,,,,,,,,,,,,,,,,,,,,,,,,,,,,,,,,,,,,,60300,2022-11-22_08h04.11.743,vts_reward_expectancy_bt_OFFLINE,2022.2.4,60.21672552549697,
1,0,0,0,0,0,0,1,triangle,star,0,0,0,0,3,5,41,2,,,,,,,,,,,,,,,,,,,,,,,,,,,,,,,,,,,,,,,,573.3476383640082,573.3476383640082,573.3476383640082,573.3476383640082,573.3476383640082,573.3476383640082,573.3476383640082,573.3476383640082,573.3476383640082,573.3476383640082,l,0.5967150159704033,10,258,0,573.9649717650027,,575.4667935510224,,,,,,,,,,,,,,,,,,,,,,,,,,,,,,,,,,,,,,,,,,,,,,,,,,,,,,,,,,,,,,,,,,,,,,60300,2022-11-22_08h04.11.743,vts_reward_expectancy_bt_OFFLINE,2022.2.4,60.21672552549697,
0,0,1,0,0,1,0,0,hexagon,circle,0,0,0,0,3,6,42,7,,,,,,,,,,,,,,,,,,,,,,,,,,,,,,,,,,,,,,,,575.9671769360139,575.9671769360139,575.9671769360139,575.9671769360139,575.9671769360139,575.9671769360139,575.9671769360139,575.9671769360139,575.9671769360139,575.9671769360139,l,0.7017367569787893,10,268,0,576.7014144239947,,578.2028843130101,,,,,,,,,,,,,,,,,,,,,,,,,,,,,,,,,,,,,,,,,,,,,,,,,,,,,,,,,,,,,,,,,,,,,,60300,2022-11-22_08h04.11.743,vts_reward_expectancy_bt_OFFLINE,2022.2.4,60.21672552549697,
0,0,0,1,1,0,0,0,star,triangle,0,0,0,0,3,7,43,9,,,,,,,,,,,,,,,,,,,,,,,,,,,,,,,,,,,,,,,,578.7036683339975,578.7036683339975,578.7036683339975,578.7036683339975,578.7036683339975,578.7036683339975,578.7036683339975,578.7036683339975,578.7036683339975,578.7036683339975,a,0.6085590079892427,1,269,0,579.3374804159976,,580.839157067996,,,,,,,,,,,,,,,,,,,,,,,,,,,,,,,,,,,,,,,,,,,,,,,,,,,,,,,,,,,,,,,,,,,,,,60300,2022-11-22_08h04.11.743,vts_reward_expectancy_bt_OFFLINE,2022.2.4,60.21672552549697,
0,0,0,1,0,0,1,0,star,hexagon,0,0,0,0,3,8,44,11,,,,,,,,,,,,,,,,,,,,,,,,,,,,,,,,,,,,,,,,581.3395760930143,581.3395760930143,581.3395760930143,581.3395760930143,581.3395760930143,581.3395760930143,581.3395760930143,581.3395760930143,581.3395760930143,581.3395760930143,a,0.5931483439635485,1,270,0,581.9571923610056,,583.4588791730057,,,,,,,,,,,,,,,,,,,,,,,,,,,,,,,,,,,,,,,,,,,,,,,,,,,,,,,,,,,,,,,,,,,,,,60300,2022-11-22_08h04.11.743,vts_reward_expectancy_bt_OFFLINE,2022.2.4,60.21672552549697,
0,0,0,1,0,1,0,0,star ,circle,0,0,0,0,3,9,45,10,,,,,,,,,,,,,,,,,,,,,,,,,,,,,,,,,,,,,,,,583.9594298040029,583.9594298040029,583.9594298040029,583.9594298040029,583.9594298040029,583.9594298040029,583.9594298040029,583.9594298040029,583.9594298040029,583.9594298040029,a,0.7972272399638314,1,271,0,584.7769051360083,,586.2785372200015,,,,,,,,,,,,,,,,,,,,,,,,,,,,,,,,,,,,,,,,,,,,,,,,,,,,,,,,,,,,,,,,,,,,,,60300,2022-11-22_08h04.11.743,vts_reward_expectancy_bt_OFFLINE,2022.2.4,60.21672552549697,
0,1,0,0,0,0,0,1,circle,star,0,0,0,0,3,10,46,5,,,,,,,,,,,,,,,,,,,,,,,,,,,,,,,,,,,,,,,,586.7790475040092,586.7790475040092,586.7790475040092,586.7790475040092,586.7790475040092,586.7790475040092,586.7790475040092,586.7790475040092,586.7790475040092,586.7790475040092,a,0.6212352069851477,1,272,0,587.4298305260018,,588.9315589879989,,,,,,,,,,,,,,,,,,,,,,,,,,,,,,,,,,,,,,,,,,,,,,,,,,,,,,,,,,,,,,,,,,,,,,60300,2022-11-22_08h04.11.743,vts_reward_expectancy_bt_OFFLINE,2022.2.4,60.21672552549697,
1,0,0,0,0,0,1,0,triangle,hexagon,0,0,0,0,3,11,47,1,,,,,,,,,,,,,,,,,,,,,,,,,,,,,,,,,,,,,,,,589.4319385700219,589.4319385700219,589.4319385700219,589.4319385700219,589.4319385700219,589.4319385700219,589.4319385700219,589.4319385700219,589.4319385700219,589.4319385700219,l,0.9617955909925513,1,273,0,590.4163917400001,,591.9180761199968,,,,,,,,,,,,,,,,,,,,,,,,,,,,,,,,,,,,,,,,,,,,,,,,,,,,,,,,,,,,,,,,,,,,,,60300,2022-11-22_08h04.11.743,vts_reward_expectancy_bt_OFFLINE,2022.2.4,60.21672552549697,
0,0,1,0,1,0,0,0,hexagon,triangle,1,0,1,0,0,0,0,6,,,,,,,,,,,,,,,,,,,,,,,,,,,,,,,,,,,,,,,,596.3395904960053,596.3395904960053,596.3395904960053,596.3395904960053,596.3395904960053,596.3395904960053,596.3395904960053,596.3395904960053,596.3395904960053,596.3395904960053,a,0.7153087579936255,1,274,1,597.0737237150024,,598.575344279001,,,,,,,,,,,,,,,,,,,,,,,,,,,,,,,,,,,,,,,,,,,,,,,,,,,,,,,,,,,,,,,,,,,,,,60300,2022-11-22_08h04.11.743,vts_reward_expectancy_bt_OFFLINE,2022.2.4,60.21672552549697,
0,0,1,0,0,0,0,1,hexagon,star,1,0,1,0,0,1,1,8,,,,,,,,,,,,,,,,,,,,,,,,,,,,,,,,,,,,,,,,599.0759845510183,599.0759845510183,599.0759845510183,599.0759845510183,599.0759845510183,599.0759845510183,599.0759845510183,599.0759845510183,599.0759845510183,599.0759845510183,l,1.2423946759663522,10,284,1,600.344084862998,,601.8459090590186,,,,,,,,,,,,,,,,,,,,,,,,,,,,,,,,,,,,,,,,,,,,,,,,,,,,,,,,,,,,,,,,,,,,,,60300,2022-11-22_08h04.11.743,vts_reward_expectancy_bt_OFFLINE,2022.2.4,60.21672552549697,
0,0,0,1,0,0,1,0,star,hexagon,1,0,1,0,0,2,2,11,,,,,,,,,,,,,,,,,,,,,,,,,,,,,,,,,,,,,,,,602.3463037860056,602.3463037860056,602.3463037860056,602.3463037860056,602.3463037860056,602.3463037860056,602.3463037860056,602.3463037860056,602.3463037860056,602.3463037860056,l,0.929671933001373,10,294,1,603.2973245549947,,604.7991005960212,,,,,,,,,,,,,,,,,,,,,,,,,,,,,,,,,,,,,,,,,,,,,,,,,,,,,,,,,,,,,,,,,,,,,,60300,2022-11-22_08h04.11.743,vts_reward_expectancy_bt_OFFLINE,2022.2.4,60.21672552549697,
0,0,0,1,1,0,0,0,star,triangle,1,0,1,0,0,3,3,9,,,,,,,,,,,,,,,,,,,,,,,,,,,,,,,,,,,,,,,,605.2996481060109,605.2996481060109,605.2996481060109,605.2996481060109,605.2996481060109,605.2996481060109,605.2996481060109,605.2996481060109,605.2996481060109,605.2996481060109,a,0.6871196569991298,1,295,1,606.0171503330057,,607.5186175340204,,,,,,,,,,,,,,,,,,,,,,,,,,,,,,,,,,,,,,,,,,,,,,,,,,,,,,,,,,,,,,,,,,,,,,60300,2022-11-22_08h04.11.743,vts_reward_expectancy_bt_OFFLINE,2022.2.4,60.21672552549697,
0,0,1,0,0,1,0,0,hexagon,circle,1,0,1,0,0,4,4,7,,,,,,,,,,,,,,,,,,,,,,,,,,,,,,,,,,,,,,,,608.0194626690063,608.0194626690063,608.0194626690063,608.0194626690063,608.0194626690063,608.0194626690063,608.0194626690063,608.0194626690063,608.0194626690063,608.0194626690063,l,0.8361749809700996,1,296,1,608.8870244910067,,610.3886358430027,,,,,,,,,,,,,,,,,,,,,,,,,,,,,,,,,,,,,,,,,,,,,,,,,,,,,,,,,,,,,,,,,,,,,,60300,2022-11-22_08h04.11.743,vts_reward_expectancy_bt_OFFLINE,2022.2.4,60.21672552549697,
0,1,0,0,1,0,0,0,circle,triangle,1,0,1,0,0,5,5,3,,,,,,,,,,,,,,,,,,,,,,,,,,,,,,,,,,,,,,,,610.8892907060217,610.8892907060217,610.8892907060217,610.8892907060217,610.8892907060217,610.8892907060217,610.8892907060217,610.8892907060217,610.8892907060217,610.8892907060217,a,1.409598289988935,1,297,1,612.3240791160206,,613.825326168997,,,,,,,,,,,,,,,,,,,,,,,,,,,,,,,,,,,,,,,,,,,,,,,,,,,,,,,,,,,,,,,,,,,,,,60300,2022-11-22_08h04.11.743,vts_reward_expectancy_bt_OFFLINE,2022.2.4,60.21672552549697,
1,0,0,0,0,1,0,0,triangle,circle,1,0,1,0,0,6,6,0,,,,,,,,,,,,,,,,,,,,,,,,,,,,,,,,,,,,,,,,614.3263221310044,614.3263221310044,614.3263221310044,614.3263221310044,614.3263221310044,614.3263221310044,614.3263221310044,614.3263221310044,614.3263221310044,614.3263221310044,l,1.302455242985161,10,307,1,615.6610389060224,,617.1628223129956,,,,,,,,,,,,,,,,,,,,,,,,,,,,,,,,,,,,,,,,,,,,,,,,,,,,,,,,,,,,,,,,,,,,,,60300,2022-11-22_08h04.11.743,vts_reward_expectancy_bt_OFFLINE,2022.2.4,60.21672552549697,
0,1,0,0,0,0,1,0,circle,hexagon,1,0,1,0,0,7,7,4,,,,,,,,,,,,,,,,,,,,,,,,,,,,,,,,,,,,,,,,617.6631290150108,617.6631290150108,617.6631290150108,617.6631290150108,617.6631290150108,617.6631290150108,617.6631290150108,617.6631290150108,617.6631290150108,617.6631290150108,a,1.308863060985459,10,317,1,618.9979260360124,,620.4996444749995,,,,,,,,,,,,,,,,,,,,,,,,,,,,,,,,,,,,,,,,,,,,,,,,,,,,,,,,,,,,,,,,,,,,,,60300,2022-11-22_08h04.11.743,vts_reward_expectancy_bt_OFFLINE,2022.2.4,60.21672552549697,
1,0,0,0,0,0,0,1,triangle,star,1,0,1,0,0,8,8,2,,,,,,,,,,,,,,,,,,,,,,,,,,,,,,,,,,,,,,,,621.0003173430159,621.0003173430159,621.0003173430159,621.0003173430159,621.0003173430159,621.0003173430159,621.0003173430159,621.0003173430159,621.0003173430159,621.0003173430159,l,1.2444758829660714,1,318,1,622.2682165160077,,623.7698762090004,,,,,,,,,,,,,,,,,,,,,,,,,,,,,,,,,,,,,,,,,,,,,,,,,,,,,,,,,,,,,,,,,,,,,,60300,2022-11-22_08h04.11.743,vts_reward_expectancy_bt_OFFLINE,2022.2.4,60.21672552549697,
0,0,0,1,0,1,0,0,star ,circle,1,0,1,0,0,9,9,10,,,,,,,,,,,,,,,,,,,,,,,,,,,,,,,,,,,,,,,,624.2706437980232,624.2706437980232,624.2706437980232,624.2706437980232,624.2706437980232,624.2706437980232,624.2706437980232,624.2706437980232,624.2706437980232,624.2706437980232,l,1.0683671759907156,10,328,1,625.3717384340125,,626.873202576011,,,,,,,,,,,,,,,,,,,,,,,,,,,,,,,,,,,,,,,,,,,,,,,,,,,,,,,,,,,,,,,,,,,,,,60300,2022-11-22_08h04.11.743,vts_reward_expectancy_bt_OFFLINE,2022.2.4,60.21672552549697,
0,1,0,0,0,0,0,1,circle,star,1,0,1,0,0,10,10,5,,,,,,,,,,,,,,,,,,,,,,,,,,,,,,,,,,,,,,,,627.3737902660214,627.3737902660214,627.3737902660214,627.3737902660214,627.3737902660214,627.3737902660214,627.3737902660214,627.3737902660214,627.3737902660214,627.3737902660214,a,0.6539551459718496,10,338,1,628.0579222130182,,629.5594575940049,,,,,,,,,,,,,,,,,,,,,,,,,,,,,,,,,,,,,,,,,,,,,,,,,,,,,,,,,,,,,,,,,,,,,,60300,2022-11-22_08h04.11.743,vts_reward_expectancy_bt_OFFLINE,2022.2.4,60.21672552549697,
1,0,0,0,0,0,1,0,triangle,hexagon,1,0,1,0,0,11,11,1,,,,,,,,,,,,,,,,,,,,,,,,,,,,,,,,,,,,,,,,630.0602165710006,630.0602165710006,630.0602165710006,630.0602165710006,630.0602165710006,630.0602165710006,630.0602165710006,630.0602165710006,630.0602165710006,630.0602165710006,l,1.004825763986446,1,339,1,631.0947871240205,,632.5963316550187,,,,,,,,,,,,,,,,,,,,,,,,,,,,,,,,,,,,,,,,,,,,,,,,,,,,,,,,,,,,,,,,,,,,,,60300,2022-11-22_08h04.11.743,vts_reward_expectancy_bt_OFFLINE,2022.2.4,60.21672552549697,
1,0,0,0,0,0,0,1,triangle,star,1,0,1,0,1,0,12,2,,,,,,,,,,,,,,,,,,,,,,,,,,,,,,,,,,,,,,,,633.0968475200061,633.0968475200061,633.0968475200061,633.0968475200061,633.0968475200061,633.0968475200061,633.0968475200061,633.0968475200061,633.0968475200061,633.0968475200061,a,0.9044031769735739,1,340,1,634.0313474310096,,635.5328719009995,,,,,,,,,,,,,,,,,,,,,,,,,,,,,,,,,,,,,,,,,,,,,,,,,,,,,,,,,,,,,,,,,,,,,,60300,2022-11-22_08h04.11.743,vts_reward_expectancy_bt_OFFLINE,2022.2.4,60.21672552549697,
0,0,1,0,0,1,0,0,hexagon,circle,1,0,1,0,1,1,13,7,,,,,,,,,,,,,,,,,,,,,,,,,,,,,,,,,,,,,,,,636.03335848602,636.03335848602,636.03335848602,636.03335848602,636.03335848602,636.03335848602,636.03335848602,636.03335848602,636.03335848602,636.03335848602,l,0.8935573609778658,1,341,1,636.9509935960232,,638.4528112230182,,,,,,,,,,,,,,,,,,,,,,,,,,,,,,,,,,,,,,,,,,,,,,,,,,,,,,,,,,,,,,,,,,,,,,60300,2022-11-22_08h04.11.743,vts_reward_expectancy_bt_OFFLINE,2022.2.4,60.21672552549697,
0,0,1,0,1,0,0,0,hexagon,triangle,1,0,1,0,1,2,14,6,,,,,,,,,,,,,,,,,,,,,,,,,,,,,,,,,,,,,,,,638.9532146610145,638.9532146610145,638.9532146610145,638.9532146610145,638.9532146610145,638.9532146610145,638.9532146610145,638.9532146610145,638.9532146610145,638.9532146610145,a,1.6764971399970818,10,351,1,640.6551693899964,,642.156960733002,,,,,,,,,,,,,,,,,,,,,,,,,,,,,,,,,,,,,,,,,,,,,,,,,,,,,,,,,,,,,,,,,,,,,,60300,2022-11-22_08h04.11.743,vts_reward_expectancy_bt_OFFLINE,2022.2.4,60.21672552549697,
1,0,0,0,0,1,0,0,triangle,circle,1,0,1,0,1,3,15,0,,,,,,,,,,,,,,,,,,,,,,,,,,,,,,,,,,,,,,,,642.6575854080147,642.6575854080147,642.6575854080147,642.6575854080147,642.6575854080147,642.6575854080147,642.6575854080147,642.6575854080147,642.6575854080147,642.6575854080147,l,1.0088028219761327,10,361,1,643.6919176730153,,645.1935721799964,,,,,,,,,,,,,,,,,,,,,,,,,,,,,,,,,,,,,,,,,,,,,,,,,,,,,,,,,,,,,,,,,,,,,,60300,2022-11-22_08h04.11.743,vts_reward_expectancy_bt_OFFLINE,2022.2.4,60.21672552549697,
0,0,0,1,1,0,0,0,star,triangle,1,0,1,0,1,4,16,9,,,,,,,,,,,,,,,,,,,,,,,,,,,,,,,,,,,,,,,,645.6940030690166,645.6940030690166,645.6940030690166,645.6940030690166,645.6940030690166,645.6940030690166,645.6940030690166,645.6940030690166,645.6940030690166,645.6940030690166,a,0.8419221789808944,10,371,1,646.5616710830072,,648.0633621540037,,,,,,,,,,,,,,,,,,,,,,,,,,,,,,,,,,,,,,,,,,,,,,,,,,,,,,,,,,,,,,,,,,,,,,60300,2022-11-22_08h04.11.743,vts_reward_expectancy_bt_OFFLINE,2022.2.4,60.21672552549697,
0,0,0,1,0,1,0,0,star ,circle,1,0,1,0,1,5,17,10,,,,,,,,,,,,,,,,,,,,,,,,,,,,,,,,,,,,,,,,648.563849558006,648.563849558006,648.563849558006,648.563849558006,648.563849558006,648.563849558006,648.563849558006,648.563849558006,648.563849558006,648.563849558006,l,1.088280974974623,10,381,1,649.6817532760033,,651.183543977997,,,,,,,,,,,,,,,,,,,,,,,,,,,,,,,,,,,,,,,,,,,,,,,,,,,,,,,,,,,,,,,,,,,,,,60300,2022-11-22_08h04.11.743,vts_reward_expectancy_bt_OFFLINE,2022.2.4,60.21672552549697,
0,1,0,0,0,0,0,1,circle,star,1,0,1,0,1,6,18,5,,,,,,,,,,,,,,,,,,,,,,,,,,,,,,,,,,,,,,,,651.6840411089943,651.6840411089943,651.6840411089943,651.6840411089943,651.6840411089943,651.6840411089943,651.6840411089943,651.6840411089943,651.6840411089943,651.6840411089943,a,0.8030134989821818,10,391,1,652.5182770060201,,654.0200604000129,,,,,,,,,,,,,,,,,,,,,,,,,,,,,,,,,,,,,,,,,,,,,,,,,,,,,,,,,,,,,,,,,,,,,,60300,2022-11-22_08h04.11.743,vts_reward_expectancy_bt_OFFLINE,2022.2.4,60.21672552549697,
0,0,0,1,0,0,1,0,star,hexagon,1,0,1,0,1,7,19,11,,,,,,,,,,,,,,,,,,,,,,,,,,,,,,,,,,,,,,,,654.5204826540139,654.5204826540139,654.5204826540139,654.5204826540139,654.5204826540139,654.5204826540139,654.5204826540139,654.5204826540139,654.5204826540139,654.5204826540139,l,1.0508901339781005,1,392,1,655.588505149004,657.0899633390072,657.0899633390072,,,,,,,,,,,,,,,,,,,,,,,,,,,,,,,,,,,,,,,,,,,,,,,,,,,,,,,,,,,,,,,,,,,,,,60300,2022-11-22_08h04.11.743,vts_reward_expectancy_bt_OFFLINE,2022.2.4,60.21672552549697,
0,1,0,0,1,0,0,0,circle,triangle,1,0,1,0,1,8,20,3,,,,,,,,,,,,,,,,,,,,,,,,,,,,,,,,,,,,,,,,657.5907949100074,657.5907949100074,657.5907949100074,657.5907949100074,657.5907949100074,657.5907949100074,657.5907949100074,657.5907949100074,657.5907949100074,657.5907949100074,l,1.0394417939824052,1,393,1,658.6583801740198,,660.1600206879957,,,,,,,,,,,,,,,,,,,,,,,,,,,,,,,,,,,,,,,,,,,,,,,,,,,,,,,,,,,,,,,,,,,,,,60300,2022-11-22_08h04.11.743,vts_reward_expectancy_bt_OFFLINE,2022.2.4,60.21672552549697,
0,0,1,0,0,0,0,1,hexagon,star,1,0,1,0,1,9,21,8,,,,,,,,,,,,,,,,,,,,,,,,,,,,,,,,,,,,,,,,660.6605245360115,660.6605245360115,660.6605245360115,660.6605245360115,660.6605245360115,660.6605245360115,660.6605245360115,660.6605245360115,660.6605245360115,660.6605245360115,a,1.3902676859870553,1,394,1,662.0787928400096,,663.5804609290208,,,,,,,,,,,,,,,,,,,,,,,,,,,,,,,,,,,,,,,,,,,,,,,,,,,,,,,,,,,,,,,,,,,,,,60300,2022-11-22_08h04.11.743,vts_reward_expectancy_bt_OFFLINE,2022.2.4,60.21672552549697,
1,0,0,0,0,0,1,0,triangle,hexagon,1,0,1,0,1,10,22,1,,,,,,,,,,,,,,,,,,,,,,,,,,,,,,,,,,,,,,,,664.0810708659992,664.0810708659992,664.0810708659992,664.0810708659992,664.0810708659992,664.0810708659992,664.0810708659992,664.0810708659992,664.0810708659992,664.0810708659992,a,1.478959115978796,10,404,1,665.5826288580138,,667.0844116710068,,,,,,,,,,,,,,,,,,,,,,,,,,,,,,,,,,,,,,,,,,,,,,,,,,,,,,,,,,,,,,,,,,,,,,60300,2022-11-22_08h04.11.743,vts_reward_expectancy_bt_OFFLINE,2022.2.4,60.21672552549697,
0,1,0,0,0,0,1,0,circle,hexagon,1,0,1,0,1,11,23,4,,,,,,,,,,,,,,,,,,,,,,,,,,,,,,,,,,,,,,,,667.5849214300106,667.5849214300106,667.5849214300106,667.5849214300106,667.5849214300106,667.5849214300106,667.5849214300106,667.5849214300106,667.5849214300106,667.5849214300106,a,0.9118191409797873,1,405,1,668.5195573540113,,670.0210949400207,,,,,,,,,,,,,,,,,,,,,,,,,,,,,,,,,,,,,,,,,,,,,,,,,,,,,,,,,,,,,,,,,,,,,,60300,2022-11-22_08h04.11.743,vts_reward_expectancy_bt_OFFLINE,2022.2.4,60.21672552549697,
0,0,1,0,0,0,0,1,hexagon,star,1,0,1,0,2,0,24,8,,,,,,,,,,,,,,,,,,,,,,,,,,,,,,,,,,,,,,,,670.5215529490088,670.5215529490088,670.5215529490088,670.5215529490088,670.5215529490088,670.5215529490088,670.5215529490088,670.5215529490088,670.5215529490088,670.5215529490088,l,1.3950455549638718,10,415,1,671.9397048780229,,673.4412044500059,,,,,,,,,,,,,,,,,,,,,,,,,,,,,,,,,,,,,,,,,,,,,,,,,,,,,,,,,,,,,,,,,,,,,,60300,2022-11-22_08h04.11.743,vts_reward_expectancy_bt_OFFLINE,2022.2.4,60.21672552549697,
0,0,1,0,1,0,0,0,hexagon,triangle,1,0,1,0,2,1,25,6,,,,,,,,,,,,,,,,,,,,,,,,,,,,,,,,,,,,,,,,673.9419574540225,673.9419574540225,673.9419574540225,673.9419574540225,673.9419574540225,673.9419574540225,673.9419574540225,673.9419574540225,673.9419574540225,673.9419574540225,a,1.3187294409726746,1,416,1,675.293613019021,,676.7950312040048,,,,,,,,,,,,,,,,,,,,,,,,,,,,,,,,,,,,,,,,,,,,,,,,,,,,,,,,,,,,,,,,,,,,,,60300,2022-11-22_08h04.11.743,vts_reward_expectancy_bt_OFFLINE,2022.2.4,60.21672552549697,
0,0,0,1,1,0,0,0,star,triangle,1,0,1,0,2,2,26,9,,,,,,,,,,,,,,,,,,,,,,,,,,,,,,,,,,,,,,,,677.2957740290149,677.2957740290149,677.2957740290149,677.2957740290149,677.2957740290149,677.2957740290149,677.2957740290149,677.2957740290149,677.2957740290149,677.2957740290149,l,1.3846804349741433,1,417,1,678.69717102102,680.1987812940206,680.1987812940206,,,,,,,,,,,,,,,,,,,,,,,,,,,,,,,,,,,,,,,,,,,,,,,,,,,,,,,,,,,,,,,,,,,,,,60300,2022-11-22_08h04.11.743,vts_reward_expectancy_bt_OFFLINE,2022.2.4,60.21672552549697,
1,0,0,0,0,0,0,1,triangle,star,1,0,1,0,2,3,27,2,,,,,,,,,,,,,,,,,,,,,,,,,,,,,,,,,,,,,,,,680.6993127980095,680.6993127980095,680.6993127980095,680.6993127980095,680.6993127980095,680.6993127980095,680.6993127980095,680.6993127980095,680.6993127980095,680.6993127980095,l,0.8704109179961961,10,427,1,681.6004037630046,,683.102210439014,,,,,,,,,,,,,,,,,,,,,,,,,,,,,,,,,,,,,,,,,,,,,,,,,,,,,,,,,,,,,,,,,,,,,,60300,2022-11-22_08h04.11.743,vts_reward_expectancy_bt_OFFLINE,2022.2.4,60.21672552549697,
1,0,0,0,0,1,0,0,triangle,circle,1,0,1,0,2,4,28,0,,,,,,,,,,,,,,,,,,,,,,,,,,,,,,,,,,,,,,,,683.6025703790074,683.6025703790074,683.6025703790074,683.6025703790074,683.6025703790074,683.6025703790074,683.6025703790074,683.6025703790074,683.6025703790074,683.6025703790074,l,1.0958401299722027,1,428,1,684.7204250100185,,686.2221284910047,,,,,,,,,,,,,,,,,,,,,,,,,,,,,,,,,,,,,,,,,,,,,,,,,,,,,,,,,,,,,,,,,,,,,,60300,2022-11-22_08h04.11.743,vts_reward_expectancy_bt_OFFLINE,2022.2.4,60.21672552549697,
0,0,0,1,0,1,0,0,star ,circle,1,0,1,0,2,5,29,10,,,,,,,,,,,,,,,,,,,,,,,,,,,,,,,,,,,,,,,,686.7227226200048,686.7227226200048,686.7227226200048,686.7227226200048,686.7227226200048,686.7227226200048,686.7227226200048,686.7227226200048,686.7227226200048,686.7227226200048,l,1.1486117049935274,10,438,1,687.8908365490206,,689.3922631310124,,,,,,,,,,,,,,,,,,,,,,,,,,,,,,,,,,,,,,,,,,,,,,,,,,,,,,,,,,,,,,,,,,,,,,60300,2022-11-22_08h04.11.743,vts_reward_expectancy_bt_OFFLINE,2022.2.4,60.21672552549697,
0,1,0,0,1,0,0,0,circle,triangle,1,0,1,0,2,6,30,3,,,,,,,,,,,,,,,,,,,,,,,,,,,,,,,,,,,,,,,,689.8928212750179,689.8928212750179,689.8928212750179,689.8928212750179,689.8928212750179,689.8928212750179,689.8928212750179,689.8928212750179,689.8928212750179,689.8928212750179,a,1.0037489699898288,10,448,1,690.9272660209972,,692.4289227600093,,,,,,,,,,,,,,,,,,,,,,,,,,,,,,,,,,,,,,,,,,,,,,,,,,,,,,,,,,,,,,,,,,,,,,60300,2022-11-22_08h04.11.743,vts_reward_expectancy_bt_OFFLINE,2022.2.4,60.21672552549697,
0,0,1,0,0,1,0,0,hexagon,circle,1,0,1,0,2,7,31,7,,,,,,,,,,,,,,,,,,,,,,,,,,,,,,,,,,,,,,,,692.9296166709973,692.9296166709973,692.9296166709973,692.9296166709973,692.9296166709973,692.9296166709973,692.9296166709973,692.9296166709973,692.9296166709973,692.9296166709973,l,1.5788321519794408,10,458,1,694.5314000830112,,696.0329020990175,,,,,,,,,,,,,,,,,,,,,,,,,,,,,,,,,,,,,,,,,,,,,,,,,,,,,,,,,,,,,,,,,,,,,,60300,2022-11-22_08h04.11.743,vts_reward_expectancy_bt_OFFLINE,2022.2.4,60.21672552549697,
0,1,0,0,0,0,0,1,circle,star,1,0,1,0,2,8,32,5,,,,,,,,,,,,,,,,,,,,,,,,,,,,,,,,,,,,,,,,696.533538179996,696.533538179996,696.533538179996,696.533538179996,696.533538179996,696.533538179996,696.533538179996,696.533538179996,696.533538179996,696.533538179996,a,0.8346487369854003,1,459,1,697.3846220300184,698.8863248490088,698.8863248490088,,,,,,,,,,,,,,,,,,,,,,,,,,,,,,,,,,,,,,,,,,,,,,,,,,,,,,,,,,,,,,,,,,,,,,60300,2022-11-22_08h04.11.743,vts_reward_expectancy_bt_OFFLINE,2022.2.4,60.21672552549697,
1,0,0,0,0,0,1,0,triangle,hexagon,1,0,1,0,2,9,33,1,,,,,,,,,,,,,,,,,,,,,,,,,,,,,,,,,,,,,,,,699.3867178410001,699.3867178410001,699.3867178410001,699.3867178410001,699.3867178410001,699.3867178410001,699.3867178410001,699.3867178410001,699.3867178410001,699.3867178410001,l,2.087195043975953,1,460,1,701.5057588490017,,703.0074047330127,,,,,,,,,,,,,,,,,,,,,,,,,,,,,,,,,,,,,,,,,,,,,,,,,,,,,,,,,,,,,,,,,,,,,,60300,2022-11-22_08h04.11.743,vts_reward_expectancy_bt_OFFLINE,2022.2.4,60.21672552549697,
0,0,0,1,0,0,1,0,star,hexagon,1,0,1,0,2,10,34,11,,,,,,,,,,,,,,,,,,,,,,,,,,,,,,,,,,,,,,,,703.5073805110005,703.5073805110005,703.5073805110005,703.5073805110005,703.5073805110005,703.5073805110005,703.5073805110005,703.5073805110005,703.5073805110005,703.5073805110005,a,0.5872453869960736,10,470,1,704.1247477190045,,705.6269808310026,,,,,,,,,,,,,,,,,,,,,,,,,,,,,,,,,,,,,,,,,,,,,,,,,,,,,,,,,,,,,,,,,,,,,,60300,2022-11-22_08h04.11.743,vts_reward_expectancy_bt_OFFLINE,2022.2.4,60.21672552549697,
0,1,0,0,0,0,1,0,circle,hexagon,1,0,1,0,2,11,35,4,,,,,,,,,,,,,,,,,,,,,,,,,,,,,,,,,,,,,,,,706.1273942700063,706.1273942700063,706.1273942700063,706.1273942700063,706.1273942700063,706.1273942700063,706.1273942700063,706.1273942700063,706.1273942700063,706.1273942700063,a,0.7920387210033368,10,480,1,706.9449675299984,,708.4466126050102,,,,,,,,,,,,,,,,,,,,,,,,,,,,,,,,,,,,,,,,,,,,,,,,,,,,,,,,,,,,,,,,,,,,,,60300,2022-11-22_08h04.11.743,vts_reward_expectancy_bt_OFFLINE,2022.2.4,60.21672552549697,
1,0,0,0,0,0,1,0,triangle,hexagon,1,0,1,0,3,0,36,1,,,,,,,,,,,,,,,,,,,,,,,,,,,,,,,,,,,,,,,,708.9473456029955,708.9473456029955,708.9473456029955,708.9473456029955,708.9473456029955,708.9473456029955,708.9473456029955,708.9473456029955,708.9473456029955,708.9473456029955,l,0.6158321499824524,1,481,1,709.5814053500071,,711.0830487100175,,,,,,,,,,,,,,,,,,,,,,,,,,,,,,,,,,,,,,,,,,,,,,,,,,,,,,,,,,,,,,,,,,,,,,60300,2022-11-22_08h04.11.743,vts_reward_expectancy_bt_OFFLINE,2022.2.4,60.21672552549697,
0,0,1,0,0,1,0,0,hexagon,circle,1,0,1,0,3,1,37,7,,,,,,,,,,,,,,,,,,,,,,,,,,,,,,,,,,,,,,,,711.5835806280083,711.5835806280083,711.5835806280083,711.5835806280083,711.5835806280083,711.5835806280083,711.5835806280083,711.5835806280083,711.5835806280083,711.5835806280083,l,0.7585121609736234,10,491,1,712.3676078809949,,713.8692437380087,,,,,,,,,,,,,,,,,,,,,,,,,,,,,,,,,,,,,,,,,,,,,,,,,,,,,,,,,,,,,,,,,,,,,,60300,2022-11-22_08h04.11.743,vts_reward_expectancy_bt_OFFLINE,2022.2.4,60.21672552549697,
0,0,1,0,0,0,0,1,hexagon,star,1,0,1,0,3,2,38,8,,,,,,,,,,,,,,,,,,,,,,,,,,,,,,,,,,,,,,,,714.3698120530171,714.3698120530171,714.3698120530171,714.3698120530171,714.3698120530171,714.3698120530171,714.3698120530171,714.3698120530171,714.3698120530171,714.3698120530171,l,0.6170202959619928,1,492,1,715.0040847079945,716.505437528016,716.505437528016,,,,,,,,,,,,,,,,,,,,,,,,,,,,,,,,,,,,,,,,,,,,,,,,,,,,,,,,,,,,,,,,,,,,,,60300,2022-11-22_08h04.11.743,vts_reward_expectancy_bt_OFFLINE,2022.2.4,60.21672552549697,
1,0,0,0,0,1,0,0,triangle,circle,1,0,1,0,3,3,39,0,,,,,,,,,,,,,,,,,,,,,,,,,,,,,,,,,,,,,,,,717.0061575889995,717.0061575889995,717.0061575889995,717.0061575889995,717.0061575889995,717.0061575889995,717.0061575889995,717.0061575889995,717.0061575889995,717.0061575889995,l,0.6453597779909614,1,493,1,717.6735503330128,,719.1750647480076,,,,,,,,,,,,,,,,,,,,,,,,,,,,,,,,,,,,,,,,,,,,,,,,,,,,,,,,,,,,,,,,,,,,,,60300,2022-11-22_08h04.11.743,vts_reward_expectancy_bt_OFFLINE,2022.2.4,60.21672552549697,
0,1,0,0,0,0,0,1,circle,star,1,0,1,0,3,4,40,5,,,,,,,,,,,,,,,,,,,,,,,,,,,,,,,,,,,,,,,,719.6756453650014,719.6756453650014,719.6756453650014,719.6756453650014,719.6756453650014,719.6756453650014,719.6756453650014,719.6756453650014,719.6756453650014,719.6756453650014,a,0.676252877980005,10,503,1,720.3763968040003,,721.8780947700143,,,,,,,,,,,,,,,,,,,,,,,,,,,,,,,,,,,,,,,,,,,,,,,,,,,,,,,,,,,,,,,,,,,,,,60300,2022-11-22_08h04.11.743,vts_reward_expectancy_bt_OFFLINE,2022.2.4,60.21672552549697,
0,1,0,0,0,0,1,0,circle,hexagon,1,0,1,0,3,5,41,4,,,,,,,,,,,,,,,,,,,,,,,,,,,,,,,,,,,,,,,,722.3786804410047,722.3786804410047,722.3786804410047,722.3786804410047,722.3786804410047,722.3786804410047,722.3786804410047,722.3786804410047,722.3786804410047,722.3786804410047,a,0.6181457009806763,10,513,1,723.0295752960083,,724.5311608000193,,,,,,,,,,,,,,,,,,,,,,,,,,,,,,,,,,,,,,,,,,,,,,,,,,,,,,,,,,,,,,,,,,,,,,60300,2022-11-22_08h04.11.743,vts_reward_expectancy_bt_OFFLINE,2022.2.4,60.21672552549697,
0,0,1,0,1,0,0,0,hexagon,triangle,1,0,1,0,3,6,42,6,,,,,,,,,,,,,,,,,,,,,,,,,,,,,,,,,,,,,,,,725.0316637490178,725.0316637490178,725.0316637490178,725.0316637490178,725.0316637490178,725.0316637490178,725.0316637490178,725.0316637490178,725.0316637490178,725.0316637490178,l,0.7676253609824926,1,514,1,725.8158095389954,727.3174436580157,727.3174436580157,,,,,,,,,,,,,,,,,,,,,,,,,,,,,,,,,,,,,,,,,,,,,,,,,,,,,,,,,,,,,,,,,,,,,,60300,2022-11-22_08h04.11.743,vts_reward_expectancy_bt_OFFLINE,2022.2.4,60.21672552549697,
0,0,0,1,1,0,0,0,star,triangle,1,0,1,0,3,7,43,9,,,,,,,,,,,,,,,,,,,,,,,,,,,,,,,,,,,,,,,,727.818053586001,727.818053586001,727.818053586001,727.818053586001,727.818053586001,727.818053586001,727.818053586001,727.818053586001,727.818053586001,727.818053586001,a,0.6917133679962717,10,524,1,728.5354134940135,,730.0371408850187,,,,,,,,,,,,,,,,,,,,,,,,,,,,,,,,,,,,,,,,,,,,,,,,,,,,,,,,,,,,,,,,,,,,,,60300,2022-11-22_08h04.11.743,vts_reward_expectancy_bt_OFFLINE,2022.2.4,60.21672552549697,
0,1,0,0,1,0,0,0,circle,triangle,1,0,1,0,3,8,44,3,,,,,,,,,,,,,,,,,,,,,,,,,,,,,,,,,,,,,,,,730.5377460760064,730.5377460760064,730.5377460760064,730.5377460760064,730.5377460760064,730.5377460760064,730.5377460760064,730.5377460760064,730.5377460760064,730.5377460760064,a,0.6598409159923904,1,525,1,731.2216683180013,,732.7235106680018,,,,,,,,,,,,,,,,,,,,,,,,,,,,,,,,,,,,,,,,,,,,,,,,,,,,,,,,,,,,,,,,,,,,,,60300,2022-11-22_08h04.11.743,vts_reward_expectancy_bt_OFFLINE,2022.2.4,60.21672552549697,
0,0,0,1,0,1,0,0,star ,circle,1,0,1,0,3,9,45,10,,,,,,,,,,,,,,,,,,,,,,,,,,,,,,,,,,,,,,,,733.2239834690117,733.2239834690117,733.2239834690117,733.2239834690117,733.2239834690117,733.2239834690117,733.2239834690117,733.2239834690117,733.2239834690117,733.2239834690117,l,0.6960771399608348,1,526,1,733.9413452300068,,735.4431119950023,,,,,,,,,,,,,,,,,,,,,,,,,,,,,,,,,,,,,,,,,,,,,,,,,,,,,,,,,,,,,,,,,,,,,,60300,2022-11-22_08h04.11.743,vts_reward_expectancy_bt_OFFLINE,2022.2.4,60.21672552549697,
1,0,0,0,0,0,0,1,triangle,star,1,0,1,0,3,10,46,2,,,,,,,,,,,,,,,,,,,,,,,,,,,,,,,,,,,,,,,,735.9436599890178,735.9436599890178,735.9436599890178,735.9436599890178,735.9436599890178,735.9436599890178,735.9436599890178,735.9436599890178,735.9436599890178,735.9436599890178,l,0.8462082459882367,10,536,1,736.8112808980222,,738.3130956030218,,,,,,,,,,,,,,,,,,,,,,,,,,,,,,,,,,,,,,,,,,,,,,,,,,,,,,,,,,,,,,,,,,,,,,60300,2022-11-22_08h04.11.743,vts_reward_expectancy_bt_OFFLINE,2022.2.4,60.21672552549697,
0,0,0,1,0,0,1,0,star,hexagon,1,0,1,0,3,11,47,11,,,,,,,,,,,,,,,,,,,,,,,,,,,,,,,,,,,,,,,,738.8136059940152,738.8136059940152,738.8136059940152,738.8136059940152,738.8136059940152,738.8136059940152,738.8136059940152,738.8136059940152,738.8136059940152,738.8136059940152,l,1.1837397389754187,10,546,1,740.0148755580012,,741.5166485350055,,,,,,,,,,,,,,,,,,,,,,,,,,,,,,,,,,,,,,,,,,,,,,,,,,,,,,,,,,,,,,,,,,,,,,60300,2022-11-22_08h04.11.743,vts_reward_expectancy_bt_OFFLINE,2022.2.4,60.21672552549697,
0,0,0,1,1,0,0,0,star,triangle,2,0,2,0,0,0,0,9,,,,,,,,,,,,,,,,,,,,,,,,,,,,,,,,,,,,,,,,745.0870519010059,745.0870519010059,745.0870519010059,745.0870519010059,745.0870519010059,745.0870519010059,745.0870519010059,745.0870519010059,745.0870519010059,745.0870519010059,l,1.108537397987675,1,547,2,746.2216588790179,747.7234972490114,747.7234972490114,,,,,,,,,,,,,,,,,,,,,,,,,,,,,,,,,,,,,,,,,,,,,,,,,,,,,,,,,,,,,,,,,,,,,,60300,2022-11-22_08h04.11.743,vts_reward_expectancy_bt_OFFLINE,2022.2.4,60.21672552549697,
0,0,0,1,0,0,1,0,star,hexagon,2,0,2,0,0,1,1,11,,,,,,,,,,,,,,,,,,,,,,,,,,,,,,,,,,,,,,,,748.2237436180003,748.2237436180003,748.2237436180003,748.2237436180003,748.2237436180003,748.2237436180003,748.2237436180003,748.2237436180003,748.2237436180003,748.2237436180003,a,1.20167956998921,10,557,2,749.442110293021,750.9435240760213,750.9435240760213,,,,,,,,,,,,,,,,,,,,,,,,,,,,,,,,,,,,,,,,,,,,,,,,,,,,,,,,,,,,,,,,,,,,,,60300,2022-11-22_08h04.11.743,vts_reward_expectancy_bt_OFFLINE,2022.2.4,60.21672552549697,
0,0,1,0,0,0,0,1,hexagon,star,2,0,2,0,0,2,2,8,,,,,,,,,,,,,,,,,,,,,,,,,,,,,,,,,,,,,,,,751.4440452349954,751.4440452349954,751.4440452349954,751.4440452349954,751.4440452349954,751.4440452349954,751.4440452349954,751.4440452349954,751.4440452349954,751.4440452349954,l,0.8715745089575648,10,567,2,752.3451479799987,,753.8469036600145,,,,,,,,,,,,,,,,,,,,,,,,,,,,,,,,,,,,,,,,,,,,,,,,,,,,,,,,,,,,,,,,,,,,,,60300,2022-11-22_08h04.11.743,vts_reward_expectancy_bt_OFFLINE,2022.2.4,60.21672552549697,
0,0,1,0,1,0,0,0,hexagon,triangle,2,0,2,0,0,3,3,6,,,,,,,,,,,,,,,,,,,,,,,,,,,,,,,,,,,,,,,,754.347198767995,754.347198767995,754.347198767995,754.347198767995,754.347198767995,754.347198767995,754.347198767995,754.347198767995,754.347198767995,754.347198767995,a,0.6465721669665072,1,568,2,755.0148164500133,,756.516439190018,,,,,,,,,,,,,,,,,,,,,,,,,,,,,,,,,,,,,,,,,,,,,,,,,,,,,,,,,,,,,,,,,,,,,,60300,2022-11-22_08h04.11.743,vts_reward_expectancy_bt_OFFLINE,2022.2.4,60.21672552549697,
0,0,1,0,0,1,0,0,hexagon,circle,2,0,2,0,0,4,4,7,,,,,,,,,,,,,,,,,,,,,,,,,,,,,,,,,,,,,,,,757.0168632740097,757.0168632740097,757.0168632740097,757.0168632740097,757.0168632740097,757.0168632740097,757.0168632740097,757.0168632740097,757.0168632740097,757.0168632740097,l,0.9248605099855922,10,578,2,757.9679413500126,,759.4697871149983,,,,,,,,,,,,,,,,,,,,,,,,,,,,,,,,,,,,,,,,,,,,,,,,,,,,,,,,,,,,,,,,,,,,,,60300,2022-11-22_08h04.11.743,vts_reward_expectancy_bt_OFFLINE,2022.2.4,60.21672552549697,
0,0,0,1,0,1,0,0,star ,circle,2,0,2,0,0,5,5,10,,,,,,,,,,,,,,,,,,,,,,,,,,,,,,,,,,,,,,,,759.9701203739969,759.9701203739969,759.9701203739969,759.9701203739969,759.9701203739969,759.9701203739969,759.9701203739969,759.9701203739969,759.9701203739969,759.9701203739969,l,0.9086483260034584,10,588,2,760.9047346379957,,762.406435434008,,,,,,,,,,,,,,,,,,,,,,,,,,,,,,,,,,,,,,,,,,,,,,,,,,,,,,,,,,,,,,,,,,,,,,60300,2022-11-22_08h04.11.743,vts_reward_expectancy_bt_OFFLINE,2022.2.4,60.21672552549697,
0,1,0,0,0,0,0,1,circle,star,2,0,2,0,0,6,6,5,,,,,,,,,,,,,,,,,,,,,,,,,,,,,,,,,,,,,,,,762.9068197400193,762.9068197400193,762.9068197400193,762.9068197400193,762.9068197400193,762.9068197400193,762.9068197400193,762.9068197400193,762.9068197400193,762.9068197400193,a,0.5811500739946496,10,598,2,763.5074196990172,,765.0090664610034,,,,,,,,,,,,,,,,,,,,,,,,,,,,,,,,,,,,,,,,,,,,,,,,,,,,,,,,,,,,,,,,,,,,,,60300,2022-11-22_08h04.11.743,vts_reward_expectancy_bt_OFFLINE,2022.2.4,60.21672552549697,
1,0,0,0,0,0,1,0,triangle,hexagon,2,0,2,0,0,7,7,1,,,,,,,,,,,,,,,,,,,,,,,,,,,,,,,,,,,,,,,,765.5098013259994,765.5098013259994,765.5098013259994,765.5098013259994,765.5098013259994,765.5098013259994,765.5098013259994,765.5098013259994,765.5098013259994,765.5098013259994,a,0.77920861900202,1,599,2,766.310638290015,,767.8121368260181,,,,,,,,,,,,,,,,,,,,,,,,,,,,,,,,,,,,,,,,,,,,,,,,,,,,,,,,,,,,,,,,,,,,,,60300,2022-11-22_08h04.11.743,vts_reward_expectancy_bt_OFFLINE,2022.2.4,60.21672552549697,
1,0,0,0,0,1,0,0,triangle,circle,2,0,2,0,0,8,8,0,,,,,,,,,,,,,,,,,,,,,,,,,,,,,,,,,,,,,,,,768.3126630140177,768.3126630140177,768.3126630140177,768.3126630140177,768.3126630140177,768.3126630140177,768.3126630140177,768.3126630140177,768.3126630140177,768.3126630140177,l,0.6428622559760697,1,600,2,768.9802603340067,,770.4818668240041,,,,,,,,,,,,,,,,,,,,,,,,,,,,,,,,,,,,,,,,,,,,,,,,,,,,,,,,,,,,,,,,,,,,,,60300,2022-11-22_08h04.11.743,vts_reward_expectancy_bt_OFFLINE,2022.2.4,60.21672552549697,
1,0,0,0,0,0,0,1,triangle,star,2,0,2,0,0,9,9,2,,,,,,,,,,,,,,,,,,,,,,,,,,,,,,,,,,,,,,,,770.9823385400232,770.9823385400232,770.9823385400232,770.9823385400232,770.9823385400232,770.9823385400232,770.9823385400232,770.9823385400232,770.9823385400232,770.9823385400232,l,0.797149306978099,1,601,2,771.800040985021,,773.3017335479963,,,,,,,,,,,,,,,,,,,,,,,,,,,,,,,,,,,,,,,,,,,,,,,,,,,,,,,,,,,,,,,,,,,,,,60300,2022-11-22_08h04.11.743,vts_reward_expectancy_bt_OFFLINE,2022.2.4,60.21672552549697,
0,1,0,0,1,0,0,0,circle,triangle,2,0,2,0,0,10,10,3,,,,,,,,,,,,,,,,,,,,,,,,,,,,,,,,,,,,,,,,773.802295704023,773.802295704023,773.802295704023,773.802295704023,773.802295704023,773.802295704023,773.802295704023,773.802295704023,773.802295704023,773.802295704023,a,0.6777219469950069,1,602,2,774.5030659589975,,776.0044508840074,,,,,,,,,,,,,,,,,,,,,,,,,,,,,,,,,,,,,,,,,,,,,,,,,,,,,,,,,,,,,,,,,,,,,,60300,2022-11-22_08h04.11.743,vts_reward_expectancy_bt_OFFLINE,2022.2.4,60.21672552549697,
0,1,0,0,0,0,1,0,circle,hexagon,2,0,2,0,0,11,11,4,,,,,,,,,,,,,,,,,,,,,,,,,,,,,,,,,,,,,,,,776.5051912040217,776.5051912040217,776.5051912040217,776.5051912040217,776.5051912040217,776.5051912040217,776.5051912040217,776.5051912040217,776.5051912040217,776.5051912040217,a,0.6296528609818779,1,603,2,777.1558161040011,,778.6575851039961,,,,,,,,,,,,,,,,,,,,,,,,,,,,,,,,,,,,,,,,,,,,,,,,,,,,,,,,,,,,,,,,,,,,,,60300,2022-11-22_08h04.11.743,vts_reward_expectancy_bt_OFFLINE,2022.2.4,60.21672552549697,
0,1,0,0,1,0,0,0,circle,triangle,2,0,2,0,1,0,12,3,,,,,,,,,,,,,,,,,,,,,,,,,,,,,,,,,,,,,,,,779.1579951050226,779.1579951050226,779.1579951050226,779.1579951050226,779.1579951050226,779.1579951050226,779.1579951050226,779.1579951050226,779.1579951050226,779.1579951050226,a,0.6097304469731171,1,604,2,779.7922166839999,,781.2937483900168,,,,,,,,,,,,,,,,,,,,,,,,,,,,,,,,,,,,,,,,,,,,,,,,,,,,,,,,,,,,,,,,,,,,,,60300,2022-11-22_08h04.11.743,vts_reward_expectancy_bt_OFFLINE,2022.2.4,60.21672552549697,
0,0,0,1,0,0,1,0,star,hexagon,2,0,2,0,1,1,13,11,,,,,,,,,,,,,,,,,,,,,,,,,,,,,,,,,,,,,,,,781.794187780004,781.794187780004,781.794187780004,781.794187780004,781.794187780004,781.794187780004,781.794187780004,781.794187780004,781.794187780004,781.794187780004,a,0.763833391974913,1,605,2,782.5784302160027,,784.0801966639992,,,,,,,,,,,,,,,,,,,,,,,,,,,,,,,,,,,,,,,,,,,,,,,,,,,,,,,,,,,,,,,,,,,,,,60300,2022-11-22_08h04.11.743,vts_reward_expectancy_bt_OFFLINE,2022.2.4,60.21672552549697,
0,0,0,1,0,1,0,0,star ,circle,2,0,2,0,1,2,14,10,,,,,,,,,,,,,,,,,,,,,,,,,,,,,,,,,,,,,,,,784.5805293050071,784.5805293050071,784.5805293050071,784.5805293050071,784.5805293050071,784.5805293050071,784.5805293050071,784.5805293050071,784.5805293050071,784.5805293050071,l,0.8689992339641321,1,606,2,785.4815856399946,,786.9834608010133,,,,,,,,,,,,,,,,,,,,,,,,,,,,,,,,,,,,,,,,,,,,,,,,,,,,,,,,,,,,,,,,,,,,,,60300,2022-11-22_08h04.11.743,vts_reward_expectancy_bt_OFFLINE,2022.2.4,60.21672552549697,
0,0,1,0,0,0,0,1,hexagon,star,2,0,2,0,1,3,15,8,,,,,,,,,,,,,,,,,,,,,,,,,,,,,,,,,,,,,,,,787.483865214017,787.483865214017,787.483865214017,787.483865214017,787.483865214017,787.483865214017,787.483865214017,787.483865214017,787.483865214017,787.483865214017,l,1.9817656659870408,1,607,2,789.4862208550039,,790.9876713530102,,,,,,,,,,,,,,,,,,,,,,,,,,,,,,,,,,,,,,,,,,,,,,,,,,,,,,,,,,,,,,,,,,,,,,60300,2022-11-22_08h04.11.743,vts_reward_expectancy_bt_OFFLINE,2022.2.4,60.21672552549697,
1,0,0,0,0,1,0,0,triangle,circle,2,0,2,0,1,4,16,0,,,,,,,,,,,,,,,,,,,,,,,,,,,,,,,,,,,,,,,,791.4883072550001,791.4883072550001,791.4883072550001,791.4883072550001,791.4883072550001,791.4883072550001,791.4883072550001,791.4883072550001,791.4883072550001,791.4883072550001,l,0.7450974739913363,10,617,2,792.2558157480089,793.7574166050181,793.7574166050181,,,,,,,,,,,,,,,,,,,,,,,,,,,,,,,,,,,,,,,,,,,,,,,,,,,,,,,,,,,,,,,,,,,,,,60300,2022-11-22_08h04.11.743,vts_reward_expectancy_bt_OFFLINE,2022.2.4,60.21672552549697,
1,0,0,0,0,0,0,1,triangle,star,2,0,2,0,1,5,17,2,,,,,,,,,,,,,,,,,,,,,,,,,,,,,,,,,,,,,,,,794.2579738729983,794.2579738729983,794.2579738729983,794.2579738729983,794.2579738729983,794.2579738729983,794.2579738729983,794.2579738729983,794.2579738729983,794.2579738729983,a,1.4524649559753016,10,627,2,795.7429975130071,,797.2446715749975,,,,,,,,,,,,,,,,,,,,,,,,,,,,,,,,,,,,,,,,,,,,,,,,,,,,,,,,,,,,,,,,,,,,,,60300,2022-11-22_08h04.11.743,vts_reward_expectancy_bt_OFFLINE,2022.2.4,60.21672552549697,
0,1,0,0,0,0,1,0,circle,hexagon,2,0,2,0,1,6,18,4,,,,,,,,,,,,,,,,,,,,,,,,,,,,,,,,,,,,,,,,797.7450263140199,797.7450263140199,797.7450263140199,797.7450263140199,797.7450263140199,797.7450263140199,797.7450263140199,797.7450263140199,797.7450263140199,797.7450263140199,a,1.0702252489863895,10,637,2,798.8465131940029,,800.348113162996,,,,,,,,,,,,,,,,,,,,,,,,,,,,,,,,,,,,,,,,,,,,,,,,,,,,,,,,,,,,,,,,,,,,,,60300,2022-11-22_08h04.11.743,vts_reward_expectancy_bt_OFFLINE,2022.2.4,60.21672552549697,
0,0,1,0,1,0,0,0,hexagon,triangle,2,0,2,0,1,7,19,6,,,,,,,,,,,,,,,,,,,,,,,,,,,,,,,,,,,,,,,,800.8487654339988,800.8487654339988,800.8487654339988,800.8487654339988,800.8487654339988,800.8487654339988,800.8487654339988,800.8487654339988,800.8487654339988,800.8487654339988,l,1.308621031959774,1,638,2,802.1833970030129,,803.6851236630173,,,,,,,,,,,,,,,,,,,,,,,,,,,,,,,,,,,,,,,,,,,,,,,,,,,,,,,,,,,,,,,,,,,,,,60300,2022-11-22_08h04.11.743,vts_reward_expectancy_bt_OFFLINE,2022.2.4,60.21672552549697,
0,0,1,0,0,1,0,0,hexagon,circle,2,0,2,0,1,8,20,7,,,,,,,,,,,,,,,,,,,,,,,,,,,,,,,,,,,,,,,,804.185595715011,804.185595715011,804.185595715011,804.185595715011,804.185595715011,804.185595715011,804.185595715011,804.185595715011,804.185595715011,804.185595715011,l,0.7848781669745222,10,648,2,805.0031442400068,,806.504699948011,,,,,,,,,,,,,,,,,,,,,,,,,,,,,,,,,,,,,,,,,,,,,,,,,,,,,,,,,,,,,,,,,,,,,,60300,2022-11-22_08h04.11.743,vts_reward_expectancy_bt_OFFLINE,2022.2.4,60.21672552549697,
0,0,0,1,1,0,0,0,star,triangle,2,0,2,0,1,9,21,9,,,,,,,,,,,,,,,,,,,,,,,,,,,,,,,,,,,,,,,,807.0054130990175,807.0054130990175,807.0054130990175,807.0054130990175,807.0054130990175,807.0054130990175,807.0054130990175,807.0054130990175,807.0054130990175,807.0054130990175,a,0.8883309149823617,1,649,2,807.9231157379982,,809.4246744380216,,,,,,,,,,,,,,,,,,,,,,,,,,,,,,,,,,,,,,,,,,,,,,,,,,,,,,,,,,,,,,,,,,,,,,60300,2022-11-22_08h04.11.743,vts_reward_expectancy_bt_OFFLINE,2022.2.4,60.21672552549697,
1,0,0,0,0,0,1,0,triangle,hexagon,2,0,2,0,1,10,22,1,,,,,,,,,,,,,,,,,,,,,,,,,,,,,,,,,,,,,,,,809.9250791960221,809.9250791960221,809.9250791960221,809.9250791960221,809.9250791960221,809.9250791960221,809.9250791960221,809.9250791960221,809.9250791960221,809.9250791960221,l,1.4027669509814586,10,659,2,811.3600888500223,,812.8618359359971,,,,,,,,,,,,,,,,,,,,,,,,,,,,,,,,,,,,,,,,,,,,,,,,,,,,,,,,,,,,,,,,,,,,,,60300,2022-11-22_08h04.11.743,vts_reward_expectancy_bt_OFFLINE,2022.2.4,60.21672552549697,
0,1,0,0,0,0,0,1,circle,star,2,0,2,0,1,11,23,5,,,,,,,,,,,,,,,,,,,,,,,,,,,,,,,,,,,,,,,,813.36224425002,813.36224425002,813.36224425002,813.36224425002,813.36224425002,813.36224425002,813.36224425002,813.36224425002,813.36224425002,813.36224425002,a,0.8099919570086058,10,669,2,814.1966542550072,,815.6983217060042,,,,,,,,,,,,,,,,,,,,,,,,,,,,,,,,,,,,,,,,,,,,,,,,,,,,,,,,,,,,,,,,,,,,,,60300,2022-11-22_08h04.11.743,vts_reward_expectancy_bt_OFFLINE,2022.2.4,60.21672552549697,
0,0,0,1,0,1,0,0,star ,circle,2,0,2,0,2,0,24,10,,,,,,,,,,,,,,,,,,,,,,,,,,,,,,,,,,,,,,,,816.198988350021,816.198988350021,816.198988350021,816.198988350021,816.198988350021,816.198988350021,816.198988350021,816.198988350021,816.198988350021,816.198988350021,l,1.0785829729866236,10,679,2,817.3000128330023,,818.8018425159971,,,,,,,,,,,,,,,,,,,,,,,,,,,,,,,,,,,,,,,,,,,,,,,,,,,,,,,,,,,,,,,,,,,,,,60300,2022-11-22_08h04.11.743,vts_reward_expectancy_bt_OFFLINE,2022.2.4,60.21672552549697,
0,1,0,0,0,0,0,1,circle,star,2,0,2,0,2,1,25,5,,,,,,,,,,,,,,,,,,,,,,,,,,,,,,,,,,,,,,,,819.3022584540013,819.3022584540013,819.3022584540013,819.3022584540013,819.3022584540013,819.3022584540013,819.3022584540013,819.3022584540013,819.3022584540013,819.3022584540013,a,1.1923695499717724,10,689,2,820.5202516000136,,822.022097366018,,,,,,,,,,,,,,,,,,,,,,,,,,,,,,,,,,,,,,,,,,,,,,,,,,,,,,,,,,,,,,,,,,,,,,60300,2022-11-22_08h04.11.743,vts_reward_expectancy_bt_OFFLINE,2022.2.4,60.21672552549697,
0,0,0,1,0,0,1,0,star,hexagon,2,0,2,0,2,2,26,11,,,,,,,,,,,,,,,,,,,,,,,,,,,,,,,,,,,,,,,,822.5225377909956,822.5225377909956,822.5225377909956,822.5225377909956,822.5225377909956,822.5225377909956,822.5225377909956,822.5225377909956,822.5225377909956,822.5225377909956,a,1.3925367399933748,10,699,2,823.9407324700151,,825.442529751017,,,,,,,,,,,,,,,,,,,,,,,,,,,,,,,,,,,,,,,,,,,,,,,,,,,,,,,,,,,,,,,,,,,,,,60300,2022-11-22_08h04.11.743,vts_reward_expectancy_bt_OFFLINE,2022.2.4,60.21672552549697,
0,0,1,0,0,1,0,0,hexagon,circle,2,0,2,0,2,3,27,7,,,,,,,,,,,,,,,,,,,,,,,,,,,,,,,,,,,,,,,,825.9428783440089,825.9428783440089,825.9428783440089,825.9428783440089,825.9428783440089,825.9428783440089,825.9428783440089,825.9428783440089,825.9428783440089,825.9428783440089,l,0.7630342859774828,1,700,2,826.7269644089974,,828.2290025640104,,,,,,,,,,,,,,,,,,,,,,,,,,,,,,,,,,,,,,,,,,,,,,,,,,,,,,,,,,,,,,,,,,,,,,60300,2022-11-22_08h04.11.743,vts_reward_expectancy_bt_OFFLINE,2022.2.4,60.21672552549697,
0,1,0,0,0,0,1,0,circle,hexagon,2,0,2,0,2,4,28,4,,,,,,,,,,,,,,,,,,,,,,,,,,,,,,,,,,,,,,,,828.7295617390191,828.7295617390191,828.7295617390191,828.7295617390191,828.7295617390191,828.7295617390191,828.7295617390191,828.7295617390191,828.7295617390191,828.7295617390191,l,1.0032986479927786,1,701,2,829.763744513999,,831.2655490949983,,,,,,,,,,,,,,,,,,,,,,,,,,,,,,,,,,,,,,,,,,,,,,,,,,,,,,,,,,,,,,,,,,,,,,60300,2022-11-22_08h04.11.743,vts_reward_expectancy_bt_OFFLINE,2022.2.4,60.21672552549697,
1,0,0,0,0,1,0,0,triangle,circle,2,0,2,0,2,5,29,0,,,,,,,,,,,,,,,,,,,,,,,,,,,,,,,,,,,,,,,,831.7659619580081,831.7659619580081,831.7659619580081,831.7659619580081,831.7659619580081,831.7659619580081,831.7659619580081,831.7659619580081,831.7659619580081,831.7659619580081,a,3.546084214001894,1,702,2,835.3367008159985,,836.8382653839944,,,,,,,,,,,,,,,,,,,,,,,,,,,,,,,,,,,,,,,,,,,,,,,,,,,,,,,,,,,,,,,,,,,,,,60300,2022-11-22_08h04.11.743,vts_reward_expectancy_bt_OFFLINE,2022.2.4,60.21672552549697,
0,1,0,0,1,0,0,0,circle,triangle,2,0,2,0,2,6,30,3,,,,,,,,,,,,,,,,,,,,,,,,,,,,,,,,,,,,,,,,837.3389976730105,837.3389976730105,837.3389976730105,837.3389976730105,837.3389976730105,837.3389976730105,837.3389976730105,837.3389976730105,837.3389976730105,837.3389976730105,a,0.934829053003341,10,712,2,838.3065708250215,,839.8082634010061,,,,,,,,,,,,,,,,,,,,,,,,,,,,,,,,,,,,,,,,,,,,,,,,,,,,,,,,,,,,,,,,,,,,,,60300,2022-11-22_08h04.11.743,vts_reward_expectancy_bt_OFFLINE,2022.2.4,60.21672552549697,
0,0,1,0,1,0,0,0,hexagon,triangle,2,0,2,0,2,7,31,6,,,,,,,,,,,,,,,,,,,,,,,,,,,,,,,,,,,,,,,,840.308733998012,840.308733998012,840.308733998012,840.308733998012,840.308733998012,840.308733998012,840.308733998012,840.308733998012,840.308733998012,840.308733998012,a,1.7665044129826128,10,722,2,842.0942420680076,,843.5959240790107,,,,,,,,,,,,,,,,,,,,,,,,,,,,,,,,,,,,,,,,,,,,,,,,,,,,,,,,,,,,,,,,,,,,,,60300,2022-11-22_08h04.11.743,vts_reward_expectancy_bt_OFFLINE,2022.2.4,60.21672552549697,
1,0,0,0,0,0,1,0,triangle,hexagon,2,0,2,0,2,8,32,1,,,,,,,,,,,,,,,,,,,,,,,,,,,,,,,,,,,,,,,,844.0965291309985,844.0965291309985,844.0965291309985,844.0965291309985,844.0965291309985,844.0965291309985,844.0965291309985,844.0965291309985,844.0965291309985,844.0965291309985,a,1.6026758769876324,1,723,2,845.7314850389957,,847.2330715130083,,,,,,,,,,,,,,,,,,,,,,,,,,,,,,,,,,,,,,,,,,,,,,,,,,,,,,,,,,,,,,,,,,,,,,60300,2022-11-22_08h04.11.743,vts_reward_expectancy_bt_OFFLINE,2022.2.4,60.21672552549697,
0,0,0,1,1,0,0,0,star,triangle,2,0,2,0,2,9,33,9,,,,,,,,,,,,,,,,,,,,,,,,,,,,,,,,,,,,,,,,847.7338013960107,847.7338013960107,847.7338013960107,847.7338013960107,847.7338013960107,847.7338013960107,847.7338013960107,847.7338013960107,847.7338013960107,847.7338013960107,a,0.8205161179648712,10,733,2,848.584717478021,,850.0862180110125,,,,,,,,,,,,,,,,,,,,,,,,,,,,,,,,,,,,,,,,,,,,,,,,,,,,,,,,,,,,,,,,,,,,,,60300,2022-11-22_08h04.11.743,vts_reward_expectancy_bt_OFFLINE,2022.2.4,60.21672552549697,
1,0,0,0,0,0,0,1,triangle,star,2,0,2,0,2,10,34,2,,,,,,,,,,,,,,,,,,,,,,,,,,,,,,,,,,,,,,,,850.5867443510215,850.5867443510215,850.5867443510215,850.5867443510215,850.5867443510215,850.5867443510215,850.5867443510215,850.5867443510215,850.5867443510215,850.5867443510215,l,0.7361636129789986,10,743,2,851.3545232260076,,852.85617495302,,,,,,,,,,,,,,,,,,,,,,,,,,,,,,,,,,,,,,,,,,,,,,,,,,,,,,,,,,,,,,,,,,,,,,60300,2022-11-22_08h04.11.743,vts_reward_expectancy_bt_OFFLINE,2022.2.4,60.21672552549697,
0,0,1,0,0,0,0,1,hexagon,star,2,0,2,0,2,11,35,8,,,,,,,,,,,,,,,,,,,,,,,,,,,,,,,,,,,,,,,,853.3565752610157,853.3565752610157,853.3565752610157,853.3565752610157,853.3565752610157,853.3565752610157,853.3565752610157,853.3565752610157,853.3565752610157,853.3565752610157,l,1.2625788509903941,10,753,2,854.641295494017,,856.1430236379965,,,,,,,,,,,,,,,,,,,,,,,,,,,,,,,,,,,,,,,,,,,,,,,,,,,,,,,,,,,,,,,,,,,,,,60300,2022-11-22_08h04.11.743,vts_reward_expectancy_bt_OFFLINE,2022.2.4,60.21672552549697,
0,0,0,1,0,0,1,0,star,hexagon,2,0,2,0,3,0,36,11,,,,,,,,,,,,,,,,,,,,,,,,,,,,,,,,,,,,,,,,856.6434407659981,856.6434407659981,856.6434407659981,856.6434407659981,856.6434407659981,856.6434407659981,856.6434407659981,856.6434407659981,856.6434407659981,856.6434407659981,a,1.0135650859738234,1,754,2,857.6782946110179,,859.1795490780205,,,,,,,,,,,,,,,,,,,,,,,,,,,,,,,,,,,,,,,,,,,,,,,,,,,,,,,,,,,,,,,,,,,,,,60300,2022-11-22_08h04.11.743,vts_reward_expectancy_bt_OFFLINE,2022.2.4,60.21672552549697,
0,0,1,0,0,0,0,1,hexagon,star,2,0,2,0,3,1,37,8,,,,,,,,,,,,,,,,,,,,,,,,,,,,,,,,,,,,,,,,859.6801447780163,859.6801447780163,859.6801447780163,859.6801447780163,859.6801447780163,859.6801447780163,859.6801447780163,859.6801447780163,859.6801447780163,859.6801447780163,l,0.8448263769969344,1,755,2,860.5479763339972,,862.0495274690038,,,,,,,,,,,,,,,,,,,,,,,,,,,,,,,,,,,,,,,,,,,,,,,,,,,,,,,,,,,,,,,,,,,,,,60300,2022-11-22_08h04.11.743,vts_reward_expectancy_bt_OFFLINE,2022.2.4,60.21672552549697,
0,0,0,1,1,0,0,0,star,triangle,2,0,2,0,3,2,38,9,,,,,,,,,,,,,,,,,,,,,,,,,,,,,,,,,,,,,,,,862.5501113710052,862.5501113710052,862.5501113710052,862.5501113710052,862.5501113710052,862.5501113710052,862.5501113710052,862.5501113710052,862.5501113710052,862.5501113710052,a,0.7096771979704499,10,765,2,863.2844965560071,,864.7858288480202,,,,,,,,,,,,,,,,,,,,,,,,,,,,,,,,,,,,,,,,,,,,,,,,,,,,,,,,,,,,,,,,,,,,,,60300,2022-11-22_08h04.11.743,vts_reward_expectancy_bt_OFFLINE,2022.2.4,60.21672552549697,
0,0,1,0,0,1,0,0,hexagon,circle,2,0,2,0,3,3,39,7,,,,,,,,,,,,,,,,,,,,,,,,,,,,,,,,,,,,,,,,865.2864298630157,865.2864298630157,865.2864298630157,865.2864298630157,865.2864298630157,865.2864298630157,865.2864298630157,865.2864298630157,865.2864298630157,865.2864298630157,l,0.8191309769754298,10,775,2,866.1374911630119,,867.6390752090083,,,,,,,,,,,,,,,,,,,,,,,,,,,,,,,,,,,,,,,,,,,,,,,,,,,,,,,,,,,,,,,,,,,,,,60300,2022-11-22_08h04.11.743,vts_reward_expectancy_bt_OFFLINE,2022.2.4,60.21672552549697,
0,0,0,1,0,1,0,0,star ,circle,2,0,2,0,3,4,40,10,,,,,,,,,,,,,,,,,,,,,,,,,,,,,,,,,,,,,,,,868.1397573200229,868.1397573200229,868.1397573200229,868.1397573200229,868.1397573200229,868.1397573200229,868.1397573200229,868.1397573200229,868.1397573200229,868.1397573200229,l,1.1737300399981905,1,776,2,869.341417388001,,870.8424377909978,,,,,,,,,,,,,,,,,,,,,,,,,,,,,,,,,,,,,,,,,,,,,,,,,,,,,,,,,,,,,,,,,,,,,,60300,2022-11-22_08h04.11.743,vts_reward_expectancy_bt_OFFLINE,2022.2.4,60.21672552549697,
0,0,1,0,1,0,0,0,hexagon,triangle,2,0,2,0,3,5,41,6,,,,,,,,,,,,,,,,,,,,,,,,,,,,,,,,,,,,,,,,871.3430309249961,871.3430309249961,871.3430309249961,871.3430309249961,871.3430309249961,871.3430309249961,871.3430309249961,871.3430309249961,871.3430309249961,871.3430309249961,l,1.277281131973723,1,777,2,872.64466536502,874.1462980350188,874.1462980350188,,,,,,,,,,,,,,,,,,,,,,,,,,,,,,,,,,,,,,,,,,,,,,,,,,,,,,,,,,,,,,,,,,,,,,60300,2022-11-22_08h04.11.743,vts_reward_expectancy_bt_OFFLINE,2022.2.4,60.21672552549697,
0,1,0,0,0,0,0,1,circle,star,2,0,2,0,3,6,42,5,,,,,,,,,,,,,,,,,,,,,,,,,,,,,,,,,,,,,,,,874.6466854409955,874.6466854409955,874.6466854409955,874.6466854409955,874.6466854409955,874.6466854409955,874.6466854409955,874.6466854409955,874.6466854409955,874.6466854409955,a,1.0015554929559585,1,778,2,875.664555543015,877.1658512639988,877.1658512639988,877.6665555380168,,,,,,,,,,,,,,,,,,,,,,,,,,,,,,,,,,,,,,,,,,,,,,,,,,,,,,,,,,,,,,,,,,,,,60300,2022-11-22_08h04.11.743,vts_reward_expectancy_bt_OFFLINE,2022.2.4,60.21672552549697,
0,1,0,0,0,0,1,0,circle,hexagon,2,0,2,0,3,7,43,4,,,,,,,,,,,,,,,,,,,,,,,,,,,,,,,,,,,,,,,,877.6665555380168,877.6665555380168,877.6665555380168,877.6665555380168,877.6665555380168,877.6665555380168,877.6665555380168,877.6665555380168,877.6665555380168,877.6665555380168,a,0.9517463230004068,10,788,2,878.6511384240002,,880.152692283009,,,,,,,,,,,,,,,,,,,,,,,,,,,,,,,,,,,,,,,,,,,,,,,,,,,,,,,,,,,,,,,,,,,,,,60300,2022-11-22_08h04.11.743,vts_reward_expectancy_bt_OFFLINE,2022.2.4,60.21672552549697,
1,0,0,0,0,0,0,1,triangle,star,2,0,2,0,3,8,44,2,,,,,,,,,,,,,,,,,,,,,,,,,,,,,,,,,,,,,,,,880.6532032450195,880.6532032450195,880.6532032450195,880.6532032450195,880.6532032450195,880.6532032450195,880.6532032450195,880.6532032450195,880.6532032450195,880.6532032450195,l,1.4523612189805135,10,798,2,882.1382636800117,,883.6400359700201,,,,,,,,,,,,,,,,,,,,,,,,,,,,,,,,,,,,,,,,,,,,,,,,,,,,,,,,,,,,,,,,,,,,,,60300,2022-11-22_08h04.11.743,vts_reward_expectancy_bt_OFFLINE,2022.2.4,60.21672552549697,
1,0,0,0,0,0,1,0,triangle,hexagon,2,0,2,0,3,9,45,1,,,,,,,,,,,,,,,,,,,,,,,,,,,,,,,,,,,,,,,,884.1405365760147,884.1405365760147,884.1405365760147,884.1405365760147,884.1405365760147,884.1405365760147,884.1405365760147,884.1405365760147,884.1405365760147,884.1405365760147,a,1.1490818789752666,10,808,2,885.3085679560027,,886.810148605,,,,,,,,,,,,,,,,,,,,,,,,,,,,,,,,,,,,,,,,,,,,,,,,,,,,,,,,,,,,,,,,,,,,,,60300,2022-11-22_08h04.11.743,vts_reward_expectancy_bt_OFFLINE,2022.2.4,60.21672552549697,
0,1,0,0,1,0,0,0,circle,triangle,2,0,2,0,3,10,46,3,,,,,,,,,,,,,,,,,,,,,,,,,,,,,,,,,,,,,,,,887.3106626890076,887.3106626890076,887.3106626890076,887.3106626890076,887.3106626890076,887.3106626890076,887.3106626890076,887.3106626890076,887.3106626890076,887.3106626890076,l,1.3650093059695791,1,809,2,888.6958622840175,,890.1973912490066,,,,,,,,,,,,,,,,,,,,,,,,,,,,,,,,,,,,,,,,,,,,,,,,,,,,,,,,,,,,,,,,,,,,,,60300,2022-11-22_08h04.11.743,vts_reward_expectancy_bt_OFFLINE,2022.2.4,60.21672552549697,
1,0,0,0,0,1,0,0,triangle,circle,2,0,2,0,3,11,47,0,,,,,,,,,,,,,,,,,,,,,,,,,,,,,,,,,,,,,,,,890.6979382279969,890.6979382279969,890.6979382279969,890.6979382279969,890.6979382279969,890.6979382279969,890.6979382279969,890.6979382279969,890.6979382279969,890.6979382279969,l,0.7113871539768297,10,819,2,891.4323437809944,,892.933471168013,,,,,,,,,,,,,,,,,,,,,,,,,,,,,,,,,,,,,,,,,,,,,,,,,,,,,,,,,,,,,,,,,,,,,,60300,2022-11-22_08h04.11.743,vts_reward_expectancy_bt_OFFLINE,2022.2.4,60.21672552549697,
,,,,,,,,,,,,,,,,,,0,0,0,0,0,0,0,0,,,,,,,,,,,,,,,,,,,,,,,,,,,,,,,,,,,,,,,,,,,,,,,,,962.5771955590171,963.0778228300042,D,167,hexagon,0.002034133009146899,956.5714398389973,958.0720870750083,958.0720870750083,958.0720870750083,961.0753367480065,961.0753367480065,961.0753367480065,961.0753367480065,0,0,None,0,961.0753367480065,962.5771955590171,,,,,,,,,,,,,,,,,,,,,,,,,,,,,,,,,,,,,,,,,,,,,,,,,,,60300,2022-11-22_08h04.11.743,vts_reward_expectancy_bt_OFFLINE,2022.2.4,60.21672552549697,
,,,,,,,,,,,,,,,,,,0,0,0,0,1,0,1,0,,,,,,,,,,,,,,,,,,,,,,,,,,,,,,,,,,,,,,,,,,,,,,,,,967.3323884640122,,Y,125,triangle,0.009113575011724606,963.5782811100071,965.0798666510091,965.0798666510091,965.0798666510091,,,,,1,1,f,0,965.8475212659978,,0.7317762589664198,,,,,,,,,,,,,,,,,,,,,,,,,,,,,,,,,,,,,,,,,,,,,,,,,,60300,2022-11-22_08h04.11.743,vts_reward_expectancy_bt_OFFLINE,2022.2.4,60.21672552549697,
,,,,,,,,,,,,,,,,,,0,0,0,0,2,0,2,0,,,,,,,,,,,,,,,,,,,,,,,,,,,,,,,,,,,,,,,,,,,,,,,,,971.9539912960026,,F,146,star,0.0012610999983735383,968.3167735800089,969.8185031080211,969.8185031080211,969.8185031080211,,,,,1,0,d,0,970.4525493490219,,0.6065387499693315,,,,,,,,,,,,,,,,,,,,,,,,,,,,,,,,,,,,,,,,,,,,,,,,,,60300,2022-11-22_08h04.11.743,vts_reward_expectancy_bt_OFFLINE,2022.2.4,60.21672552549697,
,,,,,,,,,,,,,,,,,,0,0,0,0,3,0,3,0,,,,,,,,,,,,,,,,,,,,,,,,,,,,,,,,,,,,,,,,,,,,,,,,,976.5924021429964,,S,139,circle,0.0011009360023308545,972.9387870840146,974.4402578250156,974.4402578250156,974.4402578250156,,,,,1,0,f,0,975.0909739900089,,0.629588158975821,,,,,,,,,,,,,,,,,,,,,,,,,,,,,,,,,,,,,,,,,,,,,,,,,,60300,2022-11-22_08h04.11.743,vts_reward_expectancy_bt_OFFLINE,2022.2.4,60.21672552549697,
,,,,,,,,,,,,,,,,,,0,0,0,0,4,0,4,0,,,,,,,,,,,,,,,,,,,,,,,,,,,,,,,,,,,,,,,,,,,,,,,,,981.431335027999,,H,181,triangle,0.0016062860086094588,977.5770539359946,979.0787393360224,979.0787393360224,979.0787393360224,,,,,1,0,d,0,979.9295000340207,,0.8181999889784493,,,,,,,,,,,,,,,,,,,,,,,,,,,,,,,,,,,,,,,,,,,,,,,,,,60300,2022-11-22_08h04.11.743,vts_reward_expectancy_bt_OFFLINE,2022.2.4,60.21672552549697,
,,,,,,,,,,,,,,,,,,0,0,0,0,5,0,5,0,,,,,,,,,,,,,,,,,,,,,,,,,,,,,,,,,,,,,,,,,,,,,,,,,986.1198674560001,,B,132,hexagon,0.0012439690181054175,982.4157206450182,983.9171734690026,983.9171734690026,983.9171734690026,,,,,1,0,d,0,984.6181561760022,,0.6706988539663143,,,,,,,,,,,,,,,,,,,,,,,,,,,,,,,,,,,,,,,,,,,,,,,,,,60300,2022-11-22_08h04.11.743,vts_reward_expectancy_bt_OFFLINE,2022.2.4,60.21672552549697,
,,,,,,,,,,,,,,,,,,0,0,0,0,6,0,6,0,,,,,,,,,,,,,,,,,,,,,,,,,,,,,,,,,,,,,,,,,,,,,,,,,990.824742368015,,W,160,star,0.0010605460265651345,987.1040342049964,988.6057314590144,988.6057314590144,988.6057314590144,,,,,1,0,f,0,989.3231223910116,,0.6970926799986046,,,,,,,,,,,,,,,,,,,,,,,,,,,,,,,,,,,,,,,,,,,,,,,,,,60300,2022-11-22_08h04.11.743,vts_reward_expectancy_bt_OFFLINE,2022.2.4,60.21672552549697,
,,,,,,,,,,,,,,,,,,0,0,0,0,7,0,7,0,,,,,,,,,,,,,,,,,,,,,,,,,,,,,,,,,,,,,,,,,,,,,,,,,995.980496011005,,U,174,circle,0.001471419003792107,991.8093753590074,993.3109989229997,993.3109989229997,993.3109989229997,,,,,1,0,f,0,994.4788129010121,,1.1447562299726997,,,,,,,,,,,,,,,,,,,,,,,,,,,,,,,,,,,,,,,,,,,,,,,,,,60300,2022-11-22_08h04.11.743,vts_reward_expectancy_bt_OFFLINE,2022.2.4,60.21672552549697,
,,,,,,,,,,,,,,,,,,0,0,0,0,8,0,8,0,,,,,,,,,,,,,,,,,,,,,,,,,,,,,,,,,,,,,,,,,,,,,,,,,1000.7024504860165,,D,167,triangle,0.001155479985754937,996.9651987440011,998.466830682999,998.466830682999,998.466830682999,,,,,1,0,d,0,999.2008270189981,,0.7146662209706847,,,,,,,,,,,,,,,,,,,,,,,,,,,,,,,,,,,,,,,,,,,,,,,,,,60300,2022-11-22_08h04.11.743,vts_reward_expectancy_bt_OFFLINE,2022.2.4,60.21672552549697,
,,,,,,,,,,,,,,,,,,0,0,0,0,9,0,9,0,,,,,,,,,,,,,,,,,,,,,,,,,,,,,,,,,,,,,,,,,,,,,,,,,1005.3240851340233,,Y,125,star,0.0011327440151944757,1001.6869185900141,1003.1884249260183,1003.1884249260183,1003.1884249260183,,,,,1,0,f,0,1003.8223907110223,,0.606566364003811,,,,,,,,,,,,,,,,,,,,,,,,,,,,,,,,,,,,,,,,,,,,,,,,,,60300,2022-11-22_08h04.11.743,vts_reward_expectancy_bt_OFFLINE,2022.2.4,60.21672552549697,
,,,,,,,,,,,,,,,,,,,,,,,,,,0,0,0,0,0,0,0,0,,,,,,,,,,,,,,,,,,,,,,,,,,,,,,,,,,,,,,,,,1026.8814524210175,,S,160,triangle,0.0023175049864221364,,,,,,,,,1,0,,1,1025.3796252540196,1026.8814524210175,,1023.2941282980028,1024.7956265810062,1024.7956265810062,1024.7956265810062,k,0.5676712579734158,,,,,,,,,,,,,,,,,,,,,,,,,,,,,,,,,,,,,,,,,,,,60300,2022-11-22_08h04.11.743,vts_reward_expectancy_bt_OFFLINE,2022.2.4,60.21672552549697,
,,,,,,,,,,,,,,,,,,,,,,,,,,0,0,0,0,1,0,1,0,,,,,,,,,,,,,,,,,,,,,,,,,,,,,,,,,,,,,,,,,1031.4030983240227,,U,174,circle,0.000641338003333658,,,,,,,,,1,0,,1,1029.9013877840189,,,1027.865968438011,1029.3677629909944,1029.3677629909944,1029.3677629909944,k,0.5065589299774729,,,,,,,,,,,,,,,,,,,,,,,,,,,,,,,,,,,,,,,,,,,,60300,2022-11-22_08h04.11.743,vts_reward_expectancy_bt_OFFLINE,2022.2.4,60.21672552549697,
,,,,,,,,,,,,,,,,,,,,,,,,,,0,0,0,0,2,0,2,0,,,,,,,,,,,,,,,,,,,,,,,,,,,,,,,,,,,,,,,,,1036.4586685709946,,H,181,hexagon,0.0011885429848916829,,,,,,,,,1,0,,1,1034.9568273879995,,,1032.3873287280148,1033.8889127360017,1033.8889127360017,1033.8889127360017,k,1.0470513929612935,,,,,,,,,,,,,,,,,,,,,,,,,,,,,,,,,,,,,,,,,,,,60300,2022-11-22_08h04.11.743,vts_reward_expectancy_bt_OFFLINE,2022.2.4,60.21672552549697,
,,,,,,,,,,,,,,,,,,,,,,,,,,0,0,0,0,3,0,3,0,,,,,,,,,,,,,,,,,,,,,,,,,,,,,,,,,,,,,,,,,1040.9303299230232,,D,139,star,0.0012198780023027211,,,,,,,,,1,0,,1,1039.4285018380033,,,1037.4432325430098,1038.9448048380145,1038.9448048380145,1038.9448048380145,j,0.45803981597418897,,,,,,,,,,,,,,,,,,,,,,,,,,,,,,,,,,,,,,,,,,,,60300,2022-11-22_08h04.11.743,vts_reward_expectancy_bt_OFFLINE,2022.2.4,60.21672552549697,
,,,,,,,,,,,,,,,,,,,,,,,,,,0,0,0,0,4,0,4,0,,,,,,,,,,,,,,,,,,,,,,,,,,,,,,,,,,,,,,,,,1045.3684952540207,,W,125,hexagon,0.0012781819968950003,,,,,,,,,1,0,,1,1043.866798365023,,,1041.9146428060194,1043.4164295340015,1043.4164295340015,1043.4164295340015,j,0.42966232099570334,,,,,,,,,,,,,,,,,,,,,,,,,,,,,,,,,,,,,,,,,,,,60300,2022-11-22_08h04.11.743,vts_reward_expectancy_bt_OFFLINE,2022.2.4,60.21672552549697,
,,,,,,,,,,,,,,,,,,,,,,,,,,0,0,0,0,5,0,5,0,,,,,,,,,,,,,,,,,,,,,,,,,,,,,,,,,,,,,,,,,1050.4574695549964,,B,146,circle,0.0013228399911895394,,,,,,,,,1,0,,1,1048.9555319760111,,,1046.3526890600042,1047.8546507200226,1047.8546507200226,1047.8546507200226,j,1.0767775729764253,,,,,,,,,,,,,,,,,,,,,,,,,,,,,,,,,,,,,,,,,,,,60300,2022-11-22_08h04.11.743,vts_reward_expectancy_bt_OFFLINE,2022.2.4,60.21672552549697,
,,,,,,,,,,,,,,,,,,,,,,,,,,0,0,0,0,6,0,6,0,,,,,,,,,,,,,,,,,,,,,,,,,,,,,,,,,,,,,,,,,1054.9789544540108,,Y,132,star,0.0012793880014214665,,,,,,,,,1,0,,1,1053.4772481060063,,,1051.441788156022,1052.94331955901,1052.94331955901,1052.94331955901,j,0.5118935960053932,,,,,,,,,,,,,,,,,,,,,,,,,,,,,,,,,,,,,,,,,,,,60300,2022-11-22_08h04.11.743,vts_reward_expectancy_bt_OFFLINE,2022.2.4,60.21672552549697,
,,,,,,,,,,,,,,,,,,,,,,,,,,0,0,0,0,7,0,7,0,,,,,,,,,,,,,,,,,,,,,,,,,,,,,,,,,,,,,,,,,1059.684180833021,,F,167,triangle,0.0015044900064822286,,,,,,,,,1,0,,1,1058.1826111300034,,,1055.9633772100206,1057.4652223160083,1057.4652223160083,1057.4652223160083,k,0.6918417439737823,,,,,,,,,,,,,,,,,,,,,,,,,,,,,,,,,,,,,,,,,,,,60300,2022-11-22_08h04.11.743,vts_reward_expectancy_bt_OFFLINE,2022.2.4,60.21672552549697,
,,,,,,,,,,,,,,,,,,,,,,,,,,0,0,0,0,8,0,8,0,,,,,,,,,,,,,,,,,,,,,,,,,,,,,,,,,,,,,,,,,1064.2225342800084,,S,160,star,0.0013392670080065727,,,,,,,,,1,0,,1,1062.7210616850061,,,1060.668754659011,1062.1703915749968,1062.1703915749968,1062.1703915749968,k,0.5205551839899272,,,,,,,,,,,,,,,,,,,,,,,,,,,,,,,,,,,,,,,,,,,,60300,2022-11-22_08h04.11.743,vts_reward_expectancy_bt_OFFLINE,2022.2.4,60.21672552549697,
,,,,,,,,,,,,,,,,,,,,,,,,,,0,0,0,0,9,0,9,0,,,,,,,,,,,,,,,,,,,,,,,,,,,,,,,,,,,,,,,,,1068.7608178240189,,U,174,hexagon,0.0012506649945862591,,,,,,,,,1,0,,1,1067.2591413760092,,,1065.206985308003,1066.7087787930213,1066.7087787930213,1066.7087787930213,k,0.5287394659826532,,,,,,,,,,,,,,,,,,,,,,,,,,,,,,,,,,,,,,,,,,,,60300,2022-11-22_08h04.11.743,vts_reward_expectancy_bt_OFFLINE,2022.2.4,60.21672552549697,
,,,,,,,,,,,,,,,,,,,,,,,,,,,,,,,,,,0,0,0,0,0,0,0,0,,,,,,,,,,,,,,,,,,,,,,,,,,,,0,819,,,,1096.057733801019,,S,174,hexagon,0.002188029990065843,,,,,,,,,1,0,,2,,,,,,,,,,1091.7695530100027,1091.7695530100027,1091.7695530100027,1091.7695530100027,1093.2546579930058,1093.2546579930058,1093.2546579930058,1093.2546579930058,1093.271038299019,1093.271038299019,1093.271038299019,1093.271038299019,-1,letter,NA,f,1.2663205130083952,vtsPrac,1094.555848620017,,,,,,,,,,,,,,,,,,,,,,,,,60300,2022-11-22_08h04.11.743,vts_reward_expectancy_bt_OFFLINE,2022.2.4,60.21672552549697,
,,,,,,,,,,,,,,,,,,,,,,,,,,,,,,,,,,0,0,0,0,1,0,1,0,,,,,,,,,,,,,,,,,,,,,,,,,,,,0,819,,,,1100.9128915890178,,D,125,triangle,0.0005805499968118966,,,,,,,,,1,0,,2,,,,,,,,,,1097.0260914200044,1097.0260914200044,1097.0260914200044,1097.0260914200044,1098.5270162890083,1098.5270162890083,1098.5270162890083,1098.5270162890083,1098.5270162890083,1098.5270162890083,1098.5270162890083,1098.5270162890083,repeat,letter,lettRpt,d,0.8531169799680356,vtsPrac,1099.4113988979952,1100.9128915890178,,,,,,,,,,,,,,,,,,,,,,,,60300,2022-11-22_08h04.11.743,vts_reward_expectancy_bt_OFFLINE,2022.2.4,60.21672552549697,
,,,,,,,,,,,,,,,,,,,,,,,,,,,,,,,,,,0,0,0,0,2,0,2,0,,,,,,,,,,,,,,,,,,,,,,,,,,,,0,819,,,,1105.6515239750152,,B,167,triangle,0.0012578520108945668,,,,,,,,,1,0,,2,,,,,,,,,,1101.8974133400188,1101.8974133400188,1101.8974133400188,1101.8974133400188,1103.3992599500052,1103.3992599500052,1103.3992599500052,1103.3992599500052,1103.3992599500052,1103.3992599500052,1103.3992599500052,1103.3992599500052,repeat,letter,lettRpt,d,0.7185409739904571,vtsPrac,1104.1498636530014,,,,,,,,,,,,,,,,,,,,,,,,,60300,2022-11-22_08h04.11.743,vts_reward_expectancy_bt_OFFLINE,2022.2.4,60.21672552549697,
,,,,,,,,,,,,,,,,,,,,,,,,,,,,,,,,,,0,0,0,0,3,0,3,0,,,,,,,,,,,,,,,,,,,,,,,,,,,,0,819,,,,1111.2076584350143,,H,160,star,0.0011541550047695637,,,,,,,,,0,0,,2,,,,,,,,,,1106.6367330180074,1106.6367330180074,1106.6367330180074,1106.6367330180074,1108.1377502700198,1108.1377502700198,1108.1377502700198,1108.1377502700198,1108.1377502700198,1108.1377502700198,1108.1377502700198,1108.1377502700198,switch,number,NA,j,1.5372268219653051,vtsPrac,1109.7228958549968,,,,,,,,,,,,,,,,,,,,,,,,,60300,2022-11-22_08h04.11.743,vts_reward_expectancy_bt_OFFLINE,2022.2.4,60.21672552549697,
,,,,,,,,,,,,,,,,,,,,,,,,,,,,,,,,,,0,0,0,0,4,0,4,0,,,,,,,,,,,,,,,,,,,,,,,,,,,,0,819,,,,1116.4301085690095,,S,174,hexagon,0.0013249269977677613,,,,,,,,,1,1,,2,,,,,,,,,,1112.1923170460213,1112.1923170460213,1112.1923170460213,1112.1923170460213,1113.6939121530158,1113.6939121530158,1113.6939121530158,1113.6939121530158,1113.6939121530158,1113.6939121530158,1113.6939121530158,1113.6939121530158,switch,letter,lettSwt,f,1.2022761269763578,vtsPrac,1114.9285035950015,,,,,,,,,,,,,,,,,,,,,,,,,60300,2022-11-22_08h04.11.743,vts_reward_expectancy_bt_OFFLINE,2022.2.4,60.21672552549697,
,,,,,,,,,,,,,,,,,,,,,,,,,,,,,,,,,,0,0,0,0,5,0,5,0,,,,,,,,,,,,,,,,,,,,,,,,,,,,0,819,,,,1120.9852121300064,,D,125,star,0.0011109199840575457,,,,,,,,,1,0,,2,,,,,,,,,,1117.414511445997,1117.414511445997,1117.414511445997,1117.414511445997,1118.9164433499973,1118.9164433499973,1118.9164433499973,1118.9164433499973,1118.9164433499973,1118.9164433499973,1118.9164433499973,1118.9164433499973,switch,number,numSwt,j,0.5471170769887976,vtsPrac,1119.4835265699949,,,,,,,,,,,,,,,,,,,,,,,,,60300,2022-11-22_08h04.11.743,vts_reward_expectancy_bt_OFFLINE,2022.2.4,60.21672552549697,
,,,,,,,,,,,,,,,,,,,,,,,,,,,,,,,,,,0,0,0,0,6,0,6,0,,,,,,,,,,,,,,,,,,,,,,,,,,,,0,819,,,,1125.790486145008,,B,167,star,0.0013413620181381702,,,,,,,,,1,0,,2,,,,,,,,,,1121.9695316890138,1121.9695316890138,1121.9695316890138,1121.9695316890138,1123.4713538100186,1123.4713538100186,1123.4713538100186,1123.4713538100186,1123.4713538100186,1123.4713538100186,1123.4713538100186,1123.4713538100186,switch,letter,lettSwt,d,0.7851414369652048,vtsPrac,1124.2886065659986,,,,,,,,,,,,,,,,,,,,,,,,,60300,2022-11-22_08h04.11.743,vts_reward_expectancy_bt_OFFLINE,2022.2.4,60.21672552549697,
,,,,,,,,,,,,,,,,,,,,,,,,,,,,,,,,,,0,0,0,0,7,0,7,0,,,,,,,,,,,,,,,,,,,,,,,,,,,,0,819,,,,1130.4789007210056,,H,160,circle,0.0012915980187244713,,,,,,,,,1,0,,2,,,,,,,,,,1126.774782182998,1126.774782182998,1126.774782182998,1126.774782182998,1128.2765986250015,1128.2765986250015,1128.2765986250015,1128.2765986250015,1128.2765986250015,1128.2765986250015,1128.2765986250015,1128.2765986250015,switch,number,numSwt,k,0.6840701639885083,vtsPrac,1128.97744667402,1130.4789007210056,,,,,,,,,,,,,,,,,,,,,,,,60300,2022-11-22_08h04.11.743,vts_reward_expectancy_bt_OFFLINE,2022.2.4,60.21672552549697,
,,,,,,,,,,,,,,,,,,,,,,,,,,,,,,,,,,0,0,0,0,8,0,8,0,,,,,,,,,,,,,,,,,,,,,,,,,,,,0,819,,,,1134.9671724229993,,Y,160,star,0.0008200700103770941,,,,,,,,,1,0,,2,,,,,,,,,,1131.4632398500107,1131.4632398500107,1131.4632398500107,1131.4632398500107,1132.9649461450172,1132.9649461450172,1132.9649461450172,1132.9649461450172,1132.9649461450172,1132.9649461450172,1132.9649461450172,1132.9649461450172,repeat,number,numRpt,k,0.47346592997200787,vtsPrac,1133.465400290006,,,,,,,,,,,,,,,,,,,,,,,,,60300,2022-11-22_08h04.11.743,vts_reward_expectancy_bt_OFFLINE,2022.2.4,60.21672552549697,
,,,,,,,,,,,,,,,,,,,,,,,,,,,,,,,,,,0,0,0,0,9,0,9,0,,,,,,,,,,,,,,,,,,,,,,,,,,,,0,819,,,,1140.022903360019,,F,146,circle,0.0016276189999189228,,,,,,,,,1,0,,2,,,,,,,,,,1135.9519738030212,1135.9519738030212,1135.9519738030212,1135.9519738030212,1137.4532853060227,1137.4532853060227,1137.4532853060227,1137.4532853060227,1137.4532853060227,1137.4532853060227,1137.4532853060227,1137.4532853060227,switch,letter,lettSwt,d,1.0468565289920662,vtsPrac,1138.521254870022,,,,,,,,,,,,,,,,,,,,,,,,,60300,2022-11-22_08h04.11.743,vts_reward_expectancy_bt_OFFLINE,2022.2.4,60.21672552549697,
,,,,,,,,,,,,,,,,,,,,,,,,,,,,,,,,,,0,0,0,0,10,0,10,0,,,,,,,,,,,,,,,,,,,,,,,,,,,,0,819,,,,1144.7613823360007,,S,125,circle,0.0010600019886624068,,,,,,,,,1,0,,2,,,,,,,,,,1141.007240715,1141.007240715,1141.007240715,1141.007240715,1142.5089077610173,1142.5089077610173,1142.5089077610173,1142.5089077610173,1142.5089077610173,1142.5089077610173,1142.5089077610173,1142.5089077610173,switch,number,numSwt,j,0.7181096329877619,vtsPrac,1143.2598829159979,,,,,,,,,,,,,,,,,,,,,,,,,60300,2022-11-22_08h04.11.743,vts_reward_expectancy_bt_OFFLINE,2022.2.4,60.21672552549697,
,,,,,,,,,,,,,,,,,,,,,,,,,,,,,,,,,,0,0,0,0,11,0,11,0,,,,,,,,,,,,,,,,,,,,,,,,,,,,0,819,,,,1149.316347879998,,D,132,triangle,0.0012498400174081326,,,,,,,,,1,0,,2,,,,,,,,,,1145.745833880006,1145.745833880006,1145.745833880006,1145.745833880006,1147.2475236360042,1147.2475236360042,1147.2475236360042,1147.2475236360042,1147.2475236360042,1147.2475236360042,1147.2475236360042,1147.2475236360042,repeat,number,numRpt,j,0.5453402559796814,vtsPrac,1147.8146639410115,,,,,,,,,,,,,,,,,,,,,,,,,60300,2022-11-22_08h04.11.743,vts_reward_expectancy_bt_OFFLINE,2022.2.4,60.21672552549697,
,,,,,,,,,,,,,,,,,,,,,,,,,,,,,,,,,,0,0,0,0,12,0,12,0,,,,,,,,,,,,,,,,,,,,,,,,,,,,0,819,,,,1153.9047391510103,,F,167,circle,0.001332345011178404,,,,,,,,,1,0,,2,,,,,,,,,,1150.3008661729982,1150.3008661729982,1150.3008661729982,1150.3008661729982,1151.8025146180007,1151.8025146180007,1151.8025146180007,1151.8025146180007,1151.8025146180007,1151.8025146180007,1151.8025146180007,1151.8025146180007,repeat,number,numRpt,k,0.5815249039733317,vtsPrac,1152.4030282479944,,,,,,,,,,,,,,,,,,,,,,,,,60300,2022-11-22_08h04.11.743,vts_reward_expectancy_bt_OFFLINE,2022.2.4,60.21672552549697,
,,,,,,,,,,,,,,,,,,,,,,,,,,,,,,,,,,0,0,0,0,13,0,13,0,,,,,,,,,,,,,,,,,,,,,,,,,,,,0,819,,,,1159.0605596190144,,S,139,star,0.0013114530011080205,,,,,,,,,1,0,,2,,,,,,,,,,1154.8895540010126,1154.8895540010126,1154.8895540010126,1154.8895540010126,1156.391120115004,1156.391120115004,1156.391120115004,1156.391120115004,1156.391120115004,1156.391120115004,1156.391120115004,1156.391120115004,switch,letter,lettSwt,f,1.1355389899690636,vtsPrac,1157.5589037300088,1159.0605596190144,,,,,,,,,,,,,,,,,,,,,,,,60300,2022-11-22_08h04.11.743,vts_reward_expectancy_bt_OFFLINE,2022.2.4,60.21672552549697,
,,,,,,,,,,,,,,,,,,,,,,,,,,,,,,,,,,0,0,0,0,14,0,14,0,,,,,,,,,,,,,,,,,,,,,,,,,,,,0,819,,,,1164.0159728400176,,U,174,hexagon,0.000937271979637444,,,,,,,,,1,0,,2,,,,,,,,,,1160.045059794007,1160.045059794007,1160.045059794007,1160.045059794007,1161.5465253680013,1161.5465253680013,1161.5465253680013,1161.5465253680013,1161.5465253680013,1161.5465253680013,1161.5465253680013,1161.5465253680013,repeat,letter,lettRpt,f,0.9407249549694825,vtsPrac,1162.5143725730013,1164.0159728400176,,,,,,,,,,,,,,,,,,,,,,,,60300,2022-11-22_08h04.11.743,vts_reward_expectancy_bt_OFFLINE,2022.2.4,60.21672552549697,
,,,,,,,,,,,,,,,,,,,,,,,,,,,,,,,,,,0,0,0,0,15,0,15,0,,,,,,,,,,,,,,,,,,,,,,,,,,,,0,819,,,,1168.654378249019,,B,160,star,0.0010319089924450964,,,,,,,,,1,0,,2,,,,,,,,,,1165.0006806350139,1165.0006806350139,1165.0006806350139,1165.0006806350139,1166.501954975014,1166.501954975014,1166.501954975014,1166.501954975014,1166.501954975014,1166.501954975014,1166.501954975014,1166.501954975014,repeat,letter,lettRpt,d,0.6199665589665528,vtsPrac,1167.1530201360001,,,,,,,,,,,,,,,,,,,,,,,,,60300,2022-11-22_08h04.11.743,vts_reward_expectancy_bt_OFFLINE,2022.2.4,60.21672552549697,
,,,,,,,,,,,,,,,,,,,,,,,,,,,,,,,,,,0,0,0,0,16,0,16,0,,,,,,,,,,,,,,,,,,,,,,,,,,,,0,819,,,,1173.4097543850075,,B,160,triangle,0.0010530069994274527,,,,,,,,,1,0,,2,,,,,,,,,,1169.6388361360005,1169.6388361360005,1169.6388361360005,1169.6388361360005,1171.14046676,1171.14046676,1171.14046676,1171.14046676,1171.14046676,1171.14046676,1171.14046676,1171.14046676,repeat,letter,lettRpt,d,0.7405595099844504,vtsPrac,1171.908023269003,1173.4097543850075,,,,,,,,,,,,,,,,,,,,,,,,60300,2022-11-22_08h04.11.743,vts_reward_expectancy_bt_OFFLINE,2022.2.4,60.21672552549697,
,,,,,,,,,,,,,,,,,,,,,,,,,,,,,,,,,,0,0,0,0,17,0,17,0,,,,,,,,,,,,,,,,,,,,,,,,,,,,0,819,,,,1178.3651317339973,,U,181,star,0.0011486299918033183,,,,,,,,,1,0,,2,,,,,,,,,,1174.3940763110004,1174.3940763110004,1174.3940763110004,1174.3940763110004,1175.895819073019,1175.895819073019,1175.895819073019,1175.895819073019,1175.895819073019,1175.895819073019,1175.895819073019,1175.895819073019,repeat,letter,lettRpt,f,0.9355102659610566,vtsPrac,1176.8634242230037,,,,,,,,,,,,,,,,,,,,,,,,,60300,2022-11-22_08h04.11.743,vts_reward_expectancy_bt_OFFLINE,2022.2.4,60.21672552549697,
,,,,,,,,,,,,,,,,,,,,,,,,,,,,,,,,,,0,0,0,0,18,0,18,0,,,,,,,,,,,,,,,,,,,,,,,,,,,,0,819,,,,1182.9869915810123,,W,174,triangle,0.0013355539995245636,,,,,,,,,1,0,,2,,,,,,,,,,1179.3495321030205,1179.3495321030205,1179.3495321030205,1179.3495321030205,1180.8514088430093,1180.8514088430093,1180.8514088430093,1180.8514088430093,1180.8514088430093,1180.8514088430093,1180.8514088430093,1180.8514088430093,switch,number,numSwt,k,0.6035829559841659,vtsPrac,1181.4852127360064,,,,,,,,,,,,,,,,,,,,,,,,,60300,2022-11-22_08h04.11.743,vts_reward_expectancy_bt_OFFLINE,2022.2.4,60.21672552549697,
,,,,,,,,,,,,,,,,,,,,,,,,,,,,,,,,,,0,0,0,0,19,0,19,0,,,,,,,,,,,,,,,,,,,,,,,,,,,,0,819,,,,1187.8758311700076,,H,146,hexagon,0.00133495798218064,,,,,,,,,1,0,,2,,,,,,,,,,1183.97124472601,1183.97124472601,1183.97124472601,1183.97124472601,1185.4731435450085,1185.4731435450085,1185.4731435450085,1185.4731435450085,1185.4731435450085,1185.4731435450085,1185.4731435450085,1185.4731435450085,repeat,number,numRpt,j,0.876650914986385,vtsPrac,1186.3740728910198,,,,,,,,,,,,,,,,,,,,,,,,,60300,2022-11-22_08h04.11.743,vts_reward_expectancy_bt_OFFLINE,2022.2.4,60.21672552549697,
,,,,,,,,,,,,,,,,,,,,,,,,,,,,,,,,,,0,0,0,0,20,0,20,0,,,,,,,,,,,,,,,,,,,,,,,,,,,,0,819,,,,1192.7642966349958,,S,160,star,0.0012809299805667251,,,,,,,,,1,0,,2,,,,,,,,,,1188.8600015300035,1188.8600015300035,1188.8600015300035,1188.8600015300035,1190.3618925700139,1190.3618925700139,1190.3618925700139,1190.3618925700139,1190.3618925700139,1190.3618925700139,1190.3618925700139,1190.3618925700139,repeat,number,numRpt,k,0.8697921209968626,vtsPrac,1191.2626950110134,1192.7642966349958,,,,,,,,,,,,,,,,,,,,,,,,60300,2022-11-22_08h04.11.743,vts_reward_expectancy_bt_OFFLINE,2022.2.4,60.21672552549697,
,,,,,,,,,,,,,,,,,,,,,,,,,,,,,,,,,,0,0,0,0,21,0,21,0,,,,,,,,,,,,,,,,,,,,,,,,,,,,0,819,,,,1197.8199491600099,,Y,167,circle,0.0010737889970187098,,,,,,,,,1,0,,2,,,,,,,,,,1193.7489357540035,1193.7489357540035,1193.7489357540035,1193.7489357540035,1195.250269873999,1195.250269873999,1195.250269873999,1195.250269873999,1195.250269873999,1195.250269873999,1195.250269873999,1195.250269873999,repeat,number,numRpt,k,1.0354012779716868,vtsPrac,1196.3181181130058,,,,,,,,,,,,,,,,,,,,,,,,,60300,2022-11-22_08h04.11.743,vts_reward_expectancy_bt_OFFLINE,2022.2.4,60.21672552549697,
,,,,,,,,,,,,,,,,,,,,,,,,,,,,,,,,,,0,0,0,0,22,0,22,0,,,,,,,,,,,,,,,,,,,,,,,,,,,,0,819,,,,1202.5250385800027,,F,125,star,0.001120664004702121,,,,,,,,,1,0,,2,,,,,,,,,,1198.8042652700096,1198.8042652700096,1198.8042652700096,1198.8042652700096,1200.3059047000133,1200.3059047000133,1200.3059047000133,1200.3059047000133,1200.3059047000133,1200.3059047000133,1200.3059047000133,1200.3059047000133,repeat,number,numRpt,j,0.6913984259881545,vtsPrac,1201.0233735899965,,,,,,,,,,,,,,,,,,,,,,,,,60300,2022-11-22_08h04.11.743,vts_reward_expectancy_bt_OFFLINE,2022.2.4,60.21672552549697,
,,,,,,,,,,,,,,,,,,,,,,,,,,,,,,,,,,0,0,0,0,23,0,23,0,,,,,,,,,,,,,,,,,,,,,,,,,,,,0,819,,,,1207.3806113930186,,W,132,triangle,0.0013300580030772835,,,,,,,,,1,0,,2,,,,,,,,,,1203.5096873209986,1203.5096873209986,1203.5096873209986,1203.5096873209986,1205.0112607210176,1205.0112607210176,1205.0112607210176,1205.0112607210176,1205.0112607210176,1205.0112607210176,1205.0112607210176,1205.0112607210176,switch,letter,lettSwt,f,0.8465153529832605,vtsPrac,1205.8788276150008,1207.3806113930186,,,,,,,,,,,,,,,,,,,,,,,,60300,2022-11-22_08h04.11.743,vts_reward_expectancy_bt_OFFLINE,2022.2.4,60.21672552549697,
,,,,,,,,,,,,,,,,,,,,,,,,,,,,,,,,,,0,0,0,0,24,0,24,0,,,,,,,,,,,,,,,,,,,,,,,,,,,,0,819,,,,1212.4527339480119,,H,167,triangle,0.0009287889988627285,,,,,,,,,1,0,,2,,,,,,,,,,1208.3647933600005,1208.3647933600005,1208.3647933600005,1208.3647933600005,1209.866574048996,1209.866574048996,1209.866574048996,1209.866574048996,1209.866574048996,1209.866574048996,1209.866574048996,1209.866574048996,repeat,letter,lettRpt,d,1.0546282609575428,vtsPrac,1210.9513731379993,,,,,,,,,,,,,,,,,,,,,,,,,60300,2022-11-22_08h04.11.743,vts_reward_expectancy_bt_OFFLINE,2022.2.4,60.21672552549697,
,,,,,,,,,,,,,,,,,,,,,,,,,,,,,,,,,,0,0,0,0,25,0,25,0,,,,,,,,,,,,,,,,,,,,,,,,,,,,0,819,,,,1217.0078681629966,,B,139,hexagon,0.0013724789896514267,,,,,,,,,1,0,,2,,,,,,,,,,1213.4372113340069,1213.4372113340069,1213.4372113340069,1213.4372113340069,1214.938925534021,1214.938925534021,1214.938925534021,1214.938925534021,1214.938925534021,1214.938925534021,1214.938925534021,1214.938925534021,repeat,letter,lettRpt,d,0.5274765599751845,vtsPrac,1215.5061738390068,,,,,,,,,,,,,,,,,,,,,,,,,60300,2022-11-22_08h04.11.743,vts_reward_expectancy_bt_OFFLINE,2022.2.4,60.21672552549697,
,,,,,,,,,,,,,,,,,,,,,,,,,,,,,,,,,,0,0,0,0,26,0,26,0,,,,,,,,,,,,,,,,,,,,,,,,,,,,0,819,,,,1221.7798270710045,,S,146,triangle,0.0005412950122263283,,,,,,,,,1,0,,2,,,,,,,,,,1217.9755819940183,1217.9755819940183,1217.9755819940183,1217.9755819940183,1219.4771995939955,1219.4771995939955,1219.4771995939955,1219.4771995939955,1219.4771995939955,1219.4771995939955,1219.4771995939955,1219.4771995939955,switch,number,numSwt,j,0.7841897029720712,vtsPrac,1220.277999441023,1221.7798270710045,,,,,,,,,,,,,,,,,,,,,,,,60300,2022-11-22_08h04.11.743,vts_reward_expectancy_bt_OFFLINE,2022.2.4,60.21672552549697,
,,,,,,,,,,,,,,,,,,,,,,,,,,,,,,,,,,0,0,0,0,27,0,27,0,,,,,,,,,,,,,,,,,,,,,,,,,,,,0,819,,,,1226.5849337200052,,W,174,star,0.0007009070250205696,,,,,,,,,1,0,,2,,,,,,,,,,1222.7642172000196,1222.7642172000196,1222.7642172000196,1222.7642172000196,1224.2656276600028,1224.2656276600028,1224.2656276600028,1224.2656276600028,1224.2656276600028,1224.2656276600028,1224.2656276600028,1224.2656276600028,switch,letter,lettSwt,f,0.7865408629877493,vtsPrac,1225.0833385000005,1226.5849337200052,,,,,,,,,,,,,,,,,,,,,,,,60300,2022-11-22_08h04.11.743,vts_reward_expectancy_bt_OFFLINE,2022.2.4,60.21672552549697,
,,,,,,,,,,,,,,,,,,,,,,,,,,,,,,,,,,0,0,0,0,28,0,28,0,,,,,,,,,,,,,,,,,,,,,,,,,,,,0,819,,,,1231.5738742930116,,F,125,star,0.001034651999361813,,,,,,,,,1,0,,2,,,,,,,,,,1227.5693936150055,1227.5693936150055,1227.5693936150055,1227.5693936150055,1229.0709958740044,1229.0709958740044,1229.0709958740044,1229.0709958740044,1229.0709958740044,1229.0709958740044,1229.0709958740044,1229.0709958740044,repeat,letter,lettRpt,d,0.9765674999798648,vtsPrac,1230.071972380014,,,,,,,,,,,,,,,,,,,,,,,,,60300,2022-11-22_08h04.11.743,vts_reward_expectancy_bt_OFFLINE,2022.2.4,60.21672552549697,
,,,,,,,,,,,,,,,,,,,,,,,,,,,,,,,,,,0,0,0,0,29,0,29,0,,,,,,,,,,,,,,,,,,,,,,,,,,,,0,819,,,,1236.796238409006,,W,139,circle,0.0014093589852564037,,,,,,,,,1,0,,2,,,,,,,,,,1232.5582718829974,1232.5582718829974,1232.5582718829974,1232.5582718829974,1234.059926211019,1234.059926211019,1234.059926211019,1234.059926211019,1234.059926211019,1234.059926211019,1234.059926211019,1234.059926211019,switch,number,numSwt,j,1.2079658069706056,vtsPrac,1235.2947584399953,1236.796238409006,,,,,,,,,,,,,,,,,,,,,,,,60300,2022-11-22_08h04.11.743,vts_reward_expectancy_bt_OFFLINE,2022.2.4,60.21672552549697,
