LTriangleOpac,LCircleOpac,LHexagonOpac,LStarOpac,RTriangleOpac,RCircleOpac,RHexagonOpac,RStarOpac,LShape_ID,RShape_ID,training_blocks.thisRepN,training_blocks.thisTrialN,training_blocks.thisN,training_blocks.thisIndex,training.thisRepN,training.thisTrialN,training.thisN,training.thisIndex,task1_prac_redo.thisRepN,task1_prac_redo.thisTrialN,task1_prac_redo.thisN,task1_prac_redo.thisIndex,task1_prac_trials.thisRepN,task1_prac_trials.thisTrialN,task1_prac_trials.thisN,task1_prac_trials.thisIndex,task2_prac_redo.thisRepN,task2_prac_redo.thisTrialN,task2_prac_redo.thisN,task2_prac_redo.thisIndex,task2_praac_trials.thisRepN,task2_praac_trials.thisTrialN,task2_praac_trials.thisN,task2_praac_trials.thisIndex,vts_prac_redo.thisRepN,vts_prac_redo.thisTrialN,vts_prac_redo.thisN,vts_prac_redo.thisIndex,vts_practice_trials.thisRepN,vts_practice_trials.thisTrialN,vts_practice_trials.thisN,vts_practice_trials.thisIndex,trials_norew.thisRepN,trials_norew.thisTrialN,trials_norew.thisN,trials_norew.thisIndex,block.thisRepN,block.thisTrialN,block.thisN,block.thisIndex,trials_rew.thisRepN,trials_rew.thisTrialN,trials_rew.thisN,trials_rew.thisIndex,key_resp.started,key_resp.keys,key_resp.rt,left_circle.started,right_circle.started,left_triangle.started,right_triangle.started,left_star.started,right_star.started,left_hexagon.started,right_hexagon.started,training_fix.started,training_resp.started,training_resp.keys,training_resp.rt,points_trial,points_cumul,trainBlock,training_feedback_txt.started,fix.started,curr_topStim,curr_bottStim,curr_shape,ISI.started,tgt_fix_prac1.started,top_target_prac1.started,bott_target_prac1.started,target_resp_prac1.started,top_target_prac1.stopped,tgt_fix_prac1.stopped,bott_target_prac1.stopped,target_resp_prac1.stopped,acc,E1,target_resp_prac1.keys,pracBlock,prac_fback_text.started,prac_fback_text.stopped,fix.stopped,target_resp_prac1.rt,tgt_fix_prac2.started,top_target_prac2.started,bott_target_prac2.started,target_resp_prac2.started,target_resp_prac2.keys,target_resp_prac2.rt,star.started,hegagon.started,triangle.started,circle.started,star.stopped,hegagon.stopped,triangle.stopped,circle.stopped,top_target.started,tgt_fix.started,bot_target.started,target_resp.started,alt,task,condition,target_resp.keys,target_resp.rt,rewCond,vts_fback.started,blockNum,norew_fback.started,norew_fback.stopped,key_resp_2.keys,key_resp_2.rt,rewExpectancy,feedbk_text.started,feedbk_text.stopped,text_3.started,text_3.stopped,button.started,debrief.index,debrief.itemText,debrief.type,debrief.granularity,debrief.font,debrief.markerColor,debrief.response,debrief.rt,button.numClicks,button.timesOn,button.timesOff,participant,date,expName,psychopyVersion,frameRate,
,,,,,,,,,,,,,,,,,,,,,,,,,,,,,,,,,,,,,,,,,,,,,,,,,,,,,,28.908440788000007,space,16.526581283003907,,,,,,,,,,,,,,,,,,,,,,,,,,,,,,,,,,,,,,,,,,,,,,,,,,,,,,,,,,,,,,,,,,,,,,,,,,,,,,,,,,,,,60628,2022-11-02_10h19.54.445,vts_reward_expectancy_bt_OFFLINE,2022.2.4,59.89845582044152,
0,0,1,0,0,1,0,0,hexagon,circle,0,0,0,0,0,0,0,7,,,,,,,,,,,,,,,,,,,,,,,,,,,,,,,,,,,,,,,,82.1894229779864,82.1894229779864,82.1894229779864,82.1894229779864,82.1894229779864,82.1894229779864,82.1894229779864,82.1894229779864,82.1894229779864,82.1894229779864,a,1.5417686980072176,1,1,0,83.75850836400059,85.25983539699519,,,,,,,,,,,,,,,,,,,,,,,,,,,,,,,,,,,,,,,,,,,,,,,,,,,,,,,,,,,,,,,,,,,,60628,2022-11-02_10h19.54.445,vts_reward_expectancy_bt_OFFLINE,2022.2.4,59.89845582044152,
0,0,0,1,0,1,0,0,star ,circle,0,0,0,0,0,1,1,10,,,,,,,,,,,,,,,,,,,,,,,,,,,,,,,,,,,,,,,,85.76045945700025,85.76045945700025,85.76045945700025,85.76045945700025,85.76045945700025,85.76045945700025,85.76045945700025,85.76045945700025,85.76045945700025,85.76045945700025,l,1.7227447190089151,10,11,0,87.5123757699912,89.01424819498789,,,,,,,,,,,,,,,,,,,,,,,,,,,,,,,,,,,,,,,,,,,,,,,,,,,,,,,,,,,,,,,,,,,,60628,2022-11-02_10h19.54.445,vts_reward_expectancy_bt_OFFLINE,2022.2.4,59.89845582044152,
0,1,0,0,0,0,0,1,circle,star,0,0,0,0,0,2,2,5,,,,,,,,,,,,,,,,,,,,,,,,,,,,,,,,,,,,,,,,89.51475065699196,89.51475065699196,89.51475065699196,89.51475065699196,89.51475065699196,89.51475065699196,89.51475065699196,89.51475065699196,89.51475065699196,89.51475065699196,a,1.664313145010965,10,21,0,91.1999264479964,92.70147874599206,,,,,,,,,,,,,,,,,,,,,,,,,,,,,,,,,,,,,,,,,,,,,,,,,,,,,,,,,,,,,,,,,,,,60628,2022-11-02_10h19.54.445,vts_reward_expectancy_bt_OFFLINE,2022.2.4,59.89845582044152,
1,0,0,0,0,1,0,0,triangle,circle,0,0,0,0,0,3,3,0,,,,,,,,,,,,,,,,,,,,,,,,,,,,,,,,,,,,,,,,93.20200336299604,93.20200336299604,93.20200336299604,93.20200336299604,93.20200336299604,93.20200336299604,93.20200336299604,93.20200336299604,93.20200336299604,93.20200336299604,l,1.4892586940113688,1,22,0,94.72057281399611,96.22204650999629,,,,,,,,,,,,,,,,,,,,,,,,,,,,,,,,,,,,,,,,,,,,,,,,,,,,,,,,,,,,,,,,,,,,60628,2022-11-02_10h19.54.445,vts_reward_expectancy_bt_OFFLINE,2022.2.4,59.89845582044152,
1,0,0,0,0,0,1,0,triangle,hexagon,0,0,0,0,0,4,4,1,,,,,,,,,,,,,,,,,,,,,,,,,,,,,,,,,,,,,,,,96.72258906999195,96.72258906999195,96.72258906999195,96.72258906999195,96.72258906999195,96.72258906999195,96.72258906999195,96.72258906999195,96.72258906999195,96.72258906999195,a,0.9924157230125275,1,23,0,97.74033442599466,99.2422267459915,,,,,,,,,,,,,,,,,,,,,,,,,,,,,,,,,,,,,,,,,,,,,,,,,,,,,,,,,,,,,,,,,,,,60628,2022-11-02_10h19.54.445,vts_reward_expectancy_bt_OFFLINE,2022.2.4,59.89845582044152,
0,0,0,1,1,0,0,0,star,triangle,0,0,0,0,0,5,5,9,,,,,,,,,,,,,,,,,,,,,,,,,,,,,,,,,,,,,,,,99.74262695299694,99.74262695299694,99.74262695299694,99.74262695299694,99.74262695299694,99.74262695299694,99.74262695299694,99.74262695299694,99.74262695299694,99.74262695299694,l,1.7803955690033035,1,24,0,101.54487983998843,103.0462139089941,,,,,,,,,,,,,,,,,,,,,,,,,,,,,,,,,,,,,,,,,,,,,,,,,,,,,,,,,,,,,,,,,,,,60628,2022-11-02_10h19.54.445,vts_reward_expectancy_bt_OFFLINE,2022.2.4,59.89845582044152,
0,0,1,0,1,0,0,0,hexagon,triangle,0,0,0,0,0,6,6,6,,,,,,,,,,,,,,,,,,,,,,,,,,,,,,,,,,,,,,,,103.54700154298916,103.54700154298916,103.54700154298916,103.54700154298916,103.54700154298916,103.54700154298916,103.54700154298916,103.54700154298916,103.54700154298916,103.54700154298916,a,2.216960146004567,1,25,0,105.78274123198935,107.28429131799203,,,,,,,,,,,,,,,,,,,,,,,,,,,,,,,,,,,,,,,,,,,,,,,,,,,,,,,,,,,,,,,,,,,,60628,2022-11-02_10h19.54.445,vts_reward_expectancy_bt_OFFLINE,2022.2.4,59.89845582044152,
0,0,1,0,0,0,0,1,hexagon,star,0,0,0,0,0,7,7,8,,,,,,,,,,,,,,,,,,,,,,,,,,,,,,,,,,,,,,,,107.78487591799058,107.78487591799058,107.78487591799058,107.78487591799058,107.78487591799058,107.78487591799058,107.78487591799058,107.78487591799058,107.78487591799058,107.78487591799058,a,0.8257464920025086,1,26,0,108.63571989598859,110.13743399899977,,,,,,,,,,,,,,,,,,,,,,,,,,,,,,,,,,,,,,,,,,,,,,,,,,,,,,,,,,,,,,,,,,,,60628,2022-11-02_10h19.54.445,vts_reward_expectancy_bt_OFFLINE,2022.2.4,59.89845582044152,
1,0,0,0,0,0,0,1,triangle,star,0,0,0,0,0,8,8,2,,,,,,,,,,,,,,,,,,,,,,,,,,,,,,,,,,,,,,,,110.6380333739944,110.6380333739944,110.6380333739944,110.6380333739944,110.6380333739944,110.6380333739944,110.6380333739944,110.6380333739944,110.6380333739944,110.6380333739944,l,0.7012997880083276,10,36,0,111.37225014399155,112.87367894999625,,,,,,,,,,,,,,,,,,,,,,,,,,,,,,,,,,,,,,,,,,,,,,,,,,,,,,,,,,,,,,,,,,,,60628,2022-11-02_10h19.54.445,vts_reward_expectancy_bt_OFFLINE,2022.2.4,59.89845582044152,
0,1,0,0,0,0,1,0,circle,hexagon,0,0,0,0,0,9,9,4,,,,,,,,,,,,,,,,,,,,,,,,,,,,,,,,,,,,,,,,113.37431545399886,113.37431545399886,113.37431545399886,113.37431545399886,113.37431545399886,113.37431545399886,113.37431545399886,113.37431545399886,113.37431545399886,113.37431545399886,l,1.5811711970163742,10,46,0,114.97606324899243,116.47770628299622,,,,,,,,,,,,,,,,,,,,,,,,,,,,,,,,,,,,,,,,,,,,,,,,,,,,,,,,,,,,,,,,,,,,60628,2022-11-02_10h19.54.445,vts_reward_expectancy_bt_OFFLINE,2022.2.4,59.89845582044152,
0,0,0,1,0,0,1,0,star,hexagon,0,0,0,0,0,10,10,11,,,,,,,,,,,,,,,,,,,,,,,,,,,,,,,,,,,,,,,,116.97843630799616,116.97843630799616,116.97843630799616,116.97843630799616,116.97843630799616,116.97843630799616,116.97843630799616,116.97843630799616,116.97843630799616,116.97843630799616,l,0.47316225901886355,10,56,0,117.47896114799369,118.98068987998704,,,,,,,,,,,,,,,,,,,,,,,,,,,,,,,,,,,,,,,,,,,,,,,,,,,,,,,,,,,,,,,,,,,,60628,2022-11-02_10h19.54.445,vts_reward_expectancy_bt_OFFLINE,2022.2.4,59.89845582044152,
0,1,0,0,1,0,0,0,circle,triangle,0,0,0,0,0,11,11,3,,,,,,,,,,,,,,,,,,,,,,,,,,,,,,,,,,,,,,,,119.4811520059884,119.4811520059884,119.4811520059884,119.4811520059884,119.4811520059884,119.4811520059884,119.4811520059884,119.4811520059884,119.4811520059884,119.4811520059884,l,0.9851893360028043,1,57,0,120.49876141198911,122.0004765479971,,,,,,,,,,,,,,,,,,,,,,,,,,,,,,,,,,,,,,,,,,,,,,,,,,,,,,,,,,,,,,,,,,,,60628,2022-11-02_10h19.54.445,vts_reward_expectancy_bt_OFFLINE,2022.2.4,59.89845582044152,
0,0,1,0,0,1,0,0,hexagon,circle,0,0,0,0,1,0,12,7,,,,,,,,,,,,,,,,,,,,,,,,,,,,,,,,,,,,,,,,122.5011430119921,122.5011430119921,122.5011430119921,122.5011430119921,122.5011430119921,122.5011430119921,122.5011430119921,122.5011430119921,122.5011430119921,122.5011430119921,a,0.8773205640172819,10,67,0,123.40214751899475,124.90381569598685,,,,,,,,,,,,,,,,,,,,,,,,,,,,,,,,,,,,,,,,,,,,,,,,,,,,,,,,,,,,,,,,,,,,60628,2022-11-02_10h19.54.445,vts_reward_expectancy_bt_OFFLINE,2022.2.4,59.89845582044152,
0,1,0,0,1,0,0,0,circle,triangle,0,0,0,0,1,1,13,3,,,,,,,,,,,,,,,,,,,,,,,,,,,,,,,,,,,,,,,,125.40418845099339,125.40418845099339,125.40418845099339,125.40418845099339,125.40418845099339,125.40418845099339,125.40418845099339,125.40418845099339,125.40418845099339,125.40418845099339,l,1.3033482700120658,1,68,0,126.73915681098879,128.24090245299158,,,,,,,,,,,,,,,,,,,,,,,,,,,,,,,,,,,,,,,,,,,,,,,,,,,,,,,,,,,,,,,,,,,,60628,2022-11-02_10h19.54.445,vts_reward_expectancy_bt_OFFLINE,2022.2.4,59.89845582044152,
0,1,0,0,0,0,0,1,circle,star,0,0,0,0,1,2,14,5,,,,,,,,,,,,,,,,,,,,,,,,,,,,,,,,,,,,,,,,128.74115221398824,128.74115221398824,128.74115221398824,128.74115221398824,128.74115221398824,128.74115221398824,128.74115221398824,128.74115221398824,128.74115221398824,128.74115221398824,l,0.7264992920099758,10,78,0,129.49203862399736,130.99360353998782,,,,,,,,,,,,,,,,,,,,,,,,,,,,,,,,,,,,,,,,,,,,,,,,,,,,,,,,,,,,,,,,,,,,60628,2022-11-02_10h19.54.445,vts_reward_expectancy_bt_OFFLINE,2022.2.4,59.89845582044152,
0,1,0,0,0,0,1,0,circle,hexagon,0,0,0,0,1,3,15,4,,,,,,,,,,,,,,,,,,,,,,,,,,,,,,,,,,,,,,,,131.49415797299298,131.49415797299298,131.49415797299298,131.49415797299298,131.49415797299298,131.49415797299298,131.49415797299298,131.49415797299298,131.49415797299298,131.49415797299298,l,0.6452396710083121,1,79,0,132.16170717099158,133.66341154898691,,,,,,,,,,,,,,,,,,,,,,,,,,,,,,,,,,,,,,,,,,,,,,,,,,,,,,,,,,,,,,,,,,,,60628,2022-11-02_10h19.54.445,vts_reward_expectancy_bt_OFFLINE,2022.2.4,59.89845582044152,
0,0,1,0,0,0,0,1,hexagon,star,0,0,0,0,1,4,16,8,,,,,,,,,,,,,,,,,,,,,,,,,,,,,,,,,,,,,,,,134.16379670400056,134.16379670400056,134.16379670400056,134.16379670400056,134.16379670400056,134.16379670400056,134.16379670400056,134.16379670400056,134.16379670400056,134.16379670400056,a,0.47087182200630195,1,80,0,134.66455266399134,136.16630084200006,,,,,,,,,,,,,,,,,,,,,,,,,,,,,,,,,,,,,,,,,,,,,,,,,,,,,,,,,,,,,,,,,,,,60628,2022-11-02_10h19.54.445,vts_reward_expectancy_bt_OFFLINE,2022.2.4,59.89845582044152,
0,0,0,1,0,0,1,0,star,hexagon,0,0,0,0,1,5,17,11,,,,,,,,,,,,,,,,,,,,,,,,,,,,,,,,,,,,,,,,136.66679025499616,136.66679025499616,136.66679025499616,136.66679025499616,136.66679025499616,136.66679025499616,136.66679025499616,136.66679025499616,136.66679025499616,136.66679025499616,a,0.400657599006081,10,90,0,137.08391873199434,138.58575016299437,,,,,,,,,,,,,,,,,,,,,,,,,,,,,,,,,,,,,,,,,,,,,,,,,,,,,,,,,,,,,,,,,,,,60628,2022-11-02_10h19.54.445,vts_reward_expectancy_bt_OFFLINE,2022.2.4,59.89845582044152,
0,0,1,0,1,0,0,0,hexagon,triangle,0,0,0,0,1,6,18,6,,,,,,,,,,,,,,,,,,,,,,,,,,,,,,,,,,,,,,,,139.08599303899973,139.08599303899973,139.08599303899973,139.08599303899973,139.08599303899973,139.08599303899973,139.08599303899973,139.08599303899973,139.08599303899973,139.08599303899973,l,0.6932308319956064,10,100,0,139.8035787169938,141.30508145199565,,,,,,,,,,,,,,,,,,,,,,,,,,,,,,,,,,,,,,,,,,,,,,,,,,,,,,,,,,,,,,,,,,,,60628,2022-11-02_10h19.54.445,vts_reward_expectancy_bt_OFFLINE,2022.2.4,59.89845582044152,
1,0,0,0,0,1,0,0,triangle,circle,0,0,0,0,1,7,19,0,,,,,,,,,,,,,,,,,,,,,,,,,,,,,,,,,,,,,,,,141.8056958639936,141.8056958639936,141.8056958639936,141.8056958639936,141.8056958639936,141.8056958639936,141.8056958639936,141.8056958639936,141.8056958639936,141.8056958639936,l,1.2451393740047934,10,110,0,143.07369999299408,144.57543290998728,,,,,,,,,,,,,,,,,,,,,,,,,,,,,,,,,,,,,,,,,,,,,,,,,,,,,,,,,,,,,,,,,,,,60628,2022-11-02_10h19.54.445,vts_reward_expectancy_bt_OFFLINE,2022.2.4,59.89845582044152,
0,0,0,1,0,1,0,0,star ,circle,0,0,0,0,1,8,20,10,,,,,,,,,,,,,,,,,,,,,,,,,,,,,,,,,,,,,,,,145.07612396299373,145.07612396299373,145.07612396299373,145.07612396299373,145.07612396299373,145.07612396299373,145.07612396299373,145.07612396299373,145.07612396299373,145.07612396299373,a,0.5350930000131484,10,120,0,145.64320569299161,147.1448371229926,,,,,,,,,,,,,,,,,,,,,,,,,,,,,,,,,,,,,,,,,,,,,,,,,,,,,,,,,,,,,,,,,,,,60628,2022-11-02_10h19.54.445,vts_reward_expectancy_bt_OFFLINE,2022.2.4,59.89845582044152,
1,0,0,0,0,0,1,0,triangle,hexagon,0,0,0,0,1,9,21,1,,,,,,,,,,,,,,,,,,,,,,,,,,,,,,,,,,,,,,,,147.64551040600054,147.64551040600054,147.64551040600054,147.64551040600054,147.64551040600054,147.64551040600054,147.64551040600054,147.64551040600054,147.64551040600054,147.64551040600054,l,0.7338256680232007,1,121,0,148.39617210699362,149.89806381998642,,,,,,,,,,,,,,,,,,,,,,,,,,,,,,,,,,,,,,,,,,,,,,,,,,,,,,,,,,,,,,,,,,,,60628,2022-11-02_10h19.54.445,vts_reward_expectancy_bt_OFFLINE,2022.2.4,59.89845582044152,
1,0,0,0,0,0,0,1,triangle,star,0,0,0,0,1,10,22,2,,,,,,,,,,,,,,,,,,,,,,,,,,,,,,,,,,,,,,,,150.39839990399196,150.39839990399196,150.39839990399196,150.39839990399196,150.39839990399196,150.39839990399196,150.39839990399196,150.39839990399196,150.39839990399196,150.39839990399196,l,0.7966367550106952,1,122,0,151.21631729199726,152.71777774899965,,,,,,,,,,,,,,,,,,,,,,,,,,,,,,,,,,,,,,,,,,,,,,,,,,,,,,,,,,,,,,,,,,,,60628,2022-11-02_10h19.54.445,vts_reward_expectancy_bt_OFFLINE,2022.2.4,59.89845582044152,
0,0,0,1,1,0,0,0,star,triangle,0,0,0,0,1,11,23,9,,,,,,,,,,,,,,,,,,,,,,,,,,,,,,,,,,,,,,,,153.21816169699014,153.21816169699014,153.21816169699014,153.21816169699014,153.21816169699014,153.21816169699014,153.21816169699014,153.21816169699014,153.21816169699014,153.21816169699014,a,0.8492174060083926,1,123,0,154.08571881199896,155.58747793200018,,,,,,,,,,,,,,,,,,,,,,,,,,,,,,,,,,,,,,,,,,,,,,,,,,,,,,,,,,,,,,,,,,,,60628,2022-11-02_10h19.54.445,vts_reward_expectancy_bt_OFFLINE,2022.2.4,59.89845582044152,
1,0,0,0,0,0,1,0,triangle,hexagon,0,0,0,0,2,0,24,1,,,,,,,,,,,,,,,,,,,,,,,,,,,,,,,,,,,,,,,,156.0879733299953,156.0879733299953,156.0879733299953,156.0879733299953,156.0879733299953,156.0879733299953,156.0879733299953,156.0879733299953,156.0879733299953,156.0879733299953,a,0.7465923710115021,1,124,0,156.85565457798657,158.356925768996,,,,,,,,,,,,,,,,,,,,,,,,,,,,,,,,,,,,,,,,,,,,,,,,,,,,,,,,,,,,,,,,,,,,60628,2022-11-02_10h19.54.445,vts_reward_expectancy_bt_OFFLINE,2022.2.4,59.89845582044152,
1,0,0,0,0,0,0,1,triangle,star,0,0,0,0,2,1,25,2,,,,,,,,,,,,,,,,,,,,,,,,,,,,,,,,,,,,,,,,158.857734833,158.857734833,158.857734833,158.857734833,158.857734833,158.857734833,158.857734833,158.857734833,158.857734833,158.857734833,l,0.506165315004182,1,125,0,159.39185264099797,160.89339358499274,,,,,,,,,,,,,,,,,,,,,,,,,,,,,,,,,,,,,,,,,,,,,,,,,,,,,,,,,,,,,,,,,,,,60628,2022-11-02_10h19.54.445,vts_reward_expectancy_bt_OFFLINE,2022.2.4,59.89845582044152,
0,0,1,0,0,0,0,1,hexagon,star,0,0,0,0,2,2,26,8,,,,,,,,,,,,,,,,,,,,,,,,,,,,,,,,,,,,,,,,161.39400724899315,161.39400724899315,161.39400724899315,161.39400724899315,161.39400724899315,161.39400724899315,161.39400724899315,161.39400724899315,161.39400724899315,161.39400724899315,a,0.5846730320045026,10,135,0,162.01135705699562,163.51297714898828,,,,,,,,,,,,,,,,,,,,,,,,,,,,,,,,,,,,,,,,,,,,,,,,,,,,,,,,,,,,,,,,,,,,60628,2022-11-02_10h19.54.445,vts_reward_expectancy_bt_OFFLINE,2022.2.4,59.89845582044152,
0,1,0,0,0,0,1,0,circle,hexagon,0,0,0,0,2,3,27,4,,,,,,,,,,,,,,,,,,,,,,,,,,,,,,,,,,,,,,,,164.01368861299125,164.01368861299125,164.01368861299125,164.01368861299125,164.01368861299125,164.01368861299125,164.01368861299125,164.01368861299125,164.01368861299125,164.01368861299125,l,0.9578772950044367,1,136,0,164.99786627700087,166.49956643198675,,,,,,,,,,,,,,,,,,,,,,,,,,,,,,,,,,,,,,,,,,,,,,,,,,,,,,,,,,,,,,,,,,,,60628,2022-11-02_10h19.54.445,vts_reward_expectancy_bt_OFFLINE,2022.2.4,59.89845582044152,
0,0,0,1,0,0,1,0,star,hexagon,0,0,0,0,2,4,28,11,,,,,,,,,,,,,,,,,,,,,,,,,,,,,,,,,,,,,,,,167.00014448199363,167.00014448199363,167.00014448199363,167.00014448199363,167.00014448199363,167.00014448199363,167.00014448199363,167.00014448199363,167.00014448199363,167.00014448199363,a,0.626763824999216,10,146,0,167.65091184199264,169.15253185298934,,,,,,,,,,,,,,,,,,,,,,,,,,,,,,,,,,,,,,,,,,,,,,,,,,,,,,,,,,,,,,,,,,,,60628,2022-11-02_10h19.54.445,vts_reward_expectancy_bt_OFFLINE,2022.2.4,59.89845582044152,
0,1,0,0,1,0,0,0,circle,triangle,0,0,0,0,2,5,29,3,,,,,,,,,,,,,,,,,,,,,,,,,,,,,,,,,,,,,,,,169.6531204329949,169.6531204329949,169.6531204329949,169.6531204329949,169.6531204329949,169.6531204329949,169.6531204329949,169.6531204329949,169.6531204329949,169.6531204329949,l,0.6222699800127884,10,156,0,170.30394600699947,171.80535175699333,,,,,,,,,,,,,,,,,,,,,,,,,,,,,,,,,,,,,,,,,,,,,,,,,,,,,,,,,,,,,,,,,,,,60628,2022-11-02_10h19.54.445,vts_reward_expectancy_bt_OFFLINE,2022.2.4,59.89845582044152,
0,1,0,0,0,0,0,1,circle,star,0,0,0,0,2,6,30,5,,,,,,,,,,,,,,,,,,,,,,,,,,,,,,,,,,,,,,,,172.30592994998733,172.30592994998733,172.30592994998733,172.30592994998733,172.30592994998733,172.30592994998733,172.30592994998733,172.30592994998733,172.30592994998733,172.30592994998733,l,2.657083355006762,10,166,0,174.9922710749961,176.49399436099338,,,,,,,,,,,,,,,,,,,,,,,,,,,,,,,,,,,,,,,,,,,,,,,,,,,,,,,,,,,,,,,,,,,,60628,2022-11-02_10h19.54.445,vts_reward_expectancy_bt_OFFLINE,2022.2.4,59.89845582044152,
0,0,0,1,1,0,0,0,star,triangle,0,0,0,0,2,7,31,9,,,,,,,,,,,,,,,,,,,,,,,,,,,,,,,,,,,,,,,,176.99448093998944,176.99448093998944,176.99448093998944,176.99448093998944,176.99448093998944,176.99448093998944,176.99448093998944,176.99448093998944,176.99448093998944,176.99448093998944,l,1.064539084021817,10,176,0,178.07897899199452,179.5807383039937,,,,,,,,,,,,,,,,,,,,,,,,,,,,,,,,,,,,,,,,,,,,,,,,,,,,,,,,,,,,,,,,,,,,60628,2022-11-02_10h19.54.445,vts_reward_expectancy_bt_OFFLINE,2022.2.4,59.89845582044152,
0,0,0,1,0,1,0,0,star ,circle,0,0,0,0,2,8,32,10,,,,,,,,,,,,,,,,,,,,,,,,,,,,,,,,,,,,,,,,180.08116942099878,180.08116942099878,180.08116942099878,180.08116942099878,180.08116942099878,180.08116942099878,180.08116942099878,180.08116942099878,180.08116942099878,180.08116942099878,l,1.2827088790072594,10,186,0,181.38276141700044,182.8843985239946,,,,,,,,,,,,,,,,,,,,,,,,,,,,,,,,,,,,,,,,,,,,,,,,,,,,,,,,,,,,,,,,,,,,60628,2022-11-02_10h19.54.445,vts_reward_expectancy_bt_OFFLINE,2022.2.4,59.89845582044152,
1,0,0,0,0,1,0,0,triangle,circle,0,0,0,0,2,9,33,0,,,,,,,,,,,,,,,,,,,,,,,,,,,,,,,,,,,,,,,,183.38488744699862,183.38488744699862,183.38488744699862,183.38488744699862,183.38488744699862,183.38488744699862,183.38488744699862,183.38488744699862,183.38488744699862,183.38488744699862,l,1.3936880789988209,10,196,0,184.80307906599774,186.30489907899755,,,,,,,,,,,,,,,,,,,,,,,,,,,,,,,,,,,,,,,,,,,,,,,,,,,,,,,,,,,,,,,,,,,,60628,2022-11-02_10h19.54.445,vts_reward_expectancy_bt_OFFLINE,2022.2.4,59.89845582044152,
0,0,1,0,0,1,0,0,hexagon,circle,0,0,0,0,2,10,34,7,,,,,,,,,,,,,,,,,,,,,,,,,,,,,,,,,,,,,,,,186.8053711889952,186.8053711889952,186.8053711889952,186.8053711889952,186.8053711889952,186.8053711889952,186.8053711889952,186.8053711889952,186.8053711889952,186.8053711889952,a,1.5897168219962623,1,197,0,188.42376412599697,189.92547913698945,,,,,,,,,,,,,,,,,,,,,,,,,,,,,,,,,,,,,,,,,,,,,,,,,,,,,,,,,,,,,,,,,,,,60628,2022-11-02_10h19.54.445,vts_reward_expectancy_bt_OFFLINE,2022.2.4,59.89845582044152,
0,0,1,0,1,0,0,0,hexagon,triangle,0,0,0,0,2,11,35,6,,,,,,,,,,,,,,,,,,,,,,,,,,,,,,,,,,,,,,,,190.4258000809932,190.4258000809932,190.4258000809932,190.4258000809932,190.4258000809932,190.4258000809932,190.4258000809932,190.4258000809932,190.4258000809932,190.4258000809932,l,0.6737200210191077,10,207,0,191.12661096699594,192.62828363198787,,,,,,,,,,,,,,,,,,,,,,,,,,,,,,,,,,,,,,,,,,,,,,,,,,,,,,,,,,,,,,,,,,,,60628,2022-11-02_10h19.54.445,vts_reward_expectancy_bt_OFFLINE,2022.2.4,59.89845582044152,
0,0,0,1,0,0,1,0,star,hexagon,0,0,0,0,3,0,36,11,,,,,,,,,,,,,,,,,,,,,,,,,,,,,,,,,,,,,,,,193.1288132519985,193.1288132519985,193.1288132519985,193.1288132519985,193.1288132519985,193.1288132519985,193.1288132519985,193.1288132519985,193.1288132519985,193.1288132519985,l,0.6827653290092712,10,217,0,193.82972350199998,195.33139876899077,,,,,,,,,,,,,,,,,,,,,,,,,,,,,,,,,,,,,,,,,,,,,,,,,,,,,,,,,,,,,,,,,,,,60628,2022-11-02_10h19.54.445,vts_reward_expectancy_bt_OFFLINE,2022.2.4,59.89845582044152,
1,0,0,0,0,0,0,1,triangle,star,0,0,0,0,3,1,37,2,,,,,,,,,,,,,,,,,,,,,,,,,,,,,,,,,,,,,,,,195.83201088898932,195.83201088898932,195.83201088898932,195.83201088898932,195.83201088898932,195.83201088898932,195.83201088898932,195.83201088898932,195.83201088898932,195.83201088898932,l,0.5001172909978777,10,227,0,196.3491279969894,197.85082834899367,,,,,,,,,,,,,,,,,,,,,,,,,,,,,,,,,,,,,,,,,,,,,,,,,,,,,,,,,,,,,,,,,,,,60628,2022-11-02_10h19.54.445,vts_reward_expectancy_bt_OFFLINE,2022.2.4,59.89845582044152,
0,0,1,0,0,1,0,0,hexagon,circle,0,0,0,0,3,2,38,7,,,,,,,,,,,,,,,,,,,,,,,,,,,,,,,,,,,,,,,,198.35141482199833,198.35141482199833,198.35141482199833,198.35141482199833,198.35141482199833,198.35141482199833,198.35141482199833,198.35141482199833,198.35141482199833,198.35141482199833,a,0.6032569300150499,10,237,0,198.9853622889932,200.4872096929903,,,,,,,,,,,,,,,,,,,,,,,,,,,,,,,,,,,,,,,,,,,,,,,,,,,,,,,,,,,,,,,,,,,,60628,2022-11-02_10h19.54.445,vts_reward_expectancy_bt_OFFLINE,2022.2.4,59.89845582044152,
1,0,0,0,0,0,1,0,triangle,hexagon,0,0,0,0,3,3,39,1,,,,,,,,,,,,,,,,,,,,,,,,,,,,,,,,,,,,,,,,200.98756368899194,200.98756368899194,200.98756368899194,200.98756368899194,200.98756368899194,200.98756368899194,200.98756368899194,200.98756368899194,200.98756368899194,200.98756368899194,l,1.3109693790029269,1,238,0,202.3225989759958,203.8241875429958,,,,,,,,,,,,,,,,,,,,,,,,,,,,,,,,,,,,,,,,,,,,,,,,,,,,,,,,,,,,,,,,,,,,60628,2022-11-02_10h19.54.445,vts_reward_expectancy_bt_OFFLINE,2022.2.4,59.89845582044152,
0,1,0,0,0,0,1,0,circle,hexagon,0,0,0,0,3,4,40,4,,,,,,,,,,,,,,,,,,,,,,,,,,,,,,,,,,,,,,,,204.32450061599957,204.32450061599957,204.32450061599957,204.32450061599957,204.32450061599957,204.32450061599957,204.32450061599957,204.32450061599957,204.32450061599957,204.32450061599957,a,0.9261371040192898,10,248,0,205.27587121998658,206.77730081698974,,,,,,,,,,,,,,,,,,,,,,,,,,,,,,,,,,,,,,,,,,,,,,,,,,,,,,,,,,,,,,,,,,,,60628,2022-11-02_10h19.54.445,vts_reward_expectancy_bt_OFFLINE,2022.2.4,59.89845582044152,
0,0,0,1,1,0,0,0,star,triangle,0,0,0,0,3,5,41,9,,,,,,,,,,,,,,,,,,,,,,,,,,,,,,,,,,,,,,,,207.27788170699205,207.27788170699205,207.27788170699205,207.27788170699205,207.27788170699205,207.27788170699205,207.27788170699205,207.27788170699205,207.27788170699205,207.27788170699205,a,2.2529337300074985,10,258,0,209.56371664498874,211.06538445899787,,,,,,,,,,,,,,,,,,,,,,,,,,,,,,,,,,,,,,,,,,,,,,,,,,,,,,,,,,,,,,,,,,,,60628,2022-11-02_10h19.54.445,vts_reward_expectancy_bt_OFFLINE,2022.2.4,59.89845582044152,
0,0,1,0,0,0,0,1,hexagon,star,0,0,0,0,3,6,42,8,,,,,,,,,,,,,,,,,,,,,,,,,,,,,,,,,,,,,,,,211.56597848399542,211.56597848399542,211.56597848399542,211.56597848399542,211.56597848399542,211.56597848399542,211.56597848399542,211.56597848399542,211.56597848399542,211.56597848399542,l,0.4847741770063294,1,259,0,212.08321553199494,213.58501841699763,,,,,,,,,,,,,,,,,,,,,,,,,,,,,,,,,,,,,,,,,,,,,,,,,,,,,,,,,,,,,,,,,,,,60628,2022-11-02_10h19.54.445,vts_reward_expectancy_bt_OFFLINE,2022.2.4,59.89845582044152,
0,1,0,0,0,0,0,1,circle,star,0,0,0,0,3,7,43,5,,,,,,,,,,,,,,,,,,,,,,,,,,,,,,,,,,,,,,,,214.08547824199195,214.08547824199195,214.08547824199195,214.08547824199195,214.08547824199195,214.08547824199195,214.08547824199195,214.08547824199195,214.08547824199195,214.08547824199195,l,0.6770697180036223,10,269,0,214.78619710999192,216.28792920299747,,,,,,,,,,,,,,,,,,,,,,,,,,,,,,,,,,,,,,,,,,,,,,,,,,,,,,,,,,,,,,,,,,,,60628,2022-11-02_10h19.54.445,vts_reward_expectancy_bt_OFFLINE,2022.2.4,59.89845582044152,
0,0,0,1,0,1,0,0,star ,circle,0,0,0,0,3,8,44,10,,,,,,,,,,,,,,,,,,,,,,,,,,,,,,,,,,,,,,,,216.7884245079913,216.7884245079913,216.7884245079913,216.7884245079913,216.7884245079913,216.7884245079913,216.7884245079913,216.7884245079913,216.7884245079913,216.7884245079913,a,0.47073164200992323,10,279,0,217.28891648699937,218.79060212499462,,,,,,,,,,,,,,,,,,,,,,,,,,,,,,,,,,,,,,,,,,,,,,,,,,,,,,,,,,,,,,,,,,,,60628,2022-11-02_10h19.54.445,vts_reward_expectancy_bt_OFFLINE,2022.2.4,59.89845582044152,
1,0,0,0,0,1,0,0,triangle,circle,0,0,0,0,3,9,45,0,,,,,,,,,,,,,,,,,,,,,,,,,,,,,,,,,,,,,,,,219.29108062799787,219.29108062799787,219.29108062799787,219.29108062799787,219.29108062799787,219.29108062799787,219.29108062799787,219.29108062799787,219.29108062799787,219.29108062799787,a,0.49629200900380965,10,289,0,219.80852787698677,221.31016970198834,,,,,,,,,,,,,,,,,,,,,,,,,,,,,,,,,,,,,,,,,,,,,,,,,,,,,,,,,,,,,,,,,,,,60628,2022-11-02_10h19.54.445,vts_reward_expectancy_bt_OFFLINE,2022.2.4,59.89845582044152,
0,0,1,0,1,0,0,0,hexagon,triangle,0,0,0,0,3,10,46,6,,,,,,,,,,,,,,,,,,,,,,,,,,,,,,,,,,,,,,,,221.8105532579939,221.8105532579939,221.8105532579939,221.8105532579939,221.8105532579939,221.8105532579939,221.8105532579939,221.8105532579939,221.8105532579939,221.8105532579939,l,0.5204001270030858,1,290,0,222.3613179429958,223.8628277109965,,,,,,,,,,,,,,,,,,,,,,,,,,,,,,,,,,,,,,,,,,,,,,,,,,,,,,,,,,,,,,,,,,,,60628,2022-11-02_10h19.54.445,vts_reward_expectancy_bt_OFFLINE,2022.2.4,59.89845582044152,
0,1,0,0,1,0,0,0,circle,triangle,0,0,0,0,3,11,47,3,,,,,,,,,,,,,,,,,,,,,,,,,,,,,,,,,,,,,,,,224.36333451999235,224.36333451999235,224.36333451999235,224.36333451999235,224.36333451999235,224.36333451999235,224.36333451999235,224.36333451999235,224.36333451999235,224.36333451999235,a,0.432287832009024,10,300,0,224.81387418298982,226.3156786969921,,,,,,,,,,,,,,,,,,,,,,,,,,,,,,,,,,,,,,,,,,,,,,,,,,,,,,,,,,,,,,,,,,,,60628,2022-11-02_10h19.54.445,vts_reward_expectancy_bt_OFFLINE,2022.2.4,59.89845582044152,
0,0,1,0,0,1,0,0,hexagon,circle,1,0,1,0,0,0,0,7,,,,,,,,,,,,,,,,,,,,,,,,,,,,,,,,,,,,,,,,232.22873639099998,232.22873639099998,232.22873639099998,232.22873639099998,232.22873639099998,232.22873639099998,232.22873639099998,232.22873639099998,232.22873639099998,232.22873639099998,a,0.8700555359973805,1,301,1,233.12298302300042,234.62463994599239,,,,,,,,,,,,,,,,,,,,,,,,,,,,,,,,,,,,,,,,,,,,,,,,,,,,,,,,,,,,,,,,,,,,60628,2022-11-02_10h19.54.445,vts_reward_expectancy_bt_OFFLINE,2022.2.4,59.89845582044152,
0,1,0,0,0,0,1,0,circle,hexagon,1,0,1,0,0,1,1,4,,,,,,,,,,,,,,,,,,,,,,,,,,,,,,,,,,,,,,,,235.12538475199835,235.12538475199835,235.12538475199835,235.12538475199835,235.12538475199835,235.12538475199835,235.12538475199835,235.12538475199835,235.12538475199835,235.12538475199835,l,0.429798164012027,1,302,1,235.5757697779918,237.0775029209908,,,,,,,,,,,,,,,,,,,,,,,,,,,,,,,,,,,,,,,,,,,,,,,,,,,,,,,,,,,,,,,,,,,,60628,2022-11-02_10h19.54.445,vts_reward_expectancy_bt_OFFLINE,2022.2.4,59.89845582044152,
0,0,0,1,0,1,0,0,star ,circle,1,0,1,0,0,2,2,10,,,,,,,,,,,,,,,,,,,,,,,,,,,,,,,,,,,,,,,,237.5780042839906,237.5780042839906,237.5780042839906,237.5780042839906,237.5780042839906,237.5780042839906,237.5780042839906,237.5780042839906,237.5780042839906,237.5780042839906,a,0.385179152013734,1,303,1,237.9950736519968,239.49677725799847,,,,,,,,,,,,,,,,,,,,,,,,,,,,,,,,,,,,,,,,,,,,,,,,,,,,,,,,,,,,,,,,,,,,60628,2022-11-02_10h19.54.445,vts_reward_expectancy_bt_OFFLINE,2022.2.4,59.89845582044152,
0,0,0,1,0,0,1,0,star,hexagon,1,0,1,0,0,3,3,11,,,,,,,,,,,,,,,,,,,,,,,,,,,,,,,,,,,,,,,,239.99729078100063,239.99729078100063,239.99729078100063,239.99729078100063,239.99729078100063,239.99729078100063,239.99729078100063,239.99729078100063,239.99729078100063,239.99729078100063,l,0.25301007700909395,1,304,1,240.28110640999512,241.78266259199881,,,,,,,,,,,,,,,,,,,,,,,,,,,,,,,,,,,,,,,,,,,,,,,,,,,,,,,,,,,,,,,,,,,,60628,2022-11-02_10h19.54.445,vts_reward_expectancy_bt_OFFLINE,2022.2.4,59.89845582044152,
1,0,0,0,0,1,0,0,triangle,circle,1,0,1,0,0,4,4,0,,,,,,,,,,,,,,,,,,,,,,,,,,,,,,,,,,,,,,,,242.28328097998747,242.28328097998747,242.28328097998747,242.28328097998747,242.28328097998747,242.28328097998747,242.28328097998747,242.28328097998747,242.28328097998747,242.28328097998747,a,0.10299553199729417,10,314,1,242.41656359098852,243.9185333489877,,,,,,,,,,,,,,,,,,,,,,,,,,,,,,,,,,,,,,,,,,,,,,,,,,,,,,,,,,,,,,,,,,,,60628,2022-11-02_10h19.54.445,vts_reward_expectancy_bt_OFFLINE,2022.2.4,59.89845582044152,
1,0,0,0,0,0,0,1,triangle,star,1,0,1,0,0,5,5,2,,,,,,,,,,,,,,,,,,,,,,,,,,,,,,,,,,,,,,,,244.4189552399912,244.4189552399912,244.4189552399912,244.4189552399912,244.4189552399912,244.4189552399912,244.4189552399912,244.4189552399912,244.4189552399912,244.4189552399912,a,0.3359146770089865,1,315,1,244.7859804769978,246.28771799399692,,,,,,,,,,,,,,,,,,,,,,,,,,,,,,,,,,,,,,,,,,,,,,,,,,,,,,,,,,,,,,,,,,,,60628,2022-11-02_10h19.54.445,vts_reward_expectancy_bt_OFFLINE,2022.2.4,59.89845582044152,
0,0,1,0,0,0,0,1,hexagon,star,1,0,1,0,0,6,6,8,,,,,,,,,,,,,,,,,,,,,,,,,,,,,,,,,,,,,,,,246.78815267399477,246.78815267399477,246.78815267399477,246.78815267399477,246.78815267399477,246.78815267399477,246.78815267399477,246.78815267399477,246.78815267399477,246.78815267399477,l,0.3022486130212201,10,325,1,247.12184462799632,248.6235921829939,,,,,,,,,,,,,,,,,,,,,,,,,,,,,,,,,,,,,,,,,,,,,,,,,,,,,,,,,,,,,,,,,,,,60628,2022-11-02_10h19.54.445,vts_reward_expectancy_bt_OFFLINE,2022.2.4,59.89845582044152,
0,0,1,0,1,0,0,0,hexagon,triangle,1,0,1,0,0,7,7,6,,,,,,,,,,,,,,,,,,,,,,,,,,,,,,,,,,,,,,,,249.1240559509897,249.1240559509897,249.1240559509897,249.1240559509897,249.1240559509897,249.1240559509897,249.1240559509897,249.1240559509897,249.1240559509897,249.1240559509897,l,0.43941338401054963,10,335,1,249.5911863779911,251.0928732369939,,,,,,,,,,,,,,,,,,,,,,,,,,,,,,,,,,,,,,,,,,,,,,,,,,,,,,,,,,,,,,,,,,,,60628,2022-11-02_10h19.54.445,vts_reward_expectancy_bt_OFFLINE,2022.2.4,59.89845582044152,
0,0,0,1,1,0,0,0,star,triangle,1,0,1,0,0,8,8,9,,,,,,,,,,,,,,,,,,,,,,,,,,,,,,,,,,,,,,,,251.59352415399917,251.59352415399917,251.59352415399917,251.59352415399917,251.59352415399917,251.59352415399917,251.59352415399917,251.59352415399917,251.59352415399917,251.59352415399917,a,0.35273511201376095,10,345,1,251.97729141099262,253.4788211589912,,,,,,,,,,,,,,,,,,,,,,,,,,,,,,,,,,,,,,,,,,,,,,,,,,,,,,,,,,,,,,,,,,,,60628,2022-11-02_10h19.54.445,vts_reward_expectancy_bt_OFFLINE,2022.2.4,59.89845582044152,
0,1,0,0,0,0,0,1,circle,star,1,0,1,0,0,9,9,5,,,,,,,,,,,,,,,,,,,,,,,,,,,,,,,,,,,,,,,,253.97940162599843,253.97940162599843,253.97940162599843,253.97940162599843,253.97940162599843,253.97940162599843,253.97940162599843,253.97940162599843,253.97940162599843,253.97940162599843,l,0.7349470670160372,10,355,1,254.7465301379998,256.24852880099206,,,,,,,,,,,,,,,,,,,,,,,,,,,,,,,,,,,,,,,,,,,,,,,,,,,,,,,,,,,,,,,,,,,,60628,2022-11-02_10h19.54.445,vts_reward_expectancy_bt_OFFLINE,2022.2.4,59.89845582044152,
1,0,0,0,0,0,1,0,triangle,hexagon,1,0,1,0,0,10,10,1,,,,,,,,,,,,,,,,,,,,,,,,,,,,,,,,,,,,,,,,256.7491311049962,256.7491311049962,256.7491311049962,256.7491311049962,256.7491311049962,256.7491311049962,256.7491311049962,256.7491311049962,256.7491311049962,256.7491311049962,a,0.39039760701416526,10,365,1,257.16624245599087,258.6678302559885,,,,,,,,,,,,,,,,,,,,,,,,,,,,,,,,,,,,,,,,,,,,,,,,,,,,,,,,,,,,,,,,,,,,60628,2022-11-02_10h19.54.445,vts_reward_expectancy_bt_OFFLINE,2022.2.4,59.89845582044152,
0,1,0,0,1,0,0,0,circle,triangle,1,0,1,0,0,11,11,3,,,,,,,,,,,,,,,,,,,,,,,,,,,,,,,,,,,,,,,,259.1684532020008,259.1684532020008,259.1684532020008,259.1684532020008,259.1684532020008,259.1684532020008,259.1684532020008,259.1684532020008,259.1684532020008,259.1684532020008,l,1.0030017450044397,1,366,1,260.2029552009917,261.70418869199057,,,,,,,,,,,,,,,,,,,,,,,,,,,,,,,,,,,,,,,,,,,,,,,,,,,,,,,,,,,,,,,,,,,,60628,2022-11-02_10h19.54.445,vts_reward_expectancy_bt_OFFLINE,2022.2.4,59.89845582044152,
1,0,0,0,0,0,0,1,triangle,star,1,0,1,0,1,0,12,2,,,,,,,,,,,,,,,,,,,,,,,,,,,,,,,,,,,,,,,,262.20510964999266,262.20510964999266,262.20510964999266,262.20510964999266,262.20510964999266,262.20510964999266,262.20510964999266,262.20510964999266,262.20510964999266,262.20510964999266,l,0.7987085290078539,10,376,1,263.02275843799,264.524465614988,,,,,,,,,,,,,,,,,,,,,,,,,,,,,,,,,,,,,,,,,,,,,,,,,,,,,,,,,,,,,,,,,,,,60628,2022-11-02_10h19.54.445,vts_reward_expectancy_bt_OFFLINE,2022.2.4,59.89845582044152,
0,0,1,0,0,1,0,0,hexagon,circle,1,0,1,0,1,1,13,7,,,,,,,,,,,,,,,,,,,,,,,,,,,,,,,,,,,,,,,,265.0248797050008,265.0248797050008,265.0248797050008,265.0248797050008,265.0248797050008,265.0248797050008,265.0248797050008,265.0248797050008,265.0248797050008,265.0248797050008,l,0.5462671630084515,1,377,1,265.59218165998755,267.0939785669907,,,,,,,,,,,,,,,,,,,,,,,,,,,,,,,,,,,,,,,,,,,,,,,,,,,,,,,,,,,,,,,,,,,,60628,2022-11-02_10h19.54.445,vts_reward_expectancy_bt_OFFLINE,2022.2.4,59.89845582044152,
0,0,0,1,1,0,0,0,star,triangle,1,0,1,0,1,2,14,9,,,,,,,,,,,,,,,,,,,,,,,,,,,,,,,,,,,,,,,,267.5945395299932,267.5945395299932,267.5945395299932,267.5945395299932,267.5945395299932,267.5945395299932,267.5945395299932,267.5945395299932,267.5945395299932,267.5945395299932,a,0.49625456500507426,10,387,1,268.1115854399977,269.6134534289886,,,,,,,,,,,,,,,,,,,,,,,,,,,,,,,,,,,,,,,,,,,,,,,,,,,,,,,,,,,,,,,,,,,,60628,2022-11-02_10h19.54.445,vts_reward_expectancy_bt_OFFLINE,2022.2.4,59.89845582044152,
0,0,1,0,1,0,0,0,hexagon,triangle,1,0,1,0,1,3,15,6,,,,,,,,,,,,,,,,,,,,,,,,,,,,,,,,,,,,,,,,270.1139171440009,270.1139171440009,270.1139171440009,270.1139171440009,270.1139171440009,270.1139171440009,270.1139171440009,270.1139171440009,270.1139171440009,270.1139171440009,a,0.48954783301451243,1,388,1,270.6311538359878,272.1327927449893,,,,,,,,,,,,,,,,,,,,,,,,,,,,,,,,,,,,,,,,,,,,,,,,,,,,,,,,,,,,,,,,,,,,60628,2022-11-02_10h19.54.445,vts_reward_expectancy_bt_OFFLINE,2022.2.4,59.89845582044152,
0,1,0,0,1,0,0,0,circle,triangle,1,0,1,0,1,4,16,3,,,,,,,,,,,,,,,,,,,,,,,,,,,,,,,,,,,,,,,,272.6332861899864,272.6332861899864,272.6332861899864,272.6332861899864,272.6332861899864,272.6332861899864,272.6332861899864,272.6332861899864,272.6332861899864,272.6332861899864,l,0.3530694400105858,10,398,1,273.0170444059913,274.51889913799823,,,,,,,,,,,,,,,,,,,,,,,,,,,,,,,,,,,,,,,,,,,,,,,,,,,,,,,,,,,,,,,,,,,,60628,2022-11-02_10h19.54.445,vts_reward_expectancy_bt_OFFLINE,2022.2.4,59.89845582044152,
1,0,0,0,0,0,1,0,triangle,hexagon,1,0,1,0,1,5,17,1,,,,,,,,,,,,,,,,,,,,,,,,,,,,,,,,,,,,,,,,275.01938680699095,275.01938680699095,275.01938680699095,275.01938680699095,275.01938680699095,275.01938680699095,275.01938680699095,275.01938680699095,275.01938680699095,275.01938680699095,l,0.5680147090024548,1,399,1,275.62017147599545,277.1215911269974,,,,,,,,,,,,,,,,,,,,,,,,,,,,,,,,,,,,,,,,,,,,,,,,,,,,,,,,,,,,,,,,,,,,60628,2022-11-02_10h19.54.445,vts_reward_expectancy_bt_OFFLINE,2022.2.4,59.89845582044152,
0,0,0,1,0,1,0,0,star ,circle,1,0,1,0,1,6,18,10,,,,,,,,,,,,,,,,,,,,,,,,,,,,,,,,,,,,,,,,277.6219554329873,277.6219554329873,277.6219554329873,277.6219554329873,277.6219554329873,277.6219554329873,277.6219554329873,277.6219554329873,277.6219554329873,277.6219554329873,a,0.2370260580064496,1,400,1,277.88918723899405,279.39071168599185,,,,,,,,,,,,,,,,,,,,,,,,,,,,,,,,,,,,,,,,,,,,,,,,,,,,,,,,,,,,,,,,,,,,60628,2022-11-02_10h19.54.445,vts_reward_expectancy_bt_OFFLINE,2022.2.4,59.89845582044152,
0,1,0,0,0,0,0,1,circle,star,1,0,1,0,1,7,19,5,,,,,,,,,,,,,,,,,,,,,,,,,,,,,,,,,,,,,,,,279.8913188039878,279.8913188039878,279.8913188039878,279.8913188039878,279.8913188039878,279.8913188039878,279.8913188039878,279.8913188039878,279.8913188039878,279.8913188039878,l,0.23225128299964126,1,401,1,280.1415467279876,281.6432251639926,,,,,,,,,,,,,,,,,,,,,,,,,,,,,,,,,,,,,,,,,,,,,,,,,,,,,,,,,,,,,,,,,,,,60628,2022-11-02_10h19.54.445,vts_reward_expectancy_bt_OFFLINE,2022.2.4,59.89845582044152,
0,0,0,1,0,0,1,0,star,hexagon,1,0,1,0,1,8,20,11,,,,,,,,,,,,,,,,,,,,,,,,,,,,,,,,,,,,,,,,282.1439703179931,282.1439703179931,282.1439703179931,282.1439703179931,282.1439703179931,282.1439703179931,282.1439703179931,282.1439703179931,282.1439703179931,282.1439703179931,a,0.4586246530088829,10,411,1,282.6278306909953,284.12931157898856,,,,,,,,,,,,,,,,,,,,,,,,,,,,,,,,,,,,,,,,,,,,,,,,,,,,,,,,,,,,,,,,,,,,60628,2022-11-02_10h19.54.445,vts_reward_expectancy_bt_OFFLINE,2022.2.4,59.89845582044152,
0,1,0,0,0,0,1,0,circle,hexagon,1,0,1,0,1,9,21,4,,,,,,,,,,,,,,,,,,,,,,,,,,,,,,,,,,,,,,,,284.6300046099932,284.6300046099932,284.6300046099932,284.6300046099932,284.6300046099932,284.6300046099932,284.6300046099932,284.6300046099932,284.6300046099932,284.6300046099932,l,0.6534318330086535,1,412,1,285.3141363639879,286.8156703529967,,,,,,,,,,,,,,,,,,,,,,,,,,,,,,,,,,,,,,,,,,,,,,,,,,,,,,,,,,,,,,,,,,,,60628,2022-11-02_10h19.54.445,vts_reward_expectancy_bt_OFFLINE,2022.2.4,59.89845582044152,
0,0,1,0,0,0,0,1,hexagon,star,1,0,1,0,1,10,22,8,,,,,,,,,,,,,,,,,,,,,,,,,,,,,,,,,,,,,,,,287.31627266098803,287.31627266098803,287.31627266098803,287.31627266098803,287.31627266098803,287.31627266098803,287.31627266098803,287.31627266098803,287.31627266098803,287.31627266098803,a,0.0626541040110169,1,413,1,287.39975028099434,288.901340477998,,,,,,,,,,,,,,,,,,,,,,,,,,,,,,,,,,,,,,,,,,,,,,,,,,,,,,,,,,,,,,,,,,,,60628,2022-11-02_10h19.54.445,vts_reward_expectancy_bt_OFFLINE,2022.2.4,59.89845582044152,
1,0,0,0,0,1,0,0,triangle,circle,1,0,1,0,1,11,23,0,,,,,,,,,,,,,,,,,,,,,,,,,,,,,,,,,,,,,,,,289.40219068499573,289.40219068499573,289.40219068499573,289.40219068499573,289.40219068499573,289.40219068499573,289.40219068499573,289.40219068499573,289.40219068499573,289.40219068499573,l,0.5611432410078123,10,423,1,289.98575608099054,291.4873747919919,,,,,,,,,,,,,,,,,,,,,,,,,,,,,,,,,,,,,,,,,,,,,,,,,,,,,,,,,,,,,,,,,,,,60628,2022-11-02_10h19.54.445,vts_reward_expectancy_bt_OFFLINE,2022.2.4,59.89845582044152,
1,0,0,0,0,0,0,1,triangle,star,1,0,1,0,2,0,24,2,,,,,,,,,,,,,,,,,,,,,,,,,,,,,,,,,,,,,,,,291.9880166609946,291.9880166609946,291.9880166609946,291.9880166609946,291.9880166609946,291.9880166609946,291.9880166609946,291.9880166609946,291.9880166609946,291.9880166609946,l,0.4708965300087584,10,433,1,292.4886387909937,293.990481773988,,,,,,,,,,,,,,,,,,,,,,,,,,,,,,,,,,,,,,,,,,,,,,,,,,,,,,,,,,,,,,,,,,,,60628,2022-11-02_10h19.54.445,vts_reward_expectancy_bt_OFFLINE,2022.2.4,59.89845582044152,
0,0,0,1,1,0,0,0,star,triangle,1,0,1,0,2,1,25,9,,,,,,,,,,,,,,,,,,,,,,,,,,,,,,,,,,,,,,,,294.49079514099867,294.49079514099867,294.49079514099867,294.49079514099867,294.49079514099867,294.49079514099867,294.49079514099867,294.49079514099867,294.49079514099867,294.49079514099867,a,0.5919464300095569,10,443,1,295.1082474579889,296.60985868799617,,,,,,,,,,,,,,,,,,,,,,,,,,,,,,,,,,,,,,,,,,,,,,,,,,,,,,,,,,,,,,,,,,,,60628,2022-11-02_10h19.54.445,vts_reward_expectancy_bt_OFFLINE,2022.2.4,59.89845582044152,
0,1,0,0,1,0,0,0,circle,triangle,1,0,1,0,2,2,26,3,,,,,,,,,,,,,,,,,,,,,,,,,,,,,,,,,,,,,,,,297.1103468969959,297.1103468969959,297.1103468969959,297.1103468969959,297.1103468969959,297.1103468969959,297.1103468969959,297.1103468969959,297.1103468969959,297.1103468969959,l,0.6049544450070243,1,444,1,297.7442692929908,299.24605092398997,,,,,,,,,,,,,,,,,,,,,,,,,,,,,,,,,,,,,,,,,,,,,,,,,,,,,,,,,,,,,,,,,,,,60628,2022-11-02_10h19.54.445,vts_reward_expectancy_bt_OFFLINE,2022.2.4,59.89845582044152,
1,0,0,0,0,0,1,0,triangle,hexagon,1,0,1,0,2,3,27,1,,,,,,,,,,,,,,,,,,,,,,,,,,,,,,,,,,,,,,,,299.7457007399935,299.7457007399935,299.7457007399935,299.7457007399935,299.7457007399935,299.7457007399935,299.7457007399935,299.7457007399935,299.7457007399935,299.7457007399935,a,0.2978466450003907,1,445,1,300.0635997939971,301.5652502929879,,,,,,,,,,,,,,,,,,,,,,,,,,,,,,,,,,,,,,,,,,,,,,,,,,,,,,,,,,,,,,,,,,,,60628,2022-11-02_10h19.54.445,vts_reward_expectancy_bt_OFFLINE,2022.2.4,59.89845582044152,
0,0,1,0,0,1,0,0,hexagon,circle,1,0,1,0,2,4,28,7,,,,,,,,,,,,,,,,,,,,,,,,,,,,,,,,,,,,,,,,302.06583383798716,302.06583383798716,302.06583383798716,302.06583383798716,302.06583383798716,302.06583383798716,302.06583383798716,302.06583383798716,302.06583383798716,302.06583383798716,l,0.4020367420162074,1,446,1,302.4995388049865,304.00125803599076,,,,,,,,,,,,,,,,,,,,,,,,,,,,,,,,,,,,,,,,,,,,,,,,,,,,,,,,,,,,,,,,,,,,60628,2022-11-02_10h19.54.445,vts_reward_expectancy_bt_OFFLINE,2022.2.4,59.89845582044152,
0,1,0,0,0,0,0,1,circle,star,1,0,1,0,2,5,29,5,,,,,,,,,,,,,,,,,,,,,,,,,,,,,,,,,,,,,,,,304.501836534997,304.501836534997,304.501836534997,304.501836534997,304.501836534997,304.501836534997,304.501836534997,304.501836534997,304.501836534997,304.501836534997,a,0.27777361300832126,10,456,1,304.80217482599255,306.3037909029954,,,,,,,,,,,,,,,,,,,,,,,,,,,,,,,,,,,,,,,,,,,,,,,,,,,,,,,,,,,,,,,,,,,,60628,2022-11-02_10h19.54.445,vts_reward_expectancy_bt_OFFLINE,2022.2.4,59.89845582044152,
0,0,1,0,1,0,0,0,hexagon,triangle,1,0,1,0,2,6,30,6,,,,,,,,,,,,,,,,,,,,,,,,,,,,,,,,,,,,,,,,306.80430788399826,306.80430788399826,306.80430788399826,306.80430788399826,306.80430788399826,306.80430788399826,306.80430788399826,306.80430788399826,306.80430788399826,306.80430788399826,a,0.4071097700216342,1,457,1,307.2381366509944,308.7397630399937,,,,,,,,,,,,,,,,,,,,,,,,,,,,,,,,,,,,,,,,,,,,,,,,,,,,,,,,,,,,,,,,,,,,60628,2022-11-02_10h19.54.445,vts_reward_expectancy_bt_OFFLINE,2022.2.4,59.89845582044152,
0,0,0,1,0,0,1,0,star,hexagon,1,0,1,0,2,7,31,11,,,,,,,,,,,,,,,,,,,,,,,,,,,,,,,,,,,,,,,,309.2403355719871,309.2403355719871,309.2403355719871,309.2403355719871,309.2403355719871,309.2403355719871,309.2403355719871,309.2403355719871,309.2403355719871,309.2403355719871,l,0.45128487001056783,1,458,1,309.72421022699564,311.225939979995,,,,,,,,,,,,,,,,,,,,,,,,,,,,,,,,,,,,,,,,,,,,,,,,,,,,,,,,,,,,,,,,,,,,60628,2022-11-02_10h19.54.445,vts_reward_expectancy_bt_OFFLINE,2022.2.4,59.89845582044152,
0,1,0,0,0,0,1,0,circle,hexagon,1,0,1,0,2,8,32,4,,,,,,,,,,,,,,,,,,,,,,,,,,,,,,,,,,,,,,,,311.7264619519992,311.7264619519992,311.7264619519992,311.7264619519992,311.7264619519992,311.7264619519992,311.7264619519992,311.7264619519992,311.7264619519992,311.7264619519992,l,0.6844615709997015,1,459,1,312.44387155798904,313.9456275470002,,,,,,,,,,,,,,,,,,,,,,,,,,,,,,,,,,,,,,,,,,,,,,,,,,,,,,,,,,,,,,,,,,,,60628,2022-11-02_10h19.54.445,vts_reward_expectancy_bt_OFFLINE,2022.2.4,59.89845582044152,
1,0,0,0,0,1,0,0,triangle,circle,1,0,1,0,2,9,33,0,,,,,,,,,,,,,,,,,,,,,,,,,,,,,,,,,,,,,,,,314.4461996309983,314.4461996309983,314.4461996309983,314.4461996309983,314.4461996309983,314.4461996309983,314.4461996309983,314.4461996309983,314.4461996309983,314.4461996309983,a,0.45309213901055045,1,460,1,314.9299154920009,316.4316117409908,,,,,,,,,,,,,,,,,,,,,,,,,,,,,,,,,,,,,,,,,,,,,,,,,,,,,,,,,,,,,,,,,,,,60628,2022-11-02_10h19.54.445,vts_reward_expectancy_bt_OFFLINE,2022.2.4,59.89845582044152,
0,0,0,1,0,1,0,0,star ,circle,1,0,1,0,2,10,34,10,,,,,,,,,,,,,,,,,,,,,,,,,,,,,,,,,,,,,,,,316.93220657999336,316.93220657999336,316.93220657999336,316.93220657999336,316.93220657999336,316.93220657999336,316.93220657999336,316.93220657999336,316.93220657999336,316.93220657999336,l,0.039871542001492344,10,470,1,316.99895729999116,318.5006230949948,,,,,,,,,,,,,,,,,,,,,,,,,,,,,,,,,,,,,,,,,,,,,,,,,,,,,,,,,,,,,,,,,,,,60628,2022-11-02_10h19.54.445,vts_reward_expectancy_bt_OFFLINE,2022.2.4,59.89845582044152,
0,0,1,0,0,0,0,1,hexagon,star,1,0,1,0,2,11,35,8,,,,,,,,,,,,,,,,,,,,,,,,,,,,,,,,,,,,,,,,319.0012417839898,319.0012417839898,319.0012417839898,319.0012417839898,319.0012417839898,319.0012417839898,319.0012417839898,319.0012417839898,319.0012417839898,319.0012417839898,l,0.4096853060036665,1,471,1,319.43500183599826,320.9367130909959,,,,,,,,,,,,,,,,,,,,,,,,,,,,,,,,,,,,,,,,,,,,,,,,,,,,,,,,,,,,,,,,,,,,60628,2022-11-02_10h19.54.445,vts_reward_expectancy_bt_OFFLINE,2022.2.4,59.89845582044152,
1,0,0,0,0,1,0,0,triangle,circle,1,0,1,0,3,0,36,0,,,,,,,,,,,,,,,,,,,,,,,,,,,,,,,,,,,,,,,,321.43725313099276,321.43725313099276,321.43725313099276,321.43725313099276,321.43725313099276,321.43725313099276,321.43725313099276,321.43725313099276,321.43725313099276,321.43725313099276,a,0.6376873570116004,1,472,1,322.10473221998836,323.60618629999226,,,,,,,,,,,,,,,,,,,,,,,,,,,,,,,,,,,,,,,,,,,,,,,,,,,,,,,,,,,,,,,,,,,,60628,2022-11-02_10h19.54.445,vts_reward_expectancy_bt_OFFLINE,2022.2.4,59.89845582044152,
0,0,1,0,0,1,0,0,hexagon,circle,1,0,1,0,3,1,37,7,,,,,,,,,,,,,,,,,,,,,,,,,,,,,,,,,,,,,,,,324.1069118640007,324.1069118640007,324.1069118640007,324.1069118640007,324.1069118640007,324.1069118640007,324.1069118640007,324.1069118640007,324.1069118640007,324.1069118640007,l,0.34439216200553346,10,482,1,324.4737461719924,325.9755323930003,,,,,,,,,,,,,,,,,,,,,,,,,,,,,,,,,,,,,,,,,,,,,,,,,,,,,,,,,,,,,,,,,,,,60628,2022-11-02_10h19.54.445,vts_reward_expectancy_bt_OFFLINE,2022.2.4,59.89845582044152,
0,0,0,1,1,0,0,0,star,triangle,1,0,1,0,3,2,38,9,,,,,,,,,,,,,,,,,,,,,,,,,,,,,,,,,,,,,,,,326.47607528399385,326.47607528399385,326.47607528399385,326.47607528399385,326.47607528399385,326.47607528399385,326.47607528399385,326.47607528399385,326.47607528399385,326.47607528399385,a,0.5433003080106573,1,483,1,327.04340151399083,328.5449382569932,,,,,,,,,,,,,,,,,,,,,,,,,,,,,,,,,,,,,,,,,,,,,,,,,,,,,,,,,,,,,,,,,,,,60628,2022-11-02_10h19.54.445,vts_reward_expectancy_bt_OFFLINE,2022.2.4,59.89845582044152,
1,0,0,0,0,0,1,0,triangle,hexagon,1,0,1,0,3,3,39,1,,,,,,,,,,,,,,,,,,,,,,,,,,,,,,,,,,,,,,,,329.04559653799515,329.04559653799515,329.04559653799515,329.04559653799515,329.04559653799515,329.04559653799515,329.04559653799515,329.04559653799515,329.04559653799515,329.04559653799515,l,0.39796077299979515,10,493,1,329.4625918919919,330.96444259899727,,,,,,,,,,,,,,,,,,,,,,,,,,,,,,,,,,,,,,,,,,,,,,,,,,,,,,,,,,,,,,,,,,,,60628,2022-11-02_10h19.54.445,vts_reward_expectancy_bt_OFFLINE,2022.2.4,59.89845582044152,
0,0,1,0,1,0,0,0,hexagon,triangle,1,0,1,0,3,4,40,6,,,,,,,,,,,,,,,,,,,,,,,,,,,,,,,,,,,,,,,,331.4649455949984,331.4649455949984,331.4649455949984,331.4649455949984,331.4649455949984,331.4649455949984,331.4649455949984,331.4649455949984,331.4649455949984,331.4649455949984,l,0.32253355700231623,10,503,1,331.81518721599423,333.31690695299767,,,,,,,,,,,,,,,,,,,,,,,,,,,,,,,,,,,,,,,,,,,,,,,,,,,,,,,,,,,,,,,,,,,,60628,2022-11-02_10h19.54.445,vts_reward_expectancy_bt_OFFLINE,2022.2.4,59.89845582044152,
0,0,0,1,0,0,1,0,star,hexagon,1,0,1,0,3,5,41,11,,,,,,,,,,,,,,,,,,,,,,,,,,,,,,,,,,,,,,,,333.8174801169953,333.8174801169953,333.8174801169953,333.8174801169953,333.8174801169953,333.8174801169953,333.8174801169953,333.8174801169953,333.8174801169953,333.8174801169953,l,0.25694362801732495,1,504,1,334.1010445619904,335.6028262049949,,,,,,,,,,,,,,,,,,,,,,,,,,,,,,,,,,,,,,,,,,,,,,,,,,,,,,,,,,,,,,,,,,,,60628,2022-11-02_10h19.54.445,vts_reward_expectancy_bt_OFFLINE,2022.2.4,59.89845582044152,
0,0,1,0,0,0,0,1,hexagon,star,1,0,1,0,3,6,42,8,,,,,,,,,,,,,,,,,,,,,,,,,,,,,,,,,,,,,,,,336.1033025469951,336.1033025469951,336.1033025469951,336.1033025469951,336.1033025469951,336.1033025469951,336.1033025469951,336.1033025469951,336.1033025469951,336.1033025469951,l,0.3569216360046994,10,514,1,336.48715211499075,337.98872293598833,,,,,,,,,,,,,,,,,,,,,,,,,,,,,,,,,,,,,,,,,,,,,,,,,,,,,,,,,,,,,,,,,,,,60628,2022-11-02_10h19.54.445,vts_reward_expectancy_bt_OFFLINE,2022.2.4,59.89845582044152,
0,1,0,0,1,0,0,0,circle,triangle,1,0,1,0,3,7,43,3,,,,,,,,,,,,,,,,,,,,,,,,,,,,,,,,,,,,,,,,338.4892884439905,338.4892884439905,338.4892884439905,338.4892884439905,338.4892884439905,338.4892884439905,338.4892884439905,338.4892884439905,338.4892884439905,338.4892884439905,a,1.1305302060063696,10,524,1,339.6406258939969,341.14232437798637,,,,,,,,,,,,,,,,,,,,,,,,,,,,,,,,,,,,,,,,,,,,,,,,,,,,,,,,,,,,,,,,,,,,60628,2022-11-02_10h19.54.445,vts_reward_expectancy_bt_OFFLINE,2022.2.4,59.89845582044152,
0,1,0,0,0,0,0,1,circle,star,1,0,1,0,3,8,44,5,,,,,,,,,,,,,,,,,,,,,,,,,,,,,,,,,,,,,,,,341.64272686898767,341.64272686898767,341.64272686898767,341.64272686898767,341.64272686898767,341.64272686898767,341.64272686898767,341.64272686898767,341.64272686898767,341.64272686898767,l,0.5201710770052159,1,525,1,342.1932553769875,343.69501249799214,,,,,,,,,,,,,,,,,,,,,,,,,,,,,,,,,,,,,,,,,,,,,,,,,,,,,,,,,,,,,,,,,,,,60628,2022-11-02_10h19.54.445,vts_reward_expectancy_bt_OFFLINE,2022.2.4,59.89845582044152,
0,0,0,1,0,1,0,0,star ,circle,1,0,1,0,3,9,45,10,,,,,,,,,,,,,,,,,,,,,,,,,,,,,,,,,,,,,,,,344.19547864799097,344.19547864799097,344.19547864799097,344.19547864799097,344.19547864799097,344.19547864799097,344.19547864799097,344.19547864799097,344.19547864799097,344.19547864799097,a,0.4479764120042091,1,526,1,344.66279001098883,346.16444434398727,,,,,,,,,,,,,,,,,,,,,,,,,,,,,,,,,,,,,,,,,,,,,,,,,,,,,,,,,,,,,,,,,,,,60628,2022-11-02_10h19.54.445,vts_reward_expectancy_bt_OFFLINE,2022.2.4,59.89845582044152,
0,1,0,0,0,0,1,0,circle,hexagon,1,0,1,0,3,10,46,4,,,,,,,,,,,,,,,,,,,,,,,,,,,,,,,,,,,,,,,,346.6648506019992,346.6648506019992,346.6648506019992,346.6648506019992,346.6648506019992,346.6648506019992,346.6648506019992,346.6648506019992,346.6648506019992,346.6648506019992,l,0.3065195250092074,1,527,1,346.99864393498865,348.5002644369961,,,,,,,,,,,,,,,,,,,,,,,,,,,,,,,,,,,,,,,,,,,,,,,,,,,,,,,,,,,,,,,,,,,,60628,2022-11-02_10h19.54.445,vts_reward_expectancy_bt_OFFLINE,2022.2.4,59.89845582044152,
1,0,0,0,0,0,0,1,triangle,star,1,0,1,0,3,11,47,2,,,,,,,,,,,,,,,,,,,,,,,,,,,,,,,,,,,,,,,,349.0008081999986,349.0008081999986,349.0008081999986,349.0008081999986,349.0008081999986,349.0008081999986,349.0008081999986,349.0008081999986,349.0008081999986,349.0008081999986,a,0.2828328240138944,10,537,1,349.3011865890003,350.8028603409912,,,,,,,,,,,,,,,,,,,,,,,,,,,,,,,,,,,,,,,,,,,,,,,,,,,,,,,,,,,,,,,,,,,,60628,2022-11-02_10h19.54.445,vts_reward_expectancy_bt_OFFLINE,2022.2.4,59.89845582044152,
0,0,0,1,0,0,1,0,star,hexagon,2,0,2,0,0,0,0,11,,,,,,,,,,,,,,,,,,,,,,,,,,,,,,,,,,,,,,,,359.4696429149917,359.4696429149917,359.4696429149917,359.4696429149917,359.4696429149917,359.4696429149917,359.4696429149917,359.4696429149917,359.4696429149917,359.4696429149917,a,1.2378445260110311,1,538,2,360.7304516789882,362.2322322359978,,,,,,,,,,,,,,,,,,,,,,,,,,,,,,,,,,,,,,,,,,,,,,,,,,,,,,,,,,,,,,,,,,,,60628,2022-11-02_10h19.54.445,vts_reward_expectancy_bt_OFFLINE,2022.2.4,59.89845582044152,
0,1,0,0,0,0,0,1,circle,star,2,0,2,0,0,1,1,5,,,,,,,,,,,,,,,,,,,,,,,,,,,,,,,,,,,,,,,,362.7329131489969,362.7329131489969,362.7329131489969,362.7329131489969,362.7329131489969,362.7329131489969,362.7329131489969,362.7329131489969,362.7329131489969,362.7329131489969,l,0.3744603030063445,10,548,2,363.13328815098794,364.6348886679916,,,,,,,,,,,,,,,,,,,,,,,,,,,,,,,,,,,,,,,,,,,,,,,,,,,,,,,,,,,,,,,,,,,,60628,2022-11-02_10h19.54.445,vts_reward_expectancy_bt_OFFLINE,2022.2.4,59.89845582044152,
0,1,0,0,0,0,1,0,circle,hexagon,2,0,2,0,0,2,2,4,,,,,,,,,,,,,,,,,,,,,,,,,,,,,,,,,,,,,,,,365.1354388949985,365.1354388949985,365.1354388949985,365.1354388949985,365.1354388949985,365.1354388949985,365.1354388949985,365.1354388949985,365.1354388949985,365.1354388949985,a,0.5878509129979648,10,558,2,365.7526507319999,367.2543594029994,,,,,,,,,,,,,,,,,,,,,,,,,,,,,,,,,,,,,,,,,,,,,,,,,,,,,,,,,,,,,,,,,,,,60628,2022-11-02_10h19.54.445,vts_reward_expectancy_bt_OFFLINE,2022.2.4,59.89845582044152,
0,1,0,0,1,0,0,0,circle,triangle,2,0,2,0,0,3,3,3,,,,,,,,,,,,,,,,,,,,,,,,,,,,,,,,,,,,,,,,367.75492461799877,367.75492461799877,367.75492461799877,367.75492461799877,367.75492461799877,367.75492461799877,367.75492461799877,367.75492461799877,367.75492461799877,367.75492461799877,l,0.39268316101515666,10,568,2,368.1720265799959,369.67377419899276,,,,,,,,,,,,,,,,,,,,,,,,,,,,,,,,,,,,,,,,,,,,,,,,,,,,,,,,,,,,,,,,,,,,60628,2022-11-02_10h19.54.445,vts_reward_expectancy_bt_OFFLINE,2022.2.4,59.89845582044152,
0,0,1,0,0,1,0,0,hexagon,circle,2,0,2,0,0,4,4,7,,,,,,,,,,,,,,,,,,,,,,,,,,,,,,,,,,,,,,,,370.17410611899686,370.17410611899686,370.17410611899686,370.17410611899686,370.17410611899686,370.17410611899686,370.17410611899686,370.17410611899686,370.17410611899686,370.17410611899686,a,0.39725097101472784,10,578,2,370.59137482199003,372.09301899399725,,,,,,,,,,,,,,,,,,,,,,,,,,,,,,,,,,,,,,,,,,,,,,,,,,,,,,,,,,,,,,,,,,,,60628,2022-11-02_10h19.54.445,vts_reward_expectancy_bt_OFFLINE,2022.2.4,59.89845582044152,
1,0,0,0,0,0,0,1,triangle,star,2,0,2,0,0,5,5,2,,,,,,,,,,,,,,,,,,,,,,,,,,,,,,,,,,,,,,,,372.59364302699396,372.59364302699396,372.59364302699396,372.59364302699396,372.59364302699396,372.59364302699396,372.59364302699396,372.59364302699396,372.59364302699396,372.59364302699396,l,0.6337457050103694,10,588,2,373.24436213199806,374.74596285699226,,,,,,,,,,,,,,,,,,,,,,,,,,,,,,,,,,,,,,,,,,,,,,,,,,,,,,,,,,,,,,,,,,,,60628,2022-11-02_10h19.54.445,vts_reward_expectancy_bt_OFFLINE,2022.2.4,59.89845582044152,
0,0,0,1,0,1,0,0,star ,circle,2,0,2,0,0,6,6,10,,,,,,,,,,,,,,,,,,,,,,,,,,,,,,,,,,,,,,,,375.24653240399493,375.24653240399493,375.24653240399493,375.24653240399493,375.24653240399493,375.24653240399493,375.24653240399493,375.24653240399493,375.24653240399493,375.24653240399493,a,0.3737966800108552,10,598,2,375.6469098089874,377.14873735199217,,,,,,,,,,,,,,,,,,,,,,,,,,,,,,,,,,,,,,,,,,,,,,,,,,,,,,,,,,,,,,,,,,,,60628,2022-11-02_10h19.54.445,vts_reward_expectancy_bt_OFFLINE,2022.2.4,59.89845582044152,
1,0,0,0,0,1,0,0,triangle,circle,2,0,2,0,0,7,7,0,,,,,,,,,,,,,,,,,,,,,,,,,,,,,,,,,,,,,,,,377.6492751479964,377.6492751479964,377.6492751479964,377.6492751479964,377.6492751479964,377.6492751479964,377.6492751479964,377.6492751479964,377.6492751479964,377.6492751479964,l,0.5135658710059943,1,599,2,378.18309795598907,379.684720706995,,,,,,,,,,,,,,,,,,,,,,,,,,,,,,,,,,,,,,,,,,,,,,,,,,,,,,,,,,,,,,,,,,,,60628,2022-11-02_10h19.54.445,vts_reward_expectancy_bt_OFFLINE,2022.2.4,59.89845582044152,
0,0,1,0,0,0,0,1,hexagon,star,2,0,2,0,0,8,8,8,,,,,,,,,,,,,,,,,,,,,,,,,,,,,,,,,,,,,,,,380.18532043999585,380.18532043999585,380.18532043999585,380.18532043999585,380.18532043999585,380.18532043999585,380.18532043999585,380.18532043999585,380.18532043999585,380.18532043999585,l,0.6663327310088789,1,600,2,380.86928714599344,382.37115217899554,,,,,,,,,,,,,,,,,,,,,,,,,,,,,,,,,,,,,,,,,,,,,,,,,,,,,,,,,,,,,,,,,,,,60628,2022-11-02_10h19.54.445,vts_reward_expectancy_bt_OFFLINE,2022.2.4,59.89845582044152,
0,0,0,1,1,0,0,0,star,triangle,2,0,2,0,0,9,9,9,,,,,,,,,,,,,,,,,,,,,,,,,,,,,,,,,,,,,,,,382.87161918698985,382.87161918698985,382.87161918698985,382.87161918698985,382.87161918698985,382.87161918698985,382.87161918698985,382.87161918698985,382.87161918698985,382.87161918698985,a,0.323949174999143,1,601,2,383.22191358800046,384.7236741359957,,,,,,,,,,,,,,,,,,,,,,,,,,,,,,,,,,,,,,,,,,,,,,,,,,,,,,,,,,,,,,,,,,,,60628,2022-11-02_10h19.54.445,vts_reward_expectancy_bt_OFFLINE,2022.2.4,59.89845582044152,
1,0,0,0,0,0,1,0,triangle,hexagon,2,0,2,0,0,10,10,1,,,,,,,,,,,,,,,,,,,,,,,,,,,,,,,,,,,,,,,,385.2241919730004,385.2241919730004,385.2241919730004,385.2241919730004,385.2241919730004,385.2241919730004,385.2241919730004,385.2241919730004,385.2241919730004,385.2241919730004,a,0.19443829101510346,1,602,2,385.4410305019992,386.94271093398856,,,,,,,,,,,,,,,,,,,,,,,,,,,,,,,,,,,,,,,,,,,,,,,,,,,,,,,,,,,,,,,,,,,,60628,2022-11-02_10h19.54.445,vts_reward_expectancy_bt_OFFLINE,2022.2.4,59.89845582044152,
0,0,1,0,1,0,0,0,hexagon,triangle,2,0,2,0,0,11,11,6,,,,,,,,,,,,,,,,,,,,,,,,,,,,,,,,,,,,,,,,387.44335739599774,387.44335739599774,387.44335739599774,387.44335739599774,387.44335739599774,387.44335739599774,387.44335739599774,387.44335739599774,387.44335739599774,387.44335739599774,l,0.31131377701240126,10,612,2,387.7771321170003,389.2786633020005,,,,,,,,,,,,,,,,,,,,,,,,,,,,,,,,,,,,,,,,,,,,,,,,,,,,,,,,,,,,,,,,,,,,60628,2022-11-02_10h19.54.445,vts_reward_expectancy_bt_OFFLINE,2022.2.4,59.89845582044152,
1,0,0,0,0,0,1,0,triangle,hexagon,2,0,2,0,1,0,12,1,,,,,,,,,,,,,,,,,,,,,,,,,,,,,,,,,,,,,,,,389.77929709599994,389.77929709599994,389.77929709599994,389.77929709599994,389.77929709599994,389.77929709599994,389.77929709599994,389.77929709599994,389.77929709599994,389.77929709599994,l,0.6958289500180399,10,622,2,390.49666429898934,391.99830113399366,,,,,,,,,,,,,,,,,,,,,,,,,,,,,,,,,,,,,,,,,,,,,,,,,,,,,,,,,,,,,,,,,,,,60628,2022-11-02_10h19.54.445,vts_reward_expectancy_bt_OFFLINE,2022.2.4,59.89845582044152,
1,0,0,0,0,1,0,0,triangle,circle,2,0,2,0,1,1,13,0,,,,,,,,,,,,,,,,,,,,,,,,,,,,,,,,,,,,,,,,392.498863100991,392.498863100991,392.498863100991,392.498863100991,392.498863100991,392.498863100991,392.498863100991,392.498863100991,392.498863100991,392.498863100991,a,0.527774053014582,1,623,2,393.0495216959971,394.5511662289937,,,,,,,,,,,,,,,,,,,,,,,,,,,,,,,,,,,,,,,,,,,,,,,,,,,,,,,,,,,,,,,,,,,,60628,2022-11-02_10h19.54.445,vts_reward_expectancy_bt_OFFLINE,2022.2.4,59.89845582044152,
1,0,0,0,0,0,0,1,triangle,star,2,0,2,0,1,2,14,2,,,,,,,,,,,,,,,,,,,,,,,,,,,,,,,,,,,,,,,,395.05171826398873,395.05171826398873,395.05171826398873,395.05171826398873,395.05171826398873,395.05171826398873,395.05171826398873,395.05171826398873,395.05171826398873,395.05171826398873,l,0.4713327380013652,10,633,2,395.55227600999933,397.053960499994,,,,,,,,,,,,,,,,,,,,,,,,,,,,,,,,,,,,,,,,,,,,,,,,,,,,,,,,,,,,,,,,,,,,60628,2022-11-02_10h19.54.445,vts_reward_expectancy_bt_OFFLINE,2022.2.4,59.89845582044152,
0,0,0,1,0,1,0,0,star ,circle,2,0,2,0,1,3,15,10,,,,,,,,,,,,,,,,,,,,,,,,,,,,,,,,,,,,,,,,397.55451551199076,397.55451551199076,397.55451551199076,397.55451551199076,397.55451551199076,397.55451551199076,397.55451551199076,397.55451551199076,397.55451551199076,397.55451551199076,a,0.5690094890014734,10,643,2,398.1551649489993,399.6568266109971,,,,,,,,,,,,,,,,,,,,,,,,,,,,,,,,,,,,,,,,,,,,,,,,,,,,,,,,,,,,,,,,,,,,60628,2022-11-02_10h19.54.445,vts_reward_expectancy_bt_OFFLINE,2022.2.4,59.89845582044152,
0,0,0,1,0,0,1,0,star,hexagon,2,0,2,0,1,4,16,11,,,,,,,,,,,,,,,,,,,,,,,,,,,,,,,,,,,,,,,,400.15736130399455,400.15736130399455,400.15736130399455,400.15736130399455,400.15736130399455,400.15736130399455,400.15736130399455,400.15736130399455,400.15736130399455,400.15736130399455,l,0.5019514560117386,10,653,2,400.6912923899945,402.19292750398745,,,,,,,,,,,,,,,,,,,,,,,,,,,,,,,,,,,,,,,,,,,,,,,,,,,,,,,,,,,,,,,,,,,,60628,2022-11-02_10h19.54.445,vts_reward_expectancy_bt_OFFLINE,2022.2.4,59.89845582044152,
0,1,0,0,1,0,0,0,circle,triangle,2,0,2,0,1,5,17,3,,,,,,,,,,,,,,,,,,,,,,,,,,,,,,,,,,,,,,,,402.6935550719936,402.6935550719936,402.6935550719936,402.6935550719936,402.6935550719936,402.6935550719936,402.6935550719936,402.6935550719936,402.6935550719936,402.6935550719936,a,0.5181558110198239,1,654,2,403.2440791979898,404.7456912249909,,,,,,,,,,,,,,,,,,,,,,,,,,,,,,,,,,,,,,,,,,,,,,,,,,,,,,,,,,,,,,,,,,,,60628,2022-11-02_10h19.54.445,vts_reward_expectancy_bt_OFFLINE,2022.2.4,59.89845582044152,
0,1,0,0,0,0,0,1,circle,star,2,0,2,0,1,6,18,5,,,,,,,,,,,,,,,,,,,,,,,,,,,,,,,,,,,,,,,,405.24621654899966,405.24621654899966,405.24621654899966,405.24621654899966,405.24621654899966,405.24621654899966,405.24621654899966,405.24621654899966,405.24621654899966,405.24621654899966,l,0.4131083620013669,10,664,2,405.6800184709864,407.18171571099083,,,,,,,,,,,,,,,,,,,,,,,,,,,,,,,,,,,,,,,,,,,,,,,,,,,,,,,,,,,,,,,,,,,,60628,2022-11-02_10h19.54.445,vts_reward_expectancy_bt_OFFLINE,2022.2.4,59.89845582044152,
0,0,1,0,0,1,0,0,hexagon,circle,2,0,2,0,1,7,19,7,,,,,,,,,,,,,,,,,,,,,,,,,,,,,,,,,,,,,,,,407.68231097799435,407.68231097799435,407.68231097799435,407.68231097799435,407.68231097799435,407.68231097799435,407.68231097799435,407.68231097799435,407.68231097799435,407.68231097799435,a,0.4965812250011368,10,674,2,408.1996536809893,409.7012036169908,,,,,,,,,,,,,,,,,,,,,,,,,,,,,,,,,,,,,,,,,,,,,,,,,,,,,,,,,,,,,,,,,,,,60628,2022-11-02_10h19.54.445,vts_reward_expectancy_bt_OFFLINE,2022.2.4,59.89845582044152,
0,0,0,1,1,0,0,0,star,triangle,2,0,2,0,1,8,20,9,,,,,,,,,,,,,,,,,,,,,,,,,,,,,,,,,,,,,,,,410.2016941269976,410.2016941269976,410.2016941269976,410.2016941269976,410.2016941269976,410.2016941269976,410.2016941269976,410.2016941269976,410.2016941269976,410.2016941269976,l,0.5216257940192008,1,675,2,410.752350662995,412.25394091999624,,,,,,,,,,,,,,,,,,,,,,,,,,,,,,,,,,,,,,,,,,,,,,,,,,,,,,,,,,,,,,,,,,,,60628,2022-11-02_10h19.54.445,vts_reward_expectancy_bt_OFFLINE,2022.2.4,59.89845582044152,
0,0,1,0,0,0,0,1,hexagon,star,2,0,2,0,1,9,21,8,,,,,,,,,,,,,,,,,,,,,,,,,,,,,,,,,,,,,,,,412.7546856639965,412.7546856639965,412.7546856639965,412.7546856639965,412.7546856639965,412.7546856639965,412.7546856639965,412.7546856639965,412.7546856639965,412.7546856639965,l,0.5038837850152049,10,685,2,413.28843720498844,414.7900361840002,,,,,,,,,,,,,,,,,,,,,,,,,,,,,,,,,,,,,,,,,,,,,,,,,,,,,,,,,,,,,,,,,,,,60628,2022-11-02_10h19.54.445,vts_reward_expectancy_bt_OFFLINE,2022.2.4,59.89845582044152,
0,1,0,0,0,0,1,0,circle,hexagon,2,0,2,0,1,10,22,4,,,,,,,,,,,,,,,,,,,,,,,,,,,,,,,,,,,,,,,,415.2906284759956,415.2906284759956,415.2906284759956,415.2906284759956,415.2906284759956,415.2906284759956,415.2906284759956,415.2906284759956,415.2906284759956,415.2906284759956,a,0.5279368040064583,10,695,2,415.8411214069929,417.3428268869902,,,,,,,,,,,,,,,,,,,,,,,,,,,,,,,,,,,,,,,,,,,,,,,,,,,,,,,,,,,,,,,,,,,,60628,2022-11-02_10h19.54.445,vts_reward_expectancy_bt_OFFLINE,2022.2.4,59.89845582044152,
0,0,1,0,1,0,0,0,hexagon,triangle,2,0,2,0,1,11,23,6,,,,,,,,,,,,,,,,,,,,,,,,,,,,,,,,,,,,,,,,417.8434070759977,417.8434070759977,417.8434070759977,417.8434070759977,417.8434070759977,417.8434070759977,417.8434070759977,417.8434070759977,417.8434070759977,417.8434070759977,l,0.4960862830193946,1,696,2,418.36058523399697,419.8623870099982,,,,,,,,,,,,,,,,,,,,,,,,,,,,,,,,,,,,,,,,,,,,,,,,,,,,,,,,,,,,,,,,,,,,60628,2022-11-02_10h19.54.445,vts_reward_expectancy_bt_OFFLINE,2022.2.4,59.89845582044152,
0,1,0,0,0,0,1,0,circle,hexagon,2,0,2,0,2,0,24,4,,,,,,,,,,,,,,,,,,,,,,,,,,,,,,,,,,,,,,,,420.3628252429917,420.3628252429917,420.3628252429917,420.3628252429917,420.3628252429917,420.3628252429917,420.3628252429917,420.3628252429917,420.3628252429917,420.3628252429917,a,0.4963653150043683,1,697,2,420.88006734299415,422.38179886099533,,,,,,,,,,,,,,,,,,,,,,,,,,,,,,,,,,,,,,,,,,,,,,,,,,,,,,,,,,,,,,,,,,,,60628,2022-11-02_10h19.54.445,vts_reward_expectancy_bt_OFFLINE,2022.2.4,59.89845582044152,
1,0,0,0,0,1,0,0,triangle,circle,2,0,2,0,2,1,25,0,,,,,,,,,,,,,,,,,,,,,,,,,,,,,,,,,,,,,,,,422.88229533898993,422.88229533898993,422.88229533898993,422.88229533898993,422.88229533898993,422.88229533898993,422.88229533898993,422.88229533898993,422.88229533898993,422.88229533898993,l,0.5283922660019016,1,698,2,423.43309312299243,424.934486897997,,,,,,,,,,,,,,,,,,,,,,,,,,,,,,,,,,,,,,,,,,,,,,,,,,,,,,,,,,,,,,,,,,,,60628,2022-11-02_10h19.54.445,vts_reward_expectancy_bt_OFFLINE,2022.2.4,59.89845582044152,
0,0,1,0,0,1,0,0,hexagon,circle,2,0,2,0,2,2,26,7,,,,,,,,,,,,,,,,,,,,,,,,,,,,,,,,,,,,,,,,425.4351201009995,425.4351201009995,425.4351201009995,425.4351201009995,425.4351201009995,425.4351201009995,425.4351201009995,425.4351201009995,425.4351201009995,425.4351201009995,a,0.3277273970161332,1,699,2,425.7855393989885,427.28728786698775,,,,,,,,,,,,,,,,,,,,,,,,,,,,,,,,,,,,,,,,,,,,,,,,,,,,,,,,,,,,,,,,,,,,60628,2022-11-02_10h19.54.445,vts_reward_expectancy_bt_OFFLINE,2022.2.4,59.89845582044152,
1,0,0,0,0,0,0,1,triangle,star,2,0,2,0,2,3,27,2,,,,,,,,,,,,,,,,,,,,,,,,,,,,,,,,,,,,,,,,427.7877776719979,427.7877776719979,427.7877776719979,427.7877776719979,427.7877776719979,427.7877776719979,427.7877776719979,427.7877776719979,427.7877776719979,427.7877776719979,l,0.3748139410017757,1,700,2,428.18804824599647,429.689820827989,,,,,,,,,,,,,,,,,,,,,,,,,,,,,,,,,,,,,,,,,,,,,,,,,,,,,,,,,,,,,,,,,,,,60628,2022-11-02_10h19.54.445,vts_reward_expectancy_bt_OFFLINE,2022.2.4,59.89845582044152,
0,0,0,1,1,0,0,0,star,triangle,2,0,2,0,2,4,28,9,,,,,,,,,,,,,,,,,,,,,,,,,,,,,,,,,,,,,,,,430.1903878909943,430.1903878909943,430.1903878909943,430.1903878909943,430.1903878909943,430.1903878909943,430.1903878909943,430.1903878909943,430.1903878909943,430.1903878909943,a,0.40425203800259624,10,710,2,430.6240788639989,432.12585760100046,,,,,,,,,,,,,,,,,,,,,,,,,,,,,,,,,,,,,,,,,,,,,,,,,,,,,,,,,,,,,,,,,,,,60628,2022-11-02_10h19.54.445,vts_reward_expectancy_bt_OFFLINE,2022.2.4,59.89845582044152,
0,0,0,1,0,1,0,0,star ,circle,2,0,2,0,2,5,29,10,,,,,,,,,,,,,,,,,,,,,,,,,,,,,,,,,,,,,,,,432.6263199209934,432.6263199209934,432.6263199209934,432.6263199209934,432.6263199209934,432.6263199209934,432.6263199209934,432.6263199209934,432.6263199209934,432.6263199209934,a,1.0011144690070068,10,720,2,433.64421542099444,435.1458687509876,,,,,,,,,,,,,,,,,,,,,,,,,,,,,,,,,,,,,,,,,,,,,,,,,,,,,,,,,,,,,,,,,,,,60628,2022-11-02_10h19.54.445,vts_reward_expectancy_bt_OFFLINE,2022.2.4,59.89845582044152,
0,0,0,1,0,0,1,0,star,hexagon,2,0,2,0,2,6,30,11,,,,,,,,,,,,,,,,,,,,,,,,,,,,,,,,,,,,,,,,435.64646232700034,435.64646232700034,435.64646232700034,435.64646232700034,435.64646232700034,435.64646232700034,435.64646232700034,435.64646232700034,435.64646232700034,435.64646232700034,a,0.4449105890089413,10,730,2,436.11380146999727,437.61533596499066,,,,,,,,,,,,,,,,,,,,,,,,,,,,,,,,,,,,,,,,,,,,,,,,,,,,,,,,,,,,,,,,,,,,60628,2022-11-02_10h19.54.445,vts_reward_expectancy_bt_OFFLINE,2022.2.4,59.89845582044152,
0,0,1,0,1,0,0,0,hexagon,triangle,2,0,2,0,2,7,31,6,,,,,,,,,,,,,,,,,,,,,,,,,,,,,,,,,,,,,,,,438.11588984300033,438.11588984300033,438.11588984300033,438.11588984300033,438.11588984300033,438.11588984300033,438.11588984300033,438.11588984300033,438.11588984300033,438.11588984300033,a,1.2076447750150692,1,731,2,439.35044729799847,440.85215002098994,,,,,,,,,,,,,,,,,,,,,,,,,,,,,,,,,,,,,,,,,,,,,,,,,,,,,,,,,,,,,,,,,,,,60628,2022-11-02_10h19.54.445,vts_reward_expectancy_bt_OFFLINE,2022.2.4,59.89845582044152,
0,0,1,0,0,0,0,1,hexagon,star,2,0,2,0,2,8,32,8,,,,,,,,,,,,,,,,,,,,,,,,,,,,,,,,,,,,,,,,441.35286204799195,441.35286204799195,441.35286204799195,441.35286204799195,441.35286204799195,441.35286204799195,441.35286204799195,441.35286204799195,441.35286204799195,441.35286204799195,a,1.0181827410124242,1,732,2,442.40384640399134,443.90547307700035,,,,,,,,,,,,,,,,,,,,,,,,,,,,,,,,,,,,,,,,,,,,,,,,,,,,,,,,,,,,,,,,,,,,60628,2022-11-02_10h19.54.445,vts_reward_expectancy_bt_OFFLINE,2022.2.4,59.89845582044152,
1,0,0,0,0,0,1,0,triangle,hexagon,2,0,2,0,2,9,33,1,,,,,,,,,,,,,,,,,,,,,,,,,,,,,,,,,,,,,,,,444.40621941999416,444.40621941999416,444.40621941999416,444.40621941999416,444.40621941999416,444.40621941999416,444.40621941999416,444.40621941999416,444.40621941999416,444.40621941999416,a,0.9405605680076405,1,733,2,445.3738148019911,446.87570734698966,,,,,,,,,,,,,,,,,,,,,,,,,,,,,,,,,,,,,,,,,,,,,,,,,,,,,,,,,,,,,,,,,,,,60628,2022-11-02_10h19.54.445,vts_reward_expectancy_bt_OFFLINE,2022.2.4,59.89845582044152,
0,1,0,0,1,0,0,0,circle,triangle,2,0,2,0,2,10,34,3,,,,,,,,,,,,,,,,,,,,,,,,,,,,,,,,,,,,,,,,447.37608662399,447.37608662399,447.37608662399,447.37608662399,447.37608662399,447.37608662399,447.37608662399,447.37608662399,447.37608662399,447.37608662399,l,0.7701375210162951,1,734,2,448.177018219998,449.6787913989974,,,,,,,,,,,,,,,,,,,,,,,,,,,,,,,,,,,,,,,,,,,,,,,,,,,,,,,,,,,,,,,,,,,,60628,2022-11-02_10h19.54.445,vts_reward_expectancy_bt_OFFLINE,2022.2.4,59.89845582044152,
0,1,0,0,0,0,0,1,circle,star,2,0,2,0,2,11,35,5,,,,,,,,,,,,,,,,,,,,,,,,,,,,,,,,,,,,,,,,450.1792136449949,450.1792136449949,450.1792136449949,450.1792136449949,450.1792136449949,450.1792136449949,450.1792136449949,450.1792136449949,450.1792136449949,450.1792136449949,a,0.3678967500018189,10,744,2,450.57953719599755,452.08123164899007,,,,,,,,,,,,,,,,,,,,,,,,,,,,,,,,,,,,,,,,,,,,,,,,,,,,,,,,,,,,,,,,,,,,60628,2022-11-02_10h19.54.445,vts_reward_expectancy_bt_OFFLINE,2022.2.4,59.89845582044152,
0,0,0,1,1,0,0,0,star,triangle,2,0,2,0,3,0,36,9,,,,,,,,,,,,,,,,,,,,,,,,,,,,,,,,,,,,,,,,452.58172014699085,452.58172014699085,452.58172014699085,452.58172014699085,452.58172014699085,452.58172014699085,452.58172014699085,452.58172014699085,452.58172014699085,452.58172014699085,a,0.5897385750140529,1,745,2,453.1990754599974,454.70081253899843,,,,,,,,,,,,,,,,,,,,,,,,,,,,,,,,,,,,,,,,,,,,,,,,,,,,,,,,,,,,,,,,,,,,60628,2022-11-02_10h19.54.445,vts_reward_expectancy_bt_OFFLINE,2022.2.4,59.89845582044152,
1,0,0,0,0,0,0,1,triangle,star,2,0,2,0,3,1,37,2,,,,,,,,,,,,,,,,,,,,,,,,,,,,,,,,,,,,,,,,455.2012367989955,455.2012367989955,455.2012367989955,455.2012367989955,455.2012367989955,455.2012367989955,455.2012367989955,455.2012367989955,455.2012367989955,455.2012367989955,l,0.49094038001203444,1,746,2,455.7183956489898,457.2202538619895,,,,,,,,,,,,,,,,,,,,,,,,,,,,,,,,,,,,,,,,,,,,,,,,,,,,,,,,,,,,,,,,,,,,60628,2022-11-02_10h19.54.445,vts_reward_expectancy_bt_OFFLINE,2022.2.4,59.89845582044152,
0,0,0,1,0,0,1,0,star,hexagon,2,0,2,0,3,2,38,11,,,,,,,,,,,,,,,,,,,,,,,,,,,,,,,,,,,,,,,,457.7207370919932,457.7207370919932,457.7207370919932,457.7207370919932,457.7207370919932,457.7207370919932,457.7207370919932,457.7207370919932,457.7207370919932,457.7207370919932,a,0.330335663020378,1,747,2,458.071078656998,459.5728237729927,,,,,,,,,,,,,,,,,,,,,,,,,,,,,,,,,,,,,,,,,,,,,,,,,,,,,,,,,,,,,,,,,,,,60628,2022-11-02_10h19.54.445,vts_reward_expectancy_bt_OFFLINE,2022.2.4,59.89845582044152,
0,1,0,0,0,0,1,0,circle,hexagon,2,0,2,0,3,3,39,4,,,,,,,,,,,,,,,,,,,,,,,,,,,,,,,,,,,,,,,,460.0733564859984,460.0733564859984,460.0733564859984,460.0733564859984,460.0733564859984,460.0733564859984,460.0733564859984,460.0733564859984,460.0733564859984,460.0733564859984,l,0.37813440401805565,10,757,2,460.4737953559961,461.97547578699596,,,,,,,,,,,,,,,,,,,,,,,,,,,,,,,,,,,,,,,,,,,,,,,,,,,,,,,,,,,,,,,,,,,,60628,2022-11-02_10h19.54.445,vts_reward_expectancy_bt_OFFLINE,2022.2.4,59.89845582044152,
0,0,0,1,0,1,0,0,star ,circle,2,0,2,0,3,4,40,10,,,,,,,,,,,,,,,,,,,,,,,,,,,,,,,,,,,,,,,,462.4760509339976,462.4760509339976,462.4760509339976,462.4760509339976,462.4760509339976,462.4760509339976,462.4760509339976,462.4760509339976,462.4760509339976,462.4760509339976,a,0.47861817201192025,10,767,2,462.97672933999274,464.47824533699895,,,,,,,,,,,,,,,,,,,,,,,,,,,,,,,,,,,,,,,,,,,,,,,,,,,,,,,,,,,,,,,,,,,,60628,2022-11-02_10h19.54.445,vts_reward_expectancy_bt_OFFLINE,2022.2.4,59.89845582044152,
0,0,1,0,0,0,0,1,hexagon,star,2,0,2,0,3,5,41,8,,,,,,,,,,,,,,,,,,,,,,,,,,,,,,,,,,,,,,,,464.97884340499877,464.97884340499877,464.97884340499877,464.97884340499877,464.97884340499877,464.97884340499877,464.97884340499877,464.97884340499877,464.97884340499877,464.97884340499877,l,0.5114775490073953,10,777,2,465.5127139099932,467.01449616099126,,,,,,,,,,,,,,,,,,,,,,,,,,,,,,,,,,,,,,,,,,,,,,,,,,,,,,,,,,,,,,,,,,,,60628,2022-11-02_10h19.54.445,vts_reward_expectancy_bt_OFFLINE,2022.2.4,59.89845582044152,
0,1,0,0,0,0,0,1,circle,star,2,0,2,0,3,6,42,5,,,,,,,,,,,,,,,,,,,,,,,,,,,,,,,,,,,,,,,,467.5149311529967,467.5149311529967,467.5149311529967,467.5149311529967,467.5149311529967,467.5149311529967,467.5149311529967,467.5149311529967,467.5149311529967,467.5149311529967,l,0.7279316659987671,10,787,2,468.26597677898826,469.76755809099996,,,,,,,,,,,,,,,,,,,,,,,,,,,,,,,,,,,,,,,,,,,,,,,,,,,,,,,,,,,,,,,,,,,,60628,2022-11-02_10h19.54.445,vts_reward_expectancy_bt_OFFLINE,2022.2.4,59.89845582044152,
1,0,0,0,0,0,1,0,triangle,hexagon,2,0,2,0,3,7,43,1,,,,,,,,,,,,,,,,,,,,,,,,,,,,,,,,,,,,,,,,470.26807020799606,470.26807020799606,470.26807020799606,470.26807020799606,470.26807020799606,470.26807020799606,470.26807020799606,470.26807020799606,470.26807020799606,470.26807020799606,a,0.6949852670077235,1,788,2,470.9854723979952,472.48711736399855,,,,,,,,,,,,,,,,,,,,,,,,,,,,,,,,,,,,,,,,,,,,,,,,,,,,,,,,,,,,,,,,,,,,60628,2022-11-02_10h19.54.445,vts_reward_expectancy_bt_OFFLINE,2022.2.4,59.89845582044152,
0,0,1,0,0,1,0,0,hexagon,circle,2,0,2,0,3,8,44,7,,,,,,,,,,,,,,,,,,,,,,,,,,,,,,,,,,,,,,,,472.98764221699093,472.98764221699093,472.98764221699093,472.98764221699093,472.98764221699093,472.98764221699093,472.98764221699093,472.98764221699093,472.98764221699093,472.98764221699093,a,1.063639943007729,10,798,2,474.072002306988,475.5736926690006,,,,,,,,,,,,,,,,,,,,,,,,,,,,,,,,,,,,,,,,,,,,,,,,,,,,,,,,,,,,,,,,,,,,60628,2022-11-02_10h19.54.445,vts_reward_expectancy_bt_OFFLINE,2022.2.4,59.89845582044152,
0,1,0,0,1,0,0,0,circle,triangle,2,0,2,0,3,9,45,3,,,,,,,,,,,,,,,,,,,,,,,,,,,,,,,,,,,,,,,,476.0742661580007,476.0742661580007,476.0742661580007,476.0742661580007,476.0742661580007,476.0742661580007,476.0742661580007,476.0742661580007,476.0742661580007,476.0742661580007,l,0.729051647009328,10,808,2,476.8251208859874,478.32678970998677,,,,,,,,,,,,,,,,,,,,,,,,,,,,,,,,,,,,,,,,,,,,,,,,,,,,,,,,,,,,,,,,,,,,60628,2022-11-02_10h19.54.445,vts_reward_expectancy_bt_OFFLINE,2022.2.4,59.89845582044152,
1,0,0,0,0,1,0,0,triangle,circle,2,0,2,0,3,10,46,0,,,,,,,,,,,,,,,,,,,,,,,,,,,,,,,,,,,,,,,,478.82736181998916,478.82736181998916,478.82736181998916,478.82736181998916,478.82736181998916,478.82736181998916,478.82736181998916,478.82736181998916,478.82736181998916,478.82736181998916,l,1.5842646030068863,10,818,2,480.42932728699816,481.9308312590001,,,,,,,,,,,,,,,,,,,,,,,,,,,,,,,,,,,,,,,,,,,,,,,,,,,,,,,,,,,,,,,,,,,,60628,2022-11-02_10h19.54.445,vts_reward_expectancy_bt_OFFLINE,2022.2.4,59.89845582044152,
0,0,1,0,1,0,0,0,hexagon,triangle,2,0,2,0,3,11,47,6,,,,,,,,,,,,,,,,,,,,,,,,,,,,,,,,,,,,,,,,482.4313141169987,482.4313141169987,482.4313141169987,482.4313141169987,482.4313141169987,482.4313141169987,482.4313141169987,482.4313141169987,482.4313141169987,482.4313141169987,a,1.4682909840048524,1,819,2,483.91654390598706,485.4181699609908,,,,,,,,,,,,,,,,,,,,,,,,,,,,,,,,,,,,,,,,,,,,,,,,,,,,,,,,,,,,,,,,,,,,60628,2022-11-02_10h19.54.445,vts_reward_expectancy_bt_OFFLINE,2022.2.4,59.89845582044152,
,,,,,,,,,,,,,,,,,,0,0,0,0,0,0,0,0,,,,,,,,,,,,,,,,,,,,,,,,,,,,,,,,,,,,,,,,,,,,,,,,544.733429586995,F,181,circle,0.002043971006060019,538.7242251779971,540.2283857369912,540.2283857369912,540.2283857369912,543.231676143987,543.231676143987,543.231676143987,543.231676143987,0,0,None,0,543.231676143987,544.733429586995,545.234107043987,,,,,,,,,,,,,,,,,,,,,,,,,,,,,,,,,,,,,,,,,,,,,,,,,60628,2022-11-02_10h19.54.445,vts_reward_expectancy_bt_OFFLINE,2022.2.4,59.89845582044152,
,,,,,,,,,,,,,,,,,,0,0,0,0,1,0,1,0,,,,,,,,,,,,,,,,,,,,,,,,,,,,,,,,,,,,,,,,,,,,,,,,550.289767380993,U,132,star,0.009399898000992835,545.7329764969909,547.2363712279912,547.2363712279912,547.2363712279912,,,,,1,1,f,0,548.7879126599873,,,1.5193403700104682,,,,,,,,,,,,,,,,,,,,,,,,,,,,,,,,,,,,,,,,,,,,,,,,60628,2022-11-02_10h19.54.445,vts_reward_expectancy_bt_OFFLINE,2022.2.4,59.89845582044152,
,,,,,,,,,,,,,,,,,,0,0,0,0,2,0,2,0,,,,,,,,,,,,,,,,,,,,,,,,,,,,,,,,,,,,,,,,,,,,,,,,555.0949050279887,B,125,hexagon,0.0016169159935088828,551.2717528249923,552.7757876739925,552.7757876739925,552.7757876739925,,,,,1,0,d,0,553.5931299699878,,,0.7871639040095033,,,,,,,,,,,,,,,,,,,,,,,,,,,,,,,,,,,,,,,,,,,,,,,,60628,2022-11-02_10h19.54.445,vts_reward_expectancy_bt_OFFLINE,2022.2.4,59.89845582044152,
,,,,,,,,,,,,,,,,,,0,0,0,0,3,0,3,0,,,,,,,,,,,,,,,,,,,,,,,,,,,,,,,,,,,,,,,,,,,,,,,,559.7166087959922,W,174,triangle,0.0017562749999342486,556.0774115959939,557.5808670499973,557.5808670499973,557.5808670499973,,,,,1,0,f,0,558.21494716499,,,0.6064754640101455,,,,,,,,,,,,,,,,,,,,,,,,,,,,,,,,,,,,,,,,,,,,,,,,60628,2022-11-02_10h19.54.445,vts_reward_expectancy_bt_OFFLINE,2022.2.4,59.89845582044152,
,,,,,,,,,,,,,,,,,,0,0,0,0,4,0,4,0,,,,,,,,,,,,,,,,,,,,,,,,,,,,,,,,,,,,,,,,,,,,,,,,564.6887298489892,H,167,triangle,0.0017552880017319694,560.6977565849957,562.2027622979949,562.2027622979949,562.2027622979949,,,,,1,0,d,0,563.1871282829961,,,0.9524863540136721,,,,,,,,,,,,,,,,,,,,,,,,,,,,,,,,,,,,,,,,,,,,,,,,60628,2022-11-02_10h19.54.445,vts_reward_expectancy_bt_OFFLINE,2022.2.4,59.89845582044152,
,,,,,,,,,,,,,,,,,,0,0,0,0,5,0,5,0,,,,,,,,,,,,,,,,,,,,,,,,,,,,,,,,,,,,,,,,,,,,,,,,569.410772889998,S,160,hexagon,0.001834473994676955,565.6683023149963,567.1748568019975,567.1748568019975,567.1748568019975,,,,,1,0,f,0,567.909004199988,,,0.7085756870219484,,,,,,,,,,,,,,,,,,,,,,,,,,,,,,,,,,,,,,,,,,,,,,,,60628,2022-11-02_10h19.54.445,vts_reward_expectancy_bt_OFFLINE,2022.2.4,59.89845582044152,
,,,,,,,,,,,,,,,,,,0,0,0,0,6,0,6,0,,,,,,,,,,,,,,,,,,,,,,,,,,,,,,,,,,,,,,,,,,,,,,,,574.2828233729961,Y,146,circle,0.0017164610035251826,570.3922050659894,571.8967458659899,571.8967458659899,571.8967458659899,,,,,1,0,f,0,572.7810216999933,,,0.8585381900047651,,,,,,,,,,,,,,,,,,,,,,,,,,,,,,,,,,,,,,,,,,,,,,,,60628,2022-11-02_10h19.54.445,vts_reward_expectancy_bt_OFFLINE,2022.2.4,59.89845582044152,
,,,,,,,,,,,,,,,,,,0,0,0,0,7,0,7,0,,,,,,,,,,,,,,,,,,,,,,,,,,,,,,,,,,,,,,,,,,,,,,,,579.3048460889986,D,139,star,0.001603376993443817,575.2649550249917,576.7688701619918,576.7688701619918,576.7688701619918,,,,,1,0,d,0,577.8028549399896,,,1.0097356730111642,,,,,,,,,,,,,,,,,,,,,,,,,,,,,,,,,,,,,,,,,,,,,,,,60628,2022-11-02_10h19.54.445,vts_reward_expectancy_bt_OFFLINE,2022.2.4,59.89845582044152,
,,,,,,,,,,,,,,,,,,0,0,0,0,8,0,8,0,,,,,,,,,,,,,,,,,,,,,,,,,,,,,,,,,,,,,,,,,,,,,,,,584.0592278449913,F,181,circle,0.0015265399997588247,580.2843416139949,581.7908959669876,581.7908959669876,581.7908959669876,,,,,1,0,d,0,582.5585064999905,,,0.7492708780046087,,,,,,,,,,,,,,,,,,,,,,,,,,,,,,,,,,,,,,,,,,,,,,,,60628,2022-11-02_10h19.54.445,vts_reward_expectancy_bt_OFFLINE,2022.2.4,59.89845582044152,
,,,,,,,,,,,,,,,,,,0,0,0,0,9,0,9,0,,,,,,,,,,,,,,,,,,,,,,,,,,,,,,,,,,,,,,,,,,,,,,,,588.5985262539907,U,132,triangle,0.0019417969888309017,585.0400890349993,586.5463769049966,586.5463769049966,586.5463769049966,,,,,1,0,f,0,587.0970375459874,,,0.5282245920097921,,,,,,,,,,,,,,,,,,,,,,,,,,,,,,,,,,,,,,,,,,,,,,,,60628,2022-11-02_10h19.54.445,vts_reward_expectancy_bt_OFFLINE,2022.2.4,59.89845582044152,
,,,,,,,,,,,,,,,,,,,,,,,,,,0,0,0,0,0,0,0,0,,,,,,,,,,,,,,,,,,,,,,,,,,,,,,,,,,,,,,,,609.0878196319973,D,167,circle,0.0021660979982698336,,,,,,,,,1,0,,1,607.5860145569895,,,,604.9615425999946,606.4682907289971,606.4682907289971,606.4682907289971,k,1.0951552960032132,,,,,,,,,,,,,,,,,,,,,,,,,,,,,,,,,,,,,,,,,,60628,2022-11-02_10h19.54.445,vts_reward_expectancy_bt_OFFLINE,2022.2.4,59.89845582044152,
,,,,,,,,,,,,,,,,,,,,,,,,,,0,0,0,0,1,0,1,0,,,,,,,,,,,,,,,,,,,,,,,,,,,,,,,,,,,,,,,,614.0766665229894,F,146,hexagon,0.0016018589958548546,,,,,,,,,1,0,,1,612.5749714989943,,,,610.0673020569957,611.5740017809876,611.5740017809876,611.5740017809876,j,0.9816323780105449,,,,,,,,,,,,,,,,,,,,,,,,,,,,,,,,,,,,,,,,,,60628,2022-11-02_10h19.54.445,vts_reward_expectancy_bt_OFFLINE,2022.2.4,59.89845582044152,
,,,,,,,,,,,,,,,,,,,,,,,,,,0,0,0,0,2,0,2,0,,,,,,,,,,,,,,,,,,,,,,,,,,,,,,,,,,,,,,,,619.198943009993,S,139,triangle,0.0016806359926704317,,,,,,,,,1,0,,1,617.6973200459906,,,,615.0565448889975,616.5628135669976,616.5628135669976,616.5628135669976,j,1.11220927600516,,,,,,,,,,,,,,,,,,,,,,,,,,,,,,,,,,,,,,,,,,60628,2022-11-02_10h19.54.445,vts_reward_expectancy_bt_OFFLINE,2022.2.4,59.89845582044152,
,,,,,,,,,,,,,,,,,,,,,,,,,,0,0,0,0,3,0,3,0,,,,,,,,,,,,,,,,,,,,,,,,,,,,,,,,,,,,,,,,623.9365624459897,U,174,star,0.0015410980122396722,,,,,,,,,1,0,,1,622.4359387869918,623.9365624459897,,,620.178217690991,621.6852109429892,621.6852109429892,621.6852109429892,k,0.7181745380075881,,,,,,,,,,,,,,,,,,,,,,,,,,,,,,,,,,,,,,,,,,60628,2022-11-02_10h19.54.445,vts_reward_expectancy_bt_OFFLINE,2022.2.4,59.89845582044152,
,,,,,,,,,,,,,,,,,,,,,,,,,,0,0,0,0,4,0,4,0,,,,,,,,,,,,,,,,,,,,,,,,,,,,,,,,,,,,,,,,628.826327481991,H,125,hexagon,0.0016688169998815283,,,,,,,,,1,0,,1,627.3245025419892,,,,624.9191707579885,626.4237446379993,626.4237446379993,626.4237446379993,j,0.8840570890170056,,,,,,,,,,,,,,,,,,,,,,,,,,,,,,,,,,,,,,,,,,60628,2022-11-02_10h19.54.445,vts_reward_expectancy_bt_OFFLINE,2022.2.4,59.89845582044152,
,,,,,,,,,,,,,,,,,,,,,,,,,,0,0,0,0,5,0,5,0,,,,,,,,,,,,,,,,,,,,,,,,,,,,,,,,,,,,,,,,634.6659417819901,B,181,circle,0.0014693659904878587,,,,,,,,,1,0,,1,633.1643854279973,,,,629.8057683099905,631.3123083339888,631.3123083339888,631.3123083339888,k,1.8351343630056363,,,,,,,,,,,,,,,,,,,,,,,,,,,,,,,,,,,,,,,,,,60628,2022-11-02_10h19.54.445,vts_reward_expectancy_bt_OFFLINE,2022.2.4,59.89845582044152,
,,,,,,,,,,,,,,,,,,,,,,,,,,0,0,0,0,6,0,6,0,,,,,,,,,,,,,,,,,,,,,,,,,,,,,,,,,,,,,,,,639.3377584949922,W,132,triangle,0.00167393300216645,,,,,,,,,1,0,,1,637.8363289029949,,,,635.6470167139923,637.1519932069932,637.1519932069932,637.1519932069932,j,0.6586796549963765,,,,,,,,,,,,,,,,,,,,,,,,,,,,,,,,,,,,,,,,,,60628,2022-11-02_10h19.54.445,vts_reward_expectancy_bt_OFFLINE,2022.2.4,59.89845582044152,
,,,,,,,,,,,,,,,,,,,,,,,,,,0,0,0,0,7,0,7,0,,,,,,,,,,,,,,,,,,,,,,,,,,,,,,,,,,,,,,,,644.1429956679931,Y,160,star,0.0014591320068575442,,,,,,,,,1,0,,1,642.6413360509905,,,,640.3191933039925,641.8238342010009,641.8238342010009,641.8238342010009,k,0.7868011220125481,,,,,,,,,,,,,,,,,,,,,,,,,,,,,,,,,,,,,,,,,,60628,2022-11-02_10h19.54.445,vts_reward_expectancy_bt_OFFLINE,2022.2.4,59.89845582044152,
,,,,,,,,,,,,,,,,,,,,,,,,,,0,0,0,0,8,0,8,0,,,,,,,,,,,,,,,,,,,,,,,,,,,,,,,,,,,,,,,,649.1818996369984,D,167,circle,0.0016198969969991595,,,,,,,,,1,0,,1,647.6804886249884,,,,645.1220147099957,646.6292781579978,646.6292781579978,646.6292781579978,k,1.0219890600128565,,,,,,,,,,,,,,,,,,,,,,,,,,,,,,,,,,,,,,,,,,60628,2022-11-02_10h19.54.445,vts_reward_expectancy_bt_OFFLINE,2022.2.4,59.89845582044152,
,,,,,,,,,,,,,,,,,,,,,,,,,,0,0,0,0,9,0,9,0,,,,,,,,,,,,,,,,,,,,,,,,,,,,,,,,,,,,,,,,654.2709668389871,F,146,triangle,0.0017546939925523475,,,,,,,,,1,0,,1,652.7692749489943,,,,650.1613026569976,651.668198030995,651.668198030995,651.668198030995,j,1.0701916180114495,,,,,,,,,,,,,,,,,,,,,,,,,,,,,,,,,,,,,,,,,,60628,2022-11-02_10h19.54.445,vts_reward_expectancy_bt_OFFLINE,2022.2.4,59.89845582044152,
,,,,,,,,,,,,,,,,,,,,,,,,,,,,,,,,,,0,0,0,0,0,0,0,0,,,,,,,,,,,,,,,,,,,,,,,,,,,,0,819,,,678.781259698997,Y,160,triangle,0.0018451440118951723,,,,,,,,,1,0,,2,,,,,,,,,,,674.3912565469946,674.3912565469946,674.3912565469946,674.3912565469946,675.8947285539907,675.8947285539907,675.8947285539907,675.8947285539907,675.8947285539907,675.8947285539907,675.8947285539907,675.8947285539907,-1,letter,NA,f,1.3485106180014554,vtsPrac,677.2660523979866,,,,,,,,,,,,,,,,,,,,,,,60628,2022-11-02_10h19.54.445,vts_reward_expectancy_bt_OFFLINE,2022.2.4,59.89845582044152,
,,,,,,,,,,,,,,,,,,,,,,,,,,,,,,,,,,0,0,0,0,1,0,1,0,,,,,,,,,,,,,,,,,,,,,,,,,,,,0,819,,,685.5053543949907,W,167,circle,0.01790775499830488,,,,,,,,,1,0,,2,,,,,,,,,,,679.7683482389984,679.7683482389984,679.7683482389984,679.7683482389984,681.284010599993,681.284010599993,681.284010599993,681.284010599993,681.2506613099977,681.2506613099977,681.2506613099977,681.2506613099977,repeat,letter,lettRpt,f,2.7200454930134583,vtsPrac,684.0035088889999,,,,,,,,,,,,,,,,,,,,,,,60628,2022-11-02_10h19.54.445,vts_reward_expectancy_bt_OFFLINE,2022.2.4,59.89845582044152,
,,,,,,,,,,,,,,,,,,,,,,,,,,,,,,,,,,0,0,0,0,2,0,2,0,,,,,,,,,,,,,,,,,,,,,,,,,,,,0,819,,,691.4951904129994,F,181,triangle,0.0016640929970890284,,,,,,,,,1,0,,2,,,,,,,,,,,686.4878740659915,686.4878740659915,686.4878740659915,686.4878740659915,687.9913841279922,687.9913841279922,687.9913841279922,687.9913841279922,687.9913841279922,687.9913841279922,687.9913841279922,687.9913841279922,repeat,letter,lettRpt,d,1.9709631170117063,vtsPrac,689.9935984149924,,,,,,,,,,,,,,,,,,,,,,,60628,2022-11-02_10h19.54.445,vts_reward_expectancy_bt_OFFLINE,2022.2.4,59.89845582044152,
,,,,,,,,,,,,,,,,,,,,,,,,,,,,,,,,,,0,0,0,0,3,0,3,0,,,,,,,,,,,,,,,,,,,,,,,,,,,,0,819,,,697.6687417270005,U,174,star,0.0016310640057781711,,,,,,,,,1,0,,2,,,,,,,,,,,692.4751736109902,692.4751736109902,692.4751736109902,692.4751736109902,693.9812364279933,693.9812364279933,693.9812364279933,693.9812364279933,693.9812364279933,693.9812364279933,693.9812364279933,693.9812364279933,repeat,letter,lettRpt,f,2.166531317998306,vtsPrac,696.1672186859942,,,,,,,,,,,,,,,,,,,,,,,60628,2022-11-02_10h19.54.445,vts_reward_expectancy_bt_OFFLINE,2022.2.4,59.89845582044152,
,,,,,,,,,,,,,,,,,,,,,,,,,,,,,,,,,,0,0,0,0,4,0,4,0,,,,,,,,,,,,,,,,,,,,,,,,,,,,0,819,,,703.0916109949903,Y,160,star,0.0016474970034323633,,,,,,,,,1,0,,2,,,,,,,,,,,698.6469619259879,698.6469619259879,698.6469619259879,698.6469619259879,700.1548385949864,700.1548385949864,700.1548385949864,700.1548385949864,700.1548385949864,700.1548385949864,700.1548385949864,700.1548385949864,switch,number,numSwt,k,1.408624965013587,vtsPrac,701.5902304019983,,,,,,,,,,,,,,,,,,,,,,,60628,2022-11-02_10h19.54.445,vts_reward_expectancy_bt_OFFLINE,2022.2.4,59.89845582044152,
,,,,,,,,,,,,,,,,,,,,,,,,,,,,,,,,,,0,0,0,0,5,0,5,0,,,,,,,,,,,,,,,,,,,,,,,,,,,,0,819,,,708.8476767809916,W,167,triangle,0.0011726189986802638,,,,,,,,,1,0,,2,,,,,,,,,,,704.0707391619944,704.0707391619944,704.0707391619944,704.0707391619944,705.5774796170008,705.5774796170008,705.5774796170008,705.5774796170008,705.5774796170008,705.5774796170008,705.5774796170008,705.5774796170008,switch,letter,lettSwt,f,1.7453314550075447,vtsPrac,707.3467256119911,,,,,,,,,,,,,,,,,,,,,,,60628,2022-11-02_10h19.54.445,vts_reward_expectancy_bt_OFFLINE,2022.2.4,59.89845582044152,
,,,,,,,,,,,,,,,,,,,,,,,,,,,,,,,,,,0,0,0,0,6,0,6,0,,,,,,,,,,,,,,,,,,,,,,,,,,,,0,819,,,714.3538991370006,F,181,star,0.0015022240113466978,,,,,,,,,1,0,,2,,,,,,,,,,,709.8278829949995,709.8278829949995,709.8278829949995,709.8278829949995,711.333843417,711.333843417,711.333843417,711.333843417,711.333843417,711.333843417,711.333843417,711.333843417,repeat,letter,lettRpt,d,1.4854047270055162,vtsPrac,712.8523249249993,,,,,,,,,,,,,,,,,,,,,,,60628,2022-11-02_10h19.54.445,vts_reward_expectancy_bt_OFFLINE,2022.2.4,59.89845582044152,
,,,,,,,,,,,,,,,,,,,,,,,,,,,,,,,,,,0,0,0,0,7,0,7,0,,,,,,,,,,,,,,,,,,,,,,,,,,,,0,819,,,719.7264009569917,U,174,triangle,0.0016555870097363368,,,,,,,,,1,0,,2,,,,,,,,,,,715.3318110219989,715.3318110219989,715.3318110219989,715.3318110219989,716.8399644889869,716.8399644889869,716.8399644889869,716.8399644889869,716.8399644889869,716.8399644889869,716.8399644889869,716.8399644889869,repeat,letter,lettRpt,f,1.3553056600212585,vtsPrac,718.2254735439928,,,,,,,,,,,,,,,,,,,,,,,60628,2022-11-02_10h19.54.445,vts_reward_expectancy_bt_OFFLINE,2022.2.4,59.89845582044152,
,,,,,,,,,,,,,,,,,,,,,,,,,,,,,,,,,,0,0,0,0,8,0,8,0,,,,,,,,,,,,,,,,,,,,,,,,,,,,0,819,,,725.0823613919929,H,181,circle,0.0015403959987452254,,,,,,,,,1,0,,2,,,,,,,,,,,720.7086629139958,720.7086629139958,720.7086629139958,720.7086629139958,722.2125608009956,722.2125608009956,722.2125608009956,722.2125608009956,722.2125608009956,722.2125608009956,722.2125608009956,722.2125608009956,repeat,letter,lettRpt,d,1.350801862005028,vtsPrac,723.5807249189966,,,,,,,,,,,,,,,,,,,,,,,60628,2022-11-02_10h19.54.445,vts_reward_expectancy_bt_OFFLINE,2022.2.4,59.89845582044152,
,,,,,,,,,,,,,,,,,,,,,,,,,,,,,,,,,,0,0,0,0,9,0,9,0,,,,,,,,,,,,,,,,,,,,,,,,,,,,0,819,,,730.5383637959894,F,167,star,0.0014049290039110929,,,,,,,,,1,0,,2,,,,,,,,,,,726.0604764789896,726.0604764789896,726.0604764789896,726.0604764789896,727.5685793390003,727.5685793390003,727.5685793390003,727.5685793390003,727.5685793390003,727.5685793390003,727.5685793390003,727.5685793390003,repeat,letter,lettRpt,d,1.4422967960126698,vtsPrac,729.0369837519975,,,,,,,,,,,,,,,,,,,,,,,60628,2022-11-02_10h19.54.445,vts_reward_expectancy_bt_OFFLINE,2022.2.4,59.89845582044152,
,,,,,,,,,,,,,,,,,,,,,,,,,,,,,,,,,,0,0,0,0,10,0,10,0,,,,,,,,,,,,,,,,,,,,,,,,,,,,0,819,,,736.3113753959915,U,132,triangle,0.0015417599934153259,,,,,,,,,1,0,,2,,,,,,,,,,,731.5179453229939,731.5179453229939,731.5179453229939,731.5179453229939,733.0245345359872,733.0245345359872,733.0245345359872,733.0245345359872,733.0245345359872,733.0245345359872,733.0245345359872,733.0245345359872,repeat,letter,lettRpt,f,1.7623574220197042,vtsPrac,734.8111169439944,,,,,,,,,,,,,,,,,,,,,,,60628,2022-11-02_10h19.54.445,vts_reward_expectancy_bt_OFFLINE,2022.2.4,59.89845582044152,
,,,,,,,,,,,,,,,,,,,,,,,,,,,,,,,,,,0,0,0,0,11,0,11,0,,,,,,,,,,,,,,,,,,,,,,,,,,,,0,819,,,741.8676424979931,Y,139,hexagon,0.0011807069968199357,,,,,,,,,1,0,,2,,,,,,,,,,,737.2914240519895,737.2914240519895,737.2914240519895,737.2914240519895,738.7974539539864,738.7974539539864,738.7974539539864,738.7974539539864,738.7974539539864,738.7974539539864,738.7974539539864,738.7974539539864,repeat,letter,lettRpt,f,1.5419308400014415,vtsPrac,740.3657651549875,,,,,,,,,,,,,,,,,,,,,,,60628,2022-11-02_10h19.54.445,vts_reward_expectancy_bt_OFFLINE,2022.2.4,59.89845582044152,
,,,,,,,,,,,,,,,,,,,,,,,,,,,,,,,,,,0,0,0,0,12,0,12,0,,,,,,,,,,,,,,,,,,,,,,,,,,,,0,819,,,747.273573036,Y,174,triangle,0.001514864998171106,,,,,,,,,1,0,,2,,,,,,,,,,,742.8447782189905,742.8447782189905,742.8447782189905,742.8447782189905,744.3537544739957,744.3537544739957,744.3537544739957,744.3537544739957,744.3537544739957,744.3537544739957,744.3537544739957,744.3537544739957,repeat,letter,lettRpt,f,1.4013360700046178,vtsPrac,745.771752250992,,,,,,,,,,,,,,,,,,,,,,,60628,2022-11-02_10h19.54.445,vts_reward_expectancy_bt_OFFLINE,2022.2.4,59.89845582044152,
,,,,,,,,,,,,,,,,,,,,,,,,,,,,,,,,,,0,0,0,0,13,0,13,0,,,,,,,,,,,,,,,,,,,,,,,,,,,,0,819,,,752.6294787809893,H,167,circle,0.0014485899882856756,,,,,,,,,1,0,,2,,,,,,,,,,,748.2528461639886,748.2528461639886,748.2528461639886,748.2528461639886,749.7596547819994,749.7596547819994,749.7596547819994,749.7596547819994,749.7596547819994,749.7596547819994,749.7596547819994,749.7596547819994,repeat,letter,lettRpt,d,1.3477511650125962,vtsPrac,751.1284413099929,,,,,,,,,,,,,,,,,,,,,,,60628,2022-11-02_10h19.54.445,vts_reward_expectancy_bt_OFFLINE,2022.2.4,59.89845582044152,
,,,,,,,,,,,,,,,,,,,,,,,,,,,,,,,,,,0,0,0,0,14,0,14,0,,,,,,,,,,,,,,,,,,,,,,,,,,,,0,819,,,758.2523266009957,B,146,hexagon,0.0014794730086578056,,,,,,,,,1,0,,2,,,,,,,,,,,753.609596217997,753.609596217997,753.609596217997,753.609596217997,755.1154558329872,755.1154558329872,755.1154558329872,755.1154558329872,755.1154558329872,755.1154558329872,755.1154558329872,755.1154558329872,repeat,letter,lettRpt,d,1.6075877749972278,vtsPrac,756.7507698879926,,,,,,,,,,,,,,,,,,,,,,,60628,2022-11-02_10h19.54.445,vts_reward_expectancy_bt_OFFLINE,2022.2.4,59.89845582044152,
,,,,,,,,,,,,,,,,,,,,,,,,,,,,,,,,,,0,0,0,0,15,0,15,0,,,,,,,,,,,,,,,,,,,,,,,,,,,,0,819,,,763.6083695720008,U,132,triangle,0.0017096829978981987,,,,,,,,,1,0,,2,,,,,,,,,,,759.2340507119952,759.2340507119952,759.2340507119952,759.2340507119952,760.7384771539946,760.7384771539946,760.7384771539946,760.7384771539946,760.7384771539946,760.7384771539946,760.7384771539946,760.7384771539946,repeat,letter,lettRpt,f,1.3358902590116486,vtsPrac,762.1066928329965,,,,,,,,,,,,,,,,,,,,,,,60628,2022-11-02_10h19.54.445,vts_reward_expectancy_bt_OFFLINE,2022.2.4,59.89845582044152,
,,,,,,,,,,,,,,,,,,,,,,,,,,,,,,,,,,1,0,1,0,0,0,0,0,,,,,,,,,,,,,,,,,,,,,,,,,,,,0,819,,,796.6780377289979,H,125,triangle,0.0018882120057241991,,,,,,,,,1,0,,3,,,,,,,,,,,792.235967539993,792.235967539993,792.235967539993,792.235967539993,793.7414581929916,793.7414581929916,793.7414581929916,793.7414581929916,793.7414581929916,793.7414581929916,793.7414581929916,793.7414581929916,repeat,letter,lettRpt,d,1.405812599012279,vtsPrac,795.1764569309889,,,,,,,,,,,,,,,,,,,,,,,60628,2022-11-02_10h19.54.445,vts_reward_expectancy_bt_OFFLINE,2022.2.4,59.89845582044152,
,,,,,,,,,,,,,,,,,,,,,,,,,,,,,,,,,,1,0,1,0,1,0,1,0,,,,,,,,,,,,,,,,,,,,,,,,,,,,0,819,,,801.4167671439936,Y,167,hexagon,0.001447620990802534,,,,,,,,,1,0,,3,,,,,,,,,,,797.6568953019887,797.6568953019887,797.6568953019887,797.6568953019887,799.1640794659907,799.1640794659907,799.1640794659907,799.1640794659907,799.1640794659907,799.1640794659907,799.1640794659907,799.1640794659907,switch,number,numSwt,k,0.7274518260092009,vtsPrac,799.9150022239919,,,,,,,,,,,,,,,,,,,,,,,60628,2022-11-02_10h19.54.445,vts_reward_expectancy_bt_OFFLINE,2022.2.4,59.89845582044152,
,,,,,,,,,,,,,,,,,,,,,,,,,,,,,,,,,,1,0,1,0,2,0,2,0,,,,,,,,,,,,,,,,,,,,,,,,,,,,0,819,,,807.5066641640005,B,181,hexagon,0.0014172989904182032,,,,,,,,,1,0,,3,,,,,,,,,,,802.3966044819972,802.3966044819972,802.3966044819972,802.3966044819972,803.9026756329986,803.9026756329986,803.9026756329986,803.9026756329986,803.9026756329986,803.9026756329986,803.9026756329986,803.9026756329986,repeat,number,numRpt,k,2.0762383790133754,vtsPrac,806.0048750829883,,,,,,,,,,,,,,,,,,,,,,,60628,2022-11-02_10h19.54.445,vts_reward_expectancy_bt_OFFLINE,2022.2.4,59.89845582044152,
,,,,,,,,,,,,,,,,,,,,,,,,,,,,,,,,,,1,0,1,0,3,0,3,0,,,,,,,,,,,,,,,,,,,,,,,,,,,,0,819,,,812.4787124639988,S,132,triangle,0.001560999997309409,,,,,,,,,1,0,,3,,,,,,,,,,,808.4865264589898,808.4865264589898,808.4865264589898,808.4865264589898,809.9925986699964,809.9925986699964,809.9925986699964,809.9925986699964,809.9925986699964,809.9925986699964,809.9925986699964,809.9925986699964,switch,letter,lettSwt,f,0.9550255360081792,vtsPrac,810.9771598149964,,,,,,,,,,,,,,,,,,,,,,,60628,2022-11-02_10h19.54.445,vts_reward_expectancy_bt_OFFLINE,2022.2.4,59.89845582044152,
,,,,,,,,,,,,,,,,,,,,,,,,,,,,,,,,,,1,0,1,0,4,0,4,0,,,,,,,,,,,,,,,,,,,,,,,,,,,,0,819,,,817.7178188639955,H,125,star,0.0016666469891788438,,,,,,,,,1,0,,3,,,,,,,,,,,813.4600094519992,813.4600094519992,813.4600094519992,813.4600094519992,814.9648284059949,814.9648284059949,814.9648284059949,814.9648284059949,814.9648284059949,814.9648284059949,814.9648284059949,814.9648284059949,switch,number,numSwt,j,1.230415793004795,vtsPrac,816.2163581419882,,,,,,,,,,,,,,,,,,,,,,,60628,2022-11-02_10h19.54.445,vts_reward_expectancy_bt_OFFLINE,2022.2.4,59.89845582044152,
,,,,,,,,,,,,,,,,,,,,,,,,,,,,,,,,,,1,0,1,0,5,0,5,0,,,,,,,,,,,,,,,,,,,,,,,,,,,,0,819,,,822.439879004989,Y,167,circle,0.0016418799932580441,,,,,,,,,1,0,,3,,,,,,,,,,,818.6959415009915,818.6959415009915,818.6959415009915,818.6959415009915,820.2038049019902,820.2038049019902,820.2038049019902,820.2038049019902,820.2038049019902,820.2038049019902,820.2038049019902,820.2038049019902,switch,letter,lettSwt,f,0.7118432010174729,vtsPrac,820.9379310609947,,,,,,,,,,,,,,,,,,,,,,,60628,2022-11-02_10h19.54.445,vts_reward_expectancy_bt_OFFLINE,2022.2.4,59.89845582044152,
,,,,,,,,,,,,,,,,,,,,,,,,,,,,,,,,,,1,0,1,0,6,0,6,0,,,,,,,,,,,,,,,,,,,,,,,,,,,,0,819,,,826.9281863129872,B,181,circle,0.001652492006542161,,,,,,,,,1,0,,3,,,,,,,,,,,823.4208675089903,823.4208675089903,823.4208675089903,823.4208675089903,824.9259327019972,824.9259327019972,824.9259327019972,824.9259327019972,824.9259327019972,824.9259327019972,824.9259327019972,824.9259327019972,switch,number,numSwt,k,0.47668103901378345,vtsPrac,825.4265075379953,,,,,,,,,,,,,,,,,,,,,,,60628,2022-11-02_10h19.54.445,vts_reward_expectancy_bt_OFFLINE,2022.2.4,59.89845582044152,
,,,,,,,,,,,,,,,,,,,,,,,,,,,,,,,,,,1,0,1,0,7,0,7,0,,,,,,,,,,,,,,,,,,,,,,,,,,,,0,819,,,832.1505338679999,S,132,star,0.0015481059963349253,,,,,,,,,1,0,,3,,,,,,,,,,,827.9072477269947,827.9072477269947,827.9072477269947,827.9072477269947,829.414142330992,829.414142330992,829.414142330992,829.414142330992,829.414142330992,829.414142330992,829.414142330992,829.414142330992,repeat,number,numRpt,j,1.2124610480095726,vtsPrac,830.6487149659952,,,,,,,,,,,,,,,,,,,,,,,60628,2022-11-02_10h19.54.445,vts_reward_expectancy_bt_OFFLINE,2022.2.4,59.89845582044152,
,,,,,,,,,,,,,,,,,,,,,,,,,,,,,,,,,,1,0,1,0,8,0,8,0,,,,,,,,,,,,,,,,,,,,,,,,,,,,0,819,,,837.4897668669873,S,146,triangle,0.0016408219962613657,,,,,,,,,1,0,,3,,,,,,,,,,,833.1276867159904,833.1276867159904,833.1276867159904,833.1276867159904,834.6367747559998,834.6367747559998,834.6367747559998,834.6367747559998,834.6367747559998,834.6367747559998,834.6367747559998,834.6367747559998,switch,letter,lettSwt,f,1.334694376011612,vtsPrac,835.9883169759996,,,,,,,,,,,,,,,,,,,,,,,60628,2022-11-02_10h19.54.445,vts_reward_expectancy_bt_OFFLINE,2022.2.4,59.89845582044152,
,,,,,,,,,,,,,,,,,,,,,,,,,,,,,,,,,,1,0,1,0,9,0,9,0,,,,,,,,,,,,,,,,,,,,,,,,,,,,0,819,,,842.1947573969956,W,167,hexagon,0.0014072799967834726,,,,,,,,,1,0,,3,,,,,,,,,,,838.4691710219922,838.4691710219922,838.4691710219922,838.4691710219922,839.9756086749985,839.9756086749985,839.9756086749985,839.9756086749985,839.9756086749985,839.9756086749985,839.9756086749985,839.9756086749985,repeat,letter,lettRpt,f,0.699754457018571,vtsPrac,840.6930369949987,,,,,,,,,,,,,,,,,,,,,,,60628,2022-11-02_10h19.54.445,vts_reward_expectancy_bt_OFFLINE,2022.2.4,59.89845582044152,
,,,,,,,,,,,,,,,,,,,,,,,,,,,,,,,,,,1,0,1,0,10,0,10,0,,,,,,,,,,,,,,,,,,,,,,,,,,,,0,819,,,847.0334527929954,D,132,triangle,0.0014021159877302125,,,,,,,,,1,0,,3,,,,,,,,,,,843.175024015989,843.175024015989,843.175024015989,843.175024015989,844.6809054319892,844.6809054319892,844.6809054319892,844.6809054319892,844.6809054319892,844.6809054319892,844.6809054319892,844.6809054319892,switch,number,numSwt,j,0.8345095130061964,vtsPrac,845.531802751997,,,,,,,,,,,,,,,,,,,,,,,60628,2022-11-02_10h19.54.445,vts_reward_expectancy_bt_OFFLINE,2022.2.4,59.89845582044152,
,,,,,,,,,,,,,,,,,,,,,,,,,,,,,,,,,,1,0,1,0,11,0,11,0,,,,,,,,,,,,,,,,,,,,,,,,,,,,0,819,,,852.1727768239944,B,160,hexagon,0.0010987489949911833,,,,,,,,,1,0,,3,,,,,,,,,,,848.0148844169889,848.0148844169889,848.0148844169889,848.0148844169889,849.5197107409913,849.5197107409913,849.5197107409913,849.5197107409913,849.5197107409913,849.5197107409913,849.5197107409913,849.5197107409913,repeat,number,numRpt,k,1.131737752002664,vtsPrac,850.6709249089909,,,,,,,,,,,,,,,,,,,,,,,60628,2022-11-02_10h19.54.445,vts_reward_expectancy_bt_OFFLINE,2022.2.4,59.89845582044152,
,,,,,,,,,,,,,,,,,,,,,,,,,,,,,,,,,,1,0,1,0,12,0,12,0,,,,,,,,,,,,,,,,,,,,,,,,,,,,0,819,,,856.8778213579935,Y,181,star,0.0015982629993231967,,,,,,,,,1,0,,3,,,,,,,,,,,853.1526460059977,853.1526460059977,853.1526460059977,853.1526460059977,854.6586099790002,854.6586099790002,854.6586099790002,854.6586099790002,854.6586099790002,854.6586099790002,854.6586099790002,854.6586099790002,switch,letter,lettSwt,f,0.6889798150077695,vtsPrac,855.3760503800004,,,,,,,,,,,,,,,,,,,,,,,60628,2022-11-02_10h19.54.445,vts_reward_expectancy_bt_OFFLINE,2022.2.4,59.89845582044152,
,,,,,,,,,,,,,,,,,,,,,,,,,,,,,,,,,,1,0,1,0,13,0,13,0,,,,,,,,,,,,,,,,,,,,,,,,,,,,0,819,,,861.9999322699878,W,125,triangle,0.0014773930015508085,,,,,,,,,1,0,,3,,,,,,,,,,,857.8570169759914,857.8570169759914,857.8570169759914,857.8570169759914,859.3638066549902,859.3638066549902,859.3638066549902,859.3638066549902,859.3638066549902,859.3638066549902,859.3638066549902,859.3638066549902,repeat,letter,lettRpt,f,1.1116282220027642,vtsPrac,860.4983535569918,,,,,,,,,,,,,,,,,,,,,,,60628,2022-11-02_10h19.54.445,vts_reward_expectancy_bt_OFFLINE,2022.2.4,59.89845582044152,
,,,,,,,,,,,,,,,,,,,,,,,,,,,,,,,,,,1,0,1,0,14,0,14,0,,,,,,,,,,,,,,,,,,,,,,,,,,,,0,819,,,867.2225350969966,B,160,star,0.0017347440007142723,,,,,,,,,1,0,,3,,,,,,,,,,,862.9795262900006,862.9795262900006,862.9795262900006,862.9795262900006,864.4864164209866,864.4864164209866,864.4864164209866,864.4864164209866,864.4864164209866,864.4864164209866,864.4864164209866,864.4864164209866,switch,number,numSwt,k,1.2124458520120243,vtsPrac,865.7208352269954,,,,,,,,,,,,,,,,,,,,,,,60628,2022-11-02_10h19.54.445,vts_reward_expectancy_bt_OFFLINE,2022.2.4,59.89845582044152,
