LTriangleOpac,LCircleOpac,LHexagonOpac,LStarOpac,RTriangleOpac,RCircleOpac,RHexagonOpac,RStarOpac,LShape_ID,RShape_ID,training_blocks.thisRepN,training_blocks.thisTrialN,training_blocks.thisN,training_blocks.thisIndex,training.thisRepN,training.thisTrialN,training.thisN,training.thisIndex,task1_prac_redo.thisRepN,task1_prac_redo.thisTrialN,task1_prac_redo.thisN,task1_prac_redo.thisIndex,task1_prac_trials.thisRepN,task1_prac_trials.thisTrialN,task1_prac_trials.thisN,task1_prac_trials.thisIndex,task2_prac_redo.thisRepN,task2_prac_redo.thisTrialN,task2_prac_redo.thisN,task2_prac_redo.thisIndex,task2_praac_trials.thisRepN,task2_praac_trials.thisTrialN,task2_praac_trials.thisN,task2_praac_trials.thisIndex,vts_prac_redo.thisRepN,vts_prac_redo.thisTrialN,vts_prac_redo.thisN,vts_prac_redo.thisIndex,vts_practice_trials.thisRepN,vts_practice_trials.thisTrialN,vts_practice_trials.thisN,vts_practice_trials.thisIndex,trials_norew.thisRepN,trials_norew.thisTrialN,trials_norew.thisN,trials_norew.thisIndex,block.thisRepN,block.thisTrialN,block.thisN,block.thisIndex,trials_rew.thisRepN,trials_rew.thisTrialN,trials_rew.thisN,trials_rew.thisIndex,key_resp.started,key_resp.keys,key_resp.rt,left_circle.started,right_circle.started,left_triangle.started,right_triangle.started,left_star.started,right_star.started,left_hexagon.started,right_hexagon.started,training_fix.started,training_resp.started,training_resp.keys,training_resp.rt,points_trial,points_cumul,trainBlock,training_feedback_txt.started,fix.started,training_feedback_txt.stopped,curr_topStim,curr_bottStim,curr_shape,ISI.started,tgt_fix_prac1.started,top_target_prac1.started,bott_target_prac1.started,target_resp_prac1.started,acc,E1,target_resp_prac1.keys,target_resp_prac1.rt,pracBlock,prac_fback_text.started,tgt_fix_prac2.started,top_target_prac2.started,bott_target_prac2.started,target_resp_prac2.started,target_resp_prac2.keys,target_resp_prac2.rt,star.started,hegagon.started,triangle.started,circle.started,star.stopped,hegagon.stopped,triangle.stopped,circle.stopped,top_target.started,tgt_fix.started,bot_target.started,target_resp.started,top_target.stopped,tgt_fix.stopped,bot_target.stopped,target_resp.stopped,alt,task,condition,target_resp.keys,rewCond,vts_fback.started,vts_fback.stopped,fix.stopped,target_resp.rt,blockNum,norew_fback.started,norew_fback.stopped,key_resp_2.keys,key_resp_2.rt,rewExpectancy,feedbk_text.started,feedbk_text.stopped,text_3.started,text_3.stopped,button.started,debrief.index,debrief.itemText,debrief.type,debrief.granularity,debrief.font,debrief.markerColor,debrief.response,debrief.rt,button.numClicks,button.timesOn,button.timesOff,participant,date,expName,psychopyVersion,frameRate,
,,,,,,,,,,,,,,,,,,,,,,,,,,,,,,,,,,,,,,,,,,,,,,,,,,,,,,1288.8003562750018,space,20.219061819007038,,,,,,,,,,,,,,,,,,,,,,,,,,,,,,,,,,,,,,,,,,,,,,,,,,,,,,,,,,,,,,,,,,,,,,,,,,,,,,,,,,,,,,61261,2022-10-26_14h46.38.686,vts_reward_expectancy_bt_OFFLINE,2022.2.4,59.977512629804274,
0,0,1,0,0,1,0,0,hexagon,circle,0,0,0,0,0,0,0,7,,,,,,,,,,,,,,,,,,,,,,,,,,,,,,,,,,,,,,,,1333.830210977998,1333.830210977998,1333.830210977998,1333.830210977998,1333.830210977998,1333.830210977998,1333.830210977998,1333.830210977998,1333.830210977998,1333.830210977998,a,1.9011786650007707,1,1,0,1335.756893234,1337.2586270409956,,,,,,,,,,,,,,,,,,,,,,,,,,,,,,,,,,,,,,,,,,,,,,,,,,,,,,,,,,,,,,,,,,,,,61261,2022-10-26_14h46.38.686,vts_reward_expectancy_bt_OFFLINE,2022.2.4,59.977512629804274,
0,1,0,0,0,0,1,0,circle,hexagon,0,0,0,0,0,1,1,4,,,,,,,,,,,,,,,,,,,,,,,,,,,,,,,,,,,,,,,,1337.7591453659988,1337.7591453659988,1337.7591453659988,1337.7591453659988,1337.7591453659988,1337.7591453659988,1337.7591453659988,1337.7591453659988,1337.7591453659988,1337.7591453659988,l,1.6763445260075969,10,11,0,1339.4608859849977,1340.9626402020003,,,,,,,,,,,,,,,,,,,,,,,,,,,,,,,,,,,,,,,,,,,,,,,,,,,,,,,,,,,,,,,,,,,,,61261,2022-10-26_14h46.38.686,vts_reward_expectancy_bt_OFFLINE,2022.2.4,59.977512629804274,
0,1,0,0,1,0,0,0,circle,triangle,0,0,0,0,0,2,2,3,,,,,,,,,,,,,,,,,,,,,,,,,,,,,,,,,,,,,,,,1341.4632814799988,1341.4632814799988,1341.4632814799988,1341.4632814799988,1341.4632814799988,1341.4632814799988,1341.4632814799988,1341.4632814799988,1341.4632814799988,1341.4632814799988,a,1.2692101530046784,10,21,0,1342.764670724995,1344.2662095849955,,,,,,,,,,,,,,,,,,,,,,,,,,,,,,,,,,,,,,,,,,,,,,,,,,,,,,,,,,,,,,,,,,,,,61261,2022-10-26_14h46.38.686,vts_reward_expectancy_bt_OFFLINE,2022.2.4,59.977512629804274,
0,0,0,1,1,0,0,0,star,triangle,0,0,0,0,0,3,3,9,,,,,,,,,,,,,,,,,,,,,,,,,,,,,,,,,,,,,,,,1344.7667525259967,1344.7667525259967,1344.7667525259967,1344.7667525259967,1344.7667525259967,1344.7667525259967,1344.7667525259967,1344.7667525259967,1344.7667525259967,1344.7667525259967,a,1.1408251990069402,10,31,0,1345.934754582995,1347.4363088129976,,,,,,,,,,,,,,,,,,,,,,,,,,,,,,,,,,,,,,,,,,,,,,,,,,,,,,,,,,,,,,,,,,,,,61261,2022-10-26_14h46.38.686,vts_reward_expectancy_bt_OFFLINE,2022.2.4,59.977512629804274,
1,0,0,0,0,0,0,1,triangle,star,0,0,0,0,0,4,4,2,,,,,,,,,,,,,,,,,,,,,,,,,,,,,,,,,,,,,,,,1347.9369578729966,1347.9369578729966,1347.9369578729966,1347.9369578729966,1347.9369578729966,1347.9369578729966,1347.9369578729966,1347.9369578729966,1347.9369578729966,1347.9369578729966,l,0.9080958500053384,1,32,0,1348.871357365002,1350.373100662,,,,,,,,,,,,,,,,,,,,,,,,,,,,,,,,,,,,,,,,,,,,,,,,,,,,,,,,,,,,,,,,,,,,,61261,2022-10-26_14h46.38.686,vts_reward_expectancy_bt_OFFLINE,2022.2.4,59.977512629804274,
1,0,0,0,0,1,0,0,triangle,circle,0,0,0,0,0,5,5,0,,,,,,,,,,,,,,,,,,,,,,,,,,,,,,,,,,,,,,,,1350.8737254449952,1350.8737254449952,1350.8737254449952,1350.8737254449952,1350.8737254449952,1350.8737254449952,1350.8737254449952,1350.8737254449952,1350.8737254449952,1350.8737254449952,l,1.545762438006932,10,42,0,1352.4418391709987,1353.9435326409948,,,,,,,,,,,,,,,,,,,,,,,,,,,,,,,,,,,,,,,,,,,,,,,,,,,,,,,,,,,,,,,,,,,,,61261,2022-10-26_14h46.38.686,vts_reward_expectancy_bt_OFFLINE,2022.2.4,59.977512629804274,
0,0,0,1,0,1,0,0,star ,circle,0,0,0,0,0,6,6,10,,,,,,,,,,,,,,,,,,,,,,,,,,,,,,,,,,,,,,,,1354.4440703369983,1354.4440703369983,1354.4440703369983,1354.4440703369983,1354.4440703369983,1354.4440703369983,1354.4440703369983,1354.4440703369983,1354.4440703369983,1354.4440703369983,l,1.4710948790088878,1,43,0,1355.9462276010017,1357.4474929089993,,,,,,,,,,,,,,,,,,,,,,,,,,,,,,,,,,,,,,,,,,,,,,,,,,,,,,,,,,,,,,,,,,,,,61261,2022-10-26_14h46.38.686,vts_reward_expectancy_bt_OFFLINE,2022.2.4,59.977512629804274,
0,0,0,1,0,0,1,0,star,hexagon,0,0,0,0,0,7,7,11,,,,,,,,,,,,,,,,,,,,,,,,,,,,,,,,,,,,,,,,1357.9479945659987,1357.9479945659987,1357.9479945659987,1357.9479945659987,1357.9479945659987,1357.9479945659987,1357.9479945659987,1357.9479945659987,1357.9479945659987,1357.9479945659987,a,1.0408450899994932,1,44,0,1359.0158894179986,1360.5176670040019,,,,,,,,,,,,,,,,,,,,,,,,,,,,,,,,,,,,,,,,,,,,,,,,,,,,,,,,,,,,,,,,,,,,,61261,2022-10-26_14h46.38.686,vts_reward_expectancy_bt_OFFLINE,2022.2.4,59.977512629804274,
1,0,0,0,0,0,1,0,triangle,hexagon,0,0,0,0,0,8,8,1,,,,,,,,,,,,,,,,,,,,,,,,,,,,,,,,,,,,,,,,1361.0180373019975,1361.0180373019975,1361.0180373019975,1361.0180373019975,1361.0180373019975,1361.0180373019975,1361.0180373019975,1361.0180373019975,1361.0180373019975,1361.0180373019975,l,1.6581150890051504,1,45,0,1362.7033203039973,1364.204122465002,1364.204122465002,,,,,,,,,,,,,,,,,,,,,,,,,,,,,,,,,,,,,,,,,,,,,,,,,,,,,,,,,,,,,,,,,,,,61261,2022-10-26_14h46.38.686,vts_reward_expectancy_bt_OFFLINE,2022.2.4,59.977512629804274,
0,0,1,0,0,0,0,1,hexagon,star,0,0,0,0,0,9,9,8,,,,,,,,,,,,,,,,,,,,,,,,,,,,,,,,,,,,,,,,1364.7048786759988,1364.7048786759988,1364.7048786759988,1364.7048786759988,1364.7048786759988,1364.7048786759988,1364.7048786759988,1364.7048786759988,1364.7048786759988,1364.7048786759988,a,2.41972386600537,10,55,0,1367.1414595960014,1368.6430671209964,,,,,,,,,,,,,,,,,,,,,,,,,,,,,,,,,,,,,,,,,,,,,,,,,,,,,,,,,,,,,,,,,,,,,61261,2022-10-26_14h46.38.686,vts_reward_expectancy_bt_OFFLINE,2022.2.4,59.977512629804274,
0,0,1,0,1,0,0,0,hexagon,triangle,0,0,0,0,0,10,10,6,,,,,,,,,,,,,,,,,,,,,,,,,,,,,,,,,,,,,,,,1369.1436799689982,1369.1436799689982,1369.1436799689982,1369.1436799689982,1369.1436799689982,1369.1436799689982,1369.1436799689982,1369.1436799689982,1369.1436799689982,1369.1436799689982,l,1.2597733610018622,10,65,0,1370.4284452909997,1371.9301601369953,1371.9301601369953,,,,,,,,,,,,,,,,,,,,,,,,,,,,,,,,,,,,,,,,,,,,,,,,,,,,,,,,,,,,,,,,,,,,61261,2022-10-26_14h46.38.686,vts_reward_expectancy_bt_OFFLINE,2022.2.4,59.977512629804274,
0,1,0,0,0,0,0,1,circle,star,0,0,0,0,0,11,11,5,,,,,,,,,,,,,,,,,,,,,,,,,,,,,,,,,,,,,,,,1372.4307421260019,1372.4307421260019,1372.4307421260019,1372.4307421260019,1372.4307421260019,1372.4307421260019,1372.4307421260019,1372.4307421260019,1372.4307421260019,1372.4307421260019,l,0.6616418440025882,1,66,0,1373.1147035289978,1374.6164401259957,,,,,,,,,,,,,,,,,,,,,,,,,,,,,,,,,,,,,,,,,,,,,,,,,,,,,,,,,,,,,,,,,,,,,61261,2022-10-26_14h46.38.686,vts_reward_expectancy_bt_OFFLINE,2022.2.4,59.977512629804274,
0,0,1,0,1,0,0,0,hexagon,triangle,0,0,0,0,1,0,12,6,,,,,,,,,,,,,,,,,,,,,,,,,,,,,,,,,,,,,,,,1375.1170113010012,1375.1170113010012,1375.1170113010012,1375.1170113010012,1375.1170113010012,1375.1170113010012,1375.1170113010012,1375.1170113010012,1375.1170113010012,1375.1170113010012,l,1.6002564650043496,10,76,0,1376.7353164519955,1378.2369257550017,,,,,,,,,,,,,,,,,,,,,,,,,,,,,,,,,,,,,,,,,,,,,,,,,,,,,,,,,,,,,,,,,,,,,61261,2022-10-26_14h46.38.686,vts_reward_expectancy_bt_OFFLINE,2022.2.4,59.977512629804274,
0,0,0,1,0,0,1,0,star,hexagon,0,0,0,0,1,1,13,11,,,,,,,,,,,,,,,,,,,,,,,,,,,,,,,,,,,,,,,,1378.7375069350019,1378.7375069350019,1378.7375069350019,1378.7375069350019,1378.7375069350019,1378.7375069350019,1378.7375069350019,1378.7375069350019,1378.7375069350019,1378.7375069350019,l,1.3537267150022672,1,77,0,1380.122410819,1381.6241863069954,,,,,,,,,,,,,,,,,,,,,,,,,,,,,,,,,,,,,,,,,,,,,,,,,,,,,,,,,,,,,,,,,,,,,61261,2022-10-26_14h46.38.686,vts_reward_expectancy_bt_OFFLINE,2022.2.4,59.977512629804274,
0,1,0,0,0,0,0,1,circle,star,0,0,0,0,1,2,14,5,,,,,,,,,,,,,,,,,,,,,,,,,,,,,,,,,,,,,,,,1382.1247120350017,1382.1247120350017,1382.1247120350017,1382.1247120350017,1382.1247120350017,1382.1247120350017,1382.1247120350017,1382.1247120350017,1382.1247120350017,1382.1247120350017,a,0.846913219007547,10,87,0,1382.9922727209996,1384.4940080160013,,,,,,,,,,,,,,,,,,,,,,,,,,,,,,,,,,,,,,,,,,,,,,,,,,,,,,,,,,,,,,,,,,,,,61261,2022-10-26_14h46.38.686,vts_reward_expectancy_bt_OFFLINE,2022.2.4,59.977512629804274,
0,0,1,0,0,0,0,1,hexagon,star,0,0,0,0,1,3,15,8,,,,,,,,,,,,,,,,,,,,,,,,,,,,,,,,,,,,,,,,1384.9945573899968,1384.9945573899968,1384.9945573899968,1384.9945573899968,1384.9945573899968,1384.9945573899968,1384.9945573899968,1384.9945573899968,1384.9945573899968,1384.9945573899968,a,1.9214893329990446,1,88,0,1386.9465947200006,1388.4481962579957,,,,,,,,,,,,,,,,,,,,,,,,,,,,,,,,,,,,,,,,,,,,,,,,,,,,,,,,,,,,,,,,,,,,,61261,2022-10-26_14h46.38.686,vts_reward_expectancy_bt_OFFLINE,2022.2.4,59.977512629804274,
0,1,0,0,0,0,1,0,circle,hexagon,0,0,0,0,1,4,16,4,,,,,,,,,,,,,,,,,,,,,,,,,,,,,,,,,,,,,,,,1388.9489067100003,1388.9489067100003,1388.9489067100003,1388.9489067100003,1388.9489067100003,1388.9489067100003,1388.9489067100003,1388.9489067100003,1388.9489067100003,1388.9489067100003,a,0.6069396660022903,1,89,0,1389.5819150440002,1391.0843909059986,,,,,,,,,,,,,,,,,,,,,,,,,,,,,,,,,,,,,,,,,,,,,,,,,,,,,,,,,,,,,,,,,,,,,61261,2022-10-26_14h46.38.686,vts_reward_expectancy_bt_OFFLINE,2022.2.4,59.977512629804274,
1,0,0,0,0,1,0,0,triangle,circle,0,0,0,0,1,5,17,0,,,,,,,,,,,,,,,,,,,,,,,,,,,,,,,,,,,,,,,,1391.5850459639987,1391.5850459639987,1391.5850459639987,1391.5850459639987,1391.5850459639987,1391.5850459639987,1391.5850459639987,1391.5850459639987,1391.5850459639987,1391.5850459639987,l,0.5866911200064351,10,99,0,1392.2024370779982,1393.7039711079997,,,,,,,,,,,,,,,,,,,,,,,,,,,,,,,,,,,,,,,,,,,,,,,,,,,,,,,,,,,,,,,,,,,,,61261,2022-10-26_14h46.38.686,vts_reward_expectancy_bt_OFFLINE,2022.2.4,59.977512629804274,
0,0,1,0,0,1,0,0,hexagon,circle,0,0,0,0,1,6,18,7,,,,,,,,,,,,,,,,,,,,,,,,,,,,,,,,,,,,,,,,1394.2045907669963,1394.2045907669963,1394.2045907669963,1394.2045907669963,1394.2045907669963,1394.2045907669963,1394.2045907669963,1394.2045907669963,1394.2045907669963,1394.2045907669963,l,0.6957430930051487,1,100,0,1394.9219587799962,1396.4237601869972,,,,,,,,,,,,,,,,,,,,,,,,,,,,,,,,,,,,,,,,,,,,,,,,,,,,,,,,,,,,,,,,,,,,,61261,2022-10-26_14h46.38.686,vts_reward_expectancy_bt_OFFLINE,2022.2.4,59.977512629804274,
0,0,0,1,1,0,0,0,star,triangle,0,0,0,0,1,7,19,9,,,,,,,,,,,,,,,,,,,,,,,,,,,,,,,,,,,,,,,,1396.924334358002,1396.924334358002,1396.924334358002,1396.924334358002,1396.924334358002,1396.924334358002,1396.924334358002,1396.924334358002,1396.924334358002,1396.924334358002,l,1.2396194920074777,10,110,0,1398.1925028319965,1399.6939308229994,,,,,,,,,,,,,,,,,,,,,,,,,,,,,,,,,,,,,,,,,,,,,,,,,,,,,,,,,,,,,,,,,,,,,61261,2022-10-26_14h46.38.686,vts_reward_expectancy_bt_OFFLINE,2022.2.4,59.977512629804274,
1,0,0,0,0,0,1,0,triangle,hexagon,0,0,0,0,1,8,20,1,,,,,,,,,,,,,,,,,,,,,,,,,,,,,,,,,,,,,,,,1400.1945340480015,1400.1945340480015,1400.1945340480015,1400.1945340480015,1400.1945340480015,1400.1945340480015,1400.1945340480015,1400.1945340480015,1400.1945340480015,1400.1945340480015,a,0.7532245610054815,10,120,0,1400.978794745999,1402.4804419939974,,,,,,,,,,,,,,,,,,,,,,,,,,,,,,,,,,,,,,,,,,,,,,,,,,,,,,,,,,,,,,,,,,,,,61261,2022-10-26_14h46.38.686,vts_reward_expectancy_bt_OFFLINE,2022.2.4,59.977512629804274,
1,0,0,0,0,0,0,1,triangle,star,0,0,0,0,1,9,21,2,,,,,,,,,,,,,,,,,,,,,,,,,,,,,,,,,,,,,,,,1402.9809846610005,1402.9809846610005,1402.9809846610005,1402.9809846610005,1402.9809846610005,1402.9809846610005,1402.9809846610005,1402.9809846610005,1402.9809846610005,1402.9809846610005,a,0.631318938008917,10,130,0,1403.6317091960009,1405.133526163001,,,,,,,,,,,,,,,,,,,,,,,,,,,,,,,,,,,,,,,,,,,,,,,,,,,,,,,,,,,,,,,,,,,,,61261,2022-10-26_14h46.38.686,vts_reward_expectancy_bt_OFFLINE,2022.2.4,59.977512629804274,
0,1,0,0,1,0,0,0,circle,triangle,0,0,0,0,1,10,22,3,,,,,,,,,,,,,,,,,,,,,,,,,,,,,,,,,,,,,,,,1405.6339907799993,1405.6339907799993,1405.6339907799993,1405.6339907799993,1405.6339907799993,1405.6339907799993,1405.6339907799993,1405.6339907799993,1405.6339907799993,1405.6339907799993,l,1.138035084004514,10,140,0,1406.8020636329966,1408.3036435699978,,,,,,,,,,,,,,,,,,,,,,,,,,,,,,,,,,,,,,,,,,,,,,,,,,,,,,,,,,,,,,,,,,,,,61261,2022-10-26_14h46.38.686,vts_reward_expectancy_bt_OFFLINE,2022.2.4,59.977512629804274,
0,0,0,1,0,1,0,0,star ,circle,0,0,0,0,1,11,23,10,,,,,,,,,,,,,,,,,,,,,,,,,,,,,,,,,,,,,,,,1408.8041060499963,1408.8041060499963,1408.8041060499963,1408.8041060499963,1408.8041060499963,1408.8041060499963,1408.8041060499963,1408.8041060499963,1408.8041060499963,1408.8041060499963,l,0.6798195880037383,10,150,0,1409.504870331999,1411.0065560189978,,,,,,,,,,,,,,,,,,,,,,,,,,,,,,,,,,,,,,,,,,,,,,,,,,,,,,,,,,,,,,,,,,,,,61261,2022-10-26_14h46.38.686,vts_reward_expectancy_bt_OFFLINE,2022.2.4,59.977512629804274,
0,1,0,0,1,0,0,0,circle,triangle,0,0,0,0,2,0,24,3,,,,,,,,,,,,,,,,,,,,,,,,,,,,,,,,,,,,,,,,1411.5071053639986,1411.5071053639986,1411.5071053639986,1411.5071053639986,1411.5071053639986,1411.5071053639986,1411.5071053639986,1411.5071053639986,1411.5071053639986,1411.5071053639986,a,0.8249656520056305,10,160,0,1412.358209770995,1413.8597991790011,,,,,,,,,,,,,,,,,,,,,,,,,,,,,,,,,,,,,,,,,,,,,,,,,,,,,,,,,,,,,,,,,,,,,61261,2022-10-26_14h46.38.686,vts_reward_expectancy_bt_OFFLINE,2022.2.4,59.977512629804274,
0,0,0,1,0,1,0,0,star ,circle,0,0,0,0,2,1,25,10,,,,,,,,,,,,,,,,,,,,,,,,,,,,,,,,,,,,,,,,1414.3602088449989,1414.3602088449989,1414.3602088449989,1414.3602088449989,1414.3602088449989,1414.3602088449989,1414.3602088449989,1414.3602088449989,1414.3602088449989,1414.3602088449989,l,0.6029985410059453,10,170,0,1414.9943303740001,1416.4958912579968,,,,,,,,,,,,,,,,,,,,,,,,,,,,,,,,,,,,,,,,,,,,,,,,,,,,,,,,,,,,,,,,,,,,,61261,2022-10-26_14h46.38.686,vts_reward_expectancy_bt_OFFLINE,2022.2.4,59.977512629804274,
1,0,0,0,0,1,0,0,triangle,circle,0,0,0,0,2,2,26,0,,,,,,,,,,,,,,,,,,,,,,,,,,,,,,,,,,,,,,,,1416.9964117560012,1416.9964117560012,1416.9964117560012,1416.9964117560012,1416.9964117560012,1416.9964117560012,1416.9964117560012,1416.9964117560012,1416.9964117560012,1416.9964117560012,l,1.2874258430019836,10,180,0,1418.314618065,1419.816347674001,,,,,,,,,,,,,,,,,,,,,,,,,,,,,,,,,,,,,,,,,,,,,,,,,,,,,,,,,,,,,,,,,,,,,61261,2022-10-26_14h46.38.686,vts_reward_expectancy_bt_OFFLINE,2022.2.4,59.977512629804274,
0,0,1,0,0,1,0,0,hexagon,circle,0,0,0,0,2,3,27,7,,,,,,,,,,,,,,,,,,,,,,,,,,,,,,,,,,,,,,,,1420.3168074279965,1420.3168074279965,1420.3168074279965,1420.3168074279965,1420.3168074279965,1420.3168074279965,1420.3168074279965,1420.3168074279965,1420.3168074279965,1420.3168074279965,l,0.4714368440036196,10,190,0,1420.8175175649958,1422.3190945109964,,,,,,,,,,,,,,,,,,,,,,,,,,,,,,,,,,,,,,,,,,,,,,,,,,,,,,,,,,,,,,,,,,,,,61261,2022-10-26_14h46.38.686,vts_reward_expectancy_bt_OFFLINE,2022.2.4,59.977512629804274,
1,0,0,0,0,0,0,1,triangle,star,0,0,0,0,2,4,28,2,,,,,,,,,,,,,,,,,,,,,,,,,,,,,,,,,,,,,,,,1422.8196668659948,1422.8196668659948,1422.8196668659948,1422.8196668659948,1422.8196668659948,1422.8196668659948,1422.8196668659948,1422.8196668659948,1422.8196668659948,1422.8196668659948,a,0.9354698060051305,10,200,0,1423.7873022200001,1425.2889967509982,,,,,,,,,,,,,,,,,,,,,,,,,,,,,,,,,,,,,,,,,,,,,,,,,,,,,,,,,,,,,,,,,,,,,61261,2022-10-26_14h46.38.686,vts_reward_expectancy_bt_OFFLINE,2022.2.4,59.977512629804274,
0,0,1,0,1,0,0,0,hexagon,triangle,0,0,0,0,2,5,29,6,,,,,,,,,,,,,,,,,,,,,,,,,,,,,,,,,,,,,,,,1425.7894563969967,1425.7894563969967,1425.7894563969967,1425.7894563969967,1425.7894563969967,1425.7894563969967,1425.7894563969967,1425.7894563969967,1425.7894563969967,1425.7894563969967,l,0.9588294390050578,10,210,0,1426.7738807060014,1428.275562486997,,,,,,,,,,,,,,,,,,,,,,,,,,,,,,,,,,,,,,,,,,,,,,,,,,,,,,,,,,,,,,,,,,,,,61261,2022-10-26_14h46.38.686,vts_reward_expectancy_bt_OFFLINE,2022.2.4,59.977512629804274,
0,0,1,0,0,0,0,1,hexagon,star,0,0,0,0,2,6,30,8,,,,,,,,,,,,,,,,,,,,,,,,,,,,,,,,,,,,,,,,1428.776055440001,1428.776055440001,1428.776055440001,1428.776055440001,1428.776055440001,1428.776055440001,1428.776055440001,1428.776055440001,1428.776055440001,1428.776055440001,a,0.7801435490036965,1,211,0,1429.5768698629981,1431.0787185020017,,,,,,,,,,,,,,,,,,,,,,,,,,,,,,,,,,,,,,,,,,,,,,,,,,,,,,,,,,,,,,,,,,,,,61261,2022-10-26_14h46.38.686,vts_reward_expectancy_bt_OFFLINE,2022.2.4,59.977512629804274,
0,1,0,0,0,0,1,0,circle,hexagon,0,0,0,0,2,7,31,4,,,,,,,,,,,,,,,,,,,,,,,,,,,,,,,,,,,,,,,,1431.5792786029997,1431.5792786029997,1431.5792786029997,1431.5792786029997,1431.5792786029997,1431.5792786029997,1431.5792786029997,1431.5792786029997,1431.5792786029997,1431.5792786029997,a,0.952789984003175,10,221,0,1432.563663203,1434.0651176350002,,,,,,,,,,,,,,,,,,,,,,,,,,,,,,,,,,,,,,,,,,,,,,,,,,,,,,,,,,,,,,,,,,,,,61261,2022-10-26_14h46.38.686,vts_reward_expectancy_bt_OFFLINE,2022.2.4,59.977512629804274,
1,0,0,0,0,0,1,0,triangle,hexagon,0,0,0,0,2,8,32,1,,,,,,,,,,,,,,,,,,,,,,,,,,,,,,,,,,,,,,,,1434.5657383209982,1434.5657383209982,1434.5657383209982,1434.5657383209982,1434.5657383209982,1434.5657383209982,1434.5657383209982,1434.5657383209982,1434.5657383209982,1434.5657383209982,a,1.03750938000303,10,231,0,1435.6337654909948,1437.135490695,,,,,,,,,,,,,,,,,,,,,,,,,,,,,,,,,,,,,,,,,,,,,,,,,,,,,,,,,,,,,,,,,,,,,61261,2022-10-26_14h46.38.686,vts_reward_expectancy_bt_OFFLINE,2022.2.4,59.977512629804274,
0,1,0,0,0,0,0,1,circle,star,0,0,0,0,2,9,33,5,,,,,,,,,,,,,,,,,,,,,,,,,,,,,,,,,,,,,,,,1437.6360292050013,1437.6360292050013,1437.6360292050013,1437.6360292050013,1437.6360292050013,1437.6360292050013,1437.6360292050013,1437.6360292050013,1437.6360292050013,1437.6360292050013,a,0.4721962620023987,10,241,0,1438.1364375139965,1439.638201834001,,,,,,,,,,,,,,,,,,,,,,,,,,,,,,,,,,,,,,,,,,,,,,,,,,,,,,,,,,,,,,,,,,,,,61261,2022-10-26_14h46.38.686,vts_reward_expectancy_bt_OFFLINE,2022.2.4,59.977512629804274,
0,0,0,1,0,0,1,0,star,hexagon,0,0,0,0,2,10,34,11,,,,,,,,,,,,,,,,,,,,,,,,,,,,,,,,,,,,,,,,1440.1388513369966,1440.1388513369966,1440.1388513369966,1440.1388513369966,1440.1388513369966,1440.1388513369966,1440.1388513369966,1440.1388513369966,1440.1388513369966,1440.1388513369966,l,0.5682989910055767,1,242,0,1440.739469398999,1442.2409097950003,,,,,,,,,,,,,,,,,,,,,,,,,,,,,,,,,,,,,,,,,,,,,,,,,,,,,,,,,,,,,,,,,,,,,61261,2022-10-26_14h46.38.686,vts_reward_expectancy_bt_OFFLINE,2022.2.4,59.977512629804274,
0,0,0,1,1,0,0,0,star,triangle,0,0,0,0,2,11,35,9,,,,,,,,,,,,,,,,,,,,,,,,,,,,,,,,,,,,,,,,1442.741611229998,1442.741611229998,1442.741611229998,1442.741611229998,1442.741611229998,1442.741611229998,1442.741611229998,1442.741611229998,1442.741611229998,1442.741611229998,a,0.5581031050096499,1,243,0,1443.3255169159966,1444.8271755710011,,,,,,,,,,,,,,,,,,,,,,,,,,,,,,,,,,,,,,,,,,,,,,,,,,,,,,,,,,,,,,,,,,,,,61261,2022-10-26_14h46.38.686,vts_reward_expectancy_bt_OFFLINE,2022.2.4,59.977512629804274,
0,0,0,1,1,0,0,0,star,triangle,0,0,0,0,3,0,36,9,,,,,,,,,,,,,,,,,,,,,,,,,,,,,,,,,,,,,,,,1445.3277398499995,1445.3277398499995,1445.3277398499995,1445.3277398499995,1445.3277398499995,1445.3277398499995,1445.3277398499995,1445.3277398499995,1445.3277398499995,1445.3277398499995,l,0.5879289370059269,10,253,0,1445.9452464360002,1447.4468840510017,,,,,,,,,,,,,,,,,,,,,,,,,,,,,,,,,,,,,,,,,,,,,,,,,,,,,,,,,,,,,,,,,,,,,61261,2022-10-26_14h46.38.686,vts_reward_expectancy_bt_OFFLINE,2022.2.4,59.977512629804274,
0,0,1,0,1,0,0,0,hexagon,triangle,0,0,0,0,3,1,37,6,,,,,,,,,,,,,,,,,,,,,,,,,,,,,,,,,,,,,,,,1447.9473556019948,1447.9473556019948,1447.9473556019948,1447.9473556019948,1447.9473556019948,1447.9473556019948,1447.9473556019948,1447.9473556019948,1447.9473556019948,1447.9473556019948,l,2.8886479230059194,10,263,0,1450.8673319230002,1452.368766833999,,,,,,,,,,,,,,,,,,,,,,,,,,,,,,,,,,,,,,,,,,,,,,,,,,,,,,,,,,,,,,,,,,,,,61261,2022-10-26_14h46.38.686,vts_reward_expectancy_bt_OFFLINE,2022.2.4,59.977512629804274,
0,1,0,0,1,0,0,0,circle,triangle,0,0,0,0,3,2,38,3,,,,,,,,,,,,,,,,,,,,,,,,,,,,,,,,,,,,,,,,1452.8695082630002,1452.8695082630002,1452.8695082630002,1452.8695082630002,1452.8695082630002,1452.8695082630002,1452.8695082630002,1452.8695082630002,1452.8695082630002,1452.8695082630002,a,0.5186793440079782,10,273,0,1453.4200759879968,1454.9217042980017,,,,,,,,,,,,,,,,,,,,,,,,,,,,,,,,,,,,,,,,,,,,,,,,,,,,,,,,,,,,,,,,,,,,,61261,2022-10-26_14h46.38.686,vts_reward_expectancy_bt_OFFLINE,2022.2.4,59.977512629804274,
0,1,0,0,0,0,0,1,circle,star,0,0,0,0,3,3,39,5,,,,,,,,,,,,,,,,,,,,,,,,,,,,,,,,,,,,,,,,1455.4222570349957,1455.4222570349957,1455.4222570349957,1455.4222570349957,1455.4222570349957,1455.4222570349957,1455.4222570349957,1455.4222570349957,1455.4222570349957,1455.4222570349957,a,0.4933822750026593,10,283,0,1455.9396066929985,1457.441015698998,,,,,,,,,,,,,,,,,,,,,,,,,,,,,,,,,,,,,,,,,,,,,,,,,,,,,,,,,,,,,,,,,,,,,61261,2022-10-26_14h46.38.686,vts_reward_expectancy_bt_OFFLINE,2022.2.4,59.977512629804274,
0,1,0,0,0,0,1,0,circle,hexagon,0,0,0,0,3,4,40,4,,,,,,,,,,,,,,,,,,,,,,,,,,,,,,,,,,,,,,,,1457.941696967995,1457.941696967995,1457.941696967995,1457.941696967995,1457.941696967995,1457.941696967995,1457.941696967995,1457.941696967995,1457.941696967995,1457.941696967995,a,0.8071794760035118,10,293,0,1458.775932812001,1460.2776128359983,,,,,,,,,,,,,,,,,,,,,,,,,,,,,,,,,,,,,,,,,,,,,,,,,,,,,,,,,,,,,,,,,,,,,61261,2022-10-26_14h46.38.686,vts_reward_expectancy_bt_OFFLINE,2022.2.4,59.977512629804274,
1,0,0,0,0,0,0,1,triangle,star,0,0,0,0,3,5,41,2,,,,,,,,,,,,,,,,,,,,,,,,,,,,,,,,,,,,,,,,1460.7780790389952,1460.7780790389952,1460.7780790389952,1460.7780790389952,1460.7780790389952,1460.7780790389952,1460.7780790389952,1460.7780790389952,1460.7780790389952,1460.7780790389952,a,0.5850826760070049,10,303,0,1461.395290663997,1462.8969625989994,,,,,,,,,,,,,,,,,,,,,,,,,,,,,,,,,,,,,,,,,,,,,,,,,,,,,,,,,,,,,,,,,,,,,61261,2022-10-26_14h46.38.686,vts_reward_expectancy_bt_OFFLINE,2022.2.4,59.977512629804274,
0,0,1,0,0,1,0,0,hexagon,circle,0,0,0,0,3,6,42,7,,,,,,,,,,,,,,,,,,,,,,,,,,,,,,,,,,,,,,,,1463.3974424369953,1463.3974424369953,1463.3974424369953,1463.3974424369953,1463.3974424369953,1463.3974424369953,1463.3974424369953,1463.3974424369953,1463.3974424369953,1463.3974424369953,l,0.53479302800406,10,313,0,1463.9648629279982,1465.4665327969997,,,,,,,,,,,,,,,,,,,,,,,,,,,,,,,,,,,,,,,,,,,,,,,,,,,,,,,,,,,,,,,,,,,,,61261,2022-10-26_14h46.38.686,vts_reward_expectancy_bt_OFFLINE,2022.2.4,59.977512629804274,
0,0,1,0,0,0,0,1,hexagon,star,0,0,0,0,3,7,43,8,,,,,,,,,,,,,,,,,,,,,,,,,,,,,,,,,,,,,,,,1465.9670846289955,1465.9670846289955,1465.9670846289955,1465.9670846289955,1465.9670846289955,1465.9670846289955,1465.9670846289955,1465.9670846289955,1465.9670846289955,1465.9670846289955,a,0.5963236010065884,1,314,0,1466.5845562889954,1468.086268068997,,,,,,,,,,,,,,,,,,,,,,,,,,,,,,,,,,,,,,,,,,,,,,,,,,,,,,,,,,,,,,,,,,,,,61261,2022-10-26_14h46.38.686,vts_reward_expectancy_bt_OFFLINE,2022.2.4,59.977512629804274,
1,0,0,0,0,1,0,0,triangle,circle,0,0,0,0,3,8,44,0,,,,,,,,,,,,,,,,,,,,,,,,,,,,,,,,,,,,,,,,1468.5870199759956,1468.5870199759956,1468.5870199759956,1468.5870199759956,1468.5870199759956,1468.5870199759956,1468.5870199759956,1468.5870199759956,1468.5870199759956,1468.5870199759956,l,0.8655676830021548,10,324,0,1469.4710453730004,1470.9727537200015,,,,,,,,,,,,,,,,,,,,,,,,,,,,,,,,,,,,,,,,,,,,,,,,,,,,,,,,,,,,,,,,,,,,,61261,2022-10-26_14h46.38.686,vts_reward_expectancy_bt_OFFLINE,2022.2.4,59.977512629804274,
0,0,0,1,0,1,0,0,star ,circle,0,0,0,0,3,9,45,10,,,,,,,,,,,,,,,,,,,,,,,,,,,,,,,,,,,,,,,,1471.473481422996,1471.473481422996,1471.473481422996,1471.473481422996,1471.473481422996,1471.473481422996,1471.473481422996,1471.473481422996,1471.473481422996,1471.473481422996,l,0.7314694740052801,1,325,0,1472.224047390002,1473.7258654370016,,,,,,,,,,,,,,,,,,,,,,,,,,,,,,,,,,,,,,,,,,,,,,,,,,,,,,,,,,,,,,,,,,,,,61261,2022-10-26_14h46.38.686,vts_reward_expectancy_bt_OFFLINE,2022.2.4,59.977512629804274,
1,0,0,0,0,0,1,0,triangle,hexagon,0,0,0,0,3,10,46,1,,,,,,,,,,,,,,,,,,,,,,,,,,,,,,,,,,,,,,,,1474.2263770189966,1474.2263770189966,1474.2263770189966,1474.2263770189966,1474.2263770189966,1474.2263770189966,1474.2263770189966,1474.2263770189966,1474.2263770189966,1474.2263770189966,a,0.642066431006242,10,335,0,1474.893831082998,1476.3953387930014,,,,,,,,,,,,,,,,,,,,,,,,,,,,,,,,,,,,,,,,,,,,,,,,,,,,,,,,,,,,,,,,,,,,,61261,2022-10-26_14h46.38.686,vts_reward_expectancy_bt_OFFLINE,2022.2.4,59.977512629804274,
0,0,0,1,0,0,1,0,star,hexagon,0,0,0,0,3,11,47,11,,,,,,,,,,,,,,,,,,,,,,,,,,,,,,,,,,,,,,,,1476.8960385149985,1476.8960385149985,1476.8960385149985,1476.8960385149985,1476.8960385149985,1476.8960385149985,1476.8960385149985,1476.8960385149985,1476.8960385149985,1476.8960385149985,l,0.5164531140035251,1,336,0,1477.4297446479977,1478.931547565,,,,,,,,,,,,,,,,,,,,,,,,,,,,,,,,,,,,,,,,,,,,,,,,,,,,,,,,,,,,,,,,,,,,,61261,2022-10-26_14h46.38.686,vts_reward_expectancy_bt_OFFLINE,2022.2.4,59.977512629804274,
0,0,1,0,1,0,0,0,hexagon,triangle,1,0,1,0,0,0,0,6,,,,,,,,,,,,,,,,,,,,,,,,,,,,,,,,,,,,,,,,1488.7487816520006,1488.7487816520006,1488.7487816520006,1488.7487816520006,1488.7487816520006,1488.7487816520006,1488.7487816520006,1488.7487816520006,1488.7487816520006,1488.7487816520006,l,1.5435311070104945,10,346,1,1490.310707464996,1491.8122564919977,,,,,,,,,,,,,,,,,,,,,,,,,,,,,,,,,,,,,,,,,,,,,,,,,,,,,,,,,,,,,,,,,,,,,61261,2022-10-26_14h46.38.686,vts_reward_expectancy_bt_OFFLINE,2022.2.4,59.977512629804274,
0,1,0,0,0,0,1,0,circle,hexagon,1,0,1,0,0,1,1,4,,,,,,,,,,,,,,,,,,,,,,,,,,,,,,,,,,,,,,,,1492.3128180109998,1492.3128180109998,1492.3128180109998,1492.3128180109998,1492.3128180109998,1492.3128180109998,1492.3128180109998,1492.3128180109998,1492.3128180109998,1492.3128180109998,a,0.6433240680053132,1,347,1,1492.980211217,1494.4820030659976,,,,,,,,,,,,,,,,,,,,,,,,,,,,,,,,,,,,,,,,,,,,,,,,,,,,,,,,,,,,,,,,,,,,,61261,2022-10-26_14h46.38.686,vts_reward_expectancy_bt_OFFLINE,2022.2.4,59.977512629804274,
0,0,0,1,0,0,1,0,star,hexagon,1,0,1,0,0,2,2,11,,,,,,,,,,,,,,,,,,,,,,,,,,,,,,,,,,,,,,,,1494.9824437700008,1494.9824437700008,1494.9824437700008,1494.9824437700008,1494.9824437700008,1494.9824437700008,1494.9824437700008,1494.9824437700008,1494.9824437700008,1494.9824437700008,l,0.525289163007983,1,348,1,1495.5330064709997,1497.0347597219952,,,,,,,,,,,,,,,,,,,,,,,,,,,,,,,,,,,,,,,,,,,,,,,,,,,,,,,,,,,,,,,,,,,,,61261,2022-10-26_14h46.38.686,vts_reward_expectancy_bt_OFFLINE,2022.2.4,59.977512629804274,
1,0,0,0,0,0,0,1,triangle,star,1,0,1,0,0,3,3,2,,,,,,,,,,,,,,,,,,,,,,,,,,,,,,,,,,,,,,,,1497.535366213,1497.535366213,1497.535366213,1497.535366213,1497.535366213,1497.535366213,1497.535366213,1497.535366213,1497.535366213,1497.535366213,a,1.0848416440057917,10,358,1,1498.6366111099996,1500.138343556995,,,,,,,,,,,,,,,,,,,,,,,,,,,,,,,,,,,,,,,,,,,,,,,,,,,,,,,,,,,,,,,,,,,,,61261,2022-10-26_14h46.38.686,vts_reward_expectancy_bt_OFFLINE,2022.2.4,59.977512629804274,
0,1,0,0,1,0,0,0,circle,triangle,1,0,1,0,0,4,4,3,,,,,,,,,,,,,,,,,,,,,,,,,,,,,,,,,,,,,,,,1500.6386172839993,1500.6386172839993,1500.6386172839993,1500.6386172839993,1500.6386172839993,1500.6386172839993,1500.6386172839993,1500.6386172839993,1500.6386172839993,1500.6386172839993,a,0.485010387004877,10,368,1,1501.1558528230016,1502.6576245799952,,,,,,,,,,,,,,,,,,,,,,,,,,,,,,,,,,,,,,,,,,,,,,,,,,,,,,,,,,,,,,,,,,,,,61261,2022-10-26_14h46.38.686,vts_reward_expectancy_bt_OFFLINE,2022.2.4,59.977512629804274,
0,0,1,0,0,1,0,0,hexagon,circle,1,0,1,0,0,5,5,7,,,,,,,,,,,,,,,,,,,,,,,,,,,,,,,,,,,,,,,,1503.1581487770018,1503.1581487770018,1503.1581487770018,1503.1581487770018,1503.1581487770018,1503.1581487770018,1503.1581487770018,1503.1581487770018,1503.1581487770018,1503.1581487770018,l,0.7827557080090628,10,378,1,1503.9589987559957,1505.460671777997,,,,,,,,,,,,,,,,,,,,,,,,,,,,,,,,,,,,,,,,,,,,,,,,,,,,,,,,,,,,,,,,,,,,,61261,2022-10-26_14h46.38.686,vts_reward_expectancy_bt_OFFLINE,2022.2.4,59.977512629804274,
0,0,1,0,0,0,0,1,hexagon,star,1,0,1,0,0,6,6,8,,,,,,,,,,,,,,,,,,,,,,,,,,,,,,,,,,,,,,,,1505.9612857859975,1505.9612857859975,1505.9612857859975,1505.9612857859975,1505.9612857859975,1505.9612857859975,1505.9612857859975,1505.9612857859975,1505.9612857859975,1505.9612857859975,a,1.4262590600046678,1,379,1,1507.4129022029956,1508.9145558640012,,,,,,,,,,,,,,,,,,,,,,,,,,,,,,,,,,,,,,,,,,,,,,,,,,,,,,,,,,,,,,,,,,,,,61261,2022-10-26_14h46.38.686,vts_reward_expectancy_bt_OFFLINE,2022.2.4,59.977512629804274,
0,1,0,0,0,0,0,1,circle,star,1,0,1,0,0,7,7,5,,,,,,,,,,,,,,,,,,,,,,,,,,,,,,,,,,,,,,,,1509.4151570300019,1509.4151570300019,1509.4151570300019,1509.4151570300019,1509.4151570300019,1509.4151570300019,1509.4151570300019,1509.4151570300019,1509.4151570300019,1509.4151570300019,a,0.6044755170005374,10,389,1,1510.0491888649995,1511.5507257909994,,,,,,,,,,,,,,,,,,,,,,,,,,,,,,,,,,,,,,,,,,,,,,,,,,,,,,,,,,,,,,,,,,,,,61261,2022-10-26_14h46.38.686,vts_reward_expectancy_bt_OFFLINE,2022.2.4,59.977512629804274,
1,0,0,0,0,0,1,0,triangle,hexagon,1,0,1,0,0,8,8,1,,,,,,,,,,,,,,,,,,,,,,,,,,,,,,,,,,,,,,,,1512.0517422609992,1512.0517422609992,1512.0517422609992,1512.0517422609992,1512.0517422609992,1512.0517422609992,1512.0517422609992,1512.0517422609992,1512.0517422609992,1512.0517422609992,a,0.8726175780029735,10,399,1,1512.9523684259984,1514.4539771759955,,,,,,,,,,,,,,,,,,,,,,,,,,,,,,,,,,,,,,,,,,,,,,,,,,,,,,,,,,,,,,,,,,,,,61261,2022-10-26_14h46.38.686,vts_reward_expectancy_bt_OFFLINE,2022.2.4,59.977512629804274,
0,0,0,1,1,0,0,0,star,triangle,1,0,1,0,0,9,9,9,,,,,,,,,,,,,,,,,,,,,,,,,,,,,,,,,,,,,,,,1514.9545843899978,1514.9545843899978,1514.9545843899978,1514.9545843899978,1514.9545843899978,1514.9545843899978,1514.9545843899978,1514.9545843899978,1514.9545843899978,1514.9545843899978,l,0.5298551380037679,1,400,1,1515.5050388989985,1517.0068049309994,,,,,,,,,,,,,,,,,,,,,,,,,,,,,,,,,,,,,,,,,,,,,,,,,,,,,,,,,,,,,,,,,,,,,61261,2022-10-26_14h46.38.686,vts_reward_expectancy_bt_OFFLINE,2022.2.4,59.977512629804274,
1,0,0,0,0,1,0,0,triangle,circle,1,0,1,0,0,10,10,0,,,,,,,,,,,,,,,,,,,,,,,,,,,,,,,,,,,,,,,,1517.507661099,1517.507661099,1517.507661099,1517.507661099,1517.507661099,1517.507661099,1517.507661099,1517.507661099,1517.507661099,1517.507661099,l,0.7763679010095075,10,410,1,1518.3082142709973,1519.809983964995,,,,,,,,,,,,,,,,,,,,,,,,,,,,,,,,,,,,,,,,,,,,,,,,,,,,,,,,,,,,,,,,,,,,,61261,2022-10-26_14h46.38.686,vts_reward_expectancy_bt_OFFLINE,2022.2.4,59.977512629804274,
0,0,0,1,0,1,0,0,star ,circle,1,0,1,0,0,11,11,10,,,,,,,,,,,,,,,,,,,,,,,,,,,,,,,,,,,,,,,,1520.3104489510006,1520.3104489510006,1520.3104489510006,1520.3104489510006,1520.3104489510006,1520.3104489510006,1520.3104489510006,1520.3104489510006,1520.3104489510006,1520.3104489510006,l,1.3583716910070507,10,420,1,1521.695281485001,1523.1969593649992,,,,,,,,,,,,,,,,,,,,,,,,,,,,,,,,,,,,,,,,,,,,,,,,,,,,,,,,,,,,,,,,,,,,,61261,2022-10-26_14h46.38.686,vts_reward_expectancy_bt_OFFLINE,2022.2.4,59.977512629804274,
0,0,1,0,0,0,0,1,hexagon,star,1,0,1,0,1,0,12,8,,,,,,,,,,,,,,,,,,,,,,,,,,,,,,,,,,,,,,,,1523.6974585619973,1523.6974585619973,1523.6974585619973,1523.6974585619973,1523.6974585619973,1523.6974585619973,1523.6974585619973,1523.6974585619973,1523.6974585619973,1523.6974585619973,l,2.3544878610046,1,421,1,1526.083528682997,1527.5851580259987,,,,,,,,,,,,,,,,,,,,,,,,,,,,,,,,,,,,,,,,,,,,,,,,,,,,,,,,,,,,,,,,,,,,,61261,2022-10-26_14h46.38.686,vts_reward_expectancy_bt_OFFLINE,2022.2.4,59.977512629804274,
0,0,1,0,1,0,0,0,hexagon,triangle,1,0,1,0,1,1,13,6,,,,,,,,,,,,,,,,,,,,,,,,,,,,,,,,,,,,,,,,1528.085804923001,1528.085804923001,1528.085804923001,1528.085804923001,1528.085804923001,1528.085804923001,1528.085804923001,1528.085804923001,1528.085804923001,1528.085804923001,l,4.670664407000004,10,431,1,1532.7742970940017,1534.2759485189963,,,,,,,,,,,,,,,,,,,,,,,,,,,,,,,,,,,,,,,,,,,,,,,,,,,,,,,,,,,,,,,,,,,,,61261,2022-10-26_14h46.38.686,vts_reward_expectancy_bt_OFFLINE,2022.2.4,59.977512629804274,
0,0,0,1,0,0,1,0,star,hexagon,1,0,1,0,1,2,14,11,,,,,,,,,,,,,,,,,,,,,,,,,,,,,,,,,,,,,,,,1534.776443896997,1534.776443896997,1534.776443896997,1534.776443896997,1534.776443896997,1534.776443896997,1534.776443896997,1534.776443896997,1534.776443896997,1534.776443896997,a,0.5795338650059421,1,432,1,1535.3770394070016,1536.8787502339983,,,,,,,,,,,,,,,,,,,,,,,,,,,,,,,,,,,,,,,,,,,,,,,,,,,,,,,,,,,,,,,,,,,,,61261,2022-10-26_14h46.38.686,vts_reward_expectancy_bt_OFFLINE,2022.2.4,59.977512629804274,
1,0,0,0,0,0,0,1,triangle,star,1,0,1,0,1,3,15,2,,,,,,,,,,,,,,,,,,,,,,,,,,,,,,,,,,,,,,,,1537.3791222180007,1537.3791222180007,1537.3791222180007,1537.3791222180007,1537.3791222180007,1537.3791222180007,1537.3791222180007,1537.3791222180007,1537.3791222180007,1537.3791222180007,a,0.6578019920052611,10,442,1,1538.0632682299984,1539.5650265559962,,,,,,,,,,,,,,,,,,,,,,,,,,,,,,,,,,,,,,,,,,,,,,,,,,,,,,,,,,,,,,,,,,,,,61261,2022-10-26_14h46.38.686,vts_reward_expectancy_bt_OFFLINE,2022.2.4,59.977512629804274,
0,0,0,1,0,1,0,0,star ,circle,1,0,1,0,1,4,16,10,,,,,,,,,,,,,,,,,,,,,,,,,,,,,,,,,,,,,,,,1540.0655185799988,1540.0655185799988,1540.0655185799988,1540.0655185799988,1540.0655185799988,1540.0655185799988,1540.0655185799988,1540.0655185799988,1540.0655185799988,1540.0655185799988,l,0.5228760020036134,10,452,1,1540.616137015997,1542.1178827850017,,,,,,,,,,,,,,,,,,,,,,,,,,,,,,,,,,,,,,,,,,,,,,,,,,,,,,,,,,,,,,,,,,,,,61261,2022-10-26_14h46.38.686,vts_reward_expectancy_bt_OFFLINE,2022.2.4,59.977512629804274,
0,0,0,1,1,0,0,0,star,triangle,1,0,1,0,1,5,17,9,,,,,,,,,,,,,,,,,,,,,,,,,,,,,,,,,,,,,,,,1542.6186129080015,1542.6186129080015,1542.6186129080015,1542.6186129080015,1542.6186129080015,1542.6186129080015,1542.6186129080015,1542.6186129080015,1542.6186129080015,1542.6186129080015,l,0.6180344200038235,10,462,1,1543.2691517589992,1544.7707685999994,,,,,,,,,,,,,,,,,,,,,,,,,,,,,,,,,,,,,,,,,,,,,,,,,,,,,,,,,,,,,,,,,,,,,61261,2022-10-26_14h46.38.686,vts_reward_expectancy_bt_OFFLINE,2022.2.4,59.977512629804274,
1,0,0,0,0,1,0,0,triangle,circle,1,0,1,0,1,6,18,0,,,,,,,,,,,,,,,,,,,,,,,,,,,,,,,,,,,,,,,,1545.2713735259968,1545.2713735259968,1545.2713735259968,1545.2713735259968,1545.2713735259968,1545.2713735259968,1545.2713735259968,1545.2713735259968,1545.2713735259968,1545.2713735259968,l,1.3722320510059944,10,472,1,1546.6728683659967,1548.1748306910013,,,,,,,,,,,,,,,,,,,,,,,,,,,,,,,,,,,,,,,,,,,,,,,,,,,,,,,,,,,,,,,,,,,,,61261,2022-10-26_14h46.38.686,vts_reward_expectancy_bt_OFFLINE,2022.2.4,59.977512629804274,
0,1,0,0,0,0,0,1,circle,star,1,0,1,0,1,7,19,5,,,,,,,,,,,,,,,,,,,,,,,,,,,,,,,,,,,,,,,,1548.6750692019996,1548.6750692019996,1548.6750692019996,1548.6750692019996,1548.6750692019996,1548.6750692019996,1548.6750692019996,1548.6750692019996,1548.6750692019996,1548.6750692019996,a,0.5292037649996928,10,482,1,1549.225792088997,1550.7273937579957,,,,,,,,,,,,,,,,,,,,,,,,,,,,,,,,,,,,,,,,,,,,,,,,,,,,,,,,,,,,,,,,,,,,,61261,2022-10-26_14h46.38.686,vts_reward_expectancy_bt_OFFLINE,2022.2.4,59.977512629804274,
0,1,0,0,1,0,0,0,circle,triangle,1,0,1,0,1,8,20,3,,,,,,,,,,,,,,,,,,,,,,,,,,,,,,,,,,,,,,,,1551.2277946739996,1551.2277946739996,1551.2277946739996,1551.2277946739996,1551.2277946739996,1551.2277946739996,1551.2277946739996,1551.2277946739996,1551.2277946739996,1551.2277946739996,a,1.207806023005105,10,492,1,1552.4627587829964,1553.96339533,,,,,,,,,,,,,,,,,,,,,,,,,,,,,,,,,,,,,,,,,,,,,,,,,,,,,,,,,,,,,,,,,,,,,61261,2022-10-26_14h46.38.686,vts_reward_expectancy_bt_OFFLINE,2022.2.4,59.977512629804274,
0,0,1,0,0,1,0,0,hexagon,circle,1,0,1,0,1,9,21,7,,,,,,,,,,,,,,,,,,,,,,,,,,,,,,,,,,,,,,,,1554.4648428159999,1554.4648428159999,1554.4648428159999,1554.4648428159999,1554.4648428159999,1554.4648428159999,1554.4648428159999,1554.4648428159999,1554.4648428159999,1554.4648428159999,l,0.5076291640070849,1,493,1,1554.9988936369991,1556.5002559040004,,,,,,,,,,,,,,,,,,,,,,,,,,,,,,,,,,,,,,,,,,,,,,,,,,,,,,,,,,,,,,,,,,,,,61261,2022-10-26_14h46.38.686,vts_reward_expectancy_bt_OFFLINE,2022.2.4,59.977512629804274,
1,0,0,0,0,0,1,0,triangle,hexagon,1,0,1,0,1,10,22,1,,,,,,,,,,,,,,,,,,,,,,,,,,,,,,,,,,,,,,,,1557.0007490479984,1557.0007490479984,1557.0007490479984,1557.0007490479984,1557.0007490479984,1557.0007490479984,1557.0007490479984,1557.0007490479984,1557.0007490479984,1557.0007490479984,a,0.6349175220020697,1,494,1,1557.668230958996,1559.1700402439965,,,,,,,,,,,,,,,,,,,,,,,,,,,,,,,,,,,,,,,,,,,,,,,,,,,,,,,,,,,,,,,,,,,,,61261,2022-10-26_14h46.38.686,vts_reward_expectancy_bt_OFFLINE,2022.2.4,59.977512629804274,
0,1,0,0,0,0,1,0,circle,hexagon,1,0,1,0,1,11,23,4,,,,,,,,,,,,,,,,,,,,,,,,,,,,,,,,,,,,,,,,1559.6705218579955,1559.6705218579955,1559.6705218579955,1559.6705218579955,1559.6705218579955,1559.6705218579955,1559.6705218579955,1559.6705218579955,1559.6705218579955,1559.6705218579955,a,0.4612435390081373,10,504,1,1560.1543643580007,1561.6561146649983,,,,,,,,,,,,,,,,,,,,,,,,,,,,,,,,,,,,,,,,,,,,,,,,,,,,,,,,,,,,,,,,,,,,,61261,2022-10-26_14h46.38.686,vts_reward_expectancy_bt_OFFLINE,2022.2.4,59.977512629804274,
0,0,0,1,0,0,1,0,star,hexagon,1,0,1,0,2,0,24,11,,,,,,,,,,,,,,,,,,,,,,,,,,,,,,,,,,,,,,,,1562.1565366590003,1562.1565366590003,1562.1565366590003,1562.1565366590003,1562.1565366590003,1562.1565366590003,1562.1565366590003,1562.1565366590003,1562.1565366590003,1562.1565366590003,a,1.1916810000038822,10,514,1,1563.374603447999,1564.8761925299987,,,,,,,,,,,,,,,,,,,,,,,,,,,,,,,,,,,,,,,,,,,,,,,,,,,,,,,,,,,,,,,,,,,,,61261,2022-10-26_14h46.38.686,vts_reward_expectancy_bt_OFFLINE,2022.2.4,59.977512629804274,
0,1,0,0,0,0,0,1,circle,star,1,0,1,0,2,1,25,5,,,,,,,,,,,,,,,,,,,,,,,,,,,,,,,,,,,,,,,,1565.3766924989977,1565.3766924989977,1565.3766924989977,1565.3766924989977,1565.3766924989977,1565.3766924989977,1565.3766924989977,1565.3766924989977,1565.3766924989977,1565.3766924989977,a,0.5947302730055526,10,524,1,1565.9941971459994,1567.495735520999,,,,,,,,,,,,,,,,,,,,,,,,,,,,,,,,,,,,,,,,,,,,,,,,,,,,,,,,,,,,,,,,,,,,,61261,2022-10-26_14h46.38.686,vts_reward_expectancy_bt_OFFLINE,2022.2.4,59.977512629804274,
0,0,1,0,1,0,0,0,hexagon,triangle,1,0,1,0,2,2,26,6,,,,,,,,,,,,,,,,,,,,,,,,,,,,,,,,,,,,,,,,1567.9964373249968,1567.9964373249968,1567.9964373249968,1567.9964373249968,1567.9964373249968,1567.9964373249968,1567.9964373249968,1567.9964373249968,1567.9964373249968,1567.9964373249968,l,1.0952405530042597,10,534,1,1569.1142773399988,1570.6159869990006,,,,,,,,,,,,,,,,,,,,,,,,,,,,,,,,,,,,,,,,,,,,,,,,,,,,,,,,,,,,,,,,,,,,,61261,2022-10-26_14h46.38.686,vts_reward_expectancy_bt_OFFLINE,2022.2.4,59.977512629804274,
0,1,0,0,1,0,0,0,circle,triangle,1,0,1,0,2,3,27,3,,,,,,,,,,,,,,,,,,,,,,,,,,,,,,,,,,,,,,,,1571.116502924,1571.116502924,1571.116502924,1571.116502924,1571.116502924,1571.116502924,1571.116502924,1571.116502924,1571.116502924,1571.116502924,a,0.591676987001847,10,544,1,1571.733927370995,1573.2354842259956,,,,,,,,,,,,,,,,,,,,,,,,,,,,,,,,,,,,,,,,,,,,,,,,,,,,,,,,,,,,,,,,,,,,,61261,2022-10-26_14h46.38.686,vts_reward_expectancy_bt_OFFLINE,2022.2.4,59.977512629804274,
1,0,0,0,0,1,0,0,triangle,circle,1,0,1,0,2,4,28,0,,,,,,,,,,,,,,,,,,,,,,,,,,,,,,,,,,,,,,,,1573.7353417609993,1573.7353417609993,1573.7353417609993,1573.7353417609993,1573.7353417609993,1573.7353417609993,1573.7353417609993,1573.7353417609993,1573.7353417609993,1573.7353417609993,l,0.541329202002089,10,554,1,1574.3032845869966,1575.8050137809987,,,,,,,,,,,,,,,,,,,,,,,,,,,,,,,,,,,,,,,,,,,,,,,,,,,,,,,,,,,,,,,,,,,,,61261,2022-10-26_14h46.38.686,vts_reward_expectancy_bt_OFFLINE,2022.2.4,59.977512629804274,
0,0,1,0,0,0,0,1,hexagon,star,1,0,1,0,2,5,29,8,,,,,,,,,,,,,,,,,,,,,,,,,,,,,,,,,,,,,,,,1576.3056055470006,1576.3056055470006,1576.3056055470006,1576.3056055470006,1576.3056055470006,1576.3056055470006,1576.3056055470006,1576.3056055470006,1576.3056055470006,1576.3056055470006,a,0.8747942100017099,1,555,1,1577.2064622670005,1578.7082223659963,,,,,,,,,,,,,,,,,,,,,,,,,,,,,,,,,,,,,,,,,,,,,,,,,,,,,,,,,,,,,,,,,,,,,61261,2022-10-26_14h46.38.686,vts_reward_expectancy_bt_OFFLINE,2022.2.4,59.977512629804274,
1,0,0,0,0,0,1,0,triangle,hexagon,1,0,1,0,2,6,30,1,,,,,,,,,,,,,,,,,,,,,,,,,,,,,,,,,,,,,,,,1579.2087844400012,1579.2087844400012,1579.2087844400012,1579.2087844400012,1579.2087844400012,1579.2087844400012,1579.2087844400012,1579.2087844400012,1579.2087844400012,1579.2087844400012,l,0.826974401003099,1,556,1,1580.0595398969963,1581.5613185389957,,,,,,,,,,,,,,,,,,,,,,,,,,,,,,,,,,,,,,,,,,,,,,,,,,,,,,,,,,,,,,,,,,,,,61261,2022-10-26_14h46.38.686,vts_reward_expectancy_bt_OFFLINE,2022.2.4,59.977512629804274,
0,1,0,0,0,0,1,0,circle,hexagon,1,0,1,0,2,7,31,4,,,,,,,,,,,,,,,,,,,,,,,,,,,,,,,,,,,,,,,,1582.0620001709976,1582.0620001709976,1582.0620001709976,1582.0620001709976,1582.0620001709976,1582.0620001709976,1582.0620001709976,1582.0620001709976,1582.0620001709976,1582.0620001709976,a,0.37407990500651067,1,557,1,1582.4622657250002,1583.9640082929982,,,,,,,,,,,,,,,,,,,,,,,,,,,,,,,,,,,,,,,,,,,,,,,,,,,,,,,,,,,,,,,,,,,,,61261,2022-10-26_14h46.38.686,vts_reward_expectancy_bt_OFFLINE,2022.2.4,59.977512629804274,
0,0,1,0,0,1,0,0,hexagon,circle,1,0,1,0,2,8,32,7,,,,,,,,,,,,,,,,,,,,,,,,,,,,,,,,,,,,,,,,1584.4644651909985,1584.4644651909985,1584.4644651909985,1584.4644651909985,1584.4644651909985,1584.4644651909985,1584.4644651909985,1584.4644651909985,1584.4644651909985,1584.4644651909985,l,0.45173370800330304,1,558,1,1584.9484513630014,1586.4501081509952,,,,,,,,,,,,,,,,,,,,,,,,,,,,,,,,,,,,,,,,,,,,,,,,,,,,,,,,,,,,,,,,,,,,,61261,2022-10-26_14h46.38.686,vts_reward_expectancy_bt_OFFLINE,2022.2.4,59.977512629804274,
0,0,0,1,0,1,0,0,star ,circle,1,0,1,0,2,9,33,10,,,,,,,,,,,,,,,,,,,,,,,,,,,,,,,,,,,,,,,,1586.9507082499986,1586.9507082499986,1586.9507082499986,1586.9507082499986,1586.9507082499986,1586.9507082499986,1586.9507082499986,1586.9507082499986,1586.9507082499986,1586.9507082499986,l,0.4933558330012602,10,568,1,1587.468007522999,1588.9694764809974,,,,,,,,,,,,,,,,,,,,,,,,,,,,,,,,,,,,,,,,,,,,,,,,,,,,,,,,,,,,,,,,,,,,,61261,2022-10-26_14h46.38.686,vts_reward_expectancy_bt_OFFLINE,2022.2.4,59.977512629804274,
1,0,0,0,0,0,0,1,triangle,star,1,0,1,0,2,10,34,2,,,,,,,,,,,,,,,,,,,,,,,,,,,,,,,,,,,,,,,,1589.470041708999,1589.470041708999,1589.470041708999,1589.470041708999,1589.470041708999,1589.470041708999,1589.470041708999,1589.470041708999,1589.470041708999,1589.470041708999,a,0.8300617380082258,10,578,1,1590.3208886189968,1591.8226841529977,,,,,,,,,,,,,,,,,,,,,,,,,,,,,,,,,,,,,,,,,,,,,,,,,,,,,,,,,,,,,,,,,,,,,61261,2022-10-26_14h46.38.686,vts_reward_expectancy_bt_OFFLINE,2022.2.4,59.977512629804274,
0,0,0,1,1,0,0,0,star,triangle,1,0,1,0,2,11,35,9,,,,,,,,,,,,,,,,,,,,,,,,,,,,,,,,,,,,,,,,1592.323241678001,1592.323241678001,1592.323241678001,1592.323241678001,1592.323241678001,1592.323241678001,1592.323241678001,1592.323241678001,1592.323241678001,1592.323241678001,l,0.5524802420040942,10,588,1,1592.9070208949997,1594.4089417540017,,,,,,,,,,,,,,,,,,,,,,,,,,,,,,,,,,,,,,,,,,,,,,,,,,,,,,,,,,,,,,,,,,,,,61261,2022-10-26_14h46.38.686,vts_reward_expectancy_bt_OFFLINE,2022.2.4,59.977512629804274,
1,0,0,0,0,0,1,0,triangle,hexagon,1,0,1,0,3,0,36,1,,,,,,,,,,,,,,,,,,,,,,,,,,,,,,,,,,,,,,,,1594.9093008889977,1594.9093008889977,1594.9093008889977,1594.9093008889977,1594.9093008889977,1594.9093008889977,1594.9093008889977,1594.9093008889977,1594.9093008889977,1594.9093008889977,a,1.4150447420033743,1,589,1,1596.3443877030004,1597.8459381840003,,,,,,,,,,,,,,,,,,,,,,,,,,,,,,,,,,,,,,,,,,,,,,,,,,,,,,,,,,,,,,,,,,,,,61261,2022-10-26_14h46.38.686,vts_reward_expectancy_bt_OFFLINE,2022.2.4,59.977512629804274,
0,1,0,0,1,0,0,0,circle,triangle,1,0,1,0,3,1,37,3,,,,,,,,,,,,,,,,,,,,,,,,,,,,,,,,,,,,,,,,1598.3465830019995,1598.3465830019995,1598.3465830019995,1598.3465830019995,1598.3465830019995,1598.3465830019995,1598.3465830019995,1598.3465830019995,1598.3465830019995,1598.3465830019995,a,0.6014510940003674,10,599,1,1598.9806382129973,1600.4821613809981,,,,,,,,,,,,,,,,,,,,,,,,,,,,,,,,,,,,,,,,,,,,,,,,,,,,,,,,,,,,,,,,,,,,,61261,2022-10-26_14h46.38.686,vts_reward_expectancy_bt_OFFLINE,2022.2.4,59.977512629804274,
0,0,0,1,0,1,0,0,star ,circle,1,0,1,0,3,2,38,10,,,,,,,,,,,,,,,,,,,,,,,,,,,,,,,,,,,,,,,,1600.982652957995,1600.982652957995,1600.982652957995,1600.982652957995,1600.982652957995,1600.982652957995,1600.982652957995,1600.982652957995,1600.982652957995,1600.982652957995,l,0.7413721800112398,10,609,1,1601.750204969001,1603.2520370849961,,,,,,,,,,,,,,,,,,,,,,,,,,,,,,,,,,,,,,,,,,,,,,,,,,,,,,,,,,,,,,,,,,,,,61261,2022-10-26_14h46.38.686,vts_reward_expectancy_bt_OFFLINE,2022.2.4,59.977512629804274,
0,1,0,0,0,0,1,0,circle,hexagon,1,0,1,0,3,3,39,4,,,,,,,,,,,,,,,,,,,,,,,,,,,,,,,,,,,,,,,,1603.7524315249975,1603.7524315249975,1603.7524315249975,1603.7524315249975,1603.7524315249975,1603.7524315249975,1603.7524315249975,1603.7524315249975,1603.7524315249975,1603.7524315249975,a,0.9715206020046026,10,619,1,1604.7535729160008,1606.2543291249967,,,,,,,,,,,,,,,,,,,,,,,,,,,,,,,,,,,,,,,,,,,,,,,,,,,,,,,,,,,,,,,,,,,,,61261,2022-10-26_14h46.38.686,vts_reward_expectancy_bt_OFFLINE,2022.2.4,59.977512629804274,
0,0,1,0,0,0,0,1,hexagon,star,1,0,1,0,3,4,40,8,,,,,,,,,,,,,,,,,,,,,,,,,,,,,,,,,,,,,,,,1606.7559058789993,1606.7559058789993,1606.7559058789993,1606.7559058789993,1606.7559058789993,1606.7559058789993,1606.7559058789993,1606.7559058789993,1606.7559058789993,1606.7559058789993,l,1.0005828190041939,10,629,1,1607.7737838079993,1609.275221965996,,,,,,,,,,,,,,,,,,,,,,,,,,,,,,,,,,,,,,,,,,,,,,,,,,,,,,,,,,,,,,,,,,,,,61261,2022-10-26_14h46.38.686,vts_reward_expectancy_bt_OFFLINE,2022.2.4,59.977512629804274,
0,1,0,0,0,0,0,1,circle,star,1,0,1,0,3,5,41,5,,,,,,,,,,,,,,,,,,,,,,,,,,,,,,,,,,,,,,,,1609.7758963679953,1609.7758963679953,1609.7758963679953,1609.7758963679953,1609.7758963679953,1609.7758963679953,1609.7758963679953,1609.7758963679953,1609.7758963679953,1609.7758963679953,l,0.6841148670064285,10,639,1,1610.4766061689952,1611.9781279559975,,,,,,,,,,,,,,,,,,,,,,,,,,,,,,,,,,,,,,,,,,,,,,,,,,,,,,,,,,,,,,,,,,,,,61261,2022-10-26_14h46.38.686,vts_reward_expectancy_bt_OFFLINE,2022.2.4,59.977512629804274,
0,0,1,0,1,0,0,0,hexagon,triangle,1,0,1,0,3,6,42,6,,,,,,,,,,,,,,,,,,,,,,,,,,,,,,,,,,,,,,,,1612.4787676819979,1612.4787676819979,1612.4787676819979,1612.4787676819979,1612.4787676819979,1612.4787676819979,1612.4787676819979,1612.4787676819979,1612.4787676819979,1612.4787676819979,l,1.013755588006461,10,649,1,1613.513305305998,1615.0149508870018,,,,,,,,,,,,,,,,,,,,,,,,,,,,,,,,,,,,,,,,,,,,,,,,,,,,,,,,,,,,,,,,,,,,,61261,2022-10-26_14h46.38.686,vts_reward_expectancy_bt_OFFLINE,2022.2.4,59.977512629804274,
0,0,0,1,1,0,0,0,star,triangle,1,0,1,0,3,7,43,9,,,,,,,,,,,,,,,,,,,,,,,,,,,,,,,,,,,,,,,,1615.515545285998,1615.515545285998,1615.515545285998,1615.515545285998,1615.515545285998,1615.515545285998,1615.515545285998,1615.515545285998,1615.515545285998,1615.515545285998,l,0.6169418160061468,10,659,1,1616.1494456009968,1617.6510762679973,,,,,,,,,,,,,,,,,,,,,,,,,,,,,,,,,,,,,,,,,,,,,,,,,,,,,,,,,,,,,,,,,,,,,61261,2022-10-26_14h46.38.686,vts_reward_expectancy_bt_OFFLINE,2022.2.4,59.977512629804274,
1,0,0,0,0,0,0,1,triangle,star,1,0,1,0,3,8,44,2,,,,,,,,,,,,,,,,,,,,,,,,,,,,,,,,,,,,,,,,1618.1516664079973,1618.1516664079973,1618.1516664079973,1618.1516664079973,1618.1516664079973,1618.1516664079973,1618.1516664079973,1618.1516664079973,1618.1516664079973,1618.1516664079973,a,0.628365340999153,10,669,1,1618.802414494996,1620.3041698730012,,,,,,,,,,,,,,,,,,,,,,,,,,,,,,,,,,,,,,,,,,,,,,,,,,,,,,,,,,,,,,,,,,,,,61261,2022-10-26_14h46.38.686,vts_reward_expectancy_bt_OFFLINE,2022.2.4,59.977512629804274,
1,0,0,0,0,1,0,0,triangle,circle,1,0,1,0,3,9,45,0,,,,,,,,,,,,,,,,,,,,,,,,,,,,,,,,,,,,,,,,1620.8045472509984,1620.8045472509984,1620.8045472509984,1620.8045472509984,1620.8045472509984,1620.8045472509984,1620.8045472509984,1620.8045472509984,1620.8045472509984,1620.8045472509984,l,0.7350806490067043,10,679,1,1621.5722932579956,1623.073762647,,,,,,,,,,,,,,,,,,,,,,,,,,,,,,,,,,,,,,,,,,,,,,,,,,,,,,,,,,,,,,,,,,,,,61261,2022-10-26_14h46.38.686,vts_reward_expectancy_bt_OFFLINE,2022.2.4,59.977512629804274,
0,0,1,0,0,1,0,0,hexagon,circle,1,0,1,0,3,10,46,7,,,,,,,,,,,,,,,,,,,,,,,,,,,,,,,,,,,,,,,,1623.574302863999,1623.574302863999,1623.574302863999,1623.574302863999,1623.574302863999,1623.574302863999,1623.574302863999,1623.574302863999,1623.574302863999,1623.574302863999,l,0.6377632480071043,10,689,1,1624.2419301650007,1625.7434315540013,,,,,,,,,,,,,,,,,,,,,,,,,,,,,,,,,,,,,,,,,,,,,,,,,,,,,,,,,,,,,,,,,,,,,61261,2022-10-26_14h46.38.686,vts_reward_expectancy_bt_OFFLINE,2022.2.4,59.977512629804274,
0,0,0,1,0,0,1,0,star,hexagon,1,0,1,0,3,11,47,11,,,,,,,,,,,,,,,,,,,,,,,,,,,,,,,,,,,,,,,,1626.243804120997,1626.243804120997,1626.243804120997,1626.243804120997,1626.243804120997,1626.243804120997,1626.243804120997,1626.243804120997,1626.243804120997,1626.243804120997,l,0.5039210690010805,1,690,1,1626.7777695440018,1628.2793602699967,,,,,,,,,,,,,,,,,,,,,,,,,,,,,,,,,,,,,,,,,,,,,,,,,,,,,,,,,,,,,,,,,,,,,61261,2022-10-26_14h46.38.686,vts_reward_expectancy_bt_OFFLINE,2022.2.4,59.977512629804274,
1,0,0,0,0,1,0,0,triangle,circle,2,0,2,0,0,0,0,0,,,,,,,,,,,,,,,,,,,,,,,,,,,,,,,,,,,,,,,,1633.5270691049955,1633.5270691049955,1633.5270691049955,1633.5270691049955,1633.5270691049955,1633.5270691049955,1633.5270691049955,1633.5270691049955,1633.5270691049955,1633.5270691049955,l,0.9413463760065497,10,700,2,1634.486361078998,1635.9879758370007,,,,,,,,,,,,,,,,,,,,,,,,,,,,,,,,,,,,,,,,,,,,,,,,,,,,,,,,,,,,,,,,,,,,,61261,2022-10-26_14h46.38.686,vts_reward_expectancy_bt_OFFLINE,2022.2.4,59.977512629804274,
0,0,1,0,1,0,0,0,hexagon,triangle,2,0,2,0,0,1,1,6,,,,,,,,,,,,,,,,,,,,,,,,,,,,,,,,,,,,,,,,1636.4885639109998,1636.4885639109998,1636.4885639109998,1636.4885639109998,1636.4885639109998,1636.4885639109998,1636.4885639109998,1636.4885639109998,1636.4885639109998,1636.4885639109998,l,1.2428185770040727,10,710,2,1637.7566723959972,1639.258381906002,,,,,,,,,,,,,,,,,,,,,,,,,,,,,,,,,,,,,,,,,,,,,,,,,,,,,,,,,,,,,,,,,,,,,61261,2022-10-26_14h46.38.686,vts_reward_expectancy_bt_OFFLINE,2022.2.4,59.977512629804274,
0,0,1,0,0,0,0,1,hexagon,star,2,0,2,0,0,2,2,8,,,,,,,,,,,,,,,,,,,,,,,,,,,,,,,,,,,,,,,,1639.7588577839997,1639.7588577839997,1639.7588577839997,1639.7588577839997,1639.7588577839997,1639.7588577839997,1639.7588577839997,1639.7588577839997,1639.7588577839997,1639.7588577839997,l,0.7084798280047835,1,711,2,1640.4928992019995,1641.9946626029996,,,,,,,,,,,,,,,,,,,,,,,,,,,,,,,,,,,,,,,,,,,,,,,,,,,,,,,,,,,,,,,,,,,,,61261,2022-10-26_14h46.38.686,vts_reward_expectancy_bt_OFFLINE,2022.2.4,59.977512629804274,
1,0,0,0,0,0,0,1,triangle,star,2,0,2,0,0,3,3,2,,,,,,,,,,,,,,,,,,,,,,,,,,,,,,,,,,,,,,,,1642.495210463996,1642.495210463996,1642.495210463996,1642.495210463996,1642.495210463996,1642.495210463996,1642.495210463996,1642.495210463996,1642.495210463996,1642.495210463996,a,1.10825763700268,10,721,2,1643.6298173769974,1645.1315169419977,,,,,,,,,,,,,,,,,,,,,,,,,,,,,,,,,,,,,,,,,,,,,,,,,,,,,,,,,,,,,,,,,,,,,61261,2022-10-26_14h46.38.686,vts_reward_expectancy_bt_OFFLINE,2022.2.4,59.977512629804274,
0,1,0,0,0,0,1,0,circle,hexagon,2,0,2,0,0,4,4,4,,,,,,,,,,,,,,,,,,,,,,,,,,,,,,,,,,,,,,,,1645.6320800479953,1645.6320800479953,1645.6320800479953,1645.6320800479953,1645.6320800479953,1645.6320800479953,1645.6320800479953,1645.6320800479953,1645.6320800479953,1645.6320800479953,a,0.6434211460073129,1,722,2,1646.2994638129967,1647.8010239959985,,,,,,,,,,,,,,,,,,,,,,,,,,,,,,,,,,,,,,,,,,,,,,,,,,,,,,,,,,,,,,,,,,,,,61261,2022-10-26_14h46.38.686,vts_reward_expectancy_bt_OFFLINE,2022.2.4,59.977512629804274,
0,0,1,0,0,1,0,0,hexagon,circle,2,0,2,0,0,5,5,7,,,,,,,,,,,,,,,,,,,,,,,,,,,,,,,,,,,,,,,,1648.3015671289977,1648.3015671289977,1648.3015671289977,1648.3015671289977,1648.3015671289977,1648.3015671289977,1648.3015671289977,1648.3015671289977,1648.3015671289977,1648.3015671289977,l,0.583247291004227,10,732,2,1648.9022018620017,1650.403876063996,,,,,,,,,,,,,,,,,,,,,,,,,,,,,,,,,,,,,,,,,,,,,,,,,,,,,,,,,,,,,,,,,,,,,61261,2022-10-26_14h46.38.686,vts_reward_expectancy_bt_OFFLINE,2022.2.4,59.977512629804274,
0,0,0,1,0,1,0,0,star ,circle,2,0,2,0,0,6,6,10,,,,,,,,,,,,,,,,,,,,,,,,,,,,,,,,,,,,,,,,1650.9044717239958,1650.9044717239958,1650.9044717239958,1650.9044717239958,1650.9044717239958,1650.9044717239958,1650.9044717239958,1650.9044717239958,1650.9044717239958,1650.9044717239958,l,0.5159864989982452,10,742,2,1651.4384341619952,1652.9399769239972,1652.9399769239972,,,,,,,,,,,,,,,,,,,,,,,,,,,,,,,,,,,,,,,,,,,,,,,,,,,,,,,,,,,,,,,,,,,,61261,2022-10-26_14h46.38.686,vts_reward_expectancy_bt_OFFLINE,2022.2.4,59.977512629804274,
0,1,0,0,0,0,0,1,circle,star,2,0,2,0,0,7,7,5,,,,,,,,,,,,,,,,,,,,,,,,,,,,,,,,,,,,,,,,1653.4405587149959,1653.4405587149959,1653.4405587149959,1653.4405587149959,1653.4405587149959,1653.4405587149959,1653.4405587149959,1653.4405587149959,1653.4405587149959,1653.4405587149959,a,0.6033480500045698,10,752,2,1654.074623773995,1655.5762595639972,,,,,,,,,,,,,,,,,,,,,,,,,,,,,,,,,,,,,,,,,,,,,,,,,,,,,,,,,,,,,,,,,,,,,61261,2022-10-26_14h46.38.686,vts_reward_expectancy_bt_OFFLINE,2022.2.4,59.977512629804274,
0,0,0,1,0,0,1,0,star,hexagon,2,0,2,0,0,8,8,11,,,,,,,,,,,,,,,,,,,,,,,,,,,,,,,,,,,,,,,,1656.0769472079992,1656.0769472079992,1656.0769472079992,1656.0769472079992,1656.0769472079992,1656.0769472079992,1656.0769472079992,1656.0769472079992,1656.0769472079992,1656.0769472079992,l,0.5186718039985863,10,762,2,1656.6274225029993,1658.1292593549952,,,,,,,,,,,,,,,,,,,,,,,,,,,,,,,,,,,,,,,,,,,,,,,,,,,,,,,,,,,,,,,,,,,,,61261,2022-10-26_14h46.38.686,vts_reward_expectancy_bt_OFFLINE,2022.2.4,59.977512629804274,
0,0,0,1,1,0,0,0,star,triangle,2,0,2,0,0,9,9,9,,,,,,,,,,,,,,,,,,,,,,,,,,,,,,,,,,,,,,,,1658.629697821998,1658.629697821998,1658.629697821998,1658.629697821998,1658.629697821998,1658.629697821998,1658.629697821998,1658.629697821998,1658.629697821998,1658.629697821998,l,0.646734189002018,10,772,2,1659.2971929669948,1660.7987684359978,,,,,,,,,,,,,,,,,,,,,,,,,,,,,,,,,,,,,,,,,,,,,,,,,,,,,,,,,,,,,,,,,,,,,61261,2022-10-26_14h46.38.686,vts_reward_expectancy_bt_OFFLINE,2022.2.4,59.977512629804274,
0,1,0,0,1,0,0,0,circle,triangle,2,0,2,0,0,10,10,3,,,,,,,,,,,,,,,,,,,,,,,,,,,,,,,,,,,,,,,,1661.2993257089984,1661.2993257089984,1661.2993257089984,1661.2993257089984,1661.2993257089984,1661.2993257089984,1661.2993257089984,1661.2993257089984,1661.2993257089984,1661.2993257089984,a,1.297310699002992,10,782,2,1662.6172652629975,1664.1189498469976,,,,,,,,,,,,,,,,,,,,,,,,,,,,,,,,,,,,,,,,,,,,,,,,,,,,,,,,,,,,,,,,,,,,,61261,2022-10-26_14h46.38.686,vts_reward_expectancy_bt_OFFLINE,2022.2.4,59.977512629804274,
1,0,0,0,0,0,1,0,triangle,hexagon,2,0,2,0,0,11,11,1,,,,,,,,,,,,,,,,,,,,,,,,,,,,,,,,,,,,,,,,1664.6197743890007,1664.6197743890007,1664.6197743890007,1664.6197743890007,1664.6197743890007,1664.6197743890007,1664.6197743890007,1664.6197743890007,1664.6197743890007,1664.6197743890007,a,1.3607216919990606,10,792,2,1666.004415890995,1667.506149558998,,,,,,,,,,,,,,,,,,,,,,,,,,,,,,,,,,,,,,,,,,,,,,,,,,,,,,,,,,,,,,,,,,,,,61261,2022-10-26_14h46.38.686,vts_reward_expectancy_bt_OFFLINE,2022.2.4,59.977512629804274,
1,0,0,0,0,1,0,0,triangle,circle,2,0,2,0,1,0,12,0,,,,,,,,,,,,,,,,,,,,,,,,,,,,,,,,,,,,,,,,1668.0067012719956,1668.0067012719956,1668.0067012719956,1668.0067012719956,1668.0067012719956,1668.0067012719956,1668.0067012719956,1668.0067012719956,1668.0067012719956,1668.0067012719956,l,0.7258959580067312,10,802,2,1668.757426176002,1670.2590988660013,,,,,,,,,,,,,,,,,,,,,,,,,,,,,,,,,,,,,,,,,,,,,,,,,,,,,,,,,,,,,,,,,,,,,61261,2022-10-26_14h46.38.686,vts_reward_expectancy_bt_OFFLINE,2022.2.4,59.977512629804274,
0,0,1,0,0,0,0,1,hexagon,star,2,0,2,0,1,1,13,8,,,,,,,,,,,,,,,,,,,,,,,,,,,,,,,,,,,,,,,,1670.7596646370002,1670.7596646370002,1670.7596646370002,1670.7596646370002,1670.7596646370002,1670.7596646370002,1670.7596646370002,1670.7596646370002,1670.7596646370002,1670.7596646370002,l,0.5882553460032796,1,803,2,1671.377258608998,1672.8787988490003,,,,,,,,,,,,,,,,,,,,,,,,,,,,,,,,,,,,,,,,,,,,,,,,,,,,,,,,,,,,,,,,,,,,,61261,2022-10-26_14h46.38.686,vts_reward_expectancy_bt_OFFLINE,2022.2.4,59.977512629804274,
1,0,0,0,0,0,0,1,triangle,star,2,0,2,0,1,2,14,2,,,,,,,,,,,,,,,,,,,,,,,,,,,,,,,,,,,,,,,,1673.3792619399974,1673.3792619399974,1673.3792619399974,1673.3792619399974,1673.3792619399974,1673.3792619399974,1673.3792619399974,1673.3792619399974,1673.3792619399974,1673.3792619399974,a,1.1203390180089627,10,813,2,1674.5304887909952,1676.032212678001,,,,,,,,,,,,,,,,,,,,,,,,,,,,,,,,,,,,,,,,,,,,,,,,,,,,,,,,,,,,,,,,,,,,,61261,2022-10-26_14h46.38.686,vts_reward_expectancy_bt_OFFLINE,2022.2.4,59.977512629804274,
0,0,1,0,1,0,0,0,hexagon,triangle,2,0,2,0,1,3,15,6,,,,,,,,,,,,,,,,,,,,,,,,,,,,,,,,,,,,,,,,1676.5327646730002,1676.5327646730002,1676.5327646730002,1676.5327646730002,1676.5327646730002,1676.5327646730002,1676.5327646730002,1676.5327646730002,1676.5327646730002,1676.5327646730002,l,0.695042901999841,1,814,2,1677.2505021999968,1678.7519886029986,,,,,,,,,,,,,,,,,,,,,,,,,,,,,,,,,,,,,,,,,,,,,,,,,,,,,,,,,,,,,,,,,,,,,61261,2022-10-26_14h46.38.686,vts_reward_expectancy_bt_OFFLINE,2022.2.4,59.977512629804274,
0,1,0,0,1,0,0,0,circle,triangle,2,0,2,0,1,4,16,3,,,,,,,,,,,,,,,,,,,,,,,,,,,,,,,,,,,,,,,,1679.2524240269995,1679.2524240269995,1679.2524240269995,1679.2524240269995,1679.2524240269995,1679.2524240269995,1679.2524240269995,1679.2524240269995,1679.2524240269995,1679.2524240269995,a,0.4077100360082113,10,824,2,1679.6861871610017,1681.1880141110014,,,,,,,,,,,,,,,,,,,,,,,,,,,,,,,,,,,,,,,,,,,,,,,,,,,,,,,,,,,,,,,,,,,,,61261,2022-10-26_14h46.38.686,vts_reward_expectancy_bt_OFFLINE,2022.2.4,59.977512629804274,
1,0,0,0,0,0,1,0,triangle,hexagon,2,0,2,0,1,5,17,1,,,,,,,,,,,,,,,,,,,,,,,,,,,,,,,,,,,,,,,,1681.688625570001,1681.688625570001,1681.688625570001,1681.688625570001,1681.688625570001,1681.688625570001,1681.688625570001,1681.688625570001,1681.688625570001,1681.688625570001,a,0.9712548040042748,10,834,2,1682.6895036130009,1684.1912691789985,,,,,,,,,,,,,,,,,,,,,,,,,,,,,,,,,,,,,,,,,,,,,,,,,,,,,,,,,,,,,,,,,,,,,61261,2022-10-26_14h46.38.686,vts_reward_expectancy_bt_OFFLINE,2022.2.4,59.977512629804274,
0,0,1,0,0,1,0,0,hexagon,circle,2,0,2,0,1,6,18,7,,,,,,,,,,,,,,,,,,,,,,,,,,,,,,,,,,,,,,,,1684.6917434989955,1684.6917434989955,1684.6917434989955,1684.6917434989955,1684.6917434989955,1684.6917434989955,1684.6917434989955,1684.6917434989955,1684.6917434989955,1684.6917434989955,l,0.6249467810048372,10,844,2,1685.3425141859989,1686.8442385909948,,,,,,,,,,,,,,,,,,,,,,,,,,,,,,,,,,,,,,,,,,,,,,,,,,,,,,,,,,,,,,,,,,,,,61261,2022-10-26_14h46.38.686,vts_reward_expectancy_bt_OFFLINE,2022.2.4,59.977512629804274,
0,1,0,0,0,0,0,1,circle,star,2,0,2,0,1,7,19,5,,,,,,,,,,,,,,,,,,,,,,,,,,,,,,,,,,,,,,,,1687.3448208389964,1687.3448208389964,1687.3448208389964,1687.3448208389964,1687.3448208389964,1687.3448208389964,1687.3448208389964,1687.3448208389964,1687.3448208389964,1687.3448208389964,a,0.643365846008237,10,854,2,1688.012134771001,1689.5138203960014,,,,,,,,,,,,,,,,,,,,,,,,,,,,,,,,,,,,,,,,,,,,,,,,,,,,,,,,,,,,,,,,,,,,,61261,2022-10-26_14h46.38.686,vts_reward_expectancy_bt_OFFLINE,2022.2.4,59.977512629804274,
0,0,0,1,0,0,1,0,star,hexagon,2,0,2,0,1,8,20,11,,,,,,,,,,,,,,,,,,,,,,,,,,,,,,,,,,,,,,,,1690.014448625996,1690.014448625996,1690.014448625996,1690.014448625996,1690.014448625996,1690.014448625996,1690.014448625996,1690.014448625996,1690.014448625996,1690.014448625996,l,0.6938909970049281,1,855,2,1690.7318062069971,1692.2333048849978,,,,,,,,,,,,,,,,,,,,,,,,,,,,,,,,,,,,,,,,,,,,,,,,,,,,,,,,,,,,,,,,,,,,,61261,2022-10-26_14h46.38.686,vts_reward_expectancy_bt_OFFLINE,2022.2.4,59.977512629804274,
0,0,0,1,1,0,0,0,star,triangle,2,0,2,0,1,9,21,9,,,,,,,,,,,,,,,,,,,,,,,,,,,,,,,,,,,,,,,,1692.733944157997,1692.733944157997,1692.733944157997,1692.733944157997,1692.733944157997,1692.733944157997,1692.733944157997,1692.733944157997,1692.733944157997,1692.733944157997,l,1.4302312090076157,10,865,2,1694.185476464998,1695.6872546669983,,,,,,,,,,,,,,,,,,,,,,,,,,,,,,,,,,,,,,,,,,,,,,,,,,,,,,,,,,,,,,,,,,,,,61261,2022-10-26_14h46.38.686,vts_reward_expectancy_bt_OFFLINE,2022.2.4,59.977512629804274,
0,1,0,0,0,0,1,0,circle,hexagon,2,0,2,0,1,10,22,4,,,,,,,,,,,,,,,,,,,,,,,,,,,,,,,,,,,,,,,,1696.1875931530012,1696.1875931530012,1696.1875931530012,1696.1875931530012,1696.1875931530012,1696.1875931530012,1696.1875931530012,1696.1875931530012,1696.1875931530012,1696.1875931530012,a,0.8726084220033954,1,866,2,1697.088627610996,1698.5903758669956,,,,,,,,,,,,,,,,,,,,,,,,,,,,,,,,,,,,,,,,,,,,,,,,,,,,,,,,,,,,,,,,,,,,,61261,2022-10-26_14h46.38.686,vts_reward_expectancy_bt_OFFLINE,2022.2.4,59.977512629804274,
0,0,0,1,0,1,0,0,star ,circle,2,0,2,0,1,11,23,10,,,,,,,,,,,,,,,,,,,,,,,,,,,,,,,,,,,,,,,,1699.0909783749958,1699.0909783749958,1699.0909783749958,1699.0909783749958,1699.0909783749958,1699.0909783749958,1699.0909783749958,1699.0909783749958,1699.0909783749958,1699.0909783749958,l,1.0889837600043393,10,876,2,1700.2087191940009,1701.7106130749962,,,,,,,,,,,,,,,,,,,,,,,,,,,,,,,,,,,,,,,,,,,,,,,,,,,,,,,,,,,,,,,,,,,,,61261,2022-10-26_14h46.38.686,vts_reward_expectancy_bt_OFFLINE,2022.2.4,59.977512629804274,
0,1,0,0,0,0,1,0,circle,hexagon,2,0,2,0,2,0,24,4,,,,,,,,,,,,,,,,,,,,,,,,,,,,,,,,,,,,,,,,1702.2110975059986,1702.2110975059986,1702.2110975059986,1702.2110975059986,1702.2110975059986,1702.2110975059986,1702.2110975059986,1702.2110975059986,1702.2110975059986,1702.2110975059986,l,1.4420415390050039,10,886,2,1703.6794062830013,1705.181200152998,,,,,,,,,,,,,,,,,,,,,,,,,,,,,,,,,,,,,,,,,,,,,,,,,,,,,,,,,,,,,,,,,,,,,61261,2022-10-26_14h46.38.686,vts_reward_expectancy_bt_OFFLINE,2022.2.4,59.977512629804274,
0,0,0,1,1,0,0,0,star,triangle,2,0,2,0,2,1,25,9,,,,,,,,,,,,,,,,,,,,,,,,,,,,,,,,,,,,,,,,1705.6816717319962,1705.6816717319962,1705.6816717319962,1705.6816717319962,1705.6816717319962,1705.6816717319962,1705.6816717319962,1705.6816717319962,1705.6816717319962,1705.6816717319962,l,1.3694972850062186,10,896,2,1707.0830968699956,1708.5847717270008,,,,,,,,,,,,,,,,,,,,,,,,,,,,,,,,,,,,,,,,,,,,,,,,,,,,,,,,,,,,,,,,,,,,,61261,2022-10-26_14h46.38.686,vts_reward_expectancy_bt_OFFLINE,2022.2.4,59.977512629804274,
1,0,0,0,0,0,1,0,triangle,hexagon,2,0,2,0,2,2,26,1,,,,,,,,,,,,,,,,,,,,,,,,,,,,,,,,,,,,,,,,1709.085300875995,1709.085300875995,1709.085300875995,1709.085300875995,1709.085300875995,1709.085300875995,1709.085300875995,1709.085300875995,1709.085300875995,1709.085300875995,a,1.2943785900060902,1,897,2,1710.403473294995,1711.9051690179986,,,,,,,,,,,,,,,,,,,,,,,,,,,,,,,,,,,,,,,,,,,,,,,,,,,,,,,,,,,,,,,,,,,,,61261,2022-10-26_14h46.38.686,vts_reward_expectancy_bt_OFFLINE,2022.2.4,59.977512629804274,
1,0,0,0,0,0,0,1,triangle,star,2,0,2,0,2,3,27,2,,,,,,,,,,,,,,,,,,,,,,,,,,,,,,,,,,,,,,,,1712.4055789740014,1712.4055789740014,1712.4055789740014,1712.4055789740014,1712.4055789740014,1712.4055789740014,1712.4055789740014,1712.4055789740014,1712.4055789740014,1712.4055789740014,l,0.8699564620037563,1,898,2,1713.306506312998,1714.8082509129963,,,,,,,,,,,,,,,,,,,,,,,,,,,,,,,,,,,,,,,,,,,,,,,,,,,,,,,,,,,,,,,,,,,,,61261,2022-10-26_14h46.38.686,vts_reward_expectancy_bt_OFFLINE,2022.2.4,59.977512629804274,
0,0,0,1,0,0,1,0,star,hexagon,2,0,2,0,2,4,28,11,,,,,,,,,,,,,,,,,,,,,,,,,,,,,,,,,,,,,,,,1715.3088686100018,1715.3088686100018,1715.3088686100018,1715.3088686100018,1715.3088686100018,1715.3088686100018,1715.3088686100018,1715.3088686100018,1715.3088686100018,1715.3088686100018,a,1.207691646006424,1,899,2,1716.5433881029967,1718.0452717699955,,,,,,,,,,,,,,,,,,,,,,,,,,,,,,,,,,,,,,,,,,,,,,,,,,,,,,,,,,,,,,,,,,,,,61261,2022-10-26_14h46.38.686,vts_reward_expectancy_bt_OFFLINE,2022.2.4,59.977512629804274,
1,0,0,0,0,1,0,0,triangle,circle,2,0,2,0,2,5,29,0,,,,,,,,,,,,,,,,,,,,,,,,,,,,,,,,,,,,,,,,1718.5457185830019,1718.5457185830019,1718.5457185830019,1718.5457185830019,1718.5457185830019,1718.5457185830019,1718.5457185830019,1718.5457185830019,1718.5457185830019,1718.5457185830019,l,0.7617706550081493,1,900,2,1719.3298542639968,1720.8315506719955,,,,,,,,,,,,,,,,,,,,,,,,,,,,,,,,,,,,,,,,,,,,,,,,,,,,,,,,,,,,,,,,,,,,,61261,2022-10-26_14h46.38.686,vts_reward_expectancy_bt_OFFLINE,2022.2.4,59.977512629804274,
0,0,1,0,0,0,0,1,hexagon,star,2,0,2,0,2,6,30,8,,,,,,,,,,,,,,,,,,,,,,,,,,,,,,,,,,,,,,,,1721.3324118719975,1721.3324118719975,1721.3324118719975,1721.3324118719975,1721.3324118719975,1721.3324118719975,1721.3324118719975,1721.3324118719975,1721.3324118719975,1721.3324118719975,l,1.1912059200039948,1,901,2,1722.5503387880017,1724.0519812359998,,,,,,,,,,,,,,,,,,,,,,,,,,,,,,,,,,,,,,,,,,,,,,,,,,,,,,,,,,,,,,,,,,,,,61261,2022-10-26_14h46.38.686,vts_reward_expectancy_bt_OFFLINE,2022.2.4,59.977512629804274,
0,1,0,0,0,0,0,1,circle,star,2,0,2,0,2,7,31,5,,,,,,,,,,,,,,,,,,,,,,,,,,,,,,,,,,,,,,,,1724.552444164001,1724.552444164001,1724.552444164001,1724.552444164001,1724.552444164001,1724.552444164001,1724.552444164001,1724.552444164001,1724.552444164001,1724.552444164001,a,0.5955240680050338,10,911,2,1725.1697848409967,1726.6714400380006,,,,,,,,,,,,,,,,,,,,,,,,,,,,,,,,,,,,,,,,,,,,,,,,,,,,,,,,,,,,,,,,,,,,,61261,2022-10-26_14h46.38.686,vts_reward_expectancy_bt_OFFLINE,2022.2.4,59.977512629804274,
0,0,1,0,0,1,0,0,hexagon,circle,2,0,2,0,2,8,32,7,,,,,,,,,,,,,,,,,,,,,,,,,,,,,,,,,,,,,,,,1727.1719606170009,1727.1719606170009,1727.1719606170009,1727.1719606170009,1727.1719606170009,1727.1719606170009,1727.1719606170009,1727.1719606170009,1727.1719606170009,1727.1719606170009,l,0.632477948005544,10,921,2,1727.822639799997,1729.3244293969983,,,,,,,,,,,,,,,,,,,,,,,,,,,,,,,,,,,,,,,,,,,,,,,,,,,,,,,,,,,,,,,,,,,,,61261,2022-10-26_14h46.38.686,vts_reward_expectancy_bt_OFFLINE,2022.2.4,59.977512629804274,
0,1,0,0,1,0,0,0,circle,triangle,2,0,2,0,2,9,33,3,,,,,,,,,,,,,,,,,,,,,,,,,,,,,,,,,,,,,,,,1729.8249138979954,1729.8249138979954,1729.8249138979954,1729.8249138979954,1729.8249138979954,1729.8249138979954,1729.8249138979954,1729.8249138979954,1729.8249138979954,1729.8249138979954,a,0.6112285000053816,10,931,2,1730.4590231139955,1731.9604585650013,,,,,,,,,,,,,,,,,,,,,,,,,,,,,,,,,,,,,,,,,,,,,,,,,,,,,,,,,,,,,,,,,,,,,61261,2022-10-26_14h46.38.686,vts_reward_expectancy_bt_OFFLINE,2022.2.4,59.977512629804274,
0,0,0,1,0,1,0,0,star ,circle,2,0,2,0,2,10,34,10,,,,,,,,,,,,,,,,,,,,,,,,,,,,,,,,,,,,,,,,1732.4609143659982,1732.4609143659982,1732.4609143659982,1732.4609143659982,1732.4609143659982,1732.4609143659982,1732.4609143659982,1732.4609143659982,1732.4609143659982,1732.4609143659982,l,0.42396006200578995,10,941,2,1732.9115711900013,1734.413164466001,,,,,,,,,,,,,,,,,,,,,,,,,,,,,,,,,,,,,,,,,,,,,,,,,,,,,,,,,,,,,,,,,,,,,61261,2022-10-26_14h46.38.686,vts_reward_expectancy_bt_OFFLINE,2022.2.4,59.977512629804274,
0,0,1,0,1,0,0,0,hexagon,triangle,2,0,2,0,2,11,35,6,,,,,,,,,,,,,,,,,,,,,,,,,,,,,,,,,,,,,,,,1734.9137293480017,1734.9137293480017,1734.9137293480017,1734.9137293480017,1734.9137293480017,1734.9137293480017,1734.9137293480017,1734.9137293480017,1734.9137293480017,1734.9137293480017,a,0.6184164890073589,1,942,2,1735.5644757080008,1737.0662126809984,,,,,,,,,,,,,,,,,,,,,,,,,,,,,,,,,,,,,,,,,,,,,,,,,,,,,,,,,,,,,,,,,,,,,61261,2022-10-26_14h46.38.686,vts_reward_expectancy_bt_OFFLINE,2022.2.4,59.977512629804274,
0,0,1,0,1,0,0,0,hexagon,triangle,2,0,2,0,3,0,36,6,,,,,,,,,,,,,,,,,,,,,,,,,,,,,,,,,,,,,,,,1737.5669272509986,1737.5669272509986,1737.5669272509986,1737.5669272509986,1737.5669272509986,1737.5669272509986,1737.5669272509986,1737.5669272509986,1737.5669272509986,1737.5669272509986,l,0.4446578080096515,10,952,2,1738.0340285119964,1739.5356659579993,,,,,,,,,,,,,,,,,,,,,,,,,,,,,,,,,,,,,,,,,,,,,,,,,,,,,,,,,,,,,,,,,,,,,61261,2022-10-26_14h46.38.686,vts_reward_expectancy_bt_OFFLINE,2022.2.4,59.977512629804274,
0,1,0,0,0,0,0,1,circle,star,2,0,2,0,3,1,37,5,,,,,,,,,,,,,,,,,,,,,,,,,,,,,,,,,,,,,,,,1740.0360725749997,1740.0360725749997,1740.0360725749997,1740.0360725749997,1740.0360725749997,1740.0360725749997,1740.0360725749997,1740.0360725749997,1740.0360725749997,1740.0360725749997,a,0.9758345930094947,10,962,2,1741.037301366996,1742.5389710980016,,,,,,,,,,,,,,,,,,,,,,,,,,,,,,,,,,,,,,,,,,,,,,,,,,,,,,,,,,,,,,,,,,,,,61261,2022-10-26_14h46.38.686,vts_reward_expectancy_bt_OFFLINE,2022.2.4,59.977512629804274,
0,1,0,0,0,0,1,0,circle,hexagon,2,0,2,0,3,2,38,4,,,,,,,,,,,,,,,,,,,,,,,,,,,,,,,,,,,,,,,,1743.0393965959956,1743.0393965959956,1743.0393965959956,1743.0393965959956,1743.0393965959956,1743.0393965959956,1743.0393965959956,1743.0393965959956,1743.0393965959956,1743.0393965959956,a,0.8603010180013371,10,972,2,1743.9238255759992,1745.4254337940001,,,,,,,,,,,,,,,,,,,,,,,,,,,,,,,,,,,,,,,,,,,,,,,,,,,,,,,,,,,,,,,,,,,,,61261,2022-10-26_14h46.38.686,vts_reward_expectancy_bt_OFFLINE,2022.2.4,59.977512629804274,
0,0,1,0,0,0,0,1,hexagon,star,2,0,2,0,3,3,39,8,,,,,,,,,,,,,,,,,,,,,,,,,,,,,,,,,,,,,,,,1745.9258785619968,1745.9258785619968,1745.9258785619968,1745.9258785619968,1745.9258785619968,1745.9258785619968,1745.9258785619968,1745.9258785619968,1745.9258785619968,1745.9258785619968,l,1.0310418540029787,1,973,2,1746.9770653769956,1748.4788291239965,,,,,,,,,,,,,,,,,,,,,,,,,,,,,,,,,,,,,,,,,,,,,,,,,,,,,,,,,,,,,,,,,,,,,61261,2022-10-26_14h46.38.686,vts_reward_expectancy_bt_OFFLINE,2022.2.4,59.977512629804274,
0,0,0,1,0,1,0,0,star ,circle,2,0,2,0,3,4,40,10,,,,,,,,,,,,,,,,,,,,,,,,,,,,,,,,,,,,,,,,1748.9793009799978,1748.9793009799978,1748.9793009799978,1748.9793009799978,1748.9793009799978,1748.9793009799978,1748.9793009799978,1748.9793009799978,1748.9793009799978,1748.9793009799978,l,1.1923858280060813,10,983,2,1750.1974379169988,1751.6991387849994,,,,,,,,,,,,,,,,,,,,,,,,,,,,,,,,,,,,,,,,,,,,,,,,,,,,,,,,,,,,,,,,,,,,,61261,2022-10-26_14h46.38.686,vts_reward_expectancy_bt_OFFLINE,2022.2.4,59.977512629804274,
1,0,0,0,0,0,1,0,triangle,hexagon,2,0,2,0,3,5,41,1,,,,,,,,,,,,,,,,,,,,,,,,,,,,,,,,,,,,,,,,1752.1996567509996,1752.1996567509996,1752.1996567509996,1752.1996567509996,1752.1996567509996,1752.1996567509996,1752.1996567509996,1752.1996567509996,1752.1996567509996,1752.1996567509996,a,1.2203081570041832,10,993,2,1753.4510768269975,1754.9525915150007,,,,,,,,,,,,,,,,,,,,,,,,,,,,,,,,,,,,,,,,,,,,,,,,,,,,,,,,,,,,,,,,,,,,,61261,2022-10-26_14h46.38.686,vts_reward_expectancy_bt_OFFLINE,2022.2.4,59.977512629804274,
1,0,0,0,0,0,0,1,triangle,star,2,0,2,0,3,6,42,2,,,,,,,,,,,,,,,,,,,,,,,,,,,,,,,,,,,,,,,,1755.4532358479992,1755.4532358479992,1755.4532358479992,1755.4532358479992,1755.4532358479992,1755.4532358479992,1755.4532358479992,1755.4532358479992,1755.4532358479992,1755.4532358479992,a,1.6626247350068297,10,1003,2,1757.1383353799974,1758.640294920995,,,,,,,,,,,,,,,,,,,,,,,,,,,,,,,,,,,,,,,,,,,,,,,,,,,,,,,,,,,,,,,,,,,,,61261,2022-10-26_14h46.38.686,vts_reward_expectancy_bt_OFFLINE,2022.2.4,59.977512629804274,
0,0,0,1,0,0,1,0,star,hexagon,2,0,2,0,3,7,43,11,,,,,,,,,,,,,,,,,,,,,,,,,,,,,,,,,,,,,,,,1759.1405781950016,1759.1405781950016,1759.1405781950016,1759.1405781950016,1759.1405781950016,1759.1405781950016,1759.1405781950016,1759.1405781950016,1759.1405781950016,1759.1405781950016,l,0.5429502030019648,1,1004,2,1759.7079903060003,1761.2095921729997,,,,,,,,,,,,,,,,,,,,,,,,,,,,,,,,,,,,,,,,,,,,,,,,,,,,,,,,,,,,,,,,,,,,,61261,2022-10-26_14h46.38.686,vts_reward_expectancy_bt_OFFLINE,2022.2.4,59.977512629804274,
0,1,0,0,1,0,0,0,circle,triangle,2,0,2,0,3,8,44,3,,,,,,,,,,,,,,,,,,,,,,,,,,,,,,,,,,,,,,,,1761.7101270279964,1761.7101270279964,1761.7101270279964,1761.7101270279964,1761.7101270279964,1761.7101270279964,1761.7101270279964,1761.7101270279964,1761.7101270279964,1761.7101270279964,a,0.7738474160069018,10,1014,2,1762.511055072995,1764.0127776480003,,,,,,,,,,,,,,,,,,,,,,,,,,,,,,,,,,,,,,,,,,,,,,,,,,,,,,,,,,,,,,,,,,,,,61261,2022-10-26_14h46.38.686,vts_reward_expectancy_bt_OFFLINE,2022.2.4,59.977512629804274,
0,0,1,0,0,1,0,0,hexagon,circle,2,0,2,0,3,9,45,7,,,,,,,,,,,,,,,,,,,,,,,,,,,,,,,,,,,,,,,,1764.513393907997,1764.513393907997,1764.513393907997,1764.513393907997,1764.513393907997,1764.513393907997,1764.513393907997,1764.513393907997,1764.513393907997,1764.513393907997,l,1.0669969790105824,10,1024,2,1765.5978600509989,1767.0994024960019,,,,,,,,,,,,,,,,,,,,,,,,,,,,,,,,,,,,,,,,,,,,,,,,,,,,,,,,,,,,,,,,,,,,,61261,2022-10-26_14h46.38.686,vts_reward_expectancy_bt_OFFLINE,2022.2.4,59.977512629804274,
0,0,0,1,1,0,0,0,star,triangle,2,0,2,0,3,10,46,9,,,,,,,,,,,,,,,,,,,,,,,,,,,,,,,,,,,,,,,,1767.5998218599998,1767.5998218599998,1767.5998218599998,1767.5998218599998,1767.5998218599998,1767.5998218599998,1767.5998218599998,1767.5998218599998,1767.5998218599998,1767.5998218599998,l,0.9634124820004217,10,1034,2,1768.5843897809973,1770.0860031240009,,,,,,,,,,,,,,,,,,,,,,,,,,,,,,,,,,,,,,,,,,,,,,,,,,,,,,,,,,,,,,,,,,,,,61261,2022-10-26_14h46.38.686,vts_reward_expectancy_bt_OFFLINE,2022.2.4,59.977512629804274,
1,0,0,0,0,1,0,0,triangle,circle,2,0,2,0,3,11,47,0,,,,,,,,,,,,,,,,,,,,,,,,,,,,,,,,,,,,,,,,1770.586436214995,1770.586436214995,1770.586436214995,1770.586436214995,1770.586436214995,1770.586436214995,1770.586436214995,1770.586436214995,1770.586436214995,1770.586436214995,l,1.4180995680071646,10,1044,2,1772.021528516998,1773.5230331509956,,,,,,,,,,,,,,,,,,,,,,,,,,,,,,,,,,,,,,,,,,,,,,,,,,,,,,,,,,,,,,,,,,,,,61261,2022-10-26_14h46.38.686,vts_reward_expectancy_bt_OFFLINE,2022.2.4,59.977512629804274,
,,,,,,,,,,,,,,,,,,0,0,0,0,0,0,0,0,,,,,,,,,,,,,,,,,,,,,,,,,,,,,,,,,,,,,,,,,,,,,,,,1808.9454644529978,,174,F,star,0.0019897430029232055,1804.3048344599956,1805.8088590240004,1805.8088590240004,1805.8088590240004,1,0,f,1.603123619010148,0,1807.4438395179968,,,,,,,,,,,,,,,,,,,,,,,,,,,,,,,,,,,,,,,,,,,,,,,,,,,,,,61261,2022-10-26_14h46.38.686,vts_reward_expectancy_bt_OFFLINE,2022.2.4,59.977512629804274,
,,,,,,,,,,,,,,,,,,0,0,0,0,1,0,1,0,,,,,,,,,,,,,,,,,,,,,,,,,,,,,,,,,,,,,,,,,,,,,,,,1815.9198511950017,,160,S,circle,0.0014869049991830252,1809.927726295995,1811.4316485160016,1811.4316485160016,1811.4316485160016,1,0,f,2.964725421006733,0,1814.4181930569976,,,,,,,,,,,,,,,,,,,,,,,,,,,,,,,,,,,,,,,,,,,,,,,,,,,,,,61261,2022-10-26_14h46.38.686,vts_reward_expectancy_bt_OFFLINE,2022.2.4,59.977512629804274,
,,,,,,,,,,,,,,,,,,0,0,0,0,2,0,2,0,,,,,,,,,,,,,,,,,,,,,,,,,,,,,,,,,,,,,,,,,,,,,,,,1820.6418042349978,,167,B,triangle,0.001335649998509325,1816.9014165359986,1818.406023782998,1818.406023782998,1818.406023782998,1,0,f,0.7020527120039333,0,1819.1401587770015,,,,,,,,,,,,,,,,,,,,,,,,,,,,,,,,,,,,,,,,,,,,,,,,,,,,,,61261,2022-10-26_14h46.38.686,vts_reward_expectancy_bt_OFFLINE,2022.2.4,59.977512629804274,
,,,,,,,,,,,,,,,,,,0,0,0,0,3,0,3,0,,,,,,,,,,,,,,,,,,,,,,,,,,,,,,,,,,,,,,,,,,,,,,,,1825.2802065979995,,181,H,hexagon,0.0016770470028859563,1821.624421255001,1823.1280141749958,1823.1280141749958,1823.1280141749958,1,0,f,0.6199234320010873,0,1823.778600050995,,,,,,,,,,,,,,,,,,,,,,,,,,,,,,,,,,,,,,,,,,,,,,,,,,,,,,61261,2022-10-26_14h46.38.686,vts_reward_expectancy_bt_OFFLINE,2022.2.4,59.977512629804274,
,,,,,,,,,,,,,,,,,,0,0,0,0,4,0,4,0,,,,,,,,,,,,,,,,,,,,,,,,,,,,,,,,,,,,,,,,,,,,,,,,1830.2022817339966,,125,D,triangle,0.0017301860061706975,1826.261275551995,1827.7662201419953,1827.7662201419953,1827.7662201419953,1,0,d,0.9021210540086031,0,1828.700689448,,,,,,,,,,,,,,,,,,,,,,,,,,,,,,,,,,,,,,,,,,,,,,,,,,,,,,61261,2022-10-26_14h46.38.686,vts_reward_expectancy_bt_OFFLINE,2022.2.4,59.977512629804274,
,,,,,,,,,,,,,,,,,,0,0,0,0,5,0,5,0,,,,,,,,,,,,,,,,,,,,,,,,,,,,,,,,,,,,,,,,,,,,,,,,1835.1410416959989,,146,W,star,0.0018767400033539161,1831.1820656389973,1832.6884152999992,1832.6884152999992,1832.6884152999992,1,0,d,0.9324639850092353,0,1833.6393413909973,,,,,,,,,,,,,,,,,,,,,,,,,,,,,,,,,,,,,,,,,,,,,,,,,,,,,,61261,2022-10-26_14h46.38.686,vts_reward_expectancy_bt_OFFLINE,2022.2.4,59.977512629804274,
,,,,,,,,,,,,,,,,,,0,0,0,0,6,0,6,0,,,,,,,,,,,,,,,,,,,,,,,,,,,,,,,,,,,,,,,,,,,,,,,,1839.7294869620018,,139,U,circle,0.0013045550003880635,1836.1206585239997,1837.6270180069987,1837.6270180069987,1837.6270180069987,1,0,d,0.5765232460034895,0,1838.2276760589957,,,,,,,,,,,,,,,,,,,,,,,,,,,,,,,,,,,,,,,,,,,,,,,,,,,,,,61261,2022-10-26_14h46.38.686,vts_reward_expectancy_bt_OFFLINE,2022.2.4,59.977512629804274,
,,,,,,,,,,,,,,,,,,0,0,0,0,7,0,7,0,,,,,,,,,,,,,,,,,,,,,,,,,,,,,,,,,,,,,,,,,,,,,,,,1844.451400924001,,132,Y,hexagon,0.0018174769938923419,1840.709149327995,1842.215608325998,1842.215608325998,1842.215608325998,1,0,d,0.7168993850063998,0,1842.949755640002,,,,,,,,,,,,,,,,,,,,,,,,,,,,,,,,,,,,,,,,,,,,,,,,,,,,,,61261,2022-10-26_14h46.38.686,vts_reward_expectancy_bt_OFFLINE,2022.2.4,59.977512629804274,
,,,,,,,,,,,,,,,,,,0,0,0,0,8,0,8,0,,,,,,,,,,,,,,,,,,,,,,,,,,,,,,,,,,,,,,,,,,,,,,,,1849.189817626997,,174,F,star,0.001583117998961825,1845.4311026489959,1846.9374211920003,1846.9374211920003,1846.9374211920003,1,0,f,0.7306653300038306,0,1847.688311494996,,,,,,,,,,,,,,,,,,,,,,,,,,,,,,,,,,,,,,,,,,,,,,,,,,,,,,61261,2022-10-26_14h46.38.686,vts_reward_expectancy_bt_OFFLINE,2022.2.4,59.977512629804274,
,,,,,,,,,,,,,,,,,,0,0,0,0,9,0,9,0,,,,,,,,,,,,,,,,,,,,,,,,,,,,,,,,,,,,,,,,,,,,,,,,1854.4958741469964,,160,S,triangle,0.0011255610006628558,1850.168549805996,1851.6760260349984,1851.6760260349984,1851.6760260349984,1,0,f,1.2876713720033877,0,1852.994128915001,,,,,,,,,,,,,,,,,,,,,,,,,,,,,,,,,,,,,,,,,,,,,,,,,,,,,,61261,2022-10-26_14h46.38.686,vts_reward_expectancy_bt_OFFLINE,2022.2.4,59.977512629804274,
,,,,,,,,,,,,,,,,,,,,,,,,,,0,0,0,0,0,0,0,0,,,,,,,,,,,,,,,,,,,,,,,,,,,,,,,,,,,,,,,,1878.355536559,,125,F,triangle,0.00217107299977215,,,,,1,0,,,1,1876.8537090879981,1874.4812417409994,1875.986267225002,1875.986267225002,1875.986267225002,j,0.8499066890071845,,,,,,,,,,,,,,,,,,,,,,,,,,,,,,,,,,,,,,,,,,,,,,,,61261,2022-10-26_14h46.38.686,vts_reward_expectancy_bt_OFFLINE,2022.2.4,59.977512629804274,
,,,,,,,,,,,,,,,,,,,,,,,,,,0,0,0,0,1,0,1,0,,,,,,,,,,,,,,,,,,,,,,,,,,,,,,,,,,,,,,,,1883.0939827049951,,146,H,hexagon,0.0014147030015010387,,,,,1,0,,,1,1881.5923339759975,1879.3369992579974,1880.8415234679997,1880.8415234679997,1880.8415234679997,j,0.7228678280080203,,,,,,,,,,,,,,,,,,,,,,,,,,,,,,,,,,,,,,,,,,,,,,,,61261,2022-10-26_14h46.38.686,vts_reward_expectancy_bt_OFFLINE,2022.2.4,59.977512629804274,
,,,,,,,,,,,,,,,,,,,,,,,,,,0,0,0,0,2,0,2,0,,,,,,,,,,,,,,,,,,,,,,,,,,,,,,,,,,,,,,,,1887.7991268719998,,139,W,circle,0.0015432850050274283,,,,,1,0,,,1,1886.297375434995,1884.076328367999,1885.5802974260005,1885.5802974260005,1885.5802974260005,k,0.6958853239993914,,,,,,,,,,,,,,,,,,,,,,,,,,,,,,,,,,,,,,,,,,,,,,,,61261,2022-10-26_14h46.38.686,vts_reward_expectancy_bt_OFFLINE,2022.2.4,59.977512629804274,
,,,,,,,,,,,,,,,,,,,,,,,,,,0,0,0,0,3,0,3,0,,,,,,,,,,,,,,,,,,,,,,,,,,,,,,,,,,,,,,,,1892.571022954995,,167,S,star,0.001678660002653487,,,,,1,0,,,1,1891.0693952329966,1888.778007203,1890.2847647969975,1890.2847647969975,1890.2847647969975,k,0.7588895790031529,,,,,,,,,,,,,,,,,,,,,,,,,,,,,,,,,,,,,,,,,,,,,,,,61261,2022-10-26_14h46.38.686,vts_reward_expectancy_bt_OFFLINE,2022.2.4,59.977512629804274,
,,,,,,,,,,,,,,,,,,,,,,,,,,0,0,0,0,4,0,4,0,,,,,,,,,,,,,,,,,,,,,,,,,,,,,,,,,,,,,,,,1897.2595468009968,,174,D,circle,0.0016735280005377717,,,,,1,0,,,1,1895.7578227150007,1893.5500439230018,1895.056987691998,1895.056987691998,1895.056987691998,j,0.6836887430035858,,,,,,,,,,,,,,,,,,,,,,,,,,,,,,,,,,,,,,,,,,,,,,,,61261,2022-10-26_14h46.38.686,vts_reward_expectancy_bt_OFFLINE,2022.2.4,59.977512629804274,
,,,,,,,,,,,,,,,,,,,,,,,,,,0,0,0,0,5,0,5,0,,,,,,,,,,,,,,,,,,,,,,,,,,,,,,,,,,,,,,,,1902.6656173230003,,160,Y,star,0.0017978620016947389,,,,,1,0,,,1,1901.163601000997,1898.2381529830018,1899.7456176429987,1899.7456176429987,1899.7456176429987,k,1.3861770190051175,,,,,,,,,,,,,,,,,,,,,,,,,,,,,,,,,,,,,,,,,,,,,,,,61261,2022-10-26_14h46.38.686,vts_reward_expectancy_bt_OFFLINE,2022.2.4,59.977512629804274,
,,,,,,,,,,,,,,,,,,,,,,,,,,0,0,0,0,6,0,6,0,,,,,,,,,,,,,,,,,,,,,,,,,,,,,,,,,,,,,,,,1908.071364042,,181,B,triangle,0.0017891829993459396,,,,,0,0,,,1,1906.5700903269972,1903.6450537189958,1905.1517583509994,1905.1517583509994,1905.1517583509994,k,1.3970980670055724,,,,,,,,,,,,,,,,,,,,,,,,,,,,,,,,,,,,,,,,,,,,,,,,61261,2022-10-26_14h46.38.686,vts_reward_expectancy_bt_OFFLINE,2022.2.4,59.977512629804274,
,,,,,,,,,,,,,,,,,,,,,,,,,,0,0,0,0,7,0,7,0,,,,,,,,,,,,,,,,,,,,,,,,,,,,,,,,,,,,,,,,1913.3606575259982,,132,U,hexagon,0.0016122130036819726,,,,,1,1,,,1,1911.859217102996,1909.049688758998,1910.557520757,1910.557520757,1910.557520757,k,1.2789361900067888,,,,,,,,,,,,,,,,,,,,,,,,,,,,,,,,,,,,,,,,,,,,,,,,61261,2022-10-26_14h46.38.686,vts_reward_expectancy_bt_OFFLINE,2022.2.4,59.977512629804274,
,,,,,,,,,,,,,,,,,,,,,,,,,,0,0,0,0,8,0,8,0,,,,,,,,,,,,,,,,,,,,,,,,,,,,,,,,,,,,,,,,1918.1158716680002,,125,F,hexagon,0.0016494840019731782,,,,,1,0,,,1,1916.6141778189995,1914.339289990996,1915.846736173,1915.846736173,1915.846736173,j,0.7497672010067618,,,,,,,,,,,,,,,,,,,,,,,,,,,,,,,,,,,,,,,,,,,,,,,,61261,2022-10-26_14h46.38.686,vts_reward_expectancy_bt_OFFLINE,2022.2.4,59.977512629804274,
,,,,,,,,,,,,,,,,,,,,,,,,,,0,0,0,0,9,0,9,0,,,,,,,,,,,,,,,,,,,,,,,,,,,,,,,,,,,,,,,,1923.2714240540008,,146,H,star,0.0016383139954996295,,,,,1,0,,,1,1921.7699305279966,1919.0970148519991,1920.601959982996,1920.601959982996,1920.601959982996,j,1.1459904520088458,,,,,,,,,,,,,,,,,,,,,,,,,,,,,,,,,,,,,,,,,,,,,,,,61261,2022-10-26_14h46.38.686,vts_reward_expectancy_bt_OFFLINE,2022.2.4,59.977512629804274,
,,,,,,,,,,,,,,,,,,,,,,,,,,,,,,,,,,0,0,0,0,0,0,0,0,,,,,,,,,,,,,,,,,,,,,,,,,,,,0,1044,,,1952.003126194999,,125,H,hexagon,0.0017542729983688332,,,,,-1,0,,,2,,,,,,,,1945.996246169998,1945.996246169998,1945.996246169998,1945.996246169998,1947.4983360609986,1947.4983360609986,1947.4983360609986,1947.4983360609986,1947.4983360609986,1947.4983360609986,1947.4983360609986,1947.4983360609986,1950.5021672340008,1950.5021672340008,1950.5021672340008,1950.5021672340008,-1,no_choice,NA,None,vtsPrac,1950.5021672340008,1952.003126194999,1952.5038024089954,,,,,,,,,,,,,,,,,,,,,,,,61261,2022-10-26_14h46.38.686,vts_reward_expectancy_bt_OFFLINE,2022.2.4,59.977512629804274,
,,,,,,,,,,,,,,,,,,,,,,,,,,,,,,,,,,0,0,0,0,1,0,1,0,,,,,,,,,,,,,,,,,,,,,,,,,,,,0,1044,,,1956.6917116190016,,181,F,circle,0.008941419997427147,,,,,1,0,,,2,,,,,,,,1953.0024109570004,1953.0024109570004,1953.0024109570004,1953.0024109570004,1954.5058322179975,1954.5058322179975,1954.5058322179975,1954.5058322179975,1954.5058322179975,1954.5058322179975,1954.5058322179975,1954.5058322179975,,,,,switch,number,numSwt,f,vtsPrac,1955.190576107998,,,0.6668696490087314,,,,,,,,,,,,,,,,,,,,,,,61261,2022-10-26_14h46.38.686,vts_reward_expectancy_bt_OFFLINE,2022.2.4,59.977512629804274,
,,,,,,,,,,,,,,,,,,,,,,,,,,,,,,,,,,0,0,0,0,2,0,2,0,,,,,,,,,,,,,,,,,,,,,,,,,,,,0,1044,,,1962.147636955,,139,Y,star,0.0011972790016443469,,,,,0,0,,,2,,,,,,,,1957.672529575997,1957.672529575997,1957.672529575997,1957.672529575997,1959.1778969239967,1959.1778969239967,1959.1778969239967,1959.1778969239967,1959.1778969239967,1959.1778969239967,1959.1778969239967,1959.1778969239967,,,,,repeat,number,NA,f,vtsPrac,1960.6461104170012,,,1.4427956540021114,,,,,,,,,,,,,,,,,,,,,,,61261,2022-10-26_14h46.38.686,vts_reward_expectancy_bt_OFFLINE,2022.2.4,59.977512629804274,
,,,,,,,,,,,,,,,,,,,,,,,,,,,,,,,,,,0,0,0,0,3,0,3,0,,,,,,,,,,,,,,,,,,,,,,,,,,,,0,1044,,,1967.1867627550018,,167,S,hexagon,0.0014650509983766824,,,,,1,1,,,2,,,,,,,,1963.1294272570012,1963.1294272570012,1963.1294272570012,1963.1294272570012,1964.633896579995,1964.633896579995,1964.633896579995,1964.633896579995,1964.633896579995,1964.633896579995,1964.633896579995,1964.633896579995,,,,,repeat,number,numRpt,f,vtsPrac,1965.685024491002,,,1.0347219399991445,,,,,,,,,,,,,,,,,,,,,,,61261,2022-10-26_14h46.38.686,vts_reward_expectancy_bt_OFFLINE,2022.2.4,59.977512629804274,
,,,,,,,,,,,,,,,,,,,,,,,,,,,,,,,,,,0,0,0,0,4,0,4,0,,,,,,,,,,,,,,,,,,,,,,,,,,,,0,1044,,,1971.7744209629964,,125,H,circle,0.0011549769988050684,,,,,1,0,,,2,,,,,,,,1968.165267960001,1968.165267960001,1968.165267960001,1968.165267960001,1969.6727399099982,1969.6727399099982,1969.6727399099982,1969.6727399099982,1969.6727399099982,1969.6727399099982,1969.6727399099982,1969.6727399099982,,,,,switch,letter,lettSwt,j,vtsPrac,1970.2734069750004,,,0.5793125680065714,,,,,,,,,,,,,,,,,,,,,,,61261,2022-10-26_14h46.38.686,vts_reward_expectancy_bt_OFFLINE,2022.2.4,59.977512629804274,
,,,,,,,,,,,,,,,,,,,,,,,,,,,,,,,,,,0,0,0,0,5,0,5,0,,,,,,,,,,,,,,,,,,,,,,,,,,,,0,1044,,,1976.663873521,,181,F,triangle,0.0012606210002559237,,,,,1,0,,,2,,,,,,,,1972.7550817029987,1972.7550817029987,1972.7550817029987,1972.7550817029987,1974.2611248469984,1974.2611248469984,1974.2611248469984,1974.2611248469984,1974.2611248469984,1974.2611248469984,1974.2611248469984,1974.2611248469984,,,,,switch,number,numSwt,f,vtsPrac,1975.1620658989996,,,0.8790810420032358,,,,,,,,,,,,,,,,,,,,,,,61261,2022-10-26_14h46.38.686,vts_reward_expectancy_bt_OFFLINE,2022.2.4,59.977512629804274,
,,,,,,,,,,,,,,,,,,,,,,,,,,,,,,,,,,0,0,0,0,6,0,6,0,,,,,,,,,,,,,,,,,,,,,,,,,,,,0,1044,,,1981.9863502049993,,139,Y,hexagon,0.0016607579964329489,,,,,1,0,,,2,,,,,,,,1977.6458911809968,1977.6458911809968,1977.6458911809968,1977.6458911809968,1979.1500123969963,1979.1500123969963,1979.1500123969963,1979.1500123969963,1979.1500123969963,1979.1500123969963,1979.1500123969963,1979.1500123969963,,,,,switch,letter,lettSwt,k,vtsPrac,1980.4847560880007,,,1.3018472920011845,,,,,,,,,,,,,,,,,,,,,,,61261,2022-10-26_14h46.38.686,vts_reward_expectancy_bt_OFFLINE,2022.2.4,59.977512629804274,
,,,,,,,,,,,,,,,,,,,,,,,,,,,,,,,,,,0,0,0,0,7,0,7,0,,,,,,,,,,,,,,,,,,,,,,,,,,,,0,1044,,,1986.8250850979966,,167,S,circle,0.0015123369958018884,,,,,1,0,,,2,,,,,,,,1982.9656286710015,1982.9656286710015,1982.9656286710015,1982.9656286710015,1984.472448378001,1984.472448378001,1984.472448378001,1984.472448378001,1984.472448378001,1984.472448378001,1984.472448378001,1984.472448378001,,,,,repeat,letter,lettRpt,k,vtsPrac,1985.3233888510003,,,0.8276026020030258,,,,,,,,,,,,,,,,,,,,,,,61261,2022-10-26_14h46.38.686,vts_reward_expectancy_bt_OFFLINE,2022.2.4,59.977512629804274,
,,,,,,,,,,,,,,,,,,,,,,,,,,,,,,,,,,0,0,0,0,8,0,8,0,,,,,,,,,,,,,,,,,,,,,,,,,,,,0,1044,,,1991.2799374349997,,181,B,star,0.0016110100041260011,,,,,1,0,,,2,,,,,,,,1987.807379535996,1987.807379535996,1987.807379535996,1987.807379535996,1989.3110787459955,1989.3110787459955,1989.3110787459955,1989.3110787459955,1989.3110787459955,1989.3110787459955,1989.3110787459955,1989.3110787459955,,,,,repeat,letter,lettRpt,j,vtsPrac,1989.7782532429992,,,0.44493393200536957,,,,,,,,,,,,,,,,,,,,,,,61261,2022-10-26_14h46.38.686,vts_reward_expectancy_bt_OFFLINE,2022.2.4,59.977512629804274,
,,,,,,,,,,,,,,,,,,,,,,,,,,,,,,,,,,0,0,0,0,9,0,9,0,,,,,,,,,,,,,,,,,,,,,,,,,,,,0,1044,,,1996.318931312002,,167,W,triangle,0.0015359570024884306,,,,,1,0,,,2,,,,,,,,1992.261237820996,1992.261237820996,1992.261237820996,1992.261237820996,1993.766011613996,1993.766011613996,1993.766011613996,1993.766011613996,1993.766011613996,1993.766011613996,1993.766011613996,1993.766011613996,,,,,switch,number,numSwt,f,vtsPrac,1994.8171382049986,,,1.0301071920039249,,,,,,,,,,,,,,,,,,,,,,,61261,2022-10-26_14h46.38.686,vts_reward_expectancy_bt_OFFLINE,2022.2.4,59.977512629804274,
,,,,,,,,,,,,,,,,,,,,,,,,,,,,,,,,,,0,0,0,0,10,0,10,0,,,,,,,,,,,,,,,,,,,,,,,,,,,,0,1044,,,2001.3911760639967,,146,H,hexagon,0.0015531020035268739,,,,,1,0,,,2,,,,,,,,1997.3012984140005,1997.3012984140005,1997.3012984140005,1997.3012984140005,1998.8049225840005,1998.8049225840005,1998.8049225840005,1998.8049225840005,1998.8049225840005,1998.8049225840005,1998.8049225840005,1998.8049225840005,,,,,repeat,number,numRpt,d,vtsPrac,1999.8893691310004,,,1.063641763998021,,,,,,,,,,,,,,,,,,,,,,,61261,2022-10-26_14h46.38.686,vts_reward_expectancy_bt_OFFLINE,2022.2.4,59.977512629804274,
,,,,,,,,,,,,,,,,,,,,,,,,,,,,,,,,,,0,0,0,0,11,0,11,0,,,,,,,,,,,,,,,,,,,,,,,,,,,,0,1044,,,2006.062996404995,,125,Y,circle,0.001751216004777234,,,,,1,0,,,2,,,,,,,,2002.3703561049988,2002.3703561049988,2002.3703561049988,2002.3703561049988,2003.8771984990017,2003.8771984990017,2003.8771984990017,2003.8771984990017,2003.8771984990017,2003.8771984990017,2003.8771984990017,2003.8771984990017,,,,,switch,letter,lettSwt,k,vtsPrac,2004.5612680949998,,,0.6621632180031156,,,,,,,,,,,,,,,,,,,,,,,61261,2022-10-26_14h46.38.686,vts_reward_expectancy_bt_OFFLINE,2022.2.4,59.977512629804274,
,,,,,,,,,,,,,,,,,,,,,,,,,,,,,,,,,,0,0,0,0,12,0,12,0,,,,,,,,,,,,,,,,,,,,,,,,,,,,0,1044,,,2010.651261813,,132,H,circle,0.0014706840011058375,,,,,1,0,,,2,,,,,,,,2007.04413278,2007.04413278,2007.04413278,2007.04413278,2008.5491524219979,2008.5491524219979,2008.5491524219979,2008.5491524219979,2008.5491524219979,2008.5491524219979,2008.5491524219979,2008.5491524219979,,,,,switch,number,numSwt,d,vtsPrac,2009.149645218,,,0.5834034810031881,,,,,,,,,,,,,,,,,,,,,,,61261,2022-10-26_14h46.38.686,vts_reward_expectancy_bt_OFFLINE,2022.2.4,59.977512629804274,
,,,,,,,,,,,,,,,,,,,,,,,,,,,,,,,,,,0,0,0,0,13,0,13,0,,,,,,,,,,,,,,,,,,,,,,,,,,,,0,1044,,,2015.606820093999,,174,S,hexagon,0.0015360039978986606,,,,,1,0,,,2,,,,,,,,2011.6305759379975,2011.6305759379975,2011.6305759379975,2011.6305759379975,2013.1374796160017,2013.1374796160017,2013.1374796160017,2013.1374796160017,2013.1374796160017,2013.1374796160017,2013.1374796160017,2013.1374796160017,,,,,switch,letter,lettSwt,k,vtsPrac,2014.105100433997,,,0.9468177640010254,,,,,,,,,,,,,,,,,,,,,,,61261,2022-10-26_14h46.38.686,vts_reward_expectancy_bt_OFFLINE,2022.2.4,59.977512629804274,
,,,,,,,,,,,,,,,,,,,,,,,,,,,,,,,,,,0,0,0,0,14,0,14,0,,,,,,,,,,,,,,,,,,,,,,,,,,,,0,1044,,,2020.3620712470001,,160,W,star,0.0016318250054609962,,,,,1,0,,,2,,,,,,,,2016.5890851840013,2016.5890851840013,2016.5890851840013,2016.5890851840013,2018.0929872740016,2018.0929872740016,2018.0929872740016,2018.0929872740016,2018.0929872740016,2018.0929872740016,2018.0929872740016,2018.0929872740016,,,,,repeat,letter,lettRpt,k,vtsPrac,2018.860375878001,,,0.7348459790082416,,,,,,,,,,,,,,,,,,,,,,,61261,2022-10-26_14h46.38.686,vts_reward_expectancy_bt_OFFLINE,2022.2.4,59.977512629804274,
,,,,,,,,,,,,,,,,,,,,,,,,,,,,,,,,,,0,0,0,0,15,0,15,0,,,,,,,,,,,,,,,,,,,,,,,,,,,,0,1044,,,2025.834653494996,,125,F,circle,0.0017972100031329319,,,,,1,0,,,2,,,,,,,,2021.3436243940014,2021.3436243940014,2021.3436243940014,2021.3436243940014,2022.8480353959967,2022.8480353959967,2022.8480353959967,2022.8480353959967,2022.8480353959967,2022.8480353959967,2022.8480353959967,2022.8480353959967,,,,,switch,number,numSwt,d,vtsPrac,2024.3329191730008,,,1.4596385630065924,,,,,,,,,,,,,,,,,,,,,,,61261,2022-10-26_14h46.38.686,vts_reward_expectancy_bt_OFFLINE,2022.2.4,59.977512629804274,
,,,,,,,,,,,,,,,,,,,,,,,,,,,,,,,,,,,,,,,,,,0,0,0,0,,,,,,,,,,,,,,,,,,,,,,,,0,1044,,,2066.663079156002,,160,B,circle,0.002236346001154743,,,,,1,0,,,,,,,,,,,2062.986432617996,2062.986432617996,2062.986432617996,2062.986432617996,2064.4939917480006,2064.4939917480006,2064.4939917480006,2064.4939917480006,2064.4939917480006,2064.4939917480006,2064.4939917480006,2064.4939917480006,,,,,repeat,number,numRpt,f,noRew,,,,0.6461859120026929,0,2065.161657978002,,,,,,,,,,,,,,,,,,,,,61261,2022-10-26_14h46.38.686,vts_reward_expectancy_bt_OFFLINE,2022.2.4,59.977512629804274,
,,,,,,,,,,,,,,,,,,,,,,,,,,,,,,,,,,,,,,,,,,1,0,1,0,,,,,,,,,,,,,,,,,,,,,,,,0,1044,,,2071.434894389,,167,U,triangle,0.001725713002088014,,,,,1,0,,,,,,,,,,,2067.6443749839964,2067.6443749839964,2067.6443749839964,2067.6443749839964,2069.149393380998,2069.149393380998,2069.149393380998,2069.149393380998,2069.149393380998,2069.149393380998,2069.149393380998,2069.149393380998,,,,,repeat,number,numRpt,f,noRew,,,,0.767126985003415,0,2069.9333709659986,,,,,,,,,,,,,,,,,,,,,61261,2022-10-26_14h46.38.686,vts_reward_expectancy_bt_OFFLINE,2022.2.4,59.977512629804274,
,,,,,,,,,,,,,,,,,,,,,,,,,,,,,,,,,,,,,,,,,,2,0,2,0,,,,,,,,,,,,,,,,,,,,,,,,0,1044,,,2076.090158273997,,181,Y,triangle,0.001410301003488712,,,,,1,0,,,,,,,,,,,2072.414214630997,2072.414214630997,2072.414214630997,2072.414214630997,2073.920935661001,2073.920935661001,2073.920935661001,2073.920935661001,2073.920935661001,2073.920935661001,2073.920935661001,2073.920935661001,,,,,repeat,number,numRpt,f,noRew,,,,0.6348540500039235,0,2074.5884483089976,,,,,,,,,,,,,,,,,,,,,61261,2022-10-26_14h46.38.686,vts_reward_expectancy_bt_OFFLINE,2022.2.4,59.977512629804274,
,,,,,,,,,,,,,,,,,,,,,,,,,,,,,,,,,,,,,,,,,,3,0,3,0,,,,,,,,,,,,,,,,,,,,,,,,0,1044,,,2080.828764988997,,125,S,circle,0.0018032420048257336,,,,,1,0,,,,,,,,,,,2077.0703381950007,2077.0703381950007,2077.0703381950007,2077.0703381950007,2078.576215519999,2078.576215519999,2078.576215519999,2078.576215519999,2078.576215519999,2078.576215519999,2078.576215519999,2078.576215519999,,,,,switch,letter,lettSwt,k,noRew,,,,0.7329473080026219,0,2079.327015703995,,,,,,,,,,,,,,,,,,,,,61261,2022-10-26_14h46.38.686,vts_reward_expectancy_bt_OFFLINE,2022.2.4,59.977512629804274,
,,,,,,,,,,,,,,,,,,,,,,,,,,,,,,,,,,,,,,,,,,4,0,4,0,,,,,,,,,,,,,,,,,,,,,,,,0,1044,,,2085.4005329409993,,160,B,circle,0.0015701669981353916,,,,,1,0,,,,,,,,,,,2081.8080136889985,2081.8080136889985,2081.8080136889985,2081.8080136889985,2083.3148647609996,2083.3148647609996,2083.3148647609996,2083.3148647609996,2083.3148647609996,2083.3148647609996,2083.3148647609996,2083.3148647609996,,,,,switch,number,numSwt,f,noRew,,,,0.5530327040032716,0,2083.898814913002,,,,,,,,,,,,,,,,,,,,,61261,2022-10-26_14h46.38.686,vts_reward_expectancy_bt_OFFLINE,2022.2.4,59.977512629804274,
,,,,,,,,,,,,,,,,,,,,,,,,,,,,,,,,,,,,,,,,,,5,0,5,0,,,,,,,,,,,,,,,,,,,,,,,,0,1044,,,2090.2056519229955,,167,U,star,0.0014051460020709783,,,,,1,0,,,,,,,,,,,2086.3804992020014,2086.3804992020014,2086.3804992020014,2086.3804992020014,2087.8865070679967,2087.8865070679967,2087.8865070679967,2087.8865070679967,2087.8865070679967,2087.8865070679967,2087.8865070679967,2087.8865070679967,,,,,switch,letter,lettSwt,k,noRew,,,,0.7971160029992461,0,2088.7040308729993,,,,,,,,,,,,,,,,,,,,,61261,2022-10-26_14h46.38.686,vts_reward_expectancy_bt_OFFLINE,2022.2.4,59.977512629804274,
,,,,,,,,,,,,,,,,,,,,,,,,,,,,,,,,,,,,,,,,,,6,0,6,0,,,,,,,,,,,,,,,,,,,,,,,,0,1044,,,2094.8608942520004,,181,Y,circle,0.0018023010052274913,,,,,1,0,,,,,,,,,,,2091.184003538001,2091.184003538001,2091.184003538001,2091.184003538001,2092.6918144699957,2092.6918144699957,2092.6918144699957,2092.6918144699957,2092.6918144699957,2092.6918144699957,2092.6918144699957,2092.6918144699957,,,,,repeat,letter,lettRpt,k,noRew,,,,0.6397714650011039,0,2093.3592330719985,,,,,,,,,,,,,,,,,,,,,61261,2022-10-26_14h46.38.686,vts_reward_expectancy_bt_OFFLINE,2022.2.4,59.977512629804274,
,,,,,,,,,,,,,,,,,,,,,,,,,,,,,,,,,,,,,,,,,,7,0,7,0,,,,,,,,,,,,,,,,,,,,,,,,0,1044,,,2100.116738339995,,125,S,star,0.0014570019993698224,,,,,1,0,,,,,,,,,,,2095.840109110999,2095.840109110999,2095.840109110999,2095.840109110999,2097.34705276,2097.34705276,2097.34705276,2097.34705276,2097.34705276,2097.34705276,2097.34705276,2097.34705276,,,,,switch,number,numSwt,d,noRew,,,,1.2496290859999135,0,2098.6150235739988,,,,,,,,,,,,,,,,,,,,,61261,2022-10-26_14h46.38.686,vts_reward_expectancy_bt_OFFLINE,2022.2.4,59.977512629804274,
,,,,,,,,,,,,,,,,,,,,,,,,,,,,,,,,,,,,,,,,,,8,0,8,0,,,,,,,,,,,,,,,,,,,,,,,,0,1044,,,2104.938643237001,,146,D,triangle,0.001331908002612181,,,,,1,0,,,,,,,,,,,2101.0964515539963,2101.0964515539963,2101.0964515539963,2101.0964515539963,2102.602758408997,2102.602758408997,2102.602758408997,2102.602758408997,2102.602758408997,2102.602758408997,2102.602758408997,2102.602758408997,,,,,repeat,number,numRpt,d,noRew,,,,0.8013022650047787,0,2103.4369634510003,,,,,,,,,,,,,,,,,,,,,61261,2022-10-26_14h46.38.686,vts_reward_expectancy_bt_OFFLINE,2022.2.4,59.977512629804274,
,,,,,,,,,,,,,,,,,,,,,,,,,,,,,,,,,,,,,,,,,,9,0,9,0,,,,,,,,,,,,,,,,,,,,,,,,0,1044,,,2109.743932943995,,181,F,circle,0.0017993860019487329,,,,,1,0,,,,,,,,,,,2105.9200498509963,2105.9200498509963,2105.9200498509963,2105.9200498509963,2107.4246816519953,2107.4246816519953,2107.4246816519953,2107.4246816519953,2107.4246816519953,2107.4246816519953,2107.4246816519953,2107.4246816519953,,,,,switch,letter,lettSwt,j,noRew,,,,0.7865141319998656,0,2108.242359830001,,,,,,,,,,,,,,,,,,,,,61261,2022-10-26_14h46.38.686,vts_reward_expectancy_bt_OFFLINE,2022.2.4,59.977512629804274,
,,,,,,,,,,,,,,,,,,,,,,,,,,,,,,,,,,,,,,,,,,10,0,10,0,,,,,,,,,,,,,,,,,,,,,,,,0,1044,,,2114.7661228340003,,132,Y,hexagon,0.0016394630001741461,,,,,1,0,,,,,,,,,,,2110.7234424080016,2110.7234424080016,2110.7234424080016,2110.7234424080016,2112.2299969000014,2112.2299969000014,2112.2299969000014,2112.2299969000014,2112.2299969000014,2112.2299969000014,2112.2299969000014,2112.2299969000014,,,,,repeat,letter,lettRpt,k,noRew,,,,1.0142491150036221,0,2113.2645340839954,,,,,,,,,,,,,,,,,,,,,61261,2022-10-26_14h46.38.686,vts_reward_expectancy_bt_OFFLINE,2022.2.4,59.977512629804274,
,,,,,,,,,,,,,,,,,,,,,,,,,,,,,,,,,,,,,,,,,,11,0,11,0,,,,,,,,,,,,,,,,,,,,,,,,0,1044,,,2119.504710629997,,167,B,star,0.0016279269984806888,,,,,1,0,,,,,,,,,,,2115.7473203629997,2115.7473203629997,2115.7473203629997,2115.7473203629997,2117.252315698999,2117.252315698999,2117.252315698999,2117.252315698999,2117.252315698999,2117.252315698999,2117.252315698999,2117.252315698999,,,,,repeat,letter,lettRpt,j,noRew,,,,0.7189454750041477,0,2118.0031257879964,,,,,,,,,,,,,,,,,,,,,61261,2022-10-26_14h46.38.686,vts_reward_expectancy_bt_OFFLINE,2022.2.4,59.977512629804274,
,,,,,,,,,,,,,,,,,,,,,,,,,,,,,,,,,,,,,,,,,,12,0,12,0,,,,,,,,,,,,,,,,,,,,,,,,0,1044,,,2124.710398409996,,125,H,circle,0.001582919001521077,,,,,1,0,,,,,,,,,,,2120.482968889999,2120.482968889999,2120.482968889999,2120.482968889999,2121.990780246997,2121.990780246997,2121.990780246997,2121.990780246997,2121.990780246997,2121.990780246997,2121.990780246997,2121.990780246997,,,,,switch,number,numSwt,d,noRew,,,,1.1897847140062368,0,2123.2087591269956,,,,,,,,,,,,,,,,,,,,,61261,2022-10-26_14h46.38.686,vts_reward_expectancy_bt_OFFLINE,2022.2.4,59.977512629804274,
