LTriangleOpac,LCircleOpac,LHexagonOpac,LStarOpac,RTriangleOpac,RCircleOpac,RHexagonOpac,RStarOpac,LShape_ID,RShape_ID,training_blocks.thisRepN,training_blocks.thisTrialN,training_blocks.thisN,training_blocks.thisIndex,training.thisRepN,training.thisTrialN,training.thisN,training.thisIndex,task1_prac_redo.thisRepN,task1_prac_redo.thisTrialN,task1_prac_redo.thisN,task1_prac_redo.thisIndex,task1_prac_trials.thisRepN,task1_prac_trials.thisTrialN,task1_prac_trials.thisN,task1_prac_trials.thisIndex,task2_prac_redo.thisRepN,task2_prac_redo.thisTrialN,task2_prac_redo.thisN,task2_prac_redo.thisIndex,task2_praac_trials.thisRepN,task2_praac_trials.thisTrialN,task2_praac_trials.thisN,task2_praac_trials.thisIndex,vts_prac_redo.thisRepN,vts_prac_redo.thisTrialN,vts_prac_redo.thisN,vts_prac_redo.thisIndex,vts_practice_trials.thisRepN,vts_practice_trials.thisTrialN,vts_practice_trials.thisN,vts_practice_trials.thisIndex,trials_norew.thisRepN,trials_norew.thisTrialN,trials_norew.thisN,trials_norew.thisIndex,block.thisRepN,block.thisTrialN,block.thisN,block.thisIndex,trials_rew.thisRepN,trials_rew.thisTrialN,trials_rew.thisN,trials_rew.thisIndex,key_resp.started,key_resp.keys,key_resp.rt,left_circle.started,right_circle.started,left_triangle.started,right_triangle.started,left_star.started,right_star.started,left_hexagon.started,right_hexagon.started,training_fix.started,training_resp.started,training_resp.keys,training_resp.rt,points_trial,points_cumul,trainBlock,training_feedback_txt.started,fix.started,training_feedback_txt.stopped,fix.stopped,curr_topStim,curr_bottStim,curr_shape,ISI.started,tgt_fix_prac1.started,top_target_prac1.started,bott_target_prac1.started,target_resp_prac1.started,acc,E1,target_resp_prac1.keys,target_resp_prac1.rt,pracBlock,prac_fback_text.started,prac_fback_text.stopped,tgt_fix_prac2.started,top_target_prac2.started,bott_target_prac2.started,target_resp_prac2.started,target_resp_prac2.keys,target_resp_prac2.rt,star.started,hegagon.started,triangle.started,circle.started,top_target.started,tgt_fix.started,bot_target.started,target_resp.started,star.stopped,hegagon.stopped,triangle.stopped,circle.stopped,top_target.stopped,tgt_fix.stopped,bot_target.stopped,target_resp.stopped,alt,task,condition,target_resp.keys,rewCond,vts_fback.started,target_resp.rt,vts_fback.stopped,blockNum,norew_fback.started,norew_fback.stopped,key_resp_2.keys,key_resp_2.rt,rewExpectancy,feedbk_text.started,feedbk_text.stopped,text_3.started,text_3.stopped,button.started,debrief.index,debrief.itemText,debrief.type,debrief.granularity,debrief.font,debrief.markerColor,debrief.response,debrief.rt,button.numClicks,button.timesOn,button.timesOff,participant,date,expName,psychopyVersion,frameRate,
,,,,,,,,,,,,,,,,,,,,,,,,,,,,,,,,,,,,,,,,,,,,,,,,,,,,,,13.610028511000564,space,7.183379061010783,,,,,,,,,,,,,,,,,,,,,,,,,,,,,,,,,,,,,,,,,,,,,,,,,,,,,,,,,,,,,,,,,,,,,,,,,,,,,,,,,,,,,,,61617,2022-10-27_13h53.33.350,vts_reward_expectancy_bt_OFFLINE,2022.2.4,60.05368427426278,
0,0,0,1,1,0,0,0,star,triangle,0,0,0,0,0,0,0,9,,,,,,,,,,,,,,,,,,,,,,,,,,,,,,,,,,,,,,,,41.472887502997764,41.472887502997764,41.472887502997764,41.472887502997764,41.472887502997764,41.472887502997764,41.472887502997764,41.472887502997764,41.472887502997764,41.472887502997764,a,1.8817381810076768,1,1,0,43.380561650003074,44.88100551700336,,,,,,,,,,,,,,,,,,,,,,,,,,,,,,,,,,,,,,,,,,,,,,,,,,,,,,,,,,,,,,,,,,,,,,61617,2022-10-27_13h53.33.350,vts_reward_expectancy_bt_OFFLINE,2022.2.4,60.05368427426278,
0,0,0,1,0,0,1,0,star,hexagon,0,0,0,0,0,1,1,11,,,,,,,,,,,,,,,,,,,,,,,,,,,,,,,,,,,,,,,,45.38143435699749,45.38143435699749,45.38143435699749,45.38143435699749,45.38143435699749,45.38143435699749,45.38143435699749,45.38143435699749,45.38143435699749,45.38143435699749,l,1.1490325200138614,1,2,0,46.548529266001424,48.04918158099463,48.04918158099463,48.54939989399281,,,,,,,,,,,,,,,,,,,,,,,,,,,,,,,,,,,,,,,,,,,,,,,,,,,,,,,,,,,,,,,,,,,,61617,2022-10-27_13h53.33.350,vts_reward_expectancy_bt_OFFLINE,2022.2.4,60.05368427426278,
0,0,1,0,1,0,0,0,hexagon,triangle,0,0,0,0,0,2,2,6,,,,,,,,,,,,,,,,,,,,,,,,,,,,,,,,,,,,,,,,48.54939989399281,48.54939989399281,48.54939989399281,48.54939989399281,48.54939989399281,48.54939989399281,48.54939989399281,48.54939989399281,48.54939989399281,48.54939989399281,a,1.4520573240006343,1,3,0,50.01788020100503,51.51884143499774,51.51884143499774,52.01866170699941,,,,,,,,,,,,,,,,,,,,,,,,,,,,,,,,,,,,,,,,,,,,,,,,,,,,,,,,,,,,,,,,,,,,61617,2022-10-27_13h53.33.350,vts_reward_expectancy_bt_OFFLINE,2022.2.4,60.05368427426278,
0,0,0,1,0,1,0,0,star ,circle,0,0,0,0,0,3,3,10,,,,,,,,,,,,,,,,,,,,,,,,,,,,,,,,,,,,,,,,52.01866170699941,52.01866170699941,52.01866170699941,52.01866170699941,52.01866170699941,52.01866170699941,52.01866170699941,52.01866170699941,52.01866170699941,52.01866170699941,a,1.8867710460035596,1,4,0,53.93624770999304,55.43878542300081,,,,,,,,,,,,,,,,,,,,,,,,,,,,,,,,,,,,,,,,,,,,,,,,,,,,,,,,,,,,,,,,,,,,,,61617,2022-10-27_13h53.33.350,vts_reward_expectancy_bt_OFFLINE,2022.2.4,60.05368427426278,
1,0,0,0,0,1,0,0,triangle,circle,0,0,0,0,0,4,4,0,,,,,,,,,,,,,,,,,,,,,,,,,,,,,,,,,,,,,,,,55.93876028100203,55.93876028100203,55.93876028100203,55.93876028100203,55.93876028100203,55.93876028100203,55.93876028100203,55.93876028100203,55.93876028100203,55.93876028100203,a,0.7827000840043183,10,14,0,56.7405605870008,58.23963101700065,58.23963101700065,58.73988730899873,,,,,,,,,,,,,,,,,,,,,,,,,,,,,,,,,,,,,,,,,,,,,,,,,,,,,,,,,,,,,,,,,,,,61617,2022-10-27_13h53.33.350,vts_reward_expectancy_bt_OFFLINE,2022.2.4,60.05368427426278,
0,1,0,0,0,0,0,1,circle,star,0,0,0,0,0,5,5,5,,,,,,,,,,,,,,,,,,,,,,,,,,,,,,,,,,,,,,,,58.73988730899873,58.73988730899873,58.73988730899873,58.73988730899873,58.73988730899873,58.73988730899873,58.73988730899873,58.73988730899873,58.73988730899873,58.73988730899873,a,1.17446080200898,1,15,0,59.9430078699952,61.442809247993864,61.442809247993864,,,,,,,,,,,,,,,,,,,,,,,,,,,,,,,,,,,,,,,,,,,,,,,,,,,,,,,,,,,,,,,,,,,,,61617,2022-10-27_13h53.33.350,vts_reward_expectancy_bt_OFFLINE,2022.2.4,60.05368427426278,
0,1,0,0,0,0,1,0,circle,hexagon,0,0,0,0,0,6,6,4,,,,,,,,,,,,,,,,,,,,,,,,,,,,,,,,,,,,,,,,61.94291719800094,61.94291719800094,61.94291719800094,61.94291719800094,61.94291719800094,61.94291719800094,61.94291719800094,61.94291719800094,61.94291719800094,61.94291719800094,a,0.97059084000648,10,25,0,62.943798091000644,64.44562278699595,,,,,,,,,,,,,,,,,,,,,,,,,,,,,,,,,,,,,,,,,,,,,,,,,,,,,,,,,,,,,,,,,,,,,,61617,2022-10-27_13h53.33.350,vts_reward_expectancy_bt_OFFLINE,2022.2.4,60.05368427426278,
0,0,1,0,0,0,0,1,hexagon,star,0,0,0,0,0,7,7,8,,,,,,,,,,,,,,,,,,,,,,,,,,,,,,,,,,,,,,,,64.94591949900496,64.94591949900496,64.94591949900496,64.94591949900496,64.94591949900496,64.94591949900496,64.94591949900496,64.94591949900496,64.94591949900496,64.94591949900496,l,2.0796304260147735,1,26,0,67.05375821699272,68.563788888001,,,,,,,,,,,,,,,,,,,,,,,,,,,,,,,,,,,,,,,,,,,,,,,,,,,,,,,,,,,,,,,,,,,,,,61617,2022-10-27_13h53.33.350,vts_reward_expectancy_bt_OFFLINE,2022.2.4,60.05368427426278,
0,0,1,0,0,1,0,0,hexagon,circle,0,0,0,0,0,8,8,7,,,,,,,,,,,,,,,,,,,,,,,,,,,,,,,,,,,,,,,,69.06401250300405,69.06401250300405,69.06401250300405,69.06401250300405,69.06401250300405,69.06401250300405,69.06401250300405,69.06401250300405,69.06401250300405,69.06401250300405,a,2.610313039011089,10,36,0,71.70089077699231,73.20076836600492,73.20076836600492,73.7008580440015,,,,,,,,,,,,,,,,,,,,,,,,,,,,,,,,,,,,,,,,,,,,,,,,,,,,,,,,,,,,,,,,,,,,61617,2022-10-27_13h53.33.350,vts_reward_expectancy_bt_OFFLINE,2022.2.4,60.05368427426278,
1,0,0,0,0,0,1,0,triangle,hexagon,0,0,0,0,0,9,9,1,,,,,,,,,,,,,,,,,,,,,,,,,,,,,,,,,,,,,,,,73.7008580440015,73.7008580440015,73.7008580440015,73.7008580440015,73.7008580440015,73.7008580440015,73.7008580440015,73.7008580440015,73.7008580440015,73.7008580440015,a,1.6613047420105431,10,46,0,75.38643910799874,76.88720400299644,76.88720400299644,77.3872651779966,,,,,,,,,,,,,,,,,,,,,,,,,,,,,,,,,,,,,,,,,,,,,,,,,,,,,,,,,,,,,,,,,,,,61617,2022-10-27_13h53.33.350,vts_reward_expectancy_bt_OFFLINE,2022.2.4,60.05368427426278,
0,1,0,0,1,0,0,0,circle,triangle,0,0,0,0,0,10,10,3,,,,,,,,,,,,,,,,,,,,,,,,,,,,,,,,,,,,,,,,77.3872651779966,77.3872651779966,77.3872651779966,77.3872651779966,77.3872651779966,77.3872651779966,77.3872651779966,77.3872651779966,77.3872651779966,77.3872651779966,a,0.7508231640094891,10,56,0,78.17093967599794,79.67343855000217,,,,,,,,,,,,,,,,,,,,,,,,,,,,,,,,,,,,,,,,,,,,,,,,,,,,,,,,,,,,,,,,,,,,,,61617,2022-10-27_13h53.33.350,vts_reward_expectancy_bt_OFFLINE,2022.2.4,60.05368427426278,
1,0,0,0,0,0,0,1,triangle,star,0,0,0,0,0,11,11,2,,,,,,,,,,,,,,,,,,,,,,,,,,,,,,,,,,,,,,,,80.1735627540038,80.1735627540038,80.1735627540038,80.1735627540038,80.1735627540038,80.1735627540038,80.1735627540038,80.1735627540038,80.1735627540038,80.1735627540038,a,1.0040491999970982,10,66,0,81.20706596999662,82.70757217299251,82.70757217299251,83.2078454989969,,,,,,,,,,,,,,,,,,,,,,,,,,,,,,,,,,,,,,,,,,,,,,,,,,,,,,,,,,,,,,,,,,,,61617,2022-10-27_13h53.33.350,vts_reward_expectancy_bt_OFFLINE,2022.2.4,60.05368427426278,
0,0,1,0,0,0,0,1,hexagon,star,0,0,0,0,1,0,12,8,,,,,,,,,,,,,,,,,,,,,,,,,,,,,,,,,,,,,,,,83.2078454989969,83.2078454989969,83.2078454989969,83.2078454989969,83.2078454989969,83.2078454989969,83.2078454989969,83.2078454989969,83.2078454989969,83.2078454989969,a,0.898219817012432,1,67,0,84.1259236390033,85.62750732699351,,,,,,,,,,,,,,,,,,,,,,,,,,,,,,,,,,,,,,,,,,,,,,,,,,,,,,,,,,,,,,,,,,,,,,61617,2022-10-27_13h53.33.350,vts_reward_expectancy_bt_OFFLINE,2022.2.4,60.05368427426278,
0,1,0,0,0,0,0,1,circle,star,0,0,0,0,1,1,13,5,,,,,,,,,,,,,,,,,,,,,,,,,,,,,,,,,,,,,,,,86.1277406970039,86.1277406970039,86.1277406970039,86.1277406970039,86.1277406970039,86.1277406970039,86.1277406970039,86.1277406970039,86.1277406970039,86.1277406970039,a,0.7617916780000087,10,77,0,86.91209056100342,88.41163348300324,88.41163348300324,88.91178456200578,,,,,,,,,,,,,,,,,,,,,,,,,,,,,,,,,,,,,,,,,,,,,,,,,,,,,,,,,,,,,,,,,,,,61617,2022-10-27_13h53.33.350,vts_reward_expectancy_bt_OFFLINE,2022.2.4,60.05368427426278,
0,0,0,1,1,0,0,0,star,triangle,0,0,0,0,1,2,14,9,,,,,,,,,,,,,,,,,,,,,,,,,,,,,,,,,,,,,,,,88.91178456200578,88.91178456200578,88.91178456200578,88.91178456200578,88.91178456200578,88.91178456200578,88.91178456200578,88.91178456200578,88.91178456200578,88.91178456200578,a,2.833854753000196,1,78,0,91.76544378200197,93.26517462800257,93.26517462800257,93.76536610799667,,,,,,,,,,,,,,,,,,,,,,,,,,,,,,,,,,,,,,,,,,,,,,,,,,,,,,,,,,,,,,,,,,,,61617,2022-10-27_13h53.33.350,vts_reward_expectancy_bt_OFFLINE,2022.2.4,60.05368427426278,
0,1,0,0,0,0,1,0,circle,hexagon,0,0,0,0,1,3,15,4,,,,,,,,,,,,,,,,,,,,,,,,,,,,,,,,,,,,,,,,93.76536610799667,93.76536610799667,93.76536610799667,93.76536610799667,93.76536610799667,93.76536610799667,93.76536610799667,93.76536610799667,93.76536610799667,93.76536610799667,a,0.924019625002984,10,88,0,94.71842817199649,96.21808991700527,96.21808991700527,96.7183537880046,,,,,,,,,,,,,,,,,,,,,,,,,,,,,,,,,,,,,,,,,,,,,,,,,,,,,,,,,,,,,,,,,,,,61617,2022-10-27_13h53.33.350,vts_reward_expectancy_bt_OFFLINE,2022.2.4,60.05368427426278,
1,0,0,0,0,1,0,0,triangle,circle,0,0,0,0,1,4,16,0,,,,,,,,,,,,,,,,,,,,,,,,,,,,,,,,,,,,,,,,96.7183537880046,96.7183537880046,96.7183537880046,96.7183537880046,96.7183537880046,96.7183537880046,96.7183537880046,96.7183537880046,96.7183537880046,96.7183537880046,a,1.26009727800556,10,98,0,98.00209690199699,99.50438632900477,,,,,,,,,,,,,,,,,,,,,,,,,,,,,,,,,,,,,,,,,,,,,,,,,,,,,,,,,,,,,,,,,,,,,,61617,2022-10-27_13h53.33.350,vts_reward_expectancy_bt_OFFLINE,2022.2.4,60.05368427426278,
0,1,0,0,1,0,0,0,circle,triangle,0,0,0,0,1,5,17,3,,,,,,,,,,,,,,,,,,,,,,,,,,,,,,,,,,,,,,,,100.004615051992,100.004615051992,100.004615051992,100.004615051992,100.004615051992,100.004615051992,100.004615051992,100.004615051992,100.004615051992,100.004615051992,a,0.653112564003095,1,99,0,100.68921944199246,102.18880216599791,102.18880216599791,102.6886939190008,,,,,,,,,,,,,,,,,,,,,,,,,,,,,,,,,,,,,,,,,,,,,,,,,,,,,,,,,,,,,,,,,,,,61617,2022-10-27_13h53.33.350,vts_reward_expectancy_bt_OFFLINE,2022.2.4,60.05368427426278,
1,0,0,0,0,0,1,0,triangle,hexagon,0,0,0,0,1,6,18,1,,,,,,,,,,,,,,,,,,,,,,,,,,,,,,,,,,,,,,,,102.6886939190008,102.6886939190008,102.6886939190008,102.6886939190008,102.6886939190008,102.6886939190008,102.6886939190008,102.6886939190008,102.6886939190008,102.6886939190008,a,0.9207302350114333,10,109,0,103.63994239500607,105.14147771599528,,,,,,,,,,,,,,,,,,,,,,,,,,,,,,,,,,,,,,,,,,,,,,,,,,,,,,,,,,,,,,,,,,,,,,61617,2022-10-27_13h53.33.350,vts_reward_expectancy_bt_OFFLINE,2022.2.4,60.05368427426278,
0,0,0,1,0,0,1,0,star,hexagon,0,0,0,0,1,7,19,11,,,,,,,,,,,,,,,,,,,,,,,,,,,,,,,,,,,,,,,,105.64205387700349,105.64205387700349,105.64205387700349,105.64205387700349,105.64205387700349,105.64205387700349,105.64205387700349,105.64205387700349,105.64205387700349,105.64205387700349,l,1.9353863610012922,1,110,0,107.6092897579947,109.10980027299956,109.10980027299956,,,,,,,,,,,,,,,,,,,,,,,,,,,,,,,,,,,,,,,,,,,,,,,,,,,,,,,,,,,,,,,,,,,,,61617,2022-10-27_13h53.33.350,vts_reward_expectancy_bt_OFFLINE,2022.2.4,60.05368427426278,
1,0,0,0,0,0,0,1,triangle,star,0,0,0,0,1,8,20,2,,,,,,,,,,,,,,,,,,,,,,,,,,,,,,,,,,,,,,,,109.61172342700593,109.61172342700593,109.61172342700593,109.61172342700593,109.61172342700593,109.61172342700593,109.61172342700593,109.61172342700593,109.61172342700593,109.61172342700593,a,1.094490092014894,10,120,0,110.72997914699954,112.22938939499727,112.22938939499727,112.72944434000237,,,,,,,,,,,,,,,,,,,,,,,,,,,,,,,,,,,,,,,,,,,,,,,,,,,,,,,,,,,,,,,,,,,,61617,2022-10-27_13h53.33.350,vts_reward_expectancy_bt_OFFLINE,2022.2.4,60.05368427426278,
0,0,1,0,1,0,0,0,hexagon,triangle,0,0,0,0,1,9,21,6,,,,,,,,,,,,,,,,,,,,,,,,,,,,,,,,,,,,,,,,112.72944434000237,112.72944434000237,112.72944434000237,112.72944434000237,112.72944434000237,112.72944434000237,112.72944434000237,112.72944434000237,112.72944434000237,112.72944434000237,a,5.897116709005786,1,121,0,118.65112693999254,120.15244260299369,,,,,,,,,,,,,,,,,,,,,,,,,,,,,,,,,,,,,,,,,,,,,,,,,,,,,,,,,,,,,,,,,,,,,,61617,2022-10-27_13h53.33.350,vts_reward_expectancy_bt_OFFLINE,2022.2.4,60.05368427426278,
0,0,1,0,0,1,0,0,hexagon,circle,0,0,0,0,1,10,22,7,,,,,,,,,,,,,,,,,,,,,,,,,,,,,,,,,,,,,,,,120.65285622800002,120.65285622800002,120.65285622800002,120.65285622800002,120.65285622800002,120.65285622800002,120.65285622800002,120.65285622800002,120.65285622800002,120.65285622800002,a,1.1808222610125085,1,122,0,121.85314175799431,123.35361591400579,123.35361591400579,123.85399504800444,,,,,,,,,,,,,,,,,,,,,,,,,,,,,,,,,,,,,,,,,,,,,,,,,,,,,,,,,,,,,,,,,,,,61617,2022-10-27_13h53.33.350,vts_reward_expectancy_bt_OFFLINE,2022.2.4,60.05368427426278,
0,0,0,1,0,1,0,0,star ,circle,0,0,0,0,1,11,23,10,,,,,,,,,,,,,,,,,,,,,,,,,,,,,,,,,,,,,,,,123.85399504800444,123.85399504800444,123.85399504800444,123.85399504800444,123.85399504800444,123.85399504800444,123.85399504800444,123.85399504800444,123.85399504800444,123.85399504800444,l,2.211889889003942,10,132,0,126.09094753899262,127.59050182699866,127.59050182699866,128.09050533099798,,,,,,,,,,,,,,,,,,,,,,,,,,,,,,,,,,,,,,,,,,,,,,,,,,,,,,,,,,,,,,,,,,,,61617,2022-10-27_13h53.33.350,vts_reward_expectancy_bt_OFFLINE,2022.2.4,60.05368427426278,
0,0,0,1,1,0,0,0,star,triangle,0,0,0,0,2,0,24,9,,,,,,,,,,,,,,,,,,,,,,,,,,,,,,,,,,,,,,,,128.09050533099798,128.09050533099798,128.09050533099798,128.09050533099798,128.09050533099798,128.09050533099798,128.09050533099798,128.09050533099798,128.09050533099798,128.09050533099798,l,0.9760662600165233,10,142,0,129.0907889319933,130.5932371270028,,,,,,,,,,,,,,,,,,,,,,,,,,,,,,,,,,,,,,,,,,,,,,,,,,,,,,,,,,,,,,,,,,,,,,61617,2022-10-27_13h53.33.350,vts_reward_expectancy_bt_OFFLINE,2022.2.4,60.05368427426278,
0,0,1,0,0,0,0,1,hexagon,star,0,0,0,0,2,1,25,8,,,,,,,,,,,,,,,,,,,,,,,,,,,,,,,,,,,,,,,,131.09344769899326,131.09344769899326,131.09344769899326,131.09344769899326,131.09344769899326,131.09344769899326,131.09344769899326,131.09344769899326,131.09344769899326,131.09344769899326,a,0.8119811120122904,1,143,0,131.92790090100607,133.42782563700166,133.42782563700166,133.92793711999548,,,,,,,,,,,,,,,,,,,,,,,,,,,,,,,,,,,,,,,,,,,,,,,,,,,,,,,,,,,,,,,,,,,,61617,2022-10-27_13h53.33.350,vts_reward_expectancy_bt_OFFLINE,2022.2.4,60.05368427426278,
0,1,0,0,1,0,0,0,circle,triangle,0,0,0,0,2,2,26,3,,,,,,,,,,,,,,,,,,,,,,,,,,,,,,,,,,,,,,,,133.92793711999548,133.92793711999548,133.92793711999548,133.92793711999548,133.92793711999548,133.92793711999548,133.92793711999548,133.92793711999548,133.92793711999548,133.92793711999548,a,0.9054962789959973,10,153,0,134.86430432400084,136.36409412699868,136.36409412699868,,,,,,,,,,,,,,,,,,,,,,,,,,,,,,,,,,,,,,,,,,,,,,,,,,,,,,,,,,,,,,,,,,,,,61617,2022-10-27_13h53.33.350,vts_reward_expectancy_bt_OFFLINE,2022.2.4,60.05368427426278,
0,0,1,0,1,0,0,0,hexagon,triangle,0,0,0,0,2,3,27,6,,,,,,,,,,,,,,,,,,,,,,,,,,,,,,,,,,,,,,,,136.86413314599486,136.86413314599486,136.86413314599486,136.86413314599486,136.86413314599486,136.86413314599486,136.86413314599486,136.86413314599486,136.86413314599486,136.86413314599486,l,2.4497045910102315,1,154,0,139.3327601320052,140.83392207199358,,,,,,,,,,,,,,,,,,,,,,,,,,,,,,,,,,,,,,,,,,,,,,,,,,,,,,,,,,,,,,,,,,,,,,61617,2022-10-27_13h53.33.350,vts_reward_expectancy_bt_OFFLINE,2022.2.4,60.05368427426278,
0,1,0,0,0,0,1,0,circle,hexagon,0,0,0,0,2,4,28,4,,,,,,,,,,,,,,,,,,,,,,,,,,,,,,,,,,,,,,,,141.33417591400212,141.33417591400212,141.33417591400212,141.33417591400212,141.33417591400212,141.33417591400212,141.33417591400212,141.33417591400212,141.33417591400212,141.33417591400212,a,1.8201496789988596,10,164,0,143.18612430000212,144.68711782099854,,,,,,,,,,,,,,,,,,,,,,,,,,,,,,,,,,,,,,,,,,,,,,,,,,,,,,,,,,,,,,,,,,,,,,61617,2022-10-27_13h53.33.350,vts_reward_expectancy_bt_OFFLINE,2022.2.4,60.05368427426278,
0,0,0,1,0,1,0,0,star ,circle,0,0,0,0,2,5,29,10,,,,,,,,,,,,,,,,,,,,,,,,,,,,,,,,,,,,,,,,145.18740222600172,145.18740222600172,145.18740222600172,145.18740222600172,145.18740222600172,145.18740222600172,145.18740222600172,145.18740222600172,145.18740222600172,145.18740222600172,l,5.58256974600954,10,174,0,150.79137456900207,152.29188109499228,152.29188109499228,152.79191549100506,,,,,,,,,,,,,,,,,,,,,,,,,,,,,,,,,,,,,,,,,,,,,,,,,,,,,,,,,,,,,,,,,,,,61617,2022-10-27_13h53.33.350,vts_reward_expectancy_bt_OFFLINE,2022.2.4,60.05368427426278,
1,0,0,0,0,1,0,0,triangle,circle,0,0,0,0,2,6,30,0,,,,,,,,,,,,,,,,,,,,,,,,,,,,,,,,,,,,,,,,152.79191549100506,152.79191549100506,152.79191549100506,152.79191549100506,152.79191549100506,152.79191549100506,152.79191549100506,152.79191549100506,152.79191549100506,152.79191549100506,a,1.1783761640108423,10,184,0,153.99243251599546,155.49489172699396,,,,,,,,,,,,,,,,,,,,,,,,,,,,,,,,,,,,,,,,,,,,,,,,,,,,,,,,,,,,,,,,,,,,,,61617,2022-10-27_13h53.33.350,vts_reward_expectancy_bt_OFFLINE,2022.2.4,60.05368427426278,
1,0,0,0,0,0,1,0,triangle,hexagon,0,0,0,0,2,7,31,1,,,,,,,,,,,,,,,,,,,,,,,,,,,,,,,,,,,,,,,,155.99514189100591,155.99514189100591,155.99514189100591,155.99514189100591,155.99514189100591,155.99514189100591,155.99514189100591,155.99514189100591,155.99514189100591,155.99514189100591,a,1.1905204790091375,1,185,0,157.21362170399516,158.71247072299593,158.71247072299593,159.2128651039966,,,,,,,,,,,,,,,,,,,,,,,,,,,,,,,,,,,,,,,,,,,,,,,,,,,,,,,,,,,,,,,,,,,,61617,2022-10-27_13h53.33.350,vts_reward_expectancy_bt_OFFLINE,2022.2.4,60.05368427426278,
0,0,1,0,0,1,0,0,hexagon,circle,0,0,0,0,2,8,32,7,,,,,,,,,,,,,,,,,,,,,,,,,,,,,,,,,,,,,,,,159.2128651039966,159.2128651039966,159.2128651039966,159.2128651039966,159.2128651039966,159.2128651039966,159.2128651039966,159.2128651039966,159.2128651039966,159.2128651039966,a,3.3093093589995988,10,195,0,162.5502574419952,164.0497668570024,164.0497668570024,,,,,,,,,,,,,,,,,,,,,,,,,,,,,,,,,,,,,,,,,,,,,,,,,,,,,,,,,,,,,,,,,,,,,61617,2022-10-27_13h53.33.350,vts_reward_expectancy_bt_OFFLINE,2022.2.4,60.05368427426278,
0,1,0,0,0,0,0,1,circle,star,0,0,0,0,2,9,33,5,,,,,,,,,,,,,,,,,,,,,,,,,,,,,,,,,,,,,,,,164.5516626000026,164.5516626000026,164.5516626000026,164.5516626000026,164.5516626000026,164.5516626000026,164.5516626000026,164.5516626000026,164.5516626000026,164.5516626000026,a,2.5457721240090905,10,205,0,167.11906463299238,168.61981933900097,168.61981933900097,169.11993553799402,,,,,,,,,,,,,,,,,,,,,,,,,,,,,,,,,,,,,,,,,,,,,,,,,,,,,,,,,,,,,,,,,,,,61617,2022-10-27_13h53.33.350,vts_reward_expectancy_bt_OFFLINE,2022.2.4,60.05368427426278,
0,0,0,1,0,0,1,0,star,hexagon,0,0,0,0,2,10,34,11,,,,,,,,,,,,,,,,,,,,,,,,,,,,,,,,,,,,,,,,169.11993553799402,169.11993553799402,169.11993553799402,169.11993553799402,169.11993553799402,169.11993553799402,169.11993553799402,169.11993553799402,169.11993553799402,169.11993553799402,l,2.4823853290145053,10,215,0,171.6227767889941,173.12319497899443,173.12319497899443,173.62332145500113,,,,,,,,,,,,,,,,,,,,,,,,,,,,,,,,,,,,,,,,,,,,,,,,,,,,,,,,,,,,,,,,,,,,61617,2022-10-27_13h53.33.350,vts_reward_expectancy_bt_OFFLINE,2022.2.4,60.05368427426278,
1,0,0,0,0,0,0,1,triangle,star,0,0,0,0,2,11,35,2,,,,,,,,,,,,,,,,,,,,,,,,,,,,,,,,,,,,,,,,173.62332145500113,173.62332145500113,173.62332145500113,173.62332145500113,173.62332145500113,173.62332145500113,173.62332145500113,173.62332145500113,173.62332145500113,173.62332145500113,a,1.074620067010983,10,225,0,174.72562036399904,176.2261657899944,176.2261657899944,176.7262864880031,,,,,,,,,,,,,,,,,,,,,,,,,,,,,,,,,,,,,,,,,,,,,,,,,,,,,,,,,,,,,,,,,,,,61617,2022-10-27_13h53.33.350,vts_reward_expectancy_bt_OFFLINE,2022.2.4,60.05368427426278,
0,0,1,0,1,0,0,0,hexagon,triangle,0,0,0,0,3,0,36,6,,,,,,,,,,,,,,,,,,,,,,,,,,,,,,,,,,,,,,,,176.7262864880031,176.7262864880031,176.7262864880031,176.7262864880031,176.7262864880031,176.7262864880031,176.7262864880031,176.7262864880031,176.7262864880031,176.7262864880031,l,4.339750254017417,10,235,0,181.096522050997,182.59736940800212,182.59736940800212,,,,,,,,,,,,,,,,,,,,,,,,,,,,,,,,,,,,,,,,,,,,,,,,,,,,,,,,,,,,,,,,,,,,,61617,2022-10-27_13h53.33.350,vts_reward_expectancy_bt_OFFLINE,2022.2.4,60.05368427426278,
0,1,0,0,0,0,1,0,circle,hexagon,0,0,0,0,3,1,37,4,,,,,,,,,,,,,,,,,,,,,,,,,,,,,,,,,,,,,,,,183.09724123499473,183.09724123499473,183.09724123499473,183.09724123499473,183.09724123499473,183.09724123499473,183.09724123499473,183.09724123499473,183.09724123499473,183.09724123499473,l,1.3131157720054034,10,245,0,184.43381541699637,185.93347102399275,185.93347102399275,186.43379416200332,,,,,,,,,,,,,,,,,,,,,,,,,,,,,,,,,,,,,,,,,,,,,,,,,,,,,,,,,,,,,,,,,,,,61617,2022-10-27_13h53.33.350,vts_reward_expectancy_bt_OFFLINE,2022.2.4,60.05368427426278,
0,0,1,0,0,1,0,0,hexagon,circle,0,0,0,0,3,2,38,7,,,,,,,,,,,,,,,,,,,,,,,,,,,,,,,,,,,,,,,,186.43379416200332,186.43379416200332,186.43379416200332,186.43379416200332,186.43379416200332,186.43379416200332,186.43379416200332,186.43379416200332,186.43379416200332,186.43379416200332,l,2.712154263004777,1,246,0,189.1691863629967,190.6703342950059,,,,,,,,,,,,,,,,,,,,,,,,,,,,,,,,,,,,,,,,,,,,,,,,,,,,,,,,,,,,,,,,,,,,,,61617,2022-10-27_13h53.33.350,vts_reward_expectancy_bt_OFFLINE,2022.2.4,60.05368427426278,
0,0,0,1,0,0,1,0,star,hexagon,0,0,0,0,3,3,39,11,,,,,,,,,,,,,,,,,,,,,,,,,,,,,,,,,,,,,,,,191.17054509199806,191.17054509199806,191.17054509199806,191.17054509199806,191.17054509199806,191.17054509199806,191.17054509199806,191.17054509199806,191.17054509199806,191.17054509199806,l,4.0714267150033265,1,247,0,195.27480843299418,196.77427923100186,196.77427923100186,197.27449368100497,,,,,,,,,,,,,,,,,,,,,,,,,,,,,,,,,,,,,,,,,,,,,,,,,,,,,,,,,,,,,,,,,,,,61617,2022-10-27_13h53.33.350,vts_reward_expectancy_bt_OFFLINE,2022.2.4,60.05368427426278,
0,1,0,0,0,0,0,1,circle,star,0,0,0,0,3,4,40,5,,,,,,,,,,,,,,,,,,,,,,,,,,,,,,,,,,,,,,,,197.27449368100497,197.27449368100497,197.27449368100497,197.27449368100497,197.27449368100497,197.27449368100497,197.27449368100497,197.27449368100497,197.27449368100497,197.27449368100497,a,1.5357791630085558,1,248,0,198.84178823200637,200.34421576099703,,,,,,,,,,,,,,,,,,,,,,,,,,,,,,,,,,,,,,,,,,,,,,,,,,,,,,,,,,,,,,,,,,,,,,61617,2022-10-27_13h53.33.350,vts_reward_expectancy_bt_OFFLINE,2022.2.4,60.05368427426278,
0,0,0,1,0,1,0,0,star ,circle,0,0,0,0,3,5,41,10,,,,,,,,,,,,,,,,,,,,,,,,,,,,,,,,,,,,,,,,200.84439163999923,200.84439163999923,200.84439163999923,200.84439163999923,200.84439163999923,200.84439163999923,200.84439163999923,200.84439163999923,200.84439163999923,200.84439163999923,a,0.7578246439952636,1,249,0,201.62754217299516,203.12878311199893,203.12878311199893,203.62873401299294,,,,,,,,,,,,,,,,,,,,,,,,,,,,,,,,,,,,,,,,,,,,,,,,,,,,,,,,,,,,,,,,,,,,61617,2022-10-27_13h53.33.350,vts_reward_expectancy_bt_OFFLINE,2022.2.4,60.05368427426278,
0,0,0,1,1,0,0,0,star,triangle,0,0,0,0,3,6,42,9,,,,,,,,,,,,,,,,,,,,,,,,,,,,,,,,,,,,,,,,203.62873401299294,203.62873401299294,203.62873401299294,203.62873401299294,203.62873401299294,203.62873401299294,203.62873401299294,203.62873401299294,203.62873401299294,203.62873401299294,l,0.8457740770099917,1,250,0,204.49744037300115,205.9983627420006,205.9983627420006,206.49843953200616,,,,,,,,,,,,,,,,,,,,,,,,,,,,,,,,,,,,,,,,,,,,,,,,,,,,,,,,,,,,,,,,,,,,61617,2022-10-27_13h53.33.350,vts_reward_expectancy_bt_OFFLINE,2022.2.4,60.05368427426278,
0,1,0,0,1,0,0,0,circle,triangle,0,0,0,0,3,7,43,3,,,,,,,,,,,,,,,,,,,,,,,,,,,,,,,,,,,,,,,,206.49843953200616,206.49843953200616,206.49843953200616,206.49843953200616,206.49843953200616,206.49843953200616,206.49843953200616,206.49843953200616,206.49843953200616,206.49843953200616,a,0.9912259900011122,10,260,0,207.51648321999528,209.01565905599273,209.01565905599273,,,,,,,,,,,,,,,,,,,,,,,,,,,,,,,,,,,,,,,,,,,,,,,,,,,,,,,,,,,,,,,,,,,,,61617,2022-10-27_13h53.33.350,vts_reward_expectancy_bt_OFFLINE,2022.2.4,60.05368427426278,
1,0,0,0,0,1,0,0,triangle,circle,0,0,0,0,3,8,44,0,,,,,,,,,,,,,,,,,,,,,,,,,,,,,,,,,,,,,,,,209.51794165099273,209.51794165099273,209.51794165099273,209.51794165099273,209.51794165099273,209.51794165099273,209.51794165099273,209.51794165099273,209.51794165099273,209.51794165099273,a,1.7237602510140277,10,270,0,211.2686108909984,212.76917486000457,,,,,,,,,,,,,,,,,,,,,,,,,,,,,,,,,,,,,,,,,,,,,,,,,,,,,,,,,,,,,,,,,,,,,,61617,2022-10-27_13h53.33.350,vts_reward_expectancy_bt_OFFLINE,2022.2.4,60.05368427426278,
0,0,1,0,0,0,0,1,hexagon,star,0,0,0,0,3,9,45,8,,,,,,,,,,,,,,,,,,,,,,,,,,,,,,,,,,,,,,,,213.26927553099813,213.26927553099813,213.26927553099813,213.26927553099813,213.26927553099813,213.26927553099813,213.26927553099813,213.26927553099813,213.26927553099813,213.26927553099813,a,0.8762246690166648,1,271,0,214.17071870199288,215.6719039430027,,,,,,,,,,,,,,,,,,,,,,,,,,,,,,,,,,,,,,,,,,,,,,,,,,,,,,,,,,,,,,,,,,,,,,61617,2022-10-27_13h53.33.350,vts_reward_expectancy_bt_OFFLINE,2022.2.4,60.05368427426278,
1,0,0,0,0,0,0,1,triangle,star,0,0,0,0,3,10,46,2,,,,,,,,,,,,,,,,,,,,,,,,,,,,,,,,,,,,,,,,216.1721536660043,216.1721536660043,216.1721536660043,216.1721536660043,216.1721536660043,216.1721536660043,216.1721536660043,216.1721536660043,216.1721536660043,216.1721536660043,a,0.7893310220097192,10,281,0,216.99010904600436,218.48955106300127,218.48955106300127,218.98972666999907,,,,,,,,,,,,,,,,,,,,,,,,,,,,,,,,,,,,,,,,,,,,,,,,,,,,,,,,,,,,,,,,,,,,61617,2022-10-27_13h53.33.350,vts_reward_expectancy_bt_OFFLINE,2022.2.4,60.05368427426278,
1,0,0,0,0,0,1,0,triangle,hexagon,0,0,0,0,3,11,47,1,,,,,,,,,,,,,,,,,,,,,,,,,,,,,,,,,,,,,,,,218.98972666999907,218.98972666999907,218.98972666999907,218.98972666999907,218.98972666999907,218.98972666999907,218.98972666999907,218.98972666999907,218.98972666999907,218.98972666999907,a,1.1480725200090092,10,291,0,220.1583961139986,221.65946667999378,221.65946667999378,,,,,,,,,,,,,,,,,,,,,,,,,,,,,,,,,,,,,,,,,,,,,,,,,,,,,,,,,,,,,,,,,,,,,61617,2022-10-27_13h53.33.350,vts_reward_expectancy_bt_OFFLINE,2022.2.4,60.05368427426278,
0,0,1,0,0,0,0,1,hexagon,star,1,0,1,0,0,0,0,8,,,,,,,,,,,,,,,,,,,,,,,,,,,,,,,,,,,,,,,,243.98524346199702,243.98524346199702,243.98524346199702,243.98524346199702,243.98524346199702,243.98524346199702,243.98524346199702,243.98524346199702,243.98524346199702,243.98524346199702,a,1.5210597969999071,1,292,1,245.52836248600215,247.02756686600333,247.02756686600333,247.527590608006,,,,,,,,,,,,,,,,,,,,,,,,,,,,,,,,,,,,,,,,,,,,,,,,,,,,,,,,,,,,,,,,,,,,61617,2022-10-27_13h53.33.350,vts_reward_expectancy_bt_OFFLINE,2022.2.4,60.05368427426278,
1,0,0,0,0,1,0,0,triangle,circle,1,0,1,0,0,1,1,0,,,,,,,,,,,,,,,,,,,,,,,,,,,,,,,,,,,,,,,,247.527590608006,247.527590608006,247.527590608006,247.527590608006,247.527590608006,247.527590608006,247.527590608006,247.527590608006,247.527590608006,247.527590608006,l,1.106281016007415,10,302,1,248.66302116400038,250.1635573819949,,,,,,,,,,,,,,,,,,,,,,,,,,,,,,,,,,,,,,,,,,,,,,,,,,,,,,,,,,,,,,,,,,,,,,61617,2022-10-27_13h53.33.350,vts_reward_expectancy_bt_OFFLINE,2022.2.4,60.05368427426278,
0,1,0,0,1,0,0,0,circle,triangle,1,0,1,0,0,2,2,3,,,,,,,,,,,,,,,,,,,,,,,,,,,,,,,,,,,,,,,,250.664109328005,250.664109328005,250.664109328005,250.664109328005,250.664109328005,250.664109328005,250.664109328005,250.664109328005,250.664109328005,250.664109328005,l,1.5625797630054876,1,303,1,252.24918405800418,253.74857030400017,253.74857030400017,254.24858086199674,,,,,,,,,,,,,,,,,,,,,,,,,,,,,,,,,,,,,,,,,,,,,,,,,,,,,,,,,,,,,,,,,,,,61617,2022-10-27_13h53.33.350,vts_reward_expectancy_bt_OFFLINE,2022.2.4,60.05368427426278,
0,0,0,1,0,0,1,0,star,hexagon,1,0,1,0,0,3,3,11,,,,,,,,,,,,,,,,,,,,,,,,,,,,,,,,,,,,,,,,254.24858086199674,254.24858086199674,254.24858086199674,254.24858086199674,254.24858086199674,254.24858086199674,254.24858086199674,254.24858086199674,254.24858086199674,254.24858086199674,a,0.4894267130002845,1,304,1,254.76744016099838,256.2678902710031,256.2678902710031,256.7680466680031,,,,,,,,,,,,,,,,,,,,,,,,,,,,,,,,,,,,,,,,,,,,,,,,,,,,,,,,,,,,,,,,,,,,61617,2022-10-27_13h53.33.350,vts_reward_expectancy_bt_OFFLINE,2022.2.4,60.05368427426278,
1,0,0,0,0,0,1,0,triangle,hexagon,1,0,1,0,0,4,4,1,,,,,,,,,,,,,,,,,,,,,,,,,,,,,,,,,,,,,,,,256.7680466680031,256.7680466680031,256.7680466680031,256.7680466680031,256.7680466680031,256.7680466680031,256.7680466680031,256.7680466680031,256.7680466680031,256.7680466680031,a,0.9299031789996661,10,314,1,257.7197820979927,259.21917021299305,259.21917021299305,,,,,,,,,,,,,,,,,,,,,,,,,,,,,,,,,,,,,,,,,,,,,,,,,,,,,,,,,,,,,,,,,,,,,61617,2022-10-27_13h53.33.350,vts_reward_expectancy_bt_OFFLINE,2022.2.4,60.05368427426278,
1,0,0,0,0,0,0,1,triangle,star,1,0,1,0,0,5,5,2,,,,,,,,,,,,,,,,,,,,,,,,,,,,,,,,,,,,,,,,259.72088537100353,259.72088537100353,259.72088537100353,259.72088537100353,259.72088537100353,259.72088537100353,259.72088537100353,259.72088537100353,259.72088537100353,259.72088537100353,a,0.6491039530083071,10,324,1,260.38778847499634,261.88844046099985,261.88844046099985,,,,,,,,,,,,,,,,,,,,,,,,,,,,,,,,,,,,,,,,,,,,,,,,,,,,,,,,,,,,,,,,,,,,,61617,2022-10-27_13h53.33.350,vts_reward_expectancy_bt_OFFLINE,2022.2.4,60.05368427426278,
0,0,0,1,1,0,0,0,star,triangle,1,0,1,0,0,6,6,9,,,,,,,,,,,,,,,,,,,,,,,,,,,,,,,,,,,,,,,,262.38853696300066,262.38853696300066,262.38853696300066,262.38853696300066,262.38853696300066,262.38853696300066,262.38853696300066,262.38853696300066,262.38853696300066,262.38853696300066,l,1.317221340010292,10,334,1,263.72229835999315,265.22476210100285,,,,,,,,,,,,,,,,,,,,,,,,,,,,,,,,,,,,,,,,,,,,,,,,,,,,,,,,,,,,,,,,,,,,,,61617,2022-10-27_13h53.33.350,vts_reward_expectancy_bt_OFFLINE,2022.2.4,60.05368427426278,
0,0,1,0,1,0,0,0,hexagon,triangle,1,0,1,0,0,7,7,6,,,,,,,,,,,,,,,,,,,,,,,,,,,,,,,,,,,,,,,,265.7248643799976,265.7248643799976,265.7248643799976,265.7248643799976,265.7248643799976,265.7248643799976,265.7248643799976,265.7248643799976,265.7248643799976,265.7248643799976,l,1.3331359990115743,1,335,1,267.07676743899356,268.57581707500503,268.57581707500503,269.07611594800255,,,,,,,,,,,,,,,,,,,,,,,,,,,,,,,,,,,,,,,,,,,,,,,,,,,,,,,,,,,,,,,,,,,,61617,2022-10-27_13h53.33.350,vts_reward_expectancy_bt_OFFLINE,2022.2.4,60.05368427426278,
0,0,0,1,0,1,0,0,star ,circle,1,0,1,0,0,8,8,10,,,,,,,,,,,,,,,,,,,,,,,,,,,,,,,,,,,,,,,,269.07611594800255,269.07611594800255,269.07611594800255,269.07611594800255,269.07611594800255,269.07611594800255,269.07611594800255,269.07611594800255,269.07611594800255,269.07611594800255,l,1.08527998100908,10,345,1,270.1795550779934,271.678929265996,271.678929265996,272.17923432700627,,,,,,,,,,,,,,,,,,,,,,,,,,,,,,,,,,,,,,,,,,,,,,,,,,,,,,,,,,,,,,,,,,,,61617,2022-10-27_13h53.33.350,vts_reward_expectancy_bt_OFFLINE,2022.2.4,60.05368427426278,
0,1,0,0,0,0,1,0,circle,hexagon,1,0,1,0,0,9,9,4,,,,,,,,,,,,,,,,,,,,,,,,,,,,,,,,,,,,,,,,272.17923432700627,272.17923432700627,272.17923432700627,272.17923432700627,272.17923432700627,272.17923432700627,272.17923432700627,272.17923432700627,272.17923432700627,272.17923432700627,a,1.2307133720023558,1,346,1,273.43067732200143,274.9319396880019,,,,,,,,,,,,,,,,,,,,,,,,,,,,,,,,,,,,,,,,,,,,,,,,,,,,,,,,,,,,,,,,,,,,,,61617,2022-10-27_13h53.33.350,vts_reward_expectancy_bt_OFFLINE,2022.2.4,60.05368427426278,
0,1,0,0,0,0,0,1,circle,star,1,0,1,0,0,10,10,5,,,,,,,,,,,,,,,,,,,,,,,,,,,,,,,,,,,,,,,,275.4321353340056,275.4321353340056,275.4321353340056,275.4321353340056,275.4321353340056,275.4321353340056,275.4321353340056,275.4321353340056,275.4321353340056,275.4321353340056,a,0.5853059270011727,10,356,1,276.0491648360039,277.54955374100246,277.54955374100246,278.0495681879984,,,,,,,,,,,,,,,,,,,,,,,,,,,,,,,,,,,,,,,,,,,,,,,,,,,,,,,,,,,,,,,,,,,,61617,2022-10-27_13h53.33.350,vts_reward_expectancy_bt_OFFLINE,2022.2.4,60.05368427426278,
0,0,1,0,0,1,0,0,hexagon,circle,1,0,1,0,0,11,11,7,,,,,,,,,,,,,,,,,,,,,,,,,,,,,,,,,,,,,,,,278.0495681879984,278.0495681879984,278.0495681879984,278.0495681879984,278.0495681879984,278.0495681879984,278.0495681879984,278.0495681879984,278.0495681879984,278.0495681879984,a,1.4159211960068205,1,357,1,279.4890082399943,281.002554399005,,,,,,,,,,,,,,,,,,,,,,,,,,,,,,,,,,,,,,,,,,,,,,,,,,,,,,,,,,,,,,,,,,,,,,61617,2022-10-27_13h53.33.350,vts_reward_expectancy_bt_OFFLINE,2022.2.4,60.05368427426278,
0,0,1,0,1,0,0,0,hexagon,triangle,1,0,1,0,1,0,12,6,,,,,,,,,,,,,,,,,,,,,,,,,,,,,,,,,,,,,,,,281.5029474339972,281.5029474339972,281.5029474339972,281.5029474339972,281.5029474339972,281.5029474339972,281.5029474339972,281.5029474339972,281.5029474339972,281.5029474339972,l,1.3390323190105846,10,367,1,282.87105660600355,284.3705005929951,284.3705005929951,,,,,,,,,,,,,,,,,,,,,,,,,,,,,,,,,,,,,,,,,,,,,,,,,,,,,,,,,,,,,,,,,,,,,61617,2022-10-27_13h53.33.350,vts_reward_expectancy_bt_OFFLINE,2022.2.4,60.05368427426278,
0,1,0,0,1,0,0,0,circle,triangle,1,0,1,0,1,1,13,3,,,,,,,,,,,,,,,,,,,,,,,,,,,,,,,,,,,,,,,,284.8725755990017,284.8725755990017,284.8725755990017,284.8725755990017,284.8725755990017,284.8725755990017,284.8725755990017,284.8725755990017,284.8725755990017,284.8725755990017,l,1.6093158940057037,10,377,1,286.50649321300443,288.0071450499963,288.0071450499963,288.5073372110055,,,,,,,,,,,,,,,,,,,,,,,,,,,,,,,,,,,,,,,,,,,,,,,,,,,,,,,,,,,,,,,,,,,,61617,2022-10-27_13h53.33.350,vts_reward_expectancy_bt_OFFLINE,2022.2.4,60.05368427426278,
0,1,0,0,0,0,1,0,circle,hexagon,1,0,1,0,1,2,14,4,,,,,,,,,,,,,,,,,,,,,,,,,,,,,,,,,,,,,,,,288.5073372110055,288.5073372110055,288.5073372110055,288.5073372110055,288.5073372110055,288.5073372110055,288.5073372110055,288.5073372110055,288.5073372110055,288.5073372110055,a,9.4143995760096,10,387,1,297.94772961799754,299.44776892899245,299.44776892899245,,,,,,,,,,,,,,,,,,,,,,,,,,,,,,,,,,,,,,,,,,,,,,,,,,,,,,,,,,,,,,,,,,,,,61617,2022-10-27_13h53.33.350,vts_reward_expectancy_bt_OFFLINE,2022.2.4,60.05368427426278,
0,0,0,1,0,1,0,0,star ,circle,1,0,1,0,1,3,15,10,,,,,,,,,,,,,,,,,,,,,,,,,,,,,,,,,,,,,,,,299.94986414400046,299.94986414400046,299.94986414400046,299.94986414400046,299.94986414400046,299.94986414400046,299.94986414400046,299.94986414400046,299.94986414400046,299.94986414400046,l,1.7397022770164767,10,397,1,301.7175315839995,303.2178804199939,303.2178804199939,303.7181183979992,,,,,,,,,,,,,,,,,,,,,,,,,,,,,,,,,,,,,,,,,,,,,,,,,,,,,,,,,,,,,,,,,,,,61617,2022-10-27_13h53.33.350,vts_reward_expectancy_bt_OFFLINE,2022.2.4,60.05368427426278,
0,0,0,1,0,0,1,0,star,hexagon,1,0,1,0,1,4,16,11,,,,,,,,,,,,,,,,,,,,,,,,,,,,,,,,,,,,,,,,303.7181183979992,303.7181183979992,303.7181183979992,303.7181183979992,303.7181183979992,303.7181183979992,303.7181183979992,303.7181183979992,303.7181183979992,303.7181183979992,l,1.0449433820031118,1,398,1,304.7889130819967,306.3042854709929,,,,,,,,,,,,,,,,,,,,,,,,,,,,,,,,,,,,,,,,,,,,,,,,,,,,,,,,,,,,,,,,,,,,,,61617,2022-10-27_13h53.33.350,vts_reward_expectancy_bt_OFFLINE,2022.2.4,60.05368427426278,
1,0,0,0,0,0,0,1,triangle,star,1,0,1,0,1,5,17,2,,,,,,,,,,,,,,,,,,,,,,,,,,,,,,,,,,,,,,,,306.804414061,306.804414061,306.804414061,306.804414061,306.804414061,306.804414061,306.804414061,306.804414061,306.804414061,306.804414061,a,0.5815502470068168,10,408,1,307.4061874799954,308.92191547599214,,,,,,,,,,,,,,,,,,,,,,,,,,,,,,,,,,,,,,,,,,,,,,,,,,,,,,,,,,,,,,,,,,,,,,61617,2022-10-27_13h53.33.350,vts_reward_expectancy_bt_OFFLINE,2022.2.4,60.05368427426278,
0,0,0,1,1,0,0,0,star,triangle,1,0,1,0,1,6,18,9,,,,,,,,,,,,,,,,,,,,,,,,,,,,,,,,,,,,,,,,309.4220203389996,309.4220203389996,309.4220203389996,309.4220203389996,309.4220203389996,309.4220203389996,309.4220203389996,309.4220203389996,309.4220203389996,309.4220203389996,l,2.043507334004971,10,418,1,311.4913557569962,312.99169331799203,312.99169331799203,313.4921309189958,,,,,,,,,,,,,,,,,,,,,,,,,,,,,,,,,,,,,,,,,,,,,,,,,,,,,,,,,,,,,,,,,,,,61617,2022-10-27_13h53.33.350,vts_reward_expectancy_bt_OFFLINE,2022.2.4,60.05368427426278,
1,0,0,0,0,0,1,0,triangle,hexagon,1,0,1,0,1,7,19,1,,,,,,,,,,,,,,,,,,,,,,,,,,,,,,,,,,,,,,,,313.4921309189958,313.4921309189958,313.4921309189958,313.4921309189958,313.4921309189958,313.4921309189958,313.4921309189958,313.4921309189958,313.4921309189958,313.4921309189958,a,1.0944715079967864,10,428,1,314.61092200699204,316.1116952979937,316.1116952979937,316.61165641099797,,,,,,,,,,,,,,,,,,,,,,,,,,,,,,,,,,,,,,,,,,,,,,,,,,,,,,,,,,,,,,,,,,,,61617,2022-10-27_13h53.33.350,vts_reward_expectancy_bt_OFFLINE,2022.2.4,60.05368427426278,
0,0,1,0,0,1,0,0,hexagon,circle,1,0,1,0,1,8,20,7,,,,,,,,,,,,,,,,,,,,,,,,,,,,,,,,,,,,,,,,316.61165641099797,316.61165641099797,316.61165641099797,316.61165641099797,316.61165641099797,316.61165641099797,316.61165641099797,316.61165641099797,316.61165641099797,316.61165641099797,l,0.7347156540054129,10,438,1,317.37850321900623,318.8790155010065,318.8790155010065,319.3790949660033,,,,,,,,,,,,,,,,,,,,,,,,,,,,,,,,,,,,,,,,,,,,,,,,,,,,,,,,,,,,,,,,,,,,61617,2022-10-27_13h53.33.350,vts_reward_expectancy_bt_OFFLINE,2022.2.4,60.05368427426278,
0,0,1,0,0,0,0,1,hexagon,star,1,0,1,0,1,9,21,8,,,,,,,,,,,,,,,,,,,,,,,,,,,,,,,,,,,,,,,,319.3790949660033,319.3790949660033,319.3790949660033,319.3790949660033,319.3790949660033,319.3790949660033,319.3790949660033,319.3790949660033,319.3790949660033,319.3790949660033,a,1.4064332030102378,10,448,1,320.814999662005,322.3154926779971,322.3154926779971,322.81571796500066,,,,,,,,,,,,,,,,,,,,,,,,,,,,,,,,,,,,,,,,,,,,,,,,,,,,,,,,,,,,,,,,,,,,61617,2022-10-27_13h53.33.350,vts_reward_expectancy_bt_OFFLINE,2022.2.4,60.05368427426278,
1,0,0,0,0,1,0,0,triangle,circle,1,0,1,0,1,10,22,0,,,,,,,,,,,,,,,,,,,,,,,,,,,,,,,,,,,,,,,,322.81571796500066,322.81571796500066,322.81571796500066,322.81571796500066,322.81571796500066,322.81571796500066,322.81571796500066,322.81571796500066,322.81571796500066,322.81571796500066,a,0.9542275080166291,1,449,1,323.8006816769921,325.30172331600625,,,,,,,,,,,,,,,,,,,,,,,,,,,,,,,,,,,,,,,,,,,,,,,,,,,,,,,,,,,,,,,,,,,,,,61617,2022-10-27_13h53.33.350,vts_reward_expectancy_bt_OFFLINE,2022.2.4,60.05368427426278,
0,1,0,0,0,0,0,1,circle,star,1,0,1,0,1,11,23,5,,,,,,,,,,,,,,,,,,,,,,,,,,,,,,,,,,,,,,,,325.80187301599653,325.80187301599653,325.80187301599653,325.80187301599653,325.80187301599653,325.80187301599653,325.80187301599653,325.80187301599653,325.80187301599653,325.80187301599653,a,0.7040950509981485,10,459,1,326.5372905959957,328.05281528299383,,,,,,,,,,,,,,,,,,,,,,,,,,,,,,,,,,,,,,,,,,,,,,,,,,,,,,,,,,,,,,,,,,,,,,61617,2022-10-27_13h53.33.350,vts_reward_expectancy_bt_OFFLINE,2022.2.4,60.05368427426278,
0,0,1,0,0,0,0,1,hexagon,star,1,0,1,0,2,0,24,8,,,,,,,,,,,,,,,,,,,,,,,,,,,,,,,,,,,,,,,,328.55318939599965,328.55318939599965,328.55318939599965,328.55318939599965,328.55318939599965,328.55318939599965,328.55318939599965,328.55318939599965,328.55318939599965,328.55318939599965,a,1.400368492002599,1,460,1,329.97347897499276,331.4724282149982,331.4724282149982,331.97273835199303,,,,,,,,,,,,,,,,,,,,,,,,,,,,,,,,,,,,,,,,,,,,,,,,,,,,,,,,,,,,,,,,,,,,61617,2022-10-27_13h53.33.350,vts_reward_expectancy_bt_OFFLINE,2022.2.4,60.05368427426278,
0,0,0,1,0,1,0,0,star ,circle,1,0,1,0,2,1,25,10,,,,,,,,,,,,,,,,,,,,,,,,,,,,,,,,,,,,,,,,331.97273835199303,331.97273835199303,331.97273835199303,331.97273835199303,331.97273835199303,331.97273835199303,331.97273835199303,331.97273835199303,331.97273835199303,331.97273835199303,l,0.8609107509983005,10,470,1,332.8579661399999,334.37342769700626,,,,,,,,,,,,,,,,,,,,,,,,,,,,,,,,,,,,,,,,,,,,,,,,,,,,,,,,,,,,,,,,,,,,,,61617,2022-10-27_13h53.33.350,vts_reward_expectancy_bt_OFFLINE,2022.2.4,60.05368427426278,
0,0,1,0,1,0,0,0,hexagon,triangle,1,0,1,0,2,2,26,6,,,,,,,,,,,,,,,,,,,,,,,,,,,,,,,,,,,,,,,,334.8589212480001,334.8589212480001,334.8589212480001,334.8589212480001,334.8589212480001,334.8589212480001,334.8589212480001,334.8589212480001,334.8589212480001,334.8589212480001,l,1.0944723440043163,10,480,1,335.97602815399296,337.47627380299673,337.47627380299673,337.9768910980056,,,,,,,,,,,,,,,,,,,,,,,,,,,,,,,,,,,,,,,,,,,,,,,,,,,,,,,,,,,,,,,,,,,,61617,2022-10-27_13h53.33.350,vts_reward_expectancy_bt_OFFLINE,2022.2.4,60.05368427426278,
0,0,0,1,1,0,0,0,star,triangle,1,0,1,0,2,3,27,9,,,,,,,,,,,,,,,,,,,,,,,,,,,,,,,,,,,,,,,,337.9768910980056,337.9768910980056,337.9768910980056,337.9768910980056,337.9768910980056,337.9768910980056,337.9768910980056,337.9768910980056,337.9768910980056,337.9768910980056,l,0.8728071180084953,10,490,1,338.8769664519932,340.37941179399786,,,,,,,,,,,,,,,,,,,,,,,,,,,,,,,,,,,,,,,,,,,,,,,,,,,,,,,,,,,,,,,,,,,,,,61617,2022-10-27_13h53.33.350,vts_reward_expectancy_bt_OFFLINE,2022.2.4,60.05368427426278,
0,1,0,0,1,0,0,0,circle,triangle,1,0,1,0,2,4,28,3,,,,,,,,,,,,,,,,,,,,,,,,,,,,,,,,,,,,,,,,340.8794832040003,340.8794832040003,340.8794832040003,340.8794832040003,340.8794832040003,340.8794832040003,340.8794832040003,340.8794832040003,340.8794832040003,340.8794832040003,a,0.8749944680166664,1,491,1,341.7815642350033,343.29718391499773,,,,,,,,,,,,,,,,,,,,,,,,,,,,,,,,,,,,,,,,,,,,,,,,,,,,,,,,,,,,,,,,,,,,,,61617,2022-10-27_13h53.33.350,vts_reward_expectancy_bt_OFFLINE,2022.2.4,60.05368427426278,
0,1,0,0,0,0,0,1,circle,star,1,0,1,0,2,5,29,5,,,,,,,,,,,,,,,,,,,,,,,,,,,,,,,,,,,,,,,,343.7973878049961,343.7973878049961,343.7973878049961,343.7973878049961,343.7973878049961,343.7973878049961,343.7973878049961,343.7973878049961,343.7973878049961,343.7973878049961,a,0.6451257779990556,10,501,1,344.4654764680017,345.96684163699683,,,,,,,,,,,,,,,,,,,,,,,,,,,,,,,,,,,,,,,,,,,,,,,,,,,,,,,,,,,,,,,,,,,,,,61617,2022-10-27_13h53.33.350,vts_reward_expectancy_bt_OFFLINE,2022.2.4,60.05368427426278,
0,1,0,0,0,0,1,0,circle,hexagon,1,0,1,0,2,6,30,4,,,,,,,,,,,,,,,,,,,,,,,,,,,,,,,,,,,,,,,,346.4668151639926,346.4668151639926,346.4668151639926,346.4668151639926,346.4668151639926,346.4668151639926,346.4668151639926,346.4668151639926,346.4668151639926,346.4668151639926,a,1.3516373770107748,10,511,1,347.8504288980039,349.35122290300205,349.35122290300205,,,,,,,,,,,,,,,,,,,,,,,,,,,,,,,,,,,,,,,,,,,,,,,,,,,,,,,,,,,,,,,,,,,,,61617,2022-10-27_13h53.33.350,vts_reward_expectancy_bt_OFFLINE,2022.2.4,60.05368427426278,
1,0,0,0,0,1,0,0,triangle,circle,1,0,1,0,2,7,31,0,,,,,,,,,,,,,,,,,,,,,,,,,,,,,,,,,,,,,,,,349.85315562099277,349.85315562099277,349.85315562099277,349.85315562099277,349.85315562099277,349.85315562099277,349.85315562099277,349.85315562099277,349.85315562099277,349.85315562099277,a,1.804913904008572,10,521,1,351.68739845200616,353.18758555500244,353.18758555500244,353.6878036910057,,,,,,,,,,,,,,,,,,,,,,,,,,,,,,,,,,,,,,,,,,,,,,,,,,,,,,,,,,,,,,,,,,,,61617,2022-10-27_13h53.33.350,vts_reward_expectancy_bt_OFFLINE,2022.2.4,60.05368427426278,
1,0,0,0,0,0,1,0,triangle,hexagon,1,0,1,0,2,8,32,1,,,,,,,,,,,,,,,,,,,,,,,,,,,,,,,,,,,,,,,,353.6878036910057,353.6878036910057,353.6878036910057,353.6878036910057,353.6878036910057,353.6878036910057,353.6878036910057,353.6878036910057,353.6878036910057,353.6878036910057,l,1.7461011690029409,1,522,1,355.4584832010005,356.95773597899824,356.95773597899824,357.45761877800396,,,,,,,,,,,,,,,,,,,,,,,,,,,,,,,,,,,,,,,,,,,,,,,,,,,,,,,,,,,,,,,,,,,,61617,2022-10-27_13h53.33.350,vts_reward_expectancy_bt_OFFLINE,2022.2.4,60.05368427426278,
0,0,0,1,0,0,1,0,star,hexagon,1,0,1,0,2,9,33,11,,,,,,,,,,,,,,,,,,,,,,,,,,,,,,,,,,,,,,,,357.45761877800396,357.45761877800396,357.45761877800396,357.45761877800396,357.45761877800396,357.45761877800396,357.45761877800396,357.45761877800396,357.45761877800396,357.45761877800396,l,0.7207323930051643,1,523,1,358.20794150599977,359.7101116809936,,,,,,,,,,,,,,,,,,,,,,,,,,,,,,,,,,,,,,,,,,,,,,,,,,,,,,,,,,,,,,,,,,,,,,61617,2022-10-27_13h53.33.350,vts_reward_expectancy_bt_OFFLINE,2022.2.4,60.05368427426278,
1,0,0,0,0,0,0,1,triangle,star,1,0,1,0,2,10,34,2,,,,,,,,,,,,,,,,,,,,,,,,,,,,,,,,,,,,,,,,360.2104437490052,360.2104437490052,360.2104437490052,360.2104437490052,360.2104437490052,360.2104437490052,360.2104437490052,360.2104437490052,360.2104437490052,360.2104437490052,a,0.6315981000079773,10,533,1,360.86248267799965,362.377917263002,,,,,,,,,,,,,,,,,,,,,,,,,,,,,,,,,,,,,,,,,,,,,,,,,,,,,,,,,,,,,,,,,,,,,,61617,2022-10-27_13h53.33.350,vts_reward_expectancy_bt_OFFLINE,2022.2.4,60.05368427426278,
0,0,1,0,0,1,0,0,hexagon,circle,1,0,1,0,2,11,35,7,,,,,,,,,,,,,,,,,,,,,,,,,,,,,,,,,,,,,,,,362.86128632600594,362.86128632600594,362.86128632600594,362.86128632600594,362.86128632600594,362.86128632600594,362.86128632600594,362.86128632600594,362.86128632600594,362.86128632600594,l,1.1642735680070473,10,543,1,364.04512869700557,365.5476836010057,,,,,,,,,,,,,,,,,,,,,,,,,,,,,,,,,,,,,,,,,,,,,,,,,,,,,,,,,,,,,,,,,,,,,,61617,2022-10-27_13h53.33.350,vts_reward_expectancy_bt_OFFLINE,2022.2.4,60.05368427426278,
0,1,0,0,0,0,1,0,circle,hexagon,1,0,1,0,3,0,36,4,,,,,,,,,,,,,,,,,,,,,,,,,,,,,,,,,,,,,,,,366.04791256799945,366.04791256799945,366.04791256799945,366.04791256799945,366.04791256799945,366.04791256799945,366.04791256799945,366.04791256799945,366.04791256799945,366.04791256799945,a,0.9136714020132786,10,553,1,366.98155144600605,368.4821315930021,368.4821315930021,368.98221873100556,,,,,,,,,,,,,,,,,,,,,,,,,,,,,,,,,,,,,,,,,,,,,,,,,,,,,,,,,,,,,,,,,,,,61617,2022-10-27_13h53.33.350,vts_reward_expectancy_bt_OFFLINE,2022.2.4,60.05368427426278,
1,0,0,0,0,0,1,0,triangle,hexagon,1,0,1,0,3,1,37,1,,,,,,,,,,,,,,,,,,,,,,,,,,,,,,,,,,,,,,,,368.98221873100556,368.98221873100556,368.98221873100556,368.98221873100556,368.98221873100556,368.98221873100556,368.98221873100556,368.98221873100556,368.98221873100556,368.98221873100556,a,1.739782691001892,10,563,1,370.75148704400635,372.25163082599465,372.25163082599465,372.75193084399507,,,,,,,,,,,,,,,,,,,,,,,,,,,,,,,,,,,,,,,,,,,,,,,,,,,,,,,,,,,,,,,,,,,,61617,2022-10-27_13h53.33.350,vts_reward_expectancy_bt_OFFLINE,2022.2.4,60.05368427426278,
1,0,0,0,0,0,0,1,triangle,star,1,0,1,0,3,2,38,2,,,,,,,,,,,,,,,,,,,,,,,,,,,,,,,,,,,,,,,,372.75193084399507,372.75193084399507,372.75193084399507,372.75193084399507,372.75193084399507,372.75193084399507,372.75193084399507,372.75193084399507,372.75193084399507,372.75193084399507,a,0.842378360015573,10,573,1,373.6189774759987,375.12128588100313,,,,,,,,,,,,,,,,,,,,,,,,,,,,,,,,,,,,,,,,,,,,,,,,,,,,,,,,,,,,,,,,,,,,,,61617,2022-10-27_13h53.33.350,vts_reward_expectancy_bt_OFFLINE,2022.2.4,60.05368427426278,
0,1,0,0,0,0,0,1,circle,star,1,0,1,0,3,3,39,5,,,,,,,,,,,,,,,,,,,,,,,,,,,,,,,,,,,,,,,,375.62155585500295,375.62155585500295,375.62155585500295,375.62155585500295,375.62155585500295,375.62155585500295,375.62155585500295,375.62155585500295,375.62155585500295,375.62155585500295,a,0.9724255470064236,10,583,1,376.62217018799856,378.12257295500604,378.12257295500604,378.6225187050004,,,,,,,,,,,,,,,,,,,,,,,,,,,,,,,,,,,,,,,,,,,,,,,,,,,,,,,,,,,,,,,,,,,,61617,2022-10-27_13h53.33.350,vts_reward_expectancy_bt_OFFLINE,2022.2.4,60.05368427426278,
0,0,1,0,1,0,0,0,hexagon,triangle,1,0,1,0,3,4,40,6,,,,,,,,,,,,,,,,,,,,,,,,,,,,,,,,,,,,,,,,378.6225187050004,378.6225187050004,378.6225187050004,378.6225187050004,378.6225187050004,378.6225187050004,378.6225187050004,378.6225187050004,378.6225187050004,378.6225187050004,l,0.9069992760050809,1,584,1,379.5490522610053,381.0588075870037,,,,,,,,,,,,,,,,,,,,,,,,,,,,,,,,,,,,,,,,,,,,,,,,,,,,,,,,,,,,,,,,,,,,,,61617,2022-10-27_13h53.33.350,vts_reward_expectancy_bt_OFFLINE,2022.2.4,60.05368427426278,
0,0,0,1,0,0,1,0,star,hexagon,1,0,1,0,3,5,41,11,,,,,,,,,,,,,,,,,,,,,,,,,,,,,,,,,,,,,,,,381.5588747599977,381.5588747599977,381.5588747599977,381.5588747599977,381.5588747599977,381.5588747599977,381.5588747599977,381.5588747599977,381.5588747599977,381.5588747599977,l,1.0185228080081288,1,585,1,382.6094261609978,384.1097406769986,384.1097406769986,,,,,,,,,,,,,,,,,,,,,,,,,,,,,,,,,,,,,,,,,,,,,,,,,,,,,,,,,,,,,,,,,,,,,61617,2022-10-27_13h53.33.350,vts_reward_expectancy_bt_OFFLINE,2022.2.4,60.05368427426278,
0,0,1,0,0,0,0,1,hexagon,star,1,0,1,0,3,6,42,8,,,,,,,,,,,,,,,,,,,,,,,,,,,,,,,,,,,,,,,,384.61166228300135,384.61166228300135,384.61166228300135,384.61166228300135,384.61166228300135,384.61166228300135,384.61166228300135,384.61166228300135,384.61166228300135,384.61166228300135,a,1.0149026300059631,1,586,1,385.6454283710045,387.1462446950027,387.1462446950027,387.646193987006,,,,,,,,,,,,,,,,,,,,,,,,,,,,,,,,,,,,,,,,,,,,,,,,,,,,,,,,,,,,,,,,,,,,61617,2022-10-27_13h53.33.350,vts_reward_expectancy_bt_OFFLINE,2022.2.4,60.05368427426278,
0,0,0,1,0,1,0,0,star ,circle,1,0,1,0,3,7,43,10,,,,,,,,,,,,,,,,,,,,,,,,,,,,,,,,,,,,,,,,387.646193987006,387.646193987006,387.646193987006,387.646193987006,387.646193987006,387.646193987006,387.646193987006,387.646193987006,387.646193987006,387.646193987006,l,1.1722722460108344,10,596,1,388.8484152400051,390.3489203439967,,,,,,,,,,,,,,,,,,,,,,,,,,,,,,,,,,,,,,,,,,,,,,,,,,,,,,,,,,,,,,,,,,,,,,61617,2022-10-27_13h53.33.350,vts_reward_expectancy_bt_OFFLINE,2022.2.4,60.05368427426278,
0,1,0,0,1,0,0,0,circle,triangle,1,0,1,0,3,8,44,3,,,,,,,,,,,,,,,,,,,,,,,,,,,,,,,,,,,,,,,,390.8494137109956,390.8494137109956,390.8494137109956,390.8494137109956,390.8494137109956,390.8494137109956,390.8494137109956,390.8494137109956,390.8494137109956,390.8494137109956,a,1.9287776920100441,10,606,1,392.79988626600243,394.3004393779993,394.3004393779993,,,,,,,,,,,,,,,,,,,,,,,,,,,,,,,,,,,,,,,,,,,,,,,,,,,,,,,,,,,,,,,,,,,,,61617,2022-10-27_13h53.33.350,vts_reward_expectancy_bt_OFFLINE,2022.2.4,60.05368427426278,
1,0,0,0,0,1,0,0,triangle,circle,1,0,1,0,3,9,45,0,,,,,,,,,,,,,,,,,,,,,,,,,,,,,,,,,,,,,,,,394.8025569119927,394.8025569119927,394.8025569119927,394.8025569119927,394.8025569119927,394.8025569119927,394.8025569119927,394.8025569119927,394.8025569119927,394.8025569119927,a,1.1439152500097407,10,616,1,395.9697705169965,397.4700223690015,397.4700223690015,397.9700825750042,,,,,,,,,,,,,,,,,,,,,,,,,,,,,,,,,,,,,,,,,,,,,,,,,,,,,,,,,,,,,,,,,,,,61617,2022-10-27_13h53.33.350,vts_reward_expectancy_bt_OFFLINE,2022.2.4,60.05368427426278,
0,0,0,1,1,0,0,0,star,triangle,1,0,1,0,3,10,46,9,,,,,,,,,,,,,,,,,,,,,,,,,,,,,,,,,,,,,,,,397.9700825750042,397.9700825750042,397.9700825750042,397.9700825750042,397.9700825750042,397.9700825750042,397.9700825750042,397.9700825750042,397.9700825750042,397.9700825750042,l,0.9354439680173527,1,617,1,398.937610013003,400.439743808005,,,,,,,,,,,,,,,,,,,,,,,,,,,,,,,,,,,,,,,,,,,,,,,,,,,,,,,,,,,,,,,,,,,,,,61617,2022-10-27_13h53.33.350,vts_reward_expectancy_bt_OFFLINE,2022.2.4,60.05368427426278,
0,0,1,0,0,1,0,0,hexagon,circle,1,0,1,0,3,11,47,7,,,,,,,,,,,,,,,,,,,,,,,,,,,,,,,,,,,,,,,,400.940084678994,400.940084678994,400.940084678994,400.940084678994,400.940084678994,400.940084678994,400.940084678994,400.940084678994,400.940084678994,400.940084678994,l,2.4934406020038296,10,627,1,403.4594120429974,404.9597440869984,,,,,,,,,,,,,,,,,,,,,,,,,,,,,,,,,,,,,,,,,,,,,,,,,,,,,,,,,,,,,,,,,,,,,,61617,2022-10-27_13h53.33.350,vts_reward_expectancy_bt_OFFLINE,2022.2.4,60.05368427426278,
0,1,0,0,0,0,0,1,circle,star,2,0,2,0,0,0,0,5,,,,,,,,,,,,,,,,,,,,,,,,,,,,,,,,,,,,,,,,407.522673843996,407.522673843996,407.522673843996,407.522673843996,407.522673843996,407.522673843996,407.522673843996,407.522673843996,407.522673843996,407.522673843996,l,1.063245890007238,1,628,2,408.6132404759992,410.1132286829961,,,,,,,,,,,,,,,,,,,,,,,,,,,,,,,,,,,,,,,,,,,,,,,,,,,,,,,,,,,,,,,,,,,,,,61617,2022-10-27_13h53.33.350,vts_reward_expectancy_bt_OFFLINE,2022.2.4,60.05368427426278,
1,0,0,0,0,0,1,0,triangle,hexagon,2,0,2,0,0,1,1,1,,,,,,,,,,,,,,,,,,,,,,,,,,,,,,,,,,,,,,,,410.6137299730035,410.6137299730035,410.6137299730035,410.6137299730035,410.6137299730035,410.6137299730035,410.6137299730035,410.6137299730035,410.6137299730035,410.6137299730035,a,0.9483481180068338,10,638,2,411.58248746799654,413.09782907299814,,,,,,,,,,,,,,,,,,,,,,,,,,,,,,,,,,,,,,,,,,,,,,,,,,,,,,,,,,,,,,,,,,,,,,61617,2022-10-27_13h53.33.350,vts_reward_expectancy_bt_OFFLINE,2022.2.4,60.05368427426278,
0,0,0,1,1,0,0,0,star,triangle,2,0,2,0,0,2,2,9,,,,,,,,,,,,,,,,,,,,,,,,,,,,,,,,,,,,,,,,413.5980815399962,413.5980815399962,413.5980815399962,413.5980815399962,413.5980815399962,413.5980815399962,413.5980815399962,413.5980815399962,413.5980815399962,413.5980815399962,a,1.0603451890056022,1,639,2,414.68583217900596,416.20077354399837,,,,,,,,,,,,,,,,,,,,,,,,,,,,,,,,,,,,,,,,,,,,,,,,,,,,,,,,,,,,,,,,,,,,,,61617,2022-10-27_13h53.33.350,vts_reward_expectancy_bt_OFFLINE,2022.2.4,60.05368427426278,
0,0,1,0,0,1,0,0,hexagon,circle,2,0,2,0,0,3,3,7,,,,,,,,,,,,,,,,,,,,,,,,,,,,,,,,,,,,,,,,416.70136817899765,416.70136817899765,416.70136817899765,416.70136817899765,416.70136817899765,416.70136817899765,416.70136817899765,416.70136817899765,416.70136817899765,416.70136817899765,l,1.3971721600100864,1,640,2,418.11830630399345,419.62052500499703,,,,,,,,,,,,,,,,,,,,,,,,,,,,,,,,,,,,,,,,,,,,,,,,,,,,,,,,,,,,,,,,,,,,,,61617,2022-10-27_13h53.33.350,vts_reward_expectancy_bt_OFFLINE,2022.2.4,60.05368427426278,
1,0,0,0,0,0,0,1,triangle,star,2,0,2,0,0,4,4,2,,,,,,,,,,,,,,,,,,,,,,,,,,,,,,,,,,,,,,,,420.1206241589971,420.1206241589971,420.1206241589971,420.1206241589971,420.1206241589971,420.1206241589971,420.1206241589971,420.1206241589971,420.1206241589971,420.1206241589971,a,1.0010928280098597,10,650,2,421.1544808960025,422.6550830030028,422.6550830030028,423.1552470589959,,,,,,,,,,,,,,,,,,,,,,,,,,,,,,,,,,,,,,,,,,,,,,,,,,,,,,,,,,,,,,,,,,,,61617,2022-10-27_13h53.33.350,vts_reward_expectancy_bt_OFFLINE,2022.2.4,60.05368427426278,
0,0,1,0,1,0,0,0,hexagon,triangle,2,0,2,0,0,5,5,6,,,,,,,,,,,,,,,,,,,,,,,,,,,,,,,,,,,,,,,,423.1552470589959,423.1552470589959,423.1552470589959,423.1552470589959,423.1552470589959,423.1552470589959,423.1552470589959,423.1552470589959,423.1552470589959,423.1552470589959,l,1.3824329310155008,10,660,2,424.5535748819966,426.0581898620003,,,,,,,,,,,,,,,,,,,,,,,,,,,,,,,,,,,,,,,,,,,,,,,,,,,,,,,,,,,,,,,,,,,,,,61617,2022-10-27_13h53.33.350,vts_reward_expectancy_bt_OFFLINE,2022.2.4,60.05368427426278,
0,0,0,1,0,0,1,0,star,hexagon,2,0,2,0,0,6,6,11,,,,,,,,,,,,,,,,,,,,,,,,,,,,,,,,,,,,,,,,426.55839004099835,426.55839004099835,426.55839004099835,426.55839004099835,426.55839004099835,426.55839004099835,426.55839004099835,426.55839004099835,426.55839004099835,426.55839004099835,l,1.083473025006242,1,661,2,427.6608295229962,429.17613302200334,,,,,,,,,,,,,,,,,,,,,,,,,,,,,,,,,,,,,,,,,,,,,,,,,,,,,,,,,,,,,,,,,,,,,,61617,2022-10-27_13h53.33.350,vts_reward_expectancy_bt_OFFLINE,2022.2.4,60.05368427426278,
0,0,0,1,0,1,0,0,star ,circle,2,0,2,0,0,7,7,10,,,,,,,,,,,,,,,,,,,,,,,,,,,,,,,,,,,,,,,,429.6612770780048,429.6612770780048,429.6612770780048,429.6612770780048,429.6612770780048,429.6612770780048,429.6612770780048,429.6612770780048,429.6612770780048,429.6612770780048,l,1.7322004140005447,1,662,2,431.41166437600623,432.91236890399887,432.91236890399887,433.41250571499404,,,,,,,,,,,,,,,,,,,,,,,,,,,,,,,,,,,,,,,,,,,,,,,,,,,,,,,,,,,,,,,,,,,,61617,2022-10-27_13h53.33.350,vts_reward_expectancy_bt_OFFLINE,2022.2.4,60.05368427426278,
1,0,0,0,0,1,0,0,triangle,circle,2,0,2,0,0,8,8,0,,,,,,,,,,,,,,,,,,,,,,,,,,,,,,,,,,,,,,,,433.41250571499404,433.41250571499404,433.41250571499404,433.41250571499404,433.41250571499404,433.41250571499404,433.41250571499404,433.41250571499404,433.41250571499404,433.41250571499404,l,1.901729837001767,10,672,2,435.33399691399245,436.84921315999236,,,,,,,,,,,,,,,,,,,,,,,,,,,,,,,,,,,,,,,,,,,,,,,,,,,,,,,,,,,,,,,,,,,,,,61617,2022-10-27_13h53.33.350,vts_reward_expectancy_bt_OFFLINE,2022.2.4,60.05368427426278,
0,1,0,0,1,0,0,0,circle,triangle,2,0,2,0,0,9,9,3,,,,,,,,,,,,,,,,,,,,,,,,,,,,,,,,,,,,,,,,437.34935832300107,437.34935832300107,437.34935832300107,437.34935832300107,437.34935832300107,437.34935832300107,437.34935832300107,437.34935832300107,437.34935832300107,437.34935832300107,l,1.3001065810094588,1,673,2,438.6687832650059,440.1690161659935,,,,,,,,,,,,,,,,,,,,,,,,,,,,,,,,,,,,,,,,,,,,,,,,,,,,,,,,,,,,,,,,,,,,,,61617,2022-10-27_13h53.33.350,vts_reward_expectancy_bt_OFFLINE,2022.2.4,60.05368427426278,
0,1,0,0,0,0,1,0,circle,hexagon,2,0,2,0,0,10,10,4,,,,,,,,,,,,,,,,,,,,,,,,,,,,,,,,,,,,,,,,440.6688174479932,440.6688174479932,440.6688174479932,440.6688174479932,440.6688174479932,440.6688174479932,440.6688174479932,440.6688174479932,440.6688174479932,440.6688174479932,a,1.3330587290110998,10,683,2,442.0215538409975,443.5366452180024,,,,,,,,,,,,,,,,,,,,,,,,,,,,,,,,,,,,,,,,,,,,,,,,,,,,,,,,,,,,,,,,,,,,,,61617,2022-10-27_13h53.33.350,vts_reward_expectancy_bt_OFFLINE,2022.2.4,60.05368427426278,
0,0,1,0,0,0,0,1,hexagon,star,2,0,2,0,0,11,11,8,,,,,,,,,,,,,,,,,,,,,,,,,,,,,,,,,,,,,,,,444.03659720699943,444.03659720699943,444.03659720699943,444.03659720699943,444.03659720699943,444.03659720699943,444.03659720699943,444.03659720699943,444.03659720699943,444.03659720699943,l,1.4216092260030564,1,684,2,445.4911340959952,447.00635161899845,,,,,,,,,,,,,,,,,,,,,,,,,,,,,,,,,,,,,,,,,,,,,,,,,,,,,,,,,,,,,,,,,,,,,,61617,2022-10-27_13h53.33.350,vts_reward_expectancy_bt_OFFLINE,2022.2.4,60.05368427426278,
0,1,0,0,1,0,0,0,circle,triangle,2,0,2,0,1,0,12,3,,,,,,,,,,,,,,,,,,,,,,,,,,,,,,,,,,,,,,,,447.5063793139998,447.5063793139998,447.5063793139998,447.5063793139998,447.5063793139998,447.5063793139998,447.5063793139998,447.5063793139998,447.5063793139998,447.5063793139998,a,1.551819862012053,10,694,2,449.0903747160046,450.59291987000324,,,,,,,,,,,,,,,,,,,,,,,,,,,,,,,,,,,,,,,,,,,,,,,,,,,,,,,,,,,,,,,,,,,,,,61617,2022-10-27_13h53.33.350,vts_reward_expectancy_bt_OFFLINE,2022.2.4,60.05368427426278,
0,0,0,1,0,0,1,0,star,hexagon,2,0,2,0,1,1,13,11,,,,,,,,,,,,,,,,,,,,,,,,,,,,,,,,,,,,,,,,451.0928602960048,451.0928602960048,451.0928602960048,451.0928602960048,451.0928602960048,451.0928602960048,451.0928602960048,451.0928602960048,451.0928602960048,451.0928602960048,a,0.9097727970074629,1,695,2,452.0288709059969,453.5438289970043,,,,,,,,,,,,,,,,,,,,,,,,,,,,,,,,,,,,,,,,,,,,,,,,,,,,,,,,,,,,,,,,,,,,,,61617,2022-10-27_13h53.33.350,vts_reward_expectancy_bt_OFFLINE,2022.2.4,60.05368427426278,
0,0,0,1,1,0,0,0,star,triangle,2,0,2,0,1,2,14,9,,,,,,,,,,,,,,,,,,,,,,,,,,,,,,,,,,,,,,,,454.04398824099917,454.04398824099917,454.04398824099917,454.04398824099917,454.04398824099917,454.04398824099917,454.04398824099917,454.04398824099917,454.04398824099917,454.04398824099917,a,0.469359284004895,1,696,2,454.5444020349969,456.04680616500264,,,,,,,,,,,,,,,,,,,,,,,,,,,,,,,,,,,,,,,,,,,,,,,,,,,,,,,,,,,,,,,,,,,,,,61617,2022-10-27_13h53.33.350,vts_reward_expectancy_bt_OFFLINE,2022.2.4,60.05368427426278,
0,1,0,0,0,0,1,0,circle,hexagon,2,0,2,0,1,3,15,4,,,,,,,,,,,,,,,,,,,,,,,,,,,,,,,,,,,,,,,,456.5424442119984,456.5424442119984,456.5424442119984,456.5424442119984,456.5424442119984,456.5424442119984,456.5424442119984,456.5424442119984,456.5424442119984,456.5424442119984,a,0.9873978000105126,10,706,2,457.5466536629974,459.04778184099996,459.04778184099996,,,,,,,,,,,,,,,,,,,,,,,,,,,,,,,,,,,,,,,,,,,,,,,,,,,,,,,,,,,,,,,,,,,,,61617,2022-10-27_13h53.33.350,vts_reward_expectancy_bt_OFFLINE,2022.2.4,60.05368427426278,
0,0,1,0,0,1,0,0,hexagon,circle,2,0,2,0,1,4,16,7,,,,,,,,,,,,,,,,,,,,,,,,,,,,,,,,,,,,,,,,459.5478940509929,459.5478940509929,459.5478940509929,459.5478940509929,459.5478940509929,459.5478940509929,459.5478940509929,459.5478940509929,459.5478940509929,459.5478940509929,l,14.438511808999465,10,716,2,474.0088276059978,475.51087227699463,,,,,,,,,,,,,,,,,,,,,,,,,,,,,,,,,,,,,,,,,,,,,,,,,,,,,,,,,,,,,,,,,,,,,,61617,2022-10-27_13h53.33.350,vts_reward_expectancy_bt_OFFLINE,2022.2.4,60.05368427426278,
0,0,1,0,1,0,0,0,hexagon,triangle,2,0,2,0,1,5,17,6,,,,,,,,,,,,,,,,,,,,,,,,,,,,,,,,,,,,,,,,476.01140973299334,476.01140973299334,476.01140973299334,476.01140973299334,476.01140973299334,476.01140973299334,476.01140973299334,476.01140973299334,476.01140973299334,476.01140973299334,l,0.7501214020012412,10,726,2,476.77864441300335,478.2786162029952,478.2786162029952,478.77855474299577,,,,,,,,,,,,,,,,,,,,,,,,,,,,,,,,,,,,,,,,,,,,,,,,,,,,,,,,,,,,,,,,,,,,61617,2022-10-27_13h53.33.350,vts_reward_expectancy_bt_OFFLINE,2022.2.4,60.05368427426278,
0,0,1,0,0,0,0,1,hexagon,star,2,0,2,0,1,6,18,8,,,,,,,,,,,,,,,,,,,,,,,,,,,,,,,,,,,,,,,,478.77855474299577,478.77855474299577,478.77855474299577,478.77855474299577,478.77855474299577,478.77855474299577,478.77855474299577,478.77855474299577,478.77855474299577,478.77855474299577,a,2.0630265250074444,1,727,2,480.86706444500305,482.381994854004,,,,,,,,,,,,,,,,,,,,,,,,,,,,,,,,,,,,,,,,,,,,,,,,,,,,,,,,,,,,,,,,,,,,,,61617,2022-10-27_13h53.33.350,vts_reward_expectancy_bt_OFFLINE,2022.2.4,60.05368427426278,
1,0,0,0,0,0,1,0,triangle,hexagon,2,0,2,0,1,7,19,1,,,,,,,,,,,,,,,,,,,,,,,,,,,,,,,,,,,,,,,,482.8820359139936,482.8820359139936,482.8820359139936,482.8820359139936,482.8820359139936,482.8820359139936,482.8820359139936,482.8820359139936,482.8820359139936,482.8820359139936,a,1.9519696490169736,1,728,2,484.8515841860062,486.35177833700436,486.35177833700436,,,,,,,,,,,,,,,,,,,,,,,,,,,,,,,,,,,,,,,,,,,,,,,,,,,,,,,,,,,,,,,,,,,,,61617,2022-10-27_13h53.33.350,vts_reward_expectancy_bt_OFFLINE,2022.2.4,60.05368427426278,
0,0,0,1,0,1,0,0,star ,circle,2,0,2,0,1,8,20,10,,,,,,,,,,,,,,,,,,,,,,,,,,,,,,,,,,,,,,,,486.852286704001,486.852286704001,486.852286704001,486.852286704001,486.852286704001,486.852286704001,486.852286704001,486.852286704001,486.852286704001,486.852286704001,l,0.8861475250159856,10,738,2,487.7711636680033,489.2862492419954,,,,,,,,,,,,,,,,,,,,,,,,,,,,,,,,,,,,,,,,,,,,,,,,,,,,,,,,,,,,,,,,,,,,,,61617,2022-10-27_13h53.33.350,vts_reward_expectancy_bt_OFFLINE,2022.2.4,60.05368427426278,
1,0,0,0,0,1,0,0,triangle,circle,2,0,2,0,1,9,21,0,,,,,,,,,,,,,,,,,,,,,,,,,,,,,,,,,,,,,,,,489.77180170199426,489.77180170199426,489.77180170199426,489.77180170199426,489.77180170199426,489.77180170199426,489.77180170199426,489.77180170199426,489.77180170199426,489.77180170199426,l,1.574633142008679,1,739,2,491.37425321100454,492.88944595599605,,,,,,,,,,,,,,,,,,,,,,,,,,,,,,,,,,,,,,,,,,,,,,,,,,,,,,,,,,,,,,,,,,,,,,61617,2022-10-27_13h53.33.350,vts_reward_expectancy_bt_OFFLINE,2022.2.4,60.05368427426278,
0,1,0,0,0,0,0,1,circle,star,2,0,2,0,1,10,22,5,,,,,,,,,,,,,,,,,,,,,,,,,,,,,,,,,,,,,,,,493.37292346099275,493.37292346099275,493.37292346099275,493.37292346099275,493.37292346099275,493.37292346099275,493.37292346099275,493.37292346099275,493.37292346099275,493.37292346099275,a,0.6532042490143795,10,749,2,494.05882448000193,495.5587853379984,,,,,,,,,,,,,,,,,,,,,,,,,,,,,,,,,,,,,,,,,,,,,,,,,,,,,,,,,,,,,,,,,,,,,,61617,2022-10-27_13h53.33.350,vts_reward_expectancy_bt_OFFLINE,2022.2.4,60.05368427426278,
1,0,0,0,0,0,0,1,triangle,star,2,0,2,0,1,11,23,2,,,,,,,,,,,,,,,,,,,,,,,,,,,,,,,,,,,,,,,,496.0589425109938,496.0589425109938,496.0589425109938,496.0589425109938,496.0589425109938,496.0589425109938,496.0589425109938,496.0589425109938,496.0589425109938,496.0589425109938,a,0.758847423014231,10,759,2,496.8430634270044,498.3431162719935,498.3431162719935,498.8435619230004,,,,,,,,,,,,,,,,,,,,,,,,,,,,,,,,,,,,,,,,,,,,,,,,,,,,,,,,,,,,,,,,,,,,61617,2022-10-27_13h53.33.350,vts_reward_expectancy_bt_OFFLINE,2022.2.4,60.05368427426278,
0,1,0,0,1,0,0,0,circle,triangle,2,0,2,0,2,0,24,3,,,,,,,,,,,,,,,,,,,,,,,,,,,,,,,,,,,,,,,,498.8435619230004,498.8435619230004,498.8435619230004,498.8435619230004,498.8435619230004,498.8435619230004,498.8435619230004,498.8435619230004,498.8435619230004,498.8435619230004,a,1.1579619870026363,10,769,2,500.0287626950012,501.5294879540015,501.5294879540015,502.0296287319943,,,,,,,,,,,,,,,,,,,,,,,,,,,,,,,,,,,,,,,,,,,,,,,,,,,,,,,,,,,,,,,,,,,,61617,2022-10-27_13h53.33.350,vts_reward_expectancy_bt_OFFLINE,2022.2.4,60.05368427426278,
0,0,0,1,0,0,1,0,star,hexagon,2,0,2,0,2,1,25,11,,,,,,,,,,,,,,,,,,,,,,,,,,,,,,,,,,,,,,,,502.0296287319943,502.0296287319943,502.0296287319943,502.0296287319943,502.0296287319943,502.0296287319943,502.0296287319943,502.0296287319943,502.0296287319943,502.0296287319943,l,1.3558482700173045,1,770,2,503.4158335950051,504.91554785799235,,,,,,,,,,,,,,,,,,,,,,,,,,,,,,,,,,,,,,,,,,,,,,,,,,,,,,,,,,,,,,,,,,,,,,61617,2022-10-27_13h53.33.350,vts_reward_expectancy_bt_OFFLINE,2022.2.4,60.05368427426278,
1,0,0,0,0,0,1,0,triangle,hexagon,2,0,2,0,2,2,26,1,,,,,,,,,,,,,,,,,,,,,,,,,,,,,,,,,,,,,,,,505.41580522099684,505.41580522099684,505.41580522099684,505.41580522099684,505.41580522099684,505.41580522099684,505.41580522099684,505.41580522099684,505.41580522099684,505.41580522099684,a,1.0496361149998847,10,780,2,506.4856414389942,508.00027348099684,,,,,,,,,,,,,,,,,,,,,,,,,,,,,,,,,,,,,,,,,,,,,,,,,,,,,,,,,,,,,,,,,,,,,,61617,2022-10-27_13h53.33.350,vts_reward_expectancy_bt_OFFLINE,2022.2.4,60.05368427426278,
0,0,0,1,1,0,0,0,star,triangle,2,0,2,0,2,3,27,9,,,,,,,,,,,,,,,,,,,,,,,,,,,,,,,,,,,,,,,,508.5005742390058,508.5005742390058,508.5005742390058,508.5005742390058,508.5005742390058,508.5005742390058,508.5005742390058,508.5005742390058,508.5005742390058,508.5005742390058,l,0.9011522280052304,10,790,2,509.43421751999995,510.9366697020014,,,,,,,,,,,,,,,,,,,,,,,,,,,,,,,,,,,,,,,,,,,,,,,,,,,,,,,,,,,,,,,,,,,,,,61617,2022-10-27_13h53.33.350,vts_reward_expectancy_bt_OFFLINE,2022.2.4,60.05368427426278,
0,0,1,0,0,1,0,0,hexagon,circle,2,0,2,0,2,4,28,7,,,,,,,,,,,,,,,,,,,,,,,,,,,,,,,,,,,,,,,,511.4370072330057,511.4370072330057,511.4370072330057,511.4370072330057,511.4370072330057,511.4370072330057,511.4370072330057,511.4370072330057,511.4370072330057,511.4370072330057,a,2.4534248000127263,10,800,2,513.9213157890044,515.4232559149968,,,,,,,,,,,,,,,,,,,,,,,,,,,,,,,,,,,,,,,,,,,,,,,,,,,,,,,,,,,,,,,,,,,,,,61617,2022-10-27_13h53.33.350,vts_reward_expectancy_bt_OFFLINE,2022.2.4,60.05368427426278,
1,0,0,0,0,0,0,1,triangle,star,2,0,2,0,2,5,29,2,,,,,,,,,,,,,,,,,,,,,,,,,,,,,,,,,,,,,,,,515.9234376090026,515.9234376090026,515.9234376090026,515.9234376090026,515.9234376090026,515.9234376090026,515.9234376090026,515.9234376090026,515.9234376090026,515.9234376090026,l,1.6463688660005573,1,801,2,517.5927750709961,519.0913956540026,,,,,,,,,,,,,,,,,,,,,,,,,,,,,,,,,,,,,,,,,,,,,,,,,,,,,,,,,,,,,,,,,,,,,,61617,2022-10-27_13h53.33.350,vts_reward_expectancy_bt_OFFLINE,2022.2.4,60.05368427426278,
0,1,0,0,0,0,0,1,circle,star,2,0,2,0,2,6,30,5,,,,,,,,,,,,,,,,,,,,,,,,,,,,,,,,,,,,,,,,519.591335901001,519.591335901001,519.591335901001,519.591335901001,519.591335901001,519.591335901001,519.591335901001,519.591335901001,519.591335901001,519.591335901001,a,0.9142271669988986,10,811,2,520.529337311993,522.0441819889966,,,,,,,,,,,,,,,,,,,,,,,,,,,,,,,,,,,,,,,,,,,,,,,,,,,,,,,,,,,,,,,,,,,,,,61617,2022-10-27_13h53.33.350,vts_reward_expectancy_bt_OFFLINE,2022.2.4,60.05368427426278,
0,0,0,1,0,1,0,0,star ,circle,2,0,2,0,2,7,31,10,,,,,,,,,,,,,,,,,,,,,,,,,,,,,,,,,,,,,,,,522.5445191990002,522.5445191990002,522.5445191990002,522.5445191990002,522.5445191990002,522.5445191990002,522.5445191990002,522.5445191990002,522.5445191990002,522.5445191990002,l,0.84147325399681,10,821,2,523.4119404069934,524.9137265729951,,,,,,,,,,,,,,,,,,,,,,,,,,,,,,,,,,,,,,,,,,,,,,,,,,,,,,,,,,,,,,,,,,,,,,61617,2022-10-27_13h53.33.350,vts_reward_expectancy_bt_OFFLINE,2022.2.4,60.05368427426278,
0,0,1,0,0,0,0,1,hexagon,star,2,0,2,0,2,8,32,8,,,,,,,,,,,,,,,,,,,,,,,,,,,,,,,,,,,,,,,,525.4139531279943,525.4139531279943,525.4139531279943,525.4139531279943,525.4139531279943,525.4139531279943,525.4139531279943,525.4139531279943,525.4139531279943,525.4139531279943,a,0.6677137650112854,1,822,2,526.1145648770034,527.6147305810009,527.6147305810009,528.1150144249987,,,,,,,,,,,,,,,,,,,,,,,,,,,,,,,,,,,,,,,,,,,,,,,,,,,,,,,,,,,,,,,,,,,,61617,2022-10-27_13h53.33.350,vts_reward_expectancy_bt_OFFLINE,2022.2.4,60.05368427426278,
0,0,1,0,1,0,0,0,hexagon,triangle,2,0,2,0,2,9,33,6,,,,,,,,,,,,,,,,,,,,,,,,,,,,,,,,,,,,,,,,528.1150144249987,528.1150144249987,528.1150144249987,528.1150144249987,528.1150144249987,528.1150144249987,528.1150144249987,528.1150144249987,528.1150144249987,528.1150144249987,l,1.0072503270057496,10,832,2,529.1511294219963,530.6508817169961,,,,,,,,,,,,,,,,,,,,,,,,,,,,,,,,,,,,,,,,,,,,,,,,,,,,,,,,,,,,,,,,,,,,,,61617,2022-10-27_13h53.33.350,vts_reward_expectancy_bt_OFFLINE,2022.2.4,60.05368427426278,
1,0,0,0,0,1,0,0,triangle,circle,2,0,2,0,2,10,34,0,,,,,,,,,,,,,,,,,,,,,,,,,,,,,,,,,,,,,,,,531.1511449929967,531.1511449929967,531.1511449929967,531.1511449929967,531.1511449929967,531.1511449929967,531.1511449929967,531.1511449929967,531.1511449929967,531.1511449929967,a,1.3788402079953812,10,842,2,532.5521585709939,534.0523442029953,534.0523442029953,534.5523167909996,,,,,,,,,,,,,,,,,,,,,,,,,,,,,,,,,,,,,,,,,,,,,,,,,,,,,,,,,,,,,,,,,,,,61617,2022-10-27_13h53.33.350,vts_reward_expectancy_bt_OFFLINE,2022.2.4,60.05368427426278,
0,1,0,0,0,0,1,0,circle,hexagon,2,0,2,0,2,11,35,4,,,,,,,,,,,,,,,,,,,,,,,,,,,,,,,,,,,,,,,,534.5523167909996,534.5523167909996,534.5523167909996,534.5523167909996,534.5523167909996,534.5523167909996,534.5523167909996,534.5523167909996,534.5523167909996,534.5523167909996,a,1.017696461014566,10,852,2,535.5884101419942,537.088712569006,537.088712569006,537.5887359430053,,,,,,,,,,,,,,,,,,,,,,,,,,,,,,,,,,,,,,,,,,,,,,,,,,,,,,,,,,,,,,,,,,,,61617,2022-10-27_13h53.33.350,vts_reward_expectancy_bt_OFFLINE,2022.2.4,60.05368427426278,
0,0,1,0,0,1,0,0,hexagon,circle,2,0,2,0,3,0,36,7,,,,,,,,,,,,,,,,,,,,,,,,,,,,,,,,,,,,,,,,537.5887359430053,537.5887359430053,537.5887359430053,537.5887359430053,537.5887359430053,537.5887359430053,537.5887359430053,537.5887359430053,537.5887359430053,537.5887359430053,l,1.2287154300138354,10,862,2,538.839714488,540.3413654960023,,,,,,,,,,,,,,,,,,,,,,,,,,,,,,,,,,,,,,,,,,,,,,,,,,,,,,,,,,,,,,,,,,,,,,61617,2022-10-27_13h53.33.350,vts_reward_expectancy_bt_OFFLINE,2022.2.4,60.05368427426278,
0,0,1,0,1,0,0,0,hexagon,triangle,2,0,2,0,3,1,37,6,,,,,,,,,,,,,,,,,,,,,,,,,,,,,,,,,,,,,,,,540.8416644410026,540.8416644410026,540.8416644410026,540.8416644410026,540.8416644410026,540.8416644410026,540.8416644410026,540.8416644410026,540.8416644410026,540.8416644410026,l,1.9518236840085592,10,872,2,542.8256266450044,544.3263243169931,544.3263243169931,,,,,,,,,,,,,,,,,,,,,,,,,,,,,,,,,,,,,,,,,,,,,,,,,,,,,,,,,,,,,,,,,,,,,61617,2022-10-27_13h53.33.350,vts_reward_expectancy_bt_OFFLINE,2022.2.4,60.05368427426278,
0,1,0,0,1,0,0,0,circle,triangle,2,0,2,0,3,2,38,3,,,,,,,,,,,,,,,,,,,,,,,,,,,,,,,,,,,,,,,,544.8282694160007,544.8282694160007,544.8282694160007,544.8282694160007,544.8282694160007,544.8282694160007,544.8282694160007,544.8282694160007,544.8282694160007,544.8282694160007,a,1.0379374280018965,1,873,2,545.8978143769928,547.3937908149965,,547.8960229770018,,,,,,,,,,,,,,,,,,,,,,,,,,,,,,,,,,,,,,,,,,,,,,,,,,,,,,,,,,,,,,,,,,,,61617,2022-10-27_13h53.33.350,vts_reward_expectancy_bt_OFFLINE,2022.2.4,60.05368427426278,
0,1,0,0,0,0,0,1,circle,star,2,0,2,0,3,3,39,5,,,,,,,,,,,,,,,,,,,,,,,,,,,,,,,,,,,,,,,,547.8960229770018,547.8960229770018,547.8960229770018,547.8960229770018,547.8960229770018,547.8960229770018,547.8960229770018,547.8960229770018,547.8960229770018,547.8960229770018,a,0.7066138090012828,1,874,2,548.6304471490002,550.1318135579932,,,,,,,,,,,,,,,,,,,,,,,,,,,,,,,,,,,,,,,,,,,,,,,,,,,,,,,,,,,,,,,,,,,,,,61617,2022-10-27_13h53.33.350,vts_reward_expectancy_bt_OFFLINE,2022.2.4,60.05368427426278,
0,1,0,0,0,0,1,0,circle,hexagon,2,0,2,0,3,4,40,4,,,,,,,,,,,,,,,,,,,,,,,,,,,,,,,,,,,,,,,,550.6321721400018,550.6321721400018,550.6321721400018,550.6321721400018,550.6321721400018,550.6321721400018,550.6321721400018,550.6321721400018,550.6321721400018,550.6321721400018,a,1.001744758003042,10,884,2,551.6664136140025,553.1663910339994,553.1663910339994,553.6664603999961,,,,,,,,,,,,,,,,,,,,,,,,,,,,,,,,,,,,,,,,,,,,,,,,,,,,,,,,,,,,,,,,,,,,61617,2022-10-27_13h53.33.350,vts_reward_expectancy_bt_OFFLINE,2022.2.4,60.05368427426278,
0,0,0,1,1,0,0,0,star,triangle,2,0,2,0,3,5,41,9,,,,,,,,,,,,,,,,,,,,,,,,,,,,,,,,,,,,,,,,553.6664603999961,553.6664603999961,553.6664603999961,553.6664603999961,553.6664603999961,553.6664603999961,553.6664603999961,553.6664603999961,553.6664603999961,553.6664603999961,l,0.8634616490016924,10,894,2,554.5507234020042,556.0527688229922,,,,,,,,,,,,,,,,,,,,,,,,,,,,,,,,,,,,,,,,,,,,,,,,,,,,,,,,,,,,,,,,,,,,,,61617,2022-10-27_13h53.33.350,vts_reward_expectancy_bt_OFFLINE,2022.2.4,60.05368427426278,
1,0,0,0,0,0,1,0,triangle,hexagon,2,0,2,0,3,6,42,1,,,,,,,,,,,,,,,,,,,,,,,,,,,,,,,,,,,,,,,,556.5527680280065,556.5527680280065,556.5527680280065,556.5527680280065,556.5527680280065,556.5527680280065,556.5527680280065,556.5527680280065,556.5527680280065,556.5527680280065,a,1.0971613450092264,1,895,2,557.6724612020043,559.1868552980013,,,,,,,,,,,,,,,,,,,,,,,,,,,,,,,,,,,,,,,,,,,,,,,,,,,,,,,,,,,,,,,,,,,,,,61617,2022-10-27_13h53.33.350,vts_reward_expectancy_bt_OFFLINE,2022.2.4,60.05368427426278,
1,0,0,0,0,1,0,0,triangle,circle,2,0,2,0,3,7,43,0,,,,,,,,,,,,,,,,,,,,,,,,,,,,,,,,,,,,,,,,559.6761657619936,559.6761657619936,559.6761657619936,559.6761657619936,559.6761657619936,559.6761657619936,559.6761657619936,559.6761657619936,559.6761657619936,559.6761657619936,a,2.1174782070156652,1,896,2,561.8238120369933,563.323649597005,563.323649597005,,,,,,,,,,,,,,,,,,,,,,,,,,,,,,,,,,,,,,,,,,,,,,,,,,,,,,,,,,,,,,,,,,,,,61617,2022-10-27_13h53.33.350,vts_reward_expectancy_bt_OFFLINE,2022.2.4,60.05368427426278,
1,0,0,0,0,0,0,1,triangle,star,2,0,2,0,3,8,44,2,,,,,,,,,,,,,,,,,,,,,,,,,,,,,,,,,,,,,,,,563.8239783860045,563.8239783860045,563.8239783860045,563.8239783860045,563.8239783860045,563.8239783860045,563.8239783860045,563.8239783860045,563.8239783860045,563.8239783860045,a,1.1059655620047124,10,906,2,564.9624218950048,566.4768030569976,,,,,,,,,,,,,,,,,,,,,,,,,,,,,,,,,,,,,,,,,,,,,,,,,,,,,,,,,,,,,,,,,,,,,,61617,2022-10-27_13h53.33.350,vts_reward_expectancy_bt_OFFLINE,2022.2.4,60.05368427426278,
0,0,1,0,0,0,0,1,hexagon,star,2,0,2,0,3,9,45,8,,,,,,,,,,,,,,,,,,,,,,,,,,,,,,,,,,,,,,,,566.9769215749984,566.9769215749984,566.9769215749984,566.9769215749984,566.9769215749984,566.9769215749984,566.9769215749984,566.9769215749984,566.9769215749984,566.9769215749984,a,1.4409420860174578,10,916,2,568.4448382069968,569.9463030049956,,,,,,,,,,,,,,,,,,,,,,,,,,,,,,,,,,,,,,,,,,,,,,,,,,,,,,,,,,,,,,,,,,,,,,61617,2022-10-27_13h53.33.350,vts_reward_expectancy_bt_OFFLINE,2022.2.4,60.05368427426278,
0,0,0,1,0,0,1,0,star,hexagon,2,0,2,0,3,10,46,11,,,,,,,,,,,,,,,,,,,,,,,,,,,,,,,,,,,,,,,,570.4467682489922,570.4467682489922,570.4467682489922,570.4467682489922,570.4467682489922,570.4467682489922,570.4467682489922,570.4467682489922,570.4467682489922,570.4467682489922,l,0.8115568689972861,1,917,2,571.282851661992,572.7975610349968,,,,,,,,,,,,,,,,,,,,,,,,,,,,,,,,,,,,,,,,,,,,,,,,,,,,,,,,,,,,,,,,,,,,,,61617,2022-10-27_13h53.33.350,vts_reward_expectancy_bt_OFFLINE,2022.2.4,60.05368427426278,
0,0,0,1,0,1,0,0,star ,circle,2,0,2,0,3,11,47,10,,,,,,,,,,,,,,,,,,,,,,,,,,,,,,,,,,,,,,,,573.2977300359926,573.2977300359926,573.2977300359926,573.2977300359926,573.2977300359926,573.2977300359926,573.2977300359926,573.2977300359926,573.2977300359926,573.2977300359926,l,0.9677768370020203,10,927,2,574.2988454610022,575.8002823940042,575.8002823940042,,,,,,,,,,,,,,,,,,,,,,,,,,,,,,,,,,,,,,,,,,,,,,,,,,,,,,,,,,,,,,,,,,,,,61617,2022-10-27_13h53.33.350,vts_reward_expectancy_bt_OFFLINE,2022.2.4,60.05368427426278,
,,,,,,,,,,,,,,,,,,0,0,0,0,0,0,0,0,,,,,,,,,,,,,,,,,,,,,,,,,,,,,,,,,,,,,,,,,,,,,,,,616.296452309005,,,181,W,star,0.0025841430033324286,610.8221104529948,612.3098218119994,612.3098218119994,612.3098218119994,1,0,f,2.445396780007286,0,614.7828132580034,,,,,,,,,,,,,,,,,,,,,,,,,,,,,,,,,,,,,,,,,,,,,,,,,,,,,,61617,2022-10-27_13h53.33.350,vts_reward_expectancy_bt_OFFLINE,2022.2.4,60.05368427426278,
,,,,,,,,,,,,,,,,,,0,0,0,0,1,0,1,0,,,,,,,,,,,,,,,,,,,,,,,,,,,,,,,,,,,,,,,,,,,,,,,,621.5499636580062,,622.0503019909956,146,H,circle,0.009053558998857625,617.2792199389951,618.7640014539938,618.7640014539938,618.7640014539938,1,0,d,1.2615238160069566,0,620.0506703669962,621.5499636580062,,,,,,,,,,,,,,,,,,,,,,,,,,,,,,,,,,,,,,,,,,,,,,,,,,,,,61617,2022-10-27_13h53.33.350,vts_reward_expectancy_bt_OFFLINE,2022.2.4,60.05368427426278,
,,,,,,,,,,,,,,,,,,0,0,0,0,2,0,2,0,,,,,,,,,,,,,,,,,,,,,,,,,,,,,,,,,,,,,,,,,,,,,,,,626.453524468001,,,174,Y,triangle,0.00010354800906497985,622.5465882650024,624.0343457779964,624.0343457779964,624.0343457779964,1,0,f,0.8876248210144695,0,624.9534782959963,626.453524468001,,,,,,,,,,,,,,,,,,,,,,,,,,,,,,,,,,,,,,,,,,,,,,,,,,,,,61617,2022-10-27_13h53.33.350,vts_reward_expectancy_bt_OFFLINE,2022.2.4,60.05368427426278,
,,,,,,,,,,,,,,,,,,0,0,0,0,3,0,3,0,,,,,,,,,,,,,,,,,,,,,,,,,,,,,,,,,,,,,,,,,,,,,,,,631.7239184820064,,632.2242148619989,139,U,hexagon,0.0005676439905073494,627.4497803760023,628.9379415040021,628.9379415040021,628.9379415040021,1,0,d,1.256057551014237,0,630.2239280999929,,,,,,,,,,,,,,,,,,,,,,,,,,,,,,,,,,,,,,,,,,,,,,,,,,,,,,61617,2022-10-27_13h53.33.350,vts_reward_expectancy_bt_OFFLINE,2022.2.4,60.05368427426278,
,,,,,,,,,,,,,,,,,,0,0,0,0,4,0,4,0,,,,,,,,,,,,,,,,,,,,,,,,,,,,,,,,,,,,,,,,,,,,,,,,636.3944937640044,,636.8945534990053,125,F,hexagon,0.0004335959965828806,632.7206049810047,634.2084029410034,634.2084029410034,634.2084029410034,1,0,d,0.6651464170136023,0,634.8945726529928,636.3944937640044,,,,,,,,,,,,,,,,,,,,,,,,,,,,,,,,,,,,,,,,,,,,,,,,,,,,,61617,2022-10-27_13h53.33.350,vts_reward_expectancy_bt_OFFLINE,2022.2.4,60.05368427426278,
,,,,,,,,,,,,,,,,,,0,0,0,0,5,0,5,0,,,,,,,,,,,,,,,,,,,,,,,,,,,,,,,,,,,,,,,,,,,,,,,,641.0311427230045,,,132,D,triangle,0.0002697309973882511,637.3904571269959,638.8787288610038,638.8787288610038,638.8787288610038,1,0,d,0.6197041020204779,0,639.5294282789982,,,,,,,,,,,,,,,,,,,,,,,,,,,,,,,,,,,,,,,,,,,,,,,,,,,,,,61617,2022-10-27_13h53.33.350,vts_reward_expectancy_bt_OFFLINE,2022.2.4,60.05368427426278,
,,,,,,,,,,,,,,,,,,0,0,0,0,6,0,6,0,,,,,,,,,,,,,,,,,,,,,,,,,,,,,,,,,,,,,,,,,,,,,,,,646.0516841659992,,,167,S,circle,0.0020867929997621104,642.0275316960033,643.5153784909926,643.5153784909926,643.5153784909926,1,0,f,1.0148280190041987,0,644.5497257389943,,,,,,,,,,,,,,,,,,,,,,,,,,,,,,,,,,,,,,,,,,,,,,,,,,,,,,61617,2022-10-27_13h53.33.350,vts_reward_expectancy_bt_OFFLINE,2022.2.4,60.05368427426278,
,,,,,,,,,,,,,,,,,,0,0,0,0,7,0,7,0,,,,,,,,,,,,,,,,,,,,,,,,,,,,,,,,,,,,,,,,,,,,,,,,650.6217642249976,,,160,B,star,0.0020021639938931912,647.0473739879963,648.5355840720003,648.5355840720003,648.5355840720003,1,0,f,0.5544610980141442,0,649.1201866850024,,,,,,,,,,,,,,,,,,,,,,,,,,,,,,,,,,,,,,,,,,,,,,,,,,,,,,61617,2022-10-27_13h53.33.350,vts_reward_expectancy_bt_OFFLINE,2022.2.4,60.05368427426278,
,,,,,,,,,,,,,,,,,,0,0,0,0,8,0,8,0,,,,,,,,,,,,,,,,,,,,,,,,,,,,,,,,,,,,,,,,,,,,,,,,655.4414189950039,,,181,W,circle,0.0019537030020728707,651.6173173209972,653.1058262019942,653.1058262019942,653.1058262019942,1,0,f,0.8083668170147575,0,653.9403327079926,,,,,,,,,,,,,,,,,,,,,,,,,,,,,,,,,,,,,,,,,,,,,,,,,,,,,,61617,2022-10-27_13h53.33.350,vts_reward_expectancy_bt_OFFLINE,2022.2.4,60.05368427426278,
,,,,,,,,,,,,,,,,,,0,0,0,0,9,0,9,0,,,,,,,,,,,,,,,,,,,,,,,,,,,,,,,,,,,,,,,,,,,,,,,,660.9290999969962,,,146,H,triangle,0.002083242012304254,656.4372589959967,657.9259330619971,657.9259330619971,657.9259330619971,1,0,d,1.4842467260023113,0,659.4278200109984,,,,,,,,,,,,,,,,,,,,,,,,,,,,,,,,,,,,,,,,,,,,,,,,,,,,,,61617,2022-10-27_13h53.33.350,vts_reward_expectancy_bt_OFFLINE,2022.2.4,60.05368427426278,
,,,,,,,,,,,,,,,,,,,,,,,,,,0,0,0,0,0,0,0,0,,,,,,,,,,,,,,,,,,,,,,,,,,,,,,,,,,,,,,,,682.9608263289992,,683.4611439360015,160,F,star,0.0007914580055512488,,,,,1,0,,,1,681.4614469499938,682.9608263289992,677.8703763249941,679.3577198559942,679.3577198559942,679.3577198559942,j,2.0762678160099313,,,,,,,,,,,,,,,,,,,,,,,,,,,,,,,,,,,,,,,,,,,,,,,61617,2022-10-27_13h53.33.350,vts_reward_expectancy_bt_OFFLINE,2022.2.4,60.05368427426278,
,,,,,,,,,,,,,,,,,,,,,,,,,,0,0,0,0,1,0,1,0,,,,,,,,,,,,,,,,,,,,,,,,,,,,,,,,,,,,,,,,688.0642955170042,,688.5647221120016,139,Y,circle,0.0005075460067018867,,,,,1,0,,,1,686.5650579939975,688.0642955170042,683.9572966029955,685.4466747859988,685.4466747859988,685.4466747859988,k,1.091363622006611,,,,,,,,,,,,,,,,,,,,,,,,,,,,,,,,,,,,,,,,,,,,,,,61617,2022-10-27_13h53.33.350,vts_reward_expectancy_bt_OFFLINE,2022.2.4,60.05368427426278,
,,,,,,,,,,,,,,,,,,,,,,,,,,0,0,0,0,2,0,2,0,,,,,,,,,,,,,,,,,,,,,,,,,,,,,,,,,,,,,,,,693.2015533130034,,693.701718390992,167,H,triangle,0.0002632140094647184,,,,,1,0,,,1,691.7017914659955,693.2015533130034,689.0609426500014,690.5508131609968,690.5508131609968,690.5508131609968,j,1.1233347450033762,,,,,,,,,,,,,,,,,,,,,,,,,,,,,,,,,,,,,,,,,,,,,,,61617,2022-10-27_13h53.33.350,vts_reward_expectancy_bt_OFFLINE,2022.2.4,60.05368427426278,
,,,,,,,,,,,,,,,,,,,,,,,,,,0,0,0,0,3,0,3,0,,,,,,,,,,,,,,,,,,,,,,,,,,,,,,,,,,,,,,,,697.955068160998,,698.4552507579938,125,D,hexagon,0.0005434949998743832,,,,,1,0,,,1,696.4555691010028,697.955068160998,694.1982625160017,695.6874051019986,695.6874051019986,695.6874051019986,j,0.7386204540089238,,,,,,,,,,,,,,,,,,,,,,,,,,,,,,,,,,,,,,,,,,,,,,,61617,2022-10-27_13h53.33.350,vts_reward_expectancy_bt_OFFLINE,2022.2.4,60.05368427426278,
,,,,,,,,,,,,,,,,,,,,,,,,,,0,0,0,0,4,0,4,0,,,,,,,,,,,,,,,,,,,,,,,,,,,,,,,,,,,,,,,,702.625247967997,,703.1254442019999,181,S,circle,0.00016845799109432846,,,,,1,0,,,1,701.1258092749922,702.625247967997,698.9625603820023,700.4410259330034,700.4410259330034,700.4410259330034,k,0.6567090810131049,,,,,,,,,,,,,,,,,,,,,,,,,,,,,,,,,,,,,,,,,,,,,,,61617,2022-10-27_13h53.33.350,vts_reward_expectancy_bt_OFFLINE,2022.2.4,60.05368427426278,
,,,,,,,,,,,,,,,,,,,,,,,,,,0,0,0,0,5,0,5,0,,,,,,,,,,,,,,,,,,,,,,,,,,,,,,,,,,,,,,,,707.5789502120024,,708.0791669869941,132,U,hexagon,0.00038969899469520897,,,,,1,0,,,1,706.0788697520038,707.5789502120024,703.6215019209922,705.1112078400038,705.1112078400038,705.1112078400038,k,0.9467781060084235,,,,,,,,,,,,,,,,,,,,,,,,,,,,,,,,,,,,,,,,,,,,,,,61617,2022-10-27_13h53.33.350,vts_reward_expectancy_bt_OFFLINE,2022.2.4,60.05368427426278,
,,,,,,,,,,,,,,,,,,,,,,,,,,0,0,0,0,6,0,6,0,,,,,,,,,,,,,,,,,,,,,,,,,,,,,,,,,,,,,,,,712.3490948660037,,712.8493306510063,174,B,star,0.0004938650090480223,,,,,1,0,,,1,710.8498756680056,712.3490948660037,708.5752345850051,710.0650070999982,710.0650070999982,710.0650070999982,j,0.7532374040019931,,,,,,,,,,,,,,,,,,,,,,,,,,,,,,,,,,,,,,,,,,,,,,,61617,2022-10-27_13h53.33.350,vts_reward_expectancy_bt_OFFLINE,2022.2.4,60.05368427426278,
,,,,,,,,,,,,,,,,,,,,,,,,,,0,0,0,0,7,0,7,0,,,,,,,,,,,,,,,,,,,,,,,,,,,,,,,,,,,,,,,,717.1193744350021,,717.619584162996,146,W,triangle,2.793500607367605e-05,,,,,1,0,,,1,715.6199791679974,717.1193744350021,713.3566652000009,714.8351785690029,714.8351785690029,714.8351785690029,k,0.7669064520014217,,,,,,,,,,,,,,,,,,,,,,,,,,,,,,,,,,,,,,,,,,,,,,,61617,2022-10-27_13h53.33.350,vts_reward_expectancy_bt_OFFLINE,2022.2.4,60.05368427426278,
,,,,,,,,,,,,,,,,,,,,,,,,,,0,0,0,0,8,0,8,0,,,,,,,,,,,,,,,,,,,,,,,,,,,,,,,,,,,,,,,,722.0565720979939,,722.556567298001,160,F,triangle,0.0003827459877356887,,,,,1,0,,,1,720.5569235639996,722.0565720979939,718.1154193709954,719.6036847969954,719.6036847969954,719.6036847969954,j,0.926869336006348,,,,,,,,,,,,,,,,,,,,,,,,,,,,,,,,,,,,,,,,,,,,,,,61617,2022-10-27_13h53.33.350,vts_reward_expectancy_bt_OFFLINE,2022.2.4,60.05368427426278,
,,,,,,,,,,,,,,,,,,,,,,,,,,0,0,0,0,9,0,9,0,,,,,,,,,,,,,,,,,,,,,,,,,,,,,,,,,,,,,,,,726.8432320309948,,,139,Y,hexagon,0.0004562700050882995,,,,,1,0,,,1,725.3436255940032,726.8432320309948,723.0525789069943,724.5405576899939,724.5405576899939,724.5405576899939,k,0.7808898680086713,,,,,,,,,,,,,,,,,,,,,,,,,,,,,,,,,,,,,,,,,,,,,,,61617,2022-10-27_13h53.33.350,vts_reward_expectancy_bt_OFFLINE,2022.2.4,60.05368427426278,
,,,,,,,,,,,,,,,,,,,,,,,,,,,,,,,,,,0,0,0,0,0,0,0,0,,,,,,,,,,,,,,,,,,,,,,,,,,,,0,927,,,761.1181908940052,,,139,W,triangle,0.0007387820078292862,,,,,-1,0,,,2,,,,,,,,,755.1097426189954,755.1097426189954,755.1097426189954,755.1097426189954,756.598435494001,756.598435494001,756.598435494001,756.598435494001,756.6160356070031,756.6160356070031,756.6160356070031,756.6160356070031,759.6027618789958,759.6027618789958,759.6027618789958,759.6027618789958,-1,no_choice,NA,None,vtsPrac,759.6027618789958,,,,,,,,,,,,,,,,,,,,,,,,,61617,2022-10-27_13h53.33.350,vts_reward_expectancy_bt_OFFLINE,2022.2.4,60.05368427426278,
,,,,,,,,,,,,,,,,,,,,,,,,,,,,,,,,,,0,0,0,0,1,0,1,0,,,,,,,,,,,,,,,,,,,,,,,,,,,,0,927,,,765.9887899010064,,,160,H,hexagon,0.006740619006450288,,,,,1,0,,,2,,,,,,,,,762.1149850770016,762.1149850770016,762.1149850770016,762.1149850770016,763.6025440990052,763.6025440990052,763.6025440990052,763.6025440990052,763.619413701992,763.619413701992,763.619413701992,763.619413701992,,,,,switch,number,numSwt,f,vtsPrac,764.4897386079974,0.8555045700049959,,,,,,,,,,,,,,,,,,,,,,,,61617,2022-10-27_13h53.33.350,vts_reward_expectancy_bt_OFFLINE,2022.2.4,60.05368427426278,
,,,,,,,,,,,,,,,,,,,,,,,,,,,,,,,,,,0,0,0,0,2,0,2,0,,,,,,,,,,,,,,,,,,,,,,,,,,,,0,927,,,770.8422673659952,,,174,U,hexagon,0.0020688900112872943,,,,,1,0,,,2,,,,,,,,,766.9852297860052,766.9852297860052,766.9852297860052,766.9852297860052,768.4726525760052,768.4726525760052,768.4726525760052,768.4726525760052,768.4897409279947,768.4897409279947,768.4897409279947,768.4897409279947,,,,,repeat,number,numRpt,f,vtsPrac,769.3408314800035,0.8414268150081625,,,,,,,,,,,,,,,,,,,,,,,,61617,2022-10-27_13h53.33.350,vts_reward_expectancy_bt_OFFLINE,2022.2.4,60.05368427426278,
,,,,,,,,,,,,,,,,,,,,,,,,,,,,,,,,,,0,0,0,0,3,0,3,0,,,,,,,,,,,,,,,,,,,,,,,,,,,,0,927,,,775.4309088169975,,,125,Y,circle,0.0021403959981398657,,,,,1,0,,,2,,,,,,,,,771.8384614149982,771.8384614149982,771.8384614149982,771.8384614149982,773.3262591069943,773.3262591069943,773.3262591069943,773.3262591069943,773.3430306429946,773.3430306429946,773.3430306429946,773.3430306429946,,,,,switch,letter,lettSwt,k,vtsPrac,773.927869933992,0.5712805420043878,,,,,,,,,,,,,,,,,,,,,,,,61617,2022-10-27_13h53.33.350,vts_reward_expectancy_bt_OFFLINE,2022.2.4,60.05368427426278,
,,,,,,,,,,,,,,,,,,,,,,,,,,,,,,,,,,0,0,0,0,4,0,4,0,,,,,,,,,,,,,,,,,,,,,,,,,,,,0,927,,,780.515933963994,,,139,W,hexagon,0.0020302449993323535,,,,,1,0,,,2,,,,,,,,,776.4250020720065,776.4250020720065,776.4250020720065,776.4250020720065,777.913341787993,777.913341787993,777.913341787993,777.913341787993,777.9298276399932,777.9298276399932,777.9298276399932,777.9298276399932,,,,,switch,number,numSwt,d,vtsPrac,779.0148690530041,1.0812620619981317,,,,,,,,,,,,,,,,,,,,,,,,61617,2022-10-27_13h53.33.350,vts_reward_expectancy_bt_OFFLINE,2022.2.4,60.05368427426278,
,,,,,,,,,,,,,,,,,,,,,,,,,,,,,,,,,,0,0,0,0,5,0,5,0,,,,,,,,,,,,,,,,,,,,,,,,,,,,0,927,,,785.469772299999,,,160,H,triangle,0.001997168001253158,,,,,1,0,,,2,,,,,,,,,781.5118619429995,781.5118619429995,781.5118619429995,781.5118619429995,783.0003027350031,783.0003027350031,783.0003027350031,783.0003027350031,783.0169870999962,783.0169870999962,783.0169870999962,783.0169870999962,,,,,switch,letter,lettSwt,j,vtsPrac,783.9683348169929,0.9457075109967263,,,,,,,,,,,,,,,,,,,,,,,,61617,2022-10-27_13h53.33.350,vts_reward_expectancy_bt_OFFLINE,2022.2.4,60.05368427426278,
,,,,,,,,,,,,,,,,,,,,,,,,,,,,,,,,,,0,0,0,0,6,0,6,0,,,,,,,,,,,,,,,,,,,,,,,,,,,,0,927,,,790.2564499,,,174,U,circle,0.002018521001446061,,,,,1,0,,,2,,,,,,,,,786.465333169006,786.465333169006,786.465333169006,786.465333169006,787.9537984799972,787.9537984799972,787.9537984799972,787.9537984799972,787.9704769399978,787.9704769399978,787.9704769399978,787.9704769399978,,,,,repeat,letter,lettRpt,k,vtsPrac,788.7540593589947,0.7684469840023667,,,,,,,,,,,,,,,,,,,,,,,,61617,2022-10-27_13h53.33.350,vts_reward_expectancy_bt_OFFLINE,2022.2.4,60.05368427426278,
,,,,,,,,,,,,,,,,,,,,,,,,,,,,,,,,,,0,0,0,0,7,0,7,0,,,,,,,,,,,,,,,,,,,,,,,,,,,,0,927,,,795.0434991579968,,,125,Y,hexagon,0.0009656079928390682,,,,,1,0,,,2,,,,,,,,,791.2523663640022,791.2523663640022,791.2523663640022,791.2523663640022,792.7407821369998,792.7407821369998,792.7407821369998,792.7407821369998,792.7573858899996,792.7573858899996,792.7573858899996,792.7573858899996,,,,,switch,number,numSwt,d,vtsPrac,793.5422409119928,0.7812692879961105,,,,,,,,,,,,,,,,,,,,,,,,61617,2022-10-27_13h53.33.350,vts_reward_expectancy_bt_OFFLINE,2022.2.4,60.05368427426278,
,,,,,,,,,,,,,,,,,,,,,,,,,,,,,,,,,,0,0,0,0,8,0,8,0,,,,,,,,,,,,,,,,,,,,,,,,,,,,0,927,,,799.7285686480027,,,160,W,hexagon,0.001691571989795193,,,,,1,0,,,2,,,,,,,,,796.0389780190017,796.0389780190017,796.0389780190017,796.0389780190017,797.5276220060041,797.5276220060041,797.5276220060041,797.5276220060041,797.5444377550011,797.5444377550011,797.5444377550011,797.5444377550011,,,,,switch,letter,lettSwt,k,vtsPrac,798.2290383660002,0.6825727260002168,799.7285686480027,,,,,,,,,,,,,,,,,,,,,,,61617,2022-10-27_13h53.33.350,vts_reward_expectancy_bt_OFFLINE,2022.2.4,60.05368427426278,
,,,,,,,,,,,,,,,,,,,,,,,,,,,,,,,,,,0,0,0,0,9,0,9,0,,,,,,,,,,,,,,,,,,,,,,,,,,,,0,927,,,804.3651717989997,,,146,U,triangle,0.0018526920030126348,,,,,1,0,,,2,,,,,,,,,800.725848927992,800.725848927992,800.725848927992,800.725848927992,802.2145340519928,802.2145340519928,802.2145340519928,802.2145340519928,802.2312479109969,802.2312479109969,802.2312479109969,802.2312479109969,,,,,repeat,letter,lettRpt,k,vtsPrac,802.8661656750046,0.6274954590044217,804.3651717989997,,,,,,,,,,,,,,,,,,,,,,,61617,2022-10-27_13h53.33.350,vts_reward_expectancy_bt_OFFLINE,2022.2.4,60.05368427426278,
,,,,,,,,,,,,,,,,,,,,,,,,,,,,,,,,,,0,0,0,0,10,0,10,0,,,,,,,,,,,,,,,,,,,,,,,,,,,,0,927,,,809.0022767979972,,809.502341475003,139,Y,hexagon,0.004863777998252772,,,,,1,0,,,2,,,,,,,,,805.3638460929942,805.3638460929942,805.3638460929942,805.3638460929942,806.8515229559998,806.8515229559998,806.8515229559998,806.8515229559998,806.8683097759931,806.8683097759931,806.8683097759931,806.8683097759931,,,,,switch,number,numSwt,d,vtsPrac,807.5027104740002,0.6220011880068341,809.0022767979972,,,,,,,,,,,,,,,,,,,,,,,61617,2022-10-27_13h53.33.350,vts_reward_expectancy_bt_OFFLINE,2022.2.4,60.05368427426278,
,,,,,,,,,,,,,,,,,,,,,,,,,,,,,,,,,,0,0,0,0,11,0,11,0,,,,,,,,,,,,,,,,,,,,,,,,,,,,0,927,,,813.672398056995,,814.1723689560022,125,B,circle,0.0006635479949181899,,,,,1,0,,,2,,,,,,,,,809.9987821579998,809.9987821579998,809.9987821579998,809.9987821579998,811.4881278950052,811.4881278950052,811.4881278950052,811.4881278950052,811.5049478019937,811.5049478019937,811.5049478019937,811.5049478019937,,,,,repeat,number,numRpt,d,vtsPrac,812.172720742994,0.6655517000035616,813.672398056995,,,,,,,,,,,,,,,,,,,,,,,61617,2022-10-27_13h53.33.350,vts_reward_expectancy_bt_OFFLINE,2022.2.4,60.05368427426278,
,,,,,,,,,,,,,,,,,,,,,,,,,,,,,,,,,,0,0,0,0,12,0,12,0,,,,,,,,,,,,,,,,,,,,,,,,,,,,0,927,,,818.6926893799973,,819.1929110780038,139,H,star,0.00047665101010352373,,,,,1,0,,,2,,,,,,,,,814.6688389539922,814.6688389539922,814.6688389539922,814.6688389539922,816.1584283429984,816.1584283429984,816.1584283429984,816.1584283429984,816.1749482589948,816.1749482589948,816.1749482589948,816.1749482589948,,,,,repeat,number,numRpt,d,vtsPrac,817.1933852210059,1.0030696269968757,818.6926893799973,,,,,,,,,,,,,,,,,,,,,,,61617,2022-10-27_13h53.33.350,vts_reward_expectancy_bt_OFFLINE,2022.2.4,60.05368427426278,
,,,,,,,,,,,,,,,,,,,,,,,,,,,,,,,,,,0,0,0,0,13,0,13,0,,,,,,,,,,,,,,,,,,,,,,,,,,,,0,927,,,824.2799786239921,,824.780075660994,167,F,triangle,0.0005905340076424181,,,,,1,0,,,2,,,,,,,,,819.6896488670027,819.6896488670027,819.6896488670027,819.6896488670027,821.1787900250056,821.1787900250056,821.1787900250056,821.1787900250056,821.1954426489974,821.1954426489974,821.1954426489974,821.1954426489974,,,,,switch,letter,lettSwt,j,vtsPrac,822.7803844419977,1.5832087540184148,824.2799786239921,,,,,,,,,,,,,,,,,,,,,,,61617,2022-10-27_13h53.33.350,vts_reward_expectancy_bt_OFFLINE,2022.2.4,60.05368427426278,
,,,,,,,,,,,,,,,,,,,,,,,,,,,,,,,,,,0,0,0,0,14,0,14,0,,,,,,,,,,,,,,,,,,,,,,,,,,,,0,927,,,828.9667355239944,,,174,Y,circle,0.0005635790002997965,,,,,1,0,,,2,,,,,,,,,825.276330106004,825.276330106004,825.276330106004,825.276330106004,826.765876970996,826.765876970996,826.765876970996,826.765876970996,826.7827737740008,826.7827737740008,826.7827737740008,826.7827737740008,,,,,repeat,letter,lettRpt,k,vtsPrac,827.4511276919948,0.6524050000007264,,,,,,,,,,,,,,,,,,,,,,,,61617,2022-10-27_13h53.33.350,vts_reward_expectancy_bt_OFFLINE,2022.2.4,60.05368427426278,
,,,,,,,,,,,,,,,,,,,,,,,,,,,,,,,,,,0,0,0,0,15,0,15,0,,,,,,,,,,,,,,,,,,,,,,,,,,,,0,927,,,833.6700748370058,,,160,D,triangle,0.01660396200895775,,,,,1,0,,,2,,,,,,,,,829.9634646149934,829.9634646149934,829.9634646149934,829.9634646149934,831.4362201740005,831.4362201740005,831.4362201740005,831.4362201740005,831.4693584380002,831.4693584380002,831.4693584380002,831.4693584380002,,,,,repeat,letter,lettRpt,j,vtsPrac,832.1545752910024,0.6937065689999145,,,,,,,,,,,,,,,,,,,,,,,,61617,2022-10-27_13h53.33.350,vts_reward_expectancy_bt_OFFLINE,2022.2.4,60.05368427426278,
,,,,,,,,,,,,,,,,,,,,,,,,,,,,,,,,,,,,,,,,,,0,0,0,0,,,,,,,,,,,,,,,,,,,,,,,,0,927,,,865.144502968993,,,146,F,circle,0.00303179700858891,,,,,1,0,,,,,,,,,,,,860.7367697180016,860.7367697180016,860.7367697180016,860.7367697180016,862.2248249149998,862.2248249149998,862.2248249149998,862.2248249149998,862.2415823210031,862.2415823210031,862.2415823210031,862.2415823210031,,,,,switch,number,numSwt,d,noRew,,1.393121051005437,,0,863.6455390519986,,,,,,,,,,,,,,,,,,,,,61617,2022-10-27_13h53.33.350,vts_reward_expectancy_bt_OFFLINE,2022.2.4,60.05368427426278,
,,,,,,,,,,,,,,,,,,,,,,,,,,,,,,,,,,,,,,,,,,1,0,1,0,,,,,,,,,,,,,,,,,,,,,,,,0,927,,,870.0312717320048,,,181,W,star,0.0015757499932078645,,,,,1,0,,,,,,,,,,,,866.1404621919937,866.1404621919937,866.1404621919937,866.1404621919937,867.6286621790059,867.6286621790059,867.6286621790059,867.6286621790059,867.6453018769971,867.6453018769971,867.6453018769971,867.6453018769971,,,,,repeat,number,numRpt,f,noRew,,0.8772357249981724,,0,868.5304405570059,,,,,,,,,,,,,,,,,,,,,61617,2022-10-27_13h53.33.350,vts_reward_expectancy_bt_OFFLINE,2022.2.4,60.05368427426278,
,,,,,,,,,,,,,,,,,,,,,,,,,,,,,,,,,,,,,,,,,,2,0,2,0,,,,,,,,,,,,,,,,,,,,,,,,0,927,,,875.6518253579998,,,167,U,star,0.0019177060021320358,,,,,1,0,,,,,,,,,,,,871.0269297180057,871.0269297180057,871.0269297180057,871.0269297180057,872.5157329939975,872.5157329939975,872.5157329939975,872.5157329939975,872.5323796629964,872.5323796629964,872.5323796629964,872.5323796629964,,,,,switch,letter,lettSwt,k,noRew,,1.6138289280061144,,0,874.1507945850026,,,,,,,,,,,,,,,,,,,,,61617,2022-10-27_13h53.33.350,vts_reward_expectancy_bt_OFFLINE,2022.2.4,60.05368427426278,
,,,,,,,,,,,,,,,,,,,,,,,,,,,,,,,,,,,,,,,,,,3,0,3,0,,,,,,,,,,,,,,,,,,,,,,,,0,927,,,880.9223147059965,,,160,B,triangle,0.0019260690023656934,,,,,1,0,,,,,,,,,,,,876.6476406559959,876.6476406559959,876.6476406559959,876.6476406559959,878.1361925469973,878.1361925469973,878.1361925469973,878.1361925469973,878.1528390790045,878.1528390790045,878.1528390790045,878.1528390790045,,,,,switch,number,numSwt,f,noRew,,1.2577992490114411,,0,879.4210168489954,,,,,,,,,,,,,,,,,,,,,61617,2022-10-27_13h53.33.350,vts_reward_expectancy_bt_OFFLINE,2022.2.4,60.05368427426278,
,,,,,,,,,,,,,,,,,,,,,,,,,,,,,,,,,,,,,,,,,,4,0,4,0,,,,,,,,,,,,,,,,,,,,,,,,0,927,,,885.7923691579927,,,146,F,triangle,0.0023206479963846505,,,,,1,0,,,,,,,,,,,,881.9185063719924,881.9185063719924,881.9185063719924,881.9185063719924,883.4063183499966,883.4063183499966,883.4063183499966,883.4063183499966,883.4230325450044,883.4230325450044,883.4230325450044,883.4230325450044,,,,,switch,letter,lettSwt,j,noRew,,0.8597517210146179,,0,884.2915169589978,,,,,,,,,,,,,,,,,,,,,61617,2022-10-27_13h53.33.350,vts_reward_expectancy_bt_OFFLINE,2022.2.4,60.05368427426278,
,,,,,,,,,,,,,,,,,,,,,,,,,,,,,,,,,,,,,,,,,,5,0,5,0,,,,,,,,,,,,,,,,,,,,,,,,0,927,,,890.5123985969985,,,181,W,hexagon,0.0019660789985209703,,,,,1,0,,,,,,,,,,,,886.7883777579991,886.7883777579991,886.7883777579991,886.7883777579991,888.276762894995,888.276762894995,888.276762894995,888.276762894995,888.2933668579935,888.2933668579935,888.2933668579935,888.2933668579935,,,,,repeat,letter,lettRpt,k,noRew,,0.7009495070087723,,0,889.0100676909933,890.5123985969985,,,,,,,,,,,,,,,,,,,,61617,2022-10-27_13h53.33.350,vts_reward_expectancy_bt_OFFLINE,2022.2.4,60.05368427426278,
,,,,,,,,,,,,,,,,,,,,,,,,,,,,,,,,,,,,,,,,,,6,0,6,0,,,,,,,,,,,,,,,,,,,,,,,,0,927,,,895.1662400390051,,,167,U,star,0.0005944989970885217,,,,,1,0,,,,,,,,,,,,891.5084388230025,891.5084388230025,891.5084388230025,891.5084388230025,892.9968409360008,892.9968409360008,892.9968409360008,892.9968409360008,893.0132516790036,893.0132516790036,893.0132516790036,893.0132516790036,,,,,repeat,letter,lettRpt,k,noRew,,0.63737152601243,,0,893.6656096460065,,,,,,,,,,,,,,,,,,,,,61617,2022-10-27_13h53.33.350,vts_reward_expectancy_bt_OFFLINE,2022.2.4,60.05368427426278,
,,,,,,,,,,,,,,,,,,,,,,,,,,,,,,,,,,,,,,,,,,7,0,7,0,,,,,,,,,,,,,,,,,,,,,,,,0,927,,,901.2370359219931,,,160,B,triangle,0.0018092210084432736,,,,,1,0,,,,,,,,,,,,896.1620112100063,896.1620112100063,896.1620112100063,896.1620112100063,897.6503861249948,897.6503861249948,897.6503861249948,897.6503861249948,897.6670165560063,897.6670165560063,897.6670165560063,897.6670165560063,,,,,switch,number,numSwt,f,noRew,,2.055874900019262,,0,899.7360918930062,,,,,,,,,,,,,,,,,,,,,61617,2022-10-27_13h53.33.350,vts_reward_expectancy_bt_OFFLINE,2022.2.4,60.05368427426278,
,,,,,,,,,,,,,,,,,,,,,,,,,,,,,,,,,,,,,,,,,,8,0,8,0,,,,,,,,,,,,,,,,,,,,,,,,0,927,,,905.8403759020002,,,139,B,hexagon,0.0019431290129432455,,,,,1,0,,,,,,,,,,,,902.2324158109986,902.2324158109986,902.2324158109986,902.2324158109986,903.7214210189995,903.7214210189995,903.7214210189995,903.7214210189995,903.7378074040025,903.7378074040025,903.7378074040025,903.7378074040025,,,,,switch,letter,lettSwt,j,noRew,,0.5923180650133872,,0,904.3395378610003,,,,,,,,,,,,,,,,,,,,,61617,2022-10-27_13h53.33.350,vts_reward_expectancy_bt_OFFLINE,2022.2.4,60.05368427426278,
,,,,,,,,,,,,,,,,,,,,,,,,,,,,,,,,,,,,,,,,,,9,0,9,0,,,,,,,,,,,,,,,,,,,,,,,,0,927,,,910.5603982640023,,911.0606523799943,181,S,circle,0.0020147600007476285,,,,,1,0,,,,,,,,,,,,906.8365375260037,906.8365375260037,906.8365375260037,906.8365375260037,908.324787354999,908.324787354999,908.324787354999,908.324787354999,908.3411386780062,908.3411386780062,908.3411386780062,908.3411386780062,,,,,switch,number,numSwt,f,noRew,,0.701565922005102,,0,909.0582178250042,910.5603982640023,,,,,,,,,,,,,,,,,,,,61617,2022-10-27_13h53.33.350,vts_reward_expectancy_bt_OFFLINE,2022.2.4,60.05368427426278,
