LTriangleOpac,LCircleOpac,LHexagonOpac,LStarOpac,RTriangleOpac,RCircleOpac,RHexagonOpac,RStarOpac,LShape_ID,RShape_ID,training_blocks.thisRepN,training_blocks.thisTrialN,training_blocks.thisN,training_blocks.thisIndex,training.thisRepN,training.thisTrialN,training.thisN,training.thisIndex,task1_prac_redo.thisRepN,task1_prac_redo.thisTrialN,task1_prac_redo.thisN,task1_prac_redo.thisIndex,task1_prac_trials.thisRepN,task1_prac_trials.thisTrialN,task1_prac_trials.thisN,task1_prac_trials.thisIndex,task2_prac_redo.thisRepN,task2_prac_redo.thisTrialN,task2_prac_redo.thisN,task2_prac_redo.thisIndex,task2_praac_trials.thisRepN,task2_praac_trials.thisTrialN,task2_praac_trials.thisN,task2_praac_trials.thisIndex,vts_prac_redo.thisRepN,vts_prac_redo.thisTrialN,vts_prac_redo.thisN,vts_prac_redo.thisIndex,vts_practice_trials.thisRepN,vts_practice_trials.thisTrialN,vts_practice_trials.thisN,vts_practice_trials.thisIndex,trials_norew.thisRepN,trials_norew.thisTrialN,trials_norew.thisN,trials_norew.thisIndex,block.thisRepN,block.thisTrialN,block.thisN,block.thisIndex,trials_rew.thisRepN,trials_rew.thisTrialN,trials_rew.thisN,trials_rew.thisIndex,key_resp.started,key_resp.keys,key_resp.rt,left_circle.started,right_circle.started,left_triangle.started,right_triangle.started,left_star.started,right_star.started,left_hexagon.started,right_hexagon.started,training_fix.started,training_resp.started,training_resp.keys,training_resp.rt,points_trial,points_cumul,trainBlock,training_feedback_txt.started,fix.started,training_feedback_txt.stopped,fix.stopped,curr_topStim,curr_bottStim,curr_shape,ISI.started,tgt_fix_prac1.started,top_target_prac1.started,bott_target_prac1.started,target_resp_prac1.started,acc,E1,target_resp_prac1.keys,target_resp_prac1.rt,pracBlock,prac_fback_text.started,prac_fback_text.stopped,tgt_fix_prac2.started,top_target_prac2.started,bott_target_prac2.started,target_resp_prac2.started,target_resp_prac2.keys,target_resp_prac2.rt,star.started,hegagon.started,triangle.started,circle.started,top_target.started,tgt_fix.started,bot_target.started,target_resp.started,star.stopped,hegagon.stopped,triangle.stopped,circle.stopped,alt,task,condition,target_resp.keys,target_resp.rt,rewCond,vts_fback.started,vts_fback.stopped,blockNum,norew_fback.started,norew_fback.stopped,key_resp_2.keys,key_resp_2.rt,rewExpectancy,feedbk_text.started,feedbk_text.stopped,text_3.started,debrief.started,text_3.stopped,button.started,debrief.index,debrief.itemText,debrief.type,debrief.granularity,debrief.font,debrief.markerColor,debrief.response,debrief.rt,button.numClicks,button.timesOn,button.timesOff,participant,date,expName,psychopyVersion,frameRate,
,,,,,,,,,,,,,,,,,,,,,,,,,,,,,,,,,,,,,,,,,,,,,,,,,,,,,,11.647546094027348,space,20.032438849913888,,,,,,,,,,,,,,,,,,,,,,,,,,,,,,,,,,,,,,,,,,,,,,,,,,,,,,,,,,,,,,,,,,,,,,,,,,,,,,,,,,,,62010,2022-11-09_10h21.42.461,vts_reward_expectancy_bt_OFFLINE,2022.2.4,59.97116981696934,
0,0,0,1,0,0,1,0,star,hexagon,0,0,0,0,0,0,0,11,,,,,,,,,,,,,,,,,,,,,,,,,,,,,,,,,,,,,,,,69.30122466001194,69.30122466001194,69.30122466001194,69.30122466001194,69.30122466001194,69.30122466001194,69.30122466001194,69.30122466001194,69.30122466001194,69.30122466001194,a,1.9131314650876448,10,10,0,71.24424680997618,72.75957593799103,,,,,,,,,,,,,,,,,,,,,,,,,,,,,,,,,,,,,,,,,,,,,,,,,,,,,,,,,,,,,,,,,,,62010,2022-11-09_10h21.42.461,vts_reward_expectancy_bt_OFFLINE,2022.2.4,59.97116981696934,
0,0,1,0,0,1,0,0,hexagon,circle,0,0,0,0,0,1,1,7,,,,,,,,,,,,,,,,,,,,,,,,,,,,,,,,,,,,,,,,73.25987442198675,73.25987442198675,73.25987442198675,73.25987442198675,73.25987442198675,73.25987442198675,73.25987442198675,73.25987442198675,73.25987442198675,73.25987442198675,a,1.8242233140626922,10,20,0,75.11043328302912,76.61260006704833,,,,,,,,,,,,,,,,,,,,,,,,,,,,,,,,,,,,,,,,,,,,,,,,,,,,,,,,,,,,,,,,,,,62010,2022-11-09_10h21.42.461,vts_reward_expectancy_bt_OFFLINE,2022.2.4,59.97116981696934,
0,0,1,0,0,0,0,1,hexagon,star,0,0,0,0,0,2,2,8,,,,,,,,,,,,,,,,,,,,,,,,,,,,,,,,,,,,,,,,77.11299220204819,77.11299220204819,77.11299220204819,77.11299220204819,77.11299220204819,77.11299220204819,77.11299220204819,77.11299220204819,77.11299220204819,77.11299220204819,l,1.1441717660054564,10,30,0,78.28011395107023,79.78057105198968,79.78057105198968,80.2807393539697,,,,,,,,,,,,,,,,,,,,,,,,,,,,,,,,,,,,,,,,,,,,,,,,,,,,,,,,,,,,,,,,,62010,2022-11-09_10h21.42.461,vts_reward_expectancy_bt_OFFLINE,2022.2.4,59.97116981696934,
0,1,0,0,0,0,0,1,circle,star,0,0,0,0,0,3,3,5,,,,,,,,,,,,,,,,,,,,,,,,,,,,,,,,,,,,,,,,80.2807393539697,80.2807393539697,80.2807393539697,80.2807393539697,80.2807393539697,80.2807393539697,80.2807393539697,80.2807393539697,80.2807393539697,80.2807393539697,l,0.8106625529471785,1,31,0,81.11713243706618,82.61669177201111,82.61669177201111,83.11692496598698,,,,,,,,,,,,,,,,,,,,,,,,,,,,,,,,,,,,,,,,,,,,,,,,,,,,,,,,,,,,,,,,,62010,2022-11-09_10h21.42.461,vts_reward_expectancy_bt_OFFLINE,2022.2.4,59.97116981696934,
1,0,0,0,0,1,0,0,triangle,circle,0,0,0,0,0,4,4,0,,,,,,,,,,,,,,,,,,,,,,,,,,,,,,,,,,,,,,,,83.11692496598698,83.11692496598698,83.11692496598698,83.11692496598698,83.11692496598698,83.11692496598698,83.11692496598698,83.11692496598698,83.11692496598698,83.11692496598698,a,1.9352150580380112,10,41,0,85.08423867099918,86.58683480205946,,,,,,,,,,,,,,,,,,,,,,,,,,,,,,,,,,,,,,,,,,,,,,,,,,,,,,,,,,,,,,,,,,,62010,2022-11-09_10h21.42.461,vts_reward_expectancy_bt_OFFLINE,2022.2.4,59.97116981696934,
0,0,0,1,0,1,0,0,star ,circle,0,0,0,0,0,5,5,10,,,,,,,,,,,,,,,,,,,,,,,,,,,,,,,,,,,,,,,,87.08697021496482,87.08697021496482,87.08697021496482,87.08697021496482,87.08697021496482,87.08697021496482,87.08697021496482,87.08697021496482,87.08697021496482,87.08697021496482,a,2.1835876590339467,10,51,0,89.2876060140552,90.7882459340617,90.7882459340617,,,,,,,,,,,,,,,,,,,,,,,,,,,,,,,,,,,,,,,,,,,,,,,,,,,,,,,,,,,,,,,,,,62010,2022-11-09_10h21.42.461,vts_reward_expectancy_bt_OFFLINE,2022.2.4,59.97116981696934,
0,0,0,1,1,0,0,0,star,triangle,0,0,0,0,0,6,6,9,,,,,,,,,,,,,,,,,,,,,,,,,,,,,,,,,,,,,,,,91.29013414902147,91.29013414902147,91.29013414902147,91.29013414902147,91.29013414902147,91.29013414902147,91.29013414902147,91.29013414902147,91.29013414902147,91.29013414902147,l,2.2784579320577905,10,61,0,93.59108063706663,95.09168819198385,95.09168819198385,95.59168785798829,,,,,,,,,,,,,,,,,,,,,,,,,,,,,,,,,,,,,,,,,,,,,,,,,,,,,,,,,,,,,,,,,62010,2022-11-09_10h21.42.461,vts_reward_expectancy_bt_OFFLINE,2022.2.4,59.97116981696934,
1,0,0,0,0,0,1,0,triangle,hexagon,0,0,0,0,0,7,7,1,,,,,,,,,,,,,,,,,,,,,,,,,,,,,,,,,,,,,,,,95.59168785798829,95.59168785798829,95.59168785798829,95.59168785798829,95.59168785798829,95.59168785798829,95.59168785798829,95.59168785798829,95.59168785798829,95.59168785798829,l,2.8939882339909673,1,62,0,98.51235568802804,100.01171290501952,100.01171290501952,100.5119382860139,,,,,,,,,,,,,,,,,,,,,,,,,,,,,,,,,,,,,,,,,,,,,,,,,,,,,,,,,,,,,,,,,62010,2022-11-09_10h21.42.461,vts_reward_expectancy_bt_OFFLINE,2022.2.4,59.97116981696934,
1,0,0,0,0,0,0,1,triangle,star,0,0,0,0,0,8,8,2,,,,,,,,,,,,,,,,,,,,,,,,,,,,,,,,,,,,,,,,100.5119382860139,100.5119382860139,100.5119382860139,100.5119382860139,100.5119382860139,100.5119382860139,100.5119382860139,100.5119382860139,100.5119382860139,100.5119382860139,a,1.3266989489784464,10,72,0,101.86489090207033,103.36516036104877,103.36516036104877,103.86486416403204,,,,,,,,,,,,,,,,,,,,,,,,,,,,,,,,,,,,,,,,,,,,,,,,,,,,,,,,,,,,,,,,,62010,2022-11-09_10h21.42.461,vts_reward_expectancy_bt_OFFLINE,2022.2.4,59.97116981696934,
0,1,0,0,1,0,0,0,circle,triangle,0,0,0,0,0,9,9,3,,,,,,,,,,,,,,,,,,,,,,,,,,,,,,,,,,,,,,,,103.86486416403204,103.86486416403204,103.86486416403204,103.86486416403204,103.86486416403204,103.86486416403204,103.86486416403204,103.86486416403204,103.86486416403204,103.86486416403204,l,1.3261940440861508,1,73,0,105.21644807700068,106.71820743905846,,,,,,,,,,,,,,,,,,,,,,,,,,,,,,,,,,,,,,,,,,,,,,,,,,,,,,,,,,,,,,,,,,,62010,2022-11-09_10h21.42.461,vts_reward_expectancy_bt_OFFLINE,2022.2.4,59.97116981696934,
0,1,0,0,0,0,1,0,circle,hexagon,0,0,0,0,0,10,10,4,,,,,,,,,,,,,,,,,,,,,,,,,,,,,,,,,,,,,,,,107.21822770603467,107.21822770603467,107.21822770603467,107.21822770603467,107.21822770603467,107.21822770603467,107.21822770603467,107.21822770603467,107.21822770603467,107.21822770603467,a,1.054489939007908,1,74,0,108.30186721403152,109.80251621105708,109.80251621105708,110.3024508029921,,,,,,,,,,,,,,,,,,,,,,,,,,,,,,,,,,,,,,,,,,,,,,,,,,,,,,,,,,,,,,,,,62010,2022-11-09_10h21.42.461,vts_reward_expectancy_bt_OFFLINE,2022.2.4,59.97116981696934,
0,0,1,0,1,0,0,0,hexagon,triangle,0,0,0,0,0,11,11,6,,,,,,,,,,,,,,,,,,,,,,,,,,,,,,,,,,,,,,,,110.3024508029921,110.3024508029921,110.3024508029921,110.3024508029921,110.3024508029921,110.3024508029921,110.3024508029921,110.3024508029921,110.3024508029921,110.3024508029921,a,1.5591895979596302,1,75,0,111.88857783703133,113.38924057001714,113.38924057001714,113.88919360504951,,,,,,,,,,,,,,,,,,,,,,,,,,,,,,,,,,,,,,,,,,,,,,,,,,,,,,,,,,,,,,,,,62010,2022-11-09_10h21.42.461,vts_reward_expectancy_bt_OFFLINE,2022.2.4,59.97116981696934,
0,1,0,0,0,0,1,0,circle,hexagon,0,0,0,0,1,0,12,4,,,,,,,,,,,,,,,,,,,,,,,,,,,,,,,,,,,,,,,,113.88919360504951,113.88919360504951,113.88919360504951,113.88919360504951,113.88919360504951,113.88919360504951,113.88919360504951,113.88919360504951,113.88919360504951,113.88919360504951,l,1.0218973499722779,10,85,0,114.94056400703266,116.44203259795904,,,,,,,,,,,,,,,,,,,,,,,,,,,,,,,,,,,,,,,,,,,,,,,,,,,,,,,,,,,,,,,,,,,62010,2022-11-09_10h21.42.461,vts_reward_expectancy_bt_OFFLINE,2022.2.4,59.97116981696934,
0,0,0,1,0,1,0,0,star ,circle,0,0,0,0,1,1,13,10,,,,,,,,,,,,,,,,,,,,,,,,,,,,,,,,,,,,,,,,116.94207905803341,116.94207905803341,116.94207905803341,116.94207905803341,116.94207905803341,116.94207905803341,116.94207905803341,116.94207905803341,116.94207905803341,116.94207905803341,a,0.8824808360077441,10,95,0,117.8424195520347,119.34285816003103,119.34285816003103,119.84315544902347,,,,,,,,,,,,,,,,,,,,,,,,,,,,,,,,,,,,,,,,,,,,,,,,,,,,,,,,,,,,,,,,,62010,2022-11-09_10h21.42.461,vts_reward_expectancy_bt_OFFLINE,2022.2.4,59.97116981696934,
0,0,0,1,0,0,1,0,star,hexagon,0,0,0,0,1,2,14,11,,,,,,,,,,,,,,,,,,,,,,,,,,,,,,,,,,,,,,,,119.84315544902347,119.84315544902347,119.84315544902347,119.84315544902347,119.84315544902347,119.84315544902347,119.84315544902347,119.84315544902347,119.84315544902347,119.84315544902347,a,1.559750271961093,1,96,0,121.42972501995973,122.9292759320233,122.9292759320233,123.42943334102165,,,,,,,,,,,,,,,,,,,,,,,,,,,,,,,,,,,,,,,,,,,,,,,,,,,,,,,,,,,,,,,,,62010,2022-11-09_10h21.42.461,vts_reward_expectancy_bt_OFFLINE,2022.2.4,59.97116981696934,
0,0,1,0,0,1,0,0,hexagon,circle,0,0,0,0,1,3,15,7,,,,,,,,,,,,,,,,,,,,,,,,,,,,,,,,,,,,,,,,123.42943334102165,123.42943334102165,123.42943334102165,123.42943334102165,123.42943334102165,123.42943334102165,123.42943334102165,123.42943334102165,123.42943334102165,123.42943334102165,a,0.886605384061113,10,106,0,124.34744242602028,125.85196773998905,,,,,,,,,,,,,,,,,,,,,,,,,,,,,,,,,,,,,,,,,,,,,,,,,,,,,,,,,,,,,,,,,,,62010,2022-11-09_10h21.42.461,vts_reward_expectancy_bt_OFFLINE,2022.2.4,59.97116981696934,
0,0,1,0,1,0,0,0,hexagon,triangle,0,0,0,0,1,4,16,6,,,,,,,,,,,,,,,,,,,,,,,,,,,,,,,,,,,,,,,,126.34893900901079,126.34893900901079,126.34893900901079,126.34893900901079,126.34893900901079,126.34893900901079,126.34893900901079,126.34893900901079,126.34893900901079,126.34893900901079,l,0.9497178139863536,10,116,0,127.31618920899928,128.81667741306592,128.81667741306592,129.316865597968,,,,,,,,,,,,,,,,,,,,,,,,,,,,,,,,,,,,,,,,,,,,,,,,,,,,,,,,,,,,,,,,,62010,2022-11-09_10h21.42.461,vts_reward_expectancy_bt_OFFLINE,2022.2.4,59.97116981696934,
1,0,0,0,0,0,0,1,triangle,star,0,0,0,0,1,5,17,2,,,,,,,,,,,,,,,,,,,,,,,,,,,,,,,,,,,,,,,,129.316865597968,129.316865597968,129.316865597968,129.316865597968,129.316865597968,129.316865597968,129.316865597968,129.316865597968,129.316865597968,129.316865597968,l,1.367176088038832,1,117,0,130.70174424396828,132.20326546696015,,,,,,,,,,,,,,,,,,,,,,,,,,,,,,,,,,,,,,,,,,,,,,,,,,,,,,,,,,,,,,,,,,,62010,2022-11-09_10h21.42.461,vts_reward_expectancy_bt_OFFLINE,2022.2.4,59.97116981696934,
1,0,0,0,0,0,1,0,triangle,hexagon,0,0,0,0,1,6,18,1,,,,,,,,,,,,,,,,,,,,,,,,,,,,,,,,,,,,,,,,132.70323020406067,132.70323020406067,132.70323020406067,132.70323020406067,132.70323020406067,132.70323020406067,132.70323020406067,132.70323020406067,132.70323020406067,132.70323020406067,a,1.9636135030305013,1,118,0,134.68718176102266,136.18965052696876,,,,,,,,,,,,,,,,,,,,,,,,,,,,,,,,,,,,,,,,,,,,,,,,,,,,,,,,,,,,,,,,,,,62010,2022-11-09_10h21.42.461,vts_reward_expectancy_bt_OFFLINE,2022.2.4,59.97116981696934,
0,1,0,0,1,0,0,0,circle,triangle,0,0,0,0,1,7,19,3,,,,,,,,,,,,,,,,,,,,,,,,,,,,,,,,,,,,,,,,136.68978799006436,136.68978799006436,136.68978799006436,136.68978799006436,136.68978799006436,136.68978799006436,136.68978799006436,136.68978799006436,136.68978799006436,136.68978799006436,l,1.7685782100306824,1,119,0,138.4906178789679,139.99103504698724,139.99103504698724,140.4912923759548,,,,,,,,,,,,,,,,,,,,,,,,,,,,,,,,,,,,,,,,,,,,,,,,,,,,,,,,,,,,,,,,,62010,2022-11-09_10h21.42.461,vts_reward_expectancy_bt_OFFLINE,2022.2.4,59.97116981696934,
0,1,0,0,0,0,0,1,circle,star,0,0,0,0,1,8,20,5,,,,,,,,,,,,,,,,,,,,,,,,,,,,,,,,,,,,,,,,140.4912923759548,140.4912923759548,140.4912923759548,140.4912923759548,140.4912923759548,140.4912923759548,140.4912923759548,140.4912923759548,140.4912923759548,140.4912923759548,l,2.3880621920106933,1,120,0,142.91052139597014,144.41105463996064,144.41105463996064,144.91125776502304,,,,,,,,,,,,,,,,,,,,,,,,,,,,,,,,,,,,,,,,,,,,,,,,,,,,,,,,,,,,,,,,,62010,2022-11-09_10h21.42.461,vts_reward_expectancy_bt_OFFLINE,2022.2.4,59.97116981696934,
0,0,1,0,0,0,0,1,hexagon,star,0,0,0,0,1,9,21,8,,,,,,,,,,,,,,,,,,,,,,,,,,,,,,,,,,,,,,,,144.91125776502304,144.91125776502304,144.91125776502304,144.91125776502304,144.91125776502304,144.91125776502304,144.91125776502304,144.91125776502304,144.91125776502304,144.91125776502304,l,1.6925031089922413,1,121,0,146.63030505203642,148.1309055989841,148.1309055989841,148.63106111995876,,,,,,,,,,,,,,,,,,,,,,,,,,,,,,,,,,,,,,,,,,,,,,,,,,,,,,,,,,,,,,,,,62010,2022-11-09_10h21.42.461,vts_reward_expectancy_bt_OFFLINE,2022.2.4,59.97116981696934,
1,0,0,0,0,1,0,0,triangle,circle,0,0,0,0,1,10,22,0,,,,,,,,,,,,,,,,,,,,,,,,,,,,,,,,,,,,,,,,148.63106111995876,148.63106111995876,148.63106111995876,148.63106111995876,148.63106111995876,148.63106111995876,148.63106111995876,148.63106111995876,148.63106111995876,148.63106111995876,l,1.032629112014547,10,131,0,149.68264425196685,151.18400393798947,,,,,,,,,,,,,,,,,,,,,,,,,,,,,,,,,,,,,,,,,,,,,,,,,,,,,,,,,,,,,,,,,,,62010,2022-11-09_10h21.42.461,vts_reward_expectancy_bt_OFFLINE,2022.2.4,59.97116981696934,
0,0,0,1,1,0,0,0,star,triangle,0,0,0,0,1,11,23,9,,,,,,,,,,,,,,,,,,,,,,,,,,,,,,,,,,,,,,,,151.68397234298754,151.68397234298754,151.68397234298754,151.68397234298754,151.68397234298754,151.68397234298754,151.68397234298754,151.68397234298754,151.68397234298754,151.68397234298754,l,2.0188437250908464,10,141,0,153.73478589300066,155.23551055404823,155.23551055404823,155.73540693998802,,,,,,,,,,,,,,,,,,,,,,,,,,,,,,,,,,,,,,,,,,,,,,,,,,,,,,,,,,,,,,,,,62010,2022-11-09_10h21.42.461,vts_reward_expectancy_bt_OFFLINE,2022.2.4,59.97116981696934,
1,0,0,0,0,0,0,1,triangle,star,0,0,0,0,2,0,24,2,,,,,,,,,,,,,,,,,,,,,,,,,,,,,,,,,,,,,,,,155.73540693998802,155.73540693998802,155.73540693998802,155.73540693998802,155.73540693998802,155.73540693998802,155.73540693998802,155.73540693998802,155.73540693998802,155.73540693998802,a,1.4785844319267198,10,151,0,157.23785636899993,158.7385736090364,158.7385736090364,159.23869626503438,,,,,,,,,,,,,,,,,,,,,,,,,,,,,,,,,,,,,,,,,,,,,,,,,,,,,,,,,,,,,,,,,62010,2022-11-09_10h21.42.461,vts_reward_expectancy_bt_OFFLINE,2022.2.4,59.97116981696934,
0,1,0,0,1,0,0,0,circle,triangle,0,0,0,0,2,1,25,3,,,,,,,,,,,,,,,,,,,,,,,,,,,,,,,,,,,,,,,,159.23869626503438,159.23869626503438,159.23869626503438,159.23869626503438,159.23869626503438,159.23869626503438,159.23869626503438,159.23869626503438,159.23869626503438,159.23869626503438,l,1.136207522940822,10,161,0,160.4056459260173,161.90815193299204,,,,,,,,,,,,,,,,,,,,,,,,,,,,,,,,,,,,,,,,,,,,,,,,,,,,,,,,,,,,,,,,,,,62010,2022-11-09_10h21.42.461,vts_reward_expectancy_bt_OFFLINE,2022.2.4,59.97116981696934,
0,0,0,1,1,0,0,0,star,triangle,0,0,0,0,2,2,26,9,,,,,,,,,,,,,,,,,,,,,,,,,,,,,,,,,,,,,,,,162.40827471995726,162.40827471995726,162.40827471995726,162.40827471995726,162.40827471995726,162.40827471995726,162.40827471995726,162.40827471995726,162.40827471995726,162.40827471995726,l,0.5873722940450534,1,162,0,163.02606386400294,164.52575801906642,164.52575801906642,165.0257778960513,,,,,,,,,,,,,,,,,,,,,,,,,,,,,,,,,,,,,,,,,,,,,,,,,,,,,,,,,,,,,,,,,62010,2022-11-09_10h21.42.461,vts_reward_expectancy_bt_OFFLINE,2022.2.4,59.97116981696934,
0,1,0,0,0,0,0,1,circle,star,0,0,0,0,2,3,27,5,,,,,,,,,,,,,,,,,,,,,,,,,,,,,,,,,,,,,,,,165.0257778960513,165.0257778960513,165.0257778960513,165.0257778960513,165.0257778960513,165.0257778960513,165.0257778960513,165.0257778960513,165.0257778960513,165.0257778960513,l,1.2442585420794785,1,163,0,166.29454349598382,167.79524871497415,167.79524871497415,168.2957051009871,,,,,,,,,,,,,,,,,,,,,,,,,,,,,,,,,,,,,,,,,,,,,,,,,,,,,,,,,,,,,,,,,62010,2022-11-09_10h21.42.461,vts_reward_expectancy_bt_OFFLINE,2022.2.4,59.97116981696934,
0,1,0,0,0,0,1,0,circle,hexagon,0,0,0,0,2,4,28,4,,,,,,,,,,,,,,,,,,,,,,,,,,,,,,,,,,,,,,,,168.2957051009871,168.2957051009871,168.2957051009871,168.2957051009871,168.2957051009871,168.2957051009871,168.2957051009871,168.2957051009871,168.2957051009871,168.2957051009871,a,0.6965493488823995,1,164,0,169.01270449196454,170.51306612906046,170.51306612906046,,,,,,,,,,,,,,,,,,,,,,,,,,,,,,,,,,,,,,,,,,,,,,,,,,,,,,,,,,,,,,,,,,62010,2022-11-09_10h21.42.461,vts_reward_expectancy_bt_OFFLINE,2022.2.4,59.97116981696934,
0,0,0,1,0,0,1,0,star,hexagon,0,0,0,0,2,5,29,11,,,,,,,,,,,,,,,,,,,,,,,,,,,,,,,,,,,,,,,,171.0150906050112,171.0150906050112,171.0150906050112,171.0150906050112,171.0150906050112,171.0150906050112,171.0150906050112,171.0150906050112,171.0150906050112,171.0150906050112,l,1.3524575649062172,10,174,0,172.39895545796026,173.8994629989611,173.8994629989611,174.39961346203927,,,,,,,,,,,,,,,,,,,,,,,,,,,,,,,,,,,,,,,,,,,,,,,,,,,,,,,,,,,,,,,,,62010,2022-11-09_10h21.42.461,vts_reward_expectancy_bt_OFFLINE,2022.2.4,59.97116981696934,
0,0,0,1,0,1,0,0,star ,circle,0,0,0,0,2,6,30,10,,,,,,,,,,,,,,,,,,,,,,,,,,,,,,,,,,,,,,,,174.39961346203927,174.39961346203927,174.39961346203927,174.39961346203927,174.39961346203927,174.39961346203927,174.39961346203927,174.39961346203927,174.39961346203927,174.39961346203927,a,2.918612916022539,10,184,0,177.3358704809798,178.83639687800314,178.83639687800314,179.33658867503982,,,,,,,,,,,,,,,,,,,,,,,,,,,,,,,,,,,,,,,,,,,,,,,,,,,,,,,,,,,,,,,,,62010,2022-11-09_10h21.42.461,vts_reward_expectancy_bt_OFFLINE,2022.2.4,59.97116981696934,
1,0,0,0,0,1,0,0,triangle,circle,0,0,0,0,2,7,31,0,,,,,,,,,,,,,,,,,,,,,,,,,,,,,,,,,,,,,,,,179.33658867503982,179.33658867503982,179.33658867503982,179.33658867503982,179.33658867503982,179.33658867503982,179.33658867503982,179.33658867503982,179.33658867503982,179.33658867503982,a,1.4236613190732896,1,185,0,180.78823970200028,182.28926779003814,,,,,,,,,,,,,,,,,,,,,,,,,,,,,,,,,,,,,,,,,,,,,,,,,,,,,,,,,,,,,,,,,,,62010,2022-11-09_10h21.42.461,vts_reward_expectancy_bt_OFFLINE,2022.2.4,59.97116981696934,
0,0,1,0,0,0,0,1,hexagon,star,0,0,0,0,2,8,32,8,,,,,,,,,,,,,,,,,,,,,,,,,,,,,,,,,,,,,,,,182.7896824569907,182.7896824569907,182.7896824569907,182.7896824569907,182.7896824569907,182.7896824569907,182.7896824569907,182.7896824569907,182.7896824569907,182.7896824569907,l,1.0870873049134389,1,186,0,183.90663339896128,185.40727180498652,185.40727180498652,,,,,,,,,,,,,,,,,,,,,,,,,,,,,,,,,,,,,,,,,,,,,,,,,,,,,,,,,,,,,,,,,,62010,2022-11-09_10h21.42.461,vts_reward_expectancy_bt_OFFLINE,2022.2.4,59.97116981696934,
0,0,1,0,1,0,0,0,hexagon,triangle,0,0,0,0,2,9,33,6,,,,,,,,,,,,,,,,,,,,,,,,,,,,,,,,,,,,,,,,185.9104523230344,185.9104523230344,185.9104523230344,185.9104523230344,185.9104523230344,185.9104523230344,185.9104523230344,185.9104523230344,185.9104523230344,185.9104523230344,l,1.522142795030959,10,196,0,187.46086907503195,188.96036298305262,188.96036298305262,189.46063312806655,,,,,,,,,,,,,,,,,,,,,,,,,,,,,,,,,,,,,,,,,,,,,,,,,,,,,,,,,,,,,,,,,62010,2022-11-09_10h21.42.461,vts_reward_expectancy_bt_OFFLINE,2022.2.4,59.97116981696934,
0,0,1,0,0,1,0,0,hexagon,circle,0,0,0,0,2,10,34,7,,,,,,,,,,,,,,,,,,,,,,,,,,,,,,,,,,,,,,,,189.46063312806655,189.46063312806655,189.46063312806655,189.46063312806655,189.46063312806655,189.46063312806655,189.46063312806655,189.46063312806655,189.46063312806655,189.46063312806655,l,0.6830195710062981,1,197,0,190.16185528005008,191.66313171898946,,,,,,,,,,,,,,,,,,,,,,,,,,,,,,,,,,,,,,,,,,,,,,,,,,,,,,,,,,,,,,,,,,,62010,2022-11-09_10h21.42.461,vts_reward_expectancy_bt_OFFLINE,2022.2.4,59.97116981696934,
1,0,0,0,0,0,1,0,triangle,hexagon,0,0,0,0,2,11,35,1,,,,,,,,,,,,,,,,,,,,,,,,,,,,,,,,,,,,,,,,192.16330106800888,192.16330106800888,192.16330106800888,192.16330106800888,192.16330106800888,192.16330106800888,192.16330106800888,192.16330106800888,192.16330106800888,192.16330106800888,a,1.2427651030011475,10,207,0,193.43174339702819,194.93106471397914,194.93106471397914,195.43110571498983,,,,,,,,,,,,,,,,,,,,,,,,,,,,,,,,,,,,,,,,,,,,,,,,,,,,,,,,,,,,,,,,,62010,2022-11-09_10h21.42.461,vts_reward_expectancy_bt_OFFLINE,2022.2.4,59.97116981696934,
1,0,0,0,0,0,1,0,triangle,hexagon,0,0,0,0,3,0,36,1,,,,,,,,,,,,,,,,,,,,,,,,,,,,,,,,,,,,,,,,195.43110571498983,195.43110571498983,195.43110571498983,195.43110571498983,195.43110571498983,195.43110571498983,195.43110571498983,195.43110571498983,195.43110571498983,195.43110571498983,l,0.7087889070389792,10,217,0,196.1667460310273,197.66708052996546,197.66708052996546,198.16753567103297,,,,,,,,,,,,,,,,,,,,,,,,,,,,,,,,,,,,,,,,,,,,,,,,,,,,,,,,,,,,,,,,,62010,2022-11-09_10h21.42.461,vts_reward_expectancy_bt_OFFLINE,2022.2.4,59.97116981696934,
0,1,0,0,1,0,0,0,circle,triangle,0,0,0,0,3,1,37,3,,,,,,,,,,,,,,,,,,,,,,,,,,,,,,,,,,,,,,,,198.16753567103297,198.16753567103297,198.16753567103297,198.16753567103297,198.16753567103297,198.16753567103297,198.16753567103297,198.16753567103297,198.16753567103297,198.16753567103297,a,1.1683073249878362,10,227,0,199.36757827096153,200.86811847204808,200.86811847204808,,,,,,,,,,,,,,,,,,,,,,,,,,,,,,,,,,,,,,,,,,,,,,,,,,,,,,,,,,,,,,,,,,62010,2022-11-09_10h21.42.461,vts_reward_expectancy_bt_OFFLINE,2022.2.4,59.97116981696934,
0,0,1,0,0,0,0,1,hexagon,star,0,0,0,0,3,2,38,8,,,,,,,,,,,,,,,,,,,,,,,,,,,,,,,,,,,,,,,,201.3702448430704,201.3702448430704,201.3702448430704,201.3702448430704,201.3702448430704,201.3702448430704,201.3702448430704,201.3702448430704,201.3702448430704,201.3702448430704,l,0.6423631369834766,10,237,0,202.03718265600037,203.5377889010124,203.5377889010124,204.03786779695656,,,,,,,,,,,,,,,,,,,,,,,,,,,,,,,,,,,,,,,,,,,,,,,,,,,,,,,,,,,,,,,,,62010,2022-11-09_10h21.42.461,vts_reward_expectancy_bt_OFFLINE,2022.2.4,59.97116981696934,
0,0,0,1,1,0,0,0,star,triangle,0,0,0,0,3,3,39,9,,,,,,,,,,,,,,,,,,,,,,,,,,,,,,,,,,,,,,,,204.03786779695656,204.03786779695656,204.03786779695656,204.03786779695656,204.03786779695656,204.03786779695656,204.03786779695656,204.03786779695656,204.03786779695656,204.03786779695656,l,0.7873257480096072,1,238,0,204.85658184206113,206.3574463269906,,,,,,,,,,,,,,,,,,,,,,,,,,,,,,,,,,,,,,,,,,,,,,,,,,,,,,,,,,,,,,,,,,,62010,2022-11-09_10h21.42.461,vts_reward_expectancy_bt_OFFLINE,2022.2.4,59.97116981696934,
0,1,0,0,0,0,1,0,circle,hexagon,0,0,0,0,3,4,40,4,,,,,,,,,,,,,,,,,,,,,,,,,,,,,,,,,,,,,,,,206.85758267599158,206.85758267599158,206.85758267599158,206.85758267599158,206.85758267599158,206.85758267599158,206.85758267599158,206.85758267599158,206.85758267599158,206.85758267599158,l,2.5588247179985046,1,239,0,209.44147509604227,210.94410811399575,,,,,,,,,,,,,,,,,,,,,,,,,,,,,,,,,,,,,,,,,,,,,,,,,,,,,,,,,,,,,,,,,,,62010,2022-11-09_10h21.42.461,vts_reward_expectancy_bt_OFFLINE,2022.2.4,59.97116981696934,
1,0,0,0,0,0,0,1,triangle,star,0,0,0,0,3,5,41,2,,,,,,,,,,,,,,,,,,,,,,,,,,,,,,,,,,,,,,,,211.44421439396683,211.44421439396683,211.44421439396683,211.44421439396683,211.44421439396683,211.44421439396683,211.44421439396683,211.44421439396683,211.44421439396683,211.44421439396683,l,0.8183287110878155,1,240,0,212.29477185301948,213.79512557806447,213.79512557806447,214.29536579898559,,,,,,,,,,,,,,,,,,,,,,,,,,,,,,,,,,,,,,,,,,,,,,,,,,,,,,,,,,,,,,,,,62010,2022-11-09_10h21.42.461,vts_reward_expectancy_bt_OFFLINE,2022.2.4,59.97116981696934,
1,0,0,0,0,1,0,0,triangle,circle,0,0,0,0,3,6,42,0,,,,,,,,,,,,,,,,,,,,,,,,,,,,,,,,,,,,,,,,214.29536579898559,214.29536579898559,214.29536579898559,214.29536579898559,214.29536579898559,214.29536579898559,214.29536579898559,214.29536579898559,214.29536579898559,214.29536579898559,a,0.9364749509841204,10,250,0,215.2635821410222,216.76465278898831,,,,,,,,,,,,,,,,,,,,,,,,,,,,,,,,,,,,,,,,,,,,,,,,,,,,,,,,,,,,,,,,,,,62010,2022-11-09_10h21.42.461,vts_reward_expectancy_bt_OFFLINE,2022.2.4,59.97116981696934,
0,1,0,0,0,0,0,1,circle,star,0,0,0,0,3,7,43,5,,,,,,,,,,,,,,,,,,,,,,,,,,,,,,,,,,,,,,,,217.26502887206152,217.26502887206152,217.26502887206152,217.26502887206152,217.26502887206152,217.26502887206152,217.26502887206152,217.26502887206152,217.26502887206152,217.26502887206152,l,0.8476201799931005,1,251,0,218.13295043306425,219.63269781006966,219.63269781006966,220.13241023896262,,,,,,,,,,,,,,,,,,,,,,,,,,,,,,,,,,,,,,,,,,,,,,,,,,,,,,,,,,,,,,,,,62010,2022-11-09_10h21.42.461,vts_reward_expectancy_bt_OFFLINE,2022.2.4,59.97116981696934,
0,0,1,0,0,1,0,0,hexagon,circle,0,0,0,0,3,8,44,7,,,,,,,,,,,,,,,,,,,,,,,,,,,,,,,,,,,,,,,,220.13241023896262,220.13241023896262,220.13241023896262,220.13241023896262,220.13241023896262,220.13241023896262,220.13241023896262,220.13241023896262,220.13241023896262,220.13241023896262,l,1.2545151270460337,1,252,0,221.41809746006038,222.9189423850039,222.9189423850039,223.41905121901073,,,,,,,,,,,,,,,,,,,,,,,,,,,,,,,,,,,,,,,,,,,,,,,,,,,,,,,,,,,,,,,,,62010,2022-11-09_10h21.42.461,vts_reward_expectancy_bt_OFFLINE,2022.2.4,59.97116981696934,
0,0,0,1,0,0,1,0,star,hexagon,0,0,0,0,3,9,45,11,,,,,,,,,,,,,,,,,,,,,,,,,,,,,,,,,,,,,,,,223.41905121901073,223.41905121901073,223.41905121901073,223.41905121901073,223.41905121901073,223.41905121901073,223.41905121901073,223.41905121901073,223.41905121901073,223.41905121901073,a,0.5322205800330266,1,253,0,223.96929798903875,225.46972808497958,225.46972808497958,,,,,,,,,,,,,,,,,,,,,,,,,,,,,,,,,,,,,,,,,,,,,,,,,,,,,,,,,,,,,,,,,,62010,2022-11-09_10h21.42.461,vts_reward_expectancy_bt_OFFLINE,2022.2.4,59.97116981696934,
0,0,1,0,1,0,0,0,hexagon,triangle,0,0,0,0,3,10,46,6,,,,,,,,,,,,,,,,,,,,,,,,,,,,,,,,,,,,,,,,225.9718399849953,225.9718399849953,225.9718399849953,225.9718399849953,225.9718399849953,225.9718399849953,225.9718399849953,225.9718399849953,225.9718399849953,225.9718399849953,a,0.7029056820319965,1,254,0,226.70545427803881,228.20588925806805,228.20588925806805,228.70600239001215,,,,,,,,,,,,,,,,,,,,,,,,,,,,,,,,,,,,,,,,,,,,,,,,,,,,,,,,,,,,,,,,,62010,2022-11-09_10h21.42.461,vts_reward_expectancy_bt_OFFLINE,2022.2.4,59.97116981696934,
0,0,0,1,0,1,0,0,star ,circle,0,0,0,0,3,11,47,10,,,,,,,,,,,,,,,,,,,,,,,,,,,,,,,,,,,,,,,,228.70600239001215,228.70600239001215,228.70600239001215,228.70600239001215,228.70600239001215,228.70600239001215,228.70600239001215,228.70600239001215,228.70600239001215,228.70600239001215,a,0.7921210499480367,1,255,0,229.52288674796,231.0252546890406,,,,,,,,,,,,,,,,,,,,,,,,,,,,,,,,,,,,,,,,,,,,,,,,,,,,,,,,,,,,,,,,,,,62010,2022-11-09_10h21.42.461,vts_reward_expectancy_bt_OFFLINE,2022.2.4,59.97116981696934,
0,1,0,0,0,0,1,0,circle,hexagon,1,0,1,0,0,0,0,4,,,,,,,,,,,,,,,,,,,,,,,,,,,,,,,,,,,,,,,,234.937927440973,234.937927440973,234.937927440973,234.937927440973,234.937927440973,234.937927440973,234.937927440973,234.937927440973,234.937927440973,234.937927440973,l,3.886982368072495,1,256,1,238.8468384500593,240.34712628100533,240.34712628100533,240.84723125596065,,,,,,,,,,,,,,,,,,,,,,,,,,,,,,,,,,,,,,,,,,,,,,,,,,,,,,,,,,,,,,,,,62010,2022-11-09_10h21.42.461,vts_reward_expectancy_bt_OFFLINE,2022.2.4,59.97116981696934,
1,0,0,0,0,0,1,0,triangle,hexagon,1,0,1,0,0,1,1,1,,,,,,,,,,,,,,,,,,,,,,,,,,,,,,,,,,,,,,,,240.84723125596065,240.84723125596065,240.84723125596065,240.84723125596065,240.84723125596065,240.84723125596065,240.84723125596065,240.84723125596065,240.84723125596065,240.84723125596065,a,0.9699100209400058,10,266,1,241.84978026302997,243.3502028340008,243.3502028340008,,,,,,,,,,,,,,,,,,,,,,,,,,,,,,,,,,,,,,,,,,,,,,,,,,,,,,,,,,,,,,,,,,62010,2022-11-09_10h21.42.461,vts_reward_expectancy_bt_OFFLINE,2022.2.4,59.97116981696934,
0,0,1,0,0,1,0,0,hexagon,circle,1,0,1,0,0,2,2,7,,,,,,,,,,,,,,,,,,,,,,,,,,,,,,,,,,,,,,,,243.85020420199726,243.85020420199726,243.85020420199726,243.85020420199726,243.85020420199726,243.85020420199726,243.85020420199726,243.85020420199726,243.85020420199726,243.85020420199726,l,1.4892898220568895,10,276,1,245.36772344005294,246.8699401320191,,,,,,,,,,,,,,,,,,,,,,,,,,,,,,,,,,,,,,,,,,,,,,,,,,,,,,,,,,,,,,,,,,,62010,2022-11-09_10h21.42.461,vts_reward_expectancy_bt_OFFLINE,2022.2.4,59.97116981696934,
1,0,0,0,0,0,0,1,triangle,star,1,0,1,0,0,3,3,2,,,,,,,,,,,,,,,,,,,,,,,,,,,,,,,,,,,,,,,,247.37019422999583,247.37019422999583,247.37019422999583,247.37019422999583,247.37019422999583,247.37019422999583,247.37019422999583,247.37019422999583,247.37019422999583,247.37019422999583,a,0.8267732820240781,1,277,1,248.2217422729591,249.72105918405578,249.72105918405578,250.22103925200645,,,,,,,,,,,,,,,,,,,,,,,,,,,,,,,,,,,,,,,,,,,,,,,,,,,,,,,,,,,,,,,,,62010,2022-11-09_10h21.42.461,vts_reward_expectancy_bt_OFFLINE,2022.2.4,59.97116981696934,
0,0,0,1,1,0,0,0,star,triangle,1,0,1,0,0,4,4,9,,,,,,,,,,,,,,,,,,,,,,,,,,,,,,,,,,,,,,,,250.22103925200645,250.22103925200645,250.22103925200645,250.22103925200645,250.22103925200645,250.22103925200645,250.22103925200645,250.22103925200645,250.22103925200645,250.22103925200645,a,3.02733607403934,1,278,1,253.27403955697082,254.77457055298146,254.77457055298146,255.2745738150552,,,,,,,,,,,,,,,,,,,,,,,,,,,,,,,,,,,,,,,,,,,,,,,,,,,,,,,,,,,,,,,,,62010,2022-11-09_10h21.42.461,vts_reward_expectancy_bt_OFFLINE,2022.2.4,59.97116981696934,
0,0,1,0,0,0,0,1,hexagon,star,1,0,1,0,0,5,5,8,,,,,,,,,,,,,,,,,,,,,,,,,,,,,,,,,,,,,,,,255.2745738150552,255.2745738150552,255.2745738150552,255.2745738150552,255.2745738150552,255.2745738150552,255.2745738150552,255.2745738150552,255.2745738150552,255.2745738150552,a,2.9468603460118175,10,288,1,258.24550609104335,259.7450523179723,259.7450523179723,260.24513145303354,,,,,,,,,,,,,,,,,,,,,,,,,,,,,,,,,,,,,,,,,,,,,,,,,,,,,,,,,,,,,,,,,62010,2022-11-09_10h21.42.461,vts_reward_expectancy_bt_OFFLINE,2022.2.4,59.97116981696934,
0,0,0,1,0,0,1,0,star,hexagon,1,0,1,0,0,6,6,11,,,,,,,,,,,,,,,,,,,,,,,,,,,,,,,,,,,,,,,,260.24513145303354,260.24513145303354,260.24513145303354,260.24513145303354,260.24513145303354,260.24513145303354,260.24513145303354,260.24513145303354,260.24513145303354,260.24513145303354,a,0.7770719099789858,10,298,1,261.047309726011,262.5478016709676,262.5478016709676,263.0480502829887,,,,,,,,,,,,,,,,,,,,,,,,,,,,,,,,,,,,,,,,,,,,,,,,,,,,,,,,,,,,,,,,,62010,2022-11-09_10h21.42.461,vts_reward_expectancy_bt_OFFLINE,2022.2.4,59.97116981696934,
1,0,0,0,0,1,0,0,triangle,circle,1,0,1,0,0,7,7,0,,,,,,,,,,,,,,,,,,,,,,,,,,,,,,,,,,,,,,,,263.0480502829887,263.0480502829887,263.0480502829887,263.0480502829887,263.0480502829887,263.0480502829887,263.0480502829887,263.0480502829887,263.0480502829887,263.0480502829887,l,1.9686666548950598,10,308,1,265.04874112806283,266.5510345500661,,,,,,,,,,,,,,,,,,,,,,,,,,,,,,,,,,,,,,,,,,,,,,,,,,,,,,,,,,,,,,,,,,,62010,2022-11-09_10h21.42.461,vts_reward_expectancy_bt_OFFLINE,2022.2.4,59.97116981696934,
0,1,0,0,0,0,0,1,circle,star,1,0,1,0,0,8,8,5,,,,,,,,,,,,,,,,,,,,,,,,,,,,,,,,,,,,,,,,267.05107295303605,267.05107295303605,267.05107295303605,267.05107295303605,267.05107295303605,267.05107295303605,267.05107295303605,267.05107295303605,267.05107295303605,267.05107295303605,l,1.0598102919757366,10,318,1,268.1350487699965,269.6353584920289,269.6353584920289,270.1356791909784,,,,,,,,,,,,,,,,,,,,,,,,,,,,,,,,,,,,,,,,,,,,,,,,,,,,,,,,,,,,,,,,,62010,2022-11-09_10h21.42.461,vts_reward_expectancy_bt_OFFLINE,2022.2.4,59.97116981696934,
0,1,0,0,1,0,0,0,circle,triangle,1,0,1,0,0,9,9,3,,,,,,,,,,,,,,,,,,,,,,,,,,,,,,,,,,,,,,,,270.1356791909784,270.1356791909784,270.1356791909784,270.1356791909784,270.1356791909784,270.1356791909784,270.1356791909784,270.1356791909784,270.1356791909784,270.1356791909784,l,1.249302031006664,1,319,1,271.40550297603477,272.9051443330245,,,,,,,,,,,,,,,,,,,,,,,,,,,,,,,,,,,,,,,,,,,,,,,,,,,,,,,,,,,,,,,,,,,62010,2022-11-09_10h21.42.461,vts_reward_expectancy_bt_OFFLINE,2022.2.4,59.97116981696934,
0,0,0,1,0,1,0,0,star ,circle,1,0,1,0,0,10,10,10,,,,,,,,,,,,,,,,,,,,,,,,,,,,,,,,,,,,,,,,273.4053069760557,273.4053069760557,273.4053069760557,273.4053069760557,273.4053069760557,273.4053069760557,273.4053069760557,273.4053069760557,273.4053069760557,273.4053069760557,a,1.0171162970364094,1,320,1,274.439115406014,275.937314689043,275.937314689043,,,,,,,,,,,,,,,,,,,,,,,,,,,,,,,,,,,,,,,,,,,,,,,,,,,,,,,,,,,,,,,,,,62010,2022-11-09_10h21.42.461,vts_reward_expectancy_bt_OFFLINE,2022.2.4,59.97116981696934,
0,0,1,0,1,0,0,0,hexagon,triangle,1,0,1,0,0,11,11,6,,,,,,,,,,,,,,,,,,,,,,,,,,,,,,,,,,,,,,,,276.4413404549705,276.4413404549705,276.4413404549705,276.4413404549705,276.4413404549705,276.4413404549705,276.4413404549705,276.4413404549705,276.4413404549705,276.4413404549705,a,4.5061517879366875,10,330,1,280.96916317997966,282.479018224054,,,,,,,,,,,,,,,,,,,,,,,,,,,,,,,,,,,,,,,,,,,,,,,,,,,,,,,,,,,,,,,,,,,62010,2022-11-09_10h21.42.461,vts_reward_expectancy_bt_OFFLINE,2022.2.4,59.97116981696934,
0,0,0,1,1,0,0,0,star,triangle,1,0,1,0,1,0,12,9,,,,,,,,,,,,,,,,,,,,,,,,,,,,,,,,,,,,,,,,282.9791219980689,282.9791219980689,282.9791219980689,282.9791219980689,282.9791219980689,282.9791219980689,282.9791219980689,282.9791219980689,282.9791219980689,282.9791219980689,l,0.6790763309691101,1,331,1,283.6803543519927,285.1798262220109,285.1798262220109,285.6801164590288,,,,,,,,,,,,,,,,,,,,,,,,,,,,,,,,,,,,,,,,,,,,,,,,,,,,,,,,,,,,,,,,,62010,2022-11-09_10h21.42.461,vts_reward_expectancy_bt_OFFLINE,2022.2.4,59.97116981696934,
0,1,0,0,0,0,0,1,circle,star,1,0,1,0,1,1,13,5,,,,,,,,,,,,,,,,,,,,,,,,,,,,,,,,,,,,,,,,285.6801164590288,285.6801164590288,285.6801164590288,285.6801164590288,285.6801164590288,285.6801164590288,285.6801164590288,285.6801164590288,285.6801164590288,285.6801164590288,a,3.1657173339044675,1,332,1,288.8665259979898,290.36681608401705,290.36681608401705,290.86717306706123,,,,,,,,,,,,,,,,,,,,,,,,,,,,,,,,,,,,,,,,,,,,,,,,,,,,,,,,,,,,,,,,,62010,2022-11-09_10h21.42.461,vts_reward_expectancy_bt_OFFLINE,2022.2.4,59.97116981696934,
0,1,0,0,1,0,0,0,circle,triangle,1,0,1,0,1,2,14,3,,,,,,,,,,,,,,,,,,,,,,,,,,,,,,,,,,,,,,,,290.86717306706123,290.86717306706123,290.86717306706123,290.86717306706123,290.86717306706123,290.86717306706123,290.86717306706123,290.86717306706123,290.86717306706123,290.86717306706123,a,1.477160371025093,1,333,1,292.36975483596325,293.8701499250019,293.8701499250019,294.37011788703967,,,,,,,,,,,,,,,,,,,,,,,,,,,,,,,,,,,,,,,,,,,,,,,,,,,,,,,,,,,,,,,,,62010,2022-11-09_10h21.42.461,vts_reward_expectancy_bt_OFFLINE,2022.2.4,59.97116981696934,
0,0,1,0,1,0,0,0,hexagon,triangle,1,0,1,0,1,3,15,6,,,,,,,,,,,,,,,,,,,,,,,,,,,,,,,,,,,,,,,,294.37011788703967,294.37011788703967,294.37011788703967,294.37011788703967,294.37011788703967,294.37011788703967,294.37011788703967,294.37011788703967,294.37011788703967,294.37011788703967,l,0.7079049100866541,1,334,1,295.1037866260158,296.60631056595594,,,,,,,,,,,,,,,,,,,,,,,,,,,,,,,,,,,,,,,,,,,,,,,,,,,,,,,,,,,,,,,,,,,62010,2022-11-09_10h21.42.461,vts_reward_expectancy_bt_OFFLINE,2022.2.4,59.97116981696934,
1,0,0,0,0,1,0,0,triangle,circle,1,0,1,0,1,4,16,0,,,,,,,,,,,,,,,,,,,,,,,,,,,,,,,,,,,,,,,,297.10639546404127,297.10639546404127,297.10639546404127,297.10639546404127,297.10639546404127,297.10639546404127,297.10639546404127,297.10639546404127,297.10639546404127,297.10639546404127,l,0.5250937959644943,1,335,1,297.6567202049773,299.15700027300045,299.15700027300045,,,,,,,,,,,,,,,,,,,,,,,,,,,,,,,,,,,,,,,,,,,,,,,,,,,,,,,,,,,,,,,,,,62010,2022-11-09_10h21.42.461,vts_reward_expectancy_bt_OFFLINE,2022.2.4,59.97116981696934,
0,0,1,0,0,1,0,0,hexagon,circle,1,0,1,0,1,5,17,7,,,,,,,,,,,,,,,,,,,,,,,,,,,,,,,,,,,,,,,,299.6574166009668,299.6574166009668,299.6574166009668,299.6574166009668,299.6574166009668,299.6574166009668,299.6574166009668,299.6574166009668,299.6574166009668,299.6574166009668,a,2.081217829021625,1,336,1,301.7598599350313,303.26055389398243,303.26055389398243,,,,,,,,,,,,,,,,,,,,,,,,,,,,,,,,,,,,,,,,,,,,,,,,,,,,,,,,,,,,,,,,,,62010,2022-11-09_10h21.42.461,vts_reward_expectancy_bt_OFFLINE,2022.2.4,59.97116981696934,
0,0,0,1,0,1,0,0,star ,circle,1,0,1,0,1,6,18,10,,,,,,,,,,,,,,,,,,,,,,,,,,,,,,,,,,,,,,,,303.760581774055,303.760581774055,303.760581774055,303.760581774055,303.760581774055,303.760581774055,303.760581774055,303.760581774055,303.760581774055,303.760581774055,l,0.6774478139122948,1,337,1,304.4609226289904,305.95918292202987,305.95918292202987,,,,,,,,,,,,,,,,,,,,,,,,,,,,,,,,,,,,,,,,,,,,,,,,,,,,,,,,,,,,,,,,,,62010,2022-11-09_10h21.42.461,vts_reward_expectancy_bt_OFFLINE,2022.2.4,59.97116981696934,
0,0,0,1,0,0,1,0,star,hexagon,1,0,1,0,1,7,19,11,,,,,,,,,,,,,,,,,,,,,,,,,,,,,,,,,,,,,,,,306.4632462610025,306.4632462610025,306.4632462610025,306.4632462610025,306.4632462610025,306.4632462610025,306.4632462610025,306.4632462610025,306.4632462610025,306.4632462610025,l,1.2150413519702852,1,338,1,307.69706855597906,309.1978892580373,309.1978892580373,309.6981562600704,,,,,,,,,,,,,,,,,,,,,,,,,,,,,,,,,,,,,,,,,,,,,,,,,,,,,,,,,,,,,,,,,62010,2022-11-09_10h21.42.461,vts_reward_expectancy_bt_OFFLINE,2022.2.4,59.97116981696934,
0,1,0,0,0,0,1,0,circle,hexagon,1,0,1,0,1,8,20,4,,,,,,,,,,,,,,,,,,,,,,,,,,,,,,,,,,,,,,,,309.6981562600704,309.6981562600704,309.6981562600704,309.6981562600704,309.6981562600704,309.6981562600704,309.6981562600704,309.6981562600704,309.6981562600704,309.6981562600704,l,1.929135606973432,1,339,1,311.6504983319901,313.15085522597656,313.15085522597656,313.65120135003235,,,,,,,,,,,,,,,,,,,,,,,,,,,,,,,,,,,,,,,,,,,,,,,,,,,,,,,,,,,,,,,,,62010,2022-11-09_10h21.42.461,vts_reward_expectancy_bt_OFFLINE,2022.2.4,59.97116981696934,
0,0,1,0,0,0,0,1,hexagon,star,1,0,1,0,1,9,21,8,,,,,,,,,,,,,,,,,,,,,,,,,,,,,,,,,,,,,,,,313.65120135003235,313.65120135003235,313.65120135003235,313.65120135003235,313.65120135003235,313.65120135003235,313.65120135003235,313.65120135003235,313.65120135003235,313.65120135003235,a,1.7684906319482252,10,349,1,315.45175059104804,316.95444173004944,,,,,,,,,,,,,,,,,,,,,,,,,,,,,,,,,,,,,,,,,,,,,,,,,,,,,,,,,,,,,,,,,,,62010,2022-11-09_10h21.42.461,vts_reward_expectancy_bt_OFFLINE,2022.2.4,59.97116981696934,
1,0,0,0,0,0,0,1,triangle,star,1,0,1,0,1,10,22,2,,,,,,,,,,,,,,,,,,,,,,,,,,,,,,,,,,,,,,,,317.45453373203054,317.45453373203054,317.45453373203054,317.45453373203054,317.45453373203054,317.45453373203054,317.45453373203054,317.45453373203054,317.45453373203054,317.45453373203054,a,2.655600339989178,10,359,1,320.1388245020062,321.6410314049572,,,,,,,,,,,,,,,,,,,,,,,,,,,,,,,,,,,,,,,,,,,,,,,,,,,,,,,,,,,,,,,,,,,62010,2022-11-09_10h21.42.461,vts_reward_expectancy_bt_OFFLINE,2022.2.4,59.97116981696934,
1,0,0,0,0,0,1,0,triangle,hexagon,1,0,1,0,1,11,23,1,,,,,,,,,,,,,,,,,,,,,,,,,,,,,,,,,,,,,,,,322.1411090219626,322.1411090219626,322.1411090219626,322.1411090219626,322.1411090219626,322.1411090219626,322.1411090219626,322.1411090219626,322.1411090219626,322.1411090219626,a,0.8493897280422971,10,369,1,323.0082481710706,324.50861497200094,324.50861497200094,325.0089450220112,,,,,,,,,,,,,,,,,,,,,,,,,,,,,,,,,,,,,,,,,,,,,,,,,,,,,,,,,,,,,,,,,62010,2022-11-09_10h21.42.461,vts_reward_expectancy_bt_OFFLINE,2022.2.4,59.97116981696934,
0,1,0,0,0,0,0,1,circle,star,1,0,1,0,2,0,24,5,,,,,,,,,,,,,,,,,,,,,,,,,,,,,,,,,,,,,,,,325.0089450220112,325.0089450220112,325.0089450220112,325.0089450220112,325.0089450220112,325.0089450220112,325.0089450220112,325.0089450220112,325.0089450220112,325.0089450220112,a,0.8840775350108743,1,370,1,325.92583045805804,327.4283287819708,,,,,,,,,,,,,,,,,,,,,,,,,,,,,,,,,,,,,,,,,,,,,,,,,,,,,,,,,,,,,,,,,,,62010,2022-11-09_10h21.42.461,vts_reward_expectancy_bt_OFFLINE,2022.2.4,59.97116981696934,
0,1,0,0,1,0,0,0,circle,triangle,1,0,1,0,2,1,25,3,,,,,,,,,,,,,,,,,,,,,,,,,,,,,,,,,,,,,,,,327.9286811320344,327.9286811320344,327.9286811320344,327.9286811320344,327.9286811320344,327.9286811320344,327.9286811320344,327.9286811320344,327.9286811320344,327.9286811320344,l,0.6429304039338604,10,380,1,328.5970283410279,330.11286031396594,,,,,,,,,,,,,,,,,,,,,,,,,,,,,,,,,,,,,,,,,,,,,,,,,,,,,,,,,,,,,,,,,,,62010,2022-11-09_10h21.42.461,vts_reward_expectancy_bt_OFFLINE,2022.2.4,59.97116981696934,
0,0,0,1,1,0,0,0,star,triangle,1,0,1,0,2,2,26,9,,,,,,,,,,,,,,,,,,,,,,,,,,,,,,,,,,,,,,,,330.59587532200385,330.59587532200385,330.59587532200385,330.59587532200385,330.59587532200385,330.59587532200385,330.59587532200385,330.59587532200385,330.59587532200385,330.59587532200385,l,0.5398530729580671,10,390,1,331.1648553040577,332.66546307504177,332.66546307504177,333.1656316940207,,,,,,,,,,,,,,,,,,,,,,,,,,,,,,,,,,,,,,,,,,,,,,,,,,,,,,,,,,,,,,,,,62010,2022-11-09_10h21.42.461,vts_reward_expectancy_bt_OFFLINE,2022.2.4,59.97116981696934,
1,0,0,0,0,1,0,0,triangle,circle,1,0,1,0,2,3,27,0,,,,,,,,,,,,,,,,,,,,,,,,,,,,,,,,,,,,,,,,333.1656316940207,333.1656316940207,333.1656316940207,333.1656316940207,333.1656316940207,333.1656316940207,333.1656316940207,333.1656316940207,333.1656316940207,333.1656316940207,l,0.8396136349765584,10,400,1,334.03233633504715,335.5330776909832,,,,,,,,,,,,,,,,,,,,,,,,,,,,,,,,,,,,,,,,,,,,,,,,,,,,,,,,,,,,,,,,,,,62010,2022-11-09_10h21.42.461,vts_reward_expectancy_bt_OFFLINE,2022.2.4,59.97116981696934,
0,0,1,0,0,0,0,1,hexagon,star,1,0,1,0,2,4,28,8,,,,,,,,,,,,,,,,,,,,,,,,,,,,,,,,,,,,,,,,336.03513323899824,336.03513323899824,336.03513323899824,336.03513323899824,336.03513323899824,336.03513323899824,336.03513323899824,336.03513323899824,336.03513323899824,336.03513323899824,l,0.5121286920038983,10,410,1,336.56840428803116,338.06931595504284,338.06931595504284,338.5694239269942,,,,,,,,,,,,,,,,,,,,,,,,,,,,,,,,,,,,,,,,,,,,,,,,,,,,,,,,,,,,,,,,,62010,2022-11-09_10h21.42.461,vts_reward_expectancy_bt_OFFLINE,2022.2.4,59.97116981696934,
0,0,1,0,1,0,0,0,hexagon,triangle,1,0,1,0,2,5,29,6,,,,,,,,,,,,,,,,,,,,,,,,,,,,,,,,,,,,,,,,338.5694239269942,338.5694239269942,338.5694239269942,338.5694239269942,338.5694239269942,338.5694239269942,338.5694239269942,338.5694239269942,338.5694239269942,338.5694239269942,l,0.8360539049608633,10,420,1,339.43623467499856,340.93685928103514,340.93685928103514,,,,,,,,,,,,,,,,,,,,,,,,,,,,,,,,,,,,,,,,,,,,,,,,,,,,,,,,,,,,,,,,,,62010,2022-11-09_10h21.42.461,vts_reward_expectancy_bt_OFFLINE,2022.2.4,59.97116981696934,
0,1,0,0,0,0,1,0,circle,hexagon,1,0,1,0,2,6,30,4,,,,,,,,,,,,,,,,,,,,,,,,,,,,,,,,,,,,,,,,341.4387225940591,341.4387225940591,341.4387225940591,341.4387225940591,341.4387225940591,341.4387225940591,341.4387225940591,341.4387225940591,341.4387225940591,341.4387225940591,l,0.8350864789681509,10,430,1,342.30594167800155,343.8064618749777,343.8064618749777,344.30645033798646,,,,,,,,,,,,,,,,,,,,,,,,,,,,,,,,,,,,,,,,,,,,,,,,,,,,,,,,,,,,,,,,,62010,2022-11-09_10h21.42.461,vts_reward_expectancy_bt_OFFLINE,2022.2.4,59.97116981696934,
1,0,0,0,0,0,0,1,triangle,star,1,0,1,0,2,7,31,2,,,,,,,,,,,,,,,,,,,,,,,,,,,,,,,,,,,,,,,,344.30645033798646,344.30645033798646,344.30645033798646,344.30645033798646,344.30645033798646,344.30645033798646,344.30645033798646,344.30645033798646,344.30645033798646,344.30645033798646,l,0.555563809000887,10,440,1,344.8900375550147,346.39228360098787,,,,,,,,,,,,,,,,,,,,,,,,,,,,,,,,,,,,,,,,,,,,,,,,,,,,,,,,,,,,,,,,,,,62010,2022-11-09_10h21.42.461,vts_reward_expectancy_bt_OFFLINE,2022.2.4,59.97116981696934,
1,0,0,0,0,0,1,0,triangle,hexagon,1,0,1,0,2,8,32,1,,,,,,,,,,,,,,,,,,,,,,,,,,,,,,,,,,,,,,,,346.8926080419915,346.8926080419915,346.8926080419915,346.8926080419915,346.8926080419915,346.8926080419915,346.8926080419915,346.8926080419915,346.8926080419915,346.8926080419915,l,0.6931974240578711,10,450,1,347.60974816896487,349.11011248105206,349.11011248105206,349.61029757000506,,,,,,,,,,,,,,,,,,,,,,,,,,,,,,,,,,,,,,,,,,,,,,,,,,,,,,,,,,,,,,,,,62010,2022-11-09_10h21.42.461,vts_reward_expectancy_bt_OFFLINE,2022.2.4,59.97116981696934,
0,0,0,1,0,0,1,0,star,hexagon,1,0,1,0,2,9,33,11,,,,,,,,,,,,,,,,,,,,,,,,,,,,,,,,,,,,,,,,349.61029757000506,349.61029757000506,349.61029757000506,349.61029757000506,349.61029757000506,349.61029757000506,349.61029757000506,349.61029757000506,349.61029757000506,349.61029757000506,l,0.41608445800375193,1,451,1,350.04514911805745,351.5460942130303,,,,,,,,,,,,,,,,,,,,,,,,,,,,,,,,,,,,,,,,,,,,,,,,,,,,,,,,,,,,,,,,,,,62010,2022-11-09_10h21.42.461,vts_reward_expectancy_bt_OFFLINE,2022.2.4,59.97116981696934,
0,0,0,1,0,1,0,0,star ,circle,1,0,1,0,2,10,34,10,,,,,,,,,,,,,,,,,,,,,,,,,,,,,,,,,,,,,,,,352.04633239400573,352.04633239400573,352.04633239400573,352.04633239400573,352.04633239400573,352.04633239400573,352.04633239400573,352.04633239400573,352.04633239400573,352.04633239400573,a,0.41011080506723374,1,452,1,352.4798250950407,353.98033580498304,353.98033580498304,354.480607022997,,,,,,,,,,,,,,,,,,,,,,,,,,,,,,,,,,,,,,,,,,,,,,,,,,,,,,,,,,,,,,,,,62010,2022-11-09_10h21.42.461,vts_reward_expectancy_bt_OFFLINE,2022.2.4,59.97116981696934,
0,0,1,0,0,1,0,0,hexagon,circle,1,0,1,0,2,11,35,7,,,,,,,,,,,,,,,,,,,,,,,,,,,,,,,,,,,,,,,,354.480607022997,354.480607022997,354.480607022997,354.480607022997,354.480607022997,354.480607022997,354.480607022997,354.480607022997,354.480607022997,354.480607022997,a,2.0711374320089817,1,453,1,356.5830820980482,358.0837419490563,358.0837419490563,358.5840848860098,,,,,,,,,,,,,,,,,,,,,,,,,,,,,,,,,,,,,,,,,,,,,,,,,,,,,,,,,,,,,,,,,62010,2022-11-09_10h21.42.461,vts_reward_expectancy_bt_OFFLINE,2022.2.4,59.97116981696934,
0,1,0,0,0,0,1,0,circle,hexagon,1,0,1,0,3,0,36,4,,,,,,,,,,,,,,,,,,,,,,,,,,,,,,,,,,,,,,,,358.5840848860098,358.5840848860098,358.5840848860098,358.5840848860098,358.5840848860098,358.5840848860098,358.5840848860098,358.5840848860098,358.5840848860098,358.5840848860098,a,1.4104534180369228,1,454,1,360.01772148697637,361.5199583360227,,,,,,,,,,,,,,,,,,,,,,,,,,,,,,,,,,,,,,,,,,,,,,,,,,,,,,,,,,,,,,,,,,,62010,2022-11-09_10h21.42.461,vts_reward_expectancy_bt_OFFLINE,2022.2.4,59.97116981696934,
1,0,0,0,0,0,0,1,triangle,star,1,0,1,0,3,1,37,2,,,,,,,,,,,,,,,,,,,,,,,,,,,,,,,,,,,,,,,,362.02023701905273,362.02023701905273,362.02023701905273,362.02023701905273,362.02023701905273,362.02023701905273,362.02023701905273,362.02023701905273,362.02023701905273,362.02023701905273,l,1.3495575649430975,10,464,1,363.389580750023,364.9047049940564,,,,,,,,,,,,,,,,,,,,,,,,,,,,,,,,,,,,,,,,,,,,,,,,,,,,,,,,,,,,,,,,,,,62010,2022-11-09_10h21.42.461,vts_reward_expectancy_bt_OFFLINE,2022.2.4,59.97116981696934,
0,1,0,0,1,0,0,0,circle,triangle,1,0,1,0,3,2,38,3,,,,,,,,,,,,,,,,,,,,,,,,,,,,,,,,,,,,,,,,365.40484928595833,365.40484928595833,365.40484928595833,365.40484928595833,365.40484928595833,365.40484928595833,365.40484928595833,365.40484928595833,365.40484928595833,365.40484928595833,l,2.7463484880281612,10,474,1,368.17421327496413,369.6748551269993,369.6748551269993,370.1752316460479,,,,,,,,,,,,,,,,,,,,,,,,,,,,,,,,,,,,,,,,,,,,,,,,,,,,,,,,,,,,,,,,,62010,2022-11-09_10h21.42.461,vts_reward_expectancy_bt_OFFLINE,2022.2.4,59.97116981696934,
0,0,1,0,0,0,0,1,hexagon,star,1,0,1,0,3,3,39,8,,,,,,,,,,,,,,,,,,,,,,,,,,,,,,,,,,,,,,,,370.1752316460479,370.1752316460479,370.1752316460479,370.1752316460479,370.1752316460479,370.1752316460479,370.1752316460479,370.1752316460479,370.1752316460479,370.1752316460479,l,0.9123112249653786,1,475,1,371.11240671097767,372.62792590796016,,,,,,,,,,,,,,,,,,,,,,,,,,,,,,,,,,,,,,,,,,,,,,,,,,,,,,,,,,,,,,,,,,,62010,2022-11-09_10h21.42.461,vts_reward_expectancy_bt_OFFLINE,2022.2.4,59.97116981696934,
1,0,0,0,0,1,0,0,triangle,circle,1,0,1,0,3,4,40,0,,,,,,,,,,,,,,,,,,,,,,,,,,,,,,,,,,,,,,,,373.1278228639858,373.1278228639858,373.1278228639858,373.1278228639858,373.1278228639858,373.1278228639858,373.1278228639858,373.1278228639858,373.1278228639858,373.1278228639858,a,1.8404371889773756,10,485,1,375.0044823490316,376.4975873440271,,,,,,,,,,,,,,,,,,,,,,,,,,,,,,,,,,,,,,,,,,,,,,,,,,,,,,,,,,,,,,,,,,,62010,2022-11-09_10h21.42.461,vts_reward_expectancy_bt_OFFLINE,2022.2.4,59.97116981696934,
0,0,0,1,0,1,0,0,star ,circle,1,0,1,0,3,5,41,10,,,,,,,,,,,,,,,,,,,,,,,,,,,,,,,,,,,,,,,,376.9978668449912,376.9978668449912,376.9978668449912,376.9978668449912,376.9978668449912,376.9978668449912,376.9978668449912,376.9978668449912,376.9978668449912,376.9978668449912,a,1.2453772180015221,10,495,1,378.26502742304,379.765597169986,379.765597169986,380.26552259002347,,,,,,,,,,,,,,,,,,,,,,,,,,,,,,,,,,,,,,,,,,,,,,,,,,,,,,,,,,,,,,,,,62010,2022-11-09_10h21.42.461,vts_reward_expectancy_bt_OFFLINE,2022.2.4,59.97116981696934,
0,0,1,0,0,1,0,0,hexagon,circle,1,0,1,0,3,6,42,7,,,,,,,,,,,,,,,,,,,,,,,,,,,,,,,,,,,,,,,,380.26552259002347,380.26552259002347,380.26552259002347,380.26552259002347,380.26552259002347,380.26552259002347,380.26552259002347,380.26552259002347,380.26552259002347,380.26552259002347,a,0.8006265669828281,10,505,1,381.0847091829637,382.5852059540339,382.5852059540339,383.0851288170088,,,,,,,,,,,,,,,,,,,,,,,,,,,,,,,,,,,,,,,,,,,,,,,,,,,,,,,,,,,,,,,,,62010,2022-11-09_10h21.42.461,vts_reward_expectancy_bt_OFFLINE,2022.2.4,59.97116981696934,
0,0,0,1,0,0,1,0,star,hexagon,1,0,1,0,3,7,43,11,,,,,,,,,,,,,,,,,,,,,,,,,,,,,,,,,,,,,,,,383.0851288170088,383.0851288170088,383.0851288170088,383.0851288170088,383.0851288170088,383.0851288170088,383.0851288170088,383.0851288170088,383.0851288170088,383.0851288170088,l,2.7284704910125583,1,506,1,385.83808700100053,387.3386698330287,,,,,,,,,,,,,,,,,,,,,,,,,,,,,,,,,,,,,,,,,,,,,,,,,,,,,,,,,,,,,,,,,,,62010,2022-11-09_10h21.42.461,vts_reward_expectancy_bt_OFFLINE,2022.2.4,59.97116981696934,
0,0,1,0,1,0,0,0,hexagon,triangle,1,0,1,0,3,8,44,6,,,,,,,,,,,,,,,,,,,,,,,,,,,,,,,,,,,,,,,,387.8387299319729,387.8387299319729,387.8387299319729,387.8387299319729,387.8387299319729,387.8387299319729,387.8387299319729,387.8387299319729,387.8387299319729,387.8387299319729,l,3.1727131789084524,1,507,1,391.0355146350339,392.5423196989577,,,,,,,,,,,,,,,,,,,,,,,,,,,,,,,,,,,,,,,,,,,,,,,,,,,,,,,,,,,,,,,,,,,62010,2022-11-09_10h21.42.461,vts_reward_expectancy_bt_OFFLINE,2022.2.4,59.97116981696934,
1,0,0,0,0,0,1,0,triangle,hexagon,1,0,1,0,3,9,45,1,,,,,,,,,,,,,,,,,,,,,,,,,,,,,,,,,,,,,,,,393.04261744895484,393.04261744895484,393.04261744895484,393.04261744895484,393.04261744895484,393.04261744895484,393.04261744895484,393.04261744895484,393.04261744895484,393.04261744895484,a,2.3117311460664496,1,508,1,395.3767370560672,396.8791387230158,,,,,,,,,,,,,,,,,,,,,,,,,,,,,,,,,,,,,,,,,,,,,,,,,,,,,,,,,,,,,,,,,,,62010,2022-11-09_10h21.42.461,vts_reward_expectancy_bt_OFFLINE,2022.2.4,59.97116981696934,
0,0,0,1,1,0,0,0,star,triangle,1,0,1,0,3,10,46,9,,,,,,,,,,,,,,,,,,,,,,,,,,,,,,,,,,,,,,,,397.37910748797003,397.37910748797003,397.37910748797003,397.37910748797003,397.37910748797003,397.37910748797003,397.37910748797003,397.37910748797003,397.37910748797003,397.37910748797003,a,1.7328092489624396,1,509,1,399.1298270840198,400.63027097005397,400.63027097005397,,,,,,,,,,,,,,,,,,,,,,,,,,,,,,,,,,,,,,,,,,,,,,,,,,,,,,,,,,,,,,,,,,62010,2022-11-09_10h21.42.461,vts_reward_expectancy_bt_OFFLINE,2022.2.4,59.97116981696934,
0,1,0,0,0,0,0,1,circle,star,1,0,1,0,3,11,47,5,,,,,,,,,,,,,,,,,,,,,,,,,,,,,,,,,,,,,,,,401.1325314040296,401.1325314040296,401.1325314040296,401.1325314040296,401.1325314040296,401.1325314040296,401.1325314040296,401.1325314040296,401.1325314040296,401.1325314040296,l,1.7260211230022833,1,510,1,402.88308979105204,404.38371097599156,404.38371097599156,,,,,,,,,,,,,,,,,,,,,,,,,,,,,,,,,,,,,,,,,,,,,,,,,,,,,,,,,,,,,,,,,,62010,2022-11-09_10h21.42.461,vts_reward_expectancy_bt_OFFLINE,2022.2.4,59.97116981696934,
0,1,0,0,0,0,1,0,circle,hexagon,2,0,2,0,0,0,0,4,,,,,,,,,,,,,,,,,,,,,,,,,,,,,,,,,,,,,,,,411.8345698850462,411.8345698850462,411.8345698850462,411.8345698850462,411.8345698850462,411.8345698850462,411.8345698850462,411.8345698850462,411.8345698850462,411.8345698850462,l,1.6893692309968174,1,511,2,413.54069472895935,415.04102802998386,415.04102802998386,415.54136467003264,,,,,,,,,,,,,,,,,,,,,,,,,,,,,,,,,,,,,,,,,,,,,,,,,,,,,,,,,,,,,,,,,62010,2022-11-09_10h21.42.461,vts_reward_expectancy_bt_OFFLINE,2022.2.4,59.97116981696934,
0,0,0,1,1,0,0,0,star,triangle,2,0,2,0,0,1,1,9,,,,,,,,,,,,,,,,,,,,,,,,,,,,,,,,,,,,,,,,415.54136467003264,415.54136467003264,415.54136467003264,415.54136467003264,415.54136467003264,415.54136467003264,415.54136467003264,415.54136467003264,415.54136467003264,415.54136467003264,a,3.4391555559122935,1,512,2,419.01104358700104,420.5116439090343,420.5116439090343,421.0116419279948,,,,,,,,,,,,,,,,,,,,,,,,,,,,,,,,,,,,,,,,,,,,,,,,,,,,,,,,,,,,,,,,,62010,2022-11-09_10h21.42.461,vts_reward_expectancy_bt_OFFLINE,2022.2.4,59.97116981696934,
0,0,1,0,1,0,0,0,hexagon,triangle,2,0,2,0,0,2,2,6,,,,,,,,,,,,,,,,,,,,,,,,,,,,,,,,,,,,,,,,421.0116419279948,421.0116419279948,421.0116419279948,421.0116419279948,421.0116419279948,421.0116419279948,421.0116419279948,421.0116419279948,421.0116419279948,421.0116419279948,l,1.9403558269841596,10,522,2,422.9828795780195,424.49816713598557,,,,,,,,,,,,,,,,,,,,,,,,,,,,,,,,,,,,,,,,,,,,,,,,,,,,,,,,,,,,,,,,,,,62010,2022-11-09_10h21.42.461,vts_reward_expectancy_bt_OFFLINE,2022.2.4,59.97116981696934,
1,0,0,0,0,0,1,0,triangle,hexagon,2,0,2,0,0,3,3,1,,,,,,,,,,,,,,,,,,,,,,,,,,,,,,,,,,,,,,,,424.9985708480235,424.9985708480235,424.9985708480235,424.9985708480235,424.9985708480235,424.9985708480235,424.9985708480235,424.9985708480235,424.9985708480235,424.9985708480235,a,1.1596217489568517,10,532,2,426.1840694070561,427.68460873398,427.68460873398,428.18454526597634,,,,,,,,,,,,,,,,,,,,,,,,,,,,,,,,,,,,,,,,,,,,,,,,,,,,,,,,,,,,,,,,,62010,2022-11-09_10h21.42.461,vts_reward_expectancy_bt_OFFLINE,2022.2.4,59.97116981696934,
0,1,0,0,1,0,0,0,circle,triangle,2,0,2,0,0,4,4,3,,,,,,,,,,,,,,,,,,,,,,,,,,,,,,,,,,,,,,,,428.18454526597634,428.18454526597634,428.18454526597634,428.18454526597634,428.18454526597634,428.18454526597634,428.18454526597634,428.18454526597634,428.18454526597634,428.18454526597634,a,0.8658838559640571,1,533,2,429.07012066000607,430.58545277197845,,,,,,,,,,,,,,,,,,,,,,,,,,,,,,,,,,,,,,,,,,,,,,,,,,,,,,,,,,,,,,,,,,,62010,2022-11-09_10h21.42.461,vts_reward_expectancy_bt_OFFLINE,2022.2.4,59.97116981696934,
0,0,0,1,0,1,0,0,star ,circle,2,0,2,0,0,5,5,10,,,,,,,,,,,,,,,,,,,,,,,,,,,,,,,,,,,,,,,,431.0747483749874,431.0747483749874,431.0747483749874,431.0747483749874,431.0747483749874,431.0747483749874,431.0747483749874,431.0747483749874,431.0747483749874,431.0747483749874,l,2.430578411091119,1,534,2,433.5221165450057,435.02224489103537,435.02224489103537,435.522542566061,,,,,,,,,,,,,,,,,,,,,,,,,,,,,,,,,,,,,,,,,,,,,,,,,,,,,,,,,,,,,,,,,62010,2022-11-09_10h21.42.461,vts_reward_expectancy_bt_OFFLINE,2022.2.4,59.97116981696934,
1,0,0,0,0,0,0,1,triangle,star,2,0,2,0,0,6,6,2,,,,,,,,,,,,,,,,,,,,,,,,,,,,,,,,,,,,,,,,435.522542566061,435.522542566061,435.522542566061,435.522542566061,435.522542566061,435.522542566061,435.522542566061,435.522542566061,435.522542566061,435.522542566061,a,1.2908351700752974,10,544,2,436.84360574302264,438.3587862449931,,,,,,,,,,,,,,,,,,,,,,,,,,,,,,,,,,,,,,,,,,,,,,,,,,,,,,,,,,,,,,,,,,,62010,2022-11-09_10h21.42.461,vts_reward_expectancy_bt_OFFLINE,2022.2.4,59.97116981696934,
0,0,1,0,0,1,0,0,hexagon,circle,2,0,2,0,0,7,7,7,,,,,,,,,,,,,,,,,,,,,,,,,,,,,,,,,,,,,,,,438.8588466650108,438.8588466650108,438.8588466650108,438.8588466650108,438.8588466650108,438.8588466650108,438.8588466650108,438.8588466650108,438.8588466650108,438.8588466650108,a,2.0163431289838627,1,545,2,440.8951108480105,442.39527313702274,,,,,,,,,,,,,,,,,,,,,,,,,,,,,,,,,,,,,,,,,,,,,,,,,,,,,,,,,,,,,,,,,,,62010,2022-11-09_10h21.42.461,vts_reward_expectancy_bt_OFFLINE,2022.2.4,59.97116981696934,
0,0,0,1,0,0,1,0,star,hexagon,2,0,2,0,0,8,8,11,,,,,,,,,,,,,,,,,,,,,,,,,,,,,,,,,,,,,,,,442.895691561047,442.895691561047,442.895691561047,442.895691561047,442.895691561047,442.895691561047,442.895691561047,442.895691561047,442.895691561047,442.895691561047,a,1.3884622940095142,10,555,2,444.31462386099156,445.8300647829892,,,,,,,,,,,,,,,,,,,,,,,,,,,,,,,,,,,,,,,,,,,,,,,,,,,,,,,,,,,,,,,,,,,62010,2022-11-09_10h21.42.461,vts_reward_expectancy_bt_OFFLINE,2022.2.4,59.97116981696934,
0,0,1,0,0,0,0,1,hexagon,star,2,0,2,0,0,9,9,8,,,,,,,,,,,,,,,,,,,,,,,,,,,,,,,,,,,,,,,,446.31512584304437,446.31512584304437,446.31512584304437,446.31512584304437,446.31512584304437,446.31512584304437,446.31512584304437,446.31512584304437,446.31512584304437,446.31512584304437,l,1.4780889919493347,1,556,2,447.81806549197063,449.33313654805534,,,,,,,,,,,,,,,,,,,,,,,,,,,,,,,,,,,,,,,,,,,,,,,,,,,,,,,,,,,,,,,,,,,62010,2022-11-09_10h21.42.461,vts_reward_expectancy_bt_OFFLINE,2022.2.4,59.97116981696934,
0,1,0,0,0,0,0,1,circle,star,2,0,2,0,0,10,10,5,,,,,,,,,,,,,,,,,,,,,,,,,,,,,,,,,,,,,,,,449.83296623500064,449.83296623500064,449.83296623500064,449.83296623500064,449.83296623500064,449.83296623500064,449.83296623500064,449.83296623500064,449.83296623500064,449.83296623500064,a,1.0208945670165122,1,557,2,450.8838456530357,452.3858430379769,,,,,,,,,,,,,,,,,,,,,,,,,,,,,,,,,,,,,,,,,,,,,,,,,,,,,,,,,,,,,,,,,,,62010,2022-11-09_10h21.42.461,vts_reward_expectancy_bt_OFFLINE,2022.2.4,59.97116981696934,
1,0,0,0,0,1,0,0,triangle,circle,2,0,2,0,0,11,11,0,,,,,,,,,,,,,,,,,,,,,,,,,,,,,,,,,,,,,,,,452.8858448630199,452.8858448630199,452.8858448630199,452.8858448630199,452.8858448630199,452.8858448630199,452.8858448630199,452.8858448630199,452.8858448630199,452.8858448630199,a,1.5790820160182193,10,567,2,454.48883831803687,456.0037502150517,,,,,,,,,,,,,,,,,,,,,,,,,,,,,,,,,,,,,,,,,,,,,,,,,,,,,,,,,,,,,,,,,,,62010,2022-11-09_10h21.42.461,vts_reward_expectancy_bt_OFFLINE,2022.2.4,59.97116981696934,
0,1,0,0,1,0,0,0,circle,triangle,2,0,2,0,1,0,12,3,,,,,,,,,,,,,,,,,,,,,,,,,,,,,,,,,,,,,,,,456.4893707250012,456.4893707250012,456.4893707250012,456.4893707250012,456.4893707250012,456.4893707250012,456.4893707250012,456.4893707250012,456.4893707250012,456.4893707250012,l,0.95689778693486,10,577,2,457.47306069300976,458.9733910190407,458.9733910190407,459.4735478659859,,,,,,,,,,,,,,,,,,,,,,,,,,,,,,,,,,,,,,,,,,,,,,,,,,,,,,,,,,,,,,,,,62010,2022-11-09_10h21.42.461,vts_reward_expectancy_bt_OFFLINE,2022.2.4,59.97116981696934,
0,0,1,0,0,0,0,1,hexagon,star,2,0,2,0,1,1,13,8,,,,,,,,,,,,,,,,,,,,,,,,,,,,,,,,,,,,,,,,459.4735478659859,459.4735478659859,459.4735478659859,459.4735478659859,459.4735478659859,459.4735478659859,459.4735478659859,459.4735478659859,459.4735478659859,459.4735478659859,a,2.07983659603633,10,587,2,461.5763620130019,463.0767475779867,463.0767475779867,463.57683293300215,,,,,,,,,,,,,,,,,,,,,,,,,,,,,,,,,,,,,,,,,,,,,,,,,,,,,,,,,,,,,,,,,62010,2022-11-09_10h21.42.461,vts_reward_expectancy_bt_OFFLINE,2022.2.4,59.97116981696934,
1,0,0,0,0,0,0,1,triangle,star,2,0,2,0,1,2,14,2,,,,,,,,,,,,,,,,,,,,,,,,,,,,,,,,,,,,,,,,463.57683293300215,463.57683293300215,463.57683293300215,463.57683293300215,463.57683293300215,463.57683293300215,463.57683293300215,463.57683293300215,463.57683293300215,463.57683293300215,a,1.6435905459802598,10,597,2,465.2445664589759,466.7464977609925,,,,,,,,,,,,,,,,,,,,,,,,,,,,,,,,,,,,,,,,,,,,,,,,,,,,,,,,,,,,,,,,,,,62010,2022-11-09_10h21.42.461,vts_reward_expectancy_bt_OFFLINE,2022.2.4,59.97116981696934,
0,0,0,1,0,1,0,0,star ,circle,2,0,2,0,1,3,15,10,,,,,,,,,,,,,,,,,,,,,,,,,,,,,,,,,,,,,,,,467.24662477103993,467.24662477103993,467.24662477103993,467.24662477103993,467.24662477103993,467.24662477103993,467.24662477103993,467.24662477103993,467.24662477103993,467.24662477103993,l,1.5518730799667537,1,598,2,468.83083212398924,470.33101811504457,470.33101811504457,470.83146113099065,,,,,,,,,,,,,,,,,,,,,,,,,,,,,,,,,,,,,,,,,,,,,,,,,,,,,,,,,,,,,,,,,62010,2022-11-09_10h21.42.461,vts_reward_expectancy_bt_OFFLINE,2022.2.4,59.97116981696934,
1,0,0,0,0,1,0,0,triangle,circle,2,0,2,0,1,4,16,0,,,,,,,,,,,,,,,,,,,,,,,,,,,,,,,,,,,,,,,,470.83146113099065,470.83146113099065,470.83146113099065,470.83146113099065,470.83146113099065,470.83146113099065,470.83146113099065,470.83146113099065,470.83146113099065,470.83146113099065,a,0.7342680469155312,10,608,2,471.5865231329808,473.10087116004433,,,,,,,,,,,,,,,,,,,,,,,,,,,,,,,,,,,,,,,,,,,,,,,,,,,,,,,,,,,,,,,,,,,62010,2022-11-09_10h21.42.461,vts_reward_expectancy_bt_OFFLINE,2022.2.4,59.97116981696934,
0,0,0,1,1,0,0,0,star,triangle,2,0,2,0,1,5,17,9,,,,,,,,,,,,,,,,,,,,,,,,,,,,,,,,,,,,,,,,473.6007326639956,473.6007326639956,473.6007326639956,473.6007326639956,473.6007326639956,473.6007326639956,473.6007326639956,473.6007326639956,473.6007326639956,473.6007326639956,l,0.8340467429952696,10,618,2,474.45173921005335,475.95173209300265,475.95173209300265,,,,,,,,,,,,,,,,,,,,,,,,,,,,,,,,,,,,,,,,,,,,,,,,,,,,,,,,,,,,,,,,,,62010,2022-11-09_10h21.42.461,vts_reward_expectancy_bt_OFFLINE,2022.2.4,59.97116981696934,
0,0,1,0,1,0,0,0,hexagon,triangle,2,0,2,0,1,6,18,6,,,,,,,,,,,,,,,,,,,,,,,,,,,,,,,,,,,,,,,,476.453694427968,476.453694427968,476.453694427968,476.453694427968,476.453694427968,476.453694427968,476.453694427968,476.453694427968,476.453694427968,476.453694427968,l,0.7043455879902467,10,628,2,477.1875472300453,478.6881503449986,478.6881503449986,479.1880758460611,,,,,,,,,,,,,,,,,,,,,,,,,,,,,,,,,,,,,,,,,,,,,,,,,,,,,,,,,,,,,,,,,62010,2022-11-09_10h21.42.461,vts_reward_expectancy_bt_OFFLINE,2022.2.4,59.97116981696934,
0,0,1,0,0,1,0,0,hexagon,circle,2,0,2,0,1,7,19,7,,,,,,,,,,,,,,,,,,,,,,,,,,,,,,,,,,,,,,,,479.1880758460611,479.1880758460611,479.1880758460611,479.1880758460611,479.1880758460611,479.1880758460611,479.1880758460611,479.1880758460611,479.1880758460611,479.1880758460611,l,2.7515194379957393,1,629,2,481.95987245300785,483.47507337096613,,,,,,,,,,,,,,,,,,,,,,,,,,,,,,,,,,,,,,,,,,,,,,,,,,,,,,,,,,,,,,,,,,,62010,2022-11-09_10h21.42.461,vts_reward_expectancy_bt_OFFLINE,2022.2.4,59.97116981696934,
0,1,0,0,0,0,1,0,circle,hexagon,2,0,2,0,1,8,20,4,,,,,,,,,,,,,,,,,,,,,,,,,,,,,,,,,,,,,,,,483.9751119320281,483.9751119320281,483.9751119320281,483.9751119320281,483.9751119320281,483.9751119320281,483.9751119320281,483.9751119320281,483.9751119320281,483.9751119320281,l,1.0800727939931676,10,639,2,485.07763183198404,486.5777550820494,,,,,,,,,,,,,,,,,,,,,,,,,,,,,,,,,,,,,,,,,,,,,,,,,,,,,,,,,,,,,,,,,,,62010,2022-11-09_10h21.42.461,vts_reward_expectancy_bt_OFFLINE,2022.2.4,59.97116981696934,
0,0,0,1,0,0,1,0,star,hexagon,2,0,2,0,1,9,21,11,,,,,,,,,,,,,,,,,,,,,,,,,,,,,,,,,,,,,,,,487.0780104730511,487.0780104730511,487.0780104730511,487.0780104730511,487.0780104730511,487.0780104730511,487.0780104730511,487.0780104730511,487.0780104730511,487.0780104730511,l,1.3184393480187282,1,640,2,488.42891657399014,489.92889056005515,489.92889056005515,490.4291326790117,,,,,,,,,,,,,,,,,,,,,,,,,,,,,,,,,,,,,,,,,,,,,,,,,,,,,,,,,,,,,,,,,62010,2022-11-09_10h21.42.461,vts_reward_expectancy_bt_OFFLINE,2022.2.4,59.97116981696934,
1,0,0,0,0,0,1,0,triangle,hexagon,2,0,2,0,1,10,22,1,,,,,,,,,,,,,,,,,,,,,,,,,,,,,,,,,,,,,,,,490.4291326790117,490.4291326790117,490.4291326790117,490.4291326790117,490.4291326790117,490.4291326790117,490.4291326790117,490.4291326790117,490.4291326790117,490.4291326790117,a,1.66908565396443,10,650,2,492.11731085996144,493.6320346109569,,,,,,,,,,,,,,,,,,,,,,,,,,,,,,,,,,,,,,,,,,,,,,,,,,,,,,,,,,,,,,,,,,,62010,2022-11-09_10h21.42.461,vts_reward_expectancy_bt_OFFLINE,2022.2.4,59.97116981696934,
0,1,0,0,0,0,0,1,circle,star,2,0,2,0,1,11,23,5,,,,,,,,,,,,,,,,,,,,,,,,,,,,,,,,,,,,,,,,494.13214830402285,494.13214830402285,494.13214830402285,494.13214830402285,494.13214830402285,494.13214830402285,494.13214830402285,494.13214830402285,494.13214830402285,494.13214830402285,a,3.3335097569506615,1,651,2,497.48744320799597,499.0024621450575,,,,,,,,,,,,,,,,,,,,,,,,,,,,,,,,,,,,,,,,,,,,,,,,,,,,,,,,,,,,,,,,,,,62010,2022-11-09_10h21.42.461,vts_reward_expectancy_bt_OFFLINE,2022.2.4,59.97116981696934,
1,0,0,0,0,0,0,1,triangle,star,2,0,2,0,2,0,24,2,,,,,,,,,,,,,,,,,,,,,,,,,,,,,,,,,,,,,,,,499.5026099020615,499.5026099020615,499.5026099020615,499.5026099020615,499.5026099020615,499.5026099020615,499.5026099020615,499.5026099020615,499.5026099020615,499.5026099020615,a,1.5059156119823456,1,652,2,501.03679703897797,502.5391010430176,,,,,,,,,,,,,,,,,,,,,,,,,,,,,,,,,,,,,,,,,,,,,,,,,,,,,,,,,,,,,,,,,,,62010,2022-11-09_10h21.42.461,vts_reward_expectancy_bt_OFFLINE,2022.2.4,59.97116981696934,
1,0,0,0,0,0,1,0,triangle,hexagon,2,0,2,0,2,1,25,1,,,,,,,,,,,,,,,,,,,,,,,,,,,,,,,,,,,,,,,,503.03907984902617,503.03907984902617,503.03907984902617,503.03907984902617,503.03907984902617,503.03907984902617,503.03907984902617,503.03907984902617,503.03907984902617,503.03907984902617,a,0.9069700359832495,10,662,2,503.97528488503303,505.48982910695486,,,,,,,,,,,,,,,,,,,,,,,,,,,,,,,,,,,,,,,,,,,,,,,,,,,,,,,,,,,,,,,,,,,62010,2022-11-09_10h21.42.461,vts_reward_expectancy_bt_OFFLINE,2022.2.4,59.97116981696934,
0,0,0,1,1,0,0,0,star,triangle,2,0,2,0,2,2,26,9,,,,,,,,,,,,,,,,,,,,,,,,,,,,,,,,,,,,,,,,505.990225467016,505.990225467016,505.990225467016,505.990225467016,505.990225467016,505.990225467016,505.990225467016,505.990225467016,505.990225467016,505.990225467016,l,0.8131493090186268,10,672,2,506.8260177799966,508.32628413499333,508.32628413499333,508.826165750972,,,,,,,,,,,,,,,,,,,,,,,,,,,,,,,,,,,,,,,,,,,,,,,,,,,,,,,,,,,,,,,,,62010,2022-11-09_10h21.42.461,vts_reward_expectancy_bt_OFFLINE,2022.2.4,59.97116981696934,
0,0,0,1,0,1,0,0,star ,circle,2,0,2,0,2,3,27,10,,,,,,,,,,,,,,,,,,,,,,,,,,,,,,,,,,,,,,,,508.826165750972,508.826165750972,508.826165750972,508.826165750972,508.826165750972,508.826165750972,508.826165750972,508.826165750972,508.826165750972,508.826165750972,a,2.0039270810084417,10,682,2,510.86066777200904,512.3628067310201,,,,,,,,,,,,,,,,,,,,,,,,,,,,,,,,,,,,,,,,,,,,,,,,,,,,,,,,,,,,,,,,,,,62010,2022-11-09_10h21.42.461,vts_reward_expectancy_bt_OFFLINE,2022.2.4,59.97116981696934,
0,0,1,0,0,0,0,1,hexagon,star,2,0,2,0,2,4,28,8,,,,,,,,,,,,,,,,,,,,,,,,,,,,,,,,,,,,,,,,512.8631262399722,512.8631262399722,512.8631262399722,512.8631262399722,512.8631262399722,512.8631262399722,512.8631262399722,512.8631262399722,512.8631262399722,512.8631262399722,a,1.905859031016007,1,683,2,514.7994869779795,516.2995172010269,,,,,,,,,,,,,,,,,,,,,,,,,,,,,,,,,,,,,,,,,,,,,,,,,,,,,,,,,,,,,,,,,,,62010,2022-11-09_10h21.42.461,vts_reward_expectancy_bt_OFFLINE,2022.2.4,59.97116981696934,
1,0,0,0,0,1,0,0,triangle,circle,2,0,2,0,2,5,29,0,,,,,,,,,,,,,,,,,,,,,,,,,,,,,,,,,,,,,,,,516.799669826054,516.799669826054,516.799669826054,516.799669826054,516.799669826054,516.799669826054,516.799669826054,516.799669826054,516.799669826054,516.799669826054,a,0.7264057119609788,10,693,2,517.552302422002,519.0671852979576,,,,,,,,,,,,,,,,,,,,,,,,,,,,,,,,,,,,,,,,,,,,,,,,,,,,,,,,,,,,,,,,,,,62010,2022-11-09_10h21.42.461,vts_reward_expectancy_bt_OFFLINE,2022.2.4,59.97116981696934,
0,0,1,0,1,0,0,0,hexagon,triangle,2,0,2,0,2,6,30,6,,,,,,,,,,,,,,,,,,,,,,,,,,,,,,,,,,,,,,,,519.5672538910294,519.5672538910294,519.5672538910294,519.5672538910294,519.5672538910294,519.5672538910294,519.5672538910294,519.5672538910294,519.5672538910294,519.5672538910294,l,0.7025714099872857,10,703,2,520.3009599350626,521.8032339119818,,,,,,,,,,,,,,,,,,,,,,,,,,,,,,,,,,,,,,,,,,,,,,,,,,,,,,,,,,,,,,,,,,,62010,2022-11-09_10h21.42.461,vts_reward_expectancy_bt_OFFLINE,2022.2.4,59.97116981696934,
0,1,0,0,1,0,0,0,circle,triangle,2,0,2,0,2,7,31,3,,,,,,,,,,,,,,,,,,,,,,,,,,,,,,,,,,,,,,,,522.3034137659706,522.3034137659706,522.3034137659706,522.3034137659706,522.3034137659706,522.3034137659706,522.3034137659706,522.3034137659706,522.3034137659706,522.3034137659706,l,0.7566178450360894,1,704,2,523.0892172179883,524.6041712129954,,,,,,,,,,,,,,,,,,,,,,,,,,,,,,,,,,,,,,,,,,,,,,,,,,,,,,,,,,,,,,,,,,,62010,2022-11-09_10h21.42.461,vts_reward_expectancy_bt_OFFLINE,2022.2.4,59.97116981696934,
0,0,1,0,0,1,0,0,hexagon,circle,2,0,2,0,2,8,32,7,,,,,,,,,,,,,,,,,,,,,,,,,,,,,,,,,,,,,,,,525.1044813699555,525.1044813699555,525.1044813699555,525.1044813699555,525.1044813699555,525.1044813699555,525.1044813699555,525.1044813699555,525.1044813699555,525.1044813699555,a,1.4093733440386131,10,714,2,526.5427269700449,528.0573799510021,,,,,,,,,,,,,,,,,,,,,,,,,,,,,,,,,,,,,,,,,,,,,,,,,,,,,,,,,,,,,,,,,,,62010,2022-11-09_10h21.42.461,vts_reward_expectancy_bt_OFFLINE,2022.2.4,59.97116981696934,
0,1,0,0,0,0,0,1,circle,star,2,0,2,0,2,9,33,5,,,,,,,,,,,,,,,,,,,,,,,,,,,,,,,,,,,,,,,,528.5575646010693,528.5575646010693,528.5575646010693,528.5575646010693,528.5575646010693,528.5575646010693,528.5575646010693,528.5575646010693,528.5575646010693,528.5575646010693,l,4.774033994064666,10,724,2,533.3613620520337,534.8615260829683,534.8615260829683,535.3618486199994,,,,,,,,,,,,,,,,,,,,,,,,,,,,,,,,,,,,,,,,,,,,,,,,,,,,,,,,,,,,,,,,,62010,2022-11-09_10h21.42.461,vts_reward_expectancy_bt_OFFLINE,2022.2.4,59.97116981696934,
0,1,0,0,0,0,1,0,circle,hexagon,2,0,2,0,2,10,34,4,,,,,,,,,,,,,,,,,,,,,,,,,,,,,,,,,,,,,,,,535.3618486199994,535.3618486199994,535.3618486199994,535.3618486199994,535.3618486199994,535.3618486199994,535.3618486199994,535.3618486199994,535.3618486199994,535.3618486199994,l,1.7286659249803051,1,725,2,537.1167463230668,538.6315235260408,,,,,,,,,,,,,,,,,,,,,,,,,,,,,,,,,,,,,,,,,,,,,,,,,,,,,,,,,,,,,,,,,,,62010,2022-11-09_10h21.42.461,vts_reward_expectancy_bt_OFFLINE,2022.2.4,59.97116981696934,
0,0,0,1,0,0,1,0,star,hexagon,2,0,2,0,2,11,35,11,,,,,,,,,,,,,,,,,,,,,,,,,,,,,,,,,,,,,,,,539.1315719709964,539.1315719709964,539.1315719709964,539.1315719709964,539.1315719709964,539.1315719709964,539.1315719709964,539.1315719709964,539.1315719709964,539.1315719709964,l,2.5372705720365047,10,735,2,541.7015228560194,543.2015979939606,543.2015979939606,543.701833600062,,,,,,,,,,,,,,,,,,,,,,,,,,,,,,,,,,,,,,,,,,,,,,,,,,,,,,,,,,,,,,,,,62010,2022-11-09_10h21.42.461,vts_reward_expectancy_bt_OFFLINE,2022.2.4,59.97116981696934,
1,0,0,0,0,1,0,0,triangle,circle,2,0,2,0,3,0,36,0,,,,,,,,,,,,,,,,,,,,,,,,,,,,,,,,,,,,,,,,543.701833600062,543.701833600062,543.701833600062,543.701833600062,543.701833600062,543.701833600062,543.701833600062,543.701833600062,543.701833600062,543.701833600062,a,1.004088985035196,10,745,2,544.7358122899896,546.2379512810148,,,,,,,,,,,,,,,,,,,,,,,,,,,,,,,,,,,,,,,,,,,,,,,,,,,,,,,,,,,,,,,,,,,62010,2022-11-09_10h21.42.461,vts_reward_expectancy_bt_OFFLINE,2022.2.4,59.97116981696934,
0,1,0,0,0,0,1,0,circle,hexagon,2,0,2,0,3,1,37,4,,,,,,,,,,,,,,,,,,,,,,,,,,,,,,,,,,,,,,,,546.7378503850196,546.7378503850196,546.7378503850196,546.7378503850196,546.7378503850196,546.7378503850196,546.7378503850196,546.7378503850196,546.7378503850196,546.7378503850196,l,1.3208377549890429,10,755,2,548.0891915720422,549.5892126669642,549.5892126669642,550.0894480260322,,,,,,,,,,,,,,,,,,,,,,,,,,,,,,,,,,,,,,,,,,,,,,,,,,,,,,,,,,,,,,,,,62010,2022-11-09_10h21.42.461,vts_reward_expectancy_bt_OFFLINE,2022.2.4,59.97116981696934,
0,0,0,1,0,0,1,0,star,hexagon,2,0,2,0,3,2,38,11,,,,,,,,,,,,,,,,,,,,,,,,,,,,,,,,,,,,,,,,550.0894480260322,550.0894480260322,550.0894480260322,550.0894480260322,550.0894480260322,550.0894480260322,550.0894480260322,550.0894480260322,550.0894480260322,550.0894480260322,l,1.0079204950015992,10,765,2,551.1236318199662,552.6254955220502,,,,,,,,,,,,,,,,,,,,,,,,,,,,,,,,,,,,,,,,,,,,,,,,,,,,,,,,,,,,,,,,,,,62010,2022-11-09_10h21.42.461,vts_reward_expectancy_bt_OFFLINE,2022.2.4,59.97116981696934,
0,0,0,1,0,1,0,0,star ,circle,2,0,2,0,3,3,39,10,,,,,,,,,,,,,,,,,,,,,,,,,,,,,,,,,,,,,,,,553.125760046998,553.125760046998,553.125760046998,553.125760046998,553.125760046998,553.125760046998,553.125760046998,553.125760046998,553.125760046998,553.125760046998,l,5.756713610026054,1,766,2,558.9153381090146,560.43005322502,,,,,,,,,,,,,,,,,,,,,,,,,,,,,,,,,,,,,,,,,,,,,,,,,,,,,,,,,,,,,,,,,,,62010,2022-11-09_10h21.42.461,vts_reward_expectancy_bt_OFFLINE,2022.2.4,59.97116981696934,
0,1,0,0,1,0,0,0,circle,triangle,2,0,2,0,3,4,40,3,,,,,,,,,,,,,,,,,,,,,,,,,,,,,,,,,,,,,,,,560.9304953760002,560.9304953760002,560.9304953760002,560.9304953760002,560.9304953760002,560.9304953760002,560.9304953760002,560.9304953760002,560.9304953760002,560.9304953760002,l,1.1579606320010498,1,767,2,562.1161303980043,563.6164547890658,563.6164547890658,,,,,,,,,,,,,,,,,,,,,,,,,,,,,,,,,,,,,,,,,,,,,,,,,,,,,,,,,,,,,,,,,,62010,2022-11-09_10h21.42.461,vts_reward_expectancy_bt_OFFLINE,2022.2.4,59.97116981696934,
1,0,0,0,0,0,0,1,triangle,star,2,0,2,0,3,5,41,2,,,,,,,,,,,,,,,,,,,,,,,,,,,,,,,,,,,,,,,,564.1165297699627,564.1165297699627,564.1165297699627,564.1165297699627,564.1165297699627,564.1165297699627,564.1165297699627,564.1165297699627,564.1165297699627,564.1165297699627,a,0.8631943949731067,10,777,2,565.0026754640276,566.5026338030584,,,,,,,,,,,,,,,,,,,,,,,,,,,,,,,,,,,,,,,,,,,,,,,,,,,,,,,,,,,,,,,,,,,62010,2022-11-09_10h21.42.461,vts_reward_expectancy_bt_OFFLINE,2022.2.4,59.97116981696934,
1,0,0,0,0,0,1,0,triangle,hexagon,2,0,2,0,3,6,42,1,,,,,,,,,,,,,,,,,,,,,,,,,,,,,,,,,,,,,,,,567.002786290017,567.002786290017,567.002786290017,567.002786290017,567.002786290017,567.002786290017,567.002786290017,567.002786290017,567.002786290017,567.002786290017,a,0.6881835219683126,10,787,2,567.7200319539988,569.2203392880037,569.2203392880037,569.7201515600318,,,,,,,,,,,,,,,,,,,,,,,,,,,,,,,,,,,,,,,,,,,,,,,,,,,,,,,,,,,,,,,,,62010,2022-11-09_10h21.42.461,vts_reward_expectancy_bt_OFFLINE,2022.2.4,59.97116981696934,
0,0,1,0,0,0,0,1,hexagon,star,2,0,2,0,3,7,43,8,,,,,,,,,,,,,,,,,,,,,,,,,,,,,,,,,,,,,,,,569.7201515600318,569.7201515600318,569.7201515600318,569.7201515600318,569.7201515600318,569.7201515600318,569.7201515600318,569.7201515600318,569.7201515600318,569.7201515600318,a,1.5936984189320356,10,797,2,571.3400492200162,572.8400881950511,572.8400881950511,573.3401003340259,,,,,,,,,,,,,,,,,,,,,,,,,,,,,,,,,,,,,,,,,,,,,,,,,,,,,,,,,,,,,,,,,62010,2022-11-09_10h21.42.461,vts_reward_expectancy_bt_OFFLINE,2022.2.4,59.97116981696934,
0,1,0,0,0,0,0,1,circle,star,2,0,2,0,3,8,44,5,,,,,,,,,,,,,,,,,,,,,,,,,,,,,,,,,,,,,,,,573.3401003340259,573.3401003340259,573.3401003340259,573.3401003340259,573.3401003340259,573.3401003340259,573.3401003340259,573.3401003340259,573.3401003340259,573.3401003340259,a,1.5632415609434247,10,807,2,574.9247316260589,576.4263963899575,,,,,,,,,,,,,,,,,,,,,,,,,,,,,,,,,,,,,,,,,,,,,,,,,,,,,,,,,,,,,,,,,,,62010,2022-11-09_10h21.42.461,vts_reward_expectancy_bt_OFFLINE,2022.2.4,59.97116981696934,
0,0,1,0,0,1,0,0,hexagon,circle,2,0,2,0,3,9,45,7,,,,,,,,,,,,,,,,,,,,,,,,,,,,,,,,,,,,,,,,576.9266493610339,576.9266493610339,576.9266493610339,576.9266493610339,576.9266493610339,576.9266493610339,576.9266493610339,576.9266493610339,576.9266493610339,576.9266493610339,a,1.3399730530800298,10,817,2,578.2943506069714,579.7943588669877,579.7943588669877,580.2946296030423,,,,,,,,,,,,,,,,,,,,,,,,,,,,,,,,,,,,,,,,,,,,,,,,,,,,,,,,,,,,,,,,,62010,2022-11-09_10h21.42.461,vts_reward_expectancy_bt_OFFLINE,2022.2.4,59.97116981696934,
0,0,1,0,1,0,0,0,hexagon,triangle,2,0,2,0,3,10,46,6,,,,,,,,,,,,,,,,,,,,,,,,,,,,,,,,,,,,,,,,580.2946296030423,580.2946296030423,580.2946296030423,580.2946296030423,580.2946296030423,580.2946296030423,580.2946296030423,580.2946296030423,580.2946296030423,580.2946296030423,l,1.5503394739935175,10,827,2,581.8638827230316,583.364099959028,583.364099959028,583.8643582459772,,,,,,,,,,,,,,,,,,,,,,,,,,,,,,,,,,,,,,,,,,,,,,,,,,,,,,,,,,,,,,,,,62010,2022-11-09_10h21.42.461,vts_reward_expectancy_bt_OFFLINE,2022.2.4,59.97116981696934,
0,0,0,1,1,0,0,0,star,triangle,2,0,2,0,3,11,47,9,,,,,,,,,,,,,,,,,,,,,,,,,,,,,,,,,,,,,,,,583.8643582459772,583.8643582459772,583.8643582459772,583.8643582459772,583.8643582459772,583.8643582459772,583.8643582459772,583.8643582459772,583.8643582459772,583.8643582459772,l,0.8161367579596117,10,837,2,584.6986064519733,586.2005275969859,,,,,,,,,,,,,,,,,,,,,,,,,,,,,,,,,,,,,,,,,,,,,,,,,,,,,,,,,,,,,,,,,,,62010,2022-11-09_10h21.42.461,vts_reward_expectancy_bt_OFFLINE,2022.2.4,59.97116981696934,
,,,,,,,,,,,,,,,,,,0,0,0,0,0,0,0,0,,,,,,,,,,,,,,,,,,,,,,,,,,,,,,,,,,,,,,,,,,,,,,,,645.2919091939693,,,H,125,star,0.0007846429944038391,640.6016401810339,642.0904556290479,642.0904556290479,642.0904556290479,1,0,d,1.6559343379922211,0,643.7782885229681,,,,,,,,,,,,,,,,,,,,,,,,,,,,,,,,,,,,,,,,,,,,,,,,,,,62010,2022-11-09_10h21.42.461,vts_reward_expectancy_bt_OFFLINE,2022.2.4,59.97116981696934,
,,,,,,,,,,,,,,,,,,0,0,0,0,1,0,1,0,,,,,,,,,,,,,,,,,,,,,,,,,,,,,,,,,,,,,,,,,,,,,,,,650.0786854500184,,650.5788581650704,F,181,hexagon,0.016794627998024225,646.2880477070576,647.7611980680376,647.7611980680376,647.7611980680376,1,0,d,0.7887436408782378,0,648.578932116041,650.0786854500184,,,,,,,,,,,,,,,,,,,,,,,,,,,,,,,,,,,,,,,,,,,,,,,,,,62010,2022-11-09_10h21.42.461,vts_reward_expectancy_bt_OFFLINE,2022.2.4,59.97116981696934,
,,,,,,,,,,,,,,,,,,0,0,0,0,2,0,2,0,,,,,,,,,,,,,,,,,,,,,,,,,,,,,,,,,,,,,,,,,,,,,,,,654.9157415350201,,,B,174,triangle,0.0003072690451517701,651.0758856639732,652.564666246064,652.564666246064,652.564666246064,1,0,d,0.8221722240559757,0,653.4154327430297,654.9157415350201,,,,,,,,,,,,,,,,,,,,,,,,,,,,,,,,,,,,,,,,,,,,,,,,,,62010,2022-11-09_10h21.42.461,vts_reward_expectancy_bt_OFFLINE,2022.2.4,59.97116981696934,
,,,,,,,,,,,,,,,,,,0,0,0,0,3,0,3,0,,,,,,,,,,,,,,,,,,,,,,,,,,,,,,,,,,,,,,,,,,,,,,,,659.6858566510491,,660.1860276439693,U,139,circle,0.0004116039490327239,655.9125620319974,657.4016624779906,657.4016624779906,657.4016624779906,1,0,f,0.7666847630171105,0,658.1858542540576,659.6858566510491,,,,,,,,,,,,,,,,,,,,,,,,,,,,,,,,,,,,,,,,,,,,,,,,,,62010,2022-11-09_10h21.42.461,vts_reward_expectancy_bt_OFFLINE,2022.2.4,59.97116981696934,
,,,,,,,,,,,,,,,,,,0,0,0,0,4,0,4,0,,,,,,,,,,,,,,,,,,,,,,,,,,,,,,,,,,,,,,,,,,,,,,,,664.4726844179677,,664.9729135540547,S,146,hexagon,0.00035422295331954956,660.6822461120319,662.171803527046,662.171803527046,662.171803527046,1,0,f,0.7781019730027765,0,662.9726016359637,664.4726844179677,,,,,,,,,,,,,,,,,,,,,,,,,,,,,,,,,,,,,,,,,,,,,,,,,,62010,2022-11-09_10h21.42.461,vts_reward_expectancy_bt_OFFLINE,2022.2.4,59.97116981696934,
,,,,,,,,,,,,,,,,,,0,0,0,0,5,0,5,0,,,,,,,,,,,,,,,,,,,,,,,,,,,,,,,,,,,,,,,,,,,,,,,,669.476318800007,,669.9765403630445,W,160,circle,0.0005525449523702264,665.4688888180535,666.958727975958,666.958727975958,666.958727975958,1,0,f,0.9863313030218706,0,667.9765093419701,669.476318800007,,,,,,,,,,,,,,,,,,,,,,,,,,,,,,,,,,,,,,,,,,,,,,,,,,62010,2022-11-09_10h21.42.461,vts_reward_expectancy_bt_OFFLINE,2022.2.4,59.97116981696934,
,,,,,,,,,,,,,,,,,,0,0,0,0,6,0,6,0,,,,,,,,,,,,,,,,,,,,,,,,,,,,,,,,,,,,,,,,,,,,,,,,675.0466396859847,,675.5470655800309,Y,167,triangle,0.0004827070515602827,670.4727739660302,671.9623219859786,671.9623219859786,671.9623219859786,1,0,f,1.5525921600637957,0,673.5471614990383,675.0466396859847,,,,,,,,,,,,,,,,,,,,,,,,,,,,,,,,,,,,,,,,,,,,,,,,,,62010,2022-11-09_10h21.42.461,vts_reward_expectancy_bt_OFFLINE,2022.2.4,59.97116981696934,
,,,,,,,,,,,,,,,,,,0,0,0,0,7,0,7,0,,,,,,,,,,,,,,,,,,,,,,,,,,,,,,,,,,,,,,,,,,,,,,,,679.8005135520361,,,D,132,star,0.0003739219391718507,676.0435235040495,677.5328829849605,677.5328829849605,677.5328829849605,1,0,d,0.7409686570754275,0,678.3003317910479,679.8005135520361,,,,,,,,,,,,,,,,,,,,,,,,,,,,,,,,,,,,,,,,,,,,,,,,,,62010,2022-11-09_10h21.42.461,vts_reward_expectancy_bt_OFFLINE,2022.2.4,59.97116981696934,
,,,,,,,,,,,,,,,,,,0,0,0,0,8,0,8,0,,,,,,,,,,,,,,,,,,,,,,,,,,,,,,,,,,,,,,,,,,,,,,,,684.5206116290065,,685.0207811309956,H,125,hexagon,0.0003505230415612459,680.7966802760493,682.2863025090192,682.2863025090192,682.2863025090192,1,0,d,0.7121451779967174,0,683.020656208042,684.5206116290065,,,,,,,,,,,,,,,,,,,,,,,,,,,,,,,,,,,,,,,,,,,,,,,,,,62010,2022-11-09_10h21.42.461,vts_reward_expectancy_bt_OFFLINE,2022.2.4,59.97116981696934,
,,,,,,,,,,,,,,,,,,0,0,0,0,9,0,9,0,,,,,,,,,,,,,,,,,,,,,,,,,,,,,,,,,,,,,,,,,,,,,,,,689.2408001690637,,689.7513065600069,F,181,circle,0.0006444549653679132,685.5167764569633,687.0066121550044,687.0066121550044,687.0066121550044,1,0,d,0.7170383429620415,0,687.7414434310049,689.2408001690637,,,,,,,,,,,,,,,,,,,,,,,,,,,,,,,,,,,,,,,,,,,,,,,,,,62010,2022-11-09_10h21.42.461,vts_reward_expectancy_bt_OFFLINE,2022.2.4,59.97116981696934,
,,,,,,,,,,,,,,,,,,,,,,,,,,0,0,0,0,0,0,0,0,,,,,,,,,,,,,,,,,,,,,,,,,,,,,,,,,,,,,,,,726.2337413700297,,,B,160,circle,0.001978904940187931,,,,,1,0,,,1,724.733905442059,726.2337413700297,722.0946880560368,723.5826930879848,723.5826930879848,723.5826930879848,k,1.1218306180089712,,,,,,,,,,,,,,,,,,,,,,,,,,,,,,,,,,,,,,,,,,,,62010,2022-11-09_10h21.42.461,vts_reward_expectancy_bt_OFFLINE,2022.2.4,59.97116981696934,
,,,,,,,,,,,,,,,,,,,,,,,,,,0,0,0,0,1,0,1,0,,,,,,,,,,,,,,,,,,,,,,,,,,,,,,,,,,,,,,,,731.1038342560641,,,U,174,hexagon,0.0018414610531181097,,,,,1,0,,,1,729.6042787129991,731.1038342560641,727.2307222810341,728.7198740449967,728.7198740449967,728.7198740449967,k,0.8569294090848416,,,,,,,,,,,,,,,,,,,,,,,,,,,,,,,,,,,,,,,,,,,,62010,2022-11-09_10h21.42.461,vts_reward_expectancy_bt_OFFLINE,2022.2.4,59.97116981696934,
,,,,,,,,,,,,,,,,,,,,,,,,,,0,0,0,0,2,0,2,0,,,,,,,,,,,,,,,,,,,,,,,,,,,,,,,,,,,,,,,,735.7407197810244,,736.2408602229552,S,181,star,0.0017205019248649478,,,,,1,0,,,1,734.2410653140396,735.7407197810244,732.1012420729967,733.5900981420418,733.5900981420418,733.5900981420418,k,0.6222389009781182,,,,,,,,,,,,,,,,,,,,,,,,,,,,,,,,,,,,,,,,,,,,62010,2022-11-09_10h21.42.461,vts_reward_expectancy_bt_OFFLINE,2022.2.4,59.97116981696934,
,,,,,,,,,,,,,,,,,,,,,,,,,,0,0,0,0,3,0,3,0,,,,,,,,,,,,,,,,,,,,,,,,,,,,,,,,,,,,,,,,740.4107458479702,,740.9109761790605,W,146,triangle,0.00036393001209944487,,,,,1,0,,,1,738.911306192982,740.4107458479702,736.7374522989849,738.226626900956,738.226626900956,738.226626900956,j,0.664858192903921,,,,,,,,,,,,,,,,,,,,,,,,,,,,,,,,,,,,,,,,,,,,62010,2022-11-09_10h21.42.461,vts_reward_expectancy_bt_OFFLINE,2022.2.4,59.97116981696934,
,,,,,,,,,,,,,,,,,,,,,,,,,,0,0,0,0,4,0,4,0,,,,,,,,,,,,,,,,,,,,,,,,,,,,,,,,,,,,,,,,744.9811454790179,,745.4814358400181,H,167,star,0.0004314139951020479,,,,,1,0,,,1,743.4814036469907,744.9811454790179,741.4075831120135,742.8970867840108,742.8970867840108,742.8970867840108,k,0.5631546449149027,,,,,,,,,,,,,,,,,,,,,,,,,,,,,,,,,,,,,,,,,,,,62010,2022-11-09_10h21.42.461,vts_reward_expectancy_bt_OFFLINE,2022.2.4,59.97116981696934,
,,,,,,,,,,,,,,,,,,,,,,,,,,0,0,0,0,5,0,5,0,,,,,,,,,,,,,,,,,,,,,,,,,,,,,,,,,,,,,,,,749.5178607640555,,,F,132,hexagon,0.0003331139450892806,,,,,1,0,,,1,748.0180896610254,749.5178607640555,745.9774078619666,747.466860999004,747.466860999004,747.466860999004,j,0.5268141599372029,,,,,,,,,,,,,,,,,,,,,,,,,,,,,,,,,,,,,,,,,,,,62010,2022-11-09_10h21.42.461,vts_reward_expectancy_bt_OFFLINE,2022.2.4,59.97116981696934,
,,,,,,,,,,,,,,,,,,,,,,,,,,0,0,0,0,6,0,6,0,,,,,,,,,,,,,,,,,,,,,,,,,,,,,,,,,,,,,,,,754.0712594550569,,754.5713124200702,D,125,circle,0.0003802210558205843,,,,,1,0,,,1,752.5705411050003,754.0712594550569,750.5143271950074,752.0038569599856,752.0038569599856,752.0038569599856,j,0.5346583850914612,,,,,,,,,,,,,,,,,,,,,,,,,,,,,,,,,,,,,,,,,,,,62010,2022-11-09_10h21.42.461,vts_reward_expectancy_bt_OFFLINE,2022.2.4,59.97116981696934,
,,,,,,,,,,,,,,,,,,,,,,,,,,0,0,0,0,7,0,7,0,,,,,,,,,,,,,,,,,,,,,,,,,,,,,,,,,,,,,,,,758.5914038330084,,759.0917369580129,Y,139,triangle,-0.0003219569334760308,,,,,1,0,,,1,757.0917546079727,758.5914038330084,755.0823371179868,756.5575996170519,756.5575996170519,756.5575996170519,j,0.5151657189708203,,,,,,,,,,,,,,,,,,,,,,,,,,,,,,,,,,,,,,,,,,,,62010,2022-11-09_10h21.42.461,vts_reward_expectancy_bt_OFFLINE,2022.2.4,59.97116981696934,
,,,,,,,,,,,,,,,,,,,,,,,,,,0,0,0,0,8,0,8,0,,,,,,,,,,,,,,,,,,,,,,,,,,,,,,,,,,,,,,,,763.6285766490037,,764.1286052530631,B,160,star,0.000433959998190403,,,,,1,0,,,1,762.1291281610029,763.6285766490037,759.5874800210586,761.0756149280351,761.0756149280351,761.0756149280351,k,1.0258909850381315,,,,,,,,,,,,,,,,,,,,,,,,,,,,,,,,,,,,,,,,,,,,62010,2022-11-09_10h21.42.461,vts_reward_expectancy_bt_OFFLINE,2022.2.4,59.97116981696934,
,,,,,,,,,,,,,,,,,,,,,,,,,,0,0,0,0,9,0,9,0,,,,,,,,,,,,,,,,,,,,,,,,,,,,,,,,,,,,,,,,768.1318819710286,,,U,174,circle,0.00022109400015324354,,,,,1,0,,,1,766.6321576669579,768.1318819710286,764.6245209389599,766.1128237210214,766.1128237210214,766.1128237210214,k,0.5012719189980999,,,,,,,,,,,,,,,,,,,,,,,,,,,,,,,,,,,,,,,,,,,,62010,2022-11-09_10h21.42.461,vts_reward_expectancy_bt_OFFLINE,2022.2.4,59.97116981696934,
,,,,,,,,,,,,,,,,,,,,,,,,,,,,,,,,,,0,0,0,0,0,0,0,0,,,,,,,,,,,,,,,,,,,,,,,,,,,,0,837,,,816.8841116869589,,,S,174,circle,0.002452010987326503,,,,,1,0,,,2,,,,,,,,,812.2108923699707,812.2108923699707,812.2108923699707,812.2108923699707,813.6983386609936,813.6983386609936,813.6983386609936,813.6983386609936,813.7149855779717,813.7149855779717,813.7149855779717,813.7149855779717,-1,letter,NA,f,1.6646366539644077,vtsPrac,815.3861152300378,,,,,,,,,,,,,,,,,,,,,,,,,62010,2022-11-09_10h21.42.461,vts_reward_expectancy_bt_OFFLINE,2022.2.4,59.97116981696934,
,,,,,,,,,,,,,,,,,,,,,,,,,,,,,,,,,,0,0,0,0,1,0,1,0,,,,,,,,,,,,,,,,,,,,,,,,,,,,0,837,,,822.2550008740509,,,B,146,triangle,0.001957644009962678,,,,,1,0,,,2,,,,,,,,,817.8807780430652,817.8807780430652,817.8807780430652,817.8807780430652,819.368721700972,819.368721700972,819.368721700972,819.368721700972,819.3853853309993,819.3853853309993,819.3853853309993,819.3853853309993,repeat,letter,lettRpt,d,1.3603679270017892,vtsPrac,820.7536427520681,,,,,,,,,,,,,,,,,,,,,,,,,62010,2022-11-09_10h21.42.461,vts_reward_expectancy_bt_OFFLINE,2022.2.4,59.97116981696934,
,,,,,,,,,,,,,,,,,,,,,,,,,,,,,,,,,,0,0,0,0,2,0,2,0,,,,,,,,,,,,,,,,,,,,,,,,,,,,0,837,,,827.375325373956,,,H,139,triangle,0.0020810860441997647,,,,,1,0,,,2,,,,,,,,,823.2516989680007,823.2516989680007,823.2516989680007,823.2516989680007,824.7390676659998,824.7390676659998,824.7390676659998,824.7390676659998,824.755730982055,824.755730982055,824.755730982055,824.755730982055,repeat,letter,lettRpt,d,1.1096030989428982,vtsPrac,825.8743346310221,,,,,,,,,,,,,,,,,,,,,,,,,62010,2022-11-09_10h21.42.461,vts_reward_expectancy_bt_OFFLINE,2022.2.4,59.97116981696934,
,,,,,,,,,,,,,,,,,,,,,,,,,,,,,,,,,,0,0,0,0,3,0,3,0,,,,,,,,,,,,,,,,,,,,,,,,,,,,0,837,,,833.5796258869814,,,W,160,circle,0.0017368880799040198,,,,,1,0,,,2,,,,,,,,,828.3716147140367,828.3716147140367,828.3716147140367,828.3716147140367,829.8595241550356,829.8595241550356,829.8595241550356,829.8595241550356,829.8761150350329,829.8761150350329,829.8761150350329,829.8761150350329,switch,number,numSwt,k,2.1993178559932858,vtsPrac,832.0791900310433,,,,,,,,,,,,,,,,,,,,,,,,,62010,2022-11-09_10h21.42.461,vts_reward_expectancy_bt_OFFLINE,2022.2.4,59.97116981696934,
,,,,,,,,,,,,,,,,,,,,,,,,,,,,,,,,,,0,0,0,0,4,0,4,0,,,,,,,,,,,,,,,,,,,,,,,,,,,,0,837,,,839.5663567000302,,,S,174,star,0.0006038950523361564,,,,,1,0,,,2,,,,,,,,,834.575658514048,834.575658514048,834.575658514048,834.575658514048,836.063537609065,836.063537609065,836.063537609065,836.063537609065,836.080128734,836.080128734,836.080128734,836.080128734,switch,letter,lettSwt,f,1.9693049769848585,vtsPrac,838.0510085519636,,,,,,,,,,,,,,,,,,,,,,,,,62010,2022-11-09_10h21.42.461,vts_reward_expectancy_bt_OFFLINE,2022.2.4,59.97116981696934,
,,,,,,,,,,,,,,,,,,,,,,,,,,,,,,,,,,0,0,0,0,5,0,5,0,,,,,,,,,,,,,,,,,,,,,,,,,,,,0,837,,,844.820186981,,,B,146,circle,0.016535870963707566,,,,,1,0,,,2,,,,,,,,,840.5630844590487,840.5630844590487,840.5630844590487,840.5630844590487,842.0359860840254,842.0359860840254,842.0359860840254,842.0359860840254,842.069467972964,842.069467972964,842.069467972964,842.069467972964,switch,number,numSwt,j,1.2499947609612718,vtsPrac,843.3046760880388,,,,,,,,,,,,,,,,,,,,,,,,,62010,2022-11-09_10h21.42.461,vts_reward_expectancy_bt_OFFLINE,2022.2.4,59.97116981696934,
,,,,,,,,,,,,,,,,,,,,,,,,,,,,,,,,,,0,0,0,0,6,0,6,0,,,,,,,,,,,,,,,,,,,,,,,,,,,,0,837,,,850.4738627800252,,850.974421425024,H,139,star,0.016768082045018673,,,,,1,0,,,2,,,,,,,,,845.816575801,845.816575801,845.816575801,845.816575801,847.2896974940086,847.2896974940086,847.2896974940086,847.2896974940086,847.3231020710664,847.3231020710664,847.3231020710664,847.3231020710664,switch,letter,lettSwt,d,1.65651187999174,vtsPrac,848.9751271989662,850.4738627800252,,,,,,,,,,,,,,,,,,,,,,,,62010,2022-11-09_10h21.42.461,vts_reward_expectancy_bt_OFFLINE,2022.2.4,59.97116981696934,
,,,,,,,,,,,,,,,,,,,,,,,,,,,,,,,,,,0,0,0,0,7,0,7,0,,,,,,,,,,,,,,,,,,,,,,,,,,,,0,837,,,855.5947485050419,,856.0946554919938,W,160,circle,0.0002124530728906393,,,,,1,0,,,2,,,,,,,,,851.4708933020011,851.4708933020011,851.4708933020011,851.4708933020011,852.9601954619866,852.9601954619866,852.9601954619866,852.9601954619866,852.9768698900007,852.9768698900007,852.9768698900007,852.9768698900007,switch,number,numSwt,k,1.1047880629776046,vtsPrac,854.0951575010549,855.5947485050419,,,,,,,,,,,,,,,,,,,,,,,,62010,2022-11-09_10h21.42.461,vts_reward_expectancy_bt_OFFLINE,2022.2.4,59.97116981696934,
,,,,,,,,,,,,,,,,,,,,,,,,,,,,,,,,,,0,0,0,0,8,0,8,0,,,,,,,,,,,,,,,,,,,,,,,,,,,,0,837,,,860.548242193996,,,U,125,hexagon,0.00032081210520118475,,,,,1,0,,,2,,,,,,,,,856.5919777490199,856.5919777490199,856.5919777490199,856.5919777490199,858.0807475149632,858.0807475149632,858.0807475149632,858.0807475149632,858.0974120859755,858.0974120859755,858.0974120859755,858.0974120859755,repeat,number,numRpt,j,0.9449096359312534,vtsPrac,859.048504631035,860.548242193996,,,,,,,,,,,,,,,,,,,,,,,,62010,2022-11-09_10h21.42.461,vts_reward_expectancy_bt_OFFLINE,2022.2.4,59.97116981696934,
,,,,,,,,,,,,,,,,,,,,,,,,,,,,,,,,,,0,0,0,0,9,0,9,0,,,,,,,,,,,,,,,,,,,,,,,,,,,,0,837,,,865.3515042229556,,865.8518613789929,F,146,star,0.0005401910748332739,,,,,1,0,,,2,,,,,,,,,861.5447800770635,861.5447800770635,861.5447800770635,861.5447800770635,863.0342905099969,863.0342905099969,863.0342905099969,863.0342905099969,863.0507460619556,863.0507460619556,863.0507460619556,863.0507460619556,switch,letter,lettSwt,d,0.7848287899978459,vtsPrac,863.8513027520385,865.3515042229556,,,,,,,,,,,,,,,,,,,,,,,,62010,2022-11-09_10h21.42.461,vts_reward_expectancy_bt_OFFLINE,2022.2.4,59.97116981696934,
,,,,,,,,,,,,,,,,,,,,,,,,,,,,,,,,,,0,0,0,0,10,0,10,0,,,,,,,,,,,,,,,,,,,,,,,,,,,,0,837,,,870.4221123020397,,870.922176699969,W,174,hexagon,-0.0004590980242937803,,,,,1,0,,,2,,,,,,,,,866.3601102629909,866.3601102629909,866.3601102629909,866.3601102629909,867.8379929419607,867.8379929419607,867.8379929419607,867.8379929419607,867.8713233190356,867.8713233190356,867.8713233190356,867.8713233190356,switch,number,numSwt,k,1.0659342699218541,vtsPrac,868.922838923987,870.4221123020397,,,,,,,,,,,,,,,,,,,,,,,,62010,2022-11-09_10h21.42.461,vts_reward_expectancy_bt_OFFLINE,2022.2.4,59.97116981696934,
,,,,,,,,,,,,,,,,,,,,,,,,,,,,,,,,,,0,0,0,0,11,0,11,0,,,,,,,,,,,,,,,,,,,,,,,,,,,,0,837,,,875.1255983910523,,875.6256409380585,Y,139,star,0.0002571159275248647,,,,,1,0,,,2,,,,,,,,,871.4188879430294,871.4188879430294,871.4188879430294,871.4188879430294,872.908231399022,872.908231399022,872.908231399022,872.908231399022,872.924671671004,872.924671671004,872.924671671004,872.924671671004,switch,letter,lettSwt,f,0.6870754989795387,vtsPrac,873.6262104460038,875.1255983910523,,,,,,,,,,,,,,,,,,,,,,,,62010,2022-11-09_10h21.42.461,vts_reward_expectancy_bt_OFFLINE,2022.2.4,59.97116981696934,
,,,,,,,,,,,,,,,,,,,,,,,,,,,,,,,,,,0,0,0,0,12,0,12,0,,,,,,,,,,,,,,,,,,,,,,,,,,,,0,837,,,879.8455252730055,,880.3457379610045,S,160,circle,0.0006461790762841702,,,,,1,0,,,2,,,,,,,,,876.1222246530233,876.1222246530233,876.1222246530233,876.1222246530233,877.6116722619627,877.6116722619627,877.6116722619627,877.6116722619627,877.6286129490472,877.6286129490472,877.6286129490472,877.6286129490472,switch,number,numSwt,k,0.7086513440590352,vtsPrac,878.3465876199771,879.8455252730055,,,,,,,,,,,,,,,,,,,,,,,,62010,2022-11-09_10h21.42.461,vts_reward_expectancy_bt_OFFLINE,2022.2.4,59.97116981696934,
,,,,,,,,,,,,,,,,,,,,,,,,,,,,,,,,,,0,0,0,0,13,0,13,0,,,,,,,,,,,,,,,,,,,,,,,,,,,,0,837,,,884.5325720140245,,,B,139,star,0.0003833579830825329,,,,,1,0,,,2,,,,,,,,,880.8424617979908,880.8424617979908,880.8424617979908,880.8424617979908,882.3315891530365,882.3315891530365,882.3315891530365,882.3315891530365,882.3481911410345,882.3481911410345,882.3481911410345,882.3481911410345,switch,letter,lettSwt,d,0.6587541609769687,vtsPrac,883.0170200089924,,,,,,,,,,,,,,,,,,,,,,,,,62010,2022-11-09_10h21.42.461,vts_reward_expectancy_bt_OFFLINE,2022.2.4,59.97116981696934,
,,,,,,,,,,,,,,,,,,,,,,,,,,,,,,,,,,0,0,0,0,14,0,14,0,,,,,,,,,,,,,,,,,,,,,,,,,,,,0,837,,,889.2362555110594,,,F,146,hexagon,0.01655950304120779,,,,,1,0,,,2,,,,,,,,,885.5289780859603,885.5289780859603,885.5289780859603,885.5289780859603,887.0020176990656,887.0020176990656,887.0020176990656,887.0020176990656,887.0353485540254,887.0353485540254,887.0353485540254,887.0353485540254,switch,number,numSwt,j,0.6900979109341279,vtsPrac,887.7203697350342,,,,,,,,,,,,,,,,,,,,,,,,,62010,2022-11-09_10h21.42.461,vts_reward_expectancy_bt_OFFLINE,2022.2.4,59.97116981696934,
,,,,,,,,,,,,,,,,,,,,,,,,,,,,,,,,,,0,0,0,0,15,0,15,0,,,,,,,,,,,,,,,,,,,,,,,,,,,,0,837,,,893.8565216599964,,894.3565201270394,U,132,circle,0.01661151507869363,,,,,1,0,,,2,,,,,,,,,890.2325121919857,890.2325121919857,890.2325121919857,890.2325121919857,891.7054792280542,891.7054792280542,891.7054792280542,891.7054792280542,891.7391224120511,891.7391224120511,891.7391224120511,891.7391224120511,repeat,number,numRpt,j,0.633225422934629,vtsPrac,892.3572060189908,893.8565216599964,,,,,,,,,,,,,,,,,,,,,,,,62010,2022-11-09_10h21.42.461,vts_reward_expectancy_bt_OFFLINE,2022.2.4,59.97116981696934,
,,,,,,,,,,,,,,,,,,,,,,,,,,,,,,,,,,0,0,0,0,16,0,16,0,,,,,,,,,,,,,,,,,,,,,,,,,,,,0,837,,,898.443258957006,,898.943639945006,F,174,circle,0.00033385492861270905,,,,,1,0,,,2,,,,,,,,,894.8526560170576,894.8526560170576,894.8526560170576,894.8526560170576,896.3406854929635,896.3406854929635,896.3406854929635,896.3406854929635,896.3571272350382,896.3571272350382,896.3571272350382,896.3571272350382,repeat,number,numRpt,k,0.5781379679683596,vtsPrac,896.9442088289652,898.443258957006,,,,,,,,,,,,,,,,,,,,,,,,62010,2022-11-09_10h21.42.461,vts_reward_expectancy_bt_OFFLINE,2022.2.4,59.97116981696934,
,,,,,,,,,,,,,,,,,,,,,,,,,,,,,,,,,,0,0,0,0,17,0,17,0,,,,,,,,,,,,,,,,,,,,,,,,,,,,0,837,,,903.1468684410211,,903.6470865269657,S,181,triangle,0.00046885304618626833,,,,,1,0,,,2,,,,,,,,,899.4400392069947,899.4400392069947,899.4400392069947,899.4400392069947,900.9272315140115,900.9272315140115,900.9272315140115,900.9272315140115,900.9441026559798,900.9441026559798,900.9441026559798,900.9441026559798,switch,letter,lettSwt,f,0.6941628769272938,vtsPrac,901.647665327997,903.1468684410211,,,,,,,,,,,,,,,,,,,,,,,,62010,2022-11-09_10h21.42.461,vts_reward_expectancy_bt_OFFLINE,2022.2.4,59.97116981696934,
,,,,,,,,,,,,,,,,,,,,,,,,,,,,,,,,,,0,0,0,0,18,0,18,0,,,,,,,,,,,,,,,,,,,,,,,,,,,,0,837,,,907.7669063910143,,,Y,132,star,0.0005728439427912235,,,,,1,0,,,2,,,,,,,,,904.143063770025,904.143063770025,904.143063770025,904.143063770025,905.6309134539915,905.6309134539915,905.6309134539915,905.6309134539915,905.6475597450044,905.6475597450044,905.6475597450044,905.6475597450044,repeat,letter,lettRpt,f,0.6030530360294506,vtsPrac,906.2659983020276,,,,,,,,,,,,,,,,,,,,,,,,,62010,2022-11-09_10h21.42.461,vts_reward_expectancy_bt_OFFLINE,2022.2.4,59.97116981696934,
,,,,,,,,,,,,,,,,,,,,,,,,,,,,,,,,,,0,0,0,0,19,0,19,0,,,,,,,,,,,,,,,,,,,,,,,,,,,,0,837,,,912.6038592889672,,,U,167,triangle,0.001605957979336381,,,,,1,0,,,2,,,,,,,,,908.7630541409599,908.7630541409599,908.7630541409599,908.7630541409599,910.2512016430264,910.2512016430264,910.2512016430264,910.2512016430264,910.2678612619638,910.2678612619638,910.2678612619638,910.2678612619638,repeat,letter,lettRpt,f,0.8205154469469562,vtsPrac,911.1027465569787,,,,,,,,,,,,,,,,,,,,,,,,,62010,2022-11-09_10h21.42.461,vts_reward_expectancy_bt_OFFLINE,2022.2.4,59.97116981696934,
,,,,,,,,,,,,,,,,,,,,,,,,,,,,,,,,,,0,0,0,0,20,0,20,0,,,,,,,,,,,,,,,,,,,,,,,,,,,,0,837,,,917.3073979279725,,,B,125,circle,0.0021299130748957396,,,,,1,0,,,2,,,,,,,,,913.5999671079917,913.5999671079917,913.5999671079917,913.5999671079917,915.0880915700691,915.0880915700691,915.0880915700691,915.0880915700691,915.1047100040596,915.1047100040596,915.1047100040596,915.1047100040596,switch,number,numSwt,j,0.6861928559374064,vtsPrac,915.8062828059774,,,,,,,,,,,,,,,,,,,,,,,,,62010,2022-11-09_10h21.42.461,vts_reward_expectancy_bt_OFFLINE,2022.2.4,59.97116981696934,
,,,,,,,,,,,,,,,,,,,,,,,,,,,,,,,,,,0,0,0,0,21,0,21,0,,,,,,,,,,,,,,,,,,,,,,,,,,,,0,837,,,921.8775923430221,,,U,167,hexagon,0.002261919085867703,,,,,1,0,,,2,,,,,,,,,918.3036409179913,918.3036409179913,918.3036409179913,918.3036409179913,919.7914771899814,919.7914771899814,919.7914771899814,919.7914771899814,919.8081565250177,919.8081565250177,919.8081565250177,919.8081565250177,repeat,number,numRpt,k,0.5505281270015985,vtsPrac,920.3750230839942,921.8775923430221,,,,,,,,,,,,,,,,,,,,,,,,62010,2022-11-09_10h21.42.461,vts_reward_expectancy_bt_OFFLINE,2022.2.4,59.97116981696934,
,,,,,,,,,,,,,,,,,,,,,,,,,,,,,,,,,,0,0,0,0,22,0,22,0,,,,,,,,,,,,,,,,,,,,,,,,,,,,0,837,,,926.6310418939684,,,D,174,star,0.0006186639657244086,,,,,1,0,,,2,,,,,,,,,922.8736971550388,922.8736971550388,922.8736971550388,922.8736971550388,924.3618630550336,924.3618630550336,924.3618630550336,924.3618630550336,924.3784253110643,924.3784253110643,924.3784253110643,924.3784253110643,switch,letter,lettSwt,d,0.7397792869014665,vtsPrac,925.1298371379962,,,,,,,,,,,,,,,,,,,,,,,,,62010,2022-11-09_10h21.42.461,vts_reward_expectancy_bt_OFFLINE,2022.2.4,59.97116981696934,
,,,,,,,,,,,,,,,,,,,,,,,,,,,,,,,,,,0,0,0,0,23,0,23,0,,,,,,,,,,,,,,,,,,,,,,,,,,,,0,837,,,931.3326616430422,,,H,139,hexagon,0.00196438399143517,,,,,1,0,,,2,,,,,,,,,927.6269705540035,927.6269705540035,927.6269705540035,927.6269705540035,929.1152639390202,929.1152639390202,929.1152639390202,929.1152639390202,929.1320041919826,929.1320041919826,929.1320041919826,929.1320041919826,switch,number,numSwt,j,0.6766839800402522,vtsPrac,929.8174251889577,,,,,,,,,,,,,,,,,,,,,,,,,62010,2022-11-09_10h21.42.461,vts_reward_expectancy_bt_OFFLINE,2022.2.4,59.97116981696934,
,,,,,,,,,,,,,,,,,,,,,,,,,,,,,,,,,,0,0,0,0,24,0,24,0,,,,,,,,,,,,,,,,,,,,,,,,,,,,0,837,,,935.9527349419659,,,B,139,star,0.0015533029800280929,,,,,1,0,,,2,,,,,,,,,932.3131587819662,932.3131587819662,932.3131587819662,932.3131587819662,933.802189241047,933.802189241047,933.802189241047,933.802189241047,933.8189331450267,933.8189331450267,933.8189331450267,933.8189331450267,switch,letter,lettSwt,d,0.6259862559381872,vtsPrac,934.4537347590085,935.9527349419659,,,,,,,,,,,,,,,,,,,,,,,,62010,2022-11-09_10h21.42.461,vts_reward_expectancy_bt_OFFLINE,2022.2.4,59.97116981696934,
,,,,,,,,,,,,,,,,,,,,,,,,,,,,,,,,,,0,0,0,0,25,0,25,0,,,,,,,,,,,,,,,,,,,,,,,,,,,,0,837,,,940.8400198330637,,,S,174,hexagon,0.004674296942539513,,,,,1,0,,,2,,,,,,,,,936.9518715440063,936.9518715440063,936.9518715440063,936.9518715440063,938.4387369940523,938.4387369940523,938.4387369940523,938.4387369940523,938.4557593839709,938.4557593839709,938.4557593839709,938.4557593839709,switch,number,numSwt,k,0.8608254930004478,vtsPrac,939.3241560449824,,,,,,,,,,,,,,,,,,,,,,,,,62010,2022-11-09_10h21.42.461,vts_reward_expectancy_bt_OFFLINE,2022.2.4,59.97116981696934,
