LTriangleOpac,LCircleOpac,LHexagonOpac,LStarOpac,RTriangleOpac,RCircleOpac,RHexagonOpac,RStarOpac,LShape_ID,RShape_ID,training_blocks.thisRepN,training_blocks.thisTrialN,training_blocks.thisN,training_blocks.thisIndex,training.thisRepN,training.thisTrialN,training.thisN,training.thisIndex,task1_prac_redo.thisRepN,task1_prac_redo.thisTrialN,task1_prac_redo.thisN,task1_prac_redo.thisIndex,task1_prac_trials.thisRepN,task1_prac_trials.thisTrialN,task1_prac_trials.thisN,task1_prac_trials.thisIndex,task2_prac_redo.thisRepN,task2_prac_redo.thisTrialN,task2_prac_redo.thisN,task2_prac_redo.thisIndex,task2_praac_trials.thisRepN,task2_praac_trials.thisTrialN,task2_praac_trials.thisN,task2_praac_trials.thisIndex,vts_prac_redo.thisRepN,vts_prac_redo.thisTrialN,vts_prac_redo.thisN,vts_prac_redo.thisIndex,vts_practice_trials.thisRepN,vts_practice_trials.thisTrialN,vts_practice_trials.thisN,vts_practice_trials.thisIndex,trials_norew.thisRepN,trials_norew.thisTrialN,trials_norew.thisN,trials_norew.thisIndex,block.thisRepN,block.thisTrialN,block.thisN,block.thisIndex,trials_rew.thisRepN,trials_rew.thisTrialN,trials_rew.thisN,trials_rew.thisIndex,key_resp.started,key_resp.keys,key_resp.rt,left_circle.started,right_circle.started,left_triangle.started,right_triangle.started,left_star.started,right_star.started,left_hexagon.started,right_hexagon.started,training_fix.started,training_resp.started,training_resp.keys,training_resp.rt,points_trial,points_cumul,trainBlock,training_feedback_txt.started,fix.started,training_feedback_txt.stopped,fix.stopped,curr_topStim,curr_bottStim,curr_shape,ISI.started,tgt_fix_prac1.started,top_target_prac1.started,bott_target_prac1.started,target_resp_prac1.started,acc,E1,target_resp_prac1.keys,target_resp_prac1.rt,pracBlock,prac_fback_text.started,prac_fback_text.stopped,tgt_fix_prac2.started,top_target_prac2.started,bott_target_prac2.started,target_resp_prac2.started,target_resp_prac2.keys,target_resp_prac2.rt,star.started,hegagon.started,triangle.started,circle.started,top_target.started,tgt_fix.started,bot_target.started,target_resp.started,star.stopped,hegagon.stopped,triangle.stopped,circle.stopped,top_target.stopped,tgt_fix.stopped,bot_target.stopped,target_resp.stopped,alt,task,condition,target_resp.keys,rewCond,vts_fback.started,target_resp.rt,vts_fback.stopped,blockNum,norew_fback.started,norew_fback.stopped,key_resp_2.keys,key_resp_2.rt,rewExpectancy,feedbk_text.started,feedbk_text.stopped,text_3.started,debrief.started,text_3.stopped,button.started,debrief.index,debrief.itemText,debrief.type,debrief.granularity,debrief.font,debrief.markerColor,debrief.response,debrief.rt,button.numClicks,button.timesOn,button.timesOff,participant,date,expName,psychopyVersion,frameRate,
,,,,,,,,,,,,,,,,,,,,,,,,,,,,,,,,,,,,,,,,,,,,,,,,,,,,,,596.291018006159,space,14.156691570067778,,,,,,,,,,,,,,,,,,,,,,,,,,,,,,,,,,,,,,,,,,,,,,,,,,,,,,,,,,,,,,,,,,,,,,,,,,,,,,,,,,,,,,,,62897,2022-11-17_11h26.45.648,vts_reward_expectancy_bt_OFFLINE,2022.2.4,60.0381405711073,
0,1,0,0,1,0,0,0,circle,triangle,0,0,0,0,0,0,0,3,,,,,,,,,,,,,,,,,,,,,,,,,,,,,,,,,,,,,,,,637.3327171080746,637.3327171080746,637.3327171080746,637.3327171080746,637.3327171080746,637.3327171080746,637.3327171080746,637.3327171080746,637.3327171080746,637.3327171080746,a,4.23339844099246,10,10,0,641.5967385461554,643.1116458030883,,,,,,,,,,,,,,,,,,,,,,,,,,,,,,,,,,,,,,,,,,,,,,,,,,,,,,,,,,,,,,,,,,,,,,,62897,2022-11-17_11h26.45.648,vts_reward_expectancy_bt_OFFLINE,2022.2.4,60.0381405711073,
1,0,0,0,0,1,0,0,triangle,circle,0,0,0,0,0,1,1,0,,,,,,,,,,,,,,,,,,,,,,,,,,,,,,,,,,,,,,,,643.6120861109812,643.6120861109812,643.6120861109812,643.6120861109812,643.6120861109812,643.6120861109812,643.6120861109812,643.6120861109812,643.6120861109812,643.6120861109812,l,1.7791962209157646,1,11,0,645.4146397609729,646.9149265480228,,,,,,,,,,,,,,,,,,,,,,,,,,,,,,,,,,,,,,,,,,,,,,,,,,,,,,,,,,,,,,,,,,,,,,,62897,2022-11-17_11h26.45.648,vts_reward_expectancy_bt_OFFLINE,2022.2.4,60.0381405711073,
0,0,0,1,1,0,0,0,star,triangle,0,0,0,0,0,2,2,9,,,,,,,,,,,,,,,,,,,,,,,,,,,,,,,,,,,,,,,,647.4150966380257,647.4150966380257,647.4150966380257,647.4150966380257,647.4150966380257,647.4150966380257,647.4150966380257,647.4150966380257,647.4150966380257,647.4150966380257,a,1.137483255006373,10,21,0,648.5827077941503,650.0850551840849,,,,,,,,,,,,,,,,,,,,,,,,,,,,,,,,,,,,,,,,,,,,,,,,,,,,,,,,,,,,,,,,,,,,,,,62897,2022-11-17_11h26.45.648,vts_reward_expectancy_bt_OFFLINE,2022.2.4,60.0381405711073,
0,0,1,0,0,0,0,1,hexagon,star,0,0,0,0,0,3,3,8,,,,,,,,,,,,,,,,,,,,,,,,,,,,,,,,,,,,,,,,650.585145662073,650.585145662073,650.585145662073,650.585145662073,650.585145662073,650.585145662073,650.585145662073,650.585145662073,650.585145662073,650.585145662073,a,1.0729200630448759,10,31,0,651.6852832580917,653.1861425880343,653.1861425880343,653.6864327180665,,,,,,,,,,,,,,,,,,,,,,,,,,,,,,,,,,,,,,,,,,,,,,,,,,,,,,,,,,,,,,,,,,,,,62897,2022-11-17_11h26.45.648,vts_reward_expectancy_bt_OFFLINE,2022.2.4,60.0381405711073,
0,0,1,0,0,1,0,0,hexagon,circle,0,0,0,0,0,4,4,7,,,,,,,,,,,,,,,,,,,,,,,,,,,,,,,,,,,,,,,,653.6864327180665,653.6864327180665,653.6864327180665,653.6864327180665,653.6864327180665,653.6864327180665,653.6864327180665,653.6864327180665,653.6864327180665,653.6864327180665,a,0.8177439239807427,10,41,0,654.5362987660337,656.0389917001594,,,,,,,,,,,,,,,,,,,,,,,,,,,,,,,,,,,,,,,,,,,,,,,,,,,,,,,,,,,,,,,,,,,,,,,62897,2022-11-17_11h26.45.648,vts_reward_expectancy_bt_OFFLINE,2022.2.4,60.0381405711073,
1,0,0,0,0,0,1,0,triangle,hexagon,0,0,0,0,0,5,5,1,,,,,,,,,,,,,,,,,,,,,,,,,,,,,,,,,,,,,,,,656.5392392270733,656.5392392270733,656.5392392270733,656.5392392270733,656.5392392270733,656.5392392270733,656.5392392270733,656.5392392270733,656.5392392270733,656.5392392270733,a,0.8002985951025039,1,42,0,657.3568115690723,658.8565239519812,658.8565239519812,659.3568394961767,,,,,,,,,,,,,,,,,,,,,,,,,,,,,,,,,,,,,,,,,,,,,,,,,,,,,,,,,,,,,,,,,,,,,62897,2022-11-17_11h26.45.648,vts_reward_expectancy_bt_OFFLINE,2022.2.4,60.0381405711073,
0,0,1,0,1,0,0,0,hexagon,triangle,0,0,0,0,0,6,6,6,,,,,,,,,,,,,,,,,,,,,,,,,,,,,,,,,,,,,,,,659.3568394961767,659.3568394961767,659.3568394961767,659.3568394961767,659.3568394961767,659.3568394961767,659.3568394961767,659.3568394961767,659.3568394961767,659.3568394961767,a,1.3579359150025994,1,43,0,660.7425103939604,662.2430102380458,662.2430102380458,662.7429642460775,,,,,,,,,,,,,,,,,,,,,,,,,,,,,,,,,,,,,,,,,,,,,,,,,,,,,,,,,,,,,,,,,,,,,62897,2022-11-17_11h26.45.648,vts_reward_expectancy_bt_OFFLINE,2022.2.4,60.0381405711073,
0,1,0,0,0,0,0,1,circle,star,0,0,0,0,0,7,7,5,,,,,,,,,,,,,,,,,,,,,,,,,,,,,,,,,,,,,,,,662.7429642460775,662.7429642460775,662.7429642460775,662.7429642460775,662.7429642460775,662.7429642460775,662.7429642460775,662.7429642460775,662.7429642460775,662.7429642460775,l,1.0211526600178331,10,53,0,663.7937527589966,665.2959433030337,,,,,,,,,,,,,,,,,,,,,,,,,,,,,,,,,,,,,,,,,,,,,,,,,,,,,,,,,,,,,,,,,,,,,,,62897,2022-11-17_11h26.45.648,vts_reward_expectancy_bt_OFFLINE,2022.2.4,60.0381405711073,
0,0,0,1,0,0,1,0,star,hexagon,0,0,0,0,0,8,8,11,,,,,,,,,,,,,,,,,,,,,,,,,,,,,,,,,,,,,,,,665.7960875839926,665.7960875839926,665.7960875839926,665.7960875839926,665.7960875839926,665.7960875839926,665.7960875839926,665.7960875839926,665.7960875839926,665.7960875839926,l,0.9609510079026222,10,63,0,666.7794692441821,668.2801087021362,668.2801087021362,668.7802464719862,,,,,,,,,,,,,,,,,,,,,,,,,,,,,,,,,,,,,,,,,,,,,,,,,,,,,,,,,,,,,,,,,,,,,62897,2022-11-17_11h26.45.648,vts_reward_expectancy_bt_OFFLINE,2022.2.4,60.0381405711073,
0,0,0,1,0,1,0,0,star ,circle,0,0,0,0,0,9,9,10,,,,,,,,,,,,,,,,,,,,,,,,,,,,,,,,,,,,,,,,668.7802464719862,668.7802464719862,668.7802464719862,668.7802464719862,668.7802464719862,668.7802464719862,668.7802464719862,668.7802464719862,668.7802464719862,668.7802464719862,l,0.8676945818588138,1,64,0,669.6661914391443,671.1667484361678,,,,,,,,,,,,,,,,,,,,,,,,,,,,,,,,,,,,,,,,,,,,,,,,,,,,,,,,,,,,,,,,,,,,,,,62897,2022-11-17_11h26.45.648,vts_reward_expectancy_bt_OFFLINE,2022.2.4,60.0381405711073,
0,1,0,0,0,0,1,0,circle,hexagon,0,0,0,0,0,10,10,4,,,,,,,,,,,,,,,,,,,,,,,,,,,,,,,,,,,,,,,,671.6666956110857,671.6666956110857,671.6666956110857,671.6666956110857,671.6666956110857,671.6666956110857,671.6666956110857,671.6666956110857,671.6666956110857,671.6666956110857,l,3.178482913877815,10,74,0,674.8706418231595,676.3703730350826,676.3703730350826,676.8706714161672,,,,,,,,,,,,,,,,,,,,,,,,,,,,,,,,,,,,,,,,,,,,,,,,,,,,,,,,,,,,,,,,,,,,,62897,2022-11-17_11h26.45.648,vts_reward_expectancy_bt_OFFLINE,2022.2.4,60.0381405711073,
1,0,0,0,0,0,0,1,triangle,star,0,0,0,0,0,11,11,2,,,,,,,,,,,,,,,,,,,,,,,,,,,,,,,,,,,,,,,,676.8706714161672,676.8706714161672,676.8706714161672,676.8706714161672,676.8706714161672,676.8706714161672,676.8706714161672,676.8706714161672,676.8706714161672,676.8706714161672,l,0.8552590881008655,1,75,0,677.7543084870558,679.2546970730182,679.2546970730182,,,,,,,,,,,,,,,,,,,,,,,,,,,,,,,,,,,,,,,,,,,,,,,,,,,,,,,,,,,,,,,,,,,,,,62897,2022-11-17_11h26.45.648,vts_reward_expectancy_bt_OFFLINE,2022.2.4,60.0381405711073,
0,1,0,0,0,0,1,0,circle,hexagon,0,0,0,0,1,0,12,4,,,,,,,,,,,,,,,,,,,,,,,,,,,,,,,,,,,,,,,,679.7565051349811,679.7565051349811,679.7565051349811,679.7565051349811,679.7565051349811,679.7565051349811,679.7565051349811,679.7565051349811,679.7565051349811,679.7565051349811,a,1.4790956059005111,1,76,0,681.2570579820313,682.7579347300343,682.7579347300343,683.2581624260638,,,,,,,,,,,,,,,,,,,,,,,,,,,,,,,,,,,,,,,,,,,,,,,,,,,,,,,,,,,,,,,,,,,,,62897,2022-11-17_11h26.45.648,vts_reward_expectancy_bt_OFFLINE,2022.2.4,60.0381405711073,
0,0,0,1,0,1,0,0,star ,circle,0,0,0,0,1,1,13,10,,,,,,,,,,,,,,,,,,,,,,,,,,,,,,,,,,,,,,,,683.2581624260638,683.2581624260638,683.2581624260638,683.2581624260638,683.2581624260638,683.2581624260638,683.2581624260638,683.2581624260638,683.2581624260638,683.2581624260638,a,3.3449502428993583,1,77,0,686.6274868950713,688.1282500140369,688.1282500140369,688.6284069430549,,,,,,,,,,,,,,,,,,,,,,,,,,,,,,,,,,,,,,,,,,,,,,,,,,,,,,,,,,,,,,,,,,,,,62897,2022-11-17_11h26.45.648,vts_reward_expectancy_bt_OFFLINE,2022.2.4,60.0381405711073,
0,1,0,0,0,0,0,1,circle,star,0,0,0,0,1,2,14,5,,,,,,,,,,,,,,,,,,,,,,,,,,,,,,,,,,,,,,,,688.6284069430549,688.6284069430549,688.6284069430549,688.6284069430549,688.6284069430549,688.6284069430549,688.6284069430549,688.6284069430549,688.6284069430549,688.6284069430549,a,1.3263697929214686,1,78,0,689.9806456321385,691.4813664380927,691.4813664380927,,,,,,,,,,,,,,,,,,,,,,,,,,,,,,,,,,,,,,,,,,,,,,,,,,,,,,,,,,,,,,,,,,,,,,62897,2022-11-17_11h26.45.648,vts_reward_expectancy_bt_OFFLINE,2022.2.4,60.0381405711073,
1,0,0,0,0,0,0,1,triangle,star,0,0,0,0,1,3,15,2,,,,,,,,,,,,,,,,,,,,,,,,,,,,,,,,,,,,,,,,691.9817723950837,691.9817723950837,691.9817723950837,691.9817723950837,691.9817723950837,691.9817723950837,691.9817723950837,691.9817723950837,691.9817723950837,691.9817723950837,l,0.5728065769653767,10,88,0,692.5816497860942,694.0821677560452,694.0821677560452,694.5800100720953,,,,,,,,,,,,,,,,,,,,,,,,,,,,,,,,,,,,,,,,,,,,,,,,,,,,,,,,,,,,,,,,,,,,,62897,2022-11-17_11h26.45.648,vts_reward_expectancy_bt_OFFLINE,2022.2.4,60.0381405711073,
0,0,1,0,0,0,0,1,hexagon,star,0,0,0,0,1,4,16,8,,,,,,,,,,,,,,,,,,,,,,,,,,,,,,,,,,,,,,,,694.5800100720953,694.5800100720953,694.5800100720953,694.5800100720953,694.5800100720953,694.5800100720953,694.5800100720953,694.5800100720953,694.5800100720953,694.5800100720953,l,0.7079637348651886,10,98,0,695.3176910120528,696.8182688320521,696.8182688320521,697.3185472751502,,,,,,,,,,,,,,,,,,,,,,,,,,,,,,,,,,,,,,,,,,,,,,,,,,,,,,,,,,,,,,,,,,,,,62897,2022-11-17_11h26.45.648,vts_reward_expectancy_bt_OFFLINE,2022.2.4,60.0381405711073,
0,0,1,0,0,1,0,0,hexagon,circle,0,0,0,0,1,5,17,7,,,,,,,,,,,,,,,,,,,,,,,,,,,,,,,,,,,,,,,,697.3185472751502,697.3185472751502,697.3185472751502,697.3185472751502,697.3185472751502,697.3185472751502,697.3185472751502,697.3185472751502,697.3185472751502,697.3185472751502,l,0.9629609570838511,1,99,0,698.3022315730341,699.8041111261118,,,,,,,,,,,,,,,,,,,,,,,,,,,,,,,,,,,,,,,,,,,,,,,,,,,,,,,,,,,,,,,,,,,,,,,62897,2022-11-17_11h26.45.648,vts_reward_expectancy_bt_OFFLINE,2022.2.4,60.0381405711073,
0,0,1,0,1,0,0,0,hexagon,triangle,0,0,0,0,1,6,18,6,,,,,,,,,,,,,,,,,,,,,,,,,,,,,,,,,,,,,,,,700.304324464174,700.304324464174,700.304324464174,700.304324464174,700.304324464174,700.304324464174,700.304324464174,700.304324464174,700.304324464174,700.304324464174,a,0.5417724191211164,10,109,0,700.8719371759798,702.3722521481104,702.3722521481104,702.8723952129949,,,,,,,,,,,,,,,,,,,,,,,,,,,,,,,,,,,,,,,,,,,,,,,,,,,,,,,,,,,,,,,,,,,,,62897,2022-11-17_11h26.45.648,vts_reward_expectancy_bt_OFFLINE,2022.2.4,60.0381405711073,
0,0,0,1,0,0,1,0,star,hexagon,0,0,0,0,1,7,19,11,,,,,,,,,,,,,,,,,,,,,,,,,,,,,,,,,,,,,,,,702.8723952129949,702.8723952129949,702.8723952129949,702.8723952129949,702.8723952129949,702.8723952129949,702.8723952129949,702.8723952129949,702.8723952129949,702.8723952129949,a,0.7520066110882908,10,119,0,703.6557233510539,705.1579440720379,,,,,,,,,,,,,,,,,,,,,,,,,,,,,,,,,,,,,,,,,,,,,,,,,,,,,,,,,,,,,,,,,,,,,,,62897,2022-11-17_11h26.45.648,vts_reward_expectancy_bt_OFFLINE,2022.2.4,60.0381405711073,
1,0,0,0,0,0,1,0,triangle,hexagon,0,0,0,0,1,8,20,1,,,,,,,,,,,,,,,,,,,,,,,,,,,,,,,,,,,,,,,,705.6581788710319,705.6581788710319,705.6581788710319,705.6581788710319,705.6581788710319,705.6581788710319,705.6581788710319,705.6581788710319,705.6581788710319,705.6581788710319,a,0.6324908619280905,1,120,0,706.3089511371218,707.8089586650021,707.8089586650021,708.3090836131014,,,,,,,,,,,,,,,,,,,,,,,,,,,,,,,,,,,,,,,,,,,,,,,,,,,,,,,,,,,,,,,,,,,,,62897,2022-11-17_11h26.45.648,vts_reward_expectancy_bt_OFFLINE,2022.2.4,60.0381405711073,
0,0,0,1,1,0,0,0,star,triangle,0,0,0,0,1,9,21,9,,,,,,,,,,,,,,,,,,,,,,,,,,,,,,,,,,,,,,,,708.3090836131014,708.3090836131014,708.3090836131014,708.3090836131014,708.3090836131014,708.3090836131014,708.3090836131014,708.3090836131014,708.3090836131014,708.3090836131014,l,0.6143783589359373,1,121,0,708.9429413031321,710.4453509440646,,,,,,,,,,,,,,,,,,,,,,,,,,,,,,,,,,,,,,,,,,,,,,,,,,,,,,,,,,,,,,,,,,,,,,,62897,2022-11-17_11h26.45.648,vts_reward_expectancy_bt_OFFLINE,2022.2.4,60.0381405711073,
0,1,0,0,1,0,0,0,circle,triangle,0,0,0,0,1,10,22,3,,,,,,,,,,,,,,,,,,,,,,,,,,,,,,,,,,,,,,,,710.9456283310428,710.9456283310428,710.9456283310428,710.9456283310428,710.9456283310428,710.9456283310428,710.9456283310428,710.9456283310428,710.9456283310428,710.9456283310428,a,0.9479040680453181,10,131,0,711.9126826331485,713.4128631369676,713.4128631369676,,,,,,,,,,,,,,,,,,,,,,,,,,,,,,,,,,,,,,,,,,,,,,,,,,,,,,,,,,,,,,,,,,,,,,62897,2022-11-17_11h26.45.648,vts_reward_expectancy_bt_OFFLINE,2022.2.4,60.0381405711073,
1,0,0,0,0,1,0,0,triangle,circle,0,0,0,0,1,11,23,0,,,,,,,,,,,,,,,,,,,,,,,,,,,,,,,,,,,,,,,,713.9128700101282,713.9128700101282,713.9128700101282,713.9128700101282,713.9128700101282,713.9128700101282,713.9128700101282,713.9128700101282,713.9128700101282,713.9128700101282,a,1.4463756189215928,10,141,0,715.3821116590407,716.8832115351688,716.8832115351688,717.3832972941454,,,,,,,,,,,,,,,,,,,,,,,,,,,,,,,,,,,,,,,,,,,,,,,,,,,,,,,,,,,,,,,,,,,,,62897,2022-11-17_11h26.45.648,vts_reward_expectancy_bt_OFFLINE,2022.2.4,60.0381405711073,
0,1,0,0,1,0,0,0,circle,triangle,0,0,0,0,2,0,24,3,,,,,,,,,,,,,,,,,,,,,,,,,,,,,,,,,,,,,,,,717.3832972941454,717.3832972941454,717.3832972941454,717.3832972941454,717.3832972941454,717.3832972941454,717.3832972941454,717.3832972941454,717.3832972941454,717.3832972941454,a,1.024103478062898,1,142,0,718.433886968065,719.9359549810179,,,,,,,,,,,,,,,,,,,,,,,,,,,,,,,,,,,,,,,,,,,,,,,,,,,,,,,,,,,,,,,,,,,,,,,62897,2022-11-17_11h26.45.648,vts_reward_expectancy_bt_OFFLINE,2022.2.4,60.0381405711073,
0,0,0,1,0,1,0,0,star ,circle,0,0,0,0,2,1,25,10,,,,,,,,,,,,,,,,,,,,,,,,,,,,,,,,,,,,,,,,720.4359390351456,720.4359390351456,720.4359390351456,720.4359390351456,720.4359390351456,720.4359390351456,720.4359390351456,720.4359390351456,720.4359390351456,720.4359390351456,l,1.527527335099876,1,143,0,721.9863279310521,723.4871751139872,723.4871751139872,723.9871313220356,,,,,,,,,,,,,,,,,,,,,,,,,,,,,,,,,,,,,,,,,,,,,,,,,,,,,,,,,,,,,,,,,,,,,62897,2022-11-17_11h26.45.648,vts_reward_expectancy_bt_OFFLINE,2022.2.4,60.0381405711073,
1,0,0,0,0,0,0,1,triangle,star,0,0,0,0,2,2,26,2,,,,,,,,,,,,,,,,,,,,,,,,,,,,,,,,,,,,,,,,723.9871313220356,723.9871313220356,723.9871313220356,723.9871313220356,723.9871313220356,723.9871313220356,723.9871313220356,723.9871313220356,723.9871313220356,723.9871313220356,a,1.1031203060410917,1,144,0,725.1225800970569,726.6232176141348,726.6232176141348,727.123200327158,,,,,,,,,,,,,,,,,,,,,,,,,,,,,,,,,,,,,,,,,,,,,,,,,,,,,,,,,,,,,,,,,,,,,62897,2022-11-17_11h26.45.648,vts_reward_expectancy_bt_OFFLINE,2022.2.4,60.0381405711073,
0,0,1,0,0,0,0,1,hexagon,star,0,0,0,0,2,3,27,8,,,,,,,,,,,,,,,,,,,,,,,,,,,,,,,,,,,,,,,,727.123200327158,727.123200327158,727.123200327158,727.123200327158,727.123200327158,727.123200327158,727.123200327158,727.123200327158,727.123200327158,727.123200327158,l,0.8134796950034797,10,154,0,727.9579626410268,729.4578133169562,729.4578133169562,,,,,,,,,,,,,,,,,,,,,,,,,,,,,,,,,,,,,,,,,,,,,,,,,,,,,,,,,,,,,,,,,,,,,,62897,2022-11-17_11h26.45.648,vts_reward_expectancy_bt_OFFLINE,2022.2.4,60.0381405711073,
1,0,0,0,0,0,1,0,triangle,hexagon,0,0,0,0,2,4,28,1,,,,,,,,,,,,,,,,,,,,,,,,,,,,,,,,,,,,,,,,729.9596725739539,729.9596725739539,729.9596725739539,729.9596725739539,729.9596725739539,729.9596725739539,729.9596725739539,729.9596725739539,729.9596725739539,729.9596725739539,l,1.0261649210005999,10,164,0,731.0102959440555,732.5105910371058,732.5105910371058,733.0109505690634,,,,,,,,,,,,,,,,,,,,,,,,,,,,,,,,,,,,,,,,,,,,,,,,,,,,,,,,,,,,,,,,,,,,,62897,2022-11-17_11h26.45.648,vts_reward_expectancy_bt_OFFLINE,2022.2.4,60.0381405711073,
0,0,0,1,0,0,1,0,star,hexagon,0,0,0,0,2,5,29,11,,,,,,,,,,,,,,,,,,,,,,,,,,,,,,,,,,,,,,,,733.0109505690634,733.0109505690634,733.0109505690634,733.0109505690634,733.0109505690634,733.0109505690634,733.0109505690634,733.0109505690634,733.0109505690634,733.0109505690634,a,1.2149333721026778,10,174,0,734.2443889281712,735.747002545977,,,,,,,,,,,,,,,,,,,,,,,,,,,,,,,,,,,,,,,,,,,,,,,,,,,,,,,,,,,,,,,,,,,,,,,62897,2022-11-17_11h26.45.648,vts_reward_expectancy_bt_OFFLINE,2022.2.4,60.0381405711073,
0,0,0,1,1,0,0,0,star,triangle,0,0,0,0,2,6,30,9,,,,,,,,,,,,,,,,,,,,,,,,,,,,,,,,,,,,,,,,736.2473239500541,736.2473239500541,736.2473239500541,736.2473239500541,736.2473239500541,736.2473239500541,736.2473239500541,736.2473239500541,736.2473239500541,736.2473239500541,a,0.7245752150192857,10,184,0,736.9977140291594,738.4981816201471,738.4981816201471,738.9984490550123,,,,,,,,,,,,,,,,,,,,,,,,,,,,,,,,,,,,,,,,,,,,,,,,,,,,,,,,,,,,,,,,,,,,,62897,2022-11-17_11h26.45.648,vts_reward_expectancy_bt_OFFLINE,2022.2.4,60.0381405711073,
0,0,1,0,1,0,0,0,hexagon,triangle,0,0,0,0,2,7,31,6,,,,,,,,,,,,,,,,,,,,,,,,,,,,,,,,,,,,,,,,738.9984490550123,738.9984490550123,738.9984490550123,738.9984490550123,738.9984490550123,738.9984490550123,738.9984490550123,738.9984490550123,738.9984490550123,738.9984490550123,a,1.6070442111231387,1,185,0,740.6342566080857,742.1343143770937,742.1343143770937,742.6344312131405,,,,,,,,,,,,,,,,,,,,,,,,,,,,,,,,,,,,,,,,,,,,,,,,,,,,,,,,,,,,,,,,,,,,,62897,2022-11-17_11h26.45.648,vts_reward_expectancy_bt_OFFLINE,2022.2.4,60.0381405711073,
0,1,0,0,0,0,0,1,circle,star,0,0,0,0,2,8,32,5,,,,,,,,,,,,,,,,,,,,,,,,,,,,,,,,,,,,,,,,742.6344312131405,742.6344312131405,742.6344312131405,742.6344312131405,742.6344312131405,742.6344312131405,742.6344312131405,742.6344312131405,742.6344312131405,742.6344312131405,l,1.064853864023462,10,195,0,743.719256665092,745.2206568040419,,,,,,,,,,,,,,,,,,,,,,,,,,,,,,,,,,,,,,,,,,,,,,,,,,,,,,,,,,,,,,,,,,,,,,,62897,2022-11-17_11h26.45.648,vts_reward_expectancy_bt_OFFLINE,2022.2.4,60.0381405711073,
0,1,0,0,0,0,1,0,circle,hexagon,0,0,0,0,2,9,33,4,,,,,,,,,,,,,,,,,,,,,,,,,,,,,,,,,,,,,,,,745.7209208731074,745.7209208731074,745.7209208731074,745.7209208731074,745.7209208731074,745.7209208731074,745.7209208731074,745.7209208731074,745.7209208731074,745.7209208731074,a,2.4893664410337806,1,196,0,748.2388816419989,749.7404008570593,,,,,,,,,,,,,,,,,,,,,,,,,,,,,,,,,,,,,,,,,,,,,,,,,,,,,,,,,,,,,,,,,,,,,,,62897,2022-11-17_11h26.45.648,vts_reward_expectancy_bt_OFFLINE,2022.2.4,60.0381405711073,
1,0,0,0,0,1,0,0,triangle,circle,0,0,0,0,2,10,34,0,,,,,,,,,,,,,,,,,,,,,,,,,,,,,,,,,,,,,,,,750.2405565460213,750.2405565460213,750.2405565460213,750.2405565460213,750.2405565460213,750.2405565460213,750.2405565460213,750.2405565460213,750.2405565460213,750.2405565460213,l,1.0302794470917434,1,197,0,751.291152211139,752.7918149461038,752.7918149461038,753.2919279041234,,,,,,,,,,,,,,,,,,,,,,,,,,,,,,,,,,,,,,,,,,,,,,,,,,,,,,,,,,,,,,,,,,,,,62897,2022-11-17_11h26.45.648,vts_reward_expectancy_bt_OFFLINE,2022.2.4,60.0381405711073,
0,0,1,0,0,1,0,0,hexagon,circle,0,0,0,0,2,11,35,7,,,,,,,,,,,,,,,,,,,,,,,,,,,,,,,,,,,,,,,,753.2919279041234,753.2919279041234,753.2919279041234,753.2919279041234,753.2919279041234,753.2919279041234,753.2919279041234,753.2919279041234,753.2919279041234,753.2919279041234,a,1.3197227609343827,10,207,0,754.6370436290745,756.1445939540863,,,,,,,,,,,,,,,,,,,,,,,,,,,,,,,,,,,,,,,,,,,,,,,,,,,,,,,,,,,,,,,,,,,,,,,62897,2022-11-17_11h26.45.648,vts_reward_expectancy_bt_OFFLINE,2022.2.4,60.0381405711073,
0,1,0,0,1,0,0,0,circle,triangle,0,0,0,0,3,0,36,3,,,,,,,,,,,,,,,,,,,,,,,,,,,,,,,,,,,,,,,,756.6449563179631,756.6449563179631,756.6449563179631,756.6449563179631,756.6449563179631,756.6449563179631,756.6449563179631,756.6449563179631,756.6449563179631,756.6449563179631,a,1.005198829807341,10,217,0,757.6790163931437,759.1793657429516,759.1793657429516,,,,,,,,,,,,,,,,,,,,,,,,,,,,,,,,,,,,,,,,,,,,,,,,,,,,,,,,,,,,,,,,,,,,,,62897,2022-11-17_11h26.45.648,vts_reward_expectancy_bt_OFFLINE,2022.2.4,60.0381405711073,
0,0,0,1,0,0,1,0,star,hexagon,0,0,0,0,3,1,37,11,,,,,,,,,,,,,,,,,,,,,,,,,,,,,,,,,,,,,,,,759.6816535911057,759.6816535911057,759.6816535911057,759.6816535911057,759.6816535911057,759.6816535911057,759.6816535911057,759.6816535911057,759.6816535911057,759.6816535911057,a,0.7803842930588871,1,218,0,760.48258140916,761.9824312170967,761.9824312170967,762.4827476660721,,,,,,,,,,,,,,,,,,,,,,,,,,,,,,,,,,,,,,,,,,,,,,,,,,,,,,,,,,,,,,,,,,,,,62897,2022-11-17_11h26.45.648,vts_reward_expectancy_bt_OFFLINE,2022.2.4,60.0381405711073,
0,0,1,0,0,0,0,1,hexagon,star,0,0,0,0,3,2,38,8,,,,,,,,,,,,,,,,,,,,,,,,,,,,,,,,,,,,,,,,762.4827476660721,762.4827476660721,762.4827476660721,762.4827476660721,762.4827476660721,762.4827476660721,762.4827476660721,762.4827476660721,762.4827476660721,762.4827476660721,a,1.286865602945909,10,228,0,763.7999352279585,765.3018137430772,,,,,,,,,,,,,,,,,,,,,,,,,,,,,,,,,,,,,,,,,,,,,,,,,,,,,,,,,,,,,,,,,,,,,,,62897,2022-11-17_11h26.45.648,vts_reward_expectancy_bt_OFFLINE,2022.2.4,60.0381405711073,
0,1,0,0,0,0,0,1,circle,star,0,0,0,0,3,3,39,5,,,,,,,,,,,,,,,,,,,,,,,,,,,,,,,,,,,,,,,,765.8018732999917,765.8018732999917,765.8018732999917,765.8018732999917,765.8018732999917,765.8018732999917,765.8018732999917,765.8018732999917,765.8018732999917,765.8018732999917,l,1.0279674530029297,10,238,0,766.8521887410898,768.3527551749721,768.3527551749721,768.8528731421102,,,,,,,,,,,,,,,,,,,,,,,,,,,,,,,,,,,,,,,,,,,,,,,,,,,,,,,,,,,,,,,,,,,,,62897,2022-11-17_11h26.45.648,vts_reward_expectancy_bt_OFFLINE,2022.2.4,60.0381405711073,
1,0,0,0,0,1,0,0,triangle,circle,0,0,0,0,3,4,40,0,,,,,,,,,,,,,,,,,,,,,,,,,,,,,,,,,,,,,,,,768.8528731421102,768.8528731421102,768.8528731421102,768.8528731421102,768.8528731421102,768.8528731421102,768.8528731421102,768.8528731421102,768.8528731421102,768.8528731421102,l,0.8908128601033241,1,239,0,769.7726483300794,771.2727435620036,771.2727435620036,771.7729407341685,,,,,,,,,,,,,,,,,,,,,,,,,,,,,,,,,,,,,,,,,,,,,,,,,,,,,,,,,,,,,,,,,,,,,62897,2022-11-17_11h26.45.648,vts_reward_expectancy_bt_OFFLINE,2022.2.4,60.0381405711073,
0,1,0,0,0,0,1,0,circle,hexagon,0,0,0,0,3,5,41,4,,,,,,,,,,,,,,,,,,,,,,,,,,,,,,,,,,,,,,,,771.7729407341685,771.7729407341685,771.7729407341685,771.7729407341685,771.7729407341685,771.7729407341685,771.7729407341685,771.7729407341685,771.7729407341685,771.7729407341685,l,1.5491291959770024,10,249,0,773.3406682140194,774.8425370911136,,,,,,,,,,,,,,,,,,,,,,,,,,,,,,,,,,,,,,,,,,,,,,,,,,,,,,,,,,,,,,,,,,,,,,,62897,2022-11-17_11h26.45.648,vts_reward_expectancy_bt_OFFLINE,2022.2.4,60.0381405711073,
0,0,1,0,1,0,0,0,hexagon,triangle,0,0,0,0,3,6,42,6,,,,,,,,,,,,,,,,,,,,,,,,,,,,,,,,,,,,,,,,775.3425283231772,775.3425283231772,775.3425283231772,775.3425283231772,775.3425283231772,775.3425283231772,775.3425283231772,775.3425283231772,775.3425283231772,775.3425283231772,l,1.849829139886424,1,250,0,777.2107460561674,778.7103371580597,778.7103371580597,779.2104130680673,,,,,,,,,,,,,,,,,,,,,,,,,,,,,,,,,,,,,,,,,,,,,,,,,,,,,,,,,,,,,,,,,,,,,62897,2022-11-17_11h26.45.648,vts_reward_expectancy_bt_OFFLINE,2022.2.4,60.0381405711073,
0,0,0,1,0,1,0,0,star ,circle,0,0,0,0,3,7,43,10,,,,,,,,,,,,,,,,,,,,,,,,,,,,,,,,,,,,,,,,779.2104130680673,779.2104130680673,779.2104130680673,779.2104130680673,779.2104130680673,779.2104130680673,779.2104130680673,779.2104130680673,779.2104130680673,779.2104130680673,a,0.7383594089187682,1,251,0,779.9796208140906,781.4801243580878,781.4801243580878,781.9801339821424,,,,,,,,,,,,,,,,,,,,,,,,,,,,,,,,,,,,,,,,,,,,,,,,,,,,,,,,,,,,,,,,,,,,,62897,2022-11-17_11h26.45.648,vts_reward_expectancy_bt_OFFLINE,2022.2.4,60.0381405711073,
0,0,0,1,1,0,0,0,star,triangle,0,0,0,0,3,8,44,9,,,,,,,,,,,,,,,,,,,,,,,,,,,,,,,,,,,,,,,,781.9801339821424,781.9801339821424,781.9801339821424,781.9801339821424,781.9801339821424,781.9801339821424,781.9801339821424,781.9801339821424,781.9801339821424,781.9801339821424,a,0.9042197128292173,10,261,0,782.9144549770281,784.4140262780711,784.4140262780711,,,,,,,,,,,,,,,,,,,,,,,,,,,,,,,,,,,,,,,,,,,,,,,,,,,,,,,,,,,,,,,,,,,,,,62897,2022-11-17_11h26.45.648,vts_reward_expectancy_bt_OFFLINE,2022.2.4,60.0381405711073,
0,0,1,0,0,1,0,0,hexagon,circle,0,0,0,0,3,9,45,7,,,,,,,,,,,,,,,,,,,,,,,,,,,,,,,,,,,,,,,,784.9158598231152,784.9158598231152,784.9158598231152,784.9158598231152,784.9158598231152,784.9158598231152,784.9158598231152,784.9158598231152,784.9158598231152,784.9158598231152,a,1.7268822200130671,1,262,0,786.6676176630426,788.167285998119,788.167285998119,788.6675984431058,,,,,,,,,,,,,,,,,,,,,,,,,,,,,,,,,,,,,,,,,,,,,,,,,,,,,,,,,,,,,,,,,,,,,62897,2022-11-17_11h26.45.648,vts_reward_expectancy_bt_OFFLINE,2022.2.4,60.0381405711073,
1,0,0,0,0,0,1,0,triangle,hexagon,0,0,0,0,3,10,46,1,,,,,,,,,,,,,,,,,,,,,,,,,,,,,,,,,,,,,,,,788.6675984431058,788.6675984431058,788.6675984431058,788.6675984431058,788.6675984431058,788.6675984431058,788.6675984431058,788.6675984431058,788.6675984431058,788.6675984431058,l,1.1809671458322555,10,272,0,789.8707579551265,791.3703356171027,791.3703356171027,791.8705742971506,,,,,,,,,,,,,,,,,,,,,,,,,,,,,,,,,,,,,,,,,,,,,,,,,,,,,,,,,,,,,,,,,,,,,62897,2022-11-17_11h26.45.648,vts_reward_expectancy_bt_OFFLINE,2022.2.4,60.0381405711073,
1,0,0,0,0,0,0,1,triangle,star,0,0,0,0,3,11,47,2,,,,,,,,,,,,,,,,,,,,,,,,,,,,,,,,,,,,,,,,791.8705742971506,791.8705742971506,791.8705742971506,791.8705742971506,791.8705742971506,791.8705742971506,791.8705742971506,791.8705742971506,791.8705742971506,791.8705742971506,l,0.6894276980310678,10,282,0,792.5875915340148,794.0884074920323,794.0884074920323,794.5945802971255,,,,,,,,,,,,,,,,,,,,,,,,,,,,,,,,,,,,,,,,,,,,,,,,,,,,,,,,,,,,,,,,,,,,,62897,2022-11-17_11h26.45.648,vts_reward_expectancy_bt_OFFLINE,2022.2.4,60.0381405711073,
1,0,0,0,0,1,0,0,triangle,circle,1,0,1,0,0,0,0,0,,,,,,,,,,,,,,,,,,,,,,,,,,,,,,,,,,,,,,,,800.1376455370337,800.1376455370337,800.1376455370337,800.1376455370337,800.1376455370337,800.1376455370337,800.1376455370337,800.1376455370337,800.1376455370337,800.1376455370337,l,1.9288810940925032,1,283,1,802.0957616621163,803.5952096499968,803.5952096499968,804.0955275860615,,,,,,,,,,,,,,,,,,,,,,,,,,,,,,,,,,,,,,,,,,,,,,,,,,,,,,,,,,,,,,,,,,,,,62897,2022-11-17_11h26.45.648,vts_reward_expectancy_bt_OFFLINE,2022.2.4,60.0381405711073,
0,0,1,0,0,1,0,0,hexagon,circle,1,0,1,0,0,1,1,7,,,,,,,,,,,,,,,,,,,,,,,,,,,,,,,,,,,,,,,,804.0955275860615,804.0955275860615,804.0955275860615,804.0955275860615,804.0955275860615,804.0955275860615,804.0955275860615,804.0955275860615,804.0955275860615,804.0955275860615,a,1.1108449350576848,1,284,1,805.2307540131733,806.7314055040479,806.7314055040479,807.2315214730334,,,,,,,,,,,,,,,,,,,,,,,,,,,,,,,,,,,,,,,,,,,,,,,,,,,,,,,,,,,,,,,,,,,,,62897,2022-11-17_11h26.45.648,vts_reward_expectancy_bt_OFFLINE,2022.2.4,60.0381405711073,
0,0,1,0,0,0,0,1,hexagon,star,1,0,1,0,0,2,2,8,,,,,,,,,,,,,,,,,,,,,,,,,,,,,,,,,,,,,,,,807.2315214730334,807.2315214730334,807.2315214730334,807.2315214730334,807.2315214730334,807.2315214730334,807.2315214730334,807.2315214730334,807.2315214730334,807.2315214730334,l,0.7865419290028512,10,294,1,808.0495117299724,809.549287809059,809.549287809059,,,,,,,,,,,,,,,,,,,,,,,,,,,,,,,,,,,,,,,,,,,,,,,,,,,,,,,,,,,,,,,,,,,,,,62897,2022-11-17_11h26.45.648,vts_reward_expectancy_bt_OFFLINE,2022.2.4,60.0381405711073,
0,0,0,1,0,0,1,0,star,hexagon,1,0,1,0,0,3,3,11,,,,,,,,,,,,,,,,,,,,,,,,,,,,,,,,,,,,,,,,810.0513706281781,810.0513706281781,810.0513706281781,810.0513706281781,810.0513706281781,810.0513706281781,810.0513706281781,810.0513706281781,810.0513706281781,810.0513706281781,a,1.3760597540531307,10,304,1,811.451719781151,812.9524088641629,812.9524088641629,,,,,,,,,,,,,,,,,,,,,,,,,,,,,,,,,,,,,,,,,,,,,,,,,,,,,,,,,,,,,,,,,,,,,,62897,2022-11-17_11h26.45.648,vts_reward_expectancy_bt_OFFLINE,2022.2.4,60.0381405711073,
0,0,0,1,0,1,0,0,star ,circle,1,0,1,0,0,4,4,10,,,,,,,,,,,,,,,,,,,,,,,,,,,,,,,,,,,,,,,,813.4527216600254,813.4527216600254,813.4527216600254,813.4527216600254,813.4527216600254,813.4527216600254,813.4527216600254,813.4527216600254,813.4527216600254,813.4527216600254,a,0.8769986680708826,10,314,1,814.3526423219591,815.8553511560895,,,,,,,,,,,,,,,,,,,,,,,,,,,,,,,,,,,,,,,,,,,,,,,,,,,,,,,,,,,,,,,,,,,,,,,62897,2022-11-17_11h26.45.648,vts_reward_expectancy_bt_OFFLINE,2022.2.4,60.0381405711073,
1,0,0,0,0,0,0,1,triangle,star,1,0,1,0,0,5,5,2,,,,,,,,,,,,,,,,,,,,,,,,,,,,,,,,,,,,,,,,816.3556063980795,816.3556063980795,816.3556063980795,816.3556063980795,816.3556063980795,816.3556063980795,816.3556063980795,816.3556063980795,816.3556063980795,816.3556063980795,l,1.0793891598004848,1,315,1,817.456442757044,818.9566606360022,818.9566606360022,819.4566466321703,,,,,,,,,,,,,,,,,,,,,,,,,,,,,,,,,,,,,,,,,,,,,,,,,,,,,,,,,,,,,,,,,,,,,62897,2022-11-17_11h26.45.648,vts_reward_expectancy_bt_OFFLINE,2022.2.4,60.0381405711073,
1,0,0,0,0,0,1,0,triangle,hexagon,1,0,1,0,0,6,6,1,,,,,,,,,,,,,,,,,,,,,,,,,,,,,,,,,,,,,,,,819.4566466321703,819.4566466321703,819.4566466321703,819.4566466321703,819.4566466321703,819.4566466321703,819.4566466321703,819.4566466321703,819.4566466321703,819.4566466321703,a,0.8810298719909042,10,325,1,820.3592079831287,821.859495192999,821.859495192999,,,,,,,,,,,,,,,,,,,,,,,,,,,,,,,,,,,,,,,,,,,,,,,,,,,,,,,,,,,,,,,,,,,,,,62897,2022-11-17_11h26.45.648,vts_reward_expectancy_bt_OFFLINE,2022.2.4,60.0381405711073,
0,0,0,1,1,0,0,0,star,triangle,1,0,1,0,0,7,7,9,,,,,,,,,,,,,,,,,,,,,,,,,,,,,,,,,,,,,,,,822.359703197144,822.359703197144,822.359703197144,822.359703197144,822.359703197144,822.359703197144,822.359703197144,822.359703197144,822.359703197144,822.359703197144,l,1.1405495209619403,1,326,1,823.5275314501487,825.0288051720709,,,,,,,,,,,,,,,,,,,,,,,,,,,,,,,,,,,,,,,,,,,,,,,,,,,,,,,,,,,,,,,,,,,,,,,62897,2022-11-17_11h26.45.648,vts_reward_expectancy_bt_OFFLINE,2022.2.4,60.0381405711073,
0,1,0,0,1,0,0,0,circle,triangle,1,0,1,0,0,8,8,3,,,,,,,,,,,,,,,,,,,,,,,,,,,,,,,,,,,,,,,,825.529102365952,825.529102365952,825.529102365952,825.529102365952,825.529102365952,825.529102365952,825.529102365952,825.529102365952,825.529102365952,825.529102365952,a,0.7037806629668921,10,336,1,826.2634040899575,827.7630566200241,827.7630566200241,828.2633257149719,,,,,,,,,,,,,,,,,,,,,,,,,,,,,,,,,,,,,,,,,,,,,,,,,,,,,,,,,,,,,,,,,,,,,62897,2022-11-17_11h26.45.648,vts_reward_expectancy_bt_OFFLINE,2022.2.4,60.0381405711073,
0,0,1,0,1,0,0,0,hexagon,triangle,1,0,1,0,0,9,9,6,,,,,,,,,,,,,,,,,,,,,,,,,,,,,,,,,,,,,,,,828.2633257149719,828.2633257149719,828.2633257149719,828.2633257149719,828.2633257149719,828.2633257149719,828.2633257149719,828.2633257149719,828.2633257149719,828.2633257149719,a,0.8049268370959908,10,346,1,829.096662545111,830.5991247580387,,,,,,,,,,,,,,,,,,,,,,,,,,,,,,,,,,,,,,,,,,,,,,,,,,,,,,,,,,,,,,,,,,,,,,,62897,2022-11-17_11h26.45.648,vts_reward_expectancy_bt_OFFLINE,2022.2.4,60.0381405711073,
0,1,0,0,0,0,0,1,circle,star,1,0,1,0,0,10,10,5,,,,,,,,,,,,,,,,,,,,,,,,,,,,,,,,,,,,,,,,831.0995336920023,831.0995336920023,831.0995336920023,831.0995336920023,831.0995336920023,831.0995336920023,831.0995336920023,831.0995336920023,831.0995336920023,831.0995336920023,l,1.1300658599939197,10,356,1,832.2498843921348,833.7503222741652,833.7503222741652,834.2503678409848,,,,,,,,,,,,,,,,,,,,,,,,,,,,,,,,,,,,,,,,,,,,,,,,,,,,,,,,,,,,,,,,,,,,,62897,2022-11-17_11h26.45.648,vts_reward_expectancy_bt_OFFLINE,2022.2.4,60.0381405711073,
0,1,0,0,0,0,1,0,circle,hexagon,1,0,1,0,0,11,11,4,,,,,,,,,,,,,,,,,,,,,,,,,,,,,,,,,,,,,,,,834.2503678409848,834.2503678409848,834.2503678409848,834.2503678409848,834.2503678409848,834.2503678409848,834.2503678409848,834.2503678409848,834.2503678409848,834.2503678409848,l,0.904489709995687,10,366,1,835.1861034759786,836.6867649431806,,,,,,,,,,,,,,,,,,,,,,,,,,,,,,,,,,,,,,,,,,,,,,,,,,,,,,,,,,,,,,,,,,,,,,,62897,2022-11-17_11h26.45.648,vts_reward_expectancy_bt_OFFLINE,2022.2.4,60.0381405711073,
0,1,0,0,0,0,0,1,circle,star,1,0,1,0,1,0,12,5,,,,,,,,,,,,,,,,,,,,,,,,,,,,,,,,,,,,,,,,837.1870961070526,837.1870961070526,837.1870961070526,837.1870961070526,837.1870961070526,837.1870961070526,837.1870961070526,837.1870961070526,837.1870961070526,837.1870961070526,l,0.8025277219712734,10,376,1,838.0204620501027,839.5214579030871,839.5214579030871,,,,,,,,,,,,,,,,,,,,,,,,,,,,,,,,,,,,,,,,,,,,,,,,,,,,,,,,,,,,,,,,,,,,,,62897,2022-11-17_11h26.45.648,vts_reward_expectancy_bt_OFFLINE,2022.2.4,60.0381405711073,
1,0,0,0,0,1,0,0,triangle,circle,1,0,1,0,1,1,13,0,,,,,,,,,,,,,,,,,,,,,,,,,,,,,,,,,,,,,,,,840.0232027489692,840.0232027489692,840.0232027489692,840.0232027489692,840.0232027489692,840.0232027489692,840.0232027489692,840.0232027489692,840.0232027489692,840.0232027489692,l,0.8690017310436815,1,377,1,840.9236197560094,842.4241508319974,842.4241508319974,842.9238763339818,,,,,,,,,,,,,,,,,,,,,,,,,,,,,,,,,,,,,,,,,,,,,,,,,,,,,,,,,,,,,,,,,,,,,62897,2022-11-17_11h26.45.648,vts_reward_expectancy_bt_OFFLINE,2022.2.4,60.0381405711073,
0,0,0,1,0,1,0,0,star ,circle,1,0,1,0,1,2,14,10,,,,,,,,,,,,,,,,,,,,,,,,,,,,,,,,,,,,,,,,842.9238763339818,842.9238763339818,842.9238763339818,842.9238763339818,842.9238763339818,842.9238763339818,842.9238763339818,842.9238763339818,842.9238763339818,842.9238763339818,a,0.8598419139161706,1,378,1,843.807709523011,845.3098707559984,,,,,,,,,,,,,,,,,,,,,,,,,,,,,,,,,,,,,,,,,,,,,,,,,,,,,,,,,,,,,,,,,,,,,,,62897,2022-11-17_11h26.45.648,vts_reward_expectancy_bt_OFFLINE,2022.2.4,60.0381405711073,
0,1,0,0,0,0,1,0,circle,hexagon,1,0,1,0,1,3,15,4,,,,,,,,,,,,,,,,,,,,,,,,,,,,,,,,,,,,,,,,845.8099132000934,845.8099132000934,845.8099132000934,845.8099132000934,845.8099132000934,845.8099132000934,845.8099132000934,845.8099132000934,845.8099132000934,845.8099132000934,a,1.1467002229765058,1,379,1,846.9775753971189,848.4780580359511,848.4780580359511,848.9785535230767,,,,,,,,,,,,,,,,,,,,,,,,,,,,,,,,,,,,,,,,,,,,,,,,,,,,,,,,,,,,,,,,,,,,,62897,2022-11-17_11h26.45.648,vts_reward_expectancy_bt_OFFLINE,2022.2.4,60.0381405711073,
1,0,0,0,0,0,0,1,triangle,star,1,0,1,0,1,4,16,2,,,,,,,,,,,,,,,,,,,,,,,,,,,,,,,,,,,,,,,,848.9785535230767,848.9785535230767,848.9785535230767,848.9785535230767,848.9785535230767,848.9785535230767,848.9785535230767,848.9785535230767,848.9785535230767,848.9785535230767,l,1.0492322731297463,1,380,1,850.0469515870791,851.5476841060445,851.5476841060445,,,,,,,,,,,,,,,,,,,,,,,,,,,,,,,,,,,,,,,,,,,,,,,,,,,,,,,,,,,,,,,,,,,,,,62897,2022-11-17_11h26.45.648,vts_reward_expectancy_bt_OFFLINE,2022.2.4,60.0381405711073,
1,0,0,0,0,0,1,0,triangle,hexagon,1,0,1,0,1,5,17,1,,,,,,,,,,,,,,,,,,,,,,,,,,,,,,,,,,,,,,,,852.0478742760606,852.0478742760606,852.0478742760606,852.0478742760606,852.0478742760606,852.0478742760606,852.0478742760606,852.0478742760606,852.0478742760606,852.0478742760606,a,3.819875055924058,1,381,1,855.9010407170281,857.4016025699675,857.4016025699675,,,,,,,,,,,,,,,,,,,,,,,,,,,,,,,,,,,,,,,,,,,,,,,,,,,,,,,,,,,,,,,,,,,,,,62897,2022-11-17_11h26.45.648,vts_reward_expectancy_bt_OFFLINE,2022.2.4,60.0381405711073,
0,0,0,1,1,0,0,0,star,triangle,1,0,1,0,1,6,18,9,,,,,,,,,,,,,,,,,,,,,,,,,,,,,,,,,,,,,,,,857.901829991024,857.901829991024,857.901829991024,857.901829991024,857.901829991024,857.901829991024,857.901829991024,857.901829991024,857.901829991024,857.901829991024,a,0.8677793559618294,10,391,1,858.8022724031471,860.3044770881534,,,,,,,,,,,,,,,,,,,,,,,,,,,,,,,,,,,,,,,,,,,,,,,,,,,,,,,,,,,,,,,,,,,,,,,62897,2022-11-17_11h26.45.648,vts_reward_expectancy_bt_OFFLINE,2022.2.4,60.0381405711073,
0,0,0,1,0,0,1,0,star,hexagon,1,0,1,0,1,7,19,11,,,,,,,,,,,,,,,,,,,,,,,,,,,,,,,,,,,,,,,,860.8045222691726,860.8045222691726,860.8045222691726,860.8045222691726,860.8045222691726,860.8045222691726,860.8045222691726,860.8045222691726,860.8045222691726,860.8045222691726,a,0.6770259260665625,1,392,1,861.5065520331264,863.0053613241762,863.0053613241762,863.5056136830244,,,,,,,,,,,,,,,,,,,,,,,,,,,,,,,,,,,,,,,,,,,,,,,,,,,,,,,,,,,,,,,,,,,,,62897,2022-11-17_11h26.45.648,vts_reward_expectancy_bt_OFFLINE,2022.2.4,60.0381405711073,
0,0,1,0,0,1,0,0,hexagon,circle,1,0,1,0,1,8,20,7,,,,,,,,,,,,,,,,,,,,,,,,,,,,,,,,,,,,,,,,863.5056136830244,863.5056136830244,863.5056136830244,863.5056136830244,863.5056136830244,863.5056136830244,863.5056136830244,863.5056136830244,863.5056136830244,863.5056136830244,a,1.2045177279505879,10,402,1,864.731915559154,866.2416365570389,,,,,,,,,,,,,,,,,,,,,,,,,,,,,,,,,,,,,,,,,,,,,,,,,,,,,,,,,,,,,,,,,,,,,,,62897,2022-11-17_11h26.45.648,vts_reward_expectancy_bt_OFFLINE,2022.2.4,60.0381405711073,
0,1,0,0,1,0,0,0,circle,triangle,1,0,1,0,1,9,21,3,,,,,,,,,,,,,,,,,,,,,,,,,,,,,,,,,,,,,,,,866.7417787031736,866.7417787031736,866.7417787031736,866.7417787031736,866.7417787031736,866.7417787031736,866.7417787031736,866.7417787031736,866.7417787031736,866.7417787031736,a,2.379178154980764,1,403,1,869.1433135990519,870.6452772871125,,,,,,,,,,,,,,,,,,,,,,,,,,,,,,,,,,,,,,,,,,,,,,,,,,,,,,,,,,,,,,,,,,,,,,,62897,2022-11-17_11h26.45.648,vts_reward_expectancy_bt_OFFLINE,2022.2.4,60.0381405711073,
0,0,1,0,0,0,0,1,hexagon,star,1,0,1,0,1,10,22,8,,,,,,,,,,,,,,,,,,,,,,,,,,,,,,,,,,,,,,,,871.1456584320404,871.1456584320404,871.1456584320404,871.1456584320404,871.1456584320404,871.1456584320404,871.1456584320404,871.1456584320404,871.1456584320404,871.1456584320404,l,0.9785133209079504,10,413,1,872.1468311140779,873.6464486070909,873.6464486070909,874.1464504620526,,,,,,,,,,,,,,,,,,,,,,,,,,,,,,,,,,,,,,,,,,,,,,,,,,,,,,,,,,,,,,,,,,,,,62897,2022-11-17_11h26.45.648,vts_reward_expectancy_bt_OFFLINE,2022.2.4,60.0381405711073,
0,0,1,0,1,0,0,0,hexagon,triangle,1,0,1,0,1,11,23,6,,,,,,,,,,,,,,,,,,,,,,,,,,,,,,,,,,,,,,,,874.1464504620526,874.1464504620526,874.1464504620526,874.1464504620526,874.1464504620526,874.1464504620526,874.1464504620526,874.1464504620526,874.1464504620526,874.1464504620526,a,2.4552112470846623,10,423,1,876.6323092950042,878.1327145241667,878.1327145241667,,,,,,,,,,,,,,,,,,,,,,,,,,,,,,,,,,,,,,,,,,,,,,,,,,,,,,,,,,,,,,,,,,,,,,62897,2022-11-17_11h26.45.648,vts_reward_expectancy_bt_OFFLINE,2022.2.4,60.0381405711073,
1,0,0,0,0,0,0,1,triangle,star,1,0,1,0,2,0,24,2,,,,,,,,,,,,,,,,,,,,,,,,,,,,,,,,,,,,,,,,878.632842711173,878.632842711173,878.632842711173,878.632842711173,878.632842711173,878.632842711173,878.632842711173,878.632842711173,878.632842711173,878.632842711173,l,1.0405772409867495,10,433,1,879.7001782611478,881.2028378981631,,,,,,,,,,,,,,,,,,,,,,,,,,,,,,,,,,,,,,,,,,,,,,,,,,,,,,,,,,,,,,,,,,,,,,,62897,2022-11-17_11h26.45.648,vts_reward_expectancy_bt_OFFLINE,2022.2.4,60.0381405711073,
0,0,1,0,1,0,0,0,hexagon,triangle,1,0,1,0,2,1,25,6,,,,,,,,,,,,,,,,,,,,,,,,,,,,,,,,,,,,,,,,881.7027221750468,881.7027221750468,881.7027221750468,881.7027221750468,881.7027221750468,881.7027221750468,881.7027221750468,881.7027221750468,881.7027221750468,881.7027221750468,a,0.9750262291636318,1,434,1,882.7041607671417,884.2037924621254,884.2037924621254,884.7041178140789,,,,,,,,,,,,,,,,,,,,,,,,,,,,,,,,,,,,,,,,,,,,,,,,,,,,,,,,,,,,,,,,,,,,,62897,2022-11-17_11h26.45.648,vts_reward_expectancy_bt_OFFLINE,2022.2.4,60.0381405711073,
0,1,0,0,0,0,1,0,circle,hexagon,1,0,1,0,2,2,26,4,,,,,,,,,,,,,,,,,,,,,,,,,,,,,,,,,,,,,,,,884.7041178140789,884.7041178140789,884.7041178140789,884.7041178140789,884.7041178140789,884.7041178140789,884.7041178140789,884.7041178140789,884.7041178140789,884.7041178140789,l,1.5743598458357155,10,444,1,886.3072908851318,887.8068210571073,887.8068210571073,888.3069351140875,,,,,,,,,,,,,,,,,,,,,,,,,,,,,,,,,,,,,,,,,,,,,,,,,,,,,,,,,,,,,,,,,,,,,62897,2022-11-17_11h26.45.648,vts_reward_expectancy_bt_OFFLINE,2022.2.4,60.0381405711073,
0,0,0,1,1,0,0,0,star,triangle,1,0,1,0,2,3,27,9,,,,,,,,,,,,,,,,,,,,,,,,,,,,,,,,,,,,,,,,888.3069351140875,888.3069351140875,888.3069351140875,888.3069351140875,888.3069351140875,888.3069351140875,888.3069351140875,888.3069351140875,888.3069351140875,888.3069351140875,a,0.9180486451368779,10,454,1,889.2574328661431,890.7598076330032,,,,,,,,,,,,,,,,,,,,,,,,,,,,,,,,,,,,,,,,,,,,,,,,,,,,,,,,,,,,,,,,,,,,,,,62897,2022-11-17_11h26.45.648,vts_reward_expectancy_bt_OFFLINE,2022.2.4,60.0381405711073,
1,0,0,0,0,1,0,0,triangle,circle,1,0,1,0,2,4,28,0,,,,,,,,,,,,,,,,,,,,,,,,,,,,,,,,,,,,,,,,891.2597359290812,891.2597359290812,891.2597359290812,891.2597359290812,891.2597359290812,891.2597359290812,891.2597359290812,891.2597359290812,891.2597359290812,891.2597359290812,l,2.6687478120438755,10,464,1,893.9610458030365,895.4632125170901,,,,,,,,,,,,,,,,,,,,,,,,,,,,,,,,,,,,,,,,,,,,,,,,,,,,,,,,,,,,,,,,,,,,,,,62897,2022-11-17_11h26.45.648,vts_reward_expectancy_bt_OFFLINE,2022.2.4,60.0381405711073,
0,1,0,0,1,0,0,0,circle,triangle,1,0,1,0,2,5,29,3,,,,,,,,,,,,,,,,,,,,,,,,,,,,,,,,,,,,,,,,895.9635011020582,895.9635011020582,895.9635011020582,895.9635011020582,895.9635011020582,895.9635011020582,895.9635011020582,895.9635011020582,895.9635011020582,895.9635011020582,a,1.5531717319972813,1,465,1,897.5470986901782,899.0475875961129,899.0475875961129,899.5477663190104,,,,,,,,,,,,,,,,,,,,,,,,,,,,,,,,,,,,,,,,,,,,,,,,,,,,,,,,,,,,,,,,,,,,,62897,2022-11-17_11h26.45.648,vts_reward_expectancy_bt_OFFLINE,2022.2.4,60.0381405711073,
0,0,1,0,0,1,0,0,hexagon,circle,1,0,1,0,2,6,30,7,,,,,,,,,,,,,,,,,,,,,,,,,,,,,,,,,,,,,,,,899.5477663190104,899.5477663190104,899.5477663190104,899.5477663190104,899.5477663190104,899.5477663190104,899.5477663190104,899.5477663190104,899.5477663190104,899.5477663190104,a,1.6937062898650765,1,466,1,901.2674226660747,902.7679359700996,902.7679359700996,903.2679364171345,,,,,,,,,,,,,,,,,,,,,,,,,,,,,,,,,,,,,,,,,,,,,,,,,,,,,,,,,,,,,,,,,,,,,62897,2022-11-17_11h26.45.648,vts_reward_expectancy_bt_OFFLINE,2022.2.4,60.0381405711073,
0,0,1,0,0,0,0,1,hexagon,star,1,0,1,0,2,7,31,8,,,,,,,,,,,,,,,,,,,,,,,,,,,,,,,,,,,,,,,,903.2679364171345,903.2679364171345,903.2679364171345,903.2679364171345,903.2679364171345,903.2679364171345,903.2679364171345,903.2679364171345,903.2679364171345,903.2679364171345,l,0.8424194329418242,10,476,1,904.1364196341019,905.6372224711813,,,,,,,,,,,,,,,,,,,,,,,,,,,,,,,,,,,,,,,,,,,,,,,,,,,,,,,,,,,,,,,,,,,,,,,62897,2022-11-17_11h26.45.648,vts_reward_expectancy_bt_OFFLINE,2022.2.4,60.0381405711073,
0,0,0,1,0,1,0,0,star ,circle,1,0,1,0,2,8,32,10,,,,,,,,,,,,,,,,,,,,,,,,,,,,,,,,,,,,,,,,906.1375107881613,906.1375107881613,906.1375107881613,906.1375107881613,906.1375107881613,906.1375107881613,906.1375107881613,906.1375107881613,906.1375107881613,906.1375107881613,a,0.8865399300120771,10,486,1,907.0541862810496,908.5548050631769,908.5548050631769,909.0548750751186,,,,,,,,,,,,,,,,,,,,,,,,,,,,,,,,,,,,,,,,,,,,,,,,,,,,,,,,,,,,,,,,,,,,,62897,2022-11-17_11h26.45.648,vts_reward_expectancy_bt_OFFLINE,2022.2.4,60.0381405711073,
1,0,0,0,0,0,1,0,triangle,hexagon,1,0,1,0,2,9,33,1,,,,,,,,,,,,,,,,,,,,,,,,,,,,,,,,,,,,,,,,909.0548750751186,909.0548750751186,909.0548750751186,909.0548750751186,909.0548750751186,909.0548750751186,909.0548750751186,909.0548750751186,909.0548750751186,909.0548750751186,a,1.3885484950151294,1,487,1,910.4751435599755,911.9749343299773,911.9749343299773,912.4747432700824,,,,,,,,,,,,,,,,,,,,,,,,,,,,,,,,,,,,,,,,,,,,,,,,,,,,,,,,,,,,,,,,,,,,,62897,2022-11-17_11h26.45.648,vts_reward_expectancy_bt_OFFLINE,2022.2.4,60.0381405711073,
0,0,0,1,0,0,1,0,star,hexagon,1,0,1,0,2,10,34,11,,,,,,,,,,,,,,,,,,,,,,,,,,,,,,,,,,,,,,,,912.4747432700824,912.4747432700824,912.4747432700824,912.4747432700824,912.4747432700824,912.4747432700824,912.4747432700824,912.4747432700824,912.4747432700824,912.4747432700824,a,1.4789228590670973,10,497,1,913.976720554987,915.4780629209708,,,,,,,,,,,,,,,,,,,,,,,,,,,,,,,,,,,,,,,,,,,,,,,,,,,,,,,,,,,,,,,,,,,,,,,62897,2022-11-17_11h26.45.648,vts_reward_expectancy_bt_OFFLINE,2022.2.4,60.0381405711073,
0,1,0,0,0,0,0,1,circle,star,1,0,1,0,2,11,35,5,,,,,,,,,,,,,,,,,,,,,,,,,,,,,,,,,,,,,,,,915.977862796979,915.977862796979,915.977862796979,915.977862796979,915.977862796979,915.977862796979,915.977862796979,915.977862796979,915.977862796979,915.977862796979,l,1.1710508249234408,10,507,1,917.178487196099,918.6789516250137,918.6789516250137,919.179238458164,,,,,,,,,,,,,,,,,,,,,,,,,,,,,,,,,,,,,,,,,,,,,,,,,,,,,,,,,,,,,,,,,,,,,62897,2022-11-17_11h26.45.648,vts_reward_expectancy_bt_OFFLINE,2022.2.4,60.0381405711073,
0,1,0,0,0,0,1,0,circle,hexagon,1,0,1,0,3,0,36,4,,,,,,,,,,,,,,,,,,,,,,,,,,,,,,,,,,,,,,,,919.179238458164,919.179238458164,919.179238458164,919.179238458164,919.179238458164,919.179238458164,919.179238458164,919.179238458164,919.179238458164,919.179238458164,l,1.2444550779182464,1,508,1,920.4497988231014,921.9486393900588,921.9486393900588,922.4489720510319,,,,,,,,,,,,,,,,,,,,,,,,,,,,,,,,,,,,,,,,,,,,,,,,,,,,,,,,,,,,,,,,,,,,,62897,2022-11-17_11h26.45.648,vts_reward_expectancy_bt_OFFLINE,2022.2.4,60.0381405711073,
0,0,0,1,0,1,0,0,star ,circle,1,0,1,0,3,1,37,10,,,,,,,,,,,,,,,,,,,,,,,,,,,,,,,,,,,,,,,,922.4489720510319,922.4489720510319,922.4489720510319,922.4489720510319,922.4489720510319,922.4489720510319,922.4489720510319,922.4489720510319,922.4489720510319,922.4489720510319,a,0.7863015469629318,1,509,1,923.2654174971394,924.7711235361639,,,,,,,,,,,,,,,,,,,,,,,,,,,,,,,,,,,,,,,,,,,,,,,,,,,,,,,,,,,,,,,,,,,,,,,62897,2022-11-17_11h26.45.648,vts_reward_expectancy_bt_OFFLINE,2022.2.4,60.0381405711073,
0,1,0,0,1,0,0,0,circle,triangle,1,0,1,0,3,2,38,3,,,,,,,,,,,,,,,,,,,,,,,,,,,,,,,,,,,,,,,,925.2681132280268,925.2681132280268,925.2681132280268,925.2681132280268,925.2681132280268,925.2681132280268,925.2681132280268,925.2681132280268,925.2681132280268,925.2681132280268,a,1.2867263639345765,1,510,1,926.5855586240068,928.086199688958,928.086199688958,928.5862124969717,,,,,,,,,,,,,,,,,,,,,,,,,,,,,,,,,,,,,,,,,,,,,,,,,,,,,,,,,,,,,,,,,,,,,62897,2022-11-17_11h26.45.648,vts_reward_expectancy_bt_OFFLINE,2022.2.4,60.0381405711073,
0,0,1,0,0,0,0,1,hexagon,star,1,0,1,0,3,3,39,8,,,,,,,,,,,,,,,,,,,,,,,,,,,,,,,,,,,,,,,,928.5862124969717,928.5862124969717,928.5862124969717,928.5862124969717,928.5862124969717,928.5862124969717,928.5862124969717,928.5862124969717,928.5862124969717,928.5862124969717,l,1.0853142228443176,10,520,1,929.703419322148,931.2055204610806,,,,,,,,,,,,,,,,,,,,,,,,,,,,,,,,,,,,,,,,,,,,,,,,,,,,,,,,,,,,,,,,,,,,,,,62897,2022-11-17_11h26.45.648,vts_reward_expectancy_bt_OFFLINE,2022.2.4,60.0381405711073,
1,0,0,0,0,0,1,0,triangle,hexagon,1,0,1,0,3,4,40,1,,,,,,,,,,,,,,,,,,,,,,,,,,,,,,,,,,,,,,,,931.705833385,931.705833385,931.705833385,931.705833385,931.705833385,931.705833385,931.705833385,931.705833385,931.705833385,931.705833385,l,2.826071650022641,10,530,1,934.556779188104,936.0592468869872,,,,,,,,,,,,,,,,,,,,,,,,,,,,,,,,,,,,,,,,,,,,,,,,,,,,,,,,,,,,,,,,,,,,,,,62897,2022-11-17_11h26.45.648,vts_reward_expectancy_bt_OFFLINE,2022.2.4,60.0381405711073,
0,0,0,1,1,0,0,0,star,triangle,1,0,1,0,3,5,41,9,,,,,,,,,,,,,,,,,,,,,,,,,,,,,,,,,,,,,,,,936.5596135971136,936.5596135971136,936.5596135971136,936.5596135971136,936.5596135971136,936.5596135971136,936.5596135971136,936.5596135971136,936.5596135971136,936.5596135971136,a,1.2123477028217167,10,540,1,937.7934258589521,939.2939063180238,939.2939063180238,,,,,,,,,,,,,,,,,,,,,,,,,,,,,,,,,,,,,,,,,,,,,,,,,,,,,,,,,,,,,,,,,,,,,,62897,2022-11-17_11h26.45.648,vts_reward_expectancy_bt_OFFLINE,2022.2.4,60.0381405711073,
0,0,0,1,0,0,1,0,star,hexagon,1,0,1,0,3,6,42,11,,,,,,,,,,,,,,,,,,,,,,,,,,,,,,,,,,,,,,,,939.7965658311732,939.7965658311732,939.7965658311732,939.7965658311732,939.7965658311732,939.7965658311732,939.7965658311732,939.7965658311732,939.7965658311732,939.7965658311732,a,1.1022679519373924,1,541,1,940.9293017450254,942.4299359370489,942.4299359370489,942.9298979630694,,,,,,,,,,,,,,,,,,,,,,,,,,,,,,,,,,,,,,,,,,,,,,,,,,,,,,,,,,,,,,,,,,,,,62897,2022-11-17_11h26.45.648,vts_reward_expectancy_bt_OFFLINE,2022.2.4,60.0381405711073,
0,1,0,0,0,0,0,1,circle,star,1,0,1,0,3,7,43,5,,,,,,,,,,,,,,,,,,,,,,,,,,,,,,,,,,,,,,,,942.9298979630694,942.9298979630694,942.9298979630694,942.9298979630694,942.9298979630694,942.9298979630694,942.9298979630694,942.9298979630694,942.9298979630694,942.9298979630694,l,1.726889210054651,1,542,1,944.6803497630171,946.1830501640216,,,,,,,,,,,,,,,,,,,,,,,,,,,,,,,,,,,,,,,,,,,,,,,,,,,,,,,,,,,,,,,,,,,,,,,62897,2022-11-17_11h26.45.648,vts_reward_expectancy_bt_OFFLINE,2022.2.4,60.0381405711073,
1,0,0,0,0,0,0,1,triangle,star,1,0,1,0,3,8,44,2,,,,,,,,,,,,,,,,,,,,,,,,,,,,,,,,,,,,,,,,946.68332293001,946.68332293001,946.68332293001,946.68332293001,946.68332293001,946.68332293001,946.68332293001,946.68332293001,946.68332293001,946.68332293001,l,1.4161211028695107,1,543,1,948.1171958530322,949.6177981391083,949.6177981391083,,,,,,,,,,,,,,,,,,,,,,,,,,,,,,,,,,,,,,,,,,,,,,,,,,,,,,,,,,,,,,,,,,,,,,62897,2022-11-17_11h26.45.648,vts_reward_expectancy_bt_OFFLINE,2022.2.4,60.0381405711073,
0,0,1,0,1,0,0,0,hexagon,triangle,1,0,1,0,3,9,45,6,,,,,,,,,,,,,,,,,,,,,,,,,,,,,,,,,,,,,,,,950.1198020011652,950.1198020011652,950.1198020011652,950.1198020011652,950.1198020011652,950.1198020011652,950.1198020011652,950.1198020011652,950.1198020011652,950.1198020011652,a,1.3207889150362462,10,553,1,951.4720959339757,952.9873308730312,,,,,,,,,,,,,,,,,,,,,,,,,,,,,,,,,,,,,,,,,,,,,,,,,,,,,,,,,,,,,,,,,,,,,,,62897,2022-11-17_11h26.45.648,vts_reward_expectancy_bt_OFFLINE,2022.2.4,60.0381405711073,
0,0,1,0,0,1,0,0,hexagon,circle,1,0,1,0,3,10,46,7,,,,,,,,,,,,,,,,,,,,,,,,,,,,,,,,,,,,,,,,953.4873691950925,953.4873691950925,953.4873691950925,953.4873691950925,953.4873691950925,953.4873691950925,953.4873691950925,953.4873691950925,953.4873691950925,953.4873691950925,a,0.9686189750209451,1,554,1,954.4877521081362,955.9901356319897,,,,,,,,,,,,,,,,,,,,,,,,,,,,,,,,,,,,,,,,,,,,,,,,,,,,,,,,,,,,,,,,,,,,,,,62897,2022-11-17_11h26.45.648,vts_reward_expectancy_bt_OFFLINE,2022.2.4,60.0381405711073,
1,0,0,0,0,1,0,0,triangle,circle,1,0,1,0,3,11,47,0,,,,,,,,,,,,,,,,,,,,,,,,,,,,,,,,,,,,,,,,956.4902187560219,956.4902187560219,956.4902187560219,956.4902187560219,956.4902187560219,956.4902187560219,956.4902187560219,956.4902187560219,956.4902187560219,956.4902187560219,l,1.105692352168262,1,555,1,957.6244890470989,959.124851064058,959.124851064058,,,,,,,,,,,,,,,,,,,,,,,,,,,,,,,,,,,,,,,,,,,,,,,,,,,,,,,,,,,,,,,,,,,,,,62897,2022-11-17_11h26.45.648,vts_reward_expectancy_bt_OFFLINE,2022.2.4,60.0381405711073,
0,1,0,0,0,0,1,0,circle,hexagon,2,0,2,0,0,0,0,4,,,,,,,,,,,,,,,,,,,,,,,,,,,,,,,,,,,,,,,,963.2726132110693,963.2726132110693,963.2726132110693,963.2726132110693,963.2726132110693,963.2726132110693,963.2726132110693,963.2726132110693,963.2726132110693,963.2726132110693,a,3.4358604620210826,1,556,2,966.7314878960606,968.2318693241104,968.2318693241104,968.73210466397,,,,,,,,,,,,,,,,,,,,,,,,,,,,,,,,,,,,,,,,,,,,,,,,,,,,,,,,,,,,,,,,,,,,,62897,2022-11-17_11h26.45.648,vts_reward_expectancy_bt_OFFLINE,2022.2.4,60.0381405711073,
1,0,0,0,0,0,0,1,triangle,star,2,0,2,0,0,1,1,2,,,,,,,,,,,,,,,,,,,,,,,,,,,,,,,,,,,,,,,,968.73210466397,968.73210466397,968.73210466397,968.73210466397,968.73210466397,968.73210466397,968.73210466397,968.73210466397,968.73210466397,968.73210466397,l,1.0135926390066743,10,566,2,969.767161061056,971.268108002143,,,,,,,,,,,,,,,,,,,,,,,,,,,,,,,,,,,,,,,,,,,,,,,,,,,,,,,,,,,,,,,,,,,,,,,62897,2022-11-17_11h26.45.648,vts_reward_expectancy_bt_OFFLINE,2022.2.4,60.0381405711073,
1,0,0,0,0,1,0,0,triangle,circle,2,0,2,0,0,2,2,0,,,,,,,,,,,,,,,,,,,,,,,,,,,,,,,,,,,,,,,,971.7684391289949,971.7684391289949,971.7684391289949,971.7684391289949,971.7684391289949,971.7684391289949,971.7684391289949,971.7684391289949,971.7684391289949,971.7684391289949,a,2.19672972895205,1,567,2,973.9875605250709,975.4878909811378,,,,,,,,,,,,,,,,,,,,,,,,,,,,,,,,,,,,,,,,,,,,,,,,,,,,,,,,,,,,,,,,,,,,,,,62897,2022-11-17_11h26.45.648,vts_reward_expectancy_bt_OFFLINE,2022.2.4,60.0381405711073,
0,0,0,1,0,1,0,0,star ,circle,2,0,2,0,0,3,3,10,,,,,,,,,,,,,,,,,,,,,,,,,,,,,,,,,,,,,,,,975.9885767921805,975.9885767921805,975.9885767921805,975.9885767921805,975.9885767921805,975.9885767921805,975.9885767921805,975.9885767921805,975.9885767921805,975.9885767921805,a,1.1042970491107553,1,568,2,977.1222882880829,978.6224779230542,978.6224779230542,979.1228959970176,,,,,,,,,,,,,,,,,,,,,,,,,,,,,,,,,,,,,,,,,,,,,,,,,,,,,,,,,,,,,,,,,,,,,62897,2022-11-17_11h26.45.648,vts_reward_expectancy_bt_OFFLINE,2022.2.4,60.0381405711073,
0,1,0,0,1,0,0,0,circle,triangle,2,0,2,0,0,4,4,3,,,,,,,,,,,,,,,,,,,,,,,,,,,,,,,,,,,,,,,,979.1228959970176,979.1228959970176,979.1228959970176,979.1228959970176,979.1228959970176,979.1228959970176,979.1228959970176,979.1228959970176,979.1228959970176,979.1228959970176,a,0.8286007100250572,10,578,2,979.9764109831303,981.4922838700004,,,,,,,,,,,,,,,,,,,,,,,,,,,,,,,,,,,,,,,,,,,,,,,,,,,,,,,,,,,,,,,,,,,,,,,62897,2022-11-17_11h26.45.648,vts_reward_expectancy_bt_OFFLINE,2022.2.4,60.0381405711073,
0,0,0,1,1,0,0,0,star,triangle,2,0,2,0,0,5,5,9,,,,,,,,,,,,,,,,,,,,,,,,,,,,,,,,,,,,,,,,981.9925409390125,981.9925409390125,981.9925409390125,981.9925409390125,981.9925409390125,981.9925409390125,981.9925409390125,981.9925409390125,981.9925409390125,981.9925409390125,a,0.9165682150050998,10,588,2,982.9261515450198,984.4265217471402,984.4265217471402,,,,,,,,,,,,,,,,,,,,,,,,,,,,,,,,,,,,,,,,,,,,,,,,,,,,,,,,,,,,,,,,,,,,,,62897,2022-11-17_11h26.45.648,vts_reward_expectancy_bt_OFFLINE,2022.2.4,60.0381405711073,
0,0,1,0,0,0,0,1,hexagon,star,2,0,2,0,0,6,6,8,,,,,,,,,,,,,,,,,,,,,,,,,,,,,,,,,,,,,,,,984.928739980096,984.928739980096,984.928739980096,984.928739980096,984.928739980096,984.928739980096,984.928739980096,984.928739980096,984.928739980096,984.928739980096,l,3.076696394942701,10,598,2,988.0297168220859,989.530311573064,989.530311573064,,,,,,,,,,,,,,,,,,,,,,,,,,,,,,,,,,,,,,,,,,,,,,,,,,,,,,,,,,,,,,,,,,,,,,62897,2022-11-17_11h26.45.648,vts_reward_expectancy_bt_OFFLINE,2022.2.4,60.0381405711073,
0,0,0,1,0,0,1,0,star,hexagon,2,0,2,0,0,7,7,11,,,,,,,,,,,,,,,,,,,,,,,,,,,,,,,,,,,,,,,,990.0324559060391,990.0324559060391,990.0324559060391,990.0324559060391,990.0324559060391,990.0324559060391,990.0324559060391,990.0324559060391,990.0324559060391,990.0324559060391,a,2.4398067258298397,10,608,2,992.4998778579757,994.0003446091432,994.0003446091432,994.5006931021344,,,,,,,,,,,,,,,,,,,,,,,,,,,,,,,,,,,,,,,,,,,,,,,,,,,,,,,,,,,,,,,,,,,,,62897,2022-11-17_11h26.45.648,vts_reward_expectancy_bt_OFFLINE,2022.2.4,60.0381405711073,
0,0,1,0,1,0,0,0,hexagon,triangle,2,0,2,0,0,8,8,6,,,,,,,,,,,,,,,,,,,,,,,,,,,,,,,,,,,,,,,,994.5006931021344,994.5006931021344,994.5006931021344,994.5006931021344,994.5006931021344,994.5006931021344,994.5006931021344,994.5006931021344,994.5006931021344,994.5006931021344,a,2.5279234810732305,1,609,2,997.0549454749562,998.570043228101,,,,,,,,,,,,,,,,,,,,,,,,,,,,,,,,,,,,,,,,,,,,,,,,,,,,,,,,,,,,,,,,,,,,,,,62897,2022-11-17_11h26.45.648,vts_reward_expectancy_bt_OFFLINE,2022.2.4,60.0381405711073,
1,0,0,0,0,0,1,0,triangle,hexagon,2,0,2,0,0,9,9,1,,,,,,,,,,,,,,,,,,,,,,,,,,,,,,,,,,,,,,,,999.0704752739985,999.0704752739985,999.0704752739985,999.0704752739985,999.0704752739985,999.0704752739985,999.0704752739985,999.0704752739985,999.0704752739985,999.0704752739985,a,2.5366185810416937,1,610,2,1001.6236217929982,1003.1237643160857,1003.1237643160857,1003.6237695410382,,,,,,,,,,,,,,,,,,,,,,,,,,,,,,,,,,,,,,,,,,,,,,,,,,,,,,,,,,,,,,,,,,,,,62897,2022-11-17_11h26.45.648,vts_reward_expectancy_bt_OFFLINE,2022.2.4,60.0381405711073,
0,1,0,0,0,0,0,1,circle,star,2,0,2,0,0,10,10,5,,,,,,,,,,,,,,,,,,,,,,,,,,,,,,,,,,,,,,,,1003.6237695410382,1003.6237695410382,1003.6237695410382,1003.6237695410382,1003.6237695410382,1003.6237695410382,1003.6237695410382,1003.6237695410382,1003.6237695410382,1003.6237695410382,a,1.35840581683442,1,611,2,1005.0098312650807,1006.5103403241374,1006.5103403241374,1007.0107180131599,,,,,,,,,,,,,,,,,,,,,,,,,,,,,,,,,,,,,,,,,,,,,,,,,,,,,,,,,,,,,,,,,,,,,62897,2022-11-17_11h26.45.648,vts_reward_expectancy_bt_OFFLINE,2022.2.4,60.0381405711073,
0,0,1,0,0,1,0,0,hexagon,circle,2,0,2,0,0,11,11,7,,,,,,,,,,,,,,,,,,,,,,,,,,,,,,,,,,,,,,,,1007.0107180131599,1007.0107180131599,1007.0107180131599,1007.0107180131599,1007.0107180131599,1007.0107180131599,1007.0107180131599,1007.0107180131599,1007.0107180131599,1007.0107180131599,a,1.3806042349897325,10,621,2,1008.4126685061492,1009.9134534429759,,,,,,,,,,,,,,,,,,,,,,,,,,,,,,,,,,,,,,,,,,,,,,,,,,,,,,,,,,,,,,,,,,,,,,,62897,2022-11-17_11h26.45.648,vts_reward_expectancy_bt_OFFLINE,2022.2.4,60.0381405711073,
0,0,0,1,0,1,0,0,star ,circle,2,0,2,0,1,0,12,10,,,,,,,,,,,,,,,,,,,,,,,,,,,,,,,,,,,,,,,,1010.4137046160176,1010.4137046160176,1010.4137046160176,1010.4137046160176,1010.4137046160176,1010.4137046160176,1010.4137046160176,1010.4137046160176,1010.4137046160176,1010.4137046160176,a,1.3523424330633134,10,631,2,1011.7972726579756,1013.2978432960808,1013.2978432960808,1013.7981497191358,,,,,,,,,,,,,,,,,,,,,,,,,,,,,,,,,,,,,,,,,,,,,,,,,,,,,,,,,,,,,,,,,,,,,62897,2022-11-17_11h26.45.648,vts_reward_expectancy_bt_OFFLINE,2022.2.4,60.0381405711073,
0,0,1,0,0,0,0,1,hexagon,star,2,0,2,0,1,1,13,8,,,,,,,,,,,,,,,,,,,,,,,,,,,,,,,,,,,,,,,,1013.7981497191358,1013.7981497191358,1013.7981497191358,1013.7981497191358,1013.7981497191358,1013.7981497191358,1013.7981497191358,1013.7981497191358,1013.7981497191358,1013.7981497191358,l,1.0630366229452193,10,641,2,1014.8835163761396,1016.3839220639784,1016.3839220639784,1016.8842246499844,,,,,,,,,,,,,,,,,,,,,,,,,,,,,,,,,,,,,,,,,,,,,,,,,,,,,,,,,,,,,,,,,,,,,62897,2022-11-17_11h26.45.648,vts_reward_expectancy_bt_OFFLINE,2022.2.4,60.0381405711073,
0,0,0,1,1,0,0,0,star,triangle,2,0,2,0,1,2,14,9,,,,,,,,,,,,,,,,,,,,,,,,,,,,,,,,,,,,,,,,1016.8842246499844,1016.8842246499844,1016.8842246499844,1016.8842246499844,1016.8842246499844,1016.8842246499844,1016.8842246499844,1016.8842246499844,1016.8842246499844,1016.8842246499844,a,0.8002838420215994,10,651,2,1017.7180999750271,1019.2186679311562,1019.2186679311562,1019.7188280201517,,,,,,,,,,,,,,,,,,,,,,,,,,,,,,,,,,,,,,,,,,,,,,,,,,,,,,,,,,,,,,,,,,,,,62897,2022-11-17_11h26.45.648,vts_reward_expectancy_bt_OFFLINE,2022.2.4,60.0381405711073,
0,1,0,0,1,0,0,0,circle,triangle,2,0,2,0,1,3,15,3,,,,,,,,,,,,,,,,,,,,,,,,,,,,,,,,,,,,,,,,1019.7188280201517,1019.7188280201517,1019.7188280201517,1019.7188280201517,1019.7188280201517,1019.7188280201517,1019.7188280201517,1019.7188280201517,1019.7188280201517,1019.7188280201517,a,1.4643687419593334,1,652,2,1021.2057152821217,1022.7216527960263,,,,,,,,,,,,,,,,,,,,,,,,,,,,,,,,,,,,,,,,,,,,,,,,,,,,,,,,,,,,,,,,,,,,,,,62897,2022-11-17_11h26.45.648,vts_reward_expectancy_bt_OFFLINE,2022.2.4,60.0381405711073,
0,1,0,0,0,0,0,1,circle,star,2,0,2,0,1,4,16,5,,,,,,,,,,,,,,,,,,,,,,,,,,,,,,,,,,,,,,,,1023.2052446389571,1023.2052446389571,1023.2052446389571,1023.2052446389571,1023.2052446389571,1023.2052446389571,1023.2052446389571,1023.2052446389571,1023.2052446389571,1023.2052446389571,l,1.251830903813243,10,662,2,1024.4886823859997,1025.9909879011102,,,,,,,,,,,,,,,,,,,,,,,,,,,,,,,,,,,,,,,,,,,,,,,,,,,,,,,,,,,,,,,,,,,,,,,62897,2022-11-17_11h26.45.648,vts_reward_expectancy_bt_OFFLINE,2022.2.4,60.0381405711073,
0,0,1,0,0,1,0,0,hexagon,circle,2,0,2,0,1,5,17,7,,,,,,,,,,,,,,,,,,,,,,,,,,,,,,,,,,,,,,,,1026.4912635651417,1026.4912635651417,1026.4912635651417,1026.4912635651417,1026.4912635651417,1026.4912635651417,1026.4912635651417,1026.4912635651417,1026.4912635651417,1026.4912635651417,a,1.4085525530390441,10,672,2,1027.9253615241032,1029.4259449490346,1029.4259449490346,,,,,,,,,,,,,,,,,,,,,,,,,,,,,,,,,,,,,,,,,,,,,,,,,,,,,,,,,,,,,,,,,,,,,,62897,2022-11-17_11h26.45.648,vts_reward_expectancy_bt_OFFLINE,2022.2.4,60.0381405711073,
0,1,0,0,0,0,1,0,circle,hexagon,2,0,2,0,1,6,18,4,,,,,,,,,,,,,,,,,,,,,,,,,,,,,,,,,,,,,,,,1029.927957355976,1029.927957355976,1029.927957355976,1029.927957355976,1029.927957355976,1029.927957355976,1029.927957355976,1029.927957355976,1029.927957355976,1029.927957355976,l,0.7956583718769252,10,682,2,1030.7447776340414,1032.2451994891744,1032.2451994891744,1032.745255789021,,,,,,,,,,,,,,,,,,,,,,,,,,,,,,,,,,,,,,,,,,,,,,,,,,,,,,,,,,,,,,,,,,,,,62897,2022-11-17_11h26.45.648,vts_reward_expectancy_bt_OFFLINE,2022.2.4,60.0381405711073,
0,0,1,0,1,0,0,0,hexagon,triangle,2,0,2,0,1,7,19,6,,,,,,,,,,,,,,,,,,,,,,,,,,,,,,,,,,,,,,,,1032.745255789021,1032.745255789021,1032.745255789021,1032.745255789021,1032.745255789021,1032.745255789021,1032.745255789021,1032.745255789021,1032.745255789021,1032.745255789021,a,0.7459583200979978,10,692,2,1033.5128062330186,1035.0150921950117,,,,,,,,,,,,,,,,,,,,,,,,,,,,,,,,,,,,,,,,,,,,,,,,,,,,,,,,,,,,,,,,,,,,,,,62897,2022-11-17_11h26.45.648,vts_reward_expectancy_bt_OFFLINE,2022.2.4,60.0381405711073,
1,0,0,0,0,0,0,1,triangle,star,2,0,2,0,1,8,20,2,,,,,,,,,,,,,,,,,,,,,,,,,,,,,,,,,,,,,,,,1035.51511935913,1035.51511935913,1035.51511935913,1035.51511935913,1035.51511935913,1035.51511935913,1035.51511935913,1035.51511935913,1035.51511935913,1035.51511935913,l,0.8562769610434771,10,702,2,1036.3985277779866,1037.89895161218,1037.89895161218,1038.399148868164,,,,,,,,,,,,,,,,,,,,,,,,,,,,,,,,,,,,,,,,,,,,,,,,,,,,,,,,,,,,,,,,,,,,,62897,2022-11-17_11h26.45.648,vts_reward_expectancy_bt_OFFLINE,2022.2.4,60.0381405711073,
1,0,0,0,0,1,0,0,triangle,circle,2,0,2,0,1,9,21,0,,,,,,,,,,,,,,,,,,,,,,,,,,,,,,,,,,,,,,,,1038.399148868164,1038.399148868164,1038.399148868164,1038.399148868164,1038.399148868164,1038.399148868164,1038.399148868164,1038.399148868164,1038.399148868164,1038.399148868164,a,0.6959214289672673,1,703,2,1039.1178853861056,1040.6187371599954,,,,,,,,,,,,,,,,,,,,,,,,,,,,,,,,,,,,,,,,,,,,,,,,,,,,,,,,,,,,,,,,,,,,,,,62897,2022-11-17_11h26.45.648,vts_reward_expectancy_bt_OFFLINE,2022.2.4,60.0381405711073,
0,0,0,1,0,0,1,0,star,hexagon,2,0,2,0,1,10,22,11,,,,,,,,,,,,,,,,,,,,,,,,,,,,,,,,,,,,,,,,1041.1191479179543,1041.1191479179543,1041.1191479179543,1041.1191479179543,1041.1191479179543,1041.1191479179543,1041.1191479179543,1041.1191479179543,1041.1191479179543,1041.1191479179543,a,1.0580231531057507,10,713,2,1042.204765991075,1043.7199628180824,,,,,,,,,,,,,,,,,,,,,,,,,,,,,,,,,,,,,,,,,,,,,,,,,,,,,,,,,,,,,,,,,,,,,,,62897,2022-11-17_11h26.45.648,vts_reward_expectancy_bt_OFFLINE,2022.2.4,60.0381405711073,
1,0,0,0,0,0,1,0,triangle,hexagon,2,0,2,0,1,11,23,1,,,,,,,,,,,,,,,,,,,,,,,,,,,,,,,,,,,,,,,,1044.220163831953,1044.220163831953,1044.220163831953,1044.220163831953,1044.220163831953,1044.220163831953,1044.220163831953,1044.220163831953,1044.220163831953,1044.220163831953,a,2.0742771280929446,1,714,2,1046.324862467125,1047.8397355831694,,,,,,,,,,,,,,,,,,,,,,,,,,,,,,,,,,,,,,,,,,,,,,,,,,,,,,,,,,,,,,,,,,,,,,,62897,2022-11-17_11h26.45.648,vts_reward_expectancy_bt_OFFLINE,2022.2.4,60.0381405711073,
1,0,0,0,0,0,1,0,triangle,hexagon,2,0,2,0,2,0,24,1,,,,,,,,,,,,,,,,,,,,,,,,,,,,,,,,,,,,,,,,1048.339871921111,1048.339871921111,1048.339871921111,1048.339871921111,1048.339871921111,1048.339871921111,1048.339871921111,1048.339871921111,1048.339871921111,1048.339871921111,l,0.8235026660840958,10,724,2,1049.1924284670968,1050.6927793901414,,,,,,,,,,,,,,,,,,,,,,,,,,,,,,,,,,,,,,,,,,,,,,,,,,,,,,,,,,,,,,,,,,,,,,,62897,2022-11-17_11h26.45.648,vts_reward_expectancy_bt_OFFLINE,2022.2.4,60.0381405711073,
1,0,0,0,0,0,0,1,triangle,star,2,0,2,0,2,1,25,2,,,,,,,,,,,,,,,,,,,,,,,,,,,,,,,,,,,,,,,,1051.1928659721743,1051.1928659721743,1051.1928659721743,1051.1928659721743,1051.1928659721743,1051.1928659721743,1051.1928659721743,1051.1928659721743,1051.1928659721743,1051.1928659721743,l,0.8847593700047582,10,734,2,1052.1099102301523,1053.610190403182,1053.610190403182,1054.1105545700993,,,,,,,,,,,,,,,,,,,,,,,,,,,,,,,,,,,,,,,,,,,,,,,,,,,,,,,,,,,,,,,,,,,,,62897,2022-11-17_11h26.45.648,vts_reward_expectancy_bt_OFFLINE,2022.2.4,60.0381405711073,
0,0,0,1,0,1,0,0,star ,circle,2,0,2,0,2,2,26,10,,,,,,,,,,,,,,,,,,,,,,,,,,,,,,,,,,,,,,,,1054.1105545700993,1054.1105545700993,1054.1105545700993,1054.1105545700993,1054.1105545700993,1054.1105545700993,1054.1105545700993,1054.1105545700993,1054.1105545700993,1054.1105545700993,l,1.320296254940331,10,744,2,1055.462571713142,1056.9634464881383,1056.9634464881383,1057.4637047161814,,,,,,,,,,,,,,,,,,,,,,,,,,,,,,,,,,,,,,,,,,,,,,,,,,,,,,,,,,,,,,,,,,,,,62897,2022-11-17_11h26.45.648,vts_reward_expectancy_bt_OFFLINE,2022.2.4,60.0381405711073,
0,1,0,0,1,0,0,0,circle,triangle,2,0,2,0,2,3,27,3,,,,,,,,,,,,,,,,,,,,,,,,,,,,,,,,,,,,,,,,1057.4637047161814,1057.4637047161814,1057.4637047161814,1057.4637047161814,1057.4637047161814,1057.4637047161814,1057.4637047161814,1057.4637047161814,1057.4637047161814,1057.4637047161814,l,0.9601110119838268,1,745,2,1058.4493817000184,1059.9499492261093,,,,,,,,,,,,,,,,,,,,,,,,,,,,,,,,,,,,,,,,,,,,,,,,,,,,,,,,,,,,,,,,,,,,,,,62897,2022-11-17_11h26.45.648,vts_reward_expectancy_bt_OFFLINE,2022.2.4,60.0381405711073,
1,0,0,0,0,1,0,0,triangle,circle,2,0,2,0,2,4,28,0,,,,,,,,,,,,,,,,,,,,,,,,,,,,,,,,,,,,,,,,1060.4499494940974,1060.4499494940974,1060.4499494940974,1060.4499494940974,1060.4499494940974,1060.4499494940974,1060.4499494940974,1060.4499494940974,1060.4499494940974,1060.4499494940974,l,1.9897458699997514,10,755,2,1062.4694386119954,1063.9848112571053,,,,,,,,,,,,,,,,,,,,,,,,,,,,,,,,,,,,,,,,,,,,,,,,,,,,,,,,,,,,,,,,,,,,,,,62897,2022-11-17_11h26.45.648,vts_reward_expectancy_bt_OFFLINE,2022.2.4,60.0381405711073,
0,1,0,0,0,0,0,1,circle,star,2,0,2,0,2,5,29,5,,,,,,,,,,,,,,,,,,,,,,,,,,,,,,,,,,,,,,,,1064.4848790729884,1064.4848790729884,1064.4848790729884,1064.4848790729884,1064.4848790729884,1064.4848790729884,1064.4848790729884,1064.4848790729884,1064.4848790729884,1064.4848790729884,l,1.1611692670267075,10,765,2,1065.6702326249797,1067.1708238110878,1067.1708238110878,1067.6709441421553,,,,,,,,,,,,,,,,,,,,,,,,,,,,,,,,,,,,,,,,,,,,,,,,,,,,,,,,,,,,,,,,,,,,,62897,2022-11-17_11h26.45.648,vts_reward_expectancy_bt_OFFLINE,2022.2.4,60.0381405711073,
0,0,0,1,1,0,0,0,star,triangle,2,0,2,0,2,6,30,9,,,,,,,,,,,,,,,,,,,,,,,,,,,,,,,,,,,,,,,,1067.6709441421553,1067.6709441421553,1067.6709441421553,1067.6709441421553,1067.6709441421553,1067.6709441421553,1067.6709441421553,1067.6709441421553,1067.6709441421553,1067.6709441421553,a,0.6972352308221161,1,766,2,1068.3894340039697,1069.8906392240897,,,,,,,,,,,,,,,,,,,,,,,,,,,,,,,,,,,,,,,,,,,,,,,,,,,,,,,,,,,,,,,,,,,,,,,62897,2022-11-17_11h26.45.648,vts_reward_expectancy_bt_OFFLINE,2022.2.4,60.0381405711073,
0,0,1,0,1,0,0,0,hexagon,triangle,2,0,2,0,2,7,31,6,,,,,,,,,,,,,,,,,,,,,,,,,,,,,,,,,,,,,,,,1070.3906801750418,1070.3906801750418,1070.3906801750418,1070.3906801750418,1070.3906801750418,1070.3906801750418,1070.3906801750418,1070.3906801750418,1070.3906801750418,1070.3906801750418,a,2.625179741065949,10,776,2,1073.0437146951444,1074.5588874269743,,,,,,,,,,,,,,,,,,,,,,,,,,,,,,,,,,,,,,,,,,,,,,,,,,,,,,,,,,,,,,,,,,,,,,,62897,2022-11-17_11h26.45.648,vts_reward_expectancy_bt_OFFLINE,2022.2.4,60.0381405711073,
0,1,0,0,0,0,1,0,circle,hexagon,2,0,2,0,2,8,32,4,,,,,,,,,,,,,,,,,,,,,,,,,,,,,,,,,,,,,,,,1075.0442160139792,1075.0442160139792,1075.0442160139792,1075.0442160139792,1075.0442160139792,1075.0442160139792,1075.0442160139792,1075.0442160139792,1075.0442160139792,1075.0442160139792,l,2.009767251787707,10,786,2,1077.0781189601403,1078.5782131471206,1078.5782131471206,1079.0786420069635,,,,,,,,,,,,,,,,,,,,,,,,,,,,,,,,,,,,,,,,,,,,,,,,,,,,,,,,,,,,,,,,,,,,,62897,2022-11-17_11h26.45.648,vts_reward_expectancy_bt_OFFLINE,2022.2.4,60.0381405711073,
0,0,1,0,0,1,0,0,hexagon,circle,2,0,2,0,2,9,33,7,,,,,,,,,,,,,,,,,,,,,,,,,,,,,,,,,,,,,,,,1079.0786420069635,1079.0786420069635,1079.0786420069635,1079.0786420069635,1079.0786420069635,1079.0786420069635,1079.0786420069635,1079.0786420069635,1079.0786420069635,1079.0786420069635,a,0.7760605241637677,1,787,2,1079.8769207999576,1081.3816143639851,,,,,,,,,,,,,,,,,,,,,,,,,,,,,,,,,,,,,,,,,,,,,,,,,,,,,,,,,,,,,,,,,,,,,,,62897,2022-11-17_11h26.45.648,vts_reward_expectancy_bt_OFFLINE,2022.2.4,60.0381405711073,
0,0,0,1,0,0,1,0,star,hexagon,2,0,2,0,2,10,34,11,,,,,,,,,,,,,,,,,,,,,,,,,,,,,,,,,,,,,,,,1081.8818561900407,1081.8818561900407,1081.8818561900407,1081.8818561900407,1081.8818561900407,1081.8818561900407,1081.8818561900407,1081.8818561900407,1081.8818561900407,1081.8818561900407,a,1.1243651590775698,10,797,2,1083.034162809141,1084.5491203919519,,,,,,,,,,,,,,,,,,,,,,,,,,,,,,,,,,,,,,,,,,,,,,,,,,,,,,,,,,,,,,,,,,,,,,,62897,2022-11-17_11h26.45.648,vts_reward_expectancy_bt_OFFLINE,2022.2.4,60.0381405711073,
0,0,1,0,0,0,0,1,hexagon,star,2,0,2,0,2,11,35,8,,,,,,,,,,,,,,,,,,,,,,,,,,,,,,,,,,,,,,,,1085.0344866050873,1085.0344866050873,1085.0344866050873,1085.0344866050873,1085.0344866050873,1085.0344866050873,1085.0344866050873,1085.0344866050873,1085.0344866050873,1085.0344866050873,l,2.313911505974829,10,807,2,1087.368755492149,1088.8695031420793,1088.8695031420793,1089.3695442171302,,,,,,,,,,,,,,,,,,,,,,,,,,,,,,,,,,,,,,,,,,,,,,,,,,,,,,,,,,,,,,,,,,,,,62897,2022-11-17_11h26.45.648,vts_reward_expectancy_bt_OFFLINE,2022.2.4,60.0381405711073,
0,0,1,0,1,0,0,0,hexagon,triangle,2,0,2,0,3,0,36,6,,,,,,,,,,,,,,,,,,,,,,,,,,,,,,,,,,,,,,,,1089.3695442171302,1089.3695442171302,1089.3695442171302,1089.3695442171302,1089.3695442171302,1089.3695442171302,1089.3695442171302,1089.3695442171302,1089.3695442171302,1089.3695442171302,a,1.3767487409058958,10,817,2,1090.7718787770718,1092.272724926006,1092.272724926006,1092.7726762411185,,,,,,,,,,,,,,,,,,,,,,,,,,,,,,,,,,,,,,,,,,,,,,,,,,,,,,,,,,,,,,,,,,,,,62897,2022-11-17_11h26.45.648,vts_reward_expectancy_bt_OFFLINE,2022.2.4,60.0381405711073,
0,0,0,1,1,0,0,0,star,triangle,2,0,2,0,3,1,37,9,,,,,,,,,,,,,,,,,,,,,,,,,,,,,,,,,,,,,,,,1092.7726762411185,1092.7726762411185,1092.7726762411185,1092.7726762411185,1092.7726762411185,1092.7726762411185,1092.7726762411185,1092.7726762411185,1092.7726762411185,1092.7726762411185,l,0.549229723168537,1,818,2,1093.3415984280873,1094.8569172751158,,,,,,,,,,,,,,,,,,,,,,,,,,,,,,,,,,,,,,,,,,,,,,,,,,,,,,,,,,,,,,,,,,,,,,,62897,2022-11-17_11h26.45.648,vts_reward_expectancy_bt_OFFLINE,2022.2.4,60.0381405711073,
1,0,0,0,0,0,1,0,triangle,hexagon,2,0,2,0,3,2,38,1,,,,,,,,,,,,,,,,,,,,,,,,,,,,,,,,,,,,,,,,1095.3416096649598,1095.3416096649598,1095.3416096649598,1095.3416096649598,1095.3416096649598,1095.3416096649598,1095.3416096649598,1095.3416096649598,1095.3416096649598,1095.3416096649598,l,1.6153161299880594,1,819,2,1096.9759777691215,1098.4764349800535,1098.4764349800535,,,,,,,,,,,,,,,,,,,,,,,,,,,,,,,,,,,,,,,,,,,,,,,,,,,,,,,,,,,,,,,,,,,,,,62897,2022-11-17_11h26.45.648,vts_reward_expectancy_bt_OFFLINE,2022.2.4,60.0381405711073,
0,0,1,0,0,1,0,0,hexagon,circle,2,0,2,0,3,3,39,7,,,,,,,,,,,,,,,,,,,,,,,,,,,,,,,,,,,,,,,,1098.976557101123,1098.976557101123,1098.976557101123,1098.976557101123,1098.976557101123,1098.976557101123,1098.976557101123,1098.976557101123,1098.976557101123,1098.976557101123,a,1.2650091510731727,10,829,2,1100.264396301005,1101.7795013501309,,,,,,,,,,,,,,,,,,,,,,,,,,,,,,,,,,,,,,,,,,,,,,,,,,,,,,,,,,,,,,,,,,,,,,,62897,2022-11-17_11h26.45.648,vts_reward_expectancy_bt_OFFLINE,2022.2.4,60.0381405711073,
0,1,0,0,1,0,0,0,circle,triangle,2,0,2,0,3,4,40,3,,,,,,,,,,,,,,,,,,,,,,,,,,,,,,,,,,,,,,,,1102.263141036965,1102.263141036965,1102.263141036965,1102.263141036965,1102.263141036965,1102.263141036965,1102.263141036965,1102.263141036965,1102.263141036965,1102.263141036965,a,1.2414763099513948,1,830,2,1103.5326170839835,1105.0325074261054,,,,,,,,,,,,,,,,,,,,,,,,,,,,,,,,,,,,,,,,,,,,,,,,,,,,,,,,,,,,,,,,,,,,,,,62897,2022-11-17_11h26.45.648,vts_reward_expectancy_bt_OFFLINE,2022.2.4,60.0381405711073,
0,0,0,1,0,0,1,0,star,hexagon,2,0,2,0,3,5,41,11,,,,,,,,,,,,,,,,,,,,,,,,,,,,,,,,,,,,,,,,1105.5327155180275,1105.5327155180275,1105.5327155180275,1105.5327155180275,1105.5327155180275,1105.5327155180275,1105.5327155180275,1105.5327155180275,1105.5327155180275,1105.5327155180275,a,0.9079418769106269,1,831,2,1106.4664313141257,1107.9667987669818,1107.9667987669818,,,,,,,,,,,,,,,,,,,,,,,,,,,,,,,,,,,,,,,,,,,,,,,,,,,,,,,,,,,,,,,,,,,,,,62897,2022-11-17_11h26.45.648,vts_reward_expectancy_bt_OFFLINE,2022.2.4,60.0381405711073,
0,0,0,1,0,1,0,0,star ,circle,2,0,2,0,3,6,42,10,,,,,,,,,,,,,,,,,,,,,,,,,,,,,,,,,,,,,,,,1108.4671171701048,1108.4671171701048,1108.4671171701048,1108.4671171701048,1108.4671171701048,1108.4671171701048,1108.4671171701048,1108.4671171701048,1108.4671171701048,1108.4671171701048,a,0.9881865750066936,1,832,2,1109.4846607840154,1110.986507480964,,,,,,,,,,,,,,,,,,,,,,,,,,,,,,,,,,,,,,,,,,,,,,,,,,,,,,,,,,,,,,,,,,,,,,,62897,2022-11-17_11h26.45.648,vts_reward_expectancy_bt_OFFLINE,2022.2.4,60.0381405711073,
0,0,1,0,0,0,0,1,hexagon,star,2,0,2,0,3,7,43,8,,,,,,,,,,,,,,,,,,,,,,,,,,,,,,,,,,,,,,,,1111.486711089965,1111.486711089965,1111.486711089965,1111.486711089965,1111.486711089965,1111.486711089965,1111.486711089965,1111.486711089965,1111.486711089965,1111.486711089965,a,0.7023701199796051,10,842,2,1112.2204862770159,1113.7209445000626,1113.7209445000626,1114.221170134144,,,,,,,,,,,,,,,,,,,,,,,,,,,,,,,,,,,,,,,,,,,,,,,,,,,,,,,,,,,,,,,,,,,,,62897,2022-11-17_11h26.45.648,vts_reward_expectancy_bt_OFFLINE,2022.2.4,60.0381405711073,
1,0,0,0,0,0,0,1,triangle,star,2,0,2,0,3,8,44,2,,,,,,,,,,,,,,,,,,,,,,,,,,,,,,,,,,,,,,,,1114.221170134144,1114.221170134144,1114.221170134144,1114.221170134144,1114.221170134144,1114.221170134144,1114.221170134144,1114.221170134144,1114.221170134144,1114.221170134144,a,0.8375770899001509,1,843,2,1115.0899516050704,1116.5904950441327,1116.5904950441327,1117.090607293183,,,,,,,,,,,,,,,,,,,,,,,,,,,,,,,,,,,,,,,,,,,,,,,,,,,,,,,,,,,,,,,,,,,,,62897,2022-11-17_11h26.45.648,vts_reward_expectancy_bt_OFFLINE,2022.2.4,60.0381405711073,
1,0,0,0,0,1,0,0,triangle,circle,2,0,2,0,3,9,45,0,,,,,,,,,,,,,,,,,,,,,,,,,,,,,,,,,,,,,,,,1117.090607293183,1117.090607293183,1117.090607293183,1117.090607293183,1117.090607293183,1117.090607293183,1117.090607293183,1117.090607293183,1117.090607293183,1117.090607293183,a,1.927709629992023,1,844,2,1119.042165840976,1120.5436269391794,,,,,,,,,,,,,,,,,,,,,,,,,,,,,,,,,,,,,,,,,,,,,,,,,,,,,,,,,,,,,,,,,,,,,,,62897,2022-11-17_11h26.45.648,vts_reward_expectancy_bt_OFFLINE,2022.2.4,60.0381405711073,
0,1,0,0,0,0,1,0,circle,hexagon,2,0,2,0,3,10,46,4,,,,,,,,,,,,,,,,,,,,,,,,,,,,,,,,,,,,,,,,1121.0437167109922,1121.0437167109922,1121.0437167109922,1121.0437167109922,1121.0437167109922,1121.0437167109922,1121.0437167109922,1121.0437167109922,1121.0437167109922,1121.0437167109922,l,1.2944277089554816,10,854,2,1122.3631795551628,1123.8782580590341,,,,,,,,,,,,,,,,,,,,,,,,,,,,,,,,,,,,,,,,,,,,,,,,,,,,,,,,,,,,,,,,,,,,,,,62897,2022-11-17_11h26.45.648,vts_reward_expectancy_bt_OFFLINE,2022.2.4,60.0381405711073,
0,1,0,0,0,0,0,1,circle,star,2,0,2,0,3,11,47,5,,,,,,,,,,,,,,,,,,,,,,,,,,,,,,,,,,,,,,,,1124.3785518810619,1124.3785518810619,1124.3785518810619,1124.3785518810619,1124.3785518810619,1124.3785518810619,1124.3785518810619,1124.3785518810619,1124.3785518810619,1124.3785518810619,l,1.097491272026673,10,864,2,1125.4973279091064,1126.9977830711287,1126.9977830711287,1127.504582866095,,,,,,,,,,,,,,,,,,,,,,,,,,,,,,,,,,,,,,,,,,,,,,,,,,,,,,,,,,,,,,,,,,,,,62897,2022-11-17_11h26.45.648,vts_reward_expectancy_bt_OFFLINE,2022.2.4,60.0381405711073,
,,,,,,,,,,,,,,,,,,0,0,0,0,0,0,0,0,,,,,,,,,,,,,,,,,,,,,,,,,,,,,,,,,,,,,,,,,,,,,,,,1163.7071670640726,,,139,B,triangle,0.01716585410758853,1158.8835922169965,1160.3558266491164,1160.3558266491164,1160.3558266491164,1,0,d,1.8094963319599628,0,1162.1929474619683,,,,,,,,,,,,,,,,,,,,,,,,,,,,,,,,,,,,,,,,,,,,,,,,,,,,,,,62897,2022-11-17_11h26.45.648,vts_reward_expectancy_bt_OFFLINE,2022.2.4,60.0381405711073,
,,,,,,,,,,,,,,,,,,0,0,0,0,1,0,1,0,,,,,,,,,,,,,,,,,,,,,,,,,,,,,,,,,,,,,,,,,,,,,,,,1168.560834018048,,1169.0610592761077,167,S,star,0.00033761607483029366,1164.6871218641754,1166.1764908761252,1166.1764908761252,1166.1764908761252,1,0,f,0.8597575849853456,0,1167.0603876991663,1168.560834018048,,,,,,,,,,,,,,,,,,,,,,,,,,,,,,,,,,,,,,,,,,,,,,,,,,,,,,62897,2022-11-17_11h26.45.648,vts_reward_expectancy_bt_OFFLINE,2022.2.4,60.0381405711073,
,,,,,,,,,,,,,,,,,,0,0,0,0,2,0,2,0,,,,,,,,,,,,,,,,,,,,,,,,,,,,,,,,,,,,,,,,,,,,,,,,1173.2142600780353,,1173.7144306420814,125,H,circle,0.0001659458503127098,1169.5571196151432,1171.0464637230616,1171.0464637230616,1171.0464637230616,1,0,d,0.6469521899707615,0,1171.7140308450907,1173.2142600780353,,,,,,,,,,,,,,,,,,,,,,,,,,,,,,,,,,,,,,,,,,,,,,,,,,,,,,62897,2022-11-17_11h26.45.648,vts_reward_expectancy_bt_OFFLINE,2022.2.4,60.0381405711073,
,,,,,,,,,,,,,,,,,,0,0,0,0,3,0,3,0,,,,,,,,,,,,,,,,,,,,,,,,,,,,,,,,,,,,,,,,,,,,,,,,1177.9845631499775,,1178.4845983521082,160,W,hexagon,0.00016252393834292889,1174.2097940491512,1175.6998471510597,1175.6998471510597,1175.6998471510597,1,0,f,0.7530951360240579,0,1176.4846326881088,1177.9845631499775,,,,,,,,,,,,,,,,,,,,,,,,,,,,,,,,,,,,,,,,,,,,,,,,,,,,,,62897,2022-11-17_11h26.45.648,vts_reward_expectancy_bt_OFFLINE,2022.2.4,60.0381405711073,
,,,,,,,,,,,,,,,,,,0,0,0,0,4,0,4,0,,,,,,,,,,,,,,,,,,,,,,,,,,,,,,,,,,,,,,,,,,,,,,,,1182.5543677459937,,1183.0544627669733,174,F,circle,0.0003309680614620447,1178.9802491180599,1180.4704459020868,1180.4704459020868,1180.4704459020868,1,0,f,0.5618760851211846,0,1181.0540968989953,,,,,,,,,,,,,,,,,,,,,,,,,,,,,,,,,,,,,,,,,,,,,,,,,,,,,,,62897,2022-11-17_11h26.45.648,vts_reward_expectancy_bt_OFFLINE,2022.2.4,60.0381405711073,
,,,,,,,,,,,,,,,,,,0,0,0,0,5,0,5,0,,,,,,,,,,,,,,,,,,,,,,,,,,,,,,,,,,,,,,,,,,,,,,,,1187.174923503073,,1187.6749144741334,146,U,hexagon,0.0006738090887665749,1183.5506686640438,1185.0405508840922,1185.0405508840922,1185.0405508840922,1,0,d,0.6151794909965247,0,1185.6743565839715,1187.174923503073,,,,,,,,,,,,,,,,,,,,,,,,,,,,,,,,,,,,,,,,,,,,,,,,,,,,,,62897,2022-11-17_11h26.45.648,vts_reward_expectancy_bt_OFFLINE,2022.2.4,60.0381405711073,
,,,,,,,,,,,,,,,,,,0,0,0,0,6,0,6,0,,,,,,,,,,,,,,,,,,,,,,,,,,,,,,,,,,,,,,,,,,,,,,,,1192.1283665301744,,1192.6288528121077,181,D,triangle,0.00048652105033397675,1188.1706192211714,1189.658979109954,1189.658979109954,1189.658979109954,1,0,f,0.946929635014385,0,1190.6278589081485,1192.1283665301744,,,,,,,,,,,,,,,,,,,,,,,,,,,,,,,,,,,,,,,,,,,,,,,,,,,,,,62897,2022-11-17_11h26.45.648,vts_reward_expectancy_bt_OFFLINE,2022.2.4,60.0381405711073,
,,,,,,,,,,,,,,,,,,0,0,0,0,7,0,7,0,,,,,,,,,,,,,,,,,,,,,,,,,,,,,,,,,,,,,,,,,,,,,,,,1197.2651815160643,,1197.7652576400433,132,Y,star,0.0006493518594652414,1193.1237729471177,1194.61282373406,1194.61282373406,1194.61282373406,1,0,d,1.1232530360575765,0,1195.7649041609839,1197.2651815160643,,,,,,,,,,,,,,,,,,,,,,,,,,,,,,,,,,,,,,,,,,,,,,,,,,,,,,62897,2022-11-17_11h26.45.648,vts_reward_expectancy_bt_OFFLINE,2022.2.4,60.0381405711073,
,,,,,,,,,,,,,,,,,,0,0,0,0,8,0,8,0,,,,,,,,,,,,,,,,,,,,,,,,,,,,,,,,,,,,,,,,,,,,,,,,1201.9025067540351,,1202.4025381209794,139,B,circle,0.0006641370709985495,1198.260749427136,1199.7496948861517,1199.7496948861517,1199.7496948861517,1,0,d,0.6330550978891551,0,1200.4018482090905,1201.9025067540351,,,,,,,,,,,,,,,,,,,,,,,,,,,,,,,,,,,,,,,,,,,,,,,,,,,,,,62897,2022-11-17_11h26.45.648,vts_reward_expectancy_bt_OFFLINE,2022.2.4,60.0381405711073,
,,,,,,,,,,,,,,,,,,0,0,0,0,9,0,9,0,,,,,,,,,,,,,,,,,,,,,,,,,,,,,,,,,,,,,,,,,,,,,,,,1206.6392422639765,,1207.1489614031743,167,S,triangle,0.0006519900634884834,1202.8972198120318,1204.3866728590801,1204.3866728590801,1204.3866728590801,1,0,f,0.7211086370516568,0,1205.1386722209863,1206.6392422639765,,,,,,,,,,,,,,,,,,,,,,,,,,,,,,,,,,,,,,,,,,,,,,,,,,,,,,62897,2022-11-17_11h26.45.648,vts_reward_expectancy_bt_OFFLINE,2022.2.4,60.0381405711073,
,,,,,,,,,,,,,,,,,,,,,,,,,,0,0,0,0,0,0,0,0,,,,,,,,,,,,,,,,,,,,,,,,,,,,,,,,,,,,,,,,1229.6716036130674,,,146,W,circle,0.0027958760038018227,,,,,1,0,,,1,1228.1709533531684,1229.6716036130674,1225.565617874032,1227.0539309540763,1227.0539309540763,1227.0539309540763,k,1.084258581046015,,,,,,,,,,,,,,,,,,,,,,,,,,,,,,,,,,,,,,,,,,,,,,,,62897,2022-11-17_11h26.45.648,vts_reward_expectancy_bt_OFFLINE,2022.2.4,60.0381405711073,
,,,,,,,,,,,,,,,,,,,,,,,,,,0,0,0,0,1,0,1,0,,,,,,,,,,,,,,,,,,,,,,,,,,,,,,,,,,,,,,,,1234.4246939329896,,1234.924838612089,125,F,hexagon,0.0016958890482783318,,,,,1,0,,,1,1232.9253280730918,1234.4246939329896,1230.6678503439762,1232.1576034910977,1232.1576034910977,1232.1576034910977,j,0.7504414501599967,,,,,,,,,,,,,,,,,,,,,,,,,,,,,,,,,,,,,,,,,,,,,,,,62897,2022-11-17_11h26.45.648,vts_reward_expectancy_bt_OFFLINE,2022.2.4,60.0381405711073,
,,,,,,,,,,,,,,,,,,,,,,,,,,0,0,0,0,2,0,2,0,,,,,,,,,,,,,,,,,,,,,,,,,,,,,,,,,,,,,,,,1239.9767563550267,,,132,H,triangle,-0.00010032579302787781,,,,,1,0,,,1,1238.478846595157,1239.9767563550267,1235.431617747061,1236.9109260651749,1236.9109260651749,1236.9109260651749,j,1.5448466669768095,,,,,,,,,,,,,,,,,,,,,,,,,,,,,,,,,,,,,,,,,,,,,,,,62897,2022-11-17_11h26.45.648,vts_reward_expectancy_bt_OFFLINE,2022.2.4,60.0381405711073,
,,,,,,,,,,,,,,,,,,,,,,,,,,0,0,0,0,3,0,3,0,,,,,,,,,,,,,,,,,,,,,,,,,,,,,,,,,,,,,,,,1244.9492950020358,,,181,D,star,0.0015418517868965864,,,,,1,0,,,1,1243.4489329701755,1244.9492950020358,1240.976236497052,1242.4648752170615,1242.4648752170615,1242.4648752170615,j,0.9626941499300301,,,,,,,,,,,,,,,,,,,,,,,,,,,,,,,,,,,,,,,,,,,,,,,,62897,2022-11-17_11h26.45.648,vts_reward_expectancy_bt_OFFLINE,2022.2.4,60.0381405711073,
,,,,,,,,,,,,,,,,,,,,,,,,,,0,0,0,0,4,0,4,0,,,,,,,,,,,,,,,,,,,,,,,,,,,,,,,,,,,,,,,,1250.0878333931323,,,167,Y,star,0.0023577159736305475,,,,,1,0,,,1,1248.5862941781525,,1245.9459677990526,1247.4351772270165,1247.4351772270165,1247.4351772270165,k,1.133702312130481,,,,,,,,,,,,,,,,,,,,,,,,,,,,,,,,,,,,,,,,,,,,,,,,62897,2022-11-17_11h26.45.648,vts_reward_expectancy_bt_OFFLINE,2022.2.4,60.0381405711073,
,,,,,,,,,,,,,,,,,,,,,,,,,,0,0,0,0,5,0,5,0,,,,,,,,,,,,,,,,,,,,,,,,,,,,,,,,,,,,,,,,1254.7231698860414,,,160,B,triangle,0.0016127589624375105,,,,,1,0,,,1,1253.2229519539978,1254.7231698860414,1251.0843191531021,1252.572332791984,1252.572332791984,1252.572332791984,j,0.6321047791279852,,,,,,,,,,,,,,,,,,,,,,,,,,,,,,,,,,,,,,,,,,,,,,,,62897,2022-11-17_11h26.45.648,vts_reward_expectancy_bt_OFFLINE,2022.2.4,60.0381405711073,
,,,,,,,,,,,,,,,,,,,,,,,,,,0,0,0,0,6,0,6,0,,,,,,,,,,,,,,,,,,,,,,,,,,,,,,,,,,,,,,,,1259.5599866420962,,,139,S,hexagon,0.0018461791332811117,,,,,1,0,,,1,1258.0599505279679,1259.5599866420962,1255.7198313060217,1257.209282020107,1257.209282020107,1257.209282020107,k,0.8212824300862849,,,,,,,,,,,,,,,,,,,,,,,,,,,,,,,,,,,,,,,,,,,,,,,,62897,2022-11-17_11h26.45.648,vts_reward_expectancy_bt_OFFLINE,2022.2.4,60.0381405711073,
,,,,,,,,,,,,,,,,,,,,,,,,,,0,0,0,0,7,0,7,0,,,,,,,,,,,,,,,,,,,,,,,,,,,,,,,,,,,,,,,,1264.430215994129,,1264.9303893961478,174,U,circle,0.001999915111809969,,,,,1,0,,,1,1262.9300272939727,1264.430215994129,1260.5569536020048,1262.0461261570454,1262.0461261570454,1262.0461261570454,k,0.8567047580145299,,,,,,,,,,,,,,,,,,,,,,,,,,,,,,,,,,,,,,,,,,,,,,,,62897,2022-11-17_11h26.45.648,vts_reward_expectancy_bt_OFFLINE,2022.2.4,60.0381405711073,
,,,,,,,,,,,,,,,,,,,,,,,,,,0,0,0,0,8,0,8,0,,,,,,,,,,,,,,,,,,,,,,,,,,,,,,,,,,,,,,,,1269.2001791731454,,1269.7006275730673,146,W,circle,0.0005060718394815922,,,,,1,0,,,1,1267.699890535092,1269.2001791731454,1265.4252722631209,1266.9161139950156,1266.9161139950156,1266.9161139950156,k,0.7569313258863986,,,,,,,,,,,,,,,,,,,,,,,,,,,,,,,,,,,,,,,,,,,,,,,,62897,2022-11-17_11h26.45.648,vts_reward_expectancy_bt_OFFLINE,2022.2.4,60.0381405711073,
,,,,,,,,,,,,,,,,,,,,,,,,,,0,0,0,0,9,0,9,0,,,,,,,,,,,,,,,,,,,,,,,,,,,,,,,,,,,,,,,,1274.4375322109554,,1274.9399755289778,125,F,hexagon,0.0005550538189709187,,,,,1,0,,,1,1272.9366988970432,1274.4375322109554,1270.1959739250597,1271.686311049154,1271.686311049154,1271.686311049154,j,1.2182649499736726,,,,,,,,,,,,,,,,,,,,,,,,,,,,,,,,,,,,,,,,,,,,,,,,62897,2022-11-17_11h26.45.648,vts_reward_expectancy_bt_OFFLINE,2022.2.4,60.0381405711073,
,,,,,,,,,,,,,,,,,,,,,,,,,,,,,,,,,,0,0,0,0,0,0,0,0,,,,,,,,,,,,,,,,,,,,,,,,,,,,0,864,,,1318.5698313419707,,,160,H,star,0.010345426155254245,,,,,-1,0,,,2,,,,,,,,,1312.5621369869914,1312.5621369869914,1312.5621369869914,1312.5621369869914,1314.0496860139538,1314.0496860139538,1314.0496860139538,1314.0496860139538,1314.06647273805,1314.06647273805,1314.06647273805,1314.06647273805,1317.0558573720045,1317.0558573720045,1317.0558573720045,1317.0558573720045,-1,no_choice,NA,None,vtsPrac,1317.0558573720045,,,,,,,,,,,,,,,,,,,,,,,,,,62897,2022-11-17_11h26.45.648,vts_reward_expectancy_bt_OFFLINE,2022.2.4,60.0381405711073,
,,,,,,,,,,,,,,,,,,,,,,,,,,,,,,,,,,0,0,0,0,1,0,1,0,,,,,,,,,,,,,,,,,,,,,,,,,,,,0,864,,,1323.6397831409704,,,125,B,circle,0.014106249203905463,,,,,0,0,,,2,,,,,,,,,1319.5661300399806,1319.5661300399806,1319.5661300399806,1319.5661300399806,1321.0393750080839,1321.0393750080839,1321.0393750080839,1321.0393750080839,1321.0726296431385,1321.0726296431385,1321.0726296431385,1321.0726296431385,,,,,switch,letter,NA,k,vtsPrac,1322.125925119035,1.0633756720926613,,,,,,,,,,,,,,,,,,,,,,,,,62897,2022-11-17_11h26.45.648,vts_reward_expectancy_bt_OFFLINE,2022.2.4,60.0381405711073,
,,,,,,,,,,,,,,,,,,,,,,,,,,,,,,,,,,0,0,0,0,2,0,2,0,,,,,,,,,,,,,,,,,,,,,,,,,,,,0,864,,,1329.1269660771359,,,139,D,circle,0.01691686292178929,,,,,1,1,,,2,,,,,,,,,1324.6368703141343,1324.6368703141343,1324.6368703141343,1324.6368703141343,1326.1092656969558,1326.1092656969558,1326.1092656969558,1326.1092656969558,1326.142794283107,1326.142794283107,1326.142794283107,1326.142794283107,,,,,switch,number,numSwt,d,vtsPrac,1327.6129587430041,1.4843429969623685,,,,,,,,,,,,,,,,,,,,,,,,,62897,2022-11-17_11h26.45.648,vts_reward_expectancy_bt_OFFLINE,2022.2.4,60.0381405711073,
,,,,,,,,,,,,,,,,,,,,,,,,,,,,,,,,,,0,0,0,0,3,0,3,0,,,,,,,,,,,,,,,,,,,,,,,,,,,,0,864,,,1333.9641627471428,,,174,F,hexagon,0.016399401938542724,,,,,0,0,,,2,,,,,,,,,1330.1240772570018,1330.1240772570018,1330.1240772570018,1330.1240772570018,1331.5963991701137,1331.5963991701137,1331.5963991701137,1331.5963991701137,1331.6299479370937,1331.6299479370937,1331.6299479370937,1331.6299479370937,,,,,repeat,number,NA,d,vtsPrac,1332.4524443249684,0.8234212039969862,,,,,,,,,,,,,,,,,,,,,,,,,62897,2022-11-17_11h26.45.648,vts_reward_expectancy_bt_OFFLINE,2022.2.4,60.0381405711073,
,,,,,,,,,,,,,,,,,,,,,,,,,,,,,,,,,,0,0,0,0,4,0,4,0,,,,,,,,,,,,,,,,,,,,,,,,,,,,0,864,,,1338.8508587270044,,,160,H,circle,0.016302441945299506,,,,,1,1,,,2,,,,,,,,,1334.9598744190298,1334.9598744190298,1334.9598744190298,1334.9598744190298,1336.4335695991758,1336.4335695991758,1336.4335695991758,1336.4335695991758,1336.4666895270348,1336.4666895270348,1336.4666895270348,1336.4666895270348,,,,,repeat,number,numRpt,f,vtsPrac,1337.3372137430124,0.8799783471040428,,,,,,,,,,,,,,,,,,,,,,,,,62897,2022-11-17_11h26.45.648,vts_reward_expectancy_bt_OFFLINE,2022.2.4,60.0381405711073,
,,,,,,,,,,,,,,,,,,,,,,,,,,,,,,,,,,0,0,0,0,5,0,5,0,,,,,,,,,,,,,,,,,,,,,,,,,,,,0,864,,,1344.0211627781391,,1344.5215227981098,125,B,hexagon,0.0004578980151563883,,,,,1,0,,,2,,,,,,,,,1339.83046161104,1339.83046161104,1339.83046161104,1339.83046161104,1341.3201220971532,1341.3201220971532,1341.3201220971532,1341.3201220971532,1341.33725224901,1341.33725224901,1341.33725224901,1341.33725224901,,,,,switch,letter,lettSwt,j,vtsPrac,1342.5225473949686,1.1688302799593657,1344.0211627781391,,,,,,,,,,,,,,,,,,,,,,,,62897,2022-11-17_11h26.45.648,vts_reward_expectancy_bt_OFFLINE,2022.2.4,60.0381405711073,
,,,,,,,,,,,,,,,,,,,,,,,,,,,,,,,,,,0,0,0,0,6,0,6,0,,,,,,,,,,,,,,,,,,,,,,,,,,,,0,864,,,1349.0086773841176,,,139,D,triangle,-0.000640785088762641,,,,,1,0,,,2,,,,,,,,,1345.027961628046,1345.027961628046,1345.027961628046,1345.027961628046,1346.5074720389675,1346.5074720389675,1346.5074720389675,1346.5074720389675,1346.5409448060673,1346.5409448060673,1346.5409448060673,1346.5409448060673,,,,,repeat,letter,lettRpt,j,vtsPrac,1347.4945321751293,0.9541556548792869,,,,,,,,,,,,,,,,,,,,,,,,,62897,2022-11-17_11h26.45.648,vts_reward_expectancy_bt_OFFLINE,2022.2.4,60.0381405711073,
,,,,,,,,,,,,,,,,,,,,,,,,,,,,,,,,,,0,0,0,0,7,0,7,0,,,,,,,,,,,,,,,,,,,,,,,,,,,,0,864,,,1353.8621652380098,,,174,F,star,0.01666396204382181,,,,,1,0,,,2,,,,,,,,,1350.004171719076,1350.004171719076,1350.004171719076,1350.004171719076,1351.4775440271478,1351.4775440271478,1351.4775440271478,1351.4775440271478,1351.5113109720405,1351.5113109720405,1351.5113109720405,1351.5113109720405,,,,,switch,number,numSwt,f,vtsPrac,1352.3481216679793,0.8443688421975821,,,,,,,,,,,,,,,,,,,,,,,,,62897,2022-11-17_11h26.45.648,vts_reward_expectancy_bt_OFFLINE,2022.2.4,60.0381405711073,
,,,,,,,,,,,,,,,,,,,,,,,,,,,,,,,,,,0,0,0,0,8,0,8,0,,,,,,,,,,,,,,,,,,,,,,,,,,,,0,864,,,1358.6488117810804,,,174,Y,circle,0.00043862685561180115,,,,,0,0,,,2,,,,,,,,,1354.841845632065,1354.841845632065,1354.841845632065,1354.841845632065,1356.3311880710535,1356.3311880710535,1356.3311880710535,1356.3311880710535,1356.34831045405,1356.34831045405,1356.34831045405,1356.34831045405,,,,,repeat,number,NA,d,vtsPrac,1357.1351933861151,0.7841131170280278,,,,,,,,,,,,,,,,,,,,,,,,,62897,2022-11-17_11h26.45.648,vts_reward_expectancy_bt_OFFLINE,2022.2.4,60.0381405711073,
,,,,,,,,,,,,,,,,,,,,,,,,,,,,,,,,,,0,0,0,0,9,0,9,0,,,,,,,,,,,,,,,,,,,,,,,,,,,,0,864,,,1363.5026828381233,,,167,F,triangle,0.01605822006240487,,,,,0,1,,,2,,,,,,,,,1359.6446035869885,1359.6446035869885,1359.6446035869885,1359.6446035869885,1361.1183046731167,1361.1183046731167,1361.1183046731167,1361.1183046731167,1361.1516238651238,1361.1516238651238,1361.1516238651238,1361.1516238651238,,,,,repeat,number,NA,d,vtsPrac,1362.0023955570068,0.8579396831337363,1363.5026828381233,,,,,,,,,,,,,,,,,,,,,,,,62897,2022-11-17_11h26.45.648,vts_reward_expectancy_bt_OFFLINE,2022.2.4,60.0381405711073,
,,,,,,,,,,,,,,,,,,,,,,,,,,,,,,,,,,0,0,0,0,10,0,10,0,,,,,,,,,,,,,,,,,,,,,,,,,,,,0,864,,,1368.3559358189814,,,125,B,hexagon,0.00045201415196061134,,,,,1,1,,,2,,,,,,,,,1364.4984141599853,1364.4984141599853,1364.4984141599853,1364.4984141599853,1365.9883647980168,1365.9883647980168,1365.9883647980168,1365.9883647980168,1366.0053178651724,1366.0053178651724,1366.0053178651724,1366.0053178651724,,,,,switch,letter,lettSwt,j,vtsPrac,1366.844883351121,0.8249189781490713,,,,,,,,,,,,,,,,,,,,,,,,,62897,2022-11-17_11h26.45.648,vts_reward_expectancy_bt_OFFLINE,2022.2.4,60.0381405711073,
,,,,,,,,,,,,,,,,,,,,,,,,,,,,,,,,,,0,0,0,0,11,0,11,0,,,,,,,,,,,,,,,,,,,,,,,,,,,,0,864,,,1373.3428317019716,,,132,S,triangle,0.01597837801091373,,,,,0,0,,,2,,,,,,,,,1369.352269305149,1369.352269305149,1369.352269305149,1369.352269305149,1370.825504470151,1370.825504470151,1370.825504470151,1370.825504470151,1370.858688479988,1370.858688479988,1370.858688479988,1370.858688479988,,,,,switch,number,NA,f,vtsPrac,1371.8309078919701,0.9719049350824207,,,,,,,,,,,,,,,,,,,,,,,,,62897,2022-11-17_11h26.45.648,vts_reward_expectancy_bt_OFFLINE,2022.2.4,60.0381405711073,
,,,,,,,,,,,,,,,,,,,,,,,,,,,,,,,,,,0,0,0,0,12,0,12,0,,,,,,,,,,,,,,,,,,,,,,,,,,,,0,864,,,1378.6466054571792,,,174,H,triangle,0.0164077109657228,,,,,0,1,,,2,,,,,,,,,1374.3388736629859,1374.3388736629859,1374.3388736629859,1374.3388736629859,1375.812444465002,1375.812444465002,1375.812444465002,1375.812444465002,1375.8453488170635,1375.8453488170635,1375.8453488170635,1375.8453488170635,,,,,repeat,number,NA,d,vtsPrac,1377.1317697879858,1.2838294729590416,,,,,,,,,,,,,,,,,,,,,,,,,62897,2022-11-17_11h26.45.648,vts_reward_expectancy_bt_OFFLINE,2022.2.4,60.0381405711073,
,,,,,,,,,,,,,,,,,,,,,,,,,,,,,,,,,,0,0,0,0,13,0,13,0,,,,,,,,,,,,,,,,,,,,,,,,,,,,0,864,,,1384.1337861320935,,,146,S,circle,0.01605288404971361,,,,,1,1,,,2,,,,,,,,,1379.642363372026,1379.642363372026,1379.642363372026,1379.642363372026,1381.1161143321078,1381.1161143321078,1381.1161143321078,1381.1161143321078,1381.1493893691804,1381.1493893691804,1381.1493893691804,1381.1493893691804,,,,,repeat,number,numRpt,d,vtsPrac,1382.6198658479843,1.48203186201863,,,,,,,,,,,,,,,,,,,,,,,,,62897,2022-11-17_11h26.45.648,vts_reward_expectancy_bt_OFFLINE,2022.2.4,60.0381405711073,
,,,,,,,,,,,,,,,,,,,,,,,,,,,,,,,,,,0,0,0,0,14,0,14,0,,,,,,,,,,,,,,,,,,,,,,,,,,,,0,864,,,1389.2708133871201,,,181,W,star,0.00038452516309916973,,,,,1,0,,,2,,,,,,,,,1385.1138484801631,1385.1138484801631,1385.1138484801631,1385.1138484801631,1386.603212709073,1386.603212709073,1386.603212709073,1386.603212709073,1386.6196284671314,1386.6196284671314,1386.6196284671314,1386.6196284671314,,,,,repeat,number,numRpt,f,vtsPrac,1387.7568105391692,1.1249262189958245,,,,,,,,,,,,,,,,,,,,,,,,,62897,2022-11-17_11h26.45.648,vts_reward_expectancy_bt_OFFLINE,2022.2.4,60.0381405711073,
,,,,,,,,,,,,,,,,,,,,,,,,,,,,,,,,,,0,0,0,0,15,0,15,0,,,,,,,,,,,,,,,,,,,,,,,,,,,,0,864,,,1394.3912000011187,,1394.8917222940363,139,U,circle,0.016530211083590984,,,,,0,0,,,2,,,,,,,,,1390.26656055497,1390.26656055497,1390.26656055497,1390.26656055497,1391.7403381180484,1391.7403381180484,1391.7403381180484,1391.7403381180484,1391.773307821015,1391.773307821015,1391.773307821015,1391.773307821015,,,,,switch,letter,NA,j,vtsPrac,1392.8909492250532,1.1181813280563802,1394.3912000011187,,,,,,,,,,,,,,,,,,,,,,,,62897,2022-11-17_11h26.45.648,vts_reward_expectancy_bt_OFFLINE,2022.2.4,60.0381405711073,
,,,,,,,,,,,,,,,,,,,,,,,,,,,,,,,,,,0,0,0,0,16,0,16,0,,,,,,,,,,,,,,,,,,,,,,,,,,,,0,864,,,1399.6783249890432,,,125,U,star,-0.0005018999800086021,,,,,1,1,,,2,,,,,,,,,1395.3976816469803,1395.3976816469803,1395.3976816469803,1395.3976816469803,1396.8772206699941,1396.8772206699941,1396.8772206699941,1396.8772206699941,1396.9108388070017,1396.9108388070017,1396.9108388070017,1396.9108388070017,,,,,switch,number,numSwt,d,vtsPrac,1398.164102992043,1.2570654021110386,,,,,,,,,,,,,,,,,,,,,,,,,62897,2022-11-17_11h26.45.648,vts_reward_expectancy_bt_OFFLINE,2022.2.4,60.0381405711073,
,,,,,,,,,,,,,,,,,,,,,,,,,,,,,,,,,,0,0,0,0,17,0,17,0,,,,,,,,,,,,,,,,,,,,,,,,,,,,0,864,,,1404.9654551369604,,,174,W,circle,0.00202529807575047,,,,,1,0,,,2,,,,,,,,,1400.6586808150169,1400.6586808150169,1400.6586808150169,1400.6586808150169,1402.147927978076,1402.147927978076,1402.147927978076,1402.147927978076,1402.1645670209546,1402.1645670209546,1402.1645670209546,1402.1645670209546,,,,,switch,letter,lettSwt,k,vtsPrac,1403.465962659102,1.2977110089268535,1404.9654551369604,,,,,,,,,,,,,,,,,,,,,,,,62897,2022-11-17_11h26.45.648,vts_reward_expectancy_bt_OFFLINE,2022.2.4,60.0381405711073,
,,,,,,,,,,,,,,,,,,,,,,,,,,,,,,,,,,0,0,0,0,18,0,18,0,,,,,,,,,,,,,,,,,,,,,,,,,,,,0,864,,,1409.9192547970451,,,139,D,circle,0.0019216989167034626,,,,,1,0,,,2,,,,,,,,,1405.962222178001,1405.962222178001,1405.962222178001,1405.962222178001,1407.451402302133,1407.451402302133,1407.451402302133,1407.451402302133,1407.4685023091733,1407.4685023091733,1407.4685023091733,1407.4685023091733,,,,,repeat,letter,lettRpt,j,vtsPrac,1408.4048180789687,0.9221515350509435,,,,,,,,,,,,,,,,,,,,,,,,,62897,2022-11-17_11h26.45.648,vts_reward_expectancy_bt_OFFLINE,2022.2.4,60.0381405711073,
,,,,,,,,,,,,,,,,,,,,,,,,,,,,,,,,,,0,0,0,0,19,0,19,0,,,,,,,,,,,,,,,,,,,,,,,,,,,,0,864,,,1415.0058742261026,,,167,S,hexagon,0.0021567828953266144,,,,,1,0,,,2,,,,,,,,,1410.8990713071544,1410.8990713071544,1410.8990713071544,1410.8990713071544,1412.3886280481238,1412.3886280481238,1412.3886280481238,1412.3886280481238,1412.404950980097,1412.404950980097,1412.404950980097,1412.404950980097,,,,,switch,number,numSwt,f,vtsPrac,1413.4918937850744,1.069052335107699,,,,,,,,,,,,,,,,,,,,,,,,,62897,2022-11-17_11h26.45.648,vts_reward_expectancy_bt_OFFLINE,2022.2.4,60.0381405711073,
,,,,,,,,,,,,,,,,,,,,,,,,,,,,,,,,,,0,0,0,0,20,0,20,0,,,,,,,,,,,,,,,,,,,,,,,,,,,,0,864,,,1420.611768858973,,,174,D,hexagon,0.0016389661468565464,,,,,0,0,,,2,,,,,,,,,1415.9863843030762,1415.9863843030762,1415.9863843030762,1415.9863843030762,1417.4755533940624,1417.4755533940624,1417.4755533940624,1417.4755533940624,1417.4921736239921,1417.4921736239921,1417.4921736239921,1417.4921736239921,,,,,repeat,number,NA,d,vtsPrac,1419.115901652025,1.608320266008377,,,,,,,,,,,,,,,,,,,,,,,,,62897,2022-11-17_11h26.45.648,vts_reward_expectancy_bt_OFFLINE,2022.2.4,60.0381405711073,
,,,,,,,,,,,,,,,,,,,,,,,,,,,,,,,,,,0,0,0,0,21,0,21,0,,,,,,,,,,,,,,,,,,,,,,,,,,,,0,864,,,1426.9158244570717,,,146,W,star,0.0016089570708572865,,,,,1,1,,,2,,,,,,,,,1421.6072406109888,1421.6072406109888,1421.6072406109888,1421.6072406109888,1423.0959455380216,1423.0959455380216,1423.0959455380216,1423.0959455380216,1423.1125822761096,1423.1125822761096,1423.1125822761096,1423.1125822761096,,,,,switch,letter,lettSwt,k,vtsPrac,1425.404755015159,2.2769172398839146,,,,,,,,,,,,,,,,,,,,,,,,,62897,2022-11-17_11h26.45.648,vts_reward_expectancy_bt_OFFLINE,2022.2.4,60.0381405711073,
,,,,,,,,,,,,,,,,,,,,,,,,,,,,,,,,,,0,0,0,0,22,0,22,0,,,,,,,,,,,,,,,,,,,,,,,,,,,,0,864,,,1431.8858604249544,,1432.3860394591466,167,U,triangle,0.017091060057282448,,,,,1,0,,,2,,,,,,,,,1427.911492315121,1427.911492315121,1427.911492315121,1427.911492315121,1429.3831165840384,1429.3831165840384,1429.3831165840384,1429.3831165840384,1429.4168057851493,1429.4168057851493,1429.4168057851493,1429.4168057851493,,,,,repeat,letter,lettRpt,k,vtsPrac,1430.3867094900925,0.985487308120355,1431.8858604249544,,,,,,,,,,,,,,,,,,,,,,,,62897,2022-11-17_11h26.45.648,vts_reward_expectancy_bt_OFFLINE,2022.2.4,60.0381405711073,
,,,,,,,,,,,,,,,,,,,,,,,,,,,,,,,,,,0,0,0,0,23,0,23,0,,,,,,,,,,,,,,,,,,,,,,,,,,,,0,864,,,1437.8067961509805,,1438.3071819441393,181,H,star,0.0004239920526742935,,,,,1,0,,,2,,,,,,,,,1432.8923293270636,1432.8923293270636,1432.8923293270636,1432.8923293270636,1434.370402924018,1434.370402924018,1434.370402924018,1434.370402924018,1434.4037297400646,1434.4037297400646,1434.4037297400646,1434.4037297400646,,,,,switch,number,numSwt,f,vtsPrac,1436.3072059201077,1.9153745810035616,1437.8067961509805,,,,,,,,,,,,,,,,,,,,,,,,62897,2022-11-17_11h26.45.648,vts_reward_expectancy_bt_OFFLINE,2022.2.4,60.0381405711073,
,,,,,,,,,,,,,,,,,,,,,,,,,,,,,,,,,,0,0,0,0,24,0,24,0,,,,,,,,,,,,,,,,,,,,,,,,,,,,0,864,,,1443.427316552028,,,160,F,hexagon,0.00040835817344486713,,,,,1,0,,,2,,,,,,,,,1438.8024409990758,1438.8024409990758,1438.8024409990758,1438.8024409990758,1440.2926794709638,1440.2926794709638,1440.2926794709638,1440.2926794709638,1440.3098611761816,1440.3098611761816,1440.3098611761816,1440.3098611761816,,,,,switch,letter,lettSwt,j,vtsPrac,1441.9137774121482,1.5954175130464137,,,,,,,,,,,,,,,,,,,,,,,,,62897,2022-11-17_11h26.45.648,vts_reward_expectancy_bt_OFFLINE,2022.2.4,60.0381405711073,
