LTriangleOpac,LCircleOpac,LHexagonOpac,LStarOpac,RTriangleOpac,RCircleOpac,RHexagonOpac,RStarOpac,LShape_ID,RShape_ID,training_blocks.thisRepN,training_blocks.thisTrialN,training_blocks.thisN,training_blocks.thisIndex,training.thisRepN,training.thisTrialN,training.thisN,training.thisIndex,task1_prac_redo.thisRepN,task1_prac_redo.thisTrialN,task1_prac_redo.thisN,task1_prac_redo.thisIndex,task1_prac_trials.thisRepN,task1_prac_trials.thisTrialN,task1_prac_trials.thisN,task1_prac_trials.thisIndex,task2_prac_redo.thisRepN,task2_prac_redo.thisTrialN,task2_prac_redo.thisN,task2_prac_redo.thisIndex,task2_praac_trials.thisRepN,task2_praac_trials.thisTrialN,task2_praac_trials.thisN,task2_praac_trials.thisIndex,vts_prac_redo.thisRepN,vts_prac_redo.thisTrialN,vts_prac_redo.thisN,vts_prac_redo.thisIndex,vts_practice_trials.thisRepN,vts_practice_trials.thisTrialN,vts_practice_trials.thisN,vts_practice_trials.thisIndex,trials_norew.thisRepN,trials_norew.thisTrialN,trials_norew.thisN,trials_norew.thisIndex,block.thisRepN,block.thisTrialN,block.thisN,block.thisIndex,trials_rew.thisRepN,trials_rew.thisTrialN,trials_rew.thisN,trials_rew.thisIndex,key_resp.started,key_resp.keys,key_resp.rt,left_circle.started,right_circle.started,left_triangle.started,right_triangle.started,left_star.started,right_star.started,left_hexagon.started,right_hexagon.started,training_fix.started,training_resp.started,training_resp.keys,training_resp.rt,points_trial,points_cumul,trainBlock,training_feedback_txt.started,training_feedback_txt.stopped,fix.started,curr_topStim,curr_bottStim,curr_shape,ISI.started,tgt_fix_prac1.started,top_target_prac1.started,bott_target_prac1.started,target_resp_prac1.started,acc,E1,target_resp_prac1.keys,target_resp_prac1.rt,pracBlock,prac_fback_text.started,prac_fback_text.stopped,tgt_fix_prac2.started,top_target_prac2.started,bott_target_prac2.started,target_resp_prac2.started,target_resp_prac2.keys,target_resp_prac2.rt,star.started,hegagon.started,triangle.started,circle.started,top_target.started,tgt_fix.started,bot_target.started,target_resp.started,star.stopped,hegagon.stopped,triangle.stopped,circle.stopped,alt,task,condition,target_resp.keys,target_resp.rt,rewCond,vts_fback.started,vts_fback.stopped,blockNum,norew_fback.started,norew_fback.stopped,fix.stopped,key_resp_2.keys,key_resp_2.rt,rewExpectancy,feedbk_text.started,feedbk_text.stopped,text_3.started,debrief.started,text_3.stopped,button.started,debrief.index,debrief.itemText,debrief.type,debrief.granularity,debrief.font,debrief.markerColor,debrief.response,debrief.rt,button.numClicks,button.timesOn,button.timesOff,participant,date,expName,psychopyVersion,frameRate,
,,,,,,,,,,,,,,,,,,,,,,,,,,,,,,,,,,,,,,,,,,,,,,,,,,,,,,561.5288160019554,space,21.4293086102698,,,,,,,,,,,,,,,,,,,,,,,,,,,,,,,,,,,,,,,,,,,,,,,,,,,,,,,,,,,,,,,,,,,,,,,,,,,,,,,,,,,,63591,2022-11-17_11h26.51.896,vts_reward_expectancy_bt_OFFLINE,2022.2.4,60.082920153211575,
0,1,0,0,0,0,1,0,circle,hexagon,0,0,0,0,0,0,0,4,,,,,,,,,,,,,,,,,,,,,,,,,,,,,,,,,,,,,,,,619.0095668798313,619.0095668798313,619.0095668798313,619.0095668798313,619.0095668798313,619.0095668798313,619.0095668798313,619.0095668798313,619.0095668798313,619.0095668798313,l,4.135432897135615,10,10,0,623.163756307913,624.665032717865,624.665032717865,,,,,,,,,,,,,,,,,,,,,,,,,,,,,,,,,,,,,,,,,,,,,,,,,,,,,,,,,,,,,,,,,,63591,2022-11-17_11h26.51.896,vts_reward_expectancy_bt_OFFLINE,2022.2.4,60.082920153211575,
0,0,1,0,0,0,0,1,hexagon,star,0,0,0,0,0,1,1,8,,,,,,,,,,,,,,,,,,,,,,,,,,,,,,,,,,,,,,,,625.165662733838,625.165662733838,625.165662733838,625.165662733838,625.165662733838,625.165662733838,625.165662733838,625.165662733838,625.165662733838,625.165662733838,a,1.4887123741209507,10,20,0,626.6839182218537,,628.1857731398195,,,,,,,,,,,,,,,,,,,,,,,,,,,,,,,,,,,,,,,,,,,,,,,,,,,,,,,,,,,,,,,,,,63591,2022-11-17_11h26.51.896,vts_reward_expectancy_bt_OFFLINE,2022.2.4,60.082920153211575,
0,0,0,1,0,1,0,0,star ,circle,0,0,0,0,0,2,2,10,,,,,,,,,,,,,,,,,,,,,,,,,,,,,,,,,,,,,,,,628.6863204529509,628.6863204529509,628.6863204529509,628.6863204529509,628.6863204529509,628.6863204529509,628.6863204529509,628.6863204529509,628.6863204529509,628.6863204529509,a,2.2768424621317536,10,30,0,630.9886916799005,,632.4903759718873,,,,,,,,,,,,,,,,,,,,,,,,,,,,,,,,,,,,,,,,,,,,,,,,,,,,,,,,,,,,,,,,,,63591,2022-11-17_11h26.51.896,vts_reward_expectancy_bt_OFFLINE,2022.2.4,60.082920153211575,
0,1,0,0,1,0,0,0,circle,triangle,0,0,0,0,0,3,3,3,,,,,,,,,,,,,,,,,,,,,,,,,,,,,,,,,,,,,,,,632.9909278149717,632.9909278149717,632.9909278149717,632.9909278149717,632.9909278149717,632.9909278149717,632.9909278149717,632.9909278149717,632.9909278149717,632.9909278149717,l,2.9561566901393235,1,31,0,635.9777403688058,,637.4791626879014,,,,,,,,,,,,,,,,,,,,,,,,,,,,,,,,,,,,,,,,,,,,,,,,,,,,,,,,,,,,,,,,,,63591,2022-11-17_11h26.51.896,vts_reward_expectancy_bt_OFFLINE,2022.2.4,60.082920153211575,
1,0,0,0,0,0,0,1,triangle,star,0,0,0,0,0,4,4,2,,,,,,,,,,,,,,,,,,,,,,,,,,,,,,,,,,,,,,,,637.979693222791,637.979693222791,637.979693222791,637.979693222791,637.979693222791,637.979693222791,637.979693222791,637.979693222791,637.979693222791,637.979693222791,l,1.7364137682598084,1,32,0,639.7482208979782,,641.249995898921,,,,,,,,,,,,,,,,,,,,,,,,,,,,,,,,,,,,,,,,,,,,,,,,,,,,,,,,,,,,,,,,,,63591,2022-11-17_11h26.51.896,vts_reward_expectancy_bt_OFFLINE,2022.2.4,60.082920153211575,
0,0,0,1,1,0,0,0,star,triangle,0,0,0,0,0,5,5,9,,,,,,,,,,,,,,,,,,,,,,,,,,,,,,,,,,,,,,,,641.7507302889135,641.7507302889135,641.7507302889135,641.7507302889135,641.7507302889135,641.7507302889135,641.7507302889135,641.7507302889135,641.7507302889135,641.7507302889135,a,1.3295320451725274,1,33,0,643.1021338598803,,644.6038258778863,,,,,,,,,,,,,,,,,,,,,,,,,,,,,,,,,,,,,,,,,,,,,,,,,,,,,,,,,,,,,,,,,,63591,2022-11-17_11h26.51.896,vts_reward_expectancy_bt_OFFLINE,2022.2.4,60.082920153211575,
0,0,1,0,1,0,0,0,hexagon,triangle,0,0,0,0,0,6,6,6,,,,,,,,,,,,,,,,,,,,,,,,,,,,,,,,,,,,,,,,645.1042155688629,645.1042155688629,645.1042155688629,645.1042155688629,645.1042155688629,645.1042155688629,645.1042155688629,645.1042155688629,645.1042155688629,645.1042155688629,a,1.0031850771047175,10,43,0,646.1388718439266,,647.6407003488857,,,,,,,,,,,,,,,,,,,,,,,,,,,,,,,,,,,,,,,,,,,,,,,,,,,,,,,,,,,,,,,,,,63591,2022-11-17_11h26.51.896,vts_reward_expectancy_bt_OFFLINE,2022.2.4,60.082920153211575,
1,0,0,0,0,0,1,0,triangle,hexagon,0,0,0,0,0,7,7,1,,,,,,,,,,,,,,,,,,,,,,,,,,,,,,,,,,,,,,,,648.1410254079383,648.1410254079383,648.1410254079383,648.1410254079383,648.1410254079383,648.1410254079383,648.1410254079383,648.1410254079383,648.1410254079383,648.1410254079383,l,1.059702327242121,10,53,0,649.225502952002,,650.7272805399261,,,,,,,,,,,,,,,,,,,,,,,,,,,,,,,,,,,,,,,,,,,,,,,,,,,,,,,,,,,,,,,,,,63591,2022-11-17_11h26.51.896,vts_reward_expectancy_bt_OFFLINE,2022.2.4,60.082920153211575,
0,0,0,1,0,0,1,0,star,hexagon,0,0,0,0,0,8,8,11,,,,,,,,,,,,,,,,,,,,,,,,,,,,,,,,,,,,,,,,651.2276560049504,651.2276560049504,651.2276560049504,651.2276560049504,651.2276560049504,651.2276560049504,651.2276560049504,651.2276560049504,651.2276560049504,651.2276560049504,a,1.5525268851779401,1,54,0,652.812919748947,,654.3144345039036,,,,,,,,,,,,,,,,,,,,,,,,,,,,,,,,,,,,,,,,,,,,,,,,,,,,,,,,,,,,,,,,,,63591,2022-11-17_11h26.51.896,vts_reward_expectancy_bt_OFFLINE,2022.2.4,60.082920153211575,
0,1,0,0,0,0,0,1,circle,star,0,0,0,0,0,9,9,5,,,,,,,,,,,,,,,,,,,,,,,,,,,,,,,,,,,,,,,,654.81527632894,654.81527632894,654.81527632894,654.81527632894,654.81527632894,654.81527632894,654.81527632894,654.81527632894,654.81527632894,654.81527632894,a,1.3180990151595324,1,55,0,656.1498207268305,657.651448833989,657.651448833989,,,,,,,,,,,,,,,,,,,,,,,,,,,,,,,,,,,,,,,,,,,,,,,,,,,,,,,,,,,,,,,,,,63591,2022-11-17_11h26.51.896,vts_reward_expectancy_bt_OFFLINE,2022.2.4,60.082920153211575,
0,0,1,0,0,1,0,0,hexagon,circle,0,0,0,0,0,10,10,7,,,,,,,,,,,,,,,,,,,,,,,,,,,,,,,,,,,,,,,,658.152187513886,658.152187513886,658.152187513886,658.152187513886,658.152187513886,658.152187513886,658.152187513886,658.152187513886,658.152187513886,658.152187513886,a,1.1754682371392846,10,65,0,659.3533340590075,,660.8551817277912,,,,,,,,,,,,,,,,,,,,,,,,,,,,,,,,,,,,,,,,,,,,,,,,,,,,,,,,,,,,,,,,,,63591,2022-11-17_11h26.51.896,vts_reward_expectancy_bt_OFFLINE,2022.2.4,60.082920153211575,
1,0,0,0,0,1,0,0,triangle,circle,0,0,0,0,0,11,11,0,,,,,,,,,,,,,,,,,,,,,,,,,,,,,,,,,,,,,,,,661.3555062538944,661.3555062538944,661.3555062538944,661.3555062538944,661.3555062538944,661.3555062538944,661.3555062538944,661.3555062538944,661.3555062538944,661.3555062538944,l,1.5378612731583416,10,75,0,662.9238385038916,,664.425653261831,,,,,,,,,,,,,,,,,,,,,,,,,,,,,,,,,,,,,,,,,,,,,,,,,,,,,,,,,,,,,,,,,,63591,2022-11-17_11h26.51.896,vts_reward_expectancy_bt_OFFLINE,2022.2.4,60.082920153211575,
0,1,0,0,1,0,0,0,circle,triangle,0,0,0,0,1,0,12,3,,,,,,,,,,,,,,,,,,,,,,,,,,,,,,,,,,,,,,,,664.9260131928604,664.9260131928604,664.9260131928604,664.9260131928604,664.9260131928604,664.9260131928604,664.9260131928604,664.9260131928604,664.9260131928604,664.9260131928604,l,1.2859030549880117,10,85,0,666.2441588598303,,667.7458435939625,,,,,,,,,,,,,,,,,,,,,,,,,,,,,,,,,,,,,,,,,,,,,,,,,,,,,,,,,,,,,,,,,,63591,2022-11-17_11h26.51.896,vts_reward_expectancy_bt_OFFLINE,2022.2.4,60.082920153211575,
0,0,0,1,0,0,1,0,star,hexagon,0,0,0,0,1,1,13,11,,,,,,,,,,,,,,,,,,,,,,,,,,,,,,,,,,,,,,,,668.2464023169596,668.2464023169596,668.2464023169596,668.2464023169596,668.2464023169596,668.2464023169596,668.2464023169596,668.2464023169596,668.2464023169596,668.2464023169596,l,1.780432510189712,10,95,0,670.0485787929501,,671.5500473328866,,,,,,,,,,,,,,,,,,,,,,,,,,,,,,,,,,,,,,,,,,,,,,,,,,,,,,,,,,,,,,,,,,63591,2022-11-17_11h26.51.896,vts_reward_expectancy_bt_OFFLINE,2022.2.4,60.082920153211575,
0,1,0,0,0,0,1,0,circle,hexagon,0,0,0,0,1,2,14,4,,,,,,,,,,,,,,,,,,,,,,,,,,,,,,,,,,,,,,,,672.0506580069195,672.0506580069195,672.0506580069195,672.0506580069195,672.0506580069195,672.0506580069195,672.0506580069195,672.0506580069195,672.0506580069195,672.0506580069195,l,1.3966727962251753,10,105,0,673.4689665688202,,674.9704718748108,,,,,,,,,,,,,,,,,,,,,,,,,,,,,,,,,,,,,,,,,,,,,,,,,,,,,,,,,,,,,,,,,,63591,2022-11-17_11h26.51.896,vts_reward_expectancy_bt_OFFLINE,2022.2.4,60.082920153211575,
0,1,0,0,0,0,0,1,circle,star,0,0,0,0,1,3,15,5,,,,,,,,,,,,,,,,,,,,,,,,,,,,,,,,,,,,,,,,675.4710784947965,675.4710784947965,675.4710784947965,675.4710784947965,675.4710784947965,675.4710784947965,675.4710784947965,675.4710784947965,675.4710784947965,675.4710784947965,a,1.8124160091392696,10,115,0,677.3063676420134,,678.8081027928274,,,,,,,,,,,,,,,,,,,,,,,,,,,,,,,,,,,,,,,,,,,,,,,,,,,,,,,,,,,,,,,,,,63591,2022-11-17_11h26.51.896,vts_reward_expectancy_bt_OFFLINE,2022.2.4,60.082920153211575,
1,0,0,0,0,1,0,0,triangle,circle,0,0,0,0,1,4,16,0,,,,,,,,,,,,,,,,,,,,,,,,,,,,,,,,,,,,,,,,679.3087972239591,679.3087972239591,679.3087972239591,679.3087972239591,679.3087972239591,679.3087972239591,679.3087972239591,679.3087972239591,679.3087972239591,679.3087972239591,l,1.992037270218134,10,125,0,681.3277319029439,,682.8293251339346,,,,,,,,,,,,,,,,,,,,,,,,,,,,,,,,,,,,,,,,,,,,,,,,,,,,,,,,,,,,,,,,,,63591,2022-11-17_11h26.51.896,vts_reward_expectancy_bt_OFFLINE,2022.2.4,60.082920153211575,
1,0,0,0,0,0,1,0,triangle,hexagon,0,0,0,0,1,5,17,1,,,,,,,,,,,,,,,,,,,,,,,,,,,,,,,,,,,,,,,,683.3298874178436,683.3298874178436,683.3298874178436,683.3298874178436,683.3298874178436,683.3298874178436,683.3298874178436,683.3298874178436,683.3298874178436,683.3298874178436,l,1.3016797602176666,10,135,0,684.6479198839515,686.1497804969549,686.1497804969549,,,,,,,,,,,,,,,,,,,,,,,,,,,,,,,,,,,,,,,,,,,,,,,,,,,,,,,,,,,,,,,,,,63591,2022-11-17_11h26.51.896,vts_reward_expectancy_bt_OFFLINE,2022.2.4,60.082920153211575,
0,0,1,0,0,0,0,1,hexagon,star,0,0,0,0,1,6,18,8,,,,,,,,,,,,,,,,,,,,,,,,,,,,,,,,,,,,,,,,686.650272401981,686.650272401981,686.650272401981,686.650272401981,686.650272401981,686.650272401981,686.650272401981,686.650272401981,686.650272401981,686.650272401981,a,0.871288632042706,10,145,0,687.5512896769214,,689.0527607728727,,,,,,,,,,,,,,,,,,,,,,,,,,,,,,,,,,,,,,,,,,,,,,,,,,,,,,,,,,,,,,,,,,63591,2022-11-17_11h26.51.896,vts_reward_expectancy_bt_OFFLINE,2022.2.4,60.082920153211575,
1,0,0,0,0,0,0,1,triangle,star,0,0,0,0,1,7,19,2,,,,,,,,,,,,,,,,,,,,,,,,,,,,,,,,,,,,,,,,689.5535162938759,689.5535162938759,689.5535162938759,689.5535162938759,689.5535162938759,689.5535162938759,689.5535162938759,689.5535162938759,689.5535162938759,689.5535162938759,a,1.4553101351484656,1,146,0,691.0382566698827,,692.5400692929979,,,,,,,,,,,,,,,,,,,,,,,,,,,,,,,,,,,,,,,,,,,,,,,,,,,,,,,,,,,,,,,,,,63591,2022-11-17_11h26.51.896,vts_reward_expectancy_bt_OFFLINE,2022.2.4,60.082920153211575,
0,0,0,1,0,1,0,0,star ,circle,0,0,0,0,1,8,20,10,,,,,,,,,,,,,,,,,,,,,,,,,,,,,,,,,,,,,,,,693.0406184718013,693.0406184718013,693.0406184718013,693.0406184718013,693.0406184718013,693.0406184718013,693.0406184718013,693.0406184718013,693.0406184718013,693.0406184718013,a,0.9276199650485069,1,147,0,693.9914948937949,,695.4931591979694,,,,,,,,,,,,,,,,,,,,,,,,,,,,,,,,,,,,,,,,,,,,,,,,,,,,,,,,,,,,,,,,,,63591,2022-11-17_11h26.51.896,vts_reward_expectancy_bt_OFFLINE,2022.2.4,60.082920153211575,
0,0,0,1,1,0,0,0,star,triangle,0,0,0,0,1,9,21,9,,,,,,,,,,,,,,,,,,,,,,,,,,,,,,,,,,,,,,,,695.9939871849492,695.9939871849492,695.9939871849492,695.9939871849492,695.9939871849492,695.9939871849492,695.9939871849492,695.9939871849492,695.9939871849492,695.9939871849492,a,1.619463900104165,1,148,0,697.6455980539322,,699.1474752270151,,,,,,,,,,,,,,,,,,,,,,,,,,,,,,,,,,,,,,,,,,,,,,,,,,,,,,,,,,,,,,,,,,63591,2022-11-17_11h26.51.896,vts_reward_expectancy_bt_OFFLINE,2022.2.4,60.082920153211575,
0,0,1,0,0,1,0,0,hexagon,circle,0,0,0,0,1,10,22,7,,,,,,,,,,,,,,,,,,,,,,,,,,,,,,,,,,,,,,,,699.647911202861,699.647911202861,699.647911202861,699.647911202861,699.647911202861,699.647911202861,699.647911202861,699.647911202861,699.647911202861,699.647911202861,l,0.7446647682227194,10,158,0,700.4153500997927,,701.9169356648345,,,,,,,,,,,,,,,,,,,,,,,,,,,,,,,,,,,,,,,,,,,,,,,,,,,,,,,,,,,,,,,,,,63591,2022-11-17_11h26.51.896,vts_reward_expectancy_bt_OFFLINE,2022.2.4,60.082920153211575,
0,0,1,0,1,0,0,0,hexagon,triangle,0,0,0,0,1,11,23,6,,,,,,,,,,,,,,,,,,,,,,,,,,,,,,,,,,,,,,,,702.4175850879401,702.4175850879401,702.4175850879401,702.4175850879401,702.4175850879401,702.4175850879401,702.4175850879401,702.4175850879401,702.4175850879401,702.4175850879401,a,0.6414940643589944,10,168,0,703.0849103289656,,704.5866151379887,,,,,,,,,,,,,,,,,,,,,,,,,,,,,,,,,,,,,,,,,,,,,,,,,,,,,,,,,,,,,,,,,,63591,2022-11-17_11h26.51.896,vts_reward_expectancy_bt_OFFLINE,2022.2.4,60.082920153211575,
1,0,0,0,0,0,0,1,triangle,star,0,0,0,0,2,0,24,2,,,,,,,,,,,,,,,,,,,,,,,,,,,,,,,,,,,,,,,,705.0871656029485,705.0871656029485,705.0871656029485,705.0871656029485,705.0871656029485,705.0871656029485,705.0871656029485,705.0871656029485,705.0871656029485,705.0871656029485,l,2.539258202072233,1,169,0,707.6568351020105,,709.158268277999,,,,,,,,,,,,,,,,,,,,,,,,,,,,,,,,,,,,,,,,,,,,,,,,,,,,,,,,,,,,,,,,,,63591,2022-11-17_11h26.51.896,vts_reward_expectancy_bt_OFFLINE,2022.2.4,60.082920153211575,
0,0,1,0,0,0,0,1,hexagon,star,0,0,0,0,2,1,25,8,,,,,,,,,,,,,,,,,,,,,,,,,,,,,,,,,,,,,,,,709.6587523419876,709.6587523419876,709.6587523419876,709.6587523419876,709.6587523419876,709.6587523419876,709.6587523419876,709.6587523419876,709.6587523419876,709.6587523419876,a,0.7815781161189079,10,179,0,710.4596394798718,,711.9614083729684,,,,,,,,,,,,,,,,,,,,,,,,,,,,,,,,,,,,,,,,,,,,,,,,,,,,,,,,,,,,,,,,,,63591,2022-11-17_11h26.51.896,vts_reward_expectancy_bt_OFFLINE,2022.2.4,60.082920153211575,
0,1,0,0,1,0,0,0,circle,triangle,0,0,0,0,2,2,26,3,,,,,,,,,,,,,,,,,,,,,,,,,,,,,,,,,,,,,,,,712.4620190968271,712.4620190968271,712.4620190968271,712.4620190968271,712.4620190968271,712.4620190968271,712.4620190968271,712.4620190968271,712.4620190968271,712.4620190968271,a,1.4999424242414534,10,189,0,713.9804392748047,,715.4821040898096,,,,,,,,,,,,,,,,,,,,,,,,,,,,,,,,,,,,,,,,,,,,,,,,,,,,,,,,,,,,,,,,,,63591,2022-11-17_11h26.51.896,vts_reward_expectancy_bt_OFFLINE,2022.2.4,60.082920153211575,
1,0,0,0,0,1,0,0,triangle,circle,0,0,0,0,2,3,27,0,,,,,,,,,,,,,,,,,,,,,,,,,,,,,,,,,,,,,,,,715.9824778088368,715.9824778088368,715.9824778088368,715.9824778088368,715.9824778088368,715.9824778088368,715.9824778088368,715.9824778088368,715.9824778088368,715.9824778088368,l,2.9532246361486614,10,199,0,718.9524302550126,720.4540306448471,720.4540306448471,,,,,,,,,,,,,,,,,,,,,,,,,,,,,,,,,,,,,,,,,,,,,,,,,,,,,,,,,,,,,,,,,,63591,2022-11-17_11h26.51.896,vts_reward_expectancy_bt_OFFLINE,2022.2.4,60.082920153211575,
0,1,0,0,0,0,1,0,circle,hexagon,0,0,0,0,2,4,28,4,,,,,,,,,,,,,,,,,,,,,,,,,,,,,,,,,,,,,,,,720.9547510219272,720.9547510219272,720.9547510219272,720.9547510219272,720.9547510219272,720.9547510219272,720.9547510219272,720.9547510219272,720.9547510219272,720.9547510219272,l,1.1081155491992831,10,209,0,722.0892818539869,,723.5909255489241,,,,,,,,,,,,,,,,,,,,,,,,,,,,,,,,,,,,,,,,,,,,,,,,,,,,,,,,,,,,,,,,,,63591,2022-11-17_11h26.51.896,vts_reward_expectancy_bt_OFFLINE,2022.2.4,60.082920153211575,
0,1,0,0,0,0,0,1,circle,star,0,0,0,0,2,5,29,5,,,,,,,,,,,,,,,,,,,,,,,,,,,,,,,,,,,,,,,,724.0914178779349,724.0914178779349,724.0914178779349,724.0914178779349,724.0914178779349,724.0914178779349,724.0914178779349,724.0914178779349,724.0914178779349,724.0914178779349,a,1.0083554221782833,1,210,0,725.1258776998147,,726.6276269068476,,,,,,,,,,,,,,,,,,,,,,,,,,,,,,,,,,,,,,,,,,,,,,,,,,,,,,,,,,,,,,,,,,63591,2022-11-17_11h26.51.896,vts_reward_expectancy_bt_OFFLINE,2022.2.4,60.082920153211575,
0,0,0,1,1,0,0,0,star,triangle,0,0,0,0,2,6,30,9,,,,,,,,,,,,,,,,,,,,,,,,,,,,,,,,,,,,,,,,727.1280686028767,727.1280686028767,727.1280686028767,727.1280686028767,727.1280686028767,727.1280686028767,727.1280686028767,727.1280686028767,727.1280686028767,727.1280686028767,l,1.1547999121248722,1,211,0,728.3129207929596,,729.81457632198,,,,,,,,,,,,,,,,,,,,,,,,,,,,,,,,,,,,,,,,,,,,,,,,,,,,,,,,,,,,,,,,,,63591,2022-11-17_11h26.51.896,vts_reward_expectancy_bt_OFFLINE,2022.2.4,60.082920153211575,
0,0,0,1,0,0,1,0,star,hexagon,0,0,0,0,2,7,31,11,,,,,,,,,,,,,,,,,,,,,,,,,,,,,,,,,,,,,,,,730.3149416749366,730.3149416749366,730.3149416749366,730.3149416749366,730.3149416749366,730.3149416749366,730.3149416749366,730.3149416749366,730.3149416749366,730.3149416749366,a,0.8602465949952602,1,212,0,731.1994411780033,,732.7010619789362,,,,,,,,,,,,,,,,,,,,,,,,,,,,,,,,,,,,,,,,,,,,,,,,,,,,,,,,,,,,,,,,,,63591,2022-11-17_11h26.51.896,vts_reward_expectancy_bt_OFFLINE,2022.2.4,60.082920153211575,
0,0,1,0,1,0,0,0,hexagon,triangle,0,0,0,0,2,8,32,6,,,,,,,,,,,,,,,,,,,,,,,,,,,,,,,,,,,,,,,,733.2014754628763,733.2014754628763,733.2014754628763,733.2014754628763,733.2014754628763,733.2014754628763,733.2014754628763,733.2014754628763,733.2014754628763,733.2014754628763,a,0.7752929301932454,10,222,0,734.0023049688898,,735.5039202529006,,,,,,,,,,,,,,,,,,,,,,,,,,,,,,,,,,,,,,,,,,,,,,,,,,,,,,,,,,,,,,,,,,63591,2022-11-17_11h26.51.896,vts_reward_expectancy_bt_OFFLINE,2022.2.4,60.082920153211575,
0,0,0,1,0,1,0,0,star ,circle,0,0,0,0,2,9,33,10,,,,,,,,,,,,,,,,,,,,,,,,,,,,,,,,,,,,,,,,736.0047342369799,736.0047342369799,736.0047342369799,736.0047342369799,736.0047342369799,736.0047342369799,736.0047342369799,736.0047342369799,736.0047342369799,736.0047342369799,l,1.1443566412199289,10,232,0,737.1725876377895,,738.6742887150031,,,,,,,,,,,,,,,,,,,,,,,,,,,,,,,,,,,,,,,,,,,,,,,,,,,,,,,,,,,,,,,,,,63591,2022-11-17_11h26.51.896,vts_reward_expectancy_bt_OFFLINE,2022.2.4,60.082920153211575,
1,0,0,0,0,0,1,0,triangle,hexagon,0,0,0,0,2,10,34,1,,,,,,,,,,,,,,,,,,,,,,,,,,,,,,,,,,,,,,,,739.1747714118101,739.1747714118101,739.1747714118101,739.1747714118101,739.1747714118101,739.1747714118101,739.1747714118101,739.1747714118101,739.1747714118101,739.1747714118101,l,0.8761777030304074,1,233,0,740.0758775018621,,741.5775708849542,,,,,,,,,,,,,,,,,,,,,,,,,,,,,,,,,,,,,,,,,,,,,,,,,,,,,,,,,,,,,,,,,,63591,2022-11-17_11h26.51.896,vts_reward_expectancy_bt_OFFLINE,2022.2.4,60.082920153211575,
0,0,1,0,0,1,0,0,hexagon,circle,0,0,0,0,2,11,35,7,,,,,,,,,,,,,,,,,,,,,,,,,,,,,,,,,,,,,,,,742.0778587199748,742.0778587199748,742.0778587199748,742.0778587199748,742.0778587199748,742.0778587199748,742.0778587199748,742.0778587199748,742.0778587199748,742.0778587199748,a,0.7752701591234654,1,234,0,742.8786667129025,,744.3802938098088,,,,,,,,,,,,,,,,,,,,,,,,,,,,,,,,,,,,,,,,,,,,,,,,,,,,,,,,,,,,,,,,,,63591,2022-11-17_11h26.51.896,vts_reward_expectancy_bt_OFFLINE,2022.2.4,60.082920153211575,
1,0,0,0,0,0,0,1,triangle,star,0,0,0,0,3,0,36,2,,,,,,,,,,,,,,,,,,,,,,,,,,,,,,,,,,,,,,,,744.8811282250099,744.8811282250099,744.8811282250099,744.8811282250099,744.8811282250099,744.8811282250099,744.8811282250099,744.8811282250099,744.8811282250099,744.8811282250099,a,1.4145628670230508,10,244,0,746.316038778983,,747.8177149838302,,,,,,,,,,,,,,,,,,,,,,,,,,,,,,,,,,,,,,,,,,,,,,,,,,,,,,,,,,,,,,,,,,63591,2022-11-17_11h26.51.896,vts_reward_expectancy_bt_OFFLINE,2022.2.4,60.082920153211575,
1,0,0,0,0,1,0,0,triangle,circle,0,0,0,0,3,1,37,0,,,,,,,,,,,,,,,,,,,,,,,,,,,,,,,,,,,,,,,,748.3182178619318,748.3182178619318,748.3182178619318,748.3182178619318,748.3182178619318,748.3182178619318,748.3182178619318,748.3182178619318,748.3182178619318,748.3182178619318,l,0.9148706591222435,10,254,0,749.2527677197941,,750.7544295690022,,,,,,,,,,,,,,,,,,,,,,,,,,,,,,,,,,,,,,,,,,,,,,,,,,,,,,,,,,,,,,,,,,63591,2022-11-17_11h26.51.896,vts_reward_expectancy_bt_OFFLINE,2022.2.4,60.082920153211575,
0,1,0,0,0,0,0,1,circle,star,0,0,0,0,3,2,38,5,,,,,,,,,,,,,,,,,,,,,,,,,,,,,,,,,,,,,,,,751.2549762499984,751.2549762499984,751.2549762499984,751.2549762499984,751.2549762499984,751.2549762499984,751.2549762499984,751.2549762499984,751.2549762499984,751.2549762499984,a,1.094165074173361,10,264,0,752.3728372298647,753.8741436889395,753.8741436889395,,,,,,,,,,,,,,,,,,,,,,,,,,,,,,,,,,,,,,,,,,,,,,,,,,,,,,,,,,,,,,,,,,63591,2022-11-17_11h26.51.896,vts_reward_expectancy_bt_OFFLINE,2022.2.4,60.082920153211575,
0,1,0,0,1,0,0,0,circle,triangle,0,0,0,0,3,3,39,3,,,,,,,,,,,,,,,,,,,,,,,,,,,,,,,,,,,,,,,,754.3749892020132,754.3749892020132,754.3749892020132,754.3749892020132,754.3749892020132,754.3749892020132,754.3749892020132,754.3749892020132,754.3749892020132,754.3749892020132,a,1.2696998121682554,10,274,0,755.6761207119562,,757.1778421818744,,,,,,,,,,,,,,,,,,,,,,,,,,,,,,,,,,,,,,,,,,,,,,,,,,,,,,,,,,,,,,,,,,63591,2022-11-17_11h26.51.896,vts_reward_expectancy_bt_OFFLINE,2022.2.4,60.082920153211575,
1,0,0,0,0,0,1,0,triangle,hexagon,0,0,0,0,3,4,40,1,,,,,,,,,,,,,,,,,,,,,,,,,,,,,,,,,,,,,,,,757.67844899185,757.67844899185,757.67844899185,757.67844899185,757.67844899185,757.67844899185,757.67844899185,757.67844899185,757.67844899185,757.67844899185,a,0.8473270460963249,10,284,0,758.5461370318662,,760.0479084649123,,,,,,,,,,,,,,,,,,,,,,,,,,,,,,,,,,,,,,,,,,,,,,,,,,,,,,,,,,,,,,,,,,63591,2022-11-17_11h26.51.896,vts_reward_expectancy_bt_OFFLINE,2022.2.4,60.082920153211575,
0,1,0,0,0,0,1,0,circle,hexagon,0,0,0,0,3,5,41,4,,,,,,,,,,,,,,,,,,,,,,,,,,,,,,,,,,,,,,,,760.548376748804,760.548376748804,760.548376748804,760.548376748804,760.548376748804,760.548376748804,760.548376748804,760.548376748804,760.548376748804,760.548376748804,a,0.9020447190850973,10,294,0,761.4828142088372,,762.9844450878445,,,,,,,,,,,,,,,,,,,,,,,,,,,,,,,,,,,,,,,,,,,,,,,,,,,,,,,,,,,,,,,,,,63591,2022-11-17_11h26.51.896,vts_reward_expectancy_bt_OFFLINE,2022.2.4,60.082920153211575,
0,0,0,1,0,1,0,0,star ,circle,0,0,0,0,3,6,42,10,,,,,,,,,,,,,,,,,,,,,,,,,,,,,,,,,,,,,,,,763.4848366340157,763.4848366340157,763.4848366340157,763.4848366340157,763.4848366340157,763.4848366340157,763.4848366340157,763.4848366340157,763.4848366340157,763.4848366340157,l,1.218751862179488,10,304,0,764.7362633619923,,766.2378885878716,,,,,,,,,,,,,,,,,,,,,,,,,,,,,,,,,,,,,,,,,,,,,,,,,,,,,,,,,,,,,,,,,,63591,2022-11-17_11h26.51.896,vts_reward_expectancy_bt_OFFLINE,2022.2.4,60.082920153211575,
0,0,1,0,0,1,0,0,hexagon,circle,0,0,0,0,3,7,43,7,,,,,,,,,,,,,,,,,,,,,,,,,,,,,,,,,,,,,,,,766.7384028628003,766.7384028628003,766.7384028628003,766.7384028628003,766.7384028628003,766.7384028628003,766.7384028628003,766.7384028628003,766.7384028628003,766.7384028628003,l,0.9226591400802135,10,314,0,767.6895896138158,,769.1912371749058,,,,,,,,,,,,,,,,,,,,,,,,,,,,,,,,,,,,,,,,,,,,,,,,,,,,,,,,,,,,,,,,,,63591,2022-11-17_11h26.51.896,vts_reward_expectancy_bt_OFFLINE,2022.2.4,60.082920153211575,
0,0,1,0,1,0,0,0,hexagon,triangle,0,0,0,0,3,8,44,6,,,,,,,,,,,,,,,,,,,,,,,,,,,,,,,,,,,,,,,,769.6919184778817,769.6919184778817,769.6919184778817,769.6919184778817,769.6919184778817,769.6919184778817,769.6919184778817,769.6919184778817,769.6919184778817,769.6919184778817,l,0.8937863891478628,1,315,0,770.6095014298335,,772.1110319998115,,,,,,,,,,,,,,,,,,,,,,,,,,,,,,,,,,,,,,,,,,,,,,,,,,,,,,,,,,,,,,,,,,63591,2022-11-17_11h26.51.896,vts_reward_expectancy_bt_OFFLINE,2022.2.4,60.082920153211575,
0,0,0,1,1,0,0,0,star,triangle,0,0,0,0,3,9,45,9,,,,,,,,,,,,,,,,,,,,,,,,,,,,,,,,,,,,,,,,772.611539572943,772.611539572943,772.611539572943,772.611539572943,772.611539572943,772.611539572943,772.611539572943,772.611539572943,772.611539572943,772.611539572943,a,2.0030174462590367,1,316,0,774.6472410669085,,776.1491092599463,,,,,,,,,,,,,,,,,,,,,,,,,,,,,,,,,,,,,,,,,,,,,,,,,,,,,,,,,,,,,,,,,,63591,2022-11-17_11h26.51.896,vts_reward_expectancy_bt_OFFLINE,2022.2.4,60.082920153211575,
0,0,1,0,0,0,0,1,hexagon,star,0,0,0,0,3,10,46,8,,,,,,,,,,,,,,,,,,,,,,,,,,,,,,,,,,,,,,,,776.6494996438269,776.6494996438269,776.6494996438269,776.6494996438269,776.6494996438269,776.6494996438269,776.6494996438269,776.6494996438269,776.6494996438269,776.6494996438269,l,1.0355542921461165,1,317,0,777.7172533529811,,779.2190502767917,,,,,,,,,,,,,,,,,,,,,,,,,,,,,,,,,,,,,,,,,,,,,,,,,,,,,,,,,,,,,,,,,,63591,2022-11-17_11h26.51.896,vts_reward_expectancy_bt_OFFLINE,2022.2.4,60.082920153211575,
0,0,0,1,0,0,1,0,star,hexagon,0,0,0,0,3,11,47,11,,,,,,,,,,,,,,,,,,,,,,,,,,,,,,,,,,,,,,,,779.7196139600128,779.7196139600128,779.7196139600128,779.7196139600128,779.7196139600128,779.7196139600128,779.7196139600128,779.7196139600128,779.7196139600128,779.7196139600128,l,0.8018343402072787,10,327,0,780.553720281925,,782.0554909838829,,,,,,,,,,,,,,,,,,,,,,,,,,,,,,,,,,,,,,,,,,,,,,,,,,,,,,,,,,,,,,,,,,63591,2022-11-17_11h26.51.896,vts_reward_expectancy_bt_OFFLINE,2022.2.4,60.082920153211575,
1,0,0,0,0,1,0,0,triangle,circle,1,0,1,0,0,0,0,0,,,,,,,,,,,,,,,,,,,,,,,,,,,,,,,,,,,,,,,,793.3013559079263,793.3013559079263,793.3013559079263,793.3013559079263,793.3013559079263,793.3013559079263,793.3013559079263,793.3013559079263,793.3013559079263,793.3013559079263,l,4.792659095022827,10,337,1,798.1229518977925,799.6249584897887,799.6249584897887,,,,,,,,,,,,,,,,,,,,,,,,,,,,,,,,,,,,,,,,,,,,,,,,,,,,,,,,,,,,,,,,,,63591,2022-11-17_11h26.51.896,vts_reward_expectancy_bt_OFFLINE,2022.2.4,60.082920153211575,
0,0,1,0,0,0,0,1,hexagon,star,1,0,1,0,0,1,1,8,,,,,,,,,,,,,,,,,,,,,,,,,,,,,,,,,,,,,,,,800.1252097529359,800.1252097529359,800.1252097529359,800.1252097529359,800.1252097529359,800.1252097529359,800.1252097529359,800.1252097529359,800.1252097529359,800.1252097529359,a,1.142127353232354,1,338,1,801.2932024300098,,802.7948406278156,,,,,,,,,,,,,,,,,,,,,,,,,,,,,,,,,,,,,,,,,,,,,,,,,,,,,,,,,,,,,,,,,,63591,2022-11-17_11h26.51.896,vts_reward_expectancy_bt_OFFLINE,2022.2.4,60.082920153211575,
1,0,0,0,0,0,0,1,triangle,star,1,0,1,0,0,2,2,2,,,,,,,,,,,,,,,,,,,,,,,,,,,,,,,,,,,,,,,,803.2956373798661,803.2956373798661,803.2956373798661,803.2956373798661,803.2956373798661,803.2956373798661,803.2956373798661,803.2956373798661,803.2956373798661,803.2956373798661,l,0.9196426242124289,1,339,1,804.2464855418075,,805.7481457199901,,,,,,,,,,,,,,,,,,,,,,,,,,,,,,,,,,,,,,,,,,,,,,,,,,,,,,,,,,,,,,,,,,63591,2022-11-17_11h26.51.896,vts_reward_expectancy_bt_OFFLINE,2022.2.4,60.082920153211575,
0,0,0,1,1,0,0,0,star,triangle,1,0,1,0,0,3,3,9,,,,,,,,,,,,,,,,,,,,,,,,,,,,,,,,,,,,,,,,806.2487977140117,806.2487977140117,806.2487977140117,806.2487977140117,806.2487977140117,806.2487977140117,806.2487977140117,806.2487977140117,806.2487977140117,806.2487977140117,l,0.9481265761423856,10,349,1,807.2163297389634,,808.7181250688154,,,,,,,,,,,,,,,,,,,,,,,,,,,,,,,,,,,,,,,,,,,,,,,,,,,,,,,,,,,,,,,,,,63591,2022-11-17_11h26.51.896,vts_reward_expectancy_bt_OFFLINE,2022.2.4,60.082920153211575,
0,1,0,0,1,0,0,0,circle,triangle,1,0,1,0,0,4,4,3,,,,,,,,,,,,,,,,,,,,,,,,,,,,,,,,,,,,,,,,809.218893521931,809.218893521931,809.218893521931,809.218893521931,809.218893521931,809.218893521931,809.218893521931,809.218893521931,809.218893521931,809.218893521931,a,0.9136540712788701,1,350,1,810.1531994619872,,811.6549360519275,,,,,,,,,,,,,,,,,,,,,,,,,,,,,,,,,,,,,,,,,,,,,,,,,,,,,,,,,,,,,,,,,,63591,2022-11-17_11h26.51.896,vts_reward_expectancy_bt_OFFLINE,2022.2.4,60.082920153211575,
0,0,1,0,0,1,0,0,hexagon,circle,1,0,1,0,0,5,5,7,,,,,,,,,,,,,,,,,,,,,,,,,,,,,,,,,,,,,,,,812.1553920239676,812.1553920239676,812.1553920239676,812.1553920239676,812.1553920239676,812.1553920239676,812.1553920239676,812.1553920239676,812.1553920239676,812.1553920239676,a,1.2628162470646203,1,351,1,813.4399701368529,814.9415825039614,814.9415825039614,,,,,,,,,,,,,,,,,,,,,,,,,,,,,,,,,,,,,,,,,,,,,,,,,,,,,,,,,,,,,,,,,,63591,2022-11-17_11h26.51.896,vts_reward_expectancy_bt_OFFLINE,2022.2.4,60.082920153211575,
0,1,0,0,0,0,1,0,circle,hexagon,1,0,1,0,0,6,6,4,,,,,,,,,,,,,,,,,,,,,,,,,,,,,,,,,,,,,,,,815.4420653698035,815.4420653698035,815.4420653698035,815.4420653698035,815.4420653698035,815.4420653698035,815.4420653698035,815.4420653698035,815.4420653698035,815.4420653698035,a,1.5310910190455616,10,361,1,816.9939620927908,,818.4956517799292,,,,,,,,,,,,,,,,,,,,,,,,,,,,,,,,,,,,,,,,,,,,,,,,,,,,,,,,,,,,,,,,,,63591,2022-11-17_11h26.51.896,vts_reward_expectancy_bt_OFFLINE,2022.2.4,60.082920153211575,
0,0,0,1,0,0,1,0,star,hexagon,1,0,1,0,0,7,7,11,,,,,,,,,,,,,,,,,,,,,,,,,,,,,,,,,,,,,,,,818.9961116269697,818.9961116269697,818.9961116269697,818.9961116269697,818.9961116269697,818.9961116269697,818.9961116269697,818.9961116269697,818.9961116269697,818.9961116269697,l,3.782562242122367,10,371,1,822.8002790478058,,824.3019196789246,,,,,,,,,,,,,,,,,,,,,,,,,,,,,,,,,,,,,,,,,,,,,,,,,,,,,,,,,,,,,,,,,,63591,2022-11-17_11h26.51.896,vts_reward_expectancy_bt_OFFLINE,2022.2.4,60.082920153211575,
1,0,0,0,0,0,1,0,triangle,hexagon,1,0,1,0,0,8,8,1,,,,,,,,,,,,,,,,,,,,,,,,,,,,,,,,,,,,,,,,824.8025444319937,824.8025444319937,824.8025444319937,824.8025444319937,824.8025444319937,824.8025444319937,824.8025444319937,824.8025444319937,824.8025444319937,824.8025444319937,a,0.6335760692600161,1,372,1,825.4531115877908,,826.9547701778356,,,,,,,,,,,,,,,,,,,,,,,,,,,,,,,,,,,,,,,,,,,,,,,,,,,,,,,,,,,,,,,,,,63591,2022-11-17_11h26.51.896,vts_reward_expectancy_bt_OFFLINE,2022.2.4,60.082920153211575,
0,0,0,1,0,1,0,0,star ,circle,1,0,1,0,0,9,9,10,,,,,,,,,,,,,,,,,,,,,,,,,,,,,,,,,,,,,,,,827.4553886950016,827.4553886950016,827.4553886950016,827.4553886950016,827.4553886950016,827.4553886950016,827.4553886950016,827.4553886950016,827.4553886950016,827.4553886950016,l,1.3874573160428554,10,382,1,828.8737899628468,,830.3753823798615,,,,,,,,,,,,,,,,,,,,,,,,,,,,,,,,,,,,,,,,,,,,,,,,,,,,,,,,,,,,,,,,,,63591,2022-11-17_11h26.51.896,vts_reward_expectancy_bt_OFFLINE,2022.2.4,60.082920153211575,
0,0,1,0,1,0,0,0,hexagon,triangle,1,0,1,0,0,10,10,6,,,,,,,,,,,,,,,,,,,,,,,,,,,,,,,,,,,,,,,,830.875737949973,830.875737949973,830.875737949973,830.875737949973,830.875737949973,830.875737949973,830.875737949973,830.875737949973,830.875737949973,830.875737949973,a,0.9600304502528161,10,392,1,831.8602867489681,,833.3621254127938,,,,,,,,,,,,,,,,,,,,,,,,,,,,,,,,,,,,,,,,,,,,,,,,,,,,,,,,,,,,,,,,,,63591,2022-11-17_11h26.51.896,vts_reward_expectancy_bt_OFFLINE,2022.2.4,60.082920153211575,
0,1,0,0,0,0,0,1,circle,star,1,0,1,0,0,11,11,5,,,,,,,,,,,,,,,,,,,,,,,,,,,,,,,,,,,,,,,,833.862555451924,833.862555451924,833.862555451924,833.862555451924,833.862555451924,833.862555451924,833.862555451924,833.862555451924,833.862555451924,833.862555451924,a,4.892271088203415,10,402,1,838.7845891218167,,840.2864563418552,,,,,,,,,,,,,,,,,,,,,,,,,,,,,,,,,,,,,,,,,,,,,,,,,,,,,,,,,,,,,,,,,,63591,2022-11-17_11h26.51.896,vts_reward_expectancy_bt_OFFLINE,2022.2.4,60.082920153211575,
0,1,0,0,1,0,0,0,circle,triangle,1,0,1,0,1,0,12,3,,,,,,,,,,,,,,,,,,,,,,,,,,,,,,,,,,,,,,,,840.7868077468593,840.7868077468593,840.7868077468593,840.7868077468593,840.7868077468593,840.7868077468593,840.7868077468593,840.7868077468593,840.7868077468593,840.7868077468593,l,1.2872158442623913,1,403,1,842.1051259029191,,843.6067557579372,,,,,,,,,,,,,,,,,,,,,,,,,,,,,,,,,,,,,,,,,,,,,,,,,,,,,,,,,,,,,,,,,,63591,2022-11-17_11h26.51.896,vts_reward_expectancy_bt_OFFLINE,2022.2.4,60.082920153211575,
0,0,0,1,0,1,0,0,star ,circle,1,0,1,0,1,1,13,10,,,,,,,,,,,,,,,,,,,,,,,,,,,,,,,,,,,,,,,,844.107283344958,844.107283344958,844.107283344958,844.107283344958,844.107283344958,844.107283344958,844.107283344958,844.107283344958,844.107283344958,844.107283344958,l,0.779864787356928,10,413,1,844.908296411857,,846.4096699338406,,,,,,,,,,,,,,,,,,,,,,,,,,,,,,,,,,,,,,,,,,,,,,,,,,,,,,,,,,,,,,,,,,63591,2022-11-17_11h26.51.896,vts_reward_expectancy_bt_OFFLINE,2022.2.4,60.082920153211575,
0,1,0,0,0,0,0,1,circle,star,1,0,1,0,1,2,14,5,,,,,,,,,,,,,,,,,,,,,,,,,,,,,,,,,,,,,,,,846.910320936935,846.910320936935,846.910320936935,846.910320936935,846.910320936935,846.910320936935,846.910320936935,846.910320936935,846.910320936935,846.910320936935,a,0.8683902542106807,1,414,1,847.8114697949495,,849.31294905697,,,,,,,,,,,,,,,,,,,,,,,,,,,,,,,,,,,,,,,,,,,,,,,,,,,,,,,,,,,,,,,,,,63591,2022-11-17_11h26.51.896,vts_reward_expectancy_bt_OFFLINE,2022.2.4,60.082920153211575,
0,0,0,1,1,0,0,0,star,triangle,1,0,1,0,1,3,15,9,,,,,,,,,,,,,,,,,,,,,,,,,,,,,,,,,,,,,,,,849.8135851568077,849.8135851568077,849.8135851568077,849.8135851568077,849.8135851568077,849.8135851568077,849.8135851568077,849.8135851568077,849.8135851568077,849.8135851568077,a,3.6236352652776986,1,415,1,853.4675873399246,,854.9690304168034,,,,,,,,,,,,,,,,,,,,,,,,,,,,,,,,,,,,,,,,,,,,,,,,,,,,,,,,,,,,,,,,,,63591,2022-11-17_11h26.51.896,vts_reward_expectancy_bt_OFFLINE,2022.2.4,60.082920153211575,
1,0,0,0,0,0,1,0,triangle,hexagon,1,0,1,0,1,4,16,1,,,,,,,,,,,,,,,,,,,,,,,,,,,,,,,,,,,,,,,,855.4698230728973,855.4698230728973,855.4698230728973,855.4698230728973,855.4698230728973,855.4698230728973,855.4698230728973,855.4698230728973,855.4698230728973,855.4698230728973,a,0.5683416943065822,1,416,1,856.0702260539401,,857.5720090789255,,,,,,,,,,,,,,,,,,,,,,,,,,,,,,,,,,,,,,,,,,,,,,,,,,,,,,,,,,,,,,,,,,63591,2022-11-17_11h26.51.896,vts_reward_expectancy_bt_OFFLINE,2022.2.4,60.082920153211575,
0,0,1,0,0,1,0,0,hexagon,circle,1,0,1,0,1,5,17,7,,,,,,,,,,,,,,,,,,,,,,,,,,,,,,,,,,,,,,,,858.072478748858,858.072478748858,858.072478748858,858.072478748858,858.072478748858,858.072478748858,858.072478748858,858.072478748858,858.072478748858,858.072478748858,l,0.8098893063142896,10,426,1,858.9067978819367,,860.4083653998096,,,,,,,,,,,,,,,,,,,,,,,,,,,,,,,,,,,,,,,,,,,,,,,,,,,,,,,,,,,,,,,,,,63591,2022-11-17_11h26.51.896,vts_reward_expectancy_bt_OFFLINE,2022.2.4,60.082920153211575,
1,0,0,0,0,1,0,0,triangle,circle,1,0,1,0,1,6,18,0,,,,,,,,,,,,,,,,,,,,,,,,,,,,,,,,,,,,,,,,860.9092517429963,860.9092517429963,860.9092517429963,860.9092517429963,860.9092517429963,860.9092517429963,860.9092517429963,860.9092517429963,860.9092517429963,860.9092517429963,l,0.8763478160835803,1,427,1,861.8100807978772,,863.3119566419628,,,,,,,,,,,,,,,,,,,,,,,,,,,,,,,,,,,,,,,,,,,,,,,,,,,,,,,,,,,,,,,,,,63591,2022-11-17_11h26.51.896,vts_reward_expectancy_bt_OFFLINE,2022.2.4,60.082920153211575,
0,0,0,1,0,0,1,0,star,hexagon,1,0,1,0,1,7,19,11,,,,,,,,,,,,,,,,,,,,,,,,,,,,,,,,,,,,,,,,863.812162166927,863.812162166927,863.812162166927,863.812162166927,863.812162166927,863.812162166927,863.812162166927,863.812162166927,863.812162166927,863.812162166927,a,0.6744631910696626,1,428,1,864.5130812989082,,866.0147492529359,,,,,,,,,,,,,,,,,,,,,,,,,,,,,,,,,,,,,,,,,,,,,,,,,,,,,,,,,,,,,,,,,,63591,2022-11-17_11h26.51.896,vts_reward_expectancy_bt_OFFLINE,2022.2.4,60.082920153211575,
0,0,1,0,1,0,0,0,hexagon,triangle,1,0,1,0,1,8,20,6,,,,,,,,,,,,,,,,,,,,,,,,,,,,,,,,,,,,,,,,866.5152575748507,866.5152575748507,866.5152575748507,866.5152575748507,866.5152575748507,866.5152575748507,866.5152575748507,866.5152575748507,866.5152575748507,866.5152575748507,a,0.7385937392245978,10,438,1,867.2828150698915,,868.784413398942,,,,,,,,,,,,,,,,,,,,,,,,,,,,,,,,,,,,,,,,,,,,,,,,,,,,,,,,,,,,,,,,,,63591,2022-11-17_11h26.51.896,vts_reward_expectancy_bt_OFFLINE,2022.2.4,60.082920153211575,
1,0,0,0,0,0,0,1,triangle,star,1,0,1,0,1,9,21,2,,,,,,,,,,,,,,,,,,,,,,,,,,,,,,,,,,,,,,,,869.2850247467868,869.2850247467868,869.2850247467868,869.2850247467868,869.2850247467868,869.2850247467868,869.2850247467868,869.2850247467868,869.2850247467868,869.2850247467868,a,1.5689583369530737,1,439,1,870.8867230799515,,872.3883499589283,,,,,,,,,,,,,,,,,,,,,,,,,,,,,,,,,,,,,,,,,,,,,,,,,,,,,,,,,,,,,,,,,,63591,2022-11-17_11h26.51.896,vts_reward_expectancy_bt_OFFLINE,2022.2.4,60.082920153211575,
0,1,0,0,0,0,1,0,circle,hexagon,1,0,1,0,1,10,22,4,,,,,,,,,,,,,,,,,,,,,,,,,,,,,,,,,,,,,,,,872.8888836628757,872.8888836628757,872.8888836628757,872.8888836628757,872.8888836628757,872.8888836628757,872.8888836628757,872.8888836628757,872.8888836628757,872.8888836628757,l,1.0140695562586188,10,449,1,873.92345697782,875.4248963037971,875.4248963037971,,,,,,,,,,,,,,,,,,,,,,,,,,,,,,,,,,,,,,,,,,,,,,,,,,,,,,,,,,,,,,,,,,63591,2022-11-17_11h26.51.896,vts_reward_expectancy_bt_OFFLINE,2022.2.4,60.082920153211575,
0,0,1,0,0,0,0,1,hexagon,star,1,0,1,0,1,11,23,8,,,,,,,,,,,,,,,,,,,,,,,,,,,,,,,,,,,,,,,,875.9255379389506,875.9255379389506,875.9255379389506,875.9255379389506,875.9255379389506,875.9255379389506,875.9255379389506,875.9255379389506,875.9255379389506,875.9255379389506,a,0.756378703052178,10,459,1,876.7099409250077,,878.2113905898295,,,,,,,,,,,,,,,,,,,,,,,,,,,,,,,,,,,,,,,,,,,,,,,,,,,,,,,,,,,,,,,,,,63591,2022-11-17_11h26.51.896,vts_reward_expectancy_bt_OFFLINE,2022.2.4,60.082920153211575,
0,0,1,0,0,1,0,0,hexagon,circle,1,0,1,0,2,0,24,7,,,,,,,,,,,,,,,,,,,,,,,,,,,,,,,,,,,,,,,,878.7118828690145,878.7118828690145,878.7118828690145,878.7118828690145,878.7118828690145,878.7118828690145,878.7118828690145,878.7118828690145,878.7118828690145,878.7118828690145,a,0.9187750401906669,10,469,1,879.6629233588465,,881.1648346798029,,,,,,,,,,,,,,,,,,,,,,,,,,,,,,,,,,,,,,,,,,,,,,,,,,,,,,,,,,,,,,,,,,63591,2022-11-17_11h26.51.896,vts_reward_expectancy_bt_OFFLINE,2022.2.4,60.082920153211575,
0,1,0,0,1,0,0,0,circle,triangle,1,0,1,0,2,1,25,3,,,,,,,,,,,,,,,,,,,,,,,,,,,,,,,,,,,,,,,,881.665158416843,881.665158416843,881.665158416843,881.665158416843,881.665158416843,881.665158416843,881.665158416843,881.665158416843,881.665158416843,881.665158416843,l,0.7877778371330351,1,470,1,882.4827072748449,,883.9845819778275,,,,,,,,,,,,,,,,,,,,,,,,,,,,,,,,,,,,,,,,,,,,,,,,,,,,,,,,,,,,,,,,,,63591,2022-11-17_11h26.51.896,vts_reward_expectancy_bt_OFFLINE,2022.2.4,60.082920153211575,
1,0,0,0,0,0,0,1,triangle,star,1,0,1,0,2,2,26,2,,,,,,,,,,,,,,,,,,,,,,,,,,,,,,,,,,,,,,,,884.4852550879586,884.4852550879586,884.4852550879586,884.4852550879586,884.4852550879586,884.4852550879586,884.4852550879586,884.4852550879586,884.4852550879586,884.4852550879586,a,2.086523922160268,1,471,1,886.604011383839,,888.1058024468366,,,,,,,,,,,,,,,,,,,,,,,,,,,,,,,,,,,,,,,,,,,,,,,,,,,,,,,,,,,,,,,,,,63591,2022-11-17_11h26.51.896,vts_reward_expectancy_bt_OFFLINE,2022.2.4,60.082920153211575,
0,1,0,0,0,0,1,0,circle,hexagon,1,0,1,0,2,3,27,4,,,,,,,,,,,,,,,,,,,,,,,,,,,,,,,,,,,,,,,,888.606371606933,888.606371606933,888.606371606933,888.606371606933,888.606371606933,888.606371606933,888.606371606933,888.606371606933,888.606371606933,888.606371606933,l,1.6884554950520396,10,481,1,890.3249682679307,,891.8264425378293,,,,,,,,,,,,,,,,,,,,,,,,,,,,,,,,,,,,,,,,,,,,,,,,,,,,,,,,,,,,,,,,,,63591,2022-11-17_11h26.51.896,vts_reward_expectancy_bt_OFFLINE,2022.2.4,60.082920153211575,
0,0,1,0,0,0,0,1,hexagon,star,1,0,1,0,2,4,28,8,,,,,,,,,,,,,,,,,,,,,,,,,,,,,,,,,,,,,,,,892.3270117219072,892.3270117219072,892.3270117219072,892.3270117219072,892.3270117219072,892.3270117219072,892.3270117219072,892.3270117219072,892.3270117219072,892.3270117219072,a,0.7586822512093931,10,491,1,893.1112926299684,,894.6128425039351,,,,,,,,,,,,,,,,,,,,,,,,,,,,,,,,,,,,,,,,,,,,,,,,,,,,,,,,,,,,,,,,,,63591,2022-11-17_11h26.51.896,vts_reward_expectancy_bt_OFFLINE,2022.2.4,60.082920153211575,
0,0,1,0,1,0,0,0,hexagon,triangle,1,0,1,0,2,5,29,6,,,,,,,,,,,,,,,,,,,,,,,,,,,,,,,,,,,,,,,,895.1135805428494,895.1135805428494,895.1135805428494,895.1135805428494,895.1135805428494,895.1135805428494,895.1135805428494,895.1135805428494,895.1135805428494,895.1135805428494,a,1.2023408971726894,10,501,1,896.3480797188822,,897.849876401946,,,,,,,,,,,,,,,,,,,,,,,,,,,,,,,,,,,,,,,,,,,,,,,,,,,,,,,,,,,,,,,,,,63591,2022-11-17_11h26.51.896,vts_reward_expectancy_bt_OFFLINE,2022.2.4,60.082920153211575,
0,0,0,1,0,0,1,0,star,hexagon,1,0,1,0,2,6,30,11,,,,,,,,,,,,,,,,,,,,,,,,,,,,,,,,,,,,,,,,898.3502729749307,898.3502729749307,898.3502729749307,898.3502729749307,898.3502729749307,898.3502729749307,898.3502729749307,898.3502729749307,898.3502729749307,898.3502729749307,l,1.4527189680375159,10,511,1,899.8352312189527,,901.3368452237919,,,,,,,,,,,,,,,,,,,,,,,,,,,,,,,,,,,,,,,,,,,,,,,,,,,,,,,,,,,,,,,,,,63591,2022-11-17_11h26.51.896,vts_reward_expectancy_bt_OFFLINE,2022.2.4,60.082920153211575,
0,1,0,0,0,0,0,1,circle,star,1,0,1,0,2,7,31,5,,,,,,,,,,,,,,,,,,,,,,,,,,,,,,,,,,,,,,,,901.8375873148907,901.8375873148907,901.8375873148907,901.8375873148907,901.8375873148907,901.8375873148907,901.8375873148907,901.8375873148907,901.8375873148907,901.8375873148907,l,1.362307278206572,1,512,1,903.2224516468123,,904.7239893497899,,,,,,,,,,,,,,,,,,,,,,,,,,,,,,,,,,,,,,,,,,,,,,,,,,,,,,,,,,,,,,,,,,63591,2022-11-17_11h26.51.896,vts_reward_expectancy_bt_OFFLINE,2022.2.4,60.082920153211575,
0,0,0,1,0,1,0,0,star ,circle,1,0,1,0,2,8,32,10,,,,,,,,,,,,,,,,,,,,,,,,,,,,,,,,,,,,,,,,905.224599668989,905.224599668989,905.224599668989,905.224599668989,905.224599668989,905.224599668989,905.224599668989,905.224599668989,905.224599668989,905.224599668989,l,0.9914720300585032,10,522,1,906.2423253739253,,907.7441461319104,,,,,,,,,,,,,,,,,,,,,,,,,,,,,,,,,,,,,,,,,,,,,,,,,,,,,,,,,,,,,,,,,,63591,2022-11-17_11h26.51.896,vts_reward_expectancy_bt_OFFLINE,2022.2.4,60.082920153211575,
1,0,0,0,0,1,0,0,triangle,circle,1,0,1,0,2,9,33,0,,,,,,,,,,,,,,,,,,,,,,,,,,,,,,,,,,,,,,,,908.2445824639872,908.2445824639872,908.2445824639872,908.2445824639872,908.2445824639872,908.2445824639872,908.2445824639872,908.2445824639872,908.2445824639872,908.2445824639872,l,1.277962125139311,10,532,1,909.546154061798,,911.0477735768072,,,,,,,,,,,,,,,,,,,,,,,,,,,,,,,,,,,,,,,,,,,,,,,,,,,,,,,,,,,,,,,,,,63591,2022-11-17_11h26.51.896,vts_reward_expectancy_bt_OFFLINE,2022.2.4,60.082920153211575,
1,0,0,0,0,0,1,0,triangle,hexagon,1,0,1,0,2,10,34,1,,,,,,,,,,,,,,,,,,,,,,,,,,,,,,,,,,,,,,,,911.5482166598085,911.5482166598085,911.5482166598085,911.5482166598085,911.5482166598085,911.5482166598085,911.5482166598085,911.5482166598085,911.5482166598085,911.5482166598085,l,1.4054946261458099,1,533,1,912.98332901299,,914.4849277718458,,,,,,,,,,,,,,,,,,,,,,,,,,,,,,,,,,,,,,,,,,,,,,,,,,,,,,,,,,,,,,,,,,63591,2022-11-17_11h26.51.896,vts_reward_expectancy_bt_OFFLINE,2022.2.4,60.082920153211575,
0,0,0,1,1,0,0,0,star,triangle,1,0,1,0,2,11,35,9,,,,,,,,,,,,,,,,,,,,,,,,,,,,,,,,,,,,,,,,914.9854775147978,914.9854775147978,914.9854775147978,914.9854775147978,914.9854775147978,914.9854775147978,914.9854775147978,914.9854775147978,914.9854775147978,914.9854775147978,l,1.8274069491308182,1,534,1,916.8374230768532,,918.3391001869459,,,,,,,,,,,,,,,,,,,,,,,,,,,,,,,,,,,,,,,,,,,,,,,,,,,,,,,,,,,,,,,,,,63591,2022-11-17_11h26.51.896,vts_reward_expectancy_bt_OFFLINE,2022.2.4,60.082920153211575,
0,0,1,0,1,0,0,0,hexagon,triangle,1,0,1,0,3,0,36,6,,,,,,,,,,,,,,,,,,,,,,,,,,,,,,,,,,,,,,,,918.8396592899226,918.8396592899226,918.8396592899226,918.8396592899226,918.8396592899226,918.8396592899226,918.8396592899226,918.8396592899226,918.8396592899226,918.8396592899226,a,0.7867159510497004,10,544,1,919.6573446928523,,921.1588175829966,,,,,,,,,,,,,,,,,,,,,,,,,,,,,,,,,,,,,,,,,,,,,,,,,,,,,,,,,,,,,,,,,,63591,2022-11-17_11h26.51.896,vts_reward_expectancy_bt_OFFLINE,2022.2.4,60.082920153211575,
0,0,0,1,0,0,1,0,star,hexagon,1,0,1,0,3,1,37,11,,,,,,,,,,,,,,,,,,,,,,,,,,,,,,,,,,,,,,,,921.6595424069092,921.6595424069092,921.6595424069092,921.6595424069092,921.6595424069092,921.6595424069092,921.6595424069092,921.6595424069092,921.6595424069092,921.6595424069092,l,0.9150434923358262,1,545,1,922.5937648969702,,924.0955415428616,,,,,,,,,,,,,,,,,,,,,,,,,,,,,,,,,,,,,,,,,,,,,,,,,,,,,,,,,,,,,,,,,,63591,2022-11-17_11h26.51.896,vts_reward_expectancy_bt_OFFLINE,2022.2.4,60.082920153211575,
0,1,0,0,0,0,1,0,circle,hexagon,1,0,1,0,3,2,38,4,,,,,,,,,,,,,,,,,,,,,,,,,,,,,,,,,,,,,,,,924.5960800989997,924.5960800989997,924.5960800989997,924.5960800989997,924.5960800989997,924.5960800989997,924.5960800989997,924.5960800989997,924.5960800989997,924.5960800989997,a,0.9140448572579771,1,546,1,925.5304170818999,,927.0320135119837,,,,,,,,,,,,,,,,,,,,,,,,,,,,,,,,,,,,,,,,,,,,,,,,,,,,,,,,,,,,,,,,,,63591,2022-11-17_11h26.51.896,vts_reward_expectancy_bt_OFFLINE,2022.2.4,60.082920153211575,
0,0,1,0,0,0,0,1,hexagon,star,1,0,1,0,3,3,39,8,,,,,,,,,,,,,,,,,,,,,,,,,,,,,,,,,,,,,,,,927.5325762080029,927.5325762080029,927.5325762080029,927.5325762080029,927.5325762080029,927.5325762080029,927.5325762080029,927.5325762080029,927.5325762080029,927.5325762080029,a,1.0846908192615956,10,556,1,928.6339461097959,930.1354028519709,930.1354028519709,,,,,,,,,,,,,,,,,,,,,,,,,,,,,,,,,,,,,,,,,,,,,,,,,,,,,,,,,,,,,,,,,,63591,2022-11-17_11h26.51.896,vts_reward_expectancy_bt_OFFLINE,2022.2.4,60.082920153211575,
0,0,0,1,0,1,0,0,star ,circle,1,0,1,0,3,4,40,10,,,,,,,,,,,,,,,,,,,,,,,,,,,,,,,,,,,,,,,,930.6358893979341,930.6358893979341,930.6358893979341,930.6358893979341,930.6358893979341,930.6358893979341,930.6358893979341,930.6358893979341,930.6358893979341,930.6358893979341,l,2.2210099142976105,10,566,1,932.8883703018073,,934.3901557489298,,,,,,,,,,,,,,,,,,,,,,,,,,,,,,,,,,,,,,,,,,,,,,,,,,,,,,,,,,,,,,,,,,63591,2022-11-17_11h26.51.896,vts_reward_expectancy_bt_OFFLINE,2022.2.4,60.082920153211575,
0,1,0,0,1,0,0,0,circle,triangle,1,0,1,0,3,5,41,3,,,,,,,,,,,,,,,,,,,,,,,,,,,,,,,,,,,,,,,,934.8906106669456,934.8906106669456,934.8906106669456,934.8906106669456,934.8906106669456,934.8906106669456,934.8906106669456,934.8906106669456,934.8906106669456,934.8906106669456,l,1.7694337901193649,1,567,1,936.6926786019467,,938.1943356769625,,,,,,,,,,,,,,,,,,,,,,,,,,,,,,,,,,,,,,,,,,,,,,,,,,,,,,,,,,,,,,,,,,63591,2022-11-17_11h26.51.896,vts_reward_expectancy_bt_OFFLINE,2022.2.4,60.082920153211575,
0,0,0,1,1,0,0,0,star,triangle,1,0,1,0,3,6,42,9,,,,,,,,,,,,,,,,,,,,,,,,,,,,,,,,,,,,,,,,938.6950923597906,938.6950923597906,938.6950923597906,938.6950923597906,938.6950923597906,938.6950923597906,938.6950923597906,938.6950923597906,938.6950923597906,938.6950923597906,a,2.0837161371018738,10,577,1,940.7971342038363,,942.2988512129523,,,,,,,,,,,,,,,,,,,,,,,,,,,,,,,,,,,,,,,,,,,,,,,,,,,,,,,,,,,,,,,,,,63591,2022-11-17_11h26.51.896,vts_reward_expectancy_bt_OFFLINE,2022.2.4,60.082920153211575,
1,0,0,0,0,1,0,0,triangle,circle,1,0,1,0,3,7,43,0,,,,,,,,,,,,,,,,,,,,,,,,,,,,,,,,,,,,,,,,942.7995872669853,942.7995872669853,942.7995872669853,942.7995872669853,942.7995872669853,942.7995872669853,942.7995872669853,942.7995872669853,942.7995872669853,942.7995872669853,l,2.3772836490534246,10,587,1,945.2021164298058,,946.7036415378097,,,,,,,,,,,,,,,,,,,,,,,,,,,,,,,,,,,,,,,,,,,,,,,,,,,,,,,,,,,,,,,,,,63591,2022-11-17_11h26.51.896,vts_reward_expectancy_bt_OFFLINE,2022.2.4,60.082920153211575,
0,0,1,0,0,1,0,0,hexagon,circle,1,0,1,0,3,8,44,7,,,,,,,,,,,,,,,,,,,,,,,,,,,,,,,,,,,,,,,,947.2042158870026,947.2042158870026,947.2042158870026,947.2042158870026,947.2042158870026,947.2042158870026,947.2042158870026,947.2042158870026,947.2042158870026,947.2042158870026,a,1.6404817150905728,1,588,1,948.8729005928617,,950.3745698418934,,,,,,,,,,,,,,,,,,,,,,,,,,,,,,,,,,,,,,,,,,,,,,,,,,,,,,,,,,,,,,,,,,63591,2022-11-17_11h26.51.896,vts_reward_expectancy_bt_OFFLINE,2022.2.4,60.082920153211575,
1,0,0,0,0,0,0,1,triangle,star,1,0,1,0,3,9,45,2,,,,,,,,,,,,,,,,,,,,,,,,,,,,,,,,,,,,,,,,950.8749854629859,950.8749854629859,950.8749854629859,950.8749854629859,950.8749854629859,950.8749854629859,950.8749854629859,950.8749854629859,950.8749854629859,950.8749854629859,l,2.548486583167687,1,589,1,953.4445202439092,,954.9460292968433,,,,,,,,,,,,,,,,,,,,,,,,,,,,,,,,,,,,,,,,,,,,,,,,,,,,,,,,,,,,,,,,,,63591,2022-11-17_11h26.51.896,vts_reward_expectancy_bt_OFFLINE,2022.2.4,60.082920153211575,
1,0,0,0,0,0,1,0,triangle,hexagon,1,0,1,0,3,10,46,1,,,,,,,,,,,,,,,,,,,,,,,,,,,,,,,,,,,,,,,,955.4466236929875,955.4466236929875,955.4466236929875,955.4466236929875,955.4466236929875,955.4466236929875,955.4466236929875,955.4466236929875,955.4466236929875,955.4466236929875,l,1.3753392461221665,10,599,1,956.8482679438312,,958.3499017688446,,,,,,,,,,,,,,,,,,,,,,,,,,,,,,,,,,,,,,,,,,,,,,,,,,,,,,,,,,,,,,,,,,63591,2022-11-17_11h26.51.896,vts_reward_expectancy_bt_OFFLINE,2022.2.4,60.082920153211575,
0,1,0,0,0,0,0,1,circle,star,1,0,1,0,3,11,47,5,,,,,,,,,,,,,,,,,,,,,,,,,,,,,,,,,,,,,,,,958.8503943230025,958.8503943230025,958.8503943230025,958.8503943230025,958.8503943230025,958.8503943230025,958.8503943230025,958.8503943230025,958.8503943230025,958.8503943230025,a,1.9533175891265273,1,600,1,960.8360718518961,,962.3375961529091,,,,,,,,,,,,,,,,,,,,,,,,,,,,,,,,,,,,,,,,,,,,,,,,,,,,,,,,,,,,,,,,,,63591,2022-11-17_11h26.51.896,vts_reward_expectancy_bt_OFFLINE,2022.2.4,60.082920153211575,
0,0,1,0,0,1,0,0,hexagon,circle,2,0,2,0,0,0,0,7,,,,,,,,,,,,,,,,,,,,,,,,,,,,,,,,,,,,,,,,971.0137491689529,971.0137491689529,971.0137491689529,971.0137491689529,971.0137491689529,971.0137491689529,971.0137491689529,971.0137491689529,971.0137491689529,971.0137491689529,a,1.063747495179996,10,610,2,972.098300084006,973.6001533428207,973.6001533428207,,,,,,,,,,,,,,,,,,,,,,,,,,,,,,,,,,,,,,,,,,,,,,,,,,,,,,,,,,,,,,,,,,63591,2022-11-17_11h26.51.896,vts_reward_expectancy_bt_OFFLINE,2022.2.4,60.082920153211575,
0,1,0,0,0,0,1,0,circle,hexagon,2,0,2,0,0,1,1,4,,,,,,,,,,,,,,,,,,,,,,,,,,,,,,,,,,,,,,,,974.1006526940037,974.1006526940037,974.1006526940037,974.1006526940037,974.1006526940037,974.1006526940037,974.1006526940037,974.1006526940037,974.1006526940037,974.1006526940037,l,0.991907263174653,10,620,2,975.1183459018357,976.6199476849288,976.6199476849288,,,,,,,,,,,,,,,,,,,,,,,,,,,,,,,,,,,,,,,,,,,,,,,,,,,,,,,,,,,,,,,,,,63591,2022-11-17_11h26.51.896,vts_reward_expectancy_bt_OFFLINE,2022.2.4,60.082920153211575,
1,0,0,0,0,1,0,0,triangle,circle,2,0,2,0,0,2,2,0,,,,,,,,,,,,,,,,,,,,,,,,,,,,,,,,,,,,,,,,977.12049595383,977.12049595383,977.12049595383,977.12049595383,977.12049595383,977.12049595383,977.12049595383,977.12049595383,977.12049595383,977.12049595383,l,2.5281790192238986,10,630,2,979.6734072298277,,981.1750534139574,,,,,,,,,,,,,,,,,,,,,,,,,,,,,,,,,,,,,,,,,,,,,,,,,,,,,,,,,,,,,,,,,,63591,2022-11-17_11h26.51.896,vts_reward_expectancy_bt_OFFLINE,2022.2.4,60.082920153211575,
0,0,1,0,0,0,0,1,hexagon,star,2,0,2,0,0,3,3,8,,,,,,,,,,,,,,,,,,,,,,,,,,,,,,,,,,,,,,,,981.6756534248125,981.6756534248125,981.6756534248125,981.6756534248125,981.6756534248125,981.6756534248125,981.6756534248125,981.6756534248125,981.6756534248125,981.6756534248125,a,2.003020324977115,1,631,2,983.7113643069752,,985.2130016349256,,,,,,,,,,,,,,,,,,,,,,,,,,,,,,,,,,,,,,,,,,,,,,,,,,,,,,,,,,,,,,,,,,63591,2022-11-17_11h26.51.896,vts_reward_expectancy_bt_OFFLINE,2022.2.4,60.082920153211575,
0,1,0,0,0,0,0,1,circle,star,2,0,2,0,0,4,4,5,,,,,,,,,,,,,,,,,,,,,,,,,,,,,,,,,,,,,,,,985.7134134389926,985.7134134389926,985.7134134389926,985.7134134389926,985.7134134389926,985.7134134389926,985.7134134389926,985.7134134389926,985.7134134389926,985.7134134389926,a,2.17132804938592,10,641,2,987.9157702028751,,989.4175441379193,,,,,,,,,,,,,,,,,,,,,,,,,,,,,,,,,,,,,,,,,,,,,,,,,,,,,,,,,,,,,,,,,,63591,2022-11-17_11h26.51.896,vts_reward_expectancy_bt_OFFLINE,2022.2.4,60.082920153211575,
0,0,1,0,1,0,0,0,hexagon,triangle,2,0,2,0,0,5,5,6,,,,,,,,,,,,,,,,,,,,,,,,,,,,,,,,,,,,,,,,989.9181362939999,989.9181362939999,989.9181362939999,989.9181362939999,989.9181362939999,989.9181362939999,989.9181362939999,989.9181362939999,989.9181362939999,989.9181362939999,a,1.1855973210185766,10,651,2,991.1360100680031,,992.6376715099905,,,,,,,,,,,,,,,,,,,,,,,,,,,,,,,,,,,,,,,,,,,,,,,,,,,,,,,,,,,,,,,,,,63591,2022-11-17_11h26.51.896,vts_reward_expectancy_bt_OFFLINE,2022.2.4,60.082920153211575,
1,0,0,0,0,0,0,1,triangle,star,2,0,2,0,0,6,6,2,,,,,,,,,,,,,,,,,,,,,,,,,,,,,,,,,,,,,,,,993.1380829878617,993.1380829878617,993.1380829878617,993.1380829878617,993.1380829878617,993.1380829878617,993.1380829878617,993.1380829878617,993.1380829878617,993.1380829878617,l,4.163299410138279,1,652,2,997.3261085199192,,998.8279955179896,,,,,,,,,,,,,,,,,,,,,,,,,,,,,,,,,,,,,,,,,,,,,,,,,,,,,,,,,,,,,,,,,,63591,2022-11-17_11h26.51.896,vts_reward_expectancy_bt_OFFLINE,2022.2.4,60.082920153211575,
0,0,0,1,0,1,0,0,star ,circle,2,0,2,0,0,7,7,10,,,,,,,,,,,,,,,,,,,,,,,,,,,,,,,,,,,,,,,,999.3284226588439,999.3284226588439,999.3284226588439,999.3284226588439,999.3284226588439,999.3284226588439,999.3284226588439,999.3284226588439,999.3284226588439,999.3284226588439,l,1.0017157320398837,10,662,2,1000.3628869887907,,1001.8647596198134,,,,,,,,,,,,,,,,,,,,,,,,,,,,,,,,,,,,,,,,,,,,,,,,,,,,,,,,,,,,,,,,,,63591,2022-11-17_11h26.51.896,vts_reward_expectancy_bt_OFFLINE,2022.2.4,60.082920153211575,
1,0,0,0,0,0,1,0,triangle,hexagon,2,0,2,0,0,8,8,1,,,,,,,,,,,,,,,,,,,,,,,,,,,,,,,,,,,,,,,,1002.3652179548517,1002.3652179548517,1002.3652179548517,1002.3652179548517,1002.3652179548517,1002.3652179548517,1002.3652179548517,1002.3652179548517,1002.3652179548517,1002.3652179548517,l,2.497222810285166,10,672,2,1004.8846252339426,,1006.3863646718673,,,,,,,,,,,,,,,,,,,,,,,,,,,,,,,,,,,,,,,,,,,,,,,,,,,,,,,,,,,,,,,,,,63591,2022-11-17_11h26.51.896,vts_reward_expectancy_bt_OFFLINE,2022.2.4,60.082920153211575,
0,0,0,1,0,0,1,0,star,hexagon,2,0,2,0,0,9,9,11,,,,,,,,,,,,,,,,,,,,,,,,,,,,,,,,,,,,,,,,1006.8869143279735,1006.8869143279735,1006.8869143279735,1006.8869143279735,1006.8869143279735,1006.8869143279735,1006.8869143279735,1006.8869143279735,1006.8869143279735,1006.8869143279735,l,1.3731728661805391,1,673,2,1008.2881858348846,1009.7898878077976,1009.7898878077976,,,,,,,,,,,,,,,,,,,,,,,,,,,,,,,,,,,,,,,,,,,,,,,,,,,,,,,,,,,,,,,,,,63591,2022-11-17_11h26.51.896,vts_reward_expectancy_bt_OFFLINE,2022.2.4,60.082920153211575,
0,1,0,0,1,0,0,0,circle,triangle,2,0,2,0,0,10,10,3,,,,,,,,,,,,,,,,,,,,,,,,,,,,,,,,,,,,,,,,1010.290599033935,1010.290599033935,1010.290599033935,1010.290599033935,1010.290599033935,1010.290599033935,1010.290599033935,1010.290599033935,1010.290599033935,1010.290599033935,a,2.221525777131319,10,683,2,1012.5430621888954,,1014.0444706319831,,,,,,,,,,,,,,,,,,,,,,,,,,,,,,,,,,,,,,,,,,,,,,,,,,,,,,,,,,,,,,,,,,63591,2022-11-17_11h26.51.896,vts_reward_expectancy_bt_OFFLINE,2022.2.4,60.082920153211575,
0,0,0,1,1,0,0,0,star,triangle,2,0,2,0,0,11,11,9,,,,,,,,,,,,,,,,,,,,,,,,,,,,,,,,,,,,,,,,1014.5451276130043,1014.5451276130043,1014.5451276130043,1014.5451276130043,1014.5451276130043,1014.5451276130043,1014.5451276130043,1014.5451276130043,1014.5451276130043,1014.5451276130043,a,3.9980351412668824,10,693,2,1018.5663184178993,1020.0681117079221,1020.0681117079221,,,,,,,,,,,,,,,,,,,,,,,,,,,,,,,,,,,,,,,,,,,,,,,,,,,,,,,,,,,,,,,,,,63591,2022-11-17_11h26.51.896,vts_reward_expectancy_bt_OFFLINE,2022.2.4,60.082920153211575,
0,0,1,0,1,0,0,0,hexagon,triangle,2,0,2,0,1,0,12,6,,,,,,,,,,,,,,,,,,,,,,,,,,,,,,,,,,,,,,,,1020.5684305198956,1020.5684305198956,1020.5684305198956,1020.5684305198956,1020.5684305198956,1020.5684305198956,1020.5684305198956,1020.5684305198956,1020.5684305198956,1020.5684305198956,a,2.127001868095249,10,703,2,1022.7208191819955,,1024.2226965869777,,,,,,,,,,,,,,,,,,,,,,,,,,,,,,,,,,,,,,,,,,,,,,,,,,,,,,,,,,,,,,,,,,63591,2022-11-17_11h26.51.896,vts_reward_expectancy_bt_OFFLINE,2022.2.4,60.082920153211575,
0,1,0,0,1,0,0,0,circle,triangle,2,0,2,0,1,1,13,3,,,,,,,,,,,,,,,,,,,,,,,,,,,,,,,,,,,,,,,,1024.7232617649715,1024.7232617649715,1024.7232617649715,1024.7232617649715,1024.7232617649715,1024.7232617649715,1024.7232617649715,1024.7232617649715,1024.7232617649715,1024.7232617649715,l,2.415403292281553,1,704,2,1027.1590007238556,,1028.6606881499756,,,,,,,,,,,,,,,,,,,,,,,,,,,,,,,,,,,,,,,,,,,,,,,,,,,,,,,,,,,,,,,,,,63591,2022-11-17_11h26.51.896,vts_reward_expectancy_bt_OFFLINE,2022.2.4,60.082920153211575,
0,1,0,0,0,0,1,0,circle,hexagon,2,0,2,0,1,2,14,4,,,,,,,,,,,,,,,,,,,,,,,,,,,,,,,,,,,,,,,,1029.1613903199323,1029.1613903199323,1029.1613903199323,1029.1613903199323,1029.1613903199323,1029.1613903199323,1029.1613903199323,1029.1613903199323,1029.1613903199323,1029.1613903199323,l,1.1045871041715145,1,705,2,1030.2960727019235,,1031.7975284638815,,,,,,,,,,,,,,,,,,,,,,,,,,,,,,,,,,,,,,,,,,,,,,,,,,,,,,,,,,,,,,,,,,63591,2022-11-17_11h26.51.896,vts_reward_expectancy_bt_OFFLINE,2022.2.4,60.082920153211575,
1,0,0,0,0,1,0,0,triangle,circle,2,0,2,0,1,3,15,0,,,,,,,,,,,,,,,,,,,,,,,,,,,,,,,,,,,,,,,,1032.2981861499138,1032.2981861499138,1032.2981861499138,1032.2981861499138,1032.2981861499138,1032.2981861499138,1032.2981861499138,1032.2981861499138,1032.2981861499138,1032.2981861499138,l,1.1856898681726307,10,715,2,1033.5161581039429,,1035.0176187739708,,,,,,,,,,,,,,,,,,,,,,,,,,,,,,,,,,,,,,,,,,,,,,,,,,,,,,,,,,,,,,,,,,63591,2022-11-17_11h26.51.896,vts_reward_expectancy_bt_OFFLINE,2022.2.4,60.082920153211575,
0,0,1,0,0,1,0,0,hexagon,circle,2,0,2,0,1,4,16,7,,,,,,,,,,,,,,,,,,,,,,,,,,,,,,,,,,,,,,,,1035.518189869821,1035.518189869821,1035.518189869821,1035.518189869821,1035.518189869821,1035.518189869821,1035.518189869821,1035.518189869821,1035.518189869821,1035.518189869821,a,2.220113869290799,10,725,2,1037.7707538029645,,1039.2724384327885,,,,,,,,,,,,,,,,,,,,,,,,,,,,,,,,,,,,,,,,,,,,,,,,,,,,,,,,,,,,,,,,,,63591,2022-11-17_11h26.51.896,vts_reward_expectancy_bt_OFFLINE,2022.2.4,60.082920153211575,
0,1,0,0,0,0,0,1,circle,star,2,0,2,0,1,5,17,5,,,,,,,,,,,,,,,,,,,,,,,,,,,,,,,,,,,,,,,,1039.7730022689793,1039.7730022689793,1039.7730022689793,1039.7730022689793,1039.7730022689793,1039.7730022689793,1039.7730022689793,1039.7730022689793,1039.7730022689793,1039.7730022689793,l,2.2959100492298603,10,735,2,1042.0924235319253,1043.5938877568115,1043.5938877568115,,,,,,,,,,,,,,,,,,,,,,,,,,,,,,,,,,,,,,,,,,,,,,,,,,,,,,,,,,,,,,,,,,63591,2022-11-17_11h26.51.896,vts_reward_expectancy_bt_OFFLINE,2022.2.4,60.082920153211575,
0,0,0,1,0,0,1,0,star,hexagon,2,0,2,0,1,6,18,11,,,,,,,,,,,,,,,,,,,,,,,,,,,,,,,,,,,,,,,,1044.0946840078104,1044.0946840078104,1044.0946840078104,1044.0946840078104,1044.0946840078104,1044.0946840078104,1044.0946840078104,1044.0946840078104,1044.0946840078104,1044.0946840078104,a,4.780187839176506,10,745,2,1048.8998180418275,,1050.4013499389403,,,,,,,,,,,,,,,,,,,,,,,,,,,,,,,,,,,,,,,,,,,,,,,,,,,,,,,,,,,,,,,,,,63591,2022-11-17_11h26.51.896,vts_reward_expectancy_bt_OFFLINE,2022.2.4,60.082920153211575,
1,0,0,0,0,0,0,1,triangle,star,2,0,2,0,1,7,19,2,,,,,,,,,,,,,,,,,,,,,,,,,,,,,,,,,,,,,,,,1050.9022293549497,1050.9022293549497,1050.9022293549497,1050.9022293549497,1050.9022293549497,1050.9022293549497,1050.9022293549497,1050.9022293549497,1050.9022293549497,1050.9022293549497,a,2.3946367860771716,10,755,2,1053.321312223794,,1054.822980762925,,,,,,,,,,,,,,,,,,,,,,,,,,,,,,,,,,,,,,,,,,,,,,,,,,,,,,,,,,,,,,,,,,63591,2022-11-17_11h26.51.896,vts_reward_expectancy_bt_OFFLINE,2022.2.4,60.082920153211575,
0,0,0,1,1,0,0,0,star,triangle,2,0,2,0,1,8,20,9,,,,,,,,,,,,,,,,,,,,,,,,,,,,,,,,,,,,,,,,1055.3234179599676,1055.3234179599676,1055.3234179599676,1055.3234179599676,1055.3234179599676,1055.3234179599676,1055.3234179599676,1055.3234179599676,1055.3234179599676,1055.3234179599676,l,1.877867948031053,1,756,2,1057.2255654588807,,1058.727225667797,,,,,,,,,,,,,,,,,,,,,,,,,,,,,,,,,,,,,,,,,,,,,,,,,,,,,,,,,,,,,,,,,,63591,2022-11-17_11h26.51.896,vts_reward_expectancy_bt_OFFLINE,2022.2.4,60.082920153211575,
0,0,0,1,0,1,0,0,star ,circle,2,0,2,0,1,9,21,10,,,,,,,,,,,,,,,,,,,,,,,,,,,,,,,,,,,,,,,,1059.227876977995,1059.227876977995,1059.227876977995,1059.227876977995,1059.227876977995,1059.227876977995,1059.227876977995,1059.227876977995,1059.227876977995,1059.227876977995,l,3.958549124188721,10,766,2,1063.215622367803,,1064.7171596919652,,,,,,,,,,,,,,,,,,,,,,,,,,,,,,,,,,,,,,,,,,,,,,,,,,,,,,,,,,,,,,,,,,63591,2022-11-17_11h26.51.896,vts_reward_expectancy_bt_OFFLINE,2022.2.4,60.082920153211575,
1,0,0,0,0,0,1,0,triangle,hexagon,2,0,2,0,1,10,22,1,,,,,,,,,,,,,,,,,,,,,,,,,,,,,,,,,,,,,,,,1065.2178051618394,1065.2178051618394,1065.2178051618394,1065.2178051618394,1065.2178051618394,1065.2178051618394,1065.2178051618394,1065.2178051618394,1065.2178051618394,1065.2178051618394,l,1.9407929840963334,10,776,2,1067.1867139339447,,1068.688409818802,,,,,,,,,,,,,,,,,,,,,,,,,,,,,,,,,,,,,,,,,,,,,,,,,,,,,,,,,,,,,,,,,,63591,2022-11-17_11h26.51.896,vts_reward_expectancy_bt_OFFLINE,2022.2.4,60.082920153211575,
0,0,1,0,0,0,0,1,hexagon,star,2,0,2,0,1,11,23,8,,,,,,,,,,,,,,,,,,,,,,,,,,,,,,,,,,,,,,,,1069.1886250779498,1069.1886250779498,1069.1886250779498,1069.1886250779498,1069.1886250779498,1069.1886250779498,1069.1886250779498,1069.1886250779498,1069.1886250779498,1069.1886250779498,a,2.425951349083334,10,786,2,1071.6414751149714,,1073.143149307929,,,,,,,,,,,,,,,,,,,,,,,,,,,,,,,,,,,,,,,,,,,,,,,,,,,,,,,,,,,,,,,,,,63591,2022-11-17_11h26.51.896,vts_reward_expectancy_bt_OFFLINE,2022.2.4,60.082920153211575,
1,0,0,0,0,1,0,0,triangle,circle,2,0,2,0,2,0,24,0,,,,,,,,,,,,,,,,,,,,,,,,,,,,,,,,,,,,,,,,1073.64372933493,1073.64372933493,1073.64372933493,1073.64372933493,1073.64372933493,1073.64372933493,1073.64372933493,1073.64372933493,1073.64372933493,1073.64372933493,l,1.3228161199949682,10,796,2,1074.9952971288003,,1076.4968803948723,,,,,,,,,,,,,,,,,,,,,,,,,,,,,,,,,,,,,,,,,,,,,,,,,,,,,,,,,,,,,,,,,,63591,2022-11-17_11h26.51.896,vts_reward_expectancy_bt_OFFLINE,2022.2.4,60.082920153211575,
0,0,1,0,0,0,0,1,hexagon,star,2,0,2,0,2,1,25,8,,,,,,,,,,,,,,,,,,,,,,,,,,,,,,,,,,,,,,,,1076.9975870097987,1076.9975870097987,1076.9975870097987,1076.9975870097987,1076.9975870097987,1076.9975870097987,1076.9975870097987,1076.9975870097987,1076.9975870097987,1076.9975870097987,a,1.4117418841924518,10,806,2,1078.4322084048763,,1079.933908109786,,,,,,,,,,,,,,,,,,,,,,,,,,,,,,,,,,,,,,,,,,,,,,,,,,,,,,,,,,,,,,,,,,63591,2022-11-17_11h26.51.896,vts_reward_expectancy_bt_OFFLINE,2022.2.4,60.082920153211575,
0,0,0,1,0,0,1,0,star,hexagon,2,0,2,0,2,2,26,11,,,,,,,,,,,,,,,,,,,,,,,,,,,,,,,,,,,,,,,,1080.4344955189154,1080.4344955189154,1080.4344955189154,1080.4344955189154,1080.4344955189154,1080.4344955189154,1080.4344955189154,1080.4344955189154,1080.4344955189154,1080.4344955189154,l,1.7665918632410467,10,816,2,1082.2198710928205,,1083.7216485198587,,,,,,,,,,,,,,,,,,,,,,,,,,,,,,,,,,,,,,,,,,,,,,,,,,,,,,,,,,,,,,,,,,63591,2022-11-17_11h26.51.896,vts_reward_expectancy_bt_OFFLINE,2022.2.4,60.082920153211575,
0,0,1,0,0,1,0,0,hexagon,circle,2,0,2,0,2,3,27,7,,,,,,,,,,,,,,,,,,,,,,,,,,,,,,,,,,,,,,,,1084.2219938118942,1084.2219938118942,1084.2219938118942,1084.2219938118942,1084.2219938118942,1084.2219938118942,1084.2219938118942,1084.2219938118942,1084.2219938118942,1084.2219938118942,l,1.3429735891986638,10,826,2,1085.5903978929855,,1087.0917487698607,,,,,,,,,,,,,,,,,,,,,,,,,,,,,,,,,,,,,,,,,,,,,,,,,,,,,,,,,,,,,,,,,,63591,2022-11-17_11h26.51.896,vts_reward_expectancy_bt_OFFLINE,2022.2.4,60.082920153211575,
0,0,0,1,1,0,0,0,star,triangle,2,0,2,0,2,4,28,9,,,,,,,,,,,,,,,,,,,,,,,,,,,,,,,,,,,,,,,,1087.592257562792,1087.592257562792,1087.592257562792,1087.592257562792,1087.592257562792,1087.592257562792,1087.592257562792,1087.592257562792,1087.592257562792,1087.592257562792,a,2.3934694742783904,1,827,2,1090.0118691530079,,1091.5133628249168,,,,,,,,,,,,,,,,,,,,,,,,,,,,,,,,,,,,,,,,,,,,,,,,,,,,,,,,,,,,,,,,,,63591,2022-11-17_11h26.51.896,vts_reward_expectancy_bt_OFFLINE,2022.2.4,60.082920153211575,
0,1,0,0,0,0,0,1,circle,star,2,0,2,0,2,5,29,5,,,,,,,,,,,,,,,,,,,,,,,,,,,,,,,,,,,,,,,,1092.0139131678734,1092.0139131678734,1092.0139131678734,1092.0139131678734,1092.0139131678734,1092.0139131678734,1092.0139131678734,1092.0139131678734,1092.0139131678734,1092.0139131678734,l,1.9544700332917273,1,828,2,1093.9996191319078,,1095.501175272977,,,,,,,,,,,,,,,,,,,,,,,,,,,,,,,,,,,,,,,,,,,,,,,,,,,,,,,,,,,,,,,,,,63591,2022-11-17_11h26.51.896,vts_reward_expectancy_bt_OFFLINE,2022.2.4,60.082920153211575,
0,0,0,1,0,1,0,0,star ,circle,2,0,2,0,2,6,30,10,,,,,,,,,,,,,,,,,,,,,,,,,,,,,,,,,,,,,,,,1096.0018120829482,1096.0018120829482,1096.0018120829482,1096.0018120829482,1096.0018120829482,1096.0018120829482,1096.0018120829482,1096.0018120829482,1096.0018120829482,1096.0018120829482,l,0.9487953323405236,1,829,2,1096.9693971627858,,1098.4713495688047,,,,,,,,,,,,,,,,,,,,,,,,,,,,,,,,,,,,,,,,,,,,,,,,,,,,,,,,,,,,,,,,,,63591,2022-11-17_11h26.51.896,vts_reward_expectancy_bt_OFFLINE,2022.2.4,60.082920153211575,
0,1,0,0,0,0,1,0,circle,hexagon,2,0,2,0,2,7,31,4,,,,,,,,,,,,,,,,,,,,,,,,,,,,,,,,,,,,,,,,1098.9717734619044,1098.9717734619044,1098.9717734619044,1098.9717734619044,1098.9717734619044,1098.9717734619044,1098.9717734619044,1098.9717734619044,1098.9717734619044,1098.9717734619044,l,1.0276646791025996,10,839,2,1100.0231785548385,,1101.5244908179156,,,,,,,,,,,,,,,,,,,,,,,,,,,,,,,,,,,,,,,,,,,,,,,,,,,,,,,,,,,,,,,,,,63591,2022-11-17_11h26.51.896,vts_reward_expectancy_bt_OFFLINE,2022.2.4,60.082920153211575,
0,1,0,0,1,0,0,0,circle,triangle,2,0,2,0,2,8,32,3,,,,,,,,,,,,,,,,,,,,,,,,,,,,,,,,,,,,,,,,1102.0251057599671,1102.0251057599671,1102.0251057599671,1102.0251057599671,1102.0251057599671,1102.0251057599671,1102.0251057599671,1102.0251057599671,1102.0251057599671,1102.0251057599671,a,1.5416872191708535,10,849,2,1103.5934049289208,1105.095318468986,1105.095318468986,,,,,,,,,,,,,,,,,,,,,,,,,,,,,,,,,,,,,,,,,,,,,,,,,,,,,,,,,,,,,,,,,,63591,2022-11-17_11h26.51.896,vts_reward_expectancy_bt_OFFLINE,2022.2.4,60.082920153211575,
0,0,1,0,1,0,0,0,hexagon,triangle,2,0,2,0,2,9,33,6,,,,,,,,,,,,,,,,,,,,,,,,,,,,,,,,,,,,,,,,1105.5956007968634,1105.5956007968634,1105.5956007968634,1105.5956007968634,1105.5956007968634,1105.5956007968634,1105.5956007968634,1105.5956007968634,1105.5956007968634,1105.5956007968634,a,0.9631521902047098,10,859,2,1106.5801801998168,,1108.0817564919125,,,,,,,,,,,,,,,,,,,,,,,,,,,,,,,,,,,,,,,,,,,,,,,,,,,,,,,,,,,,,,,,,,63591,2022-11-17_11h26.51.896,vts_reward_expectancy_bt_OFFLINE,2022.2.4,60.082920153211575,
1,0,0,0,0,0,1,0,triangle,hexagon,2,0,2,0,2,10,34,1,,,,,,,,,,,,,,,,,,,,,,,,,,,,,,,,,,,,,,,,1108.5824216038454,1108.5824216038454,1108.5824216038454,1108.5824216038454,1108.5824216038454,1108.5824216038454,1108.5824216038454,1108.5824216038454,1108.5824216038454,1108.5824216038454,l,1.0251443809829652,10,869,2,1109.6334213039372,,1111.1353267668746,,,,,,,,,,,,,,,,,,,,,,,,,,,,,,,,,,,,,,,,,,,,,,,,,,,,,,,,,,,,,,,,,,63591,2022-11-17_11h26.51.896,vts_reward_expectancy_bt_OFFLINE,2022.2.4,60.082920153211575,
1,0,0,0,0,0,0,1,triangle,star,2,0,2,0,2,11,35,2,,,,,,,,,,,,,,,,,,,,,,,,,,,,,,,,,,,,,,,,1111.6357849019114,1111.6357849019114,1111.6357849019114,1111.6357849019114,1111.6357849019114,1111.6357849019114,1111.6357849019114,1111.6357849019114,1111.6357849019114,1111.6357849019114,l,1.3923610080964863,1,870,2,1113.0540850518737,,1114.555539732799,,,,,,,,,,,,,,,,,,,,,,,,,,,,,,,,,,,,,,,,,,,,,,,,,,,,,,,,,,,,,,,,,,63591,2022-11-17_11h26.51.896,vts_reward_expectancy_bt_OFFLINE,2022.2.4,60.082920153211575,
0,1,0,0,1,0,0,0,circle,triangle,2,0,2,0,3,0,36,3,,,,,,,,,,,,,,,,,,,,,,,,,,,,,,,,,,,,,,,,1115.0563230197877,1115.0563230197877,1115.0563230197877,1115.0563230197877,1115.0563230197877,1115.0563230197877,1115.0563230197877,1115.0563230197877,1115.0563230197877,1115.0563230197877,a,0.8852285202592611,10,880,2,1115.973817733815,,1117.4754540789872,,,,,,,,,,,,,,,,,,,,,,,,,,,,,,,,,,,,,,,,,,,,,,,,,,,,,,,,,,,,,,,,,,63591,2022-11-17_11h26.51.896,vts_reward_expectancy_bt_OFFLINE,2022.2.4,60.082920153211575,
0,0,0,1,0,0,1,0,star,hexagon,2,0,2,0,3,1,37,11,,,,,,,,,,,,,,,,,,,,,,,,,,,,,,,,,,,,,,,,1117.9759236217942,1117.9759236217942,1117.9759236217942,1117.9759236217942,1117.9759236217942,1117.9759236217942,1117.9759236217942,1117.9759236217942,1117.9759236217942,1117.9759236217942,l,0.9815306351520121,10,890,2,1118.977227589814,,1120.4787364290096,,,,,,,,,,,,,,,,,,,,,,,,,,,,,,,,,,,,,,,,,,,,,,,,,,,,,,,,,,,,,,,,,,63591,2022-11-17_11h26.51.896,vts_reward_expectancy_bt_OFFLINE,2022.2.4,60.082920153211575,
0,0,0,1,0,1,0,0,star ,circle,2,0,2,0,3,2,38,10,,,,,,,,,,,,,,,,,,,,,,,,,,,,,,,,,,,,,,,,1120.9790823799558,1120.9790823799558,1120.9790823799558,1120.9790823799558,1120.9790823799558,1120.9790823799558,1120.9790823799558,1120.9790823799558,1120.9790823799558,1120.9790823799558,l,1.2286370822694153,10,900,2,1122.230624784017,,1123.7323254668154,,,,,,,,,,,,,,,,,,,,,,,,,,,,,,,,,,,,,,,,,,,,,,,,,,,,,,,,,,,,,,,,,,63591,2022-11-17_11h26.51.896,vts_reward_expectancy_bt_OFFLINE,2022.2.4,60.082920153211575,
0,0,1,0,1,0,0,0,hexagon,triangle,2,0,2,0,3,3,39,6,,,,,,,,,,,,,,,,,,,,,,,,,,,,,,,,,,,,,,,,1124.2329048139509,1124.2329048139509,1124.2329048139509,1124.2329048139509,1124.2329048139509,1124.2329048139509,1124.2329048139509,1124.2329048139509,1124.2329048139509,1124.2329048139509,a,1.5529087299946696,10,910,2,1125.81786396401,,1127.3195671429858,,,,,,,,,,,,,,,,,,,,,,,,,,,,,,,,,,,,,,,,,,,,,,,,,,,,,,,,,,,,,,,,,,63591,2022-11-17_11h26.51.896,vts_reward_expectancy_bt_OFFLINE,2022.2.4,60.082920153211575,
1,0,0,0,0,0,1,0,triangle,hexagon,2,0,2,0,3,4,40,1,,,,,,,,,,,,,,,,,,,,,,,,,,,,,,,,,,,,,,,,1127.8200682129245,1127.8200682129245,1127.8200682129245,1127.8200682129245,1127.8200682129245,1127.8200682129245,1127.8200682129245,1127.8200682129245,1127.8200682129245,1127.8200682129245,l,0.8582632201723754,10,920,2,1128.7046323348768,,1130.2063359478489,,,,,,,,,,,,,,,,,,,,,,,,,,,,,,,,,,,,,,,,,,,,,,,,,,,,,,,,,,,,,,,,,,63591,2022-11-17_11h26.51.896,vts_reward_expectancy_bt_OFFLINE,2022.2.4,60.082920153211575,
0,0,0,1,1,0,0,0,star,triangle,2,0,2,0,3,5,41,9,,,,,,,,,,,,,,,,,,,,,,,,,,,,,,,,,,,,,,,,1130.70668022288,1130.70668022288,1130.70668022288,1130.70668022288,1130.70668022288,1130.70668022288,1130.70668022288,1130.70668022288,1130.70668022288,1130.70668022288,l,2.8767980381380767,1,921,2,1133.6103128828108,,1135.1116241328418,,,,,,,,,,,,,,,,,,,,,,,,,,,,,,,,,,,,,,,,,,,,,,,,,,,,,,,,,,,,,,,,,,63591,2022-11-17_11h26.51.896,vts_reward_expectancy_bt_OFFLINE,2022.2.4,60.082920153211575,
1,0,0,0,0,1,0,0,triangle,circle,2,0,2,0,3,6,42,0,,,,,,,,,,,,,,,,,,,,,,,,,,,,,,,,,,,,,,,,1135.6121067570057,1135.6121067570057,1135.6121067570057,1135.6121067570057,1135.6121067570057,1135.6121067570057,1135.6121067570057,1135.6121067570057,1135.6121067570057,1135.6121067570057,l,0.918973381165415,10,931,2,1136.5631372139324,,1138.0649154228158,,,,,,,,,,,,,,,,,,,,,,,,,,,,,,,,,,,,,,,,,,,,,,,,,,,,,,,,,,,,,,,,,,63591,2022-11-17_11h26.51.896,vts_reward_expectancy_bt_OFFLINE,2022.2.4,60.082920153211575,
0,1,0,0,0,0,0,1,circle,star,2,0,2,0,3,7,43,5,,,,,,,,,,,,,,,,,,,,,,,,,,,,,,,,,,,,,,,,1138.5653288399335,1138.5653288399335,1138.5653288399335,1138.5653288399335,1138.5653288399335,1138.5653288399335,1138.5653288399335,1138.5653288399335,1138.5653288399335,1138.5653288399335,a,1.0923363440670073,10,941,2,1139.6833445387892,,1141.1850862328429,,,,,,,,,,,,,,,,,,,,,,,,,,,,,,,,,,,,,,,,,,,,,,,,,,,,,,,,,,,,,,,,,,63591,2022-11-17_11h26.51.896,vts_reward_expectancy_bt_OFFLINE,2022.2.4,60.082920153211575,
0,0,1,0,0,1,0,0,hexagon,circle,2,0,2,0,3,8,44,7,,,,,,,,,,,,,,,,,,,,,,,,,,,,,,,,,,,,,,,,1141.685567397857,1141.685567397857,1141.685567397857,1141.685567397857,1141.685567397857,1141.685567397857,1141.685567397857,1141.685567397857,1141.685567397857,1141.685567397857,a,0.8863541642203927,1,942,2,1142.6030547989067,,1144.1050332579762,,,,,,,,,,,,,,,,,,,,,,,,,,,,,,,,,,,,,,,,,,,,,,,,,,,,,,,,,,,,,,,,,,63591,2022-11-17_11h26.51.896,vts_reward_expectancy_bt_OFFLINE,2022.2.4,60.082920153211575,
0,1,0,0,0,0,1,0,circle,hexagon,2,0,2,0,3,9,45,4,,,,,,,,,,,,,,,,,,,,,,,,,,,,,,,,,,,,,,,,1144.6055837678723,1144.6055837678723,1144.6055837678723,1144.6055837678723,1144.6055837678723,1144.6055837678723,1144.6055837678723,1144.6055837678723,1144.6055837678723,1144.6055837678723,l,0.8250902062281966,10,952,2,1145.4566222468857,,1146.9580092988908,,,,,,,,,,,,,,,,,,,,,,,,,,,,,,,,,,,,,,,,,,,,,,,,,,,,,,,,,,,,,,,,,,63591,2022-11-17_11h26.51.896,vts_reward_expectancy_bt_OFFLINE,2022.2.4,60.082920153211575,
0,0,1,0,0,0,0,1,hexagon,star,2,0,2,0,3,10,46,8,,,,,,,,,,,,,,,,,,,,,,,,,,,,,,,,,,,,,,,,1147.458613047842,1147.458613047842,1147.458613047842,1147.458613047842,1147.458613047842,1147.458613047842,1147.458613047842,1147.458613047842,1147.458613047842,1147.458613047842,a,1.256959459045902,1,953,2,1148.7435586089268,,1150.2449584088754,,,,,,,,,,,,,,,,,,,,,,,,,,,,,,,,,,,,,,,,,,,,,,,,,,,,,,,,,,,,,,,,,,63591,2022-11-17_11h26.51.896,vts_reward_expectancy_bt_OFFLINE,2022.2.4,60.082920153211575,
1,0,0,0,0,0,0,1,triangle,star,2,0,2,0,3,11,47,2,,,,,,,,,,,,,,,,,,,,,,,,,,,,,,,,,,,,,,,,1150.7455085518304,1150.7455085518304,1150.7455085518304,1150.7455085518304,1150.7455085518304,1150.7455085518304,1150.7455085518304,1150.7455085518304,1150.7455085518304,1150.7455085518304,l,1.6706555041018873,1,954,2,1152.447512561921,,1153.9488728039432,,,,,,,,,,,,,,,,,,,,,,,,,,,,,,,,,,,,,,,,,,,,,,,,,,,,,,,,,,,,,,,,,,63591,2022-11-17_11h26.51.896,vts_reward_expectancy_bt_OFFLINE,2022.2.4,60.082920153211575,
,,,,,,,,,,,,,,,,,,0,0,0,0,0,0,0,0,,,,,,,,,,,,,,,,,,,,,,,,,,,,,,,,,,,,,,,,,,,,,,,,,1194.7772731687874,181,U,star,0.001855761045590043,1190.790797863854,1192.2912985878065,1192.2912985878065,1192.2912985878065,1,0,f,0.9435308002866805,0,1193.2757044318132,,,,,,,,,,,,,,,,,,,,,,,,,,,,,,,,,,,,,,,,,,,,,,,,,,,,63591,2022-11-17_11h26.51.896,vts_reward_expectancy_bt_OFFLINE,2022.2.4,60.082920153211575,
,,,,,,,,,,,,,,,,,,0,0,0,0,1,0,1,0,,,,,,,,,,,,,,,,,,,,,,,,,,,,,,,,,,,,,,,,,,,,,,,,,1199.4159030530136,146,D,circle,0.0009112791158258915,1195.7450675219297,1197.2468790118583,1197.2468790118583,1197.2468790118583,1,0,d,0.634913322981447,0,1197.9142977928277,,,,,,,,,,,,,,,,,,,,,,,,,,,,,,,,,,,,,,,,,,,,,,,,,,,,63591,2022-11-17_11h26.51.896,vts_reward_expectancy_bt_OFFLINE,2022.2.4,60.082920153211575,
,,,,,,,,,,,,,,,,,,0,0,0,0,2,0,2,0,,,,,,,,,,,,,,,,,,,,,,,,,,,,,,,,,,,,,,,,,,,,,,,,,1204.204316191841,160,Y,triangle,0.0015530590899288654,1200.4003942999989,1201.9020037648734,1201.9020037648734,1201.9020037648734,1,0,f,0.7727310771588236,0,1202.7029515628237,,,,,,,,,,,,,,,,,,,,,,,,,,,,,,,,,,,,,,,,,,,,,,,,,,,,63591,2022-11-17_11h26.51.896,vts_reward_expectancy_bt_OFFLINE,2022.2.4,60.082920153211575,
,,,,,,,,,,,,,,,,,,0,0,0,0,3,0,3,0,,,,,,,,,,,,,,,,,,,,,,,,,,,,,,,,,,,,,,,,,,,,,,,,,1208.7927650348283,132,W,hexagon,0.0013529479037970304,1205.1901132329367,1206.6905738518108,1206.6905738518108,1206.6905738518108,1,0,d,0.5735576541628689,0,1207.2910385169089,,,,,,,,,,,,,,,,,,,,,,,,,,,,,,,,,,,,,,,,,,,,,,,,,,,,63591,2022-11-17_11h26.51.896,vts_reward_expectancy_bt_OFFLINE,2022.2.4,60.082920153211575,
,,,,,,,,,,,,,,,,,,0,0,0,0,4,0,4,0,,,,,,,,,,,,,,,,,,,,,,,,,,,,,,,,,,,,,,,,,,,,,,,,,1213.6148072849028,174,F,triangle,0.0011891948524862528,1209.7772157317959,1211.2787277698517,1211.2787277698517,1211.2787277698517,1,0,f,0.8125740571413189,0,1212.1131759698037,,,,,,,,,,,,,,,,,,,,,,,,,,,,,,,,,,,,,,,,,,,,,,,,,,,,63591,2022-11-17_11h26.51.896,vts_reward_expectancy_bt_OFFLINE,2022.2.4,60.082920153211575,
,,,,,,,,,,,,,,,,,,0,0,0,0,5,0,5,0,,,,,,,,,,,,,,,,,,,,,,,,,,,,,,,,,,,,,,,,,,,,,,,,,1218.353499081917,125,B,star,0.0013589358422905207,1214.5997044239193,1216.1011076418217,1216.1011076418217,1216.1011076418217,1,0,d,0.7265399033203721,0,1216.8516947298776,,,,,,,,,,,,,,,,,,,,,,,,,,,,,,,,,,,,,,,,,,,,,,,,,,,,63591,2022-11-17_11h26.51.896,vts_reward_expectancy_bt_OFFLINE,2022.2.4,60.082920153211575,
,,,,,,,,,,,,,,,,,,0,0,0,0,6,0,6,0,,,,,,,,,,,,,,,,,,,,,,,,,,,,,,,,,,,,,,,,,,,,,,,,,1223.0586639298126,167,H,circle,0.0010377001017332077,1219.337872019969,1220.8393182989676,1220.8393182989676,1220.8393182989676,1,0,f,0.6916815002914518,0,1221.556787759997,,,,,,,,,,,,,,,,,,,,,,,,,,,,,,,,,,,,,,,,,,,,,,,,,,,,63591,2022-11-17_11h26.51.896,vts_reward_expectancy_bt_OFFLINE,2022.2.4,60.082920153211575,
,,,,,,,,,,,,,,,,,,0,0,0,0,7,0,7,0,,,,,,,,,,,,,,,,,,,,,,,,,,,,,,,,,,,,,,,,,,,,,,,,,1227.6469727340154,139,S,hexagon,0.0013984059914946556,1224.0431502969004,1225.5446777238976,1225.5446777238976,1225.5446777238976,1,0,d,0.5762135072145611,0,1226.1451884738635,1227.6469727340154,,,,,,,,,,,,,,,,,,,,,,,,,,,,,,,,,,,,,,,,,,,,,,,,,,,63591,2022-11-17_11h26.51.896,vts_reward_expectancy_bt_OFFLINE,2022.2.4,60.082920153211575,
,,,,,,,,,,,,,,,,,,0,0,0,0,8,0,8,0,,,,,,,,,,,,,,,,,,,,,,,,,,,,,,,,,,,,,,,,,,,,,,,,,1232.3853997688275,181,U,hexagon,0.001080340938642621,1228.6315457578748,1230.1330339829437,1230.1330339829437,1230.1330339829437,1,0,f,0.7248447912279516,0,1230.883824321907,,,,,,,,,,,,,,,,,,,,,,,,,,,,,,,,,,,,,,,,,,,,,,,,,,,,63591,2022-11-17_11h26.51.896,vts_reward_expectancy_bt_OFFLINE,2022.2.4,60.082920153211575,
,,,,,,,,,,,,,,,,,,0,0,0,0,9,0,9,0,,,,,,,,,,,,,,,,,,,,,,,,,,,,,,,,,,,,,,,,,,,,,,,,,1237.1908066689502,146,D,star,0.0010467669926583767,1233.369878883008,1234.8714626890142,1234.8714626890142,1234.8714626890142,1,0,d,0.7905028492677957,0,1235.6891261588316,,,,,,,,,,,,,,,,,,,,,,,,,,,,,,,,,,,,,,,,,,,,,,,,,,,,63591,2022-11-17_11h26.51.896,vts_reward_expectancy_bt_OFFLINE,2022.2.4,60.082920153211575,
,,,,,,,,,,,,,,,,,,,,,,,,,,0,0,0,0,0,0,0,0,,,,,,,,,,,,,,,,,,,,,,,,,,,,,,,,,,,,,,,,,1274.0649542219471,160,Y,hexagon,0.0019201550167053938,,,,,1,0,,,1,1272.5629637627862,,1270.411666703876,1271.9125319179147,1271.9125319179147,1271.9125319179147,k,0.6179036900866777,,,,,,,,,,,,,,,,,,,,,,,,,,,,,,,,,,,,,,,,,,,,,63591,2022-11-17_11h26.51.896,vts_reward_expectancy_bt_OFFLINE,2022.2.4,60.082920153211575,
,,,,,,,,,,,,,,,,,,,,,,,,,,0,0,0,0,1,0,1,0,,,,,,,,,,,,,,,,,,,,,,,,,,,,,,,,,,,,,,,,,1278.5198063938878,181,B,star,0.0014376419130712748,,,,,1,0,,,1,1277.018086656928,,1275.0494281118736,1276.5512283369899,1276.5512283369899,1276.5512283369899,j,0.44576875609345734,,,,,,,,,,,,,,,,,,,,,,,,,,,,,,,,,,,,,,,,,,,,,63591,2022-11-17_11h26.51.896,vts_reward_expectancy_bt_OFFLINE,2022.2.4,60.082920153211575,
,,,,,,,,,,,,,,,,,,,,,,,,,,0,0,0,0,2,0,2,0,,,,,,,,,,,,,,,,,,,,,,,,,,,,,,,,,,,,,,,,,1283.1748757448513,132,F,triangle,0.001152625074610114,,,,,1,0,,,1,1281.6733754898887,,1279.5042928049807,1281.0059474869631,1281.0059474869631,1281.0059474869631,j,0.6375447942409664,,,,,,,,,,,,,,,,,,,,,,,,,,,,,,,,,,,,,,,,,,,,,63591,2022-11-17_11h26.51.896,vts_reward_expectancy_bt_OFFLINE,2022.2.4,60.082920153211575,
,,,,,,,,,,,,,,,,,,,,,,,,,,0,0,0,0,3,0,3,0,,,,,,,,,,,,,,,,,,,,,,,,,,,,,,,,,,,,,,,,,1287.696566816885,167,W,circle,0.0009314389899373055,,,,,1,0,,,1,1286.1950032918248,,1284.159171053907,1285.6610479718074,1285.6610479718074,1285.6610479718074,k,0.5066247549839318,,,,,,,,,,,,,,,,,,,,,,,,,,,,,,,,,,,,,,,,,,,,,63591,2022-11-17_11h26.51.896,vts_reward_expectancy_bt_OFFLINE,2022.2.4,60.082920153211575,
,,,,,,,,,,,,,,,,,,,,,,,,,,0,0,0,0,4,0,4,0,,,,,,,,,,,,,,,,,,,,,,,,,,,,,,,,,,,,,,,,,1292.2684105678927,139,H,triangle,0.0010585479903966188,,,,,1,0,,,1,1290.7666883729398,,1288.681264334824,1290.1825415829662,1290.1825415829662,1290.1825415829662,j,0.5517700300551951,,,,,,,,,,,,,,,,,,,,,,,,,,,,,,,,,,,,,,,,,,,,,63591,2022-11-17_11h26.51.896,vts_reward_expectancy_bt_OFFLINE,2022.2.4,60.082920153211575,
,,,,,,,,,,,,,,,,,,,,,,,,,,0,0,0,0,5,0,5,0,,,,,,,,,,,,,,,,,,,,,,,,,,,,,,,,,,,,,,,,,1296.9235493338201,174,S,circle,0.001187318004667759,,,,,1,0,,,1,1295.4219246499706,,1293.2527215739246,1294.7543670469895,1294.7543670469895,1294.7543670469895,k,0.6381760609801859,,,,,,,,,,,,,,,,,,,,,,,,,,,,,,,,,,,,,,,,,,,,,63591,2022-11-17_11h26.51.896,vts_reward_expectancy_bt_OFFLINE,2022.2.4,60.082920153211575,
,,,,,,,,,,,,,,,,,,,,,,,,,,0,0,0,0,6,0,6,0,,,,,,,,,,,,,,,,,,,,,,,,,,,,,,,,,,,,,,,,,1301.5284600940067,125,D,hexagon,0.0013225858565419912,,,,,1,0,,,1,1300.0269073168747,,1297.9079047988635,1299.409725092817,1299.409725092817,1299.409725092817,j,0.5848228060640395,,,,,,,,,,,,,,,,,,,,,,,,,,,,,,,,,,,,,,,,,,,,,63591,2022-11-17_11h26.51.896,vts_reward_expectancy_bt_OFFLINE,2022.2.4,60.082920153211575,
,,,,,,,,,,,,,,,,,,,,,,,,,,0,0,0,0,7,0,7,0,,,,,,,,,,,,,,,,,,,,,,,,,,,,,,,,,,,,,,,,,1306.0502197849564,146,U,star,0.001168970949947834,,,,,1,0,,,1,1304.5483977179974,,1302.5130548889283,1304.0145270589273,1304.0145270589273,1304.0145270589273,k,0.5016854221466929,,,,,,,,,,,,,,,,,,,,,,,,,,,,,,,,,,,,,,,,,,,,,63591,2022-11-17_11h26.51.896,vts_reward_expectancy_bt_OFFLINE,2022.2.4,60.082920153211575,
,,,,,,,,,,,,,,,,,,,,,,,,,,0,0,0,0,8,0,8,0,,,,,,,,,,,,,,,,,,,,,,,,,,,,,,,,,,,,,,,,,1310.5884877028875,160,Y,star,0.0012350829783827066,,,,,1,0,,,1,1309.086696614977,,1307.0346446798649,1308.536237299908,1308.536237299908,1308.536237299908,k,0.5251006949692965,,,,,,,,,,,,,,,,,,,,,,,,,,,,,,,,,,,,,,,,,,,,,63591,2022-11-17_11h26.51.896,vts_reward_expectancy_bt_OFFLINE,2022.2.4,60.082920153211575,
,,,,,,,,,,,,,,,,,,,,,,,,,,0,0,0,0,9,0,9,0,,,,,,,,,,,,,,,,,,,,,,,,,,,,,,,,,,,,,,,,,1315.1268036297988,181,B,triangle,0.0013431280385702848,,,,,1,0,,,1,1313.6251498798374,,1311.5729079598095,1313.0746077769436,1313.0746077769436,1313.0746077769436,j,0.5215817501302809,,,,,,,,,,,,,,,,,,,,,,,,,,,,,,,,,,,,,,,,,,,,,63591,2022-11-17_11h26.51.896,vts_reward_expectancy_bt_OFFLINE,2022.2.4,60.082920153211575,
,,,,,,,,,,,,,,,,,,,,,,,,,,,,,,,,,,0,0,0,0,0,0,0,0,,,,,,,,,,,,,,,,,,,,,,,,,,,,0,954,,,,1349.097547618905,125,H,hexagon,0.0020941959228366613,,,,,1,0,,,2,,,,,,,,,1343.6749933089595,1343.6749933089595,1343.6749933089595,1343.6749933089595,1345.159891695017,1345.159891695017,1345.159891695017,1345.159891695017,1345.176831432851,1345.176831432851,1345.176831432851,1345.176831432851,-1,number,NA,d,2.41285008424893,vtsPrac,1347.6125472118147,,,,,,,,,,,,,,,,,,,,,,,,,,63591,2022-11-17_11h26.51.896,vts_reward_expectancy_bt_OFFLINE,2022.2.4,60.082920153211575,
,,,,,,,,,,,,,,,,,,,,,,,,,,,,,,,,,,0,0,0,0,1,0,1,0,,,,,,,,,,,,,,,,,,,,,,,,,,,,0,954,,,,1354.0363908819854,139,U,star,0.0010839959140866995,,,,,1,0,,,2,,,,,,,,,1350.0832971648779,1350.0832971648779,1350.0832971648779,1350.0832971648779,1351.5837832549587,1351.5837832549587,1351.5837832549587,1351.5837832549587,1351.5837832549587,1351.5837832549587,1351.5837832549587,1351.5837832549587,repeat,number,numRpt,d,0.9287276251707226,vtsPrac,1352.53459659894,,,,,,,,,,,,,,,,,,,,,,,,,,63591,2022-11-17_11h26.51.896,vts_reward_expectancy_bt_OFFLINE,2022.2.4,60.082920153211575,
,,,,,,,,,,,,,,,,,,,,,,,,,,,,,,,,,,0,0,0,0,2,0,2,0,,,,,,,,,,,,,,,,,,,,,,,,,,,,0,954,,,,1359.0084567128215,146,W,star,0.0012813990470021963,,,,,1,0,,,2,,,,,,,,,1355.0376461148262,1355.0376461148262,1355.0376461148262,1355.0376461148262,1356.5225949338637,1356.5225949338637,1356.5225949338637,1356.5225949338637,1356.5390822349582,1356.5390822349582,1356.5390822349582,1356.5390822349582,repeat,number,numRpt,d,0.9632319712545723,vtsPrac,1357.5069265000056,,,,,,,,,,,,,,,,,,,,,,,,,,63591,2022-11-17_11h26.51.896,vts_reward_expectancy_bt_OFFLINE,2022.2.4,60.082920153211575,
,,,,,,,,,,,,,,,,,,,,,,,,,,,,,,,,,,0,0,0,0,3,0,3,0,,,,,,,,,,,,,,,,,,,,,,,,,,,,0,954,,,,1363.5969853429124,181,Y,hexagon,0.0013317058328539133,,,,,1,0,,,2,,,,,,,,,1359.9937224229798,1359.9937224229798,1359.9937224229798,1359.9937224229798,1361.4945712150075,1361.4945712150075,1361.4945712150075,1361.4945712150075,1361.4945712150075,1361.4945712150075,1361.4945712150075,1361.4945712150075,switch,letter,lettSwt,k,0.5693786810152233,vtsPrac,1362.0954259489663,,,,,,,,,,,,,,,,,,,,,,,,,,63591,2022-11-17_11h26.51.896,vts_reward_expectancy_bt_OFFLINE,2022.2.4,60.082920153211575,
,,,,,,,,,,,,,,,,,,,,,,,,,,,,,,,,,,0,0,0,0,4,0,4,0,,,,,,,,,,,,,,,,,,,,,,,,,,,,0,954,,,,1368.2687773238868,125,H,triangle,0.0010195928625762463,,,,,1,0,,,2,,,,,,,,,1364.5816616169177,1364.5816616169177,1364.5816616169177,1364.5816616169177,1366.0831532978918,1366.0831532978918,1366.0831532978918,1366.0831532978918,1366.0831532978918,1366.0831532978918,1366.0831532978918,1366.0831532978918,switch,number,numSwt,d,0.6517681810073555,vtsPrac,1366.76711462182,,,,,,,,,,,,,,,,,,,,,,,,,,63591,2022-11-17_11h26.51.896,vts_reward_expectancy_bt_OFFLINE,2022.2.4,60.082920153211575,
,,,,,,,,,,,,,,,,,,,,,,,,,,,,,,,,,,0,0,0,0,5,0,5,0,,,,,,,,,,,,,,,,,,,,,,,,,,,,0,954,,,,1373.1908688738476,139,U,circle,0.001141376793384552,,,,,1,0,,,2,,,,,,,,,1369.2533909468912,1369.2533909468912,1369.2533909468912,1369.2533909468912,1370.7548663839698,1370.7548663839698,1370.7548663839698,1370.7548663839698,1370.7548663839698,1370.7548663839698,1370.7548663839698,1370.7548663839698,switch,letter,lettSwt,k,0.9071207132656127,vtsPrac,1371.689192303922,,,,,,,,,,,,,,,,,,,,,,,,,,63591,2022-11-17_11h26.51.896,vts_reward_expectancy_bt_OFFLINE,2022.2.4,60.082920153211575,
,,,,,,,,,,,,,,,,,,,,,,,,,,,,,,,,,,0,0,0,0,6,0,6,0,,,,,,,,,,,,,,,,,,,,,,,,,,,,0,954,,,,1377.7457981049083,146,W,star,0.0012048149947077036,,,,,1,0,,,2,,,,,,,,,1374.1754432118032,1374.1754432118032,1374.1754432118032,1374.1754432118032,1375.6771172499284,1375.6771172499284,1375.6771172499284,1375.6771172499284,1375.6771172499284,1375.6771172499284,1375.6771172499284,1375.6771172499284,repeat,letter,lettRpt,k,0.5402308842167258,vtsPrac,1376.244459962938,,,,,,,,,,,,,,,,,,,,,,,,,,63591,2022-11-17_11h26.51.896,vts_reward_expectancy_bt_OFFLINE,2022.2.4,60.082920153211575,
,,,,,,,,,,,,,,,,,,,,,,,,,,,,,,,,,,0,0,0,0,7,0,7,0,,,,,,,,,,,,,,,,,,,,,,,,,,,,0,954,,,,1382.267631542869,181,Y,hexagon,0.001422565896064043,,,,,1,0,,,2,,,,,,,,,1378.7303729699925,1378.7303729699925,1378.7303729699925,1378.7303729699925,1380.2320405978244,1380.2320405978244,1380.2320405978244,1380.2320405978244,1380.2320405978244,1380.2320405978244,1380.2320405978244,1380.2320405978244,switch,number,numSwt,f,0.5081254153046757,vtsPrac,1380.765871600015,,,,,,,,,,,,,,,,,,,,,,,,,,63591,2022-11-17_11h26.51.896,vts_reward_expectancy_bt_OFFLINE,2022.2.4,60.082920153211575,
,,,,,,,,,,,,,,,,,,,,,,,,,,,,,,,,,,0,0,0,0,8,0,8,0,,,,,,,,,,,,,,,,,,,,,,,,,,,,0,954,,,,1387.223014274845,132,H,triangle,0.001262530917301774,,,,,1,0,,,2,,,,,,,,,1383.252132161986,1383.252132161986,1383.252132161986,1383.252132161986,1384.753597453935,1384.753597453935,1384.753597453935,1384.753597453935,1384.753597453935,1384.753597453935,1384.753597453935,1384.753597453935,switch,letter,lettSwt,j,0.9500332123134285,vtsPrac,1385.7212452779058,1387.223014274845,,,,,,,,,,,,,,,,,,,,,,,,,63591,2022-11-17_11h26.51.896,vts_reward_expectancy_bt_OFFLINE,2022.2.4,60.082920153211575,
,,,,,,,,,,,,,,,,,,,,,,,,,,,,,,,,,,0,0,0,0,9,0,9,0,,,,,,,,,,,,,,,,,,,,,,,,,,,,0,954,,,,1391.628010412911,139,B,star,0.001050274120643735,,,,,1,0,,,2,,,,,,,,,1388.2079977898393,1388.2079977898393,1388.2079977898393,1388.2079977898393,1389.7091642348096,1389.7091642348096,1389.7091642348096,1389.7091642348096,1389.7091642348096,1389.7091642348096,1389.7091642348096,1389.7091642348096,repeat,letter,lettRpt,j,0.3926074272021651,vtsPrac,1390.1263789488003,,,,,,,,,,,,,,,,,,,,,,,,,,63591,2022-11-17_11h26.51.896,vts_reward_expectancy_bt_OFFLINE,2022.2.4,60.082920153211575,
,,,,,,,,,,,,,,,,,,,,,,,,,,,,,,,,,,0,0,0,0,10,0,10,0,,,,,,,,,,,,,,,,,,,,,,,,,,,,0,954,,,,1396.3496208498254,167,U,circle,0.001229021931067109,,,,,1,0,,,2,,,,,,,,,1392.6126618348062,1392.6126618348062,1392.6126618348062,1392.6126618348062,1394.1138493379112,1394.1138493379112,1394.1138493379112,1394.1138493379112,1394.1138493379112,1394.1138493379112,1394.1138493379112,1394.1138493379112,switch,number,numSwt,f,0.7017919472418725,vtsPrac,1394.8479433190078,,,,,,,,,,,,,,,,,,,,,,,,,,63591,2022-11-17_11h26.51.896,vts_reward_expectancy_bt_OFFLINE,2022.2.4,60.082920153211575,
,,,,,,,,,,,,,,,,,,,,,,,,,,,,,,,,,,0,0,0,0,11,0,11,0,,,,,,,,,,,,,,,,,,,,,,,,,,,,0,954,,,,1401.6722906788345,160,D,triangle,0.0011768350377678871,,,,,1,0,,,2,,,,,,,,,1397.3347332989797,1397.3347332989797,1397.3347332989797,1397.3347332989797,1398.83580712392,1398.83580712392,1398.83580712392,1398.83580712392,1398.83580712392,1398.83580712392,1398.83580712392,1398.83580712392,switch,letter,lettSwt,j,1.3126448011025786,vtsPrac,1400.1705685148481,,,,,,,,,,,,,,,,,,,,,,,,,,63591,2022-11-17_11h26.51.896,vts_reward_expectancy_bt_OFFLINE,2022.2.4,60.082920153211575,
,,,,,,,,,,,,,,,,,,,,,,,,,,,,,,,,,,0,0,0,0,12,0,12,0,,,,,,,,,,,,,,,,,,,,,,,,,,,,0,954,,,,1406.3607488938142,167,D,triangle,0.001199440099298954,,,,,1,0,,,2,,,,,,,,,1402.656548029976,1402.656548029976,1402.656548029976,1402.656548029976,1404.158329329919,1404.158329329919,1404.158329329919,1404.158329329919,1404.158329329919,1404.158329329919,1404.158329329919,1404.158329329919,repeat,letter,lettRpt,j,0.6707653510384262,vtsPrac,1404.859140119981,,,,,,,,,,,,,,,,,,,,,,,,,,63591,2022-11-17_11h26.51.896,vts_reward_expectancy_bt_OFFLINE,2022.2.4,60.082920153211575,
,,,,,,,,,,,,,,,,,,,,,,,,,,,,,,,,,,0,0,0,0,13,0,13,0,,,,,,,,,,,,,,,,,,,,,,,,,,,,0,954,,,,1411.2829070738517,125,F,circle,0.001128060044720769,,,,,1,0,,,2,,,,,,,,,1407.3449698428158,1407.3449698428158,1407.3449698428158,1407.3449698428158,1408.8469865219668,1408.8469865219668,1408.8469865219668,1408.8469865219668,1408.8469865219668,1408.8469865219668,1408.8469865219668,1408.8469865219668,switch,number,numSwt,d,0.9097707602195442,vtsPrac,1409.781317323912,,,,,,,,,,,,,,,,,,,,,,,,,,63591,2022-11-17_11h26.51.896,vts_reward_expectancy_bt_OFFLINE,2022.2.4,60.082920153211575,
,,,,,,,,,,,,,,,,,,,,,,,,,,,,,,,,,,0,0,0,0,14,0,14,0,,,,,,,,,,,,,,,,,,,,,,,,,,,,0,954,,,,1415.9712941399775,174,S,triangle,0.0008767740800976753,,,,,1,0,,,2,,,,,,,,,1412.2673239528667,1412.2673239528667,1412.2673239528667,1412.2673239528667,1413.768899817951,1413.768899817951,1413.768899817951,1413.768899817951,1413.768899817951,1413.768899817951,1413.768899817951,1413.768899817951,repeat,number,numRpt,f,0.6685263582039624,vtsPrac,1414.469652483007,,,,,,,,,,,,,,,,,,,,,,,,,,63591,2022-11-17_11h26.51.896,vts_reward_expectancy_bt_OFFLINE,2022.2.4,60.082920153211575,
,,,,,,,,,,,,,,,,,,,,,,,,,,,,,,,,,,0,0,0,0,15,0,15,0,,,,,,,,,,,,,,,,,,,,,,,,,,,,0,954,,,,1420.6765436118003,160,H,star,0.0012264170218259096,,,,,1,0,,,2,,,,,,,,,1416.9557271068916,1416.9557271068916,1416.9557271068916,1416.9557271068916,1418.4574487879872,1418.4574487879872,1418.4574487879872,1418.4574487879872,1418.4574487879872,1418.4574487879872,1418.4574487879872,1418.4574487879872,switch,letter,lettSwt,j,0.6939027362968773,vtsPrac,1419.1749717779458,,,,,,,,,,,,,,,,,,,,,,,,,,63591,2022-11-17_11h26.51.896,vts_reward_expectancy_bt_OFFLINE,2022.2.4,60.082920153211575,
,,,,,,,,,,,,,,,,,,,,,,,,,,,,,,,,,,0,0,0,0,16,0,16,0,,,,,,,,,,,,,,,,,,,,,,,,,,,,0,954,,,,1425.2649494579528,167,D,hexagon,0.0012257350608706474,,,,,1,0,,,2,,,,,,,,,1421.6611000678968,1421.6611000678968,1421.6611000678968,1421.6611000678968,1423.1628631139174,1423.1628631139174,1423.1628631139174,1423.1628631139174,1423.1628631139174,1423.1628631139174,1423.1628631139174,1423.1628631139174,switch,number,numSwt,f,0.5683336963411421,vtsPrac,1423.7633727048524,,,,,,,,,,,,,,,,,,,,,,,,,,63591,2022-11-17_11h26.51.896,vts_reward_expectancy_bt_OFFLINE,2022.2.4,60.082920153211575,
,,,,,,,,,,,,,,,,,,,,,,,,,,,,,,,,,,0,0,0,0,17,0,17,0,,,,,,,,,,,,,,,,,,,,,,,,,,,,0,954,,,,1429.8701633948367,181,S,star,0.0014764848165214062,,,,,1,0,,,2,,,,,,,,,1426.249453454977,1426.249453454977,1426.249453454977,1426.249453454977,1427.7510539528448,1427.7510539528448,1427.7510539528448,1427.7510539528448,1427.7510539528448,1427.7510539528448,1427.7510539528448,1427.7510539528448,repeat,number,numRpt,f,0.5914426019880921,vtsPrac,1428.3685589788947,1429.8701633948367,,,,,,,,,,,,,,,,,,,,,,,,,63591,2022-11-17_11h26.51.896,vts_reward_expectancy_bt_OFFLINE,2022.2.4,60.082920153211575,
,,,,,,,,,,,,,,,,,,,,,,,,,,,,,,,,,,0,0,0,0,18,0,18,0,,,,,,,,,,,,,,,,,,,,,,,,,,,,0,954,,,,1434.4919052380137,160,F,triangle,0.0008945839945226908,,,,,1,0,,,2,,,,,,,,,1430.8545916839503,1430.8545916839503,1430.8545916839503,1430.8545916839503,1432.356076342985,1432.356076342985,1432.356076342985,1432.356076342985,1432.356076342985,1432.356076342985,1432.356076342985,1432.356076342985,switch,letter,lettSwt,j,0.6110358983278275,vtsPrac,1432.9899316870142,,,,,,,,,,,,,,,,,,,,,,,,,,63591,2022-11-17_11h26.51.896,vts_reward_expectancy_bt_OFFLINE,2022.2.4,60.082920153211575,
,,,,,,,,,,,,,,,,,,,,,,,,,,,,,,,,,,0,0,0,0,19,0,19,0,,,,,,,,,,,,,,,,,,,,,,,,,,,,0,954,,,,1439.1804269789718,139,B,star,0.0014576460234820843,,,,,1,0,,,2,,,,,,,,,1435.4761887548957,1435.4761887548957,1435.4761887548957,1435.4761887548957,1436.9778637147974,1436.9778637147974,1436.9778637147974,1436.9778637147974,1436.9778637147974,1436.9778637147974,1436.9778637147974,1436.9778637147974,repeat,letter,lettRpt,j,0.6816663641948253,vtsPrac,1437.6788579178974,,,,,,,,,,,,,,,,,,,,,,,,,,63591,2022-11-17_11h26.51.896,vts_reward_expectancy_bt_OFFLINE,2022.2.4,60.082920153211575,
,,,,,,,,,,,,,,,,,,,,,,,,,,,,,,,,,,0,0,0,0,20,0,20,0,,,,,,,,,,,,,,,,,,,,,,,,,,,,0,954,,,,1443.81871537189,139,D,triangle,0.001228964887559414,,,,,1,0,,,2,,,,,,,,,1440.1648807278834,1440.1648807278834,1440.1648807278834,1440.1648807278834,1441.666408922989,1441.666408922989,1441.666408922989,1441.666408922989,1441.666408922989,1441.666408922989,1441.666408922989,1441.666408922989,repeat,letter,lettRpt,j,0.6184461480006576,vtsPrac,1442.317396302009,,,,,,,,,,,,,,,,,,,,,,,,,,63591,2022-11-17_11h26.51.896,vts_reward_expectancy_bt_OFFLINE,2022.2.4,60.082920153211575,
,,,,,,,,,,,,,,,,,,,,,,,,,,,,,,,,,,0,0,0,0,21,0,21,0,,,,,,,,,,,,,,,,,,,,,,,,,,,,0,954,,,,1448.4404704039916,132,S,circle,0.0011258418671786785,,,,,1,0,,,2,,,,,,,,,1444.8032832238823,1444.8032832238823,1444.8032832238823,1444.8032832238823,1446.304706163006,1446.304706163006,1446.304706163006,1446.304706163006,1446.304706163006,1446.304706163006,1446.304706163006,1446.304706163006,repeat,letter,lettRpt,k,0.6137978592887521,vtsPrac,1446.9388385037892,1448.4404704039916,,,,,,,,,,,,,,,,,,,,,,,,,63591,2022-11-17_11h26.51.896,vts_reward_expectancy_bt_OFFLINE,2022.2.4,60.082920153211575,
,,,,,,,,,,,,,,,,,,,,,,,,,,,,,,,,,,0,0,0,0,22,0,22,0,,,,,,,,,,,,,,,,,,,,,,,,,,,,0,954,,,,1453.4126847540028,146,F,hexagon,0.0009619260672479868,,,,,1,0,,,2,,,,,,,,,1449.4250338149723,1449.4250338149723,1449.4250338149723,1449.4250338149723,1450.9268014768604,1450.9268014768604,1450.9268014768604,1450.9268014768604,1450.9268014768604,1450.9268014768604,1450.9268014768604,1450.9268014768604,switch,number,numSwt,d,0.9524397721979767,vtsPrac,1451.9108934169635,,,,,,,,,,,,,,,,,,,,,,,,,,63591,2022-11-17_11h26.51.896,vts_reward_expectancy_bt_OFFLINE,2022.2.4,60.082920153211575,
,,,,,,,,,,,,,,,,,,,,,,,,,,,,,,,,,,0,0,0,0,23,0,23,0,,,,,,,,,,,,,,,,,,,,,,,,,,,,0,954,,,,1457.9010517518036,160,W,circle,0.0013659039977937937,,,,,1,0,,,2,,,,,,,,,1454.3971260348335,1454.3971260348335,1454.3971260348335,1454.3971260348335,1455.8989738968667,1455.8989738968667,1455.8989738968667,1455.8989738968667,1455.8989738968667,1455.8989738968667,1455.8989738968667,1455.8989738968667,switch,letter,lettSwt,k,0.48222152702510357,vtsPrac,1456.3994706969243,,,,,,,,,,,,,,,,,,,,,,,,,,63591,2022-11-17_11h26.51.896,vts_reward_expectancy_bt_OFFLINE,2022.2.4,60.082920153211575,
,,,,,,,,,,,,,,,,,,,,,,,,,,,,,,,,,,0,0,0,0,24,0,24,0,,,,,,,,,,,,,,,,,,,,,,,,,,,,0,954,,,,1462.5561608488206,125,F,star,0.001097697066143155,,,,,1,0,,,2,,,,,,,,,1458.8855224598665,1458.8855224598665,1458.8855224598665,1458.8855224598665,1460.3871122777928,1460.3871122777928,1460.3871122777928,1460.3871122777928,1460.3871122777928,1460.3871122777928,1460.3871122777928,1460.3871122777928,switch,number,numSwt,d,0.6400924441404641,vtsPrac,1461.0546644588467,1462.5561608488206,,,,,,,,,,,,,,,,,,,,,,,,,63591,2022-11-17_11h26.51.896,vts_reward_expectancy_bt_OFFLINE,2022.2.4,60.082920153211575,
,,,,,,,,,,,,,,,,,,,,,,,,,,,,,,,,,,0,0,0,0,25,0,25,0,,,,,,,,,,,,,,,,,,,,,,,,,,,,0,954,,,,1467.2278417618945,181,W,hexagon,0.0011983539443463087,,,,,1,0,,,2,,,,,,,,,1463.5404610119294,1463.5404610119294,1463.5404610119294,1463.5404610119294,1465.0421131588519,1465.0421131588519,1465.0421131588519,1465.0421131588519,1465.0421131588519,1465.0421131588519,1465.0421131588519,1465.0421131588519,repeat,number,numRpt,f,0.6530124822165817,vtsPrac,1465.7261653440073,,,,,,,,,,,,,,,,,,,,,,,,,,63591,2022-11-17_11h26.51.896,vts_reward_expectancy_bt_OFFLINE,2022.2.4,60.082920153211575,
,,,,,,,,,,,,,,,,,,,,,,,,,,,,,,,,,,0,0,0,0,26,0,26,0,,,,,,,,,,,,,,,,,,,,,,,,,,,,0,954,,,,1472.2167850469705,160,D,star,0.001079755136743188,,,,,1,0,,,2,,,,,,,,,1468.2122531789355,1468.2122531789355,1468.2122531789355,1468.2122531789355,1469.7139892219566,1469.7139892219566,1469.7139892219566,1469.7139892219566,1469.7139892219566,1469.7139892219566,1469.7139892219566,1469.7139892219566,repeat,number,numRpt,f,0.9686953332275152,vtsPrac,1470.7150365589187,,,,,,,,,,,,,,,,,,,,,,,,,,63591,2022-11-17_11h26.51.896,vts_reward_expectancy_bt_OFFLINE,2022.2.4,60.082920153211575,
,,,,,,,,,,,,,,,,,,,,,,,,,,,,,,,,,,0,0,0,0,27,0,27,0,,,,,,,,,,,,,,,,,,,,,,,,,,,,0,954,,,,1476.855238377815,132,U,hexagon,0.0012740141246467829,,,,,1,0,,,2,,,,,,,,,1473.2013158798218,1473.2013158798218,1473.2013158798218,1473.2013158798218,1474.7027735938318,1474.7027735938318,1474.7027735938318,1474.7027735938318,1474.7027735938318,1474.7027735938318,1474.7027735938318,1474.7027735938318,repeat,number,numRpt,d,0.6243688073009253,vtsPrac,1475.353552673012,,,,,,,,,,,,,,,,,,,,,,,,,,63591,2022-11-17_11h26.51.896,vts_reward_expectancy_bt_OFFLINE,2022.2.4,60.082920153211575,
,,,,,,,,,,,,,,,,,,,,,,,,,,,,,,,,,,0,0,0,0,28,0,28,0,,,,,,,,,,,,,,,,,,,,,,,,,,,,0,954,,,,1481.6438224839512,181,S,hexagon,0.001460839994251728,,,,,1,0,,,2,,,,,,,,,1477.8397658797912,1477.8397658797912,1477.8397658797912,1477.8397658797912,1479.3413807989564,1479.3413807989564,1479.3413807989564,1479.3413807989564,1479.3413807989564,1479.3413807989564,1479.3413807989564,1479.3413807989564,switch,letter,lettSwt,k,0.7781626642681658,vtsPrac,1480.1421263138764,,,,,,,,,,,,,,,,,,,,,,,,,,63591,2022-11-17_11h26.51.896,vts_reward_expectancy_bt_OFFLINE,2022.2.4,60.082920153211575,
,,,,,,,,,,,,,,,,,,,,,,,,,,,,,,,,,,0,0,0,0,29,0,29,0,,,,,,,,,,,,,,,,,,,,,,,,,,,,0,954,,,,1486.2491474149283,146,W,star,0.0010720670688897371,,,,,1,0,,,2,,,,,,,,,1482.6282777169254,1482.6282777169254,1482.6282777169254,1482.6282777169254,1484.1299948138185,1484.1299948138185,1484.1299948138185,1484.1299948138185,1484.1299948138185,1484.1299948138185,1484.1299948138185,1484.1299948138185,repeat,letter,lettRpt,k,0.5915283120702952,vtsPrac,1484.7474351238925,1486.2491474149283,,,,,,,,,,,,,,,,,,,,,,,,,63591,2022-11-17_11h26.51.896,vts_reward_expectancy_bt_OFFLINE,2022.2.4,60.082920153211575,
,,,,,,,,,,,,,,,,,,,,,,,,,,,,,,,,,,0,0,0,0,30,0,30,0,,,,,,,,,,,,,,,,,,,,,,,,,,,,0,954,,,,1490.9039652638603,160,F,hexagon,0.0009976690635085106,,,,,1,0,,,2,,,,,,,,,1487.2334124138579,1487.2334124138579,1487.2334124138579,1487.2334124138579,1488.7349492989015,1488.7349492989015,1488.7349492989015,1488.7349492989015,1488.7349492989015,1488.7349492989015,1488.7349492989015,1488.7349492989015,switch,number,numSwt,f,0.6346522651147097,vtsPrac,1489.4023237638175,,,,,,,,,,,,,,,,,,,,,,,,,,63591,2022-11-17_11h26.51.896,vts_reward_expectancy_bt_OFFLINE,2022.2.4,60.082920153211575,
