LTriangleOpac,LCircleOpac,LHexagonOpac,LStarOpac,RTriangleOpac,RCircleOpac,RHexagonOpac,RStarOpac,LShape_ID,RShape_ID,training_blocks.thisRepN,training_blocks.thisTrialN,training_blocks.thisN,training_blocks.thisIndex,training.thisRepN,training.thisTrialN,training.thisN,training.thisIndex,task1_prac_redo.thisRepN,task1_prac_redo.thisTrialN,task1_prac_redo.thisN,task1_prac_redo.thisIndex,task1_prac_trials.thisRepN,task1_prac_trials.thisTrialN,task1_prac_trials.thisN,task1_prac_trials.thisIndex,task2_prac_redo.thisRepN,task2_prac_redo.thisTrialN,task2_prac_redo.thisN,task2_prac_redo.thisIndex,task2_praac_trials.thisRepN,task2_praac_trials.thisTrialN,task2_praac_trials.thisN,task2_praac_trials.thisIndex,vts_prac_redo.thisRepN,vts_prac_redo.thisTrialN,vts_prac_redo.thisN,vts_prac_redo.thisIndex,vts_practice_trials.thisRepN,vts_practice_trials.thisTrialN,vts_practice_trials.thisN,vts_practice_trials.thisIndex,trials_norew.thisRepN,trials_norew.thisTrialN,trials_norew.thisN,trials_norew.thisIndex,block.thisRepN,block.thisTrialN,block.thisN,block.thisIndex,trials_rew.thisRepN,trials_rew.thisTrialN,trials_rew.thisN,trials_rew.thisIndex,key_resp.started,key_resp.keys,key_resp.rt,left_circle.started,right_circle.started,left_triangle.started,right_triangle.started,left_star.started,right_star.started,left_hexagon.started,right_hexagon.started,training_fix.started,training_resp.started,training_resp.keys,training_resp.rt,points_trial,points_cumul,trainBlock,training_feedback_txt.started,fix.started,curr_topStim,curr_bottStim,curr_shape,ISI.started,tgt_fix_prac1.started,top_target_prac1.started,bott_target_prac1.started,target_resp_prac1.started,top_target_prac1.stopped,tgt_fix_prac1.stopped,bott_target_prac1.stopped,target_resp_prac1.stopped,acc,E1,target_resp_prac1.keys,pracBlock,prac_fback_text.started,prac_fback_text.stopped,fix.stopped,target_resp_prac1.rt,tgt_fix_prac2.started,top_target_prac2.started,bott_target_prac2.started,target_resp_prac2.started,target_resp_prac2.keys,target_resp_prac2.rt,star.started,hegagon.started,triangle.started,circle.started,star.stopped,hegagon.stopped,triangle.stopped,circle.stopped,top_target.started,tgt_fix.started,bot_target.started,target_resp.started,alt,task,condition,target_resp.keys,target_resp.rt,rewCond,vts_fback.started,blockNum,norew_fback.started,norew_fback.stopped,key_resp_2.keys,key_resp_2.rt,rewExpectancy,feedbk_text.started,feedbk_text.stopped,text_3.started,debrief.started,text_3.stopped,button.started,debrief.index,debrief.itemText,debrief.type,debrief.granularity,debrief.font,debrief.markerColor,debrief.response,debrief.rt,button.numClicks,button.timesOn,button.timesOff,participant,date,expName,psychopyVersion,frameRate,
,,,,,,,,,,,,,,,,,,,,,,,,,,,,,,,,,,,,,,,,,,,,,,,,,,,,,,20.584251598018454,space,13.742819962004432,,,,,,,,,,,,,,,,,,,,,,,,,,,,,,,,,,,,,,,,,,,,,,,,,,,,,,,,,,,,,,,,,,,,,,,,,,,,,,,,,,,,,,64187,2022-11-11_08h57.55.025,vts_reward_expectancy_bt_OFFLINE,2022.2.4,59.9276631181076,
0,1,0,0,0,0,1,0,circle,hexagon,0,0,0,0,0,0,0,4,,,,,,,,,,,,,,,,,,,,,,,,,,,,,,,,,,,,,,,,57.59536224300973,57.59536224300973,57.59536224300973,57.59536224300973,57.59536224300973,57.59536224300973,57.59536224300973,57.59536224300973,57.59536224300973,57.59536224300973,l,2.9538799930014648,10,10,0,60.573683324008016,62.07542635401478,,,,,,,,,,,,,,,,,,,,,,,,,,,,,,,,,,,,,,,,,,,,,,,,,,,,,,,,,,,,,,,,,,,,,64187,2022-11-11_08h57.55.025,vts_reward_expectancy_bt_OFFLINE,2022.2.4,59.9276631181076,
1,0,0,0,0,0,1,0,triangle,hexagon,0,0,0,0,0,1,1,1,,,,,,,,,,,,,,,,,,,,,,,,,,,,,,,,,,,,,,,,62.57590528400033,62.57590528400033,62.57590528400033,62.57590528400033,62.57590528400033,62.57590528400033,62.57590528400033,62.57590528400033,62.57590528400033,62.57590528400033,l,0.9337632579845376,1,11,0,63.52694346400676,65.02877146800165,,,,,,,,,,,,,,,,,,,,,,,,,,,,,,,,,,,,,,,,,,,,,,,,,,,,,,,,,,,,,,,,,,,,,64187,2022-11-11_08h57.55.025,vts_reward_expectancy_bt_OFFLINE,2022.2.4,59.9276631181076,
0,1,0,0,0,0,0,1,circle,star,0,0,0,0,0,2,2,5,,,,,,,,,,,,,,,,,,,,,,,,,,,,,,,,,,,,,,,,65.5292404530046,65.5292404530046,65.5292404530046,65.5292404530046,65.5292404530046,65.5292404530046,65.5292404530046,65.5292404530046,65.5292404530046,65.5292404530046,l,0.961622875998728,10,21,0,66.51372758302023,68.01538165501552,,,,,,,,,,,,,,,,,,,,,,,,,,,,,,,,,,,,,,,,,,,,,,,,,,,,,,,,,,,,,,,,,,,,,64187,2022-11-11_08h57.55.025,vts_reward_expectancy_bt_OFFLINE,2022.2.4,59.9276631181076,
1,0,0,0,0,1,0,0,triangle,circle,0,0,0,0,0,3,3,0,,,,,,,,,,,,,,,,,,,,,,,,,,,,,,,,,,,,,,,,68.51593545501237,68.51593545501237,68.51593545501237,68.51593545501237,68.51593545501237,68.51593545501237,68.51593545501237,68.51593545501237,68.51593545501237,68.51593545501237,a,1.49593322299188,1,22,0,70.03433223199681,71.53589500000817,,,,,,,,,,,,,,,,,,,,,,,,,,,,,,,,,,,,,,,,,,,,,,,,,,,,,,,,,,,,,,,,,,,,,64187,2022-11-11_08h57.55.025,vts_reward_expectancy_bt_OFFLINE,2022.2.4,59.9276631181076,
0,0,1,0,0,1,0,0,hexagon,circle,0,0,0,0,0,4,4,7,,,,,,,,,,,,,,,,,,,,,,,,,,,,,,,,,,,,,,,,72.03665345499758,72.03665345499758,72.03665345499758,72.03665345499758,72.03665345499758,72.03665345499758,72.03665345499758,72.03665345499758,72.03665345499758,72.03665345499758,a,1.2363696289830841,10,32,0,73.30440214500413,74.80605952301994,,,,,,,,,,,,,,,,,,,,,,,,,,,,,,,,,,,,,,,,,,,,,,,,,,,,,,,,,,,,,,,,,,,,,64187,2022-11-11_08h57.55.025,vts_reward_expectancy_bt_OFFLINE,2022.2.4,59.9276631181076,
0,0,1,0,0,0,0,1,hexagon,star,0,0,0,0,0,5,5,8,,,,,,,,,,,,,,,,,,,,,,,,,,,,,,,,,,,,,,,,75.30673012000625,75.30673012000625,75.30673012000625,75.30673012000625,75.30673012000625,75.30673012000625,75.30673012000625,75.30673012000625,75.30673012000625,75.30673012000625,l,1.3877790920087136,10,42,0,76.72510059800697,78.22654967400013,,,,,,,,,,,,,,,,,,,,,,,,,,,,,,,,,,,,,,,,,,,,,,,,,,,,,,,,,,,,,,,,,,,,,64187,2022-11-11_08h57.55.025,vts_reward_expectancy_bt_OFFLINE,2022.2.4,59.9276631181076,
0,1,0,0,1,0,0,0,circle,triangle,0,0,0,0,0,6,6,3,,,,,,,,,,,,,,,,,,,,,,,,,,,,,,,,,,,,,,,,78.72718825002084,78.72718825002084,78.72718825002084,78.72718825002084,78.72718825002084,78.72718825002084,78.72718825002084,78.72718825002084,78.72718825002084,78.72718825002084,l,1.071806699008448,1,43,0,79.82828673301265,81.32997704599984,,,,,,,,,,,,,,,,,,,,,,,,,,,,,,,,,,,,,,,,,,,,,,,,,,,,,,,,,,,,,,,,,,,,,64187,2022-11-11_08h57.55.025,vts_reward_expectancy_bt_OFFLINE,2022.2.4,59.9276631181076,
0,0,0,1,0,0,1,0,star,hexagon,0,0,0,0,0,7,7,11,,,,,,,,,,,,,,,,,,,,,,,,,,,,,,,,,,,,,,,,81.83062951700413,81.83062951700413,81.83062951700413,81.83062951700413,81.83062951700413,81.83062951700413,81.83062951700413,81.83062951700413,81.83062951700413,81.83062951700413,l,1.3336302009993233,1,44,0,83.18216770800063,84.68357841300895,,,,,,,,,,,,,,,,,,,,,,,,,,,,,,,,,,,,,,,,,,,,,,,,,,,,,,,,,,,,,,,,,,,,,64187,2022-11-11_08h57.55.025,vts_reward_expectancy_bt_OFFLINE,2022.2.4,59.9276631181076,
1,0,0,0,0,0,0,1,triangle,star,0,0,0,0,0,8,8,2,,,,,,,,,,,,,,,,,,,,,,,,,,,,,,,,,,,,,,,,85.18416714301566,85.18416714301566,85.18416714301566,85.18416714301566,85.18416714301566,85.18416714301566,85.18416714301566,85.18416714301566,85.18416714301566,85.18416714301566,l,1.0512166660046205,10,54,0,86.25212758799898,87.75359697800013,,,,,,,,,,,,,,,,,,,,,,,,,,,,,,,,,,,,,,,,,,,,,,,,,,,,,,,,,,,,,,,,,,,,,64187,2022-11-11_08h57.55.025,vts_reward_expectancy_bt_OFFLINE,2022.2.4,59.9276631181076,
0,0,1,0,1,0,0,0,hexagon,triangle,0,0,0,0,0,9,9,6,,,,,,,,,,,,,,,,,,,,,,,,,,,,,,,,,,,,,,,,88.25422530900687,88.25422530900687,88.25422530900687,88.25422530900687,88.25422530900687,88.25422530900687,88.25422530900687,88.25422530900687,88.25422530900687,88.25422530900687,a,1.1857436129939742,10,64,0,89.47225510101998,90.9740879489982,,,,,,,,,,,,,,,,,,,,,,,,,,,,,,,,,,,,,,,,,,,,,,,,,,,,,,,,,,,,,,,,,,,,,64187,2022-11-11_08h57.55.025,vts_reward_expectancy_bt_OFFLINE,2022.2.4,59.9276631181076,
0,0,0,1,1,0,0,0,star,triangle,0,0,0,0,0,10,10,9,,,,,,,,,,,,,,,,,,,,,,,,,,,,,,,,,,,,,,,,91.47457489400404,91.47457489400404,91.47457489400404,91.47457489400404,91.47457489400404,91.47457489400404,91.47457489400404,91.47457489400404,91.47457489400404,91.47457489400404,a,0.7341393830138259,10,74,0,92.24175155800185,93.74386849900475,,,,,,,,,,,,,,,,,,,,,,,,,,,,,,,,,,,,,,,,,,,,,,,,,,,,,,,,,,,,,,,,,,,,,64187,2022-11-11_08h57.55.025,vts_reward_expectancy_bt_OFFLINE,2022.2.4,59.9276631181076,
0,0,0,1,0,1,0,0,star ,circle,0,0,0,0,0,11,11,10,,,,,,,,,,,,,,,,,,,,,,,,,,,,,,,,,,,,,,,,94.24438097301754,94.24438097301754,94.24438097301754,94.24438097301754,94.24438097301754,94.24438097301754,94.24438097301754,94.24438097301754,94.24438097301754,94.24438097301754,a,0.5406889650039375,10,84,0,94.81165917901671,96.31325470100273,,,,,,,,,,,,,,,,,,,,,,,,,,,,,,,,,,,,,,,,,,,,,,,,,,,,,,,,,,,,,,,,,,,,,64187,2022-11-11_08h57.55.025,vts_reward_expectancy_bt_OFFLINE,2022.2.4,59.9276631181076,
0,0,1,0,0,1,0,0,hexagon,circle,0,0,0,0,1,0,12,7,,,,,,,,,,,,,,,,,,,,,,,,,,,,,,,,,,,,,,,,96.81371353301802,96.81371353301802,96.81371353301802,96.81371353301802,96.81371353301802,96.81371353301802,96.81371353301802,96.81371353301802,96.81371353301802,96.81371353301802,l,0.8401280890102498,1,85,0,97.6813721290091,99.18300531400018,,,,,,,,,,,,,,,,,,,,,,,,,,,,,,,,,,,,,,,,,,,,,,,,,,,,,,,,,,,,,,,,,,,,,64187,2022-11-11_08h57.55.025,vts_reward_expectancy_bt_OFFLINE,2022.2.4,59.9276631181076,
0,1,0,0,0,0,1,0,circle,hexagon,0,0,0,0,1,1,13,4,,,,,,,,,,,,,,,,,,,,,,,,,,,,,,,,,,,,,,,,99.6835072870017,99.6835072870017,99.6835072870017,99.6835072870017,99.6835072870017,99.6835072870017,99.6835072870017,99.6835072870017,99.6835072870017,99.6835072870017,l,1.1314973419939633,1,86,0,100.83475178701337,102.33646461300668,,,,,,,,,,,,,,,,,,,,,,,,,,,,,,,,,,,,,,,,,,,,,,,,,,,,,,,,,,,,,,,,,,,,,64187,2022-11-11_08h57.55.025,vts_reward_expectancy_bt_OFFLINE,2022.2.4,59.9276631181076,
0,0,0,1,1,0,0,0,star,triangle,0,0,0,0,1,2,14,9,,,,,,,,,,,,,,,,,,,,,,,,,,,,,,,,,,,,,,,,102.83711583600962,102.83711583600962,102.83711583600962,102.83711583600962,102.83711583600962,102.83711583600962,102.83711583600962,102.83711583600962,102.83711583600962,102.83711583600962,a,0.779341221001232,10,96,0,103.63783135201083,105.1395571269968,,,,,,,,,,,,,,,,,,,,,,,,,,,,,,,,,,,,,,,,,,,,,,,,,,,,,,,,,,,,,,,,,,,,,64187,2022-11-11_08h57.55.025,vts_reward_expectancy_bt_OFFLINE,2022.2.4,59.9276631181076,
0,0,1,0,1,0,0,0,hexagon,triangle,0,0,0,0,1,3,15,6,,,,,,,,,,,,,,,,,,,,,,,,,,,,,,,,,,,,,,,,105.64016902199364,105.64016902199364,105.64016902199364,105.64016902199364,105.64016902199364,105.64016902199364,105.64016902199364,105.64016902199364,105.64016902199364,105.64016902199364,a,1.5418509590090252,10,106,0,107.20864474002155,108.71026680301293,,,,,,,,,,,,,,,,,,,,,,,,,,,,,,,,,,,,,,,,,,,,,,,,,,,,,,,,,,,,,,,,,,,,,64187,2022-11-11_08h57.55.025,vts_reward_expectancy_bt_OFFLINE,2022.2.4,59.9276631181076,
0,0,0,1,0,0,1,0,star,hexagon,0,0,0,0,1,4,16,11,,,,,,,,,,,,,,,,,,,,,,,,,,,,,,,,,,,,,,,,109.2108087130182,109.2108087130182,109.2108087130182,109.2108087130182,109.2108087130182,109.2108087130182,109.2108087130182,109.2108087130182,109.2108087130182,109.2108087130182,a,0.6709137000143528,1,107,0,109.91159245901508,111.41327124100644,,,,,,,,,,,,,,,,,,,,,,,,,,,,,,,,,,,,,,,,,,,,,,,,,,,,,,,,,,,,,,,,,,,,,64187,2022-11-11_08h57.55.025,vts_reward_expectancy_bt_OFFLINE,2022.2.4,59.9276631181076,
1,0,0,0,0,0,1,0,triangle,hexagon,0,0,0,0,1,5,17,1,,,,,,,,,,,,,,,,,,,,,,,,,,,,,,,,,,,,,,,,111.91374737699516,111.91374737699516,111.91374737699516,111.91374737699516,111.91374737699516,111.91374737699516,111.91374737699516,111.91374737699516,111.91374737699516,111.91374737699516,l,1.2529922499961685,1,108,0,113.19864894502098,114.70021580901812,,,,,,,,,,,,,,,,,,,,,,,,,,,,,,,,,,,,,,,,,,,,,,,,,,,,,,,,,,,,,,,,,,,,,64187,2022-11-11_08h57.55.025,vts_reward_expectancy_bt_OFFLINE,2022.2.4,59.9276631181076,
1,0,0,0,0,0,0,1,triangle,star,0,0,0,0,1,6,18,2,,,,,,,,,,,,,,,,,,,,,,,,,,,,,,,,,,,,,,,,115.20061025200994,115.20061025200994,115.20061025200994,115.20061025200994,115.20061025200994,115.20061025200994,115.20061025200994,115.20061025200994,115.20061025200994,115.20061025200994,l,0.7128215749980882,10,118,0,115.93480211900896,117.43665228699683,,,,,,,,,,,,,,,,,,,,,,,,,,,,,,,,,,,,,,,,,,,,,,,,,,,,,,,,,,,,,,,,,,,,,64187,2022-11-11_08h57.55.025,vts_reward_expectancy_bt_OFFLINE,2022.2.4,59.9276631181076,
0,1,0,0,1,0,0,0,circle,triangle,0,0,0,0,1,7,19,3,,,,,,,,,,,,,,,,,,,,,,,,,,,,,,,,,,,,,,,,117.93716585601214,117.93716585601214,117.93716585601214,117.93716585601214,117.93716585601214,117.93716585601214,117.93716585601214,117.93716585601214,117.93716585601214,117.93716585601214,a,0.9451369679882191,1,119,0,118.90481383600854,120.40643326399731,,,,,,,,,,,,,,,,,,,,,,,,,,,,,,,,,,,,,,,,,,,,,,,,,,,,,,,,,,,,,,,,,,,,,64187,2022-11-11_08h57.55.025,vts_reward_expectancy_bt_OFFLINE,2022.2.4,59.9276631181076,
0,1,0,0,0,0,0,1,circle,star,0,0,0,0,1,8,20,5,,,,,,,,,,,,,,,,,,,,,,,,,,,,,,,,,,,,,,,,120.90691542901914,120.90691542901914,120.90691542901914,120.90691542901914,120.90691542901914,120.90691542901914,120.90691542901914,120.90691542901914,120.90691542901914,120.90691542901914,l,0.6188497899856884,10,129,0,121.557765828009,123.05949777000933,,,,,,,,,,,,,,,,,,,,,,,,,,,,,,,,,,,,,,,,,,,,,,,,,,,,,,,,,,,,,,,,,,,,,64187,2022-11-11_08h57.55.025,vts_reward_expectancy_bt_OFFLINE,2022.2.4,59.9276631181076,
0,0,1,0,0,0,0,1,hexagon,star,0,0,0,0,1,9,21,8,,,,,,,,,,,,,,,,,,,,,,,,,,,,,,,,,,,,,,,,123.5600194040162,123.5600194040162,123.5600194040162,123.5600194040162,123.5600194040162,123.5600194040162,123.5600194040162,123.5600194040162,123.5600194040162,123.5600194040162,l,0.8800570399907883,10,139,0,124.46099230801337,125.96261715999572,,,,,,,,,,,,,,,,,,,,,,,,,,,,,,,,,,,,,,,,,,,,,,,,,,,,,,,,,,,,,,,,,,,,,64187,2022-11-11_08h57.55.025,vts_reward_expectancy_bt_OFFLINE,2022.2.4,59.9276631181076,
0,0,0,1,0,1,0,0,star ,circle,0,0,0,0,1,10,22,10,,,,,,,,,,,,,,,,,,,,,,,,,,,,,,,,,,,,,,,,126.46313995099626,126.46313995099626,126.46313995099626,126.46313995099626,126.46313995099626,126.46313995099626,126.46313995099626,126.46313995099626,126.46313995099626,126.46313995099626,a,1.3195584079949185,10,149,0,127.81461807299638,129.31644753,,,,,,,,,,,,,,,,,,,,,,,,,,,,,,,,,,,,,,,,,,,,,,,,,,,,,,,,,,,,,,,,,,,,,64187,2022-11-11_08h57.55.025,vts_reward_expectancy_bt_OFFLINE,2022.2.4,59.9276631181076,
1,0,0,0,0,1,0,0,triangle,circle,0,0,0,0,1,11,23,0,,,,,,,,,,,,,,,,,,,,,,,,,,,,,,,,,,,,,,,,129.81680387401138,129.81680387401138,129.81680387401138,129.81680387401138,129.81680387401138,129.81680387401138,129.81680387401138,129.81680387401138,129.81680387401138,129.81680387401138,a,1.6773236909939442,1,150,0,131.5187510010146,133.02041749999626,,,,,,,,,,,,,,,,,,,,,,,,,,,,,,,,,,,,,,,,,,,,,,,,,,,,,,,,,,,,,,,,,,,,,64187,2022-11-11_08h57.55.025,vts_reward_expectancy_bt_OFFLINE,2022.2.4,59.9276631181076,
1,0,0,0,0,0,1,0,triangle,hexagon,0,0,0,0,2,0,24,1,,,,,,,,,,,,,,,,,,,,,,,,,,,,,,,,,,,,,,,,133.52089728901046,133.52089728901046,133.52089728901046,133.52089728901046,133.52089728901046,133.52089728901046,133.52089728901046,133.52089728901046,133.52089728901046,133.52089728901046,l,0.9769148619961925,1,151,0,134.521989336994,136.02361369301798,,,,,,,,,,,,,,,,,,,,,,,,,,,,,,,,,,,,,,,,,,,,,,,,,,,,,,,,,,,,,,,,,,,,,64187,2022-11-11_08h57.55.025,vts_reward_expectancy_bt_OFFLINE,2022.2.4,59.9276631181076,
0,0,1,0,1,0,0,0,hexagon,triangle,0,0,0,0,2,1,25,6,,,,,,,,,,,,,,,,,,,,,,,,,,,,,,,,,,,,,,,,136.5241181430174,136.5241181430174,136.5241181430174,136.5241181430174,136.5241181430174,136.5241181430174,136.5241181430174,136.5241181430174,136.5241181430174,136.5241181430174,l,0.9216576789913233,1,152,0,137.4751698980108,138.9768913029984,,,,,,,,,,,,,,,,,,,,,,,,,,,,,,,,,,,,,,,,,,,,,,,,,,,,,,,,,,,,,,,,,,,,,64187,2022-11-11_08h57.55.025,vts_reward_expectancy_bt_OFFLINE,2022.2.4,59.9276631181076,
0,0,1,0,0,0,0,1,hexagon,star,0,0,0,0,2,2,26,8,,,,,,,,,,,,,,,,,,,,,,,,,,,,,,,,,,,,,,,,139.47738280301564,139.47738280301564,139.47738280301564,139.47738280301564,139.47738280301564,139.47738280301564,139.47738280301564,139.47738280301564,139.47738280301564,139.47738280301564,l,0.8367043149773963,10,162,0,140.34519786800956,141.84674617799465,,,,,,,,,,,,,,,,,,,,,,,,,,,,,,,,,,,,,,,,,,,,,,,,,,,,,,,,,,,,,,,,,,,,,64187,2022-11-11_08h57.55.025,vts_reward_expectancy_bt_OFFLINE,2022.2.4,59.9276631181076,
0,1,0,0,0,0,0,1,circle,star,0,0,0,0,2,3,27,5,,,,,,,,,,,,,,,,,,,,,,,,,,,,,,,,,,,,,,,,142.34724638902117,142.34724638902117,142.34724638902117,142.34724638902117,142.34724638902117,142.34724638902117,142.34724638902117,142.34724638902117,142.34724638902117,142.34724638902117,l,1.1184491140011232,10,172,0,143.49843254502048,145.0003688900033,,,,,,,,,,,,,,,,,,,,,,,,,,,,,,,,,,,,,,,,,,,,,,,,,,,,,,,,,,,,,,,,,,,,,64187,2022-11-11_08h57.55.025,vts_reward_expectancy_bt_OFFLINE,2022.2.4,59.9276631181076,
0,1,0,0,1,0,0,0,circle,triangle,0,0,0,0,2,4,28,3,,,,,,,,,,,,,,,,,,,,,,,,,,,,,,,,,,,,,,,,145.50094088801416,145.50094088801416,145.50094088801416,145.50094088801416,145.50094088801416,145.50094088801416,145.50094088801416,145.50094088801416,145.50094088801416,145.50094088801416,a,2.0813273660023697,1,173,0,147.60312944301404,149.10469338900293,,,,,,,,,,,,,,,,,,,,,,,,,,,,,,,,,,,,,,,,,,,,,,,,,,,,,,,,,,,,,,,,,,,,,64187,2022-11-11_08h57.55.025,vts_reward_expectancy_bt_OFFLINE,2022.2.4,59.9276631181076,
0,0,0,1,0,0,1,0,star,hexagon,0,0,0,0,2,5,29,11,,,,,,,,,,,,,,,,,,,,,,,,,,,,,,,,,,,,,,,,149.60525299300207,149.60525299300207,149.60525299300207,149.60525299300207,149.60525299300207,149.60525299300207,149.60525299300207,149.60525299300207,149.60525299300207,149.60525299300207,a,0.6210248130082618,10,183,0,150.25627824099502,151.75784878301783,,,,,,,,,,,,,,,,,,,,,,,,,,,,,,,,,,,,,,,,,,,,,,,,,,,,,,,,,,,,,,,,,,,,,64187,2022-11-11_08h57.55.025,vts_reward_expectancy_bt_OFFLINE,2022.2.4,59.9276631181076,
0,1,0,0,0,0,1,0,circle,hexagon,0,0,0,0,2,6,30,4,,,,,,,,,,,,,,,,,,,,,,,,,,,,,,,,,,,,,,,,152.25821068201913,152.25821068201913,152.25821068201913,152.25821068201913,152.25821068201913,152.25821068201913,152.25821068201913,152.25821068201913,152.25821068201913,152.25821068201913,l,0.7134904619888403,10,193,0,152.99248660801095,154.49399629901745,,,,,,,,,,,,,,,,,,,,,,,,,,,,,,,,,,,,,,,,,,,,,,,,,,,,,,,,,,,,,,,,,,,,,64187,2022-11-11_08h57.55.025,vts_reward_expectancy_bt_OFFLINE,2022.2.4,59.9276631181076,
0,0,0,1,0,1,0,0,star ,circle,0,0,0,0,2,7,31,10,,,,,,,,,,,,,,,,,,,,,,,,,,,,,,,,,,,,,,,,154.99473809299525,154.99473809299525,154.99473809299525,154.99473809299525,154.99473809299525,154.99473809299525,154.99473809299525,154.99473809299525,154.99473809299525,154.99473809299525,a,0.632645092002349,10,203,0,155.64529605800635,157.14703884301707,,,,,,,,,,,,,,,,,,,,,,,,,,,,,,,,,,,,,,,,,,,,,,,,,,,,,,,,,,,,,,,,,,,,,64187,2022-11-11_08h57.55.025,vts_reward_expectancy_bt_OFFLINE,2022.2.4,59.9276631181076,
1,0,0,0,0,0,0,1,triangle,star,0,0,0,0,2,8,32,2,,,,,,,,,,,,,,,,,,,,,,,,,,,,,,,,,,,,,,,,157.6477301370178,157.6477301370178,157.6477301370178,157.6477301370178,157.6477301370178,157.6477301370178,157.6477301370178,157.6477301370178,157.6477301370178,157.6477301370178,l,0.915886186005082,10,213,0,158.5818818639964,160.08356939599616,,,,,,,,,,,,,,,,,,,,,,,,,,,,,,,,,,,,,,,,,,,,,,,,,,,,,,,,,,,,,,,,,,,,,64187,2022-11-11_08h57.55.025,vts_reward_expectancy_bt_OFFLINE,2022.2.4,59.9276631181076,
1,0,0,0,0,1,0,0,triangle,circle,0,0,0,0,2,9,33,0,,,,,,,,,,,,,,,,,,,,,,,,,,,,,,,,,,,,,,,,160.584158904996,160.584158904996,160.584158904996,160.584158904996,160.584158904996,160.584158904996,160.584158904996,160.584158904996,160.584158904996,160.584158904996,a,0.5208983839838766,10,223,0,161.1346408110112,162.6362808480044,,,,,,,,,,,,,,,,,,,,,,,,,,,,,,,,,,,,,,,,,,,,,,,,,,,,,,,,,,,,,,,,,,,,,64187,2022-11-11_08h57.55.025,vts_reward_expectancy_bt_OFFLINE,2022.2.4,59.9276631181076,
0,0,0,1,1,0,0,0,star,triangle,0,0,0,0,2,10,34,9,,,,,,,,,,,,,,,,,,,,,,,,,,,,,,,,,,,,,,,,163.1367676120135,163.1367676120135,163.1367676120135,163.1367676120135,163.1367676120135,163.1367676120135,163.1367676120135,163.1367676120135,163.1367676120135,163.1367676120135,a,0.6017066279891878,10,233,0,163.77112812001724,165.27258999901824,,,,,,,,,,,,,,,,,,,,,,,,,,,,,,,,,,,,,,,,,,,,,,,,,,,,,,,,,,,,,,,,,,,,,64187,2022-11-11_08h57.55.025,vts_reward_expectancy_bt_OFFLINE,2022.2.4,59.9276631181076,
0,0,1,0,0,1,0,0,hexagon,circle,0,0,0,0,2,11,35,7,,,,,,,,,,,,,,,,,,,,,,,,,,,,,,,,,,,,,,,,165.77332524600206,165.77332524600206,165.77332524600206,165.77332524600206,165.77332524600206,165.77332524600206,165.77332524600206,165.77332524600206,165.77332524600206,165.77332524600206,a,1.160476021002978,10,243,0,166.9578908010153,168.45965283800615,,,,,,,,,,,,,,,,,,,,,,,,,,,,,,,,,,,,,,,,,,,,,,,,,,,,,,,,,,,,,,,,,,,,,64187,2022-11-11_08h57.55.025,vts_reward_expectancy_bt_OFFLINE,2022.2.4,59.9276631181076,
0,0,1,0,1,0,0,0,hexagon,triangle,0,0,0,0,3,0,36,6,,,,,,,,,,,,,,,,,,,,,,,,,,,,,,,,,,,,,,,,168.95991487399442,168.95991487399442,168.95991487399442,168.95991487399442,168.95991487399442,168.95991487399442,168.95991487399442,168.95991487399442,168.95991487399442,168.95991487399442,a,1.1116722389997449,1,244,0,170.09458638200886,171.5964573280071,,,,,,,,,,,,,,,,,,,,,,,,,,,,,,,,,,,,,,,,,,,,,,,,,,,,,,,,,,,,,,,,,,,,,64187,2022-11-11_08h57.55.025,vts_reward_expectancy_bt_OFFLINE,2022.2.4,59.9276631181076,
0,0,0,1,0,0,1,0,star,hexagon,0,0,0,0,3,1,37,11,,,,,,,,,,,,,,,,,,,,,,,,,,,,,,,,,,,,,,,,172.09677960100817,172.09677960100817,172.09677960100817,172.09677960100817,172.09677960100817,172.09677960100817,172.09677960100817,172.09677960100817,172.09677960100817,172.09677960100817,a,0.6972192530229222,10,254,0,172.8142784020165,174.3160440720094,,,,,,,,,,,,,,,,,,,,,,,,,,,,,,,,,,,,,,,,,,,,,,,,,,,,,,,,,,,,,,,,,,,,,64187,2022-11-11_08h57.55.025,vts_reward_expectancy_bt_OFFLINE,2022.2.4,59.9276631181076,
0,1,0,0,0,0,0,1,circle,star,0,0,0,0,3,2,38,5,,,,,,,,,,,,,,,,,,,,,,,,,,,,,,,,,,,,,,,,174.81660337600624,174.81660337600624,174.81660337600624,174.81660337600624,174.81660337600624,174.81660337600624,174.81660337600624,174.81660337600624,174.81660337600624,174.81660337600624,l,1.0501898970105685,1,255,0,175.8843648530019,177.3859357770125,,,,,,,,,,,,,,,,,,,,,,,,,,,,,,,,,,,,,,,,,,,,,,,,,,,,,,,,,,,,,,,,,,,,,64187,2022-11-11_08h57.55.025,vts_reward_expectancy_bt_OFFLINE,2022.2.4,59.9276631181076,
0,1,0,0,1,0,0,0,circle,triangle,0,0,0,0,3,3,39,3,,,,,,,,,,,,,,,,,,,,,,,,,,,,,,,,,,,,,,,,177.88646269901074,177.88646269901074,177.88646269901074,177.88646269901074,177.88646269901074,177.88646269901074,177.88646269901074,177.88646269901074,177.88646269901074,177.88646269901074,l,1.2415220210095868,1,256,0,179.15460506500676,180.65612022200366,,,,,,,,,,,,,,,,,,,,,,,,,,,,,,,,,,,,,,,,,,,,,,,,,,,,,,,,,,,,,,,,,,,,,64187,2022-11-11_08h57.55.025,vts_reward_expectancy_bt_OFFLINE,2022.2.4,59.9276631181076,
1,0,0,0,0,0,0,1,triangle,star,0,0,0,0,3,4,40,2,,,,,,,,,,,,,,,,,,,,,,,,,,,,,,,,,,,,,,,,181.15685840000515,181.15685840000515,181.15685840000515,181.15685840000515,181.15685840000515,181.15685840000515,181.15685840000515,181.15685840000515,181.15685840000515,181.15685840000515,l,0.7177761660132091,10,266,0,181.9076200039999,183.408622715011,,,,,,,,,,,,,,,,,,,,,,,,,,,,,,,,,,,,,,,,,,,,,,,,,,,,,,,,,,,,,,,,,,,,,64187,2022-11-11_08h57.55.025,vts_reward_expectancy_bt_OFFLINE,2022.2.4,59.9276631181076,
1,0,0,0,0,1,0,0,triangle,circle,0,0,0,0,3,5,41,0,,,,,,,,,,,,,,,,,,,,,,,,,,,,,,,,,,,,,,,,183.90983879900887,183.90983879900887,183.90983879900887,183.90983879900887,183.90983879900887,183.90983879900887,183.90983879900887,183.90983879900887,183.90983879900887,183.90983879900887,a,0.8108624809829053,1,267,0,184.74399407100282,186.24575134500628,,,,,,,,,,,,,,,,,,,,,,,,,,,,,,,,,,,,,,,,,,,,,,,,,,,,,,,,,,,,,,,,,,,,,64187,2022-11-11_08h57.55.025,vts_reward_expectancy_bt_OFFLINE,2022.2.4,59.9276631181076,
0,0,1,0,0,1,0,0,hexagon,circle,0,0,0,0,3,6,42,7,,,,,,,,,,,,,,,,,,,,,,,,,,,,,,,,,,,,,,,,186.74641852200148,186.74641852200148,186.74641852200148,186.74641852200148,186.74641852200148,186.74641852200148,186.74641852200148,186.74641852200148,186.74641852200148,186.74641852200148,a,1.235581771004945,10,277,0,188.01432492700405,189.51612215701607,,,,,,,,,,,,,,,,,,,,,,,,,,,,,,,,,,,,,,,,,,,,,,,,,,,,,,,,,,,,,,,,,,,,,64187,2022-11-11_08h57.55.025,vts_reward_expectancy_bt_OFFLINE,2022.2.4,59.9276631181076,
0,0,0,1,1,0,0,0,star,triangle,0,0,0,0,3,7,43,9,,,,,,,,,,,,,,,,,,,,,,,,,,,,,,,,,,,,,,,,190.01669553801185,190.01669553801185,190.01669553801185,190.01669553801185,190.01669553801185,190.01669553801185,190.01669553801185,190.01669553801185,190.01669553801185,190.01669553801185,a,0.6540708669926971,1,278,0,190.70069433099707,192.202481040993,,,,,,,,,,,,,,,,,,,,,,,,,,,,,,,,,,,,,,,,,,,,,,,,,,,,,,,,,,,,,,,,,,,,,64187,2022-11-11_08h57.55.025,vts_reward_expectancy_bt_OFFLINE,2022.2.4,59.9276631181076,
0,0,0,1,0,1,0,0,star ,circle,0,0,0,0,3,8,44,10,,,,,,,,,,,,,,,,,,,,,,,,,,,,,,,,,,,,,,,,192.70304632300395,192.70304632300395,192.70304632300395,192.70304632300395,192.70304632300395,192.70304632300395,192.70304632300395,192.70304632300395,192.70304632300395,192.70304632300395,a,0.500097252021078,1,279,0,193.22011477901833,194.72190307901474,,,,,,,,,,,,,,,,,,,,,,,,,,,,,,,,,,,,,,,,,,,,,,,,,,,,,,,,,,,,,,,,,,,,,64187,2022-11-11_08h57.55.025,vts_reward_expectancy_bt_OFFLINE,2022.2.4,59.9276631181076,
1,0,0,0,0,0,1,0,triangle,hexagon,0,0,0,0,3,9,45,1,,,,,,,,,,,,,,,,,,,,,,,,,,,,,,,,,,,,,,,,195.22238282702165,195.22238282702165,195.22238282702165,195.22238282702165,195.22238282702165,195.22238282702165,195.22238282702165,195.22238282702165,195.22238282702165,195.22238282702165,l,1.1869462299800944,10,289,0,196.44042811502004,197.94192112301243,,,,,,,,,,,,,,,,,,,,,,,,,,,,,,,,,,,,,,,,,,,,,,,,,,,,,,,,,,,,,,,,,,,,,64187,2022-11-11_08h57.55.025,vts_reward_expectancy_bt_OFFLINE,2022.2.4,59.9276631181076,
0,1,0,0,0,0,1,0,circle,hexagon,0,0,0,0,3,10,46,4,,,,,,,,,,,,,,,,,,,,,,,,,,,,,,,,,,,,,,,,198.44266045099357,198.44266045099357,198.44266045099357,198.44266045099357,198.44266045099357,198.44266045099357,198.44266045099357,198.44266045099357,198.44266045099357,198.44266045099357,a,0.5760987320099957,1,290,0,199.0432517680165,200.54472733399598,,,,,,,,,,,,,,,,,,,,,,,,,,,,,,,,,,,,,,,,,,,,,,,,,,,,,,,,,,,,,,,,,,,,,64187,2022-11-11_08h57.55.025,vts_reward_expectancy_bt_OFFLINE,2022.2.4,59.9276631181076,
0,0,1,0,0,0,0,1,hexagon,star,0,0,0,0,3,11,47,8,,,,,,,,,,,,,,,,,,,,,,,,,,,,,,,,,,,,,,,,201.0452625680191,201.0452625680191,201.0452625680191,201.0452625680191,201.0452625680191,201.0452625680191,201.0452625680191,201.0452625680191,201.0452625680191,201.0452625680191,l,0.5615277719916776,1,291,0,201.6292440929974,203.13094844401348,,,,,,,,,,,,,,,,,,,,,,,,,,,,,,,,,,,,,,,,,,,,,,,,,,,,,,,,,,,,,,,,,,,,,64187,2022-11-11_08h57.55.025,vts_reward_expectancy_bt_OFFLINE,2022.2.4,59.9276631181076,
1,0,0,0,0,1,0,0,triangle,circle,1,0,1,0,0,0,0,0,,,,,,,,,,,,,,,,,,,,,,,,,,,,,,,,,,,,,,,,209.39559939599712,209.39559939599712,209.39559939599712,209.39559939599712,209.39559939599712,209.39559939599712,209.39559939599712,209.39559939599712,209.39559939599712,209.39559939599712,l,1.605079658998875,1,292,1,211.0229307420086,212.5248108030064,,,,,,,,,,,,,,,,,,,,,,,,,,,,,,,,,,,,,,,,,,,,,,,,,,,,,,,,,,,,,,,,,,,,,64187,2022-11-11_08h57.55.025,vts_reward_expectancy_bt_OFFLINE,2022.2.4,59.9276631181076,
1,0,0,0,0,0,0,1,triangle,star,1,0,1,0,0,1,1,2,,,,,,,,,,,,,,,,,,,,,,,,,,,,,,,,,,,,,,,,213.02532302599866,213.02532302599866,213.02532302599866,213.02532302599866,213.02532302599866,213.02532302599866,213.02532302599866,213.02532302599866,213.02532302599866,213.02532302599866,l,0.5185844659863506,10,302,1,213.575800318009,215.0774880250101,,,,,,,,,,,,,,,,,,,,,,,,,,,,,,,,,,,,,,,,,,,,,,,,,,,,,,,,,,,,,,,,,,,,,64187,2022-11-11_08h57.55.025,vts_reward_expectancy_bt_OFFLINE,2022.2.4,59.9276631181076,
0,1,0,0,1,0,0,0,circle,triangle,1,0,1,0,0,2,2,3,,,,,,,,,,,,,,,,,,,,,,,,,,,,,,,,,,,,,,,,215.57813514702138,215.57813514702138,215.57813514702138,215.57813514702138,215.57813514702138,215.57813514702138,215.57813514702138,215.57813514702138,215.57813514702138,215.57813514702138,a,0.9018407289986499,1,303,1,216.5126199189981,218.01413756702095,,,,,,,,,,,,,,,,,,,,,,,,,,,,,,,,,,,,,,,,,,,,,,,,,,,,,,,,,,,,,,,,,,,,,64187,2022-11-11_08h57.55.025,vts_reward_expectancy_bt_OFFLINE,2022.2.4,59.9276631181076,
0,0,1,0,0,1,0,0,hexagon,circle,1,0,1,0,0,3,3,7,,,,,,,,,,,,,,,,,,,,,,,,,,,,,,,,,,,,,,,,218.5148640180123,218.5148640180123,218.5148640180123,218.5148640180123,218.5148640180123,218.5148640180123,218.5148640180123,218.5148640180123,218.5148640180123,218.5148640180123,a,0.9690073069941718,10,313,1,219.5159602110216,221.0172682760167,,,,,,,,,,,,,,,,,,,,,,,,,,,,,,,,,,,,,,,,,,,,,,,,,,,,,,,,,,,,,,,,,,,,,64187,2022-11-11_08h57.55.025,vts_reward_expectancy_bt_OFFLINE,2022.2.4,59.9276631181076,
0,0,0,1,1,0,0,0,star,triangle,1,0,1,0,0,4,4,9,,,,,,,,,,,,,,,,,,,,,,,,,,,,,,,,,,,,,,,,221.51791290100664,221.51791290100664,221.51791290100664,221.51791290100664,221.51791290100664,221.51791290100664,221.51791290100664,221.51791290100664,221.51791290100664,221.51791290100664,a,0.7099788050109055,1,314,1,222.25199863800663,223.75370658401516,,,,,,,,,,,,,,,,,,,,,,,,,,,,,,,,,,,,,,,,,,,,,,,,,,,,,,,,,,,,,,,,,,,,,64187,2022-11-11_08h57.55.025,vts_reward_expectancy_bt_OFFLINE,2022.2.4,59.9276631181076,
0,0,1,0,1,0,0,0,hexagon,triangle,1,0,1,0,0,5,5,6,,,,,,,,,,,,,,,,,,,,,,,,,,,,,,,,,,,,,,,,224.25422117501148,224.25422117501148,224.25422117501148,224.25422117501148,224.25422117501148,224.25422117501148,224.25422117501148,224.25422117501148,224.25422117501148,224.25422117501148,l,0.674271174997557,1,315,1,224.95505694800522,226.45670522400178,,,,,,,,,,,,,,,,,,,,,,,,,,,,,,,,,,,,,,,,,,,,,,,,,,,,,,,,,,,,,,,,,,,,,64187,2022-11-11_08h57.55.025,vts_reward_expectancy_bt_OFFLINE,2022.2.4,59.9276631181076,
0,1,0,0,0,0,1,0,circle,hexagon,1,0,1,0,0,6,6,4,,,,,,,,,,,,,,,,,,,,,,,,,,,,,,,,,,,,,,,,226.95739575801417,226.95739575801417,226.95739575801417,226.95739575801417,226.95739575801417,226.95739575801417,226.95739575801417,226.95739575801417,226.95739575801417,226.95739575801417,l,0.9075330540072173,10,325,1,227.89166596799623,229.39341098701698,,,,,,,,,,,,,,,,,,,,,,,,,,,,,,,,,,,,,,,,,,,,,,,,,,,,,,,,,,,,,,,,,,,,,64187,2022-11-11_08h57.55.025,vts_reward_expectancy_bt_OFFLINE,2022.2.4,59.9276631181076,
0,1,0,0,0,0,0,1,circle,star,1,0,1,0,0,7,7,5,,,,,,,,,,,,,,,,,,,,,,,,,,,,,,,,,,,,,,,,229.89376955101034,229.89376955101034,229.89376955101034,229.89376955101034,229.89376955101034,229.89376955101034,229.89376955101034,229.89376955101034,229.89376955101034,229.89376955101034,l,0.94108738398063,10,335,1,230.8615784360154,232.3633178200107,,,,,,,,,,,,,,,,,,,,,,,,,,,,,,,,,,,,,,,,,,,,,,,,,,,,,,,,,,,,,,,,,,,,,64187,2022-11-11_08h57.55.025,vts_reward_expectancy_bt_OFFLINE,2022.2.4,59.9276631181076,
0,0,0,1,0,1,0,0,star ,circle,1,0,1,0,0,8,8,10,,,,,,,,,,,,,,,,,,,,,,,,,,,,,,,,,,,,,,,,232.86382472599507,232.86382472599507,232.86382472599507,232.86382472599507,232.86382472599507,232.86382472599507,232.86382472599507,232.86382472599507,232.86382472599507,232.86382472599507,a,1.4480744060128927,10,345,1,234.33210084901657,235.83376436500112,,,,,,,,,,,,,,,,,,,,,,,,,,,,,,,,,,,,,,,,,,,,,,,,,,,,,,,,,,,,,,,,,,,,,64187,2022-11-11_08h57.55.025,vts_reward_expectancy_bt_OFFLINE,2022.2.4,59.9276631181076,
0,0,0,1,0,0,1,0,star,hexagon,1,0,1,0,0,9,9,11,,,,,,,,,,,,,,,,,,,,,,,,,,,,,,,,,,,,,,,,236.33442559701507,236.33442559701507,236.33442559701507,236.33442559701507,236.33442559701507,236.33442559701507,236.33442559701507,236.33442559701507,236.33442559701507,236.33442559701507,a,0.5860923219879624,10,355,1,236.9516054970154,238.45347300800495,,,,,,,,,,,,,,,,,,,,,,,,,,,,,,,,,,,,,,,,,,,,,,,,,,,,,,,,,,,,,,,,,,,,,64187,2022-11-11_08h57.55.025,vts_reward_expectancy_bt_OFFLINE,2022.2.4,59.9276631181076,
1,0,0,0,0,0,1,0,triangle,hexagon,1,0,1,0,0,10,10,1,,,,,,,,,,,,,,,,,,,,,,,,,,,,,,,,,,,,,,,,238.95398449900676,238.95398449900676,238.95398449900676,238.95398449900676,238.95398449900676,238.95398449900676,238.95398449900676,238.95398449900676,238.95398449900676,238.95398449900676,l,1.3418710749829188,10,365,1,240.3220050560194,241.82388947700383,,,,,,,,,,,,,,,,,,,,,,,,,,,,,,,,,,,,,,,,,,,,,,,,,,,,,,,,,,,,,,,,,,,,,64187,2022-11-11_08h57.55.025,vts_reward_expectancy_bt_OFFLINE,2022.2.4,59.9276631181076,
0,0,1,0,0,0,0,1,hexagon,star,1,0,1,0,0,11,11,8,,,,,,,,,,,,,,,,,,,,,,,,,,,,,,,,,,,,,,,,242.324282881018,242.324282881018,242.324282881018,242.324282881018,242.324282881018,242.324282881018,242.324282881018,242.324282881018,242.324282881018,242.324282881018,l,0.8740651970147155,10,375,1,243.22530065700994,244.72694566799328,,,,,,,,,,,,,,,,,,,,,,,,,,,,,,,,,,,,,,,,,,,,,,,,,,,,,,,,,,,,,,,,,,,,,64187,2022-11-11_08h57.55.025,vts_reward_expectancy_bt_OFFLINE,2022.2.4,59.9276631181076,
0,0,0,1,0,1,0,0,star ,circle,1,0,1,0,1,0,12,10,,,,,,,,,,,,,,,,,,,,,,,,,,,,,,,,,,,,,,,,245.22730714202044,245.22730714202044,245.22730714202044,245.22730714202044,245.22730714202044,245.22730714202044,245.22730714202044,245.22730714202044,245.22730714202044,245.22730714202044,l,1.3915597809827887,10,385,1,246.64558753999881,248.14737258001696,,,,,,,,,,,,,,,,,,,,,,,,,,,,,,,,,,,,,,,,,,,,,,,,,,,,,,,,,,,,,,,,,,,,,64187,2022-11-11_08h57.55.025,vts_reward_expectancy_bt_OFFLINE,2022.2.4,59.9276631181076,
1,0,0,0,0,1,0,0,triangle,circle,1,0,1,0,1,1,13,0,,,,,,,,,,,,,,,,,,,,,,,,,,,,,,,,,,,,,,,,248.64797104301397,248.64797104301397,248.64797104301397,248.64797104301397,248.64797104301397,248.64797104301397,248.64797104301397,248.64797104301397,248.64797104301397,248.64797104301397,a,1.5712396760063712,1,386,1,250.24977187401964,251.75130416301545,,,,,,,,,,,,,,,,,,,,,,,,,,,,,,,,,,,,,,,,,,,,,,,,,,,,,,,,,,,,,,,,,,,,,64187,2022-11-11_08h57.55.025,vts_reward_expectancy_bt_OFFLINE,2022.2.4,59.9276631181076,
0,0,0,1,0,0,1,0,star,hexagon,1,0,1,0,1,2,14,11,,,,,,,,,,,,,,,,,,,,,,,,,,,,,,,,,,,,,,,,252.25182851200225,252.25182851200225,252.25182851200225,252.25182851200225,252.25182851200225,252.25182851200225,252.25182851200225,252.25182851200225,252.25182851200225,252.25182851200225,a,0.6683680349960923,10,396,1,252.95268769800896,254.45442447302048,,,,,,,,,,,,,,,,,,,,,,,,,,,,,,,,,,,,,,,,,,,,,,,,,,,,,,,,,,,,,,,,,,,,,64187,2022-11-11_08h57.55.025,vts_reward_expectancy_bt_OFFLINE,2022.2.4,59.9276631181076,
0,1,0,0,0,0,1,0,circle,hexagon,1,0,1,0,1,3,15,4,,,,,,,,,,,,,,,,,,,,,,,,,,,,,,,,,,,,,,,,254.9548848470149,254.9548848470149,254.9548848470149,254.9548848470149,254.9548848470149,254.9548848470149,254.9548848470149,254.9548848470149,254.9548848470149,254.9548848470149,a,1.2939511550066527,1,397,1,256.27307255001506,257.77472746602143,,,,,,,,,,,,,,,,,,,,,,,,,,,,,,,,,,,,,,,,,,,,,,,,,,,,,,,,,,,,,,,,,,,,,64187,2022-11-11_08h57.55.025,vts_reward_expectancy_bt_OFFLINE,2022.2.4,59.9276631181076,
0,0,1,0,0,1,0,0,hexagon,circle,1,0,1,0,1,4,16,7,,,,,,,,,,,,,,,,,,,,,,,,,,,,,,,,,,,,,,,,258.27517934000934,258.27517934000934,258.27517934000934,258.27517934000934,258.27517934000934,258.27517934000934,258.27517934000934,258.27517934000934,258.27517934000934,258.27517934000934,l,1.1578172529989388,1,398,1,259.4599253080087,260.9615663610166,,,,,,,,,,,,,,,,,,,,,,,,,,,,,,,,,,,,,,,,,,,,,,,,,,,,,,,,,,,,,,,,,,,,,64187,2022-11-11_08h57.55.025,vts_reward_expectancy_bt_OFFLINE,2022.2.4,59.9276631181076,
1,0,0,0,0,0,1,0,triangle,hexagon,1,0,1,0,1,5,17,1,,,,,,,,,,,,,,,,,,,,,,,,,,,,,,,,,,,,,,,,261.46221615801915,261.46221615801915,261.46221615801915,261.46221615801915,261.46221615801915,261.46221615801915,261.46221615801915,261.46221615801915,261.46221615801915,261.46221615801915,a,1.0874387009826023,10,408,1,262.5798927290016,264.08166489901487,,,,,,,,,,,,,,,,,,,,,,,,,,,,,,,,,,,,,,,,,,,,,,,,,,,,,,,,,,,,,,,,,,,,,64187,2022-11-11_08h57.55.025,vts_reward_expectancy_bt_OFFLINE,2022.2.4,59.9276631181076,
0,1,0,0,1,0,0,0,circle,triangle,1,0,1,0,1,6,18,3,,,,,,,,,,,,,,,,,,,,,,,,,,,,,,,,,,,,,,,,264.58227299602004,264.58227299602004,264.58227299602004,264.58227299602004,264.58227299602004,264.58227299602004,264.58227299602004,264.58227299602004,264.58227299602004,264.58227299602004,l,0.9831215770100243,1,409,1,265.5833184530202,267.08479036099743,,,,,,,,,,,,,,,,,,,,,,,,,,,,,,,,,,,,,,,,,,,,,,,,,,,,,,,,,,,,,,,,,,,,,64187,2022-11-11_08h57.55.025,vts_reward_expectancy_bt_OFFLINE,2022.2.4,59.9276631181076,
1,0,0,0,0,0,0,1,triangle,star,1,0,1,0,1,7,19,2,,,,,,,,,,,,,,,,,,,,,,,,,,,,,,,,,,,,,,,,267.58561927999835,267.58561927999835,267.58561927999835,267.58561927999835,267.58561927999835,267.58561927999835,267.58561927999835,267.58561927999835,267.58561927999835,267.58561927999835,l,0.7908800200093538,1,410,1,268.40295613600756,269.90454858899466,,,,,,,,,,,,,,,,,,,,,,,,,,,,,,,,,,,,,,,,,,,,,,,,,,,,,,,,,,,,,,,,,,,,,64187,2022-11-11_08h57.55.025,vts_reward_expectancy_bt_OFFLINE,2022.2.4,59.9276631181076,
0,1,0,0,0,0,0,1,circle,star,1,0,1,0,1,8,20,5,,,,,,,,,,,,,,,,,,,,,,,,,,,,,,,,,,,,,,,,270.40521436801646,270.40521436801646,270.40521436801646,270.40521436801646,270.40521436801646,270.40521436801646,270.40521436801646,270.40521436801646,270.40521436801646,270.40521436801646,l,0.727863348001847,1,411,1,271.15606795900385,272.6576468679996,,,,,,,,,,,,,,,,,,,,,,,,,,,,,,,,,,,,,,,,,,,,,,,,,,,,,,,,,,,,,,,,,,,,,64187,2022-11-11_08h57.55.025,vts_reward_expectancy_bt_OFFLINE,2022.2.4,59.9276631181076,
0,0,1,0,1,0,0,0,hexagon,triangle,1,0,1,0,1,9,21,6,,,,,,,,,,,,,,,,,,,,,,,,,,,,,,,,,,,,,,,,273.15823571401415,273.15823571401415,273.15823571401415,273.15823571401415,273.15823571401415,273.15823571401415,273.15823571401415,273.15823571401415,273.15823571401415,273.15823571401415,a,0.6528383530094288,10,421,1,273.8424310940027,275.34398698201403,,,,,,,,,,,,,,,,,,,,,,,,,,,,,,,,,,,,,,,,,,,,,,,,,,,,,,,,,,,,,,,,,,,,,64187,2022-11-11_08h57.55.025,vts_reward_expectancy_bt_OFFLINE,2022.2.4,59.9276631181076,
0,0,1,0,0,0,0,1,hexagon,star,1,0,1,0,1,10,22,8,,,,,,,,,,,,,,,,,,,,,,,,,,,,,,,,,,,,,,,,275.8437727720011,275.8437727720011,275.8437727720011,275.8437727720011,275.8437727720011,275.8437727720011,275.8437727720011,275.8437727720011,275.8437727720011,275.8437727720011,a,0.712057898985222,10,431,1,276.5787827309978,278.0804371590202,,,,,,,,,,,,,,,,,,,,,,,,,,,,,,,,,,,,,,,,,,,,,,,,,,,,,,,,,,,,,,,,,,,,,64187,2022-11-11_08h57.55.025,vts_reward_expectancy_bt_OFFLINE,2022.2.4,59.9276631181076,
0,0,0,1,1,0,0,0,star,triangle,1,0,1,0,1,11,23,9,,,,,,,,,,,,,,,,,,,,,,,,,,,,,,,,,,,,,,,,278.580960657011,278.580960657011,278.580960657011,278.580960657011,278.580960657011,278.580960657011,278.580960657011,278.580960657011,278.580960657011,278.580960657011,l,0.867224333982449,1,432,1,279.465182504995,280.9668083510187,,,,,,,,,,,,,,,,,,,,,,,,,,,,,,,,,,,,,,,,,,,,,,,,,,,,,,,,,,,,,,,,,,,,,64187,2022-11-11_08h57.55.025,vts_reward_expectancy_bt_OFFLINE,2022.2.4,59.9276631181076,
0,1,0,0,0,0,1,0,circle,hexagon,1,0,1,0,2,0,24,4,,,,,,,,,,,,,,,,,,,,,,,,,,,,,,,,,,,,,,,,281.46745972899953,281.46745972899953,281.46745972899953,281.46745972899953,281.46745972899953,281.46745972899953,281.46745972899953,281.46745972899953,281.46745972899953,281.46745972899953,a,1.1640011130075436,1,433,1,282.65209118800703,284.15381522101234,,,,,,,,,,,,,,,,,,,,,,,,,,,,,,,,,,,,,,,,,,,,,,,,,,,,,,,,,,,,,,,,,,,,,64187,2022-11-11_08h57.55.025,vts_reward_expectancy_bt_OFFLINE,2022.2.4,59.9276631181076,
0,0,0,1,1,0,0,0,star,triangle,1,0,1,0,2,1,25,9,,,,,,,,,,,,,,,,,,,,,,,,,,,,,,,,,,,,,,,,284.6543160730216,284.6543160730216,284.6543160730216,284.6543160730216,284.6543160730216,284.6543160730216,284.6543160730216,284.6543160730216,284.6543160730216,284.6543160730216,a,0.7789137310173828,10,443,1,285.455250190018,286.9569594320201,,,,,,,,,,,,,,,,,,,,,,,,,,,,,,,,,,,,,,,,,,,,,,,,,,,,,,,,,,,,,,,,,,,,,64187,2022-11-11_08h57.55.025,vts_reward_expectancy_bt_OFFLINE,2022.2.4,59.9276631181076,
0,0,1,0,0,0,0,1,hexagon,star,1,0,1,0,2,2,26,8,,,,,,,,,,,,,,,,,,,,,,,,,,,,,,,,,,,,,,,,287.4573832360038,287.4573832360038,287.4573832360038,287.4573832360038,287.4573832360038,287.4573832360038,287.4573832360038,287.4573832360038,287.4573832360038,287.4573832360038,l,1.001551269000629,10,453,1,288.49215821002144,289.99365617899457,,,,,,,,,,,,,,,,,,,,,,,,,,,,,,,,,,,,,,,,,,,,,,,,,,,,,,,,,,,,,,,,,,,,,64187,2022-11-11_08h57.55.025,vts_reward_expectancy_bt_OFFLINE,2022.2.4,59.9276631181076,
0,1,0,0,1,0,0,0,circle,triangle,1,0,1,0,2,3,27,3,,,,,,,,,,,,,,,,,,,,,,,,,,,,,,,,,,,,,,,,290.494170785998,290.494170785998,290.494170785998,290.494170785998,290.494170785998,290.494170785998,290.494170785998,290.494170785998,290.494170785998,290.494170785998,a,0.6997704470122699,1,454,1,291.2116024730203,292.7130973809981,,,,,,,,,,,,,,,,,,,,,,,,,,,,,,,,,,,,,,,,,,,,,,,,,,,,,,,,,,,,,,,,,,,,,64187,2022-11-11_08h57.55.025,vts_reward_expectancy_bt_OFFLINE,2022.2.4,59.9276631181076,
1,0,0,0,0,1,0,0,triangle,circle,1,0,1,0,2,4,28,0,,,,,,,,,,,,,,,,,,,,,,,,,,,,,,,,,,,,,,,,293.21380076999776,293.21380076999776,293.21380076999776,293.21380076999776,293.21380076999776,293.21380076999776,293.21380076999776,293.21380076999776,293.21380076999776,293.21380076999776,a,1.2414218690246344,1,455,1,294.48180775000947,295.9834172819974,,,,,,,,,,,,,,,,,,,,,,,,,,,,,,,,,,,,,,,,,,,,,,,,,,,,,,,,,,,,,,,,,,,,,64187,2022-11-11_08h57.55.025,vts_reward_expectancy_bt_OFFLINE,2022.2.4,59.9276631181076,
1,0,0,0,0,0,0,1,triangle,star,1,0,1,0,2,5,29,2,,,,,,,,,,,,,,,,,,,,,,,,,,,,,,,,,,,,,,,,296.48400517800474,296.48400517800474,296.48400517800474,296.48400517800474,296.48400517800474,296.48400517800474,296.48400517800474,296.48400517800474,296.48400517800474,296.48400517800474,l,0.7509673530003056,10,465,1,297.25147838902194,298.75311615600367,,,,,,,,,,,,,,,,,,,,,,,,,,,,,,,,,,,,,,,,,,,,,,,,,,,,,,,,,,,,,,,,,,,,,64187,2022-11-11_08h57.55.025,vts_reward_expectancy_bt_OFFLINE,2022.2.4,59.9276631181076,
0,1,0,0,0,0,0,1,circle,star,1,0,1,0,2,6,30,5,,,,,,,,,,,,,,,,,,,,,,,,,,,,,,,,,,,,,,,,299.2535004460078,299.2535004460078,299.2535004460078,299.2535004460078,299.2535004460078,299.2535004460078,299.2535004460078,299.2535004460078,299.2535004460078,299.2535004460078,a,1.0412032539898064,1,466,1,300.3217081440089,301.82323839800665,,,,,,,,,,,,,,,,,,,,,,,,,,,,,,,,,,,,,,,,,,,,,,,,,,,,,,,,,,,,,,,,,,,,,64187,2022-11-11_08h57.55.025,vts_reward_expectancy_bt_OFFLINE,2022.2.4,59.9276631181076,
0,0,1,0,0,1,0,0,hexagon,circle,1,0,1,0,2,7,31,7,,,,,,,,,,,,,,,,,,,,,,,,,,,,,,,,,,,,,,,,302.3239143390092,302.3239143390092,302.3239143390092,302.3239143390092,302.3239143390092,302.3239143390092,302.3239143390092,302.3239143390092,302.3239143390092,302.3239143390092,l,0.8177253530011512,10,476,1,303.1746899239952,304.676525199,,,,,,,,,,,,,,,,,,,,,,,,,,,,,,,,,,,,,,,,,,,,,,,,,,,,,,,,,,,,,,,,,,,,,64187,2022-11-11_08h57.55.025,vts_reward_expectancy_bt_OFFLINE,2022.2.4,59.9276631181076,
0,0,1,0,1,0,0,0,hexagon,triangle,1,0,1,0,2,8,32,6,,,,,,,,,,,,,,,,,,,,,,,,,,,,,,,,,,,,,,,,305.1768900610041,305.1768900610041,305.1768900610041,305.1768900610041,305.1768900610041,305.1768900610041,305.1768900610041,305.1768900610041,305.1768900610041,305.1768900610041,l,1.0808088560006581,1,477,1,306.27818043500884,307.77983079399564,,,,,,,,,,,,,,,,,,,,,,,,,,,,,,,,,,,,,,,,,,,,,,,,,,,,,,,,,,,,,,,,,,,,,64187,2022-11-11_08h57.55.025,vts_reward_expectancy_bt_OFFLINE,2022.2.4,59.9276631181076,
1,0,0,0,0,0,1,0,triangle,hexagon,1,0,1,0,2,9,33,1,,,,,,,,,,,,,,,,,,,,,,,,,,,,,,,,,,,,,,,,308.2803990000102,308.2803990000102,308.2803990000102,308.2803990000102,308.2803990000102,308.2803990000102,308.2803990000102,308.2803990000102,308.2803990000102,308.2803990000102,a,1.0143513689981773,10,487,1,309.3149872079957,310.8165681679966,,,,,,,,,,,,,,,,,,,,,,,,,,,,,,,,,,,,,,,,,,,,,,,,,,,,,,,,,,,,,,,,,,,,,64187,2022-11-11_08h57.55.025,vts_reward_expectancy_bt_OFFLINE,2022.2.4,59.9276631181076,
0,0,0,1,0,1,0,0,star ,circle,1,0,1,0,2,10,34,10,,,,,,,,,,,,,,,,,,,,,,,,,,,,,,,,,,,,,,,,311.3171273670159,311.3171273670159,311.3171273670159,311.3171273670159,311.3171273670159,311.3171273670159,311.3171273670159,311.3171273670159,311.3171273670159,311.3171273670159,a,0.6770242679922376,10,497,1,312.01781239299453,313.51940451399423,,,,,,,,,,,,,,,,,,,,,,,,,,,,,,,,,,,,,,,,,,,,,,,,,,,,,,,,,,,,,,,,,,,,,64187,2022-11-11_08h57.55.025,vts_reward_expectancy_bt_OFFLINE,2022.2.4,59.9276631181076,
0,0,0,1,0,0,1,0,star,hexagon,1,0,1,0,2,11,35,11,,,,,,,,,,,,,,,,,,,,,,,,,,,,,,,,,,,,,,,,314.0202550890099,314.0202550890099,314.0202550890099,314.0202550890099,314.0202550890099,314.0202550890099,314.0202550890099,314.0202550890099,314.0202550890099,314.0202550890099,l,1.1019235919811763,1,498,1,315.1546448949957,316.6562650889973,,,,,,,,,,,,,,,,,,,,,,,,,,,,,,,,,,,,,,,,,,,,,,,,,,,,,,,,,,,,,,,,,,,,,64187,2022-11-11_08h57.55.025,vts_reward_expectancy_bt_OFFLINE,2022.2.4,59.9276631181076,
0,0,0,1,0,0,1,0,star,hexagon,1,0,1,0,3,0,36,11,,,,,,,,,,,,,,,,,,,,,,,,,,,,,,,,,,,,,,,,317.1568268650153,317.1568268650153,317.1568268650153,317.1568268650153,317.1568268650153,317.1568268650153,317.1568268650153,317.1568268650153,317.1568268650153,317.1568268650153,a,0.5991029840079136,10,508,1,317.7742966070073,319.27583232999314,,,,,,,,,,,,,,,,,,,,,,,,,,,,,,,,,,,,,,,,,,,,,,,,,,,,,,,,,,,,,,,,,,,,,64187,2022-11-11_08h57.55.025,vts_reward_expectancy_bt_OFFLINE,2022.2.4,59.9276631181076,
0,1,0,0,0,0,1,0,circle,hexagon,1,0,1,0,3,1,37,4,,,,,,,,,,,,,,,,,,,,,,,,,,,,,,,,,,,,,,,,319.776533516997,319.776533516997,319.776533516997,319.776533516997,319.776533516997,319.776533516997,319.776533516997,319.776533516997,319.776533516997,319.776533516997,a,1.8363994709798135,1,509,1,321.6451610100048,323.1468253050116,,,,,,,,,,,,,,,,,,,,,,,,,,,,,,,,,,,,,,,,,,,,,,,,,,,,,,,,,,,,,,,,,,,,,64187,2022-11-11_08h57.55.025,vts_reward_expectancy_bt_OFFLINE,2022.2.4,59.9276631181076,
1,0,0,0,0,0,1,0,triangle,hexagon,1,0,1,0,3,2,38,1,,,,,,,,,,,,,,,,,,,,,,,,,,,,,,,,,,,,,,,,323.64728958701016,323.64728958701016,323.64728958701016,323.64728958701016,323.64728958701016,323.64728958701016,323.64728958701016,323.64728958701016,323.64728958701016,323.64728958701016,a,1.4088896529865451,1,510,1,325.0819907459954,326.5839719060168,,,,,,,,,,,,,,,,,,,,,,,,,,,,,,,,,,,,,,,,,,,,,,,,,,,,,,,,,,,,,,,,,,,,,64187,2022-11-11_08h57.55.025,vts_reward_expectancy_bt_OFFLINE,2022.2.4,59.9276631181076,
1,0,0,0,0,0,0,1,triangle,star,1,0,1,0,3,3,39,2,,,,,,,,,,,,,,,,,,,,,,,,,,,,,,,,,,,,,,,,327.08438043500064,327.08438043500064,327.08438043500064,327.08438043500064,327.08438043500064,327.08438043500064,327.08438043500064,327.08438043500064,327.08438043500064,327.08438043500064,l,0.6266150640149135,10,520,1,327.73498971000663,329.23676194401924,,,,,,,,,,,,,,,,,,,,,,,,,,,,,,,,,,,,,,,,,,,,,,,,,,,,,,,,,,,,,,,,,,,,,64187,2022-11-11_08h57.55.025,vts_reward_expectancy_bt_OFFLINE,2022.2.4,59.9276631181076,
0,0,1,0,0,1,0,0,hexagon,circle,1,0,1,0,3,4,40,7,,,,,,,,,,,,,,,,,,,,,,,,,,,,,,,,,,,,,,,,329.7373882360116,329.7373882360116,329.7373882360116,329.7373882360116,329.7373882360116,329.7373882360116,329.7373882360116,329.7373882360116,329.7373882360116,329.7373882360116,l,0.7078336859995034,10,530,1,330.471645601996,331.97333373501897,,,,,,,,,,,,,,,,,,,,,,,,,,,,,,,,,,,,,,,,,,,,,,,,,,,,,,,,,,,,,,,,,,,,,64187,2022-11-11_08h57.55.025,vts_reward_expectancy_bt_OFFLINE,2022.2.4,59.9276631181076,
0,0,1,0,1,0,0,0,hexagon,triangle,1,0,1,0,3,5,41,6,,,,,,,,,,,,,,,,,,,,,,,,,,,,,,,,,,,,,,,,332.4740294009971,332.4740294009971,332.4740294009971,332.4740294009971,332.4740294009971,332.4740294009971,332.4740294009971,332.4740294009971,332.4740294009971,332.4740294009971,l,0.8966210799990222,1,531,1,333.3913934210141,334.8930037410173,,,,,,,,,,,,,,,,,,,,,,,,,,,,,,,,,,,,,,,,,,,,,,,,,,,,,,,,,,,,,,,,,,,,,64187,2022-11-11_08h57.55.025,vts_reward_expectancy_bt_OFFLINE,2022.2.4,59.9276631181076,
0,0,0,1,0,1,0,0,star ,circle,1,0,1,0,3,6,42,10,,,,,,,,,,,,,,,,,,,,,,,,,,,,,,,,,,,,,,,,335.3935775970167,335.3935775970167,335.3935775970167,335.3935775970167,335.3935775970167,335.3935775970167,335.3935775970167,335.3935775970167,335.3935775970167,335.3935775970167,a,0.7555921199964359,1,532,1,336.17779556900496,337.6794542040152,,,,,,,,,,,,,,,,,,,,,,,,,,,,,,,,,,,,,,,,,,,,,,,,,,,,,,,,,,,,,,,,,,,,,64187,2022-11-11_08h57.55.025,vts_reward_expectancy_bt_OFFLINE,2022.2.4,59.9276631181076,
0,0,0,1,1,0,0,0,star,triangle,1,0,1,0,3,7,43,9,,,,,,,,,,,,,,,,,,,,,,,,,,,,,,,,,,,,,,,,338.1801208280085,338.1801208280085,338.1801208280085,338.1801208280085,338.1801208280085,338.1801208280085,338.1801208280085,338.1801208280085,338.1801208280085,338.1801208280085,l,1.0417635519988835,1,533,1,339.2478416429949,340.7495375449944,,,,,,,,,,,,,,,,,,,,,,,,,,,,,,,,,,,,,,,,,,,,,,,,,,,,,,,,,,,,,,,,,,,,,64187,2022-11-11_08h57.55.025,vts_reward_expectancy_bt_OFFLINE,2022.2.4,59.9276631181076,
0,1,0,0,0,0,0,1,circle,star,1,0,1,0,3,8,44,5,,,,,,,,,,,,,,,,,,,,,,,,,,,,,,,,,,,,,,,,341.25024381899857,341.25024381899857,341.25024381899857,341.25024381899857,341.25024381899857,341.25024381899857,341.25024381899857,341.25024381899857,341.25024381899857,341.25024381899857,l,0.7596190339827444,1,534,1,342.034404481994,343.53587333401083,,,,,,,,,,,,,,,,,,,,,,,,,,,,,,,,,,,,,,,,,,,,,,,,,,,,,,,,,,,,,,,,,,,,,64187,2022-11-11_08h57.55.025,vts_reward_expectancy_bt_OFFLINE,2022.2.4,59.9276631181076,
0,0,1,0,0,0,0,1,hexagon,star,1,0,1,0,3,9,45,8,,,,,,,,,,,,,,,,,,,,,,,,,,,,,,,,,,,,,,,,344.0365613330214,344.0365613330214,344.0365613330214,344.0365613330214,344.0365613330214,344.0365613330214,344.0365613330214,344.0365613330214,344.0365613330214,344.0365613330214,l,1.0238420990062878,1,535,1,345.087576948019,346.58916206102003,,,,,,,,,,,,,,,,,,,,,,,,,,,,,,,,,,,,,,,,,,,,,,,,,,,,,,,,,,,,,,,,,,,,,64187,2022-11-11_08h57.55.025,vts_reward_expectancy_bt_OFFLINE,2022.2.4,59.9276631181076,
1,0,0,0,0,1,0,0,triangle,circle,1,0,1,0,3,10,46,0,,,,,,,,,,,,,,,,,,,,,,,,,,,,,,,,,,,,,,,,347.08998505500495,347.08998505500495,347.08998505500495,347.08998505500495,347.08998505500495,347.08998505500495,347.08998505500495,347.08998505500495,347.08998505500495,347.08998505500495,a,0.9181578569987323,1,536,1,348.04102029601927,349.54254436999327,,,,,,,,,,,,,,,,,,,,,,,,,,,,,,,,,,,,,,,,,,,,,,,,,,,,,,,,,,,,,,,,,,,,,64187,2022-11-11_08h57.55.025,vts_reward_expectancy_bt_OFFLINE,2022.2.4,59.9276631181076,
0,1,0,0,1,0,0,0,circle,triangle,1,0,1,0,3,11,47,3,,,,,,,,,,,,,,,,,,,,,,,,,,,,,,,,,,,,,,,,350.0430744170153,350.0430744170153,350.0430744170153,350.0430744170153,350.0430744170153,350.0430744170153,350.0430744170153,350.0430744170153,350.0430744170153,350.0430744170153,a,0.8098582529928535,1,537,1,350.87749032699503,352.37896347400965,,,,,,,,,,,,,,,,,,,,,,,,,,,,,,,,,,,,,,,,,,,,,,,,,,,,,,,,,,,,,,,,,,,,,64187,2022-11-11_08h57.55.025,vts_reward_expectancy_bt_OFFLINE,2022.2.4,59.9276631181076,
1,0,0,0,0,0,0,1,triangle,star,2,0,2,0,0,0,0,2,,,,,,,,,,,,,,,,,,,,,,,,,,,,,,,,,,,,,,,,359.5080225559941,359.5080225559941,359.5080225559941,359.5080225559941,359.5080225559941,359.5080225559941,359.5080225559941,359.5080225559941,359.5080225559941,359.5080225559941,l,0.9535189460148104,10,547,2,360.48810745601077,361.98968055899604,,,,,,,,,,,,,,,,,,,,,,,,,,,,,,,,,,,,,,,,,,,,,,,,,,,,,,,,,,,,,,,,,,,,,64187,2022-11-11_08h57.55.025,vts_reward_expectancy_bt_OFFLINE,2022.2.4,59.9276631181076,
0,1,0,0,1,0,0,0,circle,triangle,2,0,2,0,0,1,1,3,,,,,,,,,,,,,,,,,,,,,,,,,,,,,,,,,,,,,,,,362.49015958901145,362.49015958901145,362.49015958901145,362.49015958901145,362.49015958901145,362.49015958901145,362.49015958901145,362.49015958901145,362.49015958901145,362.49015958901145,a,0.7380363390257116,1,548,2,363.2577427040087,364.7593125709973,,,,,,,,,,,,,,,,,,,,,,,,,,,,,,,,,,,,,,,,,,,,,,,,,,,,,,,,,,,,,,,,,,,,,64187,2022-11-11_08h57.55.025,vts_reward_expectancy_bt_OFFLINE,2022.2.4,59.9276631181076,
0,0,1,0,0,1,0,0,hexagon,circle,2,0,2,0,0,2,2,7,,,,,,,,,,,,,,,,,,,,,,,,,,,,,,,,,,,,,,,,365.2598339380056,365.2598339380056,365.2598339380056,365.2598339380056,365.2598339380056,365.2598339380056,365.2598339380056,365.2598339380056,365.2598339380056,365.2598339380056,l,0.8500718350114767,1,549,2,366.12739450400113,367.62906628500787,,,,,,,,,,,,,,,,,,,,,,,,,,,,,,,,,,,,,,,,,,,,,,,,,,,,,,,,,,,,,,,,,,,,,64187,2022-11-11_08h57.55.025,vts_reward_expectancy_bt_OFFLINE,2022.2.4,59.9276631181076,
0,0,0,1,1,0,0,0,star,triangle,2,0,2,0,0,3,3,9,,,,,,,,,,,,,,,,,,,,,,,,,,,,,,,,,,,,,,,,368.1297093530011,368.1297093530011,368.1297093530011,368.1297093530011,368.1297093530011,368.1297093530011,368.1297093530011,368.1297093530011,368.1297093530011,368.1297093530011,a,0.5677117520244792,10,559,2,368.73038600501604,370.2320433400164,,,,,,,,,,,,,,,,,,,,,,,,,,,,,,,,,,,,,,,,,,,,,,,,,,,,,,,,,,,,,,,,,,,,,64187,2022-11-11_08h57.55.025,vts_reward_expectancy_bt_OFFLINE,2022.2.4,59.9276631181076,
1,0,0,0,0,0,1,0,triangle,hexagon,2,0,2,0,0,4,4,1,,,,,,,,,,,,,,,,,,,,,,,,,,,,,,,,,,,,,,,,370.73256085900357,370.73256085900357,370.73256085900357,370.73256085900357,370.73256085900357,370.73256085900357,370.73256085900357,370.73256085900357,370.73256085900357,370.73256085900357,a,0.854462399991462,1,560,2,371.6169698010199,373.1186471999972,,,,,,,,,,,,,,,,,,,,,,,,,,,,,,,,,,,,,,,,,,,,,,,,,,,,,,,,,,,,,,,,,,,,,64187,2022-11-11_08h57.55.025,vts_reward_expectancy_bt_OFFLINE,2022.2.4,59.9276631181076,
1,0,0,0,0,1,0,0,triangle,circle,2,0,2,0,0,5,5,0,,,,,,,,,,,,,,,,,,,,,,,,,,,,,,,,,,,,,,,,373.619080458011,373.619080458011,373.619080458011,373.619080458011,373.619080458011,373.619080458011,373.619080458011,373.619080458011,373.619080458011,373.619080458011,a,0.5234189290204085,1,561,2,374.16964681399986,375.6713278060197,,,,,,,,,,,,,,,,,,,,,,,,,,,,,,,,,,,,,,,,,,,,,,,,,,,,,,,,,,,,,,,,,,,,,64187,2022-11-11_08h57.55.025,vts_reward_expectancy_bt_OFFLINE,2022.2.4,59.9276631181076,
0,1,0,0,0,0,1,0,circle,hexagon,2,0,2,0,0,6,6,4,,,,,,,,,,,,,,,,,,,,,,,,,,,,,,,,,,,,,,,,376.1719527200039,376.1719527200039,376.1719527200039,376.1719527200039,376.1719527200039,376.1719527200039,376.1719527200039,376.1719527200039,376.1719527200039,376.1719527200039,a,0.5014167480112519,1,562,2,376.7059150150162,378.20757922000485,,,,,,,,,,,,,,,,,,,,,,,,,,,,,,,,,,,,,,,,,,,,,,,,,,,,,,,,,,,,,,,,,,,,,64187,2022-11-11_08h57.55.025,vts_reward_expectancy_bt_OFFLINE,2022.2.4,59.9276631181076,
0,0,0,1,0,1,0,0,star ,circle,2,0,2,0,0,7,7,10,,,,,,,,,,,,,,,,,,,,,,,,,,,,,,,,,,,,,,,,378.7080083070032,378.7080083070032,378.7080083070032,378.7080083070032,378.7080083070032,378.7080083070032,378.7080083070032,378.7080083070032,378.7080083070032,378.7080083070032,a,0.632473777019186,1,563,2,379.3589748030063,380.8604742450116,,,,,,,,,,,,,,,,,,,,,,,,,,,,,,,,,,,,,,,,,,,,,,,,,,,,,,,,,,,,,,,,,,,,,64187,2022-11-11_08h57.55.025,vts_reward_expectancy_bt_OFFLINE,2022.2.4,59.9276631181076,
0,1,0,0,0,0,0,1,circle,star,2,0,2,0,0,8,8,5,,,,,,,,,,,,,,,,,,,,,,,,,,,,,,,,,,,,,,,,381.3611258320161,381.3611258320161,381.3611258320161,381.3611258320161,381.3611258320161,381.3611258320161,381.3611258320161,381.3611258320161,381.3611258320161,381.3611258320161,l,0.2967228420020547,10,573,2,381.6780328490131,383.17973127399455,,,,,,,,,,,,,,,,,,,,,,,,,,,,,,,,,,,,,,,,,,,,,,,,,,,,,,,,,,,,,,,,,,,,,64187,2022-11-11_08h57.55.025,vts_reward_expectancy_bt_OFFLINE,2022.2.4,59.9276631181076,
0,0,1,0,1,0,0,0,hexagon,triangle,2,0,2,0,0,9,9,6,,,,,,,,,,,,,,,,,,,,,,,,,,,,,,,,,,,,,,,,383.68012364101014,383.68012364101014,383.68012364101014,383.68012364101014,383.68012364101014,383.68012364101014,383.68012364101014,383.68012364101014,383.68012364101014,383.68012364101014,l,0.4637081309920177,10,583,2,384.164261449012,385.66588539700024,,,,,,,,,,,,,,,,,,,,,,,,,,,,,,,,,,,,,,,,,,,,,,,,,,,,,,,,,,,,,,,,,,,,,64187,2022-11-11_08h57.55.025,vts_reward_expectancy_bt_OFFLINE,2022.2.4,59.9276631181076,
0,0,0,1,0,0,1,0,star,hexagon,2,0,2,0,0,10,10,11,,,,,,,,,,,,,,,,,,,,,,,,,,,,,,,,,,,,,,,,386.1664091949933,386.1664091949933,386.1664091949933,386.1664091949933,386.1664091949933,386.1664091949933,386.1664091949933,386.1664091949933,386.1664091949933,386.1664091949933,l,0.2943752580031287,10,593,2,386.483390384994,387.9849049700133,,,,,,,,,,,,,,,,,,,,,,,,,,,,,,,,,,,,,,,,,,,,,,,,,,,,,,,,,,,,,,,,,,,,,64187,2022-11-11_08h57.55.025,vts_reward_expectancy_bt_OFFLINE,2022.2.4,59.9276631181076,
0,0,1,0,0,0,0,1,hexagon,star,2,0,2,0,0,11,11,8,,,,,,,,,,,,,,,,,,,,,,,,,,,,,,,,,,,,,,,,388.485505492019,388.485505492019,388.485505492019,388.485505492019,388.485505492019,388.485505492019,388.485505492019,388.485505492019,388.485505492019,388.485505492019,l,0.37080006502219476,10,603,2,388.88608325700625,390.38764579000417,,,,,,,,,,,,,,,,,,,,,,,,,,,,,,,,,,,,,,,,,,,,,,,,,,,,,,,,,,,,,,,,,,,,,64187,2022-11-11_08h57.55.025,vts_reward_expectancy_bt_OFFLINE,2022.2.4,59.9276631181076,
0,1,0,0,0,0,1,0,circle,hexagon,2,0,2,0,1,0,12,4,,,,,,,,,,,,,,,,,,,,,,,,,,,,,,,,,,,,,,,,390.88820295600453,390.88820295600453,390.88820295600453,390.88820295600453,390.88820295600453,390.88820295600453,390.88820295600453,390.88820295600453,390.88820295600453,390.88820295600453,l,1.1757898520154413,10,613,2,392.08959372501704,393.59115154200117,,,,,,,,,,,,,,,,,,,,,,,,,,,,,,,,,,,,,,,,,,,,,,,,,,,,,,,,,,,,,,,,,,,,,64187,2022-11-11_08h57.55.025,vts_reward_expectancy_bt_OFFLINE,2022.2.4,59.9276631181076,
1,0,0,0,0,0,1,0,triangle,hexagon,2,0,2,0,1,1,13,1,,,,,,,,,,,,,,,,,,,,,,,,,,,,,,,,,,,,,,,,394.0915812510066,394.0915812510066,394.0915812510066,394.0915812510066,394.0915812510066,394.0915812510066,394.0915812510066,394.0915812510066,394.0915812510066,394.0915812510066,l,0.35705677600344643,10,623,2,394.475551704003,395.9769625820045,,,,,,,,,,,,,,,,,,,,,,,,,,,,,,,,,,,,,,,,,,,,,,,,,,,,,,,,,,,,,,,,,,,,,64187,2022-11-11_08h57.55.025,vts_reward_expectancy_bt_OFFLINE,2022.2.4,59.9276631181076,
1,0,0,0,0,1,0,0,triangle,circle,2,0,2,0,1,2,14,0,,,,,,,,,,,,,,,,,,,,,,,,,,,,,,,,,,,,,,,,396.47751170399715,396.47751170399715,396.47751170399715,396.47751170399715,396.47751170399715,396.47751170399715,396.47751170399715,396.47751170399715,396.47751170399715,396.47751170399715,l,0.3337538590130862,1,624,2,396.8278646930121,398.3296820539981,,,,,,,,,,,,,,,,,,,,,,,,,,,,,,,,,,,,,,,,,,,,,,,,,,,,,,,,,,,,,,,,,,,,,64187,2022-11-11_08h57.55.025,vts_reward_expectancy_bt_OFFLINE,2022.2.4,59.9276631181076,
0,0,1,0,0,0,0,1,hexagon,star,2,0,2,0,1,3,15,8,,,,,,,,,,,,,,,,,,,,,,,,,,,,,,,,,,,,,,,,398.8301224799943,398.8301224799943,398.8301224799943,398.8301224799943,398.8301224799943,398.8301224799943,398.8301224799943,398.8301224799943,398.8301224799943,398.8301224799943,a,0.5236566929961555,10,634,2,399.3807683699997,400.88238176499726,,,,,,,,,,,,,,,,,,,,,,,,,,,,,,,,,,,,,,,,,,,,,,,,,,,,,,,,,,,,,,,,,,,,,64187,2022-11-11_08h57.55.025,vts_reward_expectancy_bt_OFFLINE,2022.2.4,59.9276631181076,
0,1,0,0,0,0,0,1,circle,star,2,0,2,0,1,4,16,5,,,,,,,,,,,,,,,,,,,,,,,,,,,,,,,,,,,,,,,,401.3830857660214,401.3830857660214,401.3830857660214,401.3830857660214,401.3830857660214,401.3830857660214,401.3830857660214,401.3830857660214,401.3830857660214,401.3830857660214,a,0.34394578600768,1,635,2,401.75004552601604,403.25174706301186,,,,,,,,,,,,,,,,,,,,,,,,,,,,,,,,,,,,,,,,,,,,,,,,,,,,,,,,,,,,,,,,,,,,,64187,2022-11-11_08h57.55.025,vts_reward_expectancy_bt_OFFLINE,2022.2.4,59.9276631181076,
0,0,0,1,0,1,0,0,star ,circle,2,0,2,0,1,5,17,10,,,,,,,,,,,,,,,,,,,,,,,,,,,,,,,,,,,,,,,,403.75219880600343,403.75219880600343,403.75219880600343,403.75219880600343,403.75219880600343,403.75219880600343,403.75219880600343,403.75219880600343,403.75219880600343,403.75219880600343,a,0.28252169900224544,1,636,2,404.05258533201413,405.5542832320207,,,,,,,,,,,,,,,,,,,,,,,,,,,,,,,,,,,,,,,,,,,,,,,,,,,,,,,,,,,,,,,,,,,,,64187,2022-11-11_08h57.55.025,vts_reward_expectancy_bt_OFFLINE,2022.2.4,59.9276631181076,
0,0,0,1,1,0,0,0,star,triangle,2,0,2,0,1,6,18,9,,,,,,,,,,,,,,,,,,,,,,,,,,,,,,,,,,,,,,,,406.0549693730136,406.0549693730136,406.0549693730136,406.0549693730136,406.0549693730136,406.0549693730136,406.0549693730136,406.0549693730136,406.0549693730136,406.0549693730136,l,0.3070097510062624,1,637,2,406.38878166800714,407.89024213000084,,,,,,,,,,,,,,,,,,,,,,,,,,,,,,,,,,,,,,,,,,,,,,,,,,,,,,,,,,,,,,,,,,,,,64187,2022-11-11_08h57.55.025,vts_reward_expectancy_bt_OFFLINE,2022.2.4,59.9276631181076,
1,0,0,0,0,0,0,1,triangle,star,2,0,2,0,1,7,19,2,,,,,,,,,,,,,,,,,,,,,,,,,,,,,,,,,,,,,,,,408.39071731700096,408.39071731700096,408.39071731700096,408.39071731700096,408.39071731700096,408.39071731700096,408.39071731700096,408.39071731700096,408.39071731700096,408.39071731700096,l,0.26974427298409864,10,647,2,408.67795693001244,410.1927617370093,,,,,,,,,,,,,,,,,,,,,,,,,,,,,,,,,,,,,,,,,,,,,,,,,,,,,,,,,,,,,,,,,,,,,64187,2022-11-11_08h57.55.025,vts_reward_expectancy_bt_OFFLINE,2022.2.4,59.9276631181076,
0,0,0,1,0,0,1,0,star,hexagon,2,0,2,0,1,8,20,11,,,,,,,,,,,,,,,,,,,,,,,,,,,,,,,,,,,,,,,,410.69339299501735,410.69339299501735,410.69339299501735,410.69339299501735,410.69339299501735,410.69339299501735,410.69339299501735,410.69339299501735,410.69339299501735,410.69339299501735,l,0.4174952319881413,10,657,2,411.14380685199285,412.64551839401247,,,,,,,,,,,,,,,,,,,,,,,,,,,,,,,,,,,,,,,,,,,,,,,,,,,,,,,,,,,,,,,,,,,,,64187,2022-11-11_08h57.55.025,vts_reward_expectancy_bt_OFFLINE,2022.2.4,59.9276631181076,
0,1,0,0,1,0,0,0,circle,triangle,2,0,2,0,1,9,21,3,,,,,,,,,,,,,,,,,,,,,,,,,,,,,,,,,,,,,,,,413.14598861100967,413.14598861100967,413.14598861100967,413.14598861100967,413.14598861100967,413.14598861100967,413.14598861100967,413.14598861100967,413.14598861100967,413.14598861100967,l,0.6194209280074574,10,667,2,413.79675593200955,415.2984080990136,,,,,,,,,,,,,,,,,,,,,,,,,,,,,,,,,,,,,,,,,,,,,,,,,,,,,,,,,,,,,,,,,,,,,64187,2022-11-11_08h57.55.025,vts_reward_expectancy_bt_OFFLINE,2022.2.4,59.9276631181076,
0,0,1,0,1,0,0,0,hexagon,triangle,2,0,2,0,1,10,22,6,,,,,,,,,,,,,,,,,,,,,,,,,,,,,,,,,,,,,,,,415.799053914001,415.799053914001,415.799053914001,415.799053914001,415.799053914001,415.799053914001,415.799053914001,415.799053914001,415.799053914001,415.799053914001,l,0.4864312179852277,1,668,2,416.31608197299647,417.8178837070009,,,,,,,,,,,,,,,,,,,,,,,,,,,,,,,,,,,,,,,,,,,,,,,,,,,,,,,,,,,,,,,,,,,,,64187,2022-11-11_08h57.55.025,vts_reward_expectancy_bt_OFFLINE,2022.2.4,59.9276631181076,
0,0,1,0,0,1,0,0,hexagon,circle,2,0,2,0,1,11,23,7,,,,,,,,,,,,,,,,,,,,,,,,,,,,,,,,,,,,,,,,418.3183754320198,418.3183754320198,418.3183754320198,418.3183754320198,418.3183754320198,418.3183754320198,418.3183754320198,418.3183754320198,418.3183754320198,418.3183754320198,a,0.4532740580034442,10,678,2,418.80217343600816,420.30391469501774,,,,,,,,,,,,,,,,,,,,,,,,,,,,,,,,,,,,,,,,,,,,,,,,,,,,,,,,,,,,,,,,,,,,,64187,2022-11-11_08h57.55.025,vts_reward_expectancy_bt_OFFLINE,2022.2.4,59.9276631181076,
0,0,0,1,0,1,0,0,star ,circle,2,0,2,0,2,0,24,10,,,,,,,,,,,,,,,,,,,,,,,,,,,,,,,,,,,,,,,,420.80455255901325,420.80455255901325,420.80455255901325,420.80455255901325,420.80455255901325,420.80455255901325,420.80455255901325,420.80455255901325,420.80455255901325,420.80455255901325,l,0.318130094994558,1,679,2,421.1547818480176,422.6565430360206,,,,,,,,,,,,,,,,,,,,,,,,,,,,,,,,,,,,,,,,,,,,,,,,,,,,,,,,,,,,,,,,,,,,,64187,2022-11-11_08h57.55.025,vts_reward_expectancy_bt_OFFLINE,2022.2.4,59.9276631181076,
0,1,0,0,0,0,0,1,circle,star,2,0,2,0,2,1,25,5,,,,,,,,,,,,,,,,,,,,,,,,,,,,,,,,,,,,,,,,423.1570385140076,423.1570385140076,423.1570385140076,423.1570385140076,423.1570385140076,423.1570385140076,423.1570385140076,423.1570385140076,423.1570385140076,423.1570385140076,l,0.3282974949979689,1,680,2,423.50752569001634,425.0090584370191,,,,,,,,,,,,,,,,,,,,,,,,,,,,,,,,,,,,,,,,,,,,,,,,,,,,,,,,,,,,,,,,,,,,,64187,2022-11-11_08h57.55.025,vts_reward_expectancy_bt_OFFLINE,2022.2.4,59.9276631181076,
0,1,0,0,1,0,0,0,circle,triangle,2,0,2,0,2,2,26,3,,,,,,,,,,,,,,,,,,,,,,,,,,,,,,,,,,,,,,,,425.50976989101036,425.50976989101036,425.50976989101036,425.50976989101036,425.50976989101036,425.50976989101036,425.50976989101036,425.50976989101036,425.50976989101036,425.50976989101036,l,0.30374233599286526,1,681,2,425.8434907910123,427.34502353399876,,,,,,,,,,,,,,,,,,,,,,,,,,,,,,,,,,,,,,,,,,,,,,,,,,,,,,,,,,,,,,,,,,,,,64187,2022-11-11_08h57.55.025,vts_reward_expectancy_bt_OFFLINE,2022.2.4,59.9276631181076,
0,1,0,0,0,0,1,0,circle,hexagon,2,0,2,0,2,3,27,4,,,,,,,,,,,,,,,,,,,,,,,,,,,,,,,,,,,,,,,,427.84554338201997,427.84554338201997,427.84554338201997,427.84554338201997,427.84554338201997,427.84554338201997,427.84554338201997,427.84554338201997,427.84554338201997,427.84554338201997,a,0.35399217301164754,1,682,2,428.22927769401576,429.73096288199304,,,,,,,,,,,,,,,,,,,,,,,,,,,,,,,,,,,,,,,,,,,,,,,,,,,,,,,,,,,,,,,,,,,,,64187,2022-11-11_08h57.55.025,vts_reward_expectancy_bt_OFFLINE,2022.2.4,59.9276631181076,
0,0,0,1,0,0,1,0,star,hexagon,2,0,2,0,2,4,28,11,,,,,,,,,,,,,,,,,,,,,,,,,,,,,,,,,,,,,,,,430.23146746499697,430.23146746499697,430.23146746499697,430.23146746499697,430.23146746499697,430.23146746499697,430.23146746499697,430.23146746499697,430.23146746499697,430.23146746499697,l,0.26317046899930574,1,683,2,430.5153426420002,432.01679578001495,,,,,,,,,,,,,,,,,,,,,,,,,,,,,,,,,,,,,,,,,,,,,,,,,,,,,,,,,,,,,,,,,,,,,64187,2022-11-11_08h57.55.025,vts_reward_expectancy_bt_OFFLINE,2022.2.4,59.9276631181076,
1,0,0,0,0,0,0,1,triangle,star,2,0,2,0,2,5,29,2,,,,,,,,,,,,,,,,,,,,,,,,,,,,,,,,,,,,,,,,432.51741873900755,432.51741873900755,432.51741873900755,432.51741873900755,432.51741873900755,432.51741873900755,432.51741873900755,432.51741873900755,432.51741873900755,432.51741873900755,a,0.28447071099071763,1,684,2,432.83437271,434.33601490501314,,,,,,,,,,,,,,,,,,,,,,,,,,,,,,,,,,,,,,,,,,,,,,,,,,,,,,,,,,,,,,,,,,,,,64187,2022-11-11_08h57.55.025,vts_reward_expectancy_bt_OFFLINE,2022.2.4,59.9276631181076,
0,0,0,1,1,0,0,0,star,triangle,2,0,2,0,2,6,30,9,,,,,,,,,,,,,,,,,,,,,,,,,,,,,,,,,,,,,,,,434.8366871540202,434.8366871540202,434.8366871540202,434.8366871540202,434.8366871540202,434.8366871540202,434.8366871540202,434.8366871540202,434.8366871540202,434.8366871540202,a,0.2828155370079912,10,694,2,435.13706167502096,436.6387112660159,,,,,,,,,,,,,,,,,,,,,,,,,,,,,,,,,,,,,,,,,,,,,,,,,,,,,,,,,,,,,,,,,,,,,64187,2022-11-11_08h57.55.025,vts_reward_expectancy_bt_OFFLINE,2022.2.4,59.9276631181076,
0,0,1,0,0,1,0,0,hexagon,circle,2,0,2,0,2,7,31,7,,,,,,,,,,,,,,,,,,,,,,,,,,,,,,,,,,,,,,,,437.1392183130083,437.1392183130083,437.1392183130083,437.1392183130083,437.1392183130083,437.1392183130083,437.1392183130083,437.1392183130083,437.1392183130083,437.1392183130083,a,0.5108954820025247,10,704,2,437.67306909899344,439.1746693410096,,,,,,,,,,,,,,,,,,,,,,,,,,,,,,,,,,,,,,,,,,,,,,,,,,,,,,,,,,,,,,,,,,,,,64187,2022-11-11_08h57.55.025,vts_reward_expectancy_bt_OFFLINE,2022.2.4,59.9276631181076,
0,0,1,0,1,0,0,0,hexagon,triangle,2,0,2,0,2,8,32,6,,,,,,,,,,,,,,,,,,,,,,,,,,,,,,,,,,,,,,,,439.6754952830088,439.6754952830088,439.6754952830088,439.6754952830088,439.6754952830088,439.6754952830088,439.6754952830088,439.6754952830088,439.6754952830088,439.6754952830088,a,0.4265426489873789,10,714,2,440.12575208500493,441.62737874299637,,,,,,,,,,,,,,,,,,,,,,,,,,,,,,,,,,,,,,,,,,,,,,,,,,,,,,,,,,,,,,,,,,,,,64187,2022-11-11_08h57.55.025,vts_reward_expectancy_bt_OFFLINE,2022.2.4,59.9276631181076,
0,0,1,0,0,0,0,1,hexagon,star,2,0,2,0,2,9,33,8,,,,,,,,,,,,,,,,,,,,,,,,,,,,,,,,,,,,,,,,442.1280171099934,442.1280171099934,442.1280171099934,442.1280171099934,442.1280171099934,442.1280171099934,442.1280171099934,442.1280171099934,442.1280171099934,442.1280171099934,a,0.5061611009878106,1,715,2,442.66196244599996,444.1630347040191,,,,,,,,,,,,,,,,,,,,,,,,,,,,,,,,,,,,,,,,,,,,,,,,,,,,,,,,,,,,,,,,,,,,,64187,2022-11-11_08h57.55.025,vts_reward_expectancy_bt_OFFLINE,2022.2.4,59.9276631181076,
1,0,0,0,0,0,1,0,triangle,hexagon,2,0,2,0,2,10,34,1,,,,,,,,,,,,,,,,,,,,,,,,,,,,,,,,,,,,,,,,444.66408959100954,444.66408959100954,444.66408959100954,444.66408959100954,444.66408959100954,444.66408959100954,444.66408959100954,444.66408959100954,444.66408959100954,444.66408959100954,a,1.2545750550052617,1,716,2,445.9488798759994,447.45033731200965,,,,,,,,,,,,,,,,,,,,,,,,,,,,,,,,,,,,,,,,,,,,,,,,,,,,,,,,,,,,,,,,,,,,,64187,2022-11-11_08h57.55.025,vts_reward_expectancy_bt_OFFLINE,2022.2.4,59.9276631181076,
1,0,0,0,0,1,0,0,triangle,circle,2,0,2,0,2,11,35,0,,,,,,,,,,,,,,,,,,,,,,,,,,,,,,,,,,,,,,,,447.95126577900373,447.95126577900373,447.95126577900373,447.95126577900373,447.95126577900373,447.95126577900373,447.95126577900373,447.95126577900373,447.95126577900373,447.95126577900373,l,0.48725021598511375,1,717,2,448.46841109599336,449.96992028100067,,,,,,,,,,,,,,,,,,,,,,,,,,,,,,,,,,,,,,,,,,,,,,,,,,,,,,,,,,,,,,,,,,,,,64187,2022-11-11_08h57.55.025,vts_reward_expectancy_bt_OFFLINE,2022.2.4,59.9276631181076,
0,1,0,0,1,0,0,0,circle,triangle,2,0,2,0,3,0,36,3,,,,,,,,,,,,,,,,,,,,,,,,,,,,,,,,,,,,,,,,450.47042596901883,450.47042596901883,450.47042596901883,450.47042596901883,450.47042596901883,450.47042596901883,450.47042596901883,450.47042596901883,450.47042596901883,450.47042596901883,a,0.31895696598803625,1,718,2,450.820938749006,452.3225871940085,,,,,,,,,,,,,,,,,,,,,,,,,,,,,,,,,,,,,,,,,,,,,,,,,,,,,,,,,,,,,,,,,,,,,64187,2022-11-11_08h57.55.025,vts_reward_expectancy_bt_OFFLINE,2022.2.4,59.9276631181076,
0,1,0,0,0,0,1,0,circle,hexagon,2,0,2,0,3,1,37,4,,,,,,,,,,,,,,,,,,,,,,,,,,,,,,,,,,,,,,,,452.8231552140205,452.8231552140205,452.8231552140205,452.8231552140205,452.8231552140205,452.8231552140205,452.8231552140205,452.8231552140205,452.8231552140205,452.8231552140205,l,0.30697442797827534,10,728,2,453.15692118302104,454.6584934669954,,,,,,,,,,,,,,,,,,,,,,,,,,,,,,,,,,,,,,,,,,,,,,,,,,,,,,,,,,,,,,,,,,,,,64187,2022-11-11_08h57.55.025,vts_reward_expectancy_bt_OFFLINE,2022.2.4,59.9276631181076,
0,0,0,1,0,0,1,0,star,hexagon,2,0,2,0,3,2,38,11,,,,,,,,,,,,,,,,,,,,,,,,,,,,,,,,,,,,,,,,455.1591072239971,455.1591072239971,455.1591072239971,455.1591072239971,455.1591072239971,455.1591072239971,455.1591072239971,455.1591072239971,455.1591072239971,455.1591072239971,l,0.31063680702936836,10,738,2,455.4930033000128,456.99446684101713,,,,,,,,,,,,,,,,,,,,,,,,,,,,,,,,,,,,,,,,,,,,,,,,,,,,,,,,,,,,,,,,,,,,,64187,2022-11-11_08h57.55.025,vts_reward_expectancy_bt_OFFLINE,2022.2.4,59.9276631181076,
0,0,0,1,1,0,0,0,star,triangle,2,0,2,0,3,3,39,9,,,,,,,,,,,,,,,,,,,,,,,,,,,,,,,,,,,,,,,,457.4949201460113,457.4949201460113,457.4949201460113,457.4949201460113,457.4949201460113,457.4949201460113,457.4949201460113,457.4949201460113,457.4949201460113,457.4949201460113,a,0.31614299200009555,1,739,2,457.8286713870184,459.3302402770205,,,,,,,,,,,,,,,,,,,,,,,,,,,,,,,,,,,,,,,,,,,,,,,,,,,,,,,,,,,,,,,,,,,,,64187,2022-11-11_08h57.55.025,vts_reward_expectancy_bt_OFFLINE,2022.2.4,59.9276631181076,
1,0,0,0,0,0,1,0,triangle,hexagon,2,0,2,0,3,4,40,1,,,,,,,,,,,,,,,,,,,,,,,,,,,,,,,,,,,,,,,,459.8309476720169,459.8309476720169,459.8309476720169,459.8309476720169,459.8309476720169,459.8309476720169,459.8309476720169,459.8309476720169,459.8309476720169,459.8309476720169,a,0.33123894801246934,1,740,2,460.18122280199896,461.6830257520196,,,,,,,,,,,,,,,,,,,,,,,,,,,,,,,,,,,,,,,,,,,,,,,,,,,,,,,,,,,,,,,,,,,,,64187,2022-11-11_08h57.55.025,vts_reward_expectancy_bt_OFFLINE,2022.2.4,59.9276631181076,
1,0,0,0,0,0,0,1,triangle,star,2,0,2,0,3,5,41,2,,,,,,,,,,,,,,,,,,,,,,,,,,,,,,,,,,,,,,,,462.1836772240058,462.1836772240058,462.1836772240058,462.1836772240058,462.1836772240058,462.1836772240058,462.1836772240058,462.1836772240058,462.1836772240058,462.1836772240058,a,0.36263255201629363,10,750,2,462.5672451540013,464.0688560070121,,,,,,,,,,,,,,,,,,,,,,,,,,,,,,,,,,,,,,,,,,,,,,,,,,,,,,,,,,,,,,,,,,,,,64187,2022-11-11_08h57.55.025,vts_reward_expectancy_bt_OFFLINE,2022.2.4,59.9276631181076,
0,0,1,0,0,0,0,1,hexagon,star,2,0,2,0,3,6,42,8,,,,,,,,,,,,,,,,,,,,,,,,,,,,,,,,,,,,,,,,464.5694735550205,464.5694735550205,464.5694735550205,464.5694735550205,464.5694735550205,464.5694735550205,464.5694735550205,464.5694735550205,464.5694735550205,464.5694735550205,l,0.609585280995816,10,760,2,465.20349790900946,466.70526978501584,,,,,,,,,,,,,,,,,,,,,,,,,,,,,,,,,,,,,,,,,,,,,,,,,,,,,,,,,,,,,,,,,,,,,64187,2022-11-11_08h57.55.025,vts_reward_expectancy_bt_OFFLINE,2022.2.4,59.9276631181076,
1,0,0,0,0,1,0,0,triangle,circle,2,0,2,0,3,7,43,0,,,,,,,,,,,,,,,,,,,,,,,,,,,,,,,,,,,,,,,,467.2056365220051,467.2056365220051,467.2056365220051,467.2056365220051,467.2056365220051,467.2056365220051,467.2056365220051,467.2056365220051,467.2056365220051,467.2056365220051,l,0.3131857359840069,10,770,2,467.5392193690059,469.0409563280118,,,,,,,,,,,,,,,,,,,,,,,,,,,,,,,,,,,,,,,,,,,,,,,,,,,,,,,,,,,,,,,,,,,,,64187,2022-11-11_08h57.55.025,vts_reward_expectancy_bt_OFFLINE,2022.2.4,59.9276631181076,
0,0,0,1,0,1,0,0,star ,circle,2,0,2,0,3,8,44,10,,,,,,,,,,,,,,,,,,,,,,,,,,,,,,,,,,,,,,,,469.5414315210073,469.5414315210073,469.5414315210073,469.5414315210073,469.5414315210073,469.5414315210073,469.5414315210073,469.5414315210073,469.5414315210073,469.5414315210073,a,0.3626341509807389,10,780,2,469.92540482699405,471.4269152049965,,,,,,,,,,,,,,,,,,,,,,,,,,,,,,,,,,,,,,,,,,,,,,,,,,,,,,,,,,,,,,,,,,,,,64187,2022-11-11_08h57.55.025,vts_reward_expectancy_bt_OFFLINE,2022.2.4,59.9276631181076,
0,0,1,0,0,1,0,0,hexagon,circle,2,0,2,0,3,9,45,7,,,,,,,,,,,,,,,,,,,,,,,,,,,,,,,,,,,,,,,,471.9274785880116,471.9274785880116,471.9274785880116,471.9274785880116,471.9274785880116,471.9274785880116,471.9274785880116,471.9274785880116,471.9274785880116,471.9274785880116,l,0.4750622029823717,1,781,2,472.4279967890179,473.9296153259929,,,,,,,,,,,,,,,,,,,,,,,,,,,,,,,,,,,,,,,,,,,,,,,,,,,,,,,,,,,,,,,,,,,,,64187,2022-11-11_08h57.55.025,vts_reward_expectancy_bt_OFFLINE,2022.2.4,59.9276631181076,
0,1,0,0,0,0,0,1,circle,star,2,0,2,0,3,10,46,5,,,,,,,,,,,,,,,,,,,,,,,,,,,,,,,,,,,,,,,,474.4302402000176,474.4302402000176,474.4302402000176,474.4302402000176,474.4302402000176,474.4302402000176,474.4302402000176,474.4302402000176,474.4302402000176,474.4302402000176,l,0.30173439299687743,10,791,2,474.7639502219972,476.26568310000584,,,,,,,,,,,,,,,,,,,,,,,,,,,,,,,,,,,,,,,,,,,,,,,,,,,,,,,,,,,,,,,,,,,,,64187,2022-11-11_08h57.55.025,vts_reward_expectancy_bt_OFFLINE,2022.2.4,59.9276631181076,
0,0,1,0,1,0,0,0,hexagon,triangle,2,0,2,0,3,11,47,6,,,,,,,,,,,,,,,,,,,,,,,,,,,,,,,,,,,,,,,,476.766169480019,476.766169480019,476.766169480019,476.766169480019,476.766169480019,476.766169480019,476.766169480019,476.766169480019,476.766169480019,476.766169480019,l,0.3613836450094823,1,792,2,477.14975682101795,478.65169972600415,,,,,,,,,,,,,,,,,,,,,,,,,,,,,,,,,,,,,,,,,,,,,,,,,,,,,,,,,,,,,,,,,,,,,64187,2022-11-11_08h57.55.025,vts_reward_expectancy_bt_OFFLINE,2022.2.4,59.9276631181076,
,,,,,,,,,,,,,,,,,,0,0,0,0,0,0,0,0,,,,,,,,,,,,,,,,,,,,,,,,,,,,,,,,,,,,,,,,,,,,,,,,540.3530346710177,U,146,circle,0.001981526002055034,534.344973646017,535.848173906008,535.848173906008,535.848173906008,538.8513857950165,538.8513857950165,538.8513857950165,538.8513857950165,0,0,None,0,538.8513857950165,540.3530346710177,540.853640492016,,,,,,,,,,,,,,,,,,,,,,,,,,,,,,,,,,,,,,,,,,,,,,,,,,64187,2022-11-11_08h57.55.025,vts_reward_expectancy_bt_OFFLINE,2022.2.4,59.9276631181076,
,,,,,,,,,,,,,,,,,,0,0,0,0,1,0,1,0,,,,,,,,,,,,,,,,,,,,,,,,,,,,,,,,,,,,,,,,,,,,,,,,545.308496120997,B,160,hexagon,0.009297832002630457,541.3514681850211,542.8558827369998,542.8558827369998,542.8558827369998,,,,,1,1,d,0,543.8073300530086,,,0.9302054269937798,,,,,,,,,,,,,,,,,,,,,,,,,,,,,,,,,,,,,,,,,,,,,,,,,64187,2022-11-11_08h57.55.025,vts_reward_expectancy_bt_OFFLINE,2022.2.4,59.9276631181076,
,,,,,,,,,,,,,,,,,,0,0,0,0,2,0,2,0,,,,,,,,,,,,,,,,,,,,,,,,,,,,,,,,,,,,,,,,,,,,,,,,549.896873649006,D,139,triangle,0.0017607620102353394,546.2910918139969,547.79458118201,547.79458118201,547.79458118201,,,,,1,0,d,0,548.3952180460037,,,0.5695452559739351,,,,,,,,,,,,,,,,,,,,,,,,,,,,,,,,,,,,,,,,,,,,,,,,,64187,2022-11-11_08h57.55.025,vts_reward_expectancy_bt_OFFLINE,2022.2.4,59.9276631181076,
,,,,,,,,,,,,,,,,,,0,0,0,0,3,0,3,0,,,,,,,,,,,,,,,,,,,,,,,,,,,,,,,,,,,,,,,,,,,,,,,,554.4684439600096,H,181,star,0.0016566179983783513,550.8796333910141,552.382883120008,552.382883120008,552.382883120008,,,,,1,0,d,0,552.9668753180013,,,0.5601098129991442,,,,,,,,,,,,,,,,,,,,,,,,,,,,,,,,,,,,,,,,,,,,,,,,,64187,2022-11-11_08h57.55.025,vts_reward_expectancy_bt_OFFLINE,2022.2.4,59.9276631181076,
,,,,,,,,,,,,,,,,,,0,0,0,0,4,0,4,0,,,,,,,,,,,,,,,,,,,,,,,,,,,,,,,,,,,,,,,,,,,,,,,,559.0570518440218,F,174,triangle,0.0014567580074071884,555.4477949260036,556.9546788390144,556.9546788390144,556.9546788390144,,,,,1,0,d,0,557.5552585390105,,,0.5682501379924361,,,,,,,,,,,,,,,,,,,,,,,,,,,,,,,,,,,,,,,,,,,,,,,,,64187,2022-11-11_08h57.55.025,vts_reward_expectancy_bt_OFFLINE,2022.2.4,59.9276631181076,
,,,,,,,,,,,,,,,,,,0,0,0,0,5,0,5,0,,,,,,,,,,,,,,,,,,,,,,,,,,,,,,,,,,,,,,,,,,,,,,,,563.6115659190109,W,167,hexagon,0.001738127990392968,560.0367974069959,561.5429895810084,561.5429895810084,561.5429895810084,,,,,0,0,d,0,562.1103473760013,,,0.5461960039974656,,,,,,,,,,,,,,,,,,,,,,,,,,,,,,,,,,,,,,,,,,,,,,,,,64187,2022-11-11_08h57.55.025,vts_reward_expectancy_bt_OFFLINE,2022.2.4,59.9276631181076,
,,,,,,,,,,,,,,,,,,0,0,0,0,6,0,6,0,,,,,,,,,,,,,,,,,,,,,,,,,,,,,,,,,,,,,,,,,,,,,,,,568.417240979994,S,125,circle,0.0014520290133077651,564.5942162580031,566.097995329008,566.097995329008,566.097995329008,,,,,0,1,d,0,566.9157187230012,,,0.7953036739781965,,,,,,,,,,,,,,,,,,,,,,,,,,,,,,,,,,,,,,,,,,,,,,,,,64187,2022-11-11_08h57.55.025,vts_reward_expectancy_bt_OFFLINE,2022.2.4,59.9276631181076,
,,,,,,,,,,,,,,,,,,0,0,0,0,7,0,7,0,,,,,,,,,,,,,,,,,,,,,,,,,,,,,,,,,,,,,,,,,,,,,,,,572.9723371120053,Y,132,star,0.001731925003696233,569.3987408890098,570.9034545260074,570.9034545260074,570.9034545260074,,,,,1,1,f,0,571.4706021900056,,,0.5348177239939105,,,,,,,,,,,,,,,,,,,,,,,,,,,,,,,,,,,,,,,,,,,,,,,,,64187,2022-11-11_08h57.55.025,vts_reward_expectancy_bt_OFFLINE,2022.2.4,59.9276631181076,
,,,,,,,,,,,,,,,,,,0,0,0,0,8,0,8,0,,,,,,,,,,,,,,,,,,,,,,,,,,,,,,,,,,,,,,,,,,,,,,,,577.6608693570015,U,146,circle,0.0018200770136900246,573.9509693309956,575.4582352910074,575.4582352910074,575.4582352910074,,,,,1,0,f,0,576.1591269159981,,,0.6725154719897546,,,,,,,,,,,,,,,,,,,,,,,,,,,,,,,,,,,,,,,,,,,,,,,,,64187,2022-11-11_08h57.55.025,vts_reward_expectancy_bt_OFFLINE,2022.2.4,59.9276631181076,
,,,,,,,,,,,,,,,,,,0,0,0,0,9,0,9,0,,,,,,,,,,,,,,,,,,,,,,,,,,,,,,,,,,,,,,,,,,,,,,,,582.7162855720089,B,160,triangle,0.0016330649959854782,578.6400002709997,580.146850115998,580.146850115998,580.146850115998,,,,,1,0,d,0,581.2145795740071,,,1.04618912001024,,,,,,,,,,,,,,,,,,,,,,,,,,,,,,,,,,,,,,,,,,,,,,,,,64187,2022-11-11_08h57.55.025,vts_reward_expectancy_bt_OFFLINE,2022.2.4,59.9276631181076,
,,,,,,,,,,,,,,,,,,1,0,1,0,0,0,0,0,,,,,,,,,,,,,,,,,,,,,,,,,,,,,,,,,,,,,,,,,,,,,,,,609.3790033760015,S,181,triangle,0.002186805009841919,605.4031541740114,606.909635404998,606.909635404998,606.909635404998,,,,,1,0,f,1,607.8773325330112,,,0.9352577310055494,,,,,,,,,,,,,,,,,,,,,,,,,,,,,,,,,,,,,,,,,,,,,,,,,64187,2022-11-11_08h57.55.025,vts_reward_expectancy_bt_OFFLINE,2022.2.4,59.9276631181076,
,,,,,,,,,,,,,,,,,,1,0,1,0,1,0,1,0,,,,,,,,,,,,,,,,,,,,,,,,,,,,,,,,,,,,,,,,,,,,,,,,614.2178670180147,Y,125,star,0.0013935930037405342,610.3606714060006,611.8653249799972,611.8653249799972,611.8653249799972,,,,,1,0,f,1,612.7162318550108,,,0.8277982750150841,,,,,,,,,,,,,,,,,,,,,,,,,,,,,,,,,,,,,,,,,,,,,,,,,64187,2022-11-11_08h57.55.025,vts_reward_expectancy_bt_OFFLINE,2022.2.4,59.9276631181076,
,,,,,,,,,,,,,,,,,,1,0,1,0,2,0,2,0,,,,,,,,,,,,,,,,,,,,,,,,,,,,,,,,,,,,,,,,,,,,,,,,618.9729078030214,U,146,circle,0.0015493539976887405,615.1997704920068,616.7038582389941,616.7038582389941,616.7038582389941,,,,,1,0,f,1,617.4712810479978,,,0.7495373930141795,,,,,,,,,,,,,,,,,,,,,,,,,,,,,,,,,,,,,,,,,,,,,,,,,64187,2022-11-11_08h57.55.025,vts_reward_expectancy_bt_OFFLINE,2022.2.4,59.9276631181076,
,,,,,,,,,,,,,,,,,,1,0,1,0,3,0,3,0,,,,,,,,,,,,,,,,,,,,,,,,,,,,,,,,,,,,,,,,,,,,,,,,623.7950953580148,H,174,hexagon,0.0016715929959900677,619.9526204440044,621.4591135999945,621.4591135999945,621.4591135999945,,,,,1,0,d,1,622.2930995680217,,,0.8079434150131419,,,,,,,,,,,,,,,,,,,,,,,,,,,,,,,,,,,,,,,,,,,,,,,,,64187,2022-11-11_08h57.55.025,vts_reward_expectancy_bt_OFFLINE,2022.2.4,59.9276631181076,
,,,,,,,,,,,,,,,,,,1,0,1,0,4,0,4,0,,,,,,,,,,,,,,,,,,,,,,,,,,,,,,,,,,,,,,,,,,,,,,,,628.4669194690068,W,167,triangle,0.001708046009298414,624.7739788310137,626.2813959089981,626.2813959089981,626.2813959089981,,,,,1,0,f,1,626.9653046820022,,,0.6673120140039828,,,,,,,,,,,,,,,,,,,,,,,,,,,,,,,,,,,,,,,,,,,,,,,,,64187,2022-11-11_08h57.55.025,vts_reward_expectancy_bt_OFFLINE,2022.2.4,59.9276631181076,
,,,,,,,,,,,,,,,,,,1,0,1,0,5,0,5,0,,,,,,,,,,,,,,,,,,,,,,,,,,,,,,,,,,,,,,,,,,,,,,,,633.3722501370066,F,132,circle,0.0012653309968300164,629.4484133960214,630.9528992160049,630.9528992160049,630.9528992160049,,,,,1,0,d,1,631.870516533003,,,0.9007873960072175,,,,,,,,,,,,,,,,,,,,,,,,,,,,,,,,,,,,,,,,,,,,,,,,,64187,2022-11-11_08h57.55.025,vts_reward_expectancy_bt_OFFLINE,2022.2.4,59.9276631181076,
,,,,,,,,,,,,,,,,,,1,0,1,0,6,0,6,0,,,,,,,,,,,,,,,,,,,,,,,,,,,,,,,,,,,,,,,,,,,,,,,,638.0774661210016,D,139,hexagon,0.001541211997391656,634.3553392759932,635.8584202839993,635.8584202839993,635.8584202839993,,,,,1,0,d,1,636.5758641940192,,,0.6971754489932209,,,,,,,,,,,,,,,,,,,,,,,,,,,,,,,,,,,,,,,,,,,,,,,,,64187,2022-11-11_08h57.55.025,vts_reward_expectancy_bt_OFFLINE,2022.2.4,59.9276631181076,
,,,,,,,,,,,,,,,,,,1,0,1,0,7,0,7,0,,,,,,,,,,,,,,,,,,,,,,,,,,,,,,,,,,,,,,,,,,,,,,,,643.5669289020007,B,160,star,0.0016232359921559691,639.0566179279995,640.5635235150112,640.5635235150112,640.5635235150112,,,,,1,0,d,1,642.0652272690204,,,1.4832394969998859,,,,,,,,,,,,,,,,,,,,,,,,,,,,,,,,,,,,,,,,,,,,,,,,,64187,2022-11-11_08h57.55.025,vts_reward_expectancy_bt_OFFLINE,2022.2.4,59.9276631181076,
,,,,,,,,,,,,,,,,,,1,0,1,0,8,0,8,0,,,,,,,,,,,,,,,,,,,,,,,,,,,,,,,,,,,,,,,,,,,,,,,,648.3387305439974,S,181,hexagon,0.0016655139916110784,644.545719553018,646.0528987650177,646.0528987650177,646.0528987650177,,,,,1,0,f,1,646.837095165014,,,0.7517424129764549,,,,,,,,,,,,,,,,,,,,,,,,,,,,,,,,,,,,,,,,,,,,,,,,,64187,2022-11-11_08h57.55.025,vts_reward_expectancy_bt_OFFLINE,2022.2.4,59.9276631181076,
,,,,,,,,,,,,,,,,,,1,0,1,0,9,0,9,0,,,,,,,,,,,,,,,,,,,,,,,,,,,,,,,,,,,,,,,,,,,,,,,,652.9602188120189,Y,125,triangle,0.0015653510054107755,649.3170935630042,650.8247373790073,650.8247373790073,650.8247373790073,,,,,1,0,f,1,651.4588809790148,,,0.6030203760019504,,,,,,,,,,,,,,,,,,,,,,,,,,,,,,,,,,,,,,,,,,,,,,,,,64187,2022-11-11_08h57.55.025,vts_reward_expectancy_bt_OFFLINE,2022.2.4,59.9276631181076,
,,,,,,,,,,,,,,,,,,,,,,,,,,0,0,0,0,0,0,0,0,,,,,,,,,,,,,,,,,,,,,,,,,,,,,,,,,,,,,,,,673.0660309490049,U,139,hexagon,0.002010149008128792,,,,,,,,,1,0,,2,671.5644081119972,,,,669.1403031100053,670.6467463370063,670.6467463370063,670.6467463370063,j,0.89736331399763,,,,,,,,,,,,,,,,,,,,,,,,,,,,,,,,,,,,,,,,,,,64187,2022-11-11_08h57.55.025,vts_reward_expectancy_bt_OFFLINE,2022.2.4,59.9276631181076,
,,,,,,,,,,,,,,,,,,,,,,,,,,0,0,0,0,1,0,1,0,,,,,,,,,,,,,,,,,,,,,,,,,,,,,,,,,,,,,,,,677.6877931820054,H,167,star,0.0015874160162638873,,,,,,,,,1,0,,2,676.1861474509933,,,,674.045790203003,675.5521391170041,675.5521391170041,675.5521391170041,k,0.6058309650106821,,,,,,,,,,,,,,,,,,,,,,,,,,,,,,,,,,,,,,,,,,,64187,2022-11-11_08h57.55.025,vts_reward_expectancy_bt_OFFLINE,2022.2.4,59.9276631181076,
,,,,,,,,,,,,,,,,,,,,,,,,,,0,0,0,0,2,0,2,0,,,,,,,,,,,,,,,,,,,,,,,,,,,,,,,,,,,,,,,,682.4933287180029,B,125,circle,0.0016782100137788802,,,,,,,,,1,0,,2,680.9914551780093,,,,678.66553810201,680.1739606760093,680.1739606760093,680.1739606760093,j,0.7994517739862204,,,,,,,,,,,,,,,,,,,,,,,,,,,,,,,,,,,,,,,,,,,64187,2022-11-11_08h57.55.025,vts_reward_expectancy_bt_OFFLINE,2022.2.4,59.9276631181076,
,,,,,,,,,,,,,,,,,,,,,,,,,,0,0,0,0,3,0,3,0,,,,,,,,,,,,,,,,,,,,,,,,,,,,,,,,,,,,,,,,687.1650617780106,W,181,triangle,0.0013329540088307112,,,,,,,,,1,0,,2,685.6634072379966,,,,683.4726622989983,684.9794336399937,684.9794336399937,684.9794336399937,k,0.6615662679832894,,,,,,,,,,,,,,,,,,,,,,,,,,,,,,,,,,,,,,,,,,,64187,2022-11-11_08h57.55.025,vts_reward_expectancy_bt_OFFLINE,2022.2.4,59.9276631181076,
,,,,,,,,,,,,,,,,,,,,,,,,,,0,0,0,0,4,0,4,0,,,,,,,,,,,,,,,,,,,,,,,,,,,,,,,,,,,,,,,,692.237331715005,F,174,circle,0.0017456100031267852,,,,,,,,,1,0,,2,690.7348727610079,,,,688.1444780540187,689.6510675919999,689.6510675919999,689.6510675919999,k,1.064212041994324,,,,,,,,,,,,,,,,,,,,,,,,,,,,,,,,,,,,,,,,,,,64187,2022-11-11_08h57.55.025,vts_reward_expectancy_bt_OFFLINE,2022.2.4,59.9276631181076,
,,,,,,,,,,,,,,,,,,,,,,,,,,0,0,0,0,5,0,5,0,,,,,,,,,,,,,,,,,,,,,,,,,,,,,,,,,,,,,,,,697.4763554490055,S,132,triangle,0.0015837329847272485,,,,,,,,,1,0,,2,695.9746132770088,,,,693.2163895890117,694.7229646129999,694.7229646129999,694.7229646129999,j,1.2238154289952945,,,,,,,,,,,,,,,,,,,,,,,,,,,,,,,,,,,,,,,,,,,64187,2022-11-11_08h57.55.025,vts_reward_expectancy_bt_OFFLINE,2022.2.4,59.9276631181076,
,,,,,,,,,,,,,,,,,,,,,,,,,,0,0,0,0,6,0,6,0,,,,,,,,,,,,,,,,,,,,,,,,,,,,,,,,,,,,,,,,702.5319793910021,D,160,hexagon,0.0015573290002066642,,,,,,,,,1,0,,2,701.0302353430016,,,,698.4545513190096,699.9622727399983,699.9622727399983,699.9622727399983,k,1.0360452070017345,,,,,,,,,,,,,,,,,,,,,,,,,,,,,,,,,,,,,,,,,,,64187,2022-11-11_08h57.55.025,vts_reward_expectancy_bt_OFFLINE,2022.2.4,59.9276631181076,
,,,,,,,,,,,,,,,,,,,,,,,,,,0,0,0,0,7,0,7,0,,,,,,,,,,,,,,,,,,,,,,,,,,,,,,,,,,,,,,,,707.4207408840011,Y,146,star,0.0014439359947573394,,,,,,,,,1,0,,2,705.9189788190124,,,,703.5113992319966,705.0212590250012,705.0212590250012,705.0212590250012,j,0.8701928920054343,,,,,,,,,,,,,,,,,,,,,,,,,,,,,,,,,,,,,,,,,,,64187,2022-11-11_08h57.55.025,vts_reward_expectancy_bt_OFFLINE,2022.2.4,59.9276631181076,
,,,,,,,,,,,,,,,,,,,,,,,,,,0,0,0,0,8,0,8,0,,,,,,,,,,,,,,,,,,,,,,,,,,,,,,,,,,,,,,,,712.1925301400188,U,139,circle,0.0017306740046478808,,,,,,,,,1,0,,2,710.6911332070013,,,,708.400259357004,709.9067129160103,709.9067129160103,709.9067129160103,j,0.7549680160009302,,,,,,,,,,,,,,,,,,,,,,,,,,,,,,,,,,,,,,,,,,,64187,2022-11-11_08h57.55.025,vts_reward_expectancy_bt_OFFLINE,2022.2.4,59.9276631181076,
,,,,,,,,,,,,,,,,,,,,,,,,,,0,0,0,0,9,0,9,0,,,,,,,,,,,,,,,,,,,,,,,,,,,,,,,,,,,,,,,,717.3148960520048,H,167,triangle,0.0015775170177221298,,,,,,,,,1,0,,2,715.8131288870063,,,,713.1722554190201,714.6787159180094,714.6787159180094,714.6787159180094,k,1.1020620609924663,,,,,,,,,,,,,,,,,,,,,,,,,,,,,,,,,,,,,,,,,,,64187,2022-11-11_08h57.55.025,vts_reward_expectancy_bt_OFFLINE,2022.2.4,59.9276631181076,
,,,,,,,,,,,,,,,,,,,,,,,,,,,,,,,,,,0,0,0,0,0,0,0,0,,,,,,,,,,,,,,,,,,,,,,,,,,,,0,792,,,765.2344624859979,W,174,triangle,0.00210177298868075,,,,,,,,,1,0,,3,,,,,,,,,,,759.4111264180101,759.4111264180101,759.4111264180101,759.4111264180101,760.9130808199989,760.9130808199989,760.9130808199989,760.9130808199989,760.9130808199989,760.9130808199989,760.9130808199989,760.9130808199989,-1,number,NA,k,2.793699728004867,vtsPrac,763.7343277570035,,,,,,,,,,,,,,,,,,,,,,,,64187,2022-11-11_08h57.55.025,vts_reward_expectancy_bt_OFFLINE,2022.2.4,59.9276631181076,
,,,,,,,,,,,,,,,,,,,,,,,,,,,,,,,,,,0,0,0,0,1,0,1,0,,,,,,,,,,,,,,,,,,,,,,,,,,,,0,792,,,770.1732571650064,H,181,circle,0.0013485219969879836,,,,,,,,,1,0,,3,,,,,,,,,,,766.2172099949967,766.2172099949967,766.2172099949967,766.2172099949967,767.720476129005,767.720476129005,767.720476129005,767.720476129005,767.720476129005,767.720476129005,767.720476129005,767.720476129005,switch,letter,lettSwt,d,0.9248273560078815,vtsPrac,768.6716778150003,,,,,,,,,,,,,,,,,,,,,,,,64187,2022-11-11_08h57.55.025,vts_reward_expectancy_bt_OFFLINE,2022.2.4,59.9276631181076,
,,,,,,,,,,,,,,,,,,,,,,,,,,,,,,,,,,0,0,0,0,2,0,2,0,,,,,,,,,,,,,,,,,,,,,,,,,,,,0,792,,,774.9284916770121,F,125,circle,0.001528772001620382,,,,,,,,,1,0,,3,,,,,,,,,,,771.1554805269989,771.1554805269989,771.1554805269989,771.1554805269989,772.6593704610132,772.6593704610132,772.6593704610132,772.6593704610132,772.6593704610132,772.6593704610132,772.6593704610132,772.6593704610132,repeat,letter,lettRpt,d,0.7350220530061051,vtsPrac,773.426760264003,,,,,,,,,,,,,,,,,,,,,,,,64187,2022-11-11_08h57.55.025,vts_reward_expectancy_bt_OFFLINE,2022.2.4,59.9276631181076,
,,,,,,,,,,,,,,,,,,,,,,,,,,,,,,,,,,0,0,0,0,3,0,3,0,,,,,,,,,,,,,,,,,,,,,,,,,,,,0,792,,,779.5836209240078,U,160,triangle,0.001417682011378929,,,,,,,,,1,0,,3,,,,,,,,,,,775.9114881030109,775.9114881030109,775.9114881030109,775.9114881030109,777.4144668109948,777.4144668109948,777.4144668109948,777.4144668109948,777.4144668109948,777.4144668109948,777.4144668109948,777.4144668109948,switch,number,numSwt,k,0.6483895679994021,vtsPrac,778.0820237290172,,,,,,,,,,,,,,,,,,,,,,,,64187,2022-11-11_08h57.55.025,vts_reward_expectancy_bt_OFFLINE,2022.2.4,59.9276631181076,
,,,,,,,,,,,,,,,,,,,,,,,,,,,,,,,,,,0,0,0,0,4,0,4,0,,,,,,,,,,,,,,,,,,,,,,,,,,,,0,792,,,784.5559206890175,W,174,triangle,0.0013700209965463728,,,,,,,,,1,0,,3,,,,,,,,,,,780.5626441930071,780.5626441930071,780.5626441930071,780.5626441930071,782.0698449079937,782.0698449079937,782.0698449079937,782.0698449079937,782.0698449079937,782.0698449079937,782.0698449079937,782.0698449079937,repeat,number,numRpt,k,0.9660421649750788,vtsPrac,783.0532051330083,,,,,,,,,,,,,,,,,,,,,,,,64187,2022-11-11_08h57.55.025,vts_reward_expectancy_bt_OFFLINE,2022.2.4,59.9276631181076,
,,,,,,,,,,,,,,,,,,,,,,,,,,,,,,,,,,0,0,0,0,5,0,5,0,,,,,,,,,,,,,,,,,,,,,,,,,,,,0,792,,,789.1942582649936,H,181,star,0.001677405001828447,,,,,,,,,1,0,,3,,,,,,,,,,,785.5356857000152,785.5356857000152,785.5356857000152,785.5356857000152,787.0417582090013,787.0417582090013,787.0417582090013,787.0417582090013,787.0417582090013,787.0417582090013,787.0417582090013,787.0417582090013,switch,letter,lettSwt,d,0.6184611239877995,vtsPrac,787.6924586450041,,,,,,,,,,,,,,,,,,,,,,,,64187,2022-11-11_08h57.55.025,vts_reward_expectancy_bt_OFFLINE,2022.2.4,59.9276631181076,
,,,,,,,,,,,,,,,,,,,,,,,,,,,,,,,,,,0,0,0,0,6,0,6,0,,,,,,,,,,,,,,,,,,,,,,,,,,,,0,792,,,793.8827071849955,F,125,triangle,0.0016730560164432973,,,,,,,,,1,0,,3,,,,,,,,,,,790.175549489999,790.175549489999,790.175549489999,790.175549489999,791.6803070740134,791.6803070740134,791.6803070740134,791.6803070740134,791.6803070740134,791.6803070740134,791.6803070740134,791.6803070740134,switch,number,numSwt,j,0.6697400090051815,vtsPrac,792.3811972849944,,,,,,,,,,,,,,,,,,,,,,,,64187,2022-11-11_08h57.55.025,vts_reward_expectancy_bt_OFFLINE,2022.2.4,59.9276631181076,
,,,,,,,,,,,,,,,,,,,,,,,,,,,,,,,,,,0,0,0,0,7,0,7,0,,,,,,,,,,,,,,,,,,,,,,,,,,,,0,792,,,799.4053894150129,U,160,star,0.0015497819986194372,,,,,,,,,1,0,,3,,,,,,,,,,,794.8609584700025,794.8609584700025,794.8609584700025,794.8609584700025,796.3686352040095,796.3686352040095,796.3686352040095,796.3686352040095,796.3686352040095,796.3686352040095,796.3686352040095,796.3686352040095,switch,letter,lettSwt,f,1.517681764002191,vtsPrac,797.9036935619952,,,,,,,,,,,,,,,,,,,,,,,,64187,2022-11-11_08h57.55.025,vts_reward_expectancy_bt_OFFLINE,2022.2.4,59.9276631181076,
,,,,,,,,,,,,,,,,,,,,,,,,,,,,,,,,,,0,0,0,0,8,0,8,0,,,,,,,,,,,,,,,,,,,,,,,,,,,,0,792,,,804.0938300359994,F,125,triangle,0.0015376060036942363,,,,,,,,,1,0,,3,,,,,,,,,,,800.3845992890128,800.3845992890128,800.3845992890128,800.3845992890128,801.8915225420205,801.8915225420205,801.8915225420205,801.8915225420205,801.8915225420205,801.8915225420205,801.8915225420205,801.8915225420205,repeat,letter,lettRpt,d,0.6742735620064195,vtsPrac,802.5922111420077,,,,,,,,,,,,,,,,,,,,,,,,64187,2022-11-11_08h57.55.025,vts_reward_expectancy_bt_OFFLINE,2022.2.4,59.9276631181076,
,,,,,,,,,,,,,,,,,,,,,,,,,,,,,,,,,,0,0,0,0,9,0,9,0,,,,,,,,,,,,,,,,,,,,,,,,,,,,0,792,,,808.86579785301,H,146,star,0.00166137600899674,,,,,,,,,1,0,,3,,,,,,,,,,,805.0729781970149,805.0729781970149,805.0729781970149,805.0729781970149,806.5799860660045,806.5799860660045,806.5799860660045,806.5799860660045,806.5799860660045,806.5799860660045,806.5799860660045,806.5799860660045,repeat,letter,lettRpt,d,0.7560920619871467,vtsPrac,807.3640946400119,,,,,,,,,,,,,,,,,,,,,,,,64187,2022-11-11_08h57.55.025,vts_reward_expectancy_bt_OFFLINE,2022.2.4,59.9276631181076,
,,,,,,,,,,,,,,,,,,,,,,,,,,,,,,,,,,0,0,0,0,10,0,10,0,,,,,,,,,,,,,,,,,,,,,,,,,,,,0,792,,,813.7045685079938,B,132,star,0.0018148530216421932,,,,,,,,,1,0,,3,,,,,,,,,,,809.8457578360103,809.8457578360103,809.8457578360103,809.8457578360103,811.3517828390177,811.3517828390177,811.3517828390177,811.3517828390177,811.3517828390177,811.3517828390177,811.3517828390177,811.3517828390177,switch,number,numSwt,j,0.8333322209946346,vtsPrac,812.2027651859971,,,,,,,,,,,,,,,,,,,,,,,,64187,2022-11-11_08h57.55.025,vts_reward_expectancy_bt_OFFLINE,2022.2.4,59.9276631181076,
,,,,,,,,,,,,,,,,,,,,,,,,,,,,,,,,,,0,0,0,0,11,0,11,0,,,,,,,,,,,,,,,,,,,,,,,,,,,,0,792,,,818.4430730089953,U,139,triangle,0.0017400039942003787,,,,,,,,,1,0,,3,,,,,,,,,,,814.6865123879979,814.6865123879979,814.6865123879979,814.6865123879979,816.1905164149939,816.1905164149939,816.1905164149939,816.1905164149939,816.1905164149939,816.1905164149939,816.1905164149939,816.1905164149939,switch,letter,lettSwt,f,0.7301331230264623,vtsPrac,816.9413657250116,,,,,,,,,,,,,,,,,,,,,,,,64187,2022-11-11_08h57.55.025,vts_reward_expectancy_bt_OFFLINE,2022.2.4,59.9276631181076,
,,,,,,,,,,,,,,,,,,,,,,,,,,,,,,,,,,0,0,0,0,12,0,12,0,,,,,,,,,,,,,,,,,,,,,,,,,,,,0,792,,,823.8324088829977,B,139,triangle,0.0015547509829048067,,,,,,,,,1,0,,3,,,,,,,,,,,819.4218385690183,819.4218385690183,819.4218385690183,819.4218385690183,820.929224446998,820.929224446998,820.929224446998,820.929224446998,820.929224446998,820.929224446998,820.929224446998,820.929224446998,switch,number,numSwt,j,1.3693238309933804,vtsPrac,822.3307619690022,,,,,,,,,,,,,,,,,,,,,,,,64187,2022-11-11_08h57.55.025,vts_reward_expectancy_bt_OFFLINE,2022.2.4,59.9276631181076,
,,,,,,,,,,,,,,,,,,,,,,,,,,,,,,,,,,0,0,0,0,13,0,13,0,,,,,,,,,,,,,,,,,,,,,,,,,,,,0,792,,,828.9045339029981,W,160,circle,0.001708709984086454,,,,,,,,,1,0,,3,,,,,,,,,,,824.811394385004,824.811394385004,824.811394385004,824.811394385004,826.3185827260022,826.3185827260022,826.3185827260022,826.3185827260022,826.3185827260022,826.3185827260022,826.3185827260022,826.3185827260022,repeat,number,numRpt,k,1.0663688060012646,vtsPrac,827.403015192016,,,,,,,,,,,,,,,,,,,,,,,,64187,2022-11-11_08h57.55.025,vts_reward_expectancy_bt_OFFLINE,2022.2.4,59.9276631181076,
,,,,,,,,,,,,,,,,,,,,,,,,,,,,,,,,,,0,0,0,0,14,0,14,0,,,,,,,,,,,,,,,,,,,,,,,,,,,,0,792,,,834.1603409209929,S,125,star,0.0015233149752020836,,,,,,,,,1,0,,3,,,,,,,,,,,829.8844036800147,829.8844036800147,829.8844036800147,829.8844036800147,831.3908201589948,831.3908201589948,831.3908201589948,831.3908201589948,831.3908201589948,831.3908201589948,831.3908201589948,831.3908201589948,switch,letter,lettSwt,f,1.2358502850111108,vtsPrac,832.6587526620133,,,,,,,,,,,,,,,,,,,,,,,,64187,2022-11-11_08h57.55.025,vts_reward_expectancy_bt_OFFLINE,2022.2.4,59.9276631181076,
,,,,,,,,,,,,,,,,,,,,,,,,,,,,,,,,,,0,0,0,0,15,0,15,0,,,,,,,,,,,,,,,,,,,,,,,,,,,,0,792,,,839.1826524469943,F,146,circle,0.001575319009134546,,,,,,,,,1,0,,3,,,,,,,,,,,835.1385659410153,835.1385659410153,835.1385659410153,835.1385659410153,836.6464873939985,836.6464873939985,836.6464873939985,836.6464873939985,836.6464873939985,836.6464873939985,836.6464873939985,836.6464873939985,repeat,letter,lettRpt,d,1.0083940670010634,vtsPrac,837.6809311610123,,,,,,,,,,,,,,,,,,,,,,,,64187,2022-11-11_08h57.55.025,vts_reward_expectancy_bt_OFFLINE,2022.2.4,59.9276631181076,
,,,,,,,,,,,,,,,,,,,,,,,,,,,,,,,,,,0,0,0,0,16,0,16,0,,,,,,,,,,,,,,,,,,,,,,,,,,,,0,792,,,845.1058430609992,Y,146,circle,0.0015967019717209041,,,,,,,,,1,0,,3,,,,,,,,,,,840.164574393013,840.164574393013,840.164574393013,840.164574393013,841.6687408980215,841.6687408980215,841.6687408980215,841.6687408980215,841.6687408980215,841.6687408980215,841.6687408980215,841.6687408980215,switch,number,numSwt,j,1.9036472370207775,vtsPrac,843.6041684380034,,,,,,,,,,,,,,,,,,,,,,,,64187,2022-11-11_08h57.55.025,vts_reward_expectancy_bt_OFFLINE,2022.2.4,59.9276631181076,
,,,,,,,,,,,,,,,,,,,,,,,,,,,,,,,,,,0,0,0,0,17,0,17,0,,,,,,,,,,,,,,,,,,,,,,,,,,,,0,792,,,849.9277824739984,H,139,star,0.0015108730003703386,,,,,,,,,1,0,,3,,,,,,,,,,,846.0860372720053,846.0860372720053,846.0860372720053,846.0860372720053,847.5918685270008,847.5918685270008,847.5918685270008,847.5918685270008,847.5918685270008,847.5918685270008,847.5918685270008,847.5918685270008,repeat,number,numRpt,j,0.8074339099985082,vtsPrac,848.4262119400082,,,,,,,,,,,,,,,,,,,,,,,,64187,2022-11-11_08h57.55.025,vts_reward_expectancy_bt_OFFLINE,2022.2.4,59.9276631181076,
,,,,,,,,,,,,,,,,,,,,,,,,,,,,,,,,,,0,0,0,0,18,0,18,0,,,,,,,,,,,,,,,,,,,,,,,,,,,,0,792,,,854.5662977720203,F,125,star,0.0014740089827682823,,,,,,,,,1,0,,3,,,,,,,,,,,850.9078453010006,850.9078453010006,850.9078453010006,850.9078453010006,852.4140542940004,852.4140542940004,852.4140542940004,852.4140542940004,852.4140542940004,852.4140542940004,852.4140542940004,852.4140542940004,repeat,number,numRpt,j,0.6326717979973182,vtsPrac,853.0646585280192,,,,,,,,,,,,,,,,,,,,,,,,64187,2022-11-11_08h57.55.025,vts_reward_expectancy_bt_OFFLINE,2022.2.4,59.9276631181076,
,,,,,,,,,,,,,,,,,,,,,,,,,,,,,,,,,,0,0,0,0,19,0,19,0,,,,,,,,,,,,,,,,,,,,,,,,,,,,0,792,,,859.8386596899945,B,181,triangle,0.0014931679761502892,,,,,,,,,1,0,,3,,,,,,,,,,,855.5444372700003,855.5444372700003,855.5444372700003,855.5444372700003,857.0523272730061,857.0523272730061,857.0523272730061,857.0523272730061,857.0523272730061,857.0523272730061,857.0523272730061,857.0523272730061,switch,letter,lettSwt,d,1.2586718859965913,vtsPrac,858.3369763210067,,,,,,,,,,,,,,,,,,,,,,,,64187,2022-11-11_08h57.55.025,vts_reward_expectancy_bt_OFFLINE,2022.2.4,59.9276631181076,
,,,,,,,,,,,,,,,,,,,,,,,,,,,,,,,,,,0,0,0,0,20,0,20,0,,,,,,,,,,,,,,,,,,,,,,,,,,,,0,792,,,864.6607934079948,D,181,triangle,0.001847079984145239,,,,,,,,,1,0,,3,,,,,,,,,,,860.8193097189942,860.8193097189942,860.8193097189942,860.8193097189942,862.3248488440004,862.3248488440004,862.3248488440004,862.3248488440004,862.3248488440004,862.3248488440004,862.3248488440004,862.3248488440004,repeat,letter,lettRpt,d,0.8128801819984801,vtsPrac,863.1589778600028,,,,,,,,,,,,,,,,,,,,,,,,64187,2022-11-11_08h57.55.025,vts_reward_expectancy_bt_OFFLINE,2022.2.4,59.9276631181076,
,,,,,,,,,,,,,,,,,,,,,,,,,,,,,,,,,,0,0,0,0,21,0,21,0,,,,,,,,,,,,,,,,,,,,,,,,,,,,0,792,,,869.5495521330158,F,125,hexagon,0.0016989790019579232,,,,,,,,,1,0,,3,,,,,,,,,,,865.6403422430158,865.6403422430158,865.6403422430158,865.6403422430158,867.146918065002,867.146918065002,867.146918065002,867.146918065002,867.146918065002,867.146918065002,867.146918065002,867.146918065002,repeat,letter,lettRpt,d,0.8843380039907061,vtsPrac,868.0478359819972,,,,,,,,,,,,,,,,,,,,,,,,64187,2022-11-11_08h57.55.025,vts_reward_expectancy_bt_OFFLINE,2022.2.4,59.9276631181076,
,,,,,,,,,,,,,,,,,,,,,,,,,,,,,,,,,,0,0,0,0,22,0,22,0,,,,,,,,,,,,,,,,,,,,,,,,,,,,0,792,,,874.5716226590157,Y,132,hexagon,0.0011850649898406118,,,,,,,,,1,0,,3,,,,,,,,,,,870.5292609700118,870.5292609700118,870.5292609700118,870.5292609700118,872.035583335004,872.035583335004,872.035583335004,872.035583335004,872.035583335004,872.035583335004,872.035583335004,872.035583335004,repeat,letter,lettRpt,f,1.0133744660124648,vtsPrac,873.0701465489983,,,,,,,,,,,,,,,,,,,,,,,,64187,2022-11-11_08h57.55.025,vts_reward_expectancy_bt_OFFLINE,2022.2.4,59.9276631181076,
,,,,,,,,,,,,,,,,,,,,,,,,,,,,,,,,,,0,0,0,0,23,0,23,0,,,,,,,,,,,,,,,,,,,,,,,,,,,,0,792,,,879.8274936800008,U,139,triangle,0.0019193920015823096,,,,,,,,,1,0,,3,,,,,,,,,,,875.5516159520193,875.5516159520193,875.5516159520193,875.5516159520193,877.0576534610009,877.0576534610009,877.0576534610009,877.0576534610009,877.0576534610009,877.0576534610009,877.0576534610009,877.0576534610009,switch,number,numSwt,j,1.2444684499932919,vtsPrac,878.3257595320174,,,,,,,,,,,,,,,,,,,,,,,,64187,2022-11-11_08h57.55.025,vts_reward_expectancy_bt_OFFLINE,2022.2.4,59.9276631181076,
