LTriangleOpac,LCircleOpac,LHexagonOpac,LStarOpac,RTriangleOpac,RCircleOpac,RHexagonOpac,RStarOpac,LShape_ID,RShape_ID,training_blocks.thisRepN,training_blocks.thisTrialN,training_blocks.thisN,training_blocks.thisIndex,training.thisRepN,training.thisTrialN,training.thisN,training.thisIndex,task1_prac_redo.thisRepN,task1_prac_redo.thisTrialN,task1_prac_redo.thisN,task1_prac_redo.thisIndex,task1_prac_trials.thisRepN,task1_prac_trials.thisTrialN,task1_prac_trials.thisN,task1_prac_trials.thisIndex,task2_prac_redo.thisRepN,task2_prac_redo.thisTrialN,task2_prac_redo.thisN,task2_prac_redo.thisIndex,task2_praac_trials.thisRepN,task2_praac_trials.thisTrialN,task2_praac_trials.thisN,task2_praac_trials.thisIndex,vts_prac_redo.thisRepN,vts_prac_redo.thisTrialN,vts_prac_redo.thisN,vts_prac_redo.thisIndex,vts_practice_trials.thisRepN,vts_practice_trials.thisTrialN,vts_practice_trials.thisN,vts_practice_trials.thisIndex,trials_norew.thisRepN,trials_norew.thisTrialN,trials_norew.thisN,trials_norew.thisIndex,block.thisRepN,block.thisTrialN,block.thisN,block.thisIndex,trials_rew.thisRepN,trials_rew.thisTrialN,trials_rew.thisN,trials_rew.thisIndex,key_resp.started,key_resp.keys,key_resp.rt,left_circle.started,right_circle.started,left_triangle.started,right_triangle.started,left_star.started,right_star.started,left_hexagon.started,right_hexagon.started,training_fix.started,training_resp.started,training_resp.keys,training_resp.rt,points_trial,points_cumul,trainBlock,training_feedback_txt.started,fix.started,training_feedback_txt.stopped,curr_topStim,curr_bottStim,curr_shape,ISI.started,tgt_fix_prac1.started,top_target_prac1.started,bott_target_prac1.started,target_resp_prac1.started,top_target_prac1.stopped,tgt_fix_prac1.stopped,bott_target_prac1.stopped,target_resp_prac1.stopped,acc,E1,target_resp_prac1.keys,pracBlock,prac_fback_text.started,prac_fback_text.stopped,fix.stopped,target_resp_prac1.rt,tgt_fix_prac2.started,top_target_prac2.started,bott_target_prac2.started,target_resp_prac2.started,target_resp_prac2.keys,target_resp_prac2.rt,star.started,hegagon.started,triangle.started,circle.started,star.stopped,hegagon.stopped,triangle.stopped,circle.stopped,top_target.started,tgt_fix.started,bot_target.started,target_resp.started,alt,task,condition,target_resp.keys,target_resp.rt,rewCond,vts_fback.started,blockNum,norew_fback.started,norew_fback.stopped,key_resp_2.keys,key_resp_2.rt,rewExpectancy,feedbk_text.started,feedbk_text.stopped,text_3.started,debrief.started,text_3.stopped,button.started,debrief.index,debrief.itemText,debrief.type,debrief.granularity,debrief.font,debrief.markerColor,debrief.response,debrief.rt,button.numClicks,button.timesOn,button.timesOff,participant,date,expName,psychopyVersion,frameRate,
,,,,,,,,,,,,,,,,,,,,,,,,,,,,,,,,,,,,,,,,,,,,,,,,,,,,,,24.574133393994998,space,31.057271012003184,,,,,,,,,,,,,,,,,,,,,,,,,,,,,,,,,,,,,,,,,,,,,,,,,,,,,,,,,,,,,,,,,,,,,,,,,,,,,,,,,,,,,,,65448,2022-11-07_13h57.46.134,vts_reward_expectancy_bt_OFFLINE,2022.2.4,59.886055998968445,
0,0,1,0,0,0,0,1,hexagon,star,0,0,0,0,0,0,0,8,,,,,,,,,,,,,,,,,,,,,,,,,,,,,,,,,,,,,,,,81.18550379799854,81.18550379799854,81.18550379799854,81.18550379799854,81.18550379799854,81.18550379799854,81.18550379799854,81.18550379799854,81.18550379799854,81.18550379799854,l,1.4356460709968815,10,10,0,82.63861356799316,84.14016280700162,,,,,,,,,,,,,,,,,,,,,,,,,,,,,,,,,,,,,,,,,,,,,,,,,,,,,,,,,,,,,,,,,,,,,,65448,2022-11-07_13h57.46.134,vts_reward_expectancy_bt_OFFLINE,2022.2.4,59.886055998968445,
0,0,1,0,1,0,0,0,hexagon,triangle,0,0,0,0,0,1,1,6,,,,,,,,,,,,,,,,,,,,,,,,,,,,,,,,,,,,,,,,84.64072897299775,84.64072897299775,84.64072897299775,84.64072897299775,84.64072897299775,84.64072897299775,84.64072897299775,84.64072897299775,84.64072897299775,84.64072897299775,a,1.9189096670015715,10,20,0,86.57644680800149,88.07798899899353,,,,,,,,,,,,,,,,,,,,,,,,,,,,,,,,,,,,,,,,,,,,,,,,,,,,,,,,,,,,,,,,,,,,,,65448,2022-11-07_13h57.46.134,vts_reward_expectancy_bt_OFFLINE,2022.2.4,59.886055998968445,
1,0,0,0,0,0,1,0,triangle,hexagon,0,0,0,0,0,2,2,1,,,,,,,,,,,,,,,,,,,,,,,,,,,,,,,,,,,,,,,,88.57862595400366,88.57862595400366,88.57862595400366,88.57862595400366,88.57862595400366,88.57862595400366,88.57862595400366,88.57862595400366,88.57862595400366,88.57862595400366,a,1.0512526310048997,1,21,0,89.64642550099234,91.14791574300034,,,,,,,,,,,,,,,,,,,,,,,,,,,,,,,,,,,,,,,,,,,,,,,,,,,,,,,,,,,,,,,,,,,,,,65448,2022-11-07_13h57.46.134,vts_reward_expectancy_bt_OFFLINE,2022.2.4,59.886055998968445,
0,1,0,0,1,0,0,0,circle,triangle,0,0,0,0,0,3,3,3,,,,,,,,,,,,,,,,,,,,,,,,,,,,,,,,,,,,,,,,91.64860615499492,91.64860615499492,91.64860615499492,91.64860615499492,91.64860615499492,91.64860615499492,91.64860615499492,91.64860615499492,91.64860615499492,91.64860615499492,a,1.8964311179879587,10,31,0,93.56735292999656,95.06896288599819,,,,,,,,,,,,,,,,,,,,,,,,,,,,,,,,,,,,,,,,,,,,,,,,,,,,,,,,,,,,,,,,,,,,,,65448,2022-11-07_13h57.46.134,vts_reward_expectancy_bt_OFFLINE,2022.2.4,59.886055998968445,
0,0,0,1,1,0,0,0,star,triangle,0,0,0,0,0,4,4,9,,,,,,,,,,,,,,,,,,,,,,,,,,,,,,,,,,,,,,,,95.56967794100638,95.56967794100638,95.56967794100638,95.56967794100638,95.56967794100638,95.56967794100638,95.56967794100638,95.56967794100638,95.56967794100638,95.56967794100638,a,1.3177653640013887,1,32,0,96.90426730399486,98.40592425300565,,,,,,,,,,,,,,,,,,,,,,,,,,,,,,,,,,,,,,,,,,,,,,,,,,,,,,,,,,,,,,,,,,,,,,65448,2022-11-07_13h57.46.134,vts_reward_expectancy_bt_OFFLINE,2022.2.4,59.886055998968445,
1,0,0,0,0,0,0,1,triangle,star,0,0,0,0,0,5,5,2,,,,,,,,,,,,,,,,,,,,,,,,,,,,,,,,,,,,,,,,98.90654881000228,98.90654881000228,98.90654881000228,98.90654881000228,98.90654881000228,98.90654881000228,98.90654881000228,98.90654881000228,98.90654881000228,98.90654881000228,a,2.760583116003545,1,33,0,101.69288502199925,103.19461096999294,,,,,,,,,,,,,,,,,,,,,,,,,,,,,,,,,,,,,,,,,,,,,,,,,,,,,,,,,,,,,,,,,,,,,,65448,2022-11-07_13h57.46.134,vts_reward_expectancy_bt_OFFLINE,2022.2.4,59.886055998968445,
0,1,0,0,0,0,0,1,circle,star,0,0,0,0,0,6,6,5,,,,,,,,,,,,,,,,,,,,,,,,,,,,,,,,,,,,,,,,103.69515403900004,103.69515403900004,103.69515403900004,103.69515403900004,103.69515403900004,103.69515403900004,103.69515403900004,103.69515403900004,103.69515403900004,103.69515403900004,a,1.7292056100122863,1,34,0,105.44684818400128,106.94877410700428,,,,,,,,,,,,,,,,,,,,,,,,,,,,,,,,,,,,,,,,,,,,,,,,,,,,,,,,,,,,,,,,,,,,,,65448,2022-11-07_13h57.46.134,vts_reward_expectancy_bt_OFFLINE,2022.2.4,59.886055998968445,
1,0,0,0,0,1,0,0,triangle,circle,0,0,0,0,0,7,7,0,,,,,,,,,,,,,,,,,,,,,,,,,,,,,,,,,,,,,,,,107.44909125599952,107.44909125599952,107.44909125599952,107.44909125599952,107.44909125599952,107.44909125599952,107.44909125599952,107.44909125599952,107.44909125599952,107.44909125599952,l,1.3746719629998552,1,35,0,108.85072479200608,110.35241554499953,,,,,,,,,,,,,,,,,,,,,,,,,,,,,,,,,,,,,,,,,,,,,,,,,,,,,,,,,,,,,,,,,,,,,,65448,2022-11-07_13h57.46.134,vts_reward_expectancy_bt_OFFLINE,2022.2.4,59.886055998968445,
0,1,0,0,0,0,1,0,circle,hexagon,0,0,0,0,0,8,8,4,,,,,,,,,,,,,,,,,,,,,,,,,,,,,,,,,,,,,,,,110.8531656129926,110.8531656129926,110.8531656129926,110.8531656129926,110.8531656129926,110.8531656129926,110.8531656129926,110.8531656129926,110.8531656129926,110.8531656129926,l,1.717025202990044,1,36,0,112.58836409800278,114.09016259700002,,,,,,,,,,,,,,,,,,,,,,,,,,,,,,,,,,,,,,,,,,,,,,,,,,,,,,,,,,,,,,,,,,,,,,65448,2022-11-07_13h57.46.134,vts_reward_expectancy_bt_OFFLINE,2022.2.4,59.886055998968445,
0,0,1,0,0,1,0,0,hexagon,circle,0,0,0,0,0,9,9,7,,,,,,,,,,,,,,,,,,,,,,,,,,,,,,,,,,,,,,,,114.59041518399317,114.59041518399317,114.59041518399317,114.59041518399317,114.59041518399317,114.59041518399317,114.59041518399317,114.59041518399317,114.59041518399317,114.59041518399317,a,0.858381282989285,1,37,0,115.47475608700188,116.97641837999981,,,,,,,,,,,,,,,,,,,,,,,,,,,,,,,,,,,,,,,,,,,,,,,,,,,,,,,,,,,,,,,,,,,,,,65448,2022-11-07_13h57.46.134,vts_reward_expectancy_bt_OFFLINE,2022.2.4,59.886055998968445,
0,0,0,1,0,0,1,0,star,hexagon,0,0,0,0,0,10,10,11,,,,,,,,,,,,,,,,,,,,,,,,,,,,,,,,,,,,,,,,117.47710496900254,117.47710496900254,117.47710496900254,117.47710496900254,117.47710496900254,117.47710496900254,117.47710496900254,117.47710496900254,117.47710496900254,117.47710496900254,a,0.9656578059948515,10,47,0,118.46129913600453,119.9630760190048,,,,,,,,,,,,,,,,,,,,,,,,,,,,,,,,,,,,,,,,,,,,,,,,,,,,,,,,,,,,,,,,,,,,,,65448,2022-11-07_13h57.46.134,vts_reward_expectancy_bt_OFFLINE,2022.2.4,59.886055998968445,
0,0,0,1,0,1,0,0,star ,circle,0,0,0,0,0,11,11,10,,,,,,,,,,,,,,,,,,,,,,,,,,,,,,,,,,,,,,,,120.46367979899514,120.46367979899514,120.46367979899514,120.46367979899514,120.46367979899514,120.46367979899514,120.46367979899514,120.46367979899514,120.46367979899514,120.46367979899514,l,1.3191932070039911,1,48,0,121.81505280299461,123.31677543699334,,,,,,,,,,,,,,,,,,,,,,,,,,,,,,,,,,,,,,,,,,,,,,,,,,,,,,,,,,,,,,,,,,,,,,65448,2022-11-07_13h57.46.134,vts_reward_expectancy_bt_OFFLINE,2022.2.4,59.886055998968445,
0,0,0,1,0,0,1,0,star,hexagon,0,0,0,0,1,0,12,11,,,,,,,,,,,,,,,,,,,,,,,,,,,,,,,,,,,,,,,,123.81725242300308,123.81725242300308,123.81725242300308,123.81725242300308,123.81725242300308,123.81725242300308,123.81725242300308,123.81725242300308,123.81725242300308,123.81725242300308,a,0.711554758992861,10,58,0,124.55140230699908,126.05310690199258,,,,,,,,,,,,,,,,,,,,,,,,,,,,,,,,,,,,,,,,,,,,,,,,,,,,,,,,,,,,,,,,,,,,,,65448,2022-11-07_13h57.46.134,vts_reward_expectancy_bt_OFFLINE,2022.2.4,59.886055998968445,
0,0,1,0,0,1,0,0,hexagon,circle,0,0,0,0,1,1,13,7,,,,,,,,,,,,,,,,,,,,,,,,,,,,,,,,,,,,,,,,126.55358311299642,126.55358311299642,126.55358311299642,126.55358311299642,126.55358311299642,126.55358311299642,126.55358311299642,126.55358311299642,126.55358311299642,126.55358311299642,a,0.8000738289993023,10,68,0,127.3712643530016,128.8728214599978,,,,,,,,,,,,,,,,,,,,,,,,,,,,,,,,,,,,,,,,,,,,,,,,,,,,,,,,,,,,,,,,,,,,,,65448,2022-11-07_13h57.46.134,vts_reward_expectancy_bt_OFFLINE,2022.2.4,59.886055998968445,
1,0,0,0,0,0,1,0,triangle,hexagon,0,0,0,0,1,2,14,1,,,,,,,,,,,,,,,,,,,,,,,,,,,,,,,,,,,,,,,,129.37340808399313,129.37340808399313,129.37340808399313,129.37340808399313,129.37340808399313,129.37340808399313,129.37340808399313,129.37340808399313,129.37340808399313,129.37340808399313,l,0.8353589839971391,1,69,0,130.24103852300323,131.74268934900465,,,,,,,,,,,,,,,,,,,,,,,,,,,,,,,,,,,,,,,,,,,,,,,,,,,,,,,,,,,,,,,,,,,,,,65448,2022-11-07_13h57.46.134,vts_reward_expectancy_bt_OFFLINE,2022.2.4,59.886055998968445,
1,0,0,0,0,1,0,0,triangle,circle,0,0,0,0,1,3,15,0,,,,,,,,,,,,,,,,,,,,,,,,,,,,,,,,,,,,,,,,132.24319204500352,132.24319204500352,132.24319204500352,132.24319204500352,132.24319204500352,132.24319204500352,132.24319204500352,132.24319204500352,132.24319204500352,132.24319204500352,l,1.3084628320066258,1,70,0,133.57808329399268,135.0796946909977,,,,,,,,,,,,,,,,,,,,,,,,,,,,,,,,,,,,,,,,,,,,,,,,,,,,,,,,,,,,,,,,,,,,,,65448,2022-11-07_13h57.46.134,vts_reward_expectancy_bt_OFFLINE,2022.2.4,59.886055998968445,
0,0,1,0,0,0,0,1,hexagon,star,0,0,0,0,1,4,16,8,,,,,,,,,,,,,,,,,,,,,,,,,,,,,,,,,,,,,,,,135.58040756899572,135.58040756899572,135.58040756899572,135.58040756899572,135.58040756899572,135.58040756899572,135.58040756899572,135.58040756899572,135.58040756899572,135.58040756899572,l,0.726542338001309,1,71,0,136.33109110599617,137.83293809999304,,,,,,,,,,,,,,,,,,,,,,,,,,,,,,,,,,,,,,,,,,,,,,,,,,,,,,,,,,,,,,,,,,,,,,65448,2022-11-07_13h57.46.134,vts_reward_expectancy_bt_OFFLINE,2022.2.4,59.886055998968445,
0,0,1,0,1,0,0,0,hexagon,triangle,0,0,0,0,1,5,17,6,,,,,,,,,,,,,,,,,,,,,,,,,,,,,,,,,,,,,,,,138.33331634999195,138.33331634999195,138.33331634999195,138.33331634999195,138.33331634999195,138.33331634999195,138.33331634999195,138.33331634999195,138.33331634999195,138.33331634999195,a,0.6417997609969461,10,81,0,139.00074195300112,140.5024264889944,,,,,,,,,,,,,,,,,,,,,,,,,,,,,,,,,,,,,,,,,,,,,,,,,,,,,,,,,,,,,,,,,,,,,,65448,2022-11-07_13h57.46.134,vts_reward_expectancy_bt_OFFLINE,2022.2.4,59.886055998968445,
0,0,0,1,1,0,0,0,star,triangle,0,0,0,0,1,6,18,9,,,,,,,,,,,,,,,,,,,,,,,,,,,,,,,,,,,,,,,,141.00307188699662,141.00307188699662,141.00307188699662,141.00307188699662,141.00307188699662,141.00307188699662,141.00307188699662,141.00307188699662,141.00307188699662,141.00307188699662,a,0.7375603919936111,1,82,0,141.77062321199628,143.2722891549929,,,,,,,,,,,,,,,,,,,,,,,,,,,,,,,,,,,,,,,,,,,,,,,,,,,,,,,,,,,,,,,,,,,,,,65448,2022-11-07_13h57.46.134,vts_reward_expectancy_bt_OFFLINE,2022.2.4,59.886055998968445,
0,0,0,1,0,1,0,0,star ,circle,0,0,0,0,1,7,19,10,,,,,,,,,,,,,,,,,,,,,,,,,,,,,,,,,,,,,,,,143.7726582280011,143.7726582280011,143.7726582280011,143.7726582280011,143.7726582280011,143.7726582280011,143.7726582280011,143.7726582280011,143.7726582280011,143.7726582280011,a,0.8257450149976648,1,83,0,144.62359045199992,146.1253199979983,,,,,,,,,,,,,,,,,,,,,,,,,,,,,,,,,,,,,,,,,,,,,,,,,,,,,,,,,,,,,,,,,,,,,,65448,2022-11-07_13h57.46.134,vts_reward_expectancy_bt_OFFLINE,2022.2.4,59.886055998968445,
0,1,0,0,0,0,0,1,circle,star,0,0,0,0,1,8,20,5,,,,,,,,,,,,,,,,,,,,,,,,,,,,,,,,,,,,,,,,146.62601708799775,146.62601708799775,146.62601708799775,146.62601708799775,146.62601708799775,146.62601708799775,146.62601708799775,146.62601708799775,146.62601708799775,146.62601708799775,l,1.0004126849962631,10,93,0,147.64370329599478,149.1453752649977,,,,,,,,,,,,,,,,,,,,,,,,,,,,,,,,,,,,,,,,,,,,,,,,,,,,,,,,,,,,,,,,,,,,,,65448,2022-11-07_13h57.46.134,vts_reward_expectancy_bt_OFFLINE,2022.2.4,59.886055998968445,
0,1,0,0,0,0,1,0,circle,hexagon,0,0,0,0,1,9,21,4,,,,,,,,,,,,,,,,,,,,,,,,,,,,,,,,,,,,,,,,149.64591509599995,149.64591509599995,149.64591509599995,149.64591509599995,149.64591509599995,149.64591509599995,149.64591509599995,149.64591509599995,149.64591509599995,149.64591509599995,l,1.1853061830042861,10,103,0,150.86379628900613,152.36534346999542,,,,,,,,,,,,,,,,,,,,,,,,,,,,,,,,,,,,,,,,,,,,,,,,,,,,,,,,,,,,,,,,,,,,,,65448,2022-11-07_13h57.46.134,vts_reward_expectancy_bt_OFFLINE,2022.2.4,59.886055998968445,
0,1,0,0,1,0,0,0,circle,triangle,0,0,0,0,1,10,22,3,,,,,,,,,,,,,,,,,,,,,,,,,,,,,,,,,,,,,,,,152.86592793599993,152.86592793599993,152.86592793599993,152.86592793599993,152.86592793599993,152.86592793599993,152.86592793599993,152.86592793599993,152.86592793599993,152.86592793599993,l,1.3414412479905877,1,104,0,154.2341984569939,155.73571159900166,,,,,,,,,,,,,,,,,,,,,,,,,,,,,,,,,,,,,,,,,,,,,,,,,,,,,,,,,,,,,,,,,,,,,,65448,2022-11-07_13h57.46.134,vts_reward_expectancy_bt_OFFLINE,2022.2.4,59.886055998968445,
1,0,0,0,0,0,0,1,triangle,star,0,0,0,0,1,11,23,2,,,,,,,,,,,,,,,,,,,,,,,,,,,,,,,,,,,,,,,,156.2363233990036,156.2363233990036,156.2363233990036,156.2363233990036,156.2363233990036,156.2363233990036,156.2363233990036,156.2363233990036,156.2363233990036,156.2363233990036,a,2.437028435000684,1,105,0,158.70581264399516,160.20734617499693,,,,,,,,,,,,,,,,,,,,,,,,,,,,,,,,,,,,,,,,,,,,,,,,,,,,,,,,,,,,,,,,,,,,,,65448,2022-11-07_13h57.46.134,vts_reward_expectancy_bt_OFFLINE,2022.2.4,59.886055998968445,
0,0,0,1,1,0,0,0,star,triangle,0,0,0,0,2,0,24,9,,,,,,,,,,,,,,,,,,,,,,,,,,,,,,,,,,,,,,,,160.70732041000156,160.70732041000156,160.70732041000156,160.70732041000156,160.70732041000156,160.70732041000156,160.70732041000156,160.70732041000156,160.70732041000156,160.70732041000156,a,1.7118605599971488,10,115,0,162.44319880199328,163.94488985900534,,,,,,,,,,,,,,,,,,,,,,,,,,,,,,,,,,,,,,,,,,,,,,,,,,,,,,,,,,,,,,,,,,,,,,65448,2022-11-07_13h57.46.134,vts_reward_expectancy_bt_OFFLINE,2022.2.4,59.886055998968445,
0,1,0,0,0,0,1,0,circle,hexagon,0,0,0,0,2,1,25,4,,,,,,,,,,,,,,,,,,,,,,,,,,,,,,,,,,,,,,,,164.44550518099277,164.44550518099277,164.44550518099277,164.44550518099277,164.44550518099277,164.44550518099277,164.44550518099277,164.44550518099277,164.44550518099277,164.44550518099277,l,0.9668164559989236,10,125,0,165.4300497189979,166.93164068899932,,,,,,,,,,,,,,,,,,,,,,,,,,,,,,,,,,,,,,,,,,,,,,,,,,,,,,,,,,,,,,,,,,,,,,65448,2022-11-07_13h57.46.134,vts_reward_expectancy_bt_OFFLINE,2022.2.4,59.886055998968445,
1,0,0,0,0,0,0,1,triangle,star,0,0,0,0,2,2,26,2,,,,,,,,,,,,,,,,,,,,,,,,,,,,,,,,,,,,,,,,167.43216707000101,167.43216707000101,167.43216707000101,167.43216707000101,167.43216707000101,167.43216707000101,167.43216707000101,167.43216707000101,167.43216707000101,167.43216707000101,l,1.4216040930041345,1,126,0,168.8838550280052,170.3853489250032,,,,,,,,,,,,,,,,,,,,,,,,,,,,,,,,,,,,,,,,,,,,,,,,,,,,,,,,,,,,,,,,,,,,,,65448,2022-11-07_13h57.46.134,vts_reward_expectancy_bt_OFFLINE,2022.2.4,59.886055998968445,
0,1,0,0,1,0,0,0,circle,triangle,0,0,0,0,2,3,27,3,,,,,,,,,,,,,,,,,,,,,,,,,,,,,,,,,,,,,,,,170.8858339110011,170.8858339110011,170.8858339110011,170.8858339110011,170.8858339110011,170.8858339110011,170.8858339110011,170.8858339110011,170.8858339110011,170.8858339110011,a,2.6710147299891105,1,127,0,173.589031941985,175.09069655099302,,,,,,,,,,,,,,,,,,,,,,,,,,,,,,,,,,,,,,,,,,,,,,,,,,,,,,,,,,,,,,,,,,,,,,65448,2022-11-07_13h57.46.134,vts_reward_expectancy_bt_OFFLINE,2022.2.4,59.886055998968445,
0,0,0,1,0,0,1,0,star,hexagon,0,0,0,0,2,4,28,11,,,,,,,,,,,,,,,,,,,,,,,,,,,,,,,,,,,,,,,,175.59106808100478,175.59106808100478,175.59106808100478,175.59106808100478,175.59106808100478,175.59106808100478,175.59106808100478,175.59106808100478,175.59106808100478,175.59106808100478,a,1.0705209999869112,1,128,0,176.69229986699065,178.19392702999176,,,,,,,,,,,,,,,,,,,,,,,,,,,,,,,,,,,,,,,,,,,,,,,,,,,,,,,,,,,,,,,,,,,,,,65448,2022-11-07_13h57.46.134,vts_reward_expectancy_bt_OFFLINE,2022.2.4,59.886055998968445,
1,0,0,0,0,1,0,0,triangle,circle,0,0,0,0,2,5,29,0,,,,,,,,,,,,,,,,,,,,,,,,,,,,,,,,,,,,,,,,178.69462056600605,178.69462056600605,178.69462056600605,178.69462056600605,178.69462056600605,178.69462056600605,178.69462056600605,178.69462056600605,178.69462056600605,178.69462056600605,l,0.9936068069946487,1,129,0,179.71234522099257,181.21411097500823,,,,,,,,,,,,,,,,,,,,,,,,,,,,,,,,,,,,,,,,,,,,,,,,,,,,,,,,,,,,,,,,,,,,,,65448,2022-11-07_13h57.46.134,vts_reward_expectancy_bt_OFFLINE,2022.2.4,59.886055998968445,
1,0,0,0,0,0,1,0,triangle,hexagon,0,0,0,0,2,6,30,1,,,,,,,,,,,,,,,,,,,,,,,,,,,,,,,,,,,,,,,,181.7144370439928,181.7144370439928,181.7144370439928,181.7144370439928,181.7144370439928,181.7144370439928,181.7144370439928,181.7144370439928,181.7144370439928,181.7144370439928,l,0.8425446629989892,10,139,0,182.58208602800732,184.08386987898848,,,,,,,,,,,,,,,,,,,,,,,,,,,,,,,,,,,,,,,,,,,,,,,,,,,,,,,,,,,,,,,,,,,,,,65448,2022-11-07_13h57.46.134,vts_reward_expectancy_bt_OFFLINE,2022.2.4,59.886055998968445,
0,0,1,0,1,0,0,0,hexagon,triangle,0,0,0,0,2,7,31,6,,,,,,,,,,,,,,,,,,,,,,,,,,,,,,,,,,,,,,,,184.5844769749965,184.5844769749965,184.5844769749965,184.5844769749965,184.5844769749965,184.5844769749965,184.5844769749965,184.5844769749965,184.5844769749965,184.5844769749965,a,0.6961783260048833,10,149,0,185.30188725198968,186.80339769698912,,,,,,,,,,,,,,,,,,,,,,,,,,,,,,,,,,,,,,,,,,,,,,,,,,,,,,,,,,,,,,,,,,,,,,65448,2022-11-07_13h57.46.134,vts_reward_expectancy_bt_OFFLINE,2022.2.4,59.886055998968445,
0,0,0,1,0,1,0,0,star ,circle,0,0,0,0,2,8,32,10,,,,,,,,,,,,,,,,,,,,,,,,,,,,,,,,,,,,,,,,187.30400478100637,187.30400478100637,187.30400478100637,187.30400478100637,187.30400478100637,187.30400478100637,187.30400478100637,187.30400478100637,187.30400478100637,187.30400478100637,a,1.2717293209861964,10,159,0,188.60534353900584,190.10709156398661,,,,,,,,,,,,,,,,,,,,,,,,,,,,,,,,,,,,,,,,,,,,,,,,,,,,,,,,,,,,,,,,,,,,,,65448,2022-11-07_13h57.46.134,vts_reward_expectancy_bt_OFFLINE,2022.2.4,59.886055998968445,
0,0,1,0,0,0,0,1,hexagon,star,0,0,0,0,2,9,33,8,,,,,,,,,,,,,,,,,,,,,,,,,,,,,,,,,,,,,,,,190.60758097301004,190.60758097301004,190.60758097301004,190.60758097301004,190.60758097301004,190.60758097301004,190.60758097301004,190.60758097301004,190.60758097301004,190.60758097301004,a,1.5360778640024364,1,160,0,192.17597186399507,193.67765720799798,,,,,,,,,,,,,,,,,,,,,,,,,,,,,,,,,,,,,,,,,,,,,,,,,,,,,,,,,,,,,,,,,,,,,,65448,2022-11-07_13h57.46.134,vts_reward_expectancy_bt_OFFLINE,2022.2.4,59.886055998968445,
0,0,1,0,0,1,0,0,hexagon,circle,0,0,0,0,2,10,34,7,,,,,,,,,,,,,,,,,,,,,,,,,,,,,,,,,,,,,,,,194.17822364601307,194.17822364601307,194.17822364601307,194.17822364601307,194.17822364601307,194.17822364601307,194.17822364601307,194.17822364601307,194.17822364601307,194.17822364601307,a,1.3625335289980285,1,161,0,195.56321452598786,197.06478857499314,,,,,,,,,,,,,,,,,,,,,,,,,,,,,,,,,,,,,,,,,,,,,,,,,,,,,,,,,,,,,,,,,,,,,,65448,2022-11-07_13h57.46.134,vts_reward_expectancy_bt_OFFLINE,2022.2.4,59.886055998968445,
0,1,0,0,0,0,0,1,circle,star,0,0,0,0,2,11,35,5,,,,,,,,,,,,,,,,,,,,,,,,,,,,,,,,,,,,,,,,197.5653358240088,197.5653358240088,197.5653358240088,197.5653358240088,197.5653358240088,197.5653358240088,197.5653358240088,197.5653358240088,197.5653358240088,197.5653358240088,l,1.4859572849818505,10,171,0,199.0836160730105,200.58536820698646,,,,,,,,,,,,,,,,,,,,,,,,,,,,,,,,,,,,,,,,,,,,,,,,,,,,,,,,,,,,,,,,,,,,,,65448,2022-11-07_13h57.46.134,vts_reward_expectancy_bt_OFFLINE,2022.2.4,59.886055998968445,
0,1,0,0,1,0,0,0,circle,triangle,0,0,0,0,3,0,36,3,,,,,,,,,,,,,,,,,,,,,,,,,,,,,,,,,,,,,,,,201.085811981,201.085811981,201.085811981,201.085811981,201.085811981,201.085811981,201.085811981,201.085811981,201.085811981,201.085811981,l,0.9692107729788404,1,172,0,202.08702922301018,203.588792044,,,,,,,,,,,,,,,,,,,,,,,,,,,,,,,,,,,,,,,,,,,,,,,,,,,,,,,,,,,,,,,,,,,,,,65448,2022-11-07_13h57.46.134,vts_reward_expectancy_bt_OFFLINE,2022.2.4,59.886055998968445,
0,0,1,0,0,1,0,0,hexagon,circle,0,0,0,0,3,1,37,7,,,,,,,,,,,,,,,,,,,,,,,,,,,,,,,,,,,,,,,,204.08918121500756,204.08918121500756,204.08918121500756,204.08918121500756,204.08918121500756,204.08918121500756,204.08918121500756,204.08918121500756,204.08918121500756,204.08918121500756,l,0.8794999450037722,1,173,0,204.99013478501,206.4917692510062,,,,,,,,,,,,,,,,,,,,,,,,,,,,,,,,,,,,,,,,,,,,,,,,,,,,,,,,,,,,,,,,,,,,,,65448,2022-11-07_13h57.46.134,vts_reward_expectancy_bt_OFFLINE,2022.2.4,59.886055998968445,
0,0,1,0,0,0,0,1,hexagon,star,0,0,0,0,3,2,38,8,,,,,,,,,,,,,,,,,,,,,,,,,,,,,,,,,,,,,,,,206.99244120199,206.99244120199,206.99244120199,206.99244120199,206.99244120199,206.99244120199,206.99244120199,206.99244120199,206.99244120199,206.99244120199,l,1.653922504017828,1,174,0,208.67753086899756,210.1791745609953,,,,,,,,,,,,,,,,,,,,,,,,,,,,,,,,,,,,,,,,,,,,,,,,,,,,,,,,,,,,,,,,,,,,,,65448,2022-11-07_13h57.46.134,vts_reward_expectancy_bt_OFFLINE,2022.2.4,59.886055998968445,
1,0,0,0,0,0,0,1,triangle,star,0,0,0,0,3,3,39,2,,,,,,,,,,,,,,,,,,,,,,,,,,,,,,,,,,,,,,,,210.679844622995,210.679844622995,210.679844622995,210.679844622995,210.679844622995,210.679844622995,210.679844622995,210.679844622995,210.679844622995,210.679844622995,l,0.6906160819926299,10,184,0,211.39732749201357,212.8989760229888,,,,,,,,,,,,,,,,,,,,,,,,,,,,,,,,,,,,,,,,,,,,,,,,,,,,,,,,,,,,,,,,,,,,,,65448,2022-11-07_13h57.46.134,vts_reward_expectancy_bt_OFFLINE,2022.2.4,59.886055998968445,
0,0,0,1,0,1,0,0,star ,circle,0,0,0,0,3,4,40,10,,,,,,,,,,,,,,,,,,,,,,,,,,,,,,,,,,,,,,,,213.39950834200135,213.39950834200135,213.39950834200135,213.39950834200135,213.39950834200135,213.39950834200135,213.39950834200135,213.39950834200135,213.39950834200135,213.39950834200135,a,1.3107824340113439,10,194,0,214.73423921701033,216.23599339398788,,,,,,,,,,,,,,,,,,,,,,,,,,,,,,,,,,,,,,,,,,,,,,,,,,,,,,,,,,,,,,,,,,,,,,65448,2022-11-07_13h57.46.134,vts_reward_expectancy_bt_OFFLINE,2022.2.4,59.886055998968445,
1,0,0,0,0,1,0,0,triangle,circle,0,0,0,0,3,5,41,0,,,,,,,,,,,,,,,,,,,,,,,,,,,,,,,,,,,,,,,,216.73663053900236,216.73663053900236,216.73663053900236,216.73663053900236,216.73663053900236,216.73663053900236,216.73663053900236,216.73663053900236,216.73663053900236,216.73663053900236,a,0.9679685959999915,10,204,0,217.73754936899059,219.23936182100442,,,,,,,,,,,,,,,,,,,,,,,,,,,,,,,,,,,,,,,,,,,,,,,,,,,,,,,,,,,,,,,,,,,,,,65448,2022-11-07_13h57.46.134,vts_reward_expectancy_bt_OFFLINE,2022.2.4,59.886055998968445,
1,0,0,0,0,0,1,0,triangle,hexagon,0,0,0,0,3,6,42,1,,,,,,,,,,,,,,,,,,,,,,,,,,,,,,,,,,,,,,,,219.73993728499045,219.73993728499045,219.73993728499045,219.73993728499045,219.73993728499045,219.73993728499045,219.73993728499045,219.73993728499045,219.73993728499045,219.73993728499045,a,0.7872186510066967,1,205,0,220.55758802598575,222.05902412199066,,,,,,,,,,,,,,,,,,,,,,,,,,,,,,,,,,,,,,,,,,,,,,,,,,,,,,,,,,,,,,,,,,,,,,65448,2022-11-07_13h57.46.134,vts_reward_expectancy_bt_OFFLINE,2022.2.4,59.886055998968445,
0,0,1,0,1,0,0,0,hexagon,triangle,0,0,0,0,3,7,43,6,,,,,,,,,,,,,,,,,,,,,,,,,,,,,,,,,,,,,,,,222.55935078999028,222.55935078999028,222.55935078999028,222.55935078999028,222.55935078999028,222.55935078999028,222.55935078999028,222.55935078999028,222.55935078999028,222.55935078999028,a,0.8145749279938173,1,206,0,223.39377598601277,224.8954071800108,,,,,,,,,,,,,,,,,,,,,,,,,,,,,,,,,,,,,,,,,,,,,,,,,,,,,,,,,,,,,,,,,,,,,,65448,2022-11-07_13h57.46.134,vts_reward_expectancy_bt_OFFLINE,2022.2.4,59.886055998968445,
0,0,0,1,1,0,0,0,star,triangle,0,0,0,0,3,8,44,9,,,,,,,,,,,,,,,,,,,,,,,,,,,,,,,,,,,,,,,,225.3958649210108,225.3958649210108,225.3958649210108,225.3958649210108,225.3958649210108,225.3958649210108,225.3958649210108,225.3958649210108,225.3958649210108,225.3958649210108,a,1.0603252889995929,10,216,0,226.48075593999238,227.98222652100958,,,,,,,,,,,,,,,,,,,,,,,,,,,,,,,,,,,,,,,,,,,,,,,,,,,,,,,,,,,,,,,,,,,,,,65448,2022-11-07_13h57.46.134,vts_reward_expectancy_bt_OFFLINE,2022.2.4,59.886055998968445,
0,1,0,0,0,0,0,1,circle,star,0,0,0,0,3,9,45,5,,,,,,,,,,,,,,,,,,,,,,,,,,,,,,,,,,,,,,,,228.48279649400502,228.48279649400502,228.48279649400502,228.48279649400502,228.48279649400502,228.48279649400502,228.48279649400502,228.48279649400502,228.48279649400502,228.48279649400502,l,1.235972827009391,1,217,0,229.75087028401322,231.2525132090086,,,,,,,,,,,,,,,,,,,,,,,,,,,,,,,,,,,,,,,,,,,,,,,,,,,,,,,,,,,,,,,,,,,,,,65448,2022-11-07_13h57.46.134,vts_reward_expectancy_bt_OFFLINE,2022.2.4,59.886055998968445,
0,1,0,0,0,0,1,0,circle,hexagon,0,0,0,0,3,10,46,4,,,,,,,,,,,,,,,,,,,,,,,,,,,,,,,,,,,,,,,,231.75319425898488,231.75319425898488,231.75319425898488,231.75319425898488,231.75319425898488,231.75319425898488,231.75319425898488,231.75319425898488,231.75319425898488,231.75319425898488,l,1.6440654440084472,10,227,0,233.42161444399972,234.92331916300463,,,,,,,,,,,,,,,,,,,,,,,,,,,,,,,,,,,,,,,,,,,,,,,,,,,,,,,,,,,,,,,,,,,,,,65448,2022-11-07_13h57.46.134,vts_reward_expectancy_bt_OFFLINE,2022.2.4,59.886055998968445,
0,0,0,1,0,0,1,0,star,hexagon,0,0,0,0,3,11,47,11,,,,,,,,,,,,,,,,,,,,,,,,,,,,,,,,,,,,,,,,235.42375730199274,235.42375730199274,235.42375730199274,235.42375730199274,235.42375730199274,235.42375730199274,235.42375730199274,235.42375730199274,235.42375730199274,235.42375730199274,a,1.708678279974265,1,228,0,237.15901628599386,238.6605544690101,,,,,,,,,,,,,,,,,,,,,,,,,,,,,,,,,,,,,,,,,,,,,,,,,,,,,,,,,,,,,,,,,,,,,,65448,2022-11-07_13h57.46.134,vts_reward_expectancy_bt_OFFLINE,2022.2.4,59.886055998968445,
0,0,0,1,1,0,0,0,star,triangle,1,0,1,0,0,0,0,9,,,,,,,,,,,,,,,,,,,,,,,,,,,,,,,,,,,,,,,,245.47462229500525,245.47462229500525,245.47462229500525,245.47462229500525,245.47462229500525,245.47462229500525,245.47462229500525,245.47462229500525,245.47462229500525,245.47462229500525,a,1.0634450869983993,1,229,1,246.56928108699503,248.07102334100637,,,,,,,,,,,,,,,,,,,,,,,,,,,,,,,,,,,,,,,,,,,,,,,,,,,,,,,,,,,,,,,,,,,,,,65448,2022-11-07_13h57.46.134,vts_reward_expectancy_bt_OFFLINE,2022.2.4,59.886055998968445,
1,0,0,0,0,0,0,1,triangle,star,1,0,1,0,0,1,1,2,,,,,,,,,,,,,,,,,,,,,,,,,,,,,,,,,,,,,,,,248.57146255701082,248.57146255701082,248.57146255701082,248.57146255701082,248.57146255701082,248.57146255701082,248.57146255701082,248.57146255701082,248.57146255701082,248.57146255701082,l,1.27466819100664,10,239,1,249.8730111210025,251.37477115399088,,,,,,,,,,,,,,,,,,,,,,,,,,,,,,,,,,,,,,,,,,,,,,,,,,,,,,,,,,,,,,,,,,,,,,65448,2022-11-07_13h57.46.134,vts_reward_expectancy_bt_OFFLINE,2022.2.4,59.886055998968445,
0,0,0,1,0,1,0,0,star ,circle,1,0,1,0,0,2,2,10,,,,,,,,,,,,,,,,,,,,,,,,,,,,,,,,,,,,,,,,251.87520712800324,251.87520712800324,251.87520712800324,251.87520712800324,251.87520712800324,251.87520712800324,251.87520712800324,251.87520712800324,251.87520712800324,251.87520712800324,a,0.8852790720120538,10,249,1,252.7928924500011,254.29454210100812,,,,,,,,,,,,,,,,,,,,,,,,,,,,,,,,,,,,,,,,,,,,,,,,,,,,,,,,,,,,,,,,,,,,,,65448,2022-11-07_13h57.46.134,vts_reward_expectancy_bt_OFFLINE,2022.2.4,59.886055998968445,
0,0,1,0,1,0,0,0,hexagon,triangle,1,0,1,0,0,3,3,6,,,,,,,,,,,,,,,,,,,,,,,,,,,,,,,,,,,,,,,,254.79508612700738,254.79508612700738,254.79508612700738,254.79508612700738,254.79508612700738,254.79508612700738,254.79508612700738,254.79508612700738,254.79508612700738,254.79508612700738,a,1.7103203120059334,1,250,1,256.53022616601083,258.0318796480133,,,,,,,,,,,,,,,,,,,,,,,,,,,,,,,,,,,,,,,,,,,,,,,,,,,,,,,,,,,,,,,,,,,,,,65448,2022-11-07_13h57.46.134,vts_reward_expectancy_bt_OFFLINE,2022.2.4,59.886055998968445,
0,1,0,0,0,0,0,1,circle,star,1,0,1,0,0,4,4,5,,,,,,,,,,,,,,,,,,,,,,,,,,,,,,,,,,,,,,,,258.5325567369873,258.5325567369873,258.5325567369873,258.5325567369873,258.5325567369873,258.5325567369873,258.5325567369873,258.5325567369873,258.5325567369873,258.5325567369873,l,1.1585613760107663,1,251,1,259.7171100580017,261.2189180669957,,,,,,,,,,,,,,,,,,,,,,,,,,,,,,,,,,,,,,,,,,,,,,,,,,,,,,,,,,,,,,,,,,,,,,65448,2022-11-07_13h57.46.134,vts_reward_expectancy_bt_OFFLINE,2022.2.4,59.886055998968445,
0,1,0,0,1,0,0,0,circle,triangle,1,0,1,0,0,5,5,3,,,,,,,,,,,,,,,,,,,,,,,,,,,,,,,,,,,,,,,,261.7193108930078,261.7193108930078,261.7193108930078,261.7193108930078,261.7193108930078,261.7193108930078,261.7193108930078,261.7193108930078,261.7193108930078,261.7193108930078,l,1.5147635960020125,1,252,1,263.2544496099872,264.7561057659914,,,,,,,,,,,,,,,,,,,,,,,,,,,,,,,,,,,,,,,,,,,,,,,,,,,,,,,,,,,,,,,,,,,,,,65448,2022-11-07_13h57.46.134,vts_reward_expectancy_bt_OFFLINE,2022.2.4,59.886055998968445,
0,1,0,0,0,0,1,0,circle,hexagon,1,0,1,0,0,6,6,4,,,,,,,,,,,,,,,,,,,,,,,,,,,,,,,,,,,,,,,,265.25655412100605,265.25655412100605,265.25655412100605,265.25655412100605,265.25655412100605,265.25655412100605,265.25655412100605,265.25655412100605,265.25655412100605,265.25655412100605,a,1.1375243969960138,10,262,1,266.4241937029874,267.92639975599013,,,,,,,,,,,,,,,,,,,,,,,,,,,,,,,,,,,,,,,,,,,,,,,,,,,,,,,,,,,,,,,,,,,,,,65448,2022-11-07_13h57.46.134,vts_reward_expectancy_bt_OFFLINE,2022.2.4,59.886055998968445,
0,0,0,1,0,0,1,0,star,hexagon,1,0,1,0,0,7,7,11,,,,,,,,,,,,,,,,,,,,,,,,,,,,,,,,,,,,,,,,268.4268217229983,268.4268217229983,268.4268217229983,268.4268217229983,268.4268217229983,268.4268217229983,268.4268217229983,268.4268217229983,268.4268217229983,268.4268217229983,a,0.8255560380057432,1,263,1,269.27789192300406,270.77942481299397,,,,,,,,,,,,,,,,,,,,,,,,,,,,,,,,,,,,,,,,,,,,,,,,,,,,,,,,,,,,,,,,,,,,,,65448,2022-11-07_13h57.46.134,vts_reward_expectancy_bt_OFFLINE,2022.2.4,59.886055998968445,
0,0,1,0,0,0,0,1,hexagon,star,1,0,1,0,0,8,8,8,,,,,,,,,,,,,,,,,,,,,,,,,,,,,,,,,,,,,,,,271.2799361209909,271.2799361209909,271.2799361209909,271.2799361209909,271.2799361209909,271.2799361209909,271.2799361209909,271.2799361209909,271.2799361209909,271.2799361209909,l,1.4259800059953704,10,273,1,272.7316185479867,274.23327288098517,,,,,,,,,,,,,,,,,,,,,,,,,,,,,,,,,,,,,,,,,,,,,,,,,,,,,,,,,,,,,,,,,,,,,,65448,2022-11-07_13h57.46.134,vts_reward_expectancy_bt_OFFLINE,2022.2.4,59.886055998968445,
1,0,0,0,0,0,1,0,triangle,hexagon,1,0,1,0,0,9,9,1,,,,,,,,,,,,,,,,,,,,,,,,,,,,,,,,,,,,,,,,274.7337672029971,274.7337672029971,274.7337672029971,274.7337672029971,274.7337672029971,274.7337672029971,274.7337672029971,274.7337672029971,274.7337672029971,274.7337672029971,l,1.369306979002431,10,283,1,276.13536940701306,277.63717035300215,,,,,,,,,,,,,,,,,,,,,,,,,,,,,,,,,,,,,,,,,,,,,,,,,,,,,,,,,,,,,,,,,,,,,,65448,2022-11-07_13h57.46.134,vts_reward_expectancy_bt_OFFLINE,2022.2.4,59.886055998968445,
0,0,1,0,0,1,0,0,hexagon,circle,1,0,1,0,0,10,10,7,,,,,,,,,,,,,,,,,,,,,,,,,,,,,,,,,,,,,,,,278.1375551460078,278.1375551460078,278.1375551460078,278.1375551460078,278.1375551460078,278.1375551460078,278.1375551460078,278.1375551460078,278.1375551460078,278.1375551460078,a,1.1177626349963248,10,293,1,279.2721582509985,280.77383708700654,,,,,,,,,,,,,,,,,,,,,,,,,,,,,,,,,,,,,,,,,,,,,,,,,,,,,,,,,,,,,,,,,,,,,,65448,2022-11-07_13h57.46.134,vts_reward_expectancy_bt_OFFLINE,2022.2.4,59.886055998968445,
1,0,0,0,0,1,0,0,triangle,circle,1,0,1,0,0,11,11,0,,,,,,,,,,,,,,,,,,,,,,,,,,,,,,,,,,,,,,,,281.2742420999857,281.2742420999857,281.2742420999857,281.2742420999857,281.2742420999857,281.2742420999857,281.2742420999857,281.2742420999857,281.2742420999857,281.2742420999857,a,1.0522257880074903,1,294,1,282.35893685001065,283.860638328013,,,,,,,,,,,,,,,,,,,,,,,,,,,,,,,,,,,,,,,,,,,,,,,,,,,,,,,,,,,,,,,,,,,,,,65448,2022-11-07_13h57.46.134,vts_reward_expectancy_bt_OFFLINE,2022.2.4,59.886055998968445,
0,0,1,0,0,0,0,1,hexagon,star,1,0,1,0,1,0,12,8,,,,,,,,,,,,,,,,,,,,,,,,,,,,,,,,,,,,,,,,284.36107839099714,284.36107839099714,284.36107839099714,284.36107839099714,284.36107839099714,284.36107839099714,284.36107839099714,284.36107839099714,284.36107839099714,284.36107839099714,l,1.1486530769907404,1,295,1,285.5290043920104,287.03054468298797,,,,,,,,,,,,,,,,,,,,,,,,,,,,,,,,,,,,,,,,,,,,,,,,,,,,,,,,,,,,,,,,,,,,,,65448,2022-11-07_13h57.46.134,vts_reward_expectancy_bt_OFFLINE,2022.2.4,59.886055998968445,
0,0,0,1,0,0,1,0,star,hexagon,1,0,1,0,1,1,13,11,,,,,,,,,,,,,,,,,,,,,,,,,,,,,,,,,,,,,,,,287.53119303498534,287.53119303498534,287.53119303498534,287.53119303498534,287.53119303498534,287.53119303498534,287.53119303498534,287.53119303498534,287.53119303498534,287.53119303498534,a,0.7679318309819791,10,305,1,288.3317921049893,289.8336855850066,,,,,,,,,,,,,,,,,,,,,,,,,,,,,,,,,,,,,,,,,,,,,,,,,,,,,,,,,,,,,,,,,,,,,,65448,2022-11-07_13h57.46.134,vts_reward_expectancy_bt_OFFLINE,2022.2.4,59.886055998968445,
1,0,0,0,0,0,1,0,triangle,hexagon,1,0,1,0,1,2,14,1,,,,,,,,,,,,,,,,,,,,,,,,,,,,,,,,,,,,,,,,290.3344234999968,290.3344234999968,290.3344234999968,290.3344234999968,290.3344234999968,290.3344234999968,290.3344234999968,290.3344234999968,290.3344234999968,290.3344234999968,a,1.0690874110150617,10,315,1,291.4354322690051,292.9372048719961,,,,,,,,,,,,,,,,,,,,,,,,,,,,,,,,,,,,,,,,,,,,,,,,,,,,,,,,,,,,,,,,,,,,,,65448,2022-11-07_13h57.46.134,vts_reward_expectancy_bt_OFFLINE,2022.2.4,59.886055998968445,
0,1,0,0,0,0,1,0,circle,hexagon,1,0,1,0,1,3,15,4,,,,,,,,,,,,,,,,,,,,,,,,,,,,,,,,,,,,,,,,293.43769828099175,293.43769828099175,293.43769828099175,293.43769828099175,293.43769828099175,293.43769828099175,293.43769828099175,293.43769828099175,293.43769828099175,293.43769828099175,l,1.2183926019934006,10,325,1,294.68907895099255,296.19082470299327,,,,,,,,,,,,,,,,,,,,,,,,,,,,,,,,,,,,,,,,,,,,,,,,,,,,,,,,,,,,,,,,,,,,,,65448,2022-11-07_13h57.46.134,vts_reward_expectancy_bt_OFFLINE,2022.2.4,59.886055998968445,
0,1,0,0,1,0,0,0,circle,triangle,1,0,1,0,1,4,16,3,,,,,,,,,,,,,,,,,,,,,,,,,,,,,,,,,,,,,,,,296.6913004620001,296.6913004620001,296.6913004620001,296.6913004620001,296.6913004620001,296.6913004620001,296.6913004620001,296.6913004620001,296.6913004620001,296.6913004620001,l,1.7113494320074096,10,335,1,298.42674463198637,299.92835547600407,,,,,,,,,,,,,,,,,,,,,,,,,,,,,,,,,,,,,,,,,,,,,,,,,,,,,,,,,,,,,,,,,,,,,,65448,2022-11-07_13h57.46.134,vts_reward_expectancy_bt_OFFLINE,2022.2.4,59.886055998968445,
0,1,0,0,0,0,0,1,circle,star,1,0,1,0,1,5,17,5,,,,,,,,,,,,,,,,,,,,,,,,,,,,,,,,,,,,,,,,300.4287725230097,300.4287725230097,300.4287725230097,300.4287725230097,300.4287725230097,300.4287725230097,300.4287725230097,300.4287725230097,300.4287725230097,300.4287725230097,a,0.9669688940048218,10,345,1,301.413385871012,302.9149063870136,,,,,,,,,,,,,,,,,,,,,,,,,,,,,,,,,,,,,,,,,,,,,,,,,,,,,,,,,,,,,,,,,,,,,,65448,2022-11-07_13h57.46.134,vts_reward_expectancy_bt_OFFLINE,2022.2.4,59.886055998968445,
0,0,0,1,0,1,0,0,star ,circle,1,0,1,0,1,6,18,10,,,,,,,,,,,,,,,,,,,,,,,,,,,,,,,,,,,,,,,,303.4154744950065,303.4154744950065,303.4154744950065,303.4154744950065,303.4154744950065,303.4154744950065,303.4154744950065,303.4154744950065,303.4154744950065,303.4154744950065,a,1.196303871984128,10,355,1,304.63334833900444,306.13514963298803,,,,,,,,,,,,,,,,,,,,,,,,,,,,,,,,,,,,,,,,,,,,,,,,,,,,,,,,,,,,,,,,,,,,,,65448,2022-11-07_13h57.46.134,vts_reward_expectancy_bt_OFFLINE,2022.2.4,59.886055998968445,
1,0,0,0,0,0,0,1,triangle,star,1,0,1,0,1,7,19,2,,,,,,,,,,,,,,,,,,,,,,,,,,,,,,,,,,,,,,,,306.6355528809945,306.6355528809945,306.6355528809945,306.6355528809945,306.6355528809945,306.6355528809945,306.6355528809945,306.6355528809945,306.6355528809945,306.6355528809945,l,1.2852499060099944,1,356,1,307.95367975201225,309.4554960230016,,,,,,,,,,,,,,,,,,,,,,,,,,,,,,,,,,,,,,,,,,,,,,,,,,,,,,,,,,,,,,,,,,,,,,65448,2022-11-07_13h57.46.134,vts_reward_expectancy_bt_OFFLINE,2022.2.4,59.886055998968445,
0,0,1,0,1,0,0,0,hexagon,triangle,1,0,1,0,1,8,20,6,,,,,,,,,,,,,,,,,,,,,,,,,,,,,,,,,,,,,,,,309.95591014198726,309.95591014198726,309.95591014198726,309.95591014198726,309.95591014198726,309.95591014198726,309.95591014198726,309.95591014198726,309.95591014198726,309.95591014198726,l,1.270578805997502,1,357,1,311.2574612330063,312.75919245698606,,,,,,,,,,,,,,,,,,,,,,,,,,,,,,,,,,,,,,,,,,,,,,,,,,,,,,,,,,,,,,,,,,,,,,65448,2022-11-07_13h57.46.134,vts_reward_expectancy_bt_OFFLINE,2022.2.4,59.886055998968445,
0,0,1,0,0,1,0,0,hexagon,circle,1,0,1,0,1,9,21,7,,,,,,,,,,,,,,,,,,,,,,,,,,,,,,,,,,,,,,,,313.2596967360005,313.2596967360005,313.2596967360005,313.2596967360005,313.2596967360005,313.2596967360005,313.2596967360005,313.2596967360005,313.2596967360005,313.2596967360005,a,0.8030277910002042,1,358,1,314.0939462620008,315.59547322499566,,,,,,,,,,,,,,,,,,,,,,,,,,,,,,,,,,,,,,,,,,,,,,,,,,,,,,,,,,,,,,,,,,,,,,65448,2022-11-07_13h57.46.134,vts_reward_expectancy_bt_OFFLINE,2022.2.4,59.886055998968445,
1,0,0,0,0,1,0,0,triangle,circle,1,0,1,0,1,10,22,0,,,,,,,,,,,,,,,,,,,,,,,,,,,,,,,,,,,,,,,,316.0961968599877,316.0961968599877,316.0961968599877,316.0961968599877,316.0961968599877,316.0961968599877,316.0961968599877,316.0961968599877,316.0961968599877,316.0961968599877,a,0.8574256119900383,1,359,1,316.9803953579976,318.48219723498914,,,,,,,,,,,,,,,,,,,,,,,,,,,,,,,,,,,,,,,,,,,,,,,,,,,,,,,,,,,,,,,,,,,,,,65448,2022-11-07_13h57.46.134,vts_reward_expectancy_bt_OFFLINE,2022.2.4,59.886055998968445,
0,0,0,1,1,0,0,0,star,triangle,1,0,1,0,1,11,23,9,,,,,,,,,,,,,,,,,,,,,,,,,,,,,,,,,,,,,,,,318.9826879129978,318.9826879129978,318.9826879129978,318.9826879129978,318.9826879129978,318.9826879129978,318.9826879129978,318.9826879129978,318.9826879129978,318.9826879129978,a,0.8072823549737222,10,369,1,319.8171167889959,321.31850516301347,,,,,,,,,,,,,,,,,,,,,,,,,,,,,,,,,,,,,,,,,,,,,,,,,,,,,,,,,,,,,,,,,,,,,,65448,2022-11-07_13h57.46.134,vts_reward_expectancy_bt_OFFLINE,2022.2.4,59.886055998968445,
0,1,0,0,0,0,0,1,circle,star,1,0,1,0,2,0,24,5,,,,,,,,,,,,,,,,,,,,,,,,,,,,,,,,,,,,,,,,321.81892281299224,321.81892281299224,321.81892281299224,321.81892281299224,321.81892281299224,321.81892281299224,321.81892281299224,321.81892281299224,321.81892281299224,321.81892281299224,l,1.030168691999279,10,379,1,322.870181493985,324.3717758420098,,,,,,,,,,,,,,,,,,,,,,,,,,,,,,,,,,,,,,,,,,,,,,,,,,,,,,,,,,,,,,,,,,,,,,65448,2022-11-07_13h57.46.134,vts_reward_expectancy_bt_OFFLINE,2022.2.4,59.886055998968445,
0,1,0,0,0,0,1,0,circle,hexagon,1,0,1,0,2,1,25,4,,,,,,,,,,,,,,,,,,,,,,,,,,,,,,,,,,,,,,,,324.87247843199293,324.87247843199293,324.87247843199293,324.87247843199293,324.87247843199293,324.87247843199293,324.87247843199293,324.87247843199293,324.87247843199293,324.87247843199293,l,1.1041136950079817,1,380,1,326.0070792149927,327.50882453098893,,,,,,,,,,,,,,,,,,,,,,,,,,,,,,,,,,,,,,,,,,,,,,,,,,,,,,,,,,,,,,,,,,,,,,65448,2022-11-07_13h57.46.134,vts_reward_expectancy_bt_OFFLINE,2022.2.4,59.886055998968445,
1,0,0,0,0,0,0,1,triangle,star,1,0,1,0,2,2,26,2,,,,,,,,,,,,,,,,,,,,,,,,,,,,,,,,,,,,,,,,328.00923668101314,328.00923668101314,328.00923668101314,328.00923668101314,328.00923668101314,328.00923668101314,328.00923668101314,328.00923668101314,328.00923668101314,328.00923668101314,a,1.175137262995122,10,390,1,329.2105046499928,330.7123303329863,,,,,,,,,,,,,,,,,,,,,,,,,,,,,,,,,,,,,,,,,,,,,,,,,,,,,,,,,,,,,,,,,,,,,,65448,2022-11-07_13h57.46.134,vts_reward_expectancy_bt_OFFLINE,2022.2.4,59.886055998968445,
0,1,0,0,1,0,0,0,circle,triangle,1,0,1,0,2,3,27,3,,,,,,,,,,,,,,,,,,,,,,,,,,,,,,,,,,,,,,,,331.2126488010108,331.2126488010108,331.2126488010108,331.2126488010108,331.2126488010108,331.2126488010108,331.2126488010108,331.2126488010108,331.2126488010108,331.2126488010108,l,1.3790620339859743,10,400,1,332.6143970259873,334.1159259539854,,,,,,,,,,,,,,,,,,,,,,,,,,,,,,,,,,,,,,,,,,,,,,,,,,,,,,,,,,,,,,,,,,,,,,65448,2022-11-07_13h57.46.134,vts_reward_expectancy_bt_OFFLINE,2022.2.4,59.886055998968445,
0,0,1,0,0,1,0,0,hexagon,circle,1,0,1,0,2,4,28,7,,,,,,,,,,,,,,,,,,,,,,,,,,,,,,,,,,,,,,,,334.6164915320114,334.6164915320114,334.6164915320114,334.6164915320114,334.6164915320114,334.6164915320114,334.6164915320114,334.6164915320114,334.6164915320114,334.6164915320114,a,1.013560597988544,10,410,1,335.65094634500565,337.1527295699925,,,,,,,,,,,,,,,,,,,,,,,,,,,,,,,,,,,,,,,,,,,,,,,,,,,,,,,,,,,,,,,,,,,,,,65448,2022-11-07_13h57.46.134,vts_reward_expectancy_bt_OFFLINE,2022.2.4,59.886055998968445,
0,0,0,1,1,0,0,0,star,triangle,1,0,1,0,2,5,29,9,,,,,,,,,,,,,,,,,,,,,,,,,,,,,,,,,,,,,,,,337.6531624759955,337.6531624759955,337.6531624759955,337.6531624759955,337.6531624759955,337.6531624759955,337.6531624759955,337.6531624759955,337.6531624759955,337.6531624759955,a,0.9128952169849072,1,411,1,338.5876312670007,340.0891823449929,,,,,,,,,,,,,,,,,,,,,,,,,,,,,,,,,,,,,,,,,,,,,,,,,,,,,,,,,,,,,,,,,,,,,,65448,2022-11-07_13h57.46.134,vts_reward_expectancy_bt_OFFLINE,2022.2.4,59.886055998968445,
1,0,0,0,0,1,0,0,triangle,circle,1,0,1,0,2,6,30,0,,,,,,,,,,,,,,,,,,,,,,,,,,,,,,,,,,,,,,,,340.58990090398584,340.58990090398584,340.58990090398584,340.58990090398584,340.58990090398584,340.58990090398584,340.58990090398584,340.58990090398584,340.58990090398584,340.58990090398584,a,0.7443310150119942,1,412,1,341.3572973450064,342.8588991310098,,,,,,,,,,,,,,,,,,,,,,,,,,,,,,,,,,,,,,,,,,,,,,,,,,,,,,,,,,,,,,,,,,,,,,65448,2022-11-07_13h57.46.134,vts_reward_expectancy_bt_OFFLINE,2022.2.4,59.886055998968445,
0,0,0,1,0,1,0,0,star ,circle,1,0,1,0,2,7,31,10,,,,,,,,,,,,,,,,,,,,,,,,,,,,,,,,,,,,,,,,343.3596166119969,343.3596166119969,343.3596166119969,343.3596166119969,343.3596166119969,343.3596166119969,343.3596166119969,343.3596166119969,343.3596166119969,343.3596166119969,a,0.7410455720091704,1,413,1,344.1270602880104,345.6286010190088,,,,,,,,,,,,,,,,,,,,,,,,,,,,,,,,,,,,,,,,,,,,,,,,,,,,,,,,,,,,,,,,,,,,,,65448,2022-11-07_13h57.46.134,vts_reward_expectancy_bt_OFFLINE,2022.2.4,59.886055998968445,
0,0,0,1,0,0,1,0,star,hexagon,1,0,1,0,2,8,32,11,,,,,,,,,,,,,,,,,,,,,,,,,,,,,,,,,,,,,,,,346.129162947007,346.129162947007,346.129162947007,346.129162947007,346.129162947007,346.129162947007,346.129162947007,346.129162947007,346.129162947007,346.129162947007,a,0.6938040170061868,1,414,1,346.84665187000064,348.3482278480078,,,,,,,,,,,,,,,,,,,,,,,,,,,,,,,,,,,,,,,,,,,,,,,,,,,,,,,,,,,,,,,,,,,,,,65448,2022-11-07_13h57.46.134,vts_reward_expectancy_bt_OFFLINE,2022.2.4,59.886055998968445,
1,0,0,0,0,0,1,0,triangle,hexagon,1,0,1,0,2,9,33,1,,,,,,,,,,,,,,,,,,,,,,,,,,,,,,,,,,,,,,,,348.8489062830049,348.8489062830049,348.8489062830049,348.8489062830049,348.8489062830049,348.8489062830049,348.8489062830049,348.8489062830049,348.8489062830049,348.8489062830049,a,0.7195259899890516,1,415,1,349.5997874389868,351.1013075959927,,,,,,,,,,,,,,,,,,,,,,,,,,,,,,,,,,,,,,,,,,,,,,,,,,,,,,,,,,,,,,,,,,,,,,65448,2022-11-07_13h57.46.134,vts_reward_expectancy_bt_OFFLINE,2022.2.4,59.886055998968445,
0,0,1,0,1,0,0,0,hexagon,triangle,1,0,1,0,2,10,34,6,,,,,,,,,,,,,,,,,,,,,,,,,,,,,,,,,,,,,,,,351.60173756600125,351.60173756600125,351.60173756600125,351.60173756600125,351.60173756600125,351.60173756600125,351.60173756600125,351.60173756600125,351.60173756600125,351.60173756600125,l,0.8353530619933736,1,416,1,352.4694942260103,353.97121185201104,,,,,,,,,,,,,,,,,,,,,,,,,,,,,,,,,,,,,,,,,,,,,,,,,,,,,,,,,,,,,,,,,,,,,,65448,2022-11-07_13h57.46.134,vts_reward_expectancy_bt_OFFLINE,2022.2.4,59.886055998968445,
0,0,1,0,0,0,0,1,hexagon,star,1,0,1,0,2,11,35,8,,,,,,,,,,,,,,,,,,,,,,,,,,,,,,,,,,,,,,,,354.47169737899094,354.47169737899094,354.47169737899094,354.47169737899094,354.47169737899094,354.47169737899094,354.47169737899094,354.47169737899094,354.47169737899094,354.47169737899094,a,0.7683239030011464,10,426,1,355.2725303590123,356.7742451209924,,,,,,,,,,,,,,,,,,,,,,,,,,,,,,,,,,,,,,,,,,,,,,,,,,,,,,,,,,,,,,,,,,,,,,65448,2022-11-07_13h57.46.134,vts_reward_expectancy_bt_OFFLINE,2022.2.4,59.886055998968445,
0,0,1,0,0,0,0,1,hexagon,star,1,0,1,0,3,0,36,8,,,,,,,,,,,,,,,,,,,,,,,,,,,,,,,,,,,,,,,,357.2748253190075,357.2748253190075,357.2748253190075,357.2748253190075,357.2748253190075,357.2748253190075,357.2748253190075,357.2748253190075,357.2748253190075,357.2748253190075,a,0.753327407001052,1,427,1,358.0590395430045,359.56050630798563,,,,,,,,,,,,,,,,,,,,,,,,,,,,,,,,,,,,,,,,,,,,,,,,,,,,,,,,,,,,,,,,,,,,,,65448,2022-11-07_13h57.46.134,vts_reward_expectancy_bt_OFFLINE,2022.2.4,59.886055998968445,
0,0,0,1,0,1,0,0,star ,circle,1,0,1,0,3,1,37,10,,,,,,,,,,,,,,,,,,,,,,,,,,,,,,,,,,,,,,,,360.0611980239919,360.0611980239919,360.0611980239919,360.0611980239919,360.0611980239919,360.0611980239919,360.0611980239919,360.0611980239919,360.0611980239919,360.0611980239919,l,1.185812926007202,10,437,1,361.279133308999,362.7808177789848,,,,,,,,,,,,,,,,,,,,,,,,,,,,,,,,,,,,,,,,,,,,,,,,,,,,,,,,,,,,,,,,,,,,,,65448,2022-11-07_13h57.46.134,vts_reward_expectancy_bt_OFFLINE,2022.2.4,59.886055998968445,
0,1,0,0,0,0,1,0,circle,hexagon,1,0,1,0,3,2,38,4,,,,,,,,,,,,,,,,,,,,,,,,,,,,,,,,,,,,,,,,363.28132033601287,363.28132033601287,363.28132033601287,363.28132033601287,363.28132033601287,363.28132033601287,363.28132033601287,363.28132033601287,363.28132033601287,363.28132033601287,l,0.924888370995177,1,438,1,364.2324874670012,365.7343407240114,,,,,,,,,,,,,,,,,,,,,,,,,,,,,,,,,,,,,,,,,,,,,,,,,,,,,,,,,,,,,,,,,,,,,,65448,2022-11-07_13h57.46.134,vts_reward_expectancy_bt_OFFLINE,2022.2.4,59.886055998968445,
1,0,0,0,0,1,0,0,triangle,circle,1,0,1,0,3,3,39,0,,,,,,,,,,,,,,,,,,,,,,,,,,,,,,,,,,,,,,,,366.2346984919859,366.2346984919859,366.2346984919859,366.2346984919859,366.2346984919859,366.2346984919859,366.2346984919859,366.2346984919859,366.2346984919859,366.2346984919859,l,1.200622372009093,1,439,1,367.45272136401036,368.95449355299934,,,,,,,,,,,,,,,,,,,,,,,,,,,,,,,,,,,,,,,,,,,,,,,,,,,,,,,,,,,,,,,,,,,,,,65448,2022-11-07_13h57.46.134,vts_reward_expectancy_bt_OFFLINE,2022.2.4,59.886055998968445,
0,1,0,0,1,0,0,0,circle,triangle,1,0,1,0,3,4,40,3,,,,,,,,,,,,,,,,,,,,,,,,,,,,,,,,,,,,,,,,369.4550245410064,369.4550245410064,369.4550245410064,369.4550245410064,369.4550245410064,369.4550245410064,369.4550245410064,369.4550245410064,369.4550245410064,369.4550245410064,a,0.6904945260030217,1,440,1,370.1723026079999,371.6741960629879,,,,,,,,,,,,,,,,,,,,,,,,,,,,,,,,,,,,,,,,,,,,,,,,,,,,,,,,,,,,,,,,,,,,,,65448,2022-11-07_13h57.46.134,vts_reward_expectancy_bt_OFFLINE,2022.2.4,59.886055998968445,
0,0,1,0,1,0,0,0,hexagon,triangle,1,0,1,0,3,5,41,6,,,,,,,,,,,,,,,,,,,,,,,,,,,,,,,,,,,,,,,,372.17467914600275,372.17467914600275,372.17467914600275,372.17467914600275,372.17467914600275,372.17467914600275,372.17467914600275,372.17467914600275,372.17467914600275,372.17467914600275,a,0.2999834689835552,10,450,1,372.49168743600603,373.99329975,,,,,,,,,,,,,,,,,,,,,,,,,,,,,,,,,,,,,,,,,,,,,,,,,,,,,,,,,,,,,,,,,,,,,,65448,2022-11-07_13h57.46.134,vts_reward_expectancy_bt_OFFLINE,2022.2.4,59.886055998968445,
0,1,0,0,0,0,0,1,circle,star,1,0,1,0,3,6,42,5,,,,,,,,,,,,,,,,,,,,,,,,,,,,,,,,,,,,,,,,374.49380359300994,374.49380359300994,374.49380359300994,374.49380359300994,374.49380359300994,374.49380359300994,374.49380359300994,374.49380359300994,374.49380359300994,374.49380359300994,a,0.9051037979952525,1,451,1,375.4281866939855,376.92994895300944,,,,,,,,,,,,,,,,,,,,,,,,,,,,,,,,,,,,,,,,,,,,,,,,,,,,,,,,,,,,,,,,,,,,,,65448,2022-11-07_13h57.46.134,vts_reward_expectancy_bt_OFFLINE,2022.2.4,59.886055998968445,
0,0,0,1,0,0,1,0,star,hexagon,1,0,1,0,3,7,43,11,,,,,,,,,,,,,,,,,,,,,,,,,,,,,,,,,,,,,,,,377.4302978129999,377.4302978129999,377.4302978129999,377.4302978129999,377.4302978129999,377.4302978129999,377.4302978129999,377.4302978129999,377.4302978129999,377.4302978129999,a,0.47752534100436606,1,452,1,377.9309326419898,379.43270337599097,,,,,,,,,,,,,,,,,,,,,,,,,,,,,,,,,,,,,,,,,,,,,,,,,,,,,,,,,,,,,,,,,,,,,,65448,2022-11-07_13h57.46.134,vts_reward_expectancy_bt_OFFLINE,2022.2.4,59.886055998968445,
1,0,0,0,0,0,0,1,triangle,star,1,0,1,0,3,8,44,2,,,,,,,,,,,,,,,,,,,,,,,,,,,,,,,,,,,,,,,,379.93332912100595,379.93332912100595,379.93332912100595,379.93332912100595,379.93332912100595,379.93332912100595,379.93332912100595,379.93332912100595,379.93332912100595,379.93332912100595,l,1.1024016349983867,10,462,1,381.0677376090025,382.5694268819934,,,,,,,,,,,,,,,,,,,,,,,,,,,,,,,,,,,,,,,,,,,,,,,,,,,,,,,,,,,,,,,,,,,,,,65448,2022-11-07_13h57.46.134,vts_reward_expectancy_bt_OFFLINE,2022.2.4,59.886055998968445,
0,0,1,0,0,1,0,0,hexagon,circle,1,0,1,0,3,9,45,7,,,,,,,,,,,,,,,,,,,,,,,,,,,,,,,,,,,,,,,,383.0701521569863,383.0701521569863,383.0701521569863,383.0701521569863,383.0701521569863,383.0701521569863,383.0701521569863,383.0701521569863,383.0701521569863,383.0701521569863,a,1.4528454460087232,1,463,1,384.5549318639969,386.05657275699195,,,,,,,,,,,,,,,,,,,,,,,,,,,,,,,,,,,,,,,,,,,,,,,,,,,,,,,,,,,,,,,,,,,,,,65448,2022-11-07_13h57.46.134,vts_reward_expectancy_bt_OFFLINE,2022.2.4,59.886055998968445,
1,0,0,0,0,0,1,0,triangle,hexagon,1,0,1,0,3,10,46,1,,,,,,,,,,,,,,,,,,,,,,,,,,,,,,,,,,,,,,,,386.5570372180082,386.5570372180082,386.5570372180082,386.5570372180082,386.5570372180082,386.5570372180082,386.5570372180082,386.5570372180082,386.5570372180082,386.5570372180082,a,0.8242785060137976,1,464,1,387.4080351529992,388.90965129301185,,,,,,,,,,,,,,,,,,,,,,,,,,,,,,,,,,,,,,,,,,,,,,,,,,,,,,,,,,,,,,,,,,,,,,65448,2022-11-07_13h57.46.134,vts_reward_expectancy_bt_OFFLINE,2022.2.4,59.886055998968445,
0,0,0,1,1,0,0,0,star,triangle,1,0,1,0,3,11,47,9,,,,,,,,,,,,,,,,,,,,,,,,,,,,,,,,,,,,,,,,389.41012213999056,389.41012213999056,389.41012213999056,389.41012213999056,389.41012213999056,389.41012213999056,389.41012213999056,389.41012213999056,389.41012213999056,389.41012213999056,l,2.672494739992544,10,474,1,392.1131222349941,393.61485844198614,,,,,,,,,,,,,,,,,,,,,,,,,,,,,,,,,,,,,,,,,,,,,,,,,,,,,,,,,,,,,,,,,,,,,,65448,2022-11-07_13h57.46.134,vts_reward_expectancy_bt_OFFLINE,2022.2.4,59.886055998968445,
1,0,0,0,0,1,0,0,triangle,circle,2,0,2,0,0,0,0,0,,,,,,,,,,,,,,,,,,,,,,,,,,,,,,,,,,,,,,,,398.4272263550083,398.4272263550083,398.4272263550083,398.4272263550083,398.4272263550083,398.4272263550083,398.4272263550083,398.4272263550083,398.4272263550083,398.4272263550083,a,1.8123014729935676,1,475,2,400.2723765420087,401.77396005400806,,,,,,,,,,,,,,,,,,,,,,,,,,,,,,,,,,,,,,,,,,,,,,,,,,,,,,,,,,,,,,,,,,,,,,65448,2022-11-07_13h57.46.134,vts_reward_expectancy_bt_OFFLINE,2022.2.4,59.886055998968445,
0,0,1,0,1,0,0,0,hexagon,triangle,2,0,2,0,0,1,1,6,,,,,,,,,,,,,,,,,,,,,,,,,,,,,,,,,,,,,,,,402.27448898900184,402.27448898900184,402.27448898900184,402.27448898900184,402.27448898900184,402.27448898900184,402.27448898900184,402.27448898900184,402.27448898900184,402.27448898900184,l,0.4404467160056811,1,476,2,402.7415501959913,404.24340507300803,,,,,,,,,,,,,,,,,,,,,,,,,,,,,,,,,,,,,,,,,,,,,,,,,,,,,,,,,,,,,,,,,,,,,,65448,2022-11-07_13h57.46.134,vts_reward_expectancy_bt_OFFLINE,2022.2.4,59.886055998968445,
0,1,0,0,0,0,0,1,circle,star,2,0,2,0,0,2,2,5,,,,,,,,,,,,,,,,,,,,,,,,,,,,,,,,,,,,,,,,404.74393482899177,404.74393482899177,404.74393482899177,404.74393482899177,404.74393482899177,404.74393482899177,404.74393482899177,404.74393482899177,404.74393482899177,404.74393482899177,l,0.5825420519977342,10,486,2,405.3444888170052,406.84619705198565,,,,,,,,,,,,,,,,,,,,,,,,,,,,,,,,,,,,,,,,,,,,,,,,,,,,,,,,,,,,,,,,,,,,,,65448,2022-11-07_13h57.46.134,vts_reward_expectancy_bt_OFFLINE,2022.2.4,59.886055998968445,
1,0,0,0,0,0,1,0,triangle,hexagon,2,0,2,0,0,3,3,1,,,,,,,,,,,,,,,,,,,,,,,,,,,,,,,,,,,,,,,,407.3466760870069,407.3466760870069,407.3466760870069,407.3466760870069,407.3466760870069,407.3466760870069,407.3466760870069,407.3466760870069,407.3466760870069,407.3466760870069,l,0.6910922660026699,10,496,2,408.0641496310127,409.5658282079967,,,,,,,,,,,,,,,,,,,,,,,,,,,,,,,,,,,,,,,,,,,,,,,,,,,,,,,,,,,,,,,,,,,,,,65448,2022-11-07_13h57.46.134,vts_reward_expectancy_bt_OFFLINE,2022.2.4,59.886055998968445,
0,0,0,1,1,0,0,0,star,triangle,2,0,2,0,0,4,4,9,,,,,,,,,,,,,,,,,,,,,,,,,,,,,,,,,,,,,,,,410.0663593389909,410.0663593389909,410.0663593389909,410.0663593389909,410.0663593389909,410.0663593389909,410.0663593389909,410.0663593389909,410.0663593389909,410.0663593389909,a,0.6143427180068102,1,497,2,410.700606983999,412.20217937999405,,,,,,,,,,,,,,,,,,,,,,,,,,,,,,,,,,,,,,,,,,,,,,,,,,,,,,,,,,,,,,,,,,,,,,65448,2022-11-07_13h57.46.134,vts_reward_expectancy_bt_OFFLINE,2022.2.4,59.886055998968445,
0,0,0,1,0,1,0,0,star ,circle,2,0,2,0,0,5,5,10,,,,,,,,,,,,,,,,,,,,,,,,,,,,,,,,,,,,,,,,412.7027800309879,412.7027800309879,412.7027800309879,412.7027800309879,412.7027800309879,412.7027800309879,412.7027800309879,412.7027800309879,412.7027800309879,412.7027800309879,a,0.7110559300053865,1,498,2,413.4368448590103,414.93850920398836,,,,,,,,,,,,,,,,,,,,,,,,,,,,,,,,,,,,,,,,,,,,,,,,,,,,,,,,,,,,,,,,,,,,,,65448,2022-11-07_13h57.46.134,vts_reward_expectancy_bt_OFFLINE,2022.2.4,59.886055998968445,
0,0,0,1,0,0,1,0,star,hexagon,2,0,2,0,0,6,6,11,,,,,,,,,,,,,,,,,,,,,,,,,,,,,,,,,,,,,,,,415.4391269029875,415.4391269029875,415.4391269029875,415.4391269029875,415.4391269029875,415.4391269029875,415.4391269029875,415.4391269029875,415.4391269029875,415.4391269029875,a,0.5969479250197764,10,508,2,416.0563653410063,417.5580770180095,,,,,,,,,,,,,,,,,,,,,,,,,,,,,,,,,,,,,,,,,,,,,,,,,,,,,,,,,,,,,,,,,,,,,,65448,2022-11-07_13h57.46.134,vts_reward_expectancy_bt_OFFLINE,2022.2.4,59.886055998968445,
0,0,1,0,0,0,0,1,hexagon,star,2,0,2,0,0,7,7,8,,,,,,,,,,,,,,,,,,,,,,,,,,,,,,,,,,,,,,,,418.0586430889962,418.0586430889962,418.0586430889962,418.0586430889962,418.0586430889962,418.0586430889962,418.0586430889962,418.0586430889962,418.0586430889962,418.0586430889962,l,0.5415482329844963,1,509,2,418.6259301970131,420.12753042700933,,,,,,,,,,,,,,,,,,,,,,,,,,,,,,,,,,,,,,,,,,,,,,,,,,,,,,,,,,,,,,,,,,,,,,65448,2022-11-07_13h57.46.134,vts_reward_expectancy_bt_OFFLINE,2022.2.4,59.886055998968445,
0,1,0,0,1,0,0,0,circle,triangle,2,0,2,0,0,8,8,3,,,,,,,,,,,,,,,,,,,,,,,,,,,,,,,,,,,,,,,,420.62820527900476,420.62820527900476,420.62820527900476,420.62820527900476,420.62820527900476,420.62820527900476,420.62820527900476,420.62820527900476,420.62820527900476,420.62820527900476,a,2.3592574760259595,1,510,2,423.0140961880097,424.51570498698857,424.51570498698857,,,,,,,,,,,,,,,,,,,,,,,,,,,,,,,,,,,,,,,,,,,,,,,,,,,,,,,,,,,,,,,,,,,,,65448,2022-11-07_13h57.46.134,vts_reward_expectancy_bt_OFFLINE,2022.2.4,59.886055998968445,
0,1,0,0,0,0,1,0,circle,hexagon,2,0,2,0,0,9,9,4,,,,,,,,,,,,,,,,,,,,,,,,,,,,,,,,,,,,,,,,425.0162284139951,425.0162284139951,425.0162284139951,425.0162284139951,425.0162284139951,425.0162284139951,425.0162284139951,425.0162284139951,425.0162284139951,425.0162284139951,l,0.4575412989943288,1,511,2,425.49998874700395,427.00175620100345,,,,,,,,,,,,,,,,,,,,,,,,,,,,,,,,,,,,,,,,,,,,,,,,,,,,,,,,,,,,,,,,,,,,,,65448,2022-11-07_13h57.46.134,vts_reward_expectancy_bt_OFFLINE,2022.2.4,59.886055998968445,
1,0,0,0,0,0,0,1,triangle,star,2,0,2,0,0,10,10,2,,,,,,,,,,,,,,,,,,,,,,,,,,,,,,,,,,,,,,,,427.5023823459924,427.5023823459924,427.5023823459924,427.5023823459924,427.5023823459924,427.5023823459924,427.5023823459924,427.5023823459924,427.5023823459924,427.5023823459924,l,0.35763306499575265,1,512,2,427.8862375339959,429.38775733599323,,,,,,,,,,,,,,,,,,,,,,,,,,,,,,,,,,,,,,,,,,,,,,,,,,,,,,,,,,,,,,,,,,,,,,65448,2022-11-07_13h57.46.134,vts_reward_expectancy_bt_OFFLINE,2022.2.4,59.886055998968445,
0,0,1,0,0,1,0,0,hexagon,circle,2,0,2,0,0,11,11,7,,,,,,,,,,,,,,,,,,,,,,,,,,,,,,,,,,,,,,,,429.8880546109867,429.8880546109867,429.8880546109867,429.8880546109867,429.8880546109867,429.8880546109867,429.8880546109867,429.8880546109867,429.8880546109867,429.8880546109867,a,0.42415801400784403,1,513,2,430.33873405799386,431.8403824210109,,,,,,,,,,,,,,,,,,,,,,,,,,,,,,,,,,,,,,,,,,,,,,,,,,,,,,,,,,,,,,,,,,,,,,65448,2022-11-07_13h57.46.134,vts_reward_expectancy_bt_OFFLINE,2022.2.4,59.886055998968445,
0,0,0,1,0,0,1,0,star,hexagon,2,0,2,0,1,0,12,11,,,,,,,,,,,,,,,,,,,,,,,,,,,,,,,,,,,,,,,,432.3410005469923,432.3410005469923,432.3410005469923,432.3410005469923,432.3410005469923,432.3410005469923,432.3410005469923,432.3410005469923,432.3410005469923,432.3410005469923,l,0.5254899739811663,1,514,2,432.89183666798635,434.3933748579875,,,,,,,,,,,,,,,,,,,,,,,,,,,,,,,,,,,,,,,,,,,,,,,,,,,,,,,,,,,,,,,,,,,,,,65448,2022-11-07_13h57.46.134,vts_reward_expectancy_bt_OFFLINE,2022.2.4,59.886055998968445,
0,1,0,0,0,0,0,1,circle,star,2,0,2,0,1,1,13,5,,,,,,,,,,,,,,,,,,,,,,,,,,,,,,,,,,,,,,,,434.8939069730113,434.8939069730113,434.8939069730113,434.8939069730113,434.8939069730113,434.8939069730113,434.8939069730113,434.8939069730113,434.8939069730113,434.8939069730113,a,0.5365638499788474,1,515,2,435.4610774810135,436.9628541150014,,,,,,,,,,,,,,,,,,,,,,,,,,,,,,,,,,,,,,,,,,,,,,,,,,,,,,,,,,,,,,,,,,,,,,65448,2022-11-07_13h57.46.134,vts_reward_expectancy_bt_OFFLINE,2022.2.4,59.886055998968445,
1,0,0,0,0,0,1,0,triangle,hexagon,2,0,2,0,1,2,14,1,,,,,,,,,,,,,,,,,,,,,,,,,,,,,,,,,,,,,,,,437.4633530850115,437.4633530850115,437.4633530850115,437.4633530850115,437.4633530850115,437.4633530850115,437.4633530850115,437.4633530850115,437.4633530850115,437.4633530850115,l,0.33102837402839214,1,516,2,437.8137411290081,439.3153259459941,,,,,,,,,,,,,,,,,,,,,,,,,,,,,,,,,,,,,,,,,,,,,,,,,,,,,,,,,,,,,,,,,,,,,,65448,2022-11-07_13h57.46.134,vts_reward_expectancy_bt_OFFLINE,2022.2.4,59.886055998968445,
0,1,0,0,1,0,0,0,circle,triangle,2,0,2,0,1,3,15,3,,,,,,,,,,,,,,,,,,,,,,,,,,,,,,,,,,,,,,,,439.815956868988,439.815956868988,439.815956868988,439.815956868988,439.815956868988,439.815956868988,439.815956868988,439.815956868988,439.815956868988,439.815956868988,l,0.4858278169995174,10,526,2,440.3331737059925,441.8349076510058,,,,,,,,,,,,,,,,,,,,,,,,,,,,,,,,,,,,,,,,,,,,,,,,,,,,,,,,,,,,,,,,,,,,,,65448,2022-11-07_13h57.46.134,vts_reward_expectancy_bt_OFFLINE,2022.2.4,59.886055998968445,
0,0,0,1,0,1,0,0,star ,circle,2,0,2,0,1,4,16,10,,,,,,,,,,,,,,,,,,,,,,,,,,,,,,,,,,,,,,,,442.33528274600394,442.33528274600394,442.33528274600394,442.33528274600394,442.33528274600394,442.33528274600394,442.33528274600394,442.33528274600394,442.33528274600394,442.33528274600394,a,0.5883090819988865,10,536,2,442.9528605059895,444.454385488003,,,,,,,,,,,,,,,,,,,,,,,,,,,,,,,,,,,,,,,,,,,,,,,,,,,,,,,,,,,,,,,,,,,,,,65448,2022-11-07_13h57.46.134,vts_reward_expectancy_bt_OFFLINE,2022.2.4,59.886055998968445,
0,0,1,0,0,0,0,1,hexagon,star,2,0,2,0,1,5,17,8,,,,,,,,,,,,,,,,,,,,,,,,,,,,,,,,,,,,,,,,444.9549175389984,444.9549175389984,444.9549175389984,444.9549175389984,444.9549175389984,444.9549175389984,444.9549175389984,444.9549175389984,444.9549175389984,444.9549175389984,l,0.5242742499976885,1,537,2,445.5055608279945,447.00717143100337,,,,,,,,,,,,,,,,,,,,,,,,,,,,,,,,,,,,,,,,,,,,,,,,,,,,,,,,,,,,,,,,,,,,,,65448,2022-11-07_13h57.46.134,vts_reward_expectancy_bt_OFFLINE,2022.2.4,59.886055998968445,
0,0,1,0,0,1,0,0,hexagon,circle,2,0,2,0,1,6,18,7,,,,,,,,,,,,,,,,,,,,,,,,,,,,,,,,,,,,,,,,447.5077736850071,447.5077736850071,447.5077736850071,447.5077736850071,447.5077736850071,447.5077736850071,447.5077736850071,447.5077736850071,447.5077736850071,447.5077736850071,a,0.3780217630264815,10,547,2,447.9080651910044,449.40998287900584,,,,,,,,,,,,,,,,,,,,,,,,,,,,,,,,,,,,,,,,,,,,,,,,,,,,,,,,,,,,,,,,,,,,,,65448,2022-11-07_13h57.46.134,vts_reward_expectancy_bt_OFFLINE,2022.2.4,59.886055998968445,
1,0,0,0,0,1,0,0,triangle,circle,2,0,2,0,1,7,19,0,,,,,,,,,,,,,,,,,,,,,,,,,,,,,,,,,,,,,,,,449.91035621700576,449.91035621700576,449.91035621700576,449.91035621700576,449.91035621700576,449.91035621700576,449.91035621700576,449.91035621700576,449.91035621700576,449.91035621700576,a,0.45088304599630646,10,557,2,450.39430185599485,451.89596908699605,,,,,,,,,,,,,,,,,,,,,,,,,,,,,,,,,,,,,,,,,,,,,,,,,,,,,,,,,,,,,,,,,,,,,,65448,2022-11-07_13h57.46.134,vts_reward_expectancy_bt_OFFLINE,2022.2.4,59.886055998968445,
0,0,1,0,1,0,0,0,hexagon,triangle,2,0,2,0,1,8,20,6,,,,,,,,,,,,,,,,,,,,,,,,,,,,,,,,,,,,,,,,452.3965867620136,452.3965867620136,452.3965867620136,452.3965867620136,452.3965867620136,452.3965867620136,452.3965867620136,452.3965867620136,452.3965867620136,452.3965867620136,a,0.3366313549922779,10,567,2,452.7637346739939,454.2650795970112,,,,,,,,,,,,,,,,,,,,,,,,,,,,,,,,,,,,,,,,,,,,,,,,,,,,,,,,,,,,,,,,,,,,,,65448,2022-11-07_13h57.46.134,vts_reward_expectancy_bt_OFFLINE,2022.2.4,59.886055998968445,
1,0,0,0,0,0,0,1,triangle,star,2,0,2,0,1,9,21,2,,,,,,,,,,,,,,,,,,,,,,,,,,,,,,,,,,,,,,,,454.76585488498677,454.76585488498677,454.76585488498677,454.76585488498677,454.76585488498677,454.76585488498677,454.76585488498677,454.76585488498677,454.76585488498677,454.76585488498677,l,0.6239421920035966,1,568,2,455.41656729599345,456.91816913700313,,,,,,,,,,,,,,,,,,,,,,,,,,,,,,,,,,,,,,,,,,,,,,,,,,,,,,,,,,,,,,,,,,,,,,65448,2022-11-07_13h57.46.134,vts_reward_expectancy_bt_OFFLINE,2022.2.4,59.886055998968445,
0,0,0,1,1,0,0,0,star,triangle,2,0,2,0,1,10,22,9,,,,,,,,,,,,,,,,,,,,,,,,,,,,,,,,,,,,,,,,457.4186141869868,457.4186141869868,457.4186141869868,457.4186141869868,457.4186141869868,457.4186141869868,457.4186141869868,457.4186141869868,457.4186141869868,457.4186141869868,l,0.33379295500344597,10,578,2,457.769033752993,459.2707945120055,,,,,,,,,,,,,,,,,,,,,,,,,,,,,,,,,,,,,,,,,,,,,,,,,,,,,,,,,,,,,,,,,,,,,,65448,2022-11-07_13h57.46.134,vts_reward_expectancy_bt_OFFLINE,2022.2.4,59.886055998968445,
0,1,0,0,0,0,1,0,circle,hexagon,2,0,2,0,1,11,23,4,,,,,,,,,,,,,,,,,,,,,,,,,,,,,,,,,,,,,,,,459.7712116870098,459.7712116870098,459.7712116870098,459.7712116870098,459.7712116870098,459.7712116870098,459.7712116870098,459.7712116870098,459.7712116870098,459.7712116870098,l,0.3092545339895878,10,588,2,460.1051211130107,461.60674313499476,,,,,,,,,,,,,,,,,,,,,,,,,,,,,,,,,,,,,,,,,,,,,,,,,,,,,,,,,,,,,,,,,,,,,,65448,2022-11-07_13h57.46.134,vts_reward_expectancy_bt_OFFLINE,2022.2.4,59.886055998968445,
1,0,0,0,0,0,1,0,triangle,hexagon,2,0,2,0,2,0,24,1,,,,,,,,,,,,,,,,,,,,,,,,,,,,,,,,,,,,,,,,462.1071884020057,462.1071884020057,462.1071884020057,462.1071884020057,462.1071884020057,462.1071884020057,462.1071884020057,462.1071884020057,462.1071884020057,462.1071884020057,l,0.8425125979993027,1,589,2,463.03389264200814,464.47649557801196,,,,,,,,,,,,,,,,,,,,,,,,,,,,,,,,,,,,,,,,,,,,,,,,,,,,,,,,,,,,,,,,,,,,,,65448,2022-11-07_13h57.46.134,vts_reward_expectancy_bt_OFFLINE,2022.2.4,59.886055998968445,
0,0,0,1,0,1,0,0,star ,circle,2,0,2,0,2,1,25,10,,,,,,,,,,,,,,,,,,,,,,,,,,,,,,,,,,,,,,,,464.97700462900684,464.97700462900684,464.97700462900684,464.97700462900684,464.97700462900684,464.97700462900684,464.97700462900684,464.97700462900684,464.97700462900684,464.97700462900684,a,0.8299460879934486,1,590,2,465.82791428500786,467.32960411699605,,,,,,,,,,,,,,,,,,,,,,,,,,,,,,,,,,,,,,,,,,,,,,,,,,,,,,,,,,,,,,,,,,,,,,65448,2022-11-07_13h57.46.134,vts_reward_expectancy_bt_OFFLINE,2022.2.4,59.886055998968445,
0,1,0,0,0,0,1,0,circle,hexagon,2,0,2,0,2,2,26,4,,,,,,,,,,,,,,,,,,,,,,,,,,,,,,,,,,,,,,,,467.83008847400197,467.83008847400197,467.83008847400197,467.83008847400197,467.83008847400197,467.83008847400197,467.83008847400197,467.83008847400197,467.83008847400197,467.83008847400197,a,0.362457232986344,10,600,2,468.21388168199337,469.71547189800185,,,,,,,,,,,,,,,,,,,,,,,,,,,,,,,,,,,,,,,,,,,,,,,,,,,,,,,,,,,,,,,,,,,,,,65448,2022-11-07_13h57.46.134,vts_reward_expectancy_bt_OFFLINE,2022.2.4,59.886055998968445,
0,1,0,0,1,0,0,0,circle,triangle,2,0,2,0,2,3,27,3,,,,,,,,,,,,,,,,,,,,,,,,,,,,,,,,,,,,,,,,470.21617251000134,470.21617251000134,470.21617251000134,470.21617251000134,470.21617251000134,470.21617251000134,470.21617251000134,470.21617251000134,470.21617251000134,470.21617251000134,a,0.4175402950204443,10,610,2,470.66652007598896,472.16820612200536,,,,,,,,,,,,,,,,,,,,,,,,,,,,,,,,,,,,,,,,,,,,,,,,,,,,,,,,,,,,,,,,,,,,,,65448,2022-11-07_13h57.46.134,vts_reward_expectancy_bt_OFFLINE,2022.2.4,59.886055998968445,
1,0,0,0,0,1,0,0,triangle,circle,2,0,2,0,2,4,28,0,,,,,,,,,,,,,,,,,,,,,,,,,,,,,,,,,,,,,,,,472.6687635059934,472.6687635059934,472.6687635059934,472.6687635059934,472.6687635059934,472.6687635059934,472.6687635059934,472.6687635059934,472.6687635059934,472.6687635059934,a,0.6081925969920121,1,611,2,473.3030406959879,474.8045188979886,,,,,,,,,,,,,,,,,,,,,,,,,,,,,,,,,,,,,,,,,,,,,,,,,,,,,,,,,,,,,,,,,,,,,,65448,2022-11-07_13h57.46.134,vts_reward_expectancy_bt_OFFLINE,2022.2.4,59.886055998968445,
0,1,0,0,0,0,0,1,circle,star,2,0,2,0,2,5,29,5,,,,,,,,,,,,,,,,,,,,,,,,,,,,,,,,,,,,,,,,475.3049811820092,475.3049811820092,475.3049811820092,475.3049811820092,475.3049811820092,475.3049811820092,475.3049811820092,475.3049811820092,475.3049811820092,475.3049811820092,l,0.4249713760218583,1,612,2,475.75561753701186,477.2572380519996,,,,,,,,,,,,,,,,,,,,,,,,,,,,,,,,,,,,,,,,,,,,,,,,,,,,,,,,,,,,,,,,,,,,,,65448,2022-11-07_13h57.46.134,vts_reward_expectancy_bt_OFFLINE,2022.2.4,59.886055998968445,
1,0,0,0,0,0,0,1,triangle,star,2,0,2,0,2,6,30,2,,,,,,,,,,,,,,,,,,,,,,,,,,,,,,,,,,,,,,,,477.75765944700106,477.75765944700106,477.75765944700106,477.75765944700106,477.75765944700106,477.75765944700106,477.75765944700106,477.75765944700106,477.75765944700106,477.75765944700106,l,0.2904814060020726,1,613,2,478.0748171120067,479.57638289401075,,,,,,,,,,,,,,,,,,,,,,,,,,,,,,,,,,,,,,,,,,,,,,,,,,,,,,,,,,,,,,,,,,,,,,65448,2022-11-07_13h57.46.134,vts_reward_expectancy_bt_OFFLINE,2022.2.4,59.886055998968445,
0,0,1,0,1,0,0,0,hexagon,triangle,2,0,2,0,2,7,31,6,,,,,,,,,,,,,,,,,,,,,,,,,,,,,,,,,,,,,,,,480.0762054079969,480.0762054079969,480.0762054079969,480.0762054079969,480.0762054079969,480.0762054079969,480.0762054079969,480.0762054079969,480.0762054079969,480.0762054079969,l,0.32309322099899873,10,623,2,480.4272805080109,481.92906279998715,,,,,,,,,,,,,,,,,,,,,,,,,,,,,,,,,,,,,,,,,,,,,,,,,,,,,,,,,,,,,,,,,,,,,,65448,2022-11-07_13h57.46.134,vts_reward_expectancy_bt_OFFLINE,2022.2.4,59.886055998968445,
0,0,0,1,0,0,1,0,star,hexagon,2,0,2,0,2,8,32,11,,,,,,,,,,,,,,,,,,,,,,,,,,,,,,,,,,,,,,,,482.4297445539851,482.4297445539851,482.4297445539851,482.4297445539851,482.4297445539851,482.4297445539851,482.4297445539851,482.4297445539851,482.4297445539851,482.4297445539851,l,0.4333149160083849,10,633,2,482.8801794319879,484.3816606540058,,,,,,,,,,,,,,,,,,,,,,,,,,,,,,,,,,,,,,,,,,,,,,,,,,,,,,,,,,,,,,,,,,,,,,65448,2022-11-07_13h57.46.134,vts_reward_expectancy_bt_OFFLINE,2022.2.4,59.886055998968445,
0,0,1,0,0,1,0,0,hexagon,circle,2,0,2,0,2,9,33,7,,,,,,,,,,,,,,,,,,,,,,,,,,,,,,,,,,,,,,,,484.8822124369908,484.8822124369908,484.8822124369908,484.8822124369908,484.8822124369908,484.8822124369908,484.8822124369908,484.8822124369908,484.8822124369908,484.8822124369908,l,0.6352675149973948,10,643,2,485.5489105859888,487.05141119199106,,,,,,,,,,,,,,,,,,,,,,,,,,,,,,,,,,,,,,,,,,,,,,,,,,,,,,,,,,,,,,,,,,,,,,65448,2022-11-07_13h57.46.134,vts_reward_expectancy_bt_OFFLINE,2022.2.4,59.886055998968445,
0,0,0,1,1,0,0,0,star,triangle,2,0,2,0,2,10,34,9,,,,,,,,,,,,,,,,,,,,,,,,,,,,,,,,,,,,,,,,487.55190800200216,487.55190800200216,487.55190800200216,487.55190800200216,487.55190800200216,487.55190800200216,487.55190800200216,487.55190800200216,487.55190800200216,487.55190800200216,l,0.34099546700599603,1,644,2,487.9189752349921,489.42065663301037,,,,,,,,,,,,,,,,,,,,,,,,,,,,,,,,,,,,,,,,,,,,,,,,,,,,,,,,,,,,,,,,,,,,,,65448,2022-11-07_13h57.46.134,vts_reward_expectancy_bt_OFFLINE,2022.2.4,59.886055998968445,
0,0,1,0,0,0,0,1,hexagon,star,2,0,2,0,2,11,35,8,,,,,,,,,,,,,,,,,,,,,,,,,,,,,,,,,,,,,,,,489.92113314400194,489.92113314400194,489.92113314400194,489.92113314400194,489.92113314400194,489.92113314400194,489.92113314400194,489.92113314400194,489.92113314400194,489.92113314400194,a,0.36717105098068714,1,645,2,490.30507146700984,491.8066622620099,,,,,,,,,,,,,,,,,,,,,,,,,,,,,,,,,,,,,,,,,,,,,,,,,,,,,,,,,,,,,,,,,,,,,,65448,2022-11-07_13h57.46.134,vts_reward_expectancy_bt_OFFLINE,2022.2.4,59.886055998968445,
0,0,1,0,1,0,0,0,hexagon,triangle,2,0,2,0,3,0,36,6,,,,,,,,,,,,,,,,,,,,,,,,,,,,,,,,,,,,,,,,492.30713700701017,492.30713700701017,492.30713700701017,492.30713700701017,492.30713700701017,492.30713700701017,492.30713700701017,492.30713700701017,492.30713700701017,492.30713700701017,a,0.7250792359991465,10,655,2,493.05796038900735,494.55965906899655,,,,,,,,,,,,,,,,,,,,,,,,,,,,,,,,,,,,,,,,,,,,,,,,,,,,,,,,,,,,,,,,,,,,,,65448,2022-11-07_13h57.46.134,vts_reward_expectancy_bt_OFFLINE,2022.2.4,59.886055998968445,
1,0,0,0,0,0,1,0,triangle,hexagon,2,0,2,0,3,1,37,1,,,,,,,,,,,,,,,,,,,,,,,,,,,,,,,,,,,,,,,,495.06030532799195,495.06030532799195,495.06030532799195,495.06030532799195,495.06030532799195,495.06030532799195,495.06030532799195,495.06030532799195,495.06030532799195,495.06030532799195,a,0.550153432006482,1,656,2,495.6274945620098,497.129244079988,,,,,,,,,,,,,,,,,,,,,,,,,,,,,,,,,,,,,,,,,,,,,,,,,,,,,,,,,,,,,,,,,,,,,,65448,2022-11-07_13h57.46.134,vts_reward_expectancy_bt_OFFLINE,2022.2.4,59.886055998968445,
0,0,1,0,0,0,0,1,hexagon,star,2,0,2,0,3,2,38,8,,,,,,,,,,,,,,,,,,,,,,,,,,,,,,,,,,,,,,,,497.6297033400042,497.6297033400042,497.6297033400042,497.6297033400042,497.6297033400042,497.6297033400042,497.6297033400042,497.6297033400042,497.6297033400042,497.6297033400042,l,0.5441806180169806,10,666,2,498.19708294799784,499.6988115099957,,,,,,,,,,,,,,,,,,,,,,,,,,,,,,,,,,,,,,,,,,,,,,,,,,,,,,,,,,,,,,,,,,,,,,65448,2022-11-07_13h57.46.134,vts_reward_expectancy_bt_OFFLINE,2022.2.4,59.886055998968445,
0,0,0,1,1,0,0,0,star,triangle,2,0,2,0,3,3,39,9,,,,,,,,,,,,,,,,,,,,,,,,,,,,,,,,,,,,,,,,500.1991493150126,500.1991493150126,500.1991493150126,500.1991493150126,500.1991493150126,500.1991493150126,500.1991493150126,500.1991493150126,500.1991493150126,500.1991493150126,l,0.40478854498360306,10,676,2,500.63311165900086,502.13467243799823,,,,,,,,,,,,,,,,,,,,,,,,,,,,,,,,,,,,,,,,,,,,,,,,,,,,,,,,,,,,,,,,,,,,,,65448,2022-11-07_13h57.46.134,vts_reward_expectancy_bt_OFFLINE,2022.2.4,59.886055998968445,
0,0,0,1,0,0,1,0,star,hexagon,2,0,2,0,3,4,40,11,,,,,,,,,,,,,,,,,,,,,,,,,,,,,,,,,,,,,,,,502.63524465300725,502.63524465300725,502.63524465300725,502.63524465300725,502.63524465300725,502.63524465300725,502.63524465300725,502.63524465300725,502.63524465300725,502.63524465300725,l,0.7698463579872623,10,686,2,503.43612839101115,504.93779445500695,,,,,,,,,,,,,,,,,,,,,,,,,,,,,,,,,,,,,,,,,,,,,,,,,,,,,,,,,,,,,,,,,,,,,,65448,2022-11-07_13h57.46.134,vts_reward_expectancy_bt_OFFLINE,2022.2.4,59.886055998968445,
0,0,1,0,0,1,0,0,hexagon,circle,2,0,2,0,3,5,41,7,,,,,,,,,,,,,,,,,,,,,,,,,,,,,,,,,,,,,,,,505.43834613100626,505.43834613100626,505.43834613100626,505.43834613100626,505.43834613100626,505.43834613100626,505.43834613100626,505.43834613100626,505.43834613100626,505.43834613100626,l,0.5891303009993862,10,696,2,506.05570037898724,507.5572602619941,,,,,,,,,,,,,,,,,,,,,,,,,,,,,,,,,,,,,,,,,,,,,,,,,,,,,,,,,,,,,,,,,,,,,,65448,2022-11-07_13h57.46.134,vts_reward_expectancy_bt_OFFLINE,2022.2.4,59.886055998968445,
0,0,0,1,0,1,0,0,star ,circle,2,0,2,0,3,6,42,10,,,,,,,,,,,,,,,,,,,,,,,,,,,,,,,,,,,,,,,,508.05776465998497,508.05776465998497,508.05776465998497,508.05776465998497,508.05776465998497,508.05776465998497,508.05776465998497,508.05776465998497,508.05776465998497,508.05776465998497,l,0.4565355480008293,1,697,2,508.54174490700825,510.043424020987,,,,,,,,,,,,,,,,,,,,,,,,,,,,,,,,,,,,,,,,,,,,,,,,,,,,,,,,,,,,,,,,,,,,,,65448,2022-11-07_13h57.46.134,vts_reward_expectancy_bt_OFFLINE,2022.2.4,59.886055998968445,
1,0,0,0,0,0,0,1,triangle,star,2,0,2,0,3,7,43,2,,,,,,,,,,,,,,,,,,,,,,,,,,,,,,,,,,,,,,,,510.54400635001366,510.54400635001366,510.54400635001366,510.54400635001366,510.54400635001366,510.54400635001366,510.54400635001366,510.54400635001366,510.54400635001366,510.54400635001366,a,0.7251903759897687,10,707,2,511.29487851599697,512.7964915040066,,,,,,,,,,,,,,,,,,,,,,,,,,,,,,,,,,,,,,,,,,,,,,,,,,,,,,,,,,,,,,,,,,,,,,65448,2022-11-07_13h57.46.134,vts_reward_expectancy_bt_OFFLINE,2022.2.4,59.886055998968445,
0,1,0,0,1,0,0,0,circle,triangle,2,0,2,0,3,8,44,3,,,,,,,,,,,,,,,,,,,,,,,,,,,,,,,,,,,,,,,,513.2969284229912,513.2969284229912,513.2969284229912,513.2969284229912,513.2969284229912,513.2969284229912,513.2969284229912,513.2969284229912,513.2969284229912,513.2969284229912,a,0.5598847449873574,1,708,2,513.8810690949904,515.3825040179945,,,,,,,,,,,,,,,,,,,,,,,,,,,,,,,,,,,,,,,,,,,,,,,,,,,,,,,,,,,,,,,,,,,,,,65448,2022-11-07_13h57.46.134,vts_reward_expectancy_bt_OFFLINE,2022.2.4,59.886055998968445,
1,0,0,0,0,1,0,0,triangle,circle,2,0,2,0,3,9,45,0,,,,,,,,,,,,,,,,,,,,,,,,,,,,,,,,,,,,,,,,515.8830967220129,515.8830967220129,515.8830967220129,515.8830967220129,515.8830967220129,515.8830967220129,515.8830967220129,515.8830967220129,515.8830967220129,515.8830967220129,a,0.4837198739987798,10,718,2,516.3837328020018,517.8854806259915,,,,,,,,,,,,,,,,,,,,,,,,,,,,,,,,,,,,,,,,,,,,,,,,,,,,,,,,,,,,,,,,,,,,,,65448,2022-11-07_13h57.46.134,vts_reward_expectancy_bt_OFFLINE,2022.2.4,59.886055998968445,
0,1,0,0,0,0,0,1,circle,star,2,0,2,0,3,10,46,5,,,,,,,,,,,,,,,,,,,,,,,,,,,,,,,,,,,,,,,,518.3861060609925,518.3861060609925,518.3861060609925,518.3861060609925,518.3861060609925,518.3861060609925,518.3861060609925,518.3861060609925,518.3861060609925,518.3861060609925,a,0.7254483610158786,1,719,2,519.1367288239999,520.6384076469985,,,,,,,,,,,,,,,,,,,,,,,,,,,,,,,,,,,,,,,,,,,,,,,,,,,,,,,,,,,,,,,,,,,,,,65448,2022-11-07_13h57.46.134,vts_reward_expectancy_bt_OFFLINE,2022.2.4,59.886055998968445,
0,1,0,0,0,0,1,0,circle,hexagon,2,0,2,0,3,11,47,4,,,,,,,,,,,,,,,,,,,,,,,,,,,,,,,,,,,,,,,,521.1388950799883,521.1388950799883,521.1388950799883,521.1388950799883,521.1388950799883,521.1388950799883,521.1388950799883,521.1388950799883,521.1388950799883,521.1388950799883,a,0.5496518030122388,1,720,2,521.706332709,523.2078712430084,,,,,,,,,,,,,,,,,,,,,,,,,,,,,,,,,,,,,,,,,,,,,,,,,,,,,,,,,,,,,,,,,,,,,,65448,2022-11-07_13h57.46.134,vts_reward_expectancy_bt_OFFLINE,2022.2.4,59.886055998968445,
,,,,,,,,,,,,,,,,,,0,0,0,0,0,0,0,0,,,,,,,,,,,,,,,,,,,,,,,,,,,,,,,,,,,,,,,,,,,,,,,,562.2843781920092,,S,132,hexagon,0.0018010190105997026,556.2768680709996,557.7793289179972,557.7793289179972,557.7793289179972,560.78254929799,560.78254929799,560.78254929799,560.78254929799,0,0,None,0,560.78254929799,562.2843781920092,562.7849066570052,,,,,,,,,,,,,,,,,,,,,,,,,,,,,,,,,,,,,,,,,,,,,,,,,,65448,2022-11-07_13h57.46.134,vts_reward_expectancy_bt_OFFLINE,2022.2.4,59.886055998968445,
,,,,,,,,,,,,,,,,,,0,0,0,0,1,0,1,0,,,,,,,,,,,,,,,,,,,,,,,,,,,,,,,,,,,,,,,,,,,,,,,,567.2566183200106,,H,160,circle,0.008979250997072086,563.2812364400015,564.787127529009,564.787127529009,564.787127529009,,,,,1,1,d,0,565.7553114870097,,,0.9448886299796868,,,,,,,,,,,,,,,,,,,,,,,,,,,,,,,,,,,,,,,,,,,,,,,,,65448,2022-11-07_13h57.46.134,vts_reward_expectancy_bt_OFFLINE,2022.2.4,59.886055998968445,
,,,,,,,,,,,,,,,,,,0,0,0,0,2,0,2,0,,,,,,,,,,,,,,,,,,,,,,,,,,,,,,,,,,,,,,,,,,,,,,,,571.82827843001,,Y,181,star,0.0017589259950909764,568.2383197459858,569.7425712289987,569.7425712289987,569.7425712289987,,,,,1,0,f,0,570.3267029839917,,,0.5577764860063326,,,,,,,,,,,,,,,,,,,,,,,,,,,,,,,,,,,,,,,,,,,,,,,,,65448,2022-11-07_13h57.46.134,vts_reward_expectancy_bt_OFFLINE,2022.2.4,59.886055998968445,
,,,,,,,,,,,,,,,,,,0,0,0,0,3,0,3,0,,,,,,,,,,,,,,,,,,,,,,,,,,,,,,,,,,,,,,,,,,,,,,,,576.5334390549979,,U,139,triangle,0.0017588569899089634,572.8109577319992,574.3143675370084,574.3143675370084,574.3143675370084,,,,,1,0,f,0,575.0318041020073,,,0.6891575450135861,,,,,,,,,,,,,,,,,,,,,,,,,,,,,,,,,,,,,,,,,,,,,,,,,65448,2022-11-07_13h57.46.134,vts_reward_expectancy_bt_OFFLINE,2022.2.4,59.886055998968445,
,,,,,,,,,,,,,,,,,,0,0,0,0,4,0,4,0,,,,,,,,,,,,,,,,,,,,,,,,,,,,,,,,,,,,,,,,,,,,,,,,581.3553558090061,,F,167,hexagon,0.0016664059949107468,577.5136455699976,579.0194005189987,579.0194005189987,579.0194005189987,,,,,1,0,d,0,579.8537163090077,,,0.8092372189857997,,,,,,,,,,,,,,,,,,,,,,,,,,,,,,,,,,,,,,,,,,,,,,,,,65448,2022-11-07_13h57.46.134,vts_reward_expectancy_bt_OFFLINE,2022.2.4,59.886055998968445,
,,,,,,,,,,,,,,,,,,0,0,0,0,5,0,5,0,,,,,,,,,,,,,,,,,,,,,,,,,,,,,,,,,,,,,,,,,,,,,,,,586.0438343280111,,B,125,circle,0.0015718499780632555,582.3371806429932,583.8413993210124,583.8413993210124,583.8413993210124,,,,,1,0,d,0,584.5421619309927,,,0.6797582680010237,,,,,,,,,,,,,,,,,,,,,,,,,,,,,,,,,,,,,,,,,,,,,,,,,65448,2022-11-07_13h57.46.134,vts_reward_expectancy_bt_OFFLINE,2022.2.4,59.886055998968445,
,,,,,,,,,,,,,,,,,,0,0,0,0,6,0,6,0,,,,,,,,,,,,,,,,,,,,,,,,,,,,,,,,,,,,,,,,,,,,,,,,590.7490270909911,,D,146,star,0.001650954014621675,587.0260379239917,588.5301188059966,588.5301188059966,588.5301188059966,,,,,1,0,d,0,589.2472966630012,,,0.6926719860057347,,,,,,,,,,,,,,,,,,,,,,,,,,,,,,,,,,,,,,,,,,,,,,,,,65448,2022-11-07_13h57.46.134,vts_reward_expectancy_bt_OFFLINE,2022.2.4,59.886055998968445,
,,,,,,,,,,,,,,,,,,0,0,0,0,7,0,7,0,,,,,,,,,,,,,,,,,,,,,,,,,,,,,,,,,,,,,,,,,,,,,,,,595.3874686629861,,W,174,triangle,0.001596882997546345,591.7310831549985,593.235262044007,593.235262044007,593.235262044007,,,,,1,0,f,0,593.8859497749945,,,0.6231646419910248,,,,,,,,,,,,,,,,,,,,,,,,,,,,,,,,,,,,,,,,,,,,,,,,,65448,2022-11-07_13h57.46.134,vts_reward_expectancy_bt_OFFLINE,2022.2.4,59.886055998968445,
,,,,,,,,,,,,,,,,,,0,0,0,0,8,0,8,0,,,,,,,,,,,,,,,,,,,,,,,,,,,,,,,,,,,,,,,,,,,,,,,,600.0926603690023,,S,132,hexagon,0.0015917069977149367,596.3661294489866,597.8736748679949,597.8736748679949,597.8736748679949,,,,,1,0,f,0,598.5909664469946,,,0.6996488900040276,,,,,,,,,,,,,,,,,,,,,,,,,,,,,,,,,,,,,,,,,,,,,,,,,65448,2022-11-07_13h57.46.134,vts_reward_expectancy_bt_OFFLINE,2022.2.4,59.886055998968445,
,,,,,,,,,,,,,,,,,,0,0,0,0,9,0,9,0,,,,,,,,,,,,,,,,,,,,,,,,,,,,,,,,,,,,,,,,,,,,,,,,604.7644393430091,,H,160,triangle,0.0015403500001411885,601.0703491170134,602.578767147992,602.578767147992,602.578767147992,,,,,1,0,d,0,603.2628468690091,,,0.6518314589920919,,,,,,,,,,,,,,,,,,,,,,,,,,,,,,,,,,,,,,,,,,,,,,,,,65448,2022-11-07_13h57.46.134,vts_reward_expectancy_bt_OFFLINE,2022.2.4,59.886055998968445,
,,,,,,,,,,,,,,,,,,,,,,,,,,0,0,0,0,0,0,0,0,,,,,,,,,,,,,,,,,,,,,,,,,,,,,,,,,,,,,,,,635.7654867910023,,W,139,triangle,0.002203290001489222,,,,,,,,,0,0,,1,634.2637617099972,,,,631.3062593649956,632.8120582950069,632.8120582950069,632.8120582950069,k,1.4244436749722809,,,,,,,,,,,,,,,,,,,,,,,,,,,,,,,,,,,,,,,,,,,65448,2022-11-07_13h57.46.134,vts_reward_expectancy_bt_OFFLINE,2022.2.4,59.886055998968445,
,,,,,,,,,,,,,,,,,,,,,,,,,,0,0,0,0,1,0,1,0,,,,,,,,,,,,,,,,,,,,,,,,,,,,,,,,,,,,,,,,642.4561382230022,,Y,132,hexagon,0.0015387389867100865,,,,,,,,,1,1,,1,640.9543734629988,,,,636.744656461,638.2514942249982,638.2514942249982,638.2514942249982,j,2.6780106670048553,,,,,,,,,,,,,,,,,,,,,,,,,,,,,,,,,,,,,,,,,,,65448,2022-11-07_13h57.46.134,vts_reward_expectancy_bt_OFFLINE,2022.2.4,59.886055998968445,
,,,,,,,,,,,,,,,,,,,,,,,,,,0,0,0,0,2,0,2,0,,,,,,,,,,,,,,,,,,,,,,,,,,,,,,,,,,,,,,,,647.5618925970048,,S,174,star,0.0013535059988498688,,,,,,,,,1,0,,1,646.0601827070059,,,,643.4372374269878,644.9420989720093,644.9420989720093,644.9420989720093,k,1.084898514993256,,,,,,,,,,,,,,,,,,,,,,,,,,,,,,,,,,,,,,,,,,,65448,2022-11-07_13h57.46.134,vts_reward_expectancy_bt_OFFLINE,2022.2.4,59.886055998968445,
,,,,,,,,,,,,,,,,,,,,,,,,,,0,0,0,0,3,0,3,0,,,,,,,,,,,,,,,,,,,,,,,,,,,,,,,,,,,,,,,,652.4171217239928,,H,146,circle,0.001595503999851644,,,,,,,,,1,0,,1,650.9155086789979,,,,648.5432047650102,650.0478454889962,650.0478454889962,650.0478454889962,j,0.8393209519854281,,,,,,,,,,,,,,,,,,,,,,,,,,,,,,,,,,,,,,,,,,,65448,2022-11-07_13h57.46.134,vts_reward_expectancy_bt_OFFLINE,2022.2.4,59.886055998968445,
,,,,,,,,,,,,,,,,,,,,,,,,,,0,0,0,0,4,0,4,0,,,,,,,,,,,,,,,,,,,,,,,,,,,,,,,,,,,,,,,,657.2890757549903,,U,181,circle,0.0015380129916593432,,,,,,,,,1,0,,1,655.787516507,,,,653.3969323839992,654.9033542780089,654.9033542780089,654.9033542780089,k,0.8668642000120599,,,,,,,,,,,,,,,,,,,,,,,,,,,,,,,,,,,,,,,,,,,65448,2022-11-07_13h57.46.134,vts_reward_expectancy_bt_OFFLINE,2022.2.4,59.886055998968445,
,,,,,,,,,,,,,,,,,,,,,,,,,,0,0,0,0,5,0,5,0,,,,,,,,,,,,,,,,,,,,,,,,,,,,,,,,,,,,,,,,662.1613097400113,,D,125,star,0.0012073620164301246,,,,,,,,,1,0,,1,660.659510700003,,,,658.2678958809993,659.7752856629959,659.7752856629959,659.7752856629959,j,0.8532408010214567,,,,,,,,,,,,,,,,,,,,,,,,,,,,,,,,,,,,,,,,,,,65448,2022-11-07_13h57.46.134,vts_reward_expectancy_bt_OFFLINE,2022.2.4,59.886055998968445,
,,,,,,,,,,,,,,,,,,,,,,,,,,0,0,0,0,6,0,6,0,,,,,,,,,,,,,,,,,,,,,,,,,,,,,,,,,,,,,,,,667.3169366589864,,F,160,hexagon,0.0013946550025139004,,,,,,,,,1,0,,1,665.8148262719915,,,,663.1397304160055,664.6472026210104,664.6472026210104,664.6472026210104,k,1.1348180240020156,,,,,,,,,,,,,,,,,,,,,,,,,,,,,,,,,,,,,,,,,,,65448,2022-11-07_13h57.46.134,vts_reward_expectancy_bt_OFFLINE,2022.2.4,59.886055998968445,
,,,,,,,,,,,,,,,,,,,,,,,,,,0,0,0,0,7,0,7,0,,,,,,,,,,,,,,,,,,,,,,,,,,,,,,,,,,,,,,,,672.0386962720077,,B,167,triangle,0.002149765001377091,,,,,,,,,1,0,,1,670.5369785199873,,,,668.2954184169939,669.8029594969994,669.8029594969994,669.8029594969994,k,0.7029599550005514,,,,,,,,,,,,,,,,,,,,,,,,,,,,,,,,,,,,,,,,,,,65448,2022-11-07_13h57.46.134,vts_reward_expectancy_bt_OFFLINE,2022.2.4,59.886055998968445,
,,,,,,,,,,,,,,,,,,,,,,,,,,0,0,0,0,8,0,8,0,,,,,,,,,,,,,,,,,,,,,,,,,,,,,,,,,,,,,,,,676.9776254179887,,W,139,star,0.001538068987429142,,,,,,,,,1,0,,1,675.4757963400043,,,,673.0184742650017,674.5247964070004,674.5247964070004,674.5247964070004,j,0.9201322260196321,,,,,,,,,,,,,,,,,,,,,,,,,,,,,,,,,,,,,,,,,,,65448,2022-11-07_13h57.46.134,vts_reward_expectancy_bt_OFFLINE,2022.2.4,59.886055998968445,
,,,,,,,,,,,,,,,,,,,,,,,,,,0,0,0,0,9,0,9,0,,,,,,,,,,,,,,,,,,,,,,,,,,,,,,,,,,,,,,,,682.1332567519858,,Y,132,hexagon,0.0015992269909474999,,,,,,,,,1,0,,1,680.6315228960011,,,,677.9561451069894,679.4635463459999,679.4635463459999,679.4635463459999,j,1.1465128469862975,,,,,,,,,,,,,,,,,,,,,,,,,,,,,,,,,,,,,,,,,,,65448,2022-11-07_13h57.46.134,vts_reward_expectancy_bt_OFFLINE,2022.2.4,59.886055998968445,
,,,,,,,,,,,,,,,,,,,,,,,,,,,,,,,,,,0,0,0,0,0,0,0,0,,,,,,,,,,,,,,,,,,,,,,,,,,,,0,720,,,723.2784549079952,,Y,139,circle,0.0019432219851296395,,,,,,,,,1,0,,2,,,,,,,,,,,718.5550046380085,718.5550046380085,718.5550046380085,718.5550046380085,720.0583053999871,720.0583053999871,720.0583053999871,720.0583053999871,720.0583053999871,720.0583053999871,720.0583053999871,720.0583053999871,-1,letter,NA,f,1.6934587850118987,vtsPrac,721.7784270069969,,,,,,,,,,,,,,,,,,,,,,,,65448,2022-11-07_13h57.46.134,vts_reward_expectancy_bt_OFFLINE,2022.2.4,59.886055998968445,
,,,,,,,,,,,,,,,,,,,,,,,,,,,,,,,,,,0,0,0,0,1,0,1,0,,,,,,,,,,,,,,,,,,,,,,,,,,,,0,720,,,729.301940106001,,F,125,triangle,0.0013965459947939962,,,,,,,,,0,0,,2,,,,,,,,,,,724.260532640008,724.260532640008,724.260532640008,724.260532640008,725.7643219929887,725.7643219929887,725.7643219929887,725.7643219929887,725.7643219929887,725.7643219929887,725.7643219929887,725.7643219929887,switch,number,NA,k,2.0191611599875614,vtsPrac,727.8007155669911,,,,,,,,,,,,,,,,,,,,,,,,65448,2022-11-07_13h57.46.134,vts_reward_expectancy_bt_OFFLINE,2022.2.4,59.886055998968445,
,,,,,,,,,,,,,,,,,,,,,,,,,,,,,,,,,,0,0,0,0,2,0,2,0,,,,,,,,,,,,,,,,,,,,,,,,,,,,0,720,,,735.174992684013,,S,167,triangle,0.0013641919940710068,,,,,,,,,1,1,,2,,,,,,,,,,,730.2849990919931,730.2849990919931,730.2849990919931,730.2849990919931,731.7881902600056,731.7881902600056,731.7881902600056,731.7881902600056,731.7881902600056,731.7881902600056,731.7881902600056,731.7881902600056,switch,letter,lettSwt,f,1.8681361179915257,vtsPrac,733.673490576999,,,,,,,,,,,,,,,,,,,,,,,,65448,2022-11-07_13h57.46.134,vts_reward_expectancy_bt_OFFLINE,2022.2.4,59.886055998968445,
,,,,,,,,,,,,,,,,,,,,,,,,,,,,,,,,,,0,0,0,0,3,0,3,0,,,,,,,,,,,,,,,,,,,,,,,,,,,,0,720,,,740.2804956740001,,U,181,hexagon,0.0014776510070078075,,,,,,,,,1,0,,2,,,,,,,,,,,736.1575518529862,736.1575518529862,736.1575518529862,736.1575518529862,737.66103754699,737.66103754699,737.66103754699,737.66103754699,737.66103754699,737.66103754699,737.66103754699,737.66103754699,repeat,letter,lettRpt,f,1.0904165639949497,vtsPrac,738.7789239939884,,,,,,,,,,,,,,,,,,,,,,,,65448,2022-11-07_13h57.46.134,vts_reward_expectancy_bt_OFFLINE,2022.2.4,59.886055998968445,
,,,,,,,,,,,,,,,,,,,,,,,,,,,,,,,,,,0,0,0,0,4,0,4,0,,,,,,,,,,,,,,,,,,,,,,,,,,,,0,720,,,745.4029552339925,,Y,139,triangle,0.0016669910110067576,,,,,,,,,0,0,,2,,,,,,,,,,,741.2603681639885,741.2603681639885,741.2603681639885,741.2603681639885,742.7667498759984,742.7667498759984,742.7667498759984,742.7667498759984,742.7667498759984,742.7667498759984,742.7667498759984,742.7667498759984,switch,number,NA,k,1.1150962969986722,vtsPrac,743.9013238819898,,,,,,,,,,,,,,,,,,,,,,,,65448,2022-11-07_13h57.46.134,vts_reward_expectancy_bt_OFFLINE,2022.2.4,59.886055998968445,
,,,,,,,,,,,,,,,,,,,,,,,,,,,,,,,,,,0,0,0,0,5,0,5,0,,,,,,,,,,,,,,,,,,,,,,,,,,,,0,720,,,750.3752239299938,,F,125,circle,0.00136954800109379,,,,,,,,,1,1,,2,,,,,,,,,,,746.3816619839927,746.3816619839927,746.3816619839927,746.3816619839927,747.8890914400108,747.8890914400108,747.8890914400108,747.8890914400108,747.8890914400108,747.8890914400108,747.8890914400108,747.8890914400108,repeat,number,numRpt,j,0.9533273770066444,vtsPrac,748.8736370269908,,,,,,,,,,,,,,,,,,,,,,,,65448,2022-11-07_13h57.46.134,vts_reward_expectancy_bt_OFFLINE,2022.2.4,59.886055998968445,
,,,,,,,,,,,,,,,,,,,,,,,,,,,,,,,,,,0,0,0,0,6,0,6,0,,,,,,,,,,,,,,,,,,,,,,,,,,,,0,720,,,755.0803441840108,,S,167,star,0.0016328039928339422,,,,,,,,,1,0,,2,,,,,,,,,,,751.3536376660049,751.3536376660049,751.3536376660049,751.3536376660049,752.861165321985,752.861165321985,752.861165321985,752.861165321985,752.861165321985,752.861165321985,752.861165321985,752.861165321985,repeat,number,numRpt,k,0.6947485349955969,vtsPrac,753.578719120007,,,,,,,,,,,,,,,,,,,,,,,,65448,2022-11-07_13h57.46.134,vts_reward_expectancy_bt_OFFLINE,2022.2.4,59.886055998968445,
,,,,,,,,,,,,,,,,,,,,,,,,,,,,,,,,,,0,0,0,0,7,0,7,0,,,,,,,,,,,,,,,,,,,,,,,,,,,,0,720,,,760.2194576949987,,U,181,circle,0.00175516601302661,,,,,,,,,1,0,,2,,,,,,,,,,,756.0618237679882,756.0618237679882,756.0618237679882,756.0618237679882,757.5663075679913,757.5663075679913,757.5663075679913,757.5663075679913,757.5663075679913,757.5663075679913,757.5663075679913,757.5663075679913,switch,letter,lettSwt,f,1.1326219300099183,vtsPrac,758.7177858749928,,,,,,,,,,,,,,,,,,,,,,,,65448,2022-11-07_13h57.46.134,vts_reward_expectancy_bt_OFFLINE,2022.2.4,59.886055998968445,
,,,,,,,,,,,,,,,,,,,,,,,,,,,,,,,,,,0,0,0,0,8,0,8,0,,,,,,,,,,,,,,,,,,,,,,,,,,,,0,720,,,765.7086517669959,,Y,146,triangle,0.0014583150041289628,,,,,,,,,1,0,,2,,,,,,,,,,,761.1991759639932,761.1991759639932,761.1991759639932,761.1991759639932,762.705253883003,762.705253883003,762.705253883003,762.705253883003,762.705253883003,762.705253883003,762.705253883003,762.705253883003,switch,number,numSwt,j,1.4710340430028737,vtsPrac,764.2069341060123,,,,,,,,,,,,,,,,,,,,,,,,65448,2022-11-07_13h57.46.134,vts_reward_expectancy_bt_OFFLINE,2022.2.4,59.886055998968445,
,,,,,,,,,,,,,,,,,,,,,,,,,,,,,,,,,,0,0,0,0,9,0,9,0,,,,,,,,,,,,,,,,,,,,,,,,,,,,0,720,,,770.7643851760076,,U,132,circle,0.0017044389969669282,,,,,,,,,1,0,,2,,,,,,,,,,,766.6870903240051,766.6870903240051,766.6870903240051,766.6870903240051,768.1949318450061,768.1949318450061,768.1949318450061,768.1949318450061,768.1949318450061,768.1949318450061,768.1949318450061,768.1949318450061,repeat,number,numRpt,j,1.0348292929993477,vtsPrac,769.2626676340005,,,,,,,,,,,,,,,,,,,,,,,,65448,2022-11-07_13h57.46.134,vts_reward_expectancy_bt_OFFLINE,2022.2.4,59.886055998968445,
,,,,,,,,,,,,,,,,,,,,,,,,,,,,,,,,,,0,0,0,0,10,0,10,0,,,,,,,,,,,,,,,,,,,,,,,,,,,,0,720,,,775.4194080599991,,W,125,star,0.0015956959978211671,,,,,,,,,1,0,,2,,,,,,,,,,,771.7442981300119,771.7442981300119,771.7442981300119,771.7442981300119,773.2503528870002,773.2503528870002,773.2503528870002,773.2503528870002,773.2503528870002,773.2503528870002,773.2503528870002,773.2503528870002,repeat,number,numRpt,j,0.6470244799857028,vtsPrac,773.9177477110061,,,,,,,,,,,,,,,,,,,,,,,,65448,2022-11-07_13h57.46.134,vts_reward_expectancy_bt_OFFLINE,2022.2.4,59.886055998968445,
,,,,,,,,,,,,,,,,,,,,,,,,,,,,,,,,,,0,0,0,0,11,0,11,0,,,,,,,,,,,,,,,,,,,,,,,,,,,,0,720,,,779.9912737940031,,S,139,hexagon,0.0016393570112995803,,,,,,,,,1,0,,2,,,,,,,,,,,776.4006175269897,776.4006175269897,776.4006175269897,776.4006175269897,777.9055521679984,777.9055521679984,777.9055521679984,777.9055521679984,777.9055521679984,777.9055521679984,777.9055521679984,777.9055521679984,repeat,number,numRpt,j,0.5590216020063963,vtsPrac,778.4894414359878,,,,,,,,,,,,,,,,,,,,,,,,65448,2022-11-07_13h57.46.134,vts_reward_expectancy_bt_OFFLINE,2022.2.4,59.886055998968445,
,,,,,,,,,,,,,,,,,,,,,,,,,,,,,,,,,,0,0,0,0,12,0,12,0,,,,,,,,,,,,,,,,,,,,,,,,,,,,0,720,,,785.0967450900062,,S,167,circle,0.001604655000846833,,,,,,,,,1,0,,2,,,,,,,,,,,780.9694056299923,780.9694056299923,780.9694056299923,780.9694056299923,782.4773017810076,782.4773017810076,782.4773017810076,782.4773017810076,782.4773017810076,782.4773017810076,782.4773017810076,782.4773017810076,switch,letter,lettSwt,f,1.0848211359989364,vtsPrac,783.5951872990117,,,,,,,,,,,,,,,,,,,,,,,,65448,2022-11-07_13h57.46.134,vts_reward_expectancy_bt_OFFLINE,2022.2.4,59.886055998968445,
,,,,,,,,,,,,,,,,,,,,,,,,,,,,,,,,,,0,0,0,0,13,0,13,0,,,,,,,,,,,,,,,,,,,,,,,,,,,,0,720,,,789.7852742210089,,D,174,hexagon,0.0015481209848076105,,,,,,,,,1,0,,2,,,,,,,,,,,786.0774999099958,786.0774999099958,786.0774999099958,786.0774999099958,787.5828172870097,787.5828172870097,787.5828172870097,787.5828172870097,787.5828172870097,787.5828172870097,787.5828172870097,787.5828172870097,repeat,letter,lettRpt,d,0.6819625879870728,vtsPrac,788.2835115820053,,,,,,,,,,,,,,,,,,,,,,,,65448,2022-11-07_13h57.46.134,vts_reward_expectancy_bt_OFFLINE,2022.2.4,59.886055998968445,
,,,,,,,,,,,,,,,,,,,,,,,,,,,,,,,,,,0,0,0,0,14,0,14,0,,,,,,,,,,,,,,,,,,,,,,,,,,,,0,720,,,794.8242613479961,,B,125,triangle,0.001703340996755287,,,,,,,,,1,0,,2,,,,,,,,,,,790.7652603370079,790.7652603370079,790.7652603370079,790.7652603370079,792.2713577559916,792.2713577559916,792.2713577559916,792.2713577559916,792.2713577559916,792.2713577559916,792.2713577559916,792.2713577559916,repeat,letter,lettRpt,d,1.0336400670057628,vtsPrac,793.322448285995,,,,,,,,,,,,,,,,,,,,,,,,65448,2022-11-07_13h57.46.134,vts_reward_expectancy_bt_OFFLINE,2022.2.4,59.886055998968445,
,,,,,,,,,,,,,,,,,,,,,,,,,,,,,,,,,,0,0,0,0,15,0,15,0,,,,,,,,,,,,,,,,,,,,,,,,,,,,0,720,,,799.9632827159949,,W,160,star,0.0017363079823553562,,,,,,,,,1,0,,2,,,,,,,,,,,795.803993523994,795.803993523994,795.803993523994,795.803993523994,797.3103894529922,797.3103894529922,797.3103894529922,797.3103894529922,797.3103894529922,797.3103894529922,797.3103894529922,797.3103894529922,repeat,letter,lettRpt,f,1.123613321018638,vtsPrac,798.4614764149883,,,,,,,,,,,,,,,,,,,,,,,,65448,2022-11-07_13h57.46.134,vts_reward_expectancy_bt_OFFLINE,2022.2.4,59.886055998968445,
,,,,,,,,,,,,,,,,,,,,,,,,,,,,,,,,,,0,0,0,0,16,0,16,0,,,,,,,,,,,,,,,,,,,,,,,,,,,,0,720,,,804.6349442770006,,F,132,star,0.001779971003998071,,,,,,,,,1,0,,2,,,,,,,,,,,800.9416634549852,800.9416634549852,800.9416634549852,800.9416634549852,802.4492701310082,802.4492701310082,802.4492701310082,802.4492701310082,802.4492701310082,802.4492701310082,802.4492701310082,802.4492701310082,switch,number,numSwt,j,0.666114658000879,vtsPrac,803.1332302140072,,,,,,,,,,,,,,,,,,,,,,,,65448,2022-11-07_13h57.46.134,vts_reward_expectancy_bt_OFFLINE,2022.2.4,59.886055998968445,
,,,,,,,,,,,,,,,,,,,,,,,,,,,,,,,,,,0,0,0,0,17,0,17,0,,,,,,,,,,,,,,,,,,,,,,,,,,,,0,720,,,810.9252071449882,,D,167,circle,0.0015010250208433717,,,,,,,,,1,0,,2,,,,,,,,,,,805.6161369539914,805.6161369539914,805.6161369539914,805.6161369539914,807.1212210500089,807.1212210500089,807.1212210500089,807.1212210500089,807.1212210500089,807.1212210500089,807.1212210500089,807.1212210500089,repeat,number,numRpt,k,2.2819280010007787,vtsPrac,809.423523156991,,,,,,,,,,,,,,,,,,,,,,,,65448,2022-11-07_13h57.46.134,vts_reward_expectancy_bt_OFFLINE,2022.2.4,59.886055998968445,
,,,,,,,,,,,,,,,,,,,,,,,,,,,,,,,,,,0,0,0,0,18,0,18,0,,,,,,,,,,,,,,,,,,,,,,,,,,,,0,720,,,816.5481808340119,,Y,146,triangle,0.001450231997296214,,,,,,,,,1,0,,2,,,,,,,,,,,811.9051935960015,811.9051935960015,811.9051935960015,811.9051935960015,813.4114585749921,813.4114585749921,813.4114585749921,813.4114585749921,813.4114585749921,813.4114585749921,813.4114585749921,813.4114585749921,switch,letter,lettSwt,f,1.6061964590044226,vtsPrac,815.0465700670029,,,,,,,,,,,,,,,,,,,,,,,,65448,2022-11-07_13h57.46.134,vts_reward_expectancy_bt_OFFLINE,2022.2.4,59.886055998968445,
,,,,,,,,,,,,,,,,,,,,,,,,,,,,,,,,,,0,0,0,0,19,0,19,0,,,,,,,,,,,,,,,,,,,,,,,,,,,,0,720,,,821.8372485720029,,H,139,circle,0.001519354002084583,,,,,,,,,1,0,,2,,,,,,,,,,,817.5278626299987,817.5278626299987,817.5278626299987,817.5278626299987,819.0341884449881,819.0341884449881,819.0341884449881,819.0341884449881,819.0341884449881,819.0341884449881,819.0341884449881,819.0341884449881,switch,number,numSwt,j,1.282832696015248,vtsPrac,820.3358275989885,,,,,,,,,,,,,,,,,,,,,,,,65448,2022-11-07_13h57.46.134,vts_reward_expectancy_bt_OFFLINE,2022.2.4,59.886055998968445,
,,,,,,,,,,,,,,,,,,,,,,,,,,,,,,,,,,0,0,0,0,20,0,20,0,,,,,,,,,,,,,,,,,,,,,,,,,,,,0,720,,,828.3276508039853,,Y,132,hexagon,0.0016147579881362617,,,,,,,,,1,0,,2,,,,,,,,,,,822.8163906270056,822.8163906270056,822.8163906270056,822.8163906270056,824.3234768660041,824.3234768660041,824.3234768660041,824.3234768660041,824.3234768660041,824.3234768660041,824.3234768660041,824.3234768660041,switch,letter,lettSwt,f,2.4731273019860964,vtsPrac,826.8262748100096,,,,,,,,,,,,,,,,,,,,,,,,65448,2022-11-07_13h57.46.134,vts_reward_expectancy_bt_OFFLINE,2022.2.4,59.886055998968445,
,,,,,,,,,,,,,,,,,,,,,,,,,,,,,,,,,,0,0,0,0,21,0,21,0,,,,,,,,,,,,,,,,,,,,,,,,,,,,0,720,,,833.4499988380121,,S,146,star,0.001643700001295656,,,,,,,,,1,0,,2,,,,,,,,,,,829.3061234449851,829.3061234449851,829.3061234449851,829.3061234449851,830.8139318169851,830.8139318169851,830.8139318169851,830.8139318169851,830.8139318169851,830.8139318169851,830.8139318169851,830.8139318169851,switch,number,numSwt,j,1.112863181013381,vtsPrac,831.9483470600098,,,,,,,,,,,,,,,,,,,,,,,,65448,2022-11-07_13h57.46.134,vts_reward_expectancy_bt_OFFLINE,2022.2.4,59.886055998968445,
,,,,,,,,,,,,,,,,,,,,,,,,,,,,,,,,,,0,0,0,0,22,0,22,0,,,,,,,,,,,,,,,,,,,,,,,,,,,,0,720,,,838.2054370059923,,D,167,triangle,0.0019130639848299325,,,,,,,,,1,0,,2,,,,,,,,,,,834.4299408269871,834.4299408269871,834.4299408269871,834.4299408269871,835.9360634899931,835.9360634899931,835.9360634899931,835.9360634899931,835.9360634899931,835.9360634899931,835.9360634899931,835.9360634899931,repeat,number,numRpt,k,0.7507256969984155,vtsPrac,836.7038063050131,,,,,,,,,,,,,,,,,,,,,,,,65448,2022-11-07_13h57.46.134,vts_reward_expectancy_bt_OFFLINE,2022.2.4,59.886055998968445,
,,,,,,,,,,,,,,,,,,,,,,,,,,,,,,,,,,0,0,0,0,23,0,23,0,,,,,,,,,,,,,,,,,,,,,,,,,,,,0,720,,,843.2942493020091,,B,181,hexagon,0.0014873870240990072,,,,,,,,,1,0,,2,,,,,,,,,,,839.1849638760032,839.1849638760032,839.1849638760032,839.1849638760032,840.6914139419969,840.6914139419969,840.6914139419969,840.6914139419969,840.6914139419969,840.6914139419969,840.6914139419969,840.6914139419969,switch,letter,lettSwt,d,1.079977830988355,vtsPrac,841.792633909994,,,,,,,,,,,,,,,,,,,,,,,,65448,2022-11-07_13h57.46.134,vts_reward_expectancy_bt_OFFLINE,2022.2.4,59.886055998968445,
,,,,,,,,,,,,,,,,,,,,,,,,,,,,,,,,,,0,0,0,0,24,0,24,0,,,,,,,,,,,,,,,,,,,,,,,,,,,,0,720,,,849.7180410950095,,U,160,circle,0.0016468679823447019,,,,,,,,,1,0,,2,,,,,,,,,,,844.2726180810132,844.2726180810132,844.2726180810132,844.2726180810132,845.7804303849989,845.7804303849989,845.7804303849989,845.7804303849989,845.7804303849989,845.7804303849989,845.7804303849989,845.7804303849989,switch,number,numSwt,k,2.4146036299935076,vtsPrac,848.2162619270093,,,,,,,,,,,,,,,,,,,,,,,,65448,2022-11-07_13h57.46.134,vts_reward_expectancy_bt_OFFLINE,2022.2.4,59.886055998968445,
,,,,,,,,,,,,,,,,,,,,,,,,,,,,,,,,,,0,0,0,0,25,0,25,0,,,,,,,,,,,,,,,,,,,,,,,,,,,,0,720,,,855.0739830509992,,W,181,hexagon,0.001539346994832158,,,,,,,,,1,0,,2,,,,,,,,,,,850.6972113380034,850.6972113380034,850.6972113380034,850.6972113380034,852.2040680710052,852.2040680710052,852.2040680710052,852.2040680710052,852.2040680710052,852.2040680710052,852.2040680710052,852.2040680710052,repeat,number,numRpt,k,1.3452281939971726,vtsPrac,853.5721802579938,,,,,,,,,,,,,,,,,,,,,,,,65448,2022-11-07_13h57.46.134,vts_reward_expectancy_bt_OFFLINE,2022.2.4,59.886055998968445,
,,,,,,,,,,,,,,,,,,,,,,,,,,,,,,,,,,0,0,0,0,26,0,26,0,,,,,,,,,,,,,,,,,,,,,,,,,,,,0,720,,,860.8138659450051,,B,139,triangle,0.0017067629960365593,,,,,,,,,1,0,,2,,,,,,,,,,,856.053374665993,856.053374665993,856.053374665993,856.053374665993,857.5599576570094,857.5599576570094,857.5599576570094,857.5599576570094,857.5599576570094,857.5599576570094,857.5599576570094,857.5599576570094,switch,letter,lettSwt,d,1.7270465189940296,vtsPrac,859.3119536990125,,,,,,,,,,,,,,,,,,,,,,,,65448,2022-11-07_13h57.46.134,vts_reward_expectancy_bt_OFFLINE,2022.2.4,59.886055998968445,
,,,,,,,,,,,,,,,,,,,,,,,,,,,,,,,,,,0,0,0,0,27,0,27,0,,,,,,,,,,,,,,,,,,,,,,,,,,,,0,720,,,866.5366593830113,,H,132,star,0.0018014830129686743,,,,,,,,,1,0,,2,,,,,,,,,,,861.7946314889996,861.7946314889996,861.7946314889996,861.7946314889996,863.3002452370129,863.3002452370129,863.3002452370129,863.3002452370129,863.3002452370129,863.3002452370129,863.3002452370129,863.3002452370129,switch,number,numSwt,j,1.7020910530118272,vtsPrac,865.0350276610116,,,,,,,,,,,,,,,,,,,,,,,,65448,2022-11-07_13h57.46.134,vts_reward_expectancy_bt_OFFLINE,2022.2.4,59.886055998968445,
,,,,,,,,,,,,,,,,,,,,,,,,,,,,,,,,,,0,0,0,0,28,0,28,0,,,,,,,,,,,,,,,,,,,,,,,,,,,,0,720,,,872.8602402239922,,W,139,circle,0.0018359709938522428,,,,,,,,,1,0,,2,,,,,,,,,,,867.5157625759894,867.5157625759894,867.5157625759894,867.5157625759894,869.0226532790111,869.0226532790111,869.0226532790111,869.0226532790111,869.0226532790111,869.0226532790111,869.0226532790111,869.0226532790111,switch,letter,lettSwt,f,2.303559129999485,vtsPrac,871.358533828985,,,,,,,,,,,,,,,,,,,,,,,,65448,2022-11-07_13h57.46.134,vts_reward_expectancy_bt_OFFLINE,2022.2.4,59.886055998968445,
,,,,,,,,,,,,,,,,,,,,,,,,,,,,,,,,,,0,0,0,0,29,0,29,0,,,,,,,,,,,,,,,,,,,,,,,,,,,,0,720,,,878.2159815850027,,F,146,triangle,0.001739361003274098,,,,,,,,,1,0,,2,,,,,,,,,,,873.8393847509869,873.8393847509869,873.8393847509869,873.8393847509869,875.3463031360006,875.3463031360006,875.3463031360006,875.3463031360006,875.3463031360006,875.3463031360006,875.3463031360006,875.3463031360006,switch,number,numSwt,j,1.3354836490179878,vtsPrac,876.714552127989,,,,,,,,,,,,,,,,,,,,,,,,65448,2022-11-07_13h57.46.134,vts_reward_expectancy_bt_OFFLINE,2022.2.4,59.886055998968445,
