LTriangleOpac,LCircleOpac,LHexagonOpac,LStarOpac,RTriangleOpac,RCircleOpac,RHexagonOpac,RStarOpac,LShape_ID,RShape_ID,training_blocks.thisRepN,training_blocks.thisTrialN,training_blocks.thisN,training_blocks.thisIndex,training.thisRepN,training.thisTrialN,training.thisN,training.thisIndex,task1_prac_redo.thisRepN,task1_prac_redo.thisTrialN,task1_prac_redo.thisN,task1_prac_redo.thisIndex,task1_prac_trials.thisRepN,task1_prac_trials.thisTrialN,task1_prac_trials.thisN,task1_prac_trials.thisIndex,task2_prac_redo.thisRepN,task2_prac_redo.thisTrialN,task2_prac_redo.thisN,task2_prac_redo.thisIndex,task2_praac_trials.thisRepN,task2_praac_trials.thisTrialN,task2_praac_trials.thisN,task2_praac_trials.thisIndex,vts_prac_redo.thisRepN,vts_prac_redo.thisTrialN,vts_prac_redo.thisN,vts_prac_redo.thisIndex,vts_practice_trials.thisRepN,vts_practice_trials.thisTrialN,vts_practice_trials.thisN,vts_practice_trials.thisIndex,trials_norew.thisRepN,trials_norew.thisTrialN,trials_norew.thisN,trials_norew.thisIndex,block.thisRepN,block.thisTrialN,block.thisN,block.thisIndex,trials_rew.thisRepN,trials_rew.thisTrialN,trials_rew.thisN,trials_rew.thisIndex,key_resp.started,key_resp.keys,key_resp.rt,left_circle.started,right_circle.started,left_triangle.started,right_triangle.started,left_star.started,right_star.started,left_hexagon.started,right_hexagon.started,training_fix.started,training_resp.started,training_resp.keys,training_resp.rt,points_trial,points_cumul,trainBlock,training_feedback_txt.started,training_feedback_txt.stopped,fix.started,fix.stopped,curr_topStim,curr_bottStim,curr_shape,ISI.started,tgt_fix_prac1.started,top_target_prac1.started,bott_target_prac1.started,target_resp_prac1.started,acc,E1,target_resp_prac1.keys,target_resp_prac1.rt,pracBlock,prac_fback_text.started,prac_fback_text.stopped,tgt_fix_prac2.started,top_target_prac2.started,bott_target_prac2.started,target_resp_prac2.started,target_resp_prac2.keys,target_resp_prac2.rt,star.started,hegagon.started,triangle.started,circle.started,top_target.started,tgt_fix.started,bot_target.started,target_resp.started,star.stopped,hegagon.stopped,triangle.stopped,circle.stopped,top_target.stopped,tgt_fix.stopped,bot_target.stopped,target_resp.stopped,alt,task,condition,target_resp.keys,rewCond,vts_fback.started,target_resp.rt,vts_fback.stopped,blockNum,norew_fback.started,norew_fback.stopped,key_resp_2.keys,key_resp_2.rt,rewExpectancy,feedbk_text.started,feedbk_text.stopped,text_3.started,text_3.stopped,button.started,debrief.index,debrief.itemText,debrief.type,debrief.granularity,debrief.font,debrief.markerColor,debrief.response,debrief.rt,button.numClicks,button.timesOn,button.timesOff,participant,date,expName,psychopyVersion,frameRate,
,,,,,,,,,,,,,,,,,,,,,,,,,,,,,,,,,,,,,,,,,,,,,,,,,,,,,,12.528435421991162,space,42.121585261891596,,,,,,,,,,,,,,,,,,,,,,,,,,,,,,,,,,,,,,,,,,,,,,,,,,,,,,,,,,,,,,,,,,,,,,,,,,,,,,,,,,,,,,,66872,2022-11-02_10h11.18.591,vts_reward_expectancy_bt_OFFLINE,2022.2.4,59.92191934480331,
0,0,0,1,1,0,0,0,star,triangle,0,0,0,0,0,0,0,9,,,,,,,,,,,,,,,,,,,,,,,,,,,,,,,,,,,,,,,,99.93292827706318,99.93292827706318,99.93292827706318,99.93292827706318,99.93292827706318,99.93292827706318,99.93292827706318,99.93292827706318,99.93292827706318,99.93292827706318,a,1.4686953539494425,1,1,0,101.42293864104431,102.92243426898494,102.92243426898494,,,,,,,,,,,,,,,,,,,,,,,,,,,,,,,,,,,,,,,,,,,,,,,,,,,,,,,,,,,,,,,,,,,,,66872,2022-11-02_10h11.18.591,vts_reward_expectancy_bt_OFFLINE,2022.2.4,59.92191934480331,
0,0,0,1,0,0,1,0,star,hexagon,0,0,0,0,0,1,1,11,,,,,,,,,,,,,,,,,,,,,,,,,,,,,,,,,,,,,,,,103.42453496297821,103.42453496297821,103.42453496297821,103.42453496297821,103.42453496297821,103.42453496297821,103.42453496297821,103.42453496297821,103.42453496297821,103.42453496297821,l,1.1851242919219658,10,11,0,104.64155899907928,106.14196858496871,106.14196858496871,106.64223381399643,,,,,,,,,,,,,,,,,,,,,,,,,,,,,,,,,,,,,,,,,,,,,,,,,,,,,,,,,,,,,,,,,,,,66872,2022-11-02_10h11.18.591,vts_reward_expectancy_bt_OFFLINE,2022.2.4,59.92191934480331,
0,1,0,0,0,0,0,1,circle,star,0,0,0,0,0,2,2,5,,,,,,,,,,,,,,,,,,,,,,,,,,,,,,,,,,,,,,,,106.64223381399643,106.64223381399643,106.64223381399643,106.64223381399643,106.64223381399643,106.64223381399643,106.64223381399643,106.64223381399643,106.64223381399643,106.64223381399643,a,1.0470205849269405,10,21,0,107.70946697099134,,109.2117061840836,,,,,,,,,,,,,,,,,,,,,,,,,,,,,,,,,,,,,,,,,,,,,,,,,,,,,,,,,,,,,,,,,,,,,66872,2022-11-02_10h11.18.591,vts_reward_expectancy_bt_OFFLINE,2022.2.4,59.92191934480331,
1,0,0,0,0,0,1,0,triangle,hexagon,0,0,0,0,0,3,3,1,,,,,,,,,,,,,,,,,,,,,,,,,,,,,,,,,,,,,,,,109.7120152330026,109.7120152330026,109.7120152330026,109.7120152330026,109.7120152330026,109.7120152330026,109.7120152330026,109.7120152330026,109.7120152330026,109.7120152330026,l,1.1209974519442767,10,31,0,110.86411488207523,,112.37950606597587,,,,,,,,,,,,,,,,,,,,,,,,,,,,,,,,,,,,,,,,,,,,,,,,,,,,,,,,,,,,,,,,,,,,,66872,2022-11-02_10h11.18.591,vts_reward_expectancy_bt_OFFLINE,2022.2.4,59.92191934480331,
0,1,0,0,0,0,1,0,circle,hexagon,0,0,0,0,0,4,4,4,,,,,,,,,,,,,,,,,,,,,,,,,,,,,,,,,,,,,,,,112.87995457206853,112.87995457206853,112.87995457206853,112.87995457206853,112.87995457206853,112.87995457206853,112.87995457206853,112.87995457206853,112.87995457206853,112.87995457206853,l,0.9532837569713593,10,41,0,113.86518727696966,115.36566046404187,115.36566046404187,115.86576779303141,,,,,,,,,,,,,,,,,,,,,,,,,,,,,,,,,,,,,,,,,,,,,,,,,,,,,,,,,,,,,,,,,,,,66872,2022-11-02_10h11.18.591,vts_reward_expectancy_bt_OFFLINE,2022.2.4,59.92191934480331,
1,0,0,0,0,0,0,1,triangle,star,0,0,0,0,0,5,5,2,,,,,,,,,,,,,,,,,,,,,,,,,,,,,,,,,,,,,,,,115.86576779303141,115.86576779303141,115.86576779303141,115.86576779303141,115.86576779303141,115.86576779303141,115.86576779303141,115.86576779303141,115.86576779303141,115.86576779303141,a,1.271337358863093,1,42,0,117.16677526605781,,118.66873049200512,,,,,,,,,,,,,,,,,,,,,,,,,,,,,,,,,,,,,,,,,,,,,,,,,,,,,,,,,,,,,,,,,,,,,66872,2022-11-02_10h11.18.591,vts_reward_expectancy_bt_OFFLINE,2022.2.4,59.92191934480331,
0,0,1,0,1,0,0,0,hexagon,triangle,0,0,0,0,0,6,6,6,,,,,,,,,,,,,,,,,,,,,,,,,,,,,,,,,,,,,,,,119.16915513807908,119.16915513807908,119.16915513807908,119.16915513807908,119.16915513807908,119.16915513807908,119.16915513807908,119.16915513807908,119.16915513807908,119.16915513807908,a,0.9607708408730105,1,43,0,120.15270583308302,121.65342716604937,121.65342716604937,122.15347524196841,,,,,,,,,,,,,,,,,,,,,,,,,,,,,,,,,,,,,,,,,,,,,,,,,,,,,,,,,,,,,,,,,,,,66872,2022-11-02_10h11.18.591,vts_reward_expectancy_bt_OFFLINE,2022.2.4,59.92191934480331,
0,0,0,1,0,1,0,0,star ,circle,0,0,0,0,0,7,7,10,,,,,,,,,,,,,,,,,,,,,,,,,,,,,,,,,,,,,,,,122.15347524196841,122.15347524196841,122.15347524196841,122.15347524196841,122.15347524196841,122.15347524196841,122.15347524196841,122.15347524196841,122.15347524196841,122.15347524196841,a,0.7761854039272293,1,44,0,122.95357773301657,,124.45606929203495,,,,,,,,,,,,,,,,,,,,,,,,,,,,,,,,,,,,,,,,,,,,,,,,,,,,,,,,,,,,,,,,,,,,,66872,2022-11-02_10h11.18.591,vts_reward_expectancy_bt_OFFLINE,2022.2.4,59.92191934480331,
0,0,1,0,0,1,0,0,hexagon,circle,0,0,0,0,0,8,8,7,,,,,,,,,,,,,,,,,,,,,,,,,,,,,,,,,,,,,,,,124.9563981340034,124.9563981340034,124.9563981340034,124.9563981340034,124.9563981340034,124.9563981340034,124.9563981340034,124.9563981340034,124.9563981340034,124.9563981340034,l,0.6848315469687805,10,54,0,125.67302803799976,127.17389072303195,127.17389072303195,,,,,,,,,,,,,,,,,,,,,,,,,,,,,,,,,,,,,,,,,,,,,,,,,,,,,,,,,,,,,,,,,,,,,66872,2022-11-02_10h11.18.591,vts_reward_expectancy_bt_OFFLINE,2022.2.4,59.92191934480331,
1,0,0,0,0,1,0,0,triangle,circle,0,0,0,0,0,9,9,0,,,,,,,,,,,,,,,,,,,,,,,,,,,,,,,,,,,,,,,,127.67396432103124,127.67396432103124,127.67396432103124,127.67396432103124,127.67396432103124,127.67396432103124,127.67396432103124,127.67396432103124,127.67396432103124,127.67396432103124,l,0.6793067529797554,10,64,0,128.37604443507735,129.87655054905917,129.87655054905917,130.37665932497475,,,,,,,,,,,,,,,,,,,,,,,,,,,,,,,,,,,,,,,,,,,,,,,,,,,,,,,,,,,,,,,,,,,,66872,2022-11-02_10h11.18.591,vts_reward_expectancy_bt_OFFLINE,2022.2.4,59.92191934480331,
0,1,0,0,1,0,0,0,circle,triangle,0,0,0,0,0,10,10,3,,,,,,,,,,,,,,,,,,,,,,,,,,,,,,,,,,,,,,,,130.37665932497475,130.37665932497475,130.37665932497475,130.37665932497475,130.37665932497475,130.37665932497475,130.37665932497475,130.37665932497475,130.37665932497475,130.37665932497475,a,0.7285320298979059,1,65,0,131.1270439560758,132.62756929104216,132.62756929104216,,,,,,,,,,,,,,,,,,,,,,,,,,,,,,,,,,,,,,,,,,,,,,,,,,,,,,,,,,,,,,,,,,,,,66872,2022-11-02_10h11.18.591,vts_reward_expectancy_bt_OFFLINE,2022.2.4,59.92191934480331,
0,0,1,0,0,0,0,1,hexagon,star,0,0,0,0,0,11,11,8,,,,,,,,,,,,,,,,,,,,,,,,,,,,,,,,,,,,,,,,133.12793143605813,133.12793143605813,133.12793143605813,133.12793143605813,133.12793143605813,133.12793143605813,133.12793143605813,133.12793143605813,133.12793143605813,133.12793143605813,a,1.0572006528964266,1,66,0,134.21319667098578,135.71389895200264,135.71389895200264,,,,,,,,,,,,,,,,,,,,,,,,,,,,,,,,,,,,,,,,,,,,,,,,,,,,,,,,,,,,,,,,,,,,,66872,2022-11-02_10h11.18.591,vts_reward_expectancy_bt_OFFLINE,2022.2.4,59.92191934480331,
0,1,0,0,1,0,0,0,circle,triangle,0,0,0,0,1,0,12,3,,,,,,,,,,,,,,,,,,,,,,,,,,,,,,,,,,,,,,,,136.21409907308407,136.21409907308407,136.21409907308407,136.21409907308407,136.21409907308407,136.21409907308407,136.21409907308407,136.21409907308407,136.21409907308407,136.21409907308407,a,0.53937368595507,1,67,0,136.78080866497476,,138.28322782099713,,,,,,,,,,,,,,,,,,,,,,,,,,,,,,,,,,,,,,,,,,,,,,,,,,,,,,,,,,,,,,,,,,,,,66872,2022-11-02_10h11.18.591,vts_reward_expectancy_bt_OFFLINE,2022.2.4,59.92191934480331,
1,0,0,0,0,0,0,1,triangle,star,0,0,0,0,1,1,13,2,,,,,,,,,,,,,,,,,,,,,,,,,,,,,,,,,,,,,,,,138.78339374798816,138.78339374798816,138.78339374798816,138.78339374798816,138.78339374798816,138.78339374798816,138.78339374798816,138.78339374798816,138.78339374798816,138.78339374798816,l,0.722039412939921,10,77,0,139.53414312703535,141.0343024240574,141.0343024240574,141.53428775200155,,,,,,,,,,,,,,,,,,,,,,,,,,,,,,,,,,,,,,,,,,,,,,,,,,,,,,,,,,,,,,,,,,,,66872,2022-11-02_10h11.18.591,vts_reward_expectancy_bt_OFFLINE,2022.2.4,59.92191934480331,
0,0,1,0,0,1,0,0,hexagon,circle,0,0,0,0,1,2,14,7,,,,,,,,,,,,,,,,,,,,,,,,,,,,,,,,,,,,,,,,141.53428775200155,141.53428775200155,141.53428775200155,141.53428775200155,141.53428775200155,141.53428775200155,141.53428775200155,141.53428775200155,141.53428775200155,141.53428775200155,a,0.8747239749645814,1,78,0,142.43492126197089,,143.93708558008075,,,,,,,,,,,,,,,,,,,,,,,,,,,,,,,,,,,,,,,,,,,,,,,,,,,,,,,,,,,,,,,,,,,,,66872,2022-11-02_10h11.18.591,vts_reward_expectancy_bt_OFFLINE,2022.2.4,59.92191934480331,
0,0,1,0,1,0,0,0,hexagon,triangle,0,0,0,0,1,3,15,6,,,,,,,,,,,,,,,,,,,,,,,,,,,,,,,,,,,,,,,,144.43733047903515,144.43733047903515,144.43733047903515,144.43733047903515,144.43733047903515,144.43733047903515,144.43733047903515,144.43733047903515,144.43733047903515,144.43733047903515,a,0.8835918138502166,1,79,0,145.33749636099674,146.83809229603503,146.83809229603503,147.3384479599772,,,,,,,,,,,,,,,,,,,,,,,,,,,,,,,,,,,,,,,,,,,,,,,,,,,,,,,,,,,,,,,,,,,,66872,2022-11-02_10h11.18.591,vts_reward_expectancy_bt_OFFLINE,2022.2.4,59.92191934480331,
0,0,0,1,1,0,0,0,star,triangle,0,0,0,0,1,4,16,9,,,,,,,,,,,,,,,,,,,,,,,,,,,,,,,,,,,,,,,,147.3384479599772,147.3384479599772,147.3384479599772,147.3384479599772,147.3384479599772,147.3384479599772,147.3384479599772,147.3384479599772,147.3384479599772,147.3384479599772,l,1.3661930169910192,10,89,0,148.72425206401385,150.2245656560408,150.2245656560408,,,,,,,,,,,,,,,,,,,,,,,,,,,,,,,,,,,,,,,,,,,,,,,,,,,,,,,,,,,,,,,,,,,,,66872,2022-11-02_10h11.18.591,vts_reward_expectancy_bt_OFFLINE,2022.2.4,59.92191934480331,
0,0,0,1,0,1,0,0,star ,circle,0,0,0,0,1,5,17,10,,,,,,,,,,,,,,,,,,,,,,,,,,,,,,,,,,,,,,,,150.72470262798015,150.72470262798015,150.72470262798015,150.72470262798015,150.72470262798015,150.72470262798015,150.72470262798015,150.72470262798015,150.72470262798015,150.72470262798015,l,0.7083330259192735,1,90,0,151.45882391906343,152.95892823801842,152.95892823801842,,,,,,,,,,,,,,,,,,,,,,,,,,,,,,,,,,,,,,,,,,,,,,,,,,,,,,,,,,,,,,,,,,,,,66872,2022-11-02_10h11.18.591,vts_reward_expectancy_bt_OFFLINE,2022.2.4,59.92191934480331,
0,0,1,0,0,0,0,1,hexagon,star,0,0,0,0,1,6,18,8,,,,,,,,,,,,,,,,,,,,,,,,,,,,,,,,,,,,,,,,153.46069386706222,153.46069386706222,153.46069386706222,153.46069386706222,153.46069386706222,153.46069386706222,153.46069386706222,153.46069386706222,153.46069386706222,153.46069386706222,a,0.6607340308837593,1,91,0,154.14446828200016,155.64506843301933,155.64506843301933,156.145080522052,,,,,,,,,,,,,,,,,,,,,,,,,,,,,,,,,,,,,,,,,,,,,,,,,,,,,,,,,,,,,,,,,,,,66872,2022-11-02_10h11.18.591,vts_reward_expectancy_bt_OFFLINE,2022.2.4,59.92191934480331,
1,0,0,0,0,0,1,0,triangle,hexagon,0,0,0,0,1,7,19,1,,,,,,,,,,,,,,,,,,,,,,,,,,,,,,,,,,,,,,,,156.145080522052,156.145080522052,156.145080522052,156.145080522052,156.145080522052,156.145080522052,156.145080522052,156.145080522052,156.145080522052,156.145080522052,l,1.2239893769146875,1,92,0,157.39556744298898,,158.89797430101316,,,,,,,,,,,,,,,,,,,,,,,,,,,,,,,,,,,,,,,,,,,,,,,,,,,,,,,,,,,,,,,,,,,,,66872,2022-11-02_10h11.18.591,vts_reward_expectancy_bt_OFFLINE,2022.2.4,59.92191934480331,
1,0,0,0,0,1,0,0,triangle,circle,0,0,0,0,1,8,20,0,,,,,,,,,,,,,,,,,,,,,,,,,,,,,,,,,,,,,,,,159.39842381805647,159.39842381805647,159.39842381805647,159.39842381805647,159.39842381805647,159.39842381805647,159.39842381805647,159.39842381805647,159.39842381805647,159.39842381805647,a,0.5861046819481999,1,93,0,160.0149773270823,161.51565356506035,161.51565356506035,162.0158944920404,,,,,,,,,,,,,,,,,,,,,,,,,,,,,,,,,,,,,,,,,,,,,,,,,,,,,,,,,,,,,,,,,,,,66872,2022-11-02_10h11.18.591,vts_reward_expectancy_bt_OFFLINE,2022.2.4,59.92191934480331,
0,1,0,0,0,0,0,1,circle,star,0,0,0,0,1,9,21,5,,,,,,,,,,,,,,,,,,,,,,,,,,,,,,,,,,,,,,,,162.0158944920404,162.0158944920404,162.0158944920404,162.0158944920404,162.0158944920404,162.0158944920404,162.0158944920404,162.0158944920404,162.0158944920404,162.0158944920404,a,0.3847531509818509,10,103,0,162.43251367507037,,163.9350918220589,,,,,,,,,,,,,,,,,,,,,,,,,,,,,,,,,,,,,,,,,,,,,,,,,,,,,,,,,,,,,,,,,,,,,66872,2022-11-02_10h11.18.591,vts_reward_expectancy_bt_OFFLINE,2022.2.4,59.92191934480331,
0,0,0,1,0,0,1,0,star,hexagon,0,0,0,0,1,10,22,11,,,,,,,,,,,,,,,,,,,,,,,,,,,,,,,,,,,,,,,,164.4351860000752,164.4351860000752,164.4351860000752,164.4351860000752,164.4351860000752,164.4351860000752,164.4351860000752,164.4351860000752,164.4351860000752,164.4351860000752,l,0.926063809893094,1,104,0,165.38618022203445,166.886073649046,166.886073649046,167.3864152589813,,,,,,,,,,,,,,,,,,,,,,,,,,,,,,,,,,,,,,,,,,,,,,,,,,,,,,,,,,,,,,,,,,,,66872,2022-11-02_10h11.18.591,vts_reward_expectancy_bt_OFFLINE,2022.2.4,59.92191934480331,
0,1,0,0,0,0,1,0,circle,hexagon,0,0,0,0,1,11,23,4,,,,,,,,,,,,,,,,,,,,,,,,,,,,,,,,,,,,,,,,167.3864152589813,167.3864152589813,167.3864152589813,167.3864152589813,167.3864152589813,167.3864152589813,167.3864152589813,167.3864152589813,167.3864152589813,167.3864152589813,a,0.4861418588552624,1,105,0,167.90301001502667,,169.40569780906662,,,,,,,,,,,,,,,,,,,,,,,,,,,,,,,,,,,,,,,,,,,,,,,,,,,,,,,,,,,,,,,,,,,,,66872,2022-11-02_10h11.18.591,vts_reward_expectancy_bt_OFFLINE,2022.2.4,59.92191934480331,
0,0,0,1,0,0,1,0,star,hexagon,0,0,0,0,2,0,24,11,,,,,,,,,,,,,,,,,,,,,,,,,,,,,,,,,,,,,,,,169.9059060610598,169.9059060610598,169.9059060610598,169.9059060610598,169.9059060610598,169.9059060610598,169.9059060610598,169.9059060610598,169.9059060610598,169.9059060610598,a,0.687166980933398,10,115,0,170.62297007197049,172.12328841199633,172.12328841199633,,,,,,,,,,,,,,,,,,,,,,,,,,,,,,,,,,,,,,,,,,,,,,,,,,,,,,,,,,,,,,,,,,,,,66872,2022-11-02_10h11.18.591,vts_reward_expectancy_bt_OFFLINE,2022.2.4,59.92191934480331,
0,0,1,0,0,0,0,1,hexagon,star,0,0,0,0,2,1,25,8,,,,,,,,,,,,,,,,,,,,,,,,,,,,,,,,,,,,,,,,172.62350769003388,172.62350769003388,172.62350769003388,172.62350769003388,172.62350769003388,172.62350769003388,172.62350769003388,172.62350769003388,172.62350769003388,172.62350769003388,a,1.298112729913555,1,116,0,173.94240632199217,,175.44296594697516,,,,,,,,,,,,,,,,,,,,,,,,,,,,,,,,,,,,,,,,,,,,,,,,,,,,,,,,,,,,,,,,,,,,,66872,2022-11-02_10h11.18.591,vts_reward_expectancy_bt_OFFLINE,2022.2.4,59.92191934480331,
1,0,0,0,0,0,1,0,triangle,hexagon,0,0,0,0,2,2,26,1,,,,,,,,,,,,,,,,,,,,,,,,,,,,,,,,,,,,,,,,175.9429086559685,175.9429086559685,175.9429086559685,175.9429086559685,175.9429086559685,175.9429086559685,175.9429086559685,175.9429086559685,175.9429086559685,175.9429086559685,a,1.1298778319032863,1,117,0,177.09348366502672,,178.5956506190123,,,,,,,,,,,,,,,,,,,,,,,,,,,,,,,,,,,,,,,,,,,,,,,,,,,,,,,,,,,,,,,,,,,,,66872,2022-11-02_10h11.18.591,vts_reward_expectancy_bt_OFFLINE,2022.2.4,59.92191934480331,
0,1,0,0,1,0,0,0,circle,triangle,0,0,0,0,2,3,27,3,,,,,,,,,,,,,,,,,,,,,,,,,,,,,,,,,,,,,,,,179.09595111198723,179.09595111198723,179.09595111198723,179.09595111198723,179.09595111198723,179.09595111198723,179.09595111198723,179.09595111198723,179.09595111198723,179.09595111198723,a,0.6976722448598593,1,118,0,179.81289670302067,181.31335263408255,181.31335263408255,181.81356738100294,,,,,,,,,,,,,,,,,,,,,,,,,,,,,,,,,,,,,,,,,,,,,,,,,,,,,,,,,,,,,,,,,,,,66872,2022-11-02_10h11.18.591,vts_reward_expectancy_bt_OFFLINE,2022.2.4,59.92191934480331,
0,0,1,0,1,0,0,0,hexagon,triangle,0,0,0,0,2,4,28,6,,,,,,,,,,,,,,,,,,,,,,,,,,,,,,,,,,,,,,,,181.81356738100294,181.81356738100294,181.81356738100294,181.81356738100294,181.81356738100294,181.81356738100294,181.81356738100294,181.81356738100294,181.81356738100294,181.81356738100294,a,0.9956244189525023,10,128,0,182.83414847403765,,184.33294444403145,,,,,,,,,,,,,,,,,,,,,,,,,,,,,,,,,,,,,,,,,,,,,,,,,,,,,,,,,,,,,,,,,,,,,66872,2022-11-02_10h11.18.591,vts_reward_expectancy_bt_OFFLINE,2022.2.4,59.92191934480331,
0,1,0,0,0,0,1,0,circle,hexagon,0,0,0,0,2,5,29,4,,,,,,,,,,,,,,,,,,,,,,,,,,,,,,,,,,,,,,,,184.83293176000006,184.83293176000006,184.83293176000006,184.83293176000006,184.83293176000006,184.83293176000006,184.83293176000006,184.83293176000006,184.83293176000006,184.83293176000006,l,1.0237316889688373,1,129,0,185.88403204001952,187.3841828510631,187.3841828510631,187.88440529198851,,,,,,,,,,,,,,,,,,,,,,,,,,,,,,,,,,,,,,,,,,,,,,,,,,,,,,,,,,,,,,,,,,,,66872,2022-11-02_10h11.18.591,vts_reward_expectancy_bt_OFFLINE,2022.2.4,59.92191934480331,
0,0,0,1,1,0,0,0,star,triangle,0,0,0,0,2,6,30,9,,,,,,,,,,,,,,,,,,,,,,,,,,,,,,,,,,,,,,,,187.88440529198851,187.88440529198851,187.88440529198851,187.88440529198851,187.88440529198851,187.88440529198851,187.88440529198851,187.88440529198851,187.88440529198851,187.88440529198851,l,1.0366879049688578,10,139,0,188.9532228789758,,190.4538792950334,190.95394769799896,,,,,,,,,,,,,,,,,,,,,,,,,,,,,,,,,,,,,,,,,,,,,,,,,,,,,,,,,,,,,,,,,,,,66872,2022-11-02_10h11.18.591,vts_reward_expectancy_bt_OFFLINE,2022.2.4,59.92191934480331,
0,1,0,0,0,0,0,1,circle,star,0,0,0,0,2,7,31,5,,,,,,,,,,,,,,,,,,,,,,,,,,,,,,,,,,,,,,,,190.95394769799896,190.95394769799896,190.95394769799896,190.95394769799896,190.95394769799896,190.95394769799896,190.95394769799896,190.95394769799896,190.95394769799896,190.95394769799896,a,0.7515029249479994,1,140,0,191.73755890701432,193.23806280398276,193.23806280398276,,,,,,,,,,,,,,,,,,,,,,,,,,,,,,,,,,,,,,,,,,,,,,,,,,,,,,,,,,,,,,,,,,,,,66872,2022-11-02_10h11.18.591,vts_reward_expectancy_bt_OFFLINE,2022.2.4,59.92191934480331,
0,0,1,0,0,1,0,0,hexagon,circle,0,0,0,0,2,8,32,7,,,,,,,,,,,,,,,,,,,,,,,,,,,,,,,,,,,,,,,,193.74006046901923,193.74006046901923,193.74006046901923,193.74006046901923,193.74006046901923,193.74006046901923,193.74006046901923,193.74006046901923,193.74006046901923,193.74006046901923,a,0.5489401068771258,10,150,0,194.3075521880528,195.80763134604786,195.80763134604786,196.30760493001435,,,,,,,,,,,,,,,,,,,,,,,,,,,,,,,,,,,,,,,,,,,,,,,,,,,,,,,,,,,,,,,,,,,,66872,2022-11-02_10h11.18.591,vts_reward_expectancy_bt_OFFLINE,2022.2.4,59.92191934480331,
0,0,0,1,0,1,0,0,star ,circle,0,0,0,0,2,9,33,10,,,,,,,,,,,,,,,,,,,,,,,,,,,,,,,,,,,,,,,,196.30760493001435,196.30760493001435,196.30760493001435,196.30760493001435,196.30760493001435,196.30760493001435,196.30760493001435,196.30760493001435,196.30760493001435,196.30760493001435,l,0.5335903299273923,1,151,0,196.85871631407645,,198.36016538296826,,,,,,,,,,,,,,,,,,,,,,,,,,,,,,,,,,,,,,,,,,,,,,,,,,,,,,,,,,,,,,,,,,,,,66872,2022-11-02_10h11.18.591,vts_reward_expectancy_bt_OFFLINE,2022.2.4,59.92191934480331,
1,0,0,0,0,1,0,0,triangle,circle,0,0,0,0,2,10,34,0,,,,,,,,,,,,,,,,,,,,,,,,,,,,,,,,,,,,,,,,198.8603685409762,198.8603685409762,198.8603685409762,198.8603685409762,198.8603685409762,198.8603685409762,198.8603685409762,198.8603685409762,198.8603685409762,198.8603685409762,a,0.509678253903985,1,152,0,199.39395719999447,200.89457145601045,200.89457145601045,201.3947033570148,,,,,,,,,,,,,,,,,,,,,,,,,,,,,,,,,,,,,,,,,,,,,,,,,,,,,,,,,,,,,,,,,,,,66872,2022-11-02_10h11.18.591,vts_reward_expectancy_bt_OFFLINE,2022.2.4,59.92191934480331,
1,0,0,0,0,0,0,1,triangle,star,0,0,0,0,2,11,35,2,,,,,,,,,,,,,,,,,,,,,,,,,,,,,,,,,,,,,,,,201.3947033570148,201.3947033570148,201.3947033570148,201.3947033570148,201.3947033570148,201.3947033570148,201.3947033570148,201.3947033570148,201.3947033570148,201.3947033570148,a,1.534036065917462,1,153,0,202.9449538970366,,204.4476758009987,,,,,,,,,,,,,,,,,,,,,,,,,,,,,,,,,,,,,,,,,,,,,,,,,,,,,,,,,,,,,,,,,,,,,66872,2022-11-02_10h11.18.591,vts_reward_expectancy_bt_OFFLINE,2022.2.4,59.92191934480331,
0,0,0,1,1,0,0,0,star,triangle,0,0,0,0,3,0,36,9,,,,,,,,,,,,,,,,,,,,,,,,,,,,,,,,,,,,,,,,204.9478458770318,204.9478458770318,204.9478458770318,204.9478458770318,204.9478458770318,204.9478458770318,204.9478458770318,204.9478458770318,204.9478458770318,204.9478458770318,a,0.7655385448597372,10,163,0,205.7330164309824,,207.24858759099152,,,,,,,,,,,,,,,,,,,,,,,,,,,,,,,,,,,,,,,,,,,,,,,,,,,,,,,,,,,,,,,,,,,,,66872,2022-11-02_10h11.18.591,vts_reward_expectancy_bt_OFFLINE,2022.2.4,59.92191934480331,
0,0,1,0,1,0,0,0,hexagon,triangle,0,0,0,0,3,1,37,6,,,,,,,,,,,,,,,,,,,,,,,,,,,,,,,,,,,,,,,,207.74887298000976,207.74887298000976,207.74887298000976,207.74887298000976,207.74887298000976,207.74887298000976,207.74887298000976,207.74887298000976,207.74887298000976,207.74887298000976,l,0.9802287089405581,10,173,0,208.7510496280156,210.25159306707792,210.25159306707792,,,,,,,,,,,,,,,,,,,,,,,,,,,,,,,,,,,,,,,,,,,,,,,,,,,,,,,,,,,,,,,,,,,,,66872,2022-11-02_10h11.18.591,vts_reward_expectancy_bt_OFFLINE,2022.2.4,59.92191934480331,
0,0,0,1,0,1,0,0,star ,circle,0,0,0,0,3,2,38,10,,,,,,,,,,,,,,,,,,,,,,,,,,,,,,,,,,,,,,,,210.7516309170751,210.7516309170751,210.7516309170751,210.7516309170751,210.7516309170751,210.7516309170751,210.7516309170751,210.7516309170751,210.7516309170751,210.7516309170751,a,1.289008844876662,10,183,0,212.0688431650633,,213.57138049206696,,,,,,,,,,,,,,,,,,,,,,,,,,,,,,,,,,,,,,,,,,,,,,,,,,,,,,,,,,,,,,,,,,,,,66872,2022-11-02_10h11.18.591,vts_reward_expectancy_bt_OFFLINE,2022.2.4,59.92191934480331,
0,0,1,0,0,0,0,1,hexagon,star,0,0,0,0,3,3,39,8,,,,,,,,,,,,,,,,,,,,,,,,,,,,,,,,,,,,,,,,214.07149163505528,214.07149163505528,214.07149163505528,214.07149163505528,214.07149163505528,214.07149163505528,214.07149163505528,214.07149163505528,214.07149163505528,214.07149163505528,a,1.0178926959633827,10,193,0,215.12191052304115,216.62256617902312,216.62256617902312,,,,,,,,,,,,,,,,,,,,,,,,,,,,,,,,,,,,,,,,,,,,,,,,,,,,,,,,,,,,,,,,,,,,,66872,2022-11-02_10h11.18.591,vts_reward_expectancy_bt_OFFLINE,2022.2.4,59.92191934480331,
1,0,0,0,0,0,0,1,triangle,star,0,0,0,0,3,4,40,2,,,,,,,,,,,,,,,,,,,,,,,,,,,,,,,,,,,,,,,,217.12259926705156,217.12259926705156,217.12259926705156,217.12259926705156,217.12259926705156,217.12259926705156,217.12259926705156,217.12259926705156,217.12259926705156,217.12259926705156,l,0.6620026269229129,10,203,0,217.8059107720619,,219.3085927410284,,,,,,,,,,,,,,,,,,,,,,,,,,,,,,,,,,,,,,,,,,,,,,,,,,,,,,,,,,,,,,,,,,,,,66872,2022-11-02_10h11.18.591,vts_reward_expectancy_bt_OFFLINE,2022.2.4,59.92191934480331,
0,1,0,0,0,0,0,1,circle,star,0,0,0,0,3,5,41,5,,,,,,,,,,,,,,,,,,,,,,,,,,,,,,,,,,,,,,,,219.8087915959768,219.8087915959768,219.8087915959768,219.8087915959768,219.8087915959768,219.8087915959768,219.8087915959768,219.8087915959768,219.8087915959768,219.8087915959768,a,0.6328374799340963,1,204,0,220.4595096160192,221.9595045830356,221.9595045830356,,,,,,,,,,,,,,,,,,,,,,,,,,,,,,,,,,,,,,,,,,,,,,,,,,,,,,,,,,,,,,,,,,,,,66872,2022-11-02_10h11.18.591,vts_reward_expectancy_bt_OFFLINE,2022.2.4,59.92191934480331,
0,0,0,1,0,0,1,0,star,hexagon,0,0,0,0,3,6,42,11,,,,,,,,,,,,,,,,,,,,,,,,,,,,,,,,,,,,,,,,222.4594048600411,222.4594048600411,222.4594048600411,222.4594048600411,222.4594048600411,222.4594048600411,222.4594048600411,222.4594048600411,222.4594048600411,222.4594048600411,a,0.6777992208953947,10,214,0,223.16092292999383,,224.6623742140364,,,,,,,,,,,,,,,,,,,,,,,,,,,,,,,,,,,,,,,,,,,,,,,,,,,,,,,,,,,,,,,,,,,,,66872,2022-11-02_10h11.18.591,vts_reward_expectancy_bt_OFFLINE,2022.2.4,59.92191934480331,
1,0,0,0,0,0,1,0,triangle,hexagon,0,0,0,0,3,7,43,1,,,,,,,,,,,,,,,,,,,,,,,,,,,,,,,,,,,,,,,,225.16238617000636,225.16238617000636,225.16238617000636,225.16238617000636,225.16238617000636,225.16238617000636,225.16238617000636,225.16238617000636,225.16238617000636,225.16238617000636,l,0.6956768069649115,1,215,0,225.88029171701055,227.3800078930799,227.3800078930799,227.88019187701866,,,,,,,,,,,,,,,,,,,,,,,,,,,,,,,,,,,,,,,,,,,,,,,,,,,,,,,,,,,,,,,,,,,,66872,2022-11-02_10h11.18.591,vts_reward_expectancy_bt_OFFLINE,2022.2.4,59.92191934480331,
0,1,0,0,0,0,1,0,circle,hexagon,0,0,0,0,3,8,44,4,,,,,,,,,,,,,,,,,,,,,,,,,,,,,,,,,,,,,,,,227.88019187701866,227.88019187701866,227.88019187701866,227.88019187701866,227.88019187701866,227.88019187701866,227.88019187701866,227.88019187701866,227.88019187701866,227.88019187701866,a,1.32941600587219,10,225,0,229.23319964506663,230.7331596110016,230.7331596110016,231.23307596705854,,,,,,,,,,,,,,,,,,,,,,,,,,,,,,,,,,,,,,,,,,,,,,,,,,,,,,,,,,,,,,,,,,,,66872,2022-11-02_10h11.18.591,vts_reward_expectancy_bt_OFFLINE,2022.2.4,59.92191934480331,
0,1,0,0,1,0,0,0,circle,triangle,0,0,0,0,3,9,45,3,,,,,,,,,,,,,,,,,,,,,,,,,,,,,,,,,,,,,,,,231.23307596705854,231.23307596705854,231.23307596705854,231.23307596705854,231.23307596705854,231.23307596705854,231.23307596705854,231.23307596705854,231.23307596705854,231.23307596705854,l,1.1684058369137347,10,235,0,232.43364721303806,,233.93590812804177,,,,,,,,,,,,,,,,,,,,,,,,,,,,,,,,,,,,,,,,,,,,,,,,,,,,,,,,,,,,,,,,,,,,,66872,2022-11-02_10h11.18.591,vts_reward_expectancy_bt_OFFLINE,2022.2.4,59.92191934480331,
0,0,1,0,0,1,0,0,hexagon,circle,0,0,0,0,3,10,46,7,,,,,,,,,,,,,,,,,,,,,,,,,,,,,,,,,,,,,,,,234.43623283097986,234.43623283097986,234.43623283097986,234.43623283097986,234.43623283097986,234.43623283097986,234.43623283097986,234.43623283097986,234.43623283097986,234.43623283097986,l,0.7489021349465474,1,236,0,235.20380844303872,,236.70379466703162,,,,,,,,,,,,,,,,,,,,,,,,,,,,,,,,,,,,,,,,,,,,,,,,,,,,,,,,,,,,,,,,,,,,,66872,2022-11-02_10h11.18.591,vts_reward_expectancy_bt_OFFLINE,2022.2.4,59.92191934480331,
1,0,0,0,0,1,0,0,triangle,circle,0,0,0,0,3,11,47,0,,,,,,,,,,,,,,,,,,,,,,,,,,,,,,,,,,,,,,,,237.20387145597488,237.20387145597488,237.20387145597488,237.20387145597488,237.20387145597488,237.20387145597488,237.20387145597488,237.20387145597488,237.20387145597488,237.20387145597488,l,1.772767012938857,10,246,0,239.0069204570027,240.50677187601104,240.50677187601104,241.0135477030417,,,,,,,,,,,,,,,,,,,,,,,,,,,,,,,,,,,,,,,,,,,,,,,,,,,,,,,,,,,,,,,,,,,,66872,2022-11-02_10h11.18.591,vts_reward_expectancy_bt_OFFLINE,2022.2.4,59.92191934480331,
1,0,0,0,0,0,1,0,triangle,hexagon,1,0,1,0,0,0,0,1,,,,,,,,,,,,,,,,,,,,,,,,,,,,,,,,,,,,,,,,249.40741747198626,249.40741747198626,249.40741747198626,249.40741747198626,249.40741747198626,249.40741747198626,249.40741747198626,249.40741747198626,249.40741747198626,249.40741747198626,a,1.3131165239028633,1,247,1,250.7484119880246,252.24805177899543,252.24805177899543,252.74829331203364,,,,,,,,,,,,,,,,,,,,,,,,,,,,,,,,,,,,,,,,,,,,,,,,,,,,,,,,,,,,,,,,,,,,66872,2022-11-02_10h11.18.591,vts_reward_expectancy_bt_OFFLINE,2022.2.4,59.92191934480331,
0,0,1,0,0,0,0,1,hexagon,star,1,0,1,0,0,1,1,8,,,,,,,,,,,,,,,,,,,,,,,,,,,,,,,,,,,,,,,,252.74829331203364,252.74829331203364,252.74829331203364,252.74829331203364,252.74829331203364,252.74829331203364,252.74829331203364,252.74829331203364,252.74829331203364,252.74829331203364,a,0.4925676299026236,1,248,1,253.26469257706776,,254.7675861370517,,,,,,,,,,,,,,,,,,,,,,,,,,,,,,,,,,,,,,,,,,,,,,,,,,,,,,,,,,,,,,,,,,,,,66872,2022-11-02_10h11.18.591,vts_reward_expectancy_bt_OFFLINE,2022.2.4,59.92191934480331,
0,0,1,0,1,0,0,0,hexagon,triangle,1,0,1,0,0,2,2,6,,,,,,,,,,,,,,,,,,,,,,,,,,,,,,,,,,,,,,,,255.26762433198746,255.26762433198746,255.26762433198746,255.26762433198746,255.26762433198746,255.26762433198746,255.26762433198746,255.26762433198746,255.26762433198746,255.26762433198746,a,1.0210376399336383,10,258,1,256.31880686304066,257.8185519670369,257.8185519670369,258.3166115389904,,,,,,,,,,,,,,,,,,,,,,,,,,,,,,,,,,,,,,,,,,,,,,,,,,,,,,,,,,,,,,,,,,,,66872,2022-11-02_10h11.18.591,vts_reward_expectancy_bt_OFFLINE,2022.2.4,59.92191934480331,
0,1,0,0,0,0,1,0,circle,hexagon,1,0,1,0,0,3,3,4,,,,,,,,,,,,,,,,,,,,,,,,,,,,,,,,,,,,,,,,258.3166115389904,258.3166115389904,258.3166115389904,258.3166115389904,258.3166115389904,258.3166115389904,258.3166115389904,258.3166115389904,258.3166115389904,258.3166115389904,a,0.548786811879836,1,259,1,258.88794283906464,260.38792976597324,260.38792976597324,260.88835471705534,,,,,,,,,,,,,,,,,,,,,,,,,,,,,,,,,,,,,,,,,,,,,,,,,,,,,,,,,,,,,,,,,,,,66872,2022-11-02_10h11.18.591,vts_reward_expectancy_bt_OFFLINE,2022.2.4,59.92191934480331,
0,1,0,0,1,0,0,0,circle,triangle,1,0,1,0,0,4,4,3,,,,,,,,,,,,,,,,,,,,,,,,,,,,,,,,,,,,,,,,260.88835471705534,260.88835471705534,260.88835471705534,260.88835471705534,260.88835471705534,260.88835471705534,260.88835471705534,260.88835471705534,260.88835471705534,260.88835471705534,l,1.1129210179205984,1,260,1,262.02182332403027,,263.524321628036,,,,,,,,,,,,,,,,,,,,,,,,,,,,,,,,,,,,,,,,,,,,,,,,,,,,,,,,,,,,,,,,,,,,,66872,2022-11-02_10h11.18.591,vts_reward_expectancy_bt_OFFLINE,2022.2.4,59.92191934480331,
0,0,0,1,0,1,0,0,star ,circle,1,0,1,0,0,5,5,10,,,,,,,,,,,,,,,,,,,,,,,,,,,,,,,,,,,,,,,,264.0243972960161,264.0243972960161,264.0243972960161,264.0243972960161,264.0243972960161,264.0243972960161,264.0243972960161,264.0243972960161,264.0243972960161,264.0243972960161,l,0.408265398000367,1,261,1,264.4600971430773,,265.975060745026,,,,,,,,,,,,,,,,,,,,,,,,,,,,,,,,,,,,,,,,,,,,,,,,,,,,,,,,,,,,,,,,,,,,,66872,2022-11-02_10h11.18.591,vts_reward_expectancy_bt_OFFLINE,2022.2.4,59.92191934480331,
1,0,0,0,0,1,0,0,triangle,circle,1,0,1,0,0,6,6,0,,,,,,,,,,,,,,,,,,,,,,,,,,,,,,,,,,,,,,,,266.4753857960459,266.4753857960459,266.4753857960459,266.4753857960459,266.4753857960459,266.4753857960459,266.4753857960459,266.4753857960459,266.4753857960459,266.4753857960459,a,0.47731653589289635,10,271,1,266.97625988698564,,268.4778596489923,,,,,,,,,,,,,,,,,,,,,,,,,,,,,,,,,,,,,,,,,,,,,,,,,,,,,,,,,,,,,,,,,,,,,66872,2022-11-02_10h11.18.591,vts_reward_expectancy_bt_OFFLINE,2022.2.4,59.92191934480331,
1,0,0,0,0,0,0,1,triangle,star,1,0,1,0,0,7,7,2,,,,,,,,,,,,,,,,,,,,,,,,,,,,,,,,,,,,,,,,268.97813936905004,268.97813936905004,268.97813936905004,268.97813936905004,268.97813936905004,268.97813936905004,268.97813936905004,268.97813936905004,268.97813936905004,268.97813936905004,a,0.31911247700918466,10,281,1,269.32822040107567,270.8288020930486,270.8288020930486,271.3289063270204,,,,,,,,,,,,,,,,,,,,,,,,,,,,,,,,,,,,,,,,,,,,,,,,,,,,,,,,,,,,,,,,,,,,66872,2022-11-02_10h11.18.591,vts_reward_expectancy_bt_OFFLINE,2022.2.4,59.92191934480331,
0,0,0,1,0,0,1,0,star,hexagon,1,0,1,0,0,8,8,11,,,,,,,,,,,,,,,,,,,,,,,,,,,,,,,,,,,,,,,,271.3289063270204,271.3289063270204,271.3289063270204,271.3289063270204,271.3289063270204,271.3289063270204,271.3289063270204,271.3289063270204,271.3289063270204,271.3289063270204,a,0.3606743218842894,1,282,1,271.7132858360419,273.2129600070184,273.2129600070184,,,,,,,,,,,,,,,,,,,,,,,,,,,,,,,,,,,,,,,,,,,,,,,,,,,,,,,,,,,,,,,,,,,,,66872,2022-11-02_10h11.18.591,vts_reward_expectancy_bt_OFFLINE,2022.2.4,59.92191934480331,
0,0,1,0,0,1,0,0,hexagon,circle,1,0,1,0,0,9,9,7,,,,,,,,,,,,,,,,,,,,,,,,,,,,,,,,,,,,,,,,273.71489019005094,273.71489019005094,273.71489019005094,273.71489019005094,273.71489019005094,273.71489019005094,273.71489019005094,273.71489019005094,273.71489019005094,273.71489019005094,l,0.670415200991556,1,283,1,274.417332379031,,275.932405465981,,,,,,,,,,,,,,,,,,,,,,,,,,,,,,,,,,,,,,,,,,,,,,,,,,,,,,,,,,,,,,,,,,,,,66872,2022-11-02_10h11.18.591,vts_reward_expectancy_bt_OFFLINE,2022.2.4,59.92191934480331,
0,1,0,0,0,0,0,1,circle,star,1,0,1,0,0,10,10,5,,,,,,,,,,,,,,,,,,,,,,,,,,,,,,,,,,,,,,,,276.4323564299848,276.4323564299848,276.4323564299848,276.4323564299848,276.4323564299848,276.4323564299848,276.4323564299848,276.4323564299848,276.4323564299848,276.4323564299848,l,0.6329110169317573,10,293,1,277.0837033110438,,278.5852401420707,,,,,,,,,,,,,,,,,,,,,,,,,,,,,,,,,,,,,,,,,,,,,,,,,,,,,,,,,,,,,,,,,,,,,66872,2022-11-02_10h11.18.591,vts_reward_expectancy_bt_OFFLINE,2022.2.4,59.92191934480331,
0,0,0,1,1,0,0,0,star,triangle,1,0,1,0,0,11,11,9,,,,,,,,,,,,,,,,,,,,,,,,,,,,,,,,,,,,,,,,279.08553150098305,279.08553150098305,279.08553150098305,279.08553150098305,279.08553150098305,279.08553150098305,279.08553150098305,279.08553150098305,279.08553150098305,279.08553150098305,l,0.731439777999185,10,303,1,279.835623134044,281.3360589820659,281.3360589820659,281.83622668497264,,,,,,,,,,,,,,,,,,,,,,,,,,,,,,,,,,,,,,,,,,,,,,,,,,,,,,,,,,,,,,,,,,,,66872,2022-11-02_10h11.18.591,vts_reward_expectancy_bt_OFFLINE,2022.2.4,59.92191934480331,
0,0,1,0,0,1,0,0,hexagon,circle,1,0,1,0,1,0,12,7,,,,,,,,,,,,,,,,,,,,,,,,,,,,,,,,,,,,,,,,281.83622668497264,281.83622668497264,281.83622668497264,281.83622668497264,281.83622668497264,281.83622668497264,281.83622668497264,281.83622668497264,281.83622668497264,281.83622668497264,a,1.3653159448876977,1,304,1,283.22126201400533,,284.7226961289998,,,,,,,,,,,,,,,,,,,,,,,,,,,,,,,,,,,,,,,,,,,,,,,,,,,,,,,,,,,,,,,,,,,,,66872,2022-11-02_10h11.18.591,vts_reward_expectancy_bt_OFFLINE,2022.2.4,59.92191934480331,
1,0,0,0,0,1,0,0,triangle,circle,1,0,1,0,1,1,13,0,,,,,,,,,,,,,,,,,,,,,,,,,,,,,,,,,,,,,,,,285.2227227210533,285.2227227210533,285.2227227210533,285.2227227210533,285.2227227210533,285.2227227210533,285.2227227210533,285.2227227210533,285.2227227210533,285.2227227210533,l,1.9858334119198844,10,314,1,287.2423990010284,288.7426098569995,288.7426098569995,289.2426374590723,,,,,,,,,,,,,,,,,,,,,,,,,,,,,,,,,,,,,,,,,,,,,,,,,,,,,,,,,,,,,,,,,,,,66872,2022-11-02_10h11.18.591,vts_reward_expectancy_bt_OFFLINE,2022.2.4,59.92191934480331,
1,0,0,0,0,0,1,0,triangle,hexagon,1,0,1,0,1,2,14,1,,,,,,,,,,,,,,,,,,,,,,,,,,,,,,,,,,,,,,,,289.2426374590723,289.2426374590723,289.2426374590723,289.2426374590723,289.2426374590723,289.2426374590723,289.2426374590723,289.2426374590723,289.2426374590723,289.2426374590723,l,1.7906840608920902,10,324,1,291.060045782011,292.5604734190274,292.5604734190274,,,,,,,,,,,,,,,,,,,,,,,,,,,,,,,,,,,,,,,,,,,,,,,,,,,,,,,,,,,,,,,,,,,,,66872,2022-11-02_10h11.18.591,vts_reward_expectancy_bt_OFFLINE,2022.2.4,59.92191934480331,
0,0,1,0,1,0,0,0,hexagon,triangle,1,0,1,0,1,3,15,6,,,,,,,,,,,,,,,,,,,,,,,,,,,,,,,,,,,,,,,,293.0607407790376,293.0607407790376,293.0607407790376,293.0607407790376,293.0607407790376,293.0607407790376,293.0607407790376,293.0607407790376,293.0607407790376,293.0607407790376,l,1.5166992509039119,10,334,1,294.5966028639814,296.0970985520398,296.0970985520398,296.5972278940026,,,,,,,,,,,,,,,,,,,,,,,,,,,,,,,,,,,,,,,,,,,,,,,,,,,,,,,,,,,,,,,,,,,,66872,2022-11-02_10h11.18.591,vts_reward_expectancy_bt_OFFLINE,2022.2.4,59.92191934480331,
0,1,0,0,0,0,1,0,circle,hexagon,1,0,1,0,1,4,16,4,,,,,,,,,,,,,,,,,,,,,,,,,,,,,,,,,,,,,,,,296.5972278940026,296.5972278940026,296.5972278940026,296.5972278940026,296.5972278940026,296.5972278940026,296.5972278940026,296.5972278940026,296.5972278940026,296.5972278940026,l,1.1314550389070064,1,335,1,297.74854993599,,299.2500073079718,,,,,,,,,,,,,,,,,,,,,,,,,,,,,,,,,,,,,,,,,,,,,,,,,,,,,,,,,,,,,,,,,,,,,66872,2022-11-02_10h11.18.591,vts_reward_expectancy_bt_OFFLINE,2022.2.4,59.92191934480331,
0,1,0,0,1,0,0,0,circle,triangle,1,0,1,0,1,5,17,3,,,,,,,,,,,,,,,,,,,,,,,,,,,,,,,,,,,,,,,,299.7503034339752,299.7503034339752,299.7503034339752,299.7503034339752,299.7503034339752,299.7503034339752,299.7503034339752,299.7503034339752,299.7503034339752,299.7503034339752,a,1.5942973978817463,10,345,1,301.3695398439886,,302.8847657290753,,,,,,,,,,,,,,,,,,,,,,,,,,,,,,,,,,,,,,,,,,,,,,,,,,,,,,,,,,,,,,,,,,,,,66872,2022-11-02_10h11.18.591,vts_reward_expectancy_bt_OFFLINE,2022.2.4,59.92191934480331,
1,0,0,0,0,0,0,1,triangle,star,1,0,1,0,1,6,18,2,,,,,,,,,,,,,,,,,,,,,,,,,,,,,,,,,,,,,,,,303.3733871480217,303.3733871480217,303.3733871480217,303.3733871480217,303.3733871480217,303.3733871480217,303.3733871480217,303.3733871480217,303.3733871480217,303.3733871480217,l,0.9234031299129128,1,346,1,304.3237981700804,,305.8376840450801,,,,,,,,,,,,,,,,,,,,,,,,,,,,,,,,,,,,,,,,,,,,,,,,,,,,,,,,,,,,,,,,,,,,,66872,2022-11-02_10h11.18.591,vts_reward_expectancy_bt_OFFLINE,2022.2.4,59.92191934480331,
0,1,0,0,0,0,0,1,circle,star,1,0,1,0,1,7,19,5,,,,,,,,,,,,,,,,,,,,,,,,,,,,,,,,,,,,,,,,306.33787344105076,306.33787344105076,306.33787344105076,306.33787344105076,306.33787344105076,306.33787344105076,306.33787344105076,306.33787344105076,306.33787344105076,306.33787344105076,a,0.9107867679558694,1,347,1,307.27122412703466,,308.77368323504925,,,,,,,,,,,,,,,,,,,,,,,,,,,,,,,,,,,,,,,,,,,,,,,,,,,,,,,,,,,,,,,,,,,,,66872,2022-11-02_10h11.18.591,vts_reward_expectancy_bt_OFFLINE,2022.2.4,59.92191934480331,
0,0,0,1,1,0,0,0,star,triangle,1,0,1,0,1,8,20,9,,,,,,,,,,,,,,,,,,,,,,,,,,,,,,,,,,,,,,,,309.2741194460541,309.2741194460541,309.2741194460541,309.2741194460541,309.2741194460541,309.2741194460541,309.2741194460541,309.2741194460541,309.2741194460541,309.2741194460541,a,0.4385652029886842,1,348,1,309.74299661407713,,311.25826044904534,,,,,,,,,,,,,,,,,,,,,,,,,,,,,,,,,,,,,,,,,,,,,,,,,,,,,,,,,,,,,,,,,,,,,66872,2022-11-02_10h11.18.591,vts_reward_expectancy_bt_OFFLINE,2022.2.4,59.92191934480331,
0,0,1,0,0,0,0,1,hexagon,star,1,0,1,0,1,9,21,8,,,,,,,,,,,,,,,,,,,,,,,,,,,,,,,,,,,,,,,,311.7582986410707,311.7582986410707,311.7582986410707,311.7582986410707,311.7582986410707,311.7582986410707,311.7582986410707,311.7582986410707,311.7582986410707,311.7582986410707,a,1.4263575079385191,10,358,1,313.2095644470537,,314.7110525610624,,,,,,,,,,,,,,,,,,,,,,,,,,,,,,,,,,,,,,,,,,,,,,,,,,,,,,,,,,,,,,,,,,,,,66872,2022-11-02_10h11.18.591,vts_reward_expectancy_bt_OFFLINE,2022.2.4,59.92191934480331,
0,0,0,1,0,1,0,0,star ,circle,1,0,1,0,1,10,22,10,,,,,,,,,,,,,,,,,,,,,,,,,,,,,,,,,,,,,,,,315.2114183540689,315.2114183540689,315.2114183540689,315.2114183540689,315.2114183540689,315.2114183540689,315.2114183540689,315.2114183540689,315.2114183540689,315.2114183540689,a,0.4376410428667441,10,368,1,315.6782301539788,317.178713827976,317.178713827976,317.67882865003776,,,,,,,,,,,,,,,,,,,,,,,,,,,,,,,,,,,,,,,,,,,,,,,,,,,,,,,,,,,,,,,,,,,,66872,2022-11-02_10h11.18.591,vts_reward_expectancy_bt_OFFLINE,2022.2.4,59.92191934480331,
0,0,0,1,0,0,1,0,star,hexagon,1,0,1,0,1,11,23,11,,,,,,,,,,,,,,,,,,,,,,,,,,,,,,,,,,,,,,,,317.67882865003776,317.67882865003776,317.67882865003776,317.67882865003776,317.67882865003776,317.67882865003776,317.67882865003776,317.67882865003776,317.67882865003776,317.67882865003776,l,0.6347858388908207,1,369,1,318.3456442960305,,319.8482467890717,,,,,,,,,,,,,,,,,,,,,,,,,,,,,,,,,,,,,,,,,,,,,,,,,,,,,,,,,,,,,,,,,,,,,66872,2022-11-02_10h11.18.591,vts_reward_expectancy_bt_OFFLINE,2022.2.4,59.92191934480331,
1,0,0,0,0,1,0,0,triangle,circle,1,0,1,0,2,0,24,0,,,,,,,,,,,,,,,,,,,,,,,,,,,,,,,,,,,,,,,,320.3483273619786,320.3483273619786,320.3483273619786,320.3483273619786,320.3483273619786,320.3483273619786,320.3483273619786,320.3483273619786,320.3483273619786,320.3483273619786,l,0.9092932029161602,10,379,1,321.28279181499965,322.7824054979719,322.7824054979719,323.28268196899444,,,,,,,,,,,,,,,,,,,,,,,,,,,,,,,,,,,,,,,,,,,,,,,,,,,,,,,,,,,,,,,,,,,,66872,2022-11-02_10h11.18.591,vts_reward_expectancy_bt_OFFLINE,2022.2.4,59.92191934480331,
0,0,1,0,0,0,0,1,hexagon,star,1,0,1,0,2,1,25,8,,,,,,,,,,,,,,,,,,,,,,,,,,,,,,,,,,,,,,,,323.28268196899444,323.28268196899444,323.28268196899444,323.28268196899444,323.28268196899444,323.28268196899444,323.28268196899444,323.28268196899444,323.28268196899444,323.28268196899444,l,1.1985329409362748,1,380,1,324.50269359501544,326.0023772859713,326.0023772859713,,,,,,,,,,,,,,,,,,,,,,,,,,,,,,,,,,,,,,,,,,,,,,,,,,,,,,,,,,,,,,,,,,,,,66872,2022-11-02_10h11.18.591,vts_reward_expectancy_bt_OFFLINE,2022.2.4,59.92191934480331,
0,1,0,0,0,0,1,0,circle,hexagon,1,0,1,0,2,2,26,4,,,,,,,,,,,,,,,,,,,,,,,,,,,,,,,,,,,,,,,,326.5024326890707,326.5024326890707,326.5024326890707,326.5024326890707,326.5024326890707,326.5024326890707,326.5024326890707,326.5024326890707,326.5024326890707,326.5024326890707,l,1.114510913961567,10,390,1,327.63983398408163,,329.13854505098425,,,,,,,,,,,,,,,,,,,,,,,,,,,,,,,,,,,,,,,,,,,,,,,,,,,,,,,,,,,,,,,,,,,,,66872,2022-11-02_10h11.18.591,vts_reward_expectancy_bt_OFFLINE,2022.2.4,59.92191934480331,
0,0,0,1,1,0,0,0,star,triangle,1,0,1,0,2,3,27,9,,,,,,,,,,,,,,,,,,,,,,,,,,,,,,,,,,,,,,,,329.63840417098254,329.63840417098254,329.63840417098254,329.63840417098254,329.63840417098254,329.63840417098254,329.63840417098254,329.63840417098254,329.63840417098254,329.63840417098254,a,0.6021140428492799,1,391,1,330.2722182320431,331.77273611701094,331.77273611701094,332.2729634810239,,,,,,,,,,,,,,,,,,,,,,,,,,,,,,,,,,,,,,,,,,,,,,,,,,,,,,,,,,,,,,,,,,,,66872,2022-11-02_10h11.18.591,vts_reward_expectancy_bt_OFFLINE,2022.2.4,59.92191934480331,
0,0,1,0,1,0,0,0,hexagon,triangle,1,0,1,0,2,4,28,6,,,,,,,,,,,,,,,,,,,,,,,,,,,,,,,,,,,,,,,,332.2729634810239,332.2729634810239,332.2729634810239,332.2729634810239,332.2729634810239,332.2729634810239,332.2729634810239,332.2729634810239,332.2729634810239,332.2729634810239,a,1.2965156459249556,10,401,1,333.592796365032,,335.0925839560805,,,,,,,,,,,,,,,,,,,,,,,,,,,,,,,,,,,,,,,,,,,,,,,,,,,,,,,,,,,,,,,,,,,,,66872,2022-11-02_10h11.18.591,vts_reward_expectancy_bt_OFFLINE,2022.2.4,59.92191934480331,
1,0,0,0,0,0,0,1,triangle,star,1,0,1,0,2,5,29,2,,,,,,,,,,,,,,,,,,,,,,,,,,,,,,,,,,,,,,,,335.5925558740273,335.5925558740273,335.5925558740273,335.5925558740273,335.5925558740273,335.5925558740273,335.5925558740273,335.5925558740273,335.5925558740273,335.5925558740273,l,0.5441697088535875,10,411,1,336.15970267297234,337.660079451045,337.660079451045,338.1602318440564,,,,,,,,,,,,,,,,,,,,,,,,,,,,,,,,,,,,,,,,,,,,,,,,,,,,,,,,,,,,,,,,,,,,66872,2022-11-02_10h11.18.591,vts_reward_expectancy_bt_OFFLINE,2022.2.4,59.92191934480331,
1,0,0,0,0,0,1,0,triangle,hexagon,1,0,1,0,2,6,30,1,,,,,,,,,,,,,,,,,,,,,,,,,,,,,,,,,,,,,,,,338.1602318440564,338.1602318440564,338.1602318440564,338.1602318440564,338.1602318440564,338.1602318440564,338.1602318440564,338.1602318440564,338.1602318440564,338.1602318440564,a,0.729373293928802,10,421,1,338.9123143700417,340.4129763999954,340.4129763999954,340.9130509820534,,,,,,,,,,,,,,,,,,,,,,,,,,,,,,,,,,,,,,,,,,,,,,,,,,,,,,,,,,,,,,,,,,,,66872,2022-11-02_10h11.18.591,vts_reward_expectancy_bt_OFFLINE,2022.2.4,59.92191934480331,
0,1,0,0,1,0,0,0,circle,triangle,1,0,1,0,2,7,31,3,,,,,,,,,,,,,,,,,,,,,,,,,,,,,,,,,,,,,,,,340.9130509820534,340.9130509820534,340.9130509820534,340.9130509820534,340.9130509820534,340.9130509820534,340.9130509820534,340.9130509820534,340.9130509820534,340.9130509820534,a,0.48008095601107925,1,422,1,341.4144238140434,342.9138777439948,342.9138777439948,,,,,,,,,,,,,,,,,,,,,,,,,,,,,,,,,,,,,,,,,,,,,,,,,,,,,,,,,,,,,,,,,,,,,66872,2022-11-02_10h11.18.591,vts_reward_expectancy_bt_OFFLINE,2022.2.4,59.92191934480331,
0,0,0,1,0,1,0,0,star ,circle,1,0,1,0,2,8,32,10,,,,,,,,,,,,,,,,,,,,,,,,,,,,,,,,,,,,,,,,343.41658688301686,343.41658688301686,343.41658688301686,343.41658688301686,343.41658688301686,343.41658688301686,343.41658688301686,343.41658688301686,343.41658688301686,343.41658688301686,a,1.1769005418755114,1,423,1,344.61620725807734,346.1167026030598,346.1167026030598,346.6171560920775,,,,,,,,,,,,,,,,,,,,,,,,,,,,,,,,,,,,,,,,,,,,,,,,,,,,,,,,,,,,,,,,,,,,66872,2022-11-02_10h11.18.591,vts_reward_expectancy_bt_OFFLINE,2022.2.4,59.92191934480331,
0,0,1,0,0,1,0,0,hexagon,circle,1,0,1,0,2,9,33,7,,,,,,,,,,,,,,,,,,,,,,,,,,,,,,,,,,,,,,,,346.6171560920775,346.6171560920775,346.6171560920775,346.6171560920775,346.6171560920775,346.6171560920775,346.6171560920775,346.6171560920775,346.6171560920775,346.6171560920775,l,0.4718707469291985,10,433,1,347.1204320390243,,348.61950424604584,,,,,,,,,,,,,,,,,,,,,,,,,,,,,,,,,,,,,,,,,,,,,,,,,,,,,,,,,,,,,,,,,,,,,66872,2022-11-02_10h11.18.591,vts_reward_expectancy_bt_OFFLINE,2022.2.4,59.92191934480331,
0,0,0,1,0,0,1,0,star,hexagon,1,0,1,0,2,10,34,11,,,,,,,,,,,,,,,,,,,,,,,,,,,,,,,,,,,,,,,,349.1197016190272,349.1197016190272,349.1197016190272,349.1197016190272,349.1197016190272,349.1197016190272,349.1197016190272,349.1197016190272,349.1197016190272,349.1197016190272,l,1.2494344769511372,10,443,1,350.3868241640739,351.8873294569785,351.8873294569785,352.387578885071,,,,,,,,,,,,,,,,,,,,,,,,,,,,,,,,,,,,,,,,,,,,,,,,,,,,,,,,,,,,,,,,,,,,66872,2022-11-02_10h11.18.591,vts_reward_expectancy_bt_OFFLINE,2022.2.4,59.92191934480331,
0,1,0,0,0,0,0,1,circle,star,1,0,1,0,2,11,35,5,,,,,,,,,,,,,,,,,,,,,,,,,,,,,,,,,,,,,,,,352.387578885071,352.387578885071,352.387578885071,352.387578885071,352.387578885071,352.387578885071,352.387578885071,352.387578885071,352.387578885071,352.387578885071,l,0.6690179979195818,10,453,1,353.0875143370358,,354.5901639549993,,,,,,,,,,,,,,,,,,,,,,,,,,,,,,,,,,,,,,,,,,,,,,,,,,,,,,,,,,,,,,,,,,,,,66872,2022-11-02_10h11.18.591,vts_reward_expectancy_bt_OFFLINE,2022.2.4,59.92191934480331,
0,1,0,0,0,0,0,1,circle,star,1,0,1,0,3,0,36,5,,,,,,,,,,,,,,,,,,,,,,,,,,,,,,,,,,,,,,,,355.09030613698997,355.09030613698997,355.09030613698997,355.09030613698997,355.09030613698997,355.09030613698997,355.09030613698997,355.09030613698997,355.09030613698997,355.09030613698997,a,0.7599835589062423,10,463,1,355.87378775002435,,357.3747072289698,,,,,,,,,,,,,,,,,,,,,,,,,,,,,,,,,,,,,,,,,,,,,,,,,,,,,,,,,,,,,,,,,,,,,66872,2022-11-02_10h11.18.591,vts_reward_expectancy_bt_OFFLINE,2022.2.4,59.92191934480331,
0,0,0,1,0,1,0,0,star ,circle,1,0,1,0,3,1,37,10,,,,,,,,,,,,,,,,,,,,,,,,,,,,,,,,,,,,,,,,357.8748452910222,357.8748452910222,357.8748452910222,357.8748452910222,357.8748452910222,357.8748452910222,357.8748452910222,357.8748452910222,357.8748452910222,357.8748452910222,l,0.8698632959276438,10,473,1,358.77687979408074,360.27751001599245,360.27751001599245,360.7775054400554,,,,,,,,,,,,,,,,,,,,,,,,,,,,,,,,,,,,,,,,,,,,,,,,,,,,,,,,,,,,,,,,,,,,66872,2022-11-02_10h11.18.591,vts_reward_expectancy_bt_OFFLINE,2022.2.4,59.92191934480331,
1,0,0,0,0,0,1,0,triangle,hexagon,1,0,1,0,3,2,38,1,,,,,,,,,,,,,,,,,,,,,,,,,,,,,,,,,,,,,,,,360.7775054400554,360.7775054400554,360.7775054400554,360.7775054400554,360.7775054400554,360.7775054400554,360.7775054400554,360.7775054400554,360.7775054400554,360.7775054400554,l,0.9431508579291403,10,483,1,361.74468070897274,363.24511691299267,363.24511691299267,,,,,,,,,,,,,,,,,,,,,,,,,,,,,,,,,,,,,,,,,,,,,,,,,,,,,,,,,,,,,,,,,,,,,66872,2022-11-02_10h11.18.591,vts_reward_expectancy_bt_OFFLINE,2022.2.4,59.92191934480331,
1,0,0,0,0,1,0,0,triangle,circle,1,0,1,0,3,3,39,0,,,,,,,,,,,,,,,,,,,,,,,,,,,,,,,,,,,,,,,,363.747318904032,363.747318904032,363.747318904032,363.747318904032,363.747318904032,363.747318904032,363.747318904032,363.747318904032,363.747318904032,363.747318904032,l,0.7824328868882731,1,484,1,364.5486156370025,366.04811484902166,366.04811484902166,366.5480771660805,,,,,,,,,,,,,,,,,,,,,,,,,,,,,,,,,,,,,,,,,,,,,,,,,,,,,,,,,,,,,,,,,,,,66872,2022-11-02_10h11.18.591,vts_reward_expectancy_bt_OFFLINE,2022.2.4,59.92191934480331,
0,0,0,1,0,0,1,0,star,hexagon,1,0,1,0,3,4,40,11,,,,,,,,,,,,,,,,,,,,,,,,,,,,,,,,,,,,,,,,366.5480771660805,366.5480771660805,366.5480771660805,366.5480771660805,366.5480771660805,366.5480771660805,366.5480771660805,366.5480771660805,366.5480771660805,366.5480771660805,a,0.6850306879496202,10,494,1,367.26485615503043,,368.7674697000766,,,,,,,,,,,,,,,,,,,,,,,,,,,,,,,,,,,,,,,,,,,,,,,,,,,,,,,,,,,,,,,,,,,,,66872,2022-11-02_10h11.18.591,vts_reward_expectancy_bt_OFFLINE,2022.2.4,59.92191934480331,
0,0,0,1,1,0,0,0,star,triangle,1,0,1,0,3,5,41,9,,,,,,,,,,,,,,,,,,,,,,,,,,,,,,,,,,,,,,,,369.2677008010214,369.2677008010214,369.2677008010214,369.2677008010214,369.2677008010214,369.2677008010214,369.2677008010214,369.2677008010214,369.2677008010214,369.2677008010214,a,0.46897585794795305,1,495,1,369.7676649460336,371.2683581330348,371.2683581330348,371.7683150060475,,,,,,,,,,,,,,,,,,,,,,,,,,,,,,,,,,,,,,,,,,,,,,,,,,,,,,,,,,,,,,,,,,,,66872,2022-11-02_10h11.18.591,vts_reward_expectancy_bt_OFFLINE,2022.2.4,59.92191934480331,
0,0,1,0,1,0,0,0,hexagon,triangle,1,0,1,0,3,6,42,6,,,,,,,,,,,,,,,,,,,,,,,,,,,,,,,,,,,,,,,,371.7683150060475,371.7683150060475,371.7683150060475,371.7683150060475,371.7683150060475,371.7683150060475,371.7683150060475,371.7683150060475,371.7683150060475,371.7683150060475,l,0.9444732528645545,1,496,1,372.7355967750773,,374.2377856160747,,,,,,,,,,,,,,,,,,,,,,,,,,,,,,,,,,,,,,,,,,,,,,,,,,,,,,,,,,,,,,,,,,,,,66872,2022-11-02_10h11.18.591,vts_reward_expectancy_bt_OFFLINE,2022.2.4,59.92191934480331,
1,0,0,0,0,0,0,1,triangle,star,1,0,1,0,3,7,43,2,,,,,,,,,,,,,,,,,,,,,,,,,,,,,,,,,,,,,,,,374.73802431102376,374.73802431102376,374.73802431102376,374.73802431102376,374.73802431102376,374.73802431102376,374.73802431102376,374.73802431102376,374.73802431102376,374.73802431102376,l,0.7595449719810858,1,497,1,375.5217252880102,377.02222626202274,377.02222626202274,377.5223065960454,,,,,,,,,,,,,,,,,,,,,,,,,,,,,,,,,,,,,,,,,,,,,,,,,,,,,,,,,,,,,,,,,,,,66872,2022-11-02_10h11.18.591,vts_reward_expectancy_bt_OFFLINE,2022.2.4,59.92191934480331,
0,1,0,0,0,0,1,0,circle,hexagon,1,0,1,0,3,8,44,4,,,,,,,,,,,,,,,,,,,,,,,,,,,,,,,,,,,,,,,,377.5223065960454,377.5223065960454,377.5223065960454,377.5223065960454,377.5223065960454,377.5223065960454,377.5223065960454,377.5223065960454,377.5223065960454,377.5223065960454,a,1.0868951469892636,1,498,1,378.6413936840836,380.1419398749713,380.1419398749713,380.6422063380014,,,,,,,,,,,,,,,,,,,,,,,,,,,,,,,,,,,,,,,,,,,,,,,,,,,,,,,,,,,,,,,,,,,,66872,2022-11-02_10h11.18.591,vts_reward_expectancy_bt_OFFLINE,2022.2.4,59.92191934480331,
0,0,1,0,0,1,0,0,hexagon,circle,1,0,1,0,3,9,45,7,,,,,,,,,,,,,,,,,,,,,,,,,,,,,,,,,,,,,,,,380.6422063380014,380.6422063380014,380.6422063380014,380.6422063380014,380.6422063380014,380.6422063380014,380.6422063380014,380.6422063380014,380.6422063380014,380.6422063380014,l,0.9669066210044548,10,508,1,381.62748055905104,,383.1429717030842,,,,,,,,,,,,,,,,,,,,,,,,,,,,,,,,,,,,,,,,,,,,,,,,,,,,,,,,,,,,,,,,,,,,,66872,2022-11-02_10h11.18.591,vts_reward_expectancy_bt_OFFLINE,2022.2.4,59.92191934480331,
0,1,0,0,1,0,0,0,circle,triangle,1,0,1,0,3,10,46,3,,,,,,,,,,,,,,,,,,,,,,,,,,,,,,,,,,,,,,,,383.6283769940492,383.6283769940492,383.6283769940492,383.6283769940492,383.6283769940492,383.6283769940492,383.6283769940492,383.6283769940492,383.6283769940492,383.6283769940492,a,0.6207029209472239,1,509,1,384.2796114269877,385.7791054820409,385.7791054820409,,,,,,,,,,,,,,,,,,,,,,,,,,,,,,,,,,,,,,,,,,,,,,,,,,,,,,,,,,,,,,,,,,,,,66872,2022-11-02_10h11.18.591,vts_reward_expectancy_bt_OFFLINE,2022.2.4,59.92191934480331,
0,0,1,0,0,0,0,1,hexagon,star,1,0,1,0,3,11,47,8,,,,,,,,,,,,,,,,,,,,,,,,,,,,,,,,,,,,,,,,386.2792925570393,386.2792925570393,386.2792925570393,386.2792925570393,386.2792925570393,386.2792925570393,386.2792925570393,386.2792925570393,386.2792925570393,386.2792925570393,l,0.737317614024505,1,510,1,387.046368526062,,388.5485568459844,,,,,,,,,,,,,,,,,,,,,,,,,,,,,,,,,,,,,,,,,,,,,,,,,,,,,,,,,,,,,,,,,,,,,66872,2022-11-02_10h11.18.591,vts_reward_expectancy_bt_OFFLINE,2022.2.4,59.92191934480331,
0,0,1,0,1,0,0,0,hexagon,triangle,2,0,2,0,0,0,0,6,,,,,,,,,,,,,,,,,,,,,,,,,,,,,,,,,,,,,,,,392.2614241760457,392.2614241760457,392.2614241760457,392.2614241760457,392.2614241760457,392.2614241760457,392.2614241760457,392.2614241760457,392.2614241760457,392.2614241760457,a,1.0197174679487944,10,520,2,393.30171166104265,,394.8028810650576,,,,,,,,,,,,,,,,,,,,,,,,,,,,,,,,,,,,,,,,,,,,,,,,,,,,,,,,,,,,,,,,,,,,,66872,2022-11-02_10h11.18.591,vts_reward_expectancy_bt_OFFLINE,2022.2.4,59.92191934480331,
0,1,0,0,0,0,1,0,circle,hexagon,2,0,2,0,0,1,1,4,,,,,,,,,,,,,,,,,,,,,,,,,,,,,,,,,,,,,,,,395.3030126990052,395.3030126990052,395.3030126990052,395.3030126990052,395.3030126990052,395.3030126990052,395.3030126990052,395.3030126990052,395.3030126990052,395.3030126990052,l,0.5143549118656665,1,521,2,395.83768668200355,397.33693728304934,397.33693728304934,397.8372198670404,,,,,,,,,,,,,,,,,,,,,,,,,,,,,,,,,,,,,,,,,,,,,,,,,,,,,,,,,,,,,,,,,,,,66872,2022-11-02_10h11.18.591,vts_reward_expectancy_bt_OFFLINE,2022.2.4,59.92191934480331,
0,0,0,1,1,0,0,0,star,triangle,2,0,2,0,0,2,2,9,,,,,,,,,,,,,,,,,,,,,,,,,,,,,,,,,,,,,,,,397.8372198670404,397.8372198670404,397.8372198670404,397.8372198670404,397.8372198670404,397.8372198670404,397.8372198670404,397.8372198670404,397.8372198670404,397.8372198670404,l,0.7401992459781468,1,522,2,398.6058726250194,400.1064207360614,400.1064207360614,,,,,,,,,,,,,,,,,,,,,,,,,,,,,,,,,,,,,,,,,,,,,,,,,,,,,,,,,,,,,,,,,,,,,66872,2022-11-02_10h11.18.591,vts_reward_expectancy_bt_OFFLINE,2022.2.4,59.92191934480331,
0,1,0,0,0,0,0,1,circle,star,2,0,2,0,0,3,3,5,,,,,,,,,,,,,,,,,,,,,,,,,,,,,,,,,,,,,,,,400.6067790100351,400.6067790100351,400.6067790100351,400.6067790100351,400.6067790100351,400.6067790100351,400.6067790100351,400.6067790100351,400.6067790100351,400.6067790100351,l,0.9782928439090028,1,523,2,401.6069106850773,403.1074153049849,403.1074153049849,,,,,,,,,,,,,,,,,,,,,,,,,,,,,,,,,,,,,,,,,,,,,,,,,,,,,,,,,,,,,,,,,,,,,66872,2022-11-02_10h11.18.591,vts_reward_expectancy_bt_OFFLINE,2022.2.4,59.92191934480331,
1,0,0,0,0,0,0,1,triangle,star,2,0,2,0,0,4,4,2,,,,,,,,,,,,,,,,,,,,,,,,,,,,,,,,,,,,,,,,403.60945634904783,403.60945634904783,403.60945634904783,403.60945634904783,403.60945634904783,403.60945634904783,403.60945634904783,403.60945634904783,403.60945634904783,403.60945634904783,a,0.8083281109575182,10,533,2,404.44469737797044,,405.960368160042,,,,,,,,,,,,,,,,,,,,,,,,,,,,,,,,,,,,,,,,,,,,,,,,,,,,,,,,,,,,,,,,,,,,,66872,2022-11-02_10h11.18.591,vts_reward_expectancy_bt_OFFLINE,2022.2.4,59.92191934480331,
0,0,1,0,0,0,0,1,hexagon,star,2,0,2,0,0,5,5,8,,,,,,,,,,,,,,,,,,,,,,,,,,,,,,,,,,,,,,,,406.4438041850226,406.4438041850226,406.4438041850226,406.4438041850226,406.4438041850226,406.4438041850226,406.4438041850226,406.4438041850226,406.4438041850226,406.4438041850226,a,1.34186535095796,10,543,2,407.81090531498194,,409.31356263905764,,,,,,,,,,,,,,,,,,,,,,,,,,,,,,,,,,,,,,,,,,,,,,,,,,,,,,,,,,,,,,,,,,,,,66872,2022-11-02_10h11.18.591,vts_reward_expectancy_bt_OFFLINE,2022.2.4,59.92191934480331,
1,0,0,0,0,0,1,0,triangle,hexagon,2,0,2,0,0,6,6,1,,,,,,,,,,,,,,,,,,,,,,,,,,,,,,,,,,,,,,,,409.81359717505984,409.81359717505984,409.81359717505984,409.81359717505984,409.81359717505984,409.81359717505984,409.81359717505984,409.81359717505984,409.81359717505984,409.81359717505984,a,1.0671485129278153,1,544,2,410.90077496599406,,412.41457374801394,,,,,,,,,,,,,,,,,,,,,,,,,,,,,,,,,,,,,,,,,,,,,,,,,,,,,,,,,,,,,,,,,,,,,66872,2022-11-02_10h11.18.591,vts_reward_expectancy_bt_OFFLINE,2022.2.4,59.92191934480331,
0,0,0,1,0,0,1,0,star,hexagon,2,0,2,0,0,7,7,11,,,,,,,,,,,,,,,,,,,,,,,,,,,,,,,,,,,,,,,,412.91470391803887,412.91470391803887,412.91470391803887,412.91470391803887,412.91470391803887,412.91470391803887,412.91470391803887,412.91470391803887,412.91470391803887,412.91470391803887,l,0.654918308951892,10,554,2,413.60170524404384,,415.1175044060219,,,,,,,,,,,,,,,,,,,,,,,,,,,,,,,,,,,,,,,,,,,,,,,,,,,,,,,,,,,,,,,,,,,,,66872,2022-11-02_10h11.18.591,vts_reward_expectancy_bt_OFFLINE,2022.2.4,59.92191934480331,
0,0,0,1,0,1,0,0,star ,circle,2,0,2,0,0,8,8,10,,,,,,,,,,,,,,,,,,,,,,,,,,,,,,,,,,,,,,,,415.6007066749735,415.6007066749735,415.6007066749735,415.6007066749735,415.6007066749735,415.6007066749735,415.6007066749735,415.6007066749735,415.6007066749735,415.6007066749735,l,2.0482885020319372,1,555,2,417.6699706650106,,419.17056901205797,,,,,,,,,,,,,,,,,,,,,,,,,,,,,,,,,,,,,,,,,,,,,,,,,,,,,,,,,,,,,,,,,,,,,66872,2022-11-02_10h11.18.591,vts_reward_expectancy_bt_OFFLINE,2022.2.4,59.92191934480331,
1,0,0,0,0,1,0,0,triangle,circle,2,0,2,0,0,9,9,0,,,,,,,,,,,,,,,,,,,,,,,,,,,,,,,,,,,,,,,,419.67087281902786,419.67087281902786,419.67087281902786,419.67087281902786,419.67087281902786,419.67087281902786,419.67087281902786,419.67087281902786,419.67087281902786,419.67087281902786,l,2.290443683974445,10,565,2,421.98983477207366,,423.49071996100247,,,,,,,,,,,,,,,,,,,,,,,,,,,,,,,,,,,,,,,,,,,,,,,,,,,,,,,,,,,,,,,,,,,,,66872,2022-11-02_10h11.18.591,vts_reward_expectancy_bt_OFFLINE,2022.2.4,59.92191934480331,
0,1,0,0,1,0,0,0,circle,triangle,2,0,2,0,0,10,10,3,,,,,,,,,,,,,,,,,,,,,,,,,,,,,,,,,,,,,,,,423.9907111499924,423.9907111499924,423.9907111499924,423.9907111499924,423.9907111499924,423.9907111499924,423.9907111499924,423.9907111499924,423.9907111499924,423.9907111499924,a,1.7227356280200183,1,566,2,425.74317309004255,,427.25869526306633,,,,,,,,,,,,,,,,,,,,,,,,,,,,,,,,,,,,,,,,,,,,,,,,,,,,,,,,,,,,,,,,,,,,,66872,2022-11-02_10h11.18.591,vts_reward_expectancy_bt_OFFLINE,2022.2.4,59.92191934480331,
0,0,1,0,0,1,0,0,hexagon,circle,2,0,2,0,0,11,11,7,,,,,,,,,,,,,,,,,,,,,,,,,,,,,,,,,,,,,,,,427.7589553970611,427.7589553970611,427.7589553970611,427.7589553970611,427.7589553970611,427.7589553970611,427.7589553970611,427.7589553970611,427.7589553970611,427.7589553970611,l,1.1778201739070937,1,567,2,428.96134006103966,430.46169226104394,430.46169226104394,,,,,,,,,,,,,,,,,,,,,,,,,,,,,,,,,,,,,,,,,,,,,,,,,,,,,,,,,,,,,,,,,,,,,66872,2022-11-02_10h11.18.591,vts_reward_expectancy_bt_OFFLINE,2022.2.4,59.92191934480331,
0,0,1,0,1,0,0,0,hexagon,triangle,2,0,2,0,1,0,12,6,,,,,,,,,,,,,,,,,,,,,,,,,,,,,,,,,,,,,,,,430.9620652120793,430.9620652120793,430.9620652120793,430.9620652120793,430.9620652120793,430.9620652120793,430.9620652120793,430.9620652120793,430.9620652120793,430.9620652120793,a,1.2788380129495636,10,577,2,432.26577018003445,,433.7645537700737,,,,,,,,,,,,,,,,,,,,,,,,,,,,,,,,,,,,,,,,,,,,,,,,,,,,,,,,,,,,,,,,,,,,,66872,2022-11-02_10h11.18.591,vts_reward_expectancy_bt_OFFLINE,2022.2.4,59.92191934480331,
0,1,0,0,0,0,0,1,circle,star,2,0,2,0,1,1,13,5,,,,,,,,,,,,,,,,,,,,,,,,,,,,,,,,,,,,,,,,434.264803674072,434.264803674072,434.264803674072,434.264803674072,434.264803674072,434.264803674072,434.264803674072,434.264803674072,434.264803674072,434.264803674072,l,2.040185656864196,10,587,2,436.3321635010652,437.8328819570597,437.8328819570597,438.3330742219696,,,,,,,,,,,,,,,,,,,,,,,,,,,,,,,,,,,,,,,,,,,,,,,,,,,,,,,,,,,,,,,,,,,,66872,2022-11-02_10h11.18.591,vts_reward_expectancy_bt_OFFLINE,2022.2.4,59.92191934480331,
1,0,0,0,0,0,1,0,triangle,hexagon,2,0,2,0,1,2,14,1,,,,,,,,,,,,,,,,,,,,,,,,,,,,,,,,,,,,,,,,438.3330742219696,438.3330742219696,438.3330742219696,438.3330742219696,438.3330742219696,438.3330742219696,438.3330742219696,438.3330742219696,438.3330742219696,438.3330742219696,l,2.2520212539238855,10,597,2,440.6025614429964,442.10287420405075,442.10287420405075,442.60322939697653,,,,,,,,,,,,,,,,,,,,,,,,,,,,,,,,,,,,,,,,,,,,,,,,,,,,,,,,,,,,,,,,,,,,66872,2022-11-02_10h11.18.591,vts_reward_expectancy_bt_OFFLINE,2022.2.4,59.92191934480331,
0,0,0,1,1,0,0,0,star,triangle,2,0,2,0,1,3,15,9,,,,,,,,,,,,,,,,,,,,,,,,,,,,,,,,,,,,,,,,442.60322939697653,442.60322939697653,442.60322939697653,442.60322939697653,442.60322939697653,442.60322939697653,442.60322939697653,442.60322939697653,442.60322939697653,442.60322939697653,a,2.0784428708720952,10,607,2,444.7055976249976,446.20620834699366,446.20620834699366,446.7065760489786,,,,,,,,,,,,,,,,,,,,,,,,,,,,,,,,,,,,,,,,,,,,,,,,,,,,,,,,,,,,,,,,,,,,66872,2022-11-02_10h11.18.591,vts_reward_expectancy_bt_OFFLINE,2022.2.4,59.92191934480331,
1,0,0,0,0,0,0,1,triangle,star,2,0,2,0,1,4,16,2,,,,,,,,,,,,,,,,,,,,,,,,,,,,,,,,,,,,,,,,446.7065760489786,446.7065760489786,446.7065760489786,446.7065760489786,446.7065760489786,446.7065760489786,446.7065760489786,446.7065760489786,446.7065760489786,446.7065760489786,l,1.5660543198464438,10,617,2,448.2902730529895,,449.7926740840776,,,,,,,,,,,,,,,,,,,,,,,,,,,,,,,,,,,,,,,,,,,,,,,,,,,,,,,,,,,,,,,,,,,,,66872,2022-11-02_10h11.18.591,vts_reward_expectancy_bt_OFFLINE,2022.2.4,59.92191934480331,
1,0,0,0,0,1,0,0,triangle,circle,2,0,2,0,1,5,17,0,,,,,,,,,,,,,,,,,,,,,,,,,,,,,,,,,,,,,,,,450.2929792130599,450.2929792130599,450.2929792130599,450.2929792130599,450.2929792130599,450.2929792130599,450.2929792130599,450.2929792130599,450.2929792130599,450.2929792130599,a,1.1721380460076034,1,618,2,451.49488413205836,452.99390250304714,452.99390250304714,,,,,,,,,,,,,,,,,,,,,,,,,,,,,,,,,,,,,,,,,,,,,,,,,,,,,,,,,,,,,,,,,,,,,66872,2022-11-02_10h11.18.591,vts_reward_expectancy_bt_OFFLINE,2022.2.4,59.92191934480331,
0,0,0,1,0,0,1,0,star,hexagon,2,0,2,0,1,6,18,11,,,,,,,,,,,,,,,,,,,,,,,,,,,,,,,,,,,,,,,,453.4967748100171,453.4967748100171,453.4967748100171,453.4967748100171,453.4967748100171,453.4967748100171,453.4967748100171,453.4967748100171,453.4967748100171,453.4967748100171,a,1.2404814749024808,1,619,2,454.7629875750281,456.26353990100324,456.26353990100324,456.7635614309693,,,,,,,,,,,,,,,,,,,,,,,,,,,,,,,,,,,,,,,,,,,,,,,,,,,,,,,,,,,,,,,,,,,,66872,2022-11-02_10h11.18.591,vts_reward_expectancy_bt_OFFLINE,2022.2.4,59.92191934480331,
0,0,0,1,0,1,0,0,star ,circle,2,0,2,0,1,7,19,10,,,,,,,,,,,,,,,,,,,,,,,,,,,,,,,,,,,,,,,,456.7635614309693,456.7635614309693,456.7635614309693,456.7635614309693,456.7635614309693,456.7635614309693,456.7635614309693,456.7635614309693,456.7635614309693,456.7635614309693,a,1.861688633915037,1,620,2,458.64948680705857,460.1501149929827,460.1501149929827,460.6502541290829,,,,,,,,,,,,,,,,,,,,,,,,,,,,,,,,,,,,,,,,,,,,,,,,,,,,,,,,,,,,,,,,,,,,66872,2022-11-02_10h11.18.591,vts_reward_expectancy_bt_OFFLINE,2022.2.4,59.92191934480331,
0,0,1,0,0,1,0,0,hexagon,circle,2,0,2,0,1,8,20,7,,,,,,,,,,,,,,,,,,,,,,,,,,,,,,,,,,,,,,,,460.6502541290829,460.6502541290829,460.6502541290829,460.6502541290829,460.6502541290829,460.6502541290829,460.6502541290829,460.6502541290829,460.6502541290829,460.6502541290829,a,1.550263945828192,1,621,2,462.2175654730527,,463.7199029370677,,,,,,,,,,,,,,,,,,,,,,,,,,,,,,,,,,,,,,,,,,,,,,,,,,,,,,,,,,,,,,,,,,,,,66872,2022-11-02_10h11.18.591,vts_reward_expectancy_bt_OFFLINE,2022.2.4,59.92191934480331,
0,1,0,0,1,0,0,0,circle,triangle,2,0,2,0,1,9,21,3,,,,,,,,,,,,,,,,,,,,,,,,,,,,,,,,,,,,,,,,464.2200801940635,464.2200801940635,464.2200801940635,464.2200801940635,464.2200801940635,464.2200801940635,464.2200801940635,464.2200801940635,464.2200801940635,464.2200801940635,a,0.7090174208860844,1,622,2,464.9539659200236,466.4542852990562,466.4542852990562,466.95431704598013,,,,,,,,,,,,,,,,,,,,,,,,,,,,,,,,,,,,,,,,,,,,,,,,,,,,,,,,,,,,,,,,,,,,66872,2022-11-02_10h11.18.591,vts_reward_expectancy_bt_OFFLINE,2022.2.4,59.92191934480331,
0,1,0,0,0,0,1,0,circle,hexagon,2,0,2,0,1,10,22,4,,,,,,,,,,,,,,,,,,,,,,,,,,,,,,,,,,,,,,,,466.95431704598013,466.95431704598013,466.95431704598013,466.95431704598013,466.95431704598013,466.95431704598013,466.95431704598013,466.95431704598013,466.95431704598013,466.95431704598013,l,1.398398887948133,1,623,2,468.3714605810819,,469.87400875403546,,,,,,,,,,,,,,,,,,,,,,,,,,,,,,,,,,,,,,,,,,,,,,,,,,,,,,,,,,,,,,,,,,,,,66872,2022-11-02_10h11.18.591,vts_reward_expectancy_bt_OFFLINE,2022.2.4,59.92191934480331,
0,0,1,0,0,0,0,1,hexagon,star,2,0,2,0,1,11,23,8,,,,,,,,,,,,,,,,,,,,,,,,,,,,,,,,,,,,,,,,470.37423612899147,470.37423612899147,470.37423612899147,470.37423612899147,470.37423612899147,470.37423612899147,470.37423612899147,470.37423612899147,470.37423612899147,470.37423612899147,l,0.62731712392997,10,633,2,471.026265979046,,472.5415923530236,,,,,,,,,,,,,,,,,,,,,,,,,,,,,,,,,,,,,,,,,,,,,,,,,,,,,,,,,,,,,,,,,,,,,66872,2022-11-02_10h11.18.591,vts_reward_expectancy_bt_OFFLINE,2022.2.4,59.92191934480331,
0,0,0,1,0,0,1,0,star,hexagon,2,0,2,0,2,0,24,11,,,,,,,,,,,,,,,,,,,,,,,,,,,,,,,,,,,,,,,,473.0416896020761,473.0416896020761,473.0416896020761,473.0416896020761,473.0416896020761,473.0416896020761,473.0416896020761,473.0416896020761,473.0416896020761,473.0416896020761,a,2.470913717872463,10,643,2,475.5445320609724,477.04495056404267,477.04495056404267,477.54512597306166,,,,,,,,,,,,,,,,,,,,,,,,,,,,,,,,,,,,,,,,,,,,,,,,,,,,,,,,,,,,,,,,,,,,66872,2022-11-02_10h11.18.591,vts_reward_expectancy_bt_OFFLINE,2022.2.4,59.92191934480331,
1,0,0,0,0,1,0,0,triangle,circle,2,0,2,0,2,1,25,0,,,,,,,,,,,,,,,,,,,,,,,,,,,,,,,,,,,,,,,,477.54512597306166,477.54512597306166,477.54512597306166,477.54512597306166,477.54512597306166,477.54512597306166,477.54512597306166,477.54512597306166,477.54512597306166,477.54512597306166,l,0.7120846048928797,1,644,2,478.28068731201347,,479.7812770990422,,,,,,,,,,,,,,,,,,,,,,,,,,,,,,,,,,,,,,,,,,,,,,,,,,,,,,,,,,,,,,,,,,,,,66872,2022-11-02_10h11.18.591,vts_reward_expectancy_bt_OFFLINE,2022.2.4,59.92191934480331,
0,0,1,0,1,0,0,0,hexagon,triangle,2,0,2,0,2,2,26,6,,,,,,,,,,,,,,,,,,,,,,,,,,,,,,,,,,,,,,,,480.2813289599726,480.2813289599726,480.2813289599726,480.2813289599726,480.2813289599726,480.2813289599726,480.2813289599726,480.2813289599726,480.2813289599726,480.2813289599726,l,1.3275559319881722,10,654,2,481.6335625810316,,483.14908179000486,,,,,,,,,,,,,,,,,,,,,,,,,,,,,,,,,,,,,,,,,,,,,,,,,,,,,,,,,,,,,,,,,,,,,66872,2022-11-02_10h11.18.591,vts_reward_expectancy_bt_OFFLINE,2022.2.4,59.92191934480331,
1,0,0,0,0,0,0,1,triangle,star,2,0,2,0,2,3,27,2,,,,,,,,,,,,,,,,,,,,,,,,,,,,,,,,,,,,,,,,483.6345152279828,483.6345152279828,483.6345152279828,483.6345152279828,483.6345152279828,483.6345152279828,483.6345152279828,483.6345152279828,483.6345152279828,483.6345152279828,l,0.7819846420316026,10,664,2,484.43446110002697,485.93501917400863,485.93501917400863,,,,,,,,,,,,,,,,,,,,,,,,,,,,,,,,,,,,,,,,,,,,,,,,,,,,,,,,,,,,,,,,,,,,,66872,2022-11-02_10h11.18.591,vts_reward_expectancy_bt_OFFLINE,2022.2.4,59.92191934480331,
0,0,0,1,0,1,0,0,star ,circle,2,0,2,0,2,4,28,10,,,,,,,,,,,,,,,,,,,,,,,,,,,,,,,,,,,,,,,,486.43535724200774,486.43535724200774,486.43535724200774,486.43535724200774,486.43535724200774,486.43535724200774,486.43535724200774,486.43535724200774,486.43535724200774,486.43535724200774,a,0.4217676939442754,10,674,2,486.8854105999926,488.3861177590443,488.3861177590443,,,,,,,,,,,,,,,,,,,,,,,,,,,,,,,,,,,,,,,,,,,,,,,,,,,,,,,,,,,,,,,,,,,,,66872,2022-11-02_10h11.18.591,vts_reward_expectancy_bt_OFFLINE,2022.2.4,59.92191934480331,
0,0,0,1,1,0,0,0,star,triangle,2,0,2,0,2,5,29,9,,,,,,,,,,,,,,,,,,,,,,,,,,,,,,,,,,,,,,,,488.88799565902445,488.88799565902445,488.88799565902445,488.88799565902445,488.88799565902445,488.88799565902445,488.88799565902445,488.88799565902445,488.88799565902445,488.88799565902445,l,0.5374774049269035,10,684,2,489.4546763220569,490.95552072906867,490.95552072906867,491.4556338740513,,,,,,,,,,,,,,,,,,,,,,,,,,,,,,,,,,,,,,,,,,,,,,,,,,,,,,,,,,,,,,,,,,,,66872,2022-11-02_10h11.18.591,vts_reward_expectancy_bt_OFFLINE,2022.2.4,59.92191934480331,
0,1,0,0,1,0,0,0,circle,triangle,2,0,2,0,2,6,30,3,,,,,,,,,,,,,,,,,,,,,,,,,,,,,,,,,,,,,,,,491.4556338740513,491.4556338740513,491.4556338740513,491.4556338740513,491.4556338740513,491.4556338740513,491.4556338740513,491.4556338740513,491.4556338740513,491.4556338740513,a,1.088944294839166,10,694,2,492.5727063330123,,494.07509341905825,,,,,,,,,,,,,,,,,,,,,,,,,,,,,,,,,,,,,,,,,,,,,,,,,,,,,,,,,,,,,,,,,,,,,66872,2022-11-02_10h11.18.591,vts_reward_expectancy_bt_OFFLINE,2022.2.4,59.92191934480331,
0,0,1,0,0,0,0,1,hexagon,star,2,0,2,0,2,7,31,8,,,,,,,,,,,,,,,,,,,,,,,,,,,,,,,,,,,,,,,,494.5753075539833,494.5753075539833,494.5753075539833,494.5753075539833,494.5753075539833,494.5753075539833,494.5753075539833,494.5753075539833,494.5753075539833,494.5753075539833,l,0.658101110951975,10,704,2,495.25904891605023,496.75938965403475,496.75938965403475,497.2597674350254,,,,,,,,,,,,,,,,,,,,,,,,,,,,,,,,,,,,,,,,,,,,,,,,,,,,,,,,,,,,,,,,,,,,66872,2022-11-02_10h11.18.591,vts_reward_expectancy_bt_OFFLINE,2022.2.4,59.92191934480331,
0,1,0,0,0,0,0,1,circle,star,2,0,2,0,2,8,32,5,,,,,,,,,,,,,,,,,,,,,,,,,,,,,,,,,,,,,,,,497.2597674350254,497.2597674350254,497.2597674350254,497.2597674350254,497.2597674350254,497.2597674350254,497.2597674350254,497.2597674350254,497.2597674350254,497.2597674350254,l,0.4130773729411885,1,705,2,497.6952556279721,,499.1955257130321,,,,,,,,,,,,,,,,,,,,,,,,,,,,,,,,,,,,,,,,,,,,,,,,,,,,,,,,,,,,,,,,,,,,,66872,2022-11-02_10h11.18.591,vts_reward_expectancy_bt_OFFLINE,2022.2.4,59.92191934480331,
0,1,0,0,0,0,1,0,circle,hexagon,2,0,2,0,2,9,33,4,,,,,,,,,,,,,,,,,,,,,,,,,,,,,,,,,,,,,,,,499.69557858700864,499.69557858700864,499.69557858700864,499.69557858700864,499.69557858700864,499.69557858700864,499.69557858700864,499.69557858700864,499.69557858700864,499.69557858700864,l,0.7301956209121272,1,706,2,500.44596175907645,501.946407924057,501.946407924057,502.4465527200373,,,,,,,,,,,,,,,,,,,,,,,,,,,,,,,,,,,,,,,,,,,,,,,,,,,,,,,,,,,,,,,,,,,,66872,2022-11-02_10h11.18.591,vts_reward_expectancy_bt_OFFLINE,2022.2.4,59.92191934480331,
0,0,1,0,0,1,0,0,hexagon,circle,2,0,2,0,2,10,34,7,,,,,,,,,,,,,,,,,,,,,,,,,,,,,,,,,,,,,,,,502.4465527200373,502.4465527200373,502.4465527200373,502.4465527200373,502.4465527200373,502.4465527200373,502.4465527200373,502.4465527200373,502.4465527200373,502.4465527200373,l,0.4580881359288469,10,716,2,502.93207913206425,,504.4325604980113,,,,,,,,,,,,,,,,,,,,,,,,,,,,,,,,,,,,,,,,,,,,,,,,,,,,,,,,,,,,,,,,,,,,,66872,2022-11-02_10h11.18.591,vts_reward_expectancy_bt_OFFLINE,2022.2.4,59.92191934480331,
1,0,0,0,0,0,1,0,triangle,hexagon,2,0,2,0,2,11,35,1,,,,,,,,,,,,,,,,,,,,,,,,,,,,,,,,,,,,,,,,504.9327084759716,504.9327084759716,504.9327084759716,504.9327084759716,504.9327084759716,504.9327084759716,504.9327084759716,504.9327084759716,504.9327084759716,504.9327084759716,l,1.764459597878158,1,717,2,506.71828375407495,,508.2339650640497,,,,,,,,,,,,,,,,,,,,,,,,,,,,,,,,,,,,,,,,,,,,,,,,,,,,,,,,,,,,,,,,,,,,,66872,2022-11-02_10h11.18.591,vts_reward_expectancy_bt_OFFLINE,2022.2.4,59.92191934480331,
0,0,0,1,0,0,1,0,star,hexagon,2,0,2,0,3,0,36,11,,,,,,,,,,,,,,,,,,,,,,,,,,,,,,,,,,,,,,,,508.71921324101277,508.71921324101277,508.71921324101277,508.71921324101277,508.71921324101277,508.71921324101277,508.71921324101277,508.71921324101277,508.71921324101277,508.71921324101277,l,0.7373257088474929,10,727,2,509.48851083707996,,511.00345272605773,,,,,,,,,,,,,,,,,,,,,,,,,,,,,,,,,,,,,,,,,,,,,,,,,,,,,,,,,,,,,,,,,,,,,66872,2022-11-02_10h11.18.591,vts_reward_expectancy_bt_OFFLINE,2022.2.4,59.92191934480331,
0,0,0,1,1,0,0,0,star,triangle,2,0,2,0,3,1,37,9,,,,,,,,,,,,,,,,,,,,,,,,,,,,,,,,,,,,,,,,511.50358004204463,511.50358004204463,511.50358004204463,511.50358004204463,511.50358004204463,511.50358004204463,511.50358004204463,511.50358004204463,511.50358004204463,511.50358004204463,a,3.169874494895339,1,728,2,514.6926094170194,,516.2072846990777,,,,,,,,,,,,,,,,,,,,,,,,,,,,,,,,,,,,,,,,,,,,,,,,,,,,,,,,,,,,,,,,,,,,,66872,2022-11-02_10h11.18.591,vts_reward_expectancy_bt_OFFLINE,2022.2.4,59.92191934480331,
1,0,0,0,0,1,0,0,triangle,circle,2,0,2,0,3,2,38,0,,,,,,,,,,,,,,,,,,,,,,,,,,,,,,,,,,,,,,,,516.707316518994,516.707316518994,516.707316518994,516.707316518994,516.707316518994,516.707316518994,516.707316518994,516.707316518994,516.707316518994,516.707316518994,l,1.0132254689233378,10,738,2,517.7429424700094,,519.2433380329749,,,,,,,,,,,,,,,,,,,,,,,,,,,,,,,,,,,,,,,,,,,,,,,,,,,,,,,,,,,,,,,,,,,,,66872,2022-11-02_10h11.18.591,vts_reward_expectancy_bt_OFFLINE,2022.2.4,59.92191934480331,
0,1,0,0,0,0,0,1,circle,star,2,0,2,0,3,3,39,5,,,,,,,,,,,,,,,,,,,,,,,,,,,,,,,,,,,,,,,,519.7435368390288,519.7435368390288,519.7435368390288,519.7435368390288,519.7435368390288,519.7435368390288,519.7435368390288,519.7435368390288,519.7435368390288,519.7435368390288,l,0.5375263708410785,10,748,2,520.3103823650163,521.8109080289723,521.8109080289723,522.3112244859803,,,,,,,,,,,,,,,,,,,,,,,,,,,,,,,,,,,,,,,,,,,,,,,,,,,,,,,,,,,,,,,,,,,,66872,2022-11-02_10h11.18.591,vts_reward_expectancy_bt_OFFLINE,2022.2.4,59.92191934480331,
0,1,0,0,1,0,0,0,circle,triangle,2,0,2,0,3,4,40,3,,,,,,,,,,,,,,,,,,,,,,,,,,,,,,,,,,,,,,,,522.3112244859803,522.3112244859803,522.3112244859803,522.3112244859803,522.3112244859803,522.3112244859803,522.3112244859803,522.3112244859803,522.3112244859803,522.3112244859803,l,0.7454053129767999,10,758,2,523.0784059250727,,524.5805383949773,,,,,,,,,,,,,,,,,,,,,,,,,,,,,,,,,,,,,,,,,,,,,,,,,,,,,,,,,,,,,,,,,,,,,66872,2022-11-02_10h11.18.591,vts_reward_expectancy_bt_OFFLINE,2022.2.4,59.92191934480331,
1,0,0,0,0,0,1,0,triangle,hexagon,2,0,2,0,3,5,41,1,,,,,,,,,,,,,,,,,,,,,,,,,,,,,,,,,,,,,,,,525.0806721000699,525.0806721000699,525.0806721000699,525.0806721000699,525.0806721000699,525.0806721000699,525.0806721000699,525.0806721000699,525.0806721000699,525.0806721000699,a,0.8003996199695393,10,768,2,525.8980852629757,527.3980871710228,527.3980871710228,527.8983356740791,,,,,,,,,,,,,,,,,,,,,,,,,,,,,,,,,,,,,,,,,,,,,,,,,,,,,,,,,,,,,,,,,,,,66872,2022-11-02_10h11.18.591,vts_reward_expectancy_bt_OFFLINE,2022.2.4,59.92191934480331,
0,0,1,0,0,1,0,0,hexagon,circle,2,0,2,0,3,6,42,7,,,,,,,,,,,,,,,,,,,,,,,,,,,,,,,,,,,,,,,,527.8983356740791,527.8983356740791,527.8983356740791,527.8983356740791,527.8983356740791,527.8983356740791,527.8983356740791,527.8983356740791,527.8983356740791,527.8983356740791,l,0.9432180429575965,10,778,2,528.8671584919794,530.3677143150708,530.3677143150708,530.8679696799954,,,,,,,,,,,,,,,,,,,,,,,,,,,,,,,,,,,,,,,,,,,,,,,,,,,,,,,,,,,,,,,,,,,,66872,2022-11-02_10h11.18.591,vts_reward_expectancy_bt_OFFLINE,2022.2.4,59.92191934480331,
0,0,0,1,0,1,0,0,star ,circle,2,0,2,0,3,7,43,10,,,,,,,,,,,,,,,,,,,,,,,,,,,,,,,,,,,,,,,,530.8679696799954,530.8679696799954,530.8679696799954,530.8679696799954,530.8679696799954,530.8679696799954,530.8679696799954,530.8679696799954,530.8679696799954,530.8679696799954,a,0.9565922499168664,10,788,2,531.8516054970678,533.3522519880207,533.3522519880207,,,,,,,,,,,,,,,,,,,,,,,,,,,,,,,,,,,,,,,,,,,,,,,,,,,,,,,,,,,,,,,,,,,,,66872,2022-11-02_10h11.18.591,vts_reward_expectancy_bt_OFFLINE,2022.2.4,59.92191934480331,
0,0,1,0,1,0,0,0,hexagon,triangle,2,0,2,0,3,8,44,6,,,,,,,,,,,,,,,,,,,,,,,,,,,,,,,,,,,,,,,,533.8539387860801,533.8539387860801,533.8539387860801,533.8539387860801,533.8539387860801,533.8539387860801,533.8539387860801,533.8539387860801,533.8539387860801,533.8539387860801,a,0.8671559899812564,10,798,2,534.7382636740804,536.2382994539803,536.2382994539803,536.7383151450194,,,,,,,,,,,,,,,,,,,,,,,,,,,,,,,,,,,,,,,,,,,,,,,,,,,,,,,,,,,,,,,,,,,,66872,2022-11-02_10h11.18.591,vts_reward_expectancy_bt_OFFLINE,2022.2.4,59.92191934480331,
0,1,0,0,0,0,1,0,circle,hexagon,2,0,2,0,3,9,45,4,,,,,,,,,,,,,,,,,,,,,,,,,,,,,,,,,,,,,,,,536.7383151450194,536.7383151450194,536.7383151450194,536.7383151450194,536.7383151450194,536.7383151450194,536.7383151450194,536.7383151450194,536.7383151450194,536.7383151450194,a,1.0303287619026378,10,808,2,537.7889095330611,,539.291225085035,,,,,,,,,,,,,,,,,,,,,,,,,,,,,,,,,,,,,,,,,,,,,,,,,,,,,,,,,,,,,,,,,,,,,66872,2022-11-02_10h11.18.591,vts_reward_expectancy_bt_OFFLINE,2022.2.4,59.92191934480331,
0,0,1,0,0,0,0,1,hexagon,star,2,0,2,0,3,10,46,8,,,,,,,,,,,,,,,,,,,,,,,,,,,,,,,,,,,,,,,,539.7915314390557,539.7915314390557,539.7915314390557,539.7915314390557,539.7915314390557,539.7915314390557,539.7915314390557,539.7915314390557,539.7915314390557,539.7915314390557,a,0.9052623929455876,1,809,2,540.7272343169898,,542.2424779969733,,,,,,,,,,,,,,,,,,,,,,,,,,,,,,,,,,,,,,,,,,,,,,,,,,,,,,,,,,,,,,,,,,,,,66872,2022-11-02_10h11.18.591,vts_reward_expectancy_bt_OFFLINE,2022.2.4,59.92191934480331,
1,0,0,0,0,0,0,1,triangle,star,2,0,2,0,3,11,47,2,,,,,,,,,,,,,,,,,,,,,,,,,,,,,,,,,,,,,,,,542.7425559869735,542.7425559869735,542.7425559869735,542.7425559869735,542.7425559869735,542.7425559869735,542.7425559869735,542.7425559869735,542.7425559869735,542.7425559869735,l,0.6910569389583543,1,810,2,543.4592125359923,,544.9619307940593,,,,,,,,,,,,,,,,,,,,,,,,,,,,,,,,,,,,,,,,,,,,,,,,,,,,,,,,,,,,,,,,,,,,,66872,2022-11-02_10h11.18.591,vts_reward_expectancy_bt_OFFLINE,2022.2.4,59.92191934480331,
,,,,,,,,,,,,,,,,,,0,0,0,0,0,0,0,0,,,,,,,,,,,,,,,,,,,,,,,,,,,,,,,,,,,,,,,,,,,,,,,,,593.0790946640773,,174,H,triangle,0.0006243210518732667,587.3551308850292,588.8442586869933,588.8442586869933,588.8442586869933,1,0,f,2.6929936188971624,0,591.5651294110576,,,,,,,,,,,,,,,,,,,,,,,,,,,,,,,,,,,,,,,,,,,,,,,,,,,,,,66872,2022-11-02_10h11.18.591,vts_reward_expectancy_bt_OFFLINE,2022.2.4,59.92191934480331,
,,,,,,,,,,,,,,,,,,0,0,0,0,1,0,1,0,,,,,,,,,,,,,,,,,,,,,,,,,,,,,,,,,,,,,,,,,,,,,,,,,597.6658303349977,,181,B,hexagon,0.014863294898532331,594.0745973529993,595.5484193409793,595.5484193409793,595.5484193409793,1,0,f,0.5886633259942755,0,596.1655602840474,597.6658303349977,,,,,,,,,,,,,,,,,,,,,,,,,,,,,,,,,,,,,,,,,,,,,,,,,,,,,66872,2022-11-02_10h11.18.591,vts_reward_expectancy_bt_OFFLINE,2022.2.4,59.92191934480331,
,,,,,,,,,,,,,,,,,,0,0,0,0,2,0,2,0,,,,,,,,,,,,,,,,,,,,,,,,,,,,,,,,,,,,,,,,,,,,,,,,,602.4025731660658,,167,D,star,0.0003384150331839919,598.6615693580825,600.1518930620514,600.1518930620514,600.1518930620514,1,0,f,0.7294845299329609,0,600.901996485074,602.4025731660658,,,,,,,,,,,,,,,,,,,,,,,,,,,,,,,,,,,,,,,,,,,,,,,,,,,,,66872,2022-11-02_10h11.18.591,vts_reward_expectancy_bt_OFFLINE,2022.2.4,59.92191934480331,
,,,,,,,,,,,,,,,,,,0,0,0,0,3,0,3,0,,,,,,,,,,,,,,,,,,,,,,,,,,,,,,,,,,,,,,,,,,,,,,,,,607.0563554170076,607.556321375072,125,S,circle,0.00047067005652934313,603.3993786100764,604.8887038039975,604.8887038039975,604.8887038039975,1,0,d,0.6404444358777255,0,605.5558984980453,607.0563554170076,,,,,,,,,,,,,,,,,,,,,,,,,,,,,,,,,,,,,,,,,,,,,,,,,,,,,66872,2022-11-02_10h11.18.591,vts_reward_expectancy_bt_OFFLINE,2022.2.4,59.92191934480331,
,,,,,,,,,,,,,,,,,,0,0,0,0,4,0,4,0,,,,,,,,,,,,,,,,,,,,,,,,,,,,,,,,,,,,,,,,,,,,,,,,,611.7431623630691,,132,Y,circle,0.0005723489448428154,608.0526529620402,609.5420274239732,609.5420274239732,609.5420274239732,1,0,d,0.6825991509249434,0,610.2428487070138,611.7431623630691,,,,,,,,,,,,,,,,,,,,,,,,,,,,,,,,,,,,,,,,,,,,,,,,,,,,,66872,2022-11-02_10h11.18.591,vts_reward_expectancy_bt_OFFLINE,2022.2.4,59.92191934480331,
,,,,,,,,,,,,,,,,,,0,0,0,0,5,0,5,0,,,,,,,,,,,,,,,,,,,,,,,,,,,,,,,,,,,,,,,,,,,,,,,,,616.4799743799958,616.980020674062,160,W,hexagon,0.0003159439656883478,612.7393938889727,614.2290411810391,614.2290411810391,614.2290411810391,1,0,f,0.7235976018710062,0,614.9798301080009,616.4799743799958,,,,,,,,,,,,,,,,,,,,,,,,,,,,,,,,,,,,,,,,,,,,,,,,,,,,,66872,2022-11-02_10h11.18.591,vts_reward_expectancy_bt_OFFLINE,2022.2.4,59.92191934480331,
,,,,,,,,,,,,,,,,,,0,0,0,0,6,0,6,0,,,,,,,,,,,,,,,,,,,,,,,,,,,,,,,,,,,,,,,,,,,,,,,,,621.6002246639691,622.100452122977,139,U,star,0.00041894998867064714,617.476395218051,618.9658481869847,618.9658481869847,618.9658481869847,1,0,d,1.1150271489750594,0,620.1003865919774,621.6002246639691,,,,,,,,,,,,,,,,,,,,,,,,,,,,,,,,,,,,,,,,,,,,,,,,,,,,,66872,2022-11-02_10h11.18.591,vts_reward_expectancy_bt_OFFLINE,2022.2.4,59.92191934480331,
,,,,,,,,,,,,,,,,,,0,0,0,0,7,0,7,0,,,,,,,,,,,,,,,,,,,,,,,,,,,,,,,,,,,,,,,,,,,,,,,,,626.2703723669983,626.7704477370717,146,F,triangle,0.0003774838987737894,622.596665036981,624.0863072189968,624.0863072189968,624.0863072189968,1,0,d,0.6593621098436415,0,624.7699670660077,626.2703723669983,,,,,,,,,,,,,,,,,,,,,,,,,,,,,,,,,,,,,,,,,,,,,,,,,,,,,66872,2022-11-02_10h11.18.591,vts_reward_expectancy_bt_OFFLINE,2022.2.4,59.92191934480331,
,,,,,,,,,,,,,,,,,,0,0,0,0,8,0,8,0,,,,,,,,,,,,,,,,,,,,,,,,,,,,,,,,,,,,,,,,,,,,,,,,,630.7907660619821,631.290695499978,174,H,star,0.00037909403908997774,627.2658716250444,628.756589391036,628.756589391036,628.756589391036,1,0,f,0.5003508708905429,0,629.2899293589871,630.7907660619821,,,,,,,,,,,,,,,,,,,,,,,,,,,,,,,,,,,,,,,,,,,,,,,,,,,,,66872,2022-11-02_10h11.18.591,vts_reward_expectancy_bt_OFFLINE,2022.2.4,59.92191934480331,
,,,,,,,,,,,,,,,,,,0,0,0,0,9,0,9,0,,,,,,,,,,,,,,,,,,,,,,,,,,,,,,,,,,,,,,,,,,,,,,,,,635.8110763360746,636.3209459800273,181,B,triangle,4.833098500967026e-05,631.7862986359978,633.274906840059,633.274906840059,633.274906840059,1,0,f,1.013708264916204,0,634.3110674470663,635.8110763360746,,,,,,,,,,,,,,,,,,,,,,,,,,,,,,,,,,,,,,,,,,,,,,,,,,,,,66872,2022-11-02_10h11.18.591,vts_reward_expectancy_bt_OFFLINE,2022.2.4,59.92191934480331,
,,,,,,,,,,,,,,,,,,,,,,,,,,0,0,0,0,0,0,0,0,,,,,,,,,,,,,,,,,,,,,,,,,,,,,,,,,,,,,,,,,659.5619719499955,,174,S,star,0.0023653899552300572,,,,,1,0,,,1,658.0604600120569,,655.287757134065,656.7758564850083,656.7758564850083,656.7758564850083,k,1.2650336299557239,,,,,,,,,,,,,,,,,,,,,,,,,,,,,,,,,,,,,,,,,,,,,,,66872,2022-11-02_10h11.18.591,vts_reward_expectancy_bt_OFFLINE,2022.2.4,59.92191934480331,
,,,,,,,,,,,,,,,,,,,,,,,,,,0,0,0,0,1,0,1,0,,,,,,,,,,,,,,,,,,,,,,,,,,,,,,,,,,,,,,,,,664.6824134020135,,181,U,triangle,0.0018595600267872214,,,,,0,0,,,1,663.1834248380037,,660.5577054140158,662.046288165031,662.046288165031,662.046288165031,j,1.1068359188502654,,,,,,,,,,,,,,,,,,,,,,,,,,,,,,,,,,,,,,,,,,,,,,,66872,2022-11-02_10h11.18.591,vts_reward_expectancy_bt_OFFLINE,2022.2.4,59.92191934480331,
,,,,,,,,,,,,,,,,,,,,,,,,,,0,0,0,0,2,0,2,0,,,,,,,,,,,,,,,,,,,,,,,,,,,,,,,,,,,,,,,,,670.502768601058,,125,H,circle,0.0020806180546060205,,,,,1,1,,,1,668.9882267339854,,665.6783917020075,667.1666267390829,667.1666267390829,667.1666267390829,j,1.802210949943401,,,,,,,,,,,,,,,,,,,,,,,,,,,,,,,,,,,,,,,,,,,,,,,66872,2022-11-02_10h11.18.591,vts_reward_expectancy_bt_OFFLINE,2022.2.4,59.92191934480331,
,,,,,,,,,,,,,,,,,,,,,,,,,,0,0,0,0,3,0,3,0,,,,,,,,,,,,,,,,,,,,,,,,,,,,,,,,,,,,,,,,,674.9061595440144,,139,B,hexagon,0.0003108979435637593,,,,,1,0,,,1,673.4045041770441,,671.4821477209916,672.9705699790502,672.9705699790502,672.9705699790502,j,0.4067748138913885,,,,,,,,,,,,,,,,,,,,,,,,,,,,,,,,,,,,,,,,,,,,,,,66872,2022-11-02_10h11.18.591,vts_reward_expectancy_bt_OFFLINE,2022.2.4,59.92191934480331,
,,,,,,,,,,,,,,,,,,,,,,,,,,0,0,0,0,4,0,4,0,,,,,,,,,,,,,,,,,,,,,,,,,,,,,,,,,,,,,,,,,679.3930504170712,,132,Y,triangle,0.0017458850052207708,,,,,1,0,,,1,677.8915793040069,,675.902077812003,677.3906831400236,677.3906831400236,677.3906831400236,k,0.4824881299864501,,,,,,,,,,,,,,,,,,,,,,,,,,,,,,,,,,,,,,,,,,,,,,,66872,2022-11-02_10h11.18.591,vts_reward_expectancy_bt_OFFLINE,2022.2.4,59.92191934480331,
,,,,,,,,,,,,,,,,,,,,,,,,,,0,0,0,0,5,0,5,0,,,,,,,,,,,,,,,,,,,,,,,,,,,,,,,,,,,,,,,,,684.046703436994,,167,D,circle,0.001959030982106924,,,,,1,0,,,1,682.5445280700224,,680.3890694830334,681.8773515240755,681.8773515240755,681.8773515240755,j,0.6441425369121134,,,,,,,,,,,,,,,,,,,,,,,,,,,,,,,,,,,,,,,,,,,,,,,66872,2022-11-02_10h11.18.591,vts_reward_expectancy_bt_OFFLINE,2022.2.4,59.92191934480331,
,,,,,,,,,,,,,,,,,,,,,,,,,,0,0,0,0,6,0,6,0,,,,,,,,,,,,,,,,,,,,,,,,,,,,,,,,,,,,,,,,,688.7836780850776,,160,W,hexagon,0.0020202649757266045,,,,,1,0,,,1,687.2818993100664,,685.0415555940708,686.5308050010353,686.5308050010353,686.5308050010353,k,0.7338231708854437,,,,,,,,,,,,,,,,,,,,,,,,,,,,,,,,,,,,,,,,,,,,,,,66872,2022-11-02_10h11.18.591,vts_reward_expectancy_bt_OFFLINE,2022.2.4,59.92191934480331,
,,,,,,,,,,,,,,,,,,,,,,,,,,0,0,0,0,7,0,7,0,,,,,,,,,,,,,,,,,,,,,,,,,,,,,,,,,,,,,,,,,693.4184501640266,,146,F,star,0.0015821020351722836,,,,,1,0,,,1,691.918474584003,693.4184501640266,689.7788385520689,691.2677153570112,691.2677153570112,691.2677153570112,j,0.6213728878647089,,,,,,,,,,,,,,,,,,,,,,,,,,,,,,,,,,,,,,,,,,,,,,,66872,2022-11-02_10h11.18.591,vts_reward_expectancy_bt_OFFLINE,2022.2.4,59.92191934480331,
,,,,,,,,,,,,,,,,,,,,,,,,,,0,0,0,0,8,0,8,0,,,,,,,,,,,,,,,,,,,,,,,,,,,,,,,,,,,,,,,,,698.0885786250001,698.5887718090089,174,S,circle,0.0019163510296493769,,,,,1,0,,,1,696.588684597984,698.0885786250001,694.4151357810479,695.9046886740252,695.9046886740252,695.9046886740252,k,0.6644325079396367,,,,,,,,,,,,,,,,,,,,,,,,,,,,,,,,,,,,,,,,,,,,,,,66872,2022-11-02_10h11.18.591,vts_reward_expectancy_bt_OFFLINE,2022.2.4,59.92191934480331,
,,,,,,,,,,,,,,,,,,,,,,,,,,0,0,0,0,9,0,9,0,,,,,,,,,,,,,,,,,,,,,,,,,,,,,,,,,,,,,,,,,703.6405873550102,,181,U,star,0.00036107900086790323,,,,,1,0,,,1,702.1425452920375,703.6405873550102,699.0848965580808,700.5749375800369,700.5749375800369,700.5749375800369,k,1.5462178929010406,,,,,,,,,,,,,,,,,,,,,,,,,,,,,,,,,,,,,,,,,,,,,,,66872,2022-11-02_10h11.18.591,vts_reward_expectancy_bt_OFFLINE,2022.2.4,59.92191934480331,
,,,,,,,,,,,,,,,,,,,,,,,,,,,,,,,,,,0,0,0,0,0,0,0,0,,,,,,,,,,,,,,,,,,,,,,,,,,,,0,810,,,,771.2094023179961,,132,U,triangle,0.0025624579284340143,,,,,-1,0,,,2,,,,,,,,,765.2020869250409,765.2020869250409,765.2020869250409,765.2020869250409,766.6892309800023,766.6892309800023,766.6892309800023,766.6892309800023,766.705851022969,766.705851022969,766.705851022969,766.705851022969,769.6955831910018,769.6955831910018,769.6955831910018,769.6955831910018,-1,no_choice,NA,None,vtsPrac,769.6955831910018,,,,,,,,,,,,,,,,,,,,,,,,,66872,2022-11-02_10h11.18.591,vts_reward_expectancy_bt_OFFLINE,2022.2.4,59.92191934480331,
,,,,,,,,,,,,,,,,,,,,,,,,,,,,,,,,,,0,0,0,0,1,0,1,0,,,,,,,,,,,,,,,,,,,,,,,,,,,,0,810,,,,776.6463616080582,,160,H,hexagon,0.006601138040423393,,,,,1,0,,,2,,,,,,,,,772.2056220370578,772.2056220370578,772.2056220370578,772.2056220370578,773.6913001430221,773.6913001430221,773.6913001430221,773.6913001430221,773.7028345239814,773.7028345239814,773.7028345239814,773.7028345239814,,,,,switch,number,numSwt,f,vtsPrac,775.1327163340757,1.413472449989058,,,,,,,,,,,,,,,,,,,,,,,,66872,2022-11-02_10h11.18.591,vts_reward_expectancy_bt_OFFLINE,2022.2.4,59.92191934480331,
,,,,,,,,,,,,,,,,,,,,,,,,,,,,,,,,,,0,0,0,0,2,0,2,0,,,,,,,,,,,,,,,,,,,,,,,,,,,,0,810,,,,781.8500084370608,,167,B,circle,0.01672443700954318,,,,,1,0,,,2,,,,,,,,,777.6430386060383,777.6430386060383,777.6430386060383,777.6430386060383,779.1157075340161,779.1157075340161,779.1157075340161,779.1157075340161,779.1488792720484,779.1488792720484,779.1488792720484,779.1488792720484,,,,,repeat,number,numRpt,f,vtsPrac,780.3362782279728,1.1889421518426389,,,,,,,,,,,,,,,,,,,,,,,,66872,2022-11-02_10h11.18.591,vts_reward_expectancy_bt_OFFLINE,2022.2.4,59.92191934480331,
,,,,,,,,,,,,,,,,,,,,,,,,,,,,,,,,,,0,0,0,0,3,0,3,0,,,,,,,,,,,,,,,,,,,,,,,,,,,,0,810,,,,787.3372273090063,787.8375245750649,146,F,star,0.01712248509284109,,,,,1,0,,,2,,,,,,,,,782.8469559940277,782.8469559940277,782.8469559940277,782.8469559940277,784.3194345700322,784.3194345700322,784.3194345700322,784.3194345700322,784.3529370020842,784.3529370020842,784.3529370020842,784.3529370020842,,,,,repeat,number,numRpt,d,vtsPrac,785.8374990089796,1.4972360979299992,787.3372273090063,,,,,,,,,,,,,,,,,,,,,,,66872,2022-11-02_10h11.18.591,vts_reward_expectancy_bt_OFFLINE,2022.2.4,59.92191934480331,
,,,,,,,,,,,,,,,,,,,,,,,,,,,,,,,,,,0,0,0,0,4,0,4,0,,,,,,,,,,,,,,,,,,,,,,,,,,,,0,810,,,,792.4911666819826,792.991232154076,132,U,star,0.0005582779413089156,,,,,1,0,,,2,,,,,,,,,788.3338047730504,788.3338047730504,788.3338047730504,788.3338047730504,789.8231997300172,789.8231997300172,789.8231997300172,789.8231997300172,789.8398968530819,789.8398968530819,789.8398968530819,789.8398968530819,,,,,repeat,number,numRpt,d,vtsPrac,790.9911469210638,1.1378798689693213,792.4911666819826,,,,,,,,,,,,,,,,,,,,,,,66872,2022-11-02_10h11.18.591,vts_reward_expectancy_bt_OFFLINE,2022.2.4,59.92191934480331,
,,,,,,,,,,,,,,,,,,,,,,,,,,,,,,,,,,0,0,0,0,5,0,5,0,,,,,,,,,,,,,,,,,,,,,,,,,,,,0,810,,,,798.2448139680782,,160,H,triangle,0.0003580779302865267,,,,,1,0,,,2,,,,,,,,,793.4867425820557,793.4867425820557,793.4867425820557,793.4867425820557,794.9770649600541,794.9770649600541,794.9770649600541,794.9770649600541,794.9937317260774,794.9937317260774,794.9937317260774,794.9937317260774,,,,,repeat,number,numRpt,f,vtsPrac,796.7448379780399,1.7443404268706217,798.2448139680782,,,,,,,,,,,,,,,,,,,,,,,66872,2022-11-02_10h11.18.591,vts_reward_expectancy_bt_OFFLINE,2022.2.4,59.92191934480331,
,,,,,,,,,,,,,,,,,,,,,,,,,,,,,,,,,,0,0,0,0,6,0,6,0,,,,,,,,,,,,,,,,,,,,,,,,,,,,0,810,,,,803.131669708062,,167,B,triangle,0.004978645010851324,,,,,0,0,,,2,,,,,,,,,799.2437978640664,799.2437978640664,799.2437978640664,799.2437978640664,800.7306912869681,800.7306912869681,800.7306912869681,800.7306912869681,800.747426919057,800.747426919057,800.747426919057,800.747426919057,,,,,repeat,number,NA,d,vtsPrac,801.6180646290304,0.8621661940123886,,,,,,,,,,,,,,,,,,,,,,,,66872,2022-11-02_10h11.18.591,vts_reward_expectancy_bt_OFFLINE,2022.2.4,59.92191934480331,
,,,,,,,,,,,,,,,,,,,,,,,,,,,,,,,,,,0,0,0,0,7,0,7,0,,,,,,,,,,,,,,,,,,,,,,,,,,,,0,810,,,,808.55225091998,,146,F,circle,0.016987557988613844,,,,,0,1,,,2,,,,,,,,,804.1281819000142,804.1281819000142,804.1281819000142,804.1281819000142,805.6012836130103,805.6012836130103,805.6012836130103,805.6012836130103,805.6345723740524,805.6345723740524,805.6345723740524,805.6345723740524,,,,,switch,letter,NA,k,vtsPrac,807.038264351082,1.4079809879185632,,,,,,,,,,,,,,,,,,,,,,,,66872,2022-11-02_10h11.18.591,vts_reward_expectancy_bt_OFFLINE,2022.2.4,59.92191934480331,
,,,,,,,,,,,,,,,,,,,,,,,,,,,,,,,,,,0,0,0,0,8,0,8,0,,,,,,,,,,,,,,,,,,,,,,,,,,,,0,810,,,,813.6222389769973,,160,B,triangle,0.0019343600142747164,,,,,1,1,,,2,,,,,,,,,809.5329776189756,809.5329776189756,809.5329776189756,809.5329776189756,811.0214882500004,811.0214882500004,811.0214882500004,811.0214882500004,811.0383878459688,811.0383878459688,811.0383878459688,811.0383878459688,,,,,switch,number,numSwt,f,vtsPrac,812.1209479219979,1.0594405049923807,,,,,,,,,,,,,,,,,,,,,,,,66872,2022-11-02_10h11.18.591,vts_reward_expectancy_bt_OFFLINE,2022.2.4,59.92191934480331,
,,,,,,,,,,,,,,,,,,,,,,,,,,,,,,,,,,0,0,0,0,9,0,9,0,,,,,,,,,,,,,,,,,,,,,,,,,,,,0,810,,,,819.0115271050017,,146,S,star,0.0018589479150250554,,,,,1,0,,,2,,,,,,,,,814.6032555879792,814.6032555879792,814.6032555879792,814.6032555879792,816.092006345978,816.092006345978,816.092006345978,816.092006345978,816.1085531450808,816.1085531450808,816.1085531450808,816.1085531450808,,,,,repeat,number,numRpt,d,vtsPrac,817.5098965939833,1.3891221039230004,,,,,,,,,,,,,,,,,,,,,,,,66872,2022-11-02_10h11.18.591,vts_reward_expectancy_bt_OFFLINE,2022.2.4,59.92191934480331,
,,,,,,,,,,,,,,,,,,,,,,,,,,,,,,,,,,0,0,0,0,10,0,10,0,,,,,,,,,,,,,,,,,,,,,,,,,,,,0,810,,,,824.131859219051,,139,Y,hexagon,0.002024188986979425,,,,,1,0,,,2,,,,,,,,,820.0075883429963,820.0075883429963,820.0075883429963,820.0075883429963,821.495785871055,821.495785871055,821.495785871055,821.495785871055,821.5123111070134,821.5123111070134,821.5123111070134,821.5123111070134,,,,,repeat,number,numRpt,d,vtsPrac,822.6304326910758,1.1133417339297011,,,,,,,,,,,,,,,,,,,,,,,,66872,2022-11-02_10h11.18.591,vts_reward_expectancy_bt_OFFLINE,2022.2.4,59.92191934480331,
,,,,,,,,,,,,,,,,,,,,,,,,,,,,,,,,,,0,0,0,0,11,0,11,0,,,,,,,,,,,,,,,,,,,,,,,,,,,,0,810,,,,829.1355433290591,,181,D,circle,0.0021139190066605806,,,,,1,0,,,2,,,,,,,,,825.1277265510289,825.1277265510289,825.1277265510289,825.1277265510289,826.6161863669986,826.6161863669986,826.6161863669986,826.6161863669986,826.6328222029842,826.6328222029842,826.6328222029842,826.6328222029842,,,,,repeat,number,numRpt,f,vtsPrac,827.6340278859716,0.9927147019188851,,,,,,,,,,,,,,,,,,,,,,,,66872,2022-11-02_10h11.18.591,vts_reward_expectancy_bt_OFFLINE,2022.2.4,59.92191934480331,
,,,,,,,,,,,,,,,,,,,,,,,,,,,,,,,,,,0,0,0,0,12,0,12,0,,,,,,,,,,,,,,,,,,,,,,,,,,,,0,810,,,,834.305704363971,,181,U,circle,0.0018200279446318746,,,,,1,0,,,2,,,,,,,,,830.1305672590388,830.1305672590388,830.1305672590388,830.1305672590388,831.6195361840073,831.6195361840073,831.6195361840073,831.6195361840073,831.636297530029,831.636297530029,831.636297530029,831.636297530029,,,,,repeat,number,numRpt,f,vtsPrac,832.804615185014,1.1658029789105058,,,,,,,,,,,,,,,,,,,,,,,,66872,2022-11-02_10h11.18.591,vts_reward_expectancy_bt_OFFLINE,2022.2.4,59.92191934480331,
,,,,,,,,,,,,,,,,,,,,,,,,,,,,,,,,,,0,0,0,0,13,0,13,0,,,,,,,,,,,,,,,,,,,,,,,,,,,,0,810,,,,839.4927208790323,,167,S,hexagon,0.0017483810661360621,,,,,1,0,,,2,,,,,,,,,835.301424906007,835.301424906007,835.301424906007,835.301424906007,836.7899758920539,836.7899758920539,836.7899758920539,836.7899758920539,836.8066881530685,836.8066881530685,836.8066881530685,836.8066881530685,,,,,repeat,number,numRpt,f,vtsPrac,837.9918355969712,1.1787906938698143,,,,,,,,,,,,,,,,,,,,,,,,66872,2022-11-02_10h11.18.591,vts_reward_expectancy_bt_OFFLINE,2022.2.4,59.92191934480331,
,,,,,,,,,,,,,,,,,,,,,,,,,,,,,,,,,,0,0,0,0,14,0,14,0,,,,,,,,,,,,,,,,,,,,,,,,,,,,0,810,,,,844.1797118140385,,132,H,hexagon,0.0016930950805544853,,,,,1,0,,,2,,,,,,,,,840.4885832760483,840.4885832760483,840.4885832760483,840.4885832760483,841.9771537440829,841.9771537440829,841.9771537440829,841.9771537440829,841.993591299979,841.993591299979,841.993591299979,841.993591299979,,,,,repeat,number,numRpt,d,vtsPrac,842.6784213749925,0.6725834629032761,,,,,,,,,,,,,,,,,,,,,,,,66872,2022-11-02_10h11.18.591,vts_reward_expectancy_bt_OFFLINE,2022.2.4,59.92191934480331,
,,,,,,,,,,,,,,,,,,,,,,,,,,,,,,,,,,0,0,0,0,15,0,15,0,,,,,,,,,,,,,,,,,,,,,,,,,,,,0,810,,,,849.1665716120042,,125,D,triangle,0.0017116139642894268,,,,,1,0,,,2,,,,,,,,,845.1754108370515,845.1754108370515,845.1754108370515,845.1754108370515,846.6639242280507,846.6639242280507,846.6639242280507,846.6639242280507,846.6805917089805,846.6805917089805,846.6805917089805,846.6805917089805,,,,,repeat,number,numRpt,d,vtsPrac,847.6655260740081,0.9766834808979183,,,,,,,,,,,,,,,,,,,,,,,,66872,2022-11-02_10h11.18.591,vts_reward_expectancy_bt_OFFLINE,2022.2.4,59.92191934480331,
,,,,,,,,,,,,,,,,,,,,,,,,,,,,,,,,,,1,0,1,0,0,0,0,0,,,,,,,,,,,,,,,,,,,,,,,,,,,,0,810,,,,865.3279642940033,,181,S,hexagon,0.0025811530649662018,,,,,1,0,,,3,,,,,,,,,861.1202768040821,861.1202768040821,861.1202768040821,861.1202768040821,862.6085221180692,862.6085221180692,862.6085221180692,862.6085221180692,862.6252481980482,862.6252481980482,862.6252481980482,862.6252481980482,,,,,repeat,number,numRpt,f,vtsPrac,863.828463029,1.2007418188732117,865.3279642940033,,,,,,,,,,,,,,,,,,,,,,,66872,2022-11-02_10h11.18.591,vts_reward_expectancy_bt_OFFLINE,2022.2.4,59.92191934480331,
,,,,,,,,,,,,,,,,,,,,,,,,,,,,,,,,,,1,0,1,0,1,0,1,0,,,,,,,,,,,,,,,,,,,,,,,,,,,,0,810,,,,870.4983878959902,870.9985242250841,139,D,circle,0.00041290302760899067,,,,,1,0,,,3,,,,,,,,,866.3239174300106,866.3239174300106,866.3239174300106,866.3239174300106,867.8122254860355,867.8122254860355,867.8122254860355,867.8122254860355,867.8288823720068,867.8288823720068,867.8288823720068,867.8288823720068,,,,,repeat,number,numRpt,d,vtsPrac,868.9990422379924,1.1654643509536982,870.4983878959902,,,,,,,,,,,,,,,,,,,,,,,66872,2022-11-02_10h11.18.591,vts_reward_expectancy_bt_OFFLINE,2022.2.4,59.92191934480331,
,,,,,,,,,,,,,,,,,,,,,,,,,,,,,,,,,,1,0,1,0,2,0,2,0,,,,,,,,,,,,,,,,,,,,,,,,,,,,0,810,,,,875.4354227960575,,174,B,hexagon,0.0003948219818994403,,,,,1,0,,,3,,,,,,,,,871.4944134850521,871.4944134850521,871.4944134850521,871.4944134850521,872.9826758590061,872.9826758590061,872.9826758590061,872.9826758590061,872.9993307309924,872.9993307309924,872.9993307309924,872.9993307309924,,,,,repeat,number,numRpt,f,vtsPrac,873.9355142780114,0.9224541248986498,875.4354227960575,,,,,,,,,,,,,,,,,,,,,,,66872,2022-11-02_10h11.18.591,vts_reward_expectancy_bt_OFFLINE,2022.2.4,59.92191934480331,
,,,,,,,,,,,,,,,,,,,,,,,,,,,,,,,,,,1,0,1,0,3,0,3,0,,,,,,,,,,,,,,,,,,,,,,,,,,,,0,810,,,,880.8058189720614,,132,F,triangle,0.00032564601860940456,,,,,0,0,,,3,,,,,,,,,876.4311821999727,876.4311821999727,876.4311821999727,876.4311821999727,877.9195289550116,877.9195289550116,877.9195289550116,877.9195289550116,877.9362445999868,877.9362445999868,877.9362445999868,877.9362445999868,,,,,switch,letter,NA,k,vtsPrac,879.2916275659809,1.3457150178728625,,,,,,,,,,,,,,,,,,,,,,,,66872,2022-11-02_10h11.18.591,vts_reward_expectancy_bt_OFFLINE,2022.2.4,59.92191934480331,
,,,,,,,,,,,,,,,,,,,,,,,,,,,,,,,,,,1,0,1,0,4,0,4,0,,,,,,,,,,,,,,,,,,,,,,,,,,,,0,810,,,,886.1431626030244,,181,S,circle,0.00044069101568311453,,,,,1,1,,,3,,,,,,,,,881.7844115319895,881.7844115319895,881.7844115319895,881.7844115319895,883.2732248869725,883.2732248869725,883.2732248869725,883.2732248869725,883.2900117849931,883.2900117849931,883.2900117849931,883.2900117849931,,,,,switch,number,numSwt,f,vtsPrac,884.6287703400012,1.320370513945818,,,,,,,,,,,,,,,,,,,,,,,,66872,2022-11-02_10h11.18.591,vts_reward_expectancy_bt_OFFLINE,2022.2.4,59.92191934480331,
,,,,,,,,,,,,,,,,,,,,,,,,,,,,,,,,,,1,0,1,0,5,0,5,0,,,,,,,,,,,,,,,,,,,,,,,,,,,,0,810,,,,891.0465936820256,891.5464692390524,139,D,triangle,0.01596802705898881,,,,,1,0,,,3,,,,,,,,,887.1389025340322,887.1389025340322,887.1389025340322,887.1389025340322,888.6103720390238,888.6103720390238,888.6103720390238,888.6103720390238,888.643749664072,888.643749664072,888.643749664072,888.643749664072,,,,,repeat,number,numRpt,d,vtsPrac,889.5469199700747,0.9110187939368188,891.0465936820256,,,,,,,,,,,,,,,,,,,,,,,66872,2022-11-02_10h11.18.591,vts_reward_expectancy_bt_OFFLINE,2022.2.4,59.92191934480331,
,,,,,,,,,,,,,,,,,,,,,,,,,,,,,,,,,,1,0,1,0,6,0,6,0,,,,,,,,,,,,,,,,,,,,,,,,,,,,0,810,,,,895.8000012109987,896.300501078018,174,B,triangle,0.0006045699119567871,,,,,1,0,,,3,,,,,,,,,892.0422334569739,892.0422334569739,892.0422334569739,892.0422334569739,893.5305185440229,893.5305185440229,893.5305185440229,893.5305185440229,893.5470674959943,893.5470674959943,893.5470674959943,893.5470674959943,,,,,repeat,number,numRpt,f,vtsPrac,894.300440881052,0.7421318269334733,895.8000012109987,,,,,,,,,,,,,,,,,,,,,,,66872,2022-11-02_10h11.18.591,vts_reward_expectancy_bt_OFFLINE,2022.2.4,59.92191934480331,
,,,,,,,,,,,,,,,,,,,,,,,,,,,,,,,,,,1,0,1,0,7,0,7,0,,,,,,,,,,,,,,,,,,,,,,,,,,,,0,810,,,,900.6201358929975,,132,F,circle,0.0007269079796969891,,,,,1,0,,,3,,,,,,,,,896.7959442520514,896.7959442520514,896.7959442520514,896.7959442520514,898.2841333840042,898.2841333840042,898.2841333840042,898.2841333840042,898.3008943640161,898.3008943640161,898.3008943640161,898.3008943640161,,,,,repeat,number,numRpt,d,vtsPrac,899.1207821740536,0.8045969509985298,900.6201358929975,,,,,,,,,,,,,,,,,,,,,,,66872,2022-11-02_10h11.18.591,vts_reward_expectancy_bt_OFFLINE,2022.2.4,59.92191934480331,
,,,,,,,,,,,,,,,,,,,,,,,,,,,,,,,,,,1,0,1,0,8,0,8,0,,,,,,,,,,,,,,,,,,,,,,,,,,,,0,810,,,,906.140799230081,,167,W,star,0.00041238998528569937,,,,,1,0,,,3,,,,,,,,,901.6163783560041,901.6163783560041,901.6163783560041,901.6163783560041,903.1045155819738,903.1045155819738,903.1045155819738,903.1045155819738,903.1211916280445,903.1211916280445,903.1211916280445,903.1211916280445,,,,,switch,letter,lettSwt,k,vtsPrac,904.641414212063,1.51233398495242,,,,,,,,,,,,,,,,,,,,,,,,66872,2022-11-02_10h11.18.591,vts_reward_expectancy_bt_OFFLINE,2022.2.4,59.92191934480331,
,,,,,,,,,,,,,,,,,,,,,,,,,,,,,,,,,,1,0,1,0,9,0,9,0,,,,,,,,,,,,,,,,,,,,,,,,,,,,0,810,,,,911.7278534159996,,139,S,triangle,0.0003259050427004695,,,,,0,0,,,3,,,,,,,,,907.1365351689747,907.1365351689747,907.1365351689747,907.1365351689747,908.6249741220381,908.6249741220381,908.6249741220381,908.6249741220381,908.6418276129989,908.6418276129989,908.6418276129989,908.6418276129989,,,,,switch,number,NA,f,vtsPrac,910.2142460619798,1.568166661891155,,,,,,,,,,,,,,,,,,,,,,,,66872,2022-11-02_10h11.18.591,vts_reward_expectancy_bt_OFFLINE,2022.2.4,59.92191934480331,
