LTriangleOpac,LCircleOpac,LHexagonOpac,LStarOpac,RTriangleOpac,RCircleOpac,RHexagonOpac,RStarOpac,LShape_ID,RShape_ID,training_blocks.thisRepN,training_blocks.thisTrialN,training_blocks.thisN,training_blocks.thisIndex,training.thisRepN,training.thisTrialN,training.thisN,training.thisIndex,task1_prac_redo.thisRepN,task1_prac_redo.thisTrialN,task1_prac_redo.thisN,task1_prac_redo.thisIndex,task1_prac_trials.thisRepN,task1_prac_trials.thisTrialN,task1_prac_trials.thisN,task1_prac_trials.thisIndex,task2_prac_redo.thisRepN,task2_prac_redo.thisTrialN,task2_prac_redo.thisN,task2_prac_redo.thisIndex,task2_praac_trials.thisRepN,task2_praac_trials.thisTrialN,task2_praac_trials.thisN,task2_praac_trials.thisIndex,vts_prac_redo.thisRepN,vts_prac_redo.thisTrialN,vts_prac_redo.thisN,vts_prac_redo.thisIndex,vts_practice_trials.thisRepN,vts_practice_trials.thisTrialN,vts_practice_trials.thisN,vts_practice_trials.thisIndex,trials_norew.thisRepN,trials_norew.thisTrialN,trials_norew.thisN,trials_norew.thisIndex,block.thisRepN,block.thisTrialN,block.thisN,block.thisIndex,trials_rew.thisRepN,trials_rew.thisTrialN,trials_rew.thisN,trials_rew.thisIndex,key_resp.started,key_resp.keys,key_resp.rt,left_circle.started,right_circle.started,left_triangle.started,right_triangle.started,left_star.started,right_star.started,left_hexagon.started,right_hexagon.started,training_fix.started,training_resp.started,training_resp.keys,training_resp.rt,points_trial,points_cumul,trainBlock,training_feedback_txt.started,fix.started,training_feedback_txt.stopped,fix.stopped,curr_topStim,curr_bottStim,curr_shape,ISI.started,tgt_fix_prac1.started,top_target_prac1.started,bott_target_prac1.started,target_resp_prac1.started,acc,E1,target_resp_prac1.keys,target_resp_prac1.rt,pracBlock,prac_fback_text.started,prac_fback_text.stopped,tgt_fix_prac2.started,top_target_prac2.started,bott_target_prac2.started,target_resp_prac2.started,target_resp_prac2.keys,target_resp_prac2.rt,star.started,hegagon.started,triangle.started,circle.started,top_target.started,tgt_fix.started,bot_target.started,target_resp.started,star.stopped,hegagon.stopped,triangle.stopped,circle.stopped,alt,task,condition,target_resp.keys,target_resp.rt,rewCond,vts_fback.started,blockNum,norew_fback.started,norew_fback.stopped,top_target.stopped,tgt_fix.stopped,bot_target.stopped,target_resp.stopped,key_resp_2.keys,key_resp_2.rt,rewExpectancy,feedbk_text.started,feedbk_text.stopped,text_3.started,debrief.started,text_3.stopped,button.started,debrief.index,debrief.itemText,debrief.type,debrief.granularity,debrief.font,debrief.markerColor,debrief.response,debrief.rt,button.numClicks,button.timesOn,button.timesOff,participant,date,expName,psychopyVersion,frameRate,
,,,,,,,,,,,,,,,,,,,,,,,,,,,,,,,,,,,,,,,,,,,,,,,,,,,,,,13.962612468982115,space,19.500093438196927,,,,,,,,,,,,,,,,,,,,,,,,,,,,,,,,,,,,,,,,,,,,,,,,,,,,,,,,,,,,,,,,,,,,,,,,,,,,,,,,,,,,,,,67592,2022-11-15_14h01.31.669,vts_reward_expectancy_bt_OFFLINE,2022.2.4,60.06698631814396,
0,0,0,1,0,1,0,0,star ,circle,0,0,0,0,0,0,0,10,,,,,,,,,,,,,,,,,,,,,,,,,,,,,,,,,,,,,,,,54.772385123884305,54.772385123884305,54.772385123884305,54.772385123884305,54.772385123884305,54.772385123884305,54.772385123884305,54.772385123884305,54.772385123884305,54.772385123884305,l,1.2814693972468376,1,1,0,56.081392663065344,57.595487914048135,,,,,,,,,,,,,,,,,,,,,,,,,,,,,,,,,,,,,,,,,,,,,,,,,,,,,,,,,,,,,,,,,,,,,,67592,2022-11-15_14h01.31.669,vts_reward_expectancy_bt_OFFLINE,2022.2.4,60.06698631814396,
1,0,0,0,0,0,1,0,triangle,hexagon,0,0,0,0,0,1,1,1,,,,,,,,,,,,,,,,,,,,,,,,,,,,,,,,,,,,,,,,58.081002631923184,58.081002631923184,58.081002631923184,58.081002631923184,58.081002631923184,58.081002631923184,58.081002631923184,58.081002631923184,58.081002631923184,58.081002631923184,a,1.0097030601464212,1,2,0,59.11417899793014,60.61471548699774,60.61471548699774,61.11497157602571,,,,,,,,,,,,,,,,,,,,,,,,,,,,,,,,,,,,,,,,,,,,,,,,,,,,,,,,,,,,,,,,,,,,67592,2022-11-15_14h01.31.669,vts_reward_expectancy_bt_OFFLINE,2022.2.4,60.06698631814396,
0,0,0,1,0,0,1,0,star,hexagon,0,0,0,0,0,2,2,11,,,,,,,,,,,,,,,,,,,,,,,,,,,,,,,,,,,,,,,,61.11497157602571,61.11497157602571,61.11497157602571,61.11497157602571,61.11497157602571,61.11497157602571,61.11497157602571,61.11497157602571,61.11497157602571,61.11497157602571,l,1.4861280841287225,10,12,0,62.63322057388723,64.13447596901096,,,,,,,,,,,,,,,,,,,,,,,,,,,,,,,,,,,,,,,,,,,,,,,,,,,,,,,,,,,,,,,,,,,,,,67592,2022-11-15_14h01.31.669,vts_reward_expectancy_bt_OFFLINE,2022.2.4,60.06698631814396,
0,0,1,0,0,0,0,1,hexagon,star,0,0,0,0,0,3,3,8,,,,,,,,,,,,,,,,,,,,,,,,,,,,,,,,,,,,,,,,64.63481751992367,64.63481751992367,64.63481751992367,64.63481751992367,64.63481751992367,64.63481751992367,64.63481751992367,64.63481751992367,64.63481751992367,64.63481751992367,a,0.8013074221089482,10,22,0,65.46853152499534,66.9689478748478,66.9689478748478,67.46913714590482,,,,,,,,,,,,,,,,,,,,,,,,,,,,,,,,,,,,,,,,,,,,,,,,,,,,,,,,,,,,,,,,,,,,67592,2022-11-15_14h01.31.669,vts_reward_expectancy_bt_OFFLINE,2022.2.4,60.06698631814396,
1,0,0,0,0,0,0,1,triangle,star,0,0,0,0,0,4,4,2,,,,,,,,,,,,,,,,,,,,,,,,,,,,,,,,,,,,,,,,67.46913714590482,67.46913714590482,67.46913714590482,67.46913714590482,67.46913714590482,67.46913714590482,67.46913714590482,67.46913714590482,67.46913714590482,67.46913714590482,a,0.4759333471301943,10,32,0,67.96934602293186,69.47151585388929,,,,,,,,,,,,,,,,,,,,,,,,,,,,,,,,,,,,,,,,,,,,,,,,,,,,,,,,,,,,,,,,,,,,,,67592,2022-11-15_14h01.31.669,vts_reward_expectancy_bt_OFFLINE,2022.2.4,60.06698631814396,
0,0,1,0,0,1,0,0,hexagon,circle,0,0,0,0,0,5,5,7,,,,,,,,,,,,,,,,,,,,,,,,,,,,,,,,,,,,,,,,69.9716408350505,69.9716408350505,69.9716408350505,69.9716408350505,69.9716408350505,69.9716408350505,69.9716408350505,69.9716408350505,69.9716408350505,69.9716408350505,l,0.8532752799801528,1,33,0,70.85717267706059,72.35606751404703,72.35606751404703,72.85607036203146,,,,,,,,,,,,,,,,,,,,,,,,,,,,,,,,,,,,,,,,,,,,,,,,,,,,,,,,,,,,,,,,,,,,67592,2022-11-15_14h01.31.669,vts_reward_expectancy_bt_OFFLINE,2022.2.4,60.06698631814396,
0,1,0,0,0,0,0,1,circle,star,0,0,0,0,0,6,6,5,,,,,,,,,,,,,,,,,,,,,,,,,,,,,,,,,,,,,,,,72.85607036203146,72.85607036203146,72.85607036203146,72.85607036203146,72.85607036203146,72.85607036203146,72.85607036203146,72.85607036203146,72.85607036203146,72.85607036203146,a,0.6804998109582812,1,34,0,73.55881317495368,75.0594670928549,75.0594670928549,75.5595130699221,,,,,,,,,,,,,,,,,,,,,,,,,,,,,,,,,,,,,,,,,,,,,,,,,,,,,,,,,,,,,,,,,,,,67592,2022-11-15_14h01.31.669,vts_reward_expectancy_bt_OFFLINE,2022.2.4,60.06698631814396,
1,0,0,0,0,1,0,0,triangle,circle,0,0,0,0,0,7,7,0,,,,,,,,,,,,,,,,,,,,,,,,,,,,,,,,,,,,,,,,75.5595130699221,75.5595130699221,75.5595130699221,75.5595130699221,75.5595130699221,75.5595130699221,75.5595130699221,75.5595130699221,75.5595130699221,75.5595130699221,l,1.0598905531223863,1,35,0,76.64274484105408,78.1454812460579,,,,,,,,,,,,,,,,,,,,,,,,,,,,,,,,,,,,,,,,,,,,,,,,,,,,,,,,,,,,,,,,,,,,,,67592,2022-11-15_14h01.31.669,vts_reward_expectancy_bt_OFFLINE,2022.2.4,60.06698631814396,
0,1,0,0,0,0,1,0,circle,hexagon,0,0,0,0,0,8,8,4,,,,,,,,,,,,,,,,,,,,,,,,,,,,,,,,,,,,,,,,78.64563766401261,78.64563766401261,78.64563766401261,78.64563766401261,78.64563766401261,78.64563766401261,78.64563766401261,78.64563766401261,78.64563766401261,78.64563766401261,l,0.8201780871022493,10,45,0,79.49719172902405,81.01294943201356,,,,,,,,,,,,,,,,,,,,,,,,,,,,,,,,,,,,,,,,,,,,,,,,,,,,,,,,,,,,,,,,,,,,,,67592,2022-11-15_14h01.31.669,vts_reward_expectancy_bt_OFFLINE,2022.2.4,60.06698631814396,
0,0,1,0,1,0,0,0,hexagon,triangle,0,0,0,0,0,9,9,6,,,,,,,,,,,,,,,,,,,,,,,,,,,,,,,,,,,,,,,,81.51310285087675,81.51310285087675,81.51310285087675,81.51310285087675,81.51310285087675,81.51310285087675,81.51310285087675,81.51310285087675,81.51310285087675,81.51310285087675,a,0.8333768171723932,10,55,0,82.36305583897047,83.86596486903727,,,,,,,,,,,,,,,,,,,,,,,,,,,,,,,,,,,,,,,,,,,,,,,,,,,,,,,,,,,,,,,,,,,,,,67592,2022-11-15_14h01.31.669,vts_reward_expectancy_bt_OFFLINE,2022.2.4,60.06698631814396,
0,0,0,1,1,0,0,0,star,triangle,0,0,0,0,0,10,10,9,,,,,,,,,,,,,,,,,,,,,,,,,,,,,,,,,,,,,,,,84.36655931686983,84.36655931686983,84.36655931686983,84.36655931686983,84.36655931686983,84.36655931686983,84.36655931686983,84.36655931686983,84.36655931686983,84.36655931686983,l,0.6346895210444927,10,65,0,85.03274156502448,86.53307920601219,86.53307920601219,87.03364437888376,,,,,,,,,,,,,,,,,,,,,,,,,,,,,,,,,,,,,,,,,,,,,,,,,,,,,,,,,,,,,,,,,,,,67592,2022-11-15_14h01.31.669,vts_reward_expectancy_bt_OFFLINE,2022.2.4,60.06698631814396,
0,1,0,0,1,0,0,0,circle,triangle,0,0,0,0,0,11,11,3,,,,,,,,,,,,,,,,,,,,,,,,,,,,,,,,,,,,,,,,87.03364437888376,87.03364437888376,87.03364437888376,87.03364437888376,87.03364437888376,87.03364437888376,87.03364437888376,87.03364437888376,87.03364437888376,87.03364437888376,a,0.28493304713629186,1,66,0,87.35050752200186,88.85303270304576,,,,,,,,,,,,,,,,,,,,,,,,,,,,,,,,,,,,,,,,,,,,,,,,,,,,,,,,,,,,,,,,,,,,,,67592,2022-11-15_14h01.31.669,vts_reward_expectancy_bt_OFFLINE,2022.2.4,60.06698631814396,
1,0,0,0,0,1,0,0,triangle,circle,0,0,0,0,1,0,12,0,,,,,,,,,,,,,,,,,,,,,,,,,,,,,,,,,,,,,,,,89.35344488290139,89.35344488290139,89.35344488290139,89.35344488290139,89.35344488290139,89.35344488290139,89.35344488290139,89.35344488290139,89.35344488290139,89.35344488290139,a,0.7449897290207446,10,76,0,90.12139309290797,91.62043315195478,91.62043315195478,,,,,,,,,,,,,,,,,,,,,,,,,,,,,,,,,,,,,,,,,,,,,,,,,,,,,,,,,,,,,,,,,,,,,67592,2022-11-15_14h01.31.669,vts_reward_expectancy_bt_OFFLINE,2022.2.4,60.06698631814396,
0,0,1,0,0,0,0,1,hexagon,star,0,0,0,0,1,1,13,8,,,,,,,,,,,,,,,,,,,,,,,,,,,,,,,,,,,,,,,,92.12031766097061,92.12031766097061,92.12031766097061,92.12031766097061,92.12031766097061,92.12031766097061,92.12031766097061,92.12031766097061,92.12031766097061,92.12031766097061,a,0.6107977621722966,10,86,0,92.75433397386223,94.25632727588527,,,,,,,,,,,,,,,,,,,,,,,,,,,,,,,,,,,,,,,,,,,,,,,,,,,,,,,,,,,,,,,,,,,,,,67592,2022-11-15_14h01.31.669,vts_reward_expectancy_bt_OFFLINE,2022.2.4,60.06698631814396,
0,1,0,0,0,0,0,1,circle,star,0,0,0,0,1,2,14,5,,,,,,,,,,,,,,,,,,,,,,,,,,,,,,,,,,,,,,,,94.75653002597392,94.75653002597392,94.75653002597392,94.75653002597392,94.75653002597392,94.75653002597392,94.75653002597392,94.75653002597392,94.75653002597392,94.75653002597392,a,0.43707462027668953,1,87,0,95.22490655304864,96.74058407894336,,,,,,,,,,,,,,,,,,,,,,,,,,,,,,,,,,,,,,,,,,,,,,,,,,,,,,,,,,,,,,,,,,,,,,67592,2022-11-15_14h01.31.669,vts_reward_expectancy_bt_OFFLINE,2022.2.4,60.06698631814396,
0,1,0,0,1,0,0,0,circle,triangle,0,0,0,0,1,3,15,3,,,,,,,,,,,,,,,,,,,,,,,,,,,,,,,,,,,,,,,,97.22472388786264,97.22472388786264,97.22472388786264,97.22472388786264,97.22472388786264,97.22472388786264,97.22472388786264,97.22472388786264,97.22472388786264,97.22472388786264,a,1.8958002470899373,1,88,0,99.14312895503826,100.6437246389687,100.6437246389687,101.14380294503644,,,,,,,,,,,,,,,,,,,,,,,,,,,,,,,,,,,,,,,,,,,,,,,,,,,,,,,,,,,,,,,,,,,,67592,2022-11-15_14h01.31.669,vts_reward_expectancy_bt_OFFLINE,2022.2.4,60.06698631814396,
0,0,0,1,1,0,0,0,star,triangle,0,0,0,0,1,4,16,9,,,,,,,,,,,,,,,,,,,,,,,,,,,,,,,,,,,,,,,,101.14380294503644,101.14380294503644,101.14380294503644,101.14380294503644,101.14380294503644,101.14380294503644,101.14380294503644,101.14380294503644,101.14380294503644,101.14380294503644,l,0.5867408521007746,10,98,0,101.76239841291681,103.26308483886532,,,,,,,,,,,,,,,,,,,,,,,,,,,,,,,,,,,,,,,,,,,,,,,,,,,,,,,,,,,,,,,,,,,,,,67592,2022-11-15_14h01.31.669,vts_reward_expectancy_bt_OFFLINE,2022.2.4,60.06698631814396,
0,1,0,0,0,0,1,0,circle,hexagon,0,0,0,0,1,5,17,4,,,,,,,,,,,,,,,,,,,,,,,,,,,,,,,,,,,,,,,,103.76333438488655,103.76333438488655,103.76333438488655,103.76333438488655,103.76333438488655,103.76333438488655,103.76333438488655,103.76333438488655,103.76333438488655,103.76333438488655,l,1.0165363273117691,10,108,0,104.79736178205349,106.29764000186697,106.29764000186697,106.79794272896834,,,,,,,,,,,,,,,,,,,,,,,,,,,,,,,,,,,,,,,,,,,,,,,,,,,,,,,,,,,,,,,,,,,,67592,2022-11-15_14h01.31.669,vts_reward_expectancy_bt_OFFLINE,2022.2.4,60.06698631814396,
0,0,0,1,0,1,0,0,star ,circle,0,0,0,0,1,6,18,10,,,,,,,,,,,,,,,,,,,,,,,,,,,,,,,,,,,,,,,,106.79794272896834,106.79794272896834,106.79794272896834,106.79794272896834,106.79794272896834,106.79794272896834,106.79794272896834,106.79794272896834,106.79794272896834,106.79794272896834,a,0.9402334780897945,10,118,0,107.76479709590785,109.2678669989109,,,,,,,,,,,,,,,,,,,,,,,,,,,,,,,,,,,,,,,,,,,,,,,,,,,,,,,,,,,,,,,,,,,,,,67592,2022-11-15_14h01.31.669,vts_reward_expectancy_bt_OFFLINE,2022.2.4,60.06698631814396,
0,0,1,0,0,1,0,0,hexagon,circle,0,0,0,0,1,7,19,7,,,,,,,,,,,,,,,,,,,,,,,,,,,,,,,,,,,,,,,,109.76805111393332,109.76805111393332,109.76805111393332,109.76805111393332,109.76805111393332,109.76805111393332,109.76805111393332,109.76805111393332,109.76805111393332,109.76805111393332,a,1.0527144412044436,1,119,0,110.85138897504658,112.3516997138504,112.3516997138504,112.85178492194973,,,,,,,,,,,,,,,,,,,,,,,,,,,,,,,,,,,,,,,,,,,,,,,,,,,,,,,,,,,,,,,,,,,,67592,2022-11-15_14h01.31.669,vts_reward_expectancy_bt_OFFLINE,2022.2.4,60.06698631814396,
0,0,0,1,0,0,1,0,star,hexagon,0,0,0,0,1,8,20,11,,,,,,,,,,,,,,,,,,,,,,,,,,,,,,,,,,,,,,,,112.85178492194973,112.85178492194973,112.85178492194973,112.85178492194973,112.85178492194973,112.85178492194973,112.85178492194973,112.85178492194973,112.85178492194973,112.85178492194973,l,0.9164586621336639,10,129,0,113.78887443500571,115.28859529295005,115.28859529295005,,,,,,,,,,,,,,,,,,,,,,,,,,,,,,,,,,,,,,,,,,,,,,,,,,,,,,,,,,,,,,,,,,,,,67592,2022-11-15_14h01.31.669,vts_reward_expectancy_bt_OFFLINE,2022.2.4,60.06698631814396,
1,0,0,0,0,0,0,1,triangle,star,0,0,0,0,1,9,21,2,,,,,,,,,,,,,,,,,,,,,,,,,,,,,,,,,,,,,,,,115.7885967718903,115.7885967718903,115.7885967718903,115.7885967718903,115.7885967718903,115.7885967718903,115.7885967718903,115.7885967718903,115.7885967718903,115.7885967718903,a,0.5561599570792168,1,130,0,116.37269248487428,117.87215955392458,117.87215955392458,,,,,,,,,,,,,,,,,,,,,,,,,,,,,,,,,,,,,,,,,,,,,,,,,,,,,,,,,,,,,,,,,,,,,67592,2022-11-15_14h01.31.669,vts_reward_expectancy_bt_OFFLINE,2022.2.4,60.06698631814396,
0,0,1,0,1,0,0,0,hexagon,triangle,0,0,0,0,1,10,22,6,,,,,,,,,,,,,,,,,,,,,,,,,,,,,,,,,,,,,,,,118.37462864187546,118.37462864187546,118.37462864187546,118.37462864187546,118.37462864187546,118.37462864187546,118.37462864187546,118.37462864187546,118.37462864187546,118.37462864187546,a,0.8726409072987735,10,140,0,119.27627143403515,120.7919527660124,,,,,,,,,,,,,,,,,,,,,,,,,,,,,,,,,,,,,,,,,,,,,,,,,,,,,,,,,,,,,,,,,,,,,,67592,2022-11-15_14h01.31.669,vts_reward_expectancy_bt_OFFLINE,2022.2.4,60.06698631814396,
1,0,0,0,0,0,1,0,triangle,hexagon,0,0,0,0,1,11,23,1,,,,,,,,,,,,,,,,,,,,,,,,,,,,,,,,,,,,,,,,121.29200044600293,121.29200044600293,121.29200044600293,121.29200044600293,121.29200044600293,121.29200044600293,121.29200044600293,121.29200044600293,121.29200044600293,121.29200044600293,a,1.4541590351145715,1,141,0,122.77735489490442,124.27840390894562,,,,,,,,,,,,,,,,,,,,,,,,,,,,,,,,,,,,,,,,,,,,,,,,,,,,,,,,,,,,,,,,,,,,,,67592,2022-11-15_14h01.31.669,vts_reward_expectancy_bt_OFFLINE,2022.2.4,60.06698631814396,
0,1,0,0,0,0,0,1,circle,star,0,0,0,0,2,0,24,5,,,,,,,,,,,,,,,,,,,,,,,,,,,,,,,,,,,,,,,,124.77848751400597,124.77848751400597,124.77848751400597,124.77848751400597,124.77848751400597,124.77848751400597,124.77848751400597,124.77848751400597,124.77848751400597,124.77848751400597,a,0.5565460261423141,10,151,0,125.36361718084663,126.86254215589724,126.86254215589724,127.36265302007087,,,,,,,,,,,,,,,,,,,,,,,,,,,,,,,,,,,,,,,,,,,,,,,,,,,,,,,,,,,,,,,,,,,,67592,2022-11-15_14h01.31.669,vts_reward_expectancy_bt_OFFLINE,2022.2.4,60.06698631814396,
0,1,0,0,0,0,1,0,circle,hexagon,0,0,0,0,2,1,25,4,,,,,,,,,,,,,,,,,,,,,,,,,,,,,,,,,,,,,,,,127.36265302007087,127.36265302007087,127.36265302007087,127.36265302007087,127.36265302007087,127.36265302007087,127.36265302007087,127.36265302007087,127.36265302007087,127.36265302007087,l,0.7952480572275817,1,152,0,128.18296286906116,129.6989164419938,,,,,,,,,,,,,,,,,,,,,,,,,,,,,,,,,,,,,,,,,,,,,,,,,,,,,,,,,,,,,,,,,,,,,,67592,2022-11-15_14h01.31.669,vts_reward_expectancy_bt_OFFLINE,2022.2.4,60.06698631814396,
0,1,0,0,1,0,0,0,circle,triangle,0,0,0,0,2,2,26,3,,,,,,,,,,,,,,,,,,,,,,,,,,,,,,,,,,,,,,,,130.18287644605152,130.18287644605152,130.18287644605152,130.18287644605152,130.18287644605152,130.18287644605152,130.18287644605152,130.18287644605152,130.18287644605152,130.18287644605152,a,0.6975981879513711,1,153,0,130.89901706506498,132.3997084100265,132.3997084100265,132.89971173601225,,,,,,,,,,,,,,,,,,,,,,,,,,,,,,,,,,,,,,,,,,,,,,,,,,,,,,,,,,,,,,,,,,,,67592,2022-11-15_14h01.31.669,vts_reward_expectancy_bt_OFFLINE,2022.2.4,60.06698631814396,
1,0,0,0,0,0,0,1,triangle,star,0,0,0,0,2,3,27,2,,,,,,,,,,,,,,,,,,,,,,,,,,,,,,,,,,,,,,,,132.89971173601225,132.89971173601225,132.89971173601225,132.89971173601225,132.89971173601225,132.89971173601225,132.89971173601225,132.89971173601225,132.89971173601225,132.89971173601225,a,0.7822079982142895,1,154,0,133.70231991191395,135.20309919700958,135.20309919700958,135.7031344959978,,,,,,,,,,,,,,,,,,,,,,,,,,,,,,,,,,,,,,,,,,,,,,,,,,,,,,,,,,,,,,,,,,,,67592,2022-11-15_14h01.31.669,vts_reward_expectancy_bt_OFFLINE,2022.2.4,60.06698631814396,
0,0,0,1,0,1,0,0,star ,circle,0,0,0,0,2,4,28,10,,,,,,,,,,,,,,,,,,,,,,,,,,,,,,,,,,,,,,,,135.7031344959978,135.7031344959978,135.7031344959978,135.7031344959978,135.7031344959978,135.7031344959978,135.7031344959978,135.7031344959978,135.7031344959978,135.7031344959978,l,0.43192444392479956,10,164,0,136.15456092800014,137.67010221094824,,,,,,,,,,,,,,,,,,,,,,,,,,,,,,,,,,,,,,,,,,,,,,,,,,,,,,,,,,,,,,,,,,,,,,67592,2022-11-15_14h01.31.669,vts_reward_expectancy_bt_OFFLINE,2022.2.4,60.06698631814396,
1,0,0,0,0,0,1,0,triangle,hexagon,0,0,0,0,2,5,29,1,,,,,,,,,,,,,,,,,,,,,,,,,,,,,,,,,,,,,,,,138.15568797197193,138.15568797197193,138.15568797197193,138.15568797197193,138.15568797197193,138.15568797197193,138.15568797197193,138.15568797197193,138.15568797197193,138.15568797197193,l,0.6227945352438837,1,165,0,138.80749772302806,140.30638483399525,140.30638483399525,140.80651169200428,,,,,,,,,,,,,,,,,,,,,,,,,,,,,,,,,,,,,,,,,,,,,,,,,,,,,,,,,,,,,,,,,,,,67592,2022-11-15_14h01.31.669,vts_reward_expectancy_bt_OFFLINE,2022.2.4,60.06698631814396,
0,0,0,1,0,0,1,0,star,hexagon,0,0,0,0,2,6,30,11,,,,,,,,,,,,,,,,,,,,,,,,,,,,,,,,,,,,,,,,140.80651169200428,140.80651169200428,140.80651169200428,140.80651169200428,140.80651169200428,140.80651169200428,140.80651169200428,140.80651169200428,140.80651169200428,140.80651169200428,l,1.6966676202137023,1,166,0,142.52363435691223,144.0260848668404,,,,,,,,,,,,,,,,,,,,,,,,,,,,,,,,,,,,,,,,,,,,,,,,,,,,,,,,,,,,,,,,,,,,,,67592,2022-11-15_14h01.31.669,vts_reward_expectancy_bt_OFFLINE,2022.2.4,60.06698631814396,
0,0,0,1,1,0,0,0,star,triangle,0,0,0,0,2,7,31,9,,,,,,,,,,,,,,,,,,,,,,,,,,,,,,,,,,,,,,,,144.52654033503495,144.52654033503495,144.52654033503495,144.52654033503495,144.52654033503495,144.52654033503495,144.52654033503495,144.52654033503495,144.52654033503495,144.52654033503495,l,0.6755896320100874,1,167,0,145.22658123797737,146.72673820704222,146.72673820704222,147.2271615350619,,,,,,,,,,,,,,,,,,,,,,,,,,,,,,,,,,,,,,,,,,,,,,,,,,,,,,,,,,,,,,,,,,,,67592,2022-11-15_14h01.31.669,vts_reward_expectancy_bt_OFFLINE,2022.2.4,60.06698631814396,
0,0,1,0,1,0,0,0,hexagon,triangle,0,0,0,0,2,8,32,6,,,,,,,,,,,,,,,,,,,,,,,,,,,,,,,,,,,,,,,,147.2271615350619,147.2271615350619,147.2271615350619,147.2271615350619,147.2271615350619,147.2271615350619,147.2271615350619,147.2271615350619,147.2271615350619,147.2271615350619,a,0.5748667193111032,1,168,0,147.82758003799245,149.329895661911,,,,,,,,,,,,,,,,,,,,,,,,,,,,,,,,,,,,,,,,,,,,,,,,,,,,,,,,,,,,,,,,,,,,,,67592,2022-11-15_14h01.31.669,vts_reward_expectancy_bt_OFFLINE,2022.2.4,60.06698631814396,
0,0,1,0,0,0,0,1,hexagon,star,0,0,0,0,2,9,33,8,,,,,,,,,,,,,,,,,,,,,,,,,,,,,,,,,,,,,,,,149.83027301495895,149.83027301495895,149.83027301495895,149.83027301495895,149.83027301495895,149.83027301495895,149.83027301495895,149.83027301495895,149.83027301495895,149.83027301495895,a,0.7611726031173021,10,178,0,150.6155449328944,152.1306712029036,,,,,,,,,,,,,,,,,,,,,,,,,,,,,,,,,,,,,,,,,,,,,,,,,,,,,,,,,,,,,,,,,,,,,,67592,2022-11-15_14h01.31.669,vts_reward_expectancy_bt_OFFLINE,2022.2.4,60.06698631814396,
1,0,0,0,0,1,0,0,triangle,circle,0,0,0,0,2,10,34,0,,,,,,,,,,,,,,,,,,,,,,,,,,,,,,,,,,,,,,,,152.63095212401822,152.63095212401822,152.63095212401822,152.63095212401822,152.63095212401822,152.63095212401822,152.63095212401822,152.63095212401822,152.63095212401822,152.63095212401822,l,0.4578626351431012,1,179,0,153.10640253894962,154.61734697897919,,,,,,,,,,,,,,,,,,,,,,,,,,,,,,,,,,,,,,,,,,,,,,,,,,,,,,,,,,,,,,,,,,,,,,67592,2022-11-15_14h01.31.669,vts_reward_expectancy_bt_OFFLINE,2022.2.4,60.06698631814396,
0,0,1,0,0,1,0,0,hexagon,circle,0,0,0,0,2,11,35,7,,,,,,,,,,,,,,,,,,,,,,,,,,,,,,,,,,,,,,,,155.1174769559875,155.1174769559875,155.1174769559875,155.1174769559875,155.1174769559875,155.1174769559875,155.1174769559875,155.1174769559875,155.1174769559875,155.1174769559875,l,1.3691464110743254,10,189,0,156.51939941197634,158.03479420789517,,,,,,,,,,,,,,,,,,,,,,,,,,,,,,,,,,,,,,,,,,,,,,,,,,,,,,,,,,,,,,,,,,,,,,67592,2022-11-15_14h01.31.669,vts_reward_expectancy_bt_OFFLINE,2022.2.4,60.06698631814396,
0,0,0,1,0,1,0,0,star ,circle,0,0,0,0,3,0,36,10,,,,,,,,,,,,,,,,,,,,,,,,,,,,,,,,,,,,,,,,158.52023379295133,158.52023379295133,158.52023379295133,158.52023379295133,158.52023379295133,158.52023379295133,158.52023379295133,158.52023379295133,158.52023379295133,158.52023379295133,a,0.4525520072784275,10,199,0,159.00403939699754,160.5047867728863,,161.00469218706712,,,,,,,,,,,,,,,,,,,,,,,,,,,,,,,,,,,,,,,,,,,,,,,,,,,,,,,,,,,,,,,,,,,,67592,2022-11-15_14h01.31.669,vts_reward_expectancy_bt_OFFLINE,2022.2.4,60.06698631814396,
0,0,0,1,0,0,1,0,star,hexagon,0,0,0,0,3,1,37,11,,,,,,,,,,,,,,,,,,,,,,,,,,,,,,,,,,,,,,,,161.00469218706712,161.00469218706712,161.00469218706712,161.00469218706712,161.00469218706712,161.00469218706712,161.00469218706712,161.00469218706712,161.00469218706712,161.00469218706712,a,0.5677806560415775,10,209,0,161.60498629999347,163.11020515789278,,,,,,,,,,,,,,,,,,,,,,,,,,,,,,,,,,,,,,,,,,,,,,,,,,,,,,,,,,,,,,,,,,,,,,67592,2022-11-15_14h01.31.669,vts_reward_expectancy_bt_OFFLINE,2022.2.4,60.06698631814396,
0,0,1,0,0,1,0,0,hexagon,circle,0,0,0,0,3,2,38,7,,,,,,,,,,,,,,,,,,,,,,,,,,,,,,,,,,,,,,,,163.60704866889864,163.60704866889864,163.60704866889864,163.60704866889864,163.60704866889864,163.60704866889864,163.60704866889864,163.60704866889864,163.60704866889864,163.60704866889864,a,0.7669691692572087,1,210,0,164.39309729100205,165.90778998285532,,,,,,,,,,,,,,,,,,,,,,,,,,,,,,,,,,,,,,,,,,,,,,,,,,,,,,,,,,,,,,,,,,,,,,67592,2022-11-15_14h01.31.669,vts_reward_expectancy_bt_OFFLINE,2022.2.4,60.06698631814396,
0,1,0,0,0,0,1,0,circle,hexagon,0,0,0,0,3,3,39,4,,,,,,,,,,,,,,,,,,,,,,,,,,,,,,,,,,,,,,,,166.40805921005085,166.40805921005085,166.40805921005085,166.40805921005085,166.40805921005085,166.40805921005085,166.40805921005085,166.40805921005085,166.40805921005085,166.40805921005085,l,1.0262226860504597,1,211,0,167.4584313069936,168.96132585289888,,,,,,,,,,,,,,,,,,,,,,,,,,,,,,,,,,,,,,,,,,,,,,,,,,,,,,,,,,,,,,,,,,,,,,67592,2022-11-15_14h01.31.669,vts_reward_expectancy_bt_OFFLINE,2022.2.4,60.06698631814396,
0,0,1,0,1,0,0,0,hexagon,triangle,0,0,0,0,3,4,40,6,,,,,,,,,,,,,,,,,,,,,,,,,,,,,,,,,,,,,,,,169.46171823889017,169.46171823889017,169.46171823889017,169.46171823889017,169.46171823889017,169.46171823889017,169.46171823889017,169.46171823889017,169.46171823889017,169.46171823889017,a,1.3691035320516676,10,221,0,170.86326546804048,172.37885000789538,,,,,,,,,,,,,,,,,,,,,,,,,,,,,,,,,,,,,,,,,,,,,,,,,,,,,,,,,,,,,,,,,,,,,,67592,2022-11-15_14h01.31.669,vts_reward_expectancy_bt_OFFLINE,2022.2.4,60.06698631814396,
1,0,0,0,0,0,1,0,triangle,hexagon,0,0,0,0,3,5,41,1,,,,,,,,,,,,,,,,,,,,,,,,,,,,,,,,,,,,,,,,172.8787819868885,172.8787819868885,172.8787819868885,172.8787819868885,172.8787819868885,172.8787819868885,172.8787819868885,172.8787819868885,172.8787819868885,172.8787819868885,l,0.7985366422217339,1,222,0,173.69927619886585,175.19833475188352,,,,,,,,,,,,,,,,,,,,,,,,,,,,,,,,,,,,,,,,,,,,,,,,,,,,,,,,,,,,,,,,,,,,,,67592,2022-11-15_14h01.31.669,vts_reward_expectancy_bt_OFFLINE,2022.2.4,60.06698631814396,
1,0,0,0,0,0,0,1,triangle,star,0,0,0,0,3,6,42,2,,,,,,,,,,,,,,,,,,,,,,,,,,,,,,,,,,,,,,,,175.6984276729636,175.6984276729636,175.6984276729636,175.6984276729636,175.6984276729636,175.6984276729636,175.6984276729636,175.6984276729636,175.6984276729636,175.6984276729636,a,0.5219453549943864,1,223,0,176.24869293696247,177.7491447890643,177.7491447890643,,,,,,,,,,,,,,,,,,,,,,,,,,,,,,,,,,,,,,,,,,,,,,,,,,,,,,,,,,,,,,,,,,,,,67592,2022-11-15_14h01.31.669,vts_reward_expectancy_bt_OFFLINE,2022.2.4,60.06698631814396,
0,1,0,0,0,0,0,1,circle,star,0,0,0,0,3,7,43,5,,,,,,,,,,,,,,,,,,,,,,,,,,,,,,,,,,,,,,,,178.2512553539127,178.2512553539127,178.2512553539127,178.2512553539127,178.2512553539127,178.2512553539127,178.2512553539127,178.2512553539127,178.2512553539127,178.2512553539127,l,0.7933231440838426,10,233,0,179.0706268970389,180.58559591695666,,,,,,,,,,,,,,,,,,,,,,,,,,,,,,,,,,,,,,,,,,,,,,,,,,,,,,,,,,,,,,,,,,,,,,67592,2022-11-15_14h01.31.669,vts_reward_expectancy_bt_OFFLINE,2022.2.4,60.06698631814396,
0,0,1,0,0,0,0,1,hexagon,star,0,0,0,0,3,8,44,8,,,,,,,,,,,,,,,,,,,,,,,,,,,,,,,,,,,,,,,,181.0855781249702,181.0855781249702,181.0855781249702,181.0855781249702,181.0855781249702,181.0855781249702,181.0855781249702,181.0855781249702,181.0855781249702,181.0855781249702,l,5.384709522128105,1,234,0,186.49157010298222,188.00685267802328,,,,,,,,,,,,,,,,,,,,,,,,,,,,,,,,,,,,,,,,,,,,,,,,,,,,,,,,,,,,,,,,,,,,,,67592,2022-11-15_14h01.31.669,vts_reward_expectancy_bt_OFFLINE,2022.2.4,60.06698631814396,
1,0,0,0,0,1,0,0,triangle,circle,0,0,0,0,3,9,45,0,,,,,,,,,,,,,,,,,,,,,,,,,,,,,,,,,,,,,,,,188.49206213094294,188.49206213094294,188.49206213094294,188.49206213094294,188.49206213094294,188.49206213094294,188.49206213094294,188.49206213094294,188.49206213094294,188.49206213094294,a,0.7118016872555017,1,235,0,189.2260192669928,190.72651255386882,190.72651255386882,191.22652517305687,,,,,,,,,,,,,,,,,,,,,,,,,,,,,,,,,,,,,,,,,,,,,,,,,,,,,,,,,,,,,,,,,,,,67592,2022-11-15_14h01.31.669,vts_reward_expectancy_bt_OFFLINE,2022.2.4,60.06698631814396,
0,0,0,1,1,0,0,0,star,triangle,0,0,0,0,3,10,46,9,,,,,,,,,,,,,,,,,,,,,,,,,,,,,,,,,,,,,,,,191.22652517305687,191.22652517305687,191.22652517305687,191.22652517305687,191.22652517305687,191.22652517305687,191.22652517305687,191.22652517305687,191.22652517305687,191.22652517305687,l,0.575626655947417,10,245,0,191.828664684901,193.32885830895975,,,,,,,,,,,,,,,,,,,,,,,,,,,,,,,,,,,,,,,,,,,,,,,,,,,,,,,,,,,,,,,,,,,,,,67592,2022-11-15_14h01.31.669,vts_reward_expectancy_bt_OFFLINE,2022.2.4,60.06698631814396,
0,1,0,0,1,0,0,0,circle,triangle,0,0,0,0,3,11,47,3,,,,,,,,,,,,,,,,,,,,,,,,,,,,,,,,,,,,,,,,193.8289378960617,193.8289378960617,193.8289378960617,193.8289378960617,193.8289378960617,193.8289378960617,193.8289378960617,193.8289378960617,193.8289378960617,193.8289378960617,l,0.6851230061147362,10,255,0,194.5464484288823,196.04696897394024,196.04696897394024,196.55264684697613,,,,,,,,,,,,,,,,,,,,,,,,,,,,,,,,,,,,,,,,,,,,,,,,,,,,,,,,,,,,,,,,,,,,67592,2022-11-15_14h01.31.669,vts_reward_expectancy_bt_OFFLINE,2022.2.4,60.06698631814396,
0,1,0,0,0,0,0,1,circle,star,1,0,1,0,0,0,0,5,,,,,,,,,,,,,,,,,,,,,,,,,,,,,,,,,,,,,,,,201.3607524118852,201.3607524118852,201.3607524118852,201.3607524118852,201.3607524118852,201.3607524118852,201.3607524118852,201.3607524118852,201.3607524118852,201.3607524118852,a,1.0166344540193677,10,265,1,202.4011538240593,203.9033029950224,,,,,,,,,,,,,,,,,,,,,,,,,,,,,,,,,,,,,,,,,,,,,,,,,,,,,,,,,,,,,,,,,,,,,,67592,2022-11-15_14h01.31.669,vts_reward_expectancy_bt_OFFLINE,2022.2.4,60.06698631814396,
0,0,0,1,0,0,1,0,star,hexagon,1,0,1,0,0,1,1,11,,,,,,,,,,,,,,,,,,,,,,,,,,,,,,,,,,,,,,,,204.40350068500265,204.40350068500265,204.40350068500265,204.40350068500265,204.40350068500265,204.40350068500265,204.40350068500265,204.40350068500265,204.40350068500265,204.40350068500265,l,0.39308063220232725,10,275,1,204.82004608004354,206.32046414585784,206.32046414585784,,,,,,,,,,,,,,,,,,,,,,,,,,,,,,,,,,,,,,,,,,,,,,,,,,,,,,,,,,,,,,,,,,,,,67592,2022-11-15_14h01.31.669,vts_reward_expectancy_bt_OFFLINE,2022.2.4,60.06698631814396,
0,1,0,0,0,0,1,0,circle,hexagon,1,0,1,0,0,2,2,4,,,,,,,,,,,,,,,,,,,,,,,,,,,,,,,,,,,,,,,,206.82058687601238,206.82058687601238,206.82058687601238,206.82058687601238,206.82058687601238,206.82058687601238,206.82058687601238,206.82058687601238,206.82058687601238,206.82058687601238,l,0.529690831201151,10,285,1,207.37113967398182,208.87330598384142,,,,,,,,,,,,,,,,,,,,,,,,,,,,,,,,,,,,,,,,,,,,,,,,,,,,,,,,,,,,,,,,,,,,,,67592,2022-11-15_14h01.31.669,vts_reward_expectancy_bt_OFFLINE,2022.2.4,60.06698631814396,
0,0,0,1,0,1,0,0,star ,circle,1,0,1,0,0,3,3,10,,,,,,,,,,,,,,,,,,,,,,,,,,,,,,,,,,,,,,,,209.37336566089652,209.37336566089652,209.37336566089652,209.37336566089652,209.37336566089652,209.37336566089652,209.37336566089652,209.37336566089652,209.37336566089652,209.37336566089652,l,0.41860513808205724,1,286,1,209.82453160290606,211.32392124086618,211.32392124086618,211.82418290199712,,,,,,,,,,,,,,,,,,,,,,,,,,,,,,,,,,,,,,,,,,,,,,,,,,,,,,,,,,,,,,,,,,,,67592,2022-11-15_14h01.31.669,vts_reward_expectancy_bt_OFFLINE,2022.2.4,60.06698631814396,
0,0,1,0,0,1,0,0,hexagon,circle,1,0,1,0,0,4,4,7,,,,,,,,,,,,,,,,,,,,,,,,,,,,,,,,,,,,,,,,211.82418290199712,211.82418290199712,211.82418290199712,211.82418290199712,211.82418290199712,211.82418290199712,211.82418290199712,211.82418290199712,211.82418290199712,211.82418290199712,l,1.2299725031480193,1,287,1,213.07471266691573,214.57711762702093,,,,,,,,,,,,,,,,,,,,,,,,,,,,,,,,,,,,,,,,,,,,,,,,,,,,,,,,,,,,,,,,,,,,,,67592,2022-11-15_14h01.31.669,vts_reward_expectancy_bt_OFFLINE,2022.2.4,60.06698631814396,
0,1,0,0,1,0,0,0,circle,triangle,1,0,1,0,0,5,5,3,,,,,,,,,,,,,,,,,,,,,,,,,,,,,,,,,,,,,,,,215.07733561098576,215.07733561098576,215.07733561098576,215.07733561098576,215.07733561098576,215.07733561098576,215.07733561098576,215.07733561098576,215.07733561098576,215.07733561098576,a,0.4757606761995703,10,297,1,215.5795429709833,217.09469876997173,,,,,,,,,,,,,,,,,,,,,,,,,,,,,,,,,,,,,,,,,,,,,,,,,,,,,,,,,,,,,,,,,,,,,,67592,2022-11-15_14h01.31.669,vts_reward_expectancy_bt_OFFLINE,2022.2.4,60.06698631814396,
1,0,0,0,0,1,0,0,triangle,circle,1,0,1,0,0,6,6,0,,,,,,,,,,,,,,,,,,,,,,,,,,,,,,,,,,,,,,,,217.59470848203637,217.59470848203637,217.59470848203637,217.59470848203637,217.59470848203637,217.59470848203637,217.59470848203637,217.59470848203637,217.59470848203637,217.59470848203637,l,0.5454597671050578,1,298,1,218.1666657149326,219.68132091290317,,,,,,,,,,,,,,,,,,,,,,,,,,,,,,,,,,,,,,,,,,,,,,,,,,,,,,,,,,,,,,,,,,,,,,67592,2022-11-15_14h01.31.669,vts_reward_expectancy_bt_OFFLINE,2022.2.4,60.06698631814396,
1,0,0,0,0,0,1,0,triangle,hexagon,1,0,1,0,0,7,7,1,,,,,,,,,,,,,,,,,,,,,,,,,,,,,,,,,,,,,,,,220.18166050687432,220.18166050687432,220.18166050687432,220.18166050687432,220.18166050687432,220.18166050687432,220.18166050687432,220.18166050687432,220.18166050687432,220.18166050687432,a,0.321056229993701,10,308,1,220.53320378693752,222.0485782069154,,,,,,,,,,,,,,,,,,,,,,,,,,,,,,,,,,,,,,,,,,,,,,,,,,,,,,,,,,,,,,,,,,,,,,67592,2022-11-15_14h01.31.669,vts_reward_expectancy_bt_OFFLINE,2022.2.4,60.06698631814396,
0,0,1,0,0,0,0,1,hexagon,star,1,0,1,0,0,8,8,8,,,,,,,,,,,,,,,,,,,,,,,,,,,,,,,,,,,,,,,,222.54860289697535,222.54860289697535,222.54860289697535,222.54860289697535,222.54860289697535,222.54860289697535,222.54860289697535,222.54860289697535,222.54860289697535,222.54860289697535,a,0.3840709610376507,10,318,1,222.9493566120509,224.45162770687602,,,,,,,,,,,,,,,,,,,,,,,,,,,,,,,,,,,,,,,,,,,,,,,,,,,,,,,,,,,,,,,,,,,,,,67592,2022-11-15_14h01.31.669,vts_reward_expectancy_bt_OFFLINE,2022.2.4,60.06698631814396,
0,0,1,0,1,0,0,0,hexagon,triangle,1,0,1,0,0,9,9,6,,,,,,,,,,,,,,,,,,,,,,,,,,,,,,,,,,,,,,,,224.95171492686495,224.95171492686495,224.95171492686495,224.95171492686495,224.95171492686495,224.95171492686495,224.95171492686495,224.95171492686495,224.95171492686495,224.95171492686495,a,0.6141831742133945,10,328,1,225.58494682004675,227.08530711987987,227.08530711987987,227.58558599185199,,,,,,,,,,,,,,,,,,,,,,,,,,,,,,,,,,,,,,,,,,,,,,,,,,,,,,,,,,,,,,,,,,,,67592,2022-11-15_14h01.31.669,vts_reward_expectancy_bt_OFFLINE,2022.2.4,60.06698631814396,
1,0,0,0,0,0,0,1,triangle,star,1,0,1,0,0,10,10,2,,,,,,,,,,,,,,,,,,,,,,,,,,,,,,,,,,,,,,,,227.58558599185199,227.58558599185199,227.58558599185199,227.58558599185199,227.58558599185199,227.58558599185199,227.58558599185199,227.58558599185199,227.58558599185199,227.58558599185199,l,0.33101402106694877,1,329,1,227.93706902093254,229.43801813293248,,,,,,,,,,,,,,,,,,,,,,,,,,,,,,,,,,,,,,,,,,,,,,,,,,,,,,,,,,,,,,,,,,,,,,67592,2022-11-15_14h01.31.669,vts_reward_expectancy_bt_OFFLINE,2022.2.4,60.06698631814396,
0,0,0,1,1,0,0,0,star,triangle,1,0,1,0,0,11,11,9,,,,,,,,,,,,,,,,,,,,,,,,,,,,,,,,,,,,,,,,229.93834319501184,229.93834319501184,229.93834319501184,229.93834319501184,229.93834319501184,229.93834319501184,229.93834319501184,229.93834319501184,229.93834319501184,229.93834319501184,a,0.9824222021270543,10,339,1,230.9408149048686,232.45564370206557,,,,,,,,,,,,,,,,,,,,,,,,,,,,,,,,,,,,,,,,,,,,,,,,,,,,,,,,,,,,,,,,,,,,,,67592,2022-11-15_14h01.31.669,vts_reward_expectancy_bt_OFFLINE,2022.2.4,60.06698631814396,
0,0,1,0,1,0,0,0,hexagon,triangle,1,0,1,0,1,0,12,6,,,,,,,,,,,,,,,,,,,,,,,,,,,,,,,,,,,,,,,,232.95563262095675,232.95563262095675,232.95563262095675,232.95563262095675,232.95563262095675,232.95563262095675,232.95563262095675,232.95563262095675,232.95563262095675,232.95563262095675,a,1.1832981072366238,1,340,1,234.16040173498914,235.67559475405142,,,,,,,,,,,,,,,,,,,,,,,,,,,,,,,,,,,,,,,,,,,,,,,,,,,,,,,,,,,,,,,,,,,,,,67592,2022-11-15_14h01.31.669,vts_reward_expectancy_bt_OFFLINE,2022.2.4,60.06698631814396,
1,0,0,0,0,1,0,0,triangle,circle,1,0,1,0,1,1,13,0,,,,,,,,,,,,,,,,,,,,,,,,,,,,,,,,,,,,,,,,236.17562770890072,236.17562770890072,236.17562770890072,236.17562770890072,236.17562770890072,236.17562770890072,236.17562770890072,236.17562770890072,236.17562770890072,236.17562770890072,l,0.5387306180782616,10,350,1,236.74450511485338,238.24471686105244,,,,,,,,,,,,,,,,,,,,,,,,,,,,,,,,,,,,,,,,,,,,,,,,,,,,,,,,,,,,,,,,,,,,,,67592,2022-11-15_14h01.31.669,vts_reward_expectancy_bt_OFFLINE,2022.2.4,60.06698631814396,
0,0,1,0,0,0,0,1,hexagon,star,1,0,1,0,1,2,14,8,,,,,,,,,,,,,,,,,,,,,,,,,,,,,,,,,,,,,,,,238.74494367302395,238.74494367302395,238.74494367302395,238.74494367302395,238.74494367302395,238.74494367302395,238.74494367302395,238.74494367302395,238.74494367302395,238.74494367302395,a,1.6481987359002233,10,360,1,240.412218489917,241.91271726693958,241.91271726693958,242.41270261094905,,,,,,,,,,,,,,,,,,,,,,,,,,,,,,,,,,,,,,,,,,,,,,,,,,,,,,,,,,,,,,,,,,,,67592,2022-11-15_14h01.31.669,vts_reward_expectancy_bt_OFFLINE,2022.2.4,60.06698631814396,
1,0,0,0,0,0,0,1,triangle,star,1,0,1,0,1,3,15,2,,,,,,,,,,,,,,,,,,,,,,,,,,,,,,,,,,,,,,,,242.41270261094905,242.41270261094905,242.41270261094905,242.41270261094905,242.41270261094905,242.41270261094905,242.41270261094905,242.41270261094905,242.41270261094905,242.41270261094905,l,0.3771873542573303,1,361,1,242.81459717592224,244.31586579000577,,,,,,,,,,,,,,,,,,,,,,,,,,,,,,,,,,,,,,,,,,,,,,,,,,,,,,,,,,,,,,,,,,,,,,67592,2022-11-15_14h01.31.669,vts_reward_expectancy_bt_OFFLINE,2022.2.4,60.06698631814396,
1,0,0,0,0,0,1,0,triangle,hexagon,1,0,1,0,1,4,16,1,,,,,,,,,,,,,,,,,,,,,,,,,,,,,,,,,,,,,,,,244.8162159549538,244.8162159549538,244.8162159549538,244.8162159549538,244.8162159549538,244.8162159549538,244.8162159549538,244.8162159549538,244.8162159549538,244.8162159549538,l,0.7750454121269286,1,362,1,245.61777773406357,247.1334591328632,,,,,,,,,,,,,,,,,,,,,,,,,,,,,,,,,,,,,,,,,,,,,,,,,,,,,,,,,,,,,,,,,,,,,,67592,2022-11-15_14h01.31.669,vts_reward_expectancy_bt_OFFLINE,2022.2.4,60.06698631814396,
0,0,0,1,1,0,0,0,star,triangle,1,0,1,0,1,5,17,9,,,,,,,,,,,,,,,,,,,,,,,,,,,,,,,,,,,,,,,,247.63346471684054,247.63346471684054,247.63346471684054,247.63346471684054,247.63346471684054,247.63346471684054,247.63346471684054,247.63346471684054,247.63346471684054,247.63346471684054,a,0.5229235459119081,10,372,1,248.1755586429499,249.68677775887772,,,,,,,,,,,,,,,,,,,,,,,,,,,,,,,,,,,,,,,,,,,,,,,,,,,,,,,,,,,,,,,,,,,,,,67592,2022-11-15_14h01.31.669,vts_reward_expectancy_bt_OFFLINE,2022.2.4,60.06698631814396,
0,0,1,0,0,1,0,0,hexagon,circle,1,0,1,0,1,6,18,7,,,,,,,,,,,,,,,,,,,,,,,,,,,,,,,,,,,,,,,,250.18751106387936,250.18751106387936,250.18751106387936,250.18751106387936,250.18751106387936,250.18751106387936,250.18751106387936,250.18751106387936,250.18751106387936,250.18751106387936,l,0.6345925040077418,1,373,1,250.85415342194028,252.3538449278567,252.3538449278567,252.85371688799933,,,,,,,,,,,,,,,,,,,,,,,,,,,,,,,,,,,,,,,,,,,,,,,,,,,,,,,,,,,,,,,,,,,,67592,2022-11-15_14h01.31.669,vts_reward_expectancy_bt_OFFLINE,2022.2.4,60.06698631814396,
0,1,0,0,0,0,0,1,circle,star,1,0,1,0,1,7,19,5,,,,,,,,,,,,,,,,,,,,,,,,,,,,,,,,,,,,,,,,252.85371688799933,252.85371688799933,252.85371688799933,252.85371688799933,252.85371688799933,252.85371688799933,252.85371688799933,252.85371688799933,252.85371688799933,252.85371688799933,a,0.37699397513642907,1,374,1,253.2559105020482,254.75622567092068,254.75622567092068,,,,,,,,,,,,,,,,,,,,,,,,,,,,,,,,,,,,,,,,,,,,,,,,,,,,,,,,,,,,,,,,,,,,,67592,2022-11-15_14h01.31.669,vts_reward_expectancy_bt_OFFLINE,2022.2.4,60.06698631814396,
0,0,0,1,0,0,1,0,star,hexagon,1,0,1,0,1,8,20,11,,,,,,,,,,,,,,,,,,,,,,,,,,,,,,,,,,,,,,,,255.25652283104137,255.25652283104137,255.25652283104137,255.25652283104137,255.25652283104137,255.25652283104137,255.25652283104137,255.25652283104137,255.25652283104137,255.25652283104137,a,0.9437767940107733,10,384,1,256.22586965491064,257.7407791719306,,,,,,,,,,,,,,,,,,,,,,,,,,,,,,,,,,,,,,,,,,,,,,,,,,,,,,,,,,,,,,,,,,,,,,67592,2022-11-15_14h01.31.669,vts_reward_expectancy_bt_OFFLINE,2022.2.4,60.06698631814396,
0,1,0,0,1,0,0,0,circle,triangle,1,0,1,0,1,9,21,3,,,,,,,,,,,,,,,,,,,,,,,,,,,,,,,,,,,,,,,,258.2257819669321,258.2257819669321,258.2257819669321,258.2257819669321,258.2257819669321,258.2257819669321,258.2257819669321,258.2257819669321,258.2257819669321,258.2257819669321,l,0.8663092579226941,10,394,1,259.1100680748932,260.6104209749028,,261.11045396188274,,,,,,,,,,,,,,,,,,,,,,,,,,,,,,,,,,,,,,,,,,,,,,,,,,,,,,,,,,,,,,,,,,,,67592,2022-11-15_14h01.31.669,vts_reward_expectancy_bt_OFFLINE,2022.2.4,60.06698631814396,
0,0,0,1,0,1,0,0,star ,circle,1,0,1,0,1,10,22,10,,,,,,,,,,,,,,,,,,,,,,,,,,,,,,,,,,,,,,,,261.11045396188274,261.11045396188274,261.11045396188274,261.11045396188274,261.11045396188274,261.11045396188274,261.11045396188274,261.11045396188274,261.11045396188274,261.11045396188274,l,0.6808530120179057,10,404,1,261.81119939801283,263.31290928903036,,,,,,,,,,,,,,,,,,,,,,,,,,,,,,,,,,,,,,,,,,,,,,,,,,,,,,,,,,,,,,,,,,,,,,67592,2022-11-15_14h01.31.669,vts_reward_expectancy_bt_OFFLINE,2022.2.4,60.06698631814396,
0,1,0,0,0,0,1,0,circle,hexagon,1,0,1,0,1,11,23,4,,,,,,,,,,,,,,,,,,,,,,,,,,,,,,,,,,,,,,,,263.8130944459699,263.8130944459699,263.8130944459699,263.8130944459699,263.8130944459699,263.8130944459699,263.8130944459699,263.8130944459699,263.8130944459699,263.8130944459699,l,0.5100064452271909,10,414,1,264.347364529036,265.847467581043,265.847467581043,266.34756660996936,,,,,,,,,,,,,,,,,,,,,,,,,,,,,,,,,,,,,,,,,,,,,,,,,,,,,,,,,,,,,,,,,,,,67592,2022-11-15_14h01.31.669,vts_reward_expectancy_bt_OFFLINE,2022.2.4,60.06698631814396,
0,0,1,0,1,0,0,0,hexagon,triangle,1,0,1,0,2,0,24,6,,,,,,,,,,,,,,,,,,,,,,,,,,,,,,,,,,,,,,,,266.34756660996936,266.34756660996936,266.34756660996936,266.34756660996936,266.34756660996936,266.34756660996936,266.34756660996936,266.34756660996936,266.34756660996936,266.34756660996936,a,0.39414644916541874,10,424,1,266.7645499398932,268.2667037739884,,,,,,,,,,,,,,,,,,,,,,,,,,,,,,,,,,,,,,,,,,,,,,,,,,,,,,,,,,,,,,,,,,,,,,67592,2022-11-15_14h01.31.669,vts_reward_expectancy_bt_OFFLINE,2022.2.4,60.06698631814396,
0,0,0,1,0,0,1,0,star,hexagon,1,0,1,0,2,1,25,11,,,,,,,,,,,,,,,,,,,,,,,,,,,,,,,,,,,,,,,,268.76693556294776,268.76693556294776,268.76693556294776,268.76693556294776,268.76693556294776,268.76693556294776,268.76693556294776,268.76693556294776,268.76693556294776,268.76693556294776,a,0.6306218840181828,1,425,1,269.4196365089156,270.9340894059278,,,,,,,,,,,,,,,,,,,,,,,,,,,,,,,,,,,,,,,,,,,,,,,,,,,,,,,,,,,,,,,,,,,,,,67592,2022-11-15_14h01.31.669,vts_reward_expectancy_bt_OFFLINE,2022.2.4,60.06698631814396,
0,0,0,1,0,1,0,0,star ,circle,1,0,1,0,2,2,26,10,,,,,,,,,,,,,,,,,,,,,,,,,,,,,,,,,,,,,,,,271.4342399558518,271.4342399558518,271.4342399558518,271.4342399558518,271.4342399558518,271.4342399558518,271.4342399558518,271.4342399558518,271.4342399558518,271.4342399558518,l,0.39257729426026344,1,426,1,271.8520021359436,273.3537142518908,,,,,,,,,,,,,,,,,,,,,,,,,,,,,,,,,,,,,,,,,,,,,,,,,,,,,,,,,,,,,,,,,,,,,,67592,2022-11-15_14h01.31.669,vts_reward_expectancy_bt_OFFLINE,2022.2.4,60.06698631814396,
0,1,0,0,0,0,0,1,circle,star,1,0,1,0,2,3,27,5,,,,,,,,,,,,,,,,,,,,,,,,,,,,,,,,,,,,,,,,273.8538083259482,273.8538083259482,273.8538083259482,273.8538083259482,273.8538083259482,273.8538083259482,273.8538083259482,273.8538083259482,273.8538083259482,273.8538083259482,a,0.5055119681637734,1,427,1,274.38777084089816,275.8884623409249,275.8884623409249,276.38859144598246,,,,,,,,,,,,,,,,,,,,,,,,,,,,,,,,,,,,,,,,,,,,,,,,,,,,,,,,,,,,,,,,,,,,67592,2022-11-15_14h01.31.669,vts_reward_expectancy_bt_OFFLINE,2022.2.4,60.06698631814396,
0,0,1,0,0,1,0,0,hexagon,circle,1,0,1,0,2,4,28,7,,,,,,,,,,,,,,,,,,,,,,,,,,,,,,,,,,,,,,,,276.38859144598246,276.38859144598246,276.38859144598246,276.38859144598246,276.38859144598246,276.38859144598246,276.38859144598246,276.38859144598246,276.38859144598246,276.38859144598246,l,0.2879540210124105,1,428,1,276.7056963138748,278.2076058089733,,,,,,,,,,,,,,,,,,,,,,,,,,,,,,,,,,,,,,,,,,,,,,,,,,,,,,,,,,,,,,,,,,,,,,67592,2022-11-15_14h01.31.669,vts_reward_expectancy_bt_OFFLINE,2022.2.4,60.06698631814396,
1,0,0,0,0,0,0,1,triangle,star,1,0,1,0,2,5,29,2,,,,,,,,,,,,,,,,,,,,,,,,,,,,,,,,,,,,,,,,278.7079709689133,278.7079709689133,278.7079709689133,278.7079709689133,278.7079709689133,278.7079709689133,278.7079709689133,278.7079709689133,278.7079709689133,278.7079709689133,a,0.25255196704529226,1,429,1,278.9909191359766,280.4915465230588,280.4915465230588,280.99153090291657,,,,,,,,,,,,,,,,,,,,,,,,,,,,,,,,,,,,,,,,,,,,,,,,,,,,,,,,,,,,,,,,,,,,67592,2022-11-15_14h01.31.669,vts_reward_expectancy_bt_OFFLINE,2022.2.4,60.06698631814396,
0,1,0,0,0,0,1,0,circle,hexagon,1,0,1,0,2,6,30,4,,,,,,,,,,,,,,,,,,,,,,,,,,,,,,,,,,,,,,,,280.99153090291657,280.99153090291657,280.99153090291657,280.99153090291657,280.99153090291657,280.99153090291657,280.99153090291657,280.99153090291657,280.99153090291657,280.99153090291657,l,0.5002281800843775,1,430,1,281.509290963877,283.0094372869935,283.0094372869935,,,,,,,,,,,,,,,,,,,,,,,,,,,,,,,,,,,,,,,,,,,,,,,,,,,,,,,,,,,,,,,,,,,,,67592,2022-11-15_14h01.31.669,vts_reward_expectancy_bt_OFFLINE,2022.2.4,60.06698631814396,
1,0,0,0,0,0,1,0,triangle,hexagon,1,0,1,0,2,7,31,1,,,,,,,,,,,,,,,,,,,,,,,,,,,,,,,,,,,,,,,,283.5109679729212,283.5109679729212,283.5109679729212,283.5109679729212,283.5109679729212,283.5109679729212,283.5109679729212,283.5109679729212,283.5109679729212,283.5109679729212,l,0.6352174072526395,1,431,1,284.1777133408468,285.6783869359642,285.6783869359642,286.17848995886743,,,,,,,,,,,,,,,,,,,,,,,,,,,,,,,,,,,,,,,,,,,,,,,,,,,,,,,,,,,,,,,,,,,,67592,2022-11-15_14h01.31.669,vts_reward_expectancy_bt_OFFLINE,2022.2.4,60.06698631814396,
0,0,0,1,1,0,0,0,star,triangle,1,0,1,0,2,8,32,9,,,,,,,,,,,,,,,,,,,,,,,,,,,,,,,,,,,,,,,,286.17848995886743,286.17848995886743,286.17848995886743,286.17848995886743,286.17848995886743,286.17848995886743,286.17848995886743,286.17848995886743,286.17848995886743,286.17848995886743,a,0.26307151722721756,10,441,1,286.464342355961,287.97917869105004,,,,,,,,,,,,,,,,,,,,,,,,,,,,,,,,,,,,,,,,,,,,,,,,,,,,,,,,,,,,,,,,,,,,,,67592,2022-11-15_14h01.31.669,vts_reward_expectancy_bt_OFFLINE,2022.2.4,60.06698631814396,
0,0,1,0,0,0,0,1,hexagon,star,1,0,1,0,2,9,33,8,,,,,,,,,,,,,,,,,,,,,,,,,,,,,,,,,,,,,,,,288.4651984299999,288.4651984299999,288.4651984299999,288.4651984299999,288.4651984299999,288.4651984299999,288.4651984299999,288.4651984299999,288.4651984299999,288.4651984299999,a,0.3841267579700798,10,451,1,288.8812678770628,290.38194724102505,290.38194724102505,290.88240003492683,,,,,,,,,,,,,,,,,,,,,,,,,,,,,,,,,,,,,,,,,,,,,,,,,,,,,,,,,,,,,,,,,,,,67592,2022-11-15_14h01.31.669,vts_reward_expectancy_bt_OFFLINE,2022.2.4,60.06698631814396,
1,0,0,0,0,1,0,0,triangle,circle,1,0,1,0,2,10,34,0,,,,,,,,,,,,,,,,,,,,,,,,,,,,,,,,,,,,,,,,290.88240003492683,290.88240003492683,290.88240003492683,290.88240003492683,290.88240003492683,290.88240003492683,290.88240003492683,290.88240003492683,290.88240003492683,290.88240003492683,a,0.7127483850345016,10,461,1,291.61629497096874,293.1166792260483,293.1166792260483,,,,,,,,,,,,,,,,,,,,,,,,,,,,,,,,,,,,,,,,,,,,,,,,,,,,,,,,,,,,,,,,,,,,,67592,2022-11-15_14h01.31.669,vts_reward_expectancy_bt_OFFLINE,2022.2.4,60.06698631814396,
0,1,0,0,1,0,0,0,circle,triangle,1,0,1,0,2,11,35,3,,,,,,,,,,,,,,,,,,,,,,,,,,,,,,,,,,,,,,,,293.6182400849648,293.6182400849648,293.6182400849648,293.6182400849648,293.6182400849648,293.6182400849648,293.6182400849648,293.6182400849648,293.6182400849648,293.6182400849648,a,0.8672382850199938,1,462,1,294.50480685406365,296.01916735293344,,,,,,,,,,,,,,,,,,,,,,,,,,,,,,,,,,,,,,,,,,,,,,,,,,,,,,,,,,,,,,,,,,,,,,67592,2022-11-15_14h01.31.669,vts_reward_expectancy_bt_OFFLINE,2022.2.4,60.06698631814396,
1,0,0,0,0,1,0,0,triangle,circle,1,0,1,0,3,0,36,0,,,,,,,,,,,,,,,,,,,,,,,,,,,,,,,,,,,,,,,,296.519493981963,296.519493981963,296.519493981963,296.519493981963,296.519493981963,296.519493981963,296.519493981963,296.519493981963,296.519493981963,296.519493981963,l,0.7336143392603844,10,472,1,297.2723347879946,298.77244114596397,,,,,,,,,,,,,,,,,,,,,,,,,,,,,,,,,,,,,,,,,,,,,,,,,,,,,,,,,,,,,,,,,,,,,,67592,2022-11-15_14h01.31.669,vts_reward_expectancy_bt_OFFLINE,2022.2.4,60.06698631814396,
0,0,0,1,1,0,0,0,star,triangle,1,0,1,0,3,1,37,9,,,,,,,,,,,,,,,,,,,,,,,,,,,,,,,,,,,,,,,,299.27259955299087,299.27259955299087,299.27259955299087,299.27259955299087,299.27259955299087,299.27259955299087,299.27259955299087,299.27259955299087,299.27259955299087,299.27259955299087,l,0.5909813491161913,1,473,1,299.8917082878761,301.4063606238924,,,,,,,,,,,,,,,,,,,,,,,,,,,,,,,,,,,,,,,,,,,,,,,,,,,,,,,,,,,,,,,,,,,,,,67592,2022-11-15_14h01.31.669,vts_reward_expectancy_bt_OFFLINE,2022.2.4,60.06698631814396,
0,1,0,0,0,0,0,1,circle,star,1,0,1,0,3,2,38,5,,,,,,,,,,,,,,,,,,,,,,,,,,,,,,,,,,,,,,,,301.9066080530174,301.9066080530174,301.9066080530174,301.9066080530174,301.9066080530174,301.9066080530174,301.9066080530174,301.9066080530174,301.9066080530174,301.9066080530174,a,0.34243585099466145,10,483,1,302.2761940648779,303.7754864990711,,,,,,,,,,,,,,,,,,,,,,,,,,,,,,,,,,,,,,,,,,,,,,,,,,,,,,,,,,,,,,,,,,,,,,67592,2022-11-15_14h01.31.669,vts_reward_expectancy_bt_OFFLINE,2022.2.4,60.06698631814396,
0,0,1,0,0,1,0,0,hexagon,circle,1,0,1,0,3,3,39,7,,,,,,,,,,,,,,,,,,,,,,,,,,,,,,,,,,,,,,,,304.2759399448987,304.2759399448987,304.2759399448987,304.2759399448987,304.2759399448987,304.2759399448987,304.2759399448987,304.2759399448987,304.2759399448987,304.2759399448987,a,0.4596732680220157,1,484,1,304.76197520806454,306.2765247570351,,,,,,,,,,,,,,,,,,,,,,,,,,,,,,,,,,,,,,,,,,,,,,,,,,,,,,,,,,,,,,,,,,,,,,67592,2022-11-15_14h01.31.669,vts_reward_expectancy_bt_OFFLINE,2022.2.4,60.06698631814396,
0,0,0,1,0,1,0,0,star ,circle,1,0,1,0,3,4,40,10,,,,,,,,,,,,,,,,,,,,,,,,,,,,,,,,,,,,,,,,306.7767813268583,306.7767813268583,306.7767813268583,306.7767813268583,306.7767813268583,306.7767813268583,306.7767813268583,306.7767813268583,306.7767813268583,306.7767813268583,a,0.5232294101733714,1,485,1,307.32776859402657,308.829415370943,,,,,,,,,,,,,,,,,,,,,,,,,,,,,,,,,,,,,,,,,,,,,,,,,,,,,,,,,,,,,,,,,,,,,,67592,2022-11-15_14h01.31.669,vts_reward_expectancy_bt_OFFLINE,2022.2.4,60.06698631814396,
0,1,0,0,1,0,0,0,circle,triangle,1,0,1,0,3,5,41,3,,,,,,,,,,,,,,,,,,,,,,,,,,,,,,,,,,,,,,,,309.3298009019345,309.3298009019345,309.3298009019345,309.3298009019345,309.3298009019345,309.3298009019345,309.3298009019345,309.3298009019345,309.3298009019345,309.3298009019345,l,0.5252309411298484,1,486,1,309.8805859328713,311.38064378593117,311.38064378593117,311.88091451395303,,,,,,,,,,,,,,,,,,,,,,,,,,,,,,,,,,,,,,,,,,,,,,,,,,,,,,,,,,,,,,,,,,,,67592,2022-11-15_14h01.31.669,vts_reward_expectancy_bt_OFFLINE,2022.2.4,60.06698631814396,
0,0,1,0,1,0,0,0,hexagon,triangle,1,0,1,0,3,6,42,6,,,,,,,,,,,,,,,,,,,,,,,,,,,,,,,,,,,,,,,,311.88091451395303,311.88091451395303,311.88091451395303,311.88091451395303,311.88091451395303,311.88091451395303,311.88091451395303,311.88091451395303,311.88091451395303,311.88091451395303,a,1.1341912760399282,1,487,1,313.0476762710605,314.5498930248432,,,,,,,,,,,,,,,,,,,,,,,,,,,,,,,,,,,,,,,,,,,,,,,,,,,,,,,,,,,,,,,,,,,,,,67592,2022-11-15_14h01.31.669,vts_reward_expectancy_bt_OFFLINE,2022.2.4,60.06698631814396,
1,0,0,0,0,0,0,1,triangle,star,1,0,1,0,3,7,43,2,,,,,,,,,,,,,,,,,,,,,,,,,,,,,,,,,,,,,,,,315.05024550505914,315.05024550505914,315.05024550505914,315.05024550505914,315.05024550505914,315.05024550505914,315.05024550505914,315.05024550505914,315.05024550505914,315.05024550505914,l,0.394918488105759,10,497,1,315.46955741290003,316.98434089892544,,,,,,,,,,,,,,,,,,,,,,,,,,,,,,,,,,,,,,,,,,,,,,,,,,,,,,,,,,,,,,,,,,,,,,67592,2022-11-15_14h01.31.669,vts_reward_expectancy_bt_OFFLINE,2022.2.4,60.06698631814396,
1,0,0,0,0,0,1,0,triangle,hexagon,1,0,1,0,3,8,44,1,,,,,,,,,,,,,,,,,,,,,,,,,,,,,,,,,,,,,,,,317.48416597303003,317.48416597303003,317.48416597303003,317.48416597303003,317.48416597303003,317.48416597303003,317.48416597303003,317.48416597303003,317.48416597303003,317.48416597303003,l,2.3380696550011635,10,507,1,319.85373613703996,321.3541531970259,321.3541531970259,321.8543964859564,,,,,,,,,,,,,,,,,,,,,,,,,,,,,,,,,,,,,,,,,,,,,,,,,,,,,,,,,,,,,,,,,,,,67592,2022-11-15_14h01.31.669,vts_reward_expectancy_bt_OFFLINE,2022.2.4,60.06698631814396,
0,1,0,0,0,0,1,0,circle,hexagon,1,0,1,0,3,9,45,4,,,,,,,,,,,,,,,,,,,,,,,,,,,,,,,,,,,,,,,,321.8543964859564,321.8543964859564,321.8543964859564,321.8543964859564,321.8543964859564,321.8543964859564,321.8543964859564,321.8543964859564,321.8543964859564,321.8543964859564,a,0.6458037700504065,10,517,1,322.5216404150706,324.0240003839135,,,,,,,,,,,,,,,,,,,,,,,,,,,,,,,,,,,,,,,,,,,,,,,,,,,,,,,,,,,,,,,,,,,,,,67592,2022-11-15_14h01.31.669,vts_reward_expectancy_bt_OFFLINE,2022.2.4,60.06698631814396,
0,0,0,1,0,0,1,0,star,hexagon,1,0,1,0,3,10,46,11,,,,,,,,,,,,,,,,,,,,,,,,,,,,,,,,,,,,,,,,324.52424280089326,324.52424280089326,324.52424280089326,324.52424280089326,324.52424280089326,324.52424280089326,324.52424280089326,324.52424280089326,324.52424280089326,324.52424280089326,l,0.7551845840644091,10,527,1,325.3077410028782,326.807734569069,326.807734569069,327.3076792159118,,,,,,,,,,,,,,,,,,,,,,,,,,,,,,,,,,,,,,,,,,,,,,,,,,,,,,,,,,,,,,,,,,,,67592,2022-11-15_14h01.31.669,vts_reward_expectancy_bt_OFFLINE,2022.2.4,60.06698631814396,
0,0,1,0,0,0,0,1,hexagon,star,1,0,1,0,3,11,47,8,,,,,,,,,,,,,,,,,,,,,,,,,,,,,,,,,,,,,,,,327.3076792159118,327.3076792159118,327.3076792159118,327.3076792159118,327.3076792159118,327.3076792159118,327.3076792159118,327.3076792159118,327.3076792159118,327.3076792159118,l,0.9527713779825717,1,528,1,328.28020161786117,329.7948540719226,,,,,,,,,,,,,,,,,,,,,,,,,,,,,,,,,,,,,,,,,,,,,,,,,,,,,,,,,,,,,,,,,,,,,,67592,2022-11-15_14h01.31.669,vts_reward_expectancy_bt_OFFLINE,2022.2.4,60.06698631814396,
0,1,0,0,0,0,1,0,circle,hexagon,2,0,2,0,0,0,0,4,,,,,,,,,,,,,,,,,,,,,,,,,,,,,,,,,,,,,,,,333.7922115409747,333.7922115409747,333.7922115409747,333.7922115409747,333.7922115409747,333.7922115409747,333.7922115409747,333.7922115409747,333.7922115409747,333.7922115409747,a,0.8478991400916129,10,538,2,334.6673256668728,336.18153247796,,,,,,,,,,,,,,,,,,,,,,,,,,,,,,,,,,,,,,,,,,,,,,,,,,,,,,,,,,,,,,,,,,,,,,67592,2022-11-15_14h01.31.669,vts_reward_expectancy_bt_OFFLINE,2022.2.4,60.06698631814396,
0,0,0,1,1,0,0,0,star,triangle,2,0,2,0,0,1,1,9,,,,,,,,,,,,,,,,,,,,,,,,,,,,,,,,,,,,,,,,336.68169373204,336.68169373204,336.68169373204,336.68169373204,336.68169373204,336.68169373204,336.68169373204,336.68169373204,336.68169373204,336.68169373204,l,0.5220650869887322,1,539,2,337.23540087090805,338.73455478204414,,,,,,,,,,,,,,,,,,,,,,,,,,,,,,,,,,,,,,,,,,,,,,,,,,,,,,,,,,,,,,,,,,,,,,67592,2022-11-15_14h01.31.669,vts_reward_expectancy_bt_OFFLINE,2022.2.4,60.06698631814396,
0,0,1,0,0,1,0,0,hexagon,circle,2,0,2,0,0,2,2,7,,,,,,,,,,,,,,,,,,,,,,,,,,,,,,,,,,,,,,,,339.2349796378985,339.2349796378985,339.2349796378985,339.2349796378985,339.2349796378985,339.2349796378985,339.2349796378985,339.2349796378985,339.2349796378985,339.2349796378985,l,0.5903741652145982,10,549,2,339.85413315705955,341.3517864069436,,,,,,,,,,,,,,,,,,,,,,,,,,,,,,,,,,,,,,,,,,,,,,,,,,,,,,,,,,,,,,,,,,,,,,67592,2022-11-15_14h01.31.669,vts_reward_expectancy_bt_OFFLINE,2022.2.4,60.06698631814396,
0,0,0,1,0,1,0,0,star ,circle,2,0,2,0,0,3,3,10,,,,,,,,,,,,,,,,,,,,,,,,,,,,,,,,,,,,,,,,341.8519649559166,341.8519649559166,341.8519649559166,341.8519649559166,341.8519649559166,341.8519649559166,341.8519649559166,341.8519649559166,341.8519649559166,341.8519649559166,a,0.5733092941809446,10,559,2,342.45326485298574,343.95510448887944,,,,,,,,,,,,,,,,,,,,,,,,,,,,,,,,,,,,,,,,,,,,,,,,,,,,,,,,,,,,,,,,,,,,,,67592,2022-11-15_14h01.31.669,vts_reward_expectancy_bt_OFFLINE,2022.2.4,60.06698631814396,
0,1,0,0,1,0,0,0,circle,triangle,2,0,2,0,0,4,4,3,,,,,,,,,,,,,,,,,,,,,,,,,,,,,,,,,,,,,,,,344.455448681023,344.455448681023,344.455448681023,344.455448681023,344.455448681023,344.455448681023,344.455448681023,344.455448681023,344.455448681023,344.455448681023,l,0.8713880341965705,10,569,2,345.35612680995837,346.8564956400078,346.8564956400078,347.35647469293326,,,,,,,,,,,,,,,,,,,,,,,,,,,,,,,,,,,,,,,,,,,,,,,,,,,,,,,,,,,,,,,,,,,,67592,2022-11-15_14h01.31.669,vts_reward_expectancy_bt_OFFLINE,2022.2.4,60.06698631814396,
1,0,0,0,0,0,0,1,triangle,star,2,0,2,0,0,5,5,2,,,,,,,,,,,,,,,,,,,,,,,,,,,,,,,,,,,,,,,,347.35647469293326,347.35647469293326,347.35647469293326,347.35647469293326,347.35647469293326,347.35647469293326,347.35647469293326,347.35647469293326,347.35647469293326,347.35647469293326,l,0.5803190260194242,1,570,2,347.95877427305095,349.45852364297025,,,,,,,,,,,,,,,,,,,,,,,,,,,,,,,,,,,,,,,,,,,,,,,,,,,,,,,,,,,,,,,,,,,,,,67592,2022-11-15_14h01.31.669,vts_reward_expectancy_bt_OFFLINE,2022.2.4,60.06698631814396,
1,0,0,0,0,1,0,0,triangle,circle,2,0,2,0,0,6,6,0,,,,,,,,,,,,,,,,,,,,,,,,,,,,,,,,,,,,,,,,349.9589084489271,349.9589084489271,349.9589084489271,349.9589084489271,349.9589084489271,349.9589084489271,349.9589084489271,349.9589084489271,349.9589084489271,349.9589084489271,l,0.44261523825116456,1,571,2,350.425812600879,351.92620846186765,351.92620846186765,352.4262921519112,,,,,,,,,,,,,,,,,,,,,,,,,,,,,,,,,,,,,,,,,,,,,,,,,,,,,,,,,,,,,,,,,,,,67592,2022-11-15_14h01.31.669,vts_reward_expectancy_bt_OFFLINE,2022.2.4,60.06698631814396,
0,0,1,0,0,0,0,1,hexagon,star,2,0,2,0,0,7,7,8,,,,,,,,,,,,,,,,,,,,,,,,,,,,,,,,,,,,,,,,352.4262921519112,352.4262921519112,352.4262921519112,352.4262921519112,352.4262921519112,352.4262921519112,352.4262921519112,352.4262921519112,352.4262921519112,352.4262921519112,a,0.5402316891122609,10,581,2,352.99625157983974,354.4956053160131,,,,,,,,,,,,,,,,,,,,,,,,,,,,,,,,,,,,,,,,,,,,,,,,,,,,,,,,,,,,,,,,,,,,,,67592,2022-11-15_14h01.31.669,vts_reward_expectancy_bt_OFFLINE,2022.2.4,60.06698631814396,
0,1,0,0,0,0,0,1,circle,star,2,0,2,0,0,8,8,5,,,,,,,,,,,,,,,,,,,,,,,,,,,,,,,,,,,,,,,,354.9956654328853,354.9956654328853,354.9956654328853,354.9956654328853,354.9956654328853,354.9956654328853,354.9956654328853,354.9956654328853,354.9956654328853,354.9956654328853,a,0.5915257681626827,1,582,2,355.6214681889396,357.11317940591834,,,,,,,,,,,,,,,,,,,,,,,,,,,,,,,,,,,,,,,,,,,,,,,,,,,,,,,,,,,,,,,,,,,,,,67592,2022-11-15_14h01.31.669,vts_reward_expectancy_bt_OFFLINE,2022.2.4,60.06698631814396,
1,0,0,0,0,0,1,0,triangle,hexagon,2,0,2,0,0,9,9,1,,,,,,,,,,,,,,,,,,,,,,,,,,,,,,,,,,,,,,,,357.6130828219466,357.6130828219466,357.6130828219466,357.6130828219466,357.6130828219466,357.6130828219466,357.6130828219466,357.6130828219466,357.6130828219466,357.6130828219466,l,0.5055282940156758,10,592,2,358.1493410288822,359.64925298886374,,,,,,,,,,,,,,,,,,,,,,,,,,,,,,,,,,,,,,,,,,,,,,,,,,,,,,,,,,,,,,,,,,,,,,67592,2022-11-15_14h01.31.669,vts_reward_expectancy_bt_OFFLINE,2022.2.4,60.06698631814396,
0,0,1,0,1,0,0,0,hexagon,triangle,2,0,2,0,0,10,10,6,,,,,,,,,,,,,,,,,,,,,,,,,,,,,,,,,,,,,,,,360.1493756819982,360.1493756819982,360.1493756819982,360.1493756819982,360.1493756819982,360.1493756819982,360.1493756819982,360.1493756819982,360.1493756819982,360.1493756819982,l,0.905537840211764,1,593,2,361.0976957359817,362.60035572503693,,,,,,,,,,,,,,,,,,,,,,,,,,,,,,,,,,,,,,,,,,,,,,,,,,,,,,,,,,,,,,,,,,,,,,67592,2022-11-15_14h01.31.669,vts_reward_expectancy_bt_OFFLINE,2022.2.4,60.06698631814396,
0,0,0,1,0,0,1,0,star,hexagon,2,0,2,0,0,11,11,11,,,,,,,,,,,,,,,,,,,,,,,,,,,,,,,,,,,,,,,,363.1006342440378,363.1006342440378,363.1006342440378,363.1006342440378,363.1006342440378,363.1006342440378,363.1006342440378,363.1006342440378,363.1006342440378,363.1006342440378,l,0.8906584011856467,1,594,2,364.0200112978928,365.51994174392894,365.51994174392894,366.02015086403117,,,,,,,,,,,,,,,,,,,,,,,,,,,,,,,,,,,,,,,,,,,,,,,,,,,,,,,,,,,,,,,,,,,,67592,2022-11-15_14h01.31.669,vts_reward_expectancy_bt_OFFLINE,2022.2.4,60.06698631814396,
0,0,0,1,0,0,1,0,star,hexagon,2,0,2,0,1,0,12,11,,,,,,,,,,,,,,,,,,,,,,,,,,,,,,,,,,,,,,,,366.02015086403117,366.02015086403117,366.02015086403117,366.02015086403117,366.02015086403117,366.02015086403117,366.02015086403117,366.02015086403117,366.02015086403117,366.02015086403117,a,0.3340842330362648,1,595,2,366.3867886599619,367.8872125118505,367.8872125118505,,,,,,,,,,,,,,,,,,,,,,,,,,,,,,,,,,,,,,,,,,,,,,,,,,,,,,,,,,,,,,,,,,,,,67592,2022-11-15_14h01.31.669,vts_reward_expectancy_bt_OFFLINE,2022.2.4,60.06698631814396,
0,1,0,0,0,0,0,1,circle,star,2,0,2,0,1,1,13,5,,,,,,,,,,,,,,,,,,,,,,,,,,,,,,,,,,,,,,,,368.38955862191506,368.38955862191506,368.38955862191506,368.38955862191506,368.38955862191506,368.38955862191506,368.38955862191506,368.38955862191506,368.38955862191506,368.38955862191506,l,0.7207754671107978,10,605,2,369.1428547028918,370.65757552091964,,,,,,,,,,,,,,,,,,,,,,,,,,,,,,,,,,,,,,,,,,,,,,,,,,,,,,,,,,,,,,,,,,,,,,67592,2022-11-15_14h01.31.669,vts_reward_expectancy_bt_OFFLINE,2022.2.4,60.06698631814396,
0,0,0,1,0,1,0,0,star ,circle,2,0,2,0,1,2,14,10,,,,,,,,,,,,,,,,,,,,,,,,,,,,,,,,,,,,,,,,371.1575992349535,371.1575992349535,371.1575992349535,371.1575992349535,371.1575992349535,371.1575992349535,371.1575992349535,371.1575992349535,371.1575992349535,371.1575992349535,a,0.6418330341111869,10,615,2,371.8250966880005,373.32665408495814,,,,,,,,,,,,,,,,,,,,,,,,,,,,,,,,,,,,,,,,,,,,,,,,,,,,,,,,,,,,,,,,,,,,,,67592,2022-11-15_14h01.31.669,vts_reward_expectancy_bt_OFFLINE,2022.2.4,60.06698631814396,
0,0,1,0,0,1,0,0,hexagon,circle,2,0,2,0,1,3,15,7,,,,,,,,,,,,,,,,,,,,,,,,,,,,,,,,,,,,,,,,373.8270314550027,373.8270314550027,373.8270314550027,373.8270314550027,373.8270314550027,373.8270314550027,373.8270314550027,373.8270314550027,373.8270314550027,373.8270314550027,l,1.1787413712590933,1,616,2,375.03003893396817,376.54405221692286,,,,,,,,,,,,,,,,,,,,,,,,,,,,,,,,,,,,,,,,,,,,,,,,,,,,,,,,,,,,,,,,,,,,,,67592,2022-11-15_14h01.31.669,vts_reward_expectancy_bt_OFFLINE,2022.2.4,60.06698631814396,
1,0,0,0,0,1,0,0,triangle,circle,2,0,2,0,1,4,16,0,,,,,,,,,,,,,,,,,,,,,,,,,,,,,,,,,,,,,,,,377.04429905395955,377.04429905395955,377.04429905395955,377.04429905395955,377.04429905395955,377.04429905395955,377.04429905395955,377.04429905395955,377.04429905395955,377.04429905395955,l,0.717810801230371,10,626,2,377.7959796239156,379.2969451060053,379.2969451060053,379.7971508798655,,,,,,,,,,,,,,,,,,,,,,,,,,,,,,,,,,,,,,,,,,,,,,,,,,,,,,,,,,,,,,,,,,,,67592,2022-11-15_14h01.31.669,vts_reward_expectancy_bt_OFFLINE,2022.2.4,60.06698631814396,
0,1,0,0,1,0,0,0,circle,triangle,2,0,2,0,1,5,17,3,,,,,,,,,,,,,,,,,,,,,,,,,,,,,,,,,,,,,,,,379.7971508798655,379.7971508798655,379.7971508798655,379.7971508798655,379.7971508798655,379.7971508798655,379.7971508798655,379.7971508798655,379.7971508798655,379.7971508798655,l,1.4977181691210717,10,636,2,381.3151656000409,382.8155980380252,382.8155980380252,,,,,,,,,,,,,,,,,,,,,,,,,,,,,,,,,,,,,,,,,,,,,,,,,,,,,,,,,,,,,,,,,,,,,67592,2022-11-15_14h01.31.669,vts_reward_expectancy_bt_OFFLINE,2022.2.4,60.06698631814396,
1,0,0,0,0,0,1,0,triangle,hexagon,2,0,2,0,1,6,18,1,,,,,,,,,,,,,,,,,,,,,,,,,,,,,,,,,,,,,,,,383.3169407888781,383.3169407888781,383.3169407888781,383.3169407888781,383.3169407888781,383.3169407888781,383.3169407888781,383.3169407888781,383.3169407888781,383.3169407888781,a,1.0156290361192077,10,646,2,384.35173044889234,385.8512791930698,385.8512791930698,386.3513731418643,,,,,,,,,,,,,,,,,,,,,,,,,,,,,,,,,,,,,,,,,,,,,,,,,,,,,,,,,,,,,,,,,,,,67592,2022-11-15_14h01.31.669,vts_reward_expectancy_bt_OFFLINE,2022.2.4,60.06698631814396,
0,0,1,0,0,0,0,1,hexagon,star,2,0,2,0,1,7,19,8,,,,,,,,,,,,,,,,,,,,,,,,,,,,,,,,,,,,,,,,386.3513731418643,386.3513731418643,386.3513731418643,386.3513731418643,386.3513731418643,386.3513731418643,386.3513731418643,386.3513731418643,386.3513731418643,386.3513731418643,l,0.7937271331902593,1,647,2,387.17077865684405,388.6712574278936,,,,,,,,,,,,,,,,,,,,,,,,,,,,,,,,,,,,,,,,,,,,,,,,,,,,,,,,,,,,,,,,,,,,,,67592,2022-11-15_14h01.31.669,vts_reward_expectancy_bt_OFFLINE,2022.2.4,60.06698631814396,
0,0,0,1,1,0,0,0,star,triangle,2,0,2,0,1,8,20,9,,,,,,,,,,,,,,,,,,,,,,,,,,,,,,,,,,,,,,,,389.17135794786736,389.17135794786736,389.17135794786736,389.17135794786736,389.17135794786736,389.17135794786736,389.17135794786736,389.17135794786736,389.17135794786736,389.17135794786736,a,0.9779173361603171,10,657,2,390.1743302429095,391.688533030916,,,,,,,,,,,,,,,,,,,,,,,,,,,,,,,,,,,,,,,,,,,,,,,,,,,,,,,,,,,,,,,,,,,,,,67592,2022-11-15_14h01.31.669,vts_reward_expectancy_bt_OFFLINE,2022.2.4,60.06698631814396,
1,0,0,0,0,0,0,1,triangle,star,2,0,2,0,1,9,21,2,,,,,,,,,,,,,,,,,,,,,,,,,,,,,,,,,,,,,,,,392.1885880760383,392.1885880760383,392.1885880760383,392.1885880760383,392.1885880760383,392.1885880760383,392.1885880760383,392.1885880760383,392.1885880760383,392.1885880760383,l,0.7505157380364835,1,658,2,392.97021102602594,394.4578822609037,,,,,,,,,,,,,,,,,,,,,,,,,,,,,,,,,,,,,,,,,,,,,,,,,,,,,,,,,,,,,,,,,,,,,,67592,2022-11-15_14h01.31.669,vts_reward_expectancy_bt_OFFLINE,2022.2.4,60.06698631814396,
0,0,1,0,1,0,0,0,hexagon,triangle,2,0,2,0,1,10,22,6,,,,,,,,,,,,,,,,,,,,,,,,,,,,,,,,,,,,,,,,394.95827204803936,394.95827204803936,394.95827204803936,394.95827204803936,394.95827204803936,394.95827204803936,394.95827204803936,394.95827204803936,394.95827204803936,394.95827204803936,l,0.8392067109234631,10,668,2,395.8282791438978,397.3423417219892,,,,,,,,,,,,,,,,,,,,,,,,,,,,,,,,,,,,,,,,,,,,,,,,,,,,,,,,,,,,,,,,,,,,,,67592,2022-11-15_14h01.31.669,vts_reward_expectancy_bt_OFFLINE,2022.2.4,60.06698631814396,
0,1,0,0,0,0,1,0,circle,hexagon,2,0,2,0,1,11,23,4,,,,,,,,,,,,,,,,,,,,,,,,,,,,,,,,,,,,,,,,397.8261864448432,397.8261864448432,397.8261864448432,397.8261864448432,397.8261864448432,397.8261864448432,397.8261864448432,397.8261864448432,397.8261864448432,397.8261864448432,a,0.9519287121947855,10,678,2,398.79611814091913,400.2957722619176,400.2957722619176,400.79593409085646,,,,,,,,,,,,,,,,,,,,,,,,,,,,,,,,,,,,,,,,,,,,,,,,,,,,,,,,,,,,,,,,,,,,67592,2022-11-15_14h01.31.669,vts_reward_expectancy_bt_OFFLINE,2022.2.4,60.06698631814396,
0,0,0,1,0,1,0,0,star ,circle,2,0,2,0,2,0,24,10,,,,,,,,,,,,,,,,,,,,,,,,,,,,,,,,,,,,,,,,400.79593409085646,400.79593409085646,400.79593409085646,400.79593409085646,400.79593409085646,400.79593409085646,400.79593409085646,400.79593409085646,400.79593409085646,400.79593409085646,l,1.098675673129037,10,688,2,401.91380369407125,403.4149327808991,,,,,,,,,,,,,,,,,,,,,,,,,,,,,,,,,,,,,,,,,,,,,,,,,,,,,,,,,,,,,,,,,,,,,,67592,2022-11-15_14h01.31.669,vts_reward_expectancy_bt_OFFLINE,2022.2.4,60.06698631814396,
0,0,0,1,0,0,1,0,star,hexagon,2,0,2,0,2,1,25,11,,,,,,,,,,,,,,,,,,,,,,,,,,,,,,,,,,,,,,,,403.91497248900123,403.91497248900123,403.91497248900123,403.91497248900123,403.91497248900123,403.91497248900123,403.91497248900123,403.91497248900123,403.91497248900123,403.91497248900123,a,0.7028935099951923,10,698,2,404.6488864629064,406.1492792060599,406.1492792060599,406.6496187350713,,,,,,,,,,,,,,,,,,,,,,,,,,,,,,,,,,,,,,,,,,,,,,,,,,,,,,,,,,,,,,,,,,,,67592,2022-11-15_14h01.31.669,vts_reward_expectancy_bt_OFFLINE,2022.2.4,60.06698631814396,
0,1,0,0,0,0,1,0,circle,hexagon,2,0,2,0,2,2,26,4,,,,,,,,,,,,,,,,,,,,,,,,,,,,,,,,,,,,,,,,406.6496187350713,406.6496187350713,406.6496187350713,406.6496187350713,406.6496187350713,406.6496187350713,406.6496187350713,406.6496187350713,406.6496187350713,406.6496187350713,l,0.7350410411600024,10,708,2,407.41666877199896,408.91859531984664,408.91859531984664,409.41890673106536,,,,,,,,,,,,,,,,,,,,,,,,,,,,,,,,,,,,,,,,,,,,,,,,,,,,,,,,,,,,,,,,,,,,67592,2022-11-15_14h01.31.669,vts_reward_expectancy_bt_OFFLINE,2022.2.4,60.06698631814396,
0,1,0,0,0,0,0,1,circle,star,2,0,2,0,2,3,27,5,,,,,,,,,,,,,,,,,,,,,,,,,,,,,,,,,,,,,,,,409.41890673106536,409.41890673106536,409.41890673106536,409.41890673106536,409.41890673106536,409.41890673106536,409.41890673106536,409.41890673106536,409.41890673106536,409.41890673106536,l,0.8346815821714699,1,709,2,410.2874379809946,411.803398639895,,,,,,,,,,,,,,,,,,,,,,,,,,,,,,,,,,,,,,,,,,,,,,,,,,,,,,,,,,,,,,,,,,,,,,67592,2022-11-15_14h01.31.669,vts_reward_expectancy_bt_OFFLINE,2022.2.4,60.06698631814396,
1,0,0,0,0,1,0,0,triangle,circle,2,0,2,0,2,4,28,0,,,,,,,,,,,,,,,,,,,,,,,,,,,,,,,,,,,,,,,,412.30378865194507,412.30378865194507,412.30378865194507,412.30378865194507,412.30378865194507,412.30378865194507,412.30378865194507,412.30378865194507,412.30378865194507,412.30378865194507,a,0.9537622041534632,1,710,2,413.2817329419777,414.78949110000394,,,,,,,,,,,,,,,,,,,,,,,,,,,,,,,,,,,,,,,,,,,,,,,,,,,,,,,,,,,,,,,,,,,,,,67592,2022-11-15_14h01.31.669,vts_reward_expectancy_bt_OFFLINE,2022.2.4,60.06698631814396,
0,0,1,0,0,0,0,1,hexagon,star,2,0,2,0,2,5,29,8,,,,,,,,,,,,,,,,,,,,,,,,,,,,,,,,,,,,,,,,415.2896689060144,415.2896689060144,415.2896689060144,415.2896689060144,415.2896689060144,415.2896689060144,415.2896689060144,415.2896689060144,415.2896689060144,415.2896689060144,a,0.6912014591507614,1,711,2,416.00713449995965,417.5070407700259,417.5070407700259,418.00676433206536,,,,,,,,,,,,,,,,,,,,,,,,,,,,,,,,,,,,,,,,,,,,,,,,,,,,,,,,,,,,,,,,,,,,67592,2022-11-15_14h01.31.669,vts_reward_expectancy_bt_OFFLINE,2022.2.4,60.06698631814396,
0,0,0,1,1,0,0,0,star,triangle,2,0,2,0,2,6,30,9,,,,,,,,,,,,,,,,,,,,,,,,,,,,,,,,,,,,,,,,418.00676433206536,418.00676433206536,418.00676433206536,418.00676433206536,418.00676433206536,418.00676433206536,418.00676433206536,418.00676433206536,418.00676433206536,418.00676433206536,l,0.3701227412093431,1,712,2,418.4093761090189,419.9096337929368,419.9096337929368,420.40972111094743,,,,,,,,,,,,,,,,,,,,,,,,,,,,,,,,,,,,,,,,,,,,,,,,,,,,,,,,,,,,,,,,,,,,67592,2022-11-15_14h01.31.669,vts_reward_expectancy_bt_OFFLINE,2022.2.4,60.06698631814396,
0,0,1,0,0,1,0,0,hexagon,circle,2,0,2,0,2,7,31,7,,,,,,,,,,,,,,,,,,,,,,,,,,,,,,,,,,,,,,,,420.40972111094743,420.40972111094743,420.40972111094743,420.40972111094743,420.40972111094743,420.40972111094743,420.40972111094743,420.40972111094743,420.40972111094743,420.40972111094743,l,0.7681418911088258,1,713,2,421.21039669704624,422.71080117998645,422.71080117998645,423.2109387649689,,,,,,,,,,,,,,,,,,,,,,,,,,,,,,,,,,,,,,,,,,,,,,,,,,,,,,,,,,,,,,,,,,,,67592,2022-11-15_14h01.31.669,vts_reward_expectancy_bt_OFFLINE,2022.2.4,60.06698631814396,
1,0,0,0,0,0,1,0,triangle,hexagon,2,0,2,0,2,8,32,1,,,,,,,,,,,,,,,,,,,,,,,,,,,,,,,,,,,,,,,,423.2109387649689,423.2109387649689,423.2109387649689,423.2109387649689,423.2109387649689,423.2109387649689,423.2109387649689,423.2109387649689,423.2109387649689,423.2109387649689,l,1.1623757232446223,10,723,2,424.39905450702645,425.91416040994227,,,,,,,,,,,,,,,,,,,,,,,,,,,,,,,,,,,,,,,,,,,,,,,,,,,,,,,,,,,,,,,,,,,,,,67592,2022-11-15_14h01.31.669,vts_reward_expectancy_bt_OFFLINE,2022.2.4,60.06698631814396,
0,0,1,0,1,0,0,0,hexagon,triangle,2,0,2,0,2,9,33,6,,,,,,,,,,,,,,,,,,,,,,,,,,,,,,,,,,,,,,,,426.3973866868764,426.3973866868764,426.3973866868764,426.3973866868764,426.3973866868764,426.3973866868764,426.3973866868764,426.3973866868764,426.3973866868764,426.3973866868764,a,0.754781709285453,10,733,2,427.1825615130365,428.6828965200111,,,,,,,,,,,,,,,,,,,,,,,,,,,,,,,,,,,,,,,,,,,,,,,,,,,,,,,,,,,,,,,,,,,,,,67592,2022-11-15_14h01.31.669,vts_reward_expectancy_bt_OFFLINE,2022.2.4,60.06698631814396,
1,0,0,0,0,0,0,1,triangle,star,2,0,2,0,2,10,34,2,,,,,,,,,,,,,,,,,,,,,,,,,,,,,,,,,,,,,,,,429.1830396950245,429.1830396950245,429.1830396950245,429.1830396950245,429.1830396950245,429.1830396950245,429.1830396950245,429.1830396950245,429.1830396950245,429.1830396950245,a,1.7717388130258769,1,734,2,430.98671511304565,432.50140325701796,,,,,,,,,,,,,,,,,,,,,,,,,,,,,,,,,,,,,,,,,,,,,,,,,,,,,,,,,,,,,,,,,,,,,,67592,2022-11-15_14h01.31.669,vts_reward_expectancy_bt_OFFLINE,2022.2.4,60.06698631814396,
0,1,0,0,1,0,0,0,circle,triangle,2,0,2,0,2,11,35,3,,,,,,,,,,,,,,,,,,,,,,,,,,,,,,,,,,,,,,,,433.00186763796955,433.00186763796955,433.00186763796955,433.00186763796955,433.00186763796955,433.00186763796955,433.00186763796955,433.00186763796955,433.00186763796955,433.00186763796955,l,1.0467516521457583,1,735,2,434.0714700599201,435.5715323148761,435.5715323148761,436.0713030418847,,,,,,,,,,,,,,,,,,,,,,,,,,,,,,,,,,,,,,,,,,,,,,,,,,,,,,,,,,,,,,,,,,,,67592,2022-11-15_14h01.31.669,vts_reward_expectancy_bt_OFFLINE,2022.2.4,60.06698631814396,
1,0,0,0,0,0,0,1,triangle,star,2,0,2,0,3,0,36,2,,,,,,,,,,,,,,,,,,,,,,,,,,,,,,,,,,,,,,,,436.0713030418847,436.0713030418847,436.0713030418847,436.0713030418847,436.0713030418847,436.0713030418847,436.0713030418847,436.0713030418847,436.0713030418847,436.0713030418847,a,0.18318019318394363,1,736,2,436.27241608593613,437.77211289596744,437.77211289596744,438.272559735924,,,,,,,,,,,,,,,,,,,,,,,,,,,,,,,,,,,,,,,,,,,,,,,,,,,,,,,,,,,,,,,,,,,,67592,2022-11-15_14h01.31.669,vts_reward_expectancy_bt_OFFLINE,2022.2.4,60.06698631814396,
0,0,1,0,0,1,0,0,hexagon,circle,2,0,2,0,3,1,37,7,,,,,,,,,,,,,,,,,,,,,,,,,,,,,,,,,,,,,,,,438.272559735924,438.272559735924,438.272559735924,438.272559735924,438.272559735924,438.272559735924,438.272559735924,438.272559735924,438.272559735924,438.272559735924,l,1.0193059393204749,1,737,2,439.32410150789656,440.8246723378543,440.8246723378543,441.3246672078967,,,,,,,,,,,,,,,,,,,,,,,,,,,,,,,,,,,,,,,,,,,,,,,,,,,,,,,,,,,,,,,,,,,,67592,2022-11-15_14h01.31.669,vts_reward_expectancy_bt_OFFLINE,2022.2.4,60.06698631814396,
0,0,1,0,0,0,0,1,hexagon,star,2,0,2,0,3,2,38,8,,,,,,,,,,,,,,,,,,,,,,,,,,,,,,,,,,,,,,,,441.3246672078967,441.3246672078967,441.3246672078967,441.3246672078967,441.3246672078967,441.3246672078967,441.3246672078967,441.3246672078967,441.3246672078967,441.3246672078967,l,0.38616785407066345,10,747,2,441.7436839840375,443.2590214959346,,,,,,,,,,,,,,,,,,,,,,,,,,,,,,,,,,,,,,,,,,,,,,,,,,,,,,,,,,,,,,,,,,,,,,67592,2022-11-15_14h01.31.669,vts_reward_expectancy_bt_OFFLINE,2022.2.4,60.06698631814396,
0,1,0,0,0,0,1,0,circle,hexagon,2,0,2,0,3,3,39,4,,,,,,,,,,,,,,,,,,,,,,,,,,,,,,,,,,,,,,,,443.76079326705076,443.76079326705076,443.76079326705076,443.76079326705076,443.76079326705076,443.76079326705076,443.76079326705076,443.76079326705076,443.76079326705076,443.76079326705076,a,0.8528510332107544,1,748,2,444.64758220291696,446.16198910493404,,,,,,,,,,,,,,,,,,,,,,,,,,,,,,,,,,,,,,,,,,,,,,,,,,,,,,,,,,,,,,,,,,,,,,67592,2022-11-15_14h01.31.669,vts_reward_expectancy_bt_OFFLINE,2022.2.4,60.06698631814396,
1,0,0,0,0,0,1,0,triangle,hexagon,2,0,2,0,3,4,40,1,,,,,,,,,,,,,,,,,,,,,,,,,,,,,,,,,,,,,,,,446.6621216349304,446.6621216349304,446.6621216349304,446.6621216349304,446.6621216349304,446.6621216349304,446.6621216349304,446.6621216349304,446.6621216349304,446.6621216349304,a,0.9783421840984374,1,749,2,447.66356789087877,449.1642894789111,,,,,,,,,,,,,,,,,,,,,,,,,,,,,,,,,,,,,,,,,,,,,,,,,,,,,,,,,,,,,,,,,,,,,,67592,2022-11-15_14h01.31.669,vts_reward_expectancy_bt_OFFLINE,2022.2.4,60.06698631814396,
0,0,0,1,0,1,0,0,star ,circle,2,0,2,0,3,5,41,10,,,,,,,,,,,,,,,,,,,,,,,,,,,,,,,,,,,,,,,,449.6644362809602,449.6644362809602,449.6644362809602,449.6644362809602,449.6644362809602,449.6644362809602,449.6644362809602,449.6644362809602,449.6644362809602,449.6644362809602,l,0.5849452679976821,1,750,2,450.28202523104846,451.7824744270183,451.7824744270183,452.28252501087263,,,,,,,,,,,,,,,,,,,,,,,,,,,,,,,,,,,,,,,,,,,,,,,,,,,,,,,,,,,,,,,,,,,,67592,2022-11-15_14h01.31.669,vts_reward_expectancy_bt_OFFLINE,2022.2.4,60.06698631814396,
0,1,0,0,1,0,0,0,circle,triangle,2,0,2,0,3,6,42,3,,,,,,,,,,,,,,,,,,,,,,,,,,,,,,,,,,,,,,,,452.28252501087263,452.28252501087263,452.28252501087263,452.28252501087263,452.28252501087263,452.28252501087263,452.28252501087263,452.28252501087263,452.28252501087263,452.28252501087263,a,1.286709259962663,10,760,2,453.60287371696904,455.11877535493113,,,,,,,,,,,,,,,,,,,,,,,,,,,,,,,,,,,,,,,,,,,,,,,,,,,,,,,,,,,,,,,,,,,,,,67592,2022-11-15_14h01.31.669,vts_reward_expectancy_bt_OFFLINE,2022.2.4,60.06698631814396,
0,0,0,1,0,0,1,0,star,hexagon,2,0,2,0,3,7,43,11,,,,,,,,,,,,,,,,,,,,,,,,,,,,,,,,,,,,,,,,455.619184107054,455.619184107054,455.619184107054,455.619184107054,455.619184107054,455.619184107054,455.619184107054,455.619184107054,455.619184107054,455.619184107054,a,0.8181835361756384,10,770,2,456.46948978304863,457.97027445491403,457.97027445491403,458.4714187888894,,,,,,,,,,,,,,,,,,,,,,,,,,,,,,,,,,,,,,,,,,,,,,,,,,,,,,,,,,,,,,,,,,,,67592,2022-11-15_14h01.31.669,vts_reward_expectancy_bt_OFFLINE,2022.2.4,60.06698631814396,
1,0,0,0,0,1,0,0,triangle,circle,2,0,2,0,3,8,44,0,,,,,,,,,,,,,,,,,,,,,,,,,,,,,,,,,,,,,,,,458.4714187888894,458.4714187888894,458.4714187888894,458.4714187888894,458.4714187888894,458.4714187888894,458.4714187888894,458.4714187888894,458.4714187888894,458.4714187888894,a,1.026569007197395,1,771,2,459.52459287201054,461.0396714480594,,,,,,,,,,,,,,,,,,,,,,,,,,,,,,,,,,,,,,,,,,,,,,,,,,,,,,,,,,,,,,,,,,,,,,67592,2022-11-15_14h01.31.669,vts_reward_expectancy_bt_OFFLINE,2022.2.4,60.06698631814396,
0,1,0,0,0,0,0,1,circle,star,2,0,2,0,3,9,45,5,,,,,,,,,,,,,,,,,,,,,,,,,,,,,,,,,,,,,,,,461.53981875884347,461.53981875884347,461.53981875884347,461.53981875884347,461.53981875884347,461.53981875884347,461.53981875884347,461.53981875884347,461.53981875884347,461.53981875884347,l,0.5678114010952413,1,772,2,462.14007132383995,463.64194092690013,463.64194092690013,464.1420792338904,,,,,,,,,,,,,,,,,,,,,,,,,,,,,,,,,,,,,,,,,,,,,,,,,,,,,,,,,,,,,,,,,,,,67592,2022-11-15_14h01.31.669,vts_reward_expectancy_bt_OFFLINE,2022.2.4,60.06698631814396,
0,0,1,0,1,0,0,0,hexagon,triangle,2,0,2,0,3,10,46,6,,,,,,,,,,,,,,,,,,,,,,,,,,,,,,,,,,,,,,,,464.1420792338904,464.1420792338904,464.1420792338904,464.1420792338904,464.1420792338904,464.1420792338904,464.1420792338904,464.1420792338904,464.1420792338904,464.1420792338904,l,0.5531133310869336,1,773,2,464.72618603101,466.226633770857,466.226633770857,466.7268286028411,,,,,,,,,,,,,,,,,,,,,,,,,,,,,,,,,,,,,,,,,,,,,,,,,,,,,,,,,,,,,,,,,,,,67592,2022-11-15_14h01.31.669,vts_reward_expectancy_bt_OFFLINE,2022.2.4,60.06698631814396,
0,0,0,1,1,0,0,0,star,triangle,2,0,2,0,3,11,47,9,,,,,,,,,,,,,,,,,,,,,,,,,,,,,,,,,,,,,,,,466.7268286028411,466.7268286028411,466.7268286028411,466.7268286028411,466.7268286028411,466.7268286028411,466.7268286028411,466.7268286028411,466.7268286028411,466.7268286028411,a,1.197432312183082,10,783,2,467.9469015679788,469.44580739503726,,,,,,,,,,,,,,,,,,,,,,,,,,,,,,,,,,,,,,,,,,,,,,,,,,,,,,,,,,,,,,,,,,,,,,67592,2022-11-15_14h01.31.669,vts_reward_expectancy_bt_OFFLINE,2022.2.4,60.06698631814396,
,,,,,,,,,,,,,,,,,,0,0,0,0,0,0,0,0,,,,,,,,,,,,,,,,,,,,,,,,,,,,,,,,,,,,,,,,,,,,,,,,519.4989783859346,,,160,H,circle,0.002140332944691181,515.3914866319392,516.8795891660266,516.8795891660266,516.8795891660266,1,0,f,1.0875527651514858,0,517.9994955658913,,,,,,,,,,,,,,,,,,,,,,,,,,,,,,,,,,,,,,,,,,,,,,,,,,,,,,67592,2022-11-15_14h01.31.669,vts_reward_expectancy_bt_OFFLINE,2022.2.4,60.06698631814396,
,,,,,,,,,,,,,,,,,,0,0,0,0,1,0,1,0,,,,,,,,,,,,,,,,,,,,,,,,,,,,,,,,,,,,,,,,,,,,,,,,524.169170628069,,,146,B,star,0.0022731279022991657,520.4956247468945,521.9835196950007,521.9835196950007,521.9835196950007,1,0,d,0.6634837582241744,0,522.6674519218504,,,,,,,,,,,,,,,,,,,,,,,,,,,,,,,,,,,,,,,,,,,,,,,,,,,,,,67592,2022-11-15_14h01.31.669,vts_reward_expectancy_bt_OFFLINE,2022.2.4,60.06698631814396,
,,,,,,,,,,,,,,,,,,0,0,0,0,2,0,2,0,,,,,,,,,,,,,,,,,,,,,,,,,,,,,,,,,,,,,,,,,,,,,,,,528.9229460940696,,,167,W,triangle,0.0023617211263626814,525.164651744999,526.6535058990121,526.6535058990121,526.6535058990121,1,0,f,0.7412072240840644,0,527.4217755289283,,,,,,,,,,,,,,,,,,,,,,,,,,,,,,,,,,,,,,,,,,,,,,,,,,,,,,67592,2022-11-15_14h01.31.669,vts_reward_expectancy_bt_OFFLINE,2022.2.4,60.06698631814396,
,,,,,,,,,,,,,,,,,,0,0,0,0,3,0,3,0,,,,,,,,,,,,,,,,,,,,,,,,,,,,,,,,,,,,,,,,,,,,,,,,533.5764756500721,,534.0767807359807,139,Y,hexagon,0.0015054619871079922,529.9181065289304,531.4072597660124,531.4072597660124,531.4072597660124,1,0,d,0.6339984540827572,0,532.0735659049824,533.5764756500721,,,,,,,,,,,,,,,,,,,,,,,,,,,,,,,,,,,,,,,,,,,,,,,,,,,,,67592,2022-11-15_14h01.31.669,vts_reward_expectancy_bt_OFFLINE,2022.2.4,60.06698631814396,
,,,,,,,,,,,,,,,,,,0,0,0,0,4,0,4,0,,,,,,,,,,,,,,,,,,,,,,,,,,,,,,,,,,,,,,,,,,,,,,,,538.1616439449135,,,174,D,star,0.0005755990277975798,534.5871329200454,536.0609630059917,536.0609630059917,536.0609630059917,1,0,f,0.5816560671664774,0,536.6620490080677,,,,,,,,,,,,,,,,,,,,,,,,,,,,,,,,,,,,,,,,,,,,,,,,,,,,,,67592,2022-11-15_14h01.31.669,vts_reward_expectancy_bt_OFFLINE,2022.2.4,60.06698631814396,
,,,,,,,,,,,,,,,,,,0,0,0,0,5,0,5,0,,,,,,,,,,,,,,,,,,,,,,,,,,,,,,,,,,,,,,,,,,,,,,,,542.6317100999877,,543.1319560979027,181,S,hexagon,0.001905500190332532,539.158496899996,540.6472361448687,540.6472361448687,540.6472361448687,1,0,f,0.451422437094152,0,541.1309990240261,542.6317100999877,,,,,,,,,,,,,,,,,,,,,,,,,,,,,,,,,,,,,,,,,,,,,,,,,,,,,67592,2022-11-15_14h01.31.669,vts_reward_expectancy_bt_OFFLINE,2022.2.4,60.06698631814396,
,,,,,,,,,,,,,,,,,,0,0,0,0,6,0,6,0,,,,,,,,,,,,,,,,,,,,,,,,,,,,,,,,,,,,,,,,,,,,,,,,547.618764057057,,,125,F,circle,-0.0007654819637537003,543.6402119500563,545.1177892889827,545.1177892889827,545.1177892889827,1,0,d,0.9536402670200914,0,546.102578104008,,,,,,,,,,,,,,,,,,,,,,,,,,,,,,,,,,,,,,,,,,,,,,,,,,,,,,67592,2022-11-15_14h01.31.669,vts_reward_expectancy_bt_OFFLINE,2022.2.4,60.06698631814396,
,,,,,,,,,,,,,,,,,,0,0,0,0,7,0,7,0,,,,,,,,,,,,,,,,,,,,,,,,,,,,,,,,,,,,,,,,,,,,,,,,552.421689911047,,552.9217766339425,132,U,triangle,0.01666612201370299,548.6792476570699,550.0879828198813,550.0879828198813,550.0879828198813,1,0,d,0.8099774301517755,0,550.9221228950191,552.421689911047,,,,,,,,,,,,,,,,,,,,,,,,,,,,,,,,,,,,,,,,,,,,,,,,,,,,,67592,2022-11-15_14h01.31.669,vts_reward_expectancy_bt_OFFLINE,2022.2.4,60.06698631814396,
,,,,,,,,,,,,,,,,,,0,0,0,0,8,0,8,0,,,,,,,,,,,,,,,,,,,,,,,,,,,,,,,,,,,,,,,,,,,,,,,,557.1251188630704,,557.6252264028881,160,H,triangle,0.0003865568432956934,553.4298531638924,554.907885418972,554.907885418972,554.907885418972,1,0,f,0.69296342600137,0,555.6258718818426,557.1251188630704,,,,,,,,,,,,,,,,,,,,,,,,,,,,,,,,,,,,,,,,,,,,,,,,,,,,,67592,2022-11-15_14h01.31.669,vts_reward_expectancy_bt_OFFLINE,2022.2.4,60.06698631814396,
,,,,,,,,,,,,,,,,,,0,0,0,0,9,0,9,0,,,,,,,,,,,,,,,,,,,,,,,,,,,,,,,,,,,,,,,,,,,,,,,,561.9452534138691,,562.4558999440633,146,B,hexagon,0.0004603220149874687,558.1330903659109,559.6117263890337,559.6117263890337,559.6117263890337,1,0,d,0.8041062101256102,0,560.4460677639581,561.9452534138691,,,,,,,,,,,,,,,,,,,,,,,,,,,,,,,,,,,,,,,,,,,,,,,,,,,,,67592,2022-11-15_14h01.31.669,vts_reward_expectancy_bt_OFFLINE,2022.2.4,60.06698631814396,
,,,,,,,,,,,,,,,,,,,,,,,,,,0,0,0,0,0,0,0,0,,,,,,,,,,,,,,,,,,,,,,,,,,,,,,,,,,,,,,,,588.2479443310294,,,181,W,triangle,0.016671845922246575,,,,,1,0,,,1,586.7320082299411,,583.2402316050138,584.7134343888611,584.7134343888611,584.7134343888611,k,1.9944188662339002,,,,,,,,,,,,,,,,,,,,,,,,,,,,,,,,,,,,,,,,,,,,,,,67592,2022-11-15_14h01.31.669,vts_reward_expectancy_bt_OFFLINE,2022.2.4,60.06698631814396,
,,,,,,,,,,,,,,,,,,,,,,,,,,0,0,0,0,1,0,1,0,,,,,,,,,,,,,,,,,,,,,,,,,,,,,,,,,,,,,,,,593.1843778190669,,,160,H,hexagon,0.002123519079759717,,,,,1,0,,,1,591.6857134930324,593.1843778190669,589.2283132139128,590.7173010718543,590.7173010718543,590.7173010718543,j,0.9417610841337591,,,,,,,,,,,,,,,,,,,,,,,,,,,,,,,,,,,,,,,,,,,,,,,67592,2022-11-15_14h01.31.669,vts_reward_expectancy_bt_OFFLINE,2022.2.4,60.06698631814396,
,,,,,,,,,,,,,,,,,,,,,,,,,,0,0,0,0,2,0,2,0,,,,,,,,,,,,,,,,,,,,,,,,,,,,,,,,,,,,,,,,598.021304622991,,,174,D,star,0.0015250861179083586,,,,,1,0,,,1,596.505893355934,,594.1816221680492,595.6713896018919,595.6713896018919,595.6713896018919,j,0.8019663961604238,,,,,,,,,,,,,,,,,,,,,,,,,,,,,,,,,,,,,,,,,,,,,,,67592,2022-11-15_14h01.31.669,vts_reward_expectancy_bt_OFFLINE,2022.2.4,60.06698631814396,
,,,,,,,,,,,,,,,,,,,,,,,,,,0,0,0,0,3,0,3,0,,,,,,,,,,,,,,,,,,,,,,,,,,,,,,,,,,,,,,,,602.5580100128427,,603.0581802199595,167,B,circle,0.0021055610850453377,,,,,1,0,,,1,601.0587007550057,602.5580100128427,599.0018875109963,600.4907196979038,600.4907196979038,600.4907196979038,j,0.5390351573005319,,,,,,,,,,,,,,,,,,,,,,,,,,,,,,,,,,,,,,,,,,,,,,,67592,2022-11-15_14h01.31.669,vts_reward_expectancy_bt_OFFLINE,2022.2.4,60.06698631814396,
,,,,,,,,,,,,,,,,,,,,,,,,,,0,0,0,0,4,0,4,0,,,,,,,,,,,,,,,,,,,,,,,,,,,,,,,,,,,,,,,,607.3115051679779,,607.8117607689928,146,Y,hexagon,0.0005333798471838236,,,,,1,0,,,1,605.8123893518932,607.3115051679779,603.566169976024,605.0444161598571,605.0444161598571,605.0444161598571,k,0.7442364620510489,,,,,,,,,,,,,,,,,,,,,,,,,,,,,,,,,,,,,,,,,,,,,,,67592,2022-11-15_14h01.31.669,vts_reward_expectancy_bt_OFFLINE,2022.2.4,60.06698631814396,
,,,,,,,,,,,,,,,,,,,,,,,,,,0,0,0,0,5,0,5,0,,,,,,,,,,,,,,,,,,,,,,,,,,,,,,,,,,,,,,,,612.0151081369258,,,132,F,star,0.0004895990714430809,,,,,1,0,,,1,610.4996276330203,,608.3195371739566,609.7984685739502,609.7984685739502,609.7984685739502,j,0.6703541511669755,,,,,,,,,,,,,,,,,,,,,,,,,,,,,,,,,,,,,,,,,,,,,,,67592,2022-11-15_14h01.31.669,vts_reward_expectancy_bt_OFFLINE,2022.2.4,60.06698631814396,
,,,,,,,,,,,,,,,,,,,,,,,,,,0,0,0,0,6,0,6,0,,,,,,,,,,,,,,,,,,,,,,,,,,,,,,,,,,,,,,,,616.8025191910565,,617.3025927068666,125,S,circle,0.017307180911302567,,,,,1,0,,,1,615.3030502260663,616.8025191910565,613.0116632489953,614.4848992030602,614.4848992030602,614.4848992030602,k,0.7885142921004444,,,,,,,,,,,,,,,,,,,,,,,,,,,,,,,,,,,,,,,,,,,,,,,67592,2022-11-15_14h01.31.669,vts_reward_expectancy_bt_OFFLINE,2022.2.4,60.06698631814396,
,,,,,,,,,,,,,,,,,,,,,,,,,,0,0,0,0,7,0,7,0,,,,,,,,,,,,,,,,,,,,,,,,,,,,,,,,,,,,,,,,621.738807477057,,,139,U,triangle,0.0001546430867165327,,,,,1,0,,,1,620.2237154049799,,617.8104641530663,619.2880214098841,619.2880214098841,619.2880214098841,k,0.9133721720427275,,,,,,,,,,,,,,,,,,,,,,,,,,,,,,,,,,,,,,,,,,,,,,,67592,2022-11-15_14h01.31.669,vts_reward_expectancy_bt_OFFLINE,2022.2.4,60.06698631814396,
,,,,,,,,,,,,,,,,,,,,,,,,,,0,0,0,0,8,0,8,0,,,,,,,,,,,,,,,,,,,,,,,,,,,,,,,,,,,,,,,,626.5259064710699,,,181,W,hexagon,0.00040241493843495846,,,,,1,0,,,1,625.0106620599981,,622.7306271230336,624.208431964973,624.208431964973,624.208431964973,k,0.7737695209216326,,,,,,,,,,,,,,,,,,,,,,,,,,,,,,,,,,,,,,,,,,,,,,,67592,2022-11-15_14h01.31.669,vts_reward_expectancy_bt_OFFLINE,2022.2.4,60.06698631814396,
,,,,,,,,,,,,,,,,,,,,,,,,,,0,0,0,0,9,0,9,0,,,,,,,,,,,,,,,,,,,,,,,,,,,,,,,,,,,,,,,,631.7968871379271,,,160,H,circle,0.016258368967100978,,,,,0,0,,,1,630.2820536079817,,627.5218149239663,628.9959789759014,628.9959789759014,628.9959789759014,k,1.2513758691493422,,,,,,,,,,,,,,,,,,,,,,,,,,,,,,,,,,,,,,,,,,,,,,,67592,2022-11-15_14h01.31.669,vts_reward_expectancy_bt_OFFLINE,2022.2.4,60.06698631814396,
,,,,,,,,,,,,,,,,,,,,,,,,,,,,,,,,,,0,0,0,0,0,0,0,0,,,,,,,,,,,,,,,,,,,,,,,,,,,,0,783,,,672.5761718340218,,,132,H,circle,-0.0008135130628943443,,,,,0,1,,,2,,,,,,,,,668.4308824259788,668.4308824259788,668.4308824259788,668.4308824259788,669.9079551750328,669.9079551750328,669.9079551750328,669.9079551750328,669.9414938229602,669.9414938229602,669.9414938229602,669.9414938229602,-1,number,NA,f,1.122832285007462,vtsPrac,671.0615963898599,,,,,,,,,,,,,,,,,,,,,,,,,,,,67592,2022-11-15_14h01.31.669,vts_reward_expectancy_bt_OFFLINE,2022.2.4,60.06698631814396,
,,,,,,,,,,,,,,,,,,,,,,,,,,,,,,,,,,0,0,0,0,1,0,1,0,,,,,,,,,,,,,,,,,,,,,,,,,,,,0,783,,,677.4294569138438,,,146,F,hexagon,0.01638638903386891,,,,,1,1,,,2,,,,,,,,,673.5722173890099,673.5722173890099,673.5722173890099,673.5722173890099,675.0450210920535,675.0450210920535,675.0450210920535,675.0450210920535,675.0785895518493,675.0785895518493,675.0785895518493,675.0785895518493,repeat,number,numRpt,d,0.8349581349175423,vtsPrac,675.915632820921,,,,,,,,,,,,,,,,,,,,,,,,,,,,67592,2022-11-15_14h01.31.669,vts_reward_expectancy_bt_OFFLINE,2022.2.4,60.06698631814396,
,,,,,,,,,,,,,,,,,,,,,,,,,,,,,,,,,,0,0,0,0,2,0,2,0,,,,,,,,,,,,,,,,,,,,,,,,,,,,0,783,,,683.8348144600168,,,181,W,star,0.0147785609588027,,,,,1,0,,,2,,,,,,,,,678.4259349009953,678.4259349009953,678.4259349009953,678.4259349009953,679.8987854479346,679.8987854479346,679.8987854479346,679.8987854479346,679.9324686429463,679.9324686429463,679.9324686429463,679.9324686429463,switch,letter,lettSwt,k,2.4056757260113955,vtsPrac,682.3346658018418,,,,,,,,,,,,,,,,,,,,,,,,,,,,67592,2022-11-15_14h01.31.669,vts_reward_expectancy_bt_OFFLINE,2022.2.4,60.06698631814396,
,,,,,,,,,,,,,,,,,,,,,,,,,,,,,,,,,,0,0,0,0,3,0,3,0,,,,,,,,,,,,,,,,,,,,,,,,,,,,0,783,,,689.0219762439374,,,125,B,triangle,0.001971503021195531,,,,,1,0,,,2,,,,,,,,,684.8313043760136,684.8313043760136,684.8313043760136,684.8313043760136,686.3195773209445,686.3195773209445,686.3195773209445,686.3195773209445,686.3360953689553,686.3360953689553,686.3360953689553,686.3360953689553,repeat,letter,lettRpt,j,1.1709255890455097,vtsPrac,687.5223115328699,,,,,,,,,,,,,,,,,,,,,,,,,,,,67592,2022-11-15_14h01.31.669,vts_reward_expectancy_bt_OFFLINE,2022.2.4,60.06698631814396,
,,,,,,,,,,,,,,,,,,,,,,,,,,,,,,,,,,0,0,0,0,4,0,4,0,,,,,,,,,,,,,,,,,,,,,,,,,,,,0,783,,,693.6921237139031,,,132,H,circle,0.0009886929765343666,,,,,1,0,,,2,,,,,,,,,690.0291178128682,690.0291178128682,690.0291178128682,690.0291178128682,691.5064592398703,691.5064592398703,691.5064592398703,691.5064592398703,691.5403057320509,691.5403057320509,691.5403057320509,691.5403057320509,switch,number,numSwt,d,0.6639320941176265,vtsPrac,692.193996357033,,,,,,,,,,,,,,,,,,,,,,,,,,,,67592,2022-11-15_14h01.31.669,vts_reward_expectancy_bt_OFFLINE,2022.2.4,60.06698631814396,
,,,,,,,,,,,,,,,,,,,,,,,,,,,,,,,,,,0,0,0,0,5,0,5,0,,,,,,,,,,,,,,,,,,,,,,,,,,,,0,783,,,698.5291942730546,,,146,F,hexagon,0.0017674819100648165,,,,,1,0,,,2,,,,,,,,,694.6879877180327,694.6879877180327,694.6879877180327,694.6879877180327,696.1766509709414,696.1766509709414,696.1766509709414,696.1766509709414,696.1933163949288,696.1933163949288,696.1933163949288,696.1933163949288,repeat,number,numRpt,d,0.8315925011411309,vtsPrac,697.0287792768795,,,,,,,,,,,,,,,,,,,,,,,,,,,,67592,2022-11-15_14h01.31.669,vts_reward_expectancy_bt_OFFLINE,2022.2.4,60.06698631814396,
,,,,,,,,,,,,,,,,,,,,,,,,,,,,,,,,,,0,0,0,0,6,0,6,0,,,,,,,,,,,,,,,,,,,,,,,,,,,,0,783,,,703.6495880079456,,,181,W,triangle,0.001707649091258645,,,,,1,0,,,2,,,,,,,,,699.536480425857,699.536480425857,699.536480425857,699.536480425857,701.0135049959645,701.0135049959645,701.0135049959645,701.0135049959645,701.0476802869234,701.0476802869234,701.0476802869234,701.0476802869234,switch,letter,lettSwt,k,1.102339048171416,vtsPrac,702.1491459389217,,,,,,,,,,,,,,,,,,,,,,,,,,,,67592,2022-11-15_14h01.31.669,vts_reward_expectancy_bt_OFFLINE,2022.2.4,60.06698631814396,
,,,,,,,,,,,,,,,,,,,,,,,,,,,,,,,,,,0,0,0,0,7,0,7,0,,,,,,,,,,,,,,,,,,,,,,,,,,,,0,783,,,708.151305455016,,,125,B,hexagon,0.002173156011849642,,,,,1,0,,,2,,,,,,,,,704.6451923539862,704.6451923539862,704.6451923539862,704.6451923539862,706.134013317991,706.134013317991,706.134013317991,706.134013317991,706.1505649408791,706.1505649408791,706.1505649408791,706.1505649408791,switch,number,numSwt,d,0.4714417310897261,vtsPrac,706.6367219998501,,,,,,,,,,,,,,,,,,,,,,,,,,,,67592,2022-11-15_14h01.31.669,vts_reward_expectancy_bt_OFFLINE,2022.2.4,60.06698631814396,
,,,,,,,,,,,,,,,,,,,,,,,,,,,,,,,,,,0,0,0,0,8,0,8,0,,,,,,,,,,,,,,,,,,,,,,,,,,,,0,783,,,713.4715709208976,,,125,D,star,0.0011617990676313639,,,,,1,0,,,2,,,,,,,,,709.1434191879816,709.1434191879816,709.1434191879816,709.1434191879816,710.6206314750016,710.6206314750016,710.6206314750016,710.6206314750016,710.6545988558792,710.6545988558792,710.6545988558792,710.6545988558792,switch,letter,lettSwt,j,1.3069704461377114,vtsPrac,711.9560237659607,,,,,,,,,,,,,,,,,,,,,,,,,,,,67592,2022-11-15_14h01.31.669,vts_reward_expectancy_bt_OFFLINE,2022.2.4,60.06698631814396,
,,,,,,,,,,,,,,,,,,,,,,,,,,,,,,,,,,0,0,0,0,9,0,9,0,,,,,,,,,,,,,,,,,,,,,,,,,,,,0,783,,,718.2085866648704,,,132,F,triangle,0.0020647600758820772,,,,,1,0,,,2,,,,,,,,,714.4523832348641,714.4523832348641,714.4523832348641,714.4523832348641,715.9411669520196,715.9411669520196,715.9411669520196,715.9411669520196,715.9578887529206,715.9578887529206,715.9578887529206,715.9578887529206,repeat,letter,lettRpt,j,0.7218041031155735,vtsPrac,716.6939617318567,,,,,,,,,,,,,,,,,,,,,,,,,,,,67592,2022-11-15_14h01.31.669,vts_reward_expectancy_bt_OFFLINE,2022.2.4,60.06698631814396,
,,,,,,,,,,,,,,,,,,,,,,,,,,,,,,,,,,0,0,0,0,10,0,10,0,,,,,,,,,,,,,,,,,,,,,,,,,,,,0,783,,,723.012772076996,,,174,H,hexagon,0.0013807278592139482,,,,,0,0,,,2,,,,,,,,,719.2007981708739,719.2007981708739,719.2007981708739,719.2007981708739,720.6780601739883,720.6780601739883,720.6780601739883,720.6780601739883,720.7119189919904,720.7119189919904,720.7119189919904,720.7119189919904,switch,number,NA,d,0.7889449470676482,vtsPrac,721.4983176600654,,,,,,,,,,,,,,,,,,,,,,,,,,,,67592,2022-11-15_14h01.31.669,vts_reward_expectancy_bt_OFFLINE,2022.2.4,60.06698631814396,
,,,,,,,,,,,,,,,,,,,,,,,,,,,,,,,,,,0,0,0,0,11,0,11,0,,,,,,,,,,,,,,,,,,,,,,,,,,,,0,783,,,727.8324431718793,,,167,Y,triangle,0.013794403057545424,,,,,1,1,,,2,,,,,,,,,724.0068878240418,724.0068878240418,724.0068878240418,724.0068878240418,725.4817086448893,725.4817086448893,725.4817086448893,725.4817086448893,725.5153376359958,725.5153376359958,725.5153376359958,725.5153376359958,repeat,number,numRpt,f,0.8007336540613323,vtsPrac,726.3174658839125,,,,,,,,,,,,,,,,,,,,,,,,,,,,67592,2022-11-15_14h01.31.669,vts_reward_expectancy_bt_OFFLINE,2022.2.4,60.06698631814396,
,,,,,,,,,,,,,,,,,,,,,,,,,,,,,,,,,,0,0,0,0,12,0,12,0,,,,,,,,,,,,,,,,,,,,,,,,,,,,0,783,,,733.0027785948478,,,160,F,star,0.015109102940186858,,,,,1,0,,,2,,,,,,,,,728.829172387952,728.829172387952,728.829172387952,728.829172387952,730.3018377618864,730.3018377618864,730.3018377618864,730.3018377618864,730.3352833888493,730.3352833888493,730.3352833888493,730.3352833888493,repeat,number,numRpt,f,1.156833057058975,vtsPrac,731.487833352061,,,,,,,,,,,,,,,,,,,,,,,,,,,,67592,2022-11-15_14h01.31.669,vts_reward_expectancy_bt_OFFLINE,2022.2.4,60.06698631814396,
,,,,,,,,,,,,,,,,,,,,,,,,,,,,,,,,,,0,0,0,0,13,0,13,0,,,,,,,,,,,,,,,,,,,,,,,,,,,,0,783,,,737.7562629228923,,,146,U,hexagon,0.0004576819483190775,,,,,1,0,,,2,,,,,,,,,733.994690928841,733.994690928841,733.994690928841,733.994690928841,735.4723377940245,735.4723377940245,735.4723377940245,735.4723377940245,735.5054047070444,735.5054047070444,735.5054047070444,735.5054047070444,switch,letter,lettSwt,k,0.7449336592108011,vtsPrac,736.2412610340398,,,,,,,,,,,,,,,,,,,,,,,,,,,,67592,2022-11-15_14h01.31.669,vts_reward_expectancy_bt_OFFLINE,2022.2.4,60.06698631814396,
,,,,,,,,,,,,,,,,,,,,,,,,,,,,,,,,,,0,0,0,0,14,0,14,0,,,,,,,,,,,,,,,,,,,,,,,,,,,,0,783,,,742.4434348400682,,,125,W,star,0.016723660985007882,,,,,1,0,,,2,,,,,,,,,738.7526744408533,738.7526744408533,738.7526744408533,738.7526744408533,740.2263367879204,740.2263367879204,740.2263367879204,740.2263367879204,740.2587253439706,740.2587253439706,740.2587253439706,740.2587253439706,repeat,letter,lettRpt,k,0.6715381930116564,vtsPrac,740.9282301799394,,,,,,,,,,,,,,,,,,,,,,,,,,,,67592,2022-11-15_14h01.31.669,vts_reward_expectancy_bt_OFFLINE,2022.2.4,60.06698631814396,
,,,,,,,,,,,,,,,,,,,,,,,,,,,,,,,,,,0,0,0,0,15,0,15,0,,,,,,,,,,,,,,,,,,,,,,,,,,,,0,783,,,747.1800391678698,,,132,B,hexagon,0.01732859807088971,,,,,1,0,,,2,,,,,,,,,743.4391256170347,743.4391256170347,743.4391256170347,743.4391256170347,744.9125983789563,744.9125983789563,744.9125983789563,744.9125983789563,744.9464981928468,744.9464981928468,744.9464981928468,744.9464981928468,repeat,letter,lettRpt,j,0.7321619491558522,vtsPrac,745.6655984269455,,,,,,,,,,,,,,,,,,,,,,,,,,,,67592,2022-11-15_14h01.31.669,vts_reward_expectancy_bt_OFFLINE,2022.2.4,60.06698631814396,
,,,,,,,,,,,,,,,,,,,,,,,,,,,,,,,,,,0,0,0,0,16,0,16,0,,,,,,,,,,,,,,,,,,,,,,,,,,,,0,783,,,752.0342674378771,,,132,Y,star,0.016079372027888894,,,,,1,0,,,2,,,,,,,,,748.1758501578588,748.1758501578588,748.1758501578588,748.1758501578588,749.6496315069962,749.6496315069962,749.6496315069962,749.6496315069962,749.6831752490252,749.6831752490252,749.6831752490252,749.6831752490252,switch,number,numSwt,d,0.8438768773339689,vtsPrac,750.5183387629222,,,,,,,,,,,,,,,,,,,,,,,,,,,,67592,2022-11-15_14h01.31.669,vts_reward_expectancy_bt_OFFLINE,2022.2.4,60.06698631814396,
,,,,,,,,,,,,,,,,,,,,,,,,,,,,,,,,,,0,0,0,0,17,0,17,0,,,,,,,,,,,,,,,,,,,,,,,,,,,,0,783,,,757.0539830650669,,,139,S,hexagon,0.016466412926092744,,,,,1,0,,,2,,,,,,,,,753.0296545110177,753.0296545110177,753.0296545110177,753.0296545110177,754.5030925818719,754.5030925818719,754.5030925818719,754.5030925818719,754.5368710299954,754.5368710299954,754.5368710299954,754.5368710299954,switch,letter,lettSwt,k,1.0094469501636922,vtsPrac,755.5389999309555,,,,,,,,,,,,,,,,,,,,,,,,,,,,67592,2022-11-15_14h01.31.669,vts_reward_expectancy_bt_OFFLINE,2022.2.4,60.06698631814396,
,,,,,,,,,,,,,,,,,,,,,,,,,,,,,,,,,,0,0,0,0,18,0,18,0,,,,,,,,,,,,,,,,,,,,,,,,,,,,0,783,,,761.6904828578699,,,160,W,triangle,0.017431071028113365,,,,,1,0,,,2,,,,,,,,,758.0501907658763,758.0501907658763,758.0501907658763,758.0501907658763,759.5235665999353,759.5235665999353,759.5235665999353,759.5235665999353,759.5571677570697,759.5571677570697,759.5571677570697,759.5571677570697,repeat,letter,lettRpt,k,0.6229633882176131,vtsPrac,760.1757886998821,,,,,,,,,,,,,,,,,,,,,,,,,,,,67592,2022-11-15_14h01.31.669,vts_reward_expectancy_bt_OFFLINE,2022.2.4,60.06698631814396,
,,,,,,,,,,,,,,,,,,,,,,,,,,,,,,,,,,0,0,0,0,19,0,19,0,,,,,,,,,,,,,,,,,,,,,,,,,,,,0,783,,,766.5775960849132,,,174,B,circle,0.016626934055238962,,,,,1,0,,,2,,,,,,,,,762.6868155009579,762.6868155009579,762.6868155009579,762.6868155009579,764.160249321023,764.160249321023,764.160249321023,764.160249321023,764.1941127679311,764.1941127679311,764.1941127679311,764.1941127679311,repeat,letter,lettRpt,j,0.8811090930830687,vtsPrac,765.0627348490525,,,,,,,,,,,,,,,,,,,,,,,,,,,,67592,2022-11-15_14h01.31.669,vts_reward_expectancy_bt_OFFLINE,2022.2.4,60.06698631814396,
,,,,,,,,,,,,,,,,,,,,,,,,,,,,,,,,,,0,0,0,0,20,0,20,0,,,,,,,,,,,,,,,,,,,,,,,,,,,,0,783,,,772.9317790500354,,773.4319597410504,132,D,star,0.01622055098414421,,,,,1,0,,,2,,,,,,,,,767.5732326749712,767.5732326749712,767.5732326749712,767.5732326749712,769.0467185499147,769.0467185499147,769.0467185499147,769.0467185499147,769.0801690828521,769.0801690828521,769.0801690828521,769.0801690828521,switch,number,numSwt,d,2.3623076560907066,vtsPrac,771.4332561730407,,,,,,,,,,,,,,,,,,,,,,,,,,,,67592,2022-11-15_14h01.31.669,vts_reward_expectancy_bt_OFFLINE,2022.2.4,60.06698631814396,
,,,,,,,,,,,,,,,,,,,,,,,,,,,,,,,,,,0,0,0,0,21,0,21,0,,,,,,,,,,,,,,,,,,,,,,,,,,,,0,783,,,777.7025174319278,,,174,F,triangle,0.0004283590242266655,,,,,0,0,,,2,,,,,,,,,773.9405104869511,773.9405104869511,773.9405104869511,773.9405104869511,775.4183033409063,775.4183033409063,775.4183033409063,775.4183033409063,775.4511757050641,775.4511757050641,775.4511757050641,775.4511757050641,repeat,number,NA,d,0.7383194959256798,vtsPrac,776.1879516749177,,,,,,,,,,,,,,,,,,,,,,,,,,,,67592,2022-11-15_14h01.31.669,vts_reward_expectancy_bt_OFFLINE,2022.2.4,60.06698631814396,
,,,,,,,,,,,,,,,,,,,,,,,,,,,,,,,,,,0,0,0,0,22,0,22,0,,,,,,,,,,,,,,,,,,,,,,,,,,,,0,783,,,782.8057341969106,,,139,W,triangle,0.01647612894885242,,,,,1,1,,,2,,,,,,,,,778.69829131593,778.69829131593,778.69829131593,778.69829131593,780.1712268039118,780.1712268039118,780.1712268039118,780.1712268039118,780.2047250808682,780.2047250808682,780.2047250808682,780.2047250808682,repeat,number,numRpt,d,1.0934916390106082,vtsPrac,781.292048123898,,,,,,,,,,,,,,,,,,,,,,,,,,,,67592,2022-11-15_14h01.31.669,vts_reward_expectancy_bt_OFFLINE,2022.2.4,60.06698631814396,
,,,,,,,,,,,,,,,,,,,,,,,,,,,,,,,,,,0,0,0,0,23,0,23,0,,,,,,,,,,,,,,,,,,,,,,,,,,,,0,783,,,789.1622755029239,,,181,Y,circle,0.017282249173149467,,,,,1,0,,,2,,,,,,,,,783.8021410638466,783.8021410638466,783.8021410638466,783.8021410638466,785.2749449659605,785.2749449659605,785.2749449659605,785.2749449659605,785.3084598500282,785.3084598500282,785.3084598500282,785.3084598500282,repeat,number,numRpt,f,2.3679486392065883,vtsPrac,787.6617729009595,,,,,,,,,,,,,,,,,,,,,,,,,,,,67592,2022-11-15_14h01.31.669,vts_reward_expectancy_bt_OFFLINE,2022.2.4,60.06698631814396,
,,,,,,,,,,,,,,,,,,,,,,,,,,,,,,,,,,0,0,0,0,24,0,24,0,,,,,,,,,,,,,,,,,,,,,,,,,,,,0,783,,,794.6158330959734,,,167,Y,hexagon,0.0015425679739564657,,,,,0,0,,,2,,,,,,,,,790.1563843509648,790.1563843509648,790.1563843509648,790.1563843509648,791.6462150509469,791.6462150509469,791.6462150509469,791.6462150509469,791.6625464858953,791.6625464858953,791.6625464858953,791.6625464858953,switch,letter,NA,j,1.4419408591929823,vtsPrac,793.1162873338908,,,,,,,,,,,,,,,,,,,,,,,,,,,,67592,2022-11-15_14h01.31.669,vts_reward_expectancy_bt_OFFLINE,2022.2.4,60.06698631814396,
,,,,,,,,,,,,,,,,,,,,,,,,,,,,,,,,,,0,0,0,0,25,0,25,0,,,,,,,,,,,,,,,,,,,,,,,,,,,,0,783,,,799.485584866954,,,132,F,triangle,0.0013223390560597181,,,,,1,1,,,2,,,,,,,,,795.6108576590195,795.6108576590195,795.6108576590195,795.6108576590195,797.10039232485,797.10039232485,797.10039232485,797.10039232485,797.11629558797,797.11629558797,797.11629558797,797.11629558797,switch,number,numSwt,d,0.8592789222020656,vtsPrac,797.9866738580167,,,,,,,,,,,,,,,,,,,,,,,,,,,,67592,2022-11-15_14h01.31.669,vts_reward_expectancy_bt_OFFLINE,2022.2.4,60.06698631814396,
,,,,,,,,,,,,,,,,,,,,,,,,,,,,,,,,,,0,0,0,0,26,0,26,0,,,,,,,,,,,,,,,,,,,,,,,,,,,,0,783,,,804.5897327880375,,,125,B,hexagon,0.002300750929862261,,,,,1,0,,,2,,,,,,,,,800.4817026709206,800.4817026709206,800.4817026709206,800.4817026709206,801.970509778941,801.970509778941,801.970509778941,801.970509778941,801.986591883935,801.986591883935,801.986591883935,801.986591883935,repeat,number,numRpt,d,1.0857678642496467,vtsPrac,803.1017488969956,,,,,,,,,,,,,,,,,,,,,,,,,,,,67592,2022-11-15_14h01.31.669,vts_reward_expectancy_bt_OFFLINE,2022.2.4,60.06698631814396,
