LTriangleOpac,LCircleOpac,LHexagonOpac,LStarOpac,RTriangleOpac,RCircleOpac,RHexagonOpac,RStarOpac,LShape_ID,RShape_ID,training_blocks.thisRepN,training_blocks.thisTrialN,training_blocks.thisN,training_blocks.thisIndex,training.thisRepN,training.thisTrialN,training.thisN,training.thisIndex,task1_prac_redo.thisRepN,task1_prac_redo.thisTrialN,task1_prac_redo.thisN,task1_prac_redo.thisIndex,task1_prac_trials.thisRepN,task1_prac_trials.thisTrialN,task1_prac_trials.thisN,task1_prac_trials.thisIndex,task2_prac_redo.thisRepN,task2_prac_redo.thisTrialN,task2_prac_redo.thisN,task2_prac_redo.thisIndex,task2_praac_trials.thisRepN,task2_praac_trials.thisTrialN,task2_praac_trials.thisN,task2_praac_trials.thisIndex,vts_prac_redo.thisRepN,vts_prac_redo.thisTrialN,vts_prac_redo.thisN,vts_prac_redo.thisIndex,vts_practice_trials.thisRepN,vts_practice_trials.thisTrialN,vts_practice_trials.thisN,vts_practice_trials.thisIndex,trials_norew.thisRepN,trials_norew.thisTrialN,trials_norew.thisN,trials_norew.thisIndex,block.thisRepN,block.thisTrialN,block.thisN,block.thisIndex,trials_rew.thisRepN,trials_rew.thisTrialN,trials_rew.thisN,trials_rew.thisIndex,key_resp.started,key_resp.keys,key_resp.rt,left_circle.started,right_circle.started,left_triangle.started,right_triangle.started,left_star.started,right_star.started,left_hexagon.started,right_hexagon.started,training_fix.started,training_resp.started,training_resp.keys,training_resp.rt,points_trial,points_cumul,trainBlock,training_feedback_txt.started,fix.started,training_feedback_txt.stopped,curr_topStim,curr_bottStim,curr_shape,ISI.started,tgt_fix_prac1.started,top_target_prac1.started,bott_target_prac1.started,target_resp_prac1.started,acc,E1,target_resp_prac1.keys,target_resp_prac1.rt,pracBlock,prac_fback_text.started,tgt_fix_prac2.started,top_target_prac2.started,bott_target_prac2.started,target_resp_prac2.started,target_resp_prac2.keys,target_resp_prac2.rt,star.started,hegagon.started,triangle.started,circle.started,star.stopped,hegagon.stopped,triangle.stopped,circle.stopped,top_target.started,tgt_fix.started,bot_target.started,target_resp.started,top_target.stopped,tgt_fix.stopped,bot_target.stopped,target_resp.stopped,alt,task,condition,target_resp.keys,rewCond,vts_fback.started,vts_fback.stopped,fix.stopped,target_resp.rt,blockNum,norew_fback.started,key_resp_2.keys,key_resp_2.rt,rewExpectancy,feedbk_text.started,feedbk_text.stopped,text_3.started,debrief.started,text_3.stopped,button.started,debrief.index,debrief.itemText,debrief.type,debrief.granularity,debrief.font,debrief.markerColor,debrief.response,debrief.rt,button.numClicks,button.timesOn,button.timesOff,participant,date,expName,psychopyVersion,frameRate
,,,,,,,,,,,,,,,,,,,,,,,,,,,,,,,,,,,,,,,,,,,,,,,,,,,,,,28.35311143,space,18.48163353,,,,,,,,,,,,,,,,,,,,,,,,,,,,,,,,,,,,,,,,,,,,,,,,,,,,,,,,,,,,,,,,,,,,,,,,,,,,,,,,,,,,,,69140_2,2022-11-04_09h05.51.782,vts_reward_expectancy_bt_OFFLINE,2022.2.4,59.94947111
1,0,0,0,0,0,1,0,triangle,hexagon,0,0,0,0,0,0,0,1,,,,,,,,,,,,,,,,,,,,,,,,,,,,,,,,,,,,,,,,62.56195304,62.56195304,62.56195304,62.56195304,62.56195304,62.56195304,62.56195304,62.56195304,62.56195304,62.56195304,a,4.344145392,10,10,0,66.92276996,68.42436689,,,,,,,,,,,,,,,,,,,,,,,,,,,,,,,,,,,,,,,,,,,,,,,,,,,,,,,,,,,,,,,,,,,,,69140_2,2022-11-04_09h05.51.782,vts_reward_expectancy_bt_OFFLINE,2022.2.4,59.94947111
0,0,1,0,0,1,0,0,hexagon,circle,0,0,0,0,0,1,1,7,,,,,,,,,,,,,,,,,,,,,,,,,,,,,,,,,,,,,,,,68.92502003,68.92502003,68.92502003,68.92502003,68.92502003,68.92502003,68.92502003,68.92502003,68.92502003,68.92502003,l,0.567856113,10,20,0,69.52568849,71.0272448,,,,,,,,,,,,,,,,,,,,,,,,,,,,,,,,,,,,,,,,,,,,,,,,,,,,,,,,,,,,,,,,,,,,,69140_2,2022-11-04_09h05.51.782,vts_reward_expectancy_bt_OFFLINE,2022.2.4,59.94947111
0,0,1,0,0,0,0,1,hexagon,star,0,0,0,0,0,2,2,8,,,,,,,,,,,,,,,,,,,,,,,,,,,,,,,,,,,,,,,,71.5278226,71.5278226,71.5278226,71.5278226,71.5278226,71.5278226,71.5278226,71.5278226,71.5278226,71.5278226,l,0.317543549,10,30,0,71.87827593,73.37986964,,,,,,,,,,,,,,,,,,,,,,,,,,,,,,,,,,,,,,,,,,,,,,,,,,,,,,,,,,,,,,,,,,,,,69140_2,2022-11-04_09h05.51.782,vts_reward_expectancy_bt_OFFLINE,2022.2.4,59.94947111
0,0,0,1,1,0,0,0,star,triangle,0,0,0,0,0,3,3,9,,,,,,,,,,,,,,,,,,,,,,,,,,,,,,,,,,,,,,,,73.88039267,73.88039267,73.88039267,73.88039267,73.88039267,73.88039267,73.88039267,73.88039267,73.88039267,73.88039267,a,0.282964289,1,31,0,74.18076785,75.68230513,,,,,,,,,,,,,,,,,,,,,,,,,,,,,,,,,,,,,,,,,,,,,,,,,,,,,,,,,,,,,,,,,,,,,69140_2,2022-11-04_09h05.51.782,vts_reward_expectancy_bt_OFFLINE,2022.2.4,59.94947111
1,0,0,0,0,1,0,0,triangle,circle,0,0,0,0,0,4,4,0,,,,,,,,,,,,,,,,,,,,,,,,,,,,,,,,,,,,,,,,76.18297371,76.18297371,76.18297371,76.18297371,76.18297371,76.18297371,76.18297371,76.18297371,76.18297371,76.18297371,a,0.25121453,10,41,0,76.46655017,77.96827736,,,,,,,,,,,,,,,,,,,,,,,,,,,,,,,,,,,,,,,,,,,,,,,,,,,,,,,,,,,,,,,,,,,,,69140_2,2022-11-04_09h05.51.782,vts_reward_expectancy_bt_OFFLINE,2022.2.4,59.94947111
0,0,0,1,0,0,1,0,star,hexagon,0,0,0,0,0,5,5,11,,,,,,,,,,,,,,,,,,,,,,,,,,,,,,,,,,,,,,,,78.46883403,78.46883403,78.46883403,78.46883403,78.46883403,78.46883403,78.46883403,78.46883403,78.46883403,78.46883403,l,0.259924403,10,51,0,78.75256872,80.2542092,,,,,,,,,,,,,,,,,,,,,,,,,,,,,,,,,,,,,,,,,,,,,,,,,,,,,,,,,,,,,,,,,,,,,69140_2,2022-11-04_09h05.51.782,vts_reward_expectancy_bt_OFFLINE,2022.2.4,59.94947111
0,0,1,0,1,0,0,0,hexagon,triangle,0,0,0,0,0,6,6,6,,,,,,,,,,,,,,,,,,,,,,,,,,,,,,,,,,,,,,,,80.75466709,80.75466709,80.75466709,80.75466709,80.75466709,80.75466709,80.75466709,80.75466709,80.75466709,80.75466709,l,0.282296248,1,52,0,81.05492834,82.55672192,,,,,,,,,,,,,,,,,,,,,,,,,,,,,,,,,,,,,,,,,,,,,,,,,,,,,,,,,,,,,,,,,,,,,69140_2,2022-11-04_09h05.51.782,vts_reward_expectancy_bt_OFFLINE,2022.2.4,59.94947111
0,1,0,0,0,0,0,1,circle,star,0,0,0,0,0,7,7,5,,,,,,,,,,,,,,,,,,,,,,,,,,,,,,,,,,,,,,,,83.05722004,83.05722004,83.05722004,83.05722004,83.05722004,83.05722004,83.05722004,83.05722004,83.05722004,83.05722004,a,0.273541147,1,53,0,83.35759086,84.85914497,,,,,,,,,,,,,,,,,,,,,,,,,,,,,,,,,,,,,,,,,,,,,,,,,,,,,,,,,,,,,,,,,,,,,69140_2,2022-11-04_09h05.51.782,vts_reward_expectancy_bt_OFFLINE,2022.2.4,59.94947111
0,1,0,0,1,0,0,0,circle,triangle,0,0,0,0,0,8,8,3,,,,,,,,,,,,,,,,,,,,,,,,,,,,,,,,,,,,,,,,85.35977582,85.35977582,85.35977582,85.35977582,85.35977582,85.35977582,85.35977582,85.35977582,85.35977582,85.35977582,a,0.693357451,1,54,0,86.07720301,87.578809,,,,,,,,,,,,,,,,,,,,,,,,,,,,,,,,,,,,,,,,,,,,,,,,,,,,,,,,,,,,,,,,,,,,,69140_2,2022-11-04_09h05.51.782,vts_reward_expectancy_bt_OFFLINE,2022.2.4,59.94947111
0,1,0,0,0,0,1,0,circle,hexagon,0,0,0,0,0,9,9,4,,,,,,,,,,,,,,,,,,,,,,,,,,,,,,,,,,,,,,,,88.07937564,88.07937564,88.07937564,88.07937564,88.07937564,88.07937564,88.07937564,88.07937564,88.07937564,88.07937564,l,0.853557521,10,64,0,88.96370023,90.46546961,,,,,,,,,,,,,,,,,,,,,,,,,,,,,,,,,,,,,,,,,,,,,,,,,,,,,,,,,,,,,,,,,,,,,69140_2,2022-11-04_09h05.51.782,vts_reward_expectancy_bt_OFFLINE,2022.2.4,59.94947111
0,0,0,1,0,1,0,0,star ,circle,0,0,0,0,0,10,10,10,,,,,,,,,,,,,,,,,,,,,,,,,,,,,,,,,,,,,,,,90.9660919,90.9660919,90.9660919,90.9660919,90.9660919,90.9660919,90.9660919,90.9660919,90.9660919,90.9660919,l,0.868712243,10,74,0,91.86686941,93.36849289,,,,,,,,,,,,,,,,,,,,,,,,,,,,,,,,,,,,,,,,,,,,,,,,,,,,,,,,,,,,,,,,,,,,,69140_2,2022-11-04_09h05.51.782,vts_reward_expectancy_bt_OFFLINE,2022.2.4,59.94947111
1,0,0,0,0,0,0,1,triangle,star,0,0,0,0,0,11,11,2,,,,,,,,,,,,,,,,,,,,,,,,,,,,,,,,,,,,,,,,93.86907166,93.86907166,93.86907166,93.86907166,93.86907166,93.86907166,93.86907166,93.86907166,93.86907166,93.86907166,a,0.340612142,1,75,0,94.23601369,95.73782933,,,,,,,,,,,,,,,,,,,,,,,,,,,,,,,,,,,,,,,,,,,,,,,,,,,,,,,,,,,,,,,,,,,,,69140_2,2022-11-04_09h05.51.782,vts_reward_expectancy_bt_OFFLINE,2022.2.4,59.94947111
0,0,1,0,1,0,0,0,hexagon,triangle,0,0,0,0,1,0,12,6,,,,,,,,,,,,,,,,,,,,,,,,,,,,,,,,,,,,,,,,96.23848198,96.23848198,96.23848198,96.23848198,96.23848198,96.23848198,96.23848198,96.23848198,96.23848198,96.23848198,l,0.311109342,10,85,0,96.57205107,98.07391755,,,,,,,,,,,,,,,,,,,,,,,,,,,,,,,,,,,,,,,,,,,,,,,,,,,,,,,,,,,,,,,,,,,,,69140_2,2022-11-04_09h05.51.782,vts_reward_expectancy_bt_OFFLINE,2022.2.4,59.94947111
0,0,0,1,1,0,0,0,star,triangle,0,0,0,0,1,1,13,9,,,,,,,,,,,,,,,,,,,,,,,,,,,,,,,,,,,,,,,,98.57444371,98.57444371,98.57444371,98.57444371,98.57444371,98.57444371,98.57444371,98.57444371,98.57444371,98.57444371,a,0.427687856,1,86,0,99.02478464,100.5266076,,,,,,,,,,,,,,,,,,,,,,,,,,,,,,,,,,,,,,,,,,,,,,,,,,,,,,,,,,,,,,,,,,,,,69140_2,2022-11-04_09h05.51.782,vts_reward_expectancy_bt_OFFLINE,2022.2.4,59.94947111
1,0,0,0,0,1,0,0,triangle,circle,0,0,0,0,1,2,14,0,,,,,,,,,,,,,,,,,,,,,,,,,,,,,,,,,,,,,,,,101.027086,101.027086,101.027086,101.027086,101.027086,101.027086,101.027086,101.027086,101.027086,101.027086,a,0.293234303,1,87,0,101.34398,102.8456303,,,,,,,,,,,,,,,,,,,,,,,,,,,,,,,,,,,,,,,,,,,,,,,,,,,,,,,,,,,,,,,,,,,,,69140_2,2022-11-04_09h05.51.782,vts_reward_expectancy_bt_OFFLINE,2022.2.4,59.94947111
1,0,0,0,0,0,0,1,triangle,star,0,0,0,0,1,3,15,2,,,,,,,,,,,,,,,,,,,,,,,,,,,,,,,,,,,,,,,,103.3462432,103.3462432,103.3462432,103.3462432,103.3462432,103.3462432,103.3462432,103.3462432,103.3462432,103.3462432,l,0.268265316,1,88,0,103.6465435,105.148162,,,,,,,,,,,,,,,,,,,,,,,,,,,,,,,,,,,,,,,,,,,,,,,,,,,,,,,,,,,,,,,,,,,,,69140_2,2022-11-04_09h05.51.782,vts_reward_expectancy_bt_OFFLINE,2022.2.4,59.94947111
0,0,0,1,0,1,0,0,star ,circle,0,0,0,0,1,4,16,10,,,,,,,,,,,,,,,,,,,,,,,,,,,,,,,,,,,,,,,,105.6487109,105.6487109,105.6487109,105.6487109,105.6487109,105.6487109,105.6487109,105.6487109,105.6487109,105.6487109,l,0.307651841,10,98,0,105.9825524,107.4842116,,,,,,,,,,,,,,,,,,,,,,,,,,,,,,,,,,,,,,,,,,,,,,,,,,,,,,,,,,,,,,,,,,,,,69140_2,2022-11-04_09h05.51.782,vts_reward_expectancy_bt_OFFLINE,2022.2.4,59.94947111
0,0,1,0,0,0,0,1,hexagon,star,0,0,0,0,1,5,17,8,,,,,,,,,,,,,,,,,,,,,,,,,,,,,,,,,,,,,,,,107.9846083,107.9846083,107.9846083,107.9846083,107.9846083,107.9846083,107.9846083,107.9846083,107.9846083,107.9846083,a,0.287829202,1,99,0,108.3017513,109.8034126,,,,,,,,,,,,,,,,,,,,,,,,,,,,,,,,,,,,,,,,,,,,,,,,,,,,,,,,,,,,,,,,,,,,,69140_2,2022-11-04_09h05.51.782,vts_reward_expectancy_bt_OFFLINE,2022.2.4,59.94947111
0,0,0,1,0,0,1,0,star,hexagon,0,0,0,0,1,6,18,11,,,,,,,,,,,,,,,,,,,,,,,,,,,,,,,,,,,,,,,,110.3040016,110.3040016,110.3040016,110.3040016,110.3040016,110.3040016,110.3040016,110.3040016,110.3040016,110.3040016,l,0.332733822,1,100,0,110.6542674,112.1558776,,,,,,,,,,,,,,,,,,,,,,,,,,,,,,,,,,,,,,,,,,,,,,,,,,,,,,,,,,,,,,,,,,,,,69140_2,2022-11-04_09h05.51.782,vts_reward_expectancy_bt_OFFLINE,2022.2.4,59.94947111
0,1,0,0,1,0,0,0,circle,triangle,0,0,0,0,1,7,19,3,,,,,,,,,,,,,,,,,,,,,,,,,,,,,,,,,,,,,,,,112.6565171,112.6565171,112.6565171,112.6565171,112.6565171,112.6565171,112.6565171,112.6565171,112.6565171,112.6565171,a,0.30690039,1,101,0,112.9901326,114.491926,,,,,,,,,,,,,,,,,,,,,,,,,,,,,,,,,,,,,,,,,,,,,,,,,,,,,,,,,,,,,,,,,,,,,69140_2,2022-11-04_09h05.51.782,vts_reward_expectancy_bt_OFFLINE,2022.2.4,59.94947111
0,1,0,0,0,0,1,0,circle,hexagon,0,0,0,0,1,8,20,4,,,,,,,,,,,,,,,,,,,,,,,,,,,,,,,,,,,,,,,,114.992457,114.992457,114.992457,114.992457,114.992457,114.992457,114.992457,114.992457,114.992457,114.992457,a,0.301386049,10,111,0,115.3261741,116.827933,,,,,,,,,,,,,,,,,,,,,,,,,,,,,,,,,,,,,,,,,,,,,,,,,,,,,,,,,,,,,,,,,,,,,69140_2,2022-11-04_09h05.51.782,vts_reward_expectancy_bt_OFFLINE,2022.2.4,59.94947111
0,1,0,0,0,0,0,1,circle,star,0,0,0,0,1,9,21,5,,,,,,,,,,,,,,,,,,,,,,,,,,,,,,,,,,,,,,,,117.3282408,117.3282408,117.3282408,117.3282408,117.3282408,117.3282408,117.3282408,117.3282408,117.3282408,117.3282408,a,0.518754392,1,112,0,117.8789371,119.3806838,,,,,,,,,,,,,,,,,,,,,,,,,,,,,,,,,,,,,,,,,,,,,,,,,,,,,,,,,,,,,,,,,,,,,69140_2,2022-11-04_09h05.51.782,vts_reward_expectancy_bt_OFFLINE,2022.2.4,59.94947111
0,0,1,0,0,1,0,0,hexagon,circle,0,0,0,0,1,10,22,7,,,,,,,,,,,,,,,,,,,,,,,,,,,,,,,,,,,,,,,,119.8813178,119.8813178,119.8813178,119.8813178,119.8813178,119.8813178,119.8813178,119.8813178,119.8813178,119.8813178,l,0.306306995,10,122,0,120.2148504,121.7164252,,,,,,,,,,,,,,,,,,,,,,,,,,,,,,,,,,,,,,,,,,,,,,,,,,,,,,,,,,,,,,,,,,,,,69140_2,2022-11-04_09h05.51.782,vts_reward_expectancy_bt_OFFLINE,2022.2.4,59.94947111
1,0,0,0,0,0,1,0,triangle,hexagon,0,0,0,0,1,11,23,1,,,,,,,,,,,,,,,,,,,,,,,,,,,,,,,,,,,,,,,,122.2170205,122.2170205,122.2170205,122.2170205,122.2170205,122.2170205,122.2170205,122.2170205,122.2170205,122.2170205,l,0.377325168,1,123,0,122.6174172,124.1191863,,,,,,,,,,,,,,,,,,,,,,,,,,,,,,,,,,,,,,,,,,,,,,,,,,,,,,,,,,,,,,,,,,,,,69140_2,2022-11-04_09h05.51.782,vts_reward_expectancy_bt_OFFLINE,2022.2.4,59.94947111
1,0,0,0,0,0,1,0,triangle,hexagon,0,0,0,0,2,0,24,1,,,,,,,,,,,,,,,,,,,,,,,,,,,,,,,,,,,,,,,,124.6196661,124.6196661,124.6196661,124.6196661,124.6196661,124.6196661,124.6196661,124.6196661,124.6196661,124.6196661,a,4.791921147,1,124,0,129.4417211,130.9433645,,,,,,,,,,,,,,,,,,,,,,,,,,,,,,,,,,,,,,,,,,,,,,,,,,,,,,,,,,,,,,,,,,,,,69140_2,2022-11-04_09h05.51.782,vts_reward_expectancy_bt_OFFLINE,2022.2.4,59.94947111
1,0,0,0,0,1,0,0,triangle,circle,0,0,0,0,2,1,25,0,,,,,,,,,,,,,,,,,,,,,,,,,,,,,,,,,,,,,,,,131.4439902,131.4439902,131.4439902,131.4439902,131.4439902,131.4439902,131.4439902,131.4439902,131.4439902,131.4439902,l,2.175505798,1,125,0,133.6465882,135.1481292,,,,,,,,,,,,,,,,,,,,,,,,,,,,,,,,,,,,,,,,,,,,,,,,,,,,,,,,,,,,,,,,,,,,,69140_2,2022-11-04_09h05.51.782,vts_reward_expectancy_bt_OFFLINE,2022.2.4,59.94947111
0,0,0,1,0,0,1,0,star,hexagon,0,0,0,0,2,2,26,11,,,,,,,,,,,,,,,,,,,,,,,,,,,,,,,,,,,,,,,,135.6484504,135.6484504,135.6484504,135.6484504,135.6484504,135.6484504,135.6484504,135.6484504,135.6484504,135.6484504,l,0.592323672,1,126,0,136.2660707,137.7675696,,,,,,,,,,,,,,,,,,,,,,,,,,,,,,,,,,,,,,,,,,,,,,,,,,,,,,,,,,,,,,,,,,,,,69140_2,2022-11-04_09h05.51.782,vts_reward_expectancy_bt_OFFLINE,2022.2.4,59.94947111
0,1,0,0,0,0,1,0,circle,hexagon,0,0,0,0,2,3,27,4,,,,,,,,,,,,,,,,,,,,,,,,,,,,,,,,,,,,,,,,138.2681423,138.2681423,138.2681423,138.2681423,138.2681423,138.2681423,138.2681423,138.2681423,138.2681423,138.2681423,l,0.36825773,10,136,0,138.668579,140.1701491,,,,,,,,,,,,,,,,,,,,,,,,,,,,,,,,,,,,,,,,,,,,,,,,,,,,,,,,,,,,,,,,,,,,,69140_2,2022-11-04_09h05.51.782,vts_reward_expectancy_bt_OFFLINE,2022.2.4,59.94947111
0,0,1,0,0,1,0,0,hexagon,circle,0,0,0,0,2,4,28,7,,,,,,,,,,,,,,,,,,,,,,,,,,,,,,,,,,,,,,,,140.6707053,140.6707053,140.6707053,140.6707053,140.6707053,140.6707053,140.6707053,140.6707053,140.6707053,140.6707053,l,0.307143563,10,146,0,141.0044568,142.5061841,,,,,,,,,,,,,,,,,,,,,,,,,,,,,,,,,,,,,,,,,,,,,,,,,,,,,,,,,,,,,,,,,,,,,69140_2,2022-11-04_09h05.51.782,vts_reward_expectancy_bt_OFFLINE,2022.2.4,59.94947111
0,0,1,0,0,0,0,1,hexagon,star,0,0,0,0,2,5,29,8,,,,,,,,,,,,,,,,,,,,,,,,,,,,,,,,,,,,,,,,143.0068361,143.0068361,143.0068361,143.0068361,143.0068361,143.0068361,143.0068361,143.0068361,143.0068361,143.0068361,l,0.254400637,1,147,0,143.2902725,144.7919682,,,,,,,,,,,,,,,,,,,,,,,,,,,,,,,,,,,,,,,,,,,,,,,,,,,,,,,,,,,,,,,,,,,,,69140_2,2022-11-04_09h05.51.782,vts_reward_expectancy_bt_OFFLINE,2022.2.4,59.94947111
0,1,0,0,0,0,0,1,circle,star,0,0,0,0,2,6,30,5,,,,,,,,,,,,,,,,,,,,,,,,,,,,,,,,,,,,,,,,145.2925341,145.2925341,145.2925341,145.2925341,145.2925341,145.2925341,145.2925341,145.2925341,145.2925341,145.2925341,a,0.241537606,1,148,0,145.559513,147.0611727,,,,,,,,,,,,,,,,,,,,,,,,,,,,,,,,,,,,,,,,,,,,,,,,,,,,,,,,,,,,,,,,,,,,,69140_2,2022-11-04_09h05.51.782,vts_reward_expectancy_bt_OFFLINE,2022.2.4,59.94947111
1,0,0,0,0,0,0,1,triangle,star,0,0,0,0,2,7,31,2,,,,,,,,,,,,,,,,,,,,,,,,,,,,,,,,,,,,,,,,147.5615721,147.5615721,147.5615721,147.5615721,147.5615721,147.5615721,147.5615721,147.5615721,147.5615721,147.5615721,a,0.210787191,1,149,0,147.7953122,149.2968256,,,,,,,,,,,,,,,,,,,,,,,,,,,,,,,,,,,,,,,,,,,,,,,,,,,,,,,,,,,,,,,,,,,,,69140_2,2022-11-04_09h05.51.782,vts_reward_expectancy_bt_OFFLINE,2022.2.4,59.94947111
0,0,0,1,1,0,0,0,star,triangle,0,0,0,0,2,8,32,9,,,,,,,,,,,,,,,,,,,,,,,,,,,,,,,,,,,,,,,,149.7975187,149.7975187,149.7975187,149.7975187,149.7975187,149.7975187,149.7975187,149.7975187,149.7975187,149.7975187,a,0.843487988,10,159,0,150.6652791,152.1666935,,,,,,,,,,,,,,,,,,,,,,,,,,,,,,,,,,,,,,,,,,,,,,,,,,,,,,,,,,,,,,,,,,,,,69140_2,2022-11-04_09h05.51.782,vts_reward_expectancy_bt_OFFLINE,2022.2.4,59.94947111
0,0,0,1,0,1,0,0,star ,circle,0,0,0,0,2,9,33,10,,,,,,,,,,,,,,,,,,,,,,,,,,,,,,,,,,,,,,,,152.6671676,152.6671676,152.6671676,152.6671676,152.6671676,152.6671676,152.6671676,152.6671676,152.6671676,152.6671676,a,0.314965678,10,169,0,153.0011711,154.5028049,,,,,,,,,,,,,,,,,,,,,,,,,,,,,,,,,,,,,,,,,,,,,,,,,,,,,,,,,,,,,,,,,,,,,69140_2,2022-11-04_09h05.51.782,vts_reward_expectancy_bt_OFFLINE,2022.2.4,59.94947111
0,0,1,0,1,0,0,0,hexagon,triangle,0,0,0,0,2,10,34,6,,,,,,,,,,,,,,,,,,,,,,,,,,,,,,,,,,,,,,,,155.0031785,155.0031785,155.0031785,155.0031785,155.0031785,155.0031785,155.0031785,155.0031785,155.0031785,155.0031785,l,0.296358155,1,170,0,155.3202576,156.8219234,,,,,,,,,,,,,,,,,,,,,,,,,,,,,,,,,,,,,,,,,,,,,,,,,,,,,,,,,,,,,,,,,,,,,69140_2,2022-11-04_09h05.51.782,vts_reward_expectancy_bt_OFFLINE,2022.2.4,59.94947111
0,1,0,0,1,0,0,0,circle,triangle,0,0,0,0,2,11,35,3,,,,,,,,,,,,,,,,,,,,,,,,,,,,,,,,,,,,,,,,157.3224957,157.3224957,157.3224957,157.3224957,157.3224957,157.3224957,157.3224957,157.3224957,157.3224957,157.3224957,a,0.350650214,1,171,0,157.6894139,159.1913325,,,,,,,,,,,,,,,,,,,,,,,,,,,,,,,,,,,,,,,,,,,,,,,,,,,,,,,,,,,,,,,,,,,,,69140_2,2022-11-04_09h05.51.782,vts_reward_expectancy_bt_OFFLINE,2022.2.4,59.94947111
1,0,0,0,0,0,1,0,triangle,hexagon,0,0,0,0,3,0,36,1,,,,,,,,,,,,,,,,,,,,,,,,,,,,,,,,,,,,,,,,159.6916849,159.6916849,159.6916849,159.6916849,159.6916849,159.6916849,159.6916849,159.6916849,159.6916849,159.6916849,a,0.309971111,10,181,0,160.0253865,161.5272182,,,,,,,,,,,,,,,,,,,,,,,,,,,,,,,,,,,,,,,,,,,,,,,,,,,,,,,,,,,,,,,,,,,,,69140_2,2022-11-04_09h05.51.782,vts_reward_expectancy_bt_OFFLINE,2022.2.4,59.94947111
0,1,0,0,0,0,0,1,circle,star,0,0,0,0,3,1,37,5,,,,,,,,,,,,,,,,,,,,,,,,,,,,,,,,,,,,,,,,162.027776,162.027776,162.027776,162.027776,162.027776,162.027776,162.027776,162.027776,162.027776,162.027776,a,0.258076207,10,191,0,162.3112464,163.8129058,,,,,,,,,,,,,,,,,,,,,,,,,,,,,,,,,,,,,,,,,,,,,,,,,,,,,,,,,,,,,,,,,,,,,69140_2,2022-11-04_09h05.51.782,vts_reward_expectancy_bt_OFFLINE,2022.2.4,59.94947111
1,0,0,0,0,1,0,0,triangle,circle,0,0,0,0,3,2,38,0,,,,,,,,,,,,,,,,,,,,,,,,,,,,,,,,,,,,,,,,164.3136203,164.3136203,164.3136203,164.3136203,164.3136203,164.3136203,164.3136203,164.3136203,164.3136203,164.3136203,l,0.278783076,1,192,0,164.6139777,166.1155721,,,,,,,,,,,,,,,,,,,,,,,,,,,,,,,,,,,,,,,,,,,,,,,,,,,,,,,,,,,,,,,,,,,,,69140_2,2022-11-04_09h05.51.782,vts_reward_expectancy_bt_OFFLINE,2022.2.4,59.94947111
0,1,0,0,1,0,0,0,circle,triangle,0,0,0,0,3,3,39,3,,,,,,,,,,,,,,,,,,,,,,,,,,,,,,,,,,,,,,,,166.6161516,166.6161516,166.6161516,166.6161516,166.6161516,166.6161516,166.6161516,166.6161516,166.6161516,166.6161516,a,0.192787958,1,193,0,166.8330328,168.3345225,,,,,,,,,,,,,,,,,,,,,,,,,,,,,,,,,,,,,,,,,,,,,,,,,,,,,,,,,,,,,,,,,,,,,69140_2,2022-11-04_09h05.51.782,vts_reward_expectancy_bt_OFFLINE,2022.2.4,59.94947111
0,1,0,0,0,0,1,0,circle,hexagon,0,0,0,0,3,4,40,4,,,,,,,,,,,,,,,,,,,,,,,,,,,,,,,,,,,,,,,,168.8350079,168.8350079,168.8350079,168.8350079,168.8350079,168.8350079,168.8350079,168.8350079,168.8350079,168.8350079,a,0.123105962,1,194,0,168.9852628,170.4871126,,,,,,,,,,,,,,,,,,,,,,,,,,,,,,,,,,,,,,,,,,,,,,,,,,,,,,,,,,,,,,,,,,,,,69140_2,2022-11-04_09h05.51.782,vts_reward_expectancy_bt_OFFLINE,2022.2.4,59.94947111
0,0,0,1,1,0,0,0,star,triangle,0,0,0,0,3,5,41,9,,,,,,,,,,,,,,,,,,,,,,,,,,,,,,,,,,,,,,,,170.9874738,170.9874738,170.9874738,170.9874738,170.9874738,170.9874738,170.9874738,170.9874738,170.9874738,170.9874738,a,0.423292256,10,204,0,171.4379565,172.9392688,,,,,,,,,,,,,,,,,,,,,,,,,,,,,,,,,,,,,,,,,,,,,,,,,,,,,,,,,,,,,,,,,,,,,69140_2,2022-11-04_09h05.51.782,vts_reward_expectancy_bt_OFFLINE,2022.2.4,59.94947111
0,0,1,0,0,0,0,1,hexagon,star,0,0,0,0,3,6,42,8,,,,,,,,,,,,,,,,,,,,,,,,,,,,,,,,,,,,,,,,173.4401107,173.4401107,173.4401107,173.4401107,173.4401107,173.4401107,173.4401107,173.4401107,173.4401107,173.4401107,a,0.456995603,10,214,0,173.9242086,175.4257996,,,,,,,,,,,,,,,,,,,,,,,,,,,,,,,,,,,,,,,,,,,,,,,,,,,,,,,,,,,,,,,,,,,,,69140_2,2022-11-04_09h05.51.782,vts_reward_expectancy_bt_OFFLINE,2022.2.4,59.94947111
0,0,0,1,0,0,1,0,star,hexagon,0,0,0,0,3,7,43,11,,,,,,,,,,,,,,,,,,,,,,,,,,,,,,,,,,,,,,,,175.9264198,175.9264198,175.9264198,175.9264198,175.9264198,175.9264198,175.9264198,175.9264198,175.9264198,175.9264198,a,0.310031855,10,224,0,176.2601082,177.7617172,,,,,,,,,,,,,,,,,,,,,,,,,,,,,,,,,,,,,,,,,,,,,,,,,,,,,,,,,,,,,,,,,,,,,69140_2,2022-11-04_09h05.51.782,vts_reward_expectancy_bt_OFFLINE,2022.2.4,59.94947111
0,0,1,0,0,1,0,0,hexagon,circle,0,0,0,0,3,8,44,7,,,,,,,,,,,,,,,,,,,,,,,,,,,,,,,,,,,,,,,,178.2622036,178.2622036,178.2622036,178.2622036,178.2622036,178.2622036,178.2622036,178.2622036,178.2622036,178.2622036,l,0.29082105,10,234,0,178.5791086,180.0811249,,,,,,,,,,,,,,,,,,,,,,,,,,,,,,,,,,,,,,,,,,,,,,,,,,,,,,,,,,,,,,,,,,,,,69140_2,2022-11-04_09h05.51.782,vts_reward_expectancy_bt_OFFLINE,2022.2.4,59.94947111
0,0,1,0,1,0,0,0,hexagon,triangle,0,0,0,0,3,9,45,6,,,,,,,,,,,,,,,,,,,,,,,,,,,,,,,,,,,,,,,,180.581511,180.581511,180.581511,180.581511,180.581511,180.581511,180.581511,180.581511,180.581511,180.581511,l,0.189004435,1,235,0,180.7982784,182.2998761,,,,,,,,,,,,,,,,,,,,,,,,,,,,,,,,,,,,,,,,,,,,,,,,,,,,,,,,,,,,,,,,,,,,,69140_2,2022-11-04_09h05.51.782,vts_reward_expectancy_bt_OFFLINE,2022.2.4,59.94947111
1,0,0,0,0,0,0,1,triangle,star,0,0,0,0,3,10,46,2,,,,,,,,,,,,,,,,,,,,,,,,,,,,,,,,,,,,,,,,182.8005123,182.8005123,182.8005123,182.8005123,182.8005123,182.8005123,182.8005123,182.8005123,182.8005123,182.8005123,a,0.28731908,1,236,0,183.1176832,184.6194066,,,,,,,,,,,,,,,,,,,,,,,,,,,,,,,,,,,,,,,,,,,,,,,,,,,,,,,,,,,,,,,,,,,,,69140_2,2022-11-04_09h05.51.782,vts_reward_expectancy_bt_OFFLINE,2022.2.4,59.94947111
0,0,0,1,0,1,0,0,star ,circle,0,0,0,0,3,11,47,10,,,,,,,,,,,,,,,,,,,,,,,,,,,,,,,,,,,,,,,,185.1197957,185.1197957,185.1197957,185.1197957,185.1197957,185.1197957,185.1197957,185.1197957,185.1197957,185.1197957,l,0.217551144,1,237,0,185.3700213,186.8716639,,,,,,,,,,,,,,,,,,,,,,,,,,,,,,,,,,,,,,,,,,,,,,,,,,,,,,,,,,,,,,,,,,,,,69140_2,2022-11-04_09h05.51.782,vts_reward_expectancy_bt_OFFLINE,2022.2.4,59.94947111
0,0,1,0,0,1,0,0,hexagon,circle,1,0,1,0,0,0,0,7,,,,,,,,,,,,,,,,,,,,,,,,,,,,,,,,,,,,,,,,193.1019962,193.1019962,193.1019962,193.1019962,193.1019962,193.1019962,193.1019962,193.1019962,193.1019962,193.1019962,a,1.067068233,10,247,1,194.1964005,195.6982607,,,,,,,,,,,,,,,,,,,,,,,,,,,,,,,,,,,,,,,,,,,,,,,,,,,,,,,,,,,,,,,,,,,,,69140_2,2022-11-04_09h05.51.782,vts_reward_expectancy_bt_OFFLINE,2022.2.4,59.94947111
0,1,0,0,1,0,0,0,circle,triangle,1,0,1,0,0,1,1,3,,,,,,,,,,,,,,,,,,,,,,,,,,,,,,,,,,,,,,,,196.1986631,196.1986631,196.1986631,196.1986631,196.1986631,196.1986631,196.1986631,196.1986631,196.1986631,196.1986631,l,0.659027859,10,257,1,196.8827231,198.3843694,,,,,,,,,,,,,,,,,,,,,,,,,,,,,,,,,,,,,,,,,,,,,,,,,,,,,,,,,,,,,,,,,,,,,69140_2,2022-11-04_09h05.51.782,vts_reward_expectancy_bt_OFFLINE,2022.2.4,59.94947111
1,0,0,0,0,0,1,0,triangle,hexagon,1,0,1,0,0,2,2,1,,,,,,,,,,,,,,,,,,,,,,,,,,,,,,,,,,,,,,,,198.8850761,198.8850761,198.8850761,198.8850761,198.8850761,198.8850761,198.8850761,198.8850761,198.8850761,198.8850761,l,0.402486338,1,258,1,199.3187245,200.82055,,,,,,,,,,,,,,,,,,,,,,,,,,,,,,,,,,,,,,,,,,,,,,,,,,,,,,,,,,,,,,,,,,,,,69140_2,2022-11-04_09h05.51.782,vts_reward_expectancy_bt_OFFLINE,2022.2.4,59.94947111
0,0,0,1,0,0,1,0,star,hexagon,1,0,1,0,0,3,3,11,,,,,,,,,,,,,,,,,,,,,,,,,,,,,,,,,,,,,,,,201.3210457,201.3210457,201.3210457,201.3210457,201.3210457,201.3210457,201.3210457,201.3210457,201.3210457,201.3210457,a,0.329441906,10,268,1,201.6712875,203.1729661,,,,,,,,,,,,,,,,,,,,,,,,,,,,,,,,,,,,,,,,,,,,,,,,,,,,,,,,,,,,,,,,,,,,,69140_2,2022-11-04_09h05.51.782,vts_reward_expectancy_bt_OFFLINE,2022.2.4,59.94947111
0,0,1,0,1,0,0,0,hexagon,triangle,1,0,1,0,0,4,4,6,,,,,,,,,,,,,,,,,,,,,,,,,,,,,,,,,,,,,,,,203.6736118,203.6736118,203.6736118,203.6736118,203.6736118,203.6736118,203.6736118,203.6736118,203.6736118,203.6736118,l,2.286768443,1,269,1,205.9928497,207.4945013,,,,,,,,,,,,,,,,,,,,,,,,,,,,,,,,,,,,,,,,,,,,,,,,,,,,,,,,,,,,,,,,,,,,,69140_2,2022-11-04_09h05.51.782,vts_reward_expectancy_bt_OFFLINE,2022.2.4,59.94947111
0,0,0,1,1,0,0,0,star,triangle,1,0,1,0,0,5,5,9,,,,,,,,,,,,,,,,,,,,,,,,,,,,,,,,,,,,,,,,207.994987,207.994987,207.994987,207.994987,207.994987,207.994987,207.994987,207.994987,207.994987,207.994987,a,1.113747259,10,279,1,209.1296423,210.6312057,,,,,,,,,,,,,,,,,,,,,,,,,,,,,,,,,,,,,,,,,,,,,,,,,,,,,,,,,,,,,,,,,,,,,69140_2,2022-11-04_09h05.51.782,vts_reward_expectancy_bt_OFFLINE,2022.2.4,59.94947111
0,1,0,0,0,0,0,1,circle,star,1,0,1,0,0,6,6,5,,,,,,,,,,,,,,,,,,,,,,,,,,,,,,,,,,,,,,,,211.1318598,211.1318598,211.1318598,211.1318598,211.1318598,211.1318598,211.1318598,211.1318598,211.1318598,211.1318598,l,9.55488726,10,289,1,220.708937,222.210618,,,,,,,,,,,,,,,,,,,,,,,,,,,,,,,,,,,,,,,,,,,,,,,,,,,,,,,,,,,,,,,,,,,,,69140_2,2022-11-04_09h05.51.782,vts_reward_expectancy_bt_OFFLINE,2022.2.4,59.94947111
0,1,0,0,0,0,1,0,circle,hexagon,1,0,1,0,0,7,7,4,,,,,,,,,,,,,,,,,,,,,,,,,,,,,,,,,,,,,,,,222.7111913,222.7111913,222.7111913,222.7111913,222.7111913,222.7111913,222.7111913,222.7111913,222.7111913,222.7111913,l,0.258164748,1,290,1,222.9948265,224.4965675,,,,,,,,,,,,,,,,,,,,,,,,,,,,,,,,,,,,,,,,,,,,,,,,,,,,,,,,,,,,,,,,,,,,,69140_2,2022-11-04_09h05.51.782,vts_reward_expectancy_bt_OFFLINE,2022.2.4,59.94947111
1,0,0,0,0,0,0,1,triangle,star,1,0,1,0,0,8,8,2,,,,,,,,,,,,,,,,,,,,,,,,,,,,,,,,,,,,,,,,224.9971409,224.9971409,224.9971409,224.9971409,224.9971409,224.9971409,224.9971409,224.9971409,224.9971409,224.9971409,a,0.414915164,10,300,1,225.4309815,226.9326133,,,,,,,,,,,,,,,,,,,,,,,,,,,,,,,,,,,,,,,,,,,,,,,,,,,,,,,,,,,,,,,,,,,,,69140_2,2022-11-04_09h05.51.782,vts_reward_expectancy_bt_OFFLINE,2022.2.4,59.94947111
1,0,0,0,0,1,0,0,triangle,circle,1,0,1,0,0,9,9,0,,,,,,,,,,,,,,,,,,,,,,,,,,,,,,,,,,,,,,,,227.4331442,227.4331442,227.4331442,227.4331442,227.4331442,227.4331442,227.4331442,227.4331442,227.4331442,227.4331442,a,0.251020615,1,301,1,227.7169215,229.2185387,,,,,,,,,,,,,,,,,,,,,,,,,,,,,,,,,,,,,,,,,,,,,,,,,,,,,,,,,,,,,,,,,,,,,69140_2,2022-11-04_09h05.51.782,vts_reward_expectancy_bt_OFFLINE,2022.2.4,59.94947111
0,0,0,1,0,1,0,0,star ,circle,1,0,1,0,0,10,10,10,,,,,,,,,,,,,,,,,,,,,,,,,,,,,,,,,,,,,,,,229.7189793,229.7189793,229.7189793,229.7189793,229.7189793,229.7189793,229.7189793,229.7189793,229.7189793,229.7189793,a,0.215991272,1,302,1,229.9525468,231.4542094,,,,,,,,,,,,,,,,,,,,,,,,,,,,,,,,,,,,,,,,,,,,,,,,,,,,,,,,,,,,,,,,,,,,,69140_2,2022-11-04_09h05.51.782,vts_reward_expectancy_bt_OFFLINE,2022.2.4,59.94947111
0,0,1,0,0,0,0,1,hexagon,star,1,0,1,0,0,11,11,8,,,,,,,,,,,,,,,,,,,,,,,,,,,,,,,,,,,,,,,,231.9550258,231.9550258,231.9550258,231.9550258,231.9550258,231.9550258,231.9550258,231.9550258,231.9550258,231.9550258,l,0.239921222,10,312,1,232.2216744,233.7235021,,,,,,,,,,,,,,,,,,,,,,,,,,,,,,,,,,,,,,,,,,,,,,,,,,,,,,,,,,,,,,,,,,,,,69140_2,2022-11-04_09h05.51.782,vts_reward_expectancy_bt_OFFLINE,2022.2.4,59.94947111
0,0,0,1,0,1,0,0,star ,circle,1,0,1,0,1,0,12,10,,,,,,,,,,,,,,,,,,,,,,,,,,,,,,,,,,,,,,,,234.224077,234.224077,234.224077,234.224077,234.224077,234.224077,234.224077,234.224077,234.224077,234.224077,l,0.266956179,1,313,1,234.5077379,236.009397,,,,,,,,,,,,,,,,,,,,,,,,,,,,,,,,,,,,,,,,,,,,,,,,,,,,,,,,,,,,,,,,,,,,,69140_2,2022-11-04_09h05.51.782,vts_reward_expectancy_bt_OFFLINE,2022.2.4,59.94947111
0,1,0,0,1,0,0,0,circle,triangle,1,0,1,0,1,1,13,3,,,,,,,,,,,,,,,,,,,,,,,,,,,,,,,,,,,,,,,,236.5097287,236.5097287,236.5097287,236.5097287,236.5097287,236.5097287,236.5097287,236.5097287,236.5097287,236.5097287,l,0.25309957,10,323,1,236.7933065,238.2950944,,,,,,,,,,,,,,,,,,,,,,,,,,,,,,,,,,,,,,,,,,,,,,,,,,,,,,,,,,,,,,,,,,,,,69140_2,2022-11-04_09h05.51.782,vts_reward_expectancy_bt_OFFLINE,2022.2.4,59.94947111
0,0,1,0,0,0,0,1,hexagon,star,1,0,1,0,1,2,14,8,,,,,,,,,,,,,,,,,,,,,,,,,,,,,,,,,,,,,,,,238.7955991,238.7955991,238.7955991,238.7955991,238.7955991,238.7955991,238.7955991,238.7955991,238.7955991,238.7955991,a,0.747000081,1,324,1,239.5631028,241.0647104,,,,,,,,,,,,,,,,,,,,,,,,,,,,,,,,,,,,,,,,,,,,,,,,,,,,,,,,,,,,,,,,,,,,,69140_2,2022-11-04_09h05.51.782,vts_reward_expectancy_bt_OFFLINE,2022.2.4,59.94947111
0,0,0,1,0,0,1,0,star,hexagon,1,0,1,0,1,3,15,11,,,,,,,,,,,,,,,,,,,,,,,,,,,,,,,,,,,,,,,,241.5654722,241.5654722,241.5654722,241.5654722,241.5654722,241.5654722,241.5654722,241.5654722,241.5654722,241.5654722,l,0.283468513,10,334,1,241.8656175,243.3674395,,,,,,,,,,,,,,,,,,,,,,,,,,,,,,,,,,,,,,,,,,,,,,,,,,,,,,,,,,,,,,,,,,,,,69140_2,2022-11-04_09h05.51.782,vts_reward_expectancy_bt_OFFLINE,2022.2.4,59.94947111
0,0,0,1,1,0,0,0,star,triangle,1,0,1,0,1,4,16,9,,,,,,,,,,,,,,,,,,,,,,,,,,,,,,,,,,,,,,,,243.8677897,243.8677897,243.8677897,243.8677897,243.8677897,243.8677897,243.8677897,243.8677897,243.8677897,243.8677897,a,0.387848883,10,344,1,244.2850202,245.7867111,,,,,,,,,,,,,,,,,,,,,,,,,,,,,,,,,,,,,,,,,,,,,,,,,,,,,,,,,,,,,,,,,,,,,69140_2,2022-11-04_09h05.51.782,vts_reward_expectancy_bt_OFFLINE,2022.2.4,59.94947111
0,1,0,0,0,0,1,0,circle,hexagon,1,0,1,0,1,5,17,4,,,,,,,,,,,,,,,,,,,,,,,,,,,,,,,,,,,,,,,,246.287353,246.287353,246.287353,246.287353,246.287353,246.287353,246.287353,246.287353,246.287353,246.287353,a,0.52352003,10,354,1,246.8380246,248.33955,,,,,,,,,,,,,,,,,,,,,,,,,,,,,,,,,,,,,,,,,,,,,,,,,,,,,,,,,,,,,,,,,,,,,69140_2,2022-11-04_09h05.51.782,vts_reward_expectancy_bt_OFFLINE,2022.2.4,59.94947111
0,1,0,0,0,0,0,1,circle,star,1,0,1,0,1,6,18,5,,,,,,,,,,,,,,,,,,,,,,,,,,,,,,,,,,,,,,,,248.8401607,248.8401607,248.8401607,248.8401607,248.8401607,248.8401607,248.8401607,248.8401607,248.8401607,248.8401607,l,0.275948756,1,355,1,249.1404634,250.6420784,,,,,,,,,,,,,,,,,,,,,,,,,,,,,,,,,,,,,,,,,,,,,,,,,,,,,,,,,,,,,,,,,,,,,69140_2,2022-11-04_09h05.51.782,vts_reward_expectancy_bt_OFFLINE,2022.2.4,59.94947111
1,0,0,0,0,1,0,0,triangle,circle,1,0,1,0,1,7,19,0,,,,,,,,,,,,,,,,,,,,,,,,,,,,,,,,,,,,,,,,251.142664,251.142664,251.142664,251.142664,251.142664,251.142664,251.142664,251.142664,251.142664,251.142664,l,0.245914441,10,365,1,251.4095574,252.9112555,,,,,,,,,,,,,,,,,,,,,,,,,,,,,,,,,,,,,,,,,,,,,,,,,,,,,,,,,,,,,,,,,,,,,69140_2,2022-11-04_09h05.51.782,vts_reward_expectancy_bt_OFFLINE,2022.2.4,59.94947111
0,0,1,0,1,0,0,0,hexagon,triangle,1,0,1,0,1,8,20,6,,,,,,,,,,,,,,,,,,,,,,,,,,,,,,,,,,,,,,,,253.4117547,253.4117547,253.4117547,253.4117547,253.4117547,253.4117547,253.4117547,253.4117547,253.4117547,253.4117547,a,0.23725327,1,366,1,253.6787318,255.1803122,,,,,,,,,,,,,,,,,,,,,,,,,,,,,,,,,,,,,,,,,,,,,,,,,,,,,,,,,,,,,,,,,,,,,69140_2,2022-11-04_09h05.51.782,vts_reward_expectancy_bt_OFFLINE,2022.2.4,59.94947111
0,0,1,0,0,1,0,0,hexagon,circle,1,0,1,0,1,9,21,7,,,,,,,,,,,,,,,,,,,,,,,,,,,,,,,,,,,,,,,,255.680958,255.680958,255.680958,255.680958,255.680958,255.680958,255.680958,255.680958,255.680958,255.680958,l,0.30828464,10,376,1,256.014796,257.5162661,,,,,,,,,,,,,,,,,,,,,,,,,,,,,,,,,,,,,,,,,,,,,,,,,,,,,,,,,,,,,,,,,,,,,69140_2,2022-11-04_09h05.51.782,vts_reward_expectancy_bt_OFFLINE,2022.2.4,59.94947111
1,0,0,0,0,0,0,1,triangle,star,1,0,1,0,1,10,22,2,,,,,,,,,,,,,,,,,,,,,,,,,,,,,,,,,,,,,,,,258.0167649,258.0167649,258.0167649,258.0167649,258.0167649,258.0167649,258.0167649,258.0167649,258.0167649,258.0167649,l,0.268023056,1,377,1,258.3171863,259.8188213,,,,,,,,,,,,,,,,,,,,,,,,,,,,,,,,,,,,,,,,,,,,,,,,,,,,,,,,,,,,,,,,,,,,,69140_2,2022-11-04_09h05.51.782,vts_reward_expectancy_bt_OFFLINE,2022.2.4,59.94947111
1,0,0,0,0,0,1,0,triangle,hexagon,1,0,1,0,1,11,23,1,,,,,,,,,,,,,,,,,,,,,,,,,,,,,,,,,,,,,,,,260.3194603,260.3194603,260.3194603,260.3194603,260.3194603,260.3194603,260.3194603,260.3194603,260.3194603,260.3194603,a,0.306333633,1,378,1,260.6529727,262.1546988,,,,,,,,,,,,,,,,,,,,,,,,,,,,,,,,,,,,,,,,,,,,,,,,,,,,,,,,,,,,,,,,,,,,,69140_2,2022-11-04_09h05.51.782,vts_reward_expectancy_bt_OFFLINE,2022.2.4,59.94947111
0,0,0,1,0,0,1,0,star,hexagon,1,0,1,0,2,0,24,11,,,,,,,,,,,,,,,,,,,,,,,,,,,,,,,,,,,,,,,,262.6553113,262.6553113,262.6553113,262.6553113,262.6553113,262.6553113,262.6553113,262.6553113,262.6553113,262.6553113,l,0.299739556,10,388,1,262.9723297,264.4737833,,,,,,,,,,,,,,,,,,,,,,,,,,,,,,,,,,,,,,,,,,,,,,,,,,,,,,,,,,,,,,,,,,,,,69140_2,2022-11-04_09h05.51.782,vts_reward_expectancy_bt_OFFLINE,2022.2.4,59.94947111
0,1,0,0,1,0,0,0,circle,triangle,1,0,1,0,2,1,25,3,,,,,,,,,,,,,,,,,,,,,,,,,,,,,,,,,,,,,,,,264.9747049,264.9747049,264.9747049,264.9747049,264.9747049,264.9747049,264.9747049,264.9747049,264.9747049,264.9747049,l,0.2846614,1,389,1,265.291424,266.7931453,,,,,,,,,,,,,,,,,,,,,,,,,,,,,,,,,,,,,,,,,,,,,,,,,,,,,,,,,,,,,,,,,,,,,69140_2,2022-11-04_09h05.51.782,vts_reward_expectancy_bt_OFFLINE,2022.2.4,59.94947111
0,0,1,0,0,0,0,1,hexagon,star,1,0,1,0,2,2,26,8,,,,,,,,,,,,,,,,,,,,,,,,,,,,,,,,,,,,,,,,267.2936743,267.2936743,267.2936743,267.2936743,267.2936743,267.2936743,267.2936743,267.2936743,267.2936743,267.2936743,a,0.4238246,10,399,1,267.744084,269.2457949,,,,,,,,,,,,,,,,,,,,,,,,,,,,,,,,,,,,,,,,,,,,,,,,,,,,,,,,,,,,,,,,,,,,,69140_2,2022-11-04_09h05.51.782,vts_reward_expectancy_bt_OFFLINE,2022.2.4,59.94947111
0,0,1,0,0,1,0,0,hexagon,circle,1,0,1,0,2,3,27,7,,,,,,,,,,,,,,,,,,,,,,,,,,,,,,,,,,,,,,,,269.7454865,269.7454865,269.7454865,269.7454865,269.7454865,269.7454865,269.7454865,269.7454865,269.7454865,269.7454865,a,0.408305915,10,409,1,270.1803959,271.6820334,,,,,,,,,,,,,,,,,,,,,,,,,,,,,,,,,,,,,,,,,,,,,,,,,,,,,,,,,,,,,,,,,,,,,69140_2,2022-11-04_09h05.51.782,vts_reward_expectancy_bt_OFFLINE,2022.2.4,59.94947111
1,0,0,0,0,1,0,0,triangle,circle,1,0,1,0,2,4,28,0,,,,,,,,,,,,,,,,,,,,,,,,,,,,,,,,,,,,,,,,272.1823709,272.1823709,272.1823709,272.1823709,272.1823709,272.1823709,272.1823709,272.1823709,272.1823709,272.1823709,l,0.390769834,1,410,1,272.59962,274.1012106,,,,,,,,,,,,,,,,,,,,,,,,,,,,,,,,,,,,,,,,,,,,,,,,,,,,,,,,,,,,,,,,,,,,,69140_2,2022-11-04_09h05.51.782,vts_reward_expectancy_bt_OFFLINE,2022.2.4,59.94947111
1,0,0,0,0,0,0,1,triangle,star,1,0,1,0,2,5,29,2,,,,,,,,,,,,,,,,,,,,,,,,,,,,,,,,,,,,,,,,274.6017951,274.6017951,274.6017951,274.6017951,274.6017951,274.6017951,274.6017951,274.6017951,274.6017951,274.6017951,a,0.287882946,1,411,1,274.918859,276.4205458,,,,,,,,,,,,,,,,,,,,,,,,,,,,,,,,,,,,,,,,,,,,,,,,,,,,,,,,,,,,,,,,,,,,,69140_2,2022-11-04_09h05.51.782,vts_reward_expectancy_bt_OFFLINE,2022.2.4,59.94947111
1,0,0,0,0,0,1,0,triangle,hexagon,1,0,1,0,2,6,30,1,,,,,,,,,,,,,,,,,,,,,,,,,,,,,,,,,,,,,,,,276.9210459,276.9210459,276.9210459,276.9210459,276.9210459,276.9210459,276.9210459,276.9210459,276.9210459,276.9210459,a,0.308370478,1,412,1,277.2546492,278.7564757,,,,,,,,,,,,,,,,,,,,,,,,,,,,,,,,,,,,,,,,,,,,,,,,,,,,,,,,,,,,,,,,,,,,,69140_2,2022-11-04_09h05.51.782,vts_reward_expectancy_bt_OFFLINE,2022.2.4,59.94947111
0,0,1,0,1,0,0,0,hexagon,triangle,1,0,1,0,2,7,31,6,,,,,,,,,,,,,,,,,,,,,,,,,,,,,,,,,,,,,,,,279.2570183,279.2570183,279.2570183,279.2570183,279.2570183,279.2570183,279.2570183,279.2570183,279.2570183,279.2570183,a,0.448986389,1,413,1,279.7240924,281.2258436,,,,,,,,,,,,,,,,,,,,,,,,,,,,,,,,,,,,,,,,,,,,,,,,,,,,,,,,,,,,,,,,,,,,,69140_2,2022-11-04_09h05.51.782,vts_reward_expectancy_bt_OFFLINE,2022.2.4,59.94947111
0,0,0,1,1,0,0,0,star,triangle,1,0,1,0,2,8,32,9,,,,,,,,,,,,,,,,,,,,,,,,,,,,,,,,,,,,,,,,281.7263764,281.7263764,281.7263764,281.7263764,281.7263764,281.7263764,281.7263764,281.7263764,281.7263764,281.7263764,a,0.07050883,1,414,1,281.826362,283.3281489,,,,,,,,,,,,,,,,,,,,,,,,,,,,,,,,,,,,,,,,,,,,,,,,,,,,,,,,,,,,,,,,,,,,,69140_2,2022-11-04_09h05.51.782,vts_reward_expectancy_bt_OFFLINE,2022.2.4,59.94947111
0,0,0,1,0,1,0,0,star ,circle,1,0,1,0,2,9,33,10,,,,,,,,,,,,,,,,,,,,,,,,,,,,,,,,,,,,,,,,283.8285266,283.8285266,283.8285266,283.8285266,283.8285266,283.8285266,283.8285266,283.8285266,283.8285266,283.8285266,a,0.219840203,1,415,1,284.078876,285.5806581,,,,,,,,,,,,,,,,,,,,,,,,,,,,,,,,,,,,,,,,,,,,,,,,,,,,,,,,,,,,,,,,,,,,,69140_2,2022-11-04_09h05.51.782,vts_reward_expectancy_bt_OFFLINE,2022.2.4,59.94947111
0,1,0,0,0,0,0,1,circle,star,1,0,1,0,2,10,34,5,,,,,,,,,,,,,,,,,,,,,,,,,,,,,,,,,,,,,,,,286.0811781,286.0811781,286.0811781,286.0811781,286.0811781,286.0811781,286.0811781,286.0811781,286.0811781,286.0811781,l,0.217179294,1,416,1,286.3148226,287.8164137,,,,,,,,,,,,,,,,,,,,,,,,,,,,,,,,,,,,,,,,,,,,,,,,,,,,,,,,,,,,,,,,,,,,,69140_2,2022-11-04_09h05.51.782,vts_reward_expectancy_bt_OFFLINE,2022.2.4,59.94947111
0,1,0,0,0,0,1,0,circle,hexagon,1,0,1,0,2,11,35,4,,,,,,,,,,,,,,,,,,,,,,,,,,,,,,,,,,,,,,,,288.3170642,288.3170642,288.3170642,288.3170642,288.3170642,288.3170642,288.3170642,288.3170642,288.3170642,288.3170642,a,0.265554132,1,417,1,288.6006137,290.1022551,,,,,,,,,,,,,,,,,,,,,,,,,,,,,,,,,,,,,,,,,,,,,,,,,,,,,,,,,,,,,,,,,,,,,69140_2,2022-11-04_09h05.51.782,vts_reward_expectancy_bt_OFFLINE,2022.2.4,59.94947111
0,0,1,0,0,1,0,0,hexagon,circle,1,0,1,0,3,0,36,7,,,,,,,,,,,,,,,,,,,,,,,,,,,,,,,,,,,,,,,,290.6027698,290.6027698,290.6027698,290.6027698,290.6027698,290.6027698,290.6027698,290.6027698,290.6027698,290.6027698,l,0.229328915,10,427,1,290.8531526,292.3547448,,,,,,,,,,,,,,,,,,,,,,,,,,,,,,,,,,,,,,,,,,,,,,,,,,,,,,,,,,,,,,,,,,,,,69140_2,2022-11-04_09h05.51.782,vts_reward_expectancy_bt_OFFLINE,2022.2.4,59.94947111
0,1,0,0,1,0,0,0,circle,triangle,1,0,1,0,3,1,37,3,,,,,,,,,,,,,,,,,,,,,,,,,,,,,,,,,,,,,,,,292.8552212,292.8552212,292.8552212,292.8552212,292.8552212,292.8552212,292.8552212,292.8552212,292.8552212,292.8552212,l,0.306459674,1,428,1,293.1890058,294.6906893,,,,,,,,,,,,,,,,,,,,,,,,,,,,,,,,,,,,,,,,,,,,,,,,,,,,,,,,,,,,,,,,,,,,,69140_2,2022-11-04_09h05.51.782,vts_reward_expectancy_bt_OFFLINE,2022.2.4,59.94947111
0,0,0,1,0,0,1,0,star,hexagon,1,0,1,0,3,2,38,11,,,,,,,,,,,,,,,,,,,,,,,,,,,,,,,,,,,,,,,,295.1911145,295.1911145,295.1911145,295.1911145,295.1911145,295.1911145,295.1911145,295.1911145,295.1911145,295.1911145,l,0.197274377,1,429,1,295.4081432,296.9096457,,,,,,,,,,,,,,,,,,,,,,,,,,,,,,,,,,,,,,,,,,,,,,,,,,,,,,,,,,,,,,,,,,,,,69140_2,2022-11-04_09h05.51.782,vts_reward_expectancy_bt_OFFLINE,2022.2.4,59.94947111
1,0,0,0,0,0,0,1,triangle,star,1,0,1,0,3,3,39,2,,,,,,,,,,,,,,,,,,,,,,,,,,,,,,,,,,,,,,,,297.4103538,297.4103538,297.4103538,297.4103538,297.4103538,297.4103538,297.4103538,297.4103538,297.4103538,297.4103538,a,0.20620312,1,430,1,297.6439128,299.1455611,,,,,,,,,,,,,,,,,,,,,,,,,,,,,,,,,,,,,,,,,,,,,,,,,,,,,,,,,,,,,,,,,,,,,69140_2,2022-11-04_09h05.51.782,vts_reward_expectancy_bt_OFFLINE,2022.2.4,59.94947111
1,0,0,0,0,1,0,0,triangle,circle,1,0,1,0,3,4,40,0,,,,,,,,,,,,,,,,,,,,,,,,,,,,,,,,,,,,,,,,299.6461051,299.6461051,299.6461051,299.6461051,299.6461051,299.6461051,299.6461051,299.6461051,299.6461051,299.6461051,l,0.252345449,1,431,1,299.9297071,301.431455,,,,,,,,,,,,,,,,,,,,,,,,,,,,,,,,,,,,,,,,,,,,,,,,,,,,,,,,,,,,,,,,,,,,,69140_2,2022-11-04_09h05.51.782,vts_reward_expectancy_bt_OFFLINE,2022.2.4,59.94947111
0,0,0,1,1,0,0,0,star,triangle,1,0,1,0,3,5,41,9,,,,,,,,,,,,,,,,,,,,,,,,,,,,,,,,,,,,,,,,301.9321568,301.9321568,301.9321568,301.9321568,301.9321568,301.9321568,301.9321568,301.9321568,301.9321568,301.9321568,l,0.284889993,1,432,1,302.2492328,303.7505859,,,,,,,,,,,,,,,,,,,,,,,,,,,,,,,,,,,,,,,,,,,,,,,,,,,,,,,,,,,,,,,,,,,,,69140_2,2022-11-04_09h05.51.782,vts_reward_expectancy_bt_OFFLINE,2022.2.4,59.94947111
1,0,0,0,0,0,1,0,triangle,hexagon,1,0,1,0,3,6,42,1,,,,,,,,,,,,,,,,,,,,,,,,,,,,,,,,,,,,,,,,304.2512751,304.2512751,304.2512751,304.2512751,304.2512751,304.2512751,304.2512751,304.2512751,304.2512751,304.2512751,a,0.23866937,10,442,1,304.5182517,306.0196897,,,,,,,,,,,,,,,,,,,,,,,,,,,,,,,,,,,,,,,,,,,,,,,,,,,,,,,,,,,,,,,,,,,,,69140_2,2022-11-04_09h05.51.782,vts_reward_expectancy_bt_OFFLINE,2022.2.4,59.94947111
0,0,0,1,0,1,0,0,star ,circle,1,0,1,0,3,7,43,10,,,,,,,,,,,,,,,,,,,,,,,,,,,,,,,,,,,,,,,,306.5202207,306.5202207,306.5202207,306.5202207,306.5202207,306.5202207,306.5202207,306.5202207,306.5202207,306.5202207,a,0.286613227,10,452,1,306.8371678,308.3386118,,,,,,,,,,,,,,,,,,,,,,,,,,,,,,,,,,,,,,,,,,,,,,,,,,,,,,,,,,,,,,,,,,,,,69140_2,2022-11-04_09h05.51.782,vts_reward_expectancy_bt_OFFLINE,2022.2.4,59.94947111
0,0,1,0,0,0,0,1,hexagon,star,1,0,1,0,3,8,44,8,,,,,,,,,,,,,,,,,,,,,,,,,,,,,,,,,,,,,,,,308.8394035,308.8394035,308.8394035,308.8394035,308.8394035,308.8394035,308.8394035,308.8394035,308.8394035,308.8394035,a,0.273683231,10,462,1,309.1398653,310.6415155,,,,,,,,,,,,,,,,,,,,,,,,,,,,,,,,,,,,,,,,,,,,,,,,,,,,,,,,,,,,,,,,,,,,,69140_2,2022-11-04_09h05.51.782,vts_reward_expectancy_bt_OFFLINE,2022.2.4,59.94947111
0,0,1,0,1,0,0,0,hexagon,triangle,1,0,1,0,3,9,45,6,,,,,,,,,,,,,,,,,,,,,,,,,,,,,,,,,,,,,,,,311.1431595,311.1431595,311.1431595,311.1431595,311.1431595,311.1431595,311.1431595,311.1431595,311.1431595,311.1431595,a,0.289229897,10,472,1,311.4592733,312.960781,,,,,,,,,,,,,,,,,,,,,,,,,,,,,,,,,,,,,,,,,,,,,,,,,,,,,,,,,,,,,,,,,,,,,69140_2,2022-11-04_09h05.51.782,vts_reward_expectancy_bt_OFFLINE,2022.2.4,59.94947111
0,1,0,0,0,0,0,1,circle,star,1,0,1,0,3,10,46,5,,,,,,,,,,,,,,,,,,,,,,,,,,,,,,,,,,,,,,,,313.4613482,313.4613482,313.4613482,313.4613482,313.4613482,313.4613482,313.4613482,313.4613482,313.4613482,313.4613482,a,0.252863609,10,482,1,313.7450751,315.2465132,,,,,,,,,,,,,,,,,,,,,,,,,,,,,,,,,,,,,,,,,,,,,,,,,,,,,,,,,,,,,,,,,,,,,69140_2,2022-11-04_09h05.51.782,vts_reward_expectancy_bt_OFFLINE,2022.2.4,59.94947111
0,1,0,0,0,0,1,0,circle,hexagon,1,0,1,0,3,11,47,4,,,,,,,,,,,,,,,,,,,,,,,,,,,,,,,,,,,,,,,,315.7470002,315.7470002,315.7470002,315.7470002,315.7470002,315.7470002,315.7470002,315.7470002,315.7470002,315.7470002,a,0.049549307,1,483,1,315.8138378,317.315406,,,,,,,,,,,,,,,,,,,,,,,,,,,,,,,,,,,,,,,,,,,,,,,,,,,,,,,,,,,,,,,,,,,,,69140_2,2022-11-04_09h05.51.782,vts_reward_expectancy_bt_OFFLINE,2022.2.4,59.94947111
1,0,0,0,0,0,0,1,triangle,star,2,0,2,0,0,0,0,2,,,,,,,,,,,,,,,,,,,,,,,,,,,,,,,,,,,,,,,,323.4785896,323.4785896,323.4785896,323.4785896,323.4785896,323.4785896,323.4785896,323.4785896,323.4785896,323.4785896,a,0.945847099,10,493,2,324.4567067,325.9583216,,,,,,,,,,,,,,,,,,,,,,,,,,,,,,,,,,,,,,,,,,,,,,,,,,,,,,,,,,,,,,,,,,,,,69140_2,2022-11-04_09h05.51.782,vts_reward_expectancy_bt_OFFLINE,2022.2.4,59.94947111
0,0,1,0,0,0,0,1,hexagon,star,2,0,2,0,0,1,1,8,,,,,,,,,,,,,,,,,,,,,,,,,,,,,,,,,,,,,,,,326.4589686,326.4589686,326.4589686,326.4589686,326.4589686,326.4589686,326.4589686,326.4589686,326.4589686,326.4589686,l,0.251211965,1,494,2,326.7424629,328.2440954,,,,,,,,,,,,,,,,,,,,,,,,,,,,,,,,,,,,,,,,,,,,,,,,,,,,,,,,,,,,,,,,,,,,,69140_2,2022-11-04_09h05.51.782,vts_reward_expectancy_bt_OFFLINE,2022.2.4,59.94947111
1,0,0,0,0,0,1,0,triangle,hexagon,2,0,2,0,0,2,2,1,,,,,,,,,,,,,,,,,,,,,,,,,,,,,,,,,,,,,,,,328.7447195,328.7447195,328.7447195,328.7447195,328.7447195,328.7447195,328.7447195,328.7447195,328.7447195,328.7447195,a,0.270353468,1,495,2,329.0450559,330.5468926,,,,,,,,,,,,,,,,,,,,,,,,,,,,,,,,,,,,,,,,,,,,,,,,,,,,,,,,,,,,,,,,,,,,,69140_2,2022-11-04_09h05.51.782,vts_reward_expectancy_bt_OFFLINE,2022.2.4,59.94947111
1,0,0,0,0,1,0,0,triangle,circle,2,0,2,0,0,3,3,0,,,,,,,,,,,,,,,,,,,,,,,,,,,,,,,,,,,,,,,,331.04749,331.04749,331.04749,331.04749,331.04749,331.04749,331.04749,331.04749,331.04749,331.04749,l,0.016863593,1,496,2,331.0808919,332.5824439,,,,,,,,,,,,,,,,,,,,,,,,,,,,,,,,,,,,,,,,,,,,,,,,,,,,,,,,,,,,,,,,,,,,,69140_2,2022-11-04_09h05.51.782,vts_reward_expectancy_bt_OFFLINE,2022.2.4,59.94947111
0,1,0,0,1,0,0,0,circle,triangle,2,0,2,0,0,4,4,3,,,,,,,,,,,,,,,,,,,,,,,,,,,,,,,,,,,,,,,,333.0829435,333.0829435,333.0829435,333.0829435,333.0829435,333.0829435,333.0829435,333.0829435,333.0829435,333.0829435,l,0.285711349,10,506,2,333.399983,334.9017394,,,,,,,,,,,,,,,,,,,,,,,,,,,,,,,,,,,,,,,,,,,,,,,,,,,,,,,,,,,,,,,,,,,,,69140_2,2022-11-04_09h05.51.782,vts_reward_expectancy_bt_OFFLINE,2022.2.4,59.94947111
0,0,0,1,0,1,0,0,star ,circle,2,0,2,0,0,5,5,10,,,,,,,,,,,,,,,,,,,,,,,,,,,,,,,,,,,,,,,,335.4022275,335.4022275,335.4022275,335.4022275,335.4022275,335.4022275,335.4022275,335.4022275,335.4022275,335.4022275,l,0.340243561,1,507,2,335.7693274,337.2708776,,,,,,,,,,,,,,,,,,,,,,,,,,,,,,,,,,,,,,,,,,,,,,,,,,,,,,,,,,,,,,,,,,,,,69140_2,2022-11-04_09h05.51.782,vts_reward_expectancy_bt_OFFLINE,2022.2.4,59.94947111
0,0,1,0,1,0,0,0,hexagon,triangle,2,0,2,0,0,6,6,6,,,,,,,,,,,,,,,,,,,,,,,,,,,,,,,,,,,,,,,,337.7715436,337.7715436,337.7715436,337.7715436,337.7715436,337.7715436,337.7715436,337.7715436,337.7715436,337.7715436,a,0.244137401,1,508,2,338.038433,339.5401401,,,,,,,,,,,,,,,,,,,,,,,,,,,,,,,,,,,,,,,,,,,,,,,,,,,,,,,,,,,,,,,,,,,,,69140_2,2022-11-04_09h05.51.782,vts_reward_expectancy_bt_OFFLINE,2022.2.4,59.94947111
0,1,0,0,0,0,1,0,circle,hexagon,2,0,2,0,0,7,7,4,,,,,,,,,,,,,,,,,,,,,,,,,,,,,,,,,,,,,,,,340.0406247,340.0406247,340.0406247,340.0406247,340.0406247,340.0406247,340.0406247,340.0406247,340.0406247,340.0406247,l,0.518143118,1,509,2,340.5912407,342.092924,,,,,,,,,,,,,,,,,,,,,,,,,,,,,,,,,,,,,,,,,,,,,,,,,,,,,,,,,,,,,,,,,,,,,69140_2,2022-11-04_09h05.51.782,vts_reward_expectancy_bt_OFFLINE,2022.2.4,59.94947111
0,1,0,0,0,0,0,1,circle,star,2,0,2,0,0,8,8,5,,,,,,,,,,,,,,,,,,,,,,,,,,,,,,,,,,,,,,,,342.5933197,342.5933197,342.5933197,342.5933197,342.5933197,342.5933197,342.5933197,342.5933197,342.5933197,342.5933197,a,0.204407742,1,510,2,342.827108,344.3287567,,,,,,,,,,,,,,,,,,,,,,,,,,,,,,,,,,,,,,,,,,,,,,,,,,,,,,,,,,,,,,,,,,,,,69140_2,2022-11-04_09h05.51.782,vts_reward_expectancy_bt_OFFLINE,2022.2.4,59.94947111
0,0,0,1,1,0,0,0,star,triangle,2,0,2,0,0,9,9,9,,,,,,,,,,,,,,,,,,,,,,,,,,,,,,,,,,,,,,,,344.8291949,344.8291949,344.8291949,344.8291949,344.8291949,344.8291949,344.8291949,344.8291949,344.8291949,344.8291949,a,0.150330153,1,511,2,344.9960961,346.4978764,,,,,,,,,,,,,,,,,,,,,,,,,,,,,,,,,,,,,,,,,,,,,,,,,,,,,,,,,,,,,,,,,,,,,69140_2,2022-11-04_09h05.51.782,vts_reward_expectancy_bt_OFFLINE,2022.2.4,59.94947111
0,0,1,0,0,1,0,0,hexagon,circle,2,0,2,0,0,10,10,7,,,,,,,,,,,,,,,,,,,,,,,,,,,,,,,,,,,,,,,,346.9982865,346.9982865,346.9982865,346.9982865,346.9982865,346.9982865,346.9982865,346.9982865,346.9982865,346.9982865,a,0.23314965,10,521,2,347.2487556,348.7504099,,,,,,,,,,,,,,,,,,,,,,,,,,,,,,,,,,,,,,,,,,,,,,,,,,,,,,,,,,,,,,,,,,,,,69140_2,2022-11-04_09h05.51.782,vts_reward_expectancy_bt_OFFLINE,2022.2.4,59.94947111
0,0,0,1,0,0,1,0,star,hexagon,2,0,2,0,0,11,11,11,,,,,,,,,,,,,,,,,,,,,,,,,,,,,,,,,,,,,,,,349.2508731,349.2508731,349.2508731,349.2508731,349.2508731,349.2508731,349.2508731,349.2508731,349.2508731,349.2508731,l,0.296563431,10,531,2,349.567674,351.0693588,,,,,,,,,,,,,,,,,,,,,,,,,,,,,,,,,,,,,,,,,,,,,,,,,,,,,,,,,,,,,,,,,,,,,69140_2,2022-11-04_09h05.51.782,vts_reward_expectancy_bt_OFFLINE,2022.2.4,59.94947111
0,0,0,1,1,0,0,0,star,triangle,2,0,2,0,1,0,12,9,,,,,,,,,,,,,,,,,,,,,,,,,,,,,,,,,,,,,,,,351.5699792,351.5699792,351.5699792,351.5699792,351.5699792,351.5699792,351.5699792,351.5699792,351.5699792,351.5699792,l,0.216260815,1,532,2,351.8036667,353.3051688,,,,,,,,,,,,,,,,,,,,,,,,,,,,,,,,,,,,,,,,,,,,,,,,,,,,,,,,,,,,,,,,,,,,,69140_2,2022-11-04_09h05.51.782,vts_reward_expectancy_bt_OFFLINE,2022.2.4,59.94947111
0,0,1,0,0,1,0,0,hexagon,circle,2,0,2,0,1,1,13,7,,,,,,,,,,,,,,,,,,,,,,,,,,,,,,,,,,,,,,,,353.8057283,353.8057283,353.8057283,353.8057283,353.8057283,353.8057283,353.8057283,353.8057283,353.8057283,353.8057283,a,0.434150092,1,533,2,354.2728843,355.774514,,,,,,,,,,,,,,,,,,,,,,,,,,,,,,,,,,,,,,,,,,,,,,,,,,,,,,,,,,,,,,,,,,,,,69140_2,2022-11-04_09h05.51.782,vts_reward_expectancy_bt_OFFLINE,2022.2.4,59.94947111
0,1,0,0,0,0,1,0,circle,hexagon,2,0,2,0,1,2,14,4,,,,,,,,,,,,,,,,,,,,,,,,,,,,,,,,,,,,,,,,356.2750652,356.2750652,356.2750652,356.2750652,356.2750652,356.2750652,356.2750652,356.2750652,356.2750652,356.2750652,a,0.112043604,1,534,2,356.4086703,357.9103447,,,,,,,,,,,,,,,,,,,,,,,,,,,,,,,,,,,,,,,,,,,,,,,,,,,,,,,,,,,,,,,,,,,,,69140_2,2022-11-04_09h05.51.782,vts_reward_expectancy_bt_OFFLINE,2022.2.4,59.94947111
1,0,0,0,0,1,0,0,triangle,circle,2,0,2,0,1,3,15,0,,,,,,,,,,,,,,,,,,,,,,,,,,,,,,,,,,,,,,,,358.4109393,358.4109393,358.4109393,358.4109393,358.4109393,358.4109393,358.4109393,358.4109393,358.4109393,358.4109393,a,0.192567782,10,544,2,358.6277708,360.1296284,,,,,,,,,,,,,,,,,,,,,,,,,,,,,,,,,,,,,,,,,,,,,,,,,,,,,,,,,,,,,,,,,,,,,69140_2,2022-11-04_09h05.51.782,vts_reward_expectancy_bt_OFFLINE,2022.2.4,59.94947111
1,0,0,0,0,0,0,1,triangle,star,2,0,2,0,1,4,16,2,,,,,,,,,,,,,,,,,,,,,,,,,,,,,,,,,,,,,,,,360.630062,360.630062,360.630062,360.630062,360.630062,360.630062,360.630062,360.630062,360.630062,360.630062,a,0.369620904,1,545,2,361.0305315,362.5321984,,,,,,,,,,,,,,,,,,,,,,,,,,,,,,,,,,,,,,,,,,,,,,,,,,,,,,,,,,,,,,,,,,,,,69140_2,2022-11-04_09h05.51.782,vts_reward_expectancy_bt_OFFLINE,2022.2.4,59.94947111
0,1,0,0,0,0,0,1,circle,star,2,0,2,0,1,5,17,5,,,,,,,,,,,,,,,,,,,,,,,,,,,,,,,,,,,,,,,,363.0328219,363.0328219,363.0328219,363.0328219,363.0328219,363.0328219,363.0328219,363.0328219,363.0328219,363.0328219,l,0.250825267,10,555,2,363.316262,364.8179584,,,,,,,,,,,,,,,,,,,,,,,,,,,,,,,,,,,,,,,,,,,,,,,,,,,,,,,,,,,,,,,,,,,,,69140_2,2022-11-04_09h05.51.782,vts_reward_expectancy_bt_OFFLINE,2022.2.4,59.94947111
0,1,0,0,1,0,0,0,circle,triangle,2,0,2,0,1,6,18,3,,,,,,,,,,,,,,,,,,,,,,,,,,,,,,,,,,,,,,,,365.3186311,365.3186311,365.3186311,365.3186311,365.3186311,365.3186311,365.3186311,365.3186311,365.3186311,365.3186311,a,0.508489485,10,565,2,365.8525165,367.3540691,,,,,,,,,,,,,,,,,,,,,,,,,,,,,,,,,,,,,,,,,,,,,,,,,,,,,,,,,,,,,,,,,,,,,69140_2,2022-11-04_09h05.51.782,vts_reward_expectancy_bt_OFFLINE,2022.2.4,59.94947111
0,0,1,0,0,0,0,1,hexagon,star,2,0,2,0,1,7,19,8,,,,,,,,,,,,,,,,,,,,,,,,,,,,,,,,,,,,,,,,367.8547469,367.8547469,367.8547469,367.8547469,367.8547469,367.8547469,367.8547469,367.8547469,367.8547469,367.8547469,a,0.0747277,10,575,2,367.9547632,369.4564979,,,,,,,,,,,,,,,,,,,,,,,,,,,,,,,,,,,,,,,,,,,,,,,,,,,,,,,,,,,,,,,,,,,,,69140_2,2022-11-04_09h05.51.782,vts_reward_expectancy_bt_OFFLINE,2022.2.4,59.94947111
0,0,1,0,1,0,0,0,hexagon,triangle,2,0,2,0,1,8,20,6,,,,,,,,,,,,,,,,,,,,,,,,,,,,,,,,,,,,,,,,369.9570336,369.9570336,369.9570336,369.9570336,369.9570336,369.9570336,369.9570336,369.9570336,369.9570336,369.9570336,l,0.741286774,1,576,2,370.7246373,372.2262292,,,,,,,,,,,,,,,,,,,,,,,,,,,,,,,,,,,,,,,,,,,,,,,,,,,,,,,,,,,,,,,,,,,,,69140_2,2022-11-04_09h05.51.782,vts_reward_expectancy_bt_OFFLINE,2022.2.4,59.94947111
0,0,0,1,0,1,0,0,star ,circle,2,0,2,0,1,9,21,10,,,,,,,,,,,,,,,,,,,,,,,,,,,,,,,,,,,,,,,,372.7265841,372.7265841,372.7265841,372.7265841,372.7265841,372.7265841,372.7265841,372.7265841,372.7265841,372.7265841,a,0.862498986,1,577,2,373.6109539,375.1127614,,,,,,,,,,,,,,,,,,,,,,,,,,,,,,,,,,,,,,,,,,,,,,,,,,,,,,,,,,,,,,,,,,,,,69140_2,2022-11-04_09h05.51.782,vts_reward_expectancy_bt_OFFLINE,2022.2.4,59.94947111
1,0,0,0,0,0,1,0,triangle,hexagon,2,0,2,0,1,10,22,1,,,,,,,,,,,,,,,,,,,,,,,,,,,,,,,,,,,,,,,,375.6132903,375.6132903,375.6132903,375.6132903,375.6132903,375.6132903,375.6132903,375.6132903,375.6132903,375.6132903,a,0.463183854,10,587,2,376.0971875,377.5987931,377.5987931,,,,,,,,,,,,,,,,,,,,,,,,,,,,,,,,,,,,,,,,,,,,,,,,,,,,,,,,,,,,,,,,,,,,69140_2,2022-11-04_09h05.51.782,vts_reward_expectancy_bt_OFFLINE,2022.2.4,59.94947111
0,0,0,1,0,0,1,0,star,hexagon,2,0,2,0,1,11,23,11,,,,,,,,,,,,,,,,,,,,,,,,,,,,,,,,,,,,,,,,378.0993532,378.0993532,378.0993532,378.0993532,378.0993532,378.0993532,378.0993532,378.0993532,378.0993532,378.0993532,l,0.979848794,10,597,2,379.1004046,380.602204,,,,,,,,,,,,,,,,,,,,,,,,,,,,,,,,,,,,,,,,,,,,,,,,,,,,,,,,,,,,,,,,,,,,,69140_2,2022-11-04_09h05.51.782,vts_reward_expectancy_bt_OFFLINE,2022.2.4,59.94947111
0,0,0,1,1,0,0,0,star,triangle,2,0,2,0,2,0,24,9,,,,,,,,,,,,,,,,,,,,,,,,,,,,,,,,,,,,,,,,381.1027424,381.1027424,381.1027424,381.1027424,381.1027424,381.1027424,381.1027424,381.1027424,381.1027424,381.1027424,l,0.968659273,10,607,2,382.103828,383.6053402,,,,,,,,,,,,,,,,,,,,,,,,,,,,,,,,,,,,,,,,,,,,,,,,,,,,,,,,,,,,,,,,,,,,,69140_2,2022-11-04_09h05.51.782,vts_reward_expectancy_bt_OFFLINE,2022.2.4,59.94947111
0,0,0,1,0,1,0,0,star ,circle,2,0,2,0,2,1,25,10,,,,,,,,,,,,,,,,,,,,,,,,,,,,,,,,,,,,,,,,384.1058528,384.1058528,384.1058528,384.1058528,384.1058528,384.1058528,384.1058528,384.1058528,384.1058528,384.1058528,l,0.485530832,10,617,2,384.6232262,386.1246396,,,,,,,,,,,,,,,,,,,,,,,,,,,,,,,,,,,,,,,,,,,,,,,,,,,,,,,,,,,,,,,,,,,,,69140_2,2022-11-04_09h05.51.782,vts_reward_expectancy_bt_OFFLINE,2022.2.4,59.94947111
0,1,0,0,0,0,1,0,circle,hexagon,2,0,2,0,2,2,26,4,,,,,,,,,,,,,,,,,,,,,,,,,,,,,,,,,,,,,,,,386.6252861,386.6252861,386.6252861,386.6252861,386.6252861,386.6252861,386.6252861,386.6252861,386.6252861,386.6252861,l,0.431115951,10,627,2,387.0758569,388.5775772,,,,,,,,,,,,,,,,,,,,,,,,,,,,,,,,,,,,,,,,,,,,,,,,,,,,,,,,,,,,,,,,,,,,,69140_2,2022-11-04_09h05.51.782,vts_reward_expectancy_bt_OFFLINE,2022.2.4,59.94947111
1,0,0,0,0,0,1,0,triangle,hexagon,2,0,2,0,2,3,27,1,,,,,,,,,,,,,,,,,,,,,,,,,,,,,,,,,,,,,,,,389.0779365,389.0779365,389.0779365,389.0779365,389.0779365,389.0779365,389.0779365,389.0779365,389.0779365,389.0779365,l,0.307168734,1,628,2,389.4116716,390.913446,,,,,,,,,,,,,,,,,,,,,,,,,,,,,,,,,,,,,,,,,,,,,,,,,,,,,,,,,,,,,,,,,,,,,69140_2,2022-11-04_09h05.51.782,vts_reward_expectancy_bt_OFFLINE,2022.2.4,59.94947111
1,0,0,0,0,1,0,0,triangle,circle,2,0,2,0,2,4,28,0,,,,,,,,,,,,,,,,,,,,,,,,,,,,,,,,,,,,,,,,391.4139126,391.4139126,391.4139126,391.4139126,391.4139126,391.4139126,391.4139126,391.4139126,391.4139126,391.4139126,l,0.277701791,1,629,2,391.7141738,393.2158944,,,,,,,,,,,,,,,,,,,,,,,,,,,,,,,,,,,,,,,,,,,,,,,,,,,,,,,,,,,,,,,,,,,,,69140_2,2022-11-04_09h05.51.782,vts_reward_expectancy_bt_OFFLINE,2022.2.4,59.94947111
0,1,0,0,0,0,0,1,circle,star,2,0,2,0,2,5,29,5,,,,,,,,,,,,,,,,,,,,,,,,,,,,,,,,,,,,,,,,393.7163562,393.7163562,393.7163562,393.7163562,393.7163562,393.7163562,393.7163562,393.7163562,393.7163562,393.7163562,a,1.371680807,1,630,2,395.1180484,396.6197872,,,,,,,,,,,,,,,,,,,,,,,,,,,,,,,,,,,,,,,,,,,,,,,,,,,,,,,,,,,,,,,,,,,,,69140_2,2022-11-04_09h05.51.782,vts_reward_expectancy_bt_OFFLINE,2022.2.4,59.94947111
0,0,1,0,0,0,0,1,hexagon,star,2,0,2,0,2,6,30,8,,,,,,,,,,,,,,,,,,,,,,,,,,,,,,,,,,,,,,,,397.1201652,397.1201652,397.1201652,397.1201652,397.1201652,397.1201652,397.1201652,397.1201652,397.1201652,397.1201652,l,15.18275071,10,640,2,412.3202014,413.8218973,,,,,,,,,,,,,,,,,,,,,,,,,,,,,,,,,,,,,,,,,,,,,,,,,,,,,,,,,,,,,,,,,,,,,69140_2,2022-11-04_09h05.51.782,vts_reward_expectancy_bt_OFFLINE,2022.2.4,59.94947111
0,0,1,0,1,0,0,0,hexagon,triangle,2,0,2,0,2,7,31,6,,,,,,,,,,,,,,,,,,,,,,,,,,,,,,,,,,,,,,,,414.3224683,414.3224683,414.3224683,414.3224683,414.3224683,414.3224683,414.3224683,414.3224683,414.3224683,414.3224683,l,1.332419004,10,650,2,415.6741552,417.1757014,,,,,,,,,,,,,,,,,,,,,,,,,,,,,,,,,,,,,,,,,,,,,,,,,,,,,,,,,,,,,,,,,,,,,69140_2,2022-11-04_09h05.51.782,vts_reward_expectancy_bt_OFFLINE,2022.2.4,59.94947111
0,1,0,0,1,0,0,0,circle,triangle,2,0,2,0,2,8,32,3,,,,,,,,,,,,,,,,,,,,,,,,,,,,,,,,,,,,,,,,417.6763335,417.6763335,417.6763335,417.6763335,417.6763335,417.6763335,417.6763335,417.6763335,417.6763335,417.6763335,a,1.601770917,1,651,2,419.2947082,420.7965395,,,,,,,,,,,,,,,,,,,,,,,,,,,,,,,,,,,,,,,,,,,,,,,,,,,,,,,,,,,,,,,,,,,,,69140_2,2022-11-04_09h05.51.782,vts_reward_expectancy_bt_OFFLINE,2022.2.4,59.94947111
1,0,0,0,0,0,0,1,triangle,star,2,0,2,0,2,9,33,2,,,,,,,,,,,,,,,,,,,,,,,,,,,,,,,,,,,,,,,,421.2969469,421.2969469,421.2969469,421.2969469,421.2969469,421.2969469,421.2969469,421.2969469,421.2969469,421.2969469,a,2.231820206,1,652,2,423.5494192,425.0511123,,,,,,,,,,,,,,,,,,,,,,,,,,,,,,,,,,,,,,,,,,,,,,,,,,,,,,,,,,,,,,,,,,,,,69140_2,2022-11-04_09h05.51.782,vts_reward_expectancy_bt_OFFLINE,2022.2.4,59.94947111
0,0,0,1,0,0,1,0,star,hexagon,2,0,2,0,2,10,34,11,,,,,,,,,,,,,,,,,,,,,,,,,,,,,,,,,,,,,,,,425.5516058,425.5516058,425.5516058,425.5516058,425.5516058,425.5516058,425.5516058,425.5516058,425.5516058,425.5516058,l,3.929269676,1,653,2,429.5059583,431.0076611,,,,,,,,,,,,,,,,,,,,,,,,,,,,,,,,,,,,,,,,,,,,,,,,,,,,,,,,,,,,,,,,,,,,,69140_2,2022-11-04_09h05.51.782,vts_reward_expectancy_bt_OFFLINE,2022.2.4,59.94947111
0,0,1,0,0,1,0,0,hexagon,circle,2,0,2,0,2,11,35,7,,,,,,,,,,,,,,,,,,,,,,,,,,,,,,,,,,,,,,,,431.5081994,431.5081994,431.5081994,431.5081994,431.5081994,431.5081994,431.5081994,431.5081994,431.5081994,431.5081994,l,0.335073902,1,654,2,431.875347,433.3770557,,,,,,,,,,,,,,,,,,,,,,,,,,,,,,,,,,,,,,,,,,,,,,,,,,,,,,,,,,,,,,,,,,,,,69140_2,2022-11-04_09h05.51.782,vts_reward_expectancy_bt_OFFLINE,2022.2.4,59.94947111
1,0,0,0,0,0,0,1,triangle,star,2,0,2,0,3,0,36,2,,,,,,,,,,,,,,,,,,,,,,,,,,,,,,,,,,,,,,,,433.8776047,433.8776047,433.8776047,433.8776047,433.8776047,433.8776047,433.8776047,433.8776047,433.8776047,433.8776047,l,0.362611295,10,664,2,434.2614032,435.7628753,,,,,,,,,,,,,,,,,,,,,,,,,,,,,,,,,,,,,,,,,,,,,,,,,,,,,,,,,,,,,,,,,,,,,69140_2,2022-11-04_09h05.51.782,vts_reward_expectancy_bt_OFFLINE,2022.2.4,59.94947111
0,1,0,0,0,0,0,1,circle,star,2,0,2,0,3,1,37,5,,,,,,,,,,,,,,,,,,,,,,,,,,,,,,,,,,,,,,,,436.2636379,436.2636379,436.2636379,436.2636379,436.2636379,436.2636379,436.2636379,436.2636379,436.2636379,436.2636379,a,0.373566606,1,665,2,436.6640122,438.1654993,,,,,,,,,,,,,,,,,,,,,,,,,,,,,,,,,,,,,,,,,,,,,,,,,,,,,,,,,,,,,,,,,,,,,69140_2,2022-11-04_09h05.51.782,vts_reward_expectancy_bt_OFFLINE,2022.2.4,59.94947111
0,1,0,0,1,0,0,0,circle,triangle,2,0,2,0,3,2,38,3,,,,,,,,,,,,,,,,,,,,,,,,,,,,,,,,,,,,,,,,438.6660777,438.6660777,438.6660777,438.6660777,438.6660777,438.6660777,438.6660777,438.6660777,438.6660777,438.6660777,a,2.627262775,1,666,2,441.3192716,442.820822,,,,,,,,,,,,,,,,,,,,,,,,,,,,,,,,,,,,,,,,,,,,,,,,,,,,,,,,,,,,,,,,,,,,,69140_2,2022-11-04_09h05.51.782,vts_reward_expectancy_bt_OFFLINE,2022.2.4,59.94947111
0,1,0,0,0,0,1,0,circle,hexagon,2,0,2,0,3,3,39,4,,,,,,,,,,,,,,,,,,,,,,,,,,,,,,,,,,,,,,,,443.3212835,443.3212835,443.3212835,443.3212835,443.3212835,443.3212835,443.3212835,443.3212835,443.3212835,443.3212835,a,1.786822521,1,667,2,445.140034,446.6415072,,,,,,,,,,,,,,,,,,,,,,,,,,,,,,,,,,,,,,,,,,,,,,,,,,,,,,,,,,,,,,,,,,,,,69140_2,2022-11-04_09h05.51.782,vts_reward_expectancy_bt_OFFLINE,2022.2.4,59.94947111
0,0,0,1,1,0,0,0,star,triangle,2,0,2,0,3,4,40,9,,,,,,,,,,,,,,,,,,,,,,,,,,,,,,,,,,,,,,,,447.1419979,447.1419979,447.1419979,447.1419979,447.1419979,447.1419979,447.1419979,447.1419979,447.1419979,447.1419979,a,4.851083996,10,677,2,452.0142764,453.5158562,,,,,,,,,,,,,,,,,,,,,,,,,,,,,,,,,,,,,,,,,,,,,,,,,,,,,,,,,,,,,,,,,,,,,69140_2,2022-11-04_09h05.51.782,vts_reward_expectancy_bt_OFFLINE,2022.2.4,59.94947111
0,0,1,0,1,0,0,0,hexagon,triangle,2,0,2,0,3,5,41,6,,,,,,,,,,,,,,,,,,,,,,,,,,,,,,,,,,,,,,,,454.0163648,454.0163648,454.0163648,454.0163648,454.0163648,454.0163648,454.0163648,454.0163648,454.0163648,454.0163648,l,0.62002649,1,678,2,454.6671314,456.1688588,,,,,,,,,,,,,,,,,,,,,,,,,,,,,,,,,,,,,,,,,,,,,,,,,,,,,,,,,,,,,,,,,,,,,69140_2,2022-11-04_09h05.51.782,vts_reward_expectancy_bt_OFFLINE,2022.2.4,59.94947111
0,0,0,1,0,1,0,0,star ,circle,2,0,2,0,3,6,42,10,,,,,,,,,,,,,,,,,,,,,,,,,,,,,,,,,,,,,,,,456.66935,456.66935,456.66935,456.66935,456.66935,456.66935,456.66935,456.66935,456.66935,456.66935,a,1.196340293,1,679,2,457.8873039,459.3888756,,,,,,,,,,,,,,,,,,,,,,,,,,,,,,,,,,,,,,,,,,,,,,,,,,,,,,,,,,,,,,,,,,,,,69140_2,2022-11-04_09h05.51.782,vts_reward_expectancy_bt_OFFLINE,2022.2.4,59.94947111
1,0,0,0,0,0,1,0,triangle,hexagon,2,0,2,0,3,7,43,1,,,,,,,,,,,,,,,,,,,,,,,,,,,,,,,,,,,,,,,,459.8896005,459.8896005,459.8896005,459.8896005,459.8896005,459.8896005,459.8896005,459.8896005,459.8896005,459.8896005,a,0.619538734,10,689,2,460.5401527,462.0417119,,,,,,,,,,,,,,,,,,,,,,,,,,,,,,,,,,,,,,,,,,,,,,,,,,,,,,,,,,,,,,,,,,,,,69140_2,2022-11-04_09h05.51.782,vts_reward_expectancy_bt_OFFLINE,2022.2.4,59.94947111
0,0,0,1,0,0,1,0,star,hexagon,2,0,2,0,3,8,44,11,,,,,,,,,,,,,,,,,,,,,,,,,,,,,,,,,,,,,,,,462.5424096,462.5424096,462.5424096,462.5424096,462.5424096,462.5424096,462.5424096,462.5424096,462.5424096,462.5424096,a,0.735446915,10,699,2,463.309789,464.8114825,,,,,,,,,,,,,,,,,,,,,,,,,,,,,,,,,,,,,,,,,,,,,,,,,,,,,,,,,,,,,,,,,,,,,69140_2,2022-11-04_09h05.51.782,vts_reward_expectancy_bt_OFFLINE,2022.2.4,59.94947111
0,0,1,0,0,1,0,0,hexagon,circle,2,0,2,0,3,9,45,7,,,,,,,,,,,,,,,,,,,,,,,,,,,,,,,,,,,,,,,,465.3121844,465.3121844,465.3121844,465.3121844,465.3121844,465.3121844,465.3121844,465.3121844,465.3121844,465.3121844,l,0.507507148,1,700,2,465.8461997,467.347736,,,,,,,,,,,,,,,,,,,,,,,,,,,,,,,,,,,,,,,,,,,,,,,,,,,,,,,,,,,,,,,,,,,,,69140_2,2022-11-04_09h05.51.782,vts_reward_expectancy_bt_OFFLINE,2022.2.4,59.94947111
1,0,0,0,0,1,0,0,triangle,circle,2,0,2,0,3,10,46,0,,,,,,,,,,,,,,,,,,,,,,,,,,,,,,,,,,,,,,,,467.8482374,467.8482374,467.8482374,467.8482374,467.8482374,467.8482374,467.8482374,467.8482374,467.8482374,467.8482374,l,0.918508352,10,710,2,468.7993448,470.3009711,,,,,,,,,,,,,,,,,,,,,,,,,,,,,,,,,,,,,,,,,,,,,,,,,,,,,,,,,,,,,,,,,,,,,69140_2,2022-11-04_09h05.51.782,vts_reward_expectancy_bt_OFFLINE,2022.2.4,59.94947111
0,0,1,0,0,0,0,1,hexagon,star,2,0,2,0,3,11,47,8,,,,,,,,,,,,,,,,,,,,,,,,,,,,,,,,,,,,,,,,470.8014245,470.8014245,470.8014245,470.8014245,470.8014245,470.8014245,470.8014245,470.8014245,470.8014245,470.8014245,a,0.947078381,1,711,2,471.7693687,473.2708975,,,,,,,,,,,,,,,,,,,,,,,,,,,,,,,,,,,,,,,,,,,,,,,,,,,,,,,,,,,,,,,,,,,,,69140_2,2022-11-04_09h05.51.782,vts_reward_expectancy_bt_OFFLINE,2022.2.4,59.94947111
,,,,,,,,,,,,,,,,,,0,0,0,0,0,0,0,0,,,,,,,,,,,,,,,,,,,,,,,,,,,,,,,,,,,,,,,,,,,,,,,,530.2671547,,W,160,circle,0.002232918,525.7185759,527.2139537,527.2139537,527.2139537,1,0,f,1.528241433,0,528.7662776,,,,,,,,,,,,,,,,,,,,,,,,,,,,,,,,,,,,,,,,,,,,,,,,,,,,,,69140_2,2022-11-04_09h05.51.782,vts_reward_expectancy_bt_OFFLINE,2022.2.4,59.94947111
,,,,,,,,,,,,,,,,,,0,0,0,0,1,0,1,0,,,,,,,,,,,,,,,,,,,,,,,,,,,,,,,,,,,,,,,,,,,,,,,,535.4060811,,Y,139,star,0.001679069,531.2486306,532.7533226,532.7533226,532.7533226,1,0,f,1.131420862,0,533.9046173,,,,,,,,,,,,,,,,,,,,,,,,,,,,,,,,,,,,,,,,,,,,,,,,,,,,,,69140_2,2022-11-04_09h05.51.782,vts_reward_expectancy_bt_OFFLINE,2022.2.4,59.94947111
,,,,,,,,,,,,,,,,,,0,0,0,0,2,0,2,0,,,,,,,,,,,,,,,,,,,,,,,,,,,,,,,,,,,,,,,,,,,,,,,,539.9945526,,D,125,triangle,0.001789225,536.3875234,537.8921332,537.8921332,537.8921332,1,0,d,0.583320016,0,538.4929352,,,,,,,,,,,,,,,,,,,,,,,,,,,,,,,,,,,,,,,,,,,,,,,,,,,,,,69140_2,2022-11-04_09h05.51.782,vts_reward_expectancy_bt_OFFLINE,2022.2.4,59.94947111
,,,,,,,,,,,,,,,,,,0,0,0,0,3,0,3,0,,,,,,,,,,,,,,,,,,,,,,,,,,,,,,,,,,,,,,,,,,,,,,,,544.7664465,,H,181,hexagon,0.001877863,540.9769048,542.4807128,542.4807128,542.4807128,1,0,d,0.75198749,0,543.2648218,,,,,,,,,,,,,,,,,,,,,,,,,,,,,,,,,,,,,,,,,,,,,,,,,,,,,,69140_2,2022-11-04_09h05.51.782,vts_reward_expectancy_bt_OFFLINE,2022.2.4,59.94947111
,,,,,,,,,,,,,,,,,,0,0,0,0,4,0,4,0,,,,,,,,,,,,,,,,,,,,,,,,,,,,,,,,,,,,,,,,,,,,,,,,549.5050731,,S,167,circle,0.00157166,545.7499464,547.2525754,547.2525754,547.2525754,1,0,f,0.727559237,0,548.003439,,,,,,,,,,,,,,,,,,,,,,,,,,,,,,,,,,,,,,,,,,,,,,,,,,,,,,69140_2,2022-11-04_09h05.51.782,vts_reward_expectancy_bt_OFFLINE,2022.2.4,59.94947111
,,,,,,,,,,,,,,,,,,0,0,0,0,5,0,5,0,,,,,,,,,,,,,,,,,,,,,,,,,,,,,,,,,,,,,,,,,,,,,,,,554.1769178,,U,146,hexagon,0.00161979,550.4853673,551.9911127,551.9911127,551.9911127,1,0,f,0.658314668,0,552.6751061,,,,,,,,,,,,,,,,,,,,,,,,,,,,,,,,,,,,,,,,,,,,,,,,,,,,,,69140_2,2022-11-04_09h05.51.782,vts_reward_expectancy_bt_OFFLINE,2022.2.4,59.94947111
,,,,,,,,,,,,,,,,,,0,0,0,0,6,0,6,0,,,,,,,,,,,,,,,,,,,,,,,,,,,,,,,,,,,,,,,,,,,,,,,,558.7486922,,F,174,triangle,0.001684192,555.1561412,556.6631312,556.6631312,556.6631312,1,0,d,0.55442158,0,557.2468375,,,,,,,,,,,,,,,,,,,,,,,,,,,,,,,,,,,,,,,,,,,,,,,,,,,,,,69140_2,2022-11-04_09h05.51.782,vts_reward_expectancy_bt_OFFLINE,2022.2.4,59.94947111
,,,,,,,,,,,,,,,,,,0,0,0,0,7,0,7,0,,,,,,,,,,,,,,,,,,,,,,,,,,,,,,,,,,,,,,,,,,,,,,,,563.2701686,,B,132,star,0.001626895,559.7281227,561.2346009,561.2346009,561.2346009,1,0,d,0.505812759,0,561.7686141,,,,,,,,,,,,,,,,,,,,,,,,,,,,,,,,,,,,,,,,,,,,,,,,,,,,,,69140_2,2022-11-04_09h05.51.782,vts_reward_expectancy_bt_OFFLINE,2022.2.4,59.94947111
,,,,,,,,,,,,,,,,,,0,0,0,0,8,0,8,0,,,,,,,,,,,,,,,,,,,,,,,,,,,,,,,,,,,,,,,,,,,,,,,,567.8585949,,W,160,circle,0.001507154,564.2487985,565.7563043,565.7563043,565.7563043,1,0,f,0.573447672,0,566.3570527,,,,,,,,,,,,,,,,,,,,,,,,,,,,,,,,,,,,,,,,,,,,,,,,,,,,,,69140_2,2022-11-04_09h05.51.782,vts_reward_expectancy_bt_OFFLINE,2022.2.4,59.94947111
,,,,,,,,,,,,,,,,,,0,0,0,0,9,0,9,0,,,,,,,,,,,,,,,,,,,,,,,,,,,,,,,,,,,,,,,,,,,,,,,,572.4638613,,Y,139,triangle,0.001794621,568.8384535,570.3446851,570.3446851,570.3446851,1,0,f,0.59886484,0,570.9622365,,,,,,,,,,,,,,,,,,,,,,,,,,,,,,,,,,,,,,,,,,,,,,,,,,,,,,69140_2,2022-11-04_09h05.51.782,vts_reward_expectancy_bt_OFFLINE,2022.2.4,59.94947111
,,,,,,,,,,,,,,,,,,,,,,,,,,0,0,0,0,0,0,0,0,,,,,,,,,,,,,,,,,,,,,,,,,,,,,,,,,,,,,,,,624.9383136,,H,146,circle,0.002390705,,,,,1,0,,,1,623.4366812,620.9642763,622.4689011,622.4689011,622.4689011,j,0.934803086,,,,,,,,,,,,,,,,,,,,,,,,,,,,,,,,,,,,,,,,,,,,,,,,69140_2,2022-11-04_09h05.51.782,vts_reward_expectancy_bt_OFFLINE,2022.2.4,59.94947111
,,,,,,,,,,,,,,,,,,,,,,,,,,0,0,0,0,1,0,1,0,,,,,,,,,,,,,,,,,,,,,,,,,,,,,,,,,,,,,,,,629.6267402,,U,139,star,0.001498214,,,,,1,0,,,1,628.1251792,625.9196824,627.424357,627.424357,627.424357,j,0.682653917,,,,,,,,,,,,,,,,,,,,,,,,,,,,,,,,,,,,,,,,,,,,,,,,69140_2,2022-11-04_09h05.51.782,vts_reward_expectancy_bt_OFFLINE,2022.2.4,59.94947111
,,,,,,,,,,,,,,,,,,,,,,,,,,0,0,0,0,2,0,2,0,,,,,,,,,,,,,,,,,,,,,,,,,,,,,,,,,,,,,,,,634.3319472,,B,167,hexagon,0.001676097,,,,,1,0,,,1,632.8302677,630.6067565,632.1128299,632.1128299,632.1128299,k,0.684791015,,,,,,,,,,,,,,,,,,,,,,,,,,,,,,,,,,,,,,,,,,,,,,,,69140_2,2022-11-04_09h05.51.782,vts_reward_expectancy_bt_OFFLINE,2022.2.4,59.94947111
,,,,,,,,,,,,,,,,,,,,,,,,,,0,0,0,0,3,0,3,0,,,,,,,,,,,,,,,,,,,,,,,,,,,,,,,,,,,,,,,,639.1206265,,W,132,triangle,0.00166627,,,,,1,0,,,1,637.6189751,635.3135378,636.8180607,636.8180607,636.8180607,j,0.77175277,,,,,,,,,,,,,,,,,,,,,,,,,,,,,,,,,,,,,,,,,,,,,,,,69140_2,2022-11-04_09h05.51.782,vts_reward_expectancy_bt_OFFLINE,2022.2.4,59.94947111
,,,,,,,,,,,,,,,,,,,,,,,,,,0,0,0,0,4,0,4,0,,,,,,,,,,,,,,,,,,,,,,,,,,,,,,,,,,,,,,,,643.6422834,,S,181,hexagon,0.001539997,,,,,1,0,,,1,642.1406723,640.0996454,641.6068277,641.6068277,641.6068277,k,0.505979017,,,,,,,,,,,,,,,,,,,,,,,,,,,,,,,,,,,,,,,,,,,,,,,,69140_2,2022-11-04_09h05.51.782,vts_reward_expectancy_bt_OFFLINE,2022.2.4,59.94947111
,,,,,,,,,,,,,,,,,,,,,,,,,,0,0,0,0,5,0,5,0,,,,,,,,,,,,,,,,,,,,,,,,,,,,,,,,,,,,,,,,648.3141159,,F,125,circle,0.001524132,,,,,1,0,,,1,646.8122483,644.620828,646.1283911,646.1283911,646.1283911,j,0.651878431,,,,,,,,,,,,,,,,,,,,,,,,,,,,,,,,,,,,,,,,,,,,,,,,69140_2,2022-11-04_09h05.51.782,vts_reward_expectancy_bt_OFFLINE,2022.2.4,59.94947111
,,,,,,,,,,,,,,,,,,,,,,,,,,0,0,0,0,6,0,6,0,,,,,,,,,,,,,,,,,,,,,,,,,,,,,,,,,,,,,,,,653.0859134,,Y,160,triangle,0.001844303,,,,,1,0,,,1,651.5842487,649.2959562,650.8001143,650.8001143,650.8001143,k,0.762182398,,,,,,,,,,,,,,,,,,,,,,,,,,,,,,,,,,,,,,,,,,,,,,,,69140_2,2022-11-04_09h05.51.782,vts_reward_expectancy_bt_OFFLINE,2022.2.4,59.94947111
,,,,,,,,,,,,,,,,,,,,,,,,,,0,0,0,0,7,0,7,0,,,,,,,,,,,,,,,,,,,,,,,,,,,,,,,,,,,,,,,,657.6743551,,D,174,star,0.001346,,,,,1,0,,,1,656.1726638,654.0649604,655.5720845,655.5720845,655.5720845,k,0.58119157,,,,,,,,,,,,,,,,,,,,,,,,,,,,,,,,,,,,,,,,,,,,,,,,69140_2,2022-11-04_09h05.51.782,vts_reward_expectancy_bt_OFFLINE,2022.2.4,59.94947111
,,,,,,,,,,,,,,,,,,,,,,,,,,0,0,0,0,8,0,8,0,,,,,,,,,,,,,,,,,,,,,,,,,,,,,,,,,,,,,,,,662.5963885,,H,146,star,0.001676136,,,,,0,0,,,1,661.0948002,658.6537501,660.1604343,660.1604343,660.1604343,k,0.908185963,,,,,,,,,,,,,,,,,,,,,,,,,,,,,,,,,,,,,,,,,,,,,,,,69140_2,2022-11-04_09h05.51.782,vts_reward_expectancy_bt_OFFLINE,2022.2.4,59.94947111
,,,,,,,,,,,,,,,,,,,,,,,,,,0,0,0,0,9,0,9,0,,,,,,,,,,,,,,,,,,,,,,,,,,,,,,,,,,,,,,,,667.6520525,,U,139,triangle,0.001612824,,,,,1,1,,,1,666.1504245,663.5754241,665.082604,665.082604,665.082604,j,1.050224657,,,,,,,,,,,,,,,,,,,,,,,,,,,,,,,,,,,,,,,,,,,,,,,,69140_2,2022-11-04_09h05.51.782,vts_reward_expectancy_bt_OFFLINE,2022.2.4,59.94947111
,,,,,,,,,,,,,,,,,,,,,,,,,,,,,,,,,,0,0,0,0,0,0,0,0,,,,,,,,,,,,,,,,,,,,,,,,,,,,0,711,,,721.6615526,,U,139,circle,0.002133364,,,,,-1,0,,,2,,,,,,,,715.6545887,715.6545887,715.6545887,715.6545887,717.1566068,717.1566068,717.1566068,717.1566068,717.1566068,717.1566068,717.1566068,717.1566068,720.160209,720.160209,720.160209,720.160209,-1,no_choice,NA,None,vtsPrac,720.160209,721.6615526,722.1622185,,,,,,,,,,,,,,,,,,,,,,,,69140_2,2022-11-04_09h05.51.782,vts_reward_expectancy_bt_OFFLINE,2022.2.4,59.94947111
,,,,,,,,,,,,,,,,,,,,,,,,,,,,,,,,,,0,0,0,0,1,0,1,0,,,,,,,,,,,,,,,,,,,,,,,,,,,,0,711,,,727.0340738,,S,181,triangle,0.009418976,,,,,1,0,,,2,,,,,,,,722.6589796,722.6589796,722.6589796,722.6589796,724.1643428,724.1643428,724.1643428,724.1643428,724.1643428,724.1643428,724.1643428,724.1643428,,,,,switch,number,numSwt,k,vtsPrac,725.5325301,,,1.34729292,,,,,,,,,,,,,,,,,,,,,,,69140_2,2022-11-04_09h05.51.782,vts_reward_expectancy_bt_OFFLINE,2022.2.4,59.94947111
,,,,,,,,,,,,,,,,,,,,,,,,,,,,,,,,,,0,0,0,0,2,0,2,0,,,,,,,,,,,,,,,,,,,,,,,,,,,,0,711,,,731.7560888,,B,132,triangle,0.001445742,,,,,1,0,,,2,,,,,,,,728.0169137,728.0169137,728.0169137,728.0169137,729.5202014,729.5202014,729.5202014,729.5202014,729.5202014,729.5202014,729.5202014,729.5202014,,,,,switch,letter,lettSwt,d,vtsPrac,730.2543016,,,0.70459002,,,,,,,,,,,,,,,,,,,,,,,69140_2,2022-11-04_09h05.51.782,vts_reward_expectancy_bt_OFFLINE,2022.2.4,59.94947111
,,,,,,,,,,,,,,,,,,,,,,,,,,,,,,,,,,0,0,0,0,3,0,3,0,,,,,,,,,,,,,,,,,,,,,,,,,,,,0,711,,,736.9951312,,F,146,hexagon,0.001759345,,,,,1,0,,,2,,,,,,,,732.7394167,732.7394167,732.7394167,732.7394167,734.2423401,734.2423401,734.2423401,734.2423401,734.2423401,734.2423401,734.2423401,734.2423401,,,,,switch,number,numSwt,j,vtsPrac,735.4936198,,,1.225722493,,,,,,,,,,,,,,,,,,,,,,,69140_2,2022-11-04_09h05.51.782,vts_reward_expectancy_bt_OFFLINE,2022.2.4,59.94947111
,,,,,,,,,,,,,,,,,,,,,,,,,,,,,,,,,,0,0,0,0,4,0,4,0,,,,,,,,,,,,,,,,,,,,,,,,,,,,0,711,,,741.8503477,,U,139,triangle,0.001591869,,,,,1,0,,,2,,,,,,,,737.9769383,737.9769383,737.9769383,737.9769383,739.4811968,739.4811968,739.4811968,739.4811968,739.4811968,739.4811968,739.4811968,739.4811968,,,,,switch,letter,lettSwt,f,vtsPrac,740.349012,,,0.835600302,,,,,,,,,,,,,,,,,,,,,,,69140_2,2022-11-04_09h05.51.782,vts_reward_expectancy_bt_OFFLINE,2022.2.4,59.94947111
,,,,,,,,,,,,,,,,,,,,,,,,,,,,,,,,,,0,0,0,0,5,0,5,0,,,,,,,,,,,,,,,,,,,,,,,,,,,,0,711,,,746.6560489,,S,181,hexagon,0.001965972,,,,,1,0,,,2,,,,,,,,742.8324165,742.8324165,742.8324165,742.8324165,744.3365606,744.3365606,744.3365606,744.3365606,744.3365606,744.3365606,744.3365606,744.3365606,,,,,switch,number,numSwt,k,vtsPrac,745.1542521,,,0.794593303,,,,,,,,,,,,,,,,,,,,,,,69140_2,2022-11-04_09h05.51.782,vts_reward_expectancy_bt_OFFLINE,2022.2.4,59.94947111
,,,,,,,,,,,,,,,,,,,,,,,,,,,,,,,,,,0,0,0,0,6,0,6,0,,,,,,,,,,,,,,,,,,,,,,,,,,,,0,711,,,751.2443397,,B,132,triangle,0.001662367,,,,,1,0,,,2,,,,,,,,747.635212,747.635212,747.635212,747.635212,749.1420014,749.1420014,749.1420014,749.1420014,749.1420014,749.1420014,749.1420014,749.1420014,,,,,switch,letter,lettSwt,d,vtsPrac,749.7425654,,,0.580174449,,,,,,,,,,,,,,,,,,,,,,,69140_2,2022-11-04_09h05.51.782,vts_reward_expectancy_bt_OFFLINE,2022.2.4,59.94947111
,,,,,,,,,,,,,,,,,,,,,,,,,,,,,,,,,,0,0,0,0,7,0,7,0,,,,,,,,,,,,,,,,,,,,,,,,,,,,0,711,,,755.9827219,,F,146,circle,0.001651111,,,,,1,0,,,2,,,,,,,,752.2227514,752.2227514,752.2227514,752.2227514,753.730372,753.730372,753.730372,753.730372,753.730372,753.730372,753.730372,753.730372,,,,,repeat,letter,lettRpt,d,vtsPrac,754.4811195,,,0.72721763,,,,,,,,,,,,,,,,,,,,,,,69140_2,2022-11-04_09h05.51.782,vts_reward_expectancy_bt_OFFLINE,2022.2.4,59.94947111
,,,,,,,,,,,,,,,,,,,,,,,,,,,,,,,,,,0,0,0,0,8,0,8,0,,,,,,,,,,,,,,,,,,,,,,,,,,,,0,711,,,760.6881282,,S,181,star,0.001568678,,,,,1,0,,,2,,,,,,,,756.9613281,756.9613281,756.9613281,756.9613281,758.4689215,758.4689215,758.4689215,758.4689215,758.4689215,758.4689215,758.4689215,758.4689215,,,,,switch,number,numSwt,k,vtsPrac,759.186264,,,0.691609685,,,,,,,,,,,,,,,,,,,,,,,69140_2,2022-11-04_09h05.51.782,vts_reward_expectancy_bt_OFFLINE,2022.2.4,59.94947111
,,,,,,,,,,,,,,,,,,,,,,,,,,,,,,,,,,0,0,0,0,9,0,9,0,,,,,,,,,,,,,,,,,,,,,,,,,,,,0,711,,,765.1931368,,H,139,hexagon,0.001496418,,,,,1,0,,,2,,,,,,,,761.6703738,761.6703738,761.6703738,761.6703738,763.1740882,763.1740882,763.1740882,763.1740882,763.1740882,763.1740882,763.1740882,763.1740882,,,,,repeat,number,numRpt,j,vtsPrac,763.6912657,,,0.486390136,,,,,,,,,,,,,,,,,,,,,,,69140_2,2022-11-04_09h05.51.782,vts_reward_expectancy_bt_OFFLINE,2022.2.4,59.94947111
,,,,,,,,,,,,,,,,,,,,,,,,,,,,,,,,,,0,0,0,0,10,0,10,0,,,,,,,,,,,,,,,,,,,,,,,,,,,,0,711,,,769.8148606,,U,132,triangle,0.001835142,,,,,1,0,,,2,,,,,,,,766.1747193,766.1747193,766.1747193,766.1747193,767.6792255,767.6792255,767.6792255,767.6792255,767.6792255,767.6792255,767.6792255,767.6792255,,,,,switch,letter,lettSwt,f,vtsPrac,768.3132658,,,0.617293879,,,,,,,,,,,,,,,,,,,,,,,69140_2,2022-11-04_09h05.51.782,vts_reward_expectancy_bt_OFFLINE,2022.2.4,59.94947111
,,,,,,,,,,,,,,,,,,,,,,,,,,,,,,,,,,0,0,0,0,11,0,11,0,,,,,,,,,,,,,,,,,,,,,,,,,,,,0,711,,,775.6212193,,W,167,star,0.001141588,,,,,1,0,,,2,,,,,,,,770.7981372,770.7981372,770.7981372,770.7981372,772.3009211,772.3009211,772.3009211,772.3009211,772.3009211,772.3009211,772.3009211,772.3009211,,,,,repeat,letter,lettRpt,f,vtsPrac,774.1194509,,,1.7879521,,,,,,,,,,,,,,,,,,,,,,,69140_2,2022-11-04_09h05.51.782,vts_reward_expectancy_bt_OFFLINE,2022.2.4,59.94947111
,,,,,,,,,,,,,,,,,,,,,,,,,,,,,,,,,,0,0,0,0,12,0,12,0,,,,,,,,,,,,,,,,,,,,,,,,,,,,0,711,,,780.4432566,,U,181,circle,0.001413292,,,,,1,0,,,2,,,,,,,,776.6023637,776.6023637,776.6023637,776.6023637,778.1073528,778.1073528,778.1073528,778.1073528,778.1073528,778.1073528,778.1073528,778.1073528,,,,,switch,number,numSwt,k,vtsPrac,778.9414709,,,0.808890505,,,,,,,,,,,,,,,,,,,,,,,69140_2,2022-11-04_09h05.51.782,vts_reward_expectancy_bt_OFFLINE,2022.2.4,59.94947111
,,,,,,,,,,,,,,,,,,,,,,,,,,,,,,,,,,0,0,0,0,13,0,13,0,,,,,,,,,,,,,,,,,,,,,,,,,,,,0,711,,,785.1818457,,B,167,triangle,0.001584582,,,,,1,0,,,2,,,,,,,,781.4245087,781.4245087,781.4245087,781.4245087,782.929282,782.929282,782.929282,782.929282,782.929282,782.929282,782.929282,782.929282,,,,,switch,letter,lettSwt,d,vtsPrac,783.6800923,,,0.724206099,,,,,,,,,,,,,,,,,,,,,,,69140_2,2022-11-04_09h05.51.782,vts_reward_expectancy_bt_OFFLINE,2022.2.4,59.94947111
,,,,,,,,,,,,,,,,,,,,,,,,,,,,,,,,,,0,0,0,0,14,0,14,0,,,,,,,,,,,,,,,,,,,,,,,,,,,,0,711,,,790.0370391,,D,139,triangle,0.001556788,,,,,1,0,,,2,,,,,,,,786.161309,786.161309,786.161309,786.161309,787.6677206,787.6677206,787.6677206,787.6677206,787.6677206,787.6677206,787.6677206,787.6677206,,,,,switch,number,numSwt,j,vtsPrac,788.535406,,,0.84574123,,,,,,,,,,,,,,,,,,,,,,,69140_2,2022-11-04_09h05.51.782,vts_reward_expectancy_bt_OFFLINE,2022.2.4,59.94947111
,,,,,,,,,,,,,,,,,,,,,,,,,,,,,,,,,,0,0,0,0,15,0,15,0,,,,,,,,,,,,,,,,,,,,,,,,,,,,0,711,,,794.7589549,,Y,132,hexagon,0.001407188,,,,,1,0,,,2,,,,,,,,791.0190787,791.0190787,791.0190787,791.0190787,792.5231972,792.5231972,792.5231972,792.5231972,792.5231972,792.5231972,792.5231972,792.5231972,,,,,repeat,number,numRpt,j,vtsPrac,793.2573484,,,0.715870022,,,,,,,,,,,,,,,,,,,,,,,69140_2,2022-11-04_09h05.51.782,vts_reward_expectancy_bt_OFFLINE,2022.2.4,59.94947111
,,,,,,,,,,,,,,,,,,,,,,,,,,,,,,,,,,0,0,0,0,16,0,16,0,,,,,,,,,,,,,,,,,,,,,,,,,,,,0,711,,,799.4306829,,Y,125,hexagon,0.001556459,,,,,1,0,,,2,,,,,,,,795.7375913,795.7375913,795.7375913,795.7375913,797.2450135,797.2450135,797.2450135,797.2450135,797.2450135,797.2450135,797.2450135,797.2450135,,,,,repeat,number,numRpt,j,vtsPrac,797.9289615,,,0.661328069,,,,,,,,,,,,,,,,,,,,,,,69140_2,2022-11-04_09h05.51.782,vts_reward_expectancy_bt_OFFLINE,2022.2.4,59.94947111
,,,,,,,,,,,,,,,,,,,,,,,,,,,,,,,,,,0,0,0,0,17,0,17,0,,,,,,,,,,,,,,,,,,,,,,,,,,,,0,711,,,804.2193915,,H,132,circle,0.001656228,,,,,1,0,,,2,,,,,,,,800.4098975,800.4098975,800.4098975,800.4098975,801.9168682,801.9168682,801.9168682,801.9168682,801.9168682,801.9168682,801.9168682,801.9168682,,,,,switch,letter,lettSwt,d,vtsPrac,802.7177422,,,0.770838998,,,,,,,,,,,,,,,,,,,,,,,69140_2,2022-11-04_09h05.51.782,vts_reward_expectancy_bt_OFFLINE,2022.2.4,59.94947111
,,,,,,,,,,,,,,,,,,,,,,,,,,,,,,,,,,0,0,0,0,18,0,18,0,,,,,,,,,,,,,,,,,,,,,,,,,,,,0,711,,,808.9746293,,D,167,star,0.001308794,,,,,1,0,,,2,,,,,,,,805.1992598,805.1992598,805.1992598,805.1992598,806.705437,806.705437,806.705437,806.705437,806.705437,806.705437,806.705437,806.705437,,,,,switch,number,numSwt,k,vtsPrac,807.4729967,,,0.741472599,,,,,,,,,,,,,,,,,,,,,,,69140_2,2022-11-04_09h05.51.782,vts_reward_expectancy_bt_OFFLINE,2022.2.4,59.94947111
,,,,,,,,,,,,,,,,,,,,,,,,,,,,,,,,,,0,0,0,0,19,0,19,0,,,,,,,,,,,,,,,,,,,,,,,,,,,,0,711,,,813.7965592,,F,139,triangle,0.001647674,,,,,1,0,,,2,,,,,,,,809.9537675,809.9537675,809.9537675,809.9537675,811.4607167,811.4607167,811.4607167,811.4607167,811.4607167,811.4607167,811.4607167,811.4607167,,,,,switch,letter,lettSwt,d,vtsPrac,812.2948647,,,0.813524223,,,,,,,,,,,,,,,,,,,,,,,69140_2,2022-11-04_09h05.51.782,vts_reward_expectancy_bt_OFFLINE,2022.2.4,59.94947111
,,,,,,,,,,,,,,,,,,,,,,,,,,,,,,,,,,0,0,0,0,20,0,20,0,,,,,,,,,,,,,,,,,,,,,,,,,,,,0,711,,,818.5185523,,F,132,hexagon,0.001486578,,,,,1,0,,,2,,,,,,,,814.7747291,814.7747291,814.7747291,814.7747291,816.2827225,816.2827225,816.2827225,816.2827225,816.2827225,816.2827225,816.2827225,816.2827225,,,,,repeat,letter,lettRpt,d,vtsPrac,817.0167957,,,0.70512797,,,,,,,,,,,,,,,,,,,,,,,69140_2,2022-11-04_09h05.51.782,vts_reward_expectancy_bt_OFFLINE,2022.2.4,59.94947111
,,,,,,,,,,,,,,,,,,,,,,,,,,,,,,,,,,0,0,0,0,21,0,21,0,,,,,,,,,,,,,,,,,,,,,,,,,,,,0,711,,,823.640596,,H,174,circle,0.001425371,,,,,1,0,,,2,,,,,,,,819.4977482,819.4977482,819.4977482,819.4977482,821.0044706,821.0044706,821.0044706,821.0044706,821.0044706,821.0044706,821.0044706,821.0044706,,,,,repeat,letter,lettRpt,d,vtsPrac,822.1390447,,,1.10191562,,,,,,,,,,,,,,,,,,,,,,,69140_2,2022-11-04_09h05.51.782,vts_reward_expectancy_bt_OFFLINE,2022.2.4,59.94947111
,,,,,,,,,,,,,,,,,,,,,,,,,,,,,,,,,,0,0,0,0,22,0,22,0,,,,,,,,,,,,,,,,,,,,,,,,,,,,0,711,,,828.5794925,,W,139,circle,0.001408012,,,,,1,0,,,2,,,,,,,,824.6196334,824.6196334,824.6196334,824.6196334,826.1268463,826.1268463,826.1268463,826.1268463,826.1268463,826.1268463,826.1268463,826.1268463,,,,,repeat,letter,lettRpt,f,vtsPrac,827.0779868,,,0.930612076,,,,,,,,,,,,,,,,,,,,,,,69140_2,2022-11-04_09h05.51.782,vts_reward_expectancy_bt_OFFLINE,2022.2.4,59.94947111
,,,,,,,,,,,,,,,,,,,,,,,,,,,,,,,,,,0,0,0,0,23,0,23,0,,,,,,,,,,,,,,,,,,,,,,,,,,,,0,711,,,833.5852489,,B,146,triangle,0.001493609,,,,,0,0,,,2,,,,,,,,829.560639,829.560639,829.560639,829.560639,831.0656589,831.0656589,831.0656589,831.0656589,831.0656589,831.0656589,831.0656589,831.0656589,,,,,switch,number,NA,k,vtsPrac,832.0834209,,,0.985207469,,,,,,,,,,,,,,,,,,,,,,,69140_2,2022-11-04_09h05.51.782,vts_reward_expectancy_bt_OFFLINE,2022.2.4,59.94947111
,,,,,,,,,,,,,,,,,,,,,,,,,,,,,,,,,,0,0,0,0,24,0,24,0,,,,,,,,,,,,,,,,,,,,,,,,,,,,0,711,,,838.3236628,,B,132,circle,0.001625486,,,,,1,1,,,2,,,,,,,,834.5629297,834.5629297,834.5629297,834.5629297,836.0711142,836.0711142,836.0711142,836.0711142,836.0711142,836.0711142,836.0711142,836.0711142,,,,,repeat,number,numRpt,j,vtsPrac,836.8220544,,,0.727649604,,,,,,,,,,,,,,,,,,,,,,,69140_2,2022-11-04_09h05.51.782,vts_reward_expectancy_bt_OFFLINE,2022.2.4,59.94947111
,,,,,,,,,,,,,,,,,,,,,,,,,,,,,,,,,,0,0,0,0,25,0,25,0,,,,,,,,,,,,,,,,,,,,,,,,,,,,0,711,,,843.0955176,,S,181,triangle,0.001658877,,,,,1,0,,,2,,,,,,,,839.3051611,839.3051611,839.3051611,839.3051611,840.8095541,840.8095541,840.8095541,840.8095541,840.8095541,840.8095541,840.8095541,840.8095541,,,,,repeat,number,numRpt,k,vtsPrac,841.5940584,,,0.76062754,,,,,,,,,,,,,,,,,,,,,,,69140_2,2022-11-04_09h05.51.782,vts_reward_expectancy_bt_OFFLINE,2022.2.4,59.94947111
,,,,,,,,,,,,,,,,,,,,,,,,,,,,,,,,,,0,0,0,0,26,0,26,0,,,,,,,,,,,,,,,,,,,,,,,,,,,,0,711,,,848.1178606,,F,160,hexagon,0.001539784,,,,,1,0,,,2,,,,,,,,844.0765237,844.0765237,844.0765237,844.0765237,845.5818104,845.5818104,845.5818104,845.5818104,845.5818104,845.5818104,845.5818104,845.5818104,,,,,switch,letter,lettSwt,d,vtsPrac,846.6161145,,,1.017170819,,,,,,,,,,,,,,,,,,,,,,,69140_2,2022-11-04_09h05.51.782,vts_reward_expectancy_bt_OFFLINE,2022.2.4,59.94947111
,,,,,,,,,,,,,,,,,,,,,,,,,,,,,,,,,,0,0,0,0,27,0,27,0,,,,,,,,,,,,,,,,,,,,,,,,,,,,0,711,,,854.5081813,,D,174,star,0.0017126,,,,,1,0,,,2,,,,,,,,849.0973203,849.0973203,849.0973203,849.0973203,850.6037373,850.6037373,850.6037373,850.6037373,850.6037373,850.6037373,850.6037373,850.6037373,,,,,repeat,letter,lettRpt,d,vtsPrac,853.00651,,,2.374504224,,,,,,,,,,,,,,,,,,,,,,,69140_2,2022-11-04_09h05.51.782,vts_reward_expectancy_bt_OFFLINE,2022.2.4,59.94947111
,,,,,,,,,,,,,,,,,,,,,,,,,,,,,,,,,,0,0,0,0,28,0,28,0,,,,,,,,,,,,,,,,,,,,,,,,,,,,0,711,,,859.2634013,,U,160,triangle,0.001607188,,,,,1,0,,,2,,,,,,,,855.4876134,855.4876134,855.4876134,855.4876134,856.994207,856.994207,856.994207,856.994207,856.994207,856.994207,856.994207,856.994207,,,,,repeat,letter,lettRpt,f,vtsPrac,857.7617545,,,0.741546082,,,,,,,,,,,,,,,,,,,,,,,69140_2,2022-11-04_09h05.51.782,vts_reward_expectancy_bt_OFFLINE,2022.2.4,59.94947111
,,,,,,,,,,,,,,,,,,,,,,,,,,,,,,,,,,0,0,0,0,29,0,29,0,,,,,,,,,,,,,,,,,,,,,,,,,,,,0,711,,,864.1854232,,D,167,star,0.001680857,,,,,1,0,,,2,,,,,,,,860.2449156,860.2449156,860.2449156,860.2449156,861.7494493,861.7494493,861.7494493,861.7494493,861.7494493,861.7494493,861.7494493,861.7494493,,,,,repeat,letter,lettRpt,d,vtsPrac,862.6838443,,,0.902729664,,,,,,,,,,,,,,,,,,,,,,,69140_2,2022-11-04_09h05.51.782,vts_reward_expectancy_bt_OFFLINE,2022.2.4,59.94947111
,,,,,,,,,,,,,,,,,,,,,,,,,,,,,,,,,,0,0,0,0,30,0,30,0,,,,,,,,,,,,,,,,,,,,,,,,,,,,0,711,,,868.8406415,,H,174,star,0.001416104,,,,,1,0,,,2,,,,,,,,865.1667465,865.1667465,865.1667465,865.1667465,866.6714872,866.6714872,866.6714872,866.6714872,866.6714872,866.6714872,866.6714872,866.6714872,,,,,switch,number,numSwt,k,vtsPrac,867.3388665,,,0.639477126,,,,,,,,,,,,,,,,,,,,,,,69140_2,2022-11-04_09h05.51.782,vts_reward_expectancy_bt_OFFLINE,2022.2.4,59.94947111
,,,,,,,,,,,,,,,,,,,,,,,,,,,,,,,,,,0,0,0,0,31,0,31,0,,,,,,,,,,,,,,,,,,,,,,,,,,,,0,711,,,874.2966255,,F,146,circle,0.001700997,,,,,1,0,,,2,,,,,,,,869.8199018,869.8199018,869.8199018,869.8199018,871.3267585,871.3267585,871.3267585,871.3267585,871.3267585,871.3267585,871.3267585,871.3267585,,,,,repeat,number,numRpt,j,vtsPrac,872.7949691,,,1.440496667,,,,,,,,,,,,,,,,,,,,,,,69140_2,2022-11-04_09h05.51.782,vts_reward_expectancy_bt_OFFLINE,2022.2.4,59.94947111
,,,,,,,,,,,,,,,,,,,,,,,,,,,,,,,,,,,,,,,,,,0,0,0,0,,,,,,,,,,,,,,,,,,,,,,,,0,711,,,905.6977922,,B,167,circle,0.002043292,,,,,1,0,,,,,,,,,,,901.9385324,901.9385324,901.9385324,901.9385324,903.445452,903.445452,903.445452,903.445452,903.445452,903.445452,903.445452,903.445452,,,,,switch,letter,lettSwt,d,noRew,,,,0.733165142,0,904.1962597,,,,,,,,,,,,,,,,,,,,,69140_2,2022-11-04_09h05.51.782,vts_reward_expectancy_bt_OFFLINE,2022.2.4,59.94947111
,,,,,,,,,,,,,,,,,,,,,,,,,,,,,,,,,,,,,,,,,,1,0,1,0,,,,,,,,,,,,,,,,,,,,,,,,0,711,,,910.6702233,,D,132,hexagon,0.001528264,,,,,1,0,,,,,,,,,,,906.6773614,906.6773614,906.6773614,906.6773614,908.1842358,908.1842358,908.1842358,908.1842358,908.1842358,908.1842358,908.1842358,908.1842358,,,,,repeat,letter,lettRpt,d,noRew,,,,0.955366,0,909.1685931,,,,,,,,,,,,,,,,,,,,,69140_2,2022-11-04_09h05.51.782,vts_reward_expectancy_bt_OFFLINE,2022.2.4,59.94947111
,,,,,,,,,,,,,,,,,,,,,,,,,,,,,,,,,,,,,,,,,,2,0,2,0,,,,,,,,,,,,,,,,,,,,,,,,0,711,,,915.4253585,,S,174,circle,0.001502788,,,,,1,0,,,,,,,,,,,911.6517259,911.6517259,911.6517259,911.6517259,913.1561405,913.1561405,913.1561405,913.1561405,913.1561405,913.1561405,913.1561405,913.1561405,,,,,switch,number,numSwt,k,noRew,,,,0.741048272,0,913.9237098,,,,,,,,,,,,,,,,,,,,,69140_2,2022-11-04_09h05.51.782,vts_reward_expectancy_bt_OFFLINE,2022.2.4,59.94947111
,,,,,,,,,,,,,,,,,,,,,,,,,,,,,,,,,,,,,,,,,,3,0,3,0,,,,,,,,,,,,,,,,,,,,,,,,0,711,,,920.5476415,,W,146,triangle,0.001562865,,,,,1,0,,,,,,,,,,,916.4047864,916.4047864,916.4047864,916.4047864,917.9114959,917.9114959,917.9114959,917.9114959,917.9114959,917.9114959,917.9114959,917.9114959,,,,,repeat,number,numRpt,j,noRew,,,,1.117651388,0,919.0461476,,,,,,,,,,,,,,,,,,,,,69140_2,2022-11-04_09h05.51.782,vts_reward_expectancy_bt_OFFLINE,2022.2.4,59.94947111
,,,,,,,,,,,,,,,,,,,,,,,,,,,,,,,,,,,,,,,,,,4,0,4,0,,,,,,,,,,,,,,,,,,,,,,,,0,711,,,925.2695347,,B,167,hexagon,0.001487863,,,,,1,0,,,,,,,,,,,921.5273184,921.5273184,921.5273184,921.5273184,923.0338137,923.0338137,923.0338137,923.0338137,923.0338137,923.0338137,923.0338137,923.0338137,,,,,switch,letter,lettSwt,d,noRew,,,,0.707426852,0,923.7679682,,,,,,,,,,,,,,,,,,,,,69140_2,2022-11-04_09h05.51.782,vts_reward_expectancy_bt_OFFLINE,2022.2.4,59.94947111
,,,,,,,,,,,,,,,,,,,,,,,,,,,,,,,,,,,,,,,,,,5,0,5,0,,,,,,,,,,,,,,,,,,,,,,,,0,711,,,930.1748613,,D,132,circle,0.001345698,,,,,1,0,,,,,,,,,,,926.2508037,926.2508037,926.2508037,926.2508037,927.7555448,927.7555448,927.7555448,927.7555448,927.7555448,927.7555448,927.7555448,927.7555448,,,,,repeat,letter,lettRpt,d,noRew,,,,0.890676042,0,928.6733078,,,,,,,,,,,,,,,,,,,,,69140_2,2022-11-04_09h05.51.782,vts_reward_expectancy_bt_OFFLINE,2022.2.4,59.94947111
,,,,,,,,,,,,,,,,,,,,,,,,,,,,,,,,,,,,,,,,,,6,0,6,0,,,,,,,,,,,,,,,,,,,,,,,,0,711,,,934.9801288,,S,174,triangle,0.001610685,,,,,1,0,,,,,,,,,,,931.1561682,931.1561682,931.1561682,931.1561682,932.661002,932.661002,932.661002,932.661002,932.661002,932.661002,932.661002,932.661002,,,,,switch,number,numSwt,k,noRew,,,,0.790159605,0,933.4784619,,,,,,,,,,,,,,,,,,,,,69140_2,2022-11-04_09h05.51.782,vts_reward_expectancy_bt_OFFLINE,2022.2.4,59.94947111
,,,,,,,,,,,,,,,,,,,,,,,,,,,,,,,,,,,,,,,,,,7,0,7,0,,,,,,,,,,,,,,,,,,,,,,,,0,711,,,940.1692466,,W,146,circle,0.001605901,,,,,1,0,,,,,,,,,,,935.9594579,935.9594579,935.9594579,935.9594579,937.4664958,937.4664958,937.4664958,937.4664958,937.4664958,937.4664958,937.4664958,937.4664958,,,,,repeat,number,numRpt,j,noRew,,,,1.170917873,0,938.6676397,,,,,,,,,,,,,,,,,,,,,69140_2,2022-11-04_09h05.51.782,vts_reward_expectancy_bt_OFFLINE,2022.2.4,59.94947111
,,,,,,,,,,,,,,,,,,,,,,,,,,,,,,,,,,,,,,,,,,8,0,8,0,,,,,,,,,,,,,,,,,,,,,,,,0,711,,,945.2915977,,Y,125,star,0.0015551,,,,,1,0,,,,,,,,,,,941.148876,941.148876,941.148876,941.148876,942.6553303,942.6553303,942.6553303,942.6553303,942.6553303,942.6553303,942.6553303,942.6553303,,,,,repeat,number,numRpt,j,noRew,,,,1.111762282,0,943.7901599,,,,,,,,,,,,,,,,,,,,,69140_2,2022-11-04_09h05.51.782,vts_reward_expectancy_bt_OFFLINE,2022.2.4,59.94947111
,,,,,,,,,,,,,,,,,,,,,,,,,,,,,,,,,,,,,,,,,,9,0,9,0,,,,,,,,,,,,,,,,,,,,,,,,0,711,,,950.1136109,,H,181,circle,0.00154822,,,,,1,0,,,,,,,,,,,946.2708548,946.2708548,946.2708548,946.2708548,947.7776774,947.7776774,947.7776774,947.7776774,947.7776774,947.7776774,947.7776774,947.7776774,,,,,switch,letter,lettSwt,d,noRew,,,,0.80523932,0,948.6120667,,,,,,,,,,,,,,,,,,,,,69140_2,2022-11-04_09h05.51.782,vts_reward_expectancy_bt_OFFLINE,2022.2.4,59.94947111
,,,,,,,,,,,,,,,,,,,,,,,,,,,,,,,,,,,,,,,,,,10,0,10,0,,,,,,,,,,,,,,,,,,,,,,,,0,711,,,955.3361001,,S,132,circle,0.001539225,,,,,1,0,,,,,,,,,,,951.0951913,951.0951913,951.0951913,951.0951913,952.5996095,952.5996095,952.5996095,952.5996095,952.5996095,952.5996095,952.5996095,952.5996095,,,,,repeat,letter,lettRpt,f,noRew,,,,1.214056239,0,953.8344202,,,,,,,,,,,,,,,,,,,,,69140_2,2022-11-04_09h05.51.782,vts_reward_expectancy_bt_OFFLINE,2022.2.4,59.94947111
,,,,,,,,,,,,,,,,,,,,,,,,,,,,,,,,,,,,,,,,,,11,0,11,0,,,,,,,,,,,,,,,,,,,,,,,,0,711,,,960.3581722,,F,146,hexagon,0.00149085,,,,,1,0,,,,,,,,,,,956.3153864,956.3153864,956.3153864,956.3153864,957.8225417,957.8225417,957.8225417,957.8225417,957.8225417,957.8225417,957.8225417,957.8225417,,,,,repeat,letter,lettRpt,d,noRew,,,,1.008617616,0,958.8563545,,,,,,,,,,,,,,,,,,,,,69140_2,2022-11-04_09h05.51.782,vts_reward_expectancy_bt_OFFLINE,2022.2.4,59.94947111
,,,,,,,,,,,,,,,,,,,,,,,,,,,,,,,,,,,,,,,,,,12,0,12,0,,,,,,,,,,,,,,,,,,,,,,,,0,711,,,965.0468572,,S,167,triangle,0.00170538,,,,,1,0,,,,,,,,,,,961.3375674,961.3375674,961.3375674,961.3375674,962.8443606,962.8443606,962.8443606,962.8443606,962.8443606,962.8443606,962.8443606,962.8443606,,,,,switch,number,numSwt,k,noRew,,,,0.668654218,0,963.5451676,,,,,,,,,,,,,,,,,,,,,69140_2,2022-11-04_09h05.51.782,vts_reward_expectancy_bt_OFFLINE,2022.2.4,59.94947111
,,,,,,,,,,,,,,,,,,,,,,,,,,,,,,,,,,,,,,,,,,13,0,13,0,,,,,,,,,,,,,,,,,,,,,,,,0,711,,,969.9854912,,Y,146,hexagon,0.001373363,,,,,1,0,,,,,,,,,,,966.0267075,966.0267075,966.0267075,966.0267075,967.5329112,967.5329112,967.5329112,967.5329112,967.5329112,967.5329112,967.5329112,967.5329112,,,,,repeat,number,numRpt,j,noRew,,,,0.928482528,0,968.4838172,,,,,,,,,,,,,,,,,,,,,69140_2,2022-11-04_09h05.51.782,vts_reward_expectancy_bt_OFFLINE,2022.2.4,59.94947111
,,,,,,,,,,,,,,,,,,,,,,,,,,,,,,,,,,,,,,,,,,14,0,14,0,,,,,,,,,,,,,,,,,,,,,,,,0,711,,,974.6905573,,B,139,triangle,0.001827417,,,,,1,0,,,,,,,,,,,970.9667862,970.9667862,970.9667862,970.9667862,972.4715,972.4715,972.4715,972.4715,972.4715,972.4715,972.4715,972.4715,,,,,switch,letter,lettSwt,d,noRew,,,,0.693448356,0,973.18893,,,,,,,,,,,,,,,,,,,,,69140_2,2022-11-04_09h05.51.782,vts_reward_expectancy_bt_OFFLINE,2022.2.4,59.94947111
,,,,,,,,,,,,,,,,,,,,,,,,,,,,,,,,,,,,,,,,,,15,0,15,0,,,,,,,,,,,,,,,,,,,,,,,,0,711,,,979.9632494,,D,160,hexagon,0.001587207,,,,,1,0,,,,,,,,,,,975.6699372,975.6699372,975.6699372,975.6699372,977.1767218,977.1767218,977.1767218,977.1767218,977.1767218,977.1767218,977.1767218,977.1767218,,,,,repeat,letter,lettRpt,d,noRew,,,,1.252308327,0,978.4616818,,,,,,,,,,,,,,,,,,,,,69140_2,2022-11-04_09h05.51.782,vts_reward_expectancy_bt_OFFLINE,2022.2.4,59.94947111
,,,,,,,,,,,,,,,,,,,,,,,,,,,,,,,,,,,,,,,,,,16,0,16,0,,,,,,,,,,,,,,,,,,,,,,,,0,711,,,985.1020377,,S,160,circle,0.001635421,,,,,1,0,,,,,,,,,,,980.9420192,980.9420192,980.9420192,980.9420192,982.4492142,982.4492142,982.4492142,982.4492142,982.4492142,982.4492142,982.4492142,982.4492142,,,,,repeat,letter,lettRpt,f,noRew,,,,1.123241326,0,983.6004426,,,,,,,,,,,,,,,,,,,,,69140_2,2022-11-04_09h05.51.782,vts_reward_expectancy_bt_OFFLINE,2022.2.4,59.94947111
,,,,,,,,,,,,,,,,,,,,,,,,,,,,,,,,,,,,,,,,,,17,0,17,0,,,,,,,,,,,,,,,,,,,,,,,,0,711,,,989.9408757,,B,132,star,0.001635099,,,,,1,0,,,,,,,,,,,986.0813952,986.0813952,986.0813952,986.0813952,987.5883491,987.5883491,987.5883491,987.5883491,987.5883491,987.5883491,987.5883491,987.5883491,,,,,switch,number,numSwt,j,noRew,,,,0.819984681,0,988.4391872,,,,,,,,,,,,,,,,,,,,,69140_2,2022-11-04_09h05.51.782,vts_reward_expectancy_bt_OFFLINE,2022.2.4,59.94947111
,,,,,,,,,,,,,,,,,,,,,,,,,,,,,,,,,,,,,,,,,,18,0,18,0,,,,,,,,,,,,,,,,,,,,,,,,0,711,,,994.5125114,,Y,125,hexagon,0.001507298,,,,,1,0,,,,,,,,,,,990.9225982,990.9225982,990.9225982,990.9225982,992.4269607,992.4269607,992.4269607,992.4269607,992.4269607,992.4269607,992.4269607,992.4269607,,,,,repeat,number,numRpt,j,noRew,,,,0.560101081,0,993.0108112,,,,,,,,,,,,,,,,,,,,,69140_2,2022-11-04_09h05.51.782,vts_reward_expectancy_bt_OFFLINE,2022.2.4,59.94947111
,,,,,,,,,,,,,,,,,,,,,,,,,,,,,,,,,,,,,,,,,,19,0,19,0,,,,,,,,,,,,,,,,,,,,,,,,0,711,,,999.1676801,,F,167,star,0.001879584,,,,,1,0,,,,,,,,,,,995.4920833,995.4920833,995.4920833,995.4920833,996.9987073,996.9987073,996.9987073,996.9987073,996.9987073,996.9987073,996.9987073,996.9987073,,,,,switch,letter,lettSwt,d,noRew,,,,0.647403196,0,997.6659861,,,,,,,,,,,,,,,,,,,,,69140_2,2022-11-04_09h05.51.782,vts_reward_expectancy_bt_OFFLINE,2022.2.4,59.94947111
,,,,,,,,,,,,,,,,,,,,,,,,,,,,,,,,,,,,,,,,,,20,0,20,0,,,,,,,,,,,,,,,,,,,,,,,,0,711,,,1003.98965,,S,160,star,0.001294072,,,,,0,0,,,,,,,,,,,1000.149393,1000.149393,1000.149393,1000.149393,1001.653897,1001.653897,1001.653897,1001.653897,1001.653897,1001.653897,1001.653897,1001.653897,,,,,repeat,letter,NA,d,noRew,,,,0.807419978,0,1002.488001,,,,,,,,,,,,,,,,,,,,,69140_2,2022-11-04_09h05.51.782,vts_reward_expectancy_bt_OFFLINE,2022.2.4,59.94947111
,,,,,,,,,,,,,,,,,,,,,,,,,,,,,,,,,,,,,,,,,,21,0,21,0,,,,,,,,,,,,,,,,,,,,,,,,0,711,,,1009.061996,,W,139,triangle,0.00160012,,,,,1,1,,,,,,,,,,,1004.971233,1004.971233,1004.971233,1004.971233,1006.475657,1006.475657,1006.475657,1006.475657,1006.475657,1006.475657,1006.475657,1006.475657,,,,,repeat,letter,lettRpt,f,noRew,,,,1.05882941,0,1007.560235,,,,,,,,,,,,,,,,,,,,,69140_2,2022-11-04_09h05.51.782,vts_reward_expectancy_bt_OFFLINE,2022.2.4,59.94947111
,,,,,,,,,,,,,,,,,,,,,,,,,,,,,,,,,,,,,,,,,,22,0,22,0,,,,,,,,,,,,,,,,,,,,,,,,0,711,,,1013.70039,,B,174,star,0.001524517,,,,,1,0,,,,,,,,,,,1010.040215,1010.040215,1010.040215,1010.040215,1011.547977,1011.547977,1011.547977,1011.547977,1011.547977,1011.547977,1011.547977,1011.547977,,,,,switch,number,numSwt,k,noRew,,,,0.633750065,0,1012.198848,,,,,,,,,,,,,,,,,,,,,69140_2,2022-11-04_09h05.51.782,vts_reward_expectancy_bt_OFFLINE,2022.2.4,59.94947111
,,,,,,,,,,,,,,,,,,,,,,,,,,,,,,,,,,,,,,,,,,23,0,23,0,,,,,,,,,,,,,,,,,,,,,,,,0,711,,,1018.856011,,H,132,hexagon,0.00166542,,,,,1,0,,,,,,,,,,,1014.679869,1014.679869,1014.679869,1014.679869,1016.186689,1016.186689,1016.186689,1016.186689,1016.186689,1016.186689,1016.186689,1016.186689,,,,,repeat,number,numRpt,j,noRew,,,,1.146839572,0,1017.354493,,,,,,,,,,,,,,,,,,,,,69140_2,2022-11-04_09h05.51.782,vts_reward_expectancy_bt_OFFLINE,2022.2.4,59.94947111
,,,,,,,,,,,,,,,,,,,,,,,,,,,,,,,,,,,,,,,,,,24,0,24,0,,,,,,,,,,,,,,,,,,,,,,,,0,711,,,1024.61235,,U,181,star,0.001652543,,,,,1,0,,,,,,,,,,,1019.834719,1019.834719,1019.834719,1019.834719,1021.342191,1021.342191,1021.342191,1021.342191,1021.342191,1021.342191,1021.342191,1021.342191,,,,,switch,letter,lettSwt,f,noRew,,,,1.74182374,0,1023.110835,,,,,,,,,,,,,,,,,,,,,69140_2,2022-11-04_09h05.51.782,vts_reward_expectancy_bt_OFFLINE,2022.2.4,59.94947111
,,,,,,,,,,,,,,,,,,,,,,,,,,,,,,,,,,,,,,,,,,25,0,25,0,,,,,,,,,,,,,,,,,,,,,,,,0,711,,,1029.968145,,H,167,triangle,0.001437041,,,,,1,0,,,,,,,,,,,1025.593938,1025.593938,1025.593938,1025.593938,1027.098471,1027.098471,1027.098471,1027.098471,1027.098471,1027.098471,1027.098471,1027.098471,,,,,switch,number,numSwt,k,noRew,,,,1.351049265,0,1028.466624,,,,,,,,,,,,,,,,,,,,,69140_2,2022-11-04_09h05.51.782,vts_reward_expectancy_bt_OFFLINE,2022.2.4,59.94947111
,,,,,,,,,,,,,,,,,,,,,,,,,,,,,,,,,,,,,,,,,,26,0,26,0,,,,,,,,,,,,,,,,,,,,,,,,0,711,,,1035.073989,,D,125,circle,0.001590163,,,,,1,0,,,,,,,,,,,1030.947142,1030.947142,1030.947142,1030.947142,1032.45433,1032.45433,1032.45433,1032.45433,1032.45433,1032.45433,1032.45433,1032.45433,,,,,switch,letter,lettSwt,d,noRew,,,,1.090519806,0,1033.572345,,,,,,,,,,,,,,,,,,,,,69140_2,2022-11-04_09h05.51.782,vts_reward_expectancy_bt_OFFLINE,2022.2.4,59.94947111
,,,,,,,,,,,,,,,,,,,,,,,,,,,,,,,,,,,,,,,,,,27,0,27,0,,,,,,,,,,,,,,,,,,,,,,,,0,711,,,1040.930283,,S,146,hexagon,0.001444094,,,,,1,0,,,,,,,,,,,1036.053368,1036.053368,1036.053368,1036.053368,1037.55994,1037.55994,1037.55994,1037.55994,1037.55994,1037.55994,1037.55994,1037.55994,,,,,switch,number,numSwt,j,noRew,,,,1.836662057,0,1039.428708,,,,,,,,,,,,,,,,,,,,,69140_2,2022-11-04_09h05.51.782,vts_reward_expectancy_bt_OFFLINE,2022.2.4,59.94947111
,,,,,,,,,,,,,,,,,,,,,,,,,,,,,,,,,,,,,,,,,,28,0,28,0,,,,,,,,,,,,,,,,,,,,,,,,0,711,,,1046.436604,,Y,132,circle,0.001765543,,,,,1,0,,,,,,,,,,,1041.912011,1041.912011,1041.912011,1041.912011,1043.416511,1043.416511,1043.416511,1043.416511,1043.416511,1043.416511,1043.416511,1043.416511,,,,,repeat,number,numRpt,j,noRew,,,,1.491162719,0,1044.934758,,,,,,,,,,,,,,,,,,,,,69140_2,2022-11-04_09h05.51.782,vts_reward_expectancy_bt_OFFLINE,2022.2.4,59.94947111
,,,,,,,,,,,,,,,,,,,,,,,,,,,,,,,,,,,,,,,,,,29,0,29,0,,,,,,,,,,,,,,,,,,,,,,,,0,711,,,1051.258455,,B,160,hexagon,0.002012529,,,,,1,0,,,,,,,,,,,1047.415843,1047.415843,1047.415843,1047.415843,1048.92276,1048.92276,1048.92276,1048.92276,1048.92276,1048.92276,1048.92276,1048.92276,,,,,repeat,number,numRpt,k,noRew,,,,0.810976409,0,1049.756832,,,,,,,,,,,,,,,,,,,,,69140_2,2022-11-04_09h05.51.782,vts_reward_expectancy_bt_OFFLINE,2022.2.4,59.94947111
,,,,,,,,,,,,,,,,,,,,,,,,,,,,,,,,,,,,,,,,,,30,0,30,0,,,,,,,,,,,,,,,,,,,,,,,,0,711,,,1056.213912,,U,146,circle,0.001457283,,,,,1,0,,,,,,,,,,,1052.23736,1052.23736,1052.23736,1052.23736,1053.744504,1053.744504,1053.744504,1053.744504,1053.744504,1053.744504,1053.744504,1053.744504,,,,,repeat,number,numRpt,j,noRew,,,,0.941137983,0,1054.712388,,,,,,,,,,,,,,,,,,,,,69140_2,2022-11-04_09h05.51.782,vts_reward_expectancy_bt_OFFLINE,2022.2.4,59.94947111
,,,,,,,,,,,,,,,,,,,,,,,,,,,,,,,,,,,,,,,,,,31,0,31,0,,,,,,,,,,,,,,,,,,,,,,,,0,711,,,1060.785732,,W,167,triangle,0.001515739,,,,,1,0,,,,,,,,,,,1057.19213,1057.19213,1057.19213,1057.19213,1058.700066,1058.700066,1058.700066,1058.700066,1058.700066,1058.700066,1058.700066,1058.700066,,,,,switch,letter,lettSwt,f,noRew,,,,0.563640679,0,1059.283956,,,,,,,,,,,,,,,,,,,,,69140_2,2022-11-04_09h05.51.782,vts_reward_expectancy_bt_OFFLINE,2022.2.4,59.94947111
,,,,,,,,,,,,,,,,,,,,,,,,,,,,,,,,,,,,,,,,,,32,0,32,0,,,,,,,,,,,,,,,,,,,,,,,,0,711,,,1066.008095,,H,146,hexagon,0.001709045,,,,,1,0,,,,,,,,,,,1061.765529,1061.765529,1061.765529,1061.765529,1063.27181,1063.27181,1063.27181,1063.27181,1063.27181,1063.27181,1063.27181,1063.27181,,,,,repeat,letter,lettRpt,d,noRew,,,,1.211209348,0,1064.506436,,,,,,,,,,,,,,,,,,,,,69140_2,2022-11-04_09h05.51.782,vts_reward_expectancy_bt_OFFLINE,2022.2.4,59.94947111
,,,,,,,,,,,,,,,,,,,,,,,,,,,,,,,,,,,,,,,,,,33,0,33,0,,,,,,,,,,,,,,,,,,,,,,,,0,711,,,1070.679849,,B,132,star,0.001387653,,,,,1,0,,,,,,,,,,,1066.986288,1066.986288,1066.986288,1066.986288,1068.49418,1068.49418,1068.49418,1068.49418,1068.49418,1068.49418,1068.49418,1068.49418,,,,,repeat,letter,lettRpt,d,noRew,,,,0.65789178,0,1069.178182,,,,,,,,,,,,,,,,,,,,,69140_2,2022-11-04_09h05.51.782,vts_reward_expectancy_bt_OFFLINE,2022.2.4,59.94947111
,,,,,,,,,,,,,,,,,,,,,,,,,,,,,,,,,,,,,,,,,,34,0,34,0,,,,,,,,,,,,,,,,,,,,,,,,0,711,,,1075.301784,,S,160,circle,0.001487008,,,,,1,0,,,,,,,,,,,1071.658155,1071.658155,1071.658155,1071.658155,1073.165877,1073.165877,1073.165877,1073.165877,1073.165877,1073.165877,1073.165877,1073.165877,,,,,repeat,letter,lettRpt,f,noRew,,,,0.609865101,0,1073.800032,,,,,,,,,,,,,,,,,,,,,69140_2,2022-11-04_09h05.51.782,vts_reward_expectancy_bt_OFFLINE,2022.2.4,59.94947111
,,,,,,,,,,,,,,,,,,,,,,,,,,,,,,,,,,,,,,,,,,35,0,35,0,,,,,,,,,,,,,,,,,,,,,,,,0,711,,,1079.973553,,D,167,star,0.001451391,,,,,1,0,,,,,,,,,,,1076.279755,1076.279755,1076.279755,1076.279755,1077.787819,1077.787819,1077.787819,1077.787819,1077.787819,1077.787819,1077.787819,1077.787819,,,,,switch,number,numSwt,k,noRew,,,,0.657654823,0,1078.471818,,,,,,,,,,,,,,,,,,,,,69140_2,2022-11-04_09h05.51.782,vts_reward_expectancy_bt_OFFLINE,2022.2.4,59.94947111
,,,,,,,,,,,,,,,,,,,,,,,,,,,,,,,,,,,,,,,,,,36,0,36,0,,,,,,,,,,,,,,,,,,,,,,,,0,711,,,1084.96217,,D,146,circle,0.001637204,,,,,1,0,,,,,,,,,,,1080.952603,1080.952603,1080.952603,1080.952603,1082.459464,1082.459464,1082.459464,1082.459464,1082.459464,1082.459464,1082.459464,1082.459464,,,,,repeat,number,numRpt,j,noRew,,,,0.981293866,0,1083.460718,,,,,,,,,,,,,,,,,,,,,69140_2,2022-11-04_09h05.51.782,vts_reward_expectancy_bt_OFFLINE,2022.2.4,59.94947111
,,,,,,,,,,,,,,,,,,,,,,,,,,,,,,,,,,,,,,,,,,37,0,37,0,,,,,,,,,,,,,,,,,,,,,,,,0,711,,,1090.184724,,U,167,triangle,0.001515328,,,,,1,0,,,,,,,,,,,1085.942195,1085.942195,1085.942195,1085.942195,1087.448265,1087.448265,1087.448265,1087.448265,1087.448265,1087.448265,1087.448265,1087.448265,,,,,repeat,number,numRpt,k,noRew,,,,1.211969688,0,1088.682998,,,,,,,,,,,,,,,,,,,,,69140_2,2022-11-04_09h05.51.782,vts_reward_expectancy_bt_OFFLINE,2022.2.4,59.94947111
