LTriangleOpac,LCircleOpac,LHexagonOpac,LStarOpac,RTriangleOpac,RCircleOpac,RHexagonOpac,RStarOpac,LShape_ID,RShape_ID,training_blocks.thisRepN,training_blocks.thisTrialN,training_blocks.thisN,training_blocks.thisIndex,training.thisRepN,training.thisTrialN,training.thisN,training.thisIndex,task1_prac_redo.thisRepN,task1_prac_redo.thisTrialN,task1_prac_redo.thisN,task1_prac_redo.thisIndex,task1_prac_trials.thisRepN,task1_prac_trials.thisTrialN,task1_prac_trials.thisN,task1_prac_trials.thisIndex,task2_prac_redo.thisRepN,task2_prac_redo.thisTrialN,task2_prac_redo.thisN,task2_prac_redo.thisIndex,task2_praac_trials.thisRepN,task2_praac_trials.thisTrialN,task2_praac_trials.thisN,task2_praac_trials.thisIndex,vts_prac_redo.thisRepN,vts_prac_redo.thisTrialN,vts_prac_redo.thisN,vts_prac_redo.thisIndex,vts_practice_trials.thisRepN,vts_practice_trials.thisTrialN,vts_practice_trials.thisN,vts_practice_trials.thisIndex,trials_norew.thisRepN,trials_norew.thisTrialN,trials_norew.thisN,trials_norew.thisIndex,block.thisRepN,block.thisTrialN,block.thisN,block.thisIndex,trials_rew.thisRepN,trials_rew.thisTrialN,trials_rew.thisN,trials_rew.thisIndex,key_resp.started,key_resp.keys,key_resp.rt,left_circle.started,right_circle.started,left_triangle.started,right_triangle.started,left_star.started,right_star.started,left_hexagon.started,right_hexagon.started,training_fix.started,training_resp.started,training_resp.keys,training_resp.rt,points_trial,points_cumul,trainBlock,training_feedback_txt.started,training_feedback_txt.stopped,fix.started,fix.stopped,curr_topStim,curr_bottStim,curr_shape,ISI.started,tgt_fix_prac1.started,top_target_prac1.started,bott_target_prac1.started,target_resp_prac1.started,acc,E1,target_resp_prac1.keys,target_resp_prac1.rt,pracBlock,prac_fback_text.started,prac_fback_text.stopped,tgt_fix_prac2.started,top_target_prac2.started,bott_target_prac2.started,target_resp_prac2.started,target_resp_prac2.keys,target_resp_prac2.rt,star.started,hegagon.started,triangle.started,circle.started,top_target.started,tgt_fix.started,bot_target.started,target_resp.started,star.stopped,hegagon.stopped,triangle.stopped,circle.stopped,top_target.stopped,tgt_fix.stopped,bot_target.stopped,target_resp.stopped,alt,task,condition,target_resp.keys,rewCond,vts_fback.started,target_resp.rt,vts_fback.stopped,blockNum,norew_fback.started,norew_fback.stopped,key_resp_2.keys,key_resp_2.rt,rewExpectancy,feedbk_text.started,feedbk_text.stopped,text_3.started,debrief.started,text_3.stopped,button.started,debrief.index,debrief.itemText,debrief.type,debrief.granularity,debrief.font,debrief.markerColor,debrief.response,debrief.rt,button.numClicks,button.timesOn,button.timesOff,participant,date,expName,psychopyVersion,frameRate
,,,,,,,,,,,,,,,,,,,,,,,,,,,,,,,,,,,,,,,,,,,,,,,,,,,,,,11.93218109,space,1.84975425,,,,,,,,,,,,,,,,,,,,,,,,,,,,,,,,,,,,,,,,,,,,,,,,,,,,,,,,,,,,,,,,,,,,,,,,,,,,,,,,,,,,,,,,69140,2022-11-04_09h04.43.869,vts_reward_expectancy_bt_OFFLINE,2022.2.4,59.99473103
1,0,0,0,0,0,1,0,triangle,hexagon,0,0,0,0,0,0,0,1,,,,,,,,,,,,,,,,,,,,,,,,,,,,,,,,,,,,,,,,23.84056585,23.84056585,23.84056585,23.84056585,23.84056585,23.84056585,23.84056585,23.84056585,23.84056585,23.84056585,l,98.68731178,1,1,0,122.5545849,124.0540952,124.0540952,124.5542909,,,,,,,,,,,,,,,,,,,,,,,,,,,,,,,,,,,,,,,,,,,,,,,,,,,,,,,,,,,,,,,,,,,,,69140,2022-11-04_09h04.43.869,vts_reward_expectancy_bt_OFFLINE,2022.2.4,59.99473103
0,1,0,0,0,0,0,1,circle,star,0,0,0,0,0,1,1,5,,,,,,,,,,,,,,,,,,,,,,,,,,,,,,,,,,,,,,,,124.5542909,124.5542909,124.5542909,124.5542909,124.5542909,124.5542909,124.5542909,124.5542909,124.5542909,124.5542909,a,1.258345082,1,2,0,125.8398738,127.3403679,127.3403679,127.8408733,,,,,,,,,,,,,,,,,,,,,,,,,,,,,,,,,,,,,,,,,,,,,,,,,,,,,,,,,,,,,,,,,,,,,69140,2022-11-04_09h04.43.869,vts_reward_expectancy_bt_OFFLINE,2022.2.4,59.99473103
1,0,0,0,0,0,0,1,triangle,star,0,0,0,0,0,2,2,2,,,,,,,,,,,,,,,,,,,,,,,,,,,,,,,,,,,,,,,,127.8408733,127.8408733,127.8408733,127.8408733,127.8408733,127.8408733,127.8408733,127.8408733,127.8408733,127.8408733,a,2.528151867,10,12,0,130.3943204,131.893772,131.893772,132.3941028,,,,,,,,,,,,,,,,,,,,,,,,,,,,,,,,,,,,,,,,,,,,,,,,,,,,,,,,,,,,,,,,,,,,,69140,2022-11-04_09h04.43.869,vts_reward_expectancy_bt_OFFLINE,2022.2.4,59.99473103
0,0,1,0,0,1,0,0,hexagon,circle,0,0,0,0,0,3,3,7,,,,,,,,,,,,,,,,,,,,,,,,,,,,,,,,,,,,,,,,132.3941028,132.3941028,132.3941028,132.3941028,132.3941028,132.3941028,132.3941028,132.3941028,132.3941028,132.3941028,a,1.147579504,1,13,0,133.5612323,135.0618711,135.0618711,,,,,,,,,,,,,,,,,,,,,,,,,,,,,,,,,,,,,,,,,,,,,,,,,,,,,,,,,,,,,,,,,,,,,,69140,2022-11-04_09h04.43.869,vts_reward_expectancy_bt_OFFLINE,2022.2.4,59.99473103
0,0,1,0,0,0,0,1,hexagon,star,0,0,0,0,0,4,4,8,,,,,,,,,,,,,,,,,,,,,,,,,,,,,,,,,,,,,,,,135.5636456,135.5636456,135.5636456,135.5636456,135.5636456,135.5636456,135.5636456,135.5636456,135.5636456,135.5636456,a,0.768259119,1,14,0,136.3640705,137.8645723,137.8645723,138.3648421,,,,,,,,,,,,,,,,,,,,,,,,,,,,,,,,,,,,,,,,,,,,,,,,,,,,,,,,,,,,,,,,,,,,,69140,2022-11-04_09h04.43.869,vts_reward_expectancy_bt_OFFLINE,2022.2.4,59.99473103
0,0,1,0,1,0,0,0,hexagon,triangle,0,0,0,0,0,5,5,6,,,,,,,,,,,,,,,,,,,,,,,,,,,,,,,,,,,,,,,,138.3648421,138.3648421,138.3648421,138.3648421,138.3648421,138.3648421,138.3648421,138.3648421,138.3648421,138.3648421,l,0.656646007,10,24,0,139.0484932,,140.5509233,,,,,,,,,,,,,,,,,,,,,,,,,,,,,,,,,,,,,,,,,,,,,,,,,,,,,,,,,,,,,,,,,,,,,,69140,2022-11-04_09h04.43.869,vts_reward_expectancy_bt_OFFLINE,2022.2.4,59.99473103
0,0,0,1,0,0,1,0,star,hexagon,0,0,0,0,0,6,6,11,,,,,,,,,,,,,,,,,,,,,,,,,,,,,,,,,,,,,,,,141.0507422,141.0507422,141.0507422,141.0507422,141.0507422,141.0507422,141.0507422,141.0507422,141.0507422,141.0507422,l,1.918846576,1,25,0,143.0016738,144.5020779,144.5020779,,,,,,,,,,,,,,,,,,,,,,,,,,,,,,,,,,,,,,,,,,,,,,,,,,,,,,,,,,,,,,,,,,,,,,69140,2022-11-04_09h04.43.869,vts_reward_expectancy_bt_OFFLINE,2022.2.4,59.99473103
0,1,0,0,1,0,0,0,circle,triangle,0,0,0,0,0,7,7,3,,,,,,,,,,,,,,,,,,,,,,,,,,,,,,,,,,,,,,,,145.002316,145.002316,145.002316,145.002316,145.002316,145.002316,145.002316,145.002316,145.002316,145.002316,a,0.982919878,10,35,0,146.0049676,147.5050995,147.5050995,148.0054187,,,,,,,,,,,,,,,,,,,,,,,,,,,,,,,,,,,,,,,,,,,,,,,,,,,,,,,,,,,,,,,,,,,,,69140,2022-11-04_09h04.43.869,vts_reward_expectancy_bt_OFFLINE,2022.2.4,59.99473103
0,0,0,1,1,0,0,0,star,triangle,0,0,0,0,0,8,8,9,,,,,,,,,,,,,,,,,,,,,,,,,,,,,,,,,,,,,,,,148.0054187,148.0054187,148.0054187,148.0054187,148.0054187,148.0054187,148.0054187,148.0054187,148.0054187,148.0054187,l,1.061620959,10,45,0,149.0889589,,150.5913047,,,,,,,,,,,,,,,,,,,,,,,,,,,,,,,,,,,,,,,,,,,,,,,,,,,,,,,,,,,,,,,,,,,,,,69140,2022-11-04_09h04.43.869,vts_reward_expectancy_bt_OFFLINE,2022.2.4,59.99473103
0,0,0,1,0,1,0,0,star ,circle,0,0,0,0,0,9,9,10,,,,,,,,,,,,,,,,,,,,,,,,,,,,,,,,,,,,,,,,151.0915294,151.0915294,151.0915294,151.0915294,151.0915294,151.0915294,151.0915294,151.0915294,151.0915294,151.0915294,a,0.541290652,10,55,0,151.6584076,153.1588593,153.1588593,,,,,,,,,,,,,,,,,,,,,,,,,,,,,,,,,,,,,,,,,,,,,,,,,,,,,,,,,,,,,,,,,,,,,,69140,2022-11-04_09h04.43.869,vts_reward_expectancy_bt_OFFLINE,2022.2.4,59.99473103
1,0,0,0,0,1,0,0,triangle,circle,0,0,0,0,0,10,10,0,,,,,,,,,,,,,,,,,,,,,,,,,,,,,,,,,,,,,,,,153.6592113,153.6592113,153.6592113,153.6592113,153.6592113,153.6592113,153.6592113,153.6592113,153.6592113,153.6592113,l,1.044195566,1,56,0,154.7267557,,156.2286653,,,,,,,,,,,,,,,,,,,,,,,,,,,,,,,,,,,,,,,,,,,,,,,,,,,,,,,,,,,,,,,,,,,,,,69140,2022-11-04_09h04.43.869,vts_reward_expectancy_bt_OFFLINE,2022.2.4,59.99473103
0,1,0,0,0,0,1,0,circle,hexagon,0,0,0,0,0,11,11,4,,,,,,,,,,,,,,,,,,,,,,,,,,,,,,,,,,,,,,,,156.7289345,156.7289345,156.7289345,156.7289345,156.7289345,156.7289345,156.7289345,156.7289345,156.7289345,156.7289345,a,1.192613575,1,57,0,157.9459887,159.4463258,159.4463258,159.9465593,,,,,,,,,,,,,,,,,,,,,,,,,,,,,,,,,,,,,,,,,,,,,,,,,,,,,,,,,,,,,,,,,,,,,69140,2022-11-04_09h04.43.869,vts_reward_expectancy_bt_OFFLINE,2022.2.4,59.99473103
0,0,1,0,0,0,0,1,hexagon,star,0,0,0,0,1,0,12,8,,,,,,,,,,,,,,,,,,,,,,,,,,,,,,,,,,,,,,,,159.9465593,159.9465593,159.9465593,159.9465593,159.9465593,159.9465593,159.9465593,159.9465593,159.9465593,159.9465593,a,1.147637846,1,58,0,161.1155102,162.6162603,162.6162603,163.1159702,,,,,,,,,,,,,,,,,,,,,,,,,,,,,,,,,,,,,,,,,,,,,,,,,,,,,,,,,,,,,,,,,,,,,69140,2022-11-04_09h04.43.869,vts_reward_expectancy_bt_OFFLINE,2022.2.4,59.99473103
0,0,0,1,1,0,0,0,star,triangle,0,0,0,0,1,1,13,9,,,,,,,,,,,,,,,,,,,,,,,,,,,,,,,,,,,,,,,,163.1159702,163.1159702,163.1159702,163.1159702,163.1159702,163.1159702,163.1159702,163.1159702,163.1159702,163.1159702,a,0.362806596,1,59,0,163.4995026,165.0003022,165.0003022,,,,,,,,,,,,,,,,,,,,,,,,,,,,,,,,,,,,,,,,,,,,,,,,,,,,,,,,,,,,,,,,,,,,,,69140,2022-11-04_09h04.43.869,vts_reward_expectancy_bt_OFFLINE,2022.2.4,59.99473103
1,0,0,0,0,0,0,1,triangle,star,0,0,0,0,1,2,14,2,,,,,,,,,,,,,,,,,,,,,,,,,,,,,,,,,,,,,,,,165.5022278,165.5022278,165.5022278,165.5022278,165.5022278,165.5022278,165.5022278,165.5022278,165.5022278,165.5022278,l,0.755328606,1,60,0,166.2858392,167.7864049,167.7864049,168.2865783,,,,,,,,,,,,,,,,,,,,,,,,,,,,,,,,,,,,,,,,,,,,,,,,,,,,,,,,,,,,,,,,,,,,,69140,2022-11-04_09h04.43.869,vts_reward_expectancy_bt_OFFLINE,2022.2.4,59.99473103
0,0,1,0,1,0,0,0,hexagon,triangle,0,0,0,0,1,3,15,6,,,,,,,,,,,,,,,,,,,,,,,,,,,,,,,,,,,,,,,,168.2865783,168.2865783,168.2865783,168.2865783,168.2865783,168.2865783,168.2865783,168.2865783,168.2865783,168.2865783,a,0.705509322,1,61,0,169.0202127,,170.52249,,,,,,,,,,,,,,,,,,,,,,,,,,,,,,,,,,,,,,,,,,,,,,,,,,,,,,,,,,,,,,,,,,,,,,69140,2022-11-04_09h04.43.869,vts_reward_expectancy_bt_OFFLINE,2022.2.4,59.99473103
1,0,0,0,0,0,1,0,triangle,hexagon,0,0,0,0,1,4,16,1,,,,,,,,,,,,,,,,,,,,,,,,,,,,,,,,,,,,,,,,171.0228057,171.0228057,171.0228057,171.0228057,171.0228057,171.0228057,171.0228057,171.0228057,171.0228057,171.0228057,l,0.309355652,1,62,0,171.3562157,172.8568667,172.8568667,173.3569273,,,,,,,,,,,,,,,,,,,,,,,,,,,,,,,,,,,,,,,,,,,,,,,,,,,,,,,,,,,,,,,,,,,,,69140,2022-11-04_09h04.43.869,vts_reward_expectancy_bt_OFFLINE,2022.2.4,59.99473103
0,1,0,0,0,0,1,0,circle,hexagon,0,0,0,0,1,5,17,4,,,,,,,,,,,,,,,,,,,,,,,,,,,,,,,,,,,,,,,,173.3569273,173.3569273,173.3569273,173.3569273,173.3569273,173.3569273,173.3569273,173.3569273,173.3569273,173.3569273,a,0.472041592,10,72,0,173.857488,,175.35956,,,,,,,,,,,,,,,,,,,,,,,,,,,,,,,,,,,,,,,,,,,,,,,,,,,,,,,,,,,,,,,,,,,,,,69140,2022-11-04_09h04.43.869,vts_reward_expectancy_bt_OFFLINE,2022.2.4,59.99473103
0,0,1,0,0,1,0,0,hexagon,circle,0,0,0,0,1,6,18,7,,,,,,,,,,,,,,,,,,,,,,,,,,,,,,,,,,,,,,,,175.8597627,175.8597627,175.8597627,175.8597627,175.8597627,175.8597627,175.8597627,175.8597627,175.8597627,175.8597627,a,0.963155141,1,73,0,176.8437332,178.3438996,178.3438996,,,,,,,,,,,,,,,,,,,,,,,,,,,,,,,,,,,,,,,,,,,,,,,,,,,,,,,,,,,,,,,,,,,,,,69140,2022-11-04_09h04.43.869,vts_reward_expectancy_bt_OFFLINE,2022.2.4,59.99473103
0,0,0,1,0,0,1,0,star,hexagon,0,0,0,0,1,7,19,11,,,,,,,,,,,,,,,,,,,,,,,,,,,,,,,,,,,,,,,,178.844057,178.844057,178.844057,178.844057,178.844057,178.844057,178.844057,178.844057,178.844057,178.844057,l,0.621368896,1,74,0,179.4942042,,180.9966892,,,,,,,,,,,,,,,,,,,,,,,,,,,,,,,,,,,,,,,,,,,,,,,,,,,,,,,,,,,,,,,,,,,,,,69140,2022-11-04_09h04.43.869,vts_reward_expectancy_bt_OFFLINE,2022.2.4,59.99473103
0,1,0,0,0,0,0,1,circle,star,0,0,0,0,1,8,20,5,,,,,,,,,,,,,,,,,,,,,,,,,,,,,,,,,,,,,,,,181.4968277,181.4968277,181.4968277,181.4968277,181.4968277,181.4968277,181.4968277,181.4968277,181.4968277,181.4968277,a,0.466916421,10,84,0,181.9809784,183.4807945,183.4807945,183.981022,,,,,,,,,,,,,,,,,,,,,,,,,,,,,,,,,,,,,,,,,,,,,,,,,,,,,,,,,,,,,,,,,,,,,69140,2022-11-04_09h04.43.869,vts_reward_expectancy_bt_OFFLINE,2022.2.4,59.99473103
1,0,0,0,0,1,0,0,triangle,circle,0,0,0,0,1,9,21,0,,,,,,,,,,,,,,,,,,,,,,,,,,,,,,,,,,,,,,,,183.981022,183.981022,183.981022,183.981022,183.981022,183.981022,183.981022,183.981022,183.981022,183.981022,l,0.502757006,10,94,0,184.5146253,,186.0169269,,,,,,,,,,,,,,,,,,,,,,,,,,,,,,,,,,,,,,,,,,,,,,,,,,,,,,,,,,,,,,,,,,,,,,69140,2022-11-04_09h04.43.869,vts_reward_expectancy_bt_OFFLINE,2022.2.4,59.99473103
0,1,0,0,1,0,0,0,circle,triangle,0,0,0,0,1,10,22,3,,,,,,,,,,,,,,,,,,,,,,,,,,,,,,,,,,,,,,,,186.5172341,186.5172341,186.5172341,186.5172341,186.5172341,186.5172341,186.5172341,186.5172341,186.5172341,186.5172341,a,4.626647976,10,104,0,191.17053,192.6710762,192.6710762,,,,,,,,,,,,,,,,,,,,,,,,,,,,,,,,,,,,,,,,,,,,,,,,,,,,,,,,,,,,,,,,,,,,,,69140,2022-11-04_09h04.43.869,vts_reward_expectancy_bt_OFFLINE,2022.2.4,59.99473103
0,0,0,1,0,1,0,0,star ,circle,0,0,0,0,1,11,23,10,,,,,,,,,,,,,,,,,,,,,,,,,,,,,,,,,,,,,,,,193.1713473,193.1713473,193.1713473,193.1713473,193.1713473,193.1713473,193.1713473,193.1713473,193.1713473,193.1713473,l,0.064410857,1,105,0,193.255224,194.7553361,194.7553361,,,,,,,,,,,,,,,,,,,,,,,,,,,,,,,,,,,,,,,,,,,,,,,,,,,,,,,,,,,,,,,,,,,,,,69140,2022-11-04_09h04.43.869,vts_reward_expectancy_bt_OFFLINE,2022.2.4,59.99473103
0,0,1,0,1,0,0,0,hexagon,triangle,0,0,0,0,2,0,24,6,,,,,,,,,,,,,,,,,,,,,,,,,,,,,,,,,,,,,,,,195.2555492,195.2555492,195.2555492,195.2555492,195.2555492,195.2555492,195.2555492,195.2555492,195.2555492,195.2555492,l,0.276267189,10,115,0,195.557979,197.0580933,197.0580933,197.5582368,,,,,,,,,,,,,,,,,,,,,,,,,,,,,,,,,,,,,,,,,,,,,,,,,,,,,,,,,,,,,,,,,,,,,69140,2022-11-04_09h04.43.869,vts_reward_expectancy_bt_OFFLINE,2022.2.4,59.99473103
0,0,0,1,0,0,1,0,star,hexagon,0,0,0,0,2,1,25,11,,,,,,,,,,,,,,,,,,,,,,,,,,,,,,,,,,,,,,,,197.5582368,197.5582368,197.5582368,197.5582368,197.5582368,197.5582368,197.5582368,197.5582368,197.5582368,197.5582368,l,0.572096009,1,116,0,198.1583362,199.6590556,199.6590556,,,,,,,,,,,,,,,,,,,,,,,,,,,,,,,,,,,,,,,,,,,,,,,,,,,,,,,,,,,,,,,,,,,,,,69140,2022-11-04_09h04.43.869,vts_reward_expectancy_bt_OFFLINE,2022.2.4,59.99473103
0,0,1,0,0,1,0,0,hexagon,circle,0,0,0,0,2,2,26,7,,,,,,,,,,,,,,,,,,,,,,,,,,,,,,,,,,,,,,,,200.1591012,200.1591012,200.1591012,200.1591012,200.1591012,200.1591012,200.1591012,200.1591012,200.1591012,200.1591012,a,0.209959949,10,126,0,200.3946494,201.8949579,201.8949579,202.3951605,,,,,,,,,,,,,,,,,,,,,,,,,,,,,,,,,,,,,,,,,,,,,,,,,,,,,,,,,,,,,,,,,,,,,69140,2022-11-04_09h04.43.869,vts_reward_expectancy_bt_OFFLINE,2022.2.4,59.99473103
1,0,0,0,0,0,1,0,triangle,hexagon,0,0,0,0,2,3,27,1,,,,,,,,,,,,,,,,,,,,,,,,,,,,,,,,,,,,,,,,202.3951605,202.3951605,202.3951605,202.3951605,202.3951605,202.3951605,202.3951605,202.3951605,202.3951605,202.3951605,a,0.382433728,10,136,0,202.7950904,204.2957748,204.2957748,204.7957911,,,,,,,,,,,,,,,,,,,,,,,,,,,,,,,,,,,,,,,,,,,,,,,,,,,,,,,,,,,,,,,,,,,,,69140,2022-11-04_09h04.43.869,vts_reward_expectancy_bt_OFFLINE,2022.2.4,59.99473103
0,0,1,0,0,0,0,1,hexagon,star,0,0,0,0,2,4,28,8,,,,,,,,,,,,,,,,,,,,,,,,,,,,,,,,,,,,,,,,204.7957911,204.7957911,204.7957911,204.7957911,204.7957911,204.7957911,204.7957911,204.7957911,204.7957911,204.7957911,a,0.344115185,1,137,0,205.1634499,,206.6653583,,,,,,,,,,,,,,,,,,,,,,,,,,,,,,,,,,,,,,,,,,,,,,,,,,,,,,,,,,,,,,,,,,,,,,69140,2022-11-04_09h04.43.869,vts_reward_expectancy_bt_OFFLINE,2022.2.4,59.99473103
0,1,0,0,1,0,0,0,circle,triangle,0,0,0,0,2,5,29,3,,,,,,,,,,,,,,,,,,,,,,,,,,,,,,,,,,,,,,,,207.1653203,207.1653203,207.1653203,207.1653203,207.1653203,207.1653203,207.1653203,207.1653203,207.1653203,207.1653203,l,0.460781363,1,138,0,207.6488415,209.1493496,209.1493496,209.6493053,,,,,,,,,,,,,,,,,,,,,,,,,,,,,,,,,,,,,,,,,,,,,,,,,,,,,,,,,,,,,,,,,,,,,69140,2022-11-04_09h04.43.869,vts_reward_expectancy_bt_OFFLINE,2022.2.4,59.99473103
0,1,0,0,0,0,0,1,circle,star,0,0,0,0,2,6,30,5,,,,,,,,,,,,,,,,,,,,,,,,,,,,,,,,,,,,,,,,209.6493053,209.6493053,209.6493053,209.6493053,209.6493053,209.6493053,209.6493053,209.6493053,209.6493053,209.6493053,a,0.360852627,10,148,0,210.033547,,211.5355818,,,,,,,,,,,,,,,,,,,,,,,,,,,,,,,,,,,,,,,,,,,,,,,,,,,,,,,,,,,,,,,,,,,,,,69140,2022-11-04_09h04.43.869,vts_reward_expectancy_bt_OFFLINE,2022.2.4,59.99473103
1,0,0,0,0,1,0,0,triangle,circle,0,0,0,0,2,7,31,0,,,,,,,,,,,,,,,,,,,,,,,,,,,,,,,,,,,,,,,,212.0357188,212.0357188,212.0357188,212.0357188,212.0357188,212.0357188,212.0357188,212.0357188,212.0357188,212.0357188,a,0.27000566,10,158,0,212.3355778,213.8361088,213.8361088,214.3365352,,,,,,,,,,,,,,,,,,,,,,,,,,,,,,,,,,,,,,,,,,,,,,,,,,,,,,,,,,,,,,,,,,,,,69140,2022-11-04_09h04.43.869,vts_reward_expectancy_bt_OFFLINE,2022.2.4,59.99473103
0,0,0,1,0,1,0,0,star ,circle,0,0,0,0,2,8,32,10,,,,,,,,,,,,,,,,,,,,,,,,,,,,,,,,,,,,,,,,214.3365352,214.3365352,214.3365352,214.3365352,214.3365352,214.3365352,214.3365352,214.3365352,214.3365352,214.3365352,l,0.353868431,10,168,0,214.7198992,,216.2222137,,,,,,,,,,,,,,,,,,,,,,,,,,,,,,,,,,,,,,,,,,,,,,,,,,,,,,,,,,,,,,,,,,,,,,69140,2022-11-04_09h04.43.869,vts_reward_expectancy_bt_OFFLINE,2022.2.4,59.99473103
1,0,0,0,0,0,0,1,triangle,star,0,0,0,0,2,9,33,2,,,,,,,,,,,,,,,,,,,,,,,,,,,,,,,,,,,,,,,,216.722408,216.722408,216.722408,216.722408,216.722408,216.722408,216.722408,216.722408,216.722408,216.722408,l,0.241553004,1,169,0,216.9896353,218.4898863,218.4898863,218.9898405,,,,,,,,,,,,,,,,,,,,,,,,,,,,,,,,,,,,,,,,,,,,,,,,,,,,,,,,,,,,,,,,,,,,,69140,2022-11-04_09h04.43.869,vts_reward_expectancy_bt_OFFLINE,2022.2.4,59.99473103
0,1,0,0,0,0,1,0,circle,hexagon,0,0,0,0,2,10,34,4,,,,,,,,,,,,,,,,,,,,,,,,,,,,,,,,,,,,,,,,218.9898405,218.9898405,218.9898405,218.9898405,218.9898405,218.9898405,218.9898405,218.9898405,218.9898405,218.9898405,a,0.324474489,10,179,0,219.3408237,,220.8423863,,,,,,,,,,,,,,,,,,,,,,,,,,,,,,,,,,,,,,,,,,,,,,,,,,,,,,,,,,,,,,,,,,,,,,69140,2022-11-04_09h04.43.869,vts_reward_expectancy_bt_OFFLINE,2022.2.4,59.99473103
0,0,0,1,1,0,0,0,star,triangle,0,0,0,0,2,11,35,9,,,,,,,,,,,,,,,,,,,,,,,,,,,,,,,,,,,,,,,,221.3426208,221.3426208,221.3426208,221.3426208,221.3426208,221.3426208,221.3426208,221.3426208,221.3426208,221.3426208,a,0.42453729,1,180,0,221.7932621,223.293338,223.293338,223.7933312,,,,,,,,,,,,,,,,,,,,,,,,,,,,,,,,,,,,,,,,,,,,,,,,,,,,,,,,,,,,,,,,,,,,,69140,2022-11-04_09h04.43.869,vts_reward_expectancy_bt_OFFLINE,2022.2.4,59.99473103
0,0,1,0,1,0,0,0,hexagon,triangle,0,0,0,0,3,0,36,6,,,,,,,,,,,,,,,,,,,,,,,,,,,,,,,,,,,,,,,,223.7933312,223.7933312,223.7933312,223.7933312,223.7933312,223.7933312,223.7933312,223.7933312,223.7933312,223.7933312,l,0.234856077,10,190,0,224.0600749,,225.5625715,,,,,,,,,,,,,,,,,,,,,,,,,,,,,,,,,,,,,,,,,,,,,,,,,,,,,,,,,,,,,,,,,,,,,,69140,2022-11-04_09h04.43.869,vts_reward_expectancy_bt_OFFLINE,2022.2.4,59.99473103
0,0,1,0,0,1,0,0,hexagon,circle,0,0,0,0,3,1,37,7,,,,,,,,,,,,,,,,,,,,,,,,,,,,,,,,,,,,,,,,226.0628122,226.0628122,226.0628122,226.0628122,226.0628122,226.0628122,226.0628122,226.0628122,226.0628122,226.0628122,l,0.396600308,10,200,0,226.4794586,227.9802213,227.9802213,228.4804396,,,,,,,,,,,,,,,,,,,,,,,,,,,,,,,,,,,,,,,,,,,,,,,,,,,,,,,,,,,,,,,,,,,,,69140,2022-11-04_09h04.43.869,vts_reward_expectancy_bt_OFFLINE,2022.2.4,59.99473103
1,0,0,0,0,1,0,0,triangle,circle,0,0,0,0,3,2,38,0,,,,,,,,,,,,,,,,,,,,,,,,,,,,,,,,,,,,,,,,228.4804396,228.4804396,228.4804396,228.4804396,228.4804396,228.4804396,228.4804396,228.4804396,228.4804396,228.4804396,a,0.341434485,10,210,0,228.8470891,,230.3526084,,,,,,,,,,,,,,,,,,,,,,,,,,,,,,,,,,,,,,,,,,,,,,,,,,,,,,,,,,,,,,,,,,,,,,69140,2022-11-04_09h04.43.869,vts_reward_expectancy_bt_OFFLINE,2022.2.4,59.99473103
0,0,1,0,0,0,0,1,hexagon,star,0,0,0,0,3,3,39,8,,,,,,,,,,,,,,,,,,,,,,,,,,,,,,,,,,,,,,,,230.8496419,230.8496419,230.8496419,230.8496419,230.8496419,230.8496419,230.8496419,230.8496419,230.8496419,230.8496419,l,0.210471484,1,211,0,231.0836872,232.5837116,232.5837116,233.083897,,,,,,,,,,,,,,,,,,,,,,,,,,,,,,,,,,,,,,,,,,,,,,,,,,,,,,,,,,,,,,,,,,,,,69140,2022-11-04_09h04.43.869,vts_reward_expectancy_bt_OFFLINE,2022.2.4,59.99473103
1,0,0,0,0,0,0,1,triangle,star,0,0,0,0,3,4,40,2,,,,,,,,,,,,,,,,,,,,,,,,,,,,,,,,,,,,,,,,233.083897,233.083897,233.083897,233.083897,233.083897,233.083897,233.083897,233.083897,233.083897,233.083897,l,0.338418752,10,221,0,233.4514358,234.9513569,234.9513569,,,,,,,,,,,,,,,,,,,,,,,,,,,,,,,,,,,,,,,,,,,,,,,,,,,,,,,,,,,,,,,,,,,,,,69140,2022-11-04_09h04.43.869,vts_reward_expectancy_bt_OFFLINE,2022.2.4,59.99473103
1,0,0,0,0,0,1,0,triangle,hexagon,0,0,0,0,3,5,41,1,,,,,,,,,,,,,,,,,,,,,,,,,,,,,,,,,,,,,,,,235.4530812,235.4530812,235.4530812,235.4530812,235.4530812,235.4530812,235.4530812,235.4530812,235.4530812,235.4530812,a,0.445016064,1,222,0,235.920524,237.4205144,237.4205144,237.9210245,,,,,,,,,,,,,,,,,,,,,,,,,,,,,,,,,,,,,,,,,,,,,,,,,,,,,,,,,,,,,,,,,,,,,69140,2022-11-04_09h04.43.869,vts_reward_expectancy_bt_OFFLINE,2022.2.4,59.99473103
0,1,0,0,0,0,0,1,circle,star,0,0,0,0,3,6,42,5,,,,,,,,,,,,,,,,,,,,,,,,,,,,,,,,,,,,,,,,237.9210245,237.9210245,237.9210245,237.9210245,237.9210245,237.9210245,237.9210245,237.9210245,237.9210245,237.9210245,l,0.306305403,10,232,0,238.254977,239.7547184,239.7547184,240.2548883,,,,,,,,,,,,,,,,,,,,,,,,,,,,,,,,,,,,,,,,,,,,,,,,,,,,,,,,,,,,,,,,,,,,,69140,2022-11-04_09h04.43.869,vts_reward_expectancy_bt_OFFLINE,2022.2.4,59.99473103
0,0,0,1,0,1,0,0,star ,circle,0,0,0,0,3,7,43,10,,,,,,,,,,,,,,,,,,,,,,,,,,,,,,,,,,,,,,,,240.2548883,240.2548883,240.2548883,240.2548883,240.2548883,240.2548883,240.2548883,240.2548883,240.2548883,240.2548883,l,0.335131628,10,242,0,240.6069509,242.1074688,242.1074688,242.6074482,,,,,,,,,,,,,,,,,,,,,,,,,,,,,,,,,,,,,,,,,,,,,,,,,,,,,,,,,,,,,,,,,,,,,69140,2022-11-04_09h04.43.869,vts_reward_expectancy_bt_OFFLINE,2022.2.4,59.99473103
0,1,0,0,1,0,0,0,circle,triangle,0,0,0,0,3,8,44,3,,,,,,,,,,,,,,,,,,,,,,,,,,,,,,,,,,,,,,,,242.6074482,242.6074482,242.6074482,242.6074482,242.6074482,242.6074482,242.6074482,242.6074482,242.6074482,242.6074482,a,0.231626517,1,243,0,242.8589345,244.358189,244.358189,244.8584309,,,,,,,,,,,,,,,,,,,,,,,,,,,,,,,,,,,,,,,,,,,,,,,,,,,,,,,,,,,,,,,,,,,,,69140,2022-11-04_09h04.43.869,vts_reward_expectancy_bt_OFFLINE,2022.2.4,59.99473103
0,0,0,1,1,0,0,0,star,triangle,0,0,0,0,3,9,45,9,,,,,,,,,,,,,,,,,,,,,,,,,,,,,,,,,,,,,,,,244.8584309,244.8584309,244.8584309,244.8584309,244.8584309,244.8584309,244.8584309,244.8584309,244.8584309,244.8584309,l,0.298265331,10,253,0,245.1754503,,246.6775467,,,,,,,,,,,,,,,,,,,,,,,,,,,,,,,,,,,,,,,,,,,,,,,,,,,,,,,,,,,,,,,,,,,,,,69140,2022-11-04_09h04.43.869,vts_reward_expectancy_bt_OFFLINE,2022.2.4,59.99473103
0,0,0,1,0,0,1,0,star,hexagon,0,0,0,0,3,10,46,11,,,,,,,,,,,,,,,,,,,,,,,,,,,,,,,,,,,,,,,,247.1777518,247.1777518,247.1777518,247.1777518,247.1777518,247.1777518,247.1777518,247.1777518,247.1777518,247.1777518,l,0.342821564,1,254,0,247.5454906,249.0450917,249.0450917,249.5453582,,,,,,,,,,,,,,,,,,,,,,,,,,,,,,,,,,,,,,,,,,,,,,,,,,,,,,,,,,,,,,,,,,,,,69140,2022-11-04_09h04.43.869,vts_reward_expectancy_bt_OFFLINE,2022.2.4,59.99473103
0,1,0,0,0,0,1,0,circle,hexagon,0,0,0,0,3,11,47,4,,,,,,,,,,,,,,,,,,,,,,,,,,,,,,,,,,,,,,,,249.5453582,249.5453582,249.5453582,249.5453582,249.5453582,249.5453582,249.5453582,249.5453582,249.5453582,249.5453582,a,0.854740825,10,264,0,250.431553,251.9312729,251.9312729,252.4380576,,,,,,,,,,,,,,,,,,,,,,,,,,,,,,,,,,,,,,,,,,,,,,,,,,,,,,,,,,,,,,,,,,,,,69140,2022-11-04_09h04.43.869,vts_reward_expectancy_bt_OFFLINE,2022.2.4,59.99473103
0,0,1,0,1,0,0,0,hexagon,triangle,1,0,1,0,0,0,0,6,,,,,,,,,,,,,,,,,,,,,,,,,,,,,,,,,,,,,,,,259.7468562,259.7468562,259.7468562,259.7468562,259.7468562,259.7468562,259.7468562,259.7468562,259.7468562,259.7468562,a,0.441056156,10,274,1,260.2195325,,261.7220621,,,,,,,,,,,,,,,,,,,,,,,,,,,,,,,,,,,,,,,,,,,,,,,,,,,,,,,,,,,,,,,,,,,,,,69140,2022-11-04_09h04.43.869,vts_reward_expectancy_bt_OFFLINE,2022.2.4,59.99473103
1,0,0,0,0,0,1,0,triangle,hexagon,1,0,1,0,0,1,1,1,,,,,,,,,,,,,,,,,,,,,,,,,,,,,,,,,,,,,,,,262.2220644,262.2220644,262.2220644,262.2220644,262.2220644,262.2220644,262.2220644,262.2220644,262.2220644,262.2220644,a,0.653925292,10,284,1,262.9055644,264.4071013,264.4071013,264.9063421,,,,,,,,,,,,,,,,,,,,,,,,,,,,,,,,,,,,,,,,,,,,,,,,,,,,,,,,,,,,,,,,,,,,,69140,2022-11-04_09h04.43.869,vts_reward_expectancy_bt_OFFLINE,2022.2.4,59.99473103
1,0,0,0,0,0,0,1,triangle,star,1,0,1,0,0,2,2,2,,,,,,,,,,,,,,,,,,,,,,,,,,,,,,,,,,,,,,,,264.9063421,264.9063421,264.9063421,264.9063421,264.9063421,264.9063421,264.9063421,264.9063421,264.9063421,264.9063421,a,0.152610822,10,294,1,265.0895054,,266.5922461,,,,,,,,,,,,,,,,,,,,,,,,,,,,,,,,,,,,,,,,,,,,,,,,,,,,,,,,,,,,,,,,,,,,,,69140,2022-11-04_09h04.43.869,vts_reward_expectancy_bt_OFFLINE,2022.2.4,59.99473103
0,0,0,1,0,0,1,0,star,hexagon,1,0,1,0,0,3,3,11,,,,,,,,,,,,,,,,,,,,,,,,,,,,,,,,,,,,,,,,267.0923591,267.0923591,267.0923591,267.0923591,267.0923591,267.0923591,267.0923591,267.0923591,267.0923591,267.0923591,l,0.251200926,1,295,1,267.3755188,268.8762909,268.8762909,269.3764147,,,,,,,,,,,,,,,,,,,,,,,,,,,,,,,,,,,,,,,,,,,,,,,,,,,,,,,,,,,,,,,,,,,,,69140,2022-11-04_09h04.43.869,vts_reward_expectancy_bt_OFFLINE,2022.2.4,59.99473103
0,1,0,0,0,0,0,1,circle,star,1,0,1,0,0,4,4,5,,,,,,,,,,,,,,,,,,,,,,,,,,,,,,,,,,,,,,,,269.3764147,269.3764147,269.3764147,269.3764147,269.3764147,269.3764147,269.3764147,269.3764147,269.3764147,269.3764147,l,0.284846632,1,296,1,269.6933038,,271.1953851,,,,,,,,,,,,,,,,,,,,,,,,,,,,,,,,,,,,,,,,,,,,,,,,,,,,,,,,,,,,,,,,,,,,,,69140,2022-11-04_09h04.43.869,vts_reward_expectancy_bt_OFFLINE,2022.2.4,59.99473103
0,0,1,0,0,0,0,1,hexagon,star,1,0,1,0,0,5,5,8,,,,,,,,,,,,,,,,,,,,,,,,,,,,,,,,,,,,,,,,271.6957508,271.6957508,271.6957508,271.6957508,271.6957508,271.6957508,271.6957508,271.6957508,271.6957508,271.6957508,l,0.282108611,1,297,1,271.9960139,273.496336,273.496336,273.9966051,,,,,,,,,,,,,,,,,,,,,,,,,,,,,,,,,,,,,,,,,,,,,,,,,,,,,,,,,,,,,,,,,,,,,69140,2022-11-04_09h04.43.869,vts_reward_expectancy_bt_OFFLINE,2022.2.4,59.99473103
1,0,0,0,0,1,0,0,triangle,circle,1,0,1,0,0,6,6,0,,,,,,,,,,,,,,,,,,,,,,,,,,,,,,,,,,,,,,,,273.9966051,273.9966051,273.9966051,273.9966051,273.9966051,273.9966051,273.9966051,273.9966051,273.9966051,273.9966051,a,0.186036474,10,307,1,274.2141469,,275.7156386,,,,,,,,,,,,,,,,,,,,,,,,,,,,,,,,,,,,,,,,,,,,,,,,,,,,,,,,,,,,,,,,,,,,,,69140,2022-11-04_09h04.43.869,vts_reward_expectancy_bt_OFFLINE,2022.2.4,59.99473103
0,0,1,0,0,1,0,0,hexagon,circle,1,0,1,0,0,7,7,7,,,,,,,,,,,,,,,,,,,,,,,,,,,,,,,,,,,,,,,,276.2156856,276.2156856,276.2156856,276.2156856,276.2156856,276.2156856,276.2156856,276.2156856,276.2156856,276.2156856,a,0.341756965,1,308,1,276.5837504,278.0832432,278.0832432,278.5832617,,,,,,,,,,,,,,,,,,,,,,,,,,,,,,,,,,,,,,,,,,,,,,,,,,,,,,,,,,,,,,,,,,,,,69140,2022-11-04_09h04.43.869,vts_reward_expectancy_bt_OFFLINE,2022.2.4,59.99473103
0,0,0,1,1,0,0,0,star,triangle,1,0,1,0,0,8,8,9,,,,,,,,,,,,,,,,,,,,,,,,,,,,,,,,,,,,,,,,278.5832617,278.5832617,278.5832617,278.5832617,278.5832617,278.5832617,278.5832617,278.5832617,278.5832617,278.5832617,a,0.988852159,1,309,1,279.6002985,,281.1027559,,,,,,,,,,,,,,,,,,,,,,,,,,,,,,,,,,,,,,,,,,,,,,,,,,,,,,,,,,,,,,,,,,,,,,69140,2022-11-04_09h04.43.869,vts_reward_expectancy_bt_OFFLINE,2022.2.4,59.99473103
0,1,0,0,1,0,0,0,circle,triangle,1,0,1,0,0,9,9,3,,,,,,,,,,,,,,,,,,,,,,,,,,,,,,,,,,,,,,,,281.6030377,281.6030377,281.6030377,281.6030377,281.6030377,281.6030377,281.6030377,281.6030377,281.6030377,281.6030377,l,0.545003485,10,319,1,282.1711841,283.6701844,283.6701844,284.1704571,,,,,,,,,,,,,,,,,,,,,,,,,,,,,,,,,,,,,,,,,,,,,,,,,,,,,,,,,,,,,,,,,,,,,69140,2022-11-04_09h04.43.869,vts_reward_expectancy_bt_OFFLINE,2022.2.4,59.99473103
0,1,0,0,0,0,1,0,circle,hexagon,1,0,1,0,0,10,10,4,,,,,,,,,,,,,,,,,,,,,,,,,,,,,,,,,,,,,,,,284.1704571,284.1704571,284.1704571,284.1704571,284.1704571,284.1704571,284.1704571,284.1704571,284.1704571,284.1704571,a,0.452808233,10,329,1,284.6540095,,286.1565451,,,,,,,,,,,,,,,,,,,,,,,,,,,,,,,,,,,,,,,,,,,,,,,,,,,,,,,,,,,,,,,,,,,,,,69140,2022-11-04_09h04.43.869,vts_reward_expectancy_bt_OFFLINE,2022.2.4,59.99473103
0,0,0,1,0,1,0,0,star ,circle,1,0,1,0,0,11,11,10,,,,,,,,,,,,,,,,,,,,,,,,,,,,,,,,,,,,,,,,286.6567395,286.6567395,286.6567395,286.6567395,286.6567395,286.6567395,286.6567395,286.6567395,286.6567395,286.6567395,a,0.690131984,10,339,1,287.3733734,288.8741239,288.8741239,289.3740911,,,,,,,,,,,,,,,,,,,,,,,,,,,,,,,,,,,,,,,,,,,,,,,,,,,,,,,,,,,,,,,,,,,,,69140,2022-11-04_09h04.43.869,vts_reward_expectancy_bt_OFFLINE,2022.2.4,59.99473103
0,0,0,1,0,1,0,0,star ,circle,1,0,1,0,1,0,12,10,,,,,,,,,,,,,,,,,,,,,,,,,,,,,,,,,,,,,,,,289.3740911,289.3740911,289.3740911,289.3740911,289.3740911,289.3740911,289.3740911,289.3740911,289.3740911,289.3740911,l,0.446861567,10,349,1,289.8409863,,291.3433582,,,,,,,,,,,,,,,,,,,,,,,,,,,,,,,,,,,,,,,,,,,,,,,,,,,,,,,,,,,,,,,,,,,,,,69140,2022-11-04_09h04.43.869,vts_reward_expectancy_bt_OFFLINE,2022.2.4,59.99473103
0,1,0,0,0,0,1,0,circle,hexagon,1,0,1,0,1,1,13,4,,,,,,,,,,,,,,,,,,,,,,,,,,,,,,,,,,,,,,,,291.8438015,291.8438015,291.8438015,291.8438015,291.8438015,291.8438015,291.8438015,291.8438015,291.8438015,291.8438015,l,0.565540968,1,350,1,292.4282036,293.927755,293.927755,294.4279887,,,,,,,,,,,,,,,,,,,,,,,,,,,,,,,,,,,,,,,,,,,,,,,,,,,,,,,,,,,,,,,,,,,,,69140,2022-11-04_09h04.43.869,vts_reward_expectancy_bt_OFFLINE,2022.2.4,59.99473103
0,0,1,0,0,0,0,1,hexagon,star,1,0,1,0,1,2,14,8,,,,,,,,,,,,,,,,,,,,,,,,,,,,,,,,,,,,,,,,294.4279887,294.4279887,294.4279887,294.4279887,294.4279887,294.4279887,294.4279887,294.4279887,294.4279887,294.4279887,a,0.860857304,1,351,1,295.3113632,,296.8139633,,,,,,,,,,,,,,,,,,,,,,,,,,,,,,,,,,,,,,,,,,,,,,,,,,,,,,,,,,,,,,,,,,,,,,69140,2022-11-04_09h04.43.869,vts_reward_expectancy_bt_OFFLINE,2022.2.4,59.99473103
0,0,0,1,1,0,0,0,star,triangle,1,0,1,0,1,3,15,9,,,,,,,,,,,,,,,,,,,,,,,,,,,,,,,,,,,,,,,,297.3140945,297.3140945,297.3140945,297.3140945,297.3140945,297.3140945,297.3140945,297.3140945,297.3140945,297.3140945,a,0.832742208,10,361,1,298.1653605,299.6648452,299.6648452,,,,,,,,,,,,,,,,,,,,,,,,,,,,,,,,,,,,,,,,,,,,,,,,,,,,,,,,,,,,,,,,,,,,,,69140,2022-11-04_09h04.43.869,vts_reward_expectancy_bt_OFFLINE,2022.2.4,59.99473103
0,0,1,0,1,0,0,0,hexagon,triangle,1,0,1,0,1,4,16,6,,,,,,,,,,,,,,,,,,,,,,,,,,,,,,,,,,,,,,,,300.1653146,300.1653146,300.1653146,300.1653146,300.1653146,300.1653146,300.1653146,300.1653146,300.1653146,300.1653146,l,1.041686165,10,371,1,301.2339482,302.7348093,302.7348093,303.2346949,,,,,,,,,,,,,,,,,,,,,,,,,,,,,,,,,,,,,,,,,,,,,,,,,,,,,,,,,,,,,,,,,,,,,69140,2022-11-04_09h04.43.869,vts_reward_expectancy_bt_OFFLINE,2022.2.4,59.99473103
0,1,0,0,1,0,0,0,circle,triangle,1,0,1,0,1,5,17,3,,,,,,,,,,,,,,,,,,,,,,,,,,,,,,,,,,,,,,,,303.2346949,303.2346949,303.2346949,303.2346949,303.2346949,303.2346949,303.2346949,303.2346949,303.2346949,303.2346949,l,0.446833632,10,381,1,303.7014617,305.2023986,305.2023986,,,,,,,,,,,,,,,,,,,,,,,,,,,,,,,,,,,,,,,,,,,,,,,,,,,,,,,,,,,,,,,,,,,,,,69140,2022-11-04_09h04.43.869,vts_reward_expectancy_bt_OFFLINE,2022.2.4,59.99473103
1,0,0,0,0,0,0,1,triangle,star,1,0,1,0,1,6,18,2,,,,,,,,,,,,,,,,,,,,,,,,,,,,,,,,,,,,,,,,305.7039817,305.7039817,305.7039817,305.7039817,305.7039817,305.7039817,305.7039817,305.7039817,305.7039817,305.7039817,a,0.835114348,10,391,1,306.5710802,308.0716645,308.0716645,308.5717814,,,,,,,,,,,,,,,,,,,,,,,,,,,,,,,,,,,,,,,,,,,,,,,,,,,,,,,,,,,,,,,,,,,,,69140,2022-11-04_09h04.43.869,vts_reward_expectancy_bt_OFFLINE,2022.2.4,59.99473103
0,0,0,1,0,0,1,0,star,hexagon,1,0,1,0,1,7,19,11,,,,,,,,,,,,,,,,,,,,,,,,,,,,,,,,,,,,,,,,308.5717814,308.5717814,308.5717814,308.5717814,308.5717814,308.5717814,308.5717814,308.5717814,308.5717814,308.5717814,a,0.465176875,1,392,1,309.0565556,,310.5577439,,,,,,,,,,,,,,,,,,,,,,,,,,,,,,,,,,,,,,,,,,,,,,,,,,,,,,,,,,,,,,,,,,,,,,69140,2022-11-04_09h04.43.869,vts_reward_expectancy_bt_OFFLINE,2022.2.4,59.99473103
0,1,0,0,0,0,0,1,circle,star,1,0,1,0,1,8,20,5,,,,,,,,,,,,,,,,,,,,,,,,,,,,,,,,,,,,,,,,311.0580563,311.0580563,311.0580563,311.0580563,311.0580563,311.0580563,311.0580563,311.0580563,311.0580563,311.0580563,a,0.477002009,10,402,1,311.5592745,313.0587442,313.0587442,313.5587905,,,,,,,,,,,,,,,,,,,,,,,,,,,,,,,,,,,,,,,,,,,,,,,,,,,,,,,,,,,,,,,,,,,,,69140,2022-11-04_09h04.43.869,vts_reward_expectancy_bt_OFFLINE,2022.2.4,59.99473103
1,0,0,0,0,1,0,0,triangle,circle,1,0,1,0,1,9,21,0,,,,,,,,,,,,,,,,,,,,,,,,,,,,,,,,,,,,,,,,313.5587905,313.5587905,313.5587905,313.5587905,313.5587905,313.5587905,313.5587905,313.5587905,313.5587905,313.5587905,a,0.608189138,10,412,1,314.1922541,,315.6947745,,,,,,,,,,,,,,,,,,,,,,,,,,,,,,,,,,,,,,,,,,,,,,,,,,,,,,,,,,,,,,,,,,,,,,69140,2022-11-04_09h04.43.869,vts_reward_expectancy_bt_OFFLINE,2022.2.4,59.99473103
1,0,0,0,0,0,1,0,triangle,hexagon,1,0,1,0,1,10,22,1,,,,,,,,,,,,,,,,,,,,,,,,,,,,,,,,,,,,,,,,316.1949255,316.1949255,316.1949255,316.1949255,316.1949255,316.1949255,316.1949255,316.1949255,316.1949255,316.1949255,a,0.785306,10,422,1,317.0118544,318.5126252,318.5126252,319.0127086,,,,,,,,,,,,,,,,,,,,,,,,,,,,,,,,,,,,,,,,,,,,,,,,,,,,,,,,,,,,,,,,,,,,,69140,2022-11-04_09h04.43.869,vts_reward_expectancy_bt_OFFLINE,2022.2.4,59.99473103
0,0,1,0,0,1,0,0,hexagon,circle,1,0,1,0,1,11,23,7,,,,,,,,,,,,,,,,,,,,,,,,,,,,,,,,,,,,,,,,319.0127086,319.0127086,319.0127086,319.0127086,319.0127086,319.0127086,319.0127086,319.0127086,319.0127086,319.0127086,l,0.487182415,1,423,1,319.5304706,,321.0317295,,,,,,,,,,,,,,,,,,,,,,,,,,,,,,,,,,,,,,,,,,,,,,,,,,,,,,,,,,,,,,,,,,,,,,69140,2022-11-04_09h04.43.869,vts_reward_expectancy_bt_OFFLINE,2022.2.4,59.99473103
0,0,1,0,0,0,0,1,hexagon,star,1,0,1,0,2,0,24,8,,,,,,,,,,,,,,,,,,,,,,,,,,,,,,,,,,,,,,,,321.5320422,321.5320422,321.5320422,321.5320422,321.5320422,321.5320422,321.5320422,321.5320422,321.5320422,321.5320422,a,0.285723711,1,424,1,321.8489764,323.3493109,323.3493109,323.849437,,,,,,,,,,,,,,,,,,,,,,,,,,,,,,,,,,,,,,,,,,,,,,,,,,,,,,,,,,,,,,,,,,,,,69140,2022-11-04_09h04.43.869,vts_reward_expectancy_bt_OFFLINE,2022.2.4,59.99473103
1,0,0,0,0,1,0,0,triangle,circle,1,0,1,0,2,1,25,0,,,,,,,,,,,,,,,,,,,,,,,,,,,,,,,,,,,,,,,,323.849437,323.849437,323.849437,323.849437,323.849437,323.849437,323.849437,323.849437,323.849437,323.849437,l,0.420453958,10,434,1,324.3007703,,325.8020196,,,,,,,,,,,,,,,,,,,,,,,,,,,,,,,,,,,,,,,,,,,,,,,,,,,,,,,,,,,,,,,,,,,,,,69140,2022-11-04_09h04.43.869,vts_reward_expectancy_bt_OFFLINE,2022.2.4,59.99473103
0,1,0,0,0,0,0,1,circle,star,1,0,1,0,2,2,26,5,,,,,,,,,,,,,,,,,,,,,,,,,,,,,,,,,,,,,,,,326.3023259,326.3023259,326.3023259,326.3023259,326.3023259,326.3023259,326.3023259,326.3023259,326.3023259,326.3023259,l,0.319169652,10,444,1,326.6523728,328.1529405,328.1529405,328.6529874,,,,,,,,,,,,,,,,,,,,,,,,,,,,,,,,,,,,,,,,,,,,,,,,,,,,,,,,,,,,,,,,,,,,,69140,2022-11-04_09h04.43.869,vts_reward_expectancy_bt_OFFLINE,2022.2.4,59.99473103
0,1,0,0,1,0,0,0,circle,triangle,1,0,1,0,2,3,27,3,,,,,,,,,,,,,,,,,,,,,,,,,,,,,,,,,,,,,,,,328.6529874,328.6529874,328.6529874,328.6529874,328.6529874,328.6529874,328.6529874,328.6529874,328.6529874,328.6529874,a,0.510651482,10,454,1,329.1865906,,330.6889095,,,,,,,,,,,,,,,,,,,,,,,,,,,,,,,,,,,,,,,,,,,,,,,,,,,,,,,,,,,,,,,,,,,,,,69140,2022-11-04_09h04.43.869,vts_reward_expectancy_bt_OFFLINE,2022.2.4,59.99473103
1,0,0,0,0,0,0,1,triangle,star,1,0,1,0,2,4,28,2,,,,,,,,,,,,,,,,,,,,,,,,,,,,,,,,,,,,,,,,331.1890065,331.1890065,331.1890065,331.1890065,331.1890065,331.1890065,331.1890065,331.1890065,331.1890065,331.1890065,l,0.494698637,1,455,1,331.7073338,333.2067139,333.2067139,333.7068302,,,,,,,,,,,,,,,,,,,,,,,,,,,,,,,,,,,,,,,,,,,,,,,,,,,,,,,,,,,,,,,,,,,,,69140,2022-11-04_09h04.43.869,vts_reward_expectancy_bt_OFFLINE,2022.2.4,59.99473103
0,0,1,0,0,1,0,0,hexagon,circle,1,0,1,0,2,5,29,7,,,,,,,,,,,,,,,,,,,,,,,,,,,,,,,,,,,,,,,,333.7068302,333.7068302,333.7068302,333.7068302,333.7068302,333.7068302,333.7068302,333.7068302,333.7068302,333.7068302,l,0.429580415,10,465,1,334.1578242,,335.6591524,,,,,,,,,,,,,,,,,,,,,,,,,,,,,,,,,,,,,,,,,,,,,,,,,,,,,,,,,,,,,,,,,,,,,,69140,2022-11-04_09h04.43.869,vts_reward_expectancy_bt_OFFLINE,2022.2.4,59.99473103
0,0,0,1,1,0,0,0,star,triangle,1,0,1,0,2,6,30,9,,,,,,,,,,,,,,,,,,,,,,,,,,,,,,,,,,,,,,,,336.1595865,336.1595865,336.1595865,336.1595865,336.1595865,336.1595865,336.1595865,336.1595865,336.1595865,336.1595865,a,0.620579021,1,466,1,336.8109757,338.310327,338.310327,338.8104104,,,,,,,,,,,,,,,,,,,,,,,,,,,,,,,,,,,,,,,,,,,,,,,,,,,,,,,,,,,,,,,,,,,,,69140,2022-11-04_09h04.43.869,vts_reward_expectancy_bt_OFFLINE,2022.2.4,59.99473103
1,0,0,0,0,0,1,0,triangle,hexagon,1,0,1,0,2,7,31,1,,,,,,,,,,,,,,,,,,,,,,,,,,,,,,,,,,,,,,,,338.8104104,338.8104104,338.8104104,338.8104104,338.8104104,338.8104104,338.8104104,338.8104104,338.8104104,338.8104104,a,0.850464283,10,476,1,339.6788124,,341.179836,,,,,,,,,,,,,,,,,,,,,,,,,,,,,,,,,,,,,,,,,,,,,,,,,,,,,,,,,,,,,,,,,,,,,,69140,2022-11-04_09h04.43.869,vts_reward_expectancy_bt_OFFLINE,2022.2.4,59.99473103
0,0,1,0,1,0,0,0,hexagon,triangle,1,0,1,0,2,8,32,6,,,,,,,,,,,,,,,,,,,,,,,,,,,,,,,,,,,,,,,,341.6799819,341.6799819,341.6799819,341.6799819,341.6799819,341.6799819,341.6799819,341.6799819,341.6799819,341.6799819,a,1.25459432,10,486,1,342.9636825,344.4643178,344.4643178,,,,,,,,,,,,,,,,,,,,,,,,,,,,,,,,,,,,,,,,,,,,,,,,,,,,,,,,,,,,,,,,,,,,,,69140,2022-11-04_09h04.43.869,vts_reward_expectancy_bt_OFFLINE,2022.2.4,59.99473103
0,0,0,1,0,0,1,0,star,hexagon,1,0,1,0,2,9,33,11,,,,,,,,,,,,,,,,,,,,,,,,,,,,,,,,,,,,,,,,344.9643623,344.9643623,344.9643623,344.9643623,344.9643623,344.9643623,344.9643623,344.9643623,344.9643623,344.9643623,l,1.120162068,10,496,1,346.1167323,347.6173866,347.6173866,348.117498,,,,,,,,,,,,,,,,,,,,,,,,,,,,,,,,,,,,,,,,,,,,,,,,,,,,,,,,,,,,,,,,,,,,,69140,2022-11-04_09h04.43.869,vts_reward_expectancy_bt_OFFLINE,2022.2.4,59.99473103
0,1,0,0,0,0,1,0,circle,hexagon,1,0,1,0,2,10,34,4,,,,,,,,,,,,,,,,,,,,,,,,,,,,,,,,,,,,,,,,348.117498,348.117498,348.117498,348.117498,348.117498,348.117498,348.117498,348.117498,348.117498,348.117498,l,0.520507397,10,506,1,348.6676764,350.1684275,350.1684275,,,,,,,,,,,,,,,,,,,,,,,,,,,,,,,,,,,,,,,,,,,,,,,,,,,,,,,,,,,,,,,,,,,,,,69140,2022-11-04_09h04.43.869,vts_reward_expectancy_bt_OFFLINE,2022.2.4,59.99473103
0,0,0,1,0,1,0,0,star ,circle,1,0,1,0,2,11,35,10,,,,,,,,,,,,,,,,,,,,,,,,,,,,,,,,,,,,,,,,350.670421,350.670421,350.670421,350.670421,350.670421,350.670421,350.670421,350.670421,350.670421,350.670421,l,0.982938594,10,516,1,351.6707637,353.1711801,353.1711801,353.6713562,,,,,,,,,,,,,,,,,,,,,,,,,,,,,,,,,,,,,,,,,,,,,,,,,,,,,,,,,,,,,,,,,,,,,69140,2022-11-04_09h04.43.869,vts_reward_expectancy_bt_OFFLINE,2022.2.4,59.99473103
1,0,0,0,0,0,0,1,triangle,star,1,0,1,0,3,0,36,2,,,,,,,,,,,,,,,,,,,,,,,,,,,,,,,,,,,,,,,,353.6713562,353.6713562,353.6713562,353.6713562,353.6713562,353.6713562,353.6713562,353.6713562,353.6713562,353.6713562,a,0.54768553,10,526,1,354.2381664,,355.7405104,,,,,,,,,,,,,,,,,,,,,,,,,,,,,,,,,,,,,,,,,,,,,,,,,,,,,,,,,,,,,,,,,,,,,,69140,2022-11-04_09h04.43.869,vts_reward_expectancy_bt_OFFLINE,2022.2.4,59.99473103
0,0,1,0,0,0,0,1,hexagon,star,1,0,1,0,3,1,37,8,,,,,,,,,,,,,,,,,,,,,,,,,,,,,,,,,,,,,,,,356.240689,356.240689,356.240689,356.240689,356.240689,356.240689,356.240689,356.240689,356.240689,356.240689,l,0.498641899,1,527,1,356.7589031,358.2580824,358.2580824,358.7582788,,,,,,,,,,,,,,,,,,,,,,,,,,,,,,,,,,,,,,,,,,,,,,,,,,,,,,,,,,,,,,,,,,,,,69140,2022-11-04_09h04.43.869,vts_reward_expectancy_bt_OFFLINE,2022.2.4,59.99473103
0,0,1,0,1,0,0,0,hexagon,triangle,1,0,1,0,3,2,38,6,,,,,,,,,,,,,,,,,,,,,,,,,,,,,,,,,,,,,,,,358.7582788,358.7582788,358.7582788,358.7582788,358.7582788,358.7582788,358.7582788,358.7582788,358.7582788,358.7582788,a,0.601598687,1,528,1,359.392068,,360.8942511,,,,,,,,,,,,,,,,,,,,,,,,,,,,,,,,,,,,,,,,,,,,,,,,,,,,,,,,,,,,,,,,,,,,,,69140,2022-11-04_09h04.43.869,vts_reward_expectancy_bt_OFFLINE,2022.2.4,59.99473103
0,0,1,0,0,1,0,0,hexagon,circle,1,0,1,0,3,3,39,7,,,,,,,,,,,,,,,,,,,,,,,,,,,,,,,,,,,,,,,,361.3945331,361.3945331,361.3945331,361.3945331,361.3945331,361.3945331,361.3945331,361.3945331,361.3945331,361.3945331,l,0.677318732,1,529,1,362.094768,363.5951598,363.5951598,364.0953769,,,,,,,,,,,,,,,,,,,,,,,,,,,,,,,,,,,,,,,,,,,,,,,,,,,,,,,,,,,,,,,,,,,,,69140,2022-11-04_09h04.43.869,vts_reward_expectancy_bt_OFFLINE,2022.2.4,59.99473103
1,0,0,0,0,1,0,0,triangle,circle,1,0,1,0,3,4,40,0,,,,,,,,,,,,,,,,,,,,,,,,,,,,,,,,,,,,,,,,364.0953769,364.0953769,364.0953769,364.0953769,364.0953769,364.0953769,364.0953769,364.0953769,364.0953769,364.0953769,a,0.664701077,10,539,1,364.7805397,,366.281348,,,,,,,,,,,,,,,,,,,,,,,,,,,,,,,,,,,,,,,,,,,,,,,,,,,,,,,,,,,,,,,,,,,,,,69140,2022-11-04_09h04.43.869,vts_reward_expectancy_bt_OFFLINE,2022.2.4,59.99473103
0,1,0,0,0,0,0,1,circle,star,1,0,1,0,3,5,41,5,,,,,,,,,,,,,,,,,,,,,,,,,,,,,,,,,,,,,,,,366.7816889,366.7816889,366.7816889,366.7816889,366.7816889,366.7816889,366.7816889,366.7816889,366.7816889,366.7816889,a,0.734635274,10,549,1,367.5485034,369.0489792,369.0489792,369.5490965,,,,,,,,,,,,,,,,,,,,,,,,,,,,,,,,,,,,,,,,,,,,,,,,,,,,,,,,,,,,,,,,,,,,,69140,2022-11-04_09h04.43.869,vts_reward_expectancy_bt_OFFLINE,2022.2.4,59.99473103
0,0,0,1,0,0,1,0,star,hexagon,1,0,1,0,3,6,42,11,,,,,,,,,,,,,,,,,,,,,,,,,,,,,,,,,,,,,,,,369.5490965,369.5490965,369.5490965,369.5490965,369.5490965,369.5490965,369.5490965,369.5490965,369.5490965,369.5490965,a,0.533109212,10,559,1,370.0993379,,371.6018845,,,,,,,,,,,,,,,,,,,,,,,,,,,,,,,,,,,,,,,,,,,,,,,,,,,,,,,,,,,,,,,,,,,,,,69140,2022-11-04_09h04.43.869,vts_reward_expectancy_bt_OFFLINE,2022.2.4,59.99473103
0,0,0,1,1,0,0,0,star,triangle,1,0,1,0,3,7,43,9,,,,,,,,,,,,,,,,,,,,,,,,,,,,,,,,,,,,,,,,372.1020811,372.1020811,372.1020811,372.1020811,372.1020811,372.1020811,372.1020811,372.1020811,372.1020811,372.1020811,l,0.882076592,10,569,1,373.0022177,374.5029346,374.5029346,375.0031072,,,,,,,,,,,,,,,,,,,,,,,,,,,,,,,,,,,,,,,,,,,,,,,,,,,,,,,,,,,,,,,,,,,,,69140,2022-11-04_09h04.43.869,vts_reward_expectancy_bt_OFFLINE,2022.2.4,59.99473103
0,0,0,1,0,1,0,0,star ,circle,1,0,1,0,3,8,44,10,,,,,,,,,,,,,,,,,,,,,,,,,,,,,,,,,,,,,,,,375.0031072,375.0031072,375.0031072,375.0031072,375.0031072,375.0031072,375.0031072,375.0031072,375.0031072,375.0031072,a,0.60294461,10,579,1,375.6381684,377.1389792,377.1389792,,,,,,,,,,,,,,,,,,,,,,,,,,,,,,,,,,,,,,,,,,,,,,,,,,,,,,,,,,,,,,,,,,,,,,69140,2022-11-04_09h04.43.869,vts_reward_expectancy_bt_OFFLINE,2022.2.4,59.99473103
0,1,0,0,0,0,1,0,circle,hexagon,1,0,1,0,3,9,45,4,,,,,,,,,,,,,,,,,,,,,,,,,,,,,,,,,,,,,,,,377.6391176,377.6391176,377.6391176,377.6391176,377.6391176,377.6391176,377.6391176,377.6391176,377.6391176,377.6391176,a,0.678436357,10,589,1,378.3391596,379.8399108,379.8399108,380.3398194,,,,,,,,,,,,,,,,,,,,,,,,,,,,,,,,,,,,,,,,,,,,,,,,,,,,,,,,,,,,,,,,,,,,,69140,2022-11-04_09h04.43.869,vts_reward_expectancy_bt_OFFLINE,2022.2.4,59.99473103
0,1,0,0,1,0,0,0,circle,triangle,1,0,1,0,3,10,46,3,,,,,,,,,,,,,,,,,,,,,,,,,,,,,,,,,,,,,,,,380.3398194,380.3398194,380.3398194,380.3398194,380.3398194,380.3398194,380.3398194,380.3398194,380.3398194,380.3398194,l,0.430289986,10,599,1,380.7919924,382.2927633,382.2927633,,,,,,,,,,,,,,,,,,,,,,,,,,,,,,,,,,,,,,,,,,,,,,,,,,,,,,,,,,,,,,,,,,,,,,69140,2022-11-04_09h04.43.869,vts_reward_expectancy_bt_OFFLINE,2022.2.4,59.99473103
1,0,0,0,0,0,1,0,triangle,hexagon,1,0,1,0,3,11,47,1,,,,,,,,,,,,,,,,,,,,,,,,,,,,,,,,,,,,,,,,382.7929673,382.7929673,382.7929673,382.7929673,382.7929673,382.7929673,382.7929673,382.7929673,382.7929673,382.7929673,a,0.77793364,10,609,1,383.5930491,385.0937494,385.0937494,,,,,,,,,,,,,,,,,,,,,,,,,,,,,,,,,,,,,,,,,,,,,,,,,,,,,,,,,,,,,,,,,,,,,,69140,2022-11-04_09h04.43.869,vts_reward_expectancy_bt_OFFLINE,2022.2.4,59.99473103
0,0,0,1,1,0,0,0,star,triangle,2,0,2,0,0,0,0,9,,,,,,,,,,,,,,,,,,,,,,,,,,,,,,,,,,,,,,,,389.6585412,389.6585412,389.6585412,389.6585412,389.6585412,389.6585412,389.6585412,389.6585412,389.6585412,389.6585412,a,1.1573764,1,610,2,390.8343345,392.333317,392.333317,392.8332963,,,,,,,,,,,,,,,,,,,,,,,,,,,,,,,,,,,,,,,,,,,,,,,,,,,,,,,,,,,,,,,,,,,,,69140,2022-11-04_09h04.43.869,vts_reward_expectancy_bt_OFFLINE,2022.2.4,59.99473103
0,1,0,0,0,0,1,0,circle,hexagon,2,0,2,0,0,1,1,4,,,,,,,,,,,,,,,,,,,,,,,,,,,,,,,,,,,,,,,,392.8332963,392.8332963,392.8332963,392.8332963,392.8332963,392.8332963,392.8332963,392.8332963,392.8332963,392.8332963,a,0.525803938,10,620,2,393.38525,,394.9009786,,,,,,,,,,,,,,,,,,,,,,,,,,,,,,,,,,,,,,,,,,,,,,,,,,,,,,,,,,,,,,,,,,,,,,69140,2022-11-04_09h04.43.869,vts_reward_expectancy_bt_OFFLINE,2022.2.4,59.99473103
0,0,1,0,1,0,0,0,hexagon,triangle,2,0,2,0,0,2,2,6,,,,,,,,,,,,,,,,,,,,,,,,,,,,,,,,,,,,,,,,395.3843263,395.3843263,395.3843263,395.3843263,395.3843263,395.3843263,395.3843263,395.3843263,395.3843263,395.3843263,a,0.979017267,10,630,2,396.3864594,397.8871165,397.8871165,398.3872107,,,,,,,,,,,,,,,,,,,,,,,,,,,,,,,,,,,,,,,,,,,,,,,,,,,,,,,,,,,,,,,,,,,,,69140,2022-11-04_09h04.43.869,vts_reward_expectancy_bt_OFFLINE,2022.2.4,59.99473103
1,0,0,0,0,0,0,1,triangle,star,2,0,2,0,0,3,3,2,,,,,,,,,,,,,,,,,,,,,,,,,,,,,,,,,,,,,,,,398.3872107,398.3872107,398.3872107,398.3872107,398.3872107,398.3872107,398.3872107,398.3872107,398.3872107,398.3872107,a,0.878002217,10,640,2,399.2876602,,400.7899916,,,,,,,,,,,,,,,,,,,,,,,,,,,,,,,,,,,,,,,,,,,,,,,,,,,,,,,,,,,,,,,,,,,,,,69140,2022-11-04_09h04.43.869,vts_reward_expectancy_bt_OFFLINE,2022.2.4,59.99473103
0,0,1,0,0,1,0,0,hexagon,circle,2,0,2,0,0,4,4,7,,,,,,,,,,,,,,,,,,,,,,,,,,,,,,,,,,,,,,,,401.2900326,401.2900326,401.2900326,401.2900326,401.2900326,401.2900326,401.2900326,401.2900326,401.2900326,401.2900326,a,0.877633561,1,641,2,402.192427,,403.7077298,,,,,,,,,,,,,,,,,,,,,,,,,,,,,,,,,,,,,,,,,,,,,,,,,,,,,,,,,,,,,,,,,,,,,,69140,2022-11-04_09h04.43.869,vts_reward_expectancy_bt_OFFLINE,2022.2.4,59.99473103
1,0,0,0,0,0,1,0,triangle,hexagon,2,0,2,0,0,5,5,1,,,,,,,,,,,,,,,,,,,,,,,,,,,,,,,,,,,,,,,,404.2079871,404.2079871,404.2079871,404.2079871,404.2079871,404.2079871,404.2079871,404.2079871,404.2079871,404.2079871,a,0.952720108,10,651,2,405.1915162,,406.6938862,,,,,,,,,,,,,,,,,,,,,,,,,,,,,,,,,,,,,,,,,,,,,,,,,,,,,,,,,,,,,,,,,,,,,,69140,2022-11-04_09h04.43.869,vts_reward_expectancy_bt_OFFLINE,2022.2.4,59.99473103
0,0,0,1,0,1,0,0,star ,circle,2,0,2,0,0,6,6,10,,,,,,,,,,,,,,,,,,,,,,,,,,,,,,,,,,,,,,,,407.1940911,407.1940911,407.1940911,407.1940911,407.1940911,407.1940911,407.1940911,407.1940911,407.1940911,407.1940911,a,0.756505307,10,661,2,407.9777858,409.4781375,409.4781375,409.9785225,,,,,,,,,,,,,,,,,,,,,,,,,,,,,,,,,,,,,,,,,,,,,,,,,,,,,,,,,,,,,,,,,,,,,69140,2022-11-04_09h04.43.869,vts_reward_expectancy_bt_OFFLINE,2022.2.4,59.99473103
0,0,1,0,0,0,0,1,hexagon,star,2,0,2,0,0,7,7,8,,,,,,,,,,,,,,,,,,,,,,,,,,,,,,,,,,,,,,,,409.9785225,409.9785225,409.9785225,409.9785225,409.9785225,409.9785225,409.9785225,409.9785225,409.9785225,409.9785225,a,0.875369145,1,662,2,410.8818845,412.3812101,412.3812101,,,,,,,,,,,,,,,,,,,,,,,,,,,,,,,,,,,,,,,,,,,,,,,,,,,,,,,,,,,,,,,,,,,,,,69140,2022-11-04_09h04.43.869,vts_reward_expectancy_bt_OFFLINE,2022.2.4,59.99473103
0,1,0,0,0,0,0,1,circle,star,2,0,2,0,0,8,8,5,,,,,,,,,,,,,,,,,,,,,,,,,,,,,,,,,,,,,,,,412.8814701,412.8814701,412.8814701,412.8814701,412.8814701,412.8814701,412.8814701,412.8814701,412.8814701,412.8814701,l,0.379209864,1,663,2,413.2814365,414.7820767,414.7820767,,,,,,,,,,,,,,,,,,,,,,,,,,,,,,,,,,,,,,,,,,,,,,,,,,,,,,,,,,,,,,,,,,,,,,69140,2022-11-04_09h04.43.869,vts_reward_expectancy_bt_OFFLINE,2022.2.4,59.99473103
0,0,0,1,0,0,1,0,star,hexagon,2,0,2,0,0,9,9,11,,,,,,,,,,,,,,,,,,,,,,,,,,,,,,,,,,,,,,,,415.2822338,415.2822338,415.2822338,415.2822338,415.2822338,415.2822338,415.2822338,415.2822338,415.2822338,415.2822338,l,0.520964568,1,664,2,415.834251,417.3346002,417.3346002,417.8351593,,,,,,,,,,,,,,,,,,,,,,,,,,,,,,,,,,,,,,,,,,,,,,,,,,,,,,,,,,,,,,,,,,,,,69140,2022-11-04_09h04.43.869,vts_reward_expectancy_bt_OFFLINE,2022.2.4,59.99473103
0,1,0,0,1,0,0,0,circle,triangle,2,0,2,0,0,10,10,3,,,,,,,,,,,,,,,,,,,,,,,,,,,,,,,,,,,,,,,,417.8351593,417.8351593,417.8351593,417.8351593,417.8351593,417.8351593,417.8351593,417.8351593,417.8351593,417.8351593,l,0.803743734,10,674,2,418.6701647,420.1691723,420.1691723,,,,,,,,,,,,,,,,,,,,,,,,,,,,,,,,,,,,,,,,,,,,,,,,,,,,,,,,,,,,,,,,,,,,,,69140,2022-11-04_09h04.43.869,vts_reward_expectancy_bt_OFFLINE,2022.2.4,59.99473103
1,0,0,0,0,1,0,0,triangle,circle,2,0,2,0,0,11,11,0,,,,,,,,,,,,,,,,,,,,,,,,,,,,,,,,,,,,,,,,420.6712017,420.6712017,420.6712017,420.6712017,420.6712017,420.6712017,420.6712017,420.6712017,420.6712017,420.6712017,a,0.510238978,1,675,2,421.2063858,,422.7219294,,,,,,,,,,,,,,,,,,,,,,,,,,,,,,,,,,,,,,,,,,,,,,,,,,,,,,,,,,,,,,,,,,,,,,69140,2022-11-04_09h04.43.869,vts_reward_expectancy_bt_OFFLINE,2022.2.4,59.99473103
0,0,1,0,0,1,0,0,hexagon,circle,2,0,2,0,1,0,12,7,,,,,,,,,,,,,,,,,,,,,,,,,,,,,,,,,,,,,,,,423.2219931,423.2219931,423.2219931,423.2219931,423.2219931,423.2219931,423.2219931,423.2219931,423.2219931,423.2219931,a,1.896953035,10,685,2,425.1410397,,426.6417715,,,,,,,,,,,,,,,,,,,,,,,,,,,,,,,,,,,,,,,,,,,,,,,,,,,,,,,,,,,,,,,,,,,,,,69140,2022-11-04_09h04.43.869,vts_reward_expectancy_bt_OFFLINE,2022.2.4,59.99473103
0,0,0,1,0,0,1,0,star,hexagon,2,0,2,0,1,1,13,11,,,,,,,,,,,,,,,,,,,,,,,,,,,,,,,,,,,,,,,,427.1420953,427.1420953,427.1420953,427.1420953,427.1420953,427.1420953,427.1420953,427.1420953,427.1420953,427.1420953,l,0.564458365,1,686,2,427.7274578,,429.2429772,,,,,,,,,,,,,,,,,,,,,,,,,,,,,,,,,,,,,,,,,,,,,,,,,,,,,,,,,,,,,,,,,,,,,,69140,2022-11-04_09h04.43.869,vts_reward_expectancy_bt_OFFLINE,2022.2.4,59.99473103
1,0,0,0,0,1,0,0,triangle,circle,2,0,2,0,1,2,14,0,,,,,,,,,,,,,,,,,,,,,,,,,,,,,,,,,,,,,,,,429.7262397,429.7262397,429.7262397,429.7262397,429.7262397,429.7262397,429.7262397,429.7262397,429.7262397,429.7262397,a,0.782338639,10,696,2,430.5305457,,432.0456519,,,,,,,,,,,,,,,,,,,,,,,,,,,,,,,,,,,,,,,,,,,,,,,,,,,,,,,,,,,,,,,,,,,,,,69140,2022-11-04_09h04.43.869,vts_reward_expectancy_bt_OFFLINE,2022.2.4,59.99473103
0,1,0,0,0,0,0,1,circle,star,2,0,2,0,1,3,15,5,,,,,,,,,,,,,,,,,,,,,,,,,,,,,,,,,,,,,,,,432.5457537,432.5457537,432.5457537,432.5457537,432.5457537,432.5457537,432.5457537,432.5457537,432.5457537,432.5457537,a,1.483772803,1,697,2,434.0481803,,435.5487303,,,,,,,,,,,,,,,,,,,,,,,,,,,,,,,,,,,,,,,,,,,,,,,,,,,,,,,,,,,,,,,,,,,,,,69140,2022-11-04_09h04.43.869,vts_reward_expectancy_bt_OFFLINE,2022.2.4,59.99473103
0,0,0,1,0,1,0,0,star ,circle,2,0,2,0,1,4,16,10,,,,,,,,,,,,,,,,,,,,,,,,,,,,,,,,,,,,,,,,436.0488698,436.0488698,436.0488698,436.0488698,436.0488698,436.0488698,436.0488698,436.0488698,436.0488698,436.0488698,a,3.897647689,1,698,2,439.9669924,,441.4693348,,,,,,,,,,,,,,,,,,,,,,,,,,,,,,,,,,,,,,,,,,,,,,,,,,,,,,,,,,,,,,,,,,,,,,69140,2022-11-04_09h04.43.869,vts_reward_expectancy_bt_OFFLINE,2022.2.4,59.99473103
0,0,1,0,0,0,0,1,hexagon,star,2,0,2,0,1,5,17,8,,,,,,,,,,,,,,,,,,,,,,,,,,,,,,,,,,,,,,,,441.9696537,441.9696537,441.9696537,441.9696537,441.9696537,441.9696537,441.9696537,441.9696537,441.9696537,441.9696537,a,0.408054627,1,699,2,442.4030728,443.9034736,443.9034736,444.4044952,,,,,,,,,,,,,,,,,,,,,,,,,,,,,,,,,,,,,,,,,,,,,,,,,,,,,,,,,,,,,,,,,,,,,69140,2022-11-04_09h04.43.869,vts_reward_expectancy_bt_OFFLINE,2022.2.4,59.99473103
0,1,0,0,0,0,1,0,circle,hexagon,2,0,2,0,1,6,18,4,,,,,,,,,,,,,,,,,,,,,,,,,,,,,,,,,,,,,,,,444.4044952,444.4044952,444.4044952,444.4044952,444.4044952,444.4044952,444.4044952,444.4044952,444.4044952,444.4044952,l,0.559776465,1,700,2,444.9871841,,446.4898667,,,,,,,,,,,,,,,,,,,,,,,,,,,,,,,,,,,,,,,,,,,,,,,,,,,,,,,,,,,,,,,,,,,,,,69140,2022-11-04_09h04.43.869,vts_reward_expectancy_bt_OFFLINE,2022.2.4,59.99473103
0,0,0,1,1,0,0,0,star,triangle,2,0,2,0,1,7,19,9,,,,,,,,,,,,,,,,,,,,,,,,,,,,,,,,,,,,,,,,446.9898899,446.9898899,446.9898899,446.9898899,446.9898899,446.9898899,446.9898899,446.9898899,446.9898899,446.9898899,a,0.336822414,1,701,2,447.3565296,448.8569145,448.8569145,449.3574261,,,,,,,,,,,,,,,,,,,,,,,,,,,,,,,,,,,,,,,,,,,,,,,,,,,,,,,,,,,,,,,,,,,,,69140,2022-11-04_09h04.43.869,vts_reward_expectancy_bt_OFFLINE,2022.2.4,59.99473103
1,0,0,0,0,0,0,1,triangle,star,2,0,2,0,1,8,20,2,,,,,,,,,,,,,,,,,,,,,,,,,,,,,,,,,,,,,,,,449.3574261,449.3574261,449.3574261,449.3574261,449.3574261,449.3574261,449.3574261,449.3574261,449.3574261,449.3574261,l,0.770726267,1,702,2,450.1576177,,451.6601923,,,,,,,,,,,,,,,,,,,,,,,,,,,,,,,,,,,,,,,,,,,,,,,,,,,,,,,,,,,,,,,,,,,,,,69140,2022-11-04_09h04.43.869,vts_reward_expectancy_bt_OFFLINE,2022.2.4,59.99473103
0,0,1,0,1,0,0,0,hexagon,triangle,2,0,2,0,1,9,21,6,,,,,,,,,,,,,,,,,,,,,,,,,,,,,,,,,,,,,,,,452.1601557,452.1601557,452.1601557,452.1601557,452.1601557,452.1601557,452.1601557,452.1601557,452.1601557,452.1601557,a,2.377989478,1,703,2,454.5610252,,456.0634053,,,,,,,,,,,,,,,,,,,,,,,,,,,,,,,,,,,,,,,,,,,,,,,,,,,,,,,,,,,,,,,,,,,,,,69140,2022-11-04_09h04.43.869,vts_reward_expectancy_bt_OFFLINE,2022.2.4,59.99473103
0,1,0,0,1,0,0,0,circle,triangle,2,0,2,0,1,10,22,3,,,,,,,,,,,,,,,,,,,,,,,,,,,,,,,,,,,,,,,,456.5636952,456.5636952,456.5636952,456.5636952,456.5636952,456.5636952,456.5636952,456.5636952,456.5636952,456.5636952,a,0.743110145,10,713,2,457.3326801,,458.8478582,,,,,,,,,,,,,,,,,,,,,,,,,,,,,,,,,,,,,,,,,,,,,,,,,,,,,,,,,,,,,,,,,,,,,,69140,2022-11-04_09h04.43.869,vts_reward_expectancy_bt_OFFLINE,2022.2.4,59.99473103
1,0,0,0,0,0,1,0,triangle,hexagon,2,0,2,0,1,11,23,1,,,,,,,,,,,,,,,,,,,,,,,,,,,,,,,,,,,,,,,,459.3479602,459.3479602,459.3479602,459.3479602,459.3479602,459.3479602,459.3479602,459.3479602,459.3479602,459.3479602,a,0.635373438,10,723,2,460.0148838,,461.5171116,,,,,,,,,,,,,,,,,,,,,,,,,,,,,,,,,,,,,,,,,,,,,,,,,,,,,,,,,,,,,,,,,,,,,,69140,2022-11-04_09h04.43.869,vts_reward_expectancy_bt_OFFLINE,2022.2.4,59.99473103
1,0,0,0,0,0,0,1,triangle,star,2,0,2,0,2,0,24,2,,,,,,,,,,,,,,,,,,,,,,,,,,,,,,,,,,,,,,,,462.0174638,462.0174638,462.0174638,462.0174638,462.0174638,462.0174638,462.0174638,462.0174638,462.0174638,462.0174638,l,0.84625004,1,724,2,462.8864165,,464.4017473,,,,,,,,,,,,,,,,,,,,,,,,,,,,,,,,,,,,,,,,,,,,,,,,,,,,,,,,,,,,,,,,,,,,,,69140,2022-11-04_09h04.43.869,vts_reward_expectancy_bt_OFFLINE,2022.2.4,59.99473103
0,0,1,0,0,0,0,1,hexagon,star,2,0,2,0,2,1,25,8,,,,,,,,,,,,,,,,,,,,,,,,,,,,,,,,,,,,,,,,464.9017806,464.9017806,464.9017806,464.9017806,464.9017806,464.9017806,464.9017806,464.9017806,464.9017806,464.9017806,a,0.280054617,1,725,2,465.2018936,,466.7043145,,,,,,,,,,,,,,,,,,,,,,,,,,,,,,,,,,,,,,,,,,,,,,,,,,,,,,,,,,,,,,,,,,,,,,69140,2022-11-04_09h04.43.869,vts_reward_expectancy_bt_OFFLINE,2022.2.4,59.99473103
0,0,1,0,1,0,0,0,hexagon,triangle,2,0,2,0,2,2,26,6,,,,,,,,,,,,,,,,,,,,,,,,,,,,,,,,,,,,,,,,467.2046199,467.2046199,467.2046199,467.2046199,467.2046199,467.2046199,467.2046199,467.2046199,467.2046199,467.2046199,l,0.429253465,10,735,2,467.6564881,,469.1719406,,,,,,,,,,,,,,,,,,,,,,,,,,,,,,,,,,,,,,,,,,,,,,,,,,,,,,,,,,,,,,,,,,,,,,69140,2022-11-04_09h04.43.869,vts_reward_expectancy_bt_OFFLINE,2022.2.4,59.99473103
0,0,1,0,0,1,0,0,hexagon,circle,2,0,2,0,2,3,27,7,,,,,,,,,,,,,,,,,,,,,,,,,,,,,,,,,,,,,,,,469.6720386,469.6720386,469.6720386,469.6720386,469.6720386,469.6720386,469.6720386,469.6720386,469.6720386,469.6720386,l,1.765185433,10,745,2,471.4576788,472.958338,472.958338,,,,,,,,,,,,,,,,,,,,,,,,,,,,,,,,,,,,,,,,,,,,,,,,,,,,,,,,,,,,,,,,,,,,,,69140,2022-11-04_09h04.43.869,vts_reward_expectancy_bt_OFFLINE,2022.2.4,59.99473103
0,0,0,1,0,0,1,0,star,hexagon,2,0,2,0,2,4,28,11,,,,,,,,,,,,,,,,,,,,,,,,,,,,,,,,,,,,,,,,473.4586182,473.4586182,473.4586182,473.4586182,473.4586182,473.4586182,473.4586182,473.4586182,473.4586182,473.4586182,a,0.386067441,1,746,2,473.8772341,,475.3928258,,,,,,,,,,,,,,,,,,,,,,,,,,,,,,,,,,,,,,,,,,,,,,,,,,,,,,,,,,,,,,,,,,,,,,69140,2022-11-04_09h04.43.869,vts_reward_expectancy_bt_OFFLINE,2022.2.4,59.99473103
0,0,0,1,0,1,0,0,star ,circle,2,0,2,0,2,5,29,10,,,,,,,,,,,,,,,,,,,,,,,,,,,,,,,,,,,,,,,,475.8778753,475.8778753,475.8778753,475.8778753,475.8778753,475.8778753,475.8778753,475.8778753,475.8778753,475.8778753,l,0.419542125,10,756,2,476.3280383,477.8286886,477.8286886,478.3288297,,,,,,,,,,,,,,,,,,,,,,,,,,,,,,,,,,,,,,,,,,,,,,,,,,,,,,,,,,,,,,,,,,,,,69140,2022-11-04_09h04.43.869,vts_reward_expectancy_bt_OFFLINE,2022.2.4,59.99473103
0,1,0,0,0,0,1,0,circle,hexagon,2,0,2,0,2,6,30,4,,,,,,,,,,,,,,,,,,,,,,,,,,,,,,,,,,,,,,,,478.3288297,478.3288297,478.3288297,478.3288297,478.3288297,478.3288297,478.3288297,478.3288297,478.3288297,478.3288297,a,0.62303221,10,766,2,478.9790669,,480.4796138,,,,,,,,,,,,,,,,,,,,,,,,,,,,,,,,,,,,,,,,,,,,,,,,,,,,,,,,,,,,,,,,,,,,,,69140,2022-11-04_09h04.43.869,vts_reward_expectancy_bt_OFFLINE,2022.2.4,59.99473103
1,0,0,0,0,1,0,0,triangle,circle,2,0,2,0,2,7,31,0,,,,,,,,,,,,,,,,,,,,,,,,,,,,,,,,,,,,,,,,480.9812108,480.9812108,480.9812108,480.9812108,480.9812108,480.9812108,480.9812108,480.9812108,480.9812108,480.9812108,l,0.581124029,1,767,2,481.5836849,,483.0989745,,,,,,,,,,,,,,,,,,,,,,,,,,,,,,,,,,,,,,,,,,,,,,,,,,,,,,,,,,,,,,,,,,,,,,69140,2022-11-04_09h04.43.869,vts_reward_expectancy_bt_OFFLINE,2022.2.4,59.99473103
0,1,0,0,0,0,0,1,circle,star,2,0,2,0,2,8,32,5,,,,,,,,,,,,,,,,,,,,,,,,,,,,,,,,,,,,,,,,483.5991515,483.5991515,483.5991515,483.5991515,483.5991515,483.5991515,483.5991515,483.5991515,483.5991515,483.5991515,a,0.527962794,10,777,2,484.1511957,,485.6518254,,,,,,,,,,,,,,,,,,,,,,,,,,,,,,,,,,,,,,,,,,,,,,,,,,,,,,,,,,,,,,,,,,,,,,69140,2022-11-04_09h04.43.869,vts_reward_expectancy_bt_OFFLINE,2022.2.4,59.99473103
0,0,0,1,1,0,0,0,star,triangle,2,0,2,0,2,9,33,9,,,,,,,,,,,,,,,,,,,,,,,,,,,,,,,,,,,,,,,,486.1517924,486.1517924,486.1517924,486.1517924,486.1517924,486.1517924,486.1517924,486.1517924,486.1517924,486.1517924,l,1.058632757,10,787,2,487.2356307,488.7363649,488.7363649,489.2364039,,,,,,,,,,,,,,,,,,,,,,,,,,,,,,,,,,,,,,,,,,,,,,,,,,,,,,,,,,,,,,,,,,,,,69140,2022-11-04_09h04.43.869,vts_reward_expectancy_bt_OFFLINE,2022.2.4,59.99473103
0,1,0,0,1,0,0,0,circle,triangle,2,0,2,0,2,10,34,3,,,,,,,,,,,,,,,,,,,,,,,,,,,,,,,,,,,,,,,,489.2364039,489.2364039,489.2364039,489.2364039,489.2364039,489.2364039,489.2364039,489.2364039,489.2364039,489.2364039,l,0.876452933,10,797,2,490.136792,,491.6391236,,,,,,,,,,,,,,,,,,,,,,,,,,,,,,,,,,,,,,,,,,,,,,,,,,,,,,,,,,,,,,,,,,,,,,69140,2022-11-04_09h04.43.869,vts_reward_expectancy_bt_OFFLINE,2022.2.4,59.99473103
1,0,0,0,0,0,1,0,triangle,hexagon,2,0,2,0,2,11,35,1,,,,,,,,,,,,,,,,,,,,,,,,,,,,,,,,,,,,,,,,492.1393809,492.1393809,492.1393809,492.1393809,492.1393809,492.1393809,492.1393809,492.1393809,492.1393809,492.1393809,a,2.316479052,10,807,2,494.4734804,,495.9758699,,,,,,,,,,,,,,,,,,,,,,,,,,,,,,,,,,,,,,,,,,,,,,,,,,,,,,,,,,,,,,,,,,,,,,69140,2022-11-04_09h04.43.869,vts_reward_expectancy_bt_OFFLINE,2022.2.4,59.99473103
0,1,0,0,0,0,0,1,circle,star,2,0,2,0,3,0,36,5,,,,,,,,,,,,,,,,,,,,,,,,,,,,,,,,,,,,,,,,496.4758674,496.4758674,496.4758674,496.4758674,496.4758674,496.4758674,496.4758674,496.4758674,496.4758674,496.4758674,a,1.826584145,10,817,2,498.3268461,499.8273646,499.8273646,500.3274732,,,,,,,,,,,,,,,,,,,,,,,,,,,,,,,,,,,,,,,,,,,,,,,,,,,,,,,,,,,,,,,,,,,,,69140,2022-11-04_09h04.43.869,vts_reward_expectancy_bt_OFFLINE,2022.2.4,59.99473103
0,0,1,0,1,0,0,0,hexagon,triangle,2,0,2,0,3,1,37,6,,,,,,,,,,,,,,,,,,,,,,,,,,,,,,,,,,,,,,,,500.3274732,500.3274732,500.3274732,500.3274732,500.3274732,500.3274732,500.3274732,500.3274732,500.3274732,500.3274732,a,0.563403872,10,827,2,500.9127434,502.4134124,502.4134124,502.9135723,,,,,,,,,,,,,,,,,,,,,,,,,,,,,,,,,,,,,,,,,,,,,,,,,,,,,,,,,,,,,,,,,,,,,69140,2022-11-04_09h04.43.869,vts_reward_expectancy_bt_OFFLINE,2022.2.4,59.99473103
1,0,0,0,0,1,0,0,triangle,circle,2,0,2,0,3,2,38,0,,,,,,,,,,,,,,,,,,,,,,,,,,,,,,,,,,,,,,,,502.9135723,502.9135723,502.9135723,502.9135723,502.9135723,502.9135723,502.9135723,502.9135723,502.9135723,502.9135723,l,1.56573413,10,837,2,504.4973778,,505.9995937,,,,,,,,,,,,,,,,,,,,,,,,,,,,,,,,,,,,,,,,,,,,,,,,,,,,,,,,,,,,,,,,,,,,,,69140,2022-11-04_09h04.43.869,vts_reward_expectancy_bt_OFFLINE,2022.2.4,59.99473103
0,0,0,1,0,1,0,0,star ,circle,2,0,2,0,3,3,39,10,,,,,,,,,,,,,,,,,,,,,,,,,,,,,,,,,,,,,,,,506.4998743,506.4998743,506.4998743,506.4998743,506.4998743,506.4998743,506.4998743,506.4998743,506.4998743,506.4998743,l,0.635022113,1,838,2,507.1669247,508.6673342,508.6673342,509.1674966,,,,,,,,,,,,,,,,,,,,,,,,,,,,,,,,,,,,,,,,,,,,,,,,,,,,,,,,,,,,,,,,,,,,,69140,2022-11-04_09h04.43.869,vts_reward_expectancy_bt_OFFLINE,2022.2.4,59.99473103
0,0,1,0,0,0,0,1,hexagon,star,2,0,2,0,3,4,40,8,,,,,,,,,,,,,,,,,,,,,,,,,,,,,,,,,,,,,,,,509.1674966,509.1674966,509.1674966,509.1674966,509.1674966,509.1674966,509.1674966,509.1674966,509.1674966,509.1674966,l,0.430724825,1,839,2,509.6178714,,511.1199422,,,,,,,,,,,,,,,,,,,,,,,,,,,,,,,,,,,,,,,,,,,,,,,,,,,,,,,,,,,,,,,,,,,,,,69140,2022-11-04_09h04.43.869,vts_reward_expectancy_bt_OFFLINE,2022.2.4,59.99473103
1,0,0,0,0,0,1,0,triangle,hexagon,2,0,2,0,3,5,41,1,,,,,,,,,,,,,,,,,,,,,,,,,,,,,,,,,,,,,,,,511.6202777,511.6202777,511.6202777,511.6202777,511.6202777,511.6202777,511.6202777,511.6202777,511.6202777,511.6202777,a,2.20840314,10,849,2,513.8562705,,515.3716814,,,,,,,,,,,,,,,,,,,,,,,,,,,,,,,,,,,,,,,,,,,,,,,,,,,,,,,,,,,,,,,,,,,,,,69140,2022-11-04_09h04.43.869,vts_reward_expectancy_bt_OFFLINE,2022.2.4,59.99473103
0,1,0,0,1,0,0,0,circle,triangle,2,0,2,0,3,6,42,3,,,,,,,,,,,,,,,,,,,,,,,,,,,,,,,,,,,,,,,,515.8568333,515.8568333,515.8568333,515.8568333,515.8568333,515.8568333,515.8568333,515.8568333,515.8568333,515.8568333,a,0.694284758,10,859,2,516.5742023,518.0744913,518.0744913,518.574754,,,,,,,,,,,,,,,,,,,,,,,,,,,,,,,,,,,,,,,,,,,,,,,,,,,,,,,,,,,,,,,,,,,,,69140,2022-11-04_09h04.43.869,vts_reward_expectancy_bt_OFFLINE,2022.2.4,59.99473103
0,0,0,1,0,0,1,0,star,hexagon,2,0,2,0,3,7,43,11,,,,,,,,,,,,,,,,,,,,,,,,,,,,,,,,,,,,,,,,518.574754,518.574754,518.574754,518.574754,518.574754,518.574754,518.574754,518.574754,518.574754,518.574754,a,0.935593793,1,860,2,519.5415514,,521.0441038,,,,,,,,,,,,,,,,,,,,,,,,,,,,,,,,,,,,,,,,,,,,,,,,,,,,,,,,,,,,,,,,,,,,,,69140,2022-11-04_09h04.43.869,vts_reward_expectancy_bt_OFFLINE,2022.2.4,59.99473103
0,1,0,0,0,0,1,0,circle,hexagon,2,0,2,0,3,8,44,4,,,,,,,,,,,,,,,,,,,,,,,,,,,,,,,,,,,,,,,,521.5440953,521.5440953,521.5440953,521.5440953,521.5440953,521.5440953,521.5440953,521.5440953,521.5440953,521.5440953,a,0.91317569,10,870,2,522.4801192,,523.9949294,,,,,,,,,,,,,,,,,,,,,,,,,,,,,,,,,,,,,,,,,,,,,,,,,,,,,,,,,,,,,,,,,,,,,,69140,2022-11-04_09h04.43.869,vts_reward_expectancy_bt_OFFLINE,2022.2.4,59.99473103
0,0,1,0,0,1,0,0,hexagon,circle,2,0,2,0,3,9,45,7,,,,,,,,,,,,,,,,,,,,,,,,,,,,,,,,,,,,,,,,524.4952035,524.4952035,524.4952035,524.4952035,524.4952035,524.4952035,524.4952035,524.4952035,524.4952035,524.4952035,l,0.504408508,10,880,2,525.0288489,,526.5311035,,,,,,,,,,,,,,,,,,,,,,,,,,,,,,,,,,,,,,,,,,,,,,,,,,,,,,,,,,,,,,,,,,,,,,69140,2022-11-04_09h04.43.869,vts_reward_expectancy_bt_OFFLINE,2022.2.4,59.99473103
1,0,0,0,0,0,0,1,triangle,star,2,0,2,0,3,10,46,2,,,,,,,,,,,,,,,,,,,,,,,,,,,,,,,,,,,,,,,,527.03126,527.03126,527.03126,527.03126,527.03126,527.03126,527.03126,527.03126,527.03126,527.03126,a,1.040294482,10,890,2,528.0986042,529.599095,529.599095,530.0989563,,,,,,,,,,,,,,,,,,,,,,,,,,,,,,,,,,,,,,,,,,,,,,,,,,,,,,,,,,,,,,,,,,,,,69140,2022-11-04_09h04.43.869,vts_reward_expectancy_bt_OFFLINE,2022.2.4,59.99473103
0,0,0,1,1,0,0,0,star,triangle,2,0,2,0,3,11,47,9,,,,,,,,,,,,,,,,,,,,,,,,,,,,,,,,,,,,,,,,530.0989563,530.0989563,530.0989563,530.0989563,530.0989563,530.0989563,530.0989563,530.0989563,530.0989563,530.0989563,l,0.830798728,10,900,2,530.95125,532.4519782,532.4519782,,,,,,,,,,,,,,,,,,,,,,,,,,,,,,,,,,,,,,,,,,,,,,,,,,,,,,,,,,,,,,,,,,,,,,69140,2022-11-04_09h04.43.869,vts_reward_expectancy_bt_OFFLINE,2022.2.4,59.99473103
,,,,,,,,,,,,,,,,,,0,0,0,0,0,0,0,0,,,,,,,,,,,,,,,,,,,,,,,,,,,,,,,,,,,,,,,,,,,,,,,,,580.9540546,,132,F,triangle,0.0026963,576.7634307,578.2514532,578.2514532,578.2514532,1,0,d,1.177485274,0,579.4554677,,,,,,,,,,,,,,,,,,,,,,,,,,,,,,,,,,,,,,,,,,,,,,,,,,,,,,,69140,2022-11-04_09h04.43.869,vts_reward_expectancy_bt_OFFLINE,2022.2.4,59.99473103
,,,,,,,,,,,,,,,,,,0,0,0,0,1,0,1,0,,,,,,,,,,,,,,,,,,,,,,,,,,,,,,,,,,,,,,,,,,,,,,,,,586.1579471,,146,W,star,0.001806582,581.9504564,583.4384705,583.4384705,583.4384705,1,0,d,1.199667485,0,584.6560921,,,,,,,,,,,,,,,,,,,,,,,,,,,,,,,,,,,,,,,,,,,,,,,,,,,,,,,69140,2022-11-04_09h04.43.869,vts_reward_expectancy_bt_OFFLINE,2022.2.4,59.99473103
,,,,,,,,,,,,,,,,,,0,0,0,0,2,0,2,0,,,,,,,,,,,,,,,,,,,,,,,,,,,,,,,,,,,,,,,,,,,,,,,,,590.628215,,160,D,hexagon,0.001954116,587.153887,588.6421863,588.6421863,588.6421863,1,0,f,0.451536919,0,589.1257057,,,,,,,,,,,,,,,,,,,,,,,,,,,,,,,,,,,,,,,,,,,,,,,,,,,,,,,69140,2022-11-04_09h04.43.869,vts_reward_expectancy_bt_OFFLINE,2022.2.4,59.99473103
,,,,,,,,,,,,,,,,,,0,0,0,0,3,0,3,0,,,,,,,,,,,,,,,,,,,,,,,,,,,,,,,,,,,,,,,,,,,,,,,,,595.3964457,,181,S,circle,0.001577548,591.6238425,593.112232,593.112232,593.112232,1,0,f,0.75103655,0,593.8960247,595.3964457,,,,,,,,,,,,,,,,,,,,,,,,,,,,,,,,,,,,,,,,,,,,,,,,,,,,,,69140,2022-11-04_09h04.43.869,vts_reward_expectancy_bt_OFFLINE,2022.2.4,59.99473103
,,,,,,,,,,,,,,,,,,0,0,0,0,4,0,4,0,,,,,,,,,,,,,,,,,,,,,,,,,,,,,,,,,,,,,,,,,,,,,,,,,599.8668604,600.3669429,167,U,circle,0.001878257,596.394538,597.8826573,597.8826573,597.8826573,1,0,f,0.459341347,0,598.3663401,599.8668604,,,,,,,,,,,,,,,,,,,,,,,,,,,,,,,,,,,,,,,,,,,,,,,,,,,,,,69140,2022-11-04_09h04.43.869,vts_reward_expectancy_bt_OFFLINE,2022.2.4,59.99473103
,,,,,,,,,,,,,,,,,,0,0,0,0,5,0,5,0,,,,,,,,,,,,,,,,,,,,,,,,,,,,,,,,,,,,,,,,,,,,,,,,,604.3201146,,139,Y,star,0.000667536,600.8629208,602.3526877,602.3526877,602.3526877,1,0,d,0.443996962,0,602.8197417,604.3201146,,,,,,,,,,,,,,,,,,,,,,,,,,,,,,,,,,,,,,,,,,,,,,,,,,,,,,69140,2022-11-04_09h04.43.869,vts_reward_expectancy_bt_OFFLINE,2022.2.4,59.99473103
,,,,,,,,,,,,,,,,,,0,0,0,0,6,0,6,0,,,,,,,,,,,,,,,,,,,,,,,,,,,,,,,,,,,,,,,,,,,,,,,,,609.457155,609.9571036,174,H,triangle,0.000375043,605.316379,606.8061854,606.8061854,606.8061854,1,0,f,1.121054651,0,607.9568333,609.457155,,,,,,,,,,,,,,,,,,,,,,,,,,,,,,,,,,,,,,,,,,,,,,,,,,,,,,69140,2022-11-04_09h04.43.869,vts_reward_expectancy_bt_OFFLINE,2022.2.4,59.99473103
,,,,,,,,,,,,,,,,,,0,0,0,0,7,0,7,0,,,,,,,,,,,,,,,,,,,,,,,,,,,,,,,,,,,,,,,,,,,,,,,,,614.0939039,614.5940934,125,B,hexagon,0.000493045,610.4538357,611.9430071,611.9430071,611.9430071,1,0,d,0.618282725,0,612.5933807,614.0939039,,,,,,,,,,,,,,,,,,,,,,,,,,,,,,,,,,,,,,,,,,,,,,,,,,,,,,69140,2022-11-04_09h04.43.869,vts_reward_expectancy_bt_OFFLINE,2022.2.4,59.99473103
,,,,,,,,,,,,,,,,,,0,0,0,0,8,0,8,0,,,,,,,,,,,,,,,,,,,,,,,,,,,,,,,,,,,,,,,,,,,,,,,,,618.7141009,619.2143466,132,F,hexagon,0.000194319,615.0893547,616.5800668,616.5800668,616.5800668,1,0,d,0.617085397,0,617.2146056,618.7141009,,,,,,,,,,,,,,,,,,,,,,,,,,,,,,,,,,,,,,,,,,,,,,,,,,,,,,69140,2022-11-04_09h04.43.869,vts_reward_expectancy_bt_OFFLINE,2022.2.4,59.99473103
,,,,,,,,,,,,,,,,,,0,0,0,0,9,0,9,0,,,,,,,,,,,,,,,,,,,,,,,,,,,,,,,,,,,,,,,,,,,,,,,,,623.2508176,623.7609652,146,W,triangle,7.21E-05,619.7099865,621.200085,621.200085,621.200085,1,0,d,0.519468399,0,621.7509653,623.2508176,,,,,,,,,,,,,,,,,,,,,,,,,,,,,,,,,,,,,,,,,,,,,,,,,,,,,,69140,2022-11-04_09h04.43.869,vts_reward_expectancy_bt_OFFLINE,2022.2.4,59.99473103
,,,,,,,,,,,,,,,,,,,,,,,,,,0,0,0,0,0,0,0,0,,,,,,,,,,,,,,,,,,,,,,,,,,,,,,,,,,,,,,,,,646.3517646,,167,S,triangle,0.002593386,,,,,1,0,,,1,644.8499797,,641.743785,643.231881,643.231881,643.231881,k,1.595672443,,,,,,,,,,,,,,,,,,,,,,,,,,,,,,,,,,,,,,,,,,,,,,,,69140,2022-11-04_09h04.43.869,vts_reward_expectancy_bt_OFFLINE,2022.2.4,59.99473103
,,,,,,,,,,,,,,,,,,,,,,,,,,0,0,0,0,1,0,1,0,,,,,,,,,,,,,,,,,,,,,,,,,,,,,,,,,,,,,,,,,650.9386663,,174,H,star,0.00199386,,,,,1,0,,,1,649.436742,,647.347567,648.8359607,648.8359607,648.8359607,j,0.582678211,,,,,,,,,,,,,,,,,,,,,,,,,,,,,,,,,,,,,,,,,,,,,,,,69140,2022-11-04_09h04.43.869,vts_reward_expectancy_bt_OFFLINE,2022.2.4,59.99473103
,,,,,,,,,,,,,,,,,,,,,,,,,,0,0,0,0,2,0,2,0,,,,,,,,,,,,,,,,,,,,,,,,,,,,,,,,,,,,,,,,,655.6383124,,139,B,circle,0.001758384,,,,,1,0,,,1,654.1401469,655.6383124,651.9342749,653.422786,653.422786,653.422786,j,0.697589385,,,,,,,,,,,,,,,,,,,,,,,,,,,,,,,,,,,,,,,,,,,,,,,,69140,2022-11-04_09h04.43.869,vts_reward_expectancy_bt_OFFLINE,2022.2.4,59.99473103
,,,,,,,,,,,,,,,,,,,,,,,,,,0,0,0,0,3,0,3,0,,,,,,,,,,,,,,,,,,,,,,,,,,,,,,,,,,,,,,,,,660.2105519,,132,D,hexagon,0.002105438,,,,,1,0,,,1,658.7102747,660.2105519,656.6378258,658.1263027,658.1263027,658.1263027,j,0.561845093,,,,,,,,,,,,,,,,,,,,,,,,,,,,,,,,,,,,,,,,,,,,,,,,69140,2022-11-04_09h04.43.869,vts_reward_expectancy_bt_OFFLINE,2022.2.4,59.99473103
,,,,,,,,,,,,,,,,,,,,,,,,,,0,0,0,0,4,0,4,0,,,,,,,,,,,,,,,,,,,,,,,,,,,,,,,,,,,,,,,,,664.8473228,,125,U,triangle,0.002223053,,,,,1,0,,,1,663.3473987,664.8473228,661.207787,662.696455,662.696455,662.696455,k,0.627446729,,,,,,,,,,,,,,,,,,,,,,,,,,,,,,,,,,,,,,,,,,,,,,,,69140,2022-11-04_09h04.43.869,vts_reward_expectancy_bt_OFFLINE,2022.2.4,59.99473103
,,,,,,,,,,,,,,,,,,,,,,,,,,0,0,0,0,5,0,5,0,,,,,,,,,,,,,,,,,,,,,,,,,,,,,,,,,,,,,,,,,669.5508572,670.0507875,160,W,circle,0.000468067,,,,,1,0,,,1,668.0509089,669.5508572,665.8437786,667.3330984,667.3330984,667.3330984,k,0.693020452,,,,,,,,,,,,,,,,,,,,,,,,,,,,,,,,,,,,,,,,,,,,,,,,69140,2022-11-04_09h04.43.869,vts_reward_expectancy_bt_OFFLINE,2022.2.4,59.99473103
,,,,,,,,,,,,,,,,,,,,,,,,,,0,0,0,0,6,0,6,0,,,,,,,,,,,,,,,,,,,,,,,,,,,,,,,,,,,,,,,,,674.2541839,674.7542672,181,F,star,0.000476966,,,,,1,0,,,1,672.7542484,674.2541839,670.5470226,672.0367703,672.0367703,672.0367703,j,0.692515272,,,,,,,,,,,,,,,,,,,,,,,,,,,,,,,,,,,,,,,,,,,,,,,,69140,2022-11-04_09h04.43.869,vts_reward_expectancy_bt_OFFLINE,2022.2.4,59.99473103
,,,,,,,,,,,,,,,,,,,,,,,,,,0,0,0,0,7,0,7,0,,,,,,,,,,,,,,,,,,,,,,,,,,,,,,,,,,,,,,,,,678.9577386,679.4580198,146,Y,hexagon,0.000659569,,,,,1,0,,,1,677.4580639,678.9577386,675.2503894,676.7403331,676.7403331,676.7403331,k,0.691605396,,,,,,,,,,,,,,,,,,,,,,,,,,,,,,,,,,,,,,,,,,,,,,,,69140,2022-11-04_09h04.43.869,vts_reward_expectancy_bt_OFFLINE,2022.2.4,59.99473103
,,,,,,,,,,,,,,,,,,,,,,,,,,0,0,0,0,8,0,8,0,,,,,,,,,,,,,,,,,,,,,,,,,,,,,,,,,,,,,,,,,683.7947328,684.2947674,167,S,triangle,0.00040243,,,,,1,0,,,1,682.2947943,683.7947328,679.9537257,681.443856,681.443856,681.443856,k,0.826004597,,,,,,,,,,,,,,,,,,,,,,,,,,,,,,,,,,,,,,,,,,,,,,,,69140,2022-11-04_09h04.43.869,vts_reward_expectancy_bt_OFFLINE,2022.2.4,59.99473103
,,,,,,,,,,,,,,,,,,,,,,,,,,0,0,0,0,9,0,9,0,,,,,,,,,,,,,,,,,,,,,,,,,,,,,,,,,,,,,,,,,689.0315417,689.5343419,174,H,hexagon,0.0006198,,,,,1,0,,,1,687.5318428,689.0315417,684.7906516,686.2808886,686.2808886,686.2808886,j,1.219580825,,,,,,,,,,,,,,,,,,,,,,,,,,,,,,,,,,,,,,,,,,,,,,,,69140,2022-11-04_09h04.43.869,vts_reward_expectancy_bt_OFFLINE,2022.2.4,59.99473103
,,,,,,,,,,,,,,,,,,,,,,,,,,,,,,,,,,0,0,0,0,0,0,0,0,,,,,,,,,,,,,,,,,,,,,,,,,,,,0,900,,,,724.9242883,,160,W,triangle,0.017522197,,,,,-1,0,,,2,,,,,,,,,718.933951,718.933951,718.933951,718.933951,720.4042069,720.4042069,720.4042069,720.4042069,720.4375489,720.4375489,720.4375489,720.4375489,723.4103625,723.4103625,723.4103625,723.4103625,-1,no_choice,NA,None,vtsPrac,723.4103625,,,,,,,,,,,,,,,,,,,,,,,,,,69140,2022-11-04_09h04.43.869,vts_reward_expectancy_bt_OFFLINE,2022.2.4,59.99473103
,,,,,,,,,,,,,,,,,,,,,,,,,,,,,,,,,,0,0,0,0,1,0,1,0,,,,,,,,,,,,,,,,,,,,,,,,,,,,0,900,,,,729.5945144,,125,U,star,0.004931232,,,,,1,0,,,2,,,,,,,,,725.9211185,725.9211185,725.9211185,725.9211185,727.4104148,727.4104148,727.4104148,727.4104148,727.4270172,727.4270172,727.4270172,727.4270172,,,,,switch,number,numSwt,d,vtsPrac,728.0809379,0.636188783,,,,,,,,,,,,,,,,,,,,,,,,,69140,2022-11-04_09h04.43.869,vts_reward_expectancy_bt_OFFLINE,2022.2.4,59.99473103
,,,,,,,,,,,,,,,,,,,,,,,,,,,,,,,,,,0,0,0,0,2,0,2,0,,,,,,,,,,,,,,,,,,,,,,,,,,,,0,900,,,,734.0644708,,146,F,hexagon,0.016790493,,,,,0,0,,,2,,,,,,,,,730.5906539,730.5906539,730.5906539,730.5906539,732.0638908,732.0638908,732.0638908,732.0638908,732.0972311,732.0972311,732.0972311,732.0972311,,,,,repeat,number,NA,f,vtsPrac,732.5510387,0.460765495,,,,,,,,,,,,,,,,,,,,,,,,,69140,2022-11-04_09h04.43.869,vts_reward_expectancy_bt_OFFLINE,2022.2.4,59.99473103
,,,,,,,,,,,,,,,,,,,,,,,,,,,,,,,,,,0,0,0,0,3,0,3,0,,,,,,,,,,,,,,,,,,,,,,,,,,,,0,900,,,,738.6177742,,174,H,star,0.016717411,,,,,1,1,,,2,,,,,,,,,735.0609754,735.0609754,735.0609754,735.0609754,736.5339285,736.5339285,736.5339285,736.5339285,736.567074,736.567074,736.567074,736.567074,,,,,switch,letter,lettSwt,j,vtsPrac,737.1042821,0.536242492,,,,,,,,,,,,,,,,,,,,,,,,,69140,2022-11-04_09h04.43.869,vts_reward_expectancy_bt_OFFLINE,2022.2.4,59.99473103
,,,,,,,,,,,,,,,,,,,,,,,,,,,,,,,,,,0,0,0,0,4,0,4,0,,,,,,,,,,,,,,,,,,,,,,,,,,,,0,900,,,,743.0713349,,160,W,circle,0.016764768,,,,,0,0,,,2,,,,,,,,,739.6138044,739.6138044,739.6138044,739.6138044,741.0873193,741.0873193,741.0873193,741.0873193,741.120697,741.120697,741.120697,741.120697,,,,,repeat,letter,NA,j,vtsPrac,741.5573737,0.437866692,,,,,,,,,,,,,,,,,,,,,,,,,69140,2022-11-04_09h04.43.869,vts_reward_expectancy_bt_OFFLINE,2022.2.4,59.99473103
,,,,,,,,,,,,,,,,,,,,,,,,,,,,,,,,,,0,0,0,0,5,0,5,0,,,,,,,,,,,,,,,,,,,,,,,,,,,,0,900,,,,747.6583705,,125,U,hexagon,0.016898446,,,,,1,1,,,2,,,,,,,,,744.0667992,744.0667992,744.0667992,744.0667992,745.5391246,745.5391246,745.5391246,745.5391246,745.5722744,745.5722744,745.5722744,745.5722744,,,,,switch,number,numSwt,d,vtsPrac,746.1445438,0.575945249,,,,,,,,,,,,,,,,,,,,,,,,,69140,2022-11-04_09h04.43.869,vts_reward_expectancy_bt_OFFLINE,2022.2.4,59.99473103
,,,,,,,,,,,,,,,,,,,,,,,,,,,,,,,,,,0,0,0,0,6,0,6,0,,,,,,,,,,,,,,,,,,,,,,,,,,,,0,900,,,,752.4119817,752.9119363,146,F,circle,0.016646436,,,,,1,0,,,2,,,,,,,,,748.6542259,748.6542259,748.6542259,748.6542259,750.1258615,750.1258615,750.1258615,750.1258615,750.1591909,750.1591909,750.1591909,750.1591909,,,,,repeat,number,numRpt,d,vtsPrac,750.9121,0.759790782,752.4119817,,,,,,,,,,,,,,,,,,,,,,,,69140,2022-11-04_09h04.43.869,vts_reward_expectancy_bt_OFFLINE,2022.2.4,59.99473103
,,,,,,,,,,,,,,,,,,,,,,,,,,,,,,,,,,0,0,0,0,7,0,7,0,,,,,,,,,,,,,,,,,,,,,,,,,,,,0,900,,,,756.8817873,,174,H,hexagon,0.000395855,,,,,1,0,,,2,,,,,,,,,753.4079911,753.4079911,753.4079911,753.4079911,754.8960539,754.8960539,754.8960539,754.8960539,754.9128721,754.9128721,754.9128721,754.9128721,,,,,switch,letter,lettSwt,j,vtsPrac,755.3807112,0.466855379,,,,,,,,,,,,,,,,,,,,,,,,,69140,2022-11-04_09h04.43.869,vts_reward_expectancy_bt_OFFLINE,2022.2.4,59.99473103
,,,,,,,,,,,,,,,,,,,,,,,,,,,,,,,,,,0,0,0,0,8,0,8,0,,,,,,,,,,,,,,,,,,,,,,,,,,,,0,900,,,,761.3685843,,160,F,circle,0.001558072,,,,,1,0,,,2,,,,,,,,,757.8778509,757.8778509,757.8778509,757.8778509,759.3660581,759.3660581,759.3660581,759.3660581,759.3828913,759.3828913,759.3828913,759.3828913,,,,,repeat,letter,lettRpt,j,vtsPrac,759.8670961,0.474498671,,,,,,,,,,,,,,,,,,,,,,,,,69140,2022-11-04_09h04.43.869,vts_reward_expectancy_bt_OFFLINE,2022.2.4,59.99473103
,,,,,,,,,,,,,,,,,,,,,,,,,,,,,,,,,,0,0,0,0,9,0,9,0,,,,,,,,,,,,,,,,,,,,,,,,,,,,0,900,,,,765.8388675,,139,U,triangle,0.002000821,,,,,1,0,,,2,,,,,,,,,762.3649104,762.3649104,762.3649104,762.3649104,763.8528674,763.8528674,763.8528674,763.8528674,763.8695774,763.8695774,763.8695774,763.8695774,,,,,switch,number,numSwt,d,vtsPrac,764.3374017,0.453846442,,,,,,,,,,,,,,,,,,,,,,,,,69140,2022-11-04_09h04.43.869,vts_reward_expectancy_bt_OFFLINE,2022.2.4,59.99473103
,,,,,,,,,,,,,,,,,,,,,,,,,,,,,,,,,,0,0,0,0,10,0,10,0,,,,,,,,,,,,,,,,,,,,,,,,,,,,0,900,,,,770.440459,,174,B,star,0.001635734,,,,,1,0,,,2,,,,,,,,,766.834371,766.834371,766.834371,766.834371,768.3230188,768.3230188,768.3230188,768.3230188,768.3396654,768.3396654,768.3396654,768.3396654,,,,,repeat,number,numRpt,f,vtsPrac,768.9406864,0.596539208,770.440459,,,,,,,,,,,,,,,,,,,,,,,,69140,2022-11-04_09h04.43.869,vts_reward_expectancy_bt_OFFLINE,2022.2.4,59.99473103
,,,,,,,,,,,,,,,,,,,,,,,,,,,,,,,,,,0,0,0,0,11,0,11,0,,,,,,,,,,,,,,,,,,,,,,,,,,,,0,900,,,,775.0274802,775.5275442,132,W,hexagon,0.002031998,,,,,1,0,,,2,,,,,,,,,771.4378716,771.4378716,771.4378716,771.4378716,772.9265665,772.9265665,772.9265665,772.9265665,772.9432065,772.9432065,772.9432065,772.9432065,,,,,repeat,number,numRpt,d,vtsPrac,773.5275696,0.572052331,775.0274802,,,,,,,,,,,,,,,,,,,,,,,,69140,2022-11-04_09h04.43.869,vts_reward_expectancy_bt_OFFLINE,2022.2.4,59.99473103
,,,,,,,,,,,,,,,,,,,,,,,,,,,,,,,,,,0,0,0,0,12,0,12,0,,,,,,,,,,,,,,,,,,,,,,,,,,,,0,900,,,,779.6975174,780.1978271,139,H,triangle,0.000450841,,,,,1,0,,,2,,,,,,,,,776.0237573,776.0237573,776.0237573,776.0237573,777.5134051,777.5134051,777.5134051,777.5134051,777.5301625,777.5301625,777.5301625,777.5301625,,,,,switch,letter,lettSwt,j,vtsPrac,778.1977372,0.664841054,779.6975174,,,,,,,,,,,,,,,,,,,,,,,,69140,2022-11-04_09h04.43.869,vts_reward_expectancy_bt_OFFLINE,2022.2.4,59.99473103
,,,,,,,,,,,,,,,,,,,,,,,,,,,,,,,,,,0,0,0,0,13,0,13,0,,,,,,,,,,,,,,,,,,,,,,,,,,,,0,900,,,,784.0341016,,174,F,hexagon,0.000523009,,,,,0,0,,,2,,,,,,,,,780.6938122,780.6938122,780.6938122,780.6938122,782.1835225,782.1835225,782.1835225,782.1835225,782.2000975,782.2000975,782.2000975,782.2000975,,,,,repeat,letter,NA,k,vtsPrac,782.520219,0.315966416,,,,,,,,,,,,,,,,,,,,,,,,,69140,2022-11-04_09h04.43.869,vts_reward_expectancy_bt_OFFLINE,2022.2.4,59.99473103
,,,,,,,,,,,,,,,,,,,,,,,,,,,,,,,,,,0,0,0,0,14,0,14,0,,,,,,,,,,,,,,,,,,,,,,,,,,,,0,900,,,,788.4710544,,160,U,hexagon,0.016793181,,,,,1,1,,,2,,,,,,,,,785.0307293,785.0307293,785.0307293,785.0307293,786.5034655,786.5034655,786.5034655,786.5034655,786.5369196,786.5369196,786.5369196,786.5369196,,,,,repeat,letter,lettRpt,k,vtsPrac,786.9571083,0.427434292,,,,,,,,,,,,,,,,,,,,,,,,,69140,2022-11-04_09h04.43.869,vts_reward_expectancy_bt_OFFLINE,2022.2.4,59.99473103
,,,,,,,,,,,,,,,,,,,,,,,,,,,,,,,,,,0,0,0,0,15,0,15,0,,,,,,,,,,,,,,,,,,,,,,,,,,,,0,900,,,,792.9744959,793.474596,167,W,circle,0.016794796,,,,,1,0,,,2,,,,,,,,,789.4666675,789.4666675,789.4666675,789.4666675,790.9403704,790.9403704,790.9403704,790.9403704,790.9736831,790.9736831,790.9736831,790.9736831,,,,,switch,number,numSwt,f,vtsPrac,791.474678,0.513285139,792.9744959,,,,,,,,,,,,,,,,,,,,,,,,69140,2022-11-04_09h04.43.869,vts_reward_expectancy_bt_OFFLINE,2022.2.4,59.99473103
,,,,,,,,,,,,,,,,,,,,,,,,,,,,,,,,,,0,0,0,0,16,0,16,0,,,,,,,,,,,,,,,,,,,,,,,,,,,,0,900,,,,797.6780815,,132,B,star,0.00045722,,,,,1,0,,,2,,,,,,,,,793.9701274,793.9701274,793.9701274,793.9701274,795.4586775,795.4586775,795.4586775,795.4586775,795.4750883,795.4750883,795.4750883,795.4750883,,,,,repeat,number,numRpt,d,vtsPrac,796.1779803,0.697597296,797.6780815,,,,,,,,,,,,,,,,,,,,,,,,69140,2022-11-04_09h04.43.869,vts_reward_expectancy_bt_OFFLINE,2022.2.4,59.99473103
,,,,,,,,,,,,,,,,,,,,,,,,,,,,,,,,,,0,0,0,0,17,0,17,0,,,,,,,,,,,,,,,,,,,,,,,,,,,,0,900,,,,802.331558,802.8315936,125,Y,hexagon,0.000555261,,,,,1,0,,,2,,,,,,,,,798.6739423,798.6739423,798.6739423,798.6739423,800.1622629,800.1622629,800.1622629,800.1622629,800.17897,800.17897,800.17897,800.17897,,,,,repeat,number,numRpt,d,vtsPrac,800.8317413,0.651510765,802.331558,,,,,,,,,,,,,,,,,,,,,,,,69140,2022-11-04_09h04.43.869,vts_reward_expectancy_bt_OFFLINE,2022.2.4,59.99473103
,,,,,,,,,,,,,,,,,,,,,,,,,,,,,,,,,,0,0,0,0,18,0,18,0,,,,,,,,,,,,,,,,,,,,,,,,,,,,0,900,,,,807.0684974,,174,D,triangle,0.000330007,,,,,1,0,,,2,,,,,,,,,803.3277513,803.3277513,803.3277513,803.3277513,804.8157252,804.8157252,804.8157252,804.8157252,804.8323806,804.8323806,804.8323806,804.8323806,,,,,switch,letter,lettSwt,j,vtsPrac,805.566824,0.723480678,,,,,,,,,,,,,,,,,,,,,,,,,69140,2022-11-04_09h04.43.869,vts_reward_expectancy_bt_OFFLINE,2022.2.4,59.99473103
,,,,,,,,,,,,,,,,,,,,,,,,,,,,,,,,,,0,0,0,0,19,0,19,0,,,,,,,,,,,,,,,,,,,,,,,,,,,,0,900,,,,811.4885869,,139,U,hexagon,0.002025498,,,,,1,0,,,2,,,,,,,,,808.0643105,808.0643105,808.0643105,808.0643105,809.552562,809.552562,809.552562,809.552562,809.569189,809.569189,809.569189,809.569189,,,,,repeat,letter,lettRpt,k,vtsPrac,809.9867086,0.407857431,,,,,,,,,,,,,,,,,,,,,,,,,69140,2022-11-04_09h04.43.869,vts_reward_expectancy_bt_OFFLINE,2022.2.4,59.99473103
,,,,,,,,,,,,,,,,,,,,,,,,,,,,,,,,,,0,0,0,0,20,0,20,0,,,,,,,,,,,,,,,,,,,,,,,,,,,,0,900,,,,816.0086112,,139,B,triangle,0.002182557,,,,,1,0,,,2,,,,,,,,,812.484366,812.484366,812.484366,812.484366,813.9727574,813.9727574,813.9727574,813.9727574,813.9893,813.9893,813.9893,813.9893,,,,,repeat,letter,lettRpt,j,vtsPrac,814.5069728,0.510281858,,,,,,,,,,,,,,,,,,,,,,,,,69140,2022-11-04_09h04.43.869,vts_reward_expectancy_bt_OFFLINE,2022.2.4,59.99473103
,,,,,,,,,,,,,,,,,,,,,,,,,,,,,,,,,,0,0,0,0,21,0,21,0,,,,,,,,,,,,,,,,,,,,,,,,,,,,0,900,,,,820.526962,,174,H,circle,0.002004709,,,,,0,0,,,2,,,,,,,,,817.0041247,817.0041247,817.0041247,817.0041247,818.4929816,818.4929816,818.4929816,818.4929816,818.5094889,818.5094889,818.5094889,818.5094889,,,,,switch,number,NA,d,vtsPrac,819.0125052,0.491378321,,,,,,,,,,,,,,,,,,,,,,,,,69140,2022-11-04_09h04.43.869,vts_reward_expectancy_bt_OFFLINE,2022.2.4,59.99473103
,,,,,,,,,,,,,,,,,,,,,,,,,,,,,,,,,,0,0,0,0,22,0,22,0,,,,,,,,,,,,,,,,,,,,,,,,,,,,0,900,,,,825.1301529,,146,U,circle,0.00195331,,,,,1,1,,,2,,,,,,,,,821.5076775,821.5076775,821.5076775,821.5076775,822.9960952,822.9960952,822.9960952,822.9960952,823.012946,823.012946,823.012946,823.012946,,,,,repeat,number,numRpt,d,vtsPrac,823.6168603,0.600446666,,,,,,,,,,,,,,,,,,,,,,,,,69140,2022-11-04_09h04.43.869,vts_reward_expectancy_bt_OFFLINE,2022.2.4,59.99473103
,,,,,,,,,,,,,,,,,,,,,,,,,,,,,,,,,,0,0,0,0,23,0,23,0,,,,,,,,,,,,,,,,,,,,,,,,,,,,0,900,,,,830.5008798,,132,W,star,0.016627109,,,,,1,0,,,2,,,,,,,,,826.1266816,826.1266816,826.1266816,826.1266816,827.5996842,827.5996842,827.5996842,827.5996842,827.6330675,827.6330675,827.6330675,827.6330675,,,,,switch,letter,lettSwt,k,vtsPrac,829.0012672,1.374965401,830.5008798,,,,,,,,,,,,,,,,,,,,,,,,69140,2022-11-04_09h04.43.869,vts_reward_expectancy_bt_OFFLINE,2022.2.4,59.99473103
,,,,,,,,,,,,,,,,,,,,,,,,,,,,,,,,,,0,0,0,0,24,0,24,0,,,,,,,,,,,,,,,,,,,,,,,,,,,,0,900,,,,835.4211568,,160,Y,hexagon,0.001860374,,,,,0,0,,,2,,,,,,,,,831.4979569,831.4979569,831.4979569,831.4979569,832.9869765,832.9869765,832.9869765,832.9869765,833.0037343,833.0037343,833.0037343,833.0037343,,,,,switch,number,NA,d,vtsPrac,833.9069752,0.892604043,,,,,,,,,,,,,,,,,,,,,,,,,69140,2022-11-04_09h04.43.869,vts_reward_expectancy_bt_OFFLINE,2022.2.4,59.99473103
,,,,,,,,,,,,,,,,,,,,,,,,,,,,,,,,,,0,0,0,0,25,0,25,0,,,,,,,,,,,,,,,,,,,,,,,,,,,,0,900,,,,840.7082238,,146,B,triangle,0.001757381,,,,,0,1,,,2,,,,,,,,,836.4017446,836.4017446,836.4017446,836.4017446,837.8904564,837.8904564,837.8904564,837.8904564,837.9071216,837.9071216,837.9071216,837.9071216,,,,,repeat,number,NA,f,vtsPrac,839.2084922,1.299663233,840.7082238,,,,,,,,,,,,,,,,,,,,,,,,69140,2022-11-04_09h04.43.869,vts_reward_expectancy_bt_OFFLINE,2022.2.4,59.99473103
,,,,,,,,,,,,,,,,,,,,,,,,,,,,,,,,,,0,0,0,0,26,0,26,0,,,,,,,,,,,,,,,,,,,,,,,,,,,,0,900,,,,845.4118484,,174,H,triangle,0.002126203,,,,,1,1,,,2,,,,,,,,,841.7056308,841.7056308,841.7056308,841.7056308,843.1942544,843.1942544,843.1942544,843.1942544,843.2108366,843.2108366,843.2108366,843.2108366,,,,,switch,letter,lettSwt,j,vtsPrac,843.8978774,0.67486317,,,,,,,,,,,,,,,,,,,,,,,,,69140,2022-11-04_09h04.43.869,vts_reward_expectancy_bt_OFFLINE,2022.2.4,59.99473103
,,,,,,,,,,,,,,,,,,,,,,,,,,,,,,,,,,0,0,0,0,27,0,27,0,,,,,,,,,,,,,,,,,,,,,,,,,,,,0,900,,,,850.0485922,850.5488317,181,D,star,0.002116026,,,,,1,0,,,2,,,,,,,,,846.3924026,846.3924026,846.3924026,846.3924026,847.8810131,847.8810131,847.8810131,847.8810131,847.8977679,847.8977679,847.8977679,847.8977679,,,,,repeat,letter,lettRpt,j,vtsPrac,848.5489337,0.646380119,850.0485922,,,,,,,,,,,,,,,,,,,,,,,,69140,2022-11-04_09h04.43.869,vts_reward_expectancy_bt_OFFLINE,2022.2.4,59.99473103
,,,,,,,,,,,,,,,,,,,,,,,,,,,,,,,,,,0,0,0,0,28,0,28,0,,,,,,,,,,,,,,,,,,,,,,,,,,,,0,900,,,,854.702091,855.2020933,174,U,star,0.000751668,,,,,1,0,,,2,,,,,,,,,851.0448447,851.0448447,851.0448447,851.0448447,852.5344867,852.5344867,852.5344867,852.5344867,852.551515,852.551515,852.551515,852.551515,,,,,repeat,letter,lettRpt,k,vtsPrac,853.2024556,0.638640034,854.702091,,,,,,,,,,,,,,,,,,,,,,,,69140,2022-11-04_09h04.43.869,vts_reward_expectancy_bt_OFFLINE,2022.2.4,59.99473103
,,,,,,,,,,,,,,,,,,,,,,,,,,,,,,,,,,0,0,0,0,29,0,29,0,,,,,,,,,,,,,,,,,,,,,,,,,,,,0,900,,,,859.0886358,859.5889215,132,H,hexagon,0.000386837,,,,,1,0,,,2,,,,,,,,,855.6983589,855.6983589,855.6983589,855.6983589,857.188096,857.188096,857.188096,857.188096,857.2047728,857.2047728,857.2047728,857.2047728,,,,,switch,number,numSwt,d,vtsPrac,857.5890563,0.372974002,859.0886358,,,,,,,,,,,,,,,,,,,,,,,,69140,2022-11-04_09h04.43.869,vts_reward_expectancy_bt_OFFLINE,2022.2.4,59.99473103
,,,,,,,,,,,,,,,,,,,,,,,,,,,,,,,,,,0,0,0,0,30,0,30,0,,,,,,,,,,,,,,,,,,,,,,,,,,,,0,900,,,,863.7590293,864.2591657,160,Y,circle,0.000513973,,,,,1,0,,,2,,,,,,,,,860.0848197,860.0848197,860.0848197,860.0848197,861.5748897,861.5748897,861.5748897,861.5748897,861.5914536,861.5914536,861.5914536,861.5914536,,,,,repeat,number,numRpt,f,vtsPrac,862.259245,0.655061134,863.7590293,,,,,,,,,,,,,,,,,,,,,,,,69140,2022-11-04_09h04.43.869,vts_reward_expectancy_bt_OFFLINE,2022.2.4,59.99473103
,,,,,,,,,,,,,,,,,,,,,,,,,,,,,,,,,,0,0,0,0,31,0,31,0,,,,,,,,,,,,,,,,,,,,,,,,,,,,0,900,,,,868.3955684,868.90746,146,S,star,0.000414484,,,,,1,0,,,2,,,,,,,,,864.7550491,864.7550491,864.7550491,864.7550491,866.2449566,866.2449566,866.2449566,866.2449566,866.2614457,866.2614457,866.2614457,866.2614457,,,,,switch,letter,lettSwt,k,vtsPrac,866.8961026,0.620674598,868.3955684,,,,,,,,,,,,,,,,,,,,,,,,69140,2022-11-04_09h04.43.869,vts_reward_expectancy_bt_OFFLINE,2022.2.4,59.99473103
,,,,,,,,,,,,,,,,,,,,,,,,,,,,,,,,,,1,0,1,0,0,0,0,0,,,,,,,,,,,,,,,,,,,,,,,,,,,,0,900,,,,891.5965823,,132,F,hexagon,0.00235908,,,,,1,0,,,3,,,,,,,,,888.0224321,888.0224321,888.0224321,888.0224321,889.5107041,889.5107041,889.5107041,889.5107041,889.5272454,889.5272454,889.5272454,889.5272454,,,,,switch,number,numSwt,d,vtsPrac,890.0952885,0.564617278,,,,,,,,,,,,,,,,,,,,,,,,,69140,2022-11-04_09h04.43.869,vts_reward_expectancy_bt_OFFLINE,2022.2.4,59.99473103
,,,,,,,,,,,,,,,,,,,,,,,,,,,,,,,,,,1,0,1,0,1,0,1,0,,,,,,,,,,,,,,,,,,,,,,,,,,,,0,900,,,,896.3335695,,174,Y,circle,0.001942378,,,,,1,0,,,3,,,,,,,,,892.5923889,892.5923889,892.5923889,892.5923889,894.0807795,894.0807795,894.0807795,894.0807795,894.0975041,894.0975041,894.0975041,894.0975041,,,,,switch,letter,lettSwt,k,vtsPrac,894.8323434,0.719714579,,,,,,,,,,,,,,,,,,,,,,,,,69140,2022-11-04_09h04.43.869,vts_reward_expectancy_bt_OFFLINE,2022.2.4,59.99473103
,,,,,,,,,,,,,,,,,,,,,,,,,,,,,,,,,,1,0,1,0,2,0,2,0,,,,,,,,,,,,,,,,,,,,,,,,,,,,0,900,,,,900.8868674,,167,D,star,0.001855641,,,,,1,0,,,3,,,,,,,,,897.3288606,897.3288606,897.3288606,897.3288606,898.8177785,898.8177785,898.8177785,898.8177785,898.8344664,898.8344664,898.8344664,898.8344664,,,,,switch,number,numSwt,f,vtsPrac,899.3860865,0.550234014,,,,,,,,,,,,,,,,,,,,,,,,,69140,2022-11-04_09h04.43.869,vts_reward_expectancy_bt_OFFLINE,2022.2.4,59.99473103
,,,,,,,,,,,,,,,,,,,,,,,,,,,,,,,,,,1,0,1,0,3,0,3,0,,,,,,,,,,,,,,,,,,,,,,,,,,,,0,900,,,,905.4887493,,160,B,hexagon,0.001364249,,,,,1,0,,,3,,,,,,,,,901.8822321,901.8822321,901.8822321,901.8822321,903.3713128,903.3713128,903.3713128,903.3713128,903.3880964,903.3880964,903.3880964,903.3880964,,,,,switch,letter,lettSwt,j,vtsPrac,903.9889179,0.597447525,905.4887493,,,,,,,,,,,,,,,,,,,,,,,,69140,2022-11-04_09h04.43.869,vts_reward_expectancy_bt_OFFLINE,2022.2.4,59.99473103
,,,,,,,,,,,,,,,,,,,,,,,,,,,,,,,,,,1,0,1,0,4,0,4,0,,,,,,,,,,,,,,,,,,,,,,,,,,,,0,900,,,,910.2089703,910.7090449,132,F,circle,0.002108078,,,,,1,0,,,3,,,,,,,,,906.4859568,906.4859568,906.4859568,906.4859568,907.9745659,907.9745659,907.9745659,907.9745659,907.9915967,907.9915967,907.9915967,907.9915967,,,,,switch,number,numSwt,d,vtsPrac,908.7094237,0.70821604,910.2089703,,,,,,,,,,,,,,,,,,,,,,,,69140,2022-11-04_09h04.43.869,vts_reward_expectancy_bt_OFFLINE,2022.2.4,59.99473103
,,,,,,,,,,,,,,,,,,,,,,,,,,,,,,,,,,1,0,1,0,5,0,5,0,,,,,,,,,,,,,,,,,,,,,,,,,,,,0,900,,,,914.6790215,915.1792393,174,Y,triangle,0.00047696,,,,,1,0,,,3,,,,,,,,,911.2050093,911.2050093,911.2050093,911.2050093,912.694875,912.694875,912.694875,912.694875,912.711689,912.711689,912.711689,912.711689,,,,,switch,letter,lettSwt,k,vtsPrac,913.1798343,0.454198149,914.6790215,,,,,,,,,,,,,,,,,,,,,,,,69140,2022-11-04_09h04.43.869,vts_reward_expectancy_bt_OFFLINE,2022.2.4,59.99473103
,,,,,,,,,,,,,,,,,,,,,,,,,,,,,,,,,,1,0,1,0,6,0,6,0,,,,,,,,,,,,,,,,,,,,,,,,,,,,0,900,,,,919.1656695,919.6659275,167,D,triangle,0.000456863,,,,,1,0,,,3,,,,,,,,,915.6755036,915.6755036,915.6755036,915.6755036,917.1650718,917.1650718,917.1650718,917.1650718,917.1817515,917.1817515,917.1817515,917.1817515,,,,,switch,number,numSwt,f,vtsPrac,917.6663754,0.47285926,919.1656695,,,,,,,,,,,,,,,,,,,,,,,,69140,2022-11-04_09h04.43.869,vts_reward_expectancy_bt_OFFLINE,2022.2.4,59.99473103
,,,,,,,,,,,,,,,,,,,,,,,,,,,,,,,,,,1,0,1,0,7,0,7,0,,,,,,,,,,,,,,,,,,,,,,,,,,,,0,900,,,,923.785909,924.2859265,160,B,star,0.000520925,,,,,1,0,,,3,,,,,,,,,920.1620714,920.1620714,920.1620714,920.1620714,921.6517217,921.6517217,921.6517217,921.6517217,921.6684522,921.6684522,921.6684522,921.6684522,,,,,switch,letter,lettSwt,j,vtsPrac,922.2866857,0.610970568,923.785909,,,,,,,,,,,,,,,,,,,,,,,,69140,2022-11-04_09h04.43.869,vts_reward_expectancy_bt_OFFLINE,2022.2.4,59.99473103
,,,,,,,,,,,,,,,,,,,,,,,,,,,,,,,,,,1,0,1,0,8,0,8,0,,,,,,,,,,,,,,,,,,,,,,,,,,,,0,900,,,,928.3727242,928.8729796,132,Y,triangle,0.000294811,,,,,1,0,,,3,,,,,,,,,924.7822538,924.7822538,924.7822538,924.7822538,926.2718608,926.2718608,926.2718608,926.2718608,926.2885796,926.2885796,926.2885796,926.2885796,,,,,switch,number,numSwt,d,vtsPrac,926.8736672,0.569446542,928.3727242,,,,,,,,,,,,,,,,,,,,,,,,69140,2022-11-04_09h04.43.869,vts_reward_expectancy_bt_OFFLINE,2022.2.4,59.99473103
,,,,,,,,,,,,,,,,,,,,,,,,,,,,,,,,,,1,0,1,0,9,0,9,0,,,,,,,,,,,,,,,,,,,,,,,,,,,,0,900,,,,932.9263139,933.4264035,160,H,star,0.000673779,,,,,1,0,,,3,,,,,,,,,929.3690183,929.3690183,929.3690183,929.3690183,930.8619653,930.8619653,930.8619653,930.8619653,930.8756443,930.8756443,930.8756443,930.8756443,,,,,switch,letter,lettSwt,j,vtsPrac,931.427254,0.54696041,932.9263139,,,,,,,,,,,,,,,,,,,,,,,,69140,2022-11-04_09h04.43.869,vts_reward_expectancy_bt_OFFLINE,2022.2.4,59.99473103
,,,,,,,,,,,,,,,,,,,,,,,,,,,,,,,,,,1,0,1,0,10,0,10,0,,,,,,,,,,,,,,,,,,,,,,,,,,,,0,900,,,,937.6631986,938.1633093,146,U,circle,0.000359642,,,,,1,0,,,3,,,,,,,,,933.9222994,933.9222994,933.9222994,933.9222994,935.410557,935.410557,935.410557,935.410557,935.4270737,935.4270737,935.4270737,935.4270737,,,,,switch,number,numSwt,d,vtsPrac,936.1636278,0.72376673,937.6631986,,,,,,,,,,,,,,,,,,,,,,,,69140,2022-11-04_09h04.43.869,vts_reward_expectancy_bt_OFFLINE,2022.2.4,59.99473103
,,,,,,,,,,,,,,,,,,,,,,,,,,,,,,,,,,1,0,1,0,11,0,11,0,,,,,,,,,,,,,,,,,,,,,,,,,,,,0,900,,,,942.1664235,,181,W,hexagon,0.000714606,,,,,1,0,,,3,,,,,,,,,938.6592905,938.6592905,938.6592905,938.6592905,940.1474152,940.1474152,940.1474152,940.1474152,940.1641132,940.1641132,940.1641132,940.1641132,,,,,switch,letter,lettSwt,k,vtsPrac,940.6651127,0.487094628,,,,,,,,,,,,,,,,,,,,,,,,,69140,2022-11-04_09h04.43.869,vts_reward_expectancy_bt_OFFLINE,2022.2.4,59.99473103
,,,,,,,,,,,,,,,,,,,,,,,,,,,,,,,,,,1,0,1,0,12,0,12,0,,,,,,,,,,,,,,,,,,,,,,,,,,,,0,900,,,,946.7369245,,146,S,star,0.002034624,,,,,1,0,,,3,,,,,,,,,943.1621908,943.1621908,943.1621908,943.1621908,944.650707,944.650707,944.650707,944.650707,944.6675138,944.6675138,944.6675138,944.6675138,,,,,switch,number,numSwt,d,vtsPrac,945.2342152,0.551533013,,,,,,,,,,,,,,,,,,,,,,,,,69140,2022-11-04_09h04.43.869,vts_reward_expectancy_bt_OFFLINE,2022.2.4,59.99473103
,,,,,,,,,,,,,,,,,,,,,,,,,,,,,,,,,,1,0,1,0,13,0,13,0,,,,,,,,,,,,,,,,,,,,,,,,,,,,0,900,,,,951.4068463,,181,B,circle,0.001226802,,,,,1,0,,,3,,,,,,,,,947.7324314,947.7324314,947.7324314,947.7324314,949.2209597,949.2209597,949.2209597,949.2209597,949.2376765,949.2376765,949.2376765,949.2376765,,,,,switch,letter,lettSwt,j,vtsPrac,949.9057338,0.661593067,,,,,,,,,,,,,,,,,,,,,,,,,69140,2022-11-04_09h04.43.869,vts_reward_expectancy_bt_OFFLINE,2022.2.4,59.99473103
,,,,,,,,,,,,,,,,,,,,,,,,,,,,,,,,,,1,0,1,0,14,0,14,0,,,,,,,,,,,,,,,,,,,,,,,,,,,,0,900,,,,956.1604337,,139,F,star,0.001872246,,,,,1,0,,,3,,,,,,,,,952.4026866,952.4026866,952.4026866,952.4026866,953.8909617,953.8909617,953.8909617,953.8909617,953.9076996,953.9076996,953.9076996,953.9076996,,,,,switch,number,numSwt,d,vtsPrac,954.6592044,0.738983647,,,,,,,,,,,,,,,,,,,,,,,,,69140,2022-11-04_09h04.43.869,vts_reward_expectancy_bt_OFFLINE,2022.2.4,59.99473103
,,,,,,,,,,,,,,,,,,,,,,,,,,,,,,,,,,1,0,1,0,15,0,15,0,,,,,,,,,,,,,,,,,,,,,,,,,,,,0,900,,,,960.728899,,132,H,circle,0.002056529,,,,,1,0,,,3,,,,,,,,,957.156095,957.156095,957.156095,957.156095,958.6445105,958.6445105,958.6445105,958.6445105,958.6612015,958.6612015,958.6612015,958.6612015,,,,,switch,letter,lettSwt,j,vtsPrac,959.2296908,0.564212025,960.728899,,,,,,,,,,,,,,,,,,,,,,,,69140,2022-11-04_09h04.43.869,vts_reward_expectancy_bt_OFFLINE,2022.2.4,59.99473103
,,,,,,,,,,,,,,,,,,,,,,,,,,,,,,,,,,1,0,1,0,16,0,16,0,,,,,,,,,,,,,,,,,,,,,,,,,,,,0,900,,,,965.3323963,,132,B,star,0.001835953,,,,,1,0,,,3,,,,,,,,,961.7261074,961.7261074,961.7261074,961.7261074,963.2147948,963.2147948,963.2147948,963.2147948,963.2316095,963.2316095,963.2316095,963.2316095,,,,,switch,number,numSwt,d,vtsPrac,963.8328945,0.594723384,965.3323963,,,,,,,,,,,,,,,,,,,,,,,,69140,2022-11-04_09h04.43.869,vts_reward_expectancy_bt_OFFLINE,2022.2.4,59.99473103
,,,,,,,,,,,,,,,,,,,,,,,,,,,,,,,,,,1,0,1,0,17,0,17,0,,,,,,,,,,,,,,,,,,,,,,,,,,,,0,900,,,,969.9022734,,174,Y,circle,0.000486492,,,,,1,0,,,3,,,,,,,,,966.3286145,966.3286145,966.3286145,966.3286145,967.8183919,967.8183919,967.8183919,967.8183919,967.8350378,967.8350378,967.8350378,967.8350378,,,,,switch,letter,lettSwt,k,vtsPrac,968.3867741,0.537353402,,,,,,,,,,,,,,,,,,,,,,,,,69140,2022-11-04_09h04.43.869,vts_reward_expectancy_bt_OFFLINE,2022.2.4,59.99473103
,,,,,,,,,,,,,,,,,,,,,,,,,,,,,,,,,,1,0,1,0,18,0,18,0,,,,,,,,,,,,,,,,,,,,,,,,,,,,0,900,,,,974.6726811,975.1728074,146,H,triangle,0.016634068,,,,,1,0,,,3,,,,,,,,,970.8981908,970.8981908,970.8981908,970.8981908,972.3718362,972.3718362,972.3718362,972.3718362,972.4050309,972.4050309,972.4050309,972.4050309,,,,,switch,number,numSwt,d,vtsPrac,973.1733013,0.77624118,974.6726811,,,,,,,,,,,,,,,,,,,,,,,,69140,2022-11-04_09h04.43.869,vts_reward_expectancy_bt_OFFLINE,2022.2.4,59.99473103
,,,,,,,,,,,,,,,,,,,,,,,,,,,,,,,,,,1,0,1,0,19,0,19,0,,,,,,,,,,,,,,,,,,,,,,,,,,,,0,900,,,,979.2428178,979.7428668,160,D,star,0.000505206,,,,,1,0,,,3,,,,,,,,,975.6686924,975.6686924,975.6686924,975.6686924,977.1587443,977.1587443,977.1587443,977.1587443,977.175472,977.175472,977.175472,977.175472,,,,,switch,letter,lettSwt,j,vtsPrac,977.7430927,0.556360942,979.2428178,,,,,,,,,,,,,,,,,,,,,,,,69140,2022-11-04_09h04.43.869,vts_reward_expectancy_bt_OFFLINE,2022.2.4,59.99473103
,,,,,,,,,,,,,,,,,,,,,,,,,,,,,,,,,,1,0,1,0,20,0,20,0,,,,,,,,,,,,,,,,,,,,,,,,,,,,0,900,,,,984.0296971,984.5298494,167,Y,hexagon,0.000562653,,,,,1,0,,,3,,,,,,,,,980.2390021,980.2390021,980.2390021,980.2390021,981.7286383,981.7286383,981.7286383,981.7286383,981.7454814,981.7454814,981.7454814,981.7454814,,,,,switch,number,numSwt,f,vtsPrac,982.529304,0.768488004,984.0296971,,,,,,,,,,,,,,,,,,,,,,,,69140,2022-11-04_09h04.43.869,vts_reward_expectancy_bt_OFFLINE,2022.2.4,59.99473103
,,,,,,,,,,,,,,,,,,,,,,,,,,,,,,,,,,1,0,1,0,21,0,21,0,,,,,,,,,,,,,,,,,,,,,,,,,,,,0,900,,,,988.6831055,989.183367,139,F,star,-0.000684375,,,,,1,0,,,3,,,,,,,,,985.0367962,985.0367962,985.0367962,985.0367962,986.515677,986.515677,986.515677,986.515677,986.5490357,986.5490357,986.5490357,986.5490357,,,,,switch,letter,lettSwt,j,vtsPrac,987.1838312,0.638642002,988.6831055,,,,,,,,,,,,,,,,,,,,,,,,69140,2022-11-04_09h04.43.869,vts_reward_expectancy_bt_OFFLINE,2022.2.4,59.99473103
,,,,,,,,,,,,,,,,,,,,,,,,,,,,,,,,,,1,0,1,0,22,0,22,0,,,,,,,,,,,,,,,,,,,,,,,,,,,,0,900,,,,993.5368537,994.0368218,181,D,triangle,0.000600277,,,,,1,0,,,3,,,,,,,,,989.6795267,989.6795267,989.6795267,989.6795267,991.1692444,991.1692444,991.1692444,991.1692444,991.1857979,991.1857979,991.1857979,991.1857979,,,,,switch,number,numSwt,f,vtsPrac,992.0373956,0.845427814,993.5368537,,,,,,,,,,,,,,,,,,,,,,,,69140,2022-11-04_09h04.43.869,vts_reward_expectancy_bt_OFFLINE,2022.2.4,59.99473103
,,,,,,,,,,,,,,,,,,,,,,,,,,,,,,,,,,1,0,1,0,23,0,23,0,,,,,,,,,,,,,,,,,,,,,,,,,,,,0,900,,,,998.2903391,,146,S,circle,0.000621492,,,,,1,0,,,3,,,,,,,,,994.5330186,994.5330186,994.5330186,994.5330186,996.0228323,996.0228323,996.0228323,996.0228323,996.0396121,996.0396121,996.0396121,996.0396121,,,,,switch,letter,lettSwt,k,vtsPrac,996.774685,0.728681232,,,,,,,,,,,,,,,,,,,,,,,,,69140,2022-11-04_09h04.43.869,vts_reward_expectancy_bt_OFFLINE,2022.2.4,59.99473103
,,,,,,,,,,,,,,,,,,,,,,,,,,,,,,,,,,1,0,1,0,24,0,24,0,,,,,,,,,,,,,,,,,,,,,,,,,,,,0,900,,,,1002.993918,,132,W,circle,0.01681343,,,,,1,0,,,3,,,,,,,,,999.286386,999.286386,999.286386,999.286386,1000.75779,1000.75779,1000.75779,1000.75779,1000.791162,1000.791162,1000.791162,1000.791162,,,,,switch,number,numSwt,d,vtsPrac,1001.47809,0.695450508,,,,,,,,,,,,,,,,,,,,,,,,,69140,2022-11-04_09h04.43.869,vts_reward_expectancy_bt_OFFLINE,2022.2.4,59.99473103
,,,,,,,,,,,,,,,,,,,,,,,,,,,,,,,,,,1,0,1,0,25,0,25,0,,,,,,,,,,,,,,,,,,,,,,,,,,,,0,900,,,,1007.497446,1007.997536,146,S,star,0.016856109,,,,,1,0,,,3,,,,,,,,,1003.989867,1003.989867,1003.989867,1003.989867,1005.461413,1005.461413,1005.461413,1005.461413,1005.494677,1005.494677,1005.494677,1005.494677,,,,,switch,letter,lettSwt,k,vtsPrac,1005.998123,0.504071984,1007.497446,,,,,,,,,,,,,,,,,,,,,,,,69140,2022-11-04_09h04.43.869,vts_reward_expectancy_bt_OFFLINE,2022.2.4,59.99473103
,,,,,,,,,,,,,,,,,,,,,,,,,,,,,,,,,,1,0,1,0,26,0,26,0,,,,,,,,,,,,,,,,,,,,,,,,,,,,0,900,,,,1012.150818,,167,B,circle,0.000513663,,,,,1,0,,,3,,,,,,,,,1008.492773,1008.492773,1008.492773,1008.492773,1009.981435,1009.981435,1009.981435,1009.981435,1009.998166,1009.998166,1009.998166,1009.998166,,,,,switch,number,numSwt,f,vtsPrac,1010.649958,0.641655077,,,,,,,,,,,,,,,,,,,,,,,,,69140,2022-11-04_09h04.43.869,vts_reward_expectancy_bt_OFFLINE,2022.2.4,59.99473103
,,,,,,,,,,,,,,,,,,,,,,,,,,,,,,,,,,1,0,1,0,27,0,27,0,,,,,,,,,,,,,,,,,,,,,,,,,,,,0,900,,,,1016.720773,,160,H,hexagon,0.00192245,,,,,1,0,,,3,,,,,,,,,1013.146721,1013.146721,1013.146721,1013.146721,1014.635088,1014.635088,1014.635088,1014.635088,1014.65156,1014.65156,1014.65156,1014.65156,,,,,switch,letter,lettSwt,j,vtsPrac,1015.219811,0.566152401,,,,,,,,,,,,,,,,,,,,,,,,,69140,2022-11-04_09h04.43.869,vts_reward_expectancy_bt_OFFLINE,2022.2.4,59.99473103
,,,,,,,,,,,,,,,,,,,,,,,,,,,,,,,,,,1,0,1,0,28,0,28,0,,,,,,,,,,,,,,,,,,,,,,,,,,,,0,900,,,,1021.324409,,132,B,hexagon,0.001990882,,,,,1,0,,,3,,,,,,,,,1017.716742,1017.716742,1017.716742,1017.716742,1019.205078,1019.205078,1019.205078,1019.205078,1019.221816,1019.221816,1019.221816,1019.221816,,,,,switch,number,numSwt,d,vtsPrac,1019.823426,0.587403488,,,,,,,,,,,,,,,,,,,,,,,,,69140,2022-11-04_09h04.43.869,vts_reward_expectancy_bt_OFFLINE,2022.2.4,59.99473103
,,,,,,,,,,,,,,,,,,,,,,,,,,,,,,,,,,1,0,1,0,29,0,29,0,,,,,,,,,,,,,,,,,,,,,,,,,,,,0,900,,,,1025.842652,,146,H,circle,0.001797567,,,,,1,0,,,3,,,,,,,,,1022.319846,1022.319846,1022.319846,1022.319846,1023.808569,1023.808569,1023.808569,1023.808569,1023.825164,1023.825164,1023.825164,1023.825164,,,,,switch,letter,lettSwt,j,vtsPrac,1024.327075,0.495087901,,,,,,,,,,,,,,,,,,,,,,,,,69140,2022-11-04_09h04.43.869,vts_reward_expectancy_bt_OFFLINE,2022.2.4,59.99473103
,,,,,,,,,,,,,,,,,,,,,,,,,,,,,,,,,,1,0,1,0,30,0,30,0,,,,,,,,,,,,,,,,,,,,,,,,,,,,0,900,,,,1030.512863,,174,W,hexagon,0.001815679,,,,,1,0,,,3,,,,,,,,,1026.822836,1026.822836,1026.822836,1026.822836,1028.312097,1028.312097,1028.312097,1028.312097,1028.328876,1028.328876,1028.328876,1028.328876,,,,,switch,number,numSwt,f,vtsPrac,1029.013597,0.672129955,1030.512863,,,,,,,,,,,,,,,,,,,,,,,,69140,2022-11-04_09h04.43.869,vts_reward_expectancy_bt_OFFLINE,2022.2.4,59.99473103
,,,,,,,,,,,,,,,,,,,,,,,,,,,,,,,,,,1,0,1,0,31,0,31,0,,,,,,,,,,,,,,,,,,,,,,,,,,,,0,900,,,,1035.08328,1035.586981,125,F,triangle,0.00231799,,,,,1,0,,,3,,,,,,,,,1031.510015,1031.510015,1031.510015,1031.510015,1032.999106,1032.999106,1032.999106,1032.999106,1033.015723,1033.015723,1033.015723,1033.015723,,,,,switch,letter,lettSwt,j,vtsPrac,1033.582435,0.551597094,1035.08328,,,,,,,,,,,,,,,,,,,,,,,,69140,2022-11-04_09h04.43.869,vts_reward_expectancy_bt_OFFLINE,2022.2.4,59.99473103
