LTriangleOpac,LCircleOpac,LHexagonOpac,LStarOpac,RTriangleOpac,RCircleOpac,RHexagonOpac,RStarOpac,LShape_ID,RShape_ID,training_blocks.thisRepN,training_blocks.thisTrialN,training_blocks.thisN,training_blocks.thisIndex,training.thisRepN,training.thisTrialN,training.thisN,training.thisIndex,task1_prac_redo.thisRepN,task1_prac_redo.thisTrialN,task1_prac_redo.thisN,task1_prac_redo.thisIndex,task1_prac_trials.thisRepN,task1_prac_trials.thisTrialN,task1_prac_trials.thisN,task1_prac_trials.thisIndex,task2_prac_redo.thisRepN,task2_prac_redo.thisTrialN,task2_prac_redo.thisN,task2_prac_redo.thisIndex,task2_praac_trials.thisRepN,task2_praac_trials.thisTrialN,task2_praac_trials.thisN,task2_praac_trials.thisIndex,vts_prac_redo.thisRepN,vts_prac_redo.thisTrialN,vts_prac_redo.thisN,vts_prac_redo.thisIndex,vts_practice_trials.thisRepN,vts_practice_trials.thisTrialN,vts_practice_trials.thisN,vts_practice_trials.thisIndex,trials_norew.thisRepN,trials_norew.thisTrialN,trials_norew.thisN,trials_norew.thisIndex,block.thisRepN,block.thisTrialN,block.thisN,block.thisIndex,trials_rew.thisRepN,trials_rew.thisTrialN,trials_rew.thisN,trials_rew.thisIndex,key_resp.started,key_resp.keys,key_resp.rt,left_circle.started,right_circle.started,left_triangle.started,right_triangle.started,left_star.started,right_star.started,left_hexagon.started,right_hexagon.started,training_fix.started,training_resp.started,training_resp.keys,training_resp.rt,points_trial,points_cumul,trainBlock,training_feedback_txt.started,fix.started,training_feedback_txt.stopped,fix.stopped,curr_topStim,curr_bottStim,curr_shape,ISI.started,tgt_fix_prac1.started,top_target_prac1.started,bott_target_prac1.started,target_resp_prac1.started,acc,E1,target_resp_prac1.keys,target_resp_prac1.rt,pracBlock,prac_fback_text.started,tgt_fix_prac2.started,top_target_prac2.started,bott_target_prac2.started,target_resp_prac2.started,target_resp_prac2.keys,target_resp_prac2.rt,star.started,hegagon.started,triangle.started,circle.started,star.stopped,hegagon.stopped,triangle.stopped,circle.stopped,top_target.started,tgt_fix.started,bot_target.started,target_resp.started,alt,task,condition,target_resp.keys,target_resp.rt,rewCond,vts_fback.started,vts_fback.stopped,blockNum,norew_fback.started,norew_fback.stopped,key_resp_2.keys,key_resp_2.rt,rewExpectancy,feedbk_text.started,feedbk_text.stopped,text_3.started,debrief.started,text_3.stopped,button.started,debrief.index,debrief.itemText,debrief.type,debrief.granularity,debrief.font,debrief.markerColor,debrief.response,debrief.rt,button.numClicks,button.timesOn,button.timesOff,participant,date,expName,psychopyVersion,frameRate,
,,,,,,,,,,,,,,,,,,,,,,,,,,,,,,,,,,,,,,,,,,,,,,,,,,,,,,514.0403873840114,space,22.90320698299911,,,,,,,,,,,,,,,,,,,,,,,,,,,,,,,,,,,,,,,,,,,,,,,,,,,,,,,,,,,,,,,,,,,,,,,,,,,,,,,,,,,69703,2022-11-17_11h26.37.381,vts_reward_expectancy_bt_OFFLINE,2022.2.4,59.9339406878256,
0,0,1,0,1,0,0,0,hexagon,triangle,0,0,0,0,0,0,0,6,,,,,,,,,,,,,,,,,,,,,,,,,,,,,,,,,,,,,,,,563.7098484899907,563.7098484899907,563.7098484899907,563.7098484899907,563.7098484899907,563.7098484899907,563.7098484899907,563.7098484899907,563.7098484899907,563.7098484899907,a,2.260718981997343,10,10,0,566.0014416649938,567.5044077380153,,,,,,,,,,,,,,,,,,,,,,,,,,,,,,,,,,,,,,,,,,,,,,,,,,,,,,,,,,,,,,,,,,69703,2022-11-17_11h26.37.381,vts_reward_expectancy_bt_OFFLINE,2022.2.4,59.9339406878256,
1,0,0,0,0,1,0,0,triangle,circle,0,0,0,0,0,1,1,0,,,,,,,,,,,,,,,,,,,,,,,,,,,,,,,,,,,,,,,,568.0051677830052,568.0051677830052,568.0051677830052,568.0051677830052,568.0051677830052,568.0051677830052,568.0051677830052,568.0051677830052,568.0051677830052,568.0051677830052,l,0.8780392939806916,10,20,0,568.9059630759875,570.40735592501,,,,,,,,,,,,,,,,,,,,,,,,,,,,,,,,,,,,,,,,,,,,,,,,,,,,,,,,,,,,,,,,,,69703,2022-11-17_11h26.37.381,vts_reward_expectancy_bt_OFFLINE,2022.2.4,59.9339406878256,
0,1,0,0,0,0,1,0,circle,hexagon,0,0,0,0,0,2,2,4,,,,,,,,,,,,,,,,,,,,,,,,,,,,,,,,,,,,,,,,570.9080155160045,570.9080155160045,570.9080155160045,570.9080155160045,570.9080155160045,570.9080155160045,570.9080155160045,570.9080155160045,570.9080155160045,570.9080155160045,a,1.4297171910002362,1,21,0,572.359639147995,573.8611241700128,,,,,,,,,,,,,,,,,,,,,,,,,,,,,,,,,,,,,,,,,,,,,,,,,,,,,,,,,,,,,,,,,,69703,2022-11-17_11h26.37.381,vts_reward_expectancy_bt_OFFLINE,2022.2.4,59.9339406878256,
0,1,0,0,1,0,0,0,circle,triangle,0,0,0,0,0,3,3,3,,,,,,,,,,,,,,,,,,,,,,,,,,,,,,,,,,,,,,,,574.3617788710108,574.3617788710108,574.3617788710108,574.3617788710108,574.3617788710108,574.3617788710108,574.3617788710108,574.3617788710108,574.3617788710108,574.3617788710108,a,1.3742429909761995,1,22,0,575.7635768250038,577.2650783770077,,,,,,,,,,,,,,,,,,,,,,,,,,,,,,,,,,,,,,,,,,,,,,,,,,,,,,,,,,,,,,,,,,69703,2022-11-17_11h26.37.381,vts_reward_expectancy_bt_OFFLINE,2022.2.4,59.9339406878256,
0,0,1,0,0,1,0,0,hexagon,circle,0,0,0,0,0,4,4,7,,,,,,,,,,,,,,,,,,,,,,,,,,,,,,,,,,,,,,,,577.7658672929974,577.7658672929974,577.7658672929974,577.7658672929974,577.7658672929974,577.7658672929974,577.7658672929974,577.7658672929974,577.7658672929974,577.7658672929974,a,0.8734939119894989,10,32,0,578.6670073709975,580.1683782759937,,,,,,,,,,,,,,,,,,,,,,,,,,,,,,,,,,,,,,,,,,,,,,,,,,,,,,,,,,,,,,,,,,69703,2022-11-17_11h26.37.381,vts_reward_expectancy_bt_OFFLINE,2022.2.4,59.9339406878256,
0,0,1,0,0,0,0,1,hexagon,star,0,0,0,0,0,5,5,8,,,,,,,,,,,,,,,,,,,,,,,,,,,,,,,,,,,,,,,,580.6689667280007,580.6689667280007,580.6689667280007,580.6689667280007,580.6689667280007,580.6689667280007,580.6689667280007,580.6689667280007,580.6689667280007,580.6689667280007,a,1.6138405429956038,1,33,0,582.3039427080075,583.8056456159975,,,,,,,,,,,,,,,,,,,,,,,,,,,,,,,,,,,,,,,,,,,,,,,,,,,,,,,,,,,,,,,,,,69703,2022-11-17_11h26.37.381,vts_reward_expectancy_bt_OFFLINE,2022.2.4,59.9339406878256,
0,0,0,1,1,0,0,0,star,triangle,0,0,0,0,0,6,6,9,,,,,,,,,,,,,,,,,,,,,,,,,,,,,,,,,,,,,,,,584.3064756589883,584.3064756589883,584.3064756589883,584.3064756589883,584.3064756589883,584.3064756589883,584.3064756589883,584.3064756589883,584.3064756589883,584.3064756589883,a,0.9798991230200045,10,43,0,585.3072564250033,586.8090238920122,,,,,,,,,,,,,,,,,,,,,,,,,,,,,,,,,,,,,,,,,,,,,,,,,,,,,,,,,,,,,,,,,,69703,2022-11-17_11h26.37.381,vts_reward_expectancy_bt_OFFLINE,2022.2.4,59.9339406878256,
0,1,0,0,0,0,0,1,circle,star,0,0,0,0,0,7,7,5,,,,,,,,,,,,,,,,,,,,,,,,,,,,,,,,,,,,,,,,587.3095241439878,587.3095241439878,587.3095241439878,587.3095241439878,587.3095241439878,587.3095241439878,587.3095241439878,587.3095241439878,587.3095241439878,587.3095241439878,l,0.7576344049884938,10,53,0,588.093770809006,589.5953441119927,,,,,,,,,,,,,,,,,,,,,,,,,,,,,,,,,,,,,,,,,,,,,,,,,,,,,,,,,,,,,,,,,,69703,2022-11-17_11h26.37.381,vts_reward_expectancy_bt_OFFLINE,2022.2.4,59.9339406878256,
0,0,0,1,0,1,0,0,star ,circle,0,0,0,0,0,8,8,10,,,,,,,,,,,,,,,,,,,,,,,,,,,,,,,,,,,,,,,,590.095921842003,590.095921842003,590.095921842003,590.095921842003,590.095921842003,590.095921842003,590.095921842003,590.095921842003,590.095921842003,590.095921842003,a,1.0629209500038996,10,63,0,591.180504649994,592.6820818470151,,,,,,,,,,,,,,,,,,,,,,,,,,,,,,,,,,,,,,,,,,,,,,,,,,,,,,,,,,,,,,,,,,69703,2022-11-17_11h26.37.381,vts_reward_expectancy_bt_OFFLINE,2022.2.4,59.9339406878256,
0,0,0,1,0,0,1,0,star,hexagon,0,0,0,0,0,9,9,11,,,,,,,,,,,,,,,,,,,,,,,,,,,,,,,,,,,,,,,,593.1825742039946,593.1825742039946,593.1825742039946,593.1825742039946,593.1825742039946,593.1825742039946,593.1825742039946,593.1825742039946,593.1825742039946,593.1825742039946,a,1.1162863720091991,1,64,0,594.3171328210155,595.8188903729897,,,,,,,,,,,,,,,,,,,,,,,,,,,,,,,,,,,,,,,,,,,,,,,,,,,,,,,,,,,,,,,,,,69703,2022-11-17_11h26.37.381,vts_reward_expectancy_bt_OFFLINE,2022.2.4,59.9339406878256,
1,0,0,0,0,0,0,1,triangle,star,0,0,0,0,0,10,10,2,,,,,,,,,,,,,,,,,,,,,,,,,,,,,,,,,,,,,,,,596.319463146996,596.319463146996,596.319463146996,596.319463146996,596.319463146996,596.319463146996,596.319463146996,596.319463146996,596.319463146996,596.319463146996,l,1.2971985089825466,10,74,0,597.637568687991,599.1391504459898,,,,,,,,,,,,,,,,,,,,,,,,,,,,,,,,,,,,,,,,,,,,,,,,,,,,,,,,,,,,,,,,,,69703,2022-11-17_11h26.37.381,vts_reward_expectancy_bt_OFFLINE,2022.2.4,59.9339406878256,
1,0,0,0,0,0,1,0,triangle,hexagon,0,0,0,0,0,11,11,1,,,,,,,,,,,,,,,,,,,,,,,,,,,,,,,,,,,,,,,,599.6397644800018,599.6397644800018,599.6397644800018,599.6397644800018,599.6397644800018,599.6397644800018,599.6397644800018,599.6397644800018,599.6397644800018,599.6397644800018,l,1.4303575689846184,1,75,0,601.0916291059984,602.5932939889899,,,,,,,,,,,,,,,,,,,,,,,,,,,,,,,,,,,,,,,,,,,,,,,,,,,,,,,,,,,,,,,,,,69703,2022-11-17_11h26.37.381,vts_reward_expectancy_bt_OFFLINE,2022.2.4,59.9339406878256,
0,1,0,0,0,0,0,1,circle,star,0,0,0,0,1,0,12,5,,,,,,,,,,,,,,,,,,,,,,,,,,,,,,,,,,,,,,,,603.0939618569973,603.0939618569973,603.0939618569973,603.0939618569973,603.0939618569973,603.0939618569973,603.0939618569973,603.0939618569973,603.0939618569973,603.0939618569973,l,0.9688542709918693,10,85,0,604.0950512720156,605.5962117600138,,,,,,,,,,,,,,,,,,,,,,,,,,,,,,,,,,,,,,,,,,,,,,,,,,,,,,,,,,,,,,,,,,69703,2022-11-17_11h26.37.381,vts_reward_expectancy_bt_OFFLINE,2022.2.4,59.9339406878256,
0,0,0,1,0,1,0,0,star ,circle,0,0,0,0,1,1,13,10,,,,,,,,,,,,,,,,,,,,,,,,,,,,,,,,,,,,,,,,606.0969118560024,606.0969118560024,606.0969118560024,606.0969118560024,606.0969118560024,606.0969118560024,606.0969118560024,606.0969118560024,606.0969118560024,606.0969118560024,a,1.2192614350060467,10,95,0,607.3482280549943,608.8497449540009,,,,,,,,,,,,,,,,,,,,,,,,,,,,,,,,,,,,,,,,,,,,,,,,,,,,,,,,,,,,,,,,,,69703,2022-11-17_11h26.37.381,vts_reward_expectancy_bt_OFFLINE,2022.2.4,59.9339406878256,
0,0,0,1,0,0,1,0,star,hexagon,0,0,0,0,1,2,14,11,,,,,,,,,,,,,,,,,,,,,,,,,,,,,,,,,,,,,,,,609.3504421320104,609.3504421320104,609.3504421320104,609.3504421320104,609.3504421320104,609.3504421320104,609.3504421320104,609.3504421320104,609.3504421320104,609.3504421320104,l,0.7435676419991069,10,105,0,610.1179564869963,611.6197356730117,,,,,,,,,,,,,,,,,,,,,,,,,,,,,,,,,,,,,,,,,,,,,,,,,,,,,,,,,,,,,,,,,,69703,2022-11-17_11h26.37.381,vts_reward_expectancy_bt_OFFLINE,2022.2.4,59.9339406878256,
0,0,1,0,0,0,0,1,hexagon,star,0,0,0,0,1,3,15,8,,,,,,,,,,,,,,,,,,,,,,,,,,,,,,,,,,,,,,,,612.1201880940062,612.1201880940062,612.1201880940062,612.1201880940062,612.1201880940062,612.1201880940062,612.1201880940062,612.1201880940062,612.1201880940062,612.1201880940062,l,1.9895330949802883,10,115,0,614.1389745099877,615.6407951959991,,,,,,,,,,,,,,,,,,,,,,,,,,,,,,,,,,,,,,,,,,,,,,,,,,,,,,,,,,,,,,,,,,69703,2022-11-17_11h26.37.381,vts_reward_expectancy_bt_OFFLINE,2022.2.4,59.9339406878256,
1,0,0,0,0,0,1,0,triangle,hexagon,0,0,0,0,1,4,16,1,,,,,,,,,,,,,,,,,,,,,,,,,,,,,,,,,,,,,,,,616.1412727530114,616.1412727530114,616.1412727530114,616.1412727530114,616.1412727530114,616.1412727530114,616.1412727530114,616.1412727530114,616.1412727530114,616.1412727530114,a,1.0189533439988736,1,116,0,617.1925965330156,618.6940781509911,,,,,,,,,,,,,,,,,,,,,,,,,,,,,,,,,,,,,,,,,,,,,,,,,,,,,,,,,,,,,,,,,,69703,2022-11-17_11h26.37.381,vts_reward_expectancy_bt_OFFLINE,2022.2.4,59.9339406878256,
0,0,1,0,0,1,0,0,hexagon,circle,0,0,0,0,1,5,17,7,,,,,,,,,,,,,,,,,,,,,,,,,,,,,,,,,,,,,,,,619.1946016589936,619.1946016589936,619.1946016589936,619.1946016589936,619.1946016589936,619.1946016589936,619.1946016589936,619.1946016589936,619.1946016589936,619.1946016589936,a,1.4195981450029649,10,126,0,620.6464219019981,622.1481100429955,,,,,,,,,,,,,,,,,,,,,,,,,,,,,,,,,,,,,,,,,,,,,,,,,,,,,,,,,,,,,,,,,,69703,2022-11-17_11h26.37.381,vts_reward_expectancy_bt_OFFLINE,2022.2.4,59.9339406878256,
0,0,1,0,1,0,0,0,hexagon,triangle,0,0,0,0,1,6,18,6,,,,,,,,,,,,,,,,,,,,,,,,,,,,,,,,,,,,,,,,622.6487371500116,622.6487371500116,622.6487371500116,622.6487371500116,622.6487371500116,622.6487371500116,622.6487371500116,622.6487371500116,622.6487371500116,622.6487371500116,a,2.2045220030122437,10,136,0,624.8842238450015,626.3862353500153,,,,,,,,,,,,,,,,,,,,,,,,,,,,,,,,,,,,,,,,,,,,,,,,,,,,,,,,,,,,,,,,,,69703,2022-11-17_11h26.37.381,vts_reward_expectancy_bt_OFFLINE,2022.2.4,59.9339406878256,
0,1,0,0,1,0,0,0,circle,triangle,0,0,0,0,1,7,19,3,,,,,,,,,,,,,,,,,,,,,,,,,,,,,,,,,,,,,,,,626.8864943610097,626.8864943610097,626.8864943610097,626.8864943610097,626.8864943610097,626.8864943610097,626.8864943610097,626.8864943610097,626.8864943610097,626.8864943610097,a,1.5019097460026387,1,137,0,628.404744088999,629.9064287680085,,,,,,,,,,,,,,,,,,,,,,,,,,,,,,,,,,,,,,,,,,,,,,,,,,,,,,,,,,,,,,,,,,69703,2022-11-17_11h26.37.381,vts_reward_expectancy_bt_OFFLINE,2022.2.4,59.9339406878256,
1,0,0,0,0,0,0,1,triangle,star,0,0,0,0,1,8,20,2,,,,,,,,,,,,,,,,,,,,,,,,,,,,,,,,,,,,,,,,630.4069708799943,630.4069708799943,630.4069708799943,630.4069708799943,630.4069708799943,630.4069708799943,630.4069708799943,630.4069708799943,630.4069708799943,630.4069708799943,a,3.52756804600358,1,138,0,633.9612253170053,635.4626139079919,,,,,,,,,,,,,,,,,,,,,,,,,,,,,,,,,,,,,,,,,,,,,,,,,,,,,,,,,,,,,,,,,,69703,2022-11-17_11h26.37.381,vts_reward_expectancy_bt_OFFLINE,2022.2.4,59.9339406878256,
1,0,0,0,0,1,0,0,triangle,circle,0,0,0,0,1,9,21,0,,,,,,,,,,,,,,,,,,,,,,,,,,,,,,,,,,,,,,,,635.9631912340119,635.9631912340119,635.9631912340119,635.9631912340119,635.9631912340119,635.9631912340119,635.9631912340119,635.9631912340119,635.9631912340119,635.9631912340119,l,1.6708797629980836,1,139,0,637.6653441280068,639.1668869240093,,,,,,,,,,,,,,,,,,,,,,,,,,,,,,,,,,,,,,,,,,,,,,,,,,,,,,,,,,,,,,,,,,69703,2022-11-17_11h26.37.381,vts_reward_expectancy_bt_OFFLINE,2022.2.4,59.9339406878256,
0,1,0,0,0,0,1,0,circle,hexagon,0,0,0,0,1,10,22,4,,,,,,,,,,,,,,,,,,,,,,,,,,,,,,,,,,,,,,,,639.6672885149892,639.6672885149892,639.6672885149892,639.6672885149892,639.6672885149892,639.6672885149892,639.6672885149892,639.6672885149892,639.6672885149892,639.6672885149892,l,1.2631592419929802,10,149,0,640.951960128994,642.4536042489926,,,,,,,,,,,,,,,,,,,,,,,,,,,,,,,,,,,,,,,,,,,,,,,,,,,,,,,,,,,,,,,,,,69703,2022-11-17_11h26.37.381,vts_reward_expectancy_bt_OFFLINE,2022.2.4,59.9339406878256,
0,0,0,1,1,0,0,0,star,triangle,0,0,0,0,1,11,23,9,,,,,,,,,,,,,,,,,,,,,,,,,,,,,,,,,,,,,,,,642.9541667620069,642.9541667620069,642.9541667620069,642.9541667620069,642.9541667620069,642.9541667620069,642.9541667620069,642.9541667620069,642.9541667620069,642.9541667620069,l,2.521853401995031,1,150,0,645.5069241599995,647.0086494029965,,,,,,,,,,,,,,,,,,,,,,,,,,,,,,,,,,,,,,,,,,,,,,,,,,,,,,,,,,,,,,,,,,69703,2022-11-17_11h26.37.381,vts_reward_expectancy_bt_OFFLINE,2022.2.4,59.9339406878256,
0,0,1,0,0,0,0,1,hexagon,star,0,0,0,0,2,0,24,8,,,,,,,,,,,,,,,,,,,,,,,,,,,,,,,,,,,,,,,,647.5091210830142,647.5091210830142,647.5091210830142,647.5091210830142,647.5091210830142,647.5091210830142,647.5091210830142,647.5091210830142,647.5091210830142,647.5091210830142,l,1.521549083001446,10,160,0,649.0607837009884,650.5625738280069,,,,,,,,,,,,,,,,,,,,,,,,,,,,,,,,,,,,,,,,,,,,,,,,,,,,,,,,,,,,,,,,,,69703,2022-11-17_11h26.37.381,vts_reward_expectancy_bt_OFFLINE,2022.2.4,59.9339406878256,
0,0,0,1,0,1,0,0,star ,circle,0,0,0,0,2,1,25,10,,,,,,,,,,,,,,,,,,,,,,,,,,,,,,,,,,,,,,,,651.0630781250075,651.0630781250075,651.0630781250075,651.0630781250075,651.0630781250075,651.0630781250075,651.0630781250075,651.0630781250075,651.0630781250075,651.0630781250075,a,4.100012223992962,10,170,0,655.1842771870142,656.6863240730017,,,,,,,,,,,,,,,,,,,,,,,,,,,,,,,,,,,,,,,,,,,,,,,,,,,,,,,,,,,,,,,,,,69703,2022-11-17_11h26.37.381,vts_reward_expectancy_bt_OFFLINE,2022.2.4,59.9339406878256,
0,0,1,0,0,1,0,0,hexagon,circle,0,0,0,0,2,2,26,7,,,,,,,,,,,,,,,,,,,,,,,,,,,,,,,,,,,,,,,,657.1867293409887,657.1867293409887,657.1867293409887,657.1867293409887,657.1867293409887,657.1867293409887,657.1867293409887,657.1867293409887,657.1867293409887,657.1867293409887,a,1.057262868998805,10,180,0,658.2711895059911,659.7728699430008,,,,,,,,,,,,,,,,,,,,,,,,,,,,,,,,,,,,,,,,,,,,,,,,,,,,,,,,,,,,,,,,,,69703,2022-11-17_11h26.37.381,vts_reward_expectancy_bt_OFFLINE,2022.2.4,59.9339406878256,
0,1,0,0,0,0,0,1,circle,star,0,0,0,0,2,3,27,5,,,,,,,,,,,,,,,,,,,,,,,,,,,,,,,,,,,,,,,,660.2736718830129,660.2736718830129,660.2736718830129,660.2736718830129,660.2736718830129,660.2736718830129,660.2736718830129,660.2736718830129,660.2736718830129,660.2736718830129,l,0.8521977430209517,10,190,0,661.1579272089875,662.6592999880086,,,,,,,,,,,,,,,,,,,,,,,,,,,,,,,,,,,,,,,,,,,,,,,,,,,,,,,,,,,,,,,,,,69703,2022-11-17_11h26.37.381,vts_reward_expectancy_bt_OFFLINE,2022.2.4,59.9339406878256,
0,0,1,0,1,0,0,0,hexagon,triangle,0,0,0,0,2,4,28,6,,,,,,,,,,,,,,,,,,,,,,,,,,,,,,,,,,,,,,,,663.1599080339947,663.1599080339947,663.1599080339947,663.1599080339947,663.1599080339947,663.1599080339947,663.1599080339947,663.1599080339947,663.1599080339947,663.1599080339947,a,0.9803796409978531,10,200,0,664.1610257959983,665.6624112320133,,,,,,,,,,,,,,,,,,,,,,,,,,,,,,,,,,,,,,,,,,,,,,,,,,,,,,,,,,,,,,,,,,69703,2022-11-17_11h26.37.381,vts_reward_expectancy_bt_OFFLINE,2022.2.4,59.9339406878256,
0,0,0,1,0,0,1,0,star,hexagon,0,0,0,0,2,5,29,11,,,,,,,,,,,,,,,,,,,,,,,,,,,,,,,,,,,,,,,,666.1636116320151,666.1636116320151,666.1636116320151,666.1636116320151,666.1636116320151,666.1636116320151,666.1636116320151,666.1636116320151,666.1636116320151,666.1636116320151,a,1.0927599599817768,10,210,0,667.2812104980112,668.7827099190035,,,,,,,,,,,,,,,,,,,,,,,,,,,,,,,,,,,,,,,,,,,,,,,,,,,,,,,,,,,,,,,,,,69703,2022-11-17_11h26.37.381,vts_reward_expectancy_bt_OFFLINE,2022.2.4,59.9339406878256,
1,0,0,0,0,0,0,1,triangle,star,0,0,0,0,2,6,30,2,,,,,,,,,,,,,,,,,,,,,,,,,,,,,,,,,,,,,,,,669.2835604590073,669.2835604590073,669.2835604590073,669.2835604590073,669.2835604590073,669.2835604590073,669.2835604590073,669.2835604590073,669.2835604590073,669.2835604590073,l,2.0787420039996505,10,220,0,671.3856960420089,672.8872532460082,,,,,,,,,,,,,,,,,,,,,,,,,,,,,,,,,,,,,,,,,,,,,,,,,,,,,,,,,,,,,,,,,,69703,2022-11-17_11h26.37.381,vts_reward_expectancy_bt_OFFLINE,2022.2.4,59.9339406878256,
1,0,0,0,0,0,1,0,triangle,hexagon,0,0,0,0,2,7,31,1,,,,,,,,,,,,,,,,,,,,,,,,,,,,,,,,,,,,,,,,673.3880848500121,673.3880848500121,673.3880848500121,673.3880848500121,673.3880848500121,673.3880848500121,673.3880848500121,673.3880848500121,673.3880848500121,673.3880848500121,l,1.58581668898114,10,230,0,675.0062480159977,676.5079099799914,,,,,,,,,,,,,,,,,,,,,,,,,,,,,,,,,,,,,,,,,,,,,,,,,,,,,,,,,,,,,,,,,,69703,2022-11-17_11h26.37.381,vts_reward_expectancy_bt_OFFLINE,2022.2.4,59.9339406878256,
0,0,0,1,1,0,0,0,star,triangle,0,0,0,0,2,8,32,9,,,,,,,,,,,,,,,,,,,,,,,,,,,,,,,,,,,,,,,,677.0085970410146,677.0085970410146,677.0085970410146,677.0085970410146,677.0085970410146,677.0085970410146,677.0085970410146,677.0085970410146,677.0085970410146,677.0085970410146,l,1.296177149983123,1,231,0,678.3264922109956,679.828000989015,,,,,,,,,,,,,,,,,,,,,,,,,,,,,,,,,,,,,,,,,,,,,,,,,,,,,,,,,,,,,,,,,,69703,2022-11-17_11h26.37.381,vts_reward_expectancy_bt_OFFLINE,2022.2.4,59.9339406878256,
0,1,0,0,0,0,1,0,circle,hexagon,0,0,0,0,2,9,33,4,,,,,,,,,,,,,,,,,,,,,,,,,,,,,,,,,,,,,,,,680.3287143479974,680.3287143479974,680.3287143479974,680.3287143479974,680.3287143479974,680.3287143479974,680.3287143479974,680.3287143479974,680.3287143479974,680.3287143479974,l,2.014137969992589,10,241,0,682.364372357988,683.8659639940015,,,,,,,,,,,,,,,,,,,,,,,,,,,,,,,,,,,,,,,,,,,,,,,,,,,,,,,,,,,,,,,,,,69703,2022-11-17_11h26.37.381,vts_reward_expectancy_bt_OFFLINE,2022.2.4,59.9339406878256,
0,1,0,0,1,0,0,0,circle,triangle,0,0,0,0,2,10,34,3,,,,,,,,,,,,,,,,,,,,,,,,,,,,,,,,,,,,,,,,684.3665223889984,684.3665223889984,684.3665223889984,684.3665223889984,684.3665223889984,684.3665223889984,684.3665223889984,684.3665223889984,684.3665223889984,684.3665223889984,a,1.97023500900832,1,242,0,686.3689099439944,687.8704466180061,,,,,,,,,,,,,,,,,,,,,,,,,,,,,,,,,,,,,,,,,,,,,,,,,,,,,,,,,,,,,,,,,,69703,2022-11-17_11h26.37.381,vts_reward_expectancy_bt_OFFLINE,2022.2.4,59.9339406878256,
1,0,0,0,0,1,0,0,triangle,circle,0,0,0,0,2,11,35,0,,,,,,,,,,,,,,,,,,,,,,,,,,,,,,,,,,,,,,,,688.3709793880116,688.3709793880116,688.3709793880116,688.3709793880116,688.3709793880116,688.3709793880116,688.3709793880116,688.3709793880116,688.3709793880116,688.3709793880116,l,2.174717743007932,1,243,0,690.5733920219936,692.0750154540001,,,,,,,,,,,,,,,,,,,,,,,,,,,,,,,,,,,,,,,,,,,,,,,,,,,,,,,,,,,,,,,,,,69703,2022-11-17_11h26.37.381,vts_reward_expectancy_bt_OFFLINE,2022.2.4,59.9339406878256,
0,0,0,1,1,0,0,0,star,triangle,0,0,0,0,3,0,36,9,,,,,,,,,,,,,,,,,,,,,,,,,,,,,,,,,,,,,,,,692.5755587840104,692.5755587840104,692.5755587840104,692.5755587840104,692.5755587840104,692.5755587840104,692.5755587840104,692.5755587840104,692.5755587840104,692.5755587840104,l,5.170701855997322,1,244,0,697.7646504830045,699.2664362720097,,,,,,,,,,,,,,,,,,,,,,,,,,,,,,,,,,,,,,,,,,,,,,,,,,,,,,,,,,,,,,,,,,69703,2022-11-17_11h26.37.381,vts_reward_expectancy_bt_OFFLINE,2022.2.4,59.9339406878256,
0,0,1,0,1,0,0,0,hexagon,triangle,0,0,0,0,3,1,37,6,,,,,,,,,,,,,,,,,,,,,,,,,,,,,,,,,,,,,,,,699.7671205539955,699.7671205539955,699.7671205539955,699.7671205539955,699.7671205539955,699.7671205539955,699.7671205539955,699.7671205539955,699.7671205539955,699.7671205539955,a,1.2625656879972667,10,254,0,701.0515523450158,702.5532124250021,,,,,,,,,,,,,,,,,,,,,,,,,,,,,,,,,,,,,,,,,,,,,,,,,,,,,,,,,,,,,,,,,,69703,2022-11-17_11h26.37.381,vts_reward_expectancy_bt_OFFLINE,2022.2.4,59.9339406878256,
0,1,0,0,0,0,0,1,circle,star,0,0,0,0,3,2,38,5,,,,,,,,,,,,,,,,,,,,,,,,,,,,,,,,,,,,,,,,703.0538902890112,703.0538902890112,703.0538902890112,703.0538902890112,703.0538902890112,703.0538902890112,703.0538902890112,703.0538902890112,703.0538902890112,703.0538902890112,l,1.5203898399777245,10,264,0,704.6055048569979,706.1072370379989,,,,,,,,,,,,,,,,,,,,,,,,,,,,,,,,,,,,,,,,,,,,,,,,,,,,,,,,,,,,,,,,,,69703,2022-11-17_11h26.37.381,vts_reward_expectancy_bt_OFFLINE,2022.2.4,59.9339406878256,
1,0,0,0,0,0,1,0,triangle,hexagon,0,0,0,0,3,3,39,1,,,,,,,,,,,,,,,,,,,,,,,,,,,,,,,,,,,,,,,,706.6078234789893,706.6078234789893,706.6078234789893,706.6078234789893,706.6078234789893,706.6078234789893,706.6078234789893,706.6078234789893,706.6078234789893,706.6078234789893,l,1.9595090679940768,10,274,0,708.5933413819876,710.0950510690163,,,,,,,,,,,,,,,,,,,,,,,,,,,,,,,,,,,,,,,,,,,,,,,,,,,,,,,,,,,,,,,,,,69703,2022-11-17_11h26.37.381,vts_reward_expectancy_bt_OFFLINE,2022.2.4,59.9339406878256,
0,0,1,0,0,1,0,0,hexagon,circle,0,0,0,0,3,4,40,7,,,,,,,,,,,,,,,,,,,,,,,,,,,,,,,,,,,,,,,,710.5955656509905,710.5955656509905,710.5955656509905,710.5955656509905,710.5955656509905,710.5955656509905,710.5955656509905,710.5955656509905,710.5955656509905,710.5955656509905,a,1.7075545570114627,10,284,0,712.3307890610013,713.8325289890054,,,,,,,,,,,,,,,,,,,,,,,,,,,,,,,,,,,,,,,,,,,,,,,,,,,,,,,,,,,,,,,,,,69703,2022-11-17_11h26.37.381,vts_reward_expectancy_bt_OFFLINE,2022.2.4,59.9339406878256,
1,0,0,0,0,1,0,0,triangle,circle,0,0,0,0,3,5,41,0,,,,,,,,,,,,,,,,,,,,,,,,,,,,,,,,,,,,,,,,714.3331159829977,714.3331159829977,714.3331159829977,714.3331159829977,714.3331159829977,714.3331159829977,714.3331159829977,714.3331159829977,714.3331159829977,714.3331159829977,a,1.9416484140092507,10,294,0,716.3018725290021,717.803579622996,,,,,,,,,,,,,,,,,,,,,,,,,,,,,,,,,,,,,,,,,,,,,,,,,,,,,,,,,,,,,,,,,,69703,2022-11-17_11h26.37.381,vts_reward_expectancy_bt_OFFLINE,2022.2.4,59.9339406878256,
0,0,0,1,0,0,1,0,star,hexagon,0,0,0,0,3,6,42,11,,,,,,,,,,,,,,,,,,,,,,,,,,,,,,,,,,,,,,,,718.3040872570127,718.3040872570127,718.3040872570127,718.3040872570127,718.3040872570127,718.3040872570127,718.3040872570127,718.3040872570127,718.3040872570127,718.3040872570127,a,1.2333343299978878,10,304,0,719.555320888001,721.0571499789949,,,,,,,,,,,,,,,,,,,,,,,,,,,,,,,,,,,,,,,,,,,,,,,,,,,,,,,,,,,,,,,,,,69703,2022-11-17_11h26.37.381,vts_reward_expectancy_bt_OFFLINE,2022.2.4,59.9339406878256,
0,0,1,0,0,0,0,1,hexagon,star,0,0,0,0,3,7,43,8,,,,,,,,,,,,,,,,,,,,,,,,,,,,,,,,,,,,,,,,721.5575363110111,721.5575363110111,721.5575363110111,721.5575363110111,721.5575363110111,721.5575363110111,721.5575363110111,721.5575363110111,721.5575363110111,721.5575363110111,l,1.444009772996651,10,314,0,723.0257763749978,724.5278038120014,,,,,,,,,,,,,,,,,,,,,,,,,,,,,,,,,,,,,,,,,,,,,,,,,,,,,,,,,,,,,,,,,,69703,2022-11-17_11h26.37.381,vts_reward_expectancy_bt_OFFLINE,2022.2.4,59.9339406878256,
0,1,0,0,1,0,0,0,circle,triangle,0,0,0,0,3,8,44,3,,,,,,,,,,,,,,,,,,,,,,,,,,,,,,,,,,,,,,,,725.028238118015,725.028238118015,725.028238118015,725.028238118015,725.028238118015,725.028238118015,725.028238118015,725.028238118015,725.028238118015,725.028238118015,l,1.349453575006919,1,315,0,726.3961980509921,727.8978443770029,,,,,,,,,,,,,,,,,,,,,,,,,,,,,,,,,,,,,,,,,,,,,,,,,,,,,,,,,,,,,,,,,,69703,2022-11-17_11h26.37.381,vts_reward_expectancy_bt_OFFLINE,2022.2.4,59.9339406878256,
1,0,0,0,0,0,0,1,triangle,star,0,0,0,0,3,9,45,2,,,,,,,,,,,,,,,,,,,,,,,,,,,,,,,,,,,,,,,,728.3984976490028,728.3984976490028,728.3984976490028,728.3984976490028,728.3984976490028,728.3984976490028,728.3984976490028,728.3984976490028,728.3984976490028,728.3984976490028,a,2.2201463530072942,1,316,0,730.6509455949999,732.1525380960084,,,,,,,,,,,,,,,,,,,,,,,,,,,,,,,,,,,,,,,,,,,,,,,,,,,,,,,,,,,,,,,,,,69703,2022-11-17_11h26.37.381,vts_reward_expectancy_bt_OFFLINE,2022.2.4,59.9339406878256,
0,0,0,1,0,1,0,0,star ,circle,0,0,0,0,3,10,46,10,,,,,,,,,,,,,,,,,,,,,,,,,,,,,,,,,,,,,,,,732.6529869959923,732.6529869959923,732.6529869959923,732.6529869959923,732.6529869959923,732.6529869959923,732.6529869959923,732.6529869959923,732.6529869959923,732.6529869959923,a,1.532459337002365,1,317,0,734.2048348649987,735.7066482510127,,,,,,,,,,,,,,,,,,,,,,,,,,,,,,,,,,,,,,,,,,,,,,,,,,,,,,,,,,,,,,,,,,69703,2022-11-17_11h26.37.381,vts_reward_expectancy_bt_OFFLINE,2022.2.4,59.9339406878256,
0,1,0,0,0,0,1,0,circle,hexagon,0,0,0,0,3,11,47,4,,,,,,,,,,,,,,,,,,,,,,,,,,,,,,,,,,,,,,,,736.2071132379933,736.2071132379933,736.2071132379933,736.2071132379933,736.2071132379933,736.2071132379933,736.2071132379933,736.2071132379933,736.2071132379933,736.2071132379933,l,5.607462003012188,10,327,0,741.8468391459901,743.3484158850042,,,,,,,,,,,,,,,,,,,,,,,,,,,,,,,,,,,,,,,,,,,,,,,,,,,,,,,,,,,,,,,,,,69703,2022-11-17_11h26.37.381,vts_reward_expectancy_bt_OFFLINE,2022.2.4,59.9339406878256,
0,0,0,1,0,0,1,0,star,hexagon,1,0,1,0,0,0,0,11,,,,,,,,,,,,,,,,,,,,,,,,,,,,,,,,,,,,,,,,755.9515069920162,755.9515069920162,755.9515069920162,755.9515069920162,755.9515069920162,755.9515069920162,755.9515069920162,755.9515069920162,755.9515069920162,755.9515069920162,a,1.0275115070107859,1,328,1,756.9968422329985,758.498418550007,758.498418550007,,,,,,,,,,,,,,,,,,,,,,,,,,,,,,,,,,,,,,,,,,,,,,,,,,,,,,,,,,,,,,,,,69703,2022-11-17_11h26.37.381,vts_reward_expectancy_bt_OFFLINE,2022.2.4,59.9339406878256,
0,0,0,1,1,0,0,0,star,triangle,1,0,1,0,0,1,1,9,,,,,,,,,,,,,,,,,,,,,,,,,,,,,,,,,,,,,,,,758.9991057009902,758.9991057009902,758.9991057009902,758.9991057009902,758.9991057009902,758.9991057009902,758.9991057009902,758.9991057009902,758.9991057009902,758.9991057009902,a,0.9498046149965376,10,338,1,759.966575753002,761.4683894590125,761.4683894590125,,,,,,,,,,,,,,,,,,,,,,,,,,,,,,,,,,,,,,,,,,,,,,,,,,,,,,,,,,,,,,,,,69703,2022-11-17_11h26.37.381,vts_reward_expectancy_bt_OFFLINE,2022.2.4,59.9339406878256,
0,0,0,1,0,1,0,0,star ,circle,1,0,1,0,0,2,2,10,,,,,,,,,,,,,,,,,,,,,,,,,,,,,,,,,,,,,,,,761.9688161830127,761.9688161830127,761.9688161830127,761.9688161830127,761.9688161830127,761.9688161830127,761.9688161830127,761.9688161830127,761.9688161830127,761.9688161830127,a,1.0862780149909668,10,348,1,763.0868038379995,764.5883015290019,,,,,,,,,,,,,,,,,,,,,,,,,,,,,,,,,,,,,,,,,,,,,,,,,,,,,,,,,,,,,,,,,,69703,2022-11-17_11h26.37.381,vts_reward_expectancy_bt_OFFLINE,2022.2.4,59.9339406878256,
0,0,1,0,1,0,0,0,hexagon,triangle,1,0,1,0,0,3,3,6,,,,,,,,,,,,,,,,,,,,,,,,,,,,,,,,,,,,,,,,765.0889804240142,765.0889804240142,765.0889804240142,765.0889804240142,765.0889804240142,765.0889804240142,765.0889804240142,765.0889804240142,765.0889804240142,765.0889804240142,a,1.9135361940134317,1,349,1,767.0243822970078,768.5268927979923,,,,,,,,,,,,,,,,,,,,,,,,,,,,,,,,,,,,,,,,,,,,,,,,,,,,,,,,,,,,,,,,,,69703,2022-11-17_11h26.37.381,vts_reward_expectancy_bt_OFFLINE,2022.2.4,59.9339406878256,
1,0,0,0,0,1,0,0,triangle,circle,1,0,1,0,0,4,4,0,,,,,,,,,,,,,,,,,,,,,,,,,,,,,,,,,,,,,,,,769.0266010900086,769.0266010900086,769.0266010900086,769.0266010900086,769.0266010900086,769.0266010900086,769.0266010900086,769.0266010900086,769.0266010900086,769.0266010900086,a,0.6523312880017329,1,350,1,769.7107618279988,771.2125110840134,,,,,,,,,,,,,,,,,,,,,,,,,,,,,,,,,,,,,,,,,,,,,,,,,,,,,,,,,,,,,,,,,,69703,2022-11-17_11h26.37.381,vts_reward_expectancy_bt_OFFLINE,2022.2.4,59.9339406878256,
0,1,0,0,0,0,1,0,circle,hexagon,1,0,1,0,0,5,5,4,,,,,,,,,,,,,,,,,,,,,,,,,,,,,,,,,,,,,,,,771.7132312589965,771.7132312589965,771.7132312589965,771.7132312589965,771.7132312589965,771.7132312589965,771.7132312589965,771.7132312589965,771.7132312589965,771.7132312589965,l,1.1517235119827092,10,360,1,772.897479575011,774.3992604230007,,,,,,,,,,,,,,,,,,,,,,,,,,,,,,,,,,,,,,,,,,,,,,,,,,,,,,,,,,,,,,,,,,69703,2022-11-17_11h26.37.381,vts_reward_expectancy_bt_OFFLINE,2022.2.4,59.9339406878256,
0,0,1,0,0,0,0,1,hexagon,star,1,0,1,0,0,6,6,8,,,,,,,,,,,,,,,,,,,,,,,,,,,,,,,,,,,,,,,,774.9000548520125,774.9000548520125,774.9000548520125,774.9000548520125,774.9000548520125,774.9000548520125,774.9000548520125,774.9000548520125,774.9000548520125,774.9000548520125,l,1.002518349996535,10,370,1,775.9344829499896,777.4358553200145,,,,,,,,,,,,,,,,,,,,,,,,,,,,,,,,,,,,,,,,,,,,,,,,,,,,,,,,,,,,,,,,,,69703,2022-11-17_11h26.37.381,vts_reward_expectancy_bt_OFFLINE,2022.2.4,59.9339406878256,
0,1,0,0,0,0,0,1,circle,star,1,0,1,0,0,7,7,5,,,,,,,,,,,,,,,,,,,,,,,,,,,,,,,,,,,,,,,,777.9364275959961,777.9364275959961,777.9364275959961,777.9364275959961,777.9364275959961,777.9364275959961,777.9364275959961,777.9364275959961,777.9364275959961,777.9364275959961,l,1.3748452849977184,10,380,1,779.3380113859894,780.8396738900046,,,,,,,,,,,,,,,,,,,,,,,,,,,,,,,,,,,,,,,,,,,,,,,,,,,,,,,,,,,,,,,,,,69703,2022-11-17_11h26.37.381,vts_reward_expectancy_bt_OFFLINE,2022.2.4,59.9339406878256,
1,0,0,0,0,0,0,1,triangle,star,1,0,1,0,0,8,8,2,,,,,,,,,,,,,,,,,,,,,,,,,,,,,,,,,,,,,,,,781.3403031640046,781.3403031640046,781.3403031640046,781.3403031640046,781.3403031640046,781.3403031640046,781.3403031640046,781.3403031640046,781.3403031640046,781.3403031640046,a,1.254630134004401,10,390,1,782.6250077410077,784.1266173770127,,,,,,,,,,,,,,,,,,,,,,,,,,,,,,,,,,,,,,,,,,,,,,,,,,,,,,,,,,,,,,,,,,69703,2022-11-17_11h26.37.381,vts_reward_expectancy_bt_OFFLINE,2022.2.4,59.9339406878256,
1,0,0,0,0,0,1,0,triangle,hexagon,1,0,1,0,0,9,9,1,,,,,,,,,,,,,,,,,,,,,,,,,,,,,,,,,,,,,,,,784.6271801159892,784.6271801159892,784.6271801159892,784.6271801159892,784.6271801159892,784.6271801159892,784.6271801159892,784.6271801159892,784.6271801159892,784.6271801159892,l,1.3195991000102367,1,391,1,785.9785962589958,787.4802804049978,,,,,,,,,,,,,,,,,,,,,,,,,,,,,,,,,,,,,,,,,,,,,,,,,,,,,,,,,,,,,,,,,,69703,2022-11-17_11h26.37.381,vts_reward_expectancy_bt_OFFLINE,2022.2.4,59.9339406878256,
0,1,0,0,1,0,0,0,circle,triangle,1,0,1,0,0,10,10,3,,,,,,,,,,,,,,,,,,,,,,,,,,,,,,,,,,,,,,,,787.980952109996,787.980952109996,787.980952109996,787.980952109996,787.980952109996,787.980952109996,787.980952109996,787.980952109996,787.980952109996,787.980952109996,l,2.771399722987553,1,392,1,790.7839993259986,792.2856590950105,,,,,,,,,,,,,,,,,,,,,,,,,,,,,,,,,,,,,,,,,,,,,,,,,,,,,,,,,,,,,,,,,,69703,2022-11-17_11h26.37.381,vts_reward_expectancy_bt_OFFLINE,2022.2.4,59.9339406878256,
0,0,1,0,0,1,0,0,hexagon,circle,1,0,1,0,0,11,11,7,,,,,,,,,,,,,,,,,,,,,,,,,,,,,,,,,,,,,,,,792.786260021996,792.786260021996,792.786260021996,792.786260021996,792.786260021996,792.786260021996,792.786260021996,792.786260021996,792.786260021996,792.786260021996,a,2.521128201013198,10,402,1,795.3389383619942,796.8407077600132,,,,,,,,,,,,,,,,,,,,,,,,,,,,,,,,,,,,,,,,,,,,,,,,,,,,,,,,,,,,,,,,,,69703,2022-11-17_11h26.37.381,vts_reward_expectancy_bt_OFFLINE,2022.2.4,59.9339406878256,
0,0,1,0,0,1,0,0,hexagon,circle,1,0,1,0,1,0,12,7,,,,,,,,,,,,,,,,,,,,,,,,,,,,,,,,,,,,,,,,797.3412564180035,797.3412564180035,797.3412564180035,797.3412564180035,797.3412564180035,797.3412564180035,797.3412564180035,797.3412564180035,797.3412564180035,797.3412564180035,a,0.8463093170139473,1,403,1,798.2089051459916,799.7104481389979,,,,,,,,,,,,,,,,,,,,,,,,,,,,,,,,,,,,,,,,,,,,,,,,,,,,,,,,,,,,,,,,,,69703,2022-11-17_11h26.37.381,vts_reward_expectancy_bt_OFFLINE,2022.2.4,59.9339406878256,
1,0,0,0,0,0,1,0,triangle,hexagon,1,0,1,0,1,1,13,1,,,,,,,,,,,,,,,,,,,,,,,,,,,,,,,,,,,,,,,,800.210907486995,800.210907486995,800.210907486995,800.210907486995,800.210907486995,800.210907486995,800.210907486995,800.210907486995,800.210907486995,800.210907486995,l,1.83677505000378,1,404,1,802.0797230080061,803.5814520540007,,,,,,,,,,,,,,,,,,,,,,,,,,,,,,,,,,,,,,,,,,,,,,,,,,,,,,,,,,,,,,,,,,69703,2022-11-17_11h26.37.381,vts_reward_expectancy_bt_OFFLINE,2022.2.4,59.9339406878256,
0,1,0,0,0,0,1,0,circle,hexagon,1,0,1,0,1,2,14,4,,,,,,,,,,,,,,,,,,,,,,,,,,,,,,,,,,,,,,,,804.0818496760039,804.0818496760039,804.0818496760039,804.0818496760039,804.0818496760039,804.0818496760039,804.0818496760039,804.0818496760039,804.0818496760039,804.0818496760039,l,1.1364940599887632,10,414,1,805.2499513270159,806.7515115319984,,,,,,,,,,,,,,,,,,,,,,,,,,,,,,,,,,,,,,,,,,,,,,,,,,,,,,,,,,,,,,,,,,69703,2022-11-17_11h26.37.381,vts_reward_expectancy_bt_OFFLINE,2022.2.4,59.9339406878256,
0,0,0,1,1,0,0,0,star,triangle,1,0,1,0,1,3,15,9,,,,,,,,,,,,,,,,,,,,,,,,,,,,,,,,,,,,,,,,807.2520355379966,807.2520355379966,807.2520355379966,807.2520355379966,807.2520355379966,807.2520355379966,807.2520355379966,807.2520355379966,807.2520355379966,807.2520355379966,a,3.538026579975849,10,424,1,810.8229244929971,812.3246320869948,,,,,,,,,,,,,,,,,,,,,,,,,,,,,,,,,,,,,,,,,,,,,,,,,,,,,,,,,,,,,,,,,,69703,2022-11-17_11h26.37.381,vts_reward_expectancy_bt_OFFLINE,2022.2.4,59.9339406878256,
0,0,1,0,0,0,0,1,hexagon,star,1,0,1,0,1,4,16,8,,,,,,,,,,,,,,,,,,,,,,,,,,,,,,,,,,,,,,,,812.8249492850155,812.8249492850155,812.8249492850155,812.8249492850155,812.8249492850155,812.8249492850155,812.8249492850155,812.8249492850155,812.8249492850155,812.8249492850155,l,1.4527495350048412,1,425,1,814.3101764789899,815.8115078120027,,,,,,,,,,,,,,,,,,,,,,,,,,,,,,,,,,,,,,,,,,,,,,,,,,,,,,,,,,,,,,,,,,69703,2022-11-17_11h26.37.381,vts_reward_expectancy_bt_OFFLINE,2022.2.4,59.9339406878256,
0,1,0,0,1,0,0,0,circle,triangle,1,0,1,0,1,5,17,3,,,,,,,,,,,,,,,,,,,,,,,,,,,,,,,,,,,,,,,,816.3121681819903,816.3121681819903,816.3121681819903,816.3121681819903,816.3121681819903,816.3121681819903,816.3121681819903,816.3121681819903,816.3121681819903,816.3121681819903,a,3.2518838199903257,1,426,1,819.5823459890089,821.0840133019956,821.0840133019956,821.5846249430033,,,,,,,,,,,,,,,,,,,,,,,,,,,,,,,,,,,,,,,,,,,,,,,,,,,,,,,,,,,,,,,,69703,2022-11-17_11h26.37.381,vts_reward_expectancy_bt_OFFLINE,2022.2.4,59.9339406878256,
0,0,0,1,0,0,1,0,star,hexagon,1,0,1,0,1,6,18,11,,,,,,,,,,,,,,,,,,,,,,,,,,,,,,,,,,,,,,,,821.5846249430033,821.5846249430033,821.5846249430033,821.5846249430033,821.5846249430033,821.5846249430033,821.5846249430033,821.5846249430033,821.5846249430033,821.5846249430033,a,1.2636905160034075,10,436,1,822.8692707180162,824.3709667850053,,,,,,,,,,,,,,,,,,,,,,,,,,,,,,,,,,,,,,,,,,,,,,,,,,,,,,,,,,,,,,,,,,69703,2022-11-17_11h26.37.381,vts_reward_expectancy_bt_OFFLINE,2022.2.4,59.9339406878256,
0,0,0,1,0,1,0,0,star ,circle,1,0,1,0,1,7,19,10,,,,,,,,,,,,,,,,,,,,,,,,,,,,,,,,,,,,,,,,824.8714350289956,824.8714350289956,824.8714350289956,824.8714350289956,824.8714350289956,824.8714350289956,824.8714350289956,824.8714350289956,824.8714350289956,824.8714350289956,a,6.225128273013979,10,446,1,831.1286409749882,832.6300790800015,,,,,,,,,,,,,,,,,,,,,,,,,,,,,,,,,,,,,,,,,,,,,,,,,,,,,,,,,,,,,,,,,,69703,2022-11-17_11h26.37.381,vts_reward_expectancy_bt_OFFLINE,2022.2.4,59.9339406878256,
1,0,0,0,0,1,0,0,triangle,circle,1,0,1,0,1,8,20,0,,,,,,,,,,,,,,,,,,,,,,,,,,,,,,,,,,,,,,,,833.1306605089922,833.1306605089922,833.1306605089922,833.1306605089922,833.1306605089922,833.1306605089922,833.1306605089922,833.1306605089922,833.1306605089922,833.1306605089922,a,1.6330562460061628,1,447,1,834.7828165969986,836.2841514419997,,,,,,,,,,,,,,,,,,,,,,,,,,,,,,,,,,,,,,,,,,,,,,,,,,,,,,,,,,,,,,,,,,69703,2022-11-17_11h26.37.381,vts_reward_expectancy_bt_OFFLINE,2022.2.4,59.9339406878256,
1,0,0,0,0,0,0,1,triangle,star,1,0,1,0,1,9,21,2,,,,,,,,,,,,,,,,,,,,,,,,,,,,,,,,,,,,,,,,836.7846605649975,836.7846605649975,836.7846605649975,836.7846605649975,836.7846605649975,836.7846605649975,836.7846605649975,836.7846605649975,836.7846605649975,836.7846605649975,a,3.075277430994902,10,457,1,839.8882356199902,841.3899420550151,,,,,,,,,,,,,,,,,,,,,,,,,,,,,,,,,,,,,,,,,,,,,,,,,,,,,,,,,,,,,,,,,,69703,2022-11-17_11h26.37.381,vts_reward_expectancy_bt_OFFLINE,2022.2.4,59.9339406878256,
0,0,1,0,1,0,0,0,hexagon,triangle,1,0,1,0,1,10,22,6,,,,,,,,,,,,,,,,,,,,,,,,,,,,,,,,,,,,,,,,841.8902142370061,841.8902142370061,841.8902142370061,841.8902142370061,841.8902142370061,841.8902142370061,841.8902142370061,841.8902142370061,841.8902142370061,841.8902142370061,a,1.242370091000339,10,467,1,843.158340347989,844.6599072130048,,,,,,,,,,,,,,,,,,,,,,,,,,,,,,,,,,,,,,,,,,,,,,,,,,,,,,,,,,,,,,,,,,69703,2022-11-17_11h26.37.381,vts_reward_expectancy_bt_OFFLINE,2022.2.4,59.9339406878256,
0,1,0,0,0,0,0,1,circle,star,1,0,1,0,1,11,23,5,,,,,,,,,,,,,,,,,,,,,,,,,,,,,,,,,,,,,,,,845.1606036320154,845.1606036320154,845.1606036320154,845.1606036320154,845.1606036320154,845.1606036320154,845.1606036320154,845.1606036320154,845.1606036320154,845.1606036320154,a,1.0559969749883749,10,477,1,846.2452220729901,847.74688594701,,,,,,,,,,,,,,,,,,,,,,,,,,,,,,,,,,,,,,,,,,,,,,,,,,,,,,,,,,,,,,,,,,69703,2022-11-17_11h26.37.381,vts_reward_expectancy_bt_OFFLINE,2022.2.4,59.9339406878256,
0,0,0,1,1,0,0,0,star,triangle,1,0,1,0,2,0,24,9,,,,,,,,,,,,,,,,,,,,,,,,,,,,,,,,,,,,,,,,848.2474070200115,848.2474070200115,848.2474070200115,848.2474070200115,848.2474070200115,848.2474070200115,848.2474070200115,848.2474070200115,848.2474070200115,848.2474070200115,l,2.6484606160083786,1,478,1,850.9169529950013,852.4185872570088,,,,,,,,,,,,,,,,,,,,,,,,,,,,,,,,,,,,,,,,,,,,,,,,,,,,,,,,,,,,,,,,,,69703,2022-11-17_11h26.37.381,vts_reward_expectancy_bt_OFFLINE,2022.2.4,59.9339406878256,
0,0,0,1,0,0,1,0,star,hexagon,1,0,1,0,2,1,25,11,,,,,,,,,,,,,,,,,,,,,,,,,,,,,,,,,,,,,,,,852.9195625669963,852.9195625669963,852.9195625669963,852.9195625669963,852.9195625669963,852.9195625669963,852.9195625669963,852.9195625669963,852.9195625669963,852.9195625669963,a,2.2535318700247444,1,479,1,855.2048748150119,856.7066226770112,,,,,,,,,,,,,,,,,,,,,,,,,,,,,,,,,,,,,,,,,,,,,,,,,,,,,,,,,,,,,,,,,,69703,2022-11-17_11h26.37.381,vts_reward_expectancy_bt_OFFLINE,2022.2.4,59.9339406878256,
0,0,1,0,1,0,0,0,hexagon,triangle,1,0,1,0,2,2,26,6,,,,,,,,,,,,,,,,,,,,,,,,,,,,,,,,,,,,,,,,857.2074989860121,857.2074989860121,857.2074989860121,857.2074989860121,857.2074989860121,857.2074989860121,857.2074989860121,857.2074989860121,857.2074989860121,857.2074989860121,l,3.2618083319975995,1,480,1,860.4943107689905,861.9957628909906,,,,,,,,,,,,,,,,,,,,,,,,,,,,,,,,,,,,,,,,,,,,,,,,,,,,,,,,,,,,,,,,,,69703,2022-11-17_11h26.37.381,vts_reward_expectancy_bt_OFFLINE,2022.2.4,59.9339406878256,
0,1,0,0,0,0,1,0,circle,hexagon,1,0,1,0,2,3,27,4,,,,,,,,,,,,,,,,,,,,,,,,,,,,,,,,,,,,,,,,862.4964074770105,862.4964074770105,862.4964074770105,862.4964074770105,862.4964074770105,862.4964074770105,862.4964074770105,862.4964074770105,862.4964074770105,862.4964074770105,l,1.1118711270100903,10,490,1,863.6311888060009,865.1326868940087,,,,,,,,,,,,,,,,,,,,,,,,,,,,,,,,,,,,,,,,,,,,,,,,,,,,,,,,,,,,,,,,,,69703,2022-11-17_11h26.37.381,vts_reward_expectancy_bt_OFFLINE,2022.2.4,59.9339406878256,
0,0,1,0,0,0,0,1,hexagon,star,1,0,1,0,2,4,28,8,,,,,,,,,,,,,,,,,,,,,,,,,,,,,,,,,,,,,,,,865.6333919870085,865.6333919870085,865.6333919870085,865.6333919870085,865.6333919870085,865.6333919870085,865.6333919870085,865.6333919870085,865.6333919870085,865.6333919870085,l,2.4418463430192787,1,491,1,868.102458829002,869.6044804420089,,,,,,,,,,,,,,,,,,,,,,,,,,,,,,,,,,,,,,,,,,,,,,,,,,,,,,,,,,,,,,,,,,69703,2022-11-17_11h26.37.381,vts_reward_expectancy_bt_OFFLINE,2022.2.4,59.9339406878256,
1,0,0,0,0,0,0,1,triangle,star,1,0,1,0,2,5,29,2,,,,,,,,,,,,,,,,,,,,,,,,,,,,,,,,,,,,,,,,870.1047580279992,870.1047580279992,870.1047580279992,870.1047580279992,870.1047580279992,870.1047580279992,870.1047580279992,870.1047580279992,870.1047580279992,870.1047580279992,a,2.413990279979771,1,492,1,872.5407109259977,874.0424298800062,,,,,,,,,,,,,,,,,,,,,,,,,,,,,,,,,,,,,,,,,,,,,,,,,,,,,,,,,,,,,,,,,,69703,2022-11-17_11h26.37.381,vts_reward_expectancy_bt_OFFLINE,2022.2.4,59.9339406878256,
0,0,0,1,0,1,0,0,star ,circle,1,0,1,0,2,6,30,10,,,,,,,,,,,,,,,,,,,,,,,,,,,,,,,,,,,,,,,,874.5430059490027,874.5430059490027,874.5430059490027,874.5430059490027,874.5430059490027,874.5430059490027,874.5430059490027,874.5430059490027,874.5430059490027,874.5430059490027,a,1.5200385049975011,1,493,1,876.0933109559992,877.5964519160043,,,,,,,,,,,,,,,,,,,,,,,,,,,,,,,,,,,,,,,,,,,,,,,,,,,,,,,,,,,,,,,,,,69703,2022-11-17_11h26.37.381,vts_reward_expectancy_bt_OFFLINE,2022.2.4,59.9339406878256,
1,0,0,0,0,1,0,0,triangle,circle,1,0,1,0,2,7,31,0,,,,,,,,,,,,,,,,,,,,,,,,,,,,,,,,,,,,,,,,878.0971218080085,878.0971218080085,878.0971218080085,878.0971218080085,878.0971218080085,878.0971218080085,878.0971218080085,878.0971218080085,878.0971218080085,878.0971218080085,l,5.594343417003984,1,494,1,883.7197166800033,885.221756022016,,,,,,,,,,,,,,,,,,,,,,,,,,,,,,,,,,,,,,,,,,,,,,,,,,,,,,,,,,,,,,,,,,69703,2022-11-17_11h26.37.381,vts_reward_expectancy_bt_OFFLINE,2022.2.4,59.9339406878256,
0,0,1,0,0,1,0,0,hexagon,circle,1,0,1,0,2,8,32,7,,,,,,,,,,,,,,,,,,,,,,,,,,,,,,,,,,,,,,,,885.721952982014,885.721952982014,885.721952982014,885.721952982014,885.721952982014,885.721952982014,885.721952982014,885.721952982014,885.721952982014,885.721952982014,l,2.1995524390076753,1,495,1,887.9413268759963,889.4427784690051,,,,,,,,,,,,,,,,,,,,,,,,,,,,,,,,,,,,,,,,,,,,,,,,,,,,,,,,,,,,,,,,,,69703,2022-11-17_11h26.37.381,vts_reward_expectancy_bt_OFFLINE,2022.2.4,59.9339406878256,
0,1,0,0,1,0,0,0,circle,triangle,1,0,1,0,2,9,33,3,,,,,,,,,,,,,,,,,,,,,,,,,,,,,,,,,,,,,,,,889.9432647899957,889.9432647899957,889.9432647899957,889.9432647899957,889.9432647899957,889.9432647899957,889.9432647899957,889.9432647899957,889.9432647899957,889.9432647899957,a,2.7808206010085996,1,496,1,892.74654241401,894.2480380210036,,,,,,,,,,,,,,,,,,,,,,,,,,,,,,,,,,,,,,,,,,,,,,,,,,,,,,,,,,,,,,,,,,69703,2022-11-17_11h26.37.381,vts_reward_expectancy_bt_OFFLINE,2022.2.4,59.9339406878256,
0,1,0,0,0,0,0,1,circle,star,1,0,1,0,2,10,34,5,,,,,,,,,,,,,,,,,,,,,,,,,,,,,,,,,,,,,,,,894.7485714420036,894.7485714420036,894.7485714420036,894.7485714420036,894.7485714420036,894.7485714420036,894.7485714420036,894.7485714420036,894.7485714420036,894.7485714420036,l,1.609657163004158,10,506,1,896.3839807570039,897.8854267449933,,,,,,,,,,,,,,,,,,,,,,,,,,,,,,,,,,,,,,,,,,,,,,,,,,,,,,,,,,,,,,,,,,69703,2022-11-17_11h26.37.381,vts_reward_expectancy_bt_OFFLINE,2022.2.4,59.9339406878256,
1,0,0,0,0,0,1,0,triangle,hexagon,1,0,1,0,2,11,35,1,,,,,,,,,,,,,,,,,,,,,,,,,,,,,,,,,,,,,,,,898.3858062940126,898.3858062940126,898.3858062940126,898.3858062940126,898.3858062940126,898.3858062940126,898.3858062940126,898.3858062940126,898.3858062940126,898.3858062940126,a,1.4603920200024731,10,516,1,899.8708869680122,901.3725089090003,,,,,,,,,,,,,,,,,,,,,,,,,,,,,,,,,,,,,,,,,,,,,,,,,,,,,,,,,,,,,,,,,,69703,2022-11-17_11h26.37.381,vts_reward_expectancy_bt_OFFLINE,2022.2.4,59.9339406878256,
0,1,0,0,1,0,0,0,circle,triangle,1,0,1,0,3,0,36,3,,,,,,,,,,,,,,,,,,,,,,,,,,,,,,,,,,,,,,,,901.8732514750154,901.8732514750154,901.8732514750154,901.8732514750154,901.8732514750154,901.8732514750154,901.8732514750154,901.8732514750154,901.8732514750154,901.8732514750154,a,2.7988117309869267,1,517,1,904.6928405830113,906.1943755749962,,,,,,,,,,,,,,,,,,,,,,,,,,,,,,,,,,,,,,,,,,,,,,,,,,,,,,,,,,,,,,,,,,69703,2022-11-17_11h26.37.381,vts_reward_expectancy_bt_OFFLINE,2022.2.4,59.9339406878256,
0,1,0,0,0,0,1,0,circle,hexagon,1,0,1,0,3,1,37,4,,,,,,,,,,,,,,,,,,,,,,,,,,,,,,,,,,,,,,,,906.6949699459947,906.6949699459947,906.6949699459947,906.6949699459947,906.6949699459947,906.6949699459947,906.6949699459947,906.6949699459947,906.6949699459947,906.6949699459947,l,0.7782666969869751,1,518,1,907.4960144770157,908.9975058060081,,,,,,,,,,,,,,,,,,,,,,,,,,,,,,,,,,,,,,,,,,,,,,,,,,,,,,,,,,,,,,,,,,69703,2022-11-17_11h26.37.381,vts_reward_expectancy_bt_OFFLINE,2022.2.4,59.9339406878256,
0,0,0,1,1,0,0,0,star,triangle,1,0,1,0,3,2,38,9,,,,,,,,,,,,,,,,,,,,,,,,,,,,,,,,,,,,,,,,909.4979996320035,909.4979996320035,909.4979996320035,909.4979996320035,909.4979996320035,909.4979996320035,909.4979996320035,909.4979996320035,909.4979996320035,909.4979996320035,a,0.6653579809935763,10,528,1,910.1821863120131,911.6839943620143,,,,,,,,,,,,,,,,,,,,,,,,,,,,,,,,,,,,,,,,,,,,,,,,,,,,,,,,,,,,,,,,,,69703,2022-11-17_11h26.37.381,vts_reward_expectancy_bt_OFFLINE,2022.2.4,59.9339406878256,
1,0,0,0,0,0,1,0,triangle,hexagon,1,0,1,0,3,3,39,1,,,,,,,,,,,,,,,,,,,,,,,,,,,,,,,,,,,,,,,,912.184480433003,912.184480433003,912.184480433003,912.184480433003,912.184480433003,912.184480433003,912.184480433003,912.184480433003,912.184480433003,912.184480433003,l,5.234289219981292,10,538,1,917.4407187649922,918.9420965450117,,,,,,,,,,,,,,,,,,,,,,,,,,,,,,,,,,,,,,,,,,,,,,,,,,,,,,,,,,,,,,,,,,69703,2022-11-17_11h26.37.381,vts_reward_expectancy_bt_OFFLINE,2022.2.4,59.9339406878256,
1,0,0,0,0,0,0,1,triangle,star,1,0,1,0,3,4,40,2,,,,,,,,,,,,,,,,,,,,,,,,,,,,,,,,,,,,,,,,919.4425986749993,919.4425986749993,919.4425986749993,919.4425986749993,919.4425986749993,919.4425986749993,919.4425986749993,919.4425986749993,919.4425986749993,919.4425986749993,l,2.2532645940082148,1,539,1,921.7283234770002,923.2300068569893,,,,,,,,,,,,,,,,,,,,,,,,,,,,,,,,,,,,,,,,,,,,,,,,,,,,,,,,,,,,,,,,,,69703,2022-11-17_11h26.37.381,vts_reward_expectancy_bt_OFFLINE,2022.2.4,59.9339406878256,
0,0,1,0,1,0,0,0,hexagon,triangle,1,0,1,0,3,5,41,6,,,,,,,,,,,,,,,,,,,,,,,,,,,,,,,,,,,,,,,,923.7308636459929,923.7308636459929,923.7308636459929,923.7308636459929,923.7308636459929,923.7308636459929,923.7308636459929,923.7308636459929,923.7308636459929,923.7308636459929,a,2.6427309839928057,1,540,1,926.4002453440044,927.9019289549906,,,,,,,,,,,,,,,,,,,,,,,,,,,,,,,,,,,,,,,,,,,,,,,,,,,,,,,,,,,,,,,,,,69703,2022-11-17_11h26.37.381,vts_reward_expectancy_bt_OFFLINE,2022.2.4,59.9339406878256,
0,0,1,0,0,1,0,0,hexagon,circle,1,0,1,0,3,6,42,7,,,,,,,,,,,,,,,,,,,,,,,,,,,,,,,,,,,,,,,,928.4026978790062,928.4026978790062,928.4026978790062,928.4026978790062,928.4026978790062,928.4026978790062,928.4026978790062,928.4026978790062,928.4026978790062,928.4026978790062,a,2.3136809110001195,10,550,1,930.7384894659917,932.2399480550084,,,,,,,,,,,,,,,,,,,,,,,,,,,,,,,,,,,,,,,,,,,,,,,,,,,,,,,,,,,,,,,,,,69703,2022-11-17_11h26.37.381,vts_reward_expectancy_bt_OFFLINE,2022.2.4,59.9339406878256,
0,0,1,0,0,0,0,1,hexagon,star,1,0,1,0,3,7,43,8,,,,,,,,,,,,,,,,,,,,,,,,,,,,,,,,,,,,,,,,932.7408276360075,932.7408276360075,932.7408276360075,932.7408276360075,932.7408276360075,932.7408276360075,932.7408276360075,932.7408276360075,932.7408276360075,932.7408276360075,a,2.8131805539887864,10,560,1,935.5771491999913,937.0786034890043,,,,,,,,,,,,,,,,,,,,,,,,,,,,,,,,,,,,,,,,,,,,,,,,,,,,,,,,,,,,,,,,,,69703,2022-11-17_11h26.37.381,vts_reward_expectancy_bt_OFFLINE,2022.2.4,59.9339406878256,
0,0,0,1,0,0,1,0,star,hexagon,1,0,1,0,3,8,44,11,,,,,,,,,,,,,,,,,,,,,,,,,,,,,,,,,,,,,,,,937.5794351779914,937.5794351779914,937.5794351779914,937.5794351779914,937.5794351779914,937.5794351779914,937.5794351779914,937.5794351779914,937.5794351779914,937.5794351779914,l,2.8033533339912537,10,570,1,940.3990584989951,941.9006921960099,941.9006921960099,,,,,,,,,,,,,,,,,,,,,,,,,,,,,,,,,,,,,,,,,,,,,,,,,,,,,,,,,,,,,,,,,69703,2022-11-17_11h26.37.381,vts_reward_expectancy_bt_OFFLINE,2022.2.4,59.9339406878256,
1,0,0,0,0,1,0,0,triangle,circle,1,0,1,0,3,9,45,0,,,,,,,,,,,,,,,,,,,,,,,,,,,,,,,,,,,,,,,,942.4011647409934,942.4011647409934,942.4011647409934,942.4011647409934,942.4011647409934,942.4011647409934,942.4011647409934,942.4011647409934,942.4011647409934,942.4011647409934,a,2.693032895011129,10,580,1,945.1207972090051,946.6224542410055,,,,,,,,,,,,,,,,,,,,,,,,,,,,,,,,,,,,,,,,,,,,,,,,,,,,,,,,,,,,,,,,,,69703,2022-11-17_11h26.37.381,vts_reward_expectancy_bt_OFFLINE,2022.2.4,59.9339406878256,
0,0,0,1,0,1,0,0,star ,circle,1,0,1,0,3,10,46,10,,,,,,,,,,,,,,,,,,,,,,,,,,,,,,,,,,,,,,,,947.1230714080157,947.1230714080157,947.1230714080157,947.1230714080157,947.1230714080157,947.1230714080157,947.1230714080157,947.1230714080157,947.1230714080157,947.1230714080157,a,3.4856318480160553,10,590,1,950.6269338740094,952.1288236200053,952.1288236200053,,,,,,,,,,,,,,,,,,,,,,,,,,,,,,,,,,,,,,,,,,,,,,,,,,,,,,,,,,,,,,,,,69703,2022-11-17_11h26.37.381,vts_reward_expectancy_bt_OFFLINE,2022.2.4,59.9339406878256,
0,1,0,0,0,0,0,1,circle,star,1,0,1,0,3,11,47,5,,,,,,,,,,,,,,,,,,,,,,,,,,,,,,,,,,,,,,,,952.6290689870075,952.6290689870075,952.6290689870075,952.6290689870075,952.6290689870075,952.6290689870075,952.6290689870075,952.6290689870075,952.6290689870075,952.6290689870075,l,0.8018688810116146,10,600,1,953.4635926049959,954.9654324550065,,,,,,,,,,,,,,,,,,,,,,,,,,,,,,,,,,,,,,,,,,,,,,,,,,,,,,,,,,,,,,,,,,69703,2022-11-17_11h26.37.381,vts_reward_expectancy_bt_OFFLINE,2022.2.4,59.9339406878256,
0,1,0,0,0,0,0,1,circle,star,2,0,2,0,0,0,0,5,,,,,,,,,,,,,,,,,,,,,,,,,,,,,,,,,,,,,,,,962.1457845680125,962.1457845680125,962.1457845680125,962.1457845680125,962.1457845680125,962.1457845680125,962.1457845680125,962.1457845680125,962.1457845680125,962.1457845680125,l,1.7935093420092016,10,610,2,963.95837016101,965.4599840230076,,,,,,,,,,,,,,,,,,,,,,,,,,,,,,,,,,,,,,,,,,,,,,,,,,,,,,,,,,,,,,,,,,69703,2022-11-17_11h26.37.381,vts_reward_expectancy_bt_OFFLINE,2022.2.4,59.9339406878256,
0,0,0,1,0,0,1,0,star,hexagon,2,0,2,0,0,1,1,11,,,,,,,,,,,,,,,,,,,,,,,,,,,,,,,,,,,,,,,,965.9606328009977,965.9606328009977,965.9606328009977,965.9606328009977,965.9606328009977,965.9606328009977,965.9606328009977,965.9606328009977,965.9606328009977,965.9606328009977,a,1.916375013999641,10,620,2,967.895947159006,969.3976641210029,969.3976641210029,,,,,,,,,,,,,,,,,,,,,,,,,,,,,,,,,,,,,,,,,,,,,,,,,,,,,,,,,,,,,,,,,69703,2022-11-17_11h26.37.381,vts_reward_expectancy_bt_OFFLINE,2022.2.4,59.9339406878256,
0,1,0,0,0,0,1,0,circle,hexagon,2,0,2,0,0,2,2,4,,,,,,,,,,,,,,,,,,,,,,,,,,,,,,,,,,,,,,,,969.898206065991,969.898206065991,969.898206065991,969.898206065991,969.898206065991,969.898206065991,969.898206065991,969.898206065991,969.898206065991,969.898206065991,l,3.9076980569807347,10,630,2,973.8357182659965,975.3375740970077,,,,,,,,,,,,,,,,,,,,,,,,,,,,,,,,,,,,,,,,,,,,,,,,,,,,,,,,,,,,,,,,,,69703,2022-11-17_11h26.37.381,vts_reward_expectancy_bt_OFFLINE,2022.2.4,59.9339406878256,
0,0,1,0,0,0,0,1,hexagon,star,2,0,2,0,0,3,3,8,,,,,,,,,,,,,,,,,,,,,,,,,,,,,,,,,,,,,,,,975.8380613950139,975.8380613950139,975.8380613950139,975.8380613950139,975.8380613950139,975.8380613950139,975.8380613950139,975.8380613950139,975.8380613950139,975.8380613950139,a,1.094781884981785,10,640,2,976.9558987609926,978.4577618520125,,,,,,,,,,,,,,,,,,,,,,,,,,,,,,,,,,,,,,,,,,,,,,,,,,,,,,,,,,,,,,,,,,69703,2022-11-17_11h26.37.381,vts_reward_expectancy_bt_OFFLINE,2022.2.4,59.9339406878256,
0,0,1,0,0,1,0,0,hexagon,circle,2,0,2,0,0,4,4,7,,,,,,,,,,,,,,,,,,,,,,,,,,,,,,,,,,,,,,,,978.9583886780019,978.9583886780019,978.9583886780019,978.9583886780019,978.9583886780019,978.9583886780019,978.9583886780019,978.9583886780019,978.9583886780019,978.9583886780019,a,1.5745109090057667,10,650,2,980.5599534159992,982.0616522780037,,,,,,,,,,,,,,,,,,,,,,,,,,,,,,,,,,,,,,,,,,,,,,,,,,,,,,,,,,,,,,,,,,69703,2022-11-17_11h26.37.381,vts_reward_expectancy_bt_OFFLINE,2022.2.4,59.9339406878256,
0,0,0,1,1,0,0,0,star,triangle,2,0,2,0,0,5,5,9,,,,,,,,,,,,,,,,,,,,,,,,,,,,,,,,,,,,,,,,982.5621965140163,982.5621965140163,982.5621965140163,982.5621965140163,982.5621965140163,982.5621965140163,982.5621965140163,982.5621965140163,982.5621965140163,982.5621965140163,a,3.798402336979052,10,660,2,986.3829387369915,987.8845000329893,,,,,,,,,,,,,,,,,,,,,,,,,,,,,,,,,,,,,,,,,,,,,,,,,,,,,,,,,,,,,,,,,,69703,2022-11-17_11h26.37.381,vts_reward_expectancy_bt_OFFLINE,2022.2.4,59.9339406878256,
0,0,1,0,1,0,0,0,hexagon,triangle,2,0,2,0,0,6,6,6,,,,,,,,,,,,,,,,,,,,,,,,,,,,,,,,,,,,,,,,988.3850157129928,988.3850157129928,988.3850157129928,988.3850157129928,988.3850157129928,988.3850157129928,988.3850157129928,988.3850157129928,988.3850157129928,988.3850157129928,l,3.206481207977049,1,661,2,991.6223693260108,993.1237393390038,,,,,,,,,,,,,,,,,,,,,,,,,,,,,,,,,,,,,,,,,,,,,,,,,,,,,,,,,,,,,,,,,,69703,2022-11-17_11h26.37.381,vts_reward_expectancy_bt_OFFLINE,2022.2.4,59.9339406878256,
0,0,0,1,0,1,0,0,star ,circle,2,0,2,0,0,7,7,10,,,,,,,,,,,,,,,,,,,,,,,,,,,,,,,,,,,,,,,,993.6243797279894,993.6243797279894,993.6243797279894,993.6243797279894,993.6243797279894,993.6243797279894,993.6243797279894,993.6243797279894,993.6243797279894,993.6243797279894,l,2.2437146400043275,1,662,2,995.89351816001,997.3950218120008,,,,,,,,,,,,,,,,,,,,,,,,,,,,,,,,,,,,,,,,,,,,,,,,,,,,,,,,,,,,,,,,,,69703,2022-11-17_11h26.37.381,vts_reward_expectancy_bt_OFFLINE,2022.2.4,59.9339406878256,
1,0,0,0,0,0,0,1,triangle,star,2,0,2,0,0,8,8,2,,,,,,,,,,,,,,,,,,,,,,,,,,,,,,,,,,,,,,,,997.89576648199,997.89576648199,997.89576648199,997.89576648199,997.89576648199,997.89576648199,997.89576648199,997.89576648199,997.89576648199,997.89576648199,a,2.562030461995164,1,663,2,1000.4818313469877,1001.9834145290079,,,,,,,,,,,,,,,,,,,,,,,,,,,,,,,,,,,,,,,,,,,,,,,,,,,,,,,,,,,,,,,,,,69703,2022-11-17_11h26.37.381,vts_reward_expectancy_bt_OFFLINE,2022.2.4,59.9339406878256,
0,1,0,0,1,0,0,0,circle,triangle,2,0,2,0,0,9,9,3,,,,,,,,,,,,,,,,,,,,,,,,,,,,,,,,,,,,,,,,1002.484241099999,1002.484241099999,1002.484241099999,1002.484241099999,1002.484241099999,1002.484241099999,1002.484241099999,1002.484241099999,1002.484241099999,1002.484241099999,l,1.1794060659885872,1,664,2,1003.6854121510114,1005.1870737019926,,,,,,,,,,,,,,,,,,,,,,,,,,,,,,,,,,,,,,,,,,,,,,,,,,,,,,,,,,,,,,,,,,69703,2022-11-17_11h26.37.381,vts_reward_expectancy_bt_OFFLINE,2022.2.4,59.9339406878256,
1,0,0,0,0,0,1,0,triangle,hexagon,2,0,2,0,0,10,10,1,,,,,,,,,,,,,,,,,,,,,,,,,,,,,,,,,,,,,,,,1005.6876527190034,1005.6876527190034,1005.6876527190034,1005.6876527190034,1005.6876527190034,1005.6876527190034,1005.6876527190034,1005.6876527190034,1005.6876527190034,1005.6876527190034,l,2.397238171979552,10,674,2,1008.106952467002,1009.608655996999,,,,,,,,,,,,,,,,,,,,,,,,,,,,,,,,,,,,,,,,,,,,,,,,,,,,,,,,,,,,,,,,,,69703,2022-11-17_11h26.37.381,vts_reward_expectancy_bt_OFFLINE,2022.2.4,59.9339406878256,
1,0,0,0,0,1,0,0,triangle,circle,2,0,2,0,0,11,11,0,,,,,,,,,,,,,,,,,,,,,,,,,,,,,,,,,,,,,,,,1010.1094435559935,1010.1094435559935,1010.1094435559935,1010.1094435559935,1010.1094435559935,1010.1094435559935,1010.1094435559935,1010.1094435559935,1010.1094435559935,1010.1094435559935,a,2.036492527986411,1,675,2,1012.1785611390078,1013.679769017006,,,,,,,,,,,,,,,,,,,,,,,,,,,,,,,,,,,,,,,,,,,,,,,,,,,,,,,,,,,,,,,,,,69703,2022-11-17_11h26.37.381,vts_reward_expectancy_bt_OFFLINE,2022.2.4,59.9339406878256,
0,1,0,0,0,0,1,0,circle,hexagon,2,0,2,0,1,0,12,4,,,,,,,,,,,,,,,,,,,,,,,,,,,,,,,,,,,,,,,,1014.1805342739972,1014.1805342739972,1014.1805342739972,1014.1805342739972,1014.1805342739972,1014.1805342739972,1014.1805342739972,1014.1805342739972,1014.1805342739972,1014.1805342739972,a,2.510924686008366,1,676,2,1016.7165866240102,1018.2183118140092,,,,,,,,,,,,,,,,,,,,,,,,,,,,,,,,,,,,,,,,,,,,,,,,,,,,,,,,,,,,,,,,,,69703,2022-11-17_11h26.37.381,vts_reward_expectancy_bt_OFFLINE,2022.2.4,59.9339406878256,
0,0,0,1,0,1,0,0,star ,circle,2,0,2,0,1,1,13,10,,,,,,,,,,,,,,,,,,,,,,,,,,,,,,,,,,,,,,,,1018.7189468340075,1018.7189468340075,1018.7189468340075,1018.7189468340075,1018.7189468340075,1018.7189468340075,1018.7189468340075,1018.7189468340075,1018.7189468340075,1018.7189468340075,a,1.8328476390161086,1,677,2,1020.5706927390129,1022.0723412299994,,,,,,,,,,,,,,,,,,,,,,,,,,,,,,,,,,,,,,,,,,,,,,,,,,,,,,,,,,,,,,,,,,69703,2022-11-17_11h26.37.381,vts_reward_expectancy_bt_OFFLINE,2022.2.4,59.9339406878256,
0,0,1,0,1,0,0,0,hexagon,triangle,2,0,2,0,1,2,14,6,,,,,,,,,,,,,,,,,,,,,,,,,,,,,,,,,,,,,,,,1022.573075229011,1022.573075229011,1022.573075229011,1022.573075229011,1022.573075229011,1022.573075229011,1022.573075229011,1022.573075229011,1022.573075229011,1022.573075229011,a,2.420961622003233,10,687,2,1025.0256791200081,1026.5270972180006,,,,,,,,,,,,,,,,,,,,,,,,,,,,,,,,,,,,,,,,,,,,,,,,,,,,,,,,,,,,,,,,,,69703,2022-11-17_11h26.37.381,vts_reward_expectancy_bt_OFFLINE,2022.2.4,59.9339406878256,
0,0,0,1,1,0,0,0,star,triangle,2,0,2,0,1,3,15,9,,,,,,,,,,,,,,,,,,,,,,,,,,,,,,,,,,,,,,,,1027.0276506300143,1027.0276506300143,1027.0276506300143,1027.0276506300143,1027.0276506300143,1027.0276506300143,1027.0276506300143,1027.0276506300143,1027.0276506300143,1027.0276506300143,l,1.7804355660045985,1,688,2,1028.8297181290109,1030.3317331119906,,,,,,,,,,,,,,,,,,,,,,,,,,,,,,,,,,,,,,,,,,,,,,,,,,,,,,,,,,,,,,,,,,69703,2022-11-17_11h26.37.381,vts_reward_expectancy_bt_OFFLINE,2022.2.4,59.9339406878256,
0,1,0,0,1,0,0,0,circle,triangle,2,0,2,0,1,4,16,3,,,,,,,,,,,,,,,,,,,,,,,,,,,,,,,,,,,,,,,,1030.8321574669972,1030.8321574669972,1030.8321574669972,1030.8321574669972,1030.8321574669972,1030.8321574669972,1030.8321574669972,1030.8321574669972,1030.8321574669972,1030.8321574669972,a,7.3476291160041,1,689,2,1038.2071138889878,1039.708552881988,,,,,,,,,,,,,,,,,,,,,,,,,,,,,,,,,,,,,,,,,,,,,,,,,,,,,,,,,,,,,,,,,,69703,2022-11-17_11h26.37.381,vts_reward_expectancy_bt_OFFLINE,2022.2.4,59.9339406878256,
0,0,0,1,0,0,1,0,star,hexagon,2,0,2,0,1,5,17,11,,,,,,,,,,,,,,,,,,,,,,,,,,,,,,,,,,,,,,,,1040.209039592999,1040.209039592999,1040.209039592999,1040.209039592999,1040.209039592999,1040.209039592999,1040.209039592999,1040.209039592999,1040.209039592999,1040.209039592999,l,2.0203254869848024,10,699,2,1042.2613814480137,1043.7629195940099,,,,,,,,,,,,,,,,,,,,,,,,,,,,,,,,,,,,,,,,,,,,,,,,,,,,,,,,,,,,,,,,,,69703,2022-11-17_11h26.37.381,vts_reward_expectancy_bt_OFFLINE,2022.2.4,59.9339406878256,
0,0,1,0,0,0,0,1,hexagon,star,2,0,2,0,1,6,18,8,,,,,,,,,,,,,,,,,,,,,,,,,,,,,,,,,,,,,,,,1044.2637455420045,1044.2637455420045,1044.2637455420045,1044.2637455420045,1044.2637455420045,1044.2637455420045,1044.2637455420045,1044.2637455420045,1044.2637455420045,1044.2637455420045,a,1.8029898690001573,10,709,2,1046.0989473630034,1047.6005456540151,,,,,,,,,,,,,,,,,,,,,,,,,,,,,,,,,,,,,,,,,,,,,,,,,,,,,,,,,,,,,,,,,,69703,2022-11-17_11h26.37.381,vts_reward_expectancy_bt_OFFLINE,2022.2.4,59.9339406878256,
0,1,0,0,0,0,0,1,circle,star,2,0,2,0,1,7,19,5,,,,,,,,,,,,,,,,,,,,,,,,,,,,,,,,,,,,,,,,1048.1011345369916,1048.1011345369916,1048.1011345369916,1048.1011345369916,1048.1011345369916,1048.1011345369916,1048.1011345369916,1048.1011345369916,1048.1011345369916,1048.1011345369916,l,1.1941538130049594,10,719,2,1049.3190563739918,1050.8210545440088,,,,,,,,,,,,,,,,,,,,,,,,,,,,,,,,,,,,,,,,,,,,,,,,,,,,,,,,,,,,,,,,,,69703,2022-11-17_11h26.37.381,vts_reward_expectancy_bt_OFFLINE,2022.2.4,59.9339406878256,
1,0,0,0,0,0,1,0,triangle,hexagon,2,0,2,0,1,8,20,1,,,,,,,,,,,,,,,,,,,,,,,,,,,,,,,,,,,,,,,,1051.3212398439937,1051.3212398439937,1051.3212398439937,1051.3212398439937,1051.3212398439937,1051.3212398439937,1051.3212398439937,1051.3212398439937,1051.3212398439937,1051.3212398439937,l,2.9924457389861345,10,729,2,1054.3412826409913,1055.842865796003,,,,,,,,,,,,,,,,,,,,,,,,,,,,,,,,,,,,,,,,,,,,,,,,,,,,,,,,,,,,,,,,,,69703,2022-11-17_11h26.37.381,vts_reward_expectancy_bt_OFFLINE,2022.2.4,59.9339406878256,
0,0,1,0,0,1,0,0,hexagon,circle,2,0,2,0,1,9,21,7,,,,,,,,,,,,,,,,,,,,,,,,,,,,,,,,,,,,,,,,1056.3435663970013,1056.3435663970013,1056.3435663970013,1056.3435663970013,1056.3435663970013,1056.3435663970013,1056.3435663970013,1056.3435663970013,1056.3435663970013,1056.3435663970013,a,0.8945731990097556,10,739,2,1057.26126824299,1058.762914963998,,,,,,,,,,,,,,,,,,,,,,,,,,,,,,,,,,,,,,,,,,,,,,,,,,,,,,,,,,,,,,,,,,69703,2022-11-17_11h26.37.381,vts_reward_expectancy_bt_OFFLINE,2022.2.4,59.9339406878256,
1,0,0,0,0,1,0,0,triangle,circle,2,0,2,0,1,10,22,0,,,,,,,,,,,,,,,,,,,,,,,,,,,,,,,,,,,,,,,,1059.2634590590023,1059.2634590590023,1059.2634590590023,1059.2634590590023,1059.2634590590023,1059.2634590590023,1059.2634590590023,1059.2634590590023,1059.2634590590023,1059.2634590590023,a,1.3616154550109059,1,740,2,1060.6485634270066,1062.1498953400005,,,,,,,,,,,,,,,,,,,,,,,,,,,,,,,,,,,,,,,,,,,,,,,,,,,,,,,,,,,,,,,,,,69703,2022-11-17_11h26.37.381,vts_reward_expectancy_bt_OFFLINE,2022.2.4,59.9339406878256,
1,0,0,0,0,0,0,1,triangle,star,2,0,2,0,1,11,23,2,,,,,,,,,,,,,,,,,,,,,,,,,,,,,,,,,,,,,,,,1062.6508677490056,1062.6508677490056,1062.6508677490056,1062.6508677490056,1062.6508677490056,1062.6508677490056,1062.6508677490056,1062.6508677490056,1062.6508677490056,1062.6508677490056,l,1.9782539799925871,10,750,2,1064.652615717001,1066.154819844989,,,,,,,,,,,,,,,,,,,,,,,,,,,,,,,,,,,,,,,,,,,,,,,,,,,,,,,,,,,,,,,,,,69703,2022-11-17_11h26.37.381,vts_reward_expectancy_bt_OFFLINE,2022.2.4,59.9339406878256,
0,1,0,0,0,0,0,1,circle,star,2,0,2,0,2,0,24,5,,,,,,,,,,,,,,,,,,,,,,,,,,,,,,,,,,,,,,,,1066.6550061340095,1066.6550061340095,1066.6550061340095,1066.6550061340095,1066.6550061340095,1066.6550061340095,1066.6550061340095,1066.6550061340095,1066.6550061340095,1066.6550061340095,l,1.0570592579897493,1,751,2,1067.7393181730004,1069.2409541610104,,,,,,,,,,,,,,,,,,,,,,,,,,,,,,,,,,,,,,,,,,,,,,,,,,,,,,,,,,,,,,,,,,69703,2022-11-17_11h26.37.381,vts_reward_expectancy_bt_OFFLINE,2022.2.4,59.9339406878256,
0,0,0,1,0,0,1,0,star,hexagon,2,0,2,0,2,1,25,11,,,,,,,,,,,,,,,,,,,,,,,,,,,,,,,,,,,,,,,,1069.7416720880137,1069.7416720880137,1069.7416720880137,1069.7416720880137,1069.7416720880137,1069.7416720880137,1069.7416720880137,1069.7416720880137,1069.7416720880137,1069.7416720880137,a,3.8897214199823793,10,761,2,1073.6625085069973,1075.1642917559948,,,,,,,,,,,,,,,,,,,,,,,,,,,,,,,,,,,,,,,,,,,,,,,,,,,,,,,,,,,,,,,,,,69703,2022-11-17_11h26.37.381,vts_reward_expectancy_bt_OFFLINE,2022.2.4,59.9339406878256,
0,1,0,0,1,0,0,0,circle,triangle,2,0,2,0,2,2,26,3,,,,,,,,,,,,,,,,,,,,,,,,,,,,,,,,,,,,,,,,1075.6646566900017,1075.6646566900017,1075.6646566900017,1075.6646566900017,1075.6646566900017,1075.6646566900017,1075.6646566900017,1075.6646566900017,1075.6646566900017,1075.6646566900017,l,0.979896626988193,1,762,2,1076.6659256280109,1078.1675828529987,,,,,,,,,,,,,,,,,,,,,,,,,,,,,,,,,,,,,,,,,,,,,,,,,,,,,,,,,,,,,,,,,,69703,2022-11-17_11h26.37.381,vts_reward_expectancy_bt_OFFLINE,2022.2.4,59.9339406878256,
0,0,0,1,0,1,0,0,star ,circle,2,0,2,0,2,3,27,10,,,,,,,,,,,,,,,,,,,,,,,,,,,,,,,,,,,,,,,,1078.6680496350164,1078.6680496350164,1078.6680496350164,1078.6680496350164,1078.6680496350164,1078.6680496350164,1078.6680496350164,1078.6680496350164,1078.6680496350164,1078.6680496350164,a,1.2068340640107635,1,763,2,1079.9027847580146,1081.4045100930089,,,,,,,,,,,,,,,,,,,,,,,,,,,,,,,,,,,,,,,,,,,,,,,,,,,,,,,,,,,,,,,,,,69703,2022-11-17_11h26.37.381,vts_reward_expectancy_bt_OFFLINE,2022.2.4,59.9339406878256,
0,0,1,0,0,1,0,0,hexagon,circle,2,0,2,0,2,4,28,7,,,,,,,,,,,,,,,,,,,,,,,,,,,,,,,,,,,,,,,,1081.9052363910014,1081.9052363910014,1081.9052363910014,1081.9052363910014,1081.9052363910014,1081.9052363910014,1081.9052363910014,1081.9052363910014,1081.9052363910014,1081.9052363910014,a,1.265918837976642,1,764,2,1083.189967170998,1084.6914981139998,,,,,,,,,,,,,,,,,,,,,,,,,,,,,,,,,,,,,,,,,,,,,,,,,,,,,,,,,,,,,,,,,,69703,2022-11-17_11h26.37.381,vts_reward_expectancy_bt_OFFLINE,2022.2.4,59.9339406878256,
1,0,0,0,0,0,1,0,triangle,hexagon,2,0,2,0,2,5,29,1,,,,,,,,,,,,,,,,,,,,,,,,,,,,,,,,,,,,,,,,1085.1920917670068,1085.1920917670068,1085.1920917670068,1085.1920917670068,1085.1920917670068,1085.1920917670068,1085.1920917670068,1085.1920917670068,1085.1920917670068,1085.1920917670068,l,1.3868725459906273,10,774,2,1086.6101774199924,1088.1120418889914,,,,,,,,,,,,,,,,,,,,,,,,,,,,,,,,,,,,,,,,,,,,,,,,,,,,,,,,,,,,,,,,,,69703,2022-11-17_11h26.37.381,vts_reward_expectancy_bt_OFFLINE,2022.2.4,59.9339406878256,
0,0,1,0,1,0,0,0,hexagon,triangle,2,0,2,0,2,6,30,6,,,,,,,,,,,,,,,,,,,,,,,,,,,,,,,,,,,,,,,,1088.6127111109963,1088.6127111109963,1088.6127111109963,1088.6127111109963,1088.6127111109963,1088.6127111109963,1088.6127111109963,1088.6127111109963,1088.6127111109963,1088.6127111109963,a,0.85737152499496,10,784,2,1089.4967913319997,1090.998265295988,,,,,,,,,,,,,,,,,,,,,,,,,,,,,,,,,,,,,,,,,,,,,,,,,,,,,,,,,,,,,,,,,,69703,2022-11-17_11h26.37.381,vts_reward_expectancy_bt_OFFLINE,2022.2.4,59.9339406878256,
0,0,1,0,0,0,0,1,hexagon,star,2,0,2,0,2,7,31,8,,,,,,,,,,,,,,,,,,,,,,,,,,,,,,,,,,,,,,,,1091.4989155119983,1091.4989155119983,1091.4989155119983,1091.4989155119983,1091.4989155119983,1091.4989155119983,1091.4989155119983,1091.4989155119983,1091.4989155119983,1091.4989155119983,a,0.8401870189991314,10,794,2,1092.366494994989,1093.8681268240034,,,,,,,,,,,,,,,,,,,,,,,,,,,,,,,,,,,,,,,,,,,,,,,,,,,,,,,,,,,,,,,,,,69703,2022-11-17_11h26.37.381,vts_reward_expectancy_bt_OFFLINE,2022.2.4,59.9339406878256,
1,0,0,0,0,0,0,1,triangle,star,2,0,2,0,2,8,32,2,,,,,,,,,,,,,,,,,,,,,,,,,,,,,,,,,,,,,,,,1094.3686188019929,1094.3686188019929,1094.3686188019929,1094.3686188019929,1094.3686188019929,1094.3686188019929,1094.3686188019929,1094.3686188019929,1094.3686188019929,1094.3686188019929,a,2.39235863101203,1,795,2,1096.788496647001,1098.2898059480067,,,,,,,,,,,,,,,,,,,,,,,,,,,,,,,,,,,,,,,,,,,,,,,,,,,,,,,,,,,,,,,,,,69703,2022-11-17_11h26.37.381,vts_reward_expectancy_bt_OFFLINE,2022.2.4,59.9339406878256,
0,1,0,0,0,0,1,0,circle,hexagon,2,0,2,0,2,9,33,4,,,,,,,,,,,,,,,,,,,,,,,,,,,,,,,,,,,,,,,,1098.790439770004,1098.790439770004,1098.790439770004,1098.790439770004,1098.790439770004,1098.790439770004,1098.790439770004,1098.790439770004,1098.790439770004,1098.790439770004,l,2.1337692480010446,10,805,2,1100.9427508029912,1102.444379796012,1102.444379796012,,,,,,,,,,,,,,,,,,,,,,,,,,,,,,,,,,,,,,,,,,,,,,,,,,,,,,,,,,,,,,,,,69703,2022-11-17_11h26.37.381,vts_reward_expectancy_bt_OFFLINE,2022.2.4,59.9339406878256,
1,0,0,0,0,1,0,0,triangle,circle,2,0,2,0,2,10,34,0,,,,,,,,,,,,,,,,,,,,,,,,,,,,,,,,,,,,,,,,1102.94509225199,1102.94509225199,1102.94509225199,1102.94509225199,1102.94509225199,1102.94509225199,1102.94509225199,1102.94509225199,1102.94509225199,1102.94509225199,a,1.2857367249962408,1,806,2,1104.2631283350056,1105.7647274649935,,,,,,,,,,,,,,,,,,,,,,,,,,,,,,,,,,,,,,,,,,,,,,,,,,,,,,,,,,,,,,,,,,69703,2022-11-17_11h26.37.381,vts_reward_expectancy_bt_OFFLINE,2022.2.4,59.9339406878256,
0,0,0,1,1,0,0,0,star,triangle,2,0,2,0,2,11,35,9,,,,,,,,,,,,,,,,,,,,,,,,,,,,,,,,,,,,,,,,1106.2653288739966,1106.2653288739966,1106.2653288739966,1106.2653288739966,1106.2653288739966,1106.2653288739966,1106.2653288739966,1106.2653288739966,1106.2653288739966,1106.2653288739966,a,1.982635736989323,10,816,2,1108.2675904940115,1109.7692293309956,,,,,,,,,,,,,,,,,,,,,,,,,,,,,,,,,,,,,,,,,,,,,,,,,,,,,,,,,,,,,,,,,,69703,2022-11-17_11h26.37.381,vts_reward_expectancy_bt_OFFLINE,2022.2.4,59.9339406878256,
0,1,0,0,0,0,1,0,circle,hexagon,2,0,2,0,3,0,36,4,,,,,,,,,,,,,,,,,,,,,,,,,,,,,,,,,,,,,,,,1110.2697225220036,1110.2697225220036,1110.2697225220036,1110.2697225220036,1110.2697225220036,1110.2697225220036,1110.2697225220036,1110.2697225220036,1110.2697225220036,1110.2697225220036,l,5.00806158001069,10,826,2,1115.3085382530116,1116.8101929870027,,,,,,,,,,,,,,,,,,,,,,,,,,,,,,,,,,,,,,,,,,,,,,,,,,,,,,,,,,,,,,,,,,69703,2022-11-17_11h26.37.381,vts_reward_expectancy_bt_OFFLINE,2022.2.4,59.9339406878256,
0,0,1,0,0,0,0,1,hexagon,star,2,0,2,0,3,1,37,8,,,,,,,,,,,,,,,,,,,,,,,,,,,,,,,,,,,,,,,,1117.3106754570035,1117.3106754570035,1117.3106754570035,1117.3106754570035,1117.3106754570035,1117.3106754570035,1117.3106754570035,1117.3106754570035,1117.3106754570035,1117.3106754570035,a,0.9604503820009995,10,836,2,1118.295207082003,1119.7967372550047,,,,,,,,,,,,,,,,,,,,,,,,,,,,,,,,,,,,,,,,,,,,,,,,,,,,,,,,,,,,,,,,,,69703,2022-11-17_11h26.37.381,vts_reward_expectancy_bt_OFFLINE,2022.2.4,59.9339406878256,
0,0,0,1,1,0,0,0,star,triangle,2,0,2,0,3,2,38,9,,,,,,,,,,,,,,,,,,,,,,,,,,,,,,,,,,,,,,,,1120.2974996230041,1120.2974996230041,1120.2974996230041,1120.2974996230041,1120.2974996230041,1120.2974996230041,1120.2974996230041,1120.2974996230041,1120.2974996230041,1120.2974996230041,a,2.687175785016734,10,846,2,1123.0169612820027,1124.5186952470103,,,,,,,,,,,,,,,,,,,,,,,,,,,,,,,,,,,,,,,,,,,,,,,,,,,,,,,,,,,,,,,,,,69703,2022-11-17_11h26.37.381,vts_reward_expectancy_bt_OFFLINE,2022.2.4,59.9339406878256,
0,0,0,1,0,1,0,0,star ,circle,2,0,2,0,3,3,39,10,,,,,,,,,,,,,,,,,,,,,,,,,,,,,,,,,,,,,,,,1125.0192201010068,1125.0192201010068,1125.0192201010068,1125.0192201010068,1125.0192201010068,1125.0192201010068,1125.0192201010068,1125.0192201010068,1125.0192201010068,1125.0192201010068,a,1.263068745000055,10,856,2,1126.3041006629937,1127.8056099550158,,,,,,,,,,,,,,,,,,,,,,,,,,,,,,,,,,,,,,,,,,,,,,,,,,,,,,,,,,,,,,,,,,69703,2022-11-17_11h26.37.381,vts_reward_expectancy_bt_OFFLINE,2022.2.4,59.9339406878256,
0,1,0,0,0,0,0,1,circle,star,2,0,2,0,3,4,40,5,,,,,,,,,,,,,,,,,,,,,,,,,,,,,,,,,,,,,,,,1128.3063728290144,1128.3063728290144,1128.3063728290144,1128.3063728290144,1128.3063728290144,1128.3063728290144,1128.3063728290144,1128.3063728290144,1128.3063728290144,1128.3063728290144,l,1.2705796340014786,1,857,2,1129.60771501399,1131.1093369449954,,,,,,,,,,,,,,,,,,,,,,,,,,,,,,,,,,,,,,,,,,,,,,,,,,,,,,,,,,,,,,,,,,69703,2022-11-17_11h26.37.381,vts_reward_expectancy_bt_OFFLINE,2022.2.4,59.9339406878256,
0,0,1,0,0,1,0,0,hexagon,circle,2,0,2,0,3,5,41,7,,,,,,,,,,,,,,,,,,,,,,,,,,,,,,,,,,,,,,,,1131.60973438801,1131.60973438801,1131.60973438801,1131.60973438801,1131.60973438801,1131.60973438801,1131.60973438801,1131.60973438801,1131.60973438801,1131.60973438801,l,1.8173814009933267,1,858,2,1133.4452308340115,1134.9468173930072,,,,,,,,,,,,,,,,,,,,,,,,,,,,,,,,,,,,,,,,,,,,,,,,,,,,,,,,,,,,,,,,,,69703,2022-11-17_11h26.37.381,vts_reward_expectancy_bt_OFFLINE,2022.2.4,59.9339406878256,
0,1,0,0,1,0,0,0,circle,triangle,2,0,2,0,3,6,42,3,,,,,,,,,,,,,,,,,,,,,,,,,,,,,,,,,,,,,,,,1135.4474203269929,1135.4474203269929,1135.4474203269929,1135.4474203269929,1135.4474203269929,1135.4474203269929,1135.4474203269929,1135.4474203269929,1135.4474203269929,1135.4474203269929,a,1.1411952779744752,10,868,2,1136.6153841270134,1138.1171187149885,,,,,,,,,,,,,,,,,,,,,,,,,,,,,,,,,,,,,,,,,,,,,,,,,,,,,,,,,,,,,,,,,,69703,2022-11-17_11h26.37.381,vts_reward_expectancy_bt_OFFLINE,2022.2.4,59.9339406878256,
0,0,1,0,1,0,0,0,hexagon,triangle,2,0,2,0,3,7,43,6,,,,,,,,,,,,,,,,,,,,,,,,,,,,,,,,,,,,,,,,1138.6173851900094,1138.6173851900094,1138.6173851900094,1138.6173851900094,1138.6173851900094,1138.6173851900094,1138.6173851900094,1138.6173851900094,1138.6173851900094,1138.6173851900094,l,1.8523809369944502,1,869,2,1140.4862974630087,1141.9879022730165,1141.9879022730165,,,,,,,,,,,,,,,,,,,,,,,,,,,,,,,,,,,,,,,,,,,,,,,,,,,,,,,,,,,,,,,,,69703,2022-11-17_11h26.37.381,vts_reward_expectancy_bt_OFFLINE,2022.2.4,59.9339406878256,
0,0,0,1,0,0,1,0,star,hexagon,2,0,2,0,3,8,44,11,,,,,,,,,,,,,,,,,,,,,,,,,,,,,,,,,,,,,,,,1142.4888796840096,1142.4888796840096,1142.4888796840096,1142.4888796840096,1142.4888796840096,1142.4888796840096,1142.4888796840096,1142.4888796840096,1142.4888796840096,1142.4888796840096,a,1.0277483999961987,10,879,2,1143.539785349014,1145.0413203859935,,,,,,,,,,,,,,,,,,,,,,,,,,,,,,,,,,,,,,,,,,,,,,,,,,,,,,,,,,,,,,,,,,69703,2022-11-17_11h26.37.381,vts_reward_expectancy_bt_OFFLINE,2022.2.4,59.9339406878256,
1,0,0,0,0,0,1,0,triangle,hexagon,2,0,2,0,3,9,45,1,,,,,,,,,,,,,,,,,,,,,,,,,,,,,,,,,,,,,,,,1145.5420537969912,1145.5420537969912,1145.5420537969912,1145.5420537969912,1145.5420537969912,1145.5420537969912,1145.5420537969912,1145.5420537969912,1145.5420537969912,1145.5420537969912,l,3.3294471460103523,10,889,2,1148.8957805210084,1150.397382916999,,,,,,,,,,,,,,,,,,,,,,,,,,,,,,,,,,,,,,,,,,,,,,,,,,,,,,,,,,,,,,,,,,69703,2022-11-17_11h26.37.381,vts_reward_expectancy_bt_OFFLINE,2022.2.4,59.9339406878256,
1,0,0,0,0,0,0,1,triangle,star,2,0,2,0,3,10,46,2,,,,,,,,,,,,,,,,,,,,,,,,,,,,,,,,,,,,,,,,1150.898104766995,1150.898104766995,1150.898104766995,1150.898104766995,1150.898104766995,1150.898104766995,1150.898104766995,1150.898104766995,1150.898104766995,1150.898104766995,l,4.6791404180112295,1,890,2,1155.6032104839978,1157.1045620609948,,,,,,,,,,,,,,,,,,,,,,,,,,,,,,,,,,,,,,,,,,,,,,,,,,,,,,,,,,,,,,,,,,69703,2022-11-17_11h26.37.381,vts_reward_expectancy_bt_OFFLINE,2022.2.4,59.9339406878256,
1,0,0,0,0,1,0,0,triangle,circle,2,0,2,0,3,11,47,0,,,,,,,,,,,,,,,,,,,,,,,,,,,,,,,,,,,,,,,,1157.6050766840053,1157.6050766840053,1157.6050766840053,1157.6050766840053,1157.6050766840053,1157.6050766840053,1157.6050766840053,1157.6050766840053,1157.6050766840053,1157.6050766840053,a,2.326044669986004,1,891,2,1159.9576844290132,1161.4598058510164,,,,,,,,,,,,,,,,,,,,,,,,,,,,,,,,,,,,,,,,,,,,,,,,,,,,,,,,,,,,,,,,,,69703,2022-11-17_11h26.37.381,vts_reward_expectancy_bt_OFFLINE,2022.2.4,59.9339406878256,
,,,,,,,,,,,,,,,,,,0,0,0,0,0,0,0,0,,,,,,,,,,,,,,,,,,,,,,,,,,,,,,,,,,,,,,,,,,,,,,,,1205.4080398050137,,,167,D,hexagon,0.0024337169888895005,1200.1316359720076,1201.6372422850109,1201.6372422850109,1201.6372422850109,0,0,d,2.237230640021153,0,1203.9064510730095,,,,,,,,,,,,,,,,,,,,,,,,,,,,,,,,,,,,,,,,,,,,,,,,,,69703,2022-11-17_11h26.37.381,vts_reward_expectancy_bt_OFFLINE,2022.2.4,59.9339406878256,
,,,,,,,,,,,,,,,,,,0,0,0,0,1,0,1,0,,,,,,,,,,,,,,,,,,,,,,,,,,,,,,,,,,,,,,,,,,,,,,,,1210.1465398930013,,,132,B,triangle,0.0015482779999729246,1206.3877772359992,1207.8941466690158,1207.8941466690158,1207.8941466690158,1,1,d,0.7281229640066158,0,1208.6449976110016,,,,,,,,,,,,,,,,,,,,,,,,,,,,,,,,,,,,,,,,,,,,,,,,,,69703,2022-11-17_11h26.37.381,vts_reward_expectancy_bt_OFFLINE,2022.2.4,59.9339406878256,
,,,,,,,,,,,,,,,,,,0,0,0,0,2,0,2,0,,,,,,,,,,,,,,,,,,,,,,,,,,,,,,,,,,,,,,,,,,,,,,,,1214.7687503100024,,,181,F,star,0.0015541239990852773,1211.1238699409878,1212.6325431909936,1212.6325431909936,1212.6325431909936,1,0,f,0.6135916789935436,0,1213.266638058005,,,,,,,,,,,,,,,,,,,,,,,,,,,,,,,,,,,,,,,,,,,,,,,,,,69703,2022-11-17_11h26.37.381,vts_reward_expectancy_bt_OFFLINE,2022.2.4,59.9339406878256,
,,,,,,,,,,,,,,,,,,0,0,0,0,3,0,3,0,,,,,,,,,,,,,,,,,,,,,,,,,,,,,,,,,,,,,,,,,,,,,,,,1219.4399792409968,,,174,Y,circle,0.0013223040150478482,1215.746848358016,1217.2544291059894,1217.2544291059894,1217.2544291059894,1,0,f,0.6515144289878663,0,1217.9387427490146,,,,,,,,,,,,,,,,,,,,,,,,,,,,,,,,,,,,,,,,,,,,,,,,,,69703,2022-11-17_11h26.37.381,vts_reward_expectancy_bt_OFFLINE,2022.2.4,59.9339406878256,
,,,,,,,,,,,,,,,,,,0,0,0,0,4,0,4,0,,,,,,,,,,,,,,,,,,,,,,,,,,,,,,,,,,,,,,,,,,,,,,,,1224.7794637049956,,,160,W,star,0.0017016420024447143,1220.419115016004,1221.926347755012,1221.926347755012,1221.926347755012,1,0,f,1.320793393009808,0,1223.2777210299973,,,,,,,,,,,,,,,,,,,,,,,,,,,,,,,,,,,,,,,,,,,,,,,,,,69703,2022-11-17_11h26.37.381,vts_reward_expectancy_bt_OFFLINE,2022.2.4,59.9339406878256,
,,,,,,,,,,,,,,,,,,0,0,0,0,5,0,5,0,,,,,,,,,,,,,,,,,,,,,,,,,,,,,,,,,,,,,,,,,,,,,,,,1229.4510913529957,,,125,H,hexagon,0.0016906149976421148,1225.7576061100117,1227.2654888459947,1227.2654888459947,1227.2654888459947,1,0,d,0.6519183719938155,0,1227.9496307840163,,,,,,,,,,,,,,,,,,,,,,,,,,,,,,,,,,,,,,,,,,,,,,,,,,69703,2022-11-17_11h26.37.381,vts_reward_expectancy_bt_OFFLINE,2022.2.4,59.9339406878256,
,,,,,,,,,,,,,,,,,,0,0,0,0,6,0,6,0,,,,,,,,,,,,,,,,,,,,,,,,,,,,,,,,,,,,,,,,,,,,,,,,1234.2567745689885,,,146,U,triangle,0.0012483950122259557,1230.4306417999906,1231.9371981300064,1231.9371981300064,1231.9371981300064,1,0,d,0.7852305019914638,0,1232.7548165920016,,,,,,,,,,,,,,,,,,,,,,,,,,,,,,,,,,,,,,,,,,,,,,,,,,69703,2022-11-17_11h26.37.381,vts_reward_expectancy_bt_OFFLINE,2022.2.4,59.9339406878256,
,,,,,,,,,,,,,,,,,,0,0,0,0,7,0,7,0,,,,,,,,,,,,,,,,,,,,,,,,,,,,,,,,,,,,,,,,,,,,,,,,1238.9784452689928,,,139,S,circle,0.0013047640095464885,1235.2340348199941,1236.742502264009,1236.742502264009,1236.742502264009,1,0,d,0.7153852810151875,0,1237.4769314590085,,,,,,,,,,,,,,,,,,,,,,,,,,,,,,,,,,,,,,,,,,,,,,,,,,69703,2022-11-17_11h26.37.381,vts_reward_expectancy_bt_OFFLINE,2022.2.4,59.9339406878256,
,,,,,,,,,,,,,,,,,,0,0,0,0,8,0,8,0,,,,,,,,,,,,,,,,,,,,,,,,,,,,,,,,,,,,,,,,,,,,,,,,1243.5165663940134,,,167,D,hexagon,0.0008696890145074576,1239.9546378270024,1241.4644655539887,1241.4644655539887,1241.4644655539887,1,0,f,0.5273851279926021,0,1242.0149819460057,,,,,,,,,,,,,,,,,,,,,,,,,,,,,,,,,,,,,,,,,,,,,,,,,,69703,2022-11-17_11h26.37.381,vts_reward_expectancy_bt_OFFLINE,2022.2.4,59.9339406878256,
,,,,,,,,,,,,,,,,,,0,0,0,0,9,0,9,0,,,,,,,,,,,,,,,,,,,,,,,,,,,,,,,,,,,,,,,,,,,,,,,,1248.0718175520014,,,132,B,star,0.0012520819727797061,1244.4929508350033,1246.0030288929993,1246.0030288929993,1246.0030288929993,1,0,d,0.5350956280017272,0,1246.570073771989,,,,,,,,,,,,,,,,,,,,,,,,,,,,,,,,,,,,,,,,,,,,,,,,,,69703,2022-11-17_11h26.37.381,vts_reward_expectancy_bt_OFFLINE,2022.2.4,59.9339406878256,
,,,,,,,,,,,,,,,,,,,,,,,,,,0,0,0,0,0,0,0,0,,,,,,,,,,,,,,,,,,,,,,,,,,,,,,,,,,,,,,,,1277.2206736849912,,,174,S,hexagon,0.0022131020086817443,,,,,1,0,,,1,1275.718827920995,1272.6430639740138,1274.150501635013,1274.150501635013,1274.150501635013,k,1.536838917993009,,,,,,,,,,,,,,,,,,,,,,,,,,,,,,,,,,,,,,,,,,,,69703,2022-11-17_11h26.37.381,vts_reward_expectancy_bt_OFFLINE,2022.2.4,59.9339406878256,
,,,,,,,,,,,,,,,,,,,,,,,,,,0,0,0,0,1,0,1,0,,,,,,,,,,,,,,,,,,,,,,,,,,,,,,,,,,,,,,,,1281.9089470219915,,,167,U,star,0.001380692992825061,,,,,1,0,,,1,1280.4074776899943,1278.198900516989,1279.7067692290002,1279.7067692290002,1279.7067692290002,k,0.6814493910060264,,,,,,,,,,,,,,,,,,,,,,,,,,,,,,,,,,,,,,,,,,,,69703,2022-11-17_11h26.37.381,vts_reward_expectancy_bt_OFFLINE,2022.2.4,59.9339406878256,
,,,,,,,,,,,,,,,,,,,,,,,,,,0,0,0,0,2,0,2,0,,,,,,,,,,,,,,,,,,,,,,,,,,,,,,,,,,,,,,,,1286.6310629849904,,,160,W,triangle,0.0007833040144760162,,,,,1,0,,,1,1285.1292600409943,1282.8865139689879,1284.395183740009,1284.395183740009,1284.395183740009,k,0.707061053981306,,,,,,,,,,,,,,,,,,,,,,,,,,,,,,,,,,,,,,,,,,,,69703,2022-11-17_11h26.37.381,vts_reward_expectancy_bt_OFFLINE,2022.2.4,59.9339406878256,
,,,,,,,,,,,,,,,,,,,,,,,,,,0,0,0,0,3,0,3,0,,,,,,,,,,,,,,,,,,,,,,,,,,,,,,,,,,,,,,,,1291.4195728120103,,,181,F,circle,0.0015405649901367724,,,,,1,0,,,1,1289.917888757016,1287.6090220609913,1289.1169999279955,1289.1169999279955,1289.1169999279955,j,0.768272970977705,,,,,,,,,,,,,,,,,,,,,,,,,,,,,,,,,,,,,,,,,,,,69703,2022-11-17_11h26.37.381,vts_reward_expectancy_bt_OFFLINE,2022.2.4,59.9339406878256,
,,,,,,,,,,,,,,,,,,,,,,,,,,0,0,0,0,4,0,4,0,,,,,,,,,,,,,,,,,,,,,,,,,,,,,,,,,,,,,,,,1296.291524411994,,,139,H,hexagon,0.0015192990249488503,,,,,1,0,,,1,1294.7898213070002,1292.3973449550103,1293.905620391015,1293.905620391015,1293.905620391015,j,0.8518748870119452,,,,,,,,,,,,,,,,,,,,,,,,,,,,,,,,,,,,,,,,,,,,69703,2022-11-17_11h26.37.381,vts_reward_expectancy_bt_OFFLINE,2022.2.4,59.9339406878256,
,,,,,,,,,,,,,,,,,,,,,,,,,,0,0,0,0,5,0,5,0,,,,,,,,,,,,,,,,,,,,,,,,,,,,,,,,,,,,,,,,1300.9801402710145,,,132,D,circle,0.0018952550017274916,,,,,1,0,,,1,1299.4783946459938,1297.2698730080156,1298.7774698070134,1298.7774698070134,1298.7774698070134,j,0.6796612449979875,,,,,,,,,,,,,,,,,,,,,,,,,,,,,,,,,,,,,,,,,,,,69703,2022-11-17_11h26.37.381,vts_reward_expectancy_bt_OFFLINE,2022.2.4,59.9339406878256,
,,,,,,,,,,,,,,,,,,,,,,,,,,0,0,0,0,6,0,6,0,,,,,,,,,,,,,,,,,,,,,,,,,,,,,,,,,,,,,,,,1305.501761580992,,,146,B,star,0.001669819001108408,,,,,1,0,,,1,1304.0001334330009,1301.9578669719922,1303.4662028879975,1303.4662028879975,1303.4662028879975,j,0.5147163110086694,,,,,,,,,,,,,,,,,,,,,,,,,,,,,,,,,,,,,,,,,,,,69703,2022-11-17_11h26.37.381,vts_reward_expectancy_bt_OFFLINE,2022.2.4,59.9339406878256,
,,,,,,,,,,,,,,,,,,,,,,,,,,0,0,0,0,7,0,7,0,,,,,,,,,,,,,,,,,,,,,,,,,,,,,,,,,,,,,,,,1310.0900810320163,,,125,Y,triangle,0.0010619800013955683,,,,,1,0,,,1,1308.5886031299888,1306.480599308008,1307.9877180840122,1307.9877180840122,1307.9877180840122,k,0.5731816750194412,,,,,,,,,,,,,,,,,,,,,,,,,,,,,,,,,,,,,,,,,,,,69703,2022-11-17_11h26.37.381,vts_reward_expectancy_bt_OFFLINE,2022.2.4,59.9339406878256,
,,,,,,,,,,,,,,,,,,,,,,,,,,0,0,0,0,8,0,8,0,,,,,,,,,,,,,,,,,,,,,,,,,,,,,,,,,,,,,,,,1314.9119344339997,,,174,S,hexagon,0.001702592009678483,,,,,1,0,,,1,1313.4105040559953,1311.0685939030081,1312.5760690899915,1312.5760690899915,1312.5760690899915,k,0.809571218007477,,,,,,,,,,,,,,,,,,,,,,,,,,,,,,,,,,,,,,,,,,,,69703,2022-11-17_11h26.37.381,vts_reward_expectancy_bt_OFFLINE,2022.2.4,59.9339406878256,
,,,,,,,,,,,,,,,,,,,,,,,,,,0,0,0,0,9,0,9,0,,,,,,,,,,,,,,,,,,,,,,,,,,,,,,,,,,,,,,,,1319.6839657800156,,,167,U,circle,0.0017493369814474136,,,,,1,0,,,1,1318.1821844330116,1315.8893101589929,1317.3980152120057,1317.3980152120057,1317.3980152120057,k,0.7581277120043524,,,,,,,,,,,,,,,,,,,,,,,,,,,,,,,,,,,,,,,,,,,,69703,2022-11-17_11h26.37.381,vts_reward_expectancy_bt_OFFLINE,2022.2.4,59.9339406878256,
,,,,,,,,,,,,,,,,,,,,,,,,,,,,,,,,,,0,0,0,0,0,0,0,0,,,,,,,,,,,,,,,,,,,,,,,,,,,,0,891,,,1376.5299254799902,,,132,Y,circle,0.002255561004858464,,,,,1,0,,,2,,,,,,,,1371.5061272029998,1371.5061272029998,1371.5061272029998,1371.5061272029998,1373.0094487460156,1373.0094487460156,1373.0094487460156,1373.0094487460156,1373.0094487460156,1373.0094487460156,1373.0094487460156,1373.0094487460156,-1,number,NA,d,1.993951833981555,vtsPrac,1375.0284219289897,,,,,,,,,,,,,,,,,,,,,,,,,69703,2022-11-17_11h26.37.381,vts_reward_expectancy_bt_OFFLINE,2022.2.4,59.9339406878256,
,,,,,,,,,,,,,,,,,,,,,,,,,,,,,,,,,,0,0,0,0,1,0,1,0,,,,,,,,,,,,,,,,,,,,,,,,,,,,0,891,,,1381.2521496459958,,,174,D,hexagon,0.0016443930217064917,,,,,0,0,,,2,,,,,,,,1377.5096530620067,1377.5096530620067,1377.5096530620067,1377.5096530620067,1379.0160036860034,1379.0160036860034,1379.0160036860034,1379.0160036860034,1379.0160036860034,1379.0160036860034,1379.0160036860034,1379.0160036860034,repeat,number,NA,d,0.7126558820018545,vtsPrac,1379.7502103089937,,,,,,,,,,,,,,,,,,,,,,,,,69703,2022-11-17_11h26.37.381,vts_reward_expectancy_bt_OFFLINE,2022.2.4,59.9339406878256,
,,,,,,,,,,,,,,,,,,,,,,,,,,,,,,,,,,0,0,0,0,2,0,2,0,,,,,,,,,,,,,,,,,,,,,,,,,,,,0,891,,,1386.1907179900154,,,181,H,triangle,0.001881492993561551,,,,,1,1,,,2,,,,,,,,1382.231896326004,1382.231896326004,1382.231896326004,1382.231896326004,1383.738184463,1383.738184463,1383.738184463,1383.738184463,1383.738184463,1383.738184463,1383.738184463,1383.738184463,repeat,number,numRpt,f,0.9185904269979801,vtsPrac,1384.6891330099897,,,,,,,,,,,,,,,,,,,,,,,,,69703,2022-11-17_11h26.37.381,vts_reward_expectancy_bt_OFFLINE,2022.2.4,59.9339406878256,
,,,,,,,,,,,,,,,,,,,,,,,,,,,,,,,,,,0,0,0,0,3,0,3,0,,,,,,,,,,,,,,,,,,,,,,,,,,,,0,891,,,1391.1298512910143,,,125,B,star,0.0016438320162706077,,,,,1,0,,,2,,,,,,,,1387.1690804440004,1387.1690804440004,1387.1690804440004,1387.1690804440004,1388.6766777209996,1388.6766777209996,1388.6766777209996,1388.6766777209996,1388.6766777209996,1388.6766777209996,1388.6766777209996,1388.6766777209996,switch,letter,lettSwt,j,0.9187795559992082,vtsPrac,1389.6278138599882,,,,,,,,,,,,,,,,,,,,,,,,,69703,2022-11-17_11h26.37.381,vts_reward_expectancy_bt_OFFLINE,2022.2.4,59.9339406878256,
,,,,,,,,,,,,,,,,,,,,,,,,,,,,,,,,,,0,0,0,0,4,0,4,0,,,,,,,,,,,,,,,,,,,,,,,,,,,,0,891,,,1395.7682421139907,,,132,Y,triangle,0.0016220539982896298,,,,,1,0,,,2,,,,,,,,1392.107532249007,1392.107532249007,1392.107532249007,1392.107532249007,1393.615702598996,1393.615702598996,1393.615702598996,1393.615702598996,1393.615702598996,1393.615702598996,1393.615702598996,1393.615702598996,switch,number,numSwt,d,0.6265948739892337,vtsPrac,1394.2662342140102,,,,,,,,,,,,,,,,,,,,,,,,,69703,2022-11-17_11h26.37.381,vts_reward_expectancy_bt_OFFLINE,2022.2.4,59.9339406878256,
,,,,,,,,,,,,,,,,,,,,,,,,,,,,,,,,,,0,0,0,0,5,0,5,0,,,,,,,,,,,,,,,,,,,,,,,,,,,,0,891,,,1400.573262165999,,,174,D,circle,0.0015617879980709404,,,,,1,0,,,2,,,,,,,,1396.7458399469906,1396.7458399469906,1396.7458399469906,1396.7458399469906,1398.254403386003,1398.254403386003,1398.254403386003,1398.254403386003,1398.254403386003,1398.254403386003,1398.254403386003,1398.254403386003,switch,letter,lettSwt,j,0.7915945679997094,vtsPrac,1399.0714994049922,,,,,,,,,,,,,,,,,,,,,,,,,69703,2022-11-17_11h26.37.381,vts_reward_expectancy_bt_OFFLINE,2022.2.4,59.9339406878256,
,,,,,,,,,,,,,,,,,,,,,,,,,,,,,,,,,,0,0,0,0,6,0,6,0,,,,,,,,,,,,,,,,,,,,,,,,,,,,0,891,,,1405.6286801070091,,,181,H,hexagon,0.0016563280078116804,,,,,1,0,,,2,,,,,,,,1401.552253403992,1401.552253403992,1401.552253403992,1401.552253403992,1403.0593371390132,1403.0593371390132,1403.0593371390132,1403.0593371390132,1403.0593371390132,1403.0593371390132,1403.0593371390132,1403.0593371390132,switch,number,numSwt,f,1.0493710349837784,vtsPrac,1404.127186933998,1405.6286801070091,,,,,,,,,,,,,,,,,,,,,,,,69703,2022-11-17_11h26.37.381,vts_reward_expectancy_bt_OFFLINE,2022.2.4,59.9339406878256,
,,,,,,,,,,,,,,,,,,,,,,,,,,,,,,,,,,0,0,0,0,7,0,7,0,,,,,,,,,,,,,,,,,,,,,,,,,,,,0,891,,,1410.6343638010148,,,125,B,triangle,0.001091696001822129,,,,,1,0,,,2,,,,,,,,1406.6076719610137,1406.6076719610137,1406.6076719610137,1406.6076719610137,1408.1148631120159,1408.1148631120159,1408.1148631120159,1408.1148631120159,1408.1148631120159,1408.1148631120159,1408.1148631120159,1408.1148631120159,switch,letter,lettSwt,j,0.990153434977401,vtsPrac,1409.1327494180005,,,,,,,,,,,,,,,,,,,,,,,,,69703,2022-11-17_11h26.37.381,vts_reward_expectancy_bt_OFFLINE,2022.2.4,59.9339406878256,
,,,,,,,,,,,,,,,,,,,,,,,,,,,,,,,,,,0,0,0,0,8,0,8,0,,,,,,,,,,,,,,,,,,,,,,,,,,,,0,891,,,1415.4563441869977,,,139,Y,hexagon,0.0017718009767122567,,,,,1,0,,,2,,,,,,,,1411.6140196759952,1411.6140196759952,1411.6140196759952,1411.6140196759952,1413.1205255480018,1413.1205255480018,1413.1205255480018,1413.1205255480018,1413.1205255480018,1413.1205255480018,1413.1205255480018,1413.1205255480018,switch,number,numSwt,d,0.8098586229898501,vtsPrac,1413.954683213,,,,,,,,,,,,,,,,,,,,,,,,,69703,2022-11-17_11h26.37.381,vts_reward_expectancy_bt_OFFLINE,2022.2.4,59.9339406878256,
,,,,,,,,,,,,,,,,,,,,,,,,,,,,,,,,,,0,0,0,0,9,0,9,0,,,,,,,,,,,,,,,,,,,,,,,,,,,,0,891,,,1420.1113649680046,,,132,U,circle,0.0015331839967984706,,,,,1,0,,,2,,,,,,,,1416.436071469012,1416.436071469012,1416.436071469012,1416.436071469012,1417.9422308969952,1417.9422308969952,1417.9422308969952,1417.9422308969952,1417.9422308969952,1417.9422308969952,1417.9422308969952,1417.9422308969952,repeat,number,numRpt,d,0.6357004420133308,vtsPrac,1418.6097084770154,,,,,,,,,,,,,,,,,,,,,,,,,69703,2022-11-17_11h26.37.381,vts_reward_expectancy_bt_OFFLINE,2022.2.4,59.9339406878256,
,,,,,,,,,,,,,,,,,,,,,,,,,,,,,,,,,,0,0,0,0,10,0,10,0,,,,,,,,,,,,,,,,,,,,,,,,,,,,0,891,,,1424.7832342949987,,,146,D,triangle,0.0014937100058887154,,,,,1,0,,,2,,,,,,,,1421.0909759270144,1421.0909759270144,1421.0909759270144,1421.0909759270144,1422.5975284260057,1422.5975284260057,1422.5975284260057,1422.5975284260057,1422.5975284260057,1422.5975284260057,1422.5975284260057,1422.5975284260057,switch,letter,lettSwt,j,0.6590653579914942,vtsPrac,1423.281663722999,,,,,,,,,,,,,,,,,,,,,,,,,69703,2022-11-17_11h26.37.381,vts_reward_expectancy_bt_OFFLINE,2022.2.4,59.9339406878256,
,,,,,,,,,,,,,,,,,,,,,,,,,,,,,,,,,,0,0,0,0,11,0,11,0,,,,,,,,,,,,,,,,,,,,,,,,,,,,0,891,,,1429.4383043700072,,,167,B,star,0.0015911080117803067,,,,,1,0,,,2,,,,,,,,1425.7613422560098,1425.7613422560098,1425.7613422560098,1425.7613422560098,1427.2693533030106,1427.2693533030106,1427.2693533030106,1427.2693533030106,1427.2693533030106,1427.2693533030106,1427.2693533030106,1427.2693533030106,repeat,letter,lettRpt,j,0.6351660059881397,vtsPrac,1427.9366212000023,,,,,,,,,,,,,,,,,,,,,,,,,69703,2022-11-17_11h26.37.381,vts_reward_expectancy_bt_OFFLINE,2022.2.4,59.9339406878256,
,,,,,,,,,,,,,,,,,,,,,,,,,,,,,,,,,,0,0,0,0,12,0,12,0,,,,,,,,,,,,,,,,,,,,,,,,,,,,0,891,,,1434.5444047180063,,,139,F,triangle,0.0029135319928172976,,,,,1,0,,,2,,,,,,,,1430.4195093610033,1430.4195093610033,1430.4195093610033,1430.4195093610033,1431.9246027939953,1431.9246027939953,1431.9246027939953,1431.9246027939953,1431.9246027939953,1431.9246027939953,1431.9246027939953,1431.9246027939953,switch,number,numSwt,d,1.085739845992066,vtsPrac,1433.0423813119996,,,,,,,,,,,,,,,,,,,,,,,,,69703,2022-11-17_11h26.37.381,vts_reward_expectancy_bt_OFFLINE,2022.2.4,59.9339406878256,
,,,,,,,,,,,,,,,,,,,,,,,,,,,,,,,,,,0,0,0,0,13,0,13,0,,,,,,,,,,,,,,,,,,,,,,,,,,,,0,891,,,1439.4661703979946,,,125,Y,star,0.001805795996915549,,,,,1,0,,,2,,,,,,,,1435.5227039890015,1435.5227039890015,1435.5227039890015,1435.5227039890015,1437.030030355003,1437.030030355003,1437.030030355003,1437.030030355003,1437.030030355003,1437.030030355003,1437.030030355003,1437.030030355003,repeat,number,numRpt,d,0.9090652459999546,vtsPrac,1437.9644977709977,,,,,,,,,,,,,,,,,,,,,,,,,69703,2022-11-17_11h26.37.381,vts_reward_expectancy_bt_OFFLINE,2022.2.4,59.9339406878256,
,,,,,,,,,,,,,,,,,,,,,,,,,,,,,,,,,,0,0,0,0,14,0,14,0,,,,,,,,,,,,,,,,,,,,,,,,,,,,0,891,,,1444.3547328769928,,,181,D,circle,0.0015210419951472431,,,,,1,0,,,2,,,,,,,,1440.4451001049893,1440.4451001049893,1440.4451001049893,1440.4451001049893,1441.9521818539943,1441.9521818539943,1441.9521818539943,1441.9521818539943,1441.9521818539943,1441.9521818539943,1441.9521818539943,1441.9521818539943,switch,letter,lettSwt,j,0.8688333169848192,vtsPrac,1442.8531634620158,,,,,,,,,,,,,,,,,,,,,,,,,69703,2022-11-17_11h26.37.381,vts_reward_expectancy_bt_OFFLINE,2022.2.4,59.9339406878256,
,,,,,,,,,,,,,,,,,,,,,,,,,,,,,,,,,,0,0,0,0,15,0,15,0,,,,,,,,,,,,,,,,,,,,,,,,,,,,0,891,,,1449.2102440540039,,,167,U,hexagon,0.001666234020376578,,,,,1,0,,,2,,,,,,,,1445.3325817490113,1445.3325817490113,1445.3325817490113,1445.3325817490113,1446.8408808250097,1446.8408808250097,1446.8408808250097,1446.8408808250097,1446.8408808250097,1446.8408808250097,1446.8408808250097,1446.8408808250097,repeat,letter,lettRpt,k,0.8395451460091863,vtsPrac,1447.7084933829901,,,,,,,,,,,,,,,,,,,,,,,,,69703,2022-11-17_11h26.37.381,vts_reward_expectancy_bt_OFFLINE,2022.2.4,59.9339406878256,
,,,,,,,,,,,,,,,,,,,,,,,,,,,,,,,,,,0,0,0,0,16,0,16,0,,,,,,,,,,,,,,,,,,,,,,,,,,,,0,891,,,1453.9153698009904,,,125,W,star,0.0015946720086503774,,,,,1,0,,,2,,,,,,,,1450.1893728460127,1450.1893728460127,1450.1893728460127,1450.1893728460127,1451.69636352401,1451.69636352401,1451.69636352401,1451.69636352401,1451.69636352401,1451.69636352401,1451.69636352401,1451.69636352401,repeat,letter,lettRpt,k,0.6863213430042379,vtsPrac,1452.4136588149995,,,,,,,,,,,,,,,,,,,,,,,,,69703,2022-11-17_11h26.37.381,vts_reward_expectancy_bt_OFFLINE,2022.2.4,59.9339406878256,
,,,,,,,,,,,,,,,,,,,,,,,,,,,,,,,,,,0,0,0,0,17,0,17,0,,,,,,,,,,,,,,,,,,,,,,,,,,,,0,891,,,1458.6372655850137,,,174,S,triangle,0.0013639809913001955,,,,,1,0,,,2,,,,,,,,1454.893630622013,1454.893630622013,1454.893630622013,1454.893630622013,1456.4016787290166,1456.4016787290166,1456.4016787290166,1456.4016787290166,1456.4016787290166,1456.4016787290166,1456.4016787290166,1456.4016787290166,switch,number,numSwt,f,0.706469847005792,vtsPrac,1457.1358090479916,,,,,,,,,,,,,,,,,,,,,,,,,69703,2022-11-17_11h26.37.381,vts_reward_expectancy_bt_OFFLINE,2022.2.4,59.9339406878256,
,,,,,,,,,,,,,,,,,,,,,,,,,,,,,,,,,,0,0,0,0,18,0,18,0,,,,,,,,,,,,,,,,,,,,,,,,,,,,0,891,,,1463.3757141400129,,,181,B,hexagon,0.0017038790101651102,,,,,1,0,,,2,,,,,,,,1459.6155198010092,1459.6155198010092,1459.6155198010092,1459.6155198010092,1461.123409929016,1461.123409929016,1461.123409929016,1461.123409929016,1461.123409929016,1461.123409929016,1461.123409929016,1461.123409929016,switch,letter,lettSwt,j,0.7347238690126687,vtsPrac,1461.8741249440063,1463.3757141400129,,,,,,,,,,,,,,,,,,,,,,,,69703,2022-11-17_11h26.37.381,vts_reward_expectancy_bt_OFFLINE,2022.2.4,59.9339406878256,
,,,,,,,,,,,,,,,,,,,,,,,,,,,,,,,,,,0,0,0,0,19,0,19,0,,,,,,,,,,,,,,,,,,,,,,,,,,,,0,891,,,1468.1479066350148,,,167,D,star,0.0006653699965681881,,,,,1,0,,,2,,,,,,,,1464.3542683589912,1464.3542683589912,1464.3542683589912,1464.3542683589912,1465.8619904410152,1465.8619904410152,1465.8619904410152,1465.8619904410152,1465.8619904410152,1465.8619904410152,1465.8619904410152,1465.8619904410152,switch,number,numSwt,f,0.7648255919921212,vtsPrac,1466.6461674179882,,,,,,,,,,,,,,,,,,,,,,,,,69703,2022-11-17_11h26.37.381,vts_reward_expectancy_bt_OFFLINE,2022.2.4,59.9339406878256,
,,,,,,,,,,,,,,,,,,,,,,,,,,,,,,,,,,0,0,0,0,20,0,20,0,,,,,,,,,,,,,,,,,,,,,,,,,,,,0,891,,,1473.0031302979914,,,174,W,hexagon,0.0012731119932141155,,,,,1,0,,,2,,,,,,,,1469.1256806839956,1469.1256806839956,1469.1256806839956,1469.1256806839956,1470.6338313109882,1470.6338313109882,1470.6338313109882,1470.6338313109882,1470.6338313109882,1470.6338313109882,1470.6338313109882,1470.6338313109882,repeat,number,numRpt,f,0.8413802579743788,vtsPrac,1471.501738980005,,,,,,,,,,,,,,,,,,,,,,,,,69703,2022-11-17_11h26.37.381,vts_reward_expectancy_bt_OFFLINE,2022.2.4,59.9339406878256,
,,,,,,,,,,,,,,,,,,,,,,,,,,,,,,,,,,0,0,0,0,21,0,21,0,,,,,,,,,,,,,,,,,,,,,,,,,,,,0,891,,,1477.8250038129918,,,132,U,star,0.0015143690106924623,,,,,1,0,,,2,,,,,,,,1473.9812430359889,1473.9812430359889,1473.9812430359889,1473.9812430359889,1475.4892990679946,1475.4892990679946,1475.4892990679946,1475.4892990679946,1475.4892990679946,1475.4892990679946,1475.4892990679946,1475.4892990679946,repeat,number,numRpt,d,0.8019143379933666,vtsPrac,1476.323379739013,,,,,,,,,,,,,,,,,,,,,,,,,69703,2022-11-17_11h26.37.381,vts_reward_expectancy_bt_OFFLINE,2022.2.4,59.9339406878256,
,,,,,,,,,,,,,,,,,,,,,,,,,,,,,,,,,,0,0,0,0,22,0,22,0,,,,,,,,,,,,,,,,,,,,,,,,,,,,0,891,,,1482.680378190009,,,160,Y,triangle,0.0015328629815485328,,,,,1,0,,,2,,,,,,,,1478.8045378070092,1478.8045378070092,1478.8045378070092,1478.8045378070092,1480.3113079800096,1480.3113079800096,1480.3113079800096,1480.3113079800096,1480.3113079800096,1480.3113079800096,1480.3113079800096,1480.3113079800096,repeat,number,numRpt,f,0.8403340880176984,vtsPrac,1481.1788933470089,,,,,,,,,,,,,,,,,,,,,,,,,69703,2022-11-17_11h26.37.381,vts_reward_expectancy_bt_OFFLINE,2022.2.4,59.9339406878256,
,,,,,,,,,,,,,,,,,,,,,,,,,,,,,,,,,,0,0,0,0,23,0,23,0,,,,,,,,,,,,,,,,,,,,,,,,,,,,0,891,,,1487.4524853320036,,,139,S,circle,0.0014056239742785692,,,,,1,0,,,2,,,,,,,,1483.6575301550038,1483.6575301550038,1483.6575301550038,1483.6575301550038,1485.1668228569906,1485.1668228569906,1485.1668228569906,1485.1668228569906,1485.1668228569906,1485.1668228569906,1485.1668228569906,1485.1668228569906,switch,letter,lettSwt,k,0.7654132439929526,vtsPrac,1485.9507002019964,1487.4524853320036,,,,,,,,,,,,,,,,,,,,,,,,69703,2022-11-17_11h26.37.381,vts_reward_expectancy_bt_OFFLINE,2022.2.4,59.9339406878256,
,,,,,,,,,,,,,,,,,,,,,,,,,,,,,,,,,,0,0,0,0,24,0,24,0,,,,,,,,,,,,,,,,,,,,,,,,,,,,0,891,,,1492.3911375300086,,,160,Y,hexagon,0.0010067810071632266,,,,,1,0,,,2,,,,,,,,1488.4296038270113,1488.4296038270113,1488.4296038270113,1488.4296038270113,1489.9383977309917,1489.9383977309917,1489.9383977309917,1489.9383977309917,1489.9383977309917,1489.9383977309917,1489.9383977309917,1489.9383977309917,switch,number,numSwt,f,0.9215708010015078,vtsPrac,1490.8896954070078,,,,,,,,,,,,,,,,,,,,,,,,,69703,2022-11-17_11h26.37.381,vts_reward_expectancy_bt_OFFLINE,2022.2.4,59.9339406878256,
,,,,,,,,,,,,,,,,,,,,,,,,,,,,,,,,,,0,0,0,0,25,0,25,0,,,,,,,,,,,,,,,,,,,,,,,,,,,,0,891,,,1497.0796518590068,,,146,W,triangle,0.0020564379810821265,,,,,1,0,,,2,,,,,,,,1493.3694360539957,1493.3694360539957,1493.3694360539957,1493.3694360539957,1494.8771434079972,1494.8771434079972,1494.8771434079972,1494.8771434079972,1494.8771434079972,1494.8771434079972,1494.8771434079972,1494.8771434079972,repeat,number,numRpt,d,0.6733863049885258,vtsPrac,1495.5779863829957,,,,,,,,,,,,,,,,,,,,,,,,,69703,2022-11-17_11h26.37.381,vts_reward_expectancy_bt_OFFLINE,2022.2.4,59.9339406878256,
,,,,,,,,,,,,,,,,,,,,,,,,,,,,,,,,,,0,0,0,0,26,0,26,0,,,,,,,,,,,,,,,,,,,,,,,,,,,,0,891,,,1501.8681678590074,,,167,U,star,0.0014231399982236326,,,,,1,0,,,2,,,,,,,,1498.0578053329955,1498.0578053329955,1498.0578053329955,1498.0578053329955,1499.5656237310031,1499.5656237310031,1499.5656237310031,1499.5656237310031,1499.5656237310031,1499.5656237310031,1499.5656237310031,1499.5656237310031,switch,letter,lettSwt,k,0.7779747899912763,vtsPrac,1500.3664696349879,,,,,,,,,,,,,,,,,,,,,,,,,69703,2022-11-17_11h26.37.381,vts_reward_expectancy_bt_OFFLINE,2022.2.4,59.9339406878256,
,,,,,,,,,,,,,,,,,,,,,,,,,,,,,,,,,,0,0,0,0,27,0,27,0,,,,,,,,,,,,,,,,,,,,,,,,,,,,0,891,,,1506.623505835014,,,125,S,hexagon,0.0015523600159212947,,,,,1,0,,,2,,,,,,,,1502.8458869780006,1502.8458869780006,1502.8458869780006,1502.8458869780006,1504.3542547179968,1504.3542547179968,1504.3542547179968,1504.3542547179968,1504.3542547179968,1504.3542547179968,1504.3542547179968,1504.3542547179968,switch,number,numSwt,d,0.7373299750033766,vtsPrac,1505.121721397998,,,,,,,,,,,,,,,,,,,,,,,,,69703,2022-11-17_11h26.37.381,vts_reward_expectancy_bt_OFFLINE,2022.2.4,59.9339406878256,
,,,,,,,,,,,,,,,,,,,,,,,,,,,,,,,,,,0,0,0,0,28,0,28,0,,,,,,,,,,,,,,,,,,,,,,,,,,,,0,891,,,1511.2119467360026,,,167,F,triangle,0.001636184984818101,,,,,1,0,,,2,,,,,,,,1507.6024376979913,1507.6024376979913,1507.6024376979913,1507.6024376979913,1509.1096721540089,1509.1096721540089,1509.1096721540089,1509.1096721540089,1509.1096721540089,1509.1096721540089,1509.1096721540089,1509.1096721540089,repeat,number,numRpt,f,0.5724641220003832,vtsPrac,1509.7103690229997,,,,,,,,,,,,,,,,,,,,,,,,,69703,2022-11-17_11h26.37.381,vts_reward_expectancy_bt_OFFLINE,2022.2.4,59.9339406878256,
,,,,,,,,,,,,,,,,,,,,,,,,,,,,,,,,,,0,0,0,0,29,0,29,0,,,,,,,,,,,,,,,,,,,,,,,,,,,,0,891,,,1516.0507598370023,,1516.551136850001,174,W,star,0.001541099976748228,,,,,1,0,,,2,,,,,,,,1512.1898535749933,1512.1898535749933,1512.1898535749933,1512.1898535749933,1513.6981189319922,1513.6981189319922,1513.6981189319922,1513.6981189319922,1513.6981189319922,1513.6981189319922,1513.6981189319922,1513.6981189319922,switch,letter,lettSwt,k,0.8324029369978234,vtsPrac,1514.5488778779982,1516.0507598370023,,,,,,,,,,,,,,,,,,,,,,,,69703,2022-11-17_11h26.37.381,vts_reward_expectancy_bt_OFFLINE,2022.2.4,59.9339406878256,
,,,,,,,,,,,,,,,,,,,,,,,,,,,,,,,,,,0,0,0,0,30,0,30,0,,,,,,,,,,,,,,,,,,,,,,,,,,,,0,891,,,1520.9227490299963,,,146,H,circle,0.000566308997804299,,,,,1,0,,,2,,,,,,,,1517.0295646869927,1517.0295646869927,1517.0295646869927,1517.0295646869927,1518.5366535680078,1518.5366535680078,1518.5366535680078,1518.5366535680078,1518.5366535680078,1518.5366535680078,1518.5366535680078,1518.5366535680078,switch,number,numSwt,d,0.8545267040026374,vtsPrac,1519.4211963739945,,,,,,,,,,,,,,,,,,,,,,,,,69703,2022-11-17_11h26.37.381,vts_reward_expectancy_bt_OFFLINE,2022.2.4,59.9339406878256,
,,,,,,,,,,,,,,,,,,,,,,,,,,,,,,,,,,0,0,0,0,31,0,31,0,,,,,,,,,,,,,,,,,,,,,,,,,,,,0,891,,,1526.5288551239937,,,181,D,star,0.0016604569973424077,,,,,1,0,,,2,,,,,,,,1521.8995819879929,1521.8995819879929,1521.8995819879929,1521.8995819879929,1523.4087242629903,1523.4087242629903,1523.4087242629903,1523.4087242629903,1523.4087242629903,1523.4087242629903,1523.4087242629903,1523.4087242629903,repeat,number,numRpt,f,1.5858346580062062,vtsPrac,1525.0271454610047,,,,,,,,,,,,,,,,,,,,,,,,,69703,2022-11-17_11h26.37.381,vts_reward_expectancy_bt_OFFLINE,2022.2.4,59.9339406878256,
