LTriangleOpac,LCircleOpac,LHexagonOpac,LStarOpac,RTriangleOpac,RCircleOpac,RHexagonOpac,RStarOpac,LShape_ID,RShape_ID,training_blocks.thisRepN,training_blocks.thisTrialN,training_blocks.thisN,training_blocks.thisIndex,training.thisRepN,training.thisTrialN,training.thisN,training.thisIndex,task1_prac_redo.thisRepN,task1_prac_redo.thisTrialN,task1_prac_redo.thisN,task1_prac_redo.thisIndex,task1_prac_trials.thisRepN,task1_prac_trials.thisTrialN,task1_prac_trials.thisN,task1_prac_trials.thisIndex,task2_prac_redo.thisRepN,task2_prac_redo.thisTrialN,task2_prac_redo.thisN,task2_prac_redo.thisIndex,task2_praac_trials.thisRepN,task2_praac_trials.thisTrialN,task2_praac_trials.thisN,task2_praac_trials.thisIndex,vts_prac_redo.thisRepN,vts_prac_redo.thisTrialN,vts_prac_redo.thisN,vts_prac_redo.thisIndex,vts_practice_trials.thisRepN,vts_practice_trials.thisTrialN,vts_practice_trials.thisN,vts_practice_trials.thisIndex,trials_norew.thisRepN,trials_norew.thisTrialN,trials_norew.thisN,trials_norew.thisIndex,block.thisRepN,block.thisTrialN,block.thisN,block.thisIndex,trials_rew.thisRepN,trials_rew.thisTrialN,trials_rew.thisN,trials_rew.thisIndex,key_resp.started,key_resp.keys,key_resp.rt,left_circle.started,right_circle.started,left_triangle.started,right_triangle.started,left_star.started,right_star.started,left_hexagon.started,right_hexagon.started,training_fix.started,training_resp.started,training_resp.keys,training_resp.rt,points_trial,points_cumul,trainBlock,training_feedback_txt.started,training_feedback_txt.stopped,fix.started,fix.stopped,curr_topStim,curr_bottStim,curr_shape,ISI.started,tgt_fix_prac1.started,top_target_prac1.started,bott_target_prac1.started,target_resp_prac1.started,acc,E1,target_resp_prac1.keys,target_resp_prac1.rt,pracBlock,prac_fback_text.started,prac_fback_text.stopped,tgt_fix_prac2.started,top_target_prac2.started,bott_target_prac2.started,target_resp_prac2.started,target_resp_prac2.keys,target_resp_prac2.rt,star.started,hegagon.started,triangle.started,circle.started,top_target.started,tgt_fix.started,bot_target.started,target_resp.started,star.stopped,hegagon.stopped,triangle.stopped,circle.stopped,alt,task,condition,target_resp.keys,target_resp.rt,rewCond,vts_fback.started,vts_fback.stopped,blockNum,norew_fback.started,norew_fback.stopped,top_target.stopped,tgt_fix.stopped,bot_target.stopped,target_resp.stopped,key_resp_2.keys,key_resp_2.rt,rewExpectancy,feedbk_text.started,feedbk_text.stopped,text_3.started,debrief.started,text_3.stopped,button.started,debrief.index,debrief.itemText,debrief.type,debrief.granularity,debrief.font,debrief.markerColor,debrief.response,debrief.rt,button.numClicks,button.timesOn,button.timesOff,participant,date,expName,psychopyVersion,frameRate,
,,,,,,,,,,,,,,,,,,,,,,,,,,,,,,,,,,,,,,,,,,,,,,,,,,,,,,635.6739215818234,space,46.08739718911238,,,,,,,,,,,,,,,,,,,,,,,,,,,,,,,,,,,,,,,,,,,,,,,,,,,,,,,,,,,,,,,,,,,,,,,,,,,,,,,,,,,,,,,,72481,2022-11-10_11h16.40.857,vts_reward_expectancy_bt_OFFLINE,2022.2.4,60.217507348821094,
0,1,0,0,0,0,1,0,circle,hexagon,0,0,0,0,0,0,0,4,,,,,,,,,,,,,,,,,,,,,,,,,,,,,,,,,,,,,,,,723.5868549130391,723.5868549130391,723.5868549130391,723.5868549130391,723.5868549130391,723.5868549130391,723.5868549130391,723.5868549130391,723.5868549130391,723.5868549130391,l,2.4452514110598713,10,10,0,726.0562082380056,727.5575152628589,727.5575152628589,,,,,,,,,,,,,,,,,,,,,,,,,,,,,,,,,,,,,,,,,,,,,,,,,,,,,,,,,,,,,,,,,,,,,,72481,2022-11-10_11h16.40.857,vts_reward_expectancy_bt_OFFLINE,2022.2.4,60.217507348821094,
0,0,1,0,0,1,0,0,hexagon,circle,0,0,0,0,0,1,1,7,,,,,,,,,,,,,,,,,,,,,,,,,,,,,,,,,,,,,,,,728.0580726298504,728.0580726298504,728.0580726298504,728.0580726298504,728.0580726298504,728.0580726298504,728.0580726298504,728.0580726298504,728.0580726298504,728.0580726298504,l,2.8231777250766754,10,20,0,730.9112173100002,,732.4128532810137,,,,,,,,,,,,,,,,,,,,,,,,,,,,,,,,,,,,,,,,,,,,,,,,,,,,,,,,,,,,,,,,,,,,,,72481,2022-11-10_11h16.40.857,vts_reward_expectancy_bt_OFFLINE,2022.2.4,60.217507348821094,
0,0,0,1,0,1,0,0,star ,circle,0,0,0,0,0,2,2,10,,,,,,,,,,,,,,,,,,,,,,,,,,,,,,,,,,,,,,,,732.9133802619763,732.9133802619763,732.9133802619763,732.9133802619763,732.9133802619763,732.9133802619763,732.9133802619763,732.9133802619763,732.9133802619763,732.9133802619763,a,2.343915428267792,10,30,0,735.2826804409269,,736.7843287808355,,,,,,,,,,,,,,,,,,,,,,,,,,,,,,,,,,,,,,,,,,,,,,,,,,,,,,,,,,,,,,,,,,,,,,72481,2022-11-10_11h16.40.857,vts_reward_expectancy_bt_OFFLINE,2022.2.4,60.217507348821094,
0,1,0,0,0,0,0,1,circle,star,0,0,0,0,0,3,3,5,,,,,,,,,,,,,,,,,,,,,,,,,,,,,,,,,,,,,,,,737.2850837178994,737.2850837178994,737.2850837178994,737.2850837178994,737.2850837178994,737.2850837178994,737.2850837178994,737.2850837178994,737.2850837178994,737.2850837178994,a,0.7519685011357069,10,40,0,738.0692734299228,739.5708367100451,739.5708367100451,,,,,,,,,,,,,,,,,,,,,,,,,,,,,,,,,,,,,,,,,,,,,,,,,,,,,,,,,,,,,,,,,,,,,,72481,2022-11-10_11h16.40.857,vts_reward_expectancy_bt_OFFLINE,2022.2.4,60.217507348821094,
1,0,0,0,0,0,0,1,triangle,star,0,0,0,0,0,4,4,2,,,,,,,,,,,,,,,,,,,,,,,,,,,,,,,,,,,,,,,,740.0714489829261,740.0714489829261,740.0714489829261,740.0714489829261,740.0714489829261,740.0714489829261,740.0714489829261,740.0714489829261,740.0714489829261,740.0714489829261,a,0.9588783229701221,1,41,0,741.0557172319386,,742.5574842109345,,,,,,,,,,,,,,,,,,,,,,,,,,,,,,,,,,,,,,,,,,,,,,,,,,,,,,,,,,,,,,,,,,,,,,72481,2022-11-10_11h16.40.857,vts_reward_expectancy_bt_OFFLINE,2022.2.4,60.217507348821094,
0,0,0,1,1,0,0,0,star,triangle,0,0,0,0,0,5,5,9,,,,,,,,,,,,,,,,,,,,,,,,,,,,,,,,,,,,,,,,743.0581960449927,743.0581960449927,743.0581960449927,743.0581960449927,743.0581960449927,743.0581960449927,743.0581960449927,743.0581960449927,743.0581960449927,743.0581960449927,a,1.8094113799743354,10,51,0,744.8934794268571,,746.3951579658315,,,,,,,,,,,,,,,,,,,,,,,,,,,,,,,,,,,,,,,,,,,,,,,,,,,,,,,,,,,,,,,,,,,,,,72481,2022-11-10_11h16.40.857,vts_reward_expectancy_bt_OFFLINE,2022.2.4,60.217507348821094,
0,0,0,1,0,0,1,0,star,hexagon,0,0,0,0,0,6,6,11,,,,,,,,,,,,,,,,,,,,,,,,,,,,,,,,,,,,,,,,746.8957432650495,746.8957432650495,746.8957432650495,746.8957432650495,746.8957432650495,746.8957432650495,746.8957432650495,746.8957432650495,746.8957432650495,746.8957432650495,l,2.313005382195115,1,52,0,749.2316093018744,,750.7332640148234,,,,,,,,,,,,,,,,,,,,,,,,,,,,,,,,,,,,,,,,,,,,,,,,,,,,,,,,,,,,,,,,,,,,,,72481,2022-11-10_11h16.40.857,vts_reward_expectancy_bt_OFFLINE,2022.2.4,60.217507348821094,
1,0,0,0,0,0,1,0,triangle,hexagon,0,0,0,0,0,7,7,1,,,,,,,,,,,,,,,,,,,,,,,,,,,,,,,,,,,,,,,,751.2338273818605,751.2338273818605,751.2338273818605,751.2338273818605,751.2338273818605,751.2338273818605,751.2338273818605,751.2338273818605,751.2338273818605,751.2338273818605,l,1.0926723012235016,1,53,0,752.3518054948654,,753.8532588749658,,,,,,,,,,,,,,,,,,,,,,,,,,,,,,,,,,,,,,,,,,,,,,,,,,,,,,,,,,,,,,,,,,,,,,72481,2022-11-10_11h16.40.857,vts_reward_expectancy_bt_OFFLINE,2022.2.4,60.217507348821094,
0,0,1,0,0,0,0,1,hexagon,star,0,0,0,0,0,8,8,8,,,,,,,,,,,,,,,,,,,,,,,,,,,,,,,,,,,,,,,,754.3540209298953,754.3540209298953,754.3540209298953,754.3540209298953,754.3540209298953,754.3540209298953,754.3540209298953,754.3540209298953,754.3540209298953,754.3540209298953,l,4.172276907134801,10,63,0,758.5585274950135,,760.0601404448971,,,,,,,,,,,,,,,,,,,,,,,,,,,,,,,,,,,,,,,,,,,,,,,,,,,,,,,,,,,,,,,,,,,,,,72481,2022-11-10_11h16.40.857,vts_reward_expectancy_bt_OFFLINE,2022.2.4,60.217507348821094,
0,1,0,0,1,0,0,0,circle,triangle,0,0,0,0,0,9,9,3,,,,,,,,,,,,,,,,,,,,,,,,,,,,,,,,,,,,,,,,760.5608643209562,760.5608643209562,760.5608643209562,760.5608643209562,760.5608643209562,760.5608643209562,760.5608643209562,760.5608643209562,760.5608643209562,760.5608643209562,l,1.5305678301956505,1,64,0,762.1123025149573,,763.6142001019325,,,,,,,,,,,,,,,,,,,,,,,,,,,,,,,,,,,,,,,,,,,,,,,,,,,,,,,,,,,,,,,,,,,,,,72481,2022-11-10_11h16.40.857,vts_reward_expectancy_bt_OFFLINE,2022.2.4,60.217507348821094,
0,0,1,0,1,0,0,0,hexagon,triangle,0,0,0,0,0,10,10,6,,,,,,,,,,,,,,,,,,,,,,,,,,,,,,,,,,,,,,,,764.1144548829179,764.1144548829179,764.1144548829179,764.1144548829179,764.1144548829179,764.1144548829179,764.1144548829179,764.1144548829179,764.1144548829179,764.1144548829179,a,4.851300660055131,10,74,0,768.9864815198816,,770.4882831450086,,,,,,,,,,,,,,,,,,,,,,,,,,,,,,,,,,,,,,,,,,,,,,,,,,,,,,,,,,,,,,,,,,,,,,72481,2022-11-10_11h16.40.857,vts_reward_expectancy_bt_OFFLINE,2022.2.4,60.217507348821094,
1,0,0,0,0,1,0,0,triangle,circle,0,0,0,0,0,11,11,0,,,,,,,,,,,,,,,,,,,,,,,,,,,,,,,,,,,,,,,,770.9888797169551,770.9888797169551,770.9888797169551,770.9888797169551,770.9888797169551,770.9888797169551,770.9888797169551,770.9888797169551,770.9888797169551,770.9888797169551,l,2.016319575253874,10,84,0,773.0246025209781,,774.5262000048533,,,,,,,,,,,,,,,,,,,,,,,,,,,,,,,,,,,,,,,,,,,,,,,,,,,,,,,,,,,,,,,,,,,,,,72481,2022-11-10_11h16.40.857,vts_reward_expectancy_bt_OFFLINE,2022.2.4,60.217507348821094,
0,1,0,0,0,0,0,1,circle,star,0,0,0,0,1,0,12,5,,,,,,,,,,,,,,,,,,,,,,,,,,,,,,,,,,,,,,,,775.0267429109663,775.0267429109663,775.0267429109663,775.0267429109663,775.0267429109663,775.0267429109663,775.0267429109663,775.0267429109663,775.0267429109663,775.0267429109663,l,1.0264442320913076,10,94,0,776.0777737549506,,777.5794607009739,,,,,,,,,,,,,,,,,,,,,,,,,,,,,,,,,,,,,,,,,,,,,,,,,,,,,,,,,,,,,,,,,,,,,,72481,2022-11-10_11h16.40.857,vts_reward_expectancy_bt_OFFLINE,2022.2.4,60.217507348821094,
1,0,0,0,0,0,0,1,triangle,star,0,0,0,0,1,1,13,2,,,,,,,,,,,,,,,,,,,,,,,,,,,,,,,,,,,,,,,,778.0802516399417,778.0802516399417,778.0802516399417,778.0802516399417,778.0802516399417,778.0802516399417,778.0802516399417,778.0802516399417,778.0802516399417,778.0802516399417,l,1.235549934208393,1,95,0,779.3480219878256,,780.8497580718249,,,,,,,,,,,,,,,,,,,,,,,,,,,,,,,,,,,,,,,,,,,,,,,,,,,,,,,,,,,,,,,,,,,,,,72481,2022-11-10_11h16.40.857,vts_reward_expectancy_bt_OFFLINE,2022.2.4,60.217507348821094,
1,0,0,0,0,0,1,0,triangle,hexagon,0,0,0,0,1,2,14,1,,,,,,,,,,,,,,,,,,,,,,,,,,,,,,,,,,,,,,,,781.350371772889,781.350371772889,781.350371772889,781.350371772889,781.350371772889,781.350371772889,781.350371772889,781.350371772889,781.350371772889,781.350371772889,a,3.5796579991001636,1,96,0,784.9543122600298,,786.4558745180257,,,,,,,,,,,,,,,,,,,,,,,,,,,,,,,,,,,,,,,,,,,,,,,,,,,,,,,,,,,,,,,,,,,,,,72481,2022-11-10_11h16.40.857,vts_reward_expectancy_bt_OFFLINE,2022.2.4,60.217507348821094,
1,0,0,0,0,1,0,0,triangle,circle,0,0,0,0,1,3,15,0,,,,,,,,,,,,,,,,,,,,,,,,,,,,,,,,,,,,,,,,786.9564674808644,786.9564674808644,786.9564674808644,786.9564674808644,786.9564674808644,786.9564674808644,786.9564674808644,786.9564674808644,786.9564674808644,786.9564674808644,l,1.7995378950145096,10,106,0,788.7749613400083,,790.2768647009507,,,,,,,,,,,,,,,,,,,,,,,,,,,,,,,,,,,,,,,,,,,,,,,,,,,,,,,,,,,,,,,,,,,,,,72481,2022-11-10_11h16.40.857,vts_reward_expectancy_bt_OFFLINE,2022.2.4,60.217507348821094,
0,1,0,0,1,0,0,0,circle,triangle,0,0,0,0,1,4,16,3,,,,,,,,,,,,,,,,,,,,,,,,,,,,,,,,,,,,,,,,790.7772762849927,790.7772762849927,790.7772762849927,790.7772762849927,790.7772762849927,790.7772762849927,790.7772762849927,790.7772762849927,790.7772762849927,790.7772762849927,a,2.86186712118797,10,116,0,793.6639364550356,,795.1654208209366,,,,,,,,,,,,,,,,,,,,,,,,,,,,,,,,,,,,,,,,,,,,,,,,,,,,,,,,,,,,,,,,,,,,,,72481,2022-11-10_11h16.40.857,vts_reward_expectancy_bt_OFFLINE,2022.2.4,60.217507348821094,
0,0,0,1,0,1,0,0,star ,circle,0,0,0,0,1,5,17,10,,,,,,,,,,,,,,,,,,,,,,,,,,,,,,,,,,,,,,,,795.6661802530289,795.6661802530289,795.6661802530289,795.6661802530289,795.6661802530289,795.6661802530289,795.6661802530289,795.6661802530289,795.6661802530289,795.6661802530289,a,1.1555151562206447,10,126,0,796.8507109659258,,798.3523244759999,,,,,,,,,,,,,,,,,,,,,,,,,,,,,,,,,,,,,,,,,,,,,,,,,,,,,,,,,,,,,,,,,,,,,,72481,2022-11-10_11h16.40.857,vts_reward_expectancy_bt_OFFLINE,2022.2.4,60.217507348821094,
0,1,0,0,0,0,1,0,circle,hexagon,0,0,0,0,1,6,18,4,,,,,,,,,,,,,,,,,,,,,,,,,,,,,,,,,,,,,,,,798.852835516911,798.852835516911,798.852835516911,798.852835516911,798.852835516911,798.852835516911,798.852835516911,798.852835516911,798.852835516911,798.852835516911,l,1.6029912801459432,1,127,0,800.4880748479627,,801.9896088149399,,,,,,,,,,,,,,,,,,,,,,,,,,,,,,,,,,,,,,,,,,,,,,,,,,,,,,,,,,,,,,,,,,,,,,72481,2022-11-10_11h16.40.857,vts_reward_expectancy_bt_OFFLINE,2022.2.4,60.217507348821094,
0,0,1,0,0,0,0,1,hexagon,star,0,0,0,0,1,7,19,8,,,,,,,,,,,,,,,,,,,,,,,,,,,,,,,,,,,,,,,,802.4901878410019,802.4901878410019,802.4901878410019,802.4901878410019,802.4901878410019,802.4901878410019,802.4901878410019,802.4901878410019,802.4901878410019,802.4901878410019,l,1.7931398779619485,10,137,0,804.308804241009,,805.8106302360538,,,,,,,,,,,,,,,,,,,,,,,,,,,,,,,,,,,,,,,,,,,,,,,,,,,,,,,,,,,,,,,,,,,,,,72481,2022-11-10_11h16.40.857,vts_reward_expectancy_bt_OFFLINE,2022.2.4,60.217507348821094,
0,0,0,1,0,0,1,0,star,hexagon,0,0,0,0,1,8,20,11,,,,,,,,,,,,,,,,,,,,,,,,,,,,,,,,,,,,,,,,806.3110512748826,806.3110512748826,806.3110512748826,806.3110512748826,806.3110512748826,806.3110512748826,806.3110512748826,806.3110512748826,806.3110512748826,806.3110512748826,a,1.0527032192330807,10,147,0,807.395680680871,,808.8974672430195,,,,,,,,,,,,,,,,,,,,,,,,,,,,,,,,,,,,,,,,,,,,,,,,,,,,,,,,,,,,,,,,,,,,,,72481,2022-11-10_11h16.40.857,vts_reward_expectancy_bt_OFFLINE,2022.2.4,60.217507348821094,
0,0,1,0,1,0,0,0,hexagon,triangle,0,0,0,0,1,9,21,6,,,,,,,,,,,,,,,,,,,,,,,,,,,,,,,,,,,,,,,,809.398027892923,809.398027892923,809.398027892923,809.398027892923,809.398027892923,809.398027892923,809.398027892923,809.398027892923,809.398027892923,809.398027892923,a,2.41051286412403,1,148,0,811.8337604580447,,813.3355036820285,,,,,,,,,,,,,,,,,,,,,,,,,,,,,,,,,,,,,,,,,,,,,,,,,,,,,,,,,,,,,,,,,,,,,,72481,2022-11-10_11h16.40.857,vts_reward_expectancy_bt_OFFLINE,2022.2.4,60.217507348821094,
0,0,0,1,1,0,0,0,star,triangle,0,0,0,0,1,10,22,9,,,,,,,,,,,,,,,,,,,,,,,,,,,,,,,,,,,,,,,,813.8362198260147,813.8362198260147,813.8362198260147,813.8362198260147,813.8362198260147,813.8362198260147,813.8362198260147,813.8362198260147,813.8362198260147,813.8362198260147,a,1.966773675987497,10,158,0,815.8217133099679,,817.3232636149041,,,,,,,,,,,,,,,,,,,,,,,,,,,,,,,,,,,,,,,,,,,,,,,,,,,,,,,,,,,,,,,,,,,,,,72481,2022-11-10_11h16.40.857,vts_reward_expectancy_bt_OFFLINE,2022.2.4,60.217507348821094,
0,0,1,0,0,1,0,0,hexagon,circle,0,0,0,0,1,11,23,7,,,,,,,,,,,,,,,,,,,,,,,,,,,,,,,,,,,,,,,,817.8239406750072,817.8239406750072,817.8239406750072,817.8239406750072,817.8239406750072,817.8239406750072,817.8239406750072,817.8239406750072,817.8239406750072,817.8239406750072,l,2.421970359282568,10,168,0,820.2763251508586,821.7781020498369,821.7781020498369,,,,,,,,,,,,,,,,,,,,,,,,,,,,,,,,,,,,,,,,,,,,,,,,,,,,,,,,,,,,,,,,,,,,,,72481,2022-11-10_11h16.40.857,vts_reward_expectancy_bt_OFFLINE,2022.2.4,60.217507348821094,
0,1,0,0,1,0,0,0,circle,triangle,0,0,0,0,2,0,24,3,,,,,,,,,,,,,,,,,,,,,,,,,,,,,,,,,,,,,,,,822.2788999918848,822.2788999918848,822.2788999918848,822.2788999918848,822.2788999918848,822.2788999918848,822.2788999918848,822.2788999918848,822.2788999918848,822.2788999918848,a,1.6023786191362888,10,178,0,823.9139383798465,,825.4154962978791,,,,,,,,,,,,,,,,,,,,,,,,,,,,,,,,,,,,,,,,,,,,,,,,,,,,,,,,,,,,,,,,,,,,,,72481,2022-11-10_11h16.40.857,vts_reward_expectancy_bt_OFFLINE,2022.2.4,60.217507348821094,
0,1,0,0,0,0,0,1,circle,star,0,0,0,0,2,1,25,5,,,,,,,,,,,,,,,,,,,,,,,,,,,,,,,,,,,,,,,,825.9162927409634,825.9162927409634,825.9162927409634,825.9162927409634,825.9162927409634,825.9162927409634,825.9162927409634,825.9162927409634,825.9162927409634,825.9162927409634,l,1.552843684097752,10,188,0,827.5013911579736,,829.0028437699657,,,,,,,,,,,,,,,,,,,,,,,,,,,,,,,,,,,,,,,,,,,,,,,,,,,,,,,,,,,,,,,,,,,,,,72481,2022-11-10_11h16.40.857,vts_reward_expectancy_bt_OFFLINE,2022.2.4,60.217507348821094,
0,1,0,0,0,0,1,0,circle,hexagon,0,0,0,0,2,2,26,4,,,,,,,,,,,,,,,,,,,,,,,,,,,,,,,,,,,,,,,,829.5035749329254,829.5035749329254,829.5035749329254,829.5035749329254,829.5035749329254,829.5035749329254,829.5035749329254,829.5035749329254,829.5035749329254,829.5035749329254,a,1.6688749361783266,10,198,0,831.1884985079523,832.69031807594,832.69031807594,833.1906015579589,,,,,,,,,,,,,,,,,,,,,,,,,,,,,,,,,,,,,,,,,,,,,,,,,,,,,,,,,,,,,,,,,,,,,72481,2022-11-10_11h16.40.857,vts_reward_expectancy_bt_OFFLINE,2022.2.4,60.217507348821094,
1,0,0,0,0,1,0,0,triangle,circle,0,0,0,0,2,3,27,0,,,,,,,,,,,,,,,,,,,,,,,,,,,,,,,,,,,,,,,,833.1906015579589,833.1906015579589,833.1906015579589,833.1906015579589,833.1906015579589,833.1906015579589,833.1906015579589,833.1906015579589,833.1906015579589,833.1906015579589,l,1.0857270592823625,10,208,0,834.3085290219169,,835.8102608129848,,,,,,,,,,,,,,,,,,,,,,,,,,,,,,,,,,,,,,,,,,,,,,,,,,,,,,,,,,,,,,,,,,,,,,72481,2022-11-10_11h16.40.857,vts_reward_expectancy_bt_OFFLINE,2022.2.4,60.217507348821094,
1,0,0,0,0,0,1,0,triangle,hexagon,0,0,0,0,2,4,28,1,,,,,,,,,,,,,,,,,,,,,,,,,,,,,,,,,,,,,,,,836.3109681799542,836.3109681799542,836.3109681799542,836.3109681799542,836.3109681799542,836.3109681799542,836.3109681799542,836.3109681799542,836.3109681799542,836.3109681799542,l,2.9043366950936615,1,209,0,839.2475318708457,,840.7492658130359,,,,,,,,,,,,,,,,,,,,,,,,,,,,,,,,,,,,,,,,,,,,,,,,,,,,,,,,,,,,,,,,,,,,,,72481,2022-11-10_11h16.40.857,vts_reward_expectancy_bt_OFFLINE,2022.2.4,60.217507348821094,
0,0,1,0,1,0,0,0,hexagon,triangle,0,0,0,0,2,5,29,6,,,,,,,,,,,,,,,,,,,,,,,,,,,,,,,,,,,,,,,,841.2499244799837,841.2499244799837,841.2499244799837,841.2499244799837,841.2499244799837,841.2499244799837,841.2499244799837,841.2499244799837,841.2499244799837,841.2499244799837,a,3.154271724168211,1,210,0,844.4366765348241,,845.938264506869,,,,,,,,,,,,,,,,,,,,,,,,,,,,,,,,,,,,,,,,,,,,,,,,,,,,,,,,,,,,,,,,,,,,,,72481,2022-11-10_11h16.40.857,vts_reward_expectancy_bt_OFFLINE,2022.2.4,60.217507348821094,
0,0,0,1,0,0,1,0,star,hexagon,0,0,0,0,2,6,30,11,,,,,,,,,,,,,,,,,,,,,,,,,,,,,,,,,,,,,,,,846.4386002018582,846.4386002018582,846.4386002018582,846.4386002018582,846.4386002018582,846.4386002018582,846.4386002018582,846.4386002018582,846.4386002018582,846.4386002018582,a,2.194314927328378,10,220,0,848.6577535928227,,850.1595054969657,,,,,,,,,,,,,,,,,,,,,,,,,,,,,,,,,,,,,,,,,,,,,,,,,,,,,,,,,,,,,,,,,,,,,,72481,2022-11-10_11h16.40.857,vts_reward_expectancy_bt_OFFLINE,2022.2.4,60.217507348821094,
0,0,1,0,0,0,0,1,hexagon,star,0,0,0,0,2,7,31,8,,,,,,,,,,,,,,,,,,,,,,,,,,,,,,,,,,,,,,,,850.6602469419595,850.6602469419595,850.6602469419595,850.6602469419595,850.6602469419595,850.6602469419595,850.6602469419595,850.6602469419595,850.6602469419595,850.6602469419595,l,1.0682324301451445,1,221,0,851.761350082932,,853.262900677044,,,,,,,,,,,,,,,,,,,,,,,,,,,,,,,,,,,,,,,,,,,,,,,,,,,,,,,,,,,,,,,,,,,,,,72481,2022-11-10_11h16.40.857,vts_reward_expectancy_bt_OFFLINE,2022.2.4,60.217507348821094,
0,0,0,1,1,0,0,0,star,triangle,0,0,0,0,2,8,32,9,,,,,,,,,,,,,,,,,,,,,,,,,,,,,,,,,,,,,,,,853.7636692880187,853.7636692880187,853.7636692880187,853.7636692880187,853.7636692880187,853.7636692880187,853.7636692880187,853.7636692880187,853.7636692880187,853.7636692880187,a,2.810922230128199,1,222,0,856.5999363479204,858.101597441826,858.101597441826,,,,,,,,,,,,,,,,,,,,,,,,,,,,,,,,,,,,,,,,,,,,,,,,,,,,,,,,,,,,,,,,,,,,,,72481,2022-11-10_11h16.40.857,vts_reward_expectancy_bt_OFFLINE,2022.2.4,60.217507348821094,
0,0,0,1,0,1,0,0,star ,circle,0,0,0,0,2,9,33,10,,,,,,,,,,,,,,,,,,,,,,,,,,,,,,,,,,,,,,,,858.60220518196,858.60220518196,858.60220518196,858.60220518196,858.60220518196,858.60220518196,858.60220518196,858.60220518196,858.60220518196,858.60220518196,a,1.5396611341275275,1,223,0,860.1704978570342,,861.672098153038,,,,,,,,,,,,,,,,,,,,,,,,,,,,,,,,,,,,,,,,,,,,,,,,,,,,,,,,,,,,,,,,,,,,,,72481,2022-11-10_11h16.40.857,vts_reward_expectancy_bt_OFFLINE,2022.2.4,60.217507348821094,
0,0,1,0,0,1,0,0,hexagon,circle,0,0,0,0,2,10,34,7,,,,,,,,,,,,,,,,,,,,,,,,,,,,,,,,,,,,,,,,862.1728005618788,862.1728005618788,862.1728005618788,862.1728005618788,862.1728005618788,862.1728005618788,862.1728005618788,862.1728005618788,862.1728005618788,862.1728005618788,l,2.941279468126595,1,224,0,865.1427623019554,,866.644406687934,,,,,,,,,,,,,,,,,,,,,,,,,,,,,,,,,,,,,,,,,,,,,,,,,,,,,,,,,,,,,,,,,,,,,,72481,2022-11-10_11h16.40.857,vts_reward_expectancy_bt_OFFLINE,2022.2.4,60.217507348821094,
1,0,0,0,0,0,0,1,triangle,star,0,0,0,0,2,11,35,2,,,,,,,,,,,,,,,,,,,,,,,,,,,,,,,,,,,,,,,,867.144913385855,867.144913385855,867.144913385855,867.144913385855,867.144913385855,867.144913385855,867.144913385855,867.144913385855,867.144913385855,867.144913385855,l,2.4262091871351004,10,234,0,869.5975338509306,,871.0993823008612,,,,,,,,,,,,,,,,,,,,,,,,,,,,,,,,,,,,,,,,,,,,,,,,,,,,,,,,,,,,,,,,,,,,,,72481,2022-11-10_11h16.40.857,vts_reward_expectancy_bt_OFFLINE,2022.2.4,60.217507348821094,
0,0,1,0,0,0,0,1,hexagon,star,0,0,0,0,3,0,36,8,,,,,,,,,,,,,,,,,,,,,,,,,,,,,,,,,,,,,,,,871.6000055768527,871.6000055768527,871.6000055768527,871.6000055768527,871.6000055768527,871.6000055768527,871.6000055768527,871.6000055768527,871.6000055768527,871.6000055768527,l,1.3562804721295834,10,244,0,872.9848532660399,,874.4862676349003,,,,,,,,,,,,,,,,,,,,,,,,,,,,,,,,,,,,,,,,,,,,,,,,,,,,,,,,,,,,,,,,,,,,,,72481,2022-11-10_11h16.40.857,vts_reward_expectancy_bt_OFFLINE,2022.2.4,60.217507348821094,
0,1,0,0,0,0,1,0,circle,hexagon,0,0,0,0,3,1,37,4,,,,,,,,,,,,,,,,,,,,,,,,,,,,,,,,,,,,,,,,874.9869082260411,874.9869082260411,874.9869082260411,874.9869082260411,874.9869082260411,874.9869082260411,874.9869082260411,874.9869082260411,874.9869082260411,874.9869082260411,l,1.8193828212097287,10,254,0,876.8390138298273,,878.3405218429398,,,,,,,,,,,,,,,,,,,,,,,,,,,,,,,,,,,,,,,,,,,,,,,,,,,,,,,,,,,,,,,,,,,,,,72481,2022-11-10_11h16.40.857,vts_reward_expectancy_bt_OFFLINE,2022.2.4,60.217507348821094,
0,1,0,0,0,0,0,1,circle,star,0,0,0,0,3,2,38,5,,,,,,,,,,,,,,,,,,,,,,,,,,,,,,,,,,,,,,,,878.8410356179811,878.8410356179811,878.8410356179811,878.8410356179811,878.8410356179811,878.8410356179811,878.8410356179811,878.8410356179811,878.8410356179811,878.8410356179811,a,1.2264471561647952,1,255,0,880.0925106799696,881.5941696618684,881.5941696618684,,,,,,,,,,,,,,,,,,,,,,,,,,,,,,,,,,,,,,,,,,,,,,,,,,,,,,,,,,,,,,,,,,,,,,72481,2022-11-10_11h16.40.857,vts_reward_expectancy_bt_OFFLINE,2022.2.4,60.217507348821094,
1,0,0,0,0,0,1,0,triangle,hexagon,0,0,0,0,3,3,39,1,,,,,,,,,,,,,,,,,,,,,,,,,,,,,,,,,,,,,,,,882.094818651909,882.094818651909,882.094818651909,882.094818651909,882.094818651909,882.094818651909,882.094818651909,882.094818651909,882.094818651909,882.094818651909,l,0.8982232201378793,1,256,0,883.0126138830092,,884.5141423379537,,,,,,,,,,,,,,,,,,,,,,,,,,,,,,,,,,,,,,,,,,,,,,,,,,,,,,,,,,,,,,,,,,,,,,72481,2022-11-10_11h16.40.857,vts_reward_expectancy_bt_OFFLINE,2022.2.4,60.217507348821094,
1,0,0,0,0,1,0,0,triangle,circle,0,0,0,0,3,4,40,0,,,,,,,,,,,,,,,,,,,,,,,,,,,,,,,,,,,,,,,,885.0146323679946,885.0146323679946,885.0146323679946,885.0146323679946,885.0146323679946,885.0146323679946,885.0146323679946,885.0146323679946,885.0146323679946,885.0146323679946,a,1.2192791781853884,1,257,0,886.2661653920077,887.7676041929517,887.7676041929517,,,,,,,,,,,,,,,,,,,,,,,,,,,,,,,,,,,,,,,,,,,,,,,,,,,,,,,,,,,,,,,,,,,,,,72481,2022-11-10_11h16.40.857,vts_reward_expectancy_bt_OFFLINE,2022.2.4,60.217507348821094,
0,0,1,0,1,0,0,0,hexagon,triangle,0,0,0,0,3,5,41,6,,,,,,,,,,,,,,,,,,,,,,,,,,,,,,,,,,,,,,,,888.2681276670191,888.2681276670191,888.2681276670191,888.2681276670191,888.2681276670191,888.2681276670191,888.2681276670191,888.2681276670191,888.2681276670191,888.2681276670191,a,1.2171690580435097,1,258,0,889.5031739519909,,891.0045685069636,,,,,,,,,,,,,,,,,,,,,,,,,,,,,,,,,,,,,,,,,,,,,,,,,,,,,,,,,,,,,,,,,,,,,,72481,2022-11-10_11h16.40.857,vts_reward_expectancy_bt_OFFLINE,2022.2.4,60.217507348821094,
1,0,0,0,0,0,0,1,triangle,star,0,0,0,0,3,6,42,2,,,,,,,,,,,,,,,,,,,,,,,,,,,,,,,,,,,,,,,,891.5051502678543,891.5051502678543,891.5051502678543,891.5051502678543,891.5051502678543,891.5051502678543,891.5051502678543,891.5051502678543,891.5051502678543,891.5051502678543,l,1.0515275420621037,10,268,0,892.5730728129856,894.0745267178863,894.0745267178863,,,,,,,,,,,,,,,,,,,,,,,,,,,,,,,,,,,,,,,,,,,,,,,,,,,,,,,,,,,,,,,,,,,,,,72481,2022-11-10_11h16.40.857,vts_reward_expectancy_bt_OFFLINE,2022.2.4,60.217507348821094,
0,0,1,0,0,1,0,0,hexagon,circle,0,0,0,0,3,7,43,7,,,,,,,,,,,,,,,,,,,,,,,,,,,,,,,,,,,,,,,,894.5752691319212,894.5752691319212,894.5752691319212,894.5752691319212,894.5752691319212,894.5752691319212,894.5752691319212,894.5752691319212,894.5752691319212,894.5752691319212,a,1.9969749122392386,10,278,0,896.5941804749891,,898.0958668459207,,,,,,,,,,,,,,,,,,,,,,,,,,,,,,,,,,,,,,,,,,,,,,,,,,,,,,,,,,,,,,,,,,,,,,72481,2022-11-10_11h16.40.857,vts_reward_expectancy_bt_OFFLINE,2022.2.4,60.217507348821094,
0,0,0,1,0,1,0,0,star ,circle,0,0,0,0,3,8,44,10,,,,,,,,,,,,,,,,,,,,,,,,,,,,,,,,,,,,,,,,898.5962939518504,898.5962939518504,898.5962939518504,898.5962939518504,898.5962939518504,898.5962939518504,898.5962939518504,898.5962939518504,898.5962939518504,898.5962939518504,l,1.4859075462445617,10,288,0,900.1146354048979,901.6162372929975,901.6162372929975,,,,,,,,,,,,,,,,,,,,,,,,,,,,,,,,,,,,,,,,,,,,,,,,,,,,,,,,,,,,,,,,,,,,,,72481,2022-11-10_11h16.40.857,vts_reward_expectancy_bt_OFFLINE,2022.2.4,60.217507348821094,
0,0,0,1,1,0,0,0,star,triangle,0,0,0,0,3,9,45,9,,,,,,,,,,,,,,,,,,,,,,,,,,,,,,,,,,,,,,,,902.1167560028844,902.1167560028844,902.1167560028844,902.1167560028844,902.1167560028844,902.1167560028844,902.1167560028844,902.1167560028844,902.1167560028844,902.1167560028844,a,0.9355179441627115,10,298,0,903.0846855458803,,904.5863194898702,,,,,,,,,,,,,,,,,,,,,,,,,,,,,,,,,,,,,,,,,,,,,,,,,,,,,,,,,,,,,,,,,,,,,,72481,2022-11-10_11h16.40.857,vts_reward_expectancy_bt_OFFLINE,2022.2.4,60.217507348821094,
0,0,0,1,0,0,1,0,star,hexagon,0,0,0,0,3,10,46,11,,,,,,,,,,,,,,,,,,,,,,,,,,,,,,,,,,,,,,,,905.0866718010511,905.0866718010511,905.0866718010511,905.0866718010511,905.0866718010511,905.0866718010511,905.0866718010511,905.0866718010511,905.0866718010511,905.0866718010511,a,1.5671504901256412,10,308,0,906.6717296058778,,908.173457833007,,,,,,,,,,,,,,,,,,,,,,,,,,,,,,,,,,,,,,,,,,,,,,,,,,,,,,,,,,,,,,,,,,,,,,72481,2022-11-10_11h16.40.857,vts_reward_expectancy_bt_OFFLINE,2022.2.4,60.217507348821094,
0,1,0,0,1,0,0,0,circle,triangle,0,0,0,0,3,11,47,3,,,,,,,,,,,,,,,,,,,,,,,,,,,,,,,,,,,,,,,,908.6738632959314,908.6738632959314,908.6738632959314,908.6738632959314,908.6738632959314,908.6738632959314,908.6738632959314,908.6738632959314,908.6738632959314,908.6738632959314,l,1.7031446709297597,1,309,0,910.4092720649205,911.9108434598893,911.9108434598893,,,,,,,,,,,,,,,,,,,,,,,,,,,,,,,,,,,,,,,,,,,,,,,,,,,,,,,,,,,,,,,,,,,,,,72481,2022-11-10_11h16.40.857,vts_reward_expectancy_bt_OFFLINE,2022.2.4,60.217507348821094,
0,1,0,0,1,0,0,0,circle,triangle,1,0,1,0,0,0,0,3,,,,,,,,,,,,,,,,,,,,,,,,,,,,,,,,,,,,,,,,924.7920170258731,924.7920170258731,924.7920170258731,924.7920170258731,924.7920170258731,924.7920170258731,924.7920170258731,924.7920170258731,924.7920170258731,924.7920170258731,l,2.7540483130142093,1,310,1,927.5782542109955,,929.0799933648668,,,,,,,,,,,,,,,,,,,,,,,,,,,,,,,,,,,,,,,,,,,,,,,,,,,,,,,,,,,,,,,,,,,,,,72481,2022-11-10_11h16.40.857,vts_reward_expectancy_bt_OFFLINE,2022.2.4,60.217507348821094,
1,0,0,0,0,0,1,0,triangle,hexagon,1,0,1,0,0,1,1,1,,,,,,,,,,,,,,,,,,,,,,,,,,,,,,,,,,,,,,,,929.5807090899907,929.5807090899907,929.5807090899907,929.5807090899907,929.5807090899907,929.5807090899907,929.5807090899907,929.5807090899907,929.5807090899907,929.5807090899907,l,2.253404946066439,1,311,1,931.8664858979173,,933.3680125428364,,,,,,,,,,,,,,,,,,,,,,,,,,,,,,,,,,,,,,,,,,,,,,,,,,,,,,,,,,,,,,,,,,,,,,72481,2022-11-10_11h16.40.857,vts_reward_expectancy_bt_OFFLINE,2022.2.4,60.217507348821094,
0,1,0,0,0,0,1,0,circle,hexagon,1,0,1,0,0,2,2,4,,,,,,,,,,,,,,,,,,,,,,,,,,,,,,,,,,,,,,,,933.8683548779227,933.8683548779227,933.8683548779227,933.8683548779227,933.8683548779227,933.8683548779227,933.8683548779227,933.8683548779227,933.8683548779227,933.8683548779227,a,3.6898300640750676,10,321,1,937.5894221768249,,939.0908356430009,,,,,,,,,,,,,,,,,,,,,,,,,,,,,,,,,,,,,,,,,,,,,,,,,,,,,,,,,,,,,,,,,,,,,,72481,2022-11-10_11h16.40.857,vts_reward_expectancy_bt_OFFLINE,2022.2.4,60.217507348821094,
0,0,0,1,0,0,1,0,star,hexagon,1,0,1,0,0,3,3,11,,,,,,,,,,,,,,,,,,,,,,,,,,,,,,,,,,,,,,,,939.591406170046,939.591406170046,939.591406170046,939.591406170046,939.591406170046,939.591406170046,939.591406170046,939.591406170046,939.591406170046,939.591406170046,a,1.2089919291902333,1,322,1,940.8261482350063,,942.3279610830359,,,,,,,,,,,,,,,,,,,,,,,,,,,,,,,,,,,,,,,,,,,,,,,,,,,,,,,,,,,,,,,,,,,,,,72481,2022-11-10_11h16.40.857,vts_reward_expectancy_bt_OFFLINE,2022.2.4,60.217507348821094,
0,0,1,0,1,0,0,0,hexagon,triangle,1,0,1,0,0,4,4,6,,,,,,,,,,,,,,,,,,,,,,,,,,,,,,,,,,,,,,,,942.8283674810082,942.8283674810082,942.8283674810082,942.8283674810082,942.8283674810082,942.8283674810082,942.8283674810082,942.8283674810082,942.8283674810082,942.8283674810082,l,2.470601371023804,1,323,1,945.3313013620209,,946.8329085509758,,,,,,,,,,,,,,,,,,,,,,,,,,,,,,,,,,,,,,,,,,,,,,,,,,,,,,,,,,,,,,,,,,,,,,72481,2022-11-10_11h16.40.857,vts_reward_expectancy_bt_OFFLINE,2022.2.4,60.217507348821094,
0,0,0,1,0,1,0,0,star ,circle,1,0,1,0,0,5,5,10,,,,,,,,,,,,,,,,,,,,,,,,,,,,,,,,,,,,,,,,947.3333939630538,947.3333939630538,947.3333939630538,947.3333939630538,947.3333939630538,947.3333939630538,947.3333939630538,947.3333939630538,947.3333939630538,947.3333939630538,a,1.5203057820908725,1,324,1,948.8851145398803,,950.3868648449425,,,,,,,,,,,,,,,,,,,,,,,,,,,,,,,,,,,,,,,,,,,,,,,,,,,,,,,,,,,,,,,,,,,,,,72481,2022-11-10_11h16.40.857,vts_reward_expectancy_bt_OFFLINE,2022.2.4,60.217507348821094,
1,0,0,0,0,0,0,1,triangle,star,1,0,1,0,0,6,6,2,,,,,,,,,,,,,,,,,,,,,,,,,,,,,,,,,,,,,,,,950.8871917899232,950.8871917899232,950.8871917899232,950.8871917899232,950.8871917899232,950.8871917899232,950.8871917899232,950.8871917899232,950.8871917899232,950.8871917899232,l,1.7130061232019216,10,334,1,952.6226853148546,,954.1243422250263,,,,,,,,,,,,,,,,,,,,,,,,,,,,,,,,,,,,,,,,,,,,,,,,,,,,,,,,,,,,,,,,,,,,,,72481,2022-11-10_11h16.40.857,vts_reward_expectancy_bt_OFFLINE,2022.2.4,60.217507348821094,
0,0,1,0,0,0,0,1,hexagon,star,1,0,1,0,0,7,7,8,,,,,,,,,,,,,,,,,,,,,,,,,,,,,,,,,,,,,,,,954.6247117628809,954.6247117628809,954.6247117628809,954.6247117628809,954.6247117628809,954.6247117628809,954.6247117628809,954.6247117628809,954.6247117628809,954.6247117628809,l,1.8031286280602217,10,344,1,956.4602413419634,,957.9619061020203,,,,,,,,,,,,,,,,,,,,,,,,,,,,,,,,,,,,,,,,,,,,,,,,,,,,,,,,,,,,,,,,,,,,,,72481,2022-11-10_11h16.40.857,vts_reward_expectancy_bt_OFFLINE,2022.2.4,60.217507348821094,
0,0,1,0,0,1,0,0,hexagon,circle,1,0,1,0,0,8,8,7,,,,,,,,,,,,,,,,,,,,,,,,,,,,,,,,,,,,,,,,958.4623748948798,958.4623748948798,958.4623748948798,958.4623748948798,958.4623748948798,958.4623748948798,958.4623748948798,958.4623748948798,958.4623748948798,958.4623748948798,a,1.8568114500958472,1,345,1,960.3477256949991,,961.8494679608848,,,,,,,,,,,,,,,,,,,,,,,,,,,,,,,,,,,,,,,,,,,,,,,,,,,,,,,,,,,,,,,,,,,,,,72481,2022-11-10_11h16.40.857,vts_reward_expectancy_bt_OFFLINE,2022.2.4,60.217507348821094,
0,1,0,0,0,0,0,1,circle,star,1,0,1,0,0,9,9,5,,,,,,,,,,,,,,,,,,,,,,,,,,,,,,,,,,,,,,,,962.3500147860032,962.3500147860032,962.3500147860032,962.3500147860032,962.3500147860032,962.3500147860032,962.3500147860032,962.3500147860032,962.3500147860032,962.3500147860032,a,1.343981983140111,1,346,1,963.7181924630422,,965.2198265348561,,,,,,,,,,,,,,,,,,,,,,,,,,,,,,,,,,,,,,,,,,,,,,,,,,,,,,,,,,,,,,,,,,,,,,72481,2022-11-10_11h16.40.857,vts_reward_expectancy_bt_OFFLINE,2022.2.4,60.217507348821094,
1,0,0,0,0,1,0,0,triangle,circle,1,0,1,0,0,10,10,0,,,,,,,,,,,,,,,,,,,,,,,,,,,,,,,,,,,,,,,,965.7205950419884,965.7205950419884,965.7205950419884,965.7205950419884,965.7205950419884,965.7205950419884,965.7205950419884,965.7205950419884,965.7205950419884,965.7205950419884,l,1.126234431983903,10,356,1,966.8715489399619,,968.3734351978637,,,,,,,,,,,,,,,,,,,,,,,,,,,,,,,,,,,,,,,,,,,,,,,,,,,,,,,,,,,,,,,,,,,,,,72481,2022-11-10_11h16.40.857,vts_reward_expectancy_bt_OFFLINE,2022.2.4,60.217507348821094,
0,0,0,1,1,0,0,0,star,triangle,1,0,1,0,0,11,11,9,,,,,,,,,,,,,,,,,,,,,,,,,,,,,,,,,,,,,,,,968.8740707698744,968.8740707698744,968.8740707698744,968.8740707698744,968.8740707698744,968.8740707698744,968.8740707698744,968.8740707698744,968.8740707698744,968.8740707698744,a,1.2106880561914295,1,357,1,970.1084901459981,,971.6100429079961,,,,,,,,,,,,,,,,,,,,,,,,,,,,,,,,,,,,,,,,,,,,,,,,,,,,,,,,,,,,,,,,,,,,,,72481,2022-11-10_11h16.40.857,vts_reward_expectancy_bt_OFFLINE,2022.2.4,60.217507348821094,
0,0,1,0,1,0,0,0,hexagon,triangle,1,0,1,0,1,0,12,6,,,,,,,,,,,,,,,,,,,,,,,,,,,,,,,,,,,,,,,,972.1105558809359,972.1105558809359,972.1105558809359,972.1105558809359,972.1105558809359,972.1105558809359,972.1105558809359,972.1105558809359,972.1105558809359,972.1105558809359,a,3.3741667203139514,10,367,1,975.5143813719042,,977.0161457678769,,,,,,,,,,,,,,,,,,,,,,,,,,,,,,,,,,,,,,,,,,,,,,,,,,,,,,,,,,,,,,,,,,,,,,72481,2022-11-10_11h16.40.857,vts_reward_expectancy_bt_OFFLINE,2022.2.4,60.217507348821094,
1,0,0,0,0,0,0,1,triangle,star,1,0,1,0,1,1,13,2,,,,,,,,,,,,,,,,,,,,,,,,,,,,,,,,,,,,,,,,977.516759627033,977.516759627033,977.516759627033,977.516759627033,977.516759627033,977.516759627033,977.516759627033,977.516759627033,977.516759627033,977.516759627033,l,3.6833243872970343,10,377,1,981.2207539370283,,982.722369619878,,,,,,,,,,,,,,,,,,,,,,,,,,,,,,,,,,,,,,,,,,,,,,,,,,,,,,,,,,,,,,,,,,,,,,72481,2022-11-10_11h16.40.857,vts_reward_expectancy_bt_OFFLINE,2022.2.4,60.217507348821094,
0,0,0,1,0,1,0,0,star ,circle,1,0,1,0,1,2,14,10,,,,,,,,,,,,,,,,,,,,,,,,,,,,,,,,,,,,,,,,983.223083000863,983.223083000863,983.223083000863,983.223083000863,983.223083000863,983.223083000863,983.223083000863,983.223083000863,983.223083000863,983.223083000863,a,2.670276801334694,10,387,1,985.9260147809982,,987.4274543148931,,,,,,,,,,,,,,,,,,,,,,,,,,,,,,,,,,,,,,,,,,,,,,,,,,,,,,,,,,,,,,,,,,,,,,72481,2022-11-10_11h16.40.857,vts_reward_expectancy_bt_OFFLINE,2022.2.4,60.217507348821094,
0,0,1,0,0,0,0,1,hexagon,star,1,0,1,0,1,3,15,8,,,,,,,,,,,,,,,,,,,,,,,,,,,,,,,,,,,,,,,,987.9279996098485,987.9279996098485,987.9279996098485,987.9279996098485,987.9279996098485,987.9279996098485,987.9279996098485,987.9279996098485,987.9279996098485,987.9279996098485,l,1.2941905169282109,10,397,1,989.2464180400129,,990.748016573023,,,,,,,,,,,,,,,,,,,,,,,,,,,,,,,,,,,,,,,,,,,,,,,,,,,,,,,,,,,,,,,,,,,,,,72481,2022-11-10_11h16.40.857,vts_reward_expectancy_bt_OFFLINE,2022.2.4,60.217507348821094,
0,1,0,0,1,0,0,0,circle,triangle,1,0,1,0,1,4,16,3,,,,,,,,,,,,,,,,,,,,,,,,,,,,,,,,,,,,,,,,991.2487017980311,991.2487017980311,991.2487017980311,991.2487017980311,991.2487017980311,991.2487017980311,991.2487017980311,991.2487017980311,991.2487017980311,991.2487017980311,a,1.6973484281916171,10,407,1,992.9671801880468,,994.4688438868616,,,,,,,,,,,,,,,,,,,,,,,,,,,,,,,,,,,,,,,,,,,,,,,,,,,,,,,,,,,,,,,,,,,,,,72481,2022-11-10_11h16.40.857,vts_reward_expectancy_bt_OFFLINE,2022.2.4,60.217507348821094,
0,1,0,0,0,0,1,0,circle,hexagon,1,0,1,0,1,5,17,4,,,,,,,,,,,,,,,,,,,,,,,,,,,,,,,,,,,,,,,,994.9692380370107,994.9692380370107,994.9692380370107,994.9692380370107,994.9692380370107,994.9692380370107,994.9692380370107,994.9692380370107,994.9692380370107,994.9692380370107,l,1.1275112880393863,1,408,1,996.1204884499311,997.6221314929426,997.6221314929426,,,,,,,,,,,,,,,,,,,,,,,,,,,,,,,,,,,,,,,,,,,,,,,,,,,,,,,,,,,,,,,,,,,,,,72481,2022-11-10_11h16.40.857,vts_reward_expectancy_bt_OFFLINE,2022.2.4,60.217507348821094,
0,0,0,1,1,0,0,0,star,triangle,1,0,1,0,1,6,18,9,,,,,,,,,,,,,,,,,,,,,,,,,,,,,,,,,,,,,,,,998.1225442329887,998.1225442329887,998.1225442329887,998.1225442329887,998.1225442329887,998.1225442329887,998.1225442329887,998.1225442329887,998.1225442329887,998.1225442329887,a,1.8782785010989755,10,418,1,1000.0247954968363,,1001.526440910995,,,,,,,,,,,,,,,,,,,,,,,,,,,,,,,,,,,,,,,,,,,,,,,,,,,,,,,,,,,,,,,,,,,,,,72481,2022-11-10_11h16.40.857,vts_reward_expectancy_bt_OFFLINE,2022.2.4,60.217507348821094,
1,0,0,0,0,0,1,0,triangle,hexagon,1,0,1,0,1,7,19,1,,,,,,,,,,,,,,,,,,,,,,,,,,,,,,,,,,,,,,,,1002.0270079330076,1002.0270079330076,1002.0270079330076,1002.0270079330076,1002.0270079330076,1002.0270079330076,1002.0270079330076,1002.0270079330076,1002.0270079330076,1002.0270079330076,a,2.360746867256239,1,419,1,1004.4130981969647,1005.9144892899785,1005.9144892899785,1006.4153881350067,,,,,,,,,,,,,,,,,,,,,,,,,,,,,,,,,,,,,,,,,,,,,,,,,,,,,,,,,,,,,,,,,,,,,72481,2022-11-10_11h16.40.857,vts_reward_expectancy_bt_OFFLINE,2022.2.4,60.217507348821094,
0,0,1,0,0,1,0,0,hexagon,circle,1,0,1,0,1,8,20,7,,,,,,,,,,,,,,,,,,,,,,,,,,,,,,,,,,,,,,,,1006.4153881350067,1006.4153881350067,1006.4153881350067,1006.4153881350067,1006.4153881350067,1006.4153881350067,1006.4153881350067,1006.4153881350067,1006.4153881350067,1006.4153881350067,a,2.213691692100838,1,420,1,1008.6512850369327,,1010.1526933258865,,,,,,,,,,,,,,,,,,,,,,,,,,,,,,,,,,,,,,,,,,,,,,,,,,,,,,,,,,,,,,,,,,,,,,72481,2022-11-10_11h16.40.857,vts_reward_expectancy_bt_OFFLINE,2022.2.4,60.217507348821094,
0,1,0,0,0,0,0,1,circle,star,1,0,1,0,1,9,21,5,,,,,,,,,,,,,,,,,,,,,,,,,,,,,,,,,,,,,,,,1010.6534020570107,1010.6534020570107,1010.6534020570107,1010.6534020570107,1010.6534020570107,1010.6534020570107,1010.6534020570107,1010.6534020570107,1010.6534020570107,1010.6534020570107,l,2.320242416113615,10,430,1,1013.0059920400381,,1014.5075501329266,,,,,,,,,,,,,,,,,,,,,,,,,,,,,,,,,,,,,,,,,,,,,,,,,,,,,,,,,,,,,,,,,,,,,,72481,2022-11-10_11h16.40.857,vts_reward_expectancy_bt_OFFLINE,2022.2.4,60.217507348821094,
0,0,0,1,0,0,1,0,star,hexagon,1,0,1,0,1,10,22,11,,,,,,,,,,,,,,,,,,,,,,,,,,,,,,,,,,,,,,,,1015.0080338669941,1015.0080338669941,1015.0080338669941,1015.0080338669941,1015.0080338669941,1015.0080338669941,1015.0080338669941,1015.0080338669941,1015.0080338669941,1015.0080338669941,l,1.3394271561410278,1,431,1,1016.3763750910293,1017.877955897944,1017.877955897944,,,,,,,,,,,,,,,,,,,,,,,,,,,,,,,,,,,,,,,,,,,,,,,,,,,,,,,,,,,,,,,,,,,,,,72481,2022-11-10_11h16.40.857,vts_reward_expectancy_bt_OFFLINE,2022.2.4,60.217507348821094,
1,0,0,0,0,1,0,0,triangle,circle,1,0,1,0,1,11,23,0,,,,,,,,,,,,,,,,,,,,,,,,,,,,,,,,,,,,,,,,1018.3783942158334,1018.3783942158334,1018.3783942158334,1018.3783942158334,1018.3783942158334,1018.3783942158334,1018.3783942158334,1018.3783942158334,1018.3783942158334,1018.3783942158334,l,1.0088788482826203,1,432,1,1019.4130336309317,,1020.9146208809689,,,,,,,,,,,,,,,,,,,,,,,,,,,,,,,,,,,,,,,,,,,,,,,,,,,,,,,,,,,,,,,,,,,,,,72481,2022-11-10_11h16.40.857,vts_reward_expectancy_bt_OFFLINE,2022.2.4,60.217507348821094,
0,1,0,0,1,0,0,0,circle,triangle,1,0,1,0,2,0,24,3,,,,,,,,,,,,,,,,,,,,,,,,,,,,,,,,,,,,,,,,1021.4153267820366,1021.4153267820366,1021.4153267820366,1021.4153267820366,1021.4153267820366,1021.4153267820366,1021.4153267820366,1021.4153267820366,1021.4153267820366,1021.4153267820366,l,0.9420202791225165,1,433,1,1022.3829751468729,,1023.8846424808726,,,,,,,,,,,,,,,,,,,,,,,,,,,,,,,,,,,,,,,,,,,,,,,,,,,,,,,,,,,,,,,,,,,,,,72481,2022-11-10_11h16.40.857,vts_reward_expectancy_bt_OFFLINE,2022.2.4,60.217507348821094,
1,0,0,0,0,1,0,0,triangle,circle,1,0,1,0,2,1,25,0,,,,,,,,,,,,,,,,,,,,,,,,,,,,,,,,,,,,,,,,1024.3851282750256,1024.3851282750256,1024.3851282750256,1024.3851282750256,1024.3851282750256,1024.3851282750256,1024.3851282750256,1024.3851282750256,1024.3851282750256,1024.3851282750256,a,0.648768835933879,1,434,1,1025.052567137871,1026.5541114800144,1026.5541114800144,,,,,,,,,,,,,,,,,,,,,,,,,,,,,,,,,,,,,,,,,,,,,,,,,,,,,,,,,,,,,,,,,,,,,,72481,2022-11-10_11h16.40.857,vts_reward_expectancy_bt_OFFLINE,2022.2.4,60.217507348821094,
0,0,1,0,0,1,0,0,hexagon,circle,1,0,1,0,2,2,26,7,,,,,,,,,,,,,,,,,,,,,,,,,,,,,,,,,,,,,,,,1027.054792179959,1027.054792179959,1027.054792179959,1027.054792179959,1027.054792179959,1027.054792179959,1027.054792179959,1027.054792179959,1027.054792179959,1027.054792179959,a,1.1858265111222863,1,435,1,1028.2725777879823,1029.7743087948766,1029.7743087948766,1030.2747776720207,,,,,,,,,,,,,,,,,,,,,,,,,,,,,,,,,,,,,,,,,,,,,,,,,,,,,,,,,,,,,,,,,,,,,72481,2022-11-10_11h16.40.857,vts_reward_expectancy_bt_OFFLINE,2022.2.4,60.217507348821094,
1,0,0,0,0,0,1,0,triangle,hexagon,1,0,1,0,2,3,27,1,,,,,,,,,,,,,,,,,,,,,,,,,,,,,,,,,,,,,,,,1030.2747776720207,1030.2747776720207,1030.2747776720207,1030.2747776720207,1030.2747776720207,1030.2747776720207,1030.2747776720207,1030.2747776720207,1030.2747776720207,1030.2747776720207,l,1.2953074441757053,1,436,1,1031.5929524819367,,1033.09470253787,,,,,,,,,,,,,,,,,,,,,,,,,,,,,,,,,,,,,,,,,,,,,,,,,,,,,,,,,,,,,,,,,,,,,,72481,2022-11-10_11h16.40.857,vts_reward_expectancy_bt_OFFLINE,2022.2.4,60.217507348821094,
0,0,1,0,1,0,0,0,hexagon,triangle,1,0,1,0,2,4,28,6,,,,,,,,,,,,,,,,,,,,,,,,,,,,,,,,,,,,,,,,1033.5952231758274,1033.5952231758274,1033.5952231758274,1033.5952231758274,1033.5952231758274,1033.5952231758274,1033.5952231758274,1033.5952231758274,1033.5952231758274,1033.5952231758274,a,0.7659266360569745,10,446,1,1034.3794248870108,1035.881108255824,1035.881108255824,,,,,,,,,,,,,,,,,,,,,,,,,,,,,,,,,,,,,,,,,,,,,,,,,,,,,,,,,,,,,,,,,,,,,,72481,2022-11-10_11h16.40.857,vts_reward_expectancy_bt_OFFLINE,2022.2.4,60.217507348821094,
0,0,0,1,1,0,0,0,star,triangle,1,0,1,0,2,5,29,9,,,,,,,,,,,,,,,,,,,,,,,,,,,,,,,,,,,,,,,,1036.3816045608837,1036.3816045608837,1036.3816045608837,1036.3816045608837,1036.3816045608837,1036.3816045608837,1036.3816045608837,1036.3816045608837,1036.3816045608837,1036.3816045608837,a,1.0954067492857575,1,447,1,1037.4995711408556,,1039.0013695219532,,,,,,,,,,,,,,,,,,,,,,,,,,,,,,,,,,,,,,,,,,,,,,,,,,,,,,,,,,,,,,,,,,,,,,72481,2022-11-10_11h16.40.857,vts_reward_expectancy_bt_OFFLINE,2022.2.4,60.217507348821094,
0,0,0,1,0,1,0,0,star ,circle,1,0,1,0,2,6,30,10,,,,,,,,,,,,,,,,,,,,,,,,,,,,,,,,,,,,,,,,1039.501740250038,1039.501740250038,1039.501740250038,1039.501740250038,1039.501740250038,1039.501740250038,1039.501740250038,1039.501740250038,1039.501740250038,1039.501740250038,l,0.8555327341891825,10,457,1,1040.386066097999,,1041.8876533599105,,,,,,,,,,,,,,,,,,,,,,,,,,,,,,,,,,,,,,,,,,,,,,,,,,,,,,,,,,,,,,,,,,,,,,72481,2022-11-10_11h16.40.857,vts_reward_expectancy_bt_OFFLINE,2022.2.4,60.217507348821094,
0,0,1,0,0,0,0,1,hexagon,star,1,0,1,0,2,7,31,8,,,,,,,,,,,,,,,,,,,,,,,,,,,,,,,,,,,,,,,,1042.3882475059945,1042.3882475059945,1042.3882475059945,1042.3882475059945,1042.3882475059945,1042.3882475059945,1042.3882475059945,1042.3882475059945,1042.3882475059945,1042.3882475059945,l,0.8850556770339608,10,467,1,1043.3059148069005,,1044.807566425996,,,,,,,,,,,,,,,,,,,,,,,,,,,,,,,,,,,,,,,,,,,,,,,,,,,,,,,,,,,,,,,,,,,,,,72481,2022-11-10_11h16.40.857,vts_reward_expectancy_bt_OFFLINE,2022.2.4,60.217507348821094,
0,1,0,0,0,0,0,1,circle,star,1,0,1,0,2,8,32,5,,,,,,,,,,,,,,,,,,,,,,,,,,,,,,,,,,,,,,,,1045.308184949914,1045.308184949914,1045.308184949914,1045.308184949914,1045.308184949914,1045.308184949914,1045.308184949914,1045.308184949914,1045.308184949914,1045.308184949914,a,1.236865587066859,10,477,1,1046.576308046002,,1048.0779606248252,,,,,,,,,,,,,,,,,,,,,,,,,,,,,,,,,,,,,,,,,,,,,,,,,,,,,,,,,,,,,,,,,,,,,,72481,2022-11-10_11h16.40.857,vts_reward_expectancy_bt_OFFLINE,2022.2.4,60.217507348821094,
0,0,0,1,0,0,1,0,star,hexagon,1,0,1,0,2,9,33,11,,,,,,,,,,,,,,,,,,,,,,,,,,,,,,,,,,,,,,,,1048.578243882861,1048.578243882861,1048.578243882861,1048.578243882861,1048.578243882861,1048.578243882861,1048.578243882861,1048.578243882861,1048.578243882861,1048.578243882861,a,1.1621964641381055,1,478,1,1049.763018178055,,1051.2646014809143,,,,,,,,,,,,,,,,,,,,,,,,,,,,,,,,,,,,,,,,,,,,,,,,,,,,,,,,,,,,,,,,,,,,,,72481,2022-11-10_11h16.40.857,vts_reward_expectancy_bt_OFFLINE,2022.2.4,60.217507348821094,
0,1,0,0,0,0,1,0,circle,hexagon,1,0,1,0,2,10,34,4,,,,,,,,,,,,,,,,,,,,,,,,,,,,,,,,,,,,,,,,1051.7652472229674,1051.7652472229674,1051.7652472229674,1051.7652472229674,1051.7652472229674,1051.7652472229674,1051.7652472229674,1051.7652472229674,1051.7652472229674,1051.7652472229674,l,1.6761688019614667,1,479,1,1053.4669580729678,,1054.9685927398968,,,,,,,,,,,,,,,,,,,,,,,,,,,,,,,,,,,,,,,,,,,,,,,,,,,,,,,,,,,,,,,,,,,,,,72481,2022-11-10_11h16.40.857,vts_reward_expectancy_bt_OFFLINE,2022.2.4,60.217507348821094,
1,0,0,0,0,0,0,1,triangle,star,1,0,1,0,2,11,35,2,,,,,,,,,,,,,,,,,,,,,,,,,,,,,,,,,,,,,,,,1055.469270360889,1055.469270360889,1055.469270360889,1055.469270360889,1055.469270360889,1055.469270360889,1055.469270360889,1055.469270360889,1055.469270360889,1055.469270360889,l,1.1788405061233789,10,489,1,1056.670563112013,,1058.1722556308378,,,,,,,,,,,,,,,,,,,,,,,,,,,,,,,,,,,,,,,,,,,,,,,,,,,,,,,,,,,,,,,,,,,,,,72481,2022-11-10_11h16.40.857,vts_reward_expectancy_bt_OFFLINE,2022.2.4,60.217507348821094,
0,0,0,1,0,0,1,0,star,hexagon,1,0,1,0,3,0,36,11,,,,,,,,,,,,,,,,,,,,,,,,,,,,,,,,,,,,,,,,1058.672968029976,1058.672968029976,1058.672968029976,1058.672968029976,1058.672968029976,1058.672968029976,1058.672968029976,1058.672968029976,1058.672968029976,1058.672968029976,a,2.5545830302871764,10,499,1,1061.2592578348704,,1062.7607655460015,,,,,,,,,,,,,,,,,,,,,,,,,,,,,,,,,,,,,,,,,,,,,,,,,,,,,,,,,,,,,,,,,,,,,,72481,2022-11-10_11h16.40.857,vts_reward_expectancy_bt_OFFLINE,2022.2.4,60.217507348821094,
0,0,1,0,1,0,0,0,hexagon,triangle,1,0,1,0,3,1,37,6,,,,,,,,,,,,,,,,,,,,,,,,,,,,,,,,,,,,,,,,1063.261273264885,1063.261273264885,1063.261273264885,1063.261273264885,1063.261273264885,1063.261273264885,1063.261273264885,1063.261273264885,1063.261273264885,1063.261273264885,l,1.5210173930972815,1,500,1,1064.8131127948873,,1066.3147131928708,,,,,,,,,,,,,,,,,,,,,,,,,,,,,,,,,,,,,,,,,,,,,,,,,,,,,,,,,,,,,,,,,,,,,,72481,2022-11-10_11h16.40.857,vts_reward_expectancy_bt_OFFLINE,2022.2.4,60.217507348821094,
0,0,1,0,0,0,0,1,hexagon,star,1,0,1,0,3,2,38,8,,,,,,,,,,,,,,,,,,,,,,,,,,,,,,,,,,,,,,,,1066.8150698100217,1066.8150698100217,1066.8150698100217,1066.8150698100217,1066.8150698100217,1066.8150698100217,1066.8150698100217,1066.8150698100217,1066.8150698100217,1066.8150698100217,l,1.5361731969751418,1,501,1,1068.3835927848704,1069.8854966878425,1069.8854966878425,,,,,,,,,,,,,,,,,,,,,,,,,,,,,,,,,,,,,,,,,,,,,,,,,,,,,,,,,,,,,,,,,,,,,,72481,2022-11-10_11h16.40.857,vts_reward_expectancy_bt_OFFLINE,2022.2.4,60.217507348821094,
0,0,1,0,0,1,0,0,hexagon,circle,1,0,1,0,3,3,39,7,,,,,,,,,,,,,,,,,,,,,,,,,,,,,,,,,,,,,,,,1070.3860117718577,1070.3860117718577,1070.3860117718577,1070.3860117718577,1070.3860117718577,1070.3860117718577,1070.3860117718577,1070.3860117718577,1070.3860117718577,1070.3860117718577,l,1.3513155849650502,10,511,1,1071.7541313150432,1073.2557205979247,1073.2557205979247,,,,,,,,,,,,,,,,,,,,,,,,,,,,,,,,,,,,,,,,,,,,,,,,,,,,,,,,,,,,,,,,,,,,,,72481,2022-11-10_11h16.40.857,vts_reward_expectancy_bt_OFFLINE,2022.2.4,60.217507348821094,
0,1,0,0,0,0,0,1,circle,star,1,0,1,0,3,4,40,5,,,,,,,,,,,,,,,,,,,,,,,,,,,,,,,,,,,,,,,,1073.7563499270473,1073.7563499270473,1073.7563499270473,1073.7563499270473,1073.7563499270473,1073.7563499270473,1073.7563499270473,1073.7563499270473,1073.7563499270473,1073.7563499270473,a,1.265438383910805,10,521,1,1075.0410973879043,,1076.5428453700151,,,,,,,,,,,,,,,,,,,,,,,,,,,,,,,,,,,,,,,,,,,,,,,,,,,,,,,,,,,,,,,,,,,,,,72481,2022-11-10_11h16.40.857,vts_reward_expectancy_bt_OFFLINE,2022.2.4,60.217507348821094,
1,0,0,0,0,0,0,1,triangle,star,1,0,1,0,3,5,41,2,,,,,,,,,,,,,,,,,,,,,,,,,,,,,,,,,,,,,,,,1077.0432309969328,1077.0432309969328,1077.0432309969328,1077.0432309969328,1077.0432309969328,1077.0432309969328,1077.0432309969328,1077.0432309969328,1077.0432309969328,1077.0432309969328,l,2.2779367971234024,10,531,1,1079.3456496349536,,1080.8474154949654,,,,,,,,,,,,,,,,,,,,,,,,,,,,,,,,,,,,,,,,,,,,,,,,,,,,,,,,,,,,,,,,,,,,,,72481,2022-11-10_11h16.40.857,vts_reward_expectancy_bt_OFFLINE,2022.2.4,60.217507348821094,
1,0,0,0,0,1,0,0,triangle,circle,1,0,1,0,3,6,42,0,,,,,,,,,,,,,,,,,,,,,,,,,,,,,,,,,,,,,,,,1081.3480478618294,1081.3480478618294,1081.3480478618294,1081.3480478618294,1081.3480478618294,1081.3480478618294,1081.3480478618294,1081.3480478618294,1081.3480478618294,1081.3480478618294,l,1.3228834711480886,10,541,1,1082.6995276859961,,1084.200993347913,,,,,,,,,,,,,,,,,,,,,,,,,,,,,,,,,,,,,,,,,,,,,,,,,,,,,,,,,,,,,,,,,,,,,,72481,2022-11-10_11h16.40.857,vts_reward_expectancy_bt_OFFLINE,2022.2.4,60.217507348821094,
0,1,0,0,1,0,0,0,circle,triangle,1,0,1,0,3,7,43,3,,,,,,,,,,,,,,,,,,,,,,,,,,,,,,,,,,,,,,,,1084.7017325318884,1084.7017325318884,1084.7017325318884,1084.7017325318884,1084.7017325318884,1084.7017325318884,1084.7017325318884,1084.7017325318884,1084.7017325318884,1084.7017325318884,a,1.0763077351730317,1,542,1,1085.8028904178645,,1087.3043737949338,,,,,,,,,,,,,,,,,,,,,,,,,,,,,,,,,,,,,,,,,,,,,,,,,,,,,,,,,,,,,,,,,,,,,,72481,2022-11-10_11h16.40.857,vts_reward_expectancy_bt_OFFLINE,2022.2.4,60.217507348821094,
0,1,0,0,0,0,1,0,circle,hexagon,1,0,1,0,3,8,44,4,,,,,,,,,,,,,,,,,,,,,,,,,,,,,,,,,,,,,,,,1087.8050393548328,1087.8050393548328,1087.8050393548328,1087.8050393548328,1087.8050393548328,1087.8050393548328,1087.8050393548328,1087.8050393548328,1087.8050393548328,1087.8050393548328,a,2.0343164391815662,10,552,1,1089.8573309108615,,1091.3590940178838,,,,,,,,,,,,,,,,,,,,,,,,,,,,,,,,,,,,,,,,,,,,,,,,,,,,,,,,,,,,,,,,,,,,,,72481,2022-11-10_11h16.40.857,vts_reward_expectancy_bt_OFFLINE,2022.2.4,60.217507348821094,
0,0,0,1,0,1,0,0,star ,circle,1,0,1,0,3,9,45,10,,,,,,,,,,,,,,,,,,,,,,,,,,,,,,,,,,,,,,,,1091.8594589978456,1091.8594589978456,1091.8594589978456,1091.8594589978456,1091.8594589978456,1091.8594589978456,1091.8594589978456,1091.8594589978456,1091.8594589978456,1091.8594589978456,l,1.3763130709994584,1,553,1,1093.2613906909246,1094.7626773980446,1094.7626773980446,,,,,,,,,,,,,,,,,,,,,,,,,,,,,,,,,,,,,,,,,,,,,,,,,,,,,,,,,,,,,,,,,,,,,,72481,2022-11-10_11h16.40.857,vts_reward_expectancy_bt_OFFLINE,2022.2.4,60.217507348821094,
1,0,0,0,0,0,1,0,triangle,hexagon,1,0,1,0,3,10,46,1,,,,,,,,,,,,,,,,,,,,,,,,,,,,,,,,,,,,,,,,1095.263310346054,1095.263310346054,1095.263310346054,1095.263310346054,1095.263310346054,1095.263310346054,1095.263310346054,1095.263310346054,1095.263310346054,1095.263310346054,a,0.8188295310828835,1,554,1,1096.1141247008927,,1097.6156251579523,,,,,,,,,,,,,,,,,,,,,,,,,,,,,,,,,,,,,,,,,,,,,,,,,,,,,,,,,,,,,,,,,,,,,,72481,2022-11-10_11h16.40.857,vts_reward_expectancy_bt_OFFLINE,2022.2.4,60.217507348821094,
0,0,0,1,1,0,0,0,star,triangle,1,0,1,0,3,11,47,9,,,,,,,,,,,,,,,,,,,,,,,,,,,,,,,,,,,,,,,,1098.1164016518742,1098.1164016518742,1098.1164016518742,1098.1164016518742,1098.1164016518742,1098.1164016518742,1098.1164016518742,1098.1164016518742,1098.1164016518742,1098.1164016518742,l,0.7441792832687497,1,555,1,1098.8837994108908,,1100.3856244918425,,,,,,,,,,,,,,,,,,,,,,,,,,,,,,,,,,,,,,,,,,,,,,,,,,,,,,,,,,,,,,,,,,,,,,72481,2022-11-10_11h16.40.857,vts_reward_expectancy_bt_OFFLINE,2022.2.4,60.217507348821094,
1,0,0,0,0,1,0,0,triangle,circle,2,0,2,0,0,0,0,0,,,,,,,,,,,,,,,,,,,,,,,,,,,,,,,,,,,,,,,,1113.9508104480337,1113.9508104480337,1113.9508104480337,1113.9508104480337,1113.9508104480337,1113.9508104480337,1113.9508104480337,1113.9508104480337,1113.9508104480337,1113.9508104480337,l,1.934075428172946,10,565,2,1115.9027249829378,1117.4043148308992,1117.4043148308992,,,,,,,,,,,,,,,,,,,,,,,,,,,,,,,,,,,,,,,,,,,,,,,,,,,,,,,,,,,,,,,,,,,,,,72481,2022-11-10_11h16.40.857,vts_reward_expectancy_bt_OFFLINE,2022.2.4,60.217507348821094,
0,1,0,0,0,0,0,1,circle,star,2,0,2,0,0,1,1,5,,,,,,,,,,,,,,,,,,,,,,,,,,,,,,,,,,,,,,,,1117.9049177558627,1117.9049177558627,1117.9049177558627,1117.9049177558627,1117.9049177558627,1117.9049177558627,1117.9049177558627,1117.9049177558627,1117.9049177558627,1117.9049177558627,a,4.897437228122726,10,575,2,1122.8268666248769,1124.3285528710112,1124.3285528710112,,,,,,,,,,,,,,,,,,,,,,,,,,,,,,,,,,,,,,,,,,,,,,,,,,,,,,,,,,,,,,,,,,,,,,72481,2022-11-10_11h16.40.857,vts_reward_expectancy_bt_OFFLINE,2022.2.4,60.217507348821094,
1,0,0,0,0,0,1,0,triangle,hexagon,2,0,2,0,0,2,2,1,,,,,,,,,,,,,,,,,,,,,,,,,,,,,,,,,,,,,,,,1124.8292772329878,1124.8292772329878,1124.8292772329878,1124.8292772329878,1124.8292772329878,1124.8292772329878,1124.8292772329878,1124.8292772329878,1124.8292772329878,1124.8292772329878,l,4.321150979259983,10,585,2,1129.1673053968698,1130.6690590400249,1130.6690590400249,,,,,,,,,,,,,,,,,,,,,,,,,,,,,,,,,,,,,,,,,,,,,,,,,,,,,,,,,,,,,,,,,,,,,,72481,2022-11-10_11h16.40.857,vts_reward_expectancy_bt_OFFLINE,2022.2.4,60.217507348821094,
0,1,0,0,1,0,0,0,circle,triangle,2,0,2,0,0,3,3,3,,,,,,,,,,,,,,,,,,,,,,,,,,,,,,,,,,,,,,,,1131.1696891998872,1131.1696891998872,1131.1696891998872,1131.1696891998872,1131.1696891998872,1131.1696891998872,1131.1696891998872,1131.1696891998872,1131.1696891998872,1131.1696891998872,a,4.458927954314277,10,595,2,1135.657763846917,1137.1593606979586,1137.1593606979586,,,,,,,,,,,,,,,,,,,,,,,,,,,,,,,,,,,,,,,,,,,,,,,,,,,,,,,,,,,,,,,,,,,,,,72481,2022-11-10_11h16.40.857,vts_reward_expectancy_bt_OFFLINE,2022.2.4,60.217507348821094,
0,0,0,1,1,0,0,0,star,triangle,2,0,2,0,0,4,4,9,,,,,,,,,,,,,,,,,,,,,,,,,,,,,,,,,,,,,,,,1137.6600004229695,1137.6600004229695,1137.6600004229695,1137.6600004229695,1137.6600004229695,1137.6600004229695,1137.6600004229695,1137.6600004229695,1137.6600004229695,1137.6600004229695,l,1.8860943440813571,1,596,2,1139.5787909070496,,1141.0803688650485,,,,,,,,,,,,,,,,,,,,,,,,,,,,,,,,,,,,,,,,,,,,,,,,,,,,,,,,,,,,,,,,,,,,,,72481,2022-11-10_11h16.40.857,vts_reward_expectancy_bt_OFFLINE,2022.2.4,60.217507348821094,
0,1,0,0,0,0,1,0,circle,hexagon,2,0,2,0,0,5,5,4,,,,,,,,,,,,,,,,,,,,,,,,,,,,,,,,,,,,,,,,1141.5809754699003,1141.5809754699003,1141.5809754699003,1141.5809754699003,1141.5809754699003,1141.5809754699003,1141.5809754699003,1141.5809754699003,1141.5809754699003,1141.5809754699003,l,1.4958164361305535,1,597,2,1143.0994633168448,1144.6009836229496,1144.6009836229496,,,,,,,,,,,,,,,,,,,,,,,,,,,,,,,,,,,,,,,,,,,,,,,,,,,,,,,,,,,,,,,,,,,,,,72481,2022-11-10_11h16.40.857,vts_reward_expectancy_bt_OFFLINE,2022.2.4,60.217507348821094,
0,0,0,1,0,1,0,0,star ,circle,2,0,2,0,0,6,6,10,,,,,,,,,,,,,,,,,,,,,,,,,,,,,,,,,,,,,,,,1145.1014000000432,1145.1014000000432,1145.1014000000432,1145.1014000000432,1145.1014000000432,1145.1014000000432,1145.1014000000432,1145.1014000000432,1145.1014000000432,1145.1014000000432,l,1.4070524950511754,1,598,2,1146.5366263319738,,1148.038294745842,,,,,,,,,,,,,,,,,,,,,,,,,,,,,,,,,,,,,,,,,,,,,,,,,,,,,,,,,,,,,,,,,,,,,,72481,2022-11-10_11h16.40.857,vts_reward_expectancy_bt_OFFLINE,2022.2.4,60.217507348821094,
0,0,1,0,1,0,0,0,hexagon,triangle,2,0,2,0,0,7,7,6,,,,,,,,,,,,,,,,,,,,,,,,,,,,,,,,,,,,,,,,1148.5388033129275,1148.5388033129275,1148.5388033129275,1148.5388033129275,1148.5388033129275,1148.5388033129275,1148.5388033129275,1148.5388033129275,1148.5388033129275,1148.5388033129275,a,1.6705733290873468,10,608,2,1150.240552895004,,1151.7424082048237,,,,,,,,,,,,,,,,,,,,,,,,,,,,,,,,,,,,,,,,,,,,,,,,,,,,,,,,,,,,,,,,,,,,,,72481,2022-11-10_11h16.40.857,vts_reward_expectancy_bt_OFFLINE,2022.2.4,60.217507348821094,
0,0,0,1,0,0,1,0,star,hexagon,2,0,2,0,0,8,8,11,,,,,,,,,,,,,,,,,,,,,,,,,,,,,,,,,,,,,,,,1152.2427971658763,1152.2427971658763,1152.2427971658763,1152.2427971658763,1152.2427971658763,1152.2427971658763,1152.2427971658763,1152.2427971658763,1152.2427971658763,1152.2427971658763,l,2.2648888141848147,1,609,2,1154.5285449170042,,1156.030166087905,,,,,,,,,,,,,,,,,,,,,,,,,,,,,,,,,,,,,,,,,,,,,,,,,,,,,,,,,,,,,,,,,,,,,,72481,2022-11-10_11h16.40.857,vts_reward_expectancy_bt_OFFLINE,2022.2.4,60.217507348821094,
1,0,0,0,0,0,0,1,triangle,star,2,0,2,0,0,9,9,2,,,,,,,,,,,,,,,,,,,,,,,,,,,,,,,,,,,,,,,,1156.530788460048,1156.530788460048,1156.530788460048,1156.530788460048,1156.530788460048,1156.530788460048,1156.530788460048,1156.530788460048,1156.530788460048,1156.530788460048,l,3.671950934221968,1,610,2,1160.2348841798957,,1161.736741330009,,,,,,,,,,,,,,,,,,,,,,,,,,,,,,,,,,,,,,,,,,,,,,,,,,,,,,,,,,,,,,,,,,,,,,72481,2022-11-10_11h16.40.857,vts_reward_expectancy_bt_OFFLINE,2022.2.4,60.217507348821094,
0,0,1,0,0,1,0,0,hexagon,circle,2,0,2,0,0,10,10,7,,,,,,,,,,,,,,,,,,,,,,,,,,,,,,,,,,,,,,,,1162.2372278620023,1162.2372278620023,1162.2372278620023,1162.2372278620023,1162.2372278620023,1162.2372278620023,1162.2372278620023,1162.2372278620023,1162.2372278620023,1162.2372278620023,a,12.251627264078707,1,611,2,1174.5176321258768,,1176.0191337629221,,,,,,,,,,,,,,,,,,,,,,,,,,,,,,,,,,,,,,,,,,,,,,,,,,,,,,,,,,,,,,,,,,,,,,72481,2022-11-10_11h16.40.857,vts_reward_expectancy_bt_OFFLINE,2022.2.4,60.217507348821094,
0,0,1,0,0,0,0,1,hexagon,star,2,0,2,0,0,11,11,8,,,,,,,,,,,,,,,,,,,,,,,,,,,,,,,,,,,,,,,,1176.5195606430061,1176.5195606430061,1176.5195606430061,1176.5195606430061,1176.5195606430061,1176.5195606430061,1176.5195606430061,1176.5195606430061,1176.5195606430061,1176.5195606430061,a,3.347486369078979,10,621,2,1179.8902814330067,1181.3915859770495,1181.3915859770495,,,,,,,,,,,,,,,,,,,,,,,,,,,,,,,,,,,,,,,,,,,,,,,,,,,,,,,,,,,,,,,,,,,,,,72481,2022-11-10_11h16.40.857,vts_reward_expectancy_bt_OFFLINE,2022.2.4,60.217507348821094,
1,0,0,0,0,0,1,0,triangle,hexagon,2,0,2,0,1,0,12,1,,,,,,,,,,,,,,,,,,,,,,,,,,,,,,,,,,,,,,,,1181.8921637430321,1181.8921637430321,1181.8921637430321,1181.8921637430321,1181.8921637430321,1181.8921637430321,1181.8921637430321,1181.8921637430321,1181.8921637430321,1181.8921637430321,a,3.9273649661336094,1,622,2,1185.8469690249767,,1187.3482771669514,,,,,,,,,,,,,,,,,,,,,,,,,,,,,,,,,,,,,,,,,,,,,,,,,,,,,,,,,,,,,,,,,,,,,,72481,2022-11-10_11h16.40.857,vts_reward_expectancy_bt_OFFLINE,2022.2.4,60.217507348821094,
0,1,0,0,1,0,0,0,circle,triangle,2,0,2,0,1,1,13,3,,,,,,,,,,,,,,,,,,,,,,,,,,,,,,,,,,,,,,,,1187.8489618420135,1187.8489618420135,1187.8489618420135,1187.8489618420135,1187.8489618420135,1187.8489618420135,1187.8489618420135,1187.8489618420135,1187.8489618420135,1187.8489618420135,a,4.204701283248141,10,632,2,1192.070914546959,1193.5717724368442,1193.5717724368442,,,,,,,,,,,,,,,,,,,,,,,,,,,,,,,,,,,,,,,,,,,,,,,,,,,,,,,,,,,,,,,,,,,,,,72481,2022-11-10_11h16.40.857,vts_reward_expectancy_bt_OFFLINE,2022.2.4,60.217507348821094,
0,0,1,0,0,0,0,1,hexagon,star,2,0,2,0,1,2,14,8,,,,,,,,,,,,,,,,,,,,,,,,,,,,,,,,,,,,,,,,1194.0724211949855,1194.0724211949855,1194.0724211949855,1194.0724211949855,1194.0724211949855,1194.0724211949855,1194.0724211949855,1194.0724211949855,1194.0724211949855,1194.0724211949855,l,1.5794728039763868,10,642,2,1195.6740381699055,,1197.1756686149165,,,,,,,,,,,,,,,,,,,,,,,,,,,,,,,,,,,,,,,,,,,,,,,,,,,,,,,,,,,,,,,,,,,,,,72481,2022-11-10_11h16.40.857,vts_reward_expectancy_bt_OFFLINE,2022.2.4,60.217507348821094,
0,0,1,0,0,1,0,0,hexagon,circle,2,0,2,0,1,3,15,7,,,,,,,,,,,,,,,,,,,,,,,,,,,,,,,,,,,,,,,,1197.6763318649027,1197.6763318649027,1197.6763318649027,1197.6763318649027,1197.6763318649027,1197.6763318649027,1197.6763318649027,1197.6763318649027,1197.6763318649027,1197.6763318649027,l,2.1848816252313554,10,652,2,1199.8786705269013,1201.3803528880235,1201.3803528880235,,,,,,,,,,,,,,,,,,,,,,,,,,,,,,,,,,,,,,,,,,,,,,,,,,,,,,,,,,,,,,,,,,,,,,72481,2022-11-10_11h16.40.857,vts_reward_expectancy_bt_OFFLINE,2022.2.4,60.217507348821094,
1,0,0,0,0,1,0,0,triangle,circle,2,0,2,0,1,4,16,0,,,,,,,,,,,,,,,,,,,,,,,,,,,,,,,,,,,,,,,,1201.8808892599773,1201.8808892599773,1201.8808892599773,1201.8808892599773,1201.8808892599773,1201.8808892599773,1201.8808892599773,1201.8808892599773,1201.8808892599773,1201.8808892599773,l,2.130082076182589,10,662,2,1204.033222062979,1205.5348089919426,1205.5348089919426,,,,,,,,,,,,,,,,,,,,,,,,,,,,,,,,,,,,,,,,,,,,,,,,,,,,,,,,,,,,,,,,,,,,,,72481,2022-11-10_11h16.40.857,vts_reward_expectancy_bt_OFFLINE,2022.2.4,60.217507348821094,
0,0,0,1,1,0,0,0,star,triangle,2,0,2,0,1,5,17,9,,,,,,,,,,,,,,,,,,,,,,,,,,,,,,,,,,,,,,,,1206.035525125917,1206.035525125917,1206.035525125917,1206.035525125917,1206.035525125917,1206.035525125917,1206.035525125917,1206.035525125917,1206.035525125917,1206.035525125917,a,2.5446611121296883,10,672,2,1208.6050632169936,,1210.1066325609572,,,,,,,,,,,,,,,,,,,,,,,,,,,,,,,,,,,,,,,,,,,,,,,,,,,,,,,,,,,,,,,,,,,,,,72481,2022-11-10_11h16.40.857,vts_reward_expectancy_bt_OFFLINE,2022.2.4,60.217507348821094,
0,1,0,0,0,0,1,0,circle,hexagon,2,0,2,0,1,6,18,4,,,,,,,,,,,,,,,,,,,,,,,,,,,,,,,,,,,,,,,,1210.607320701005,1210.607320701005,1210.607320701005,1210.607320701005,1210.607320701005,1210.607320701005,1210.607320701005,1210.607320701005,1210.607320701005,1210.607320701005,a,1.6190521260723472,10,682,2,1212.259009727044,,1213.760803394951,,,,,,,,,,,,,,,,,,,,,,,,,,,,,,,,,,,,,,,,,,,,,,,,,,,,,,,,,,,,,,,,,,,,,,72481,2022-11-10_11h16.40.857,vts_reward_expectancy_bt_OFFLINE,2022.2.4,60.217507348821094,
0,1,0,0,0,0,0,1,circle,star,2,0,2,0,1,7,19,5,,,,,,,,,,,,,,,,,,,,,,,,,,,,,,,,,,,,,,,,1214.2611795950215,1214.2611795950215,1214.2611795950215,1214.2611795950215,1214.2611795950215,1214.2611795950215,1214.2611795950215,1214.2611795950215,1214.2611795950215,1214.2611795950215,l,3.679120371118188,10,692,2,1217.9652075469494,,1219.4668727000244,,,,,,,,,,,,,,,,,,,,,,,,,,,,,,,,,,,,,,,,,,,,,,,,,,,,,,,,,,,,,,,,,,,,,,72481,2022-11-10_11h16.40.857,vts_reward_expectancy_bt_OFFLINE,2022.2.4,60.217507348821094,
1,0,0,0,0,0,0,1,triangle,star,2,0,2,0,1,8,20,2,,,,,,,,,,,,,,,,,,,,,,,,,,,,,,,,,,,,,,,,1219.9675319679081,1219.9675319679081,1219.9675319679081,1219.9675319679081,1219.9675319679081,1219.9675319679081,1219.9675319679081,1219.9675319679081,1219.9675319679081,1219.9675319679081,l,2.5618159940931946,1,693,2,1222.5539806380402,,1224.0555483859498,,,,,,,,,,,,,,,,,,,,,,,,,,,,,,,,,,,,,,,,,,,,,,,,,,,,,,,,,,,,,,,,,,,,,,72481,2022-11-10_11h16.40.857,vts_reward_expectancy_bt_OFFLINE,2022.2.4,60.217507348821094,
0,0,0,1,0,0,1,0,star,hexagon,2,0,2,0,1,9,21,11,,,,,,,,,,,,,,,,,,,,,,,,,,,,,,,,,,,,,,,,1224.5559262509923,1224.5559262509923,1224.5559262509923,1224.5559262509923,1224.5559262509923,1224.5559262509923,1224.5559262509923,1224.5559262509923,1224.5559262509923,1224.5559262509923,a,2.836146967019886,10,703,2,1227.4101310309488,1228.9104527200107,1228.9104527200107,1229.4110692429822,,,,,,,,,,,,,,,,,,,,,,,,,,,,,,,,,,,,,,,,,,,,,,,,,,,,,,,,,,,,,,,,,,,,,72481,2022-11-10_11h16.40.857,vts_reward_expectancy_bt_OFFLINE,2022.2.4,60.217507348821094,
0,0,0,1,0,1,0,0,star ,circle,2,0,2,0,1,10,22,10,,,,,,,,,,,,,,,,,,,,,,,,,,,,,,,,,,,,,,,,1229.4110692429822,1229.4110692429822,1229.4110692429822,1229.4110692429822,1229.4110692429822,1229.4110692429822,1229.4110692429822,1229.4110692429822,1229.4110692429822,1229.4110692429822,a,1.4218844131100923,10,713,2,1230.862621499924,,1232.3645042260177,,,,,,,,,,,,,,,,,,,,,,,,,,,,,,,,,,,,,,,,,,,,,,,,,,,,,,,,,,,,,,,,,,,,,,72481,2022-11-10_11h16.40.857,vts_reward_expectancy_bt_OFFLINE,2022.2.4,60.217507348821094,
0,0,1,0,1,0,0,0,hexagon,triangle,2,0,2,0,1,11,23,6,,,,,,,,,,,,,,,,,,,,,,,,,,,,,,,,,,,,,,,,1232.8651311718859,1232.8651311718859,1232.8651311718859,1232.8651311718859,1232.8651311718859,1232.8651311718859,1232.8651311718859,1232.8651311718859,1232.8651311718859,1232.8651311718859,a,2.9754322902299464,1,714,2,1235.8686309498735,,1237.3701688498259,,,,,,,,,,,,,,,,,,,,,,,,,,,,,,,,,,,,,,,,,,,,,,,,,,,,,,,,,,,,,,,,,,,,,,72481,2022-11-10_11h16.40.857,vts_reward_expectancy_bt_OFFLINE,2022.2.4,60.217507348821094,
1,0,0,0,0,0,1,0,triangle,hexagon,2,0,2,0,2,0,24,1,,,,,,,,,,,,,,,,,,,,,,,,,,,,,,,,,,,,,,,,1237.870661790017,1237.870661790017,1237.870661790017,1237.870661790017,1237.870661790017,1237.870661790017,1237.870661790017,1237.870661790017,1237.870661790017,1237.870661790017,a,3.5049677141942084,1,715,2,1241.40787910996,,1242.9095076168887,,,,,,,,,,,,,,,,,,,,,,,,,,,,,,,,,,,,,,,,,,,,,,,,,,,,,,,,,,,,,,,,,,,,,,72481,2022-11-10_11h16.40.857,vts_reward_expectancy_bt_OFFLINE,2022.2.4,60.217507348821094,
0,0,0,1,1,0,0,0,star,triangle,2,0,2,0,2,1,25,9,,,,,,,,,,,,,,,,,,,,,,,,,,,,,,,,,,,,,,,,1243.4101007708814,1243.4101007708814,1243.4101007708814,1243.4101007708814,1243.4101007708814,1243.4101007708814,1243.4101007708814,1243.4101007708814,1243.4101007708814,1243.4101007708814,l,1.599807783961296,1,716,2,1245.0283743399195,,1246.530192259932,,,,,,,,,,,,,,,,,,,,,,,,,,,,,,,,,,,,,,,,,,,,,,,,,,,,,,,,,,,,,,,,,,,,,,72481,2022-11-10_11h16.40.857,vts_reward_expectancy_bt_OFFLINE,2022.2.4,60.217507348821094,
0,1,0,0,0,0,1,0,circle,hexagon,2,0,2,0,2,2,26,4,,,,,,,,,,,,,,,,,,,,,,,,,,,,,,,,,,,,,,,,1247.030910816975,1247.030910816975,1247.030910816975,1247.030910816975,1247.030910816975,1247.030910816975,1247.030910816975,1247.030910816975,1247.030910816975,1247.030910816975,a,1.4428052501752973,10,726,2,1248.4995254559908,1250.0004277809057,1250.0004277809057,,,,,,,,,,,,,,,,,,,,,,,,,,,,,,,,,,,,,,,,,,,,,,,,,,,,,,,,,,,,,,,,,,,,,,72481,2022-11-10_11h16.40.857,vts_reward_expectancy_bt_OFFLINE,2022.2.4,60.217507348821094,
0,0,0,1,0,0,1,0,star,hexagon,2,0,2,0,2,3,27,11,,,,,,,,,,,,,,,,,,,,,,,,,,,,,,,,,,,,,,,,1250.501212844858,1250.501212844858,1250.501212844858,1250.501212844858,1250.501212844858,1250.501212844858,1250.501212844858,1250.501212844858,1250.501212844858,1250.501212844858,a,2.4729641762096435,10,736,2,1253.0039874450304,,1254.5055983320344,,,,,,,,,,,,,,,,,,,,,,,,,,,,,,,,,,,,,,,,,,,,,,,,,,,,,,,,,,,,,,,,,,,,,,72481,2022-11-10_11h16.40.857,vts_reward_expectancy_bt_OFFLINE,2022.2.4,60.217507348821094,
0,1,0,0,1,0,0,0,circle,triangle,2,0,2,0,2,4,28,3,,,,,,,,,,,,,,,,,,,,,,,,,,,,,,,,,,,,,,,,1255.0060836060438,1255.0060836060438,1255.0060836060438,1255.0060836060438,1255.0060836060438,1255.0060836060438,1255.0060836060438,1255.0060836060438,1255.0060836060438,1255.0060836060438,a,2.828648528084159,10,746,2,1257.8594239049125,,1259.3608779578935,,,,,,,,,,,,,,,,,,,,,,,,,,,,,,,,,,,,,,,,,,,,,,,,,,,,,,,,,,,,,,,,,,,,,,72481,2022-11-10_11h16.40.857,vts_reward_expectancy_bt_OFFLINE,2022.2.4,60.217507348821094,
0,0,0,1,0,1,0,0,star ,circle,2,0,2,0,2,5,29,10,,,,,,,,,,,,,,,,,,,,,,,,,,,,,,,,,,,,,,,,1259.8615373149514,1259.8615373149514,1259.8615373149514,1259.8615373149514,1259.8615373149514,1259.8615373149514,1259.8615373149514,1259.8615373149514,1259.8615373149514,1259.8615373149514,a,1.1121527010109276,10,756,2,1260.9961675659288,,1262.4976634320337,,,,,,,,,,,,,,,,,,,,,,,,,,,,,,,,,,,,,,,,,,,,,,,,,,,,,,,,,,,,,,,,,,,,,,72481,2022-11-10_11h16.40.857,vts_reward_expectancy_bt_OFFLINE,2022.2.4,60.217507348821094,
0,0,1,0,1,0,0,0,hexagon,triangle,2,0,2,0,2,6,30,6,,,,,,,,,,,,,,,,,,,,,,,,,,,,,,,,,,,,,,,,1262.998375969939,1262.998375969939,1262.998375969939,1262.998375969939,1262.998375969939,1262.998375969939,1262.998375969939,1262.998375969939,1262.998375969939,1262.998375969939,a,3.522056457120925,1,757,2,1266.5521801428404,,1268.0539575028233,,,,,,,,,,,,,,,,,,,,,,,,,,,,,,,,,,,,,,,,,,,,,,,,,,,,,,,,,,,,,,,,,,,,,,72481,2022-11-10_11h16.40.857,vts_reward_expectancy_bt_OFFLINE,2022.2.4,60.217507348821094,
0,0,1,0,0,1,0,0,hexagon,circle,2,0,2,0,2,7,31,7,,,,,,,,,,,,,,,,,,,,,,,,,,,,,,,,,,,,,,,,1268.5542595169973,1268.5542595169973,1268.5542595169973,1268.5542595169973,1268.5542595169973,1268.5542595169973,1268.5542595169973,1268.5542595169973,1268.5542595169973,1268.5542595169973,l,1.4197205072268844,10,767,2,1270.0060397170018,,1271.5077722310089,,,,,,,,,,,,,,,,,,,,,,,,,,,,,,,,,,,,,,,,,,,,,,,,,,,,,,,,,,,,,,,,,,,,,,72481,2022-11-10_11h16.40.857,vts_reward_expectancy_bt_OFFLINE,2022.2.4,60.217507348821094,
0,0,1,0,0,0,0,1,hexagon,star,2,0,2,0,2,8,32,8,,,,,,,,,,,,,,,,,,,,,,,,,,,,,,,,,,,,,,,,1272.0082420299295,1272.0082420299295,1272.0082420299295,1272.0082420299295,1272.0082420299295,1272.0082420299295,1272.0082420299295,1272.0082420299295,1272.0082420299295,1272.0082420299295,l,3.0398047941271216,10,777,2,1275.0783019829541,,1276.5800572449807,,,,,,,,,,,,,,,,,,,,,,,,,,,,,,,,,,,,,,,,,,,,,,,,,,,,,,,,,,,,,,,,,,,,,,72481,2022-11-10_11h16.40.857,vts_reward_expectancy_bt_OFFLINE,2022.2.4,60.217507348821094,
1,0,0,0,0,0,0,1,triangle,star,2,0,2,0,2,9,33,2,,,,,,,,,,,,,,,,,,,,,,,,,,,,,,,,,,,,,,,,1277.0806277678348,1277.0806277678348,1277.0806277678348,1277.0806277678348,1277.0806277678348,1277.0806277678348,1277.0806277678348,1277.0806277678348,1277.0806277678348,1277.0806277678348,l,3.234074488049373,1,778,2,1280.3341307500377,,1281.8356930168811,,,,,,,,,,,,,,,,,,,,,,,,,,,,,,,,,,,,,,,,,,,,,,,,,,,,,,,,,,,,,,,,,,,,,,72481,2022-11-10_11h16.40.857,vts_reward_expectancy_bt_OFFLINE,2022.2.4,60.217507348821094,
0,1,0,0,0,0,0,1,circle,star,2,0,2,0,2,10,34,5,,,,,,,,,,,,,,,,,,,,,,,,,,,,,,,,,,,,,,,,1282.336471359944,1282.336471359944,1282.336471359944,1282.336471359944,1282.336471359944,1282.336471359944,1282.336471359944,1282.336471359944,1282.336471359944,1282.336471359944,l,1.9165819371119142,1,779,2,1284.2718291918281,,1285.7733954209834,,,,,,,,,,,,,,,,,,,,,,,,,,,,,,,,,,,,,,,,,,,,,,,,,,,,,,,,,,,,,,,,,,,,,,72481,2022-11-10_11h16.40.857,vts_reward_expectancy_bt_OFFLINE,2022.2.4,60.217507348821094,
1,0,0,0,0,1,0,0,triangle,circle,2,0,2,0,2,11,35,0,,,,,,,,,,,,,,,,,,,,,,,,,,,,,,,,,,,,,,,,1286.2739432309754,1286.2739432309754,1286.2739432309754,1286.2739432309754,1286.2739432309754,1286.2739432309754,1286.2739432309754,1286.2739432309754,1286.2739432309754,1286.2739432309754,a,1.702766695059836,1,780,2,1288.0092059278395,,1289.5108518160414,,,,,,,,,,,,,,,,,,,,,,,,,,,,,,,,,,,,,,,,,,,,,,,,,,,,,,,,,,,,,,,,,,,,,,72481,2022-11-10_11h16.40.857,vts_reward_expectancy_bt_OFFLINE,2022.2.4,60.217507348821094,
1,0,0,0,0,0,1,0,triangle,hexagon,2,0,2,0,3,0,36,1,,,,,,,,,,,,,,,,,,,,,,,,,,,,,,,,,,,,,,,,1290.0114830799866,1290.0114830799866,1290.0114830799866,1290.0114830799866,1290.0114830799866,1290.0114830799866,1290.0114830799866,1290.0114830799866,1290.0114830799866,1290.0114830799866,l,1.4528773881029338,1,781,2,1291.4966253610328,1292.9980240820441,1292.9980240820441,,,,,,,,,,,,,,,,,,,,,,,,,,,,,,,,,,,,,,,,,,,,,,,,,,,,,,,,,,,,,,,,,,,,,,72481,2022-11-10_11h16.40.857,vts_reward_expectancy_bt_OFFLINE,2022.2.4,60.217507348821094,
0,1,0,0,0,0,1,0,circle,hexagon,2,0,2,0,3,1,37,4,,,,,,,,,,,,,,,,,,,,,,,,,,,,,,,,,,,,,,,,1293.4988191828597,1293.4988191828597,1293.4988191828597,1293.4988191828597,1293.4988191828597,1293.4988191828597,1293.4988191828597,1293.4988191828597,1293.4988191828597,1293.4988191828597,a,2.75767285306938,1,782,2,1296.2849078129511,1297.786578147905,1297.786578147905,,,,,,,,,,,,,,,,,,,,,,,,,,,,,,,,,,,,,,,,,,,,,,,,,,,,,,,,,,,,,,,,,,,,,,72481,2022-11-10_11h16.40.857,vts_reward_expectancy_bt_OFFLINE,2022.2.4,60.217507348821094,
0,0,0,1,0,0,1,0,star,hexagon,2,0,2,0,3,2,38,11,,,,,,,,,,,,,,,,,,,,,,,,,,,,,,,,,,,,,,,,1298.2870222758502,1298.2870222758502,1298.2870222758502,1298.2870222758502,1298.2870222758502,1298.2870222758502,1298.2870222758502,1298.2870222758502,1298.2870222758502,1298.2870222758502,l,2.278470237972215,1,783,2,1300.589663982857,,1302.0913905820344,,,,,,,,,,,,,,,,,,,,,,,,,,,,,,,,,,,,,,,,,,,,,,,,,,,,,,,,,,,,,,,,,,,,,,72481,2022-11-10_11h16.40.857,vts_reward_expectancy_bt_OFFLINE,2022.2.4,60.217507348821094,
0,0,1,0,0,0,0,1,hexagon,star,2,0,2,0,3,3,39,8,,,,,,,,,,,,,,,,,,,,,,,,,,,,,,,,,,,,,,,,1302.5919792999048,1302.5919792999048,1302.5919792999048,1302.5919792999048,1302.5919792999048,1302.5919792999048,1302.5919792999048,1302.5919792999048,1302.5919792999048,1302.5919792999048,a,2.788683274295181,1,784,2,1305.411896935897,1306.9134310109075,1306.9134310109075,,,,,,,,,,,,,,,,,,,,,,,,,,,,,,,,,,,,,,,,,,,,,,,,,,,,,,,,,,,,,,,,,,,,,,72481,2022-11-10_11h16.40.857,vts_reward_expectancy_bt_OFFLINE,2022.2.4,60.217507348821094,
0,0,1,0,0,1,0,0,hexagon,circle,2,0,2,0,3,4,40,7,,,,,,,,,,,,,,,,,,,,,,,,,,,,,,,,,,,,,,,,1307.413869380951,1307.413869380951,1307.413869380951,1307.413869380951,1307.413869380951,1307.413869380951,1307.413869380951,1307.413869380951,1307.413869380951,1307.413869380951,l,0.9036870459094644,1,785,2,1308.3482682800386,,1309.8502329420298,,,,,,,,,,,,,,,,,,,,,,,,,,,,,,,,,,,,,,,,,,,,,,,,,,,,,,,,,,,,,,,,,,,,,,72481,2022-11-10_11h16.40.857,vts_reward_expectancy_bt_OFFLINE,2022.2.4,60.217507348821094,
0,1,0,0,0,0,0,1,circle,star,2,0,2,0,3,5,41,5,,,,,,,,,,,,,,,,,,,,,,,,,,,,,,,,,,,,,,,,1310.3505918059964,1310.3505918059964,1310.3505918059964,1310.3505918059964,1310.3505918059964,1310.3505918059964,1310.3505918059964,1310.3505918059964,1310.3505918059964,1310.3505918059964,a,1.544691105140373,10,795,2,1311.9196902159601,,1313.4209172548726,,,,,,,,,,,,,,,,,,,,,,,,,,,,,,,,,,,,,,,,,,,,,,,,,,,,,,,,,,,,,,,,,,,,,,72481,2022-11-10_11h16.40.857,vts_reward_expectancy_bt_OFFLINE,2022.2.4,60.217507348821094,
0,0,0,1,0,1,0,0,star ,circle,2,0,2,0,3,6,42,10,,,,,,,,,,,,,,,,,,,,,,,,,,,,,,,,,,,,,,,,1313.9212964968756,1313.9212964968756,1313.9212964968756,1313.9212964968756,1313.9212964968756,1313.9212964968756,1313.9212964968756,1313.9212964968756,1313.9212964968756,1313.9212964968756,l,0.9436756460927427,10,805,2,1314.8887509859633,,1316.3907915179152,,,,,,,,,,,,,,,,,,,,,,,,,,,,,,,,,,,,,,,,,,,,,,,,,,,,,,,,,,,,,,,,,,,,,,72481,2022-11-10_11h16.40.857,vts_reward_expectancy_bt_OFFLINE,2022.2.4,60.217507348821094,
1,0,0,0,0,0,0,1,triangle,star,2,0,2,0,3,7,43,2,,,,,,,,,,,,,,,,,,,,,,,,,,,,,,,,,,,,,,,,1316.8911303710192,1316.8911303710192,1316.8911303710192,1316.8911303710192,1316.8911303710192,1316.8911303710192,1316.8911303710192,1316.8911303710192,1316.8911303710192,1316.8911303710192,a,1.6637667131144553,1,806,2,1318.5766545229126,,1320.0780319608748,,,,,,,,,,,,,,,,,,,,,,,,,,,,,,,,,,,,,,,,,,,,,,,,,,,,,,,,,,,,,,,,,,,,,,72481,2022-11-10_11h16.40.857,vts_reward_expectancy_bt_OFFLINE,2022.2.4,60.217507348821094,
1,0,0,0,0,1,0,0,triangle,circle,2,0,2,0,3,8,44,0,,,,,,,,,,,,,,,,,,,,,,,,,,,,,,,,,,,,,,,,1320.5784687509295,1320.5784687509295,1320.5784687509295,1320.5784687509295,1320.5784687509295,1320.5784687509295,1320.5784687509295,1320.5784687509295,1320.5784687509295,1320.5784687509295,l,2.477418137015775,10,816,2,1323.0819820880424,,1324.5831865728833,,,,,,,,,,,,,,,,,,,,,,,,,,,,,,,,,,,,,,,,,,,,,,,,,,,,,,,,,,,,,,,,,,,,,,72481,2022-11-10_11h16.40.857,vts_reward_expectancy_bt_OFFLINE,2022.2.4,60.217507348821094,
0,1,0,0,1,0,0,0,circle,triangle,2,0,2,0,3,9,45,3,,,,,,,,,,,,,,,,,,,,,,,,,,,,,,,,,,,,,,,,1325.0835169448983,1325.0835169448983,1325.0835169448983,1325.0835169448983,1325.0835169448983,1325.0835169448983,1325.0835169448983,1325.0835169448983,1325.0835169448983,1325.0835169448983,a,1.122133043128997,10,826,2,1326.234975446947,1327.7366311058868,1327.7366311058868,,,,,,,,,,,,,,,,,,,,,,,,,,,,,,,,,,,,,,,,,,,,,,,,,,,,,,,,,,,,,,,,,,,,,,72481,2022-11-10_11h16.40.857,vts_reward_expectancy_bt_OFFLINE,2022.2.4,60.217507348821094,
0,0,0,1,1,0,0,0,star,triangle,2,0,2,0,3,10,46,9,,,,,,,,,,,,,,,,,,,,,,,,,,,,,,,,,,,,,,,,1328.2371182709467,1328.2371182709467,1328.2371182709467,1328.2371182709467,1328.2371182709467,1328.2371182709467,1328.2371182709467,1328.2371182709467,1328.2371182709467,1328.2371182709467,l,1.4023108889814466,1,827,2,1329.6721394418273,1331.173610220896,1331.173610220896,,,,,,,,,,,,,,,,,,,,,,,,,,,,,,,,,,,,,,,,,,,,,,,,,,,,,,,,,,,,,,,,,,,,,,72481,2022-11-10_11h16.40.857,vts_reward_expectancy_bt_OFFLINE,2022.2.4,60.217507348821094,
0,0,1,0,1,0,0,0,hexagon,triangle,2,0,2,0,3,11,47,6,,,,,,,,,,,,,,,,,,,,,,,,,,,,,,,,,,,,,,,,1331.6743495468982,1331.6743495468982,1331.6743495468982,1331.6743495468982,1331.6743495468982,1331.6743495468982,1331.6743495468982,1331.6743495468982,1331.6743495468982,1331.6743495468982,l,2.149252188159153,1,828,2,1333.8433081109542,,1335.3450581110083,,,,,,,,,,,,,,,,,,,,,,,,,,,,,,,,,,,,,,,,,,,,,,,,,,,,,,,,,,,,,,,,,,,,,,72481,2022-11-10_11h16.40.857,vts_reward_expectancy_bt_OFFLINE,2022.2.4,60.217507348821094,
,,,,,,,,,,,,,,,,,,0,0,0,0,0,0,0,0,,,,,,,,,,,,,,,,,,,,,,,,,,,,,,,,,,,,,,,,,,,,,,,,,1404.0706740419846,,U,139,circle,0.0018390140030533075,1399.5323870319407,1401.0171627209056,1401.0171627209056,1401.0171627209056,1,0,f,1.5255463041830808,0,1402.5856615928933,,,,,,,,,,,,,,,,,,,,,,,,,,,,,,,,,,,,,,,,,,,,,,,,,,,,,,,72481,2022-11-10_11h16.40.857,vts_reward_expectancy_bt_OFFLINE,2022.2.4,60.217507348821094,
,,,,,,,,,,,,,,,,,,0,0,0,0,1,0,1,0,,,,,,,,,,,,,,,,,,,,,,,,,,,,,,,,,,,,,,,,,,,,,,,,,1409.2428649999201,,D,132,hexagon,0.0011821039952337742,1405.055374781834,1406.556645910954,1406.556645910954,1406.556645910954,1,0,d,1.1614276531618088,0,1407.7413630979136,,,,,,,,,,,,,,,,,,,,,,,,,,,,,,,,,,,,,,,,,,,,,,,,,,,,,,,72481,2022-11-10_11h16.40.857,vts_reward_expectancy_bt_OFFLINE,2022.2.4,60.217507348821094,
,,,,,,,,,,,,,,,,,,0,0,0,0,2,0,2,0,,,,,,,,,,,,,,,,,,,,,,,,,,,,,,,,,,,,,,,,,,,,,,,,,1414.4154757210054,,W,146,star,0.0012567311059683561,1410.2440305210184,1411.7293161398266,1411.7293161398266,1411.7293161398266,1,0,f,1.1528192670084536,0,1412.9136535599828,,,,,,,,,,,,,,,,,,,,,,,,,,,,,,,,,,,,,,,,,,,,,,,,,,,,,,,72481,2022-11-10_11h16.40.857,vts_reward_expectancy_bt_OFFLINE,2022.2.4,60.217507348821094,
,,,,,,,,,,,,,,,,,,0,0,0,0,3,0,3,0,,,,,,,,,,,,,,,,,,,,,,,,,,,,,,,,,,,,,,,,,,,,,,,,,1421.1729644809384,,S,174,triangle,0.001281518954783678,1415.400571353035,1416.901400029892,1416.901400029892,1416.901400029892,1,0,f,2.7440174710936844,0,1419.671138494974,1421.1729644809384,,,,,,,,,,,,,,,,,,,,,,,,,,,,,,,,,,,,,,,,,,,,,,,,,,,,,,72481,2022-11-10_11h16.40.857,vts_reward_expectancy_bt_OFFLINE,2022.2.4,60.217507348821094,
,,,,,,,,,,,,,,,,,,0,0,0,0,4,0,4,0,,,,,,,,,,,,,,,,,,,,,,,,,,,,,,,,,,,,,,,,,,,,,,,,,1427.5465195369907,,F,181,star,0.001142274122685194,1422.157311683055,1423.6589327719994,1423.6589327719994,1423.6589327719994,1,0,d,2.364916159072891,0,1426.0449132828508,1427.5465195369907,,,,,,,,,,,,,,,,,,,,,,,,,,,,,,,,,,,,,,,,,,,,,,,,,,,,,,72481,2022-11-10_11h16.40.857,vts_reward_expectancy_bt_OFFLINE,2022.2.4,60.217507348821094,
,,,,,,,,,,,,,,,,,,0,0,0,0,5,0,5,0,,,,,,,,,,,,,,,,,,,,,,,,,,,,,,,,,,,,,,,,,,,,,,,,,1434.5043897819705,,H,160,triangle,0.0012121300678700209,1428.5309216249734,1430.0327375249472,1430.0327375249472,1430.0327375249472,1,0,d,2.943648010957986,0,1433.0023753780406,,,,,,,,,,,,,,,,,,,,,,,,,,,,,,,,,,,,,,,,,,,,,,,,,,,,,,,72481,2022-11-10_11h16.40.857,vts_reward_expectancy_bt_OFFLINE,2022.2.4,60.217507348821094,
,,,,,,,,,,,,,,,,,,0,0,0,0,6,0,6,0,,,,,,,,,,,,,,,,,,,,,,,,,,,,,,,,,,,,,,,,,,,,,,,,,1439.876715017017,,Y,125,hexagon,0.0012144320644438267,1435.4886386110447,1436.990117750829,1436.990117750829,1436.990117750829,1,0,f,1.364043298177421,0,1438.3750847298652,1439.876715017017,,,,,,,,,,,,,,,,,,,,,,,,,,,,,,,,,,,,,,,,,,,,,,,,,,,,,,72481,2022-11-10_11h16.40.857,vts_reward_expectancy_bt_OFFLINE,2022.2.4,60.217507348821094,
,,,,,,,,,,,,,,,,,,0,0,0,0,7,0,7,0,,,,,,,,,,,,,,,,,,,,,,,,,,,,,,,,,,,,,,,,,,,,,,,,,1444.9657101398334,,B,167,circle,0.000900499988347292,1440.8617731349077,1442.3628394820262,1442.3628394820262,1442.3628394820262,1,0,d,1.0760690399911255,0,1443.464143211022,,,,,,,,,,,,,,,,,,,,,,,,,,,,,,,,,,,,,,,,,,,,,,,,,,,,,,,72481,2022-11-10_11h16.40.857,vts_reward_expectancy_bt_OFFLINE,2022.2.4,60.217507348821094,
,,,,,,,,,,,,,,,,,,0,0,0,0,8,0,8,0,,,,,,,,,,,,,,,,,,,,,,,,,,,,,,,,,,,,,,,,,,,,,,,,,1450.1714639998972,,U,139,triangle,0.0011515561491250992,1445.9500304160174,1447.451639950974,1447.451639950974,1447.451639950974,1,0,f,1.1963005259167403,0,1448.6698544018436,,,,,,,,,,,,,,,,,,,,,,,,,,,,,,,,,,,,,,,,,,,,,,,,,,,,,,,72481,2022-11-10_11h16.40.857,vts_reward_expectancy_bt_OFFLINE,2022.2.4,60.217507348821094,
,,,,,,,,,,,,,,,,,,0,0,0,0,9,0,9,0,,,,,,,,,,,,,,,,,,,,,,,,,,,,,,,,,,,,,,,,,,,,,,,,,1454.9102473668754,,D,132,hexagon,0.0014054400380700827,1451.1559571330436,1452.6576545860153,1452.6576545860153,1452.6576545860153,1,0,d,0.727863937150687,0,1453.4083822430111,,,,,,,,,,,,,,,,,,,,,,,,,,,,,,,,,,,,,,,,,,,,,,,,,,,,,,,72481,2022-11-10_11h16.40.857,vts_reward_expectancy_bt_OFFLINE,2022.2.4,60.217507348821094,
,,,,,,,,,,,,,,,,,,,,,,,,,,0,0,0,0,0,0,0,0,,,,,,,,,,,,,,,,,,,,,,,,,,,,,,,,,,,,,,,,,1480.6718550508376,,Y,125,circle,0.0017983948346227407,,,,,1,0,,,1,1479.1702777708415,1480.6718550508376,1476.133557536872,1477.6351834498346,1477.6351834498346,1477.6351834498346,j,1.5140349681023508,,,,,,,,,,,,,,,,,,,,,,,,,,,,,,,,,,,,,,,,,,,,,,,,72481,2022-11-10_11h16.40.857,vts_reward_expectancy_bt_OFFLINE,2022.2.4,60.217507348821094,
,,,,,,,,,,,,,,,,,,,,,,,,,,0,0,0,0,1,0,1,0,,,,,,,,,,,,,,,,,,,,,,,,,,,,,,,,,,,,,,,,,1485.4770810080227,,D,139,triangle,0.0009176558814942837,,,,,1,0,,,1,1483.9753165249713,,1481.6562151068356,1483.1579137719236,1483.1579137719236,1483.1579137719236,j,0.7961138940881938,,,,,,,,,,,,,,,,,,,,,,,,,,,,,,,,,,,,,,,,,,,,,,,,72481,2022-11-10_11h16.40.857,vts_reward_expectancy_bt_OFFLINE,2022.2.4,60.217507348821094,
,,,,,,,,,,,,,,,,,,,,,,,,,,0,0,0,0,2,0,2,0,,,,,,,,,,,,,,,,,,,,,,,,,,,,,,,,,,,,,,,,,1490.316079315031,,S,174,hexagon,0.0012486400082707405,,,,,1,0,,,1,1488.814227445051,,1486.4614196768962,1487.963233500952,1487.963233500952,1487.963233500952,k,0.8182614212855697,,,,,,,,,,,,,,,,,,,,,,,,,,,,,,,,,,,,,,,,,,,,,,,,72481,2022-11-10_11h16.40.857,vts_reward_expectancy_bt_OFFLINE,2022.2.4,60.217507348821094,
,,,,,,,,,,,,,,,,,,,,,,,,,,0,0,0,0,3,0,3,0,,,,,,,,,,,,,,,,,,,,,,,,,,,,,,,,,,,,,,,,,1495.1710038669407,,H,132,star,0.0014078731182962656,,,,,1,0,,,1,1493.6695417598821,,1491.300053235842,1492.8017165770289,1492.8017165770289,1492.8017165770289,j,0.8403212900739163,,,,,,,,,,,,,,,,,,,,,,,,,,,,,,,,,,,,,,,,,,,,,,,,72481,2022-11-10_11h16.40.857,vts_reward_expectancy_bt_OFFLINE,2022.2.4,60.217507348821094,
,,,,,,,,,,,,,,,,,,,,,,,,,,0,0,0,0,4,0,4,0,,,,,,,,,,,,,,,,,,,,,,,,,,,,,,,,,,,,,,,,,1500.3268246129155,,B,146,triangle,0.0014235670678317547,,,,,1,0,,,1,1498.8251512229908,,1496.1556565929204,1497.6572300810367,1497.6572300810367,1497.6572300810367,j,1.135966407135129,,,,,,,,,,,,,,,,,,,,,,,,,,,,,,,,,,,,,,,,,,,,,,,,72481,2022-11-10_11h16.40.857,vts_reward_expectancy_bt_OFFLINE,2022.2.4,60.217507348821094,
,,,,,,,,,,,,,,,,,,,,,,,,,,0,0,0,0,5,0,5,0,,,,,,,,,,,,,,,,,,,,,,,,,,,,,,,,,,,,,,,,,1505.6494366808329,,F,167,star,0.0012353567872196436,,,,,0,0,,,1,1504.1643555208575,,1501.3112173520494,1502.8129741200246,1502.8129741200246,1502.8129741200246,j,1.3130912901833653,,,,,,,,,,,,,,,,,,,,,,,,,,,,,,,,,,,,,,,,,,,,,,,,72481,2022-11-10_11h16.40.857,vts_reward_expectancy_bt_OFFLINE,2022.2.4,60.217507348821094,
,,,,,,,,,,,,,,,,,,,,,,,,,,0,0,0,0,6,0,6,0,,,,,,,,,,,,,,,,,,,,,,,,,,,,,,,,,,,,,,,,,1510.3713638558984,,U,160,circle,0.0011070359032601118,,,,,0,1,,,1,1508.869667120045,,1506.6339454809204,1508.1355325980112,1508.1355325980112,1508.1355325980112,j,0.7044365492183715,,,,,,,,,,,,,,,,,,,,,,,,,,,,,,,,,,,,,,,,,,,,,,,,72481,2022-11-10_11h16.40.857,vts_reward_expectancy_bt_OFFLINE,2022.2.4,60.217507348821094,
,,,,,,,,,,,,,,,,,,,,,,,,,,0,0,0,0,7,0,7,0,,,,,,,,,,,,,,,,,,,,,,,,,,,,,,,,,,,,,,,,,1515.3099590709899,,W,181,hexagon,0.001289515057578683,,,,,0,1,,,1,1513.80814852193,,1511.3555917020421,1512.8574719680473,1512.8574719680473,1512.8574719680473,j,0.923312921077013,,,,,,,,,,,,,,,,,,,,,,,,,,,,,,,,,,,,,,,,,,,,,,,,72481,2022-11-10_11h16.40.857,vts_reward_expectancy_bt_OFFLINE,2022.2.4,60.217507348821094,
,,,,,,,,,,,,,,,,,,,,,,,,,,0,0,0,0,8,0,8,0,,,,,,,,,,,,,,,,,,,,,,,,,,,,,,,,,,,,,,,,,1520.2987592800055,,Y,125,hexagon,0.0012587429955601692,,,,,1,1,,,1,1518.7984867179766,,1516.2944821799174,1517.795996721834,1517.795996721834,1517.795996721834,j,0.9791646341327578,,,,,,,,,,,,,,,,,,,,,,,,,,,,,,,,,,,,,,,,,,,,,,,,72481,2022-11-10_11h16.40.857,vts_reward_expectancy_bt_OFFLINE,2022.2.4,60.217507348821094,
,,,,,,,,,,,,,,,,,,,,,,,,,,0,0,0,0,9,0,9,0,,,,,,,,,,,,,,,,,,,,,,,,,,,,,,,,,,,,,,,,,1525.1543559278361,,D,139,circle,0.0011300179176032543,,,,,1,0,,,1,1523.6526827299967,,1521.2832342430484,1522.7848064559512,1522.7848064559512,1522.7848064559512,j,0.8409465281292796,,,,,,,,,,,,,,,,,,,,,,,,,,,,,,,,,,,,,,,,,,,,,,,,72481,2022-11-10_11h16.40.857,vts_reward_expectancy_bt_OFFLINE,2022.2.4,60.217507348821094,
,,,,,,,,,,,,,,,,,,,,,,,,,,1,0,1,0,0,0,0,0,,,,,,,,,,,,,,,,,,,,,,,,,,,,,,,,,,,,,,,,,1535.3819708570372,,W,125,circle,0.001976258121430874,,,,,1,0,,,2,1533.8805830348283,1535.3819708570372,1531.6779395169578,1533.179706956027,1533.179706956027,1533.179706956027,j,0.6706538631115109,,,,,,,,,,,,,,,,,,,,,,,,,,,,,,,,,,,,,,,,,,,,,,,,72481,2022-11-10_11h16.40.857,vts_reward_expectancy_bt_OFFLINE,2022.2.4,60.217507348821094,
,,,,,,,,,,,,,,,,,,,,,,,,,,1,0,1,0,1,0,1,0,,,,,,,,,,,,,,,,,,,,,,,,,,,,,,,,,,,,,,,,,1540.0375564608257,,Y,132,triangle,0.0009513888508081436,,,,,1,0,,,2,1538.5356290009804,,1536.366699072998,1537.8683831568342,1537.8683831568342,1537.8683831568342,j,0.6416998072527349,,,,,,,,,,,,,,,,,,,,,,,,,,,,,,,,,,,,,,,,,,,,,,,,72481,2022-11-10_11h16.40.857,vts_reward_expectancy_bt_OFFLINE,2022.2.4,60.217507348821094,
,,,,,,,,,,,,,,,,,,,,,,,,,,1,0,1,0,2,0,2,0,,,,,,,,,,,,,,,,,,,,,,,,,,,,,,,,,,,,,,,,,1544.8428651699796,,B,167,hexagon,0.0013418470043689013,,,,,1,0,,,2,1543.3409563209862,,1541.0215700408444,1542.5234076068737,1542.5234076068737,1542.5234076068737,k,0.7919444201979786,,,,,,,,,,,,,,,,,,,,,,,,,,,,,,,,,,,,,,,,,,,,,,,,72481,2022-11-10_11h16.40.857,vts_reward_expectancy_bt_OFFLINE,2022.2.4,60.217507348821094,
,,,,,,,,,,,,,,,,,,,,,,,,,,1,0,1,0,3,0,3,0,,,,,,,,,,,,,,,,,,,,,,,,,,,,,,,,,,,,,,,,,1549.6979136709124,,D,181,star,0.0012381989508867264,,,,,1,0,,,2,1548.1961631849408,,1545.8271160928998,1547.3289469659794,1547.3289469659794,1547.3289469659794,k,0.8441667072474957,,,,,,,,,,,,,,,,,,,,,,,,,,,,,,,,,,,,,,,,,,,,,,,,72481,2022-11-10_11h16.40.857,vts_reward_expectancy_bt_OFFLINE,2022.2.4,60.217507348821094,
,,,,,,,,,,,,,,,,,,,,,,,,,,1,0,1,0,4,0,4,0,,,,,,,,,,,,,,,,,,,,,,,,,,,,,,,,,,,,,,,,,1554.503391470993,,H,160,star,0.0012402059510350227,,,,,1,0,,,2,1553.0014635669068,,1550.6823805619497,1552.1839222328272,1552.1839222328272,1552.1839222328272,k,0.7927426211535931,,,,,,,,,,,,,,,,,,,,,,,,,,,,,,,,,,,,,,,,,,,,,,,,72481,2022-11-10_11h16.40.857,vts_reward_expectancy_bt_OFFLINE,2022.2.4,60.217507348821094,
,,,,,,,,,,,,,,,,,,,,,,,,,,1,0,1,0,5,0,5,0,,,,,,,,,,,,,,,,,,,,,,,,,,,,,,,,,,,,,,,,,1559.2250265430193,,U,174,circle,0.0012860170099884272,,,,,1,0,,,2,1557.723602610873,,1555.4878148660064,1556.9893105130177,1556.9893105130177,1556.9893105130177,k,0.7022397632244974,,,,,,,,,,,,,,,,,,,,,,,,,,,,,,,,,,,,,,,,,,,,,,,,72481,2022-11-10_11h16.40.857,vts_reward_expectancy_bt_OFFLINE,2022.2.4,60.217507348821094,
,,,,,,,,,,,,,,,,,,,,,,,,,,1,0,1,0,6,0,6,0,,,,,,,,,,,,,,,,,,,,,,,,,,,,,,,,,,,,,,,,,1563.9304349150043,,S,139,hexagon,0.0010604250710457563,,,,,1,0,,,2,1562.4287785328925,,1560.2096134198364,1561.7112235878594,1561.7112235878594,1561.7112235878594,j,0.6845413101837039,,,,,,,,,,,,,,,,,,,,,,,,,,,,,,,,,,,,,,,,,,,,,,,,72481,2022-11-10_11h16.40.857,vts_reward_expectancy_bt_OFFLINE,2022.2.4,60.217507348821094,
,,,,,,,,,,,,,,,,,,,,,,,,,,1,0,1,0,7,0,7,0,,,,,,,,,,,,,,,,,,,,,,,,,,,,,,,,,,,,,,,,,1568.5687817549333,,F,146,triangle,0.0011921811383217573,,,,,1,0,,,2,1567.0670651800465,,1564.9147188810166,1566.4162181660067,1566.4162181660067,1566.4162181660067,j,0.6245671061333269,,,,,,,,,,,,,,,,,,,,,,,,,,,,,,,,,,,,,,,,,,,,,,,,72481,2022-11-10_11h16.40.857,vts_reward_expectancy_bt_OFFLINE,2022.2.4,60.217507348821094,
,,,,,,,,,,,,,,,,,,,,,,,,,,1,0,1,0,8,0,8,0,,,,,,,,,,,,,,,,,,,,,,,,,,,,,,,,,,,,,,,,,1573.3907317498233,,W,125,circle,0.0013515569735318422,,,,,1,0,,,2,1571.8889762980398,1573.3907317498233,1569.5531276548281,1571.054531696951,1571.054531696951,1571.054531696951,j,0.8021421381272376,,,,,,,,,,,,,,,,,,,,,,,,,,,,,,,,,,,,,,,,,,,,,,,,72481,2022-11-10_11h16.40.857,vts_reward_expectancy_bt_OFFLINE,2022.2.4,60.217507348821094,
,,,,,,,,,,,,,,,,,,,,,,,,,,1,0,1,0,9,0,9,0,,,,,,,,,,,,,,,,,,,,,,,,,,,,,,,,,,,,,,,,,1578.262749077985,,Y,132,triangle,0.0005761848296970129,,,,,1,0,,,2,1576.761112737935,,1574.3751495520119,1575.8770706129726,1575.8770706129726,1575.8770706129726,j,0.8518788581714034,,,,,,,,,,,,,,,,,,,,,,,,,,,,,,,,,,,,,,,,,,,,,,,,72481,2022-11-10_11h16.40.857,vts_reward_expectancy_bt_OFFLINE,2022.2.4,60.217507348821094,
,,,,,,,,,,,,,,,,,,,,,,,,,,,,,,,,,,0,0,0,0,0,0,0,0,,,,,,,,,,,,,,,,,,,,,,,,,,,,0,828,,,,1628.7851728228852,,W,181,star,0.0029432568699121475,,,,,0,0,,,3,,,,,,,,,1623.8798641818576,1623.8798641818576,1623.8798641818576,1623.8798641818576,1625.3648098378908,1625.3648098378908,1625.3648098378908,1625.3648098378908,1625.3816074149217,1625.3816074149217,1625.3816074149217,1625.3816074149217,-1,number,NA,j,1.8786692400462925,vtsPrac,1627.283690516837,,,,,,,,,,,,,,,,,,,,,,,,,,,,,72481,2022-11-10_11h16.40.857,vts_reward_expectancy_bt_OFFLINE,2022.2.4,60.217507348821094,
,,,,,,,,,,,,,,,,,,,,,,,,,,,,,,,,,,0,0,0,0,1,0,1,0,,,,,,,,,,,,,,,,,,,,,,,,,,,,0,828,,,,1635.5092669508886,,H,146,circle,0.0009346138685941696,,,,,1,1,,,3,,,,,,,,,1629.7539022129495,1629.7539022129495,1629.7539022129495,1629.7539022129495,1631.2548857908696,1631.2548857908696,1631.2548857908696,1631.2548857908696,1631.2548857908696,1631.2548857908696,1631.2548857908696,1631.2548857908696,repeat,number,numRpt,j,2.727776176063344,vtsPrac,1634.0243089299183,,,,,,,,,,,,,,,,,,,,,,,,,,,,,72481,2022-11-10_11h16.40.857,vts_reward_expectancy_bt_OFFLINE,2022.2.4,60.217507348821094,
,,,,,,,,,,,,,,,,,,,,,,,,,,,,,,,,,,0,0,0,0,2,0,2,0,,,,,,,,,,,,,,,,,,,,,,,,,,,,0,828,,,,1641.5827454510145,,B,125,circle,0.0011512220371514559,,,,,1,0,,,3,,,,,,,,,1636.4948640018702,1636.4948640018702,1636.4948640018702,1636.4948640018702,1637.995304472046,1637.995304472046,1637.995304472046,1637.995304472046,1637.995304472046,1637.995304472046,1637.995304472046,1637.995304472046,repeat,number,numRpt,j,2.0533083309419453,vtsPrac,1640.0812298429664,,,,,,,,,,,,,,,,,,,,,,,,,,,,,72481,2022-11-10_11h16.40.857,vts_reward_expectancy_bt_OFFLINE,2022.2.4,60.217507348821094,
,,,,,,,,,,,,,,,,,,,,,,,,,,,,,,,,,,0,0,0,0,3,0,3,0,,,,,,,,,,,,,,,,,,,,,,,,,,,,0,828,,,,1646.3214027369395,,S,132,star,0.0012953199911862612,,,,,1,0,,,3,,,,,,,,,1642.5677468460053,1642.5677468460053,1642.5677468460053,1642.5677468460053,1644.0687613219488,1644.0687613219488,1644.0687613219488,1644.0687613219488,1644.0687613219488,1644.0687613219488,1644.0687613219488,1644.0687613219488,repeat,number,numRpt,j,0.7262662861030549,vtsPrac,1644.8196384359617,1646.3214027369395,,,,,,,,,,,,,,,,,,,,,,,,,,,,72481,2022-11-10_11h16.40.857,vts_reward_expectancy_bt_OFFLINE,2022.2.4,60.217507348821094,
,,,,,,,,,,,,,,,,,,,,,,,,,,,,,,,,,,0,0,0,0,4,0,4,0,,,,,,,,,,,,,,,,,,,,,,,,,,,,0,828,,,,1651.1600474119186,,W,181,triangle,0.000993622001260519,,,,,1,0,,,3,,,,,,,,,1647.305710311979,1647.305710311979,1647.305710311979,1647.305710311979,1648.807517716894,1648.807517716894,1648.807517716894,1648.807517716894,1648.807517716894,1648.807517716894,1648.807517716894,1648.807517716894,switch,letter,lettSwt,f,0.8248039272148162,vtsPrac,1649.6583315099124,,,,,,,,,,,,,,,,,,,,,,,,,,,,,72481,2022-11-10_11h16.40.857,vts_reward_expectancy_bt_OFFLINE,2022.2.4,60.217507348821094,
,,,,,,,,,,,,,,,,,,,,,,,,,,,,,,,,,,0,0,0,0,5,0,5,0,,,,,,,,,,,,,,,,,,,,,,,,,,,,0,828,,,,1658.0341907718685,,H,146,star,0.001275544986128807,,,,,1,0,,,3,,,,,,,,,1652.144504843047,1652.144504843047,1652.144504843047,1652.144504843047,1653.6460390929133,1653.6460390929133,1653.6460390929133,1653.6460390929133,1653.6460390929133,1653.6460390929133,1653.6460390929133,1653.6460390929133,repeat,letter,lettRpt,d,2.860590125899762,vtsPrac,1656.5323316319846,,,,,,,,,,,,,,,,,,,,,,,,,,,,,72481,2022-11-10_11h16.40.857,vts_reward_expectancy_bt_OFFLINE,2022.2.4,60.217507348821094,
,,,,,,,,,,,,,,,,,,,,,,,,,,,,,,,,,,0,0,0,0,6,0,6,0,,,,,,,,,,,,,,,,,,,,,,,,,,,,0,828,,,,1663.373443966033,,B,125,circle,0.001368131022900343,,,,,1,0,,,3,,,,,,,,,1659.0186466700397,1659.0186466700397,1659.0186466700397,1659.0186466700397,1660.520390767837,1660.520390767837,1660.520390767837,1660.520390767837,1660.520390767837,1660.520390767837,1660.520390767837,1660.520390767837,switch,number,numSwt,j,1.3310109921731055,vtsPrac,1661.8716241719667,1663.373443966033,,,,,,,,,,,,,,,,,,,,,,,,,,,,72481,2022-11-10_11h16.40.857,vts_reward_expectancy_bt_OFFLINE,2022.2.4,60.217507348821094,
,,,,,,,,,,,,,,,,,,,,,,,,,,,,,,,,,,0,0,0,0,7,0,7,0,,,,,,,,,,,,,,,,,,,,,,,,,,,,0,828,,,,1668.312312226044,,S,132,hexagon,0.0010692409705370665,,,,,1,0,,,3,,,,,,,,,1664.3578317658976,1664.3578317658976,1664.3578317658976,1664.3578317658976,1665.8594605859835,1665.8594605859835,1665.8594605859835,1665.8594605859835,1665.8594605859835,1665.8594605859835,1665.8594605859835,1665.8594605859835,switch,letter,lettSwt,f,0.9190547252073884,vtsPrac,1666.810464979848,1668.312312226044,,,,,,,,,,,,,,,,,,,,,,,,,,,,72481,2022-11-10_11h16.40.857,vts_reward_expectancy_bt_OFFLINE,2022.2.4,60.217507348821094,
,,,,,,,,,,,,,,,,,,,,,,,,,,,,,,,,,,0,0,0,0,8,0,8,0,,,,,,,,,,,,,,,,,,,,,,,,,,,,0,828,,,,1673.017361166887,,Y,174,hexagon,0.0012089700903743505,,,,,1,0,,,3,,,,,,,,,1669.2969195349142,1669.2969195349142,1669.2969195349142,1669.2969195349142,1670.7983673098497,1670.7983673098497,1670.7983673098497,1670.7983673098497,1670.7983673098497,1670.7983673098497,1670.7983673098497,1670.7983673098497,repeat,letter,lettRpt,f,0.6846431090962142,vtsPrac,1671.5156394699588,1673.017361166887,,,,,,,,,,,,,,,,,,,,,,,,,,,,72481,2022-11-10_11h16.40.857,vts_reward_expectancy_bt_OFFLINE,2022.2.4,60.217507348821094,
,,,,,,,,,,,,,,,,,,,,,,,,,,,,,,,,,,0,0,0,0,9,0,9,0,,,,,,,,,,,,,,,,,,,,,,,,,,,,0,828,,,,1679.6247616158798,,W,160,circle,0.0011053008493036032,,,,,1,0,,,3,,,,,,,,,1674.0017829299904,1674.0017829299904,1674.0017829299904,1674.0017829299904,1675.503320937045,1675.503320937045,1675.503320937045,1675.503320937045,1675.503320937045,1675.503320937045,1675.503320937045,1675.503320937045,switch,number,numSwt,k,2.5935844781342894,vtsPrac,1678.1229641230311,1679.6247616158798,,,,,,,,,,,,,,,,,,,,,,,,,,,,72481,2022-11-10_11h16.40.857,vts_reward_expectancy_bt_OFFLINE,2022.2.4,60.217507348821094,
,,,,,,,,,,,,,,,,,,,,,,,,,,,,,,,,,,0,0,0,0,10,0,10,0,,,,,,,,,,,,,,,,,,,,,,,,,,,,0,828,,,,1685.0303330249153,,H,181,hexagon,0.0011230770032852888,,,,,1,0,,,3,,,,,,,,,1680.6090852080379,1680.6090852080379,1680.6090852080379,1680.6090852080379,1682.1107805848587,1682.1107805848587,1682.1107805848587,1682.1107805848587,1682.1107805848587,1682.1107805848587,1682.1107805848587,1682.1107805848587,switch,letter,lettSwt,d,1.399754072073847,vtsPrac,1683.528950986918,,,,,,,,,,,,,,,,,,,,,,,,,,,,,72481,2022-11-10_11h16.40.857,vts_reward_expectancy_bt_OFFLINE,2022.2.4,60.217507348821094,
,,,,,,,,,,,,,,,,,,,,,,,,,,,,,,,,,,0,0,0,0,11,0,11,0,,,,,,,,,,,,,,,,,,,,,,,,,,,,0,828,,,,1690.3864830660168,,S,146,star,0.0013294161763042212,,,,,1,0,,,3,,,,,,,,,1686.0149341679644,1686.0149341679644,1686.0149341679644,1686.0149341679644,1687.5167351558339,1687.5167351558339,1687.5167351558339,1687.5167351558339,1687.5167351558339,1687.5167351558339,1687.5167351558339,1687.5167351558339,switch,number,numSwt,j,1.3476076410152018,vtsPrac,1688.8849491009023,,,,,,,,,,,,,,,,,,,,,,,,,,,,,72481,2022-11-10_11h16.40.857,vts_reward_expectancy_bt_OFFLINE,2022.2.4,60.217507348821094,
,,,,,,,,,,,,,,,,,,,,,,,,,,,,,,,,,,0,0,0,0,12,0,12,0,,,,,,,,,,,,,,,,,,,,,,,,,,,,0,828,,,,1695.992637194926,,S,146,hexagon,0.0010455730371177197,,,,,1,0,,,3,,,,,,,,,1691.3708987359423,1691.3708987359423,1691.3708987359423,1691.3708987359423,1692.8726579109207,1692.8726579109207,1692.8726579109207,1692.8726579109207,1692.8726579109207,1692.8726579109207,1692.8726579109207,1692.8726579109207,switch,letter,lettSwt,f,1.5950273980852216,vtsPrac,1694.4910258620512,1695.992637194926,,,,,,,,,,,,,,,,,,,,,,,,,,,,72481,2022-11-10_11h16.40.857,vts_reward_expectancy_bt_OFFLINE,2022.2.4,60.217507348821094,
,,,,,,,,,,,,,,,,,,,,,,,,,,,,,,,,,,0,0,0,0,13,0,13,0,,,,,,,,,,,,,,,,,,,,,,,,,,,,0,828,,,,1701.0983058658894,,Y,181,triangle,0.0011288991663604975,,,,,1,0,,,3,,,,,,,,,1696.9771905369125,1696.9771905369125,1696.9771905369125,1696.9771905369125,1698.4788266378455,1698.4788266378455,1698.4788266378455,1698.4788266378455,1698.4788266378455,1698.4788266378455,1698.4788266378455,1698.4788266378455,switch,number,numSwt,k,1.0855236891657114,vtsPrac,1699.59654107783,,,,,,,,,,,,,,,,,,,,,,,,,,,,,72481,2022-11-10_11h16.40.857,vts_reward_expectancy_bt_OFFLINE,2022.2.4,60.217507348821094,
,,,,,,,,,,,,,,,,,,,,,,,,,,,,,,,,,,0,0,0,0,14,0,14,0,,,,,,,,,,,,,,,,,,,,,,,,,,,,0,828,,,,1706.0371572999284,,H,132,triangle,0.0013785399496555328,,,,,1,0,,,3,,,,,,,,,1702.082760256948,1702.082760256948,1702.082760256948,1702.082760256948,1703.5843673078343,1703.5843673078343,1703.5843673078343,1703.5843673078343,1703.5843673078343,1703.5843673078343,1703.5843673078343,1703.5843673078343,repeat,number,numRpt,j,0.9189824680797756,vtsPrac,1704.5354570769705,,,,,,,,,,,,,,,,,,,,,,,,,,,,,72481,2022-11-10_11h16.40.857,vts_reward_expectancy_bt_OFFLINE,2022.2.4,60.217507348821094,
,,,,,,,,,,,,,,,,,,,,,,,,,,,,,,,,,,0,0,0,0,15,0,15,0,,,,,,,,,,,,,,,,,,,,,,,,,,,,0,828,,,,1711.009378415998,,W,167,star,0.001091785030439496,,,,,1,0,,,3,,,,,,,,,1707.0215991409495,1707.0215991409495,1707.0215991409495,1707.0215991409495,1708.5232673860155,1708.5232673860155,1708.5232673860155,1708.5232673860155,1708.5232673860155,1708.5232673860155,1708.5232673860155,1708.5232673860155,repeat,number,numRpt,k,0.9632967971265316,vtsPrac,1709.50761199696,1711.009378415998,,,,,,,,,,,,,,,,,,,,,,,,,,,,72481,2022-11-10_11h16.40.857,vts_reward_expectancy_bt_OFFLINE,2022.2.4,60.217507348821094,
,,,,,,,,,,,,,,,,,,,,,,,,,,,,,,,,,,0,0,0,0,16,0,16,0,,,,,,,,,,,,,,,,,,,,,,,,,,,,0,828,,,,1715.8310832679272,,U,160,circle,0.0012456178665161133,,,,,1,0,,,3,,,,,,,,,1711.993573769927,1711.993573769927,1711.993573769927,1711.993573769927,1713.4952350698877,1713.4952350698877,1713.4952350698877,1713.4952350698877,1713.4952350698877,1713.4952350698877,1713.4952350698877,1713.4952350698877,switch,letter,lettSwt,f,0.8083783462643623,vtsPrac,1714.3295130769257,,,,,,,,,,,,,,,,,,,,,,,,,,,,,72481,2022-11-10_11h16.40.857,vts_reward_expectancy_bt_OFFLINE,2022.2.4,60.217507348821094,
,,,,,,,,,,,,,,,,,,,,,,,,,,,,,,,,,,0,0,0,0,17,0,17,0,,,,,,,,,,,,,,,,,,,,,,,,,,,,0,828,,,,1720.8201210908592,,F,139,triangle,0.0015137239824980497,,,,,1,0,,,3,,,,,,,,,1716.8171574398875,1716.8171574398875,1716.8171574398875,1716.8171574398875,1718.3173313059378,1718.3173313059378,1718.3173313059378,1718.3173313059378,1718.3173313059378,1718.3173313059378,1718.3173313059378,1718.3173313059378,repeat,letter,lettRpt,d,0.9690309332218021,vtsPrac,1719.318527586991,,,,,,,,,,,,,,,,,,,,,,,,,,,,,72481,2022-11-10_11h16.40.857,vts_reward_expectancy_bt_OFFLINE,2022.2.4,60.217507348821094,
,,,,,,,,,,,,,,,,,,,,,,,,,,,,,,,,,,0,0,0,0,18,0,18,0,,,,,,,,,,,,,,,,,,,,,,,,,,,,0,828,,,,1725.4749989218544,,B,132,star,0.0014550881460309029,,,,,1,0,,,3,,,,,,,,,1721.8046862280462,1721.8046862280462,1721.8046862280462,1721.8046862280462,1723.3061155970208,1723.3061155970208,1723.3061155970208,1723.3061155970208,1723.3061155970208,1723.3061155970208,1723.3061155970208,1723.3061155970208,switch,number,numSwt,j,0.6382586541585624,vtsPrac,1723.9734630000312,,,,,,,,,,,,,,,,,,,,,,,,,,,,,72481,2022-11-10_11h16.40.857,vts_reward_expectancy_bt_OFFLINE,2022.2.4,60.217507348821094,
,,,,,,,,,,,,,,,,,,,,,,,,,,,,,,,,,,0,0,0,0,19,0,19,0,,,,,,,,,,,,,,,,,,,,,,,,,,,,0,828,,,,1730.3641615158413,,S,167,triangle,0.001182839972898364,,,,,1,0,,,3,,,,,,,,,1726.4595438428223,1726.4595438428223,1726.4595438428223,1726.4595438428223,1727.9612217948306,1727.9612217948306,1727.9612217948306,1727.9612217948306,1727.9612217948306,1727.9612217948306,1727.9612217948306,1727.9612217948306,switch,letter,lettSwt,f,0.8770791511051357,vtsPrac,1728.8621843908913,,,,,,,,,,,,,,,,,,,,,,,,,,,,,72481,2022-11-10_11h16.40.857,vts_reward_expectancy_bt_OFFLINE,2022.2.4,60.217507348821094,
,,,,,,,,,,,,,,,,,,,,,,,,,,,,,,,,,,0,0,0,0,20,0,20,0,,,,,,,,,,,,,,,,,,,,,,,,,,,,0,828,,,,1735.1358018328901,,U,125,triangle,0.0009518940933048725,,,,,1,0,,,3,,,,,,,,,1731.3481563369278,1731.3481563369278,1731.3481563369278,1731.3481563369278,1732.850024299929,1732.850024299929,1732.850024299929,1732.850024299929,1732.850024299929,1732.850024299929,1732.850024299929,1732.850024299929,switch,number,numSwt,j,0.758895758073777,vtsPrac,1733.6340947919525,,,,,,,,,,,,,,,,,,,,,,,,,,,,,72481,2022-11-10_11h16.40.857,vts_reward_expectancy_bt_OFFLINE,2022.2.4,60.217507348821094,
