LTriangleOpac,LCircleOpac,LHexagonOpac,LStarOpac,RTriangleOpac,RCircleOpac,RHexagonOpac,RStarOpac,LShape_ID,RShape_ID,training_blocks.thisRepN,training_blocks.thisTrialN,training_blocks.thisN,training_blocks.thisIndex,training.thisRepN,training.thisTrialN,training.thisN,training.thisIndex,task1_prac_redo.thisRepN,task1_prac_redo.thisTrialN,task1_prac_redo.thisN,task1_prac_redo.thisIndex,task1_prac_trials.thisRepN,task1_prac_trials.thisTrialN,task1_prac_trials.thisN,task1_prac_trials.thisIndex,task2_prac_redo.thisRepN,task2_prac_redo.thisTrialN,task2_prac_redo.thisN,task2_prac_redo.thisIndex,task2_praac_trials.thisRepN,task2_praac_trials.thisTrialN,task2_praac_trials.thisN,task2_praac_trials.thisIndex,vts_prac_redo.thisRepN,vts_prac_redo.thisTrialN,vts_prac_redo.thisN,vts_prac_redo.thisIndex,vts_practice_trials.thisRepN,vts_practice_trials.thisTrialN,vts_practice_trials.thisN,vts_practice_trials.thisIndex,trials_norew.thisRepN,trials_norew.thisTrialN,trials_norew.thisN,trials_norew.thisIndex,block.thisRepN,block.thisTrialN,block.thisN,block.thisIndex,trials_rew.thisRepN,trials_rew.thisTrialN,trials_rew.thisN,trials_rew.thisIndex,key_resp.started,key_resp.keys,key_resp.rt,left_circle.started,right_circle.started,left_triangle.started,right_triangle.started,left_star.started,right_star.started,left_hexagon.started,right_hexagon.started,training_fix.started,training_resp.started,training_resp.keys,training_resp.rt,points_trial,points_cumul,trainBlock,training_feedback_txt.started,training_feedback_txt.stopped,fix.started,curr_topStim,curr_bottStim,curr_shape,ISI.started,tgt_fix_prac1.started,top_target_prac1.started,bott_target_prac1.started,target_resp_prac1.started,acc,E1,target_resp_prac1.keys,target_resp_prac1.rt,pracBlock,prac_fback_text.started,tgt_fix_prac2.started,top_target_prac2.started,bott_target_prac2.started,target_resp_prac2.started,target_resp_prac2.keys,target_resp_prac2.rt,prac_fback_text.stopped,star.started,hegagon.started,triangle.started,circle.started,top_target.started,tgt_fix.started,bot_target.started,target_resp.started,star.stopped,hegagon.stopped,triangle.stopped,circle.stopped,alt,task,condition,target_resp.keys,target_resp.rt,rewCond,vts_fback.started,vts_fback.stopped,blockNum,norew_fback.started,norew_fback.stopped,top_target.stopped,tgt_fix.stopped,bot_target.stopped,target_resp.stopped,fix.stopped,key_resp_2.keys,key_resp_2.rt,rewExpectancy,feedbk_text.started,feedbk_text.stopped,text_3.started,debrief.started,text_3.stopped,button.started,debrief.index,debrief.itemText,debrief.type,debrief.granularity,debrief.font,debrief.markerColor,debrief.response,debrief.rt,button.numClicks,button.timesOn,button.timesOff,participant,date,expName,psychopyVersion,frameRate,
,,,,,,,,,,,,,,,,,,,,,,,,,,,,,,,,,,,,,,,,,,,,,,,,,,,,,,376.66113564604893,space,28.29288183292374,,,,,,,,,,,,,,,,,,,,,,,,,,,,,,,,,,,,,,,,,,,,,,,,,,,,,,,,,,,,,,,,,,,,,,,,,,,,,,,,,,,,,,,,73086,2022-11-15_08h08.14.697,vts_reward_expectancy_bt_OFFLINE,2022.2.4,60.22447100255246,
0,1,0,0,0,0,0,1,circle,star,0,0,0,0,0,0,0,5,,,,,,,,,,,,,,,,,,,,,,,,,,,,,,,,,,,,,,,,424.96444680006243,424.96444680006243,424.96444680006243,424.96444680006243,424.96444680006243,424.96444680006243,424.96444680006243,424.96444680006243,424.96444680006243,424.96444680006243,a,1.817396068945527,10,10,0,426.7997340608854,428.3013890439179,428.3013890439179,,,,,,,,,,,,,,,,,,,,,,,,,,,,,,,,,,,,,,,,,,,,,,,,,,,,,,,,,,,,,,,,,,,,,,73086,2022-11-15_08h08.14.697,vts_reward_expectancy_bt_OFFLINE,2022.2.4,60.22447100255246,
0,0,1,0,0,0,0,1,hexagon,star,0,0,0,0,0,1,1,8,,,,,,,,,,,,,,,,,,,,,,,,,,,,,,,,,,,,,,,,428.8018575820606,428.8018575820606,428.8018575820606,428.8018575820606,428.8018575820606,428.8018575820606,428.8018575820606,428.8018575820606,428.8018575820606,428.8018575820606,l,1.703141381032765,10,20,0,430.53729853010736,,432.03875399008393,,,,,,,,,,,,,,,,,,,,,,,,,,,,,,,,,,,,,,,,,,,,,,,,,,,,,,,,,,,,,,,,,,,,,,73086,2022-11-15_08h08.14.697,vts_reward_expectancy_bt_OFFLINE,2022.2.4,60.22447100255246,
1,0,0,0,0,1,0,0,triangle,circle,0,0,0,0,0,2,2,0,,,,,,,,,,,,,,,,,,,,,,,,,,,,,,,,,,,,,,,,432.53931363206357,432.53931363206357,432.53931363206357,432.53931363206357,432.53931363206357,432.53931363206357,432.53931363206357,432.53931363206357,432.53931363206357,432.53931363206357,l,1.3752083140425384,1,21,0,433.9409274018835,,435.4425279009156,,,,,,,,,,,,,,,,,,,,,,,,,,,,,,,,,,,,,,,,,,,,,,,,,,,,,,,,,,,,,,,,,,,,,,73086,2022-11-15_08h08.14.697,vts_reward_expectancy_bt_OFFLINE,2022.2.4,60.22447100255246,
0,0,0,1,0,1,0,0,star ,circle,0,0,0,0,0,3,3,10,,,,,,,,,,,,,,,,,,,,,,,,,,,,,,,,,,,,,,,,435.9433548459783,435.9433548459783,435.9433548459783,435.9433548459783,435.9433548459783,435.9433548459783,435.9433548459783,435.9433548459783,435.9433548459783,435.9433548459783,l,0.9972045770846307,1,22,0,436.9610163769685,,438.46288857399486,,,,,,,,,,,,,,,,,,,,,,,,,,,,,,,,,,,,,,,,,,,,,,,,,,,,,,,,,,,,,,,,,,,,,,73086,2022-11-15_08h08.14.697,vts_reward_expectancy_bt_OFFLINE,2022.2.4,60.22447100255246,
1,0,0,0,0,0,1,0,triangle,hexagon,0,0,0,0,0,4,4,1,,,,,,,,,,,,,,,,,,,,,,,,,,,,,,,,,,,,,,,,438.96319666388445,438.96319666388445,438.96319666388445,438.96319666388445,438.96319666388445,438.96319666388445,438.96319666388445,438.96319666388445,438.96319666388445,438.96319666388445,l,1.1041100311558694,10,32,0,440.0979619140271,,441.5993516789749,,,,,,,,,,,,,,,,,,,,,,,,,,,,,,,,,,,,,,,,,,,,,,,,,,,,,,,,,,,,,,,,,,,,,,73086,2022-11-15_08h08.14.697,vts_reward_expectancy_bt_OFFLINE,2022.2.4,60.22447100255246,
0,0,0,1,1,0,0,0,star,triangle,0,0,0,0,0,5,5,9,,,,,,,,,,,,,,,,,,,,,,,,,,,,,,,,,,,,,,,,442.09994006110355,442.09994006110355,442.09994006110355,442.09994006110355,442.09994006110355,442.09994006110355,442.09994006110355,442.09994006110355,442.09994006110355,442.09994006110355,a,1.2308978310320526,10,42,0,443.351281211013,,444.8529686969705,,,,,,,,,,,,,,,,,,,,,,,,,,,,,,,,,,,,,,,,,,,,,,,,,,,,,,,,,,,,,,,,,,,,,,73086,2022-11-15_08h08.14.697,vts_reward_expectancy_bt_OFFLINE,2022.2.4,60.22447100255246,
0,0,1,0,1,0,0,0,hexagon,triangle,0,0,0,0,0,6,6,6,,,,,,,,,,,,,,,,,,,,,,,,,,,,,,,,,,,,,,,,445.3533857308794,445.3533857308794,445.3533857308794,445.3533857308794,445.3533857308794,445.3533857308794,445.3533857308794,445.3533857308794,445.3533857308794,445.3533857308794,a,0.8582185490522534,10,52,0,446.2378212600015,,447.7395471620839,,,,,,,,,,,,,,,,,,,,,,,,,,,,,,,,,,,,,,,,,,,,,,,,,,,,,,,,,,,,,,,,,,,,,,73086,2022-11-15_08h08.14.697,vts_reward_expectancy_bt_OFFLINE,2022.2.4,60.22447100255246,
0,1,0,0,0,0,1,0,circle,hexagon,0,0,0,0,0,7,7,4,,,,,,,,,,,,,,,,,,,,,,,,,,,,,,,,,,,,,,,,448.2400253850501,448.2400253850501,448.2400253850501,448.2400253850501,448.2400253850501,448.2400253850501,448.2400253850501,448.2400253850501,448.2400253850501,448.2400253850501,l,0.5916340660769492,1,53,0,448.8574928219896,,450.3589127159212,,,,,,,,,,,,,,,,,,,,,,,,,,,,,,,,,,,,,,,,,,,,,,,,,,,,,,,,,,,,,,,,,,,,,,73086,2022-11-15_08h08.14.697,vts_reward_expectancy_bt_OFFLINE,2022.2.4,60.22447100255246,
0,0,0,1,0,0,1,0,star,hexagon,0,0,0,0,0,8,8,11,,,,,,,,,,,,,,,,,,,,,,,,,,,,,,,,,,,,,,,,450.85950588504784,450.85950588504784,450.85950588504784,450.85950588504784,450.85950588504784,450.85950588504784,450.85950588504784,450.85950588504784,450.85950588504784,450.85950588504784,a,0.8087887230794877,10,63,0,451.6941096088849,,453.19542381889187,,,,,,,,,,,,,,,,,,,,,,,,,,,,,,,,,,,,,,,,,,,,,,,,,,,,,,,,,,,,,,,,,,,,,,73086,2022-11-15_08h08.14.697,vts_reward_expectancy_bt_OFFLINE,2022.2.4,60.22447100255246,
0,1,0,0,1,0,0,0,circle,triangle,0,0,0,0,0,9,9,3,,,,,,,,,,,,,,,,,,,,,,,,,,,,,,,,,,,,,,,,453.69590911688283,453.69590911688283,453.69590911688283,453.69590911688283,453.69590911688283,453.69590911688283,453.69590911688283,453.69590911688283,453.69590911688283,453.69590911688283,a,0.908674439182505,10,73,0,454.6306680738926,,456.13212892995216,,,,,,,,,,,,,,,,,,,,,,,,,,,,,,,,,,,,,,,,,,,,,,,,,,,,,,,,,,,,,,,,,,,,,,73086,2022-11-15_08h08.14.697,vts_reward_expectancy_bt_OFFLINE,2022.2.4,60.22447100255246,
0,0,1,0,0,1,0,0,hexagon,circle,0,0,0,0,0,10,10,7,,,,,,,,,,,,,,,,,,,,,,,,,,,,,,,,,,,,,,,,456.63269322901033,456.63269322901033,456.63269322901033,456.63269322901033,456.63269322901033,456.63269322901033,456.63269322901033,456.63269322901033,456.63269322901033,456.63269322901033,l,0.6711839649360627,1,74,0,457.33336018491536,,458.83503279602155,,,,,,,,,,,,,,,,,,,,,,,,,,,,,,,,,,,,,,,,,,,,,,,,,,,,,,,,,,,,,,,,,,,,,,73086,2022-11-15_08h08.14.697,vts_reward_expectancy_bt_OFFLINE,2022.2.4,60.22447100255246,
1,0,0,0,0,0,0,1,triangle,star,0,0,0,0,0,11,11,2,,,,,,,,,,,,,,,,,,,,,,,,,,,,,,,,,,,,,,,,459.3357436868828,459.3357436868828,459.3357436868828,459.3357436868828,459.3357436868828,459.3357436868828,459.3357436868828,459.3357436868828,459.3357436868828,459.3357436868828,l,0.8843961670063436,10,84,0,460.2365761499386,461.7382272419054,461.7382272419054,,,,,,,,,,,,,,,,,,,,,,,,,,,,,,,,,,,,,,,,,,,,,,,,,,,,,,,,,,,,,,,,,,,,,,73086,2022-11-15_08h08.14.697,vts_reward_expectancy_bt_OFFLINE,2022.2.4,60.22447100255246,
0,0,1,0,1,0,0,0,hexagon,triangle,0,0,0,0,1,0,12,6,,,,,,,,,,,,,,,,,,,,,,,,,,,,,,,,,,,,,,,,462.23896628501825,462.23896628501825,462.23896628501825,462.23896628501825,462.23896628501825,462.23896628501825,462.23896628501825,462.23896628501825,462.23896628501825,462.23896628501825,a,0.6794221340678632,10,94,0,462.9395945039578,,464.4411768550053,,,,,,,,,,,,,,,,,,,,,,,,,,,,,,,,,,,,,,,,,,,,,,,,,,,,,,,,,,,,,,,,,,,,,,73086,2022-11-15_08h08.14.697,vts_reward_expectancy_bt_OFFLINE,2022.2.4,60.22447100255246,
0,1,0,0,0,0,1,0,circle,hexagon,0,0,0,0,1,1,13,4,,,,,,,,,,,,,,,,,,,,,,,,,,,,,,,,,,,,,,,,464.9419524939731,464.9419524939731,464.9419524939731,464.9419524939731,464.9419524939731,464.9419524939731,464.9419524939731,464.9419524939731,464.9419524939731,464.9419524939731,a,1.048852310050279,10,104,0,466.0095707359724,,467.511440864997,,,,,,,,,,,,,,,,,,,,,,,,,,,,,,,,,,,,,,,,,,,,,,,,,,,,,,,,,,,,,,,,,,,,,,73086,2022-11-15_08h08.14.697,vts_reward_expectancy_bt_OFFLINE,2022.2.4,60.22447100255246,
0,1,0,0,0,0,0,1,circle,star,0,0,0,0,1,2,14,5,,,,,,,,,,,,,,,,,,,,,,,,,,,,,,,,,,,,,,,,468.0118729521055,468.0118729521055,468.0118729521055,468.0118729521055,468.0118729521055,468.0118729521055,468.0118729521055,468.0118729521055,468.0118729521055,468.0118729521055,l,0.7242728180717677,1,105,0,468.76287006400526,,470.26434436510317,,,,,,,,,,,,,,,,,,,,,,,,,,,,,,,,,,,,,,,,,,,,,,,,,,,,,,,,,,,,,,,,,,,,,,73086,2022-11-15_08h08.14.697,vts_reward_expectancy_bt_OFFLINE,2022.2.4,60.22447100255246,
0,0,0,1,1,0,0,0,star,triangle,0,0,0,0,1,3,15,9,,,,,,,,,,,,,,,,,,,,,,,,,,,,,,,,,,,,,,,,470.7649179440923,470.7649179440923,470.7649179440923,470.7649179440923,470.7649179440923,470.7649179440923,470.7649179440923,470.7649179440923,470.7649179440923,470.7649179440923,a,0.8176448091398925,1,106,0,471.5990439699963,473.10055957897566,473.10055957897566,,,,,,,,,,,,,,,,,,,,,,,,,,,,,,,,,,,,,,,,,,,,,,,,,,,,,,,,,,,,,,,,,,,,,,73086,2022-11-15_08h08.14.697,vts_reward_expectancy_bt_OFFLINE,2022.2.4,60.22447100255246,
1,0,0,0,0,0,0,1,triangle,star,0,0,0,0,1,4,16,2,,,,,,,,,,,,,,,,,,,,,,,,,,,,,,,,,,,,,,,,473.60136906593107,473.60136906593107,473.60136906593107,473.60136906593107,473.60136906593107,473.60136906593107,473.60136906593107,473.60136906593107,473.60136906593107,473.60136906593107,l,0.6468449998646975,1,107,0,474.2685827440582,,475.7706038369797,,,,,,,,,,,,,,,,,,,,,,,,,,,,,,,,,,,,,,,,,,,,,,,,,,,,,,,,,,,,,,,,,,,,,,73086,2022-11-15_08h08.14.697,vts_reward_expectancy_bt_OFFLINE,2022.2.4,60.22447100255246,
1,0,0,0,0,0,1,0,triangle,hexagon,0,0,0,0,1,5,17,1,,,,,,,,,,,,,,,,,,,,,,,,,,,,,,,,,,,,,,,,476.2711592919659,476.2711592919659,476.2711592919659,476.2711592919659,476.2711592919659,476.2711592919659,476.2711592919659,476.2711592919659,476.2711592919659,476.2711592919659,l,1.0491410321556032,1,108,0,477.33881624694914,,478.84042340610176,,,,,,,,,,,,,,,,,,,,,,,,,,,,,,,,,,,,,,,,,,,,,,,,,,,,,,,,,,,,,,,,,,,,,,73086,2022-11-15_08h08.14.697,vts_reward_expectancy_bt_OFFLINE,2022.2.4,60.22447100255246,
0,0,0,1,0,1,0,0,star ,circle,0,0,0,0,1,6,18,10,,,,,,,,,,,,,,,,,,,,,,,,,,,,,,,,,,,,,,,,479.3410354759544,479.3410354759544,479.3410354759544,479.3410354759544,479.3410354759544,479.3410354759544,479.3410354759544,479.3410354759544,479.3410354759544,479.3410354759544,l,0.8821755279786885,1,109,0,480.2419809170533,,481.74387229490094,,,,,,,,,,,,,,,,,,,,,,,,,,,,,,,,,,,,,,,,,,,,,,,,,,,,,,,,,,,,,,,,,,,,,,73086,2022-11-15_08h08.14.697,vts_reward_expectancy_bt_OFFLINE,2022.2.4,60.22447100255246,
1,0,0,0,0,1,0,0,triangle,circle,0,0,0,0,1,7,19,0,,,,,,,,,,,,,,,,,,,,,,,,,,,,,,,,,,,,,,,,482.2444505740423,482.2444505740423,482.2444505740423,482.2444505740423,482.2444505740423,482.2444505740423,482.2444505740423,482.2444505740423,482.2444505740423,482.2444505740423,a,0.6893547340296209,1,110,0,482.9617521809414,,484.4634824299719,,,,,,,,,,,,,,,,,,,,,,,,,,,,,,,,,,,,,,,,,,,,,,,,,,,,,,,,,,,,,,,,,,,,,,73086,2022-11-15_08h08.14.697,vts_reward_expectancy_bt_OFFLINE,2022.2.4,60.22447100255246,
0,0,1,0,0,1,0,0,hexagon,circle,0,0,0,0,1,8,20,7,,,,,,,,,,,,,,,,,,,,,,,,,,,,,,,,,,,,,,,,484.9640074670315,484.9640074670315,484.9640074670315,484.9640074670315,484.9640074670315,484.9640074670315,484.9640074670315,484.9640074670315,484.9640074670315,484.9640074670315,l,0.5346938320435584,10,120,0,485.5309839900583,,487.03296343190596,,,,,,,,,,,,,,,,,,,,,,,,,,,,,,,,,,,,,,,,,,,,,,,,,,,,,,,,,,,,,,,,,,,,,,73086,2022-11-15_08h08.14.697,vts_reward_expectancy_bt_OFFLINE,2022.2.4,60.22447100255246,
0,1,0,0,1,0,0,0,circle,triangle,0,0,0,0,1,9,21,3,,,,,,,,,,,,,,,,,,,,,,,,,,,,,,,,,,,,,,,,487.5332033839077,487.5332033839077,487.5332033839077,487.5332033839077,487.5332033839077,487.5332033839077,487.5332033839077,487.5332033839077,487.5332033839077,487.5332033839077,a,0.7894710530526936,1,121,0,488.35093729104847,,489.8525183100719,,,,,,,,,,,,,,,,,,,,,,,,,,,,,,,,,,,,,,,,,,,,,,,,,,,,,,,,,,,,,,,,,,,,,,73086,2022-11-15_08h08.14.697,vts_reward_expectancy_bt_OFFLINE,2022.2.4,60.22447100255246,
0,0,0,1,0,0,1,0,star,hexagon,0,0,0,0,1,10,22,11,,,,,,,,,,,,,,,,,,,,,,,,,,,,,,,,,,,,,,,,490.35312844696455,490.35312844696455,490.35312844696455,490.35312844696455,490.35312844696455,490.35312844696455,490.35312844696455,490.35312844696455,490.35312844696455,490.35312844696455,l,1.4463501719292253,10,131,0,491.82133511593565,,493.32303547207266,,,,,,,,,,,,,,,,,,,,,,,,,,,,,,,,,,,,,,,,,,,,,,,,,,,,,,,,,,,,,,,,,,,,,,73086,2022-11-15_08h08.14.697,vts_reward_expectancy_bt_OFFLINE,2022.2.4,60.22447100255246,
0,0,1,0,0,0,0,1,hexagon,star,0,0,0,0,1,11,23,8,,,,,,,,,,,,,,,,,,,,,,,,,,,,,,,,,,,,,,,,493.82379719102755,493.82379719102755,493.82379719102755,493.82379719102755,493.82379719102755,493.82379719102755,493.82379719102755,493.82379719102755,493.82379719102755,493.82379719102755,a,0.9577805658336729,1,132,0,494.807988445973,,496.3098866699729,,,,,,,,,,,,,,,,,,,,,,,,,,,,,,,,,,,,,,,,,,,,,,,,,,,,,,,,,,,,,,,,,,,,,,73086,2022-11-15_08h08.14.697,vts_reward_expectancy_bt_OFFLINE,2022.2.4,60.22447100255246,
0,0,0,1,1,0,0,0,star,triangle,0,0,0,0,2,0,24,9,,,,,,,,,,,,,,,,,,,,,,,,,,,,,,,,,,,,,,,,496.81030886410736,496.81030886410736,496.81030886410736,496.81030886410736,496.81030886410736,496.81030886410736,496.81030886410736,496.81030886410736,496.81030886410736,496.81030886410736,a,0.6154821140225977,1,133,0,497.44417583500035,,498.9459015640896,,,,,,,,,,,,,,,,,,,,,,,,,,,,,,,,,,,,,,,,,,,,,,,,,,,,,,,,,,,,,,,,,,,,,,73086,2022-11-15_08h08.14.697,vts_reward_expectancy_bt_OFFLINE,2022.2.4,60.22447100255246,
0,1,0,0,1,0,0,0,circle,triangle,0,0,0,0,2,1,25,3,,,,,,,,,,,,,,,,,,,,,,,,,,,,,,,,,,,,,,,,499.4465561960824,499.4465561960824,499.4465561960824,499.4465561960824,499.4465561960824,499.4465561960824,499.4465561960824,499.4465561960824,499.4465561960824,499.4465561960824,a,0.634739268803969,10,143,0,500.11404636409134,,501.6155377009418,,,,,,,,,,,,,,,,,,,,,,,,,,,,,,,,,,,,,,,,,,,,,,,,,,,,,,,,,,,,,,,,,,,,,,73086,2022-11-15_08h08.14.697,vts_reward_expectancy_bt_OFFLINE,2022.2.4,60.22447100255246,
0,0,1,0,1,0,0,0,hexagon,triangle,0,0,0,0,2,2,26,6,,,,,,,,,,,,,,,,,,,,,,,,,,,,,,,,,,,,,,,,502.11605233093724,502.11605233093724,502.11605233093724,502.11605233093724,502.11605233093724,502.11605233093724,502.11605233093724,502.11605233093724,502.11605233093724,502.11605233093724,l,1.0248292670585215,1,144,0,503.1673347859178,,504.6690337010659,,,,,,,,,,,,,,,,,,,,,,,,,,,,,,,,,,,,,,,,,,,,,,,,,,,,,,,,,,,,,,,,,,,,,,73086,2022-11-15_08h08.14.697,vts_reward_expectancy_bt_OFFLINE,2022.2.4,60.22447100255246,
0,0,0,1,0,1,0,0,star ,circle,0,0,0,0,2,3,27,10,,,,,,,,,,,,,,,,,,,,,,,,,,,,,,,,,,,,,,,,505.16945837205276,505.16945837205276,505.16945837205276,505.16945837205276,505.16945837205276,505.16945837205276,505.16945837205276,505.16945837205276,505.16945837205276,505.16945837205276,a,0.9754167119972408,1,145,0,506.1707669850439,,507.6724691169802,,,,,,,,,,,,,,,,,,,,,,,,,,,,,,,,,,,,,,,,,,,,,,,,,,,,,,,,,,,,,,,,,,,,,,73086,2022-11-15_08h08.14.697,vts_reward_expectancy_bt_OFFLINE,2022.2.4,60.22447100255246,
1,0,0,0,0,0,0,1,triangle,star,0,0,0,0,2,4,28,2,,,,,,,,,,,,,,,,,,,,,,,,,,,,,,,,,,,,,,,,508.1729876419995,508.1729876419995,508.1729876419995,508.1729876419995,508.1729876419995,508.1729876419995,508.1729876419995,508.1729876419995,508.1729876419995,508.1729876419995,l,0.8622220729012042,10,155,0,509.0570547969546,,510.5586559250951,,,,,,,,,,,,,,,,,,,,,,,,,,,,,,,,,,,,,,,,,,,,,,,,,,,,,,,,,,,,,,,,,,,,,,73086,2022-11-15_08h08.14.697,vts_reward_expectancy_bt_OFFLINE,2022.2.4,60.22447100255246,
0,1,0,0,0,0,1,0,circle,hexagon,0,0,0,0,2,5,29,4,,,,,,,,,,,,,,,,,,,,,,,,,,,,,,,,,,,,,,,,511.05921383108944,511.05921383108944,511.05921383108944,511.05921383108944,511.05921383108944,511.05921383108944,511.05921383108944,511.05921383108944,511.05921383108944,511.05921383108944,a,0.6321927581448108,10,165,0,511.70994373597205,513.2117221460212,513.2117221460212,,,,,,,,,,,,,,,,,,,,,,,,,,,,,,,,,,,,,,,,,,,,,,,,,,,,,,,,,,,,,,,,,,,,,,73086,2022-11-15_08h08.14.697,vts_reward_expectancy_bt_OFFLINE,2022.2.4,60.22447100255246,
1,0,0,0,0,0,1,0,triangle,hexagon,0,0,0,0,2,6,30,1,,,,,,,,,,,,,,,,,,,,,,,,,,,,,,,,,,,,,,,,513.712231538957,513.712231538957,513.712231538957,513.712231538957,513.712231538957,513.712231538957,513.712231538957,513.712231538957,513.712231538957,513.712231538957,l,1.0611787780653685,10,175,0,514.7966851668898,,516.2983999140561,,,,,,,,,,,,,,,,,,,,,,,,,,,,,,,,,,,,,,,,,,,,,,,,,,,,,,,,,,,,,,,,,,,,,,73086,2022-11-15_08h08.14.697,vts_reward_expectancy_bt_OFFLINE,2022.2.4,60.22447100255246,
0,0,1,0,0,0,0,1,hexagon,star,0,0,0,0,2,7,31,8,,,,,,,,,,,,,,,,,,,,,,,,,,,,,,,,,,,,,,,,516.7991423089989,516.7991423089989,516.7991423089989,516.7991423089989,516.7991423089989,516.7991423089989,516.7991423089989,516.7991423089989,516.7991423089989,516.7991423089989,l,0.6625954040791839,1,176,0,517.4831096509006,,518.9848827589303,,,,,,,,,,,,,,,,,,,,,,,,,,,,,,,,,,,,,,,,,,,,,,,,,,,,,,,,,,,,,,,,,,,,,,73086,2022-11-15_08h08.14.697,vts_reward_expectancy_bt_OFFLINE,2022.2.4,60.22447100255246,
0,0,1,0,0,1,0,0,hexagon,circle,0,0,0,0,2,8,32,7,,,,,,,,,,,,,,,,,,,,,,,,,,,,,,,,,,,,,,,,519.4853149270639,519.4853149270639,519.4853149270639,519.4853149270639,519.4853149270639,519.4853149270639,519.4853149270639,519.4853149270639,519.4853149270639,519.4853149270639,a,0.5762509901542217,1,177,0,520.0859347109217,,521.5876201200299,,,,,,,,,,,,,,,,,,,,,,,,,,,,,,,,,,,,,,,,,,,,,,,,,,,,,,,,,,,,,,,,,,,,,,73086,2022-11-15_08h08.14.697,vts_reward_expectancy_bt_OFFLINE,2022.2.4,60.22447100255246,
0,1,0,0,0,0,0,1,circle,star,0,0,0,0,2,9,33,5,,,,,,,,,,,,,,,,,,,,,,,,,,,,,,,,,,,,,,,,522.0882221439388,522.0882221439388,522.0882221439388,522.0882221439388,522.0882221439388,522.0882221439388,522.0882221439388,522.0882221439388,522.0882221439388,522.0882221439388,a,0.5271317430306226,1,178,0,522.6389843600336,,524.1404817409348,,,,,,,,,,,,,,,,,,,,,,,,,,,,,,,,,,,,,,,,,,,,,,,,,,,,,,,,,,,,,,,,,,,,,,73086,2022-11-15_08h08.14.697,vts_reward_expectancy_bt_OFFLINE,2022.2.4,60.22447100255246,
0,0,0,1,0,0,1,0,star,hexagon,0,0,0,0,2,10,34,11,,,,,,,,,,,,,,,,,,,,,,,,,,,,,,,,,,,,,,,,524.6410317958798,524.6410317958798,524.6410317958798,524.6410317958798,524.6410317958798,524.6410317958798,524.6410317958798,524.6410317958798,524.6410317958798,524.6410317958798,a,0.6417091821786016,1,179,0,525.3083505709656,,526.8099246250931,,,,,,,,,,,,,,,,,,,,,,,,,,,,,,,,,,,,,,,,,,,,,,,,,,,,,,,,,,,,,,,,,,,,,,73086,2022-11-15_08h08.14.697,vts_reward_expectancy_bt_OFFLINE,2022.2.4,60.22447100255246,
1,0,0,0,0,1,0,0,triangle,circle,0,0,0,0,2,11,35,0,,,,,,,,,,,,,,,,,,,,,,,,,,,,,,,,,,,,,,,,527.3104327800684,527.3104327800684,527.3104327800684,527.3104327800684,527.3104327800684,527.3104327800684,527.3104327800684,527.3104327800684,527.3104327800684,527.3104327800684,a,0.5257466880138963,1,180,0,527.8611293940339,,529.3628234299831,,,,,,,,,,,,,,,,,,,,,,,,,,,,,,,,,,,,,,,,,,,,,,,,,,,,,,,,,,,,,,,,,,,,,,73086,2022-11-15_08h08.14.697,vts_reward_expectancy_bt_OFFLINE,2022.2.4,60.22447100255246,
0,1,0,0,0,0,1,0,circle,hexagon,0,0,0,0,3,0,36,4,,,,,,,,,,,,,,,,,,,,,,,,,,,,,,,,,,,,,,,,529.8633860060945,529.8633860060945,529.8633860060945,529.8633860060945,529.8633860060945,529.8633860060945,529.8633860060945,529.8633860060945,529.8633860060945,529.8633860060945,a,0.3799505920615047,1,181,0,530.2639647310134,,531.7654134209733,,,,,,,,,,,,,,,,,,,,,,,,,,,,,,,,,,,,,,,,,,,,,,,,,,,,,,,,,,,,,,,,,,,,,,73086,2022-11-15_08h08.14.697,vts_reward_expectancy_bt_OFFLINE,2022.2.4,60.22447100255246,
1,0,0,0,0,1,0,0,triangle,circle,0,0,0,0,3,1,37,0,,,,,,,,,,,,,,,,,,,,,,,,,,,,,,,,,,,,,,,,532.2663196399808,532.2663196399808,532.2663196399808,532.2663196399808,532.2663196399808,532.2663196399808,532.2663196399808,532.2663196399808,532.2663196399808,532.2663196399808,a,1.0031280100811273,1,182,0,533.3007005508989,,534.8022135340143,,,,,,,,,,,,,,,,,,,,,,,,,,,,,,,,,,,,,,,,,,,,,,,,,,,,,,,,,,,,,,,,,,,,,,73086,2022-11-15_08h08.14.697,vts_reward_expectancy_bt_OFFLINE,2022.2.4,60.22447100255246,
0,0,1,0,0,0,0,1,hexagon,star,0,0,0,0,3,2,38,8,,,,,,,,,,,,,,,,,,,,,,,,,,,,,,,,,,,,,,,,535.3028324940242,535.3028324940242,535.3028324940242,535.3028324940242,535.3028324940242,535.3028324940242,535.3028324940242,535.3028324940242,535.3028324940242,535.3028324940242,a,0.8356442600488663,10,192,0,536.170536671998,,537.6720253070816,,,,,,,,,,,,,,,,,,,,,,,,,,,,,,,,,,,,,,,,,,,,,,,,,,,,,,,,,,,,,,,,,,,,,,73086,2022-11-15_08h08.14.697,vts_reward_expectancy_bt_OFFLINE,2022.2.4,60.22447100255246,
0,0,0,1,0,0,1,0,star,hexagon,0,0,0,0,3,3,39,11,,,,,,,,,,,,,,,,,,,,,,,,,,,,,,,,,,,,,,,,538.1725176810287,538.1725176810287,538.1725176810287,538.1725176810287,538.1725176810287,538.1725176810287,538.1725176810287,538.1725176810287,538.1725176810287,538.1725176810287,a,1.0262428550049663,10,202,0,539.2236520890146,,540.7253848770633,,,,,,,,,,,,,,,,,,,,,,,,,,,,,,,,,,,,,,,,,,,,,,,,,,,,,,,,,,,,,,,,,,,,,,73086,2022-11-15_08h08.14.697,vts_reward_expectancy_bt_OFFLINE,2022.2.4,60.22447100255246,
0,1,0,0,1,0,0,0,circle,triangle,0,0,0,0,3,4,40,3,,,,,,,,,,,,,,,,,,,,,,,,,,,,,,,,,,,,,,,,541.2258124740329,541.2258124740329,541.2258124740329,541.2258124740329,541.2258124740329,541.2258124740329,541.2258124740329,541.2258124740329,541.2258124740329,541.2258124740329,a,0.7518715499900281,10,212,0,542.0101532810368,,543.5116514659021,,,,,,,,,,,,,,,,,,,,,,,,,,,,,,,,,,,,,,,,,,,,,,,,,,,,,,,,,,,,,,,,,,,,,,73086,2022-11-15_08h08.14.697,vts_reward_expectancy_bt_OFFLINE,2022.2.4,60.22447100255246,
1,0,0,0,0,0,1,0,triangle,hexagon,0,0,0,0,3,5,41,1,,,,,,,,,,,,,,,,,,,,,,,,,,,,,,,,,,,,,,,,544.0123935339507,544.0123935339507,544.0123935339507,544.0123935339507,544.0123935339507,544.0123935339507,544.0123935339507,544.0123935339507,544.0123935339507,544.0123935339507,a,0.7785826111212373,10,222,0,544.8131444950122,,546.314995263936,,,,,,,,,,,,,,,,,,,,,,,,,,,,,,,,,,,,,,,,,,,,,,,,,,,,,,,,,,,,,,,,,,,,,,73086,2022-11-15_08h08.14.697,vts_reward_expectancy_bt_OFFLINE,2022.2.4,60.22447100255246,
0,0,1,0,1,0,0,0,hexagon,triangle,0,0,0,0,3,6,42,6,,,,,,,,,,,,,,,,,,,,,,,,,,,,,,,,,,,,,,,,546.8154303340707,546.8154303340707,546.8154303340707,546.8154303340707,546.8154303340707,546.8154303340707,546.8154303340707,546.8154303340707,546.8154303340707,546.8154303340707,a,0.6860117190517485,10,232,0,547.5330079589039,,549.0345854361076,,,,,,,,,,,,,,,,,,,,,,,,,,,,,,,,,,,,,,,,,,,,,,,,,,,,,,,,,,,,,,,,,,,,,,73086,2022-11-15_08h08.14.697,vts_reward_expectancy_bt_OFFLINE,2022.2.4,60.22447100255246,
0,0,0,1,0,1,0,0,star ,circle,0,0,0,0,3,7,43,10,,,,,,,,,,,,,,,,,,,,,,,,,,,,,,,,,,,,,,,,549.5351359790657,549.5351359790657,549.5351359790657,549.5351359790657,549.5351359790657,549.5351359790657,549.5351359790657,549.5351359790657,549.5351359790657,549.5351359790657,a,0.6788468970917165,10,242,0,550.2359463549219,,551.7375189489685,,,,,,,,,,,,,,,,,,,,,,,,,,,,,,,,,,,,,,,,,,,,,,,,,,,,,,,,,,,,,,,,,,,,,,73086,2022-11-15_08h08.14.697,vts_reward_expectancy_bt_OFFLINE,2022.2.4,60.22447100255246,
1,0,0,0,0,0,0,1,triangle,star,0,0,0,0,3,8,44,2,,,,,,,,,,,,,,,,,,,,,,,,,,,,,,,,,,,,,,,,552.2378893119749,552.2378893119749,552.2378893119749,552.2378893119749,552.2378893119749,552.2378893119749,552.2378893119749,552.2378893119749,552.2378893119749,552.2378893119749,l,0.9913947288878262,10,252,0,553.2560062839184,,554.7576379959937,,,,,,,,,,,,,,,,,,,,,,,,,,,,,,,,,,,,,,,,,,,,,,,,,,,,,,,,,,,,,,,,,,,,,,73086,2022-11-15_08h08.14.697,vts_reward_expectancy_bt_OFFLINE,2022.2.4,60.22447100255246,
0,0,1,0,0,1,0,0,hexagon,circle,0,0,0,0,3,9,45,7,,,,,,,,,,,,,,,,,,,,,,,,,,,,,,,,,,,,,,,,555.2583768269978,555.2583768269978,555.2583768269978,555.2583768269978,555.2583768269978,555.2583768269978,555.2583768269978,555.2583768269978,555.2583768269978,555.2583768269978,l,1.5831351890228689,1,253,0,556.859983169008,,558.36170640192,,,,,,,,,,,,,,,,,,,,,,,,,,,,,,,,,,,,,,,,,,,,,,,,,,,,,,,,,,,,,,,,,,,,,,73086,2022-11-15_08h08.14.697,vts_reward_expectancy_bt_OFFLINE,2022.2.4,60.22447100255246,
0,1,0,0,0,0,0,1,circle,star,0,0,0,0,3,10,46,5,,,,,,,,,,,,,,,,,,,,,,,,,,,,,,,,,,,,,,,,558.862278586952,558.862278586952,558.862278586952,558.862278586952,558.862278586952,558.862278586952,558.862278586952,558.862278586952,558.862278586952,558.862278586952,a,1.2856560568325222,1,254,0,560.1801121169701,,561.6820450990926,,,,,,,,,,,,,,,,,,,,,,,,,,,,,,,,,,,,,,,,,,,,,,,,,,,,,,,,,,,,,,,,,,,,,,73086,2022-11-15_08h08.14.697,vts_reward_expectancy_bt_OFFLINE,2022.2.4,60.22447100255246,
0,0,0,1,1,0,0,0,star,triangle,0,0,0,0,3,11,47,9,,,,,,,,,,,,,,,,,,,,,,,,,,,,,,,,,,,,,,,,562.1825617500581,562.1825617500581,562.1825617500581,562.1825617500581,562.1825617500581,562.1825617500581,562.1825617500581,562.1825617500581,562.1825617500581,562.1825617500581,a,0.9018717429134995,10,264,0,563.116896614898,,564.618418140104,,,,,,,,,,,,,,,,,,,,,,,,,,,,,,,,,,,,,,,,,,,,,,,,,,,,,,,,,,,,,,,,,,,,,,73086,2022-11-15_08h08.14.697,vts_reward_expectancy_bt_OFFLINE,2022.2.4,60.22447100255246,
1,0,0,0,0,0,0,1,triangle,star,1,0,1,0,0,0,0,2,,,,,,,,,,,,,,,,,,,,,,,,,,,,,,,,,,,,,,,,570.6250942749903,570.6250942749903,570.6250942749903,570.6250942749903,570.6250942749903,570.6250942749903,570.6250942749903,570.6250942749903,570.6250942749903,570.6250942749903,a,1.381078871898353,1,265,1,572.0267568170093,,573.5282169599086,,,,,,,,,,,,,,,,,,,,,,,,,,,,,,,,,,,,,,,,,,,,,,,,,,,,,,,,,,,,,,,,,,,,,,73086,2022-11-15_08h08.14.697,vts_reward_expectancy_bt_OFFLINE,2022.2.4,60.22447100255246,
0,0,0,1,0,1,0,0,star ,circle,1,0,1,0,0,1,1,10,,,,,,,,,,,,,,,,,,,,,,,,,,,,,,,,,,,,,,,,574.02875142009,574.02875142009,574.02875142009,574.02875142009,574.02875142009,574.02875142009,574.02875142009,574.02875142009,574.02875142009,574.02875142009,a,0.6884073121473193,1,266,1,574.7462883018889,,576.2480167800095,,,,,,,,,,,,,,,,,,,,,,,,,,,,,,,,,,,,,,,,,,,,,,,,,,,,,,,,,,,,,,,,,,,,,,73086,2022-11-15_08h08.14.697,vts_reward_expectancy_bt_OFFLINE,2022.2.4,60.22447100255246,
0,0,1,0,0,1,0,0,hexagon,circle,1,0,1,0,0,2,2,7,,,,,,,,,,,,,,,,,,,,,,,,,,,,,,,,,,,,,,,,576.7484824860003,576.7484824860003,576.7484824860003,576.7484824860003,576.7484824860003,576.7484824860003,576.7484824860003,576.7484824860003,576.7484824860003,576.7484824860003,a,1.4119552001357079,10,276,1,578.1832619688939,,579.6850346541032,,,,,,,,,,,,,,,,,,,,,,,,,,,,,,,,,,,,,,,,,,,,,,,,,,,,,,,,,,,,,,,,,,,,,,73086,2022-11-15_08h08.14.697,vts_reward_expectancy_bt_OFFLINE,2022.2.4,60.22447100255246,
0,1,0,0,0,0,0,1,circle,star,1,0,1,0,0,3,3,5,,,,,,,,,,,,,,,,,,,,,,,,,,,,,,,,,,,,,,,,580.1856410810724,580.1856410810724,580.1856410810724,580.1856410810724,580.1856410810724,580.1856410810724,580.1856410810724,580.1856410810724,580.1856410810724,580.1856410810724,l,1.1259375161025673,10,286,1,581.3370681900997,,582.8386651000474,,,,,,,,,,,,,,,,,,,,,,,,,,,,,,,,,,,,,,,,,,,,,,,,,,,,,,,,,,,,,,,,,,,,,,73086,2022-11-15_08h08.14.697,vts_reward_expectancy_bt_OFFLINE,2022.2.4,60.22447100255246,
1,0,0,0,0,0,1,0,triangle,hexagon,1,0,1,0,0,4,4,1,,,,,,,,,,,,,,,,,,,,,,,,,,,,,,,,,,,,,,,,583.3391063860618,583.3391063860618,583.3391063860618,583.3391063860618,583.3391063860618,583.3391063860618,583.3391063860618,583.3391063860618,583.3391063860618,583.3391063860618,l,0.8188183091115206,1,287,1,584.1899990860838,,585.6917928820476,,,,,,,,,,,,,,,,,,,,,,,,,,,,,,,,,,,,,,,,,,,,,,,,,,,,,,,,,,,,,,,,,,,,,,73086,2022-11-15_08h08.14.697,vts_reward_expectancy_bt_OFFLINE,2022.2.4,60.22447100255246,
0,0,1,0,1,0,0,0,hexagon,triangle,1,0,1,0,0,5,5,6,,,,,,,,,,,,,,,,,,,,,,,,,,,,,,,,,,,,,,,,586.1925585600547,586.1925585600547,586.1925585600547,586.1925585600547,586.1925585600547,586.1925585600547,586.1925585600547,586.1925585600547,586.1925585600547,586.1925585600547,a,1.0474582619499415,10,297,1,587.2600175419357,,588.7617163849063,,,,,,,,,,,,,,,,,,,,,,,,,,,,,,,,,,,,,,,,,,,,,,,,,,,,,,,,,,,,,,,,,,,,,,73086,2022-11-15_08h08.14.697,vts_reward_expectancy_bt_OFFLINE,2022.2.4,60.22447100255246,
0,0,1,0,0,0,0,1,hexagon,star,1,0,1,0,0,6,6,8,,,,,,,,,,,,,,,,,,,,,,,,,,,,,,,,,,,,,,,,589.2623124020174,589.2623124020174,589.2623124020174,589.2623124020174,589.2623124020174,589.2623124020174,589.2623124020174,589.2623124020174,589.2623124020174,589.2623124020174,a,1.0712641440331936,1,298,1,590.3634722009301,,591.8650930449367,,,,,,,,,,,,,,,,,,,,,,,,,,,,,,,,,,,,,,,,,,,,,,,,,,,,,,,,,,,,,,,,,,,,,,73086,2022-11-15_08h08.14.697,vts_reward_expectancy_bt_OFFLINE,2022.2.4,60.22447100255246,
0,1,0,0,1,0,0,0,circle,triangle,1,0,1,0,0,7,7,3,,,,,,,,,,,,,,,,,,,,,,,,,,,,,,,,,,,,,,,,592.3657057259697,592.3657057259697,592.3657057259697,592.3657057259697,592.3657057259697,592.3657057259697,592.3657057259697,592.3657057259697,592.3657057259697,592.3657057259697,a,0.5902797288727015,1,299,1,592.9829395720735,,594.4846237439197,,,,,,,,,,,,,,,,,,,,,,,,,,,,,,,,,,,,,,,,,,,,,,,,,,,,,,,,,,,,,,,,,,,,,,73086,2022-11-15_08h08.14.697,vts_reward_expectancy_bt_OFFLINE,2022.2.4,60.22447100255246,
1,0,0,0,0,1,0,0,triangle,circle,1,0,1,0,0,8,8,0,,,,,,,,,,,,,,,,,,,,,,,,,,,,,,,,,,,,,,,,594.9851699948777,594.9851699948777,594.9851699948777,594.9851699948777,594.9851699948777,594.9851699948777,594.9851699948777,594.9851699948777,594.9851699948777,594.9851699948777,a,0.7164062631782144,1,300,1,595.7195470589213,,597.2211287710816,,,,,,,,,,,,,,,,,,,,,,,,,,,,,,,,,,,,,,,,,,,,,,,,,,,,,,,,,,,,,,,,,,,,,,73086,2022-11-15_08h08.14.697,vts_reward_expectancy_bt_OFFLINE,2022.2.4,60.22447100255246,
0,0,0,1,1,0,0,0,star,triangle,1,0,1,0,0,9,9,9,,,,,,,,,,,,,,,,,,,,,,,,,,,,,,,,,,,,,,,,597.721667695092,597.721667695092,597.721667695092,597.721667695092,597.721667695092,597.721667695092,597.721667695092,597.721667695092,597.721667695092,597.721667695092,a,0.6793316921684891,1,301,1,598.4225609800778,,599.9240915060509,,,,,,,,,,,,,,,,,,,,,,,,,,,,,,,,,,,,,,,,,,,,,,,,,,,,,,,,,,,,,,,,,,,,,,73086,2022-11-15_08h08.14.697,vts_reward_expectancy_bt_OFFLINE,2022.2.4,60.22447100255246,
0,0,0,1,0,0,1,0,star,hexagon,1,0,1,0,0,10,10,11,,,,,,,,,,,,,,,,,,,,,,,,,,,,,,,,,,,,,,,,600.4247223169077,600.4247223169077,600.4247223169077,600.4247223169077,600.4247223169077,600.4247223169077,600.4247223169077,600.4247223169077,600.4247223169077,600.4247223169077,l,0.9016633790452033,10,311,1,601.3589329789393,,602.86074378388,,,,,,,,,,,,,,,,,,,,,,,,,,,,,,,,,,,,,,,,,,,,,,,,,,,,,,,,,,,,,,,,,,,,,,73086,2022-11-15_08h08.14.697,vts_reward_expectancy_bt_OFFLINE,2022.2.4,60.22447100255246,
0,1,0,0,0,0,1,0,circle,hexagon,1,0,1,0,0,11,11,4,,,,,,,,,,,,,,,,,,,,,,,,,,,,,,,,,,,,,,,,603.3610689900815,603.3610689900815,603.3610689900815,603.3610689900815,603.3610689900815,603.3610689900815,603.3610689900815,603.3610689900815,603.3610689900815,603.3610689900815,a,1.0135508798994124,10,321,1,604.3956432619598,,605.8974164919928,,,,,,,,,,,,,,,,,,,,,,,,,,,,,,,,,,,,,,,,,,,,,,,,,,,,,,,,,,,,,,,,,,,,,,73086,2022-11-15_08h08.14.697,vts_reward_expectancy_bt_OFFLINE,2022.2.4,60.22447100255246,
1,0,0,0,0,0,1,0,triangle,hexagon,1,0,1,0,1,0,12,1,,,,,,,,,,,,,,,,,,,,,,,,,,,,,,,,,,,,,,,,606.3980160569772,606.3980160569772,606.3980160569772,606.3980160569772,606.3980160569772,606.3980160569772,606.3980160569772,606.3980160569772,606.3980160569772,606.3980160569772,a,0.9924286960158497,1,322,1,607.4155338848941,,608.9174675059039,,,,,,,,,,,,,,,,,,,,,,,,,,,,,,,,,,,,,,,,,,,,,,,,,,,,,,,,,,,,,,,,,,,,,,73086,2022-11-15_08h08.14.697,vts_reward_expectancy_bt_OFFLINE,2022.2.4,60.22447100255246,
0,1,0,0,0,0,1,0,circle,hexagon,1,0,1,0,1,1,13,4,,,,,,,,,,,,,,,,,,,,,,,,,,,,,,,,,,,,,,,,609.418054084992,609.418054084992,609.418054084992,609.418054084992,609.418054084992,609.418054084992,609.418054084992,609.418054084992,609.418054084992,609.418054084992,l,0.8297408430371433,10,332,1,610.2686940249987,,611.7704011648893,,,,,,,,,,,,,,,,,,,,,,,,,,,,,,,,,,,,,,,,,,,,,,,,,,,,,,,,,,,,,,,,,,,,,,73086,2022-11-15_08h08.14.697,vts_reward_expectancy_bt_OFFLINE,2022.2.4,60.22447100255246,
0,1,0,0,0,0,0,1,circle,star,1,0,1,0,1,2,14,5,,,,,,,,,,,,,,,,,,,,,,,,,,,,,,,,,,,,,,,,612.2707931620535,612.2707931620535,612.2707931620535,612.2707931620535,612.2707931620535,612.2707931620535,612.2707931620535,612.2707931620535,612.2707931620535,612.2707931620535,a,1.2738563790917397,10,342,1,613.5723199939821,,615.0739536159672,,,,,,,,,,,,,,,,,,,,,,,,,,,,,,,,,,,,,,,,,,,,,,,,,,,,,,,,,,,,,,,,,,,,,,73086,2022-11-15_08h08.14.697,vts_reward_expectancy_bt_OFFLINE,2022.2.4,60.22447100255246,
0,0,1,0,0,1,0,0,hexagon,circle,1,0,1,0,1,3,15,7,,,,,,,,,,,,,,,,,,,,,,,,,,,,,,,,,,,,,,,,615.5744835638907,615.5744835638907,615.5744835638907,615.5744835638907,615.5744835638907,615.5744835638907,615.5744835638907,615.5744835638907,615.5744835638907,615.5744835638907,l,1.3685953801032156,10,352,1,616.9595174000133,618.4611640321091,618.4611640321091,,,,,,,,,,,,,,,,,,,,,,,,,,,,,,,,,,,,,,,,,,,,,,,,,,,,,,,,,,,,,,,,,,,,,,73086,2022-11-15_08h08.14.697,vts_reward_expectancy_bt_OFFLINE,2022.2.4,60.22447100255246,
0,0,0,1,1,0,0,0,star,triangle,1,0,1,0,1,4,16,9,,,,,,,,,,,,,,,,,,,,,,,,,,,,,,,,,,,,,,,,618.9619170110673,618.9619170110673,618.9619170110673,618.9619170110673,618.9619170110673,618.9619170110673,618.9619170110673,618.9619170110673,618.9619170110673,618.9619170110673,l,1.55857023014687,1,353,1,620.5467924689874,,622.0486248100642,,,,,,,,,,,,,,,,,,,,,,,,,,,,,,,,,,,,,,,,,,,,,,,,,,,,,,,,,,,,,,,,,,,,,,73086,2022-11-15_08h08.14.697,vts_reward_expectancy_bt_OFFLINE,2022.2.4,60.22447100255246,
0,1,0,0,1,0,0,0,circle,triangle,1,0,1,0,1,5,17,3,,,,,,,,,,,,,,,,,,,,,,,,,,,,,,,,,,,,,,,,622.5489998019766,622.5489998019766,622.5489998019766,622.5489998019766,622.5489998019766,622.5489998019766,622.5489998019766,622.5489998019766,622.5489998019766,622.5489998019766,a,0.5917659089900553,1,354,1,623.1664547889959,,624.6680201520212,,,,,,,,,,,,,,,,,,,,,,,,,,,,,,,,,,,,,,,,,,,,,,,,,,,,,,,,,,,,,,,,,,,,,,73086,2022-11-15_08h08.14.697,vts_reward_expectancy_bt_OFFLINE,2022.2.4,60.22447100255246,
1,0,0,0,0,0,0,1,triangle,star,1,0,1,0,1,6,18,2,,,,,,,,,,,,,,,,,,,,,,,,,,,,,,,,,,,,,,,,625.1687763419468,625.1687763419468,625.1687763419468,625.1687763419468,625.1687763419468,625.1687763419468,625.1687763419468,625.1687763419468,625.1687763419468,625.1687763419468,l,1.1350435591302812,10,364,1,626.3368999250233,,627.8383185449056,,,,,,,,,,,,,,,,,,,,,,,,,,,,,,,,,,,,,,,,,,,,,,,,,,,,,,,,,,,,,,,,,,,,,,73086,2022-11-15_08h08.14.697,vts_reward_expectancy_bt_OFFLINE,2022.2.4,60.22447100255246,
0,0,0,1,0,0,1,0,star,hexagon,1,0,1,0,1,7,19,11,,,,,,,,,,,,,,,,,,,,,,,,,,,,,,,,,,,,,,,,628.3389311789069,628.3389311789069,628.3389311789069,628.3389311789069,628.3389311789069,628.3389311789069,628.3389311789069,628.3389311789069,628.3389311789069,628.3389311789069,a,0.821175895165652,10,374,1,629.1898099910468,,630.6913240049034,,,,,,,,,,,,,,,,,,,,,,,,,,,,,,,,,,,,,,,,,,,,,,,,,,,,,,,,,,,,,,,,,,,,,,73086,2022-11-15_08h08.14.697,vts_reward_expectancy_bt_OFFLINE,2022.2.4,60.22447100255246,
0,0,0,1,0,1,0,0,star ,circle,1,0,1,0,1,8,20,10,,,,,,,,,,,,,,,,,,,,,,,,,,,,,,,,,,,,,,,,631.1917503189761,631.1917503189761,631.1917503189761,631.1917503189761,631.1917503189761,631.1917503189761,631.1917503189761,631.1917503189761,631.1917503189761,631.1917503189761,l,0.9180973849724978,1,375,1,632.1262240640353,633.6278492941055,633.6278492941055,,,,,,,,,,,,,,,,,,,,,,,,,,,,,,,,,,,,,,,,,,,,,,,,,,,,,,,,,,,,,,,,,,,,,,73086,2022-11-15_08h08.14.697,vts_reward_expectancy_bt_OFFLINE,2022.2.4,60.22447100255246,
1,0,0,0,0,1,0,0,triangle,circle,1,0,1,0,1,9,21,0,,,,,,,,,,,,,,,,,,,,,,,,,,,,,,,,,,,,,,,,634.1285889160354,634.1285889160354,634.1285889160354,634.1285889160354,634.1285889160354,634.1285889160354,634.1285889160354,634.1285889160354,634.1285889160354,634.1285889160354,l,0.601445903070271,1,376,1,634.762382871937,,636.2642856989987,,,,,,,,,,,,,,,,,,,,,,,,,,,,,,,,,,,,,,,,,,,,,,,,,,,,,,,,,,,,,,,,,,,,,,73086,2022-11-15_08h08.14.697,vts_reward_expectancy_bt_OFFLINE,2022.2.4,60.22447100255246,
0,0,1,0,0,0,0,1,hexagon,star,1,0,1,0,1,10,22,8,,,,,,,,,,,,,,,,,,,,,,,,,,,,,,,,,,,,,,,,636.7647173788864,636.7647173788864,636.7647173788864,636.7647173788864,636.7647173788864,636.7647173788864,636.7647173788864,636.7647173788864,636.7647173788864,636.7647173788864,a,1.273084423970431,10,386,1,638.0660098169465,,639.5677037420683,,,,,,,,,,,,,,,,,,,,,,,,,,,,,,,,,,,,,,,,,,,,,,,,,,,,,,,,,,,,,,,,,,,,,,73086,2022-11-15_08h08.14.697,vts_reward_expectancy_bt_OFFLINE,2022.2.4,60.22447100255246,
0,0,1,0,1,0,0,0,hexagon,triangle,1,0,1,0,1,11,23,6,,,,,,,,,,,,,,,,,,,,,,,,,,,,,,,,,,,,,,,,640.0682397100609,640.0682397100609,640.0682397100609,640.0682397100609,640.0682397100609,640.0682397100609,640.0682397100609,640.0682397100609,640.0682397100609,640.0682397100609,l,1.389969445997849,1,387,1,641.4865121920593,,642.9883661419153,,,,,,,,,,,,,,,,,,,,,,,,,,,,,,,,,,,,,,,,,,,,,,,,,,,,,,,,,,,,,,,,,,,,,,73086,2022-11-15_08h08.14.697,vts_reward_expectancy_bt_OFFLINE,2022.2.4,60.22447100255246,
0,1,0,0,0,0,0,1,circle,star,1,0,1,0,2,0,24,5,,,,,,,,,,,,,,,,,,,,,,,,,,,,,,,,,,,,,,,,643.4887268100865,643.4887268100865,643.4887268100865,643.4887268100865,643.4887268100865,643.4887268100865,643.4887268100865,643.4887268100865,643.4887268100865,643.4887268100865,l,0.7485846448689699,1,388,1,644.2562474359293,,645.7581395239104,,,,,,,,,,,,,,,,,,,,,,,,,,,,,,,,,,,,,,,,,,,,,,,,,,,,,,,,,,,,,,,,,,,,,,73086,2022-11-15_08h08.14.697,vts_reward_expectancy_bt_OFFLINE,2022.2.4,60.22447100255246,
1,0,0,0,0,0,1,0,triangle,hexagon,1,0,1,0,2,1,25,1,,,,,,,,,,,,,,,,,,,,,,,,,,,,,,,,,,,,,,,,646.2584562660195,646.2584562660195,646.2584562660195,646.2584562660195,646.2584562660195,646.2584562660195,646.2584562660195,646.2584562660195,646.2584562660195,646.2584562660195,l,0.7119630030356348,10,398,1,646.9927054240834,,648.4944581799209,,,,,,,,,,,,,,,,,,,,,,,,,,,,,,,,,,,,,,,,,,,,,,,,,,,,,,,,,,,,,,,,,,,,,,73086,2022-11-15_08h08.14.697,vts_reward_expectancy_bt_OFFLINE,2022.2.4,60.22447100255246,
0,0,0,1,0,0,1,0,star,hexagon,1,0,1,0,2,2,26,11,,,,,,,,,,,,,,,,,,,,,,,,,,,,,,,,,,,,,,,,648.9947737508919,648.9947737508919,648.9947737508919,648.9947737508919,648.9947737508919,648.9947737508919,648.9947737508919,648.9947737508919,648.9947737508919,648.9947737508919,a,0.6330702879931778,10,408,1,649.6456715499517,,651.1471495949663,,,,,,,,,,,,,,,,,,,,,,,,,,,,,,,,,,,,,,,,,,,,,,,,,,,,,,,,,,,,,,,,,,,,,,73086,2022-11-15_08h08.14.697,vts_reward_expectancy_bt_OFFLINE,2022.2.4,60.22447100255246,
1,0,0,0,0,1,0,0,triangle,circle,1,0,1,0,2,3,27,0,,,,,,,,,,,,,,,,,,,,,,,,,,,,,,,,,,,,,,,,651.6476825899445,651.6476825899445,651.6476825899445,651.6476825899445,651.6476825899445,651.6476825899445,651.6476825899445,651.6476825899445,651.6476825899445,651.6476825899445,l,0.7352445300202817,10,418,1,652.4153282248881,,653.916850423906,,,,,,,,,,,,,,,,,,,,,,,,,,,,,,,,,,,,,,,,,,,,,,,,,,,,,,,,,,,,,,,,,,,,,,73086,2022-11-15_08h08.14.697,vts_reward_expectancy_bt_OFFLINE,2022.2.4,60.22447100255246,
0,1,0,0,0,0,1,0,circle,hexagon,1,0,1,0,2,4,28,4,,,,,,,,,,,,,,,,,,,,,,,,,,,,,,,,,,,,,,,,654.4175189409871,654.4175189409871,654.4175189409871,654.4175189409871,654.4175189409871,654.4175189409871,654.4175189409871,654.4175189409871,654.4175189409871,654.4175189409871,l,0.9916639858856797,10,428,1,655.4352834159508,,656.9370982348919,,,,,,,,,,,,,,,,,,,,,,,,,,,,,,,,,,,,,,,,,,,,,,,,,,,,,,,,,,,,,,,,,,,,,,73086,2022-11-15_08h08.14.697,vts_reward_expectancy_bt_OFFLINE,2022.2.4,60.22447100255246,
0,0,0,1,0,1,0,0,star ,circle,1,0,1,0,2,5,29,10,,,,,,,,,,,,,,,,,,,,,,,,,,,,,,,,,,,,,,,,657.4375903611071,657.4375903611071,657.4375903611071,657.4375903611071,657.4375903611071,657.4375903611071,657.4375903611071,657.4375903611071,657.4375903611071,657.4375903611071,a,0.7518553358968347,10,438,1,658.2218889258802,,659.7233776040375,,,,,,,,,,,,,,,,,,,,,,,,,,,,,,,,,,,,,,,,,,,,,,,,,,,,,,,,,,,,,,,,,,,,,,73086,2022-11-15_08h08.14.697,vts_reward_expectancy_bt_OFFLINE,2022.2.4,60.22447100255246,
0,0,1,0,0,0,0,1,hexagon,star,1,0,1,0,2,6,30,8,,,,,,,,,,,,,,,,,,,,,,,,,,,,,,,,,,,,,,,,660.2240624390543,660.2240624390543,660.2240624390543,660.2240624390543,660.2240624390543,660.2240624390543,660.2240624390543,660.2240624390543,660.2240624390543,660.2240624390543,l,1.1133660988416523,1,439,1,661.3586214040406,,662.8603401801083,,,,,,,,,,,,,,,,,,,,,,,,,,,,,,,,,,,,,,,,,,,,,,,,,,,,,,,,,,,,,,,,,,,,,,73086,2022-11-15_08h08.14.697,vts_reward_expectancy_bt_OFFLINE,2022.2.4,60.22447100255246,
0,0,1,0,1,0,0,0,hexagon,triangle,1,0,1,0,2,7,31,6,,,,,,,,,,,,,,,,,,,,,,,,,,,,,,,,,,,,,,,,663.360688671004,663.360688671004,663.360688671004,663.360688671004,663.360688671004,663.360688671004,663.360688671004,663.360688671004,663.360688671004,663.360688671004,l,1.262171345995739,1,440,1,664.6454628959764,,666.1471422270406,,,,,,,,,,,,,,,,,,,,,,,,,,,,,,,,,,,,,,,,,,,,,,,,,,,,,,,,,,,,,,,,,,,,,,73086,2022-11-15_08h08.14.697,vts_reward_expectancy_bt_OFFLINE,2022.2.4,60.22447100255246,
1,0,0,0,0,0,0,1,triangle,star,1,0,1,0,2,8,32,2,,,,,,,,,,,,,,,,,,,,,,,,,,,,,,,,,,,,,,,,666.647773725912,666.647773725912,666.647773725912,666.647773725912,666.647773725912,666.647773725912,666.647773725912,666.647773725912,666.647773725912,666.647773725912,a,0.2590725861955434,1,441,1,666.9313386739232,,668.433141909074,,,,,,,,,,,,,,,,,,,,,,,,,,,,,,,,,,,,,,,,,,,,,,,,,,,,,,,,,,,,,,,,,,,,,,73086,2022-11-15_08h08.14.697,vts_reward_expectancy_bt_OFFLINE,2022.2.4,60.22447100255246,
0,0,0,1,1,0,0,0,star,triangle,1,0,1,0,2,9,33,9,,,,,,,,,,,,,,,,,,,,,,,,,,,,,,,,,,,,,,,,668.9334051199257,668.9334051199257,668.9334051199257,668.9334051199257,668.9334051199257,668.9334051199257,668.9334051199257,668.9334051199257,668.9334051199257,668.9334051199257,a,0.49299804982729256,10,451,1,669.4507878159638,,670.9524403160904,,,,,,,,,,,,,,,,,,,,,,,,,,,,,,,,,,,,,,,,,,,,,,,,,,,,,,,,,,,,,,,,,,,,,,73086,2022-11-15_08h08.14.697,vts_reward_expectancy_bt_OFFLINE,2022.2.4,60.22447100255246,
0,1,0,0,1,0,0,0,circle,triangle,1,0,1,0,2,10,34,3,,,,,,,,,,,,,,,,,,,,,,,,,,,,,,,,,,,,,,,,671.4532207390293,671.4532207390293,671.4532207390293,671.4532207390293,671.4532207390293,671.4532207390293,671.4532207390293,671.4532207390293,671.4532207390293,671.4532207390293,l,0.47173514286987484,1,452,1,671.9536391859874,,673.4551478140056,,,,,,,,,,,,,,,,,,,,,,,,,,,,,,,,,,,,,,,,,,,,,,,,,,,,,,,,,,,,,,,,,,,,,,73086,2022-11-15_08h08.14.697,vts_reward_expectancy_bt_OFFLINE,2022.2.4,60.22447100255246,
0,0,1,0,0,1,0,0,hexagon,circle,1,0,1,0,2,11,35,7,,,,,,,,,,,,,,,,,,,,,,,,,,,,,,,,,,,,,,,,673.9557522148825,673.9557522148825,673.9557522148825,673.9557522148825,673.9557522148825,673.9557522148825,673.9557522148825,673.9557522148825,673.9557522148825,673.9557522148825,l,0.5348893988411874,10,462,1,674.5231650739443,,676.0247398149222,,,,,,,,,,,,,,,,,,,,,,,,,,,,,,,,,,,,,,,,,,,,,,,,,,,,,,,,,,,,,,,,,,,,,,73086,2022-11-15_08h08.14.697,vts_reward_expectancy_bt_OFFLINE,2022.2.4,60.22447100255246,
0,0,0,1,0,1,0,0,star ,circle,1,0,1,0,3,0,36,10,,,,,,,,,,,,,,,,,,,,,,,,,,,,,,,,,,,,,,,,676.5252888540272,676.5252888540272,676.5252888540272,676.5252888540272,676.5252888540272,676.5252888540272,676.5252888540272,676.5252888540272,676.5252888540272,676.5252888540272,l,0.4957843190059066,10,472,1,677.0423841299489,,678.5441057109274,,,,,,,,,,,,,,,,,,,,,,,,,,,,,,,,,,,,,,,,,,,,,,,,,,,,,,,,,,,,,,,,,,,,,,73086,2022-11-15_08h08.14.697,vts_reward_expectancy_bt_OFFLINE,2022.2.4,60.22447100255246,
0,0,0,1,1,0,0,0,star,triangle,1,0,1,0,3,1,37,9,,,,,,,,,,,,,,,,,,,,,,,,,,,,,,,,,,,,,,,,679.044554916909,679.044554916909,679.044554916909,679.044554916909,679.044554916909,679.044554916909,679.044554916909,679.044554916909,679.044554916909,679.044554916909,a,0.9698052161838859,1,473,1,680.04551219102,,681.5473588989116,,,,,,,,,,,,,,,,,,,,,,,,,,,,,,,,,,,,,,,,,,,,,,,,,,,,,,,,,,,,,,,,,,,,,,73086,2022-11-15_08h08.14.697,vts_reward_expectancy_bt_OFFLINE,2022.2.4,60.22447100255246,
0,0,1,0,1,0,0,0,hexagon,triangle,1,0,1,0,3,2,38,6,,,,,,,,,,,,,,,,,,,,,,,,,,,,,,,,,,,,,,,,682.0481211040169,682.0481211040169,682.0481211040169,682.0481211040169,682.0481211040169,682.0481211040169,682.0481211040169,682.0481211040169,682.0481211040169,682.0481211040169,a,0.8803878470789641,10,483,1,682.9491228500847,,684.4507968889084,,,,,,,,,,,,,,,,,,,,,,,,,,,,,,,,,,,,,,,,,,,,,,,,,,,,,,,,,,,,,,,,,,,,,,73086,2022-11-15_08h08.14.697,vts_reward_expectancy_bt_OFFLINE,2022.2.4,60.22447100255246,
1,0,0,0,0,0,0,1,triangle,star,1,0,1,0,3,3,39,2,,,,,,,,,,,,,,,,,,,,,,,,,,,,,,,,,,,,,,,,684.9512271620333,684.9512271620333,684.9512271620333,684.9512271620333,684.9512271620333,684.9512271620333,684.9512271620333,684.9512271620333,684.9512271620333,684.9512271620333,l,0.5992985018528998,10,493,1,685.5686416099779,687.0699997849297,687.0699997849297,,,,,,,,,,,,,,,,,,,,,,,,,,,,,,,,,,,,,,,,,,,,,,,,,,,,,,,,,,,,,,,,,,,,,,73086,2022-11-15_08h08.14.697,vts_reward_expectancy_bt_OFFLINE,2022.2.4,60.22447100255246,
0,1,0,0,1,0,0,0,circle,triangle,1,0,1,0,3,4,40,3,,,,,,,,,,,,,,,,,,,,,,,,,,,,,,,,,,,,,,,,687.570671729045,687.570671729045,687.570671729045,687.570671729045,687.570671729045,687.570671729045,687.570671729045,687.570671729045,687.570671729045,687.570671729045,a,1.02713548601605,1,494,1,688.6217106750701,,690.1237532740925,,,,,,,,,,,,,,,,,,,,,,,,,,,,,,,,,,,,,,,,,,,,,,,,,,,,,,,,,,,,,,,,,,,,,,73086,2022-11-15_08h08.14.697,vts_reward_expectancy_bt_OFFLINE,2022.2.4,60.22447100255246,
0,1,0,0,0,0,1,0,circle,hexagon,1,0,1,0,3,5,41,4,,,,,,,,,,,,,,,,,,,,,,,,,,,,,,,,,,,,,,,,690.6238968470134,690.6238968470134,690.6238968470134,690.6238968470134,690.6238968470134,690.6238968470134,690.6238968470134,690.6238968470134,690.6238968470134,690.6238968470134,l,0.518183781998232,10,504,1,691.1747687859461,,692.6765094590373,,,,,,,,,,,,,,,,,,,,,,,,,,,,,,,,,,,,,,,,,,,,,,,,,,,,,,,,,,,,,,,,,,,,,,73086,2022-11-15_08h08.14.697,vts_reward_expectancy_bt_OFFLINE,2022.2.4,60.22447100255246,
0,0,1,0,0,0,0,1,hexagon,star,1,0,1,0,3,6,42,8,,,,,,,,,,,,,,,,,,,,,,,,,,,,,,,,,,,,,,,,693.176928259898,693.176928259898,693.176928259898,693.176928259898,693.176928259898,693.176928259898,693.176928259898,693.176928259898,693.176928259898,693.176928259898,a,1.080352578079328,1,505,1,694.2782643709797,,695.7798341070302,,,,,,,,,,,,,,,,,,,,,,,,,,,,,,,,,,,,,,,,,,,,,,,,,,,,,,,,,,,,,,,,,,,,,,73086,2022-11-15_08h08.14.697,vts_reward_expectancy_bt_OFFLINE,2022.2.4,60.22447100255246,
0,0,1,0,0,1,0,0,hexagon,circle,1,0,1,0,3,7,43,7,,,,,,,,,,,,,,,,,,,,,,,,,,,,,,,,,,,,,,,,696.2803801640403,696.2803801640403,696.2803801640403,696.2803801640403,696.2803801640403,696.2803801640403,696.2803801640403,696.2803801640403,696.2803801640403,696.2803801640403,a,0.7443616329692304,10,515,1,697.0480150450021,698.5495749569964,698.5495749569964,,,,,,,,,,,,,,,,,,,,,,,,,,,,,,,,,,,,,,,,,,,,,,,,,,,,,,,,,,,,,,,,,,,,,,73086,2022-11-15_08h08.14.697,vts_reward_expectancy_bt_OFFLINE,2022.2.4,60.22447100255246,
0,1,0,0,0,0,0,1,circle,star,1,0,1,0,3,8,44,5,,,,,,,,,,,,,,,,,,,,,,,,,,,,,,,,,,,,,,,,699.05023028492,699.05023028492,699.05023028492,699.05023028492,699.05023028492,699.05023028492,699.05023028492,699.05023028492,699.05023028492,699.05023028492,a,1.7335472099948674,1,516,1,700.8018095910084,702.3037137358915,702.3037137358915,,,,,,,,,,,,,,,,,,,,,,,,,,,,,,,,,,,,,,,,,,,,,,,,,,,,,,,,,,,,,,,,,,,,,,73086,2022-11-15_08h08.14.697,vts_reward_expectancy_bt_OFFLINE,2022.2.4,60.22447100255246,
1,0,0,0,0,1,0,0,triangle,circle,1,0,1,0,3,9,45,0,,,,,,,,,,,,,,,,,,,,,,,,,,,,,,,,,,,,,,,,702.804264731938,702.804264731938,702.804264731938,702.804264731938,702.804264731938,702.804264731938,702.804264731938,702.804264731938,702.804264731938,702.804264731938,l,0.5889770560897887,1,517,1,703.421607814962,,704.9232242789585,,,,,,,,,,,,,,,,,,,,,,,,,,,,,,,,,,,,,,,,,,,,,,,,,,,,,,,,,,,,,,,,,,,,,,73086,2022-11-15_08h08.14.697,vts_reward_expectancy_bt_OFFLINE,2022.2.4,60.22447100255246,
1,0,0,0,0,0,1,0,triangle,hexagon,1,0,1,0,3,10,46,1,,,,,,,,,,,,,,,,,,,,,,,,,,,,,,,,,,,,,,,,705.4236395088956,705.4236395088956,705.4236395088956,705.4236395088956,705.4236395088956,705.4236395088956,705.4236395088956,705.4236395088956,705.4236395088956,705.4236395088956,l,0.7259873659349978,10,527,1,706.1744338010903,,707.676234214101,,,,,,,,,,,,,,,,,,,,,,,,,,,,,,,,,,,,,,,,,,,,,,,,,,,,,,,,,,,,,,,,,,,,,,73086,2022-11-15_08h08.14.697,vts_reward_expectancy_bt_OFFLINE,2022.2.4,60.22447100255246,
0,0,0,1,0,0,1,0,star,hexagon,1,0,1,0,3,11,47,11,,,,,,,,,,,,,,,,,,,,,,,,,,,,,,,,,,,,,,,,708.1766877849586,708.1766877849586,708.1766877849586,708.1766877849586,708.1766877849586,708.1766877849586,708.1766877849586,708.1766877849586,708.1766877849586,708.1766877849586,a,1.2924369329120964,10,537,1,709.4950716739986,,710.9968851660378,,,,,,,,,,,,,,,,,,,,,,,,,,,,,,,,,,,,,,,,,,,,,,,,,,,,,,,,,,,,,,,,,,,,,,73086,2022-11-15_08h08.14.697,vts_reward_expectancy_bt_OFFLINE,2022.2.4,60.22447100255246,
1,0,0,0,0,0,1,0,triangle,hexagon,2,0,2,0,0,0,0,1,,,,,,,,,,,,,,,,,,,,,,,,,,,,,,,,,,,,,,,,720.7406415950973,720.7406415950973,720.7406415950973,720.7406415950973,720.7406415950973,720.7406415950973,720.7406415950973,720.7406415950973,720.7406415950973,720.7406415950973,l,0.7548794029280543,1,538,2,721.524935826892,723.0263486860786,723.0263486860786,,,,,,,,,,,,,,,,,,,,,,,,,,,,,,,,,,,,,,,,,,,,,,,,,,,,,,,,,,,,,,,,,,,,,,73086,2022-11-15_08h08.14.697,vts_reward_expectancy_bt_OFFLINE,2022.2.4,60.22447100255246,
0,0,1,0,0,0,0,1,hexagon,star,2,0,2,0,0,1,1,8,,,,,,,,,,,,,,,,,,,,,,,,,,,,,,,,,,,,,,,,723.5270629120059,723.5270629120059,723.5270629120059,723.5270629120059,723.5270629120059,723.5270629120059,723.5270629120059,723.5270629120059,723.5270629120059,723.5270629120059,l,0.5107593971770257,1,539,2,724.0609054169618,,725.5625261620153,,,,,,,,,,,,,,,,,,,,,,,,,,,,,,,,,,,,,,,,,,,,,,,,,,,,,,,,,,,,,,,,,,,,,,73086,2022-11-15_08h08.14.697,vts_reward_expectancy_bt_OFFLINE,2022.2.4,60.22447100255246,
0,0,1,0,1,0,0,0,hexagon,triangle,2,0,2,0,0,2,2,6,,,,,,,,,,,,,,,,,,,,,,,,,,,,,,,,,,,,,,,,726.0631631240249,726.0631631240249,726.0631631240249,726.0631631240249,726.0631631240249,726.0631631240249,726.0631631240249,726.0631631240249,726.0631631240249,726.0631631240249,a,0.5073181090410799,10,549,2,726.5969285520259,,728.0990293570794,,,,,,,,,,,,,,,,,,,,,,,,,,,,,,,,,,,,,,,,,,,,,,,,,,,,,,,,,,,,,,,,,,,,,,73086,2022-11-15_08h08.14.697,vts_reward_expectancy_bt_OFFLINE,2022.2.4,60.22447100255246,
0,0,0,1,0,0,1,0,star,hexagon,2,0,2,0,0,3,3,11,,,,,,,,,,,,,,,,,,,,,,,,,,,,,,,,,,,,,,,,728.5990194450133,728.5990194450133,728.5990194450133,728.5990194450133,728.5990194450133,728.5990194450133,728.5990194450133,728.5990194450133,728.5990194450133,728.5990194450133,l,0.9523350920062512,10,559,2,729.5838680290617,,731.0853748798836,,,,,,,,,,,,,,,,,,,,,,,,,,,,,,,,,,,,,,,,,,,,,,,,,,,,,,,,,,,,,,,,,,,,,,73086,2022-11-15_08h08.14.697,vts_reward_expectancy_bt_OFFLINE,2022.2.4,60.22447100255246,
0,0,0,1,1,0,0,0,star,triangle,2,0,2,0,0,4,4,9,,,,,,,,,,,,,,,,,,,,,,,,,,,,,,,,,,,,,,,,731.585995669011,731.585995669011,731.585995669011,731.585995669011,731.585995669011,731.585995669011,731.585995669011,731.585995669011,731.585995669011,731.585995669011,l,1.4193766850512475,1,560,2,733.0374166138936,,734.5391534608789,,,,,,,,,,,,,,,,,,,,,,,,,,,,,,,,,,,,,,,,,,,,,,,,,,,,,,,,,,,,,,,,,,,,,,73086,2022-11-15_08h08.14.697,vts_reward_expectancy_bt_OFFLINE,2022.2.4,60.22447100255246,
0,1,0,0,0,0,0,1,circle,star,2,0,2,0,0,5,5,5,,,,,,,,,,,,,,,,,,,,,,,,,,,,,,,,,,,,,,,,735.039832561044,735.039832561044,735.039832561044,735.039832561044,735.039832561044,735.039832561044,735.039832561044,735.039832561044,735.039832561044,735.039832561044,a,1.172194808954373,1,561,2,736.241002725903,,737.7427882140037,,,,,,,,,,,,,,,,,,,,,,,,,,,,,,,,,,,,,,,,,,,,,,,,,,,,,,,,,,,,,,,,,,,,,,73086,2022-11-15_08h08.14.697,vts_reward_expectancy_bt_OFFLINE,2022.2.4,60.22447100255246,
0,1,0,0,1,0,0,0,circle,triangle,2,0,2,0,0,6,6,3,,,,,,,,,,,,,,,,,,,,,,,,,,,,,,,,,,,,,,,,738.2432370819151,738.2432370819151,738.2432370819151,738.2432370819151,738.2432370819151,738.2432370819151,738.2432370819151,738.2432370819151,738.2432370819151,738.2432370819151,a,0.5572463029529899,1,562,2,738.8273545370903,,740.3289675659034,,,,,,,,,,,,,,,,,,,,,,,,,,,,,,,,,,,,,,,,,,,,,,,,,,,,,,,,,,,,,,,,,,,,,,73086,2022-11-15_08h08.14.697,vts_reward_expectancy_bt_OFFLINE,2022.2.4,60.22447100255246,
0,0,0,1,0,1,0,0,star ,circle,2,0,2,0,0,7,7,10,,,,,,,,,,,,,,,,,,,,,,,,,,,,,,,,,,,,,,,,740.8295896349009,740.8295896349009,740.8295896349009,740.8295896349009,740.8295896349009,740.8295896349009,740.8295896349009,740.8295896349009,740.8295896349009,740.8295896349009,a,0.501658733934164,1,563,2,741.3634619161021,,742.8653017310426,,,,,,,,,,,,,,,,,,,,,,,,,,,,,,,,,,,,,,,,,,,,,,,,,,,,,,,,,,,,,,,,,,,,,,73086,2022-11-15_08h08.14.697,vts_reward_expectancy_bt_OFFLINE,2022.2.4,60.22447100255246,
0,1,0,0,0,0,1,0,circle,hexagon,2,0,2,0,0,8,8,4,,,,,,,,,,,,,,,,,,,,,,,,,,,,,,,,,,,,,,,,743.3656705040485,743.3656705040485,743.3656705040485,743.3656705040485,743.3656705040485,743.3656705040485,743.3656705040485,743.3656705040485,743.3656705040485,743.3656705040485,a,0.6762298089452088,1,564,2,744.0665933350101,,745.5682493159547,,,,,,,,,,,,,,,,,,,,,,,,,,,,,,,,,,,,,,,,,,,,,,,,,,,,,,,,,,,,,,,,,,,,,,73086,2022-11-15_08h08.14.697,vts_reward_expectancy_bt_OFFLINE,2022.2.4,60.22447100255246,
1,0,0,0,0,0,0,1,triangle,star,2,0,2,0,0,9,9,2,,,,,,,,,,,,,,,,,,,,,,,,,,,,,,,,,,,,,,,,746.0685132648796,746.0685132648796,746.0685132648796,746.0685132648796,746.0685132648796,746.0685132648796,746.0685132648796,746.0685132648796,746.0685132648796,746.0685132648796,a,0.6411422861274332,1,565,2,746.7359280849341,,748.2375051509589,,,,,,,,,,,,,,,,,,,,,,,,,,,,,,,,,,,,,,,,,,,,,,,,,,,,,,,,,,,,,,,,,,,,,,73086,2022-11-15_08h08.14.697,vts_reward_expectancy_bt_OFFLINE,2022.2.4,60.22447100255246,
0,0,1,0,0,1,0,0,hexagon,circle,2,0,2,0,0,10,10,7,,,,,,,,,,,,,,,,,,,,,,,,,,,,,,,,,,,,,,,,748.7380477949046,748.7380477949046,748.7380477949046,748.7380477949046,748.7380477949046,748.7380477949046,748.7380477949046,748.7380477949046,748.7380477949046,748.7380477949046,l,0.6029581178445369,10,575,2,749.3721881920937,,750.874176963931,,,,,,,,,,,,,,,,,,,,,,,,,,,,,,,,,,,,,,,,,,,,,,,,,,,,,,,,,,,,,,,,,,,,,,73086,2022-11-15_08h08.14.697,vts_reward_expectancy_bt_OFFLINE,2022.2.4,60.22447100255246,
1,0,0,0,0,1,0,0,triangle,circle,2,0,2,0,0,11,11,0,,,,,,,,,,,,,,,,,,,,,,,,,,,,,,,,,,,,,,,,751.3745739650913,751.3745739650913,751.3745739650913,751.3745739650913,751.3745739650913,751.3745739650913,751.3745739650913,751.3745739650913,751.3745739650913,751.3745739650913,l,0.43154915887862444,10,585,2,751.8249469948933,,753.3266360850539,,,,,,,,,,,,,,,,,,,,,,,,,,,,,,,,,,,,,,,,,,,,,,,,,,,,,,,,,,,,,,,,,,,,,,73086,2022-11-15_08h08.14.697,vts_reward_expectancy_bt_OFFLINE,2022.2.4,60.22447100255246,
1,0,0,0,0,0,0,1,triangle,star,2,0,2,0,1,0,12,2,,,,,,,,,,,,,,,,,,,,,,,,,,,,,,,,,,,,,,,,753.8271938411053,753.8271938411053,753.8271938411053,753.8271938411053,753.8271938411053,753.8271938411053,753.8271938411053,753.8271938411053,753.8271938411053,753.8271938411053,l,0.6907867121044546,1,586,2,754.5445371540263,,756.0464637021068,,,,,,,,,,,,,,,,,,,,,,,,,,,,,,,,,,,,,,,,,,,,,,,,,,,,,,,,,,,,,,,,,,,,,,73086,2022-11-15_08h08.14.697,vts_reward_expectancy_bt_OFFLINE,2022.2.4,60.22447100255246,
0,0,0,1,1,0,0,0,star,triangle,2,0,2,0,1,1,13,9,,,,,,,,,,,,,,,,,,,,,,,,,,,,,,,,,,,,,,,,756.5468596119899,756.5468596119899,756.5468596119899,756.5468596119899,756.5468596119899,756.5468596119899,756.5468596119899,756.5468596119899,756.5468596119899,756.5468596119899,a,0.2680480789858848,1,587,2,756.8472300800495,,758.34882956394,,,,,,,,,,,,,,,,,,,,,,,,,,,,,,,,,,,,,,,,,,,,,,,,,,,,,,,,,,,,,,,,,,,,,,73086,2022-11-15_08h08.14.697,vts_reward_expectancy_bt_OFFLINE,2022.2.4,60.22447100255246,
0,0,0,1,0,1,0,0,star ,circle,2,0,2,0,1,2,14,10,,,,,,,,,,,,,,,,,,,,,,,,,,,,,,,,,,,,,,,,758.84937429009,758.84937429009,758.84937429009,758.84937429009,758.84937429009,758.84937429009,758.84937429009,758.84937429009,758.84937429009,758.84937429009,l,0.26874526985920966,1,588,2,759.1497250190005,,760.6513148059603,,,,,,,,,,,,,,,,,,,,,,,,,,,,,,,,,,,,,,,,,,,,,,,,,,,,,,,,,,,,,,,,,,,,,,73086,2022-11-15_08h08.14.697,vts_reward_expectancy_bt_OFFLINE,2022.2.4,60.22447100255246,
0,0,1,0,0,1,0,0,hexagon,circle,2,0,2,0,1,3,15,7,,,,,,,,,,,,,,,,,,,,,,,,,,,,,,,,,,,,,,,,761.1518530549947,761.1518530549947,761.1518530549947,761.1518530549947,761.1518530549947,761.1518530549947,761.1518530549947,761.1518530549947,761.1518530549947,761.1518530549947,l,0.21774190198630095,10,598,2,761.4021364990622,,762.9038679560181,,,,,,,,,,,,,,,,,,,,,,,,,,,,,,,,,,,,,,,,,,,,,,,,,,,,,,,,,,,,,,,,,,,,,,73086,2022-11-15_08h08.14.697,vts_reward_expectancy_bt_OFFLINE,2022.2.4,60.22447100255246,
0,1,0,0,0,0,0,1,circle,star,2,0,2,0,1,4,16,5,,,,,,,,,,,,,,,,,,,,,,,,,,,,,,,,,,,,,,,,763.4044478100259,763.4044478100259,763.4044478100259,763.4044478100259,763.4044478100259,763.4044478100259,763.4044478100259,763.4044478100259,763.4044478100259,763.4044478100259,l,0.29343513306230307,10,608,2,763.7215804050211,,765.2231643940322,,,,,,,,,,,,,,,,,,,,,,,,,,,,,,,,,,,,,,,,,,,,,,,,,,,,,,,,,,,,,,,,,,,,,,73086,2022-11-15_08h08.14.697,vts_reward_expectancy_bt_OFFLINE,2022.2.4,60.22447100255246,
1,0,0,0,0,1,0,0,triangle,circle,2,0,2,0,1,5,17,0,,,,,,,,,,,,,,,,,,,,,,,,,,,,,,,,,,,,,,,,765.7238638270646,765.7238638270646,765.7238638270646,765.7238638270646,765.7238638270646,765.7238638270646,765.7238638270646,765.7238638270646,765.7238638270646,765.7238638270646,l,0.26923140115104616,1,609,2,766.0242312690243,,767.5256953518838,,,,,,,,,,,,,,,,,,,,,,,,,,,,,,,,,,,,,,,,,,,,,,,,,,,,,,,,,,,,,,,,,,,,,,73086,2022-11-15_08h08.14.697,vts_reward_expectancy_bt_OFFLINE,2022.2.4,60.22447100255246,
1,0,0,0,0,0,1,0,triangle,hexagon,2,0,2,0,1,6,18,1,,,,,,,,,,,,,,,,,,,,,,,,,,,,,,,,,,,,,,,,768.0264493760187,768.0264493760187,768.0264493760187,768.0264493760187,768.0264493760187,768.0264493760187,768.0264493760187,768.0264493760187,768.0264493760187,768.0264493760187,a,0.21752131590619683,1,610,2,768.2763781950343,,769.7780685289763,,,,,,,,,,,,,,,,,,,,,,,,,,,,,,,,,,,,,,,,,,,,,,,,,,,,,,,,,,,,,,,,,,,,,,73086,2022-11-15_08h08.14.697,vts_reward_expectancy_bt_OFFLINE,2022.2.4,60.22447100255246,
0,1,0,0,1,0,0,0,circle,triangle,2,0,2,0,1,7,19,3,,,,,,,,,,,,,,,,,,,,,,,,,,,,,,,,,,,,,,,,770.2788278369699,770.2788278369699,770.2788278369699,770.2788278369699,770.2788278369699,770.2788278369699,770.2788278369699,770.2788278369699,770.2788278369699,770.2788278369699,a,0.057516069151461124,1,611,2,770.3620693299454,,771.8637738500256,,,,,,,,,,,,,,,,,,,,,,,,,,,,,,,,,,,,,,,,,,,,,,,,,,,,,,,,,,,,,,,,,,,,,,73086,2022-11-15_08h08.14.697,vts_reward_expectancy_bt_OFFLINE,2022.2.4,60.22447100255246,
0,0,1,0,0,0,0,1,hexagon,star,2,0,2,0,1,8,20,8,,,,,,,,,,,,,,,,,,,,,,,,,,,,,,,,,,,,,,,,772.3641503159888,772.3641503159888,772.3641503159888,772.3641503159888,772.3641503159888,772.3641503159888,772.3641503159888,772.3641503159888,772.3641503159888,772.3641503159888,l,0.1429163389839232,10,621,2,772.5312364690471,,774.0327085619792,,,,,,,,,,,,,,,,,,,,,,,,,,,,,,,,,,,,,,,,,,,,,,,,,,,,,,,,,,,,,,,,,,,,,,73086,2022-11-15_08h08.14.697,vts_reward_expectancy_bt_OFFLINE,2022.2.4,60.22447100255246,
0,0,0,1,0,0,1,0,star,hexagon,2,0,2,0,1,9,21,11,,,,,,,,,,,,,,,,,,,,,,,,,,,,,,,,,,,,,,,,774.5332961110398,774.5332961110398,774.5332961110398,774.5332961110398,774.5332961110398,774.5332961110398,774.5332961110398,774.5332961110398,774.5332961110398,774.5332961110398,l,0.5520256059244275,10,631,2,775.1340548261069,,776.6355828160886,,,,,,,,,,,,,,,,,,,,,,,,,,,,,,,,,,,,,,,,,,,,,,,,,,,,,,,,,,,,,,,,,,,,,,73086,2022-11-15_08h08.14.697,vts_reward_expectancy_bt_OFFLINE,2022.2.4,60.22447100255246,
0,1,0,0,0,0,1,0,circle,hexagon,2,0,2,0,1,10,22,4,,,,,,,,,,,,,,,,,,,,,,,,,,,,,,,,,,,,,,,,777.1360865689348,777.1360865689348,777.1360865689348,777.1360865689348,777.1360865689348,777.1360865689348,777.1360865689348,777.1360865689348,777.1360865689348,777.1360865689348,l,0.300993958953768,1,632,2,777.4699021610431,,778.9716130068991,,,,,,,,,,,,,,,,,,,,,,,,,,,,,,,,,,,,,,,,,,,,,,,,,,,,,,,,,,,,,,,,,,,,,,73086,2022-11-15_08h08.14.697,vts_reward_expectancy_bt_OFFLINE,2022.2.4,60.22447100255246,
0,0,1,0,1,0,0,0,hexagon,triangle,2,0,2,0,1,11,23,6,,,,,,,,,,,,,,,,,,,,,,,,,,,,,,,,,,,,,,,,779.4722386000212,779.4722386000212,779.4722386000212,779.4722386000212,779.4722386000212,779.4722386000212,779.4722386000212,779.4722386000212,779.4722386000212,779.4722386000212,l,0.26892917416989803,1,633,2,779.7722252949607,,781.2740678798873,,,,,,,,,,,,,,,,,,,,,,,,,,,,,,,,,,,,,,,,,,,,,,,,,,,,,,,,,,,,,,,,,,,,,,73086,2022-11-15_08h08.14.697,vts_reward_expectancy_bt_OFFLINE,2022.2.4,60.22447100255246,
1,0,0,0,0,0,0,1,triangle,star,2,0,2,0,2,0,24,2,,,,,,,,,,,,,,,,,,,,,,,,,,,,,,,,,,,,,,,,781.7747738040052,781.7747738040052,781.7747738040052,781.7747738040052,781.7747738040052,781.7747738040052,781.7747738040052,781.7747738040052,781.7747738040052,781.7747738040052,a,0.22726874006912112,10,643,2,782.0249986650888,,783.526627629064,,,,,,,,,,,,,,,,,,,,,,,,,,,,,,,,,,,,,,,,,,,,,,,,,,,,,,,,,,,,,,,,,,,,,,73086,2022-11-15_08h08.14.697,vts_reward_expectancy_bt_OFFLINE,2022.2.4,60.22447100255246,
0,0,1,0,0,1,0,0,hexagon,circle,2,0,2,0,2,1,25,7,,,,,,,,,,,,,,,,,,,,,,,,,,,,,,,,,,,,,,,,784.027245386038,784.027245386038,784.027245386038,784.027245386038,784.027245386038,784.027245386038,784.027245386038,784.027245386038,784.027245386038,784.027245386038,a,0.27034179493784904,1,644,2,784.3274944459554,,785.8290935400873,,,,,,,,,,,,,,,,,,,,,,,,,,,,,,,,,,,,,,,,,,,,,,,,,,,,,,,,,,,,,,,,,,,,,,73086,2022-11-15_08h08.14.697,vts_reward_expectancy_bt_OFFLINE,2022.2.4,60.22447100255246,
1,0,0,0,0,1,0,0,triangle,circle,2,0,2,0,2,2,26,0,,,,,,,,,,,,,,,,,,,,,,,,,,,,,,,,,,,,,,,,786.3296550689265,786.3296550689265,786.3296550689265,786.3296550689265,786.3296550689265,786.3296550689265,786.3296550689265,786.3296550689265,786.3296550689265,786.3296550689265,l,0.5780592791270465,10,654,2,786.9303884808905,,788.4319809300359,,,,,,,,,,,,,,,,,,,,,,,,,,,,,,,,,,,,,,,,,,,,,,,,,,,,,,,,,,,,,,,,,,,,,,73086,2022-11-15_08h08.14.697,vts_reward_expectancy_bt_OFFLINE,2022.2.4,60.22447100255246,
0,1,0,0,0,0,0,1,circle,star,2,0,2,0,2,3,27,5,,,,,,,,,,,,,,,,,,,,,,,,,,,,,,,,,,,,,,,,788.9326696870849,788.9326696870849,788.9326696870849,788.9326696870849,788.9326696870849,788.9326696870849,788.9326696870849,788.9326696870849,788.9326696870849,788.9326696870849,l,0.29301620298065245,1,655,2,789.249859184958,790.7512752360199,790.7512752360199,,,,,,,,,,,,,,,,,,,,,,,,,,,,,,,,,,,,,,,,,,,,,,,,,,,,,,,,,,,,,,,,,,,,,,73086,2022-11-15_08h08.14.697,vts_reward_expectancy_bt_OFFLINE,2022.2.4,60.22447100255246,
0,0,0,1,1,0,0,0,star,triangle,2,0,2,0,2,4,28,9,,,,,,,,,,,,,,,,,,,,,,,,,,,,,,,,,,,,,,,,791.2518304400146,791.2518304400146,791.2518304400146,791.2518304400146,791.2518304400146,791.2518304400146,791.2518304400146,791.2518304400146,791.2518304400146,791.2518304400146,l,0.30226151598617435,1,656,2,791.5857502860017,793.0871359710582,793.0871359710582,,,,,,,,,,,,,,,,,,,,,,,,,,,,,,,,,,,,,,,,,,,,,,,,,,,,,,,,,,,,,,,,,,,,,,73086,2022-11-15_08h08.14.697,vts_reward_expectancy_bt_OFFLINE,2022.2.4,60.22447100255246,
0,1,0,0,1,0,0,0,circle,triangle,2,0,2,0,2,5,29,3,,,,,,,,,,,,,,,,,,,,,,,,,,,,,,,,,,,,,,,,793.5877167768776,793.5877167768776,793.5877167768776,793.5877167768776,793.5877167768776,793.5877167768776,793.5877167768776,793.5877167768776,793.5877167768776,793.5877167768776,a,0.21795486798509955,10,666,2,793.838134536054,,795.3396273208782,,,,,,,,,,,,,,,,,,,,,,,,,,,,,,,,,,,,,,,,,,,,,,,,,,,,,,,,,,,,,,,,,,,,,,73086,2022-11-15_08h08.14.697,vts_reward_expectancy_bt_OFFLINE,2022.2.4,60.22447100255246,
0,0,0,1,0,0,1,0,star,hexagon,2,0,2,0,2,6,30,11,,,,,,,,,,,,,,,,,,,,,,,,,,,,,,,,,,,,,,,,795.8403487938922,795.8403487938922,795.8403487938922,795.8403487938922,795.8403487938922,795.8403487938922,795.8403487938922,795.8403487938922,795.8403487938922,795.8403487938922,a,0.31772952107712626,10,676,2,796.1904810839333,,797.6921185520478,,,,,,,,,,,,,,,,,,,,,,,,,,,,,,,,,,,,,,,,,,,,,,,,,,,,,,,,,,,,,,,,,,,,,,73086,2022-11-15_08h08.14.697,vts_reward_expectancy_bt_OFFLINE,2022.2.4,60.22447100255246,
0,1,0,0,0,0,1,0,circle,hexagon,2,0,2,0,2,7,31,4,,,,,,,,,,,,,,,,,,,,,,,,,,,,,,,,,,,,,,,,798.1927038370632,798.1927038370632,798.1927038370632,798.1927038370632,798.1927038370632,798.1927038370632,798.1927038370632,798.1927038370632,798.1927038370632,798.1927038370632,a,0.25860975007526577,10,686,2,798.4764619099442,,799.9781454149634,,,,,,,,,,,,,,,,,,,,,,,,,,,,,,,,,,,,,,,,,,,,,,,,,,,,,,,,,,,,,,,,,,,,,,73086,2022-11-15_08h08.14.697,vts_reward_expectancy_bt_OFFLINE,2022.2.4,60.22447100255246,
0,0,1,0,0,0,0,1,hexagon,star,2,0,2,0,2,8,32,8,,,,,,,,,,,,,,,,,,,,,,,,,,,,,,,,,,,,,,,,800.4785898439586,800.4785898439586,800.4785898439586,800.4785898439586,800.4785898439586,800.4785898439586,800.4785898439586,800.4785898439586,800.4785898439586,800.4785898439586,a,0.23464015102945268,1,687,2,800.7456315450836,,802.2473600860685,,,,,,,,,,,,,,,,,,,,,,,,,,,,,,,,,,,,,,,,,,,,,,,,,,,,,,,,,,,,,,,,,,,,,,73086,2022-11-15_08h08.14.697,vts_reward_expectancy_bt_OFFLINE,2022.2.4,60.22447100255246,
0,0,0,1,0,1,0,0,star ,circle,2,0,2,0,2,9,33,10,,,,,,,,,,,,,,,,,,,,,,,,,,,,,,,,,,,,,,,,802.7478053090163,802.7478053090163,802.7478053090163,802.7478053090163,802.7478053090163,802.7478053090163,802.7478053090163,802.7478053090163,802.7478053090163,802.7478053090163,l,0.11446951213292778,10,697,2,802.8811469851062,,804.38321515196,,,,,,,,,,,,,,,,,,,,,,,,,,,,,,,,,,,,,,,,,,,,,,,,,,,,,,,,,,,,,,,,,,,,,,73086,2022-11-15_08h08.14.697,vts_reward_expectancy_bt_OFFLINE,2022.2.4,60.22447100255246,
1,0,0,0,0,0,1,0,triangle,hexagon,2,0,2,0,2,10,34,1,,,,,,,,,,,,,,,,,,,,,,,,,,,,,,,,,,,,,,,,804.8836404199246,804.8836404199246,804.8836404199246,804.8836404199246,804.8836404199246,804.8836404199246,804.8836404199246,804.8836404199246,804.8836404199246,804.8836404199246,l,0.274538995930925,10,707,2,805.184023798909,,806.6854515420273,,,,,,,,,,,,,,,,,,,,,,,,,,,,,,,,,,,,,,,,,,,,,,,,,,,,,,,,,,,,,,,,,,,,,,73086,2022-11-15_08h08.14.697,vts_reward_expectancy_bt_OFFLINE,2022.2.4,60.22447100255246,
0,0,1,0,1,0,0,0,hexagon,triangle,2,0,2,0,2,11,35,6,,,,,,,,,,,,,,,,,,,,,,,,,,,,,,,,,,,,,,,,807.185956445057,807.185956445057,807.185956445057,807.185956445057,807.185956445057,807.185956445057,807.185956445057,807.185956445057,807.185956445057,807.185956445057,l,0.05214546783827245,1,708,2,807.2693201838993,,808.7713447019923,,,,,,,,,,,,,,,,,,,,,,,,,,,,,,,,,,,,,,,,,,,,,,,,,,,,,,,,,,,,,,,,,,,,,,73086,2022-11-15_08h08.14.697,vts_reward_expectancy_bt_OFFLINE,2022.2.4,60.22447100255246,
1,0,0,0,0,1,0,0,triangle,circle,2,0,2,0,3,0,36,0,,,,,,,,,,,,,,,,,,,,,,,,,,,,,,,,,,,,,,,,809.2715651069302,809.2715651069302,809.2715651069302,809.2715651069302,809.2715651069302,809.2715651069302,809.2715651069302,809.2715651069302,809.2715651069302,809.2715651069302,a,0.4759039240889251,10,718,2,809.7720276170876,,811.2739499299787,,,,,,,,,,,,,,,,,,,,,,,,,,,,,,,,,,,,,,,,,,,,,,,,,,,,,,,,,,,,,,,,,,,,,,73086,2022-11-15_08h08.14.697,vts_reward_expectancy_bt_OFFLINE,2022.2.4,60.22447100255246,
1,0,0,0,0,0,1,0,triangle,hexagon,2,0,2,0,3,1,37,1,,,,,,,,,,,,,,,,,,,,,,,,,,,,,,,,,,,,,,,,811.774467038922,811.774467038922,811.774467038922,811.774467038922,811.774467038922,811.774467038922,811.774467038922,811.774467038922,811.774467038922,811.774467038922,a,0.033413109136745334,10,728,2,811.824568211101,813.3261955638882,813.3261955638882,,,,,,,,,,,,,,,,,,,,,,,,,,,,,,,,,,,,,,,,,,,,,,,,,,,,,,,,,,,,,,,,,,,,,,73086,2022-11-15_08h08.14.697,vts_reward_expectancy_bt_OFFLINE,2022.2.4,60.22447100255246,
0,0,0,1,1,0,0,0,star,triangle,2,0,2,0,3,2,38,9,,,,,,,,,,,,,,,,,,,,,,,,,,,,,,,,,,,,,,,,813.8268788550049,813.8268788550049,813.8268788550049,813.8268788550049,813.8268788550049,813.8268788550049,813.8268788550049,813.8268788550049,813.8268788550049,813.8268788550049,a,0.2514250900130719,10,738,2,814.1102736659814,,815.6121593420394,,,,,,,,,,,,,,,,,,,,,,,,,,,,,,,,,,,,,,,,,,,,,,,,,,,,,,,,,,,,,,,,,,,,,,73086,2022-11-15_08h08.14.697,vts_reward_expectancy_bt_OFFLINE,2022.2.4,60.22447100255246,
0,0,1,0,0,0,0,1,hexagon,star,2,0,2,0,3,3,39,8,,,,,,,,,,,,,,,,,,,,,,,,,,,,,,,,,,,,,,,,816.1127033689991,816.1127033689991,816.1127033689991,816.1127033689991,816.1127033689991,816.1127033689991,816.1127033689991,816.1127033689991,816.1127033689991,816.1127033689991,a,0.23858949588611722,1,739,2,816.379665001994,,817.8812733700033,,,,,,,,,,,,,,,,,,,,,,,,,,,,,,,,,,,,,,,,,,,,,,,,,,,,,,,,,,,,,,,,,,,,,,73086,2022-11-15_08h08.14.697,vts_reward_expectancy_bt_OFFLINE,2022.2.4,60.22447100255246,
0,0,1,0,1,0,0,0,hexagon,triangle,2,0,2,0,3,4,40,6,,,,,,,,,,,,,,,,,,,,,,,,,,,,,,,,,,,,,,,,818.3813486748841,818.3813486748841,818.3813486748841,818.3813486748841,818.3813486748841,818.3813486748841,818.3813486748841,818.3813486748841,818.3813486748841,818.3813486748841,a,0.07517164596356452,10,749,2,818.4817596951034,,819.9837853859644,,,,,,,,,,,,,,,,,,,,,,,,,,,,,,,,,,,,,,,,,,,,,,,,,,,,,,,,,,,,,,,,,,,,,,73086,2022-11-15_08h08.14.697,vts_reward_expectancy_bt_OFFLINE,2022.2.4,60.22447100255246,
1,0,0,0,0,0,0,1,triangle,star,2,0,2,0,3,5,41,2,,,,,,,,,,,,,,,,,,,,,,,,,,,,,,,,,,,,,,,,820.4840154040139,820.4840154040139,820.4840154040139,820.4840154040139,820.4840154040139,820.4840154040139,820.4840154040139,820.4840154040139,820.4840154040139,820.4840154040139,l,0.26793751004152,10,759,2,820.784266862087,,822.2859650799073,,,,,,,,,,,,,,,,,,,,,,,,,,,,,,,,,,,,,,,,,,,,,,,,,,,,,,,,,,,,,,,,,,,,,,73086,2022-11-15_08h08.14.697,vts_reward_expectancy_bt_OFFLINE,2022.2.4,60.22447100255246,
0,1,0,0,0,0,1,0,circle,hexagon,2,0,2,0,3,6,42,4,,,,,,,,,,,,,,,,,,,,,,,,,,,,,,,,,,,,,,,,822.7865454670973,822.7865454670973,822.7865454670973,822.7865454670973,822.7865454670973,822.7865454670973,822.7865454670973,822.7865454670973,822.7865454670973,822.7865454670973,a,0.18136044102720916,1,760,2,822.9868062990718,,824.4884977610782,,,,,,,,,,,,,,,,,,,,,,,,,,,,,,,,,,,,,,,,,,,,,,,,,,,,,,,,,,,,,,,,,,,,,,73086,2022-11-15_08h08.14.697,vts_reward_expectancy_bt_OFFLINE,2022.2.4,60.22447100255246,
0,1,0,0,0,0,0,1,circle,star,2,0,2,0,3,7,43,5,,,,,,,,,,,,,,,,,,,,,,,,,,,,,,,,,,,,,,,,824.9888800960034,824.9888800960034,824.9888800960034,824.9888800960034,824.9888800960034,824.9888800960034,824.9888800960034,824.9888800960034,824.9888800960034,824.9888800960034,a,0.18457234208472073,10,770,2,825.2059534660075,,826.7077234019525,,,,,,,,,,,,,,,,,,,,,,,,,,,,,,,,,,,,,,,,,,,,,,,,,,,,,,,,,,,,,,,,,,,,,,73086,2022-11-15_08h08.14.697,vts_reward_expectancy_bt_OFFLINE,2022.2.4,60.22447100255246,
0,0,0,1,0,0,1,0,star,hexagon,2,0,2,0,3,8,44,11,,,,,,,,,,,,,,,,,,,,,,,,,,,,,,,,,,,,,,,,827.2082513039932,827.2082513039932,827.2082513039932,827.2082513039932,827.2082513039932,827.2082513039932,827.2082513039932,827.2082513039932,827.2082513039932,827.2082513039932,a,0.24843286513350904,1,771,2,827.4750884650275,,828.9770422219299,,,,,,,,,,,,,,,,,,,,,,,,,,,,,,,,,,,,,,,,,,,,,,,,,,,,,,,,,,,,,,,,,,,,,,73086,2022-11-15_08h08.14.697,vts_reward_expectancy_bt_OFFLINE,2022.2.4,60.22447100255246,
0,0,1,0,0,1,0,0,hexagon,circle,2,0,2,0,3,9,45,7,,,,,,,,,,,,,,,,,,,,,,,,,,,,,,,,,,,,,,,,829.4772771100979,829.4772771100979,829.4772771100979,829.4772771100979,829.4772771100979,829.4772771100979,829.4772771100979,829.4772771100979,829.4772771100979,829.4772771100979,a,0.22939700004644692,10,781,2,829.7276651759166,,831.2293718559667,,,,,,,,,,,,,,,,,,,,,,,,,,,,,,,,,,,,,,,,,,,,,,,,,,,,,,,,,,,,,,,,,,,,,,73086,2022-11-15_08h08.14.697,vts_reward_expectancy_bt_OFFLINE,2022.2.4,60.22447100255246,
0,1,0,0,1,0,0,0,circle,triangle,2,0,2,0,3,10,46,3,,,,,,,,,,,,,,,,,,,,,,,,,,,,,,,,,,,,,,,,831.7297564900946,831.7297564900946,831.7297564900946,831.7297564900946,831.7297564900946,831.7297564900946,831.7297564900946,831.7297564900946,831.7297564900946,831.7297564900946,l,0.27157478290610015,1,782,2,832.030045876978,,833.5317003570963,,,,,,,,,,,,,,,,,,,,,,,,,,,,,,,,,,,,,,,,,,,,,,,,,,,,,,,,,,,,,,,,,,,,,,73086,2022-11-15_08h08.14.697,vts_reward_expectancy_bt_OFFLINE,2022.2.4,60.22447100255246,
0,0,0,1,0,1,0,0,star ,circle,2,0,2,0,3,11,47,10,,,,,,,,,,,,,,,,,,,,,,,,,,,,,,,,,,,,,,,,834.032453546999,834.032453546999,834.032453546999,834.032453546999,834.032453546999,834.032453546999,834.032453546999,834.032453546999,834.032453546999,834.032453546999,a,0.08465253189206123,1,783,2,834.1492232459132,835.6509796439204,835.6509796439204,,,,,,,,,,,,,,,,,,,,,,,,,,,,,,,,,,,,,,,,,,,,,,,,,,,,,,,,,,,,,,,,,,,,,,73086,2022-11-15_08h08.14.697,vts_reward_expectancy_bt_OFFLINE,2022.2.4,60.22447100255246,
,,,,,,,,,,,,,,,,,,0,0,0,0,0,0,0,0,,,,,,,,,,,,,,,,,,,,,,,,,,,,,,,,,,,,,,,,,,,,,,,,,868.2033227449283,B,160,hexagon,0.0020256950519979,864.1325033609755,865.6338457099628,865.6338457099628,865.6338457099628,1,0,d,1.0417936178855598,0,866.7184559900779,,,,,,,,,,,,,,,,,,,,,,,,,,,,,,,,,,,,,,,,,,,,,,,,,,,,,,,,73086,2022-11-15_08h08.14.697,vts_reward_expectancy_bt_OFFLINE,2022.2.4,60.22447100255246,
,,,,,,,,,,,,,,,,,,0,0,0,0,1,0,1,0,,,,,,,,,,,,,,,,,,,,,,,,,,,,,,,,,,,,,,,,,,,,,,,,,873.1087096149568,F,132,circle,0.0009458279237151146,869.1893272919115,870.6893481740262,870.6893481740262,870.6893481740262,1,0,d,0.8916155099868774,0,871.6070223900024,,,,,,,,,,,,,,,,,,,,,,,,,,,,,,,,,,,,,,,,,,,,,,,,,,,,,,,,73086,2022-11-15_08h08.14.697,vts_reward_expectancy_bt_OFFLINE,2022.2.4,60.22447100255246,
,,,,,,,,,,,,,,,,,,0,0,0,0,2,0,2,0,,,,,,,,,,,,,,,,,,,,,,,,,,,,,,,,,,,,,,,,,,,,,,,,,877.9808925238904,H,139,triangle,0.0014264120254665613,874.0936598409899,875.5949386400171,875.5949386400171,875.5949386400171,1,0,d,0.8580383099615574,0,876.4789104920346,,,,,,,,,,,,,,,,,,,,,,,,,,,,,,,,,,,,,,,,,,,,,,,,,,,,,,,,73086,2022-11-15_08h08.14.697,vts_reward_expectancy_bt_OFFLINE,2022.2.4,60.22447100255246,
,,,,,,,,,,,,,,,,,,0,0,0,0,3,0,3,0,,,,,,,,,,,,,,,,,,,,,,,,,,,,,,,,,,,,,,,,,,,,,,,,,882.6358041020576,Y,174,star,0.0014508028980344534,878.96562295896,880.4667171300389,880.4667171300389,880.4667171300389,1,0,f,0.6349389359820634,0,881.1341002909467,,,,,,,,,,,,,,,,,,,,,,,,,,,,,,,,,,,,,,,,,,,,,,,,,,,,,,,,73086,2022-11-15_08h08.14.697,vts_reward_expectancy_bt_OFFLINE,2022.2.4,60.22447100255246,
,,,,,,,,,,,,,,,,,,0,0,0,0,4,0,4,0,,,,,,,,,,,,,,,,,,,,,,,,,,,,,,,,,,,,,,,,,,,,,,,,,887.2580413320102,D,181,hexagon,0.00147596700116992,883.6207287888974,885.1216902900487,885.1216902900487,885.1216902900487,1,0,d,0.6021537620108575,0,885.7558705189731,,,,,,,,,,,,,,,,,,,,,,,,,,,,,,,,,,,,,,,,,,,,,,,,,,,,,,,,73086,2022-11-15_08h08.14.697,vts_reward_expectancy_bt_OFFLINE,2022.2.4,60.22447100255246,
,,,,,,,,,,,,,,,,,,0,0,0,0,5,0,5,0,,,,,,,,,,,,,,,,,,,,,,,,,,,,,,,,,,,,,,,,,,,,,,,,,891.8794701199513,U,125,triangle,0.0011502911802381277,888.3253190459218,889.7436541190837,889.7436541190837,889.7436541190837,1,0,f,0.604240327142179,0,890.3776777898893,,,,,,,,,,,,,,,,,,,,,,,,,,,,,,,,,,,,,,,,,,,,,,,,,,,,,,,,73086,2022-11-15_08h08.14.697,vts_reward_expectancy_bt_OFFLINE,2022.2.4,60.22447100255246,
,,,,,,,,,,,,,,,,,,0,0,0,0,6,0,6,0,,,,,,,,,,,,,,,,,,,,,,,,,,,,,,,,,,,,,,,,,,,,,,,,,896.4845587899908,W,146,circle,0.0014412058517336845,892.8639100540895,894.3657844399568,894.3657844399568,894.3657844399568,1,0,f,0.5948819960467517,0,894.9828676308971,,,,,,,,,,,,,,,,,,,,,,,,,,,,,,,,,,,,,,,,,,,,,,,,,,,,,,,,73086,2022-11-15_08h08.14.697,vts_reward_expectancy_bt_OFFLINE,2022.2.4,60.22447100255246,
,,,,,,,,,,,,,,,,,,0,0,0,0,7,0,7,0,,,,,,,,,,,,,,,,,,,,,,,,,,,,,,,,,,,,,,,,,,,,,,,,,901.0397220139857,S,167,star,0.0014664779882878065,897.4695477520581,898.9708661560435,898.9708661560435,898.9708661560435,1,0,f,0.5351997730322182,0,899.5379940799903,,,,,,,,,,,,,,,,,,,,,,,,,,,,,,,,,,,,,,,,,,,,,,,,,,,,,,,,73086,2022-11-15_08h08.14.697,vts_reward_expectancy_bt_OFFLINE,2022.2.4,60.22447100255246,
,,,,,,,,,,,,,,,,,,0,0,0,0,8,0,8,0,,,,,,,,,,,,,,,,,,,,,,,,,,,,,,,,,,,,,,,,,,,,,,,,,905.6280615739524,B,160,circle,0.001193885924294591,902.0241360450163,903.5256937369704,903.5256937369704,903.5256937369704,1,0,d,0.5708575879689306,0,904.1262769990135,,,,,,,,,,,,,,,,,,,,,,,,,,,,,,,,,,,,,,,,,,,,,,,,,,,,,,,,73086,2022-11-15_08h08.14.697,vts_reward_expectancy_bt_OFFLINE,2022.2.4,60.22447100255246,
,,,,,,,,,,,,,,,,,,0,0,0,0,9,0,9,0,,,,,,,,,,,,,,,,,,,,,,,,,,,,,,,,,,,,,,,,,,,,,,,,,910.4500182510819,F,132,hexagon,0.001308012055233121,906.6127037990373,908.114084051922,908.114084051922,908.114084051922,1,0,d,0.809194385074079,0,908.948372795945,,,,,,,,,,,,,,,,,,,,,,,,,,,,,,,,,,,,,,,,,,,,,,,,,,,,,,,,73086,2022-11-15_08h08.14.697,vts_reward_expectancy_bt_OFFLINE,2022.2.4,60.22447100255246,
,,,,,,,,,,,,,,,,,,,,,,,,,,0,0,0,0,0,0,0,0,,,,,,,,,,,,,,,,,,,,,,,,,,,,,,,,,,,,,,,,,931.2396559740882,Y,160,triangle,0.0017846000846475363,,,,,1,0,,,1,929.7379952711053,925.6499080508947,927.1518712050747,927.1518712050747,927.1518712050747,k,2.553440609946847,,,,,,,,,,,,,,,,,,,,,,,,,,,,,,,,,,,,,,,,,,,,,,,,,,73086,2022-11-15_08h08.14.697,vts_reward_expectancy_bt_OFFLINE,2022.2.4,60.22447100255246,
,,,,,,,,,,,,,,,,,,,,,,,,,,0,0,0,0,1,0,1,0,,,,,,,,,,,,,,,,,,,,,,,,,,,,,,,,,,,,,,,,,936.7288824620191,D,125,circle,0.0010575319174677134,,,,,1,0,,,1,935.2271278200205,932.2242401600815,933.7256203859579,933.7256203859579,933.7256203859579,j,1.469408298144117,,,,,,,,,,,,,,,,,,,,,,,,,,,,,,,,,,,,,,,,,,,,,,,,,,73086,2022-11-15_08h08.14.697,vts_reward_expectancy_bt_OFFLINE,2022.2.4,60.22447100255246,
,,,,,,,,,,,,,,,,,,,,,,,,,,0,0,0,0,2,0,2,0,,,,,,,,,,,,,,,,,,,,,,,,,,,,,,,,,,,,,,,,,941.3673774509225,H,139,hexagon,0.0017034639604389668,,,,,1,0,,,1,939.865849260008,937.7133750040084,939.2151770510245,939.2151770510245,939.2151770510245,j,0.6244734181091189,,,,,,,,,,,,,,,,,,,,,,,,,,,,,,,,,,,,,,,,,,,,,,,,,,73086,2022-11-15_08h08.14.697,vts_reward_expectancy_bt_OFFLINE,2022.2.4,60.22447100255246,
,,,,,,,,,,,,,,,,,,,,,,,,,,0,0,0,0,3,0,3,0,,,,,,,,,,,,,,,,,,,,,,,,,,,,,,,,,,,,,,,,,946.422790725017,S,146,star,0.0011799200437963009,,,,,1,0,,,1,944.9213284049183,942.3518888859544,943.8533806148916,943.8533806148916,943.8533806148916,j,1.0380899121519178,,,,,,,,,,,,,,,,,,,,,,,,,,,,,,,,,,,,,,,,,,,,,,,,,,73086,2022-11-15_08h08.14.697,vts_reward_expectancy_bt_OFFLINE,2022.2.4,60.22447100255246,
,,,,,,,,,,,,,,,,,,,,,,,,,,0,0,0,0,4,0,4,0,,,,,,,,,,,,,,,,,,,,,,,,,,,,,,,,,,,,,,,,,951.0779463360086,F,174,star,0.0006711860187351704,,,,,1,0,,,1,949.5766013769899,947.4073346140794,948.9091567560099,948.9091567560099,948.9091567560099,k,0.6408274821005762,,,,,,,,,,,,,,,,,,,,,,,,,,,,,,,,,,,,,,,,,,,,,,,,,,73086,2022-11-15_08h08.14.697,vts_reward_expectancy_bt_OFFLINE,2022.2.4,60.22447100255246,
,,,,,,,,,,,,,,,,,,,,,,,,,,0,0,0,0,5,0,5,0,,,,,,,,,,,,,,,,,,,,,,,,,,,,,,,,,,,,,,,,,955.8666005460545,W,167,circle,0.0013597130309790373,,,,,1,0,,,1,954.3648028098978,952.0624884220306,953.5642199220601,953.5642199220601,953.5642199220601,k,0.7785449710208923,,,,,,,,,,,,,,,,,,,,,,,,,,,,,,,,,,,,,,,,,,,,,,,,,,73086,2022-11-15_08h08.14.697,vts_reward_expectancy_bt_OFFLINE,2022.2.4,60.22447100255246,
,,,,,,,,,,,,,,,,,,,,,,,,,,0,0,0,0,6,0,6,0,,,,,,,,,,,,,,,,,,,,,,,,,,,,,,,,,,,,,,,,,960.9389099709224,U,181,hexagon,0.0012442402075976133,,,,,1,0,,,1,959.4372114599682,956.8513536360115,958.352686800994,958.352686800994,958.352686800994,k,1.0532377499621361,,,,,,,,,,,,,,,,,,,,,,,,,,,,,,,,,,,,,,,,,,,,,,,,,,73086,2022-11-15_08h08.14.697,vts_reward_expectancy_bt_OFFLINE,2022.2.4,60.22447100255246,
,,,,,,,,,,,,,,,,,,,,,,,,,,0,0,0,0,7,0,7,0,,,,,,,,,,,,,,,,,,,,,,,,,,,,,,,,,,,,,,,,,966.3284591839183,B,132,triangle,0.0018375171348452568,,,,,1,0,,,1,964.8265479740221,961.9234705809504,963.4248084148858,963.4248084148858,963.4248084148858,j,1.3695220560766757,,,,,,,,,,,,,,,,,,,,,,,,,,,,,,,,,,,,,,,,,,,,,,,,,,73086,2022-11-15_08h08.14.697,vts_reward_expectancy_bt_OFFLINE,2022.2.4,60.22447100255246,
,,,,,,,,,,,,,,,,,,,,,,,,,,0,0,0,0,8,0,8,0,,,,,,,,,,,,,,,,,,,,,,,,,,,,,,,,,,,,,,,,,971.2337496550754,Y,160,hexagon,0.0014480308163911104,,,,,1,0,,,1,969.7323103859089,967.3126410010736,968.8142989838962,968.8142989838962,968.8142989838962,k,0.8854722788091749,,,,,,,,,,,,,,,,,,,,,,,,,,,,,,,,,,,,,,,,,,,,,,,,,,73086,2022-11-15_08h08.14.697,vts_reward_expectancy_bt_OFFLINE,2022.2.4,60.22447100255246,
,,,,,,,,,,,,,,,,,,,,,,,,,,0,0,0,0,9,0,9,0,,,,,,,,,,,,,,,,,,,,,,,,,,,,,,,,,,,,,,,,,975.9054943970405,D,125,triangle,0.0011198939755558968,,,,,1,0,,,1,974.4039506549016,972.2180361370556,973.7197332459036,973.7197332459036,973.7197332459036,j,0.6601378009654582,975.9054943970405,,,,,,,,,,,,,,,,,,,,,,,,,,,,,,,,,,,,,,,,,,,,,,,,,73086,2022-11-15_08h08.14.697,vts_reward_expectancy_bt_OFFLINE,2022.2.4,60.22447100255246,
,,,,,,,,,,,,,,,,,,,,,,,,,,,,,,,,,,0,0,0,0,0,0,0,0,,,,,,,,,,,,,,,,,,,,,,,,,,,,0,783,,,,1006.2390851820819,B,167,hexagon,0.002119557000696659,,,,,1,0,,,2,,,,,,,,,1000.9498449540697,1000.9498449540697,1000.9498449540697,1000.9498449540697,1002.4346285660286,1002.4346285660286,1002.4346285660286,1002.4346285660286,1002.451438484015,1002.451438484015,1002.451438484015,1002.451438484015,-1,letter,NA,d,2.2779848710633814,vtsPrac,1004.7541841070633,,,,,,,,,,,,,,,,,,,,,,,,,,,,,,73086,2022-11-15_08h08.14.697,vts_reward_expectancy_bt_OFFLINE,2022.2.4,60.22447100255246,
,,,,,,,,,,,,,,,,,,,,,,,,,,,,,,,,,,0,0,0,0,1,0,1,0,,,,,,,,,,,,,,,,,,,,,,,,,,,,0,783,,,,1011.6950393719599,Y,174,star,0.0011150771751999855,,,,,1,0,,,2,,,,,,,,,1007.2233984090853,1007.2233984090853,1007.2233984090853,1007.2233984090853,1008.7248819139786,1008.7248819139786,1008.7248819139786,1008.7248819139786,1008.7248819139786,1008.7248819139786,1008.7248819139786,1008.7248819139786,repeat,letter,lettRpt,f,1.4442215769086033,vtsPrac,1010.1934861240443,,,,,,,,,,,,,,,,,,,,,,,,,,,,,,73086,2022-11-15_08h08.14.697,vts_reward_expectancy_bt_OFFLINE,2022.2.4,60.22447100255246,
,,,,,,,,,,,,,,,,,,,,,,,,,,,,,,,,,,0,0,0,0,2,0,2,0,,,,,,,,,,,,,,,,,,,,,,,,,,,,0,783,,,,1018.0184536890592,U,139,triangle,0.0012843441218137741,,,,,1,0,,,2,,,,,,,,,1012.6799654609058,1012.6799654609058,1012.6799654609058,1012.6799654609058,1014.18119965191,1014.18119965191,1014.18119965191,1014.18119965191,1014.18119965191,1014.18119965191,1014.18119965191,1014.18119965191,switch,number,numSwt,j,2.3106728000566363,vtsPrac,1016.5169506040402,,,,,,,,,,,,,,,,,,,,,,,,,,,,,,73086,2022-11-15_08h08.14.697,vts_reward_expectancy_bt_OFFLINE,2022.2.4,60.22447100255246,
,,,,,,,,,,,,,,,,,,,,,,,,,,,,,,,,,,0,0,0,0,3,0,3,0,,,,,,,,,,,,,,,,,,,,,,,,,,,,0,783,,,,1023.6747670269106,D,146,hexagon,0.001152422046288848,,,,,1,0,,,2,,,,,,,,,1019.003072073916,1019.003072073916,1019.003072073916,1019.003072073916,1020.5047847009264,1020.5047847009264,1020.5047847009264,1020.5047847009264,1020.5047847009264,1020.5047847009264,1020.5047847009264,1020.5047847009264,switch,letter,lettSwt,d,1.6468265149742365,vtsPrac,1022.1731201540679,,,,,,,,,,,,,,,,,,,,,,,,,,,,,,73086,2022-11-15_08h08.14.697,vts_reward_expectancy_bt_OFFLINE,2022.2.4,60.22447100255246,
,,,,,,,,,,,,,,,,,,,,,,,,,,,,,,,,,,0,0,0,0,4,0,4,0,,,,,,,,,,,,,,,,,,,,,,,,,,,,0,783,,,,1029.0305776849855,B,167,star,0.0008263189811259508,,,,,1,0,,,2,,,,,,,,,1024.6592395359185,1024.6592395359185,1024.6592395359185,1024.6592395359185,1026.1609485570807,1026.1609485570807,1026.1609485570807,1026.1609485570807,1026.1609485570807,1026.1609485570807,1026.1609485570807,1026.1609485570807,repeat,letter,lettRpt,d,1.3462861741427332,vtsPrac,1027.5290551010985,,,,,,,,,,,,,,,,,,,,,,,,,,,,,,73086,2022-11-15_08h08.14.697,vts_reward_expectancy_bt_OFFLINE,2022.2.4,60.22447100255246,
,,,,,,,,,,,,,,,,,,,,,,,,,,,,,,,,,,0,0,0,0,5,0,5,0,,,,,,,,,,,,,,,,,,,,,,,,,,,,0,783,,,,1034.2697904699016,Y,174,hexagon,0.0016642410773783922,,,,,1,0,,,2,,,,,,,,,1030.015196334105,1030.015196334105,1030.015196334105,1030.015196334105,1031.5170236548875,1031.5170236548875,1031.5170236548875,1031.5170236548875,1031.5170236548875,1031.5170236548875,1031.5170236548875,1031.5170236548875,repeat,letter,lettRpt,f,1.2338388520292938,vtsPrac,1032.7683150970843,1034.2697904699016,,,,,,,,,,,,,,,,,,,,,,,,,,,,,73086,2022-11-15_08h08.14.697,vts_reward_expectancy_bt_OFFLINE,2022.2.4,60.22447100255246,
,,,,,,,,,,,,,,,,,,,,,,,,,,,,,,,,,,0,0,0,0,6,0,6,0,,,,,,,,,,,,,,,,,,,,,,,,,,,,0,783,,,,1039.191851110896,U,139,triangle,0.0009277521166950464,,,,,1,0,,,2,,,,,,,,,1035.254509924911,1035.254509924911,1035.254509924911,1035.254509924911,1036.7560033169575,1036.7560033169575,1036.7560033169575,1036.7560033169575,1036.7560033169575,1036.7560033169575,1036.7560033169575,1036.7560033169575,switch,number,numSwt,j,0.9102347819134593,vtsPrac,1037.6904126850422,1039.191851110896,,,,,,,,,,,,,,,,,,,,,,,,,,,,,73086,2022-11-15_08h08.14.697,vts_reward_expectancy_bt_OFFLINE,2022.2.4,60.22447100255246,
,,,,,,,,,,,,,,,,,,,,,,,,,,,,,,,,,,0,0,0,0,7,0,7,0,,,,,,,,,,,,,,,,,,,,,,,,,,,,0,783,,,,1044.4647415638901,D,146,circle,0.0011416850611567497,,,,,1,0,,,2,,,,,,,,,1040.1764142939355,1040.1764142939355,1040.1764142939355,1040.1764142939355,1041.6782326749526,1041.6782326749526,1041.6782326749526,1041.6782326749526,1041.6782326749526,1041.6782326749526,1041.6782326749526,1041.6782326749526,repeat,number,numRpt,j,1.253804987994954,vtsPrac,1042.9628389899153,,,,,,,,,,,,,,,,,,,,,,,,,,,,,,73086,2022-11-15_08h08.14.697,vts_reward_expectancy_bt_OFFLINE,2022.2.4,60.22447100255246,
,,,,,,,,,,,,,,,,,,,,,,,,,,,,,,,,,,0,0,0,0,8,0,8,0,,,,,,,,,,,,,,,,,,,,,,,,,,,,0,783,,,,1049.3531905259006,U,167,triangle,0.0014214799739420414,,,,,1,0,,,2,,,,,,,,,1045.4490388510749,1045.4490388510749,1045.4490388510749,1045.4490388510749,1046.95067139389,1046.95067139389,1046.95067139389,1046.95067139389,1046.95067139389,1046.95067139389,1046.95067139389,1046.95067139389,repeat,number,numRpt,k,0.8748574161436409,vtsPrac,1047.8516292199492,,,,,,,,,,,,,,,,,,,,,,,,,,,,,,73086,2022-11-15_08h08.14.697,vts_reward_expectancy_bt_OFFLINE,2022.2.4,60.22447100255246,
,,,,,,,,,,,,,,,,,,,,,,,,,,,,,,,,,,0,0,0,0,9,0,9,0,,,,,,,,,,,,,,,,,,,,,,,,,,,,0,783,,,,1054.125123376958,S,132,star,0.0013926292303949594,,,,,1,0,,,2,,,,,,,,,1050.3380369690713,1050.3380369690713,1050.3380369690713,1050.3380369690713,1051.8392838370055,1051.8392838370055,1051.8392838370055,1051.8392838370055,1051.8392838370055,1051.8392838370055,1051.8392838370055,1051.8392838370055,switch,letter,lettSwt,f,0.7575695549603552,vtsPrac,1052.623444963945,,,,,,,,,,,,,,,,,,,,,,,,,,,,,,73086,2022-11-15_08h08.14.697,vts_reward_expectancy_bt_OFFLINE,2022.2.4,60.22447100255246,
,,,,,,,,,,,,,,,,,,,,,,,,,,,,,,,,,,0,0,0,0,10,0,10,0,,,,,,,,,,,,,,,,,,,,,,,,,,,,0,783,,,,1058.9303036849014,F,181,hexagon,0.0011327262036502361,,,,,1,0,,,2,,,,,,,,,1055.1094578860793,1055.1094578860793,1055.1094578860793,1055.1094578860793,1056.6112893989775,1056.6112893989775,1056.6112893989775,1056.6112893989775,1056.6112893989775,1056.6112893989775,1056.6112893989775,1056.6112893989775,switch,number,numSwt,k,0.7898879810236394,vtsPrac,1057.4287007690873,,,,,,,,,,,,,,,,,,,,,,,,,,,,,,73086,2022-11-15_08h08.14.697,vts_reward_expectancy_bt_OFFLINE,2022.2.4,60.22447100255246,
,,,,,,,,,,,,,,,,,,,,,,,,,,,,,,,,,,0,0,0,0,11,0,11,0,,,,,,,,,,,,,,,,,,,,,,,,,,,,0,783,,,,1064.8702477649786,W,146,star,0.0010889561381191015,,,,,1,0,,,2,,,,,,,,,1059.9146980049554,1059.9146980049554,1059.9146980049554,1059.9146980049554,1061.4164917359594,1061.4164917359594,1061.4164917359594,1061.4164917359594,1061.4164917359594,1061.4164917359594,1061.4164917359594,1061.4164917359594,switch,letter,lettSwt,f,1.9250392829999328,vtsPrac,1063.3688300671056,1064.8702477649786,,,,,,,,,,,,,,,,,,,,,,,,,,,,,73086,2022-11-15_08h08.14.697,vts_reward_expectancy_bt_OFFLINE,2022.2.4,60.22447100255246,
,,,,,,,,,,,,,,,,,,,,,,,,,,,,,,,,,,0,0,0,0,12,0,12,0,,,,,,,,,,,,,,,,,,,,,,,,,,,,0,783,,,,1070.6098483710084,Y,181,triangle,0.0011249228846281767,,,,,1,0,,,2,,,,,,,,,1065.8549902639352,1065.8549902639352,1065.8549902639352,1065.8549902639352,1067.3564897459,1067.3564897459,1067.3564897459,1067.3564897459,1067.3564897459,1067.3564897459,1067.3564897459,1067.3564897459,switch,number,numSwt,k,1.7352460180409253,vtsPrac,1069.108263497008,1070.6098483710084,,,,,,,,,,,,,,,,,,,,,,,,,,,,,73086,2022-11-15_08h08.14.697,vts_reward_expectancy_bt_OFFLINE,2022.2.4,60.22447100255246,
,,,,,,,,,,,,,,,,,,,,,,,,,,,,,,,,,,0,0,0,0,13,0,13,0,,,,,,,,,,,,,,,,,,,,,,,,,,,,0,783,,,,1075.2486667609774,B,132,circle,0.001142699969932437,,,,,1,0,,,2,,,,,,,,,1071.594580101082,1071.594580101082,1071.594580101082,1071.594580101082,1073.09602700104,1073.09602700104,1073.09602700104,1073.09602700104,1073.09602700104,1073.09602700104,1073.09602700104,1073.09602700104,repeat,number,numRpt,j,0.6183262530248612,vtsPrac,1073.746766249882,,,,,,,,,,,,,,,,,,,,,,,,,,,,,,73086,2022-11-15_08h08.14.697,vts_reward_expectancy_bt_OFFLINE,2022.2.4,60.22447100255246,
,,,,,,,,,,,,,,,,,,,,,,,,,,,,,,,,,,0,0,0,0,14,0,14,0,,,,,,,,,,,,,,,,,,,,,,,,,,,,0,783,,,,1081.121571850963,F,167,triangle,0.0010956190526485443,,,,,1,0,,,2,,,,,,,,,1076.2328066399787,1076.2328066399787,1076.2328066399787,1076.2328066399787,1077.7344203640241,1077.7344203640241,1077.7344203640241,1077.7344203640241,1077.7344203640241,1077.7344203640241,1077.7344203640241,1077.7344203640241,switch,letter,lettSwt,d,1.863859653007239,vtsPrac,1079.6198072410189,,,,,,,,,,,,,,,,,,,,,,,,,,,,,,73086,2022-11-15_08h08.14.697,vts_reward_expectancy_bt_OFFLINE,2022.2.4,60.22447100255246,
,,,,,,,,,,,,,,,,,,,,,,,,,,,,,,,,,,0,0,0,0,15,0,15,0,,,,,,,,,,,,,,,,,,,,,,,,,,,,0,783,,,,1086.4107969489414,S,160,star,0.0013458409812301397,,,,,1,0,,,2,,,,,,,,,1082.106096311938,1082.106096311938,1082.106096311938,1082.106096311938,1083.6076853789855,1083.6076853789855,1083.6076853789855,1083.6076853789855,1083.6076853789855,1083.6076853789855,1083.6076853789855,1083.6076853789855,switch,number,numSwt,k,1.278580985032022,vtsPrac,1084.9091987370048,,,,,,,,,,,,,,,,,,,,,,,,,,,,,,73086,2022-11-15_08h08.14.697,vts_reward_expectancy_bt_OFFLINE,2022.2.4,60.22447100255246,
,,,,,,,,,,,,,,,,,,,,,,,,,,,,,,,,,,0,0,0,0,16,0,16,0,,,,,,,,,,,,,,,,,,,,,,,,,,,,0,783,,,,1092.1001780938823,Y,132,circle,0.0011510110925883055,,,,,1,0,,,2,,,,,,,,,1087.3950187899172,1087.3950187899172,1087.3950187899172,1087.3950187899172,1088.8969719940796,1088.8969719940796,1088.8969719940796,1088.8969719940796,1088.8969719940796,1088.8969719940796,1088.8969719940796,1088.8969719940796,switch,letter,lettSwt,f,1.670245765009895,vtsPrac,1090.5985820500646,1092.1001780938823,,,,,,,,,,,,,,,,,,,,,,,,,,,,,73086,2022-11-15_08h08.14.697,vts_reward_expectancy_bt_OFFLINE,2022.2.4,60.22447100255246,
,,,,,,,,,,,,,,,,,,,,,,,,,,,,,,,,,,0,0,0,0,17,0,17,0,,,,,,,,,,,,,,,,,,,,,,,,,,,,0,783,,,,1097.0227300340775,D,160,triangle,0.0011675429996103048,,,,,1,0,,,2,,,,,,,,,1093.0847493540496,1093.0847493540496,1093.0847493540496,1093.0847493540496,1094.5865122310352,1094.5865122310352,1094.5865122310352,1094.5865122310352,1094.5865122310352,1094.5865122310352,1094.5865122310352,1094.5865122310352,repeat,letter,lettRpt,d,0.9082632928621024,vtsPrac,1095.520783351967,,,,,,,,,,,,,,,,,,,,,,,,,,,,,,73086,2022-11-15_08h08.14.697,vts_reward_expectancy_bt_OFFLINE,2022.2.4,60.22447100255246,
,,,,,,,,,,,,,,,,,,,,,,,,,,,,,,,,,,0,0,0,0,18,0,18,0,,,,,,,,,,,,,,,,,,,,,,,,,,,,0,783,,,,1102.711933420971,W,146,circle,0.0013629028107970953,,,,,1,0,,,2,,,,,,,,,1098.0068467450328,1098.0068467450328,1098.0068467450328,1098.0068467450328,1099.5085440839175,1099.5085440839175,1099.5085440839175,1099.5085440839175,1099.5085440839175,1099.5085440839175,1099.5085440839175,1099.5085440839175,repeat,letter,lettRpt,f,1.6690615999978036,vtsPrac,1101.21021289099,,,,,,,,,,,,,,,,,,,,,,,,,,,,,,73086,2022-11-15_08h08.14.697,vts_reward_expectancy_bt_OFFLINE,2022.2.4,60.22447100255246,
,,,,,,,,,,,,,,,,,,,,,,,,,,,,,,,,,,0,0,0,0,19,0,19,0,,,,,,,,,,,,,,,,,,,,,,,,,,,,0,783,,,,1108.4850934389979,U,181,triangle,0.0011433090548962355,,,,,1,0,,,2,,,,,,,,,1103.6963815349154,1103.6963815349154,1103.6963815349154,1103.6963815349154,1105.198257040931,1105.198257040931,1105.198257040931,1105.198257040931,1105.198257040931,1105.198257040931,1105.198257040931,1105.198257040931,switch,number,numSwt,k,1.7616622110363096,vtsPrac,1106.9836521560792,,,,,,,,,,,,,,,,,,,,,,,,,,,,,,73086,2022-11-15_08h08.14.697,vts_reward_expectancy_bt_OFFLINE,2022.2.4,60.22447100255246,
,,,,,,,,,,,,,,,,,,,,,,,,,,,,,,,,,,0,0,0,0,20,0,20,0,,,,,,,,,,,,,,,,,,,,,,,,,,,,0,783,,,,1113.907766055083,Y,167,star,0.0010732370428740978,,,,,1,0,,,2,,,,,,,,,1109.4696587799117,1109.4696587799117,1109.4696587799117,1109.4696587799117,1110.9711579759605,1110.9711579759605,1110.9711579759605,1110.9711579759605,1110.9711579759605,1110.9711579759605,1110.9711579759605,1110.9711579759605,switch,letter,lettSwt,f,1.4020274870563298,vtsPrac,1112.4061514539644,,,,,,,,,,,,,,,,,,,,,,,,,,,,,,73086,2022-11-15_08h08.14.697,vts_reward_expectancy_bt_OFFLINE,2022.2.4,60.22447100255246,
,,,,,,,,,,,,,,,,,,,,,,,,,,,,,,,,,,0,0,0,0,21,0,21,0,,,,,,,,,,,,,,,,,,,,,,,,,,,,0,783,,,,1119.213665689109,U,174,hexagon,0.0011419178918004036,,,,,1,0,,,2,,,,,,,,,1114.8921685290989,1114.8921685290989,1114.8921685290989,1114.8921685290989,1116.3937266769353,1116.3937266769353,1116.3937266769353,1116.3937266769353,1116.3937266769353,1116.3937266769353,1116.3937266769353,1116.3937266769353,switch,number,numSwt,k,1.3012857378926128,vtsPrac,1117.7120057460852,1119.213665689109,,,,,,,,,,,,,,,,,,,,,,,,,,,,,73086,2022-11-15_08h08.14.697,vts_reward_expectancy_bt_OFFLINE,2022.2.4,60.22447100255246,
,,,,,,,,,,,,,,,,,,,,,,,,,,,,,,,,,,0,0,0,0,22,0,22,0,,,,,,,,,,,,,,,,,,,,,,,,,,,,0,783,,,,1124.6695706269238,W,132,circle,0.0007993238978087902,,,,,1,0,,,2,,,,,,,,,1120.1979073160328,1120.1979073160328,1120.1979073160328,1120.1979073160328,1121.6995900040492,1121.6995900040492,1121.6995900040492,1121.6995900040492,1121.6995900040492,1121.6995900040492,1121.6995900040492,1121.6995900040492,switch,letter,lettSwt,f,1.4390026431065053,vtsPrac,1123.1680387039669,,,,,,,,,,,,,,,,,,,,,,,,,,,,,,73086,2022-11-15_08h08.14.697,vts_reward_expectancy_bt_OFFLINE,2022.2.4,60.22447100255246,
,,,,,,,,,,,,,,,,,,,,,,,,,,,,,,,,,,0,0,0,0,23,0,23,0,,,,,,,,,,,,,,,,,,,,,,,,,,,,0,783,,,,1130.325902970042,F,125,star,0.0013381578028202057,,,,,1,0,,,2,,,,,,,,,1125.6541707599536,1125.6541707599536,1125.6541707599536,1125.6541707599536,1127.155650635017,1127.155650635017,1127.155650635017,1127.155650635017,1127.155650635017,1127.155650635017,1127.155650635017,1127.155650635017,repeat,letter,lettRpt,d,1.6426317950244993,vtsPrac,1128.8243347790558,1130.325902970042,,,,,,,,,,,,,,,,,,,,,,,,,,,,,73086,2022-11-15_08h08.14.697,vts_reward_expectancy_bt_OFFLINE,2022.2.4,60.22447100255246,
,,,,,,,,,,,,,,,,,,,,,,,,,,,,,,,,,,0,0,0,0,24,0,24,0,,,,,,,,,,,,,,,,,,,,,,,,,,,,0,783,,,,1135.2481033559889,U,167,triangle,0.0011221999302506447,,,,,1,0,,,2,,,,,,,,,1131.3101581959054,1131.3101581959054,1131.3101581959054,1131.3101581959054,1132.8118605159689,1132.8118605159689,1132.8118605159689,1132.8118605159689,1132.8118605159689,1132.8118605159689,1132.8118605159689,1132.8118605159689,switch,number,numSwt,k,0.9139891339000314,vtsPrac,1133.7462163800374,1135.2481033559889,,,,,,,,,,,,,,,,,,,,,,,,,,,,,73086,2022-11-15_08h08.14.697,vts_reward_expectancy_bt_OFFLINE,2022.2.4,60.22447100255246,
,,,,,,,,,,,,,,,,,,,,,,,,,,,,,,,,,,0,0,0,0,25,0,25,0,,,,,,,,,,,,,,,,,,,,,,,,,,,,0,783,,,,1140.136598706944,D,146,hexagon,0.0010736421681940556,,,,,1,0,,,2,,,,,,,,,1136.2326317438856,1136.2326317438856,1136.2326317438856,1136.2326317438856,1137.7339148819447,1137.7339148819447,1137.7339148819447,1137.7339148819447,1137.7339148819447,1137.7339148819447,1137.7339148819447,1137.7339148819447,switch,letter,lettSwt,d,0.8750702871475369,vtsPrac,1138.6348382791039,,,,,,,,,,,,,,,,,,,,,,,,,,,,,,73086,2022-11-15_08h08.14.697,vts_reward_expectancy_bt_OFFLINE,2022.2.4,60.22447100255246,
,,,,,,,,,,,,,,,,,,,,,,,,,,,,,,,,,,0,0,0,0,26,0,26,0,,,,,,,,,,,,,,,,,,,,,,,,,,,,0,783,,,,1145.2255275589414,B,174,hexagon,0.0012533660046756268,,,,,1,0,,,2,,,,,,,,,1141.121278295992,1141.121278295992,1141.121278295992,1141.121278295992,1142.6228378359228,1142.6228378359228,1142.6228378359228,1142.6228378359228,1142.6228378359228,1142.6228378359228,1142.6228378359228,1142.6228378359228,repeat,letter,lettRpt,d,1.070657408097759,vtsPrac,1143.7240431150422,,,,,,,,,,,,,,,,,,,,,,,,,,,,,,73086,2022-11-15_08h08.14.697,vts_reward_expectancy_bt_OFFLINE,2022.2.4,60.22447100255246,
,,,,,,,,,,,,,,,,,,,,,,,,,,,,,,,,,,0,0,0,0,27,0,27,0,,,,,,,,,,,,,,,,,,,,,,,,,,,,0,783,,,,1150.6983834360726,H,160,circle,0.0015228211414068937,,,,,1,0,,,2,,,,,,,,,1146.2099314238876,1146.2099314238876,1146.2099314238876,1146.2099314238876,1147.7116223569028,1147.7116223569028,1147.7116223569028,1147.7116223569028,1147.7116223569028,1147.7116223569028,1147.7116223569028,1147.7116223569028,switch,number,numSwt,k,1.45250422693789,vtsPrac,1149.1968243899755,,,,,,,,,,,,,,,,,,,,,,,,,,,,,,73086,2022-11-15_08h08.14.697,vts_reward_expectancy_bt_OFFLINE,2022.2.4,60.22447100255246,
,,,,,,,,,,,,,,,,,,,,,,,,,,,,,,,,,,0,0,0,0,28,0,28,0,,,,,,,,,,,,,,,,,,,,,,,,,,,,0,783,,,,1155.9373390339315,W,125,hexagon,0.001077841967344284,,,,,1,0,,,2,,,,,,,,,1151.6827280120924,1151.6827280120924,1151.6827280120924,1151.6827280120924,1153.1843657500576,1153.1843657500576,1153.1843657500576,1153.1843657500576,1153.1843657500576,1153.1843657500576,1153.1843657500576,1153.1843657500576,repeat,number,numRpt,j,1.2325198610778898,vtsPrac,1154.4356959268916,,,,,,,,,,,,,,,,,,,,,,,,,,,,,,73086,2022-11-15_08h08.14.697,vts_reward_expectancy_bt_OFFLINE,2022.2.4,60.22447100255246,
,,,,,,,,,,,,,,,,,,,,,,,,,,,,,,,,,,0,0,0,0,29,0,29,0,,,,,,,,,,,,,,,,,,,,,,,,,,,,0,783,,,,1161.0263226120733,D,132,triangle,0.0012143990024924278,,,,,1,0,,,2,,,,,,,,,1156.921833646018,1156.921833646018,1156.921833646018,1156.921833646018,1158.423700081883,1158.423700081883,1158.423700081883,1158.423700081883,1158.423700081883,1158.423700081883,1158.423700081883,1158.423700081883,repeat,number,numRpt,j,1.0772754799108952,vtsPrac,1159.5248352349736,1161.0263226120733,,,,,,,,,,,,,,,,,,,,,,,,,,,,,73086,2022-11-15_08h08.14.697,vts_reward_expectancy_bt_OFFLINE,2022.2.4,60.22447100255246,
