LTriangleOpac,LCircleOpac,LHexagonOpac,LStarOpac,RTriangleOpac,RCircleOpac,RHexagonOpac,RStarOpac,LShape_ID,RShape_ID,training_blocks.thisRepN,training_blocks.thisTrialN,training_blocks.thisN,training_blocks.thisIndex,training.thisRepN,training.thisTrialN,training.thisN,training.thisIndex,task1_prac_redo.thisRepN,task1_prac_redo.thisTrialN,task1_prac_redo.thisN,task1_prac_redo.thisIndex,task1_prac_trials.thisRepN,task1_prac_trials.thisTrialN,task1_prac_trials.thisN,task1_prac_trials.thisIndex,task2_prac_redo.thisRepN,task2_prac_redo.thisTrialN,task2_prac_redo.thisN,task2_prac_redo.thisIndex,task2_praac_trials.thisRepN,task2_praac_trials.thisTrialN,task2_praac_trials.thisN,task2_praac_trials.thisIndex,vts_prac_redo.thisRepN,vts_prac_redo.thisTrialN,vts_prac_redo.thisN,vts_prac_redo.thisIndex,vts_practice_trials.thisRepN,vts_practice_trials.thisTrialN,vts_practice_trials.thisN,vts_practice_trials.thisIndex,trials_norew.thisRepN,trials_norew.thisTrialN,trials_norew.thisN,trials_norew.thisIndex,block.thisRepN,block.thisTrialN,block.thisN,block.thisIndex,trials_rew.thisRepN,trials_rew.thisTrialN,trials_rew.thisN,trials_rew.thisIndex,key_resp.started,key_resp.keys,key_resp.rt,left_circle.started,right_circle.started,left_triangle.started,right_triangle.started,left_star.started,right_star.started,left_hexagon.started,right_hexagon.started,training_fix.started,training_resp.started,training_resp.keys,training_resp.rt,points_trial,points_cumul,trainBlock,training_feedback_txt.started,fix.started,training_feedback_txt.stopped,curr_topStim,curr_bottStim,curr_shape,ISI.started,tgt_fix_prac1.started,top_target_prac1.started,bott_target_prac1.started,target_resp_prac1.started,acc,E1,target_resp_prac1.keys,target_resp_prac1.rt,pracBlock,prac_fback_text.started,prac_fback_text.stopped,fix.stopped,tgt_fix_prac2.started,top_target_prac2.started,bott_target_prac2.started,target_resp_prac2.started,target_resp_prac2.keys,target_resp_prac2.rt,star.started,hegagon.started,triangle.started,circle.started,star.stopped,hegagon.stopped,triangle.stopped,circle.stopped,top_target.started,tgt_fix.started,bot_target.started,target_resp.started,alt,task,condition,target_resp.keys,target_resp.rt,rewCond,vts_fback.started,vts_fback.stopped,blockNum,norew_fback.started,norew_fback.stopped,key_resp_2.keys,key_resp_2.rt,rewExpectancy,feedbk_text.started,feedbk_text.stopped,text_3.started,text_3.stopped,button.started,debrief.index,debrief.itemText,debrief.type,debrief.granularity,debrief.font,debrief.markerColor,debrief.response,debrief.rt,button.numClicks,button.timesOn,button.timesOff,participant,date,expName,psychopyVersion,frameRate,
,,,,,,,,,,,,,,,,,,,,,,,,,,,,,,,,,,,,,,,,,,,,,,,,,,,,,,497.2742301840044,space,15.602420766983414,,,,,,,,,,,,,,,,,,,,,,,,,,,,,,,,,,,,,,,,,,,,,,,,,,,,,,,,,,,,,,,,,,,,,,,,,,,,,,,,,,,74219,2022-10-27_11h18.16.087,vts_reward_expectancy_bt_OFFLINE,2022.2.4,59.89075734261679,
0,0,0,1,0,1,0,0,star ,circle,0,0,0,0,0,0,0,10,,,,,,,,,,,,,,,,,,,,,,,,,,,,,,,,,,,,,,,,549.7223197109997,549.7223197109997,549.7223197109997,549.7223197109997,549.7223197109997,549.7223197109997,549.7223197109997,549.7223197109997,549.7223197109997,549.7223197109997,l,5.594779525985359,10,10,0,555.3382357210066,556.8403493790101,,,,,,,,,,,,,,,,,,,,,,,,,,,,,,,,,,,,,,,,,,,,,,,,,,,,,,,,,,,,,,,,,,74219,2022-10-27_11h18.16.087,vts_reward_expectancy_bt_OFFLINE,2022.2.4,59.89075734261679,
0,1,0,0,0,0,1,0,circle,hexagon,0,0,0,0,0,1,1,4,,,,,,,,,,,,,,,,,,,,,,,,,,,,,,,,,,,,,,,,557.3405135159992,557.3405135159992,557.3405135159992,557.3405135159992,557.3405135159992,557.3405135159992,557.3405135159992,557.3405135159992,557.3405135159992,557.3405135159992,a,1.88033497199649,1,11,0,559.2424620219972,560.7440981350082,,,,,,,,,,,,,,,,,,,,,,,,,,,,,,,,,,,,,,,,,,,,,,,,,,,,,,,,,,,,,,,,,,74219,2022-10-27_11h18.16.087,vts_reward_expectancy_bt_OFFLINE,2022.2.4,59.89075734261679,
0,0,1,0,1,0,0,0,hexagon,triangle,0,0,0,0,0,2,2,6,,,,,,,,,,,,,,,,,,,,,,,,,,,,,,,,,,,,,,,,561.2447284340014,561.2447284340014,561.2447284340014,561.2447284340014,561.2447284340014,561.2447284340014,561.2447284340014,561.2447284340014,561.2447284340014,561.2447284340014,l,1.002151464985218,1,12,0,562.2789830880065,563.7808152640064,,,,,,,,,,,,,,,,,,,,,,,,,,,,,,,,,,,,,,,,,,,,,,,,,,,,,,,,,,,,,,,,,,74219,2022-10-27_11h18.16.087,vts_reward_expectancy_bt_OFFLINE,2022.2.4,59.89075734261679,
0,0,0,1,1,0,0,0,star,triangle,0,0,0,0,0,3,3,9,,,,,,,,,,,,,,,,,,,,,,,,,,,,,,,,,,,,,,,,564.2813459780009,564.2813459780009,564.2813459780009,564.2813459780009,564.2813459780009,564.2813459780009,564.2813459780009,564.2813459780009,564.2813459780009,564.2813459780009,l,1.4200917469861452,1,13,0,565.7330203910096,567.2345756050054,,,,,,,,,,,,,,,,,,,,,,,,,,,,,,,,,,,,,,,,,,,,,,,,,,,,,,,,,,,,,,,,,,74219,2022-10-27_11h18.16.087,vts_reward_expectancy_bt_OFFLINE,2022.2.4,59.89075734261679,
0,0,0,1,0,0,1,0,star,hexagon,0,0,0,0,0,4,4,11,,,,,,,,,,,,,,,,,,,,,,,,,,,,,,,,,,,,,,,,567.7350033760013,567.7350033760013,567.7350033760013,567.7350033760013,567.7350033760013,567.7350033760013,567.7350033760013,567.7350033760013,567.7350033760013,567.7350033760013,a,0.7107669709948823,10,23,0,568.4692734730052,569.9710827969975,,,,,,,,,,,,,,,,,,,,,,,,,,,,,,,,,,,,,,,,,,,,,,,,,,,,,,,,,,,,,,,,,,74219,2022-10-27_11h18.16.087,vts_reward_expectancy_bt_OFFLINE,2022.2.4,59.89075734261679,
0,0,1,0,0,1,0,0,hexagon,circle,0,0,0,0,0,5,5,7,,,,,,,,,,,,,,,,,,,,,,,,,,,,,,,,,,,,,,,,570.4719489970012,570.4719489970012,570.4719489970012,570.4719489970012,570.4719489970012,570.4719489970012,570.4719489970012,570.4719489970012,570.4719489970012,570.4719489970012,a,0.9576629969960777,1,24,0,571.4563388789975,572.9577264820109,,,,,,,,,,,,,,,,,,,,,,,,,,,,,,,,,,,,,,,,,,,,,,,,,,,,,,,,,,,,,,,,,,74219,2022-10-27_11h18.16.087,vts_reward_expectancy_bt_OFFLINE,2022.2.4,59.89075734261679,
0,1,0,0,0,0,0,1,circle,star,0,0,0,0,0,6,6,5,,,,,,,,,,,,,,,,,,,,,,,,,,,,,,,,,,,,,,,,573.4581564219989,573.4581564219989,573.4581564219989,573.4581564219989,573.4581564219989,573.4581564219989,573.4581564219989,573.4581564219989,573.4581564219989,573.4581564219989,l,0.8274447680014418,10,34,0,574.3095883589995,575.8109928170015,,,,,,,,,,,,,,,,,,,,,,,,,,,,,,,,,,,,,,,,,,,,,,,,,,,,,,,,,,,,,,,,,,74219,2022-10-27_11h18.16.087,vts_reward_expectancy_bt_OFFLINE,2022.2.4,59.89075734261679,
1,0,0,0,0,0,1,0,triangle,hexagon,0,0,0,0,0,7,7,1,,,,,,,,,,,,,,,,,,,,,,,,,,,,,,,,,,,,,,,,576.3114596009982,576.3114596009982,576.3114596009982,576.3114596009982,576.3114596009982,576.3114596009982,576.3114596009982,576.3114596009982,576.3114596009982,576.3114596009982,l,0.9414215019787662,1,35,0,577.2794087119983,578.7807416620053,,,,,,,,,,,,,,,,,,,,,,,,,,,,,,,,,,,,,,,,,,,,,,,,,,,,,,,,,,,,,,,,,,74219,2022-10-27_11h18.16.087,vts_reward_expectancy_bt_OFFLINE,2022.2.4,59.89075734261679,
0,0,1,0,0,0,0,1,hexagon,star,0,0,0,0,0,8,8,8,,,,,,,,,,,,,,,,,,,,,,,,,,,,,,,,,,,,,,,,579.281438171005,579.281438171005,579.281438171005,579.281438171005,579.281438171005,579.281438171005,579.281438171005,579.281438171005,579.281438171005,579.281438171005,l,0.979982172997552,10,45,0,580.2828682460095,581.7841078860074,,,,,,,,,,,,,,,,,,,,,,,,,,,,,,,,,,,,,,,,,,,,,,,,,,,,,,,,,,,,,,,,,,74219,2022-10-27_11h18.16.087,vts_reward_expectancy_bt_OFFLINE,2022.2.4,59.89075734261679,
0,1,0,0,1,0,0,0,circle,triangle,0,0,0,0,0,9,9,3,,,,,,,,,,,,,,,,,,,,,,,,,,,,,,,,,,,,,,,,582.2849805430014,582.2849805430014,582.2849805430014,582.2849805430014,582.2849805430014,582.2849805430014,582.2849805430014,582.2849805430014,582.2849805430014,582.2849805430014,a,2.4167399919824675,10,55,0,584.7205846170109,586.2223397880007,,,,,,,,,,,,,,,,,,,,,,,,,,,,,,,,,,,,,,,,,,,,,,,,,,,,,,,,,,,,,,,,,,74219,2022-10-27_11h18.16.087,vts_reward_expectancy_bt_OFFLINE,2022.2.4,59.89075734261679,
1,0,0,0,0,1,0,0,triangle,circle,0,0,0,0,0,10,10,0,,,,,,,,,,,,,,,,,,,,,,,,,,,,,,,,,,,,,,,,586.722854149004,586.722854149004,586.722854149004,586.722854149004,586.722854149004,586.722854149004,586.722854149004,586.722854149004,586.722854149004,586.722854149004,l,1.858561266984907,10,65,0,588.6082589790021,590.1098173670034,,,,,,,,,,,,,,,,,,,,,,,,,,,,,,,,,,,,,,,,,,,,,,,,,,,,,,,,,,,,,,,,,,74219,2022-10-27_11h18.16.087,vts_reward_expectancy_bt_OFFLINE,2022.2.4,59.89075734261679,
1,0,0,0,0,0,0,1,triangle,star,0,0,0,0,0,11,11,2,,,,,,,,,,,,,,,,,,,,,,,,,,,,,,,,,,,,,,,,590.6103055770072,590.6103055770072,590.6103055770072,590.6103055770072,590.6103055770072,590.6103055770072,590.6103055770072,590.6103055770072,590.6103055770072,590.6103055770072,l,0.7316082489851397,10,75,0,591.3612852570077,592.862739602002,,,,,,,,,,,,,,,,,,,,,,,,,,,,,,,,,,,,,,,,,,,,,,,,,,,,,,,,,,,,,,,,,,74219,2022-10-27_11h18.16.087,vts_reward_expectancy_bt_OFFLINE,2022.2.4,59.89075734261679,
0,1,0,0,1,0,0,0,circle,triangle,0,0,0,0,1,0,12,3,,,,,,,,,,,,,,,,,,,,,,,,,,,,,,,,,,,,,,,,593.3634085750091,593.3634085750091,593.3634085750091,593.3634085750091,593.3634085750091,593.3634085750091,593.3634085750091,593.3634085750091,593.3634085750091,593.3634085750091,a,1.497454618991469,1,76,0,594.8822498259979,596.3834146510053,,,,,,,,,,,,,,,,,,,,,,,,,,,,,,,,,,,,,,,,,,,,,,,,,,,,,,,,,,,,,,,,,,74219,2022-10-27_11h18.16.087,vts_reward_expectancy_bt_OFFLINE,2022.2.4,59.89075734261679,
1,0,0,0,0,0,0,1,triangle,star,0,0,0,0,1,1,13,2,,,,,,,,,,,,,,,,,,,,,,,,,,,,,,,,,,,,,,,,596.8840768079972,596.8840768079972,596.8840768079972,596.8840768079972,596.8840768079972,596.8840768079972,596.8840768079972,596.8840768079972,596.8840768079972,596.8840768079972,l,0.9685151259764098,10,86,0,597.8850982080039,599.3867965250101,,,,,,,,,,,,,,,,,,,,,,,,,,,,,,,,,,,,,,,,,,,,,,,,,,,,,,,,,,,,,,,,,,74219,2022-10-27_11h18.16.087,vts_reward_expectancy_bt_OFFLINE,2022.2.4,59.89075734261679,
0,1,0,0,0,0,0,1,circle,star,0,0,0,0,1,2,14,5,,,,,,,,,,,,,,,,,,,,,,,,,,,,,,,,,,,,,,,,599.887285793011,599.887285793011,599.887285793011,599.887285793011,599.887285793011,599.887285793011,599.887285793011,599.887285793011,599.887285793011,599.887285793011,l,0.6778259729908314,1,87,0,600.5881635109981,602.0896644750028,,,,,,,,,,,,,,,,,,,,,,,,,,,,,,,,,,,,,,,,,,,,,,,,,,,,,,,,,,,,,,,,,,74219,2022-10-27_11h18.16.087,vts_reward_expectancy_bt_OFFLINE,2022.2.4,59.89075734261679,
1,0,0,0,0,0,1,0,triangle,hexagon,0,0,0,0,1,3,15,1,,,,,,,,,,,,,,,,,,,,,,,,,,,,,,,,,,,,,,,,602.5903107409977,602.5903107409977,602.5903107409977,602.5903107409977,602.5903107409977,602.5903107409977,602.5903107409977,602.5903107409977,602.5903107409977,602.5903107409977,a,1.4789089619880542,1,88,0,604.0920004060026,605.5938121360086,,,,,,,,,,,,,,,,,,,,,,,,,,,,,,,,,,,,,,,,,,,,,,,,,,,,,,,,,,,,,,,,,,74219,2022-10-27_11h18.16.087,vts_reward_expectancy_bt_OFFLINE,2022.2.4,59.89075734261679,
0,0,0,1,1,0,0,0,star,triangle,0,0,0,0,1,4,16,9,,,,,,,,,,,,,,,,,,,,,,,,,,,,,,,,,,,,,,,,606.0941037099983,606.0941037099983,606.0941037099983,606.0941037099983,606.0941037099983,606.0941037099983,606.0941037099983,606.0941037099983,606.0941037099983,606.0941037099983,a,0.6636332439957187,10,98,0,606.7782666069979,608.2800831210043,,,,,,,,,,,,,,,,,,,,,,,,,,,,,,,,,,,,,,,,,,,,,,,,,,,,,,,,,,,,,,,,,,74219,2022-10-27_11h18.16.087,vts_reward_expectancy_bt_OFFLINE,2022.2.4,59.89075734261679,
0,0,1,0,1,0,0,0,hexagon,triangle,0,0,0,0,1,5,17,6,,,,,,,,,,,,,,,,,,,,,,,,,,,,,,,,,,,,,,,,608.780491587997,608.780491587997,608.780491587997,608.780491587997,608.780491587997,608.780491587997,608.780491587997,608.780491587997,608.780491587997,608.780491587997,a,1.0021290189906722,1,99,0,609.814989104998,611.3167607799987,,,,,,,,,,,,,,,,,,,,,,,,,,,,,,,,,,,,,,,,,,,,,,,,,,,,,,,,,,,,,,,,,,74219,2022-10-27_11h18.16.087,vts_reward_expectancy_bt_OFFLINE,2022.2.4,59.89075734261679,
1,0,0,0,0,1,0,0,triangle,circle,0,0,0,0,1,6,18,0,,,,,,,,,,,,,,,,,,,,,,,,,,,,,,,,,,,,,,,,611.8173219360033,611.8173219360033,611.8173219360033,611.8173219360033,611.8173219360033,611.8173219360033,611.8173219360033,611.8173219360033,611.8173219360033,611.8173219360033,l,1.1322388649859931,10,109,0,612.9684244110103,614.4704143690033,,,,,,,,,,,,,,,,,,,,,,,,,,,,,,,,,,,,,,,,,,,,,,,,,,,,,,,,,,,,,,,,,,74219,2022-10-27_11h18.16.087,vts_reward_expectancy_bt_OFFLINE,2022.2.4,59.89075734261679,
0,0,1,0,0,0,0,1,hexagon,star,0,0,0,0,1,7,19,8,,,,,,,,,,,,,,,,,,,,,,,,,,,,,,,,,,,,,,,,614.9705365929985,614.9705365929985,614.9705365929985,614.9705365929985,614.9705365929985,614.9705365929985,614.9705365929985,614.9705365929985,614.9705365929985,614.9705365929985,l,0.7866102319821948,10,119,0,615.7882766179973,617.2898800800031,,,,,,,,,,,,,,,,,,,,,,,,,,,,,,,,,,,,,,,,,,,,,,,,,,,,,,,,,,,,,,,,,,74219,2022-10-27_11h18.16.087,vts_reward_expectancy_bt_OFFLINE,2022.2.4,59.89075734261679,
0,0,0,1,0,1,0,0,star ,circle,0,0,0,0,1,8,20,10,,,,,,,,,,,,,,,,,,,,,,,,,,,,,,,,,,,,,,,,617.7906506919971,617.7906506919971,617.7906506919971,617.7906506919971,617.7906506919971,617.7906506919971,617.7906506919971,617.7906506919971,617.7906506919971,617.7906506919971,a,0.7842245749925496,10,129,0,618.5912275260052,620.0930311850097,,,,,,,,,,,,,,,,,,,,,,,,,,,,,,,,,,,,,,,,,,,,,,,,,,,,,,,,,,,,,,,,,,74219,2022-10-27_11h18.16.087,vts_reward_expectancy_bt_OFFLINE,2022.2.4,59.89075734261679,
0,0,0,1,0,0,1,0,star,hexagon,0,0,0,0,1,9,21,11,,,,,,,,,,,,,,,,,,,,,,,,,,,,,,,,,,,,,,,,620.5936107099988,620.5936107099988,620.5936107099988,620.5936107099988,620.5936107099988,620.5936107099988,620.5936107099988,620.5936107099988,620.5936107099988,620.5936107099988,l,1.7639303379983176,1,130,0,622.3789420969988,623.8805919450097,,,,,,,,,,,,,,,,,,,,,,,,,,,,,,,,,,,,,,,,,,,,,,,,,,,,,,,,,,,,,,,,,,74219,2022-10-27_11h18.16.087,vts_reward_expectancy_bt_OFFLINE,2022.2.4,59.89075734261679,
0,1,0,0,0,0,1,0,circle,hexagon,0,0,0,0,1,10,22,4,,,,,,,,,,,,,,,,,,,,,,,,,,,,,,,,,,,,,,,,624.3812162180111,624.3812162180111,624.3812162180111,624.3812162180111,624.3812162180111,624.3812162180111,624.3812162180111,624.3812162180111,624.3812162180111,624.3812162180111,l,2.04097808599181,1,131,0,626.4501180390071,627.9520143530099,,,,,,,,,,,,,,,,,,,,,,,,,,,,,,,,,,,,,,,,,,,,,,,,,,,,,,,,,,,,,,,,,,74219,2022-10-27_11h18.16.087,vts_reward_expectancy_bt_OFFLINE,2022.2.4,59.89075734261679,
0,0,1,0,0,1,0,0,hexagon,circle,0,0,0,0,1,11,23,7,,,,,,,,,,,,,,,,,,,,,,,,,,,,,,,,,,,,,,,,628.4521749300038,628.4521749300038,628.4521749300038,628.4521749300038,628.4521749300038,628.4521749300038,628.4521749300038,628.4521749300038,628.4521749300038,628.4521749300038,a,1.521382390987128,1,132,0,630.0037563090009,631.5054715930019,,,,,,,,,,,,,,,,,,,,,,,,,,,,,,,,,,,,,,,,,,,,,,,,,,,,,,,,,,,,,,,,,,74219,2022-10-27_11h18.16.087,vts_reward_expectancy_bt_OFFLINE,2022.2.4,59.89075734261679,
0,0,1,0,0,0,0,1,hexagon,star,0,0,0,0,2,0,24,8,,,,,,,,,,,,,,,,,,,,,,,,,,,,,,,,,,,,,,,,632.0060906709987,632.0060906709987,632.0060906709987,632.0060906709987,632.0060906709987,632.0060906709987,632.0060906709987,632.0060906709987,632.0060906709987,632.0060906709987,l,1.0567782549769618,1,133,0,633.090551301997,634.592286174011,,,,,,,,,,,,,,,,,,,,,,,,,,,,,,,,,,,,,,,,,,,,,,,,,,,,,,,,,,,,,,,,,,74219,2022-10-27_11h18.16.087,vts_reward_expectancy_bt_OFFLINE,2022.2.4,59.89075734261679,
0,1,0,0,0,0,1,0,circle,hexagon,0,0,0,0,2,1,25,4,,,,,,,,,,,,,,,,,,,,,,,,,,,,,,,,,,,,,,,,635.0927570210042,635.0927570210042,635.0927570210042,635.0927570210042,635.0927570210042,635.0927570210042,635.0927570210042,635.0927570210042,635.0927570210042,635.0927570210042,a,2.488491863987292,10,143,0,637.6122760040016,639.1138976490038,,,,,,,,,,,,,,,,,,,,,,,,,,,,,,,,,,,,,,,,,,,,,,,,,,,,,,,,,,,,,,,,,,74219,2022-10-27_11h18.16.087,vts_reward_expectancy_bt_OFFLINE,2022.2.4,59.89075734261679,
0,1,0,0,0,0,0,1,circle,star,0,0,0,0,2,2,26,5,,,,,,,,,,,,,,,,,,,,,,,,,,,,,,,,,,,,,,,,639.6145090850041,639.6145090850041,639.6145090850041,639.6145090850041,639.6145090850041,639.6145090850041,639.6145090850041,639.6145090850041,639.6145090850041,639.6145090850041,l,1.0404482839949196,10,153,0,640.6824885460082,642.1840204269974,,,,,,,,,,,,,,,,,,,,,,,,,,,,,,,,,,,,,,,,,,,,,,,,,,,,,,,,,,,,,,,,,,74219,2022-10-27_11h18.16.087,vts_reward_expectancy_bt_OFFLINE,2022.2.4,59.89075734261679,
1,0,0,0,0,1,0,0,triangle,circle,0,0,0,0,2,3,27,0,,,,,,,,,,,,,,,,,,,,,,,,,,,,,,,,,,,,,,,,642.6849826960097,642.6849826960097,642.6849826960097,642.6849826960097,642.6849826960097,642.6849826960097,642.6849826960097,642.6849826960097,642.6849826960097,642.6849826960097,l,2.3696797029842855,10,163,0,645.0872172860109,646.5890057710058,,,,,,,,,,,,,,,,,,,,,,,,,,,,,,,,,,,,,,,,,,,,,,,,,,,,,,,,,,,,,,,,,,74219,2022-10-27_11h18.16.087,vts_reward_expectancy_bt_OFFLINE,2022.2.4,59.89075734261679,
0,0,0,1,1,0,0,0,star,triangle,0,0,0,0,2,4,28,9,,,,,,,,,,,,,,,,,,,,,,,,,,,,,,,,,,,,,,,,647.0894407960004,647.0894407960004,647.0894407960004,647.0894407960004,647.0894407960004,647.0894407960004,647.0894407960004,647.0894407960004,647.0894407960004,647.0894407960004,a,0.8850573789823102,10,173,0,648.0070824919967,649.5087590900075,,,,,,,,,,,,,,,,,,,,,,,,,,,,,,,,,,,,,,,,,,,,,,,,,,,,,,,,,,,,,,,,,,74219,2022-10-27_11h18.16.087,vts_reward_expectancy_bt_OFFLINE,2022.2.4,59.89075734261679,
0,0,1,0,0,1,0,0,hexagon,circle,0,0,0,0,2,5,29,7,,,,,,,,,,,,,,,,,,,,,,,,,,,,,,,,,,,,,,,,650.009235147998,650.009235147998,650.009235147998,650.009235147998,650.009235147998,650.009235147998,650.009235147998,650.009235147998,650.009235147998,650.009235147998,a,2.1166018649964826,1,174,0,652.1449446059996,653.6467250240094,,,,,,,,,,,,,,,,,,,,,,,,,,,,,,,,,,,,,,,,,,,,,,,,,,,,,,,,,,,,,,,,,,74219,2022-10-27_11h18.16.087,vts_reward_expectancy_bt_OFFLINE,2022.2.4,59.89075734261679,
1,0,0,0,0,0,0,1,triangle,star,0,0,0,0,2,6,30,2,,,,,,,,,,,,,,,,,,,,,,,,,,,,,,,,,,,,,,,,654.1472750760004,654.1472750760004,654.1472750760004,654.1472750760004,654.1472750760004,654.1472750760004,654.1472750760004,654.1472750760004,654.1472750760004,654.1472750760004,l,1.0675902729853988,1,175,0,655.2317365790077,656.7334880499984,,,,,,,,,,,,,,,,,,,,,,,,,,,,,,,,,,,,,,,,,,,,,,,,,,,,,,,,,,,,,,,,,,74219,2022-10-27_11h18.16.087,vts_reward_expectancy_bt_OFFLINE,2022.2.4,59.89075734261679,
0,1,0,0,1,0,0,0,circle,triangle,0,0,0,0,2,7,31,3,,,,,,,,,,,,,,,,,,,,,,,,,,,,,,,,,,,,,,,,657.2339818290056,657.2339818290056,657.2339818290056,657.2339818290056,657.2339818290056,657.2339818290056,657.2339818290056,657.2339818290056,657.2339818290056,657.2339818290056,l,2.4757297949981876,1,176,0,659.7368392960052,661.2383378790109,,,,,,,,,,,,,,,,,,,,,,,,,,,,,,,,,,,,,,,,,,,,,,,,,,,,,,,,,,,,,,,,,,74219,2022-10-27_11h18.16.087,vts_reward_expectancy_bt_OFFLINE,2022.2.4,59.89075734261679,
0,0,0,1,0,0,1,0,star,hexagon,0,0,0,0,2,8,32,11,,,,,,,,,,,,,,,,,,,,,,,,,,,,,,,,,,,,,,,,661.7389650890109,661.7389650890109,661.7389650890109,661.7389650890109,661.7389650890109,661.7389650890109,661.7389650890109,661.7389650890109,661.7389650890109,661.7389650890109,a,0.6987866769777611,1,177,0,662.4564249500108,663.9581754890096,663.9581754890096,,,,,,,,,,,,,,,,,,,,,,,,,,,,,,,,,,,,,,,,,,,,,,,,,,,,,,,,,,,,,,,,,74219,2022-10-27_11h18.16.087,vts_reward_expectancy_bt_OFFLINE,2022.2.4,59.89075734261679,
0,0,0,1,0,1,0,0,star ,circle,0,0,0,0,2,9,33,10,,,,,,,,,,,,,,,,,,,,,,,,,,,,,,,,,,,,,,,,664.4585421740048,664.4585421740048,664.4585421740048,664.4585421740048,664.4585421740048,664.4585421740048,664.4585421740048,664.4585421740048,664.4585421740048,664.4585421740048,a,0.8518123619869584,1,178,0,665.3428156130103,666.8444448060036,,,,,,,,,,,,,,,,,,,,,,,,,,,,,,,,,,,,,,,,,,,,,,,,,,,,,,,,,,,,,,,,,,74219,2022-10-27_11h18.16.087,vts_reward_expectancy_bt_OFFLINE,2022.2.4,59.89075734261679,
0,0,1,0,1,0,0,0,hexagon,triangle,0,0,0,0,2,10,34,6,,,,,,,,,,,,,,,,,,,,,,,,,,,,,,,,,,,,,,,,667.3451550850004,667.3451550850004,667.3451550850004,667.3451550850004,667.3451550850004,667.3451550850004,667.3451550850004,667.3451550850004,667.3451550850004,667.3451550850004,a,1.4760345349932322,1,179,0,668.846704992,670.3483043500019,,,,,,,,,,,,,,,,,,,,,,,,,,,,,,,,,,,,,,,,,,,,,,,,,,,,,,,,,,,,,,,,,,74219,2022-10-27_11h18.16.087,vts_reward_expectancy_bt_OFFLINE,2022.2.4,59.89075734261679,
1,0,0,0,0,0,1,0,triangle,hexagon,0,0,0,0,2,11,35,1,,,,,,,,,,,,,,,,,,,,,,,,,,,,,,,,,,,,,,,,670.8488784640067,670.8488784640067,670.8488784640067,670.8488784640067,670.8488784640067,670.8488784640067,670.8488784640067,670.8488784640067,670.8488784640067,670.8488784640067,a,2.4761333289934555,1,180,0,673.3516391700105,674.8534155360103,,,,,,,,,,,,,,,,,,,,,,,,,,,,,,,,,,,,,,,,,,,,,,,,,,,,,,,,,,,,,,,,,,74219,2022-10-27_11h18.16.087,vts_reward_expectancy_bt_OFFLINE,2022.2.4,59.89075734261679,
0,0,0,1,0,1,0,0,star ,circle,0,0,0,0,3,0,36,10,,,,,,,,,,,,,,,,,,,,,,,,,,,,,,,,,,,,,,,,675.3539583770034,675.3539583770034,675.3539583770034,675.3539583770034,675.3539583770034,675.3539583770034,675.3539583770034,675.3539583770034,675.3539583770034,675.3539583770034,a,0.6755161999899428,1,181,0,676.0547706430079,677.556347278005,,,,,,,,,,,,,,,,,,,,,,,,,,,,,,,,,,,,,,,,,,,,,,,,,,,,,,,,,,,,,,,,,,74219,2022-10-27_11h18.16.087,vts_reward_expectancy_bt_OFFLINE,2022.2.4,59.89075734261679,
0,0,1,0,0,1,0,0,hexagon,circle,0,0,0,0,3,1,37,7,,,,,,,,,,,,,,,,,,,,,,,,,,,,,,,,,,,,,,,,678.0570959870092,678.0570959870092,678.0570959870092,678.0570959870092,678.0570959870092,678.0570959870092,678.0570959870092,678.0570959870092,678.0570959870092,678.0570959870092,l,1.7018520759884268,1,182,0,679.7756688759982,681.2772641570045,,,,,,,,,,,,,,,,,,,,,,,,,,,,,,,,,,,,,,,,,,,,,,,,,,,,,,,,,,,,,,,,,,74219,2022-10-27_11h18.16.087,vts_reward_expectancy_bt_OFFLINE,2022.2.4,59.89075734261679,
0,0,0,1,0,0,1,0,star,hexagon,0,0,0,0,3,2,38,11,,,,,,,,,,,,,,,,,,,,,,,,,,,,,,,,,,,,,,,,681.7778071100038,681.7778071100038,681.7778071100038,681.7778071100038,681.7778071100038,681.7778071100038,681.7778071100038,681.7778071100038,681.7778071100038,681.7778071100038,l,1.5078346079972107,1,183,0,683.3130217190046,684.8143654710002,,,,,,,,,,,,,,,,,,,,,,,,,,,,,,,,,,,,,,,,,,,,,,,,,,,,,,,,,,,,,,,,,,74219,2022-10-27_11h18.16.087,vts_reward_expectancy_bt_OFFLINE,2022.2.4,59.89075734261679,
0,1,0,0,0,0,0,1,circle,star,0,0,0,0,3,3,39,5,,,,,,,,,,,,,,,,,,,,,,,,,,,,,,,,,,,,,,,,685.3148936420039,685.3148936420039,685.3148936420039,685.3148936420039,685.3148936420039,685.3148936420039,685.3148936420039,685.3148936420039,685.3148936420039,685.3148936420039,l,0.6742495339858579,10,193,0,686.0158257870062,687.5174196690059,,,,,,,,,,,,,,,,,,,,,,,,,,,,,,,,,,,,,,,,,,,,,,,,,,,,,,,,,,,,,,,,,,74219,2022-10-27_11h18.16.087,vts_reward_expectancy_bt_OFFLINE,2022.2.4,59.89075734261679,
0,0,1,0,0,0,0,1,hexagon,star,0,0,0,0,3,4,40,8,,,,,,,,,,,,,,,,,,,,,,,,,,,,,,,,,,,,,,,,688.0178869189986,688.0178869189986,688.0178869189986,688.0178869189986,688.0178869189986,688.0178869189986,688.0178869189986,688.0178869189986,688.0178869189986,688.0178869189986,l,1.0759172559919534,1,194,0,689.1191634190036,690.6207496069983,,,,,,,,,,,,,,,,,,,,,,,,,,,,,,,,,,,,,,,,,,,,,,,,,,,,,,,,,,,,,,,,,,74219,2022-10-27_11h18.16.087,vts_reward_expectancy_bt_OFFLINE,2022.2.4,59.89075734261679,
1,0,0,0,0,0,0,1,triangle,star,0,0,0,0,3,5,41,2,,,,,,,,,,,,,,,,,,,,,,,,,,,,,,,,,,,,,,,,691.12131009101,691.12131009101,691.12131009101,691.12131009101,691.12131009101,691.12131009101,691.12131009101,691.12131009101,691.12131009101,691.12131009101,l,0.5175454279960832,10,204,0,691.6551677000098,693.1568401999975,,,,,,,,,,,,,,,,,,,,,,,,,,,,,,,,,,,,,,,,,,,,,,,,,,,,,,,,,,,,,,,,,,74219,2022-10-27_11h18.16.087,vts_reward_expectancy_bt_OFFLINE,2022.2.4,59.89075734261679,
1,0,0,0,0,0,1,0,triangle,hexagon,0,0,0,0,3,6,42,1,,,,,,,,,,,,,,,,,,,,,,,,,,,,,,,,,,,,,,,,693.6573594820075,693.6573594820075,693.6573594820075,693.6573594820075,693.6573594820075,693.6573594820075,693.6573594820075,693.6573594820075,693.6573594820075,693.6573594820075,a,1.3244380409887526,10,214,0,695.0090303230099,696.510787281004,,,,,,,,,,,,,,,,,,,,,,,,,,,,,,,,,,,,,,,,,,,,,,,,,,,,,,,,,,,,,,,,,,74219,2022-10-27_11h18.16.087,vts_reward_expectancy_bt_OFFLINE,2022.2.4,59.89075734261679,
0,0,0,1,1,0,0,0,star,triangle,0,0,0,0,3,7,43,9,,,,,,,,,,,,,,,,,,,,,,,,,,,,,,,,,,,,,,,,697.0111749119969,697.0111749119969,697.0111749119969,697.0111749119969,697.0111749119969,697.0111749119969,697.0111749119969,697.0111749119969,697.0111749119969,697.0111749119969,l,1.4587938629847486,1,215,0,698.4963507140055,699.9978584120108,,,,,,,,,,,,,,,,,,,,,,,,,,,,,,,,,,,,,,,,,,,,,,,,,,,,,,,,,,,,,,,,,,74219,2022-10-27_11h18.16.087,vts_reward_expectancy_bt_OFFLINE,2022.2.4,59.89075734261679,
0,1,0,0,0,0,1,0,circle,hexagon,0,0,0,0,3,8,44,4,,,,,,,,,,,,,,,,,,,,,,,,,,,,,,,,,,,,,,,,700.4983622360014,700.4983622360014,700.4983622360014,700.4983622360014,700.4983622360014,700.4983622360014,700.4983622360014,700.4983622360014,700.4983622360014,700.4983622360014,a,1.1552513889910188,10,225,0,701.683169322001,703.1847628719988,,,,,,,,,,,,,,,,,,,,,,,,,,,,,,,,,,,,,,,,,,,,,,,,,,,,,,,,,,,,,,,,,,74219,2022-10-27_11h18.16.087,vts_reward_expectancy_bt_OFFLINE,2022.2.4,59.89075734261679,
0,0,1,0,1,0,0,0,hexagon,triangle,0,0,0,0,3,9,45,6,,,,,,,,,,,,,,,,,,,,,,,,,,,,,,,,,,,,,,,,703.6852309539972,703.6852309539972,703.6852309539972,703.6852309539972,703.6852309539972,703.6852309539972,703.6852309539972,703.6852309539972,703.6852309539972,703.6852309539972,l,1.887795066984836,10,235,0,705.60417710201,707.1056802149978,,,,,,,,,,,,,,,,,,,,,,,,,,,,,,,,,,,,,,,,,,,,,,,,,,,,,,,,,,,,,,,,,,74219,2022-10-27_11h18.16.087,vts_reward_expectancy_bt_OFFLINE,2022.2.4,59.89075734261679,
1,0,0,0,0,1,0,0,triangle,circle,0,0,0,0,3,10,46,0,,,,,,,,,,,,,,,,,,,,,,,,,,,,,,,,,,,,,,,,707.6061354760022,707.6061354760022,707.6061354760022,707.6061354760022,707.6061354760022,707.6061354760022,707.6061354760022,707.6061354760022,707.6061354760022,707.6061354760022,l,1.2790645229979418,10,245,0,708.9074154460104,710.4092799820064,,,,,,,,,,,,,,,,,,,,,,,,,,,,,,,,,,,,,,,,,,,,,,,,,,,,,,,,,,,,,,,,,,74219,2022-10-27_11h18.16.087,vts_reward_expectancy_bt_OFFLINE,2022.2.4,59.89075734261679,
0,1,0,0,1,0,0,0,circle,triangle,0,0,0,0,3,11,47,3,,,,,,,,,,,,,,,,,,,,,,,,,,,,,,,,,,,,,,,,710.9098846020061,710.9098846020061,710.9098846020061,710.9098846020061,710.9098846020061,710.9098846020061,710.9098846020061,710.9098846020061,710.9098846020061,710.9098846020061,l,1.327349671992124,1,246,0,712.261212071011,713.7628165200003,,,,,,,,,,,,,,,,,,,,,,,,,,,,,,,,,,,,,,,,,,,,,,,,,,,,,,,,,,,,,,,,,,74219,2022-10-27_11h18.16.087,vts_reward_expectancy_bt_OFFLINE,2022.2.4,59.89075734261679,
0,0,1,0,0,1,0,0,hexagon,circle,1,0,1,0,0,0,0,7,,,,,,,,,,,,,,,,,,,,,,,,,,,,,,,,,,,,,,,,720.2423054310057,720.2423054310057,720.2423054310057,720.2423054310057,720.2423054310057,720.2423054310057,720.2423054310057,720.2423054310057,720.2423054310057,720.2423054310057,l,3.739534163993085,10,256,1,724.0078162220016,725.5092559760087,,,,,,,,,,,,,,,,,,,,,,,,,,,,,,,,,,,,,,,,,,,,,,,,,,,,,,,,,,,,,,,,,,74219,2022-10-27_11h18.16.087,vts_reward_expectancy_bt_OFFLINE,2022.2.4,59.89075734261679,
0,0,0,1,0,1,0,0,star ,circle,1,0,1,0,0,1,1,10,,,,,,,,,,,,,,,,,,,,,,,,,,,,,,,,,,,,,,,,726.0097692540003,726.0097692540003,726.0097692540003,726.0097692540003,726.0097692540003,726.0097692540003,726.0097692540003,726.0097692540003,726.0097692540003,726.0097692540003,l,1.2689412879844895,10,266,1,727.3113778830011,728.8130944400036,,,,,,,,,,,,,,,,,,,,,,,,,,,,,,,,,,,,,,,,,,,,,,,,,,,,,,,,,,,,,,,,,,74219,2022-10-27_11h18.16.087,vts_reward_expectancy_bt_OFFLINE,2022.2.4,59.89075734261679,
0,1,0,0,1,0,0,0,circle,triangle,1,0,1,0,0,2,2,3,,,,,,,,,,,,,,,,,,,,,,,,,,,,,,,,,,,,,,,,729.3133577679982,729.3133577679982,729.3133577679982,729.3133577679982,729.3133577679982,729.3133577679982,729.3133577679982,729.3133577679982,729.3133577679982,729.3133577679982,l,1.3722473439847818,10,276,1,730.7149927020073,732.21708149201,,,,,,,,,,,,,,,,,,,,,,,,,,,,,,,,,,,,,,,,,,,,,,,,,,,,,,,,,,,,,,,,,,74219,2022-10-27_11h18.16.087,vts_reward_expectancy_bt_OFFLINE,2022.2.4,59.89075734261679,
1,0,0,0,0,0,0,1,triangle,star,1,0,1,0,0,3,3,2,,,,,,,,,,,,,,,,,,,,,,,,,,,,,,,,,,,,,,,,732.7171711889969,732.7171711889969,732.7171711889969,732.7171711889969,732.7171711889969,732.7171711889969,732.7171711889969,732.7171711889969,732.7171711889969,732.7171711889969,l,0.7760555149870925,10,286,1,733.5181994640006,735.0197249699995,,,,,,,,,,,,,,,,,,,,,,,,,,,,,,,,,,,,,,,,,,,,,,,,,,,,,,,,,,,,,,,,,,74219,2022-10-27_11h18.16.087,vts_reward_expectancy_bt_OFFLINE,2022.2.4,59.89075734261679,
0,1,0,0,0,0,1,0,circle,hexagon,1,0,1,0,0,4,4,4,,,,,,,,,,,,,,,,,,,,,,,,,,,,,,,,,,,,,,,,735.5202722530084,735.5202722530084,735.5202722530084,735.5202722530084,735.5202722530084,735.5202722530084,735.5202722530084,735.5202722530084,735.5202722530084,735.5202722530084,a,1.6776600449957186,10,296,1,737.2220822340023,738.7237827710051,,,,,,,,,,,,,,,,,,,,,,,,,,,,,,,,,,,,,,,,,,,,,,,,,,,,,,,,,,,,,,,,,,74219,2022-10-27_11h18.16.087,vts_reward_expectancy_bt_OFFLINE,2022.2.4,59.89075734261679,
1,0,0,0,0,1,0,0,triangle,circle,1,0,1,0,0,5,5,0,,,,,,,,,,,,,,,,,,,,,,,,,,,,,,,,,,,,,,,,739.2244446200057,739.2244446200057,739.2244446200057,739.2244446200057,739.2244446200057,739.2244446200057,739.2244446200057,739.2244446200057,739.2244446200057,739.2244446200057,l,1.5745622099930188,10,306,1,740.8261578020029,742.3277144090098,,,,,,,,,,,,,,,,,,,,,,,,,,,,,,,,,,,,,,,,,,,,,,,,,,,,,,,,,,,,,,,,,,74219,2022-10-27_11h18.16.087,vts_reward_expectancy_bt_OFFLINE,2022.2.4,59.89075734261679,
0,0,1,0,0,0,0,1,hexagon,star,1,0,1,0,0,6,6,8,,,,,,,,,,,,,,,,,,,,,,,,,,,,,,,,,,,,,,,,742.8284962730104,742.8284962730104,742.8284962730104,742.8284962730104,742.8284962730104,742.8284962730104,742.8284962730104,742.8284962730104,742.8284962730104,742.8284962730104,a,1.2970097929792246,1,307,1,744.1465337310074,745.648295047009,,,,,,,,,,,,,,,,,,,,,,,,,,,,,,,,,,,,,,,,,,,,,,,,,,,,,,,,,,,,,,,,,,74219,2022-10-27_11h18.16.087,vts_reward_expectancy_bt_OFFLINE,2022.2.4,59.89075734261679,
1,0,0,0,0,0,1,0,triangle,hexagon,1,0,1,0,0,7,7,1,,,,,,,,,,,,,,,,,,,,,,,,,,,,,,,,,,,,,,,,746.1489583829971,746.1489583829971,746.1489583829971,746.1489583829971,746.1489583829971,746.1489583829971,746.1489583829971,746.1489583829971,746.1489583829971,746.1489583829971,a,1.8582478019961854,1,308,1,748.0342604530015,749.5356696390081,,,,,,,,,,,,,,,,,,,,,,,,,,,,,,,,,,,,,,,,,,,,,,,,,,,,,,,,,,,,,,,,,,74219,2022-10-27_11h18.16.087,vts_reward_expectancy_bt_OFFLINE,2022.2.4,59.89075734261679,
0,0,1,0,1,0,0,0,hexagon,triangle,1,0,1,0,0,8,8,6,,,,,,,,,,,,,,,,,,,,,,,,,,,,,,,,,,,,,,,,750.0362827130011,750.0362827130011,750.0362827130011,750.0362827130011,750.0362827130011,750.0362827130011,750.0362827130011,750.0362827130011,750.0362827130011,750.0362827130011,l,1.2344820759899449,1,309,1,751.2876276680036,752.7895527360088,,,,,,,,,,,,,,,,,,,,,,,,,,,,,,,,,,,,,,,,,,,,,,,,,,,,,,,,,,,,,,,,,,74219,2022-10-27_11h18.16.087,vts_reward_expectancy_bt_OFFLINE,2022.2.4,59.89075734261679,
0,0,0,1,0,0,1,0,star,hexagon,1,0,1,0,0,9,9,11,,,,,,,,,,,,,,,,,,,,,,,,,,,,,,,,,,,,,,,,753.2898836759996,753.2898836759996,753.2898836759996,753.2898836759996,753.2898836759996,753.2898836759996,753.2898836759996,753.2898836759996,753.2898836759996,753.2898836759996,a,0.8353153909847606,10,319,1,754.1575353100052,755.6593261490052,,,,,,,,,,,,,,,,,,,,,,,,,,,,,,,,,,,,,,,,,,,,,,,,,,,,,,,,,,,,,,,,,,74219,2022-10-27_11h18.16.087,vts_reward_expectancy_bt_OFFLINE,2022.2.4,59.89075734261679,
0,0,0,1,1,0,0,0,star,triangle,1,0,1,0,0,10,10,9,,,,,,,,,,,,,,,,,,,,,,,,,,,,,,,,,,,,,,,,756.1598376120091,756.1598376120091,756.1598376120091,756.1598376120091,756.1598376120091,756.1598376120091,756.1598376120091,756.1598376120091,756.1598376120091,756.1598376120091,l,1.2299747719953302,1,320,1,757.4112838450092,758.912750413001,,,,,,,,,,,,,,,,,,,,,,,,,,,,,,,,,,,,,,,,,,,,,,,,,,,,,,,,,,,,,,,,,,74219,2022-10-27_11h18.16.087,vts_reward_expectancy_bt_OFFLINE,2022.2.4,59.89075734261679,
0,1,0,0,0,0,0,1,circle,star,1,0,1,0,0,11,11,5,,,,,,,,,,,,,,,,,,,,,,,,,,,,,,,,,,,,,,,,759.4132911909983,759.4132911909983,759.4132911909983,759.4132911909983,759.4132911909983,759.4132911909983,759.4132911909983,759.4132911909983,759.4132911909983,759.4132911909983,l,0.6568216869782191,10,330,1,760.0972959040082,761.598983953998,,,,,,,,,,,,,,,,,,,,,,,,,,,,,,,,,,,,,,,,,,,,,,,,,,,,,,,,,,,,,,,,,,74219,2022-10-27_11h18.16.087,vts_reward_expectancy_bt_OFFLINE,2022.2.4,59.89075734261679,
0,0,0,1,0,0,1,0,star,hexagon,1,0,1,0,1,0,12,11,,,,,,,,,,,,,,,,,,,,,,,,,,,,,,,,,,,,,,,,762.099576366003,762.099576366003,762.099576366003,762.099576366003,762.099576366003,762.099576366003,762.099576366003,762.099576366003,762.099576366003,762.099576366003,l,2.6258384859975195,1,331,1,764.7527551490057,766.2544430679991,,,,,,,,,,,,,,,,,,,,,,,,,,,,,,,,,,,,,,,,,,,,,,,,,,,,,,,,,,,,,,,,,,74219,2022-10-27_11h18.16.087,vts_reward_expectancy_bt_OFFLINE,2022.2.4,59.89075734261679,
0,0,1,0,1,0,0,0,hexagon,triangle,1,0,1,0,1,1,13,6,,,,,,,,,,,,,,,,,,,,,,,,,,,,,,,,,,,,,,,,766.7549915109994,766.7549915109994,766.7549915109994,766.7549915109994,766.7549915109994,766.7549915109994,766.7549915109994,766.7549915109994,766.7549915109994,766.7549915109994,l,2.1143234909977764,1,332,1,768.8904661080014,770.3924566770002,,,,,,,,,,,,,,,,,,,,,,,,,,,,,,,,,,,,,,,,,,,,,,,,,,,,,,,,,,,,,,,,,,74219,2022-10-27_11h18.16.087,vts_reward_expectancy_bt_OFFLINE,2022.2.4,59.89075734261679,
1,0,0,0,0,0,0,1,triangle,star,1,0,1,0,1,2,14,2,,,,,,,,,,,,,,,,,,,,,,,,,,,,,,,,,,,,,,,,770.8929840350029,770.8929840350029,770.8929840350029,770.8929840350029,770.8929840350029,770.8929840350029,770.8929840350029,770.8929840350029,770.8929840350029,770.8929840350029,l,1.0405020089965547,10,342,1,771.9604653010028,773.4624741680018,,,,,,,,,,,,,,,,,,,,,,,,,,,,,,,,,,,,,,,,,,,,,,,,,,,,,,,,,,,,,,,,,,74219,2022-10-27_11h18.16.087,vts_reward_expectancy_bt_OFFLINE,2022.2.4,59.89075734261679,
0,1,0,0,1,0,0,0,circle,triangle,1,0,1,0,1,3,15,3,,,,,,,,,,,,,,,,,,,,,,,,,,,,,,,,,,,,,,,,773.9628343210061,773.9628343210061,773.9628343210061,773.9628343210061,773.9628343210061,773.9628343210061,773.9628343210061,773.9628343210061,773.9628343210061,773.9628343210061,a,2.1389916069892934,10,352,1,776.1316940660035,777.6333783630107,,,,,,,,,,,,,,,,,,,,,,,,,,,,,,,,,,,,,,,,,,,,,,,,,,,,,,,,,,,,,,,,,,74219,2022-10-27_11h18.16.087,vts_reward_expectancy_bt_OFFLINE,2022.2.4,59.89075734261679,
0,0,0,1,0,1,0,0,star ,circle,1,0,1,0,1,4,16,10,,,,,,,,,,,,,,,,,,,,,,,,,,,,,,,,,,,,,,,,778.1339136660099,778.1339136660099,778.1339136660099,778.1339136660099,778.1339136660099,778.1339136660099,778.1339136660099,778.1339136660099,778.1339136660099,778.1339136660099,l,1.8716470609942917,1,353,1,780.0362255060027,781.5377416660049,,,,,,,,,,,,,,,,,,,,,,,,,,,,,,,,,,,,,,,,,,,,,,,,,,,,,,,,,,,,,,,,,,74219,2022-10-27_11h18.16.087,vts_reward_expectancy_bt_OFFLINE,2022.2.4,59.89075734261679,
0,0,1,0,0,1,0,0,hexagon,circle,1,0,1,0,1,5,17,7,,,,,,,,,,,,,,,,,,,,,,,,,,,,,,,,,,,,,,,,782.0382811950112,782.0382811950112,782.0382811950112,782.0382811950112,782.0382811950112,782.0382811950112,782.0382811950112,782.0382811950112,782.0382811950112,782.0382811950112,l,1.4157753699837485,10,363,1,783.4731581670057,784.9748896630044,,,,,,,,,,,,,,,,,,,,,,,,,,,,,,,,,,,,,,,,,,,,,,,,,,,,,,,,,,,,,,,,,,74219,2022-10-27_11h18.16.087,vts_reward_expectancy_bt_OFFLINE,2022.2.4,59.89075734261679,
0,0,1,0,0,0,0,1,hexagon,star,1,0,1,0,1,6,18,8,,,,,,,,,,,,,,,,,,,,,,,,,,,,,,,,,,,,,,,,785.4753907490085,785.4753907490085,785.4753907490085,785.4753907490085,785.4753907490085,785.4753907490085,785.4753907490085,785.4753907490085,785.4753907490085,785.4753907490085,l,0.8262058029940818,10,373,1,786.3262595560082,787.8266904510092,787.8266904510092,,,,,,,,,,,,,,,,,,,,,,,,,,,,,,,,,,,,,,,,,,,,,,,,,,,,,,,,,,,,,,,,,74219,2022-10-27_11h18.16.087,vts_reward_expectancy_bt_OFFLINE,2022.2.4,59.89075734261679,
1,0,0,0,0,0,1,0,triangle,hexagon,1,0,1,0,1,7,19,1,,,,,,,,,,,,,,,,,,,,,,,,,,,,,,,,,,,,,,,,788.3286978570104,788.3286978570104,788.3286978570104,788.3286978570104,788.3286978570104,788.3286978570104,788.3286978570104,788.3286978570104,788.3286978570104,788.3286978570104,a,1.7245828099839855,10,383,1,790.0805298650084,791.5821661230002,,,,,,,,,,,,,,,,,,,,,,,,,,,,,,,,,,,,,,,,,,,,,,,,,,,,,,,,,,,,,,,,,,74219,2022-10-27_11h18.16.087,vts_reward_expectancy_bt_OFFLINE,2022.2.4,59.89075734261679,
0,1,0,0,0,0,1,0,circle,hexagon,1,0,1,0,1,8,20,4,,,,,,,,,,,,,,,,,,,,,,,,,,,,,,,,,,,,,,,,792.0827170710108,792.0827170710108,792.0827170710108,792.0827170710108,792.0827170710108,792.0827170710108,792.0827170710108,792.0827170710108,792.0827170710108,792.0827170710108,a,1.8105339739850024,10,393,1,793.9182158629992,795.4196659890004,,,,,,,,,,,,,,,,,,,,,,,,,,,,,,,,,,,,,,,,,,,,,,,,,,,,,,,,,,,,,,,,,,74219,2022-10-27_11h18.16.087,vts_reward_expectancy_bt_OFFLINE,2022.2.4,59.89075734261679,
1,0,0,0,0,1,0,0,triangle,circle,1,0,1,0,1,9,21,0,,,,,,,,,,,,,,,,,,,,,,,,,,,,,,,,,,,,,,,,795.9203632080025,795.9203632080025,795.9203632080025,795.9203632080025,795.9203632080025,795.9203632080025,795.9203632080025,795.9203632080025,795.9203632080025,795.9203632080025,l,1.0202438959968276,1,394,1,796.971492319004,798.4739645160007,,,,,,,,,,,,,,,,,,,,,,,,,,,,,,,,,,,,,,,,,,,,,,,,,,,,,,,,,,,,,,,,,,74219,2022-10-27_11h18.16.087,vts_reward_expectancy_bt_OFFLINE,2022.2.4,59.89075734261679,
0,0,0,1,1,0,0,0,star,triangle,1,0,1,0,1,10,22,9,,,,,,,,,,,,,,,,,,,,,,,,,,,,,,,,,,,,,,,,798.9738420850044,798.9738420850044,798.9738420850044,798.9738420850044,798.9738420850044,798.9738420850044,798.9738420850044,798.9738420850044,798.9738420850044,798.9738420850044,l,1.2075385999924038,10,404,1,800.2082662580069,801.7100035180047,,,,,,,,,,,,,,,,,,,,,,,,,,,,,,,,,,,,,,,,,,,,,,,,,,,,,,,,,,,,,,,,,,74219,2022-10-27_11h18.16.087,vts_reward_expectancy_bt_OFFLINE,2022.2.4,59.89075734261679,
0,1,0,0,0,0,0,1,circle,star,1,0,1,0,1,11,23,5,,,,,,,,,,,,,,,,,,,,,,,,,,,,,,,,,,,,,,,,802.2109532360046,802.2109532360046,802.2109532360046,802.2109532360046,802.2109532360046,802.2109532360046,802.2109532360046,802.2109532360046,802.2109532360046,802.2109532360046,l,1.4425877859903267,10,414,1,803.678961010999,805.180553512997,,,,,,,,,,,,,,,,,,,,,,,,,,,,,,,,,,,,,,,,,,,,,,,,,,,,,,,,,,,,,,,,,,74219,2022-10-27_11h18.16.087,vts_reward_expectancy_bt_OFFLINE,2022.2.4,59.89075734261679,
1,0,0,0,0,0,0,1,triangle,star,1,0,1,0,2,0,24,2,,,,,,,,,,,,,,,,,,,,,,,,,,,,,,,,,,,,,,,,805.6812052200112,805.6812052200112,805.6812052200112,805.6812052200112,805.6812052200112,805.6812052200112,805.6812052200112,805.6812052200112,805.6812052200112,805.6812052200112,l,0.9801270569878398,10,424,1,806.6824279249995,808.1839148380095,,,,,,,,,,,,,,,,,,,,,,,,,,,,,,,,,,,,,,,,,,,,,,,,,,,,,,,,,,,,,,,,,,74219,2022-10-27_11h18.16.087,vts_reward_expectancy_bt_OFFLINE,2022.2.4,59.89075734261679,
0,0,0,1,1,0,0,0,star,triangle,1,0,1,0,2,1,25,9,,,,,,,,,,,,,,,,,,,,,,,,,,,,,,,,,,,,,,,,808.6843508840102,808.6843508840102,808.6843508840102,808.6843508840102,808.6843508840102,808.6843508840102,808.6843508840102,808.6843508840102,808.6843508840102,808.6843508840102,a,0.9855100739951013,1,425,1,809.7021379740036,811.2037952620012,,,,,,,,,,,,,,,,,,,,,,,,,,,,,,,,,,,,,,,,,,,,,,,,,,,,,,,,,,,,,,,,,,74219,2022-10-27_11h18.16.087,vts_reward_expectancy_bt_OFFLINE,2022.2.4,59.89075734261679,
1,0,0,0,0,1,0,0,triangle,circle,1,0,1,0,2,2,26,0,,,,,,,,,,,,,,,,,,,,,,,,,,,,,,,,,,,,,,,,811.7042267630022,811.7042267630022,811.7042267630022,811.7042267630022,811.7042267630022,811.7042267630022,811.7042267630022,811.7042267630022,811.7042267630022,811.7042267630022,l,1.1493483449885389,10,435,1,812.8723838380101,814.3740520130086,814.3740520130086,,,,,,,,,,,,,,,,,,,,,,,,,,,,,,,,,,,,,,,,,,,,,,,,,,,,,,,,,,,,,,,,,74219,2022-10-27_11h18.16.087,vts_reward_expectancy_bt_OFFLINE,2022.2.4,59.89075734261679,
0,0,1,0,1,0,0,0,hexagon,triangle,1,0,1,0,2,3,27,6,,,,,,,,,,,,,,,,,,,,,,,,,,,,,,,,,,,,,,,,814.8745080920053,814.8745080920053,814.8745080920053,814.8745080920053,814.8745080920053,814.8745080920053,814.8745080920053,814.8745080920053,814.8745080920053,814.8745080920053,l,3.2759842969826423,10,445,1,818.1780000209983,819.6798217100004,,,,,,,,,,,,,,,,,,,,,,,,,,,,,,,,,,,,,,,,,,,,,,,,,,,,,,,,,,,,,,,,,,74219,2022-10-27_11h18.16.087,vts_reward_expectancy_bt_OFFLINE,2022.2.4,59.89075734261679,
0,1,0,0,1,0,0,0,circle,triangle,1,0,1,0,2,4,28,3,,,,,,,,,,,,,,,,,,,,,,,,,,,,,,,,,,,,,,,,820.1803108500026,820.1803108500026,820.1803108500026,820.1803108500026,820.1803108500026,820.1803108500026,820.1803108500026,820.1803108500026,820.1803108500026,820.1803108500026,a,4.128722270979779,10,455,1,824.3348972899985,825.8367189950077,,,,,,,,,,,,,,,,,,,,,,,,,,,,,,,,,,,,,,,,,,,,,,,,,,,,,,,,,,,,,,,,,,74219,2022-10-27_11h18.16.087,vts_reward_expectancy_bt_OFFLINE,2022.2.4,59.89075734261679,
0,0,0,1,0,0,1,0,star,hexagon,1,0,1,0,2,5,29,11,,,,,,,,,,,,,,,,,,,,,,,,,,,,,,,,,,,,,,,,826.3371668559994,826.3371668559994,826.3371668559994,826.3371668559994,826.3371668559994,826.3371668559994,826.3371668559994,826.3371668559994,826.3371668559994,826.3371668559994,a,1.419599342989386,10,465,1,827.7887306500052,829.2903422490053,,,,,,,,,,,,,,,,,,,,,,,,,,,,,,,,,,,,,,,,,,,,,,,,,,,,,,,,,,,,,,,,,,74219,2022-10-27_11h18.16.087,vts_reward_expectancy_bt_OFFLINE,2022.2.4,59.89075734261679,
0,0,1,0,0,0,0,1,hexagon,star,1,0,1,0,2,6,30,8,,,,,,,,,,,,,,,,,,,,,,,,,,,,,,,,,,,,,,,,829.791085179997,829.791085179997,829.791085179997,829.791085179997,829.791085179997,829.791085179997,829.791085179997,829.791085179997,829.791085179997,829.791085179997,l,1.093871261982713,10,475,1,830.908986112001,832.4106430380052,,,,,,,,,,,,,,,,,,,,,,,,,,,,,,,,,,,,,,,,,,,,,,,,,,,,,,,,,,,,,,,,,,74219,2022-10-27_11h18.16.087,vts_reward_expectancy_bt_OFFLINE,2022.2.4,59.89075734261679,
0,1,0,0,0,0,0,1,circle,star,1,0,1,0,2,7,31,5,,,,,,,,,,,,,,,,,,,,,,,,,,,,,,,,,,,,,,,,832.9112121979997,832.9112121979997,832.9112121979997,832.9112121979997,832.9112121979997,832.9112121979997,832.9112121979997,832.9112121979997,832.9112121979997,832.9112121979997,l,1.1819484859879594,1,476,1,834.1124917810084,835.6142697239993,,,,,,,,,,,,,,,,,,,,,,,,,,,,,,,,,,,,,,,,,,,,,,,,,,,,,,,,,,,,,,,,,,74219,2022-10-27_11h18.16.087,vts_reward_expectancy_bt_OFFLINE,2022.2.4,59.89075734261679,
1,0,0,0,0,0,1,0,triangle,hexagon,1,0,1,0,2,8,32,1,,,,,,,,,,,,,,,,,,,,,,,,,,,,,,,,,,,,,,,,836.1147014379967,836.1147014379967,836.1147014379967,836.1147014379967,836.1147014379967,836.1147014379967,836.1147014379967,836.1147014379967,836.1147014379967,836.1147014379967,a,1.794202076998772,1,477,1,837.9335994180001,839.4349380860076,,,,,,,,,,,,,,,,,,,,,,,,,,,,,,,,,,,,,,,,,,,,,,,,,,,,,,,,,,,,,,,,,,74219,2022-10-27_11h18.16.087,vts_reward_expectancy_bt_OFFLINE,2022.2.4,59.89075734261679,
0,0,0,1,0,1,0,0,star ,circle,1,0,1,0,2,9,33,10,,,,,,,,,,,,,,,,,,,,,,,,,,,,,,,,,,,,,,,,839.9355772470008,839.9355772470008,839.9355772470008,839.9355772470008,839.9355772470008,839.9355772470008,839.9355772470008,839.9355772470008,839.9355772470008,839.9355772470008,l,1.358175178989768,10,487,1,841.3204392309999,842.8219986699987,,,,,,,,,,,,,,,,,,,,,,,,,,,,,,,,,,,,,,,,,,,,,,,,,,,,,,,,,,,,,,,,,,74219,2022-10-27_11h18.16.087,vts_reward_expectancy_bt_OFFLINE,2022.2.4,59.89075734261679,
0,0,1,0,0,1,0,0,hexagon,circle,1,0,1,0,2,10,34,7,,,,,,,,,,,,,,,,,,,,,,,,,,,,,,,,,,,,,,,,843.3228131030046,843.3228131030046,843.3228131030046,843.3228131030046,843.3228131030046,843.3228131030046,843.3228131030046,843.3228131030046,843.3228131030046,843.3228131030046,l,5.634023574995808,10,497,1,848.9788642750063,850.4806142570014,,,,,,,,,,,,,,,,,,,,,,,,,,,,,,,,,,,,,,,,,,,,,,,,,,,,,,,,,,,,,,,,,,74219,2022-10-27_11h18.16.087,vts_reward_expectancy_bt_OFFLINE,2022.2.4,59.89075734261679,
0,1,0,0,0,0,1,0,circle,hexagon,1,0,1,0,2,11,35,4,,,,,,,,,,,,,,,,,,,,,,,,,,,,,,,,,,,,,,,,850.98116195701,850.98116195701,850.98116195701,850.98116195701,850.98116195701,850.98116195701,850.98116195701,850.98116195701,850.98116195701,850.98116195701,a,1.7694921069924021,10,507,1,852.7830539080023,854.2846904519974,,,,,,,,,,,,,,,,,,,,,,,,,,,,,,,,,,,,,,,,,,,,,,,,,,,,,,,,,,,,,,,,,,74219,2022-10-27_11h18.16.087,vts_reward_expectancy_bt_OFFLINE,2022.2.4,59.89075734261679,
0,0,0,1,0,0,1,0,star,hexagon,1,0,1,0,3,0,36,11,,,,,,,,,,,,,,,,,,,,,,,,,,,,,,,,,,,,,,,,854.7852359190001,854.7852359190001,854.7852359190001,854.7852359190001,854.7852359190001,854.7852359190001,854.7852359190001,854.7852359190001,854.7852359190001,854.7852359190001,a,1.179972640995402,10,517,1,855.9866642480047,857.4882152400096,,,,,,,,,,,,,,,,,,,,,,,,,,,,,,,,,,,,,,,,,,,,,,,,,,,,,,,,,,,,,,,,,,74219,2022-10-27_11h18.16.087,vts_reward_expectancy_bt_OFFLINE,2022.2.4,59.89075734261679,
0,1,0,0,0,0,1,0,circle,hexagon,1,0,1,0,3,1,37,4,,,,,,,,,,,,,,,,,,,,,,,,,,,,,,,,,,,,,,,,857.9890640540107,857.9890640540107,857.9890640540107,857.9890640540107,857.9890640540107,857.9890640540107,857.9890640540107,857.9890640540107,857.9890640540107,857.9890640540107,a,1.1446124769863673,1,518,1,859.1567577759997,860.6584893969994,,,,,,,,,,,,,,,,,,,,,,,,,,,,,,,,,,,,,,,,,,,,,,,,,,,,,,,,,,,,,,,,,,74219,2022-10-27_11h18.16.087,vts_reward_expectancy_bt_OFFLINE,2022.2.4,59.89075734261679,
1,0,0,0,0,0,1,0,triangle,hexagon,1,0,1,0,3,2,38,1,,,,,,,,,,,,,,,,,,,,,,,,,,,,,,,,,,,,,,,,861.1592088589969,861.1592088589969,861.1592088589969,861.1592088589969,861.1592088589969,861.1592088589969,861.1592088589969,861.1592088589969,861.1592088589969,861.1592088589969,a,2.269767707999563,1,519,1,863.4614290540048,864.963231339003,,,,,,,,,,,,,,,,,,,,,,,,,,,,,,,,,,,,,,,,,,,,,,,,,,,,,,,,,,,,,,,,,,74219,2022-10-27_11h18.16.087,vts_reward_expectancy_bt_OFFLINE,2022.2.4,59.89075734261679,
0,0,0,1,1,0,0,0,star,triangle,1,0,1,0,3,3,39,9,,,,,,,,,,,,,,,,,,,,,,,,,,,,,,,,,,,,,,,,865.46364696401,865.46364696401,865.46364696401,865.46364696401,865.46364696401,865.46364696401,865.46364696401,865.46364696401,865.46364696401,865.46364696401,l,1.6303485929820454,1,520,1,867.1153872550058,868.6171097339975,,,,,,,,,,,,,,,,,,,,,,,,,,,,,,,,,,,,,,,,,,,,,,,,,,,,,,,,,,,,,,,,,,74219,2022-10-27_11h18.16.087,vts_reward_expectancy_bt_OFFLINE,2022.2.4,59.89075734261679,
0,0,1,0,1,0,0,0,hexagon,triangle,1,0,1,0,3,4,40,6,,,,,,,,,,,,,,,,,,,,,,,,,,,,,,,,,,,,,,,,869.1175552990026,869.1175552990026,869.1175552990026,869.1175552990026,869.1175552990026,869.1175552990026,869.1175552990026,869.1175552990026,869.1175552990026,869.1175552990026,l,3.9376814699935494,1,521,1,873.0720841010043,874.5737140520068,,,,,,,,,,,,,,,,,,,,,,,,,,,,,,,,,,,,,,,,,,,,,,,,,,,,,,,,,,,,,,,,,,74219,2022-10-27_11h18.16.087,vts_reward_expectancy_bt_OFFLINE,2022.2.4,59.89075734261679,
0,0,1,0,0,1,0,0,hexagon,circle,1,0,1,0,3,5,41,7,,,,,,,,,,,,,,,,,,,,,,,,,,,,,,,,,,,,,,,,875.0746160420094,875.0746160420094,875.0746160420094,875.0746160420094,875.0746160420094,875.0746160420094,875.0746160420094,875.0746160420094,875.0746160420094,875.0746160420094,l,5.290872248981032,10,531,1,880.3970295390027,881.8986747919989,,,,,,,,,,,,,,,,,,,,,,,,,,,,,,,,,,,,,,,,,,,,,,,,,,,,,,,,,,,,,,,,,,74219,2022-10-27_11h18.16.087,vts_reward_expectancy_bt_OFFLINE,2022.2.4,59.89075734261679,
1,0,0,0,0,1,0,0,triangle,circle,1,0,1,0,3,6,42,0,,,,,,,,,,,,,,,,,,,,,,,,,,,,,,,,,,,,,,,,882.3989969560062,882.3989969560062,882.3989969560062,882.3989969560062,882.3989969560062,882.3989969560062,882.3989969560062,882.3989969560062,882.3989969560062,882.3989969560062,l,1.453584630988189,1,532,1,883.8839093540009,885.3856254990096,,,,,,,,,,,,,,,,,,,,,,,,,,,,,,,,,,,,,,,,,,,,,,,,,,,,,,,,,,,,,,,,,,74219,2022-10-27_11h18.16.087,vts_reward_expectancy_bt_OFFLINE,2022.2.4,59.89075734261679,
1,0,0,0,0,0,0,1,triangle,star,1,0,1,0,3,7,43,2,,,,,,,,,,,,,,,,,,,,,,,,,,,,,,,,,,,,,,,,885.8860110189999,885.8860110189999,885.8860110189999,885.8860110189999,885.8860110189999,885.8860110189999,885.8860110189999,885.8860110189999,885.8860110189999,885.8860110189999,l,1.495917031992576,1,533,1,887.4044067170034,888.9061561370036,,,,,,,,,,,,,,,,,,,,,,,,,,,,,,,,,,,,,,,,,,,,,,,,,,,,,,,,,,,,,,,,,,74219,2022-10-27_11h18.16.087,vts_reward_expectancy_bt_OFFLINE,2022.2.4,59.89075734261679,
0,1,0,0,1,0,0,0,circle,triangle,1,0,1,0,3,8,44,3,,,,,,,,,,,,,,,,,,,,,,,,,,,,,,,,,,,,,,,,889.4065520970034,889.4065520970034,889.4065520970034,889.4065520970034,889.4065520970034,889.4065520970034,889.4065520970034,889.4065520970034,889.4065520970034,889.4065520970034,a,1.1751456179918023,10,543,1,890.6081038200064,892.1097744950093,,,,,,,,,,,,,,,,,,,,,,,,,,,,,,,,,,,,,,,,,,,,,,,,,,,,,,,,,,,,,,,,,,74219,2022-10-27_11h18.16.087,vts_reward_expectancy_bt_OFFLINE,2022.2.4,59.89075734261679,
0,1,0,0,0,0,0,1,circle,star,1,0,1,0,3,9,45,5,,,,,,,,,,,,,,,,,,,,,,,,,,,,,,,,,,,,,,,,892.6105412440083,892.6105412440083,892.6105412440083,892.6105412440083,892.6105412440083,892.6105412440083,892.6105412440083,892.6105412440083,892.6105412440083,892.6105412440083,l,2.258167082996806,10,553,1,894.89605501201,896.3978337160079,,,,,,,,,,,,,,,,,,,,,,,,,,,,,,,,,,,,,,,,,,,,,,,,,,,,,,,,,,,,,,,,,,74219,2022-10-27_11h18.16.087,vts_reward_expectancy_bt_OFFLINE,2022.2.4,59.89075734261679,
0,0,0,1,0,1,0,0,star ,circle,1,0,1,0,3,10,46,10,,,,,,,,,,,,,,,,,,,,,,,,,,,,,,,,,,,,,,,,896.8985359900107,896.8985359900107,896.8985359900107,896.8985359900107,896.8985359900107,896.8985359900107,896.8985359900107,896.8985359900107,896.8985359900107,896.8985359900107,a,0.9074031479831319,10,563,1,897.8326423990075,899.3343548780103,,,,,,,,,,,,,,,,,,,,,,,,,,,,,,,,,,,,,,,,,,,,,,,,,,,,,,,,,,,,,,,,,,74219,2022-10-27_11h18.16.087,vts_reward_expectancy_bt_OFFLINE,2022.2.4,59.89075734261679,
0,0,1,0,0,0,0,1,hexagon,star,1,0,1,0,3,11,47,8,,,,,,,,,,,,,,,,,,,,,,,,,,,,,,,,,,,,,,,,899.8348265829991,899.8348265829991,899.8348265829991,899.8348265829991,899.8348265829991,899.8348265829991,899.8348265829991,899.8348265829991,899.8348265829991,899.8348265829991,l,1.9631680289894575,1,564,1,901.820365217005,903.3222170750087,,,,,,,,,,,,,,,,,,,,,,,,,,,,,,,,,,,,,,,,,,,,,,,,,,,,,,,,,,,,,,,,,,74219,2022-10-27_11h18.16.087,vts_reward_expectancy_bt_OFFLINE,2022.2.4,59.89075734261679,
1,0,0,0,0,0,0,1,triangle,star,2,0,2,0,0,0,0,2,,,,,,,,,,,,,,,,,,,,,,,,,,,,,,,,,,,,,,,,906.5821140070038,906.5821140070038,906.5821140070038,906.5821140070038,906.5821140070038,906.5821140070038,906.5821140070038,906.5821140070038,906.5821140070038,906.5821140070038,l,2.9595436529780272,10,574,2,909.5624887110025,911.0639923280105,,,,,,,,,,,,,,,,,,,,,,,,,,,,,,,,,,,,,,,,,,,,,,,,,,,,,,,,,,,,,,,,,,74219,2022-10-27_11h18.16.087,vts_reward_expectancy_bt_OFFLINE,2022.2.4,59.89075734261679,
0,0,0,1,0,0,1,0,star,hexagon,2,0,2,0,0,1,1,11,,,,,,,,,,,,,,,,,,,,,,,,,,,,,,,,,,,,,,,,911.564479972003,911.564479972003,911.564479972003,911.564479972003,911.564479972003,911.564479972003,911.564479972003,911.564479972003,911.564479972003,911.564479972003,a,1.120591267987038,10,584,2,912.7159294020094,914.217415171006,,,,,,,,,,,,,,,,,,,,,,,,,,,,,,,,,,,,,,,,,,,,,,,,,,,,,,,,,,,,,,,,,,74219,2022-10-27_11h18.16.087,vts_reward_expectancy_bt_OFFLINE,2022.2.4,59.89075734261679,
0,1,0,0,0,0,1,0,circle,hexagon,2,0,2,0,0,2,2,4,,,,,,,,,,,,,,,,,,,,,,,,,,,,,,,,,,,,,,,,914.7179839349992,914.7179839349992,914.7179839349992,914.7179839349992,914.7179839349992,914.7179839349992,914.7179839349992,914.7179839349992,914.7179839349992,914.7179839349992,a,1.2468725319922669,1,585,2,915.9861062109994,917.4878737950057,,,,,,,,,,,,,,,,,,,,,,,,,,,,,,,,,,,,,,,,,,,,,,,,,,,,,,,,,,,,,,,,,,74219,2022-10-27_11h18.16.087,vts_reward_expectancy_bt_OFFLINE,2022.2.4,59.89075734261679,
0,0,0,1,1,0,0,0,star,triangle,2,0,2,0,0,3,3,9,,,,,,,,,,,,,,,,,,,,,,,,,,,,,,,,,,,,,,,,917.9886579250015,917.9886579250015,917.9886579250015,917.9886579250015,917.9886579250015,917.9886579250015,917.9886579250015,917.9886579250015,917.9886579250015,917.9886579250015,l,2.1763534779893234,1,586,2,920.1906949179975,921.692470259004,,,,,,,,,,,,,,,,,,,,,,,,,,,,,,,,,,,,,,,,,,,,,,,,,,,,,,,,,,,,,,,,,,74219,2022-10-27_11h18.16.087,vts_reward_expectancy_bt_OFFLINE,2022.2.4,59.89075734261679,
0,0,1,0,0,0,0,1,hexagon,star,2,0,2,0,0,4,4,8,,,,,,,,,,,,,,,,,,,,,,,,,,,,,,,,,,,,,,,,922.1928994629998,922.1928994629998,922.1928994629998,922.1928994629998,922.1928994629998,922.1928994629998,922.1928994629998,922.1928994629998,922.1928994629998,922.1928994629998,l,0.6447290899959626,10,596,2,922.8604702779994,924.3619601230021,,,,,,,,,,,,,,,,,,,,,,,,,,,,,,,,,,,,,,,,,,,,,,,,,,,,,,,,,,,,,,,,,,74219,2022-10-27_11h18.16.087,vts_reward_expectancy_bt_OFFLINE,2022.2.4,59.89075734261679,
1,0,0,0,0,1,0,0,triangle,circle,2,0,2,0,0,5,5,0,,,,,,,,,,,,,,,,,,,,,,,,,,,,,,,,,,,,,,,,924.8624928689969,924.8624928689969,924.8624928689969,924.8624928689969,924.8624928689969,924.8624928689969,924.8624928689969,924.8624928689969,924.8624928689969,924.8624928689969,l,1.336063964976347,10,606,2,926.2306235139986,927.7322718070063,,,,,,,,,,,,,,,,,,,,,,,,,,,,,,,,,,,,,,,,,,,,,,,,,,,,,,,,,,,,,,,,,,74219,2022-10-27_11h18.16.087,vts_reward_expectancy_bt_OFFLINE,2022.2.4,59.89075734261679,
0,0,0,1,0,1,0,0,star ,circle,2,0,2,0,0,6,6,10,,,,,,,,,,,,,,,,,,,,,,,,,,,,,,,,,,,,,,,,928.2329838870064,928.2329838870064,928.2329838870064,928.2329838870064,928.2329838870064,928.2329838870064,928.2329838870064,928.2329838870064,928.2329838870064,928.2329838870064,a,3.2120153149880935,10,616,2,931.4698009920103,932.9717207010108,,,,,,,,,,,,,,,,,,,,,,,,,,,,,,,,,,,,,,,,,,,,,,,,,,,,,,,,,,,,,,,,,,74219,2022-10-27_11h18.16.087,vts_reward_expectancy_bt_OFFLINE,2022.2.4,59.89075734261679,
0,1,0,0,1,0,0,0,circle,triangle,2,0,2,0,0,7,7,3,,,,,,,,,,,,,,,,,,,,,,,,,,,,,,,,,,,,,,,,933.4720470610046,933.4720470610046,933.4720470610046,933.4720470610046,933.4720470610046,933.4720470610046,933.4720470610046,933.4720470610046,933.4720470610046,933.4720470610046,l,2.7420365909929387,1,617,2,936.241924373011,937.7437269840011,,,,,,,,,,,,,,,,,,,,,,,,,,,,,,,,,,,,,,,,,,,,,,,,,,,,,,,,,,,,,,,,,,74219,2022-10-27_11h18.16.087,vts_reward_expectancy_bt_OFFLINE,2022.2.4,59.89075734261679,
0,0,1,0,1,0,0,0,hexagon,triangle,2,0,2,0,0,8,8,6,,,,,,,,,,,,,,,,,,,,,,,,,,,,,,,,,,,,,,,,938.2439062000049,938.2439062000049,938.2439062000049,938.2439062000049,938.2439062000049,938.2439062000049,938.2439062000049,938.2439062000049,938.2439062000049,938.2439062000049,l,3.970987153996248,10,627,2,942.2315809560096,943.7338035220018,,,,,,,,,,,,,,,,,,,,,,,,,,,,,,,,,,,,,,,,,,,,,,,,,,,,,,,,,,,,,,,,,,74219,2022-10-27_11h18.16.087,vts_reward_expectancy_bt_OFFLINE,2022.2.4,59.89075734261679,
0,1,0,0,0,0,0,1,circle,star,2,0,2,0,0,9,9,5,,,,,,,,,,,,,,,,,,,,,,,,,,,,,,,,,,,,,,,,944.2336781890044,944.2336781890044,944.2336781890044,944.2336781890044,944.2336781890044,944.2336781890044,944.2336781890044,944.2336781890044,944.2336781890044,944.2336781890044,l,1.2190361239772756,1,628,2,945.4852783570095,946.9869389040105,,,,,,,,,,,,,,,,,,,,,,,,,,,,,,,,,,,,,,,,,,,,,,,,,,,,,,,,,,,,,,,,,,74219,2022-10-27_11h18.16.087,vts_reward_expectancy_bt_OFFLINE,2022.2.4,59.89075734261679,
1,0,0,0,0,0,1,0,triangle,hexagon,2,0,2,0,0,10,10,1,,,,,,,,,,,,,,,,,,,,,,,,,,,,,,,,,,,,,,,,947.4875009950047,947.4875009950047,947.4875009950047,947.4875009950047,947.4875009950047,947.4875009950047,947.4875009950047,947.4875009950047,947.4875009950047,947.4875009950047,a,4.061344317990006,1,629,2,951.5755030760047,953.0770060089999,,,,,,,,,,,,,,,,,,,,,,,,,,,,,,,,,,,,,,,,,,,,,,,,,,,,,,,,,,,,,,,,,,74219,2022-10-27_11h18.16.087,vts_reward_expectancy_bt_OFFLINE,2022.2.4,59.89075734261679,
0,0,1,0,0,1,0,0,hexagon,circle,2,0,2,0,0,11,11,7,,,,,,,,,,,,,,,,,,,,,,,,,,,,,,,,,,,,,,,,953.5774459329987,953.5774459329987,953.5774459329987,953.5774459329987,953.5774459329987,953.5774459329987,953.5774459329987,953.5774459329987,953.5774459329987,953.5774459329987,l,1.0356456179870293,10,639,2,954.6453387090005,956.1470888370095,,,,,,,,,,,,,,,,,,,,,,,,,,,,,,,,,,,,,,,,,,,,,,,,,,,,,,,,,,,,,,,,,,74219,2022-10-27_11h18.16.087,vts_reward_expectancy_bt_OFFLINE,2022.2.4,59.89075734261679,
1,0,0,0,0,0,1,0,triangle,hexagon,2,0,2,0,1,0,12,1,,,,,,,,,,,,,,,,,,,,,,,,,,,,,,,,,,,,,,,,956.6474915690051,956.6474915690051,956.6474915690051,956.6474915690051,956.6474915690051,956.6474915690051,956.6474915690051,956.6474915690051,956.6474915690051,956.6474915690051,a,1.845685345993843,10,649,2,958.5163698539982,960.0178136680042,,,,,,,,,,,,,,,,,,,,,,,,,,,,,,,,,,,,,,,,,,,,,,,,,,,,,,,,,,,,,,,,,,74219,2022-10-27_11h18.16.087,vts_reward_expectancy_bt_OFFLINE,2022.2.4,59.89075734261679,
0,0,0,1,0,0,1,0,star,hexagon,2,0,2,0,1,1,13,11,,,,,,,,,,,,,,,,,,,,,,,,,,,,,,,,,,,,,,,,960.5185474470054,960.5185474470054,960.5185474470054,960.5185474470054,960.5185474470054,960.5185474470054,960.5185474470054,960.5185474470054,960.5185474470054,960.5185474470054,a,1.2074975579889724,10,659,2,961.7533312960004,963.2549376469979,,,,,,,,,,,,,,,,,,,,,,,,,,,,,,,,,,,,,,,,,,,,,,,,,,,,,,,,,,,,,,,,,,74219,2022-10-27_11h18.16.087,vts_reward_expectancy_bt_OFFLINE,2022.2.4,59.89075734261679,
0,0,0,1,0,1,0,0,star ,circle,2,0,2,0,1,2,14,10,,,,,,,,,,,,,,,,,,,,,,,,,,,,,,,,,,,,,,,,963.7556449460099,963.7556449460099,963.7556449460099,963.7556449460099,963.7556449460099,963.7556449460099,963.7556449460099,963.7556449460099,963.7556449460099,963.7556449460099,l,1.2420354329951806,10,669,2,965.0236752810015,966.5252405780047,,,,,,,,,,,,,,,,,,,,,,,,,,,,,,,,,,,,,,,,,,,,,,,,,,,,,,,,,,,,,,,,,,74219,2022-10-27_11h18.16.087,vts_reward_expectancy_bt_OFFLINE,2022.2.4,59.89075734261679,
1,0,0,0,0,1,0,0,triangle,circle,2,0,2,0,1,3,15,0,,,,,,,,,,,,,,,,,,,,,,,,,,,,,,,,,,,,,,,,967.025770556007,967.025770556007,967.025770556007,967.025770556007,967.025770556007,967.025770556007,967.025770556007,967.025770556007,967.025770556007,967.025770556007,l,1.2602223869907903,10,679,2,968.3105817589967,969.8120753780095,,,,,,,,,,,,,,,,,,,,,,,,,,,,,,,,,,,,,,,,,,,,,,,,,,,,,,,,,,,,,,,,,,74219,2022-10-27_11h18.16.087,vts_reward_expectancy_bt_OFFLINE,2022.2.4,59.89075734261679,
0,1,0,0,1,0,0,0,circle,triangle,2,0,2,0,1,4,16,3,,,,,,,,,,,,,,,,,,,,,,,,,,,,,,,,,,,,,,,,970.3130378070055,970.3130378070055,970.3130378070055,970.3130378070055,970.3130378070055,970.3130378070055,970.3130378070055,970.3130378070055,970.3130378070055,970.3130378070055,a,0.7242996179993497,10,689,2,971.063763336002,972.5652266250108,,,,,,,,,,,,,,,,,,,,,,,,,,,,,,,,,,,,,,,,,,,,,,,,,,,,,,,,,,,,,,,,,,74219,2022-10-27_11h18.16.087,vts_reward_expectancy_bt_OFFLINE,2022.2.4,59.89075734261679,
0,1,0,0,0,0,1,0,circle,hexagon,2,0,2,0,1,5,17,4,,,,,,,,,,,,,,,,,,,,,,,,,,,,,,,,,,,,,,,,973.0658653069986,973.0658653069986,973.0658653069986,973.0658653069986,973.0658653069986,973.0658653069986,973.0658653069986,973.0658653069986,973.0658653069986,973.0658653069986,l,1.285125361988321,1,690,2,974.3673152160045,975.8689342240104,975.8689342240104,,,,,,,,,,,,,,,,,,,,,,,,,,,,,,,,,,,,,,,,,,,,,,,,,,,,,,,,,,,,,,,,,74219,2022-10-27_11h18.16.087,vts_reward_expectancy_bt_OFFLINE,2022.2.4,59.89075734261679,
0,0,1,0,0,1,0,0,hexagon,circle,2,0,2,0,1,6,18,7,,,,,,,,,,,,,,,,,,,,,,,,,,,,,,,,,,,,,,,,976.3693253810052,976.3693253810052,976.3693253810052,976.3693253810052,976.3693253810052,976.3693253810052,976.3693253810052,976.3693253810052,976.3693253810052,976.3693253810052,l,0.7075722869922174,10,700,2,977.1034536570078,978.605507722008,,,,,,,,,,,,,,,,,,,,,,,,,,,,,,,,,,,,,,,,,,,,,,,,,,,,,,,,,,,,,,,,,,74219,2022-10-27_11h18.16.087,vts_reward_expectancy_bt_OFFLINE,2022.2.4,59.89075734261679,
0,0,0,1,1,0,0,0,star,triangle,2,0,2,0,1,7,19,9,,,,,,,,,,,,,,,,,,,,,,,,,,,,,,,,,,,,,,,,979.1055511919985,979.1055511919985,979.1055511919985,979.1055511919985,979.1055511919985,979.1055511919985,979.1055511919985,979.1055511919985,979.1055511919985,979.1055511919985,a,2.269414793991018,10,710,2,981.391562978999,982.8932014020102,,,,,,,,,,,,,,,,,,,,,,,,,,,,,,,,,,,,,,,,,,,,,,,,,,,,,,,,,,,,,,,,,,74219,2022-10-27_11h18.16.087,vts_reward_expectancy_bt_OFFLINE,2022.2.4,59.89075734261679,
0,0,1,0,1,0,0,0,hexagon,triangle,2,0,2,0,1,8,20,6,,,,,,,,,,,,,,,,,,,,,,,,,,,,,,,,,,,,,,,,983.393902803,983.393902803,983.393902803,983.393902803,983.393902803,983.393902803,983.393902803,983.393902803,983.393902803,983.393902803,l,4.205601207984728,1,711,2,987.6316939320095,989.1333446130011,,,,,,,,,,,,,,,,,,,,,,,,,,,,,,,,,,,,,,,,,,,,,,,,,,,,,,,,,,,,,,,,,,74219,2022-10-27_11h18.16.087,vts_reward_expectancy_bt_OFFLINE,2022.2.4,59.89075734261679,
1,0,0,0,0,0,0,1,triangle,star,2,0,2,0,1,9,21,2,,,,,,,,,,,,,,,,,,,,,,,,,,,,,,,,,,,,,,,,989.6338929729973,989.6338929729973,989.6338929729973,989.6338929729973,989.6338929729973,989.6338929729973,989.6338929729973,989.6338929729973,989.6338929729973,989.6338929729973,a,1.9244094249879709,1,712,2,991.586128504001,993.0877742739976,,,,,,,,,,,,,,,,,,,,,,,,,,,,,,,,,,,,,,,,,,,,,,,,,,,,,,,,,,,,,,,,,,74219,2022-10-27_11h18.16.087,vts_reward_expectancy_bt_OFFLINE,2022.2.4,59.89075734261679,
0,0,1,0,0,0,0,1,hexagon,star,2,0,2,0,1,10,22,8,,,,,,,,,,,,,,,,,,,,,,,,,,,,,,,,,,,,,,,,993.5883272089995,993.5883272089995,993.5883272089995,993.5883272089995,993.5883272089995,993.5883272089995,993.5883272089995,993.5883272089995,993.5883272089995,993.5883272089995,l,0.7059344329900341,10,722,2,994.3227617759985,995.8241269920109,,,,,,,,,,,,,,,,,,,,,,,,,,,,,,,,,,,,,,,,,,,,,,,,,,,,,,,,,,,,,,,,,,74219,2022-10-27_11h18.16.087,vts_reward_expectancy_bt_OFFLINE,2022.2.4,59.89075734261679,
0,1,0,0,0,0,0,1,circle,star,2,0,2,0,1,11,23,5,,,,,,,,,,,,,,,,,,,,,,,,,,,,,,,,,,,,,,,,996.3245386140043,996.3245386140043,996.3245386140043,996.3245386140043,996.3245386140043,996.3245386140043,996.3245386140043,996.3245386140043,996.3245386140043,996.3245386140043,l,3.0650066879898077,10,732,2,999.4112646300055,1000.9130447119969,,,,,,,,,,,,,,,,,,,,,,,,,,,,,,,,,,,,,,,,,,,,,,,,,,,,,,,,,,,,,,,,,,74219,2022-10-27_11h18.16.087,vts_reward_expectancy_bt_OFFLINE,2022.2.4,59.89075734261679,
0,0,1,0,0,0,0,1,hexagon,star,2,0,2,0,2,0,24,8,,,,,,,,,,,,,,,,,,,,,,,,,,,,,,,,,,,,,,,,1001.4136114400026,1001.4136114400026,1001.4136114400026,1001.4136114400026,1001.4136114400026,1001.4136114400026,1001.4136114400026,1001.4136114400026,1001.4136114400026,1001.4136114400026,l,1.695592221993138,1,733,2,1003.1321317920083,1004.6338351290033,,,,,,,,,,,,,,,,,,,,,,,,,,,,,,,,,,,,,,,,,,,,,,,,,,,,,,,,,,,,,,,,,,74219,2022-10-27_11h18.16.087,vts_reward_expectancy_bt_OFFLINE,2022.2.4,59.89075734261679,
0,1,0,0,1,0,0,0,circle,triangle,2,0,2,0,2,1,25,3,,,,,,,,,,,,,,,,,,,,,,,,,,,,,,,,,,,,,,,,1005.1344383810065,1005.1344383810065,1005.1344383810065,1005.1344383810065,1005.1344383810065,1005.1344383810065,1005.1344383810065,1005.1344383810065,1005.1344383810065,1005.1344383810065,a,4.910913717991207,10,743,2,1010.0729971730034,1011.5748988510022,,,,,,,,,,,,,,,,,,,,,,,,,,,,,,,,,,,,,,,,,,,,,,,,,,,,,,,,,,,,,,,,,,74219,2022-10-27_11h18.16.087,vts_reward_expectancy_bt_OFFLINE,2022.2.4,59.89075734261679,
0,1,0,0,0,0,0,1,circle,star,2,0,2,0,2,2,26,5,,,,,,,,,,,,,,,,,,,,,,,,,,,,,,,,,,,,,,,,1012.0753013650101,1012.0753013650101,1012.0753013650101,1012.0753013650101,1012.0753013650101,1012.0753013650101,1012.0753013650101,1012.0753013650101,1012.0753013650101,1012.0753013650101,l,1.665910386989708,10,753,2,1013.7605399830063,1015.2623865830101,,,,,,,,,,,,,,,,,,,,,,,,,,,,,,,,,,,,,,,,,,,,,,,,,,,,,,,,,,,,,,,,,,74219,2022-10-27_11h18.16.087,vts_reward_expectancy_bt_OFFLINE,2022.2.4,59.89075734261679,
0,0,1,0,0,1,0,0,hexagon,circle,2,0,2,0,2,3,27,7,,,,,,,,,,,,,,,,,,,,,,,,,,,,,,,,,,,,,,,,1015.7629495889996,1015.7629495889996,1015.7629495889996,1015.7629495889996,1015.7629495889996,1015.7629495889996,1015.7629495889996,1015.7629495889996,1015.7629495889996,1015.7629495889996,l,2.5950175229954766,10,763,2,1018.3825011930021,1019.8841371450108,,,,,,,,,,,,,,,,,,,,,,,,,,,,,,,,,,,,,,,,,,,,,,,,,,,,,,,,,,,,,,,,,,74219,2022-10-27_11h18.16.087,vts_reward_expectancy_bt_OFFLINE,2022.2.4,59.89075734261679,
1,0,0,0,0,1,0,0,triangle,circle,2,0,2,0,2,4,28,0,,,,,,,,,,,,,,,,,,,,,,,,,,,,,,,,,,,,,,,,1020.384561511004,1020.384561511004,1020.384561511004,1020.384561511004,1020.384561511004,1020.384561511004,1020.384561511004,1020.384561511004,1020.384561511004,1020.384561511004,l,1.8283483199920738,10,773,2,1022.2366679190018,1023.7381902510097,,,,,,,,,,,,,,,,,,,,,,,,,,,,,,,,,,,,,,,,,,,,,,,,,,,,,,,,,,,,,,,,,,74219,2022-10-27_11h18.16.087,vts_reward_expectancy_bt_OFFLINE,2022.2.4,59.89075734261679,
1,0,0,0,0,0,1,0,triangle,hexagon,2,0,2,0,2,5,29,1,,,,,,,,,,,,,,,,,,,,,,,,,,,,,,,,,,,,,,,,1024.2388638630073,1024.2388638630073,1024.2388638630073,1024.2388638630073,1024.2388638630073,1024.2388638630073,1024.2388638630073,1024.2388638630073,1024.2388638630073,1024.2388638630073,a,4.326956346994848,1,774,2,1028.5937524480105,1030.0954761629982,,,,,,,,,,,,,,,,,,,,,,,,,,,,,,,,,,,,,,,,,,,,,,,,,,,,,,,,,,,,,,,,,,74219,2022-10-27_11h18.16.087,vts_reward_expectancy_bt_OFFLINE,2022.2.4,59.89075734261679,
1,0,0,0,0,0,0,1,triangle,star,2,0,2,0,2,6,30,2,,,,,,,,,,,,,,,,,,,,,,,,,,,,,,,,,,,,,,,,1030.5959555500012,1030.5959555500012,1030.5959555500012,1030.5959555500012,1030.5959555500012,1030.5959555500012,1030.5959555500012,1030.5959555500012,1030.5959555500012,1030.5959555500012,l,1.1769330559909577,10,784,2,1031.7972864250041,1033.2988116250053,,,,,,,,,,,,,,,,,,,,,,,,,,,,,,,,,,,,,,,,,,,,,,,,,,,,,,,,,,,,,,,,,,74219,2022-10-27_11h18.16.087,vts_reward_expectancy_bt_OFFLINE,2022.2.4,59.89075734261679,
0,1,0,0,0,0,1,0,circle,hexagon,2,0,2,0,2,7,31,4,,,,,,,,,,,,,,,,,,,,,,,,,,,,,,,,,,,,,,,,1033.799436472007,1033.799436472007,1033.799436472007,1033.799436472007,1033.799436472007,1033.799436472007,1033.799436472007,1033.799436472007,1033.799436472007,1033.799436472007,a,1.2457032239908585,10,794,2,1035.0675582280091,1036.569119109001,,,,,,,,,,,,,,,,,,,,,,,,,,,,,,,,,,,,,,,,,,,,,,,,,,,,,,,,,,,,,,,,,,74219,2022-10-27_11h18.16.087,vts_reward_expectancy_bt_OFFLINE,2022.2.4,59.89075734261679,
0,0,0,1,1,0,0,0,star,triangle,2,0,2,0,2,8,32,9,,,,,,,,,,,,,,,,,,,,,,,,,,,,,,,,,,,,,,,,1037.0697653469979,1037.0697653469979,1037.0697653469979,1037.0697653469979,1037.0697653469979,1037.0697653469979,1037.0697653469979,1037.0697653469979,1037.0697653469979,1037.0697653469979,l,1.2016291079926305,1,795,2,1038.2876031100022,1039.7894875850034,,,,,,,,,,,,,,,,,,,,,,,,,,,,,,,,,,,,,,,,,,,,,,,,,,,,,,,,,,,,,,,,,,74219,2022-10-27_11h18.16.087,vts_reward_expectancy_bt_OFFLINE,2022.2.4,59.89075734261679,
0,0,0,1,0,0,1,0,star,hexagon,2,0,2,0,2,9,33,11,,,,,,,,,,,,,,,,,,,,,,,,,,,,,,,,,,,,,,,,1040.2897264019994,1040.2897264019994,1040.2897264019994,1040.2897264019994,1040.2897264019994,1040.2897264019994,1040.2897264019994,1040.2897264019994,1040.2897264019994,1040.2897264019994,l,1.5159265469847014,10,805,2,1041.825119975998,1043.3264842780045,,,,,,,,,,,,,,,,,,,,,,,,,,,,,,,,,,,,,,,,,,,,,,,,,,,,,,,,,,,,,,,,,,74219,2022-10-27_11h18.16.087,vts_reward_expectancy_bt_OFFLINE,2022.2.4,59.89075734261679,
0,0,0,1,0,1,0,0,star ,circle,2,0,2,0,2,10,34,10,,,,,,,,,,,,,,,,,,,,,,,,,,,,,,,,,,,,,,,,1043.8271568990021,1043.8271568990021,1043.8271568990021,1043.8271568990021,1043.8271568990021,1043.8271568990021,1043.8271568990021,1043.8271568990021,1043.8271568990021,1043.8271568990021,a,2.219660753995413,10,815,2,1046.062840077997,1047.5644340349972,1047.5644340349972,,,,,,,,,,,,,,,,,,,,,,,,,,,,,,,,,,,,,,,,,,,,,,,,,,,,,,,,,,,,,,,,,74219,2022-10-27_11h18.16.087,vts_reward_expectancy_bt_OFFLINE,2022.2.4,59.89075734261679,
0,0,1,0,1,0,0,0,hexagon,triangle,2,0,2,0,2,11,35,6,,,,,,,,,,,,,,,,,,,,,,,,,,,,,,,,,,,,,,,,1048.0652503770107,1048.0652503770107,1048.0652503770107,1048.0652503770107,1048.0652503770107,1048.0652503770107,1048.0652503770107,1048.0652503770107,1048.0652503770107,1048.0652503770107,l,1.7482156239857432,1,816,2,1049.8336212930008,1051.3353466929984,,,,,,,,,,,,,,,,,,,,,,,,,,,,,,,,,,,,,,,,,,,,,,,,,,,,,,,,,,,,,,,,,,74219,2022-10-27_11h18.16.087,vts_reward_expectancy_bt_OFFLINE,2022.2.4,59.89075734261679,
1,0,0,0,0,0,1,0,triangle,hexagon,2,0,2,0,3,0,36,1,,,,,,,,,,,,,,,,,,,,,,,,,,,,,,,,,,,,,,,,1051.8358022169996,1051.8358022169996,1051.8358022169996,1051.8358022169996,1051.8358022169996,1051.8358022169996,1051.8358022169996,1051.8358022169996,1051.8358022169996,1051.8358022169996,a,1.2971608599909814,1,817,2,1053.154010776998,1054.6557258810062,,,,,,,,,,,,,,,,,,,,,,,,,,,,,,,,,,,,,,,,,,,,,,,,,,,,,,,,,,,,,,,,,,74219,2022-10-27_11h18.16.087,vts_reward_expectancy_bt_OFFLINE,2022.2.4,59.89075734261679,
1,0,0,0,0,0,0,1,triangle,star,2,0,2,0,3,1,37,2,,,,,,,,,,,,,,,,,,,,,,,,,,,,,,,,,,,,,,,,1055.1563625359995,1055.1563625359995,1055.1563625359995,1055.1563625359995,1055.1563625359995,1055.1563625359995,1055.1563625359995,1055.1563625359995,1055.1563625359995,1055.1563625359995,l,2.488789907976752,1,818,2,1057.6757537329977,1059.177401273002,,,,,,,,,,,,,,,,,,,,,,,,,,,,,,,,,,,,,,,,,,,,,,,,,,,,,,,,,,,,,,,,,,74219,2022-10-27_11h18.16.087,vts_reward_expectancy_bt_OFFLINE,2022.2.4,59.89075734261679,
0,0,1,0,0,1,0,0,hexagon,circle,2,0,2,0,3,2,38,7,,,,,,,,,,,,,,,,,,,,,,,,,,,,,,,,,,,,,,,,1059.6781914010062,1059.6781914010062,1059.6781914010062,1059.6781914010062,1059.6781914010062,1059.6781914010062,1059.6781914010062,1059.6781914010062,1059.6781914010062,1059.6781914010062,l,2.1526257209916366,10,828,2,1061.8470526360034,1063.348493166006,1063.348493166006,,,,,,,,,,,,,,,,,,,,,,,,,,,,,,,,,,,,,,,,,,,,,,,,,,,,,,,,,,,,,,,,,74219,2022-10-27_11h18.16.087,vts_reward_expectancy_bt_OFFLINE,2022.2.4,59.89075734261679,
0,0,0,1,0,1,0,0,star ,circle,2,0,2,0,3,3,39,10,,,,,,,,,,,,,,,,,,,,,,,,,,,,,,,,,,,,,,,,1063.8494813870057,1063.8494813870057,1063.8494813870057,1063.8494813870057,1063.8494813870057,1063.8494813870057,1063.8494813870057,1063.8494813870057,1063.8494813870057,1063.8494813870057,l,1.5719729669945082,10,838,2,1065.4510514690046,1066.952655194007,,,,,,,,,,,,,,,,,,,,,,,,,,,,,,,,,,,,,,,,,,,,,,,,,,,,,,,,,,,,,,,,,,74219,2022-10-27_11h18.16.087,vts_reward_expectancy_bt_OFFLINE,2022.2.4,59.89075734261679,
0,0,1,0,0,0,0,1,hexagon,star,2,0,2,0,3,4,40,8,,,,,,,,,,,,,,,,,,,,,,,,,,,,,,,,,,,,,,,,1067.4536930390022,1067.4536930390022,1067.4536930390022,1067.4536930390022,1067.4536930390022,1067.4536930390022,1067.4536930390022,1067.4536930390022,1067.4536930390022,1067.4536930390022,l,0.8961784139974043,10,848,2,1068.3711519780045,1069.8725595020078,,,,,,,,,,,,,,,,,,,,,,,,,,,,,,,,,,,,,,,,,,,,,,,,,,,,,,,,,,,,,,,,,,74219,2022-10-27_11h18.16.087,vts_reward_expectancy_bt_OFFLINE,2022.2.4,59.89075734261679,
0,1,0,0,1,0,0,0,circle,triangle,2,0,2,0,3,5,41,3,,,,,,,,,,,,,,,,,,,,,,,,,,,,,,,,,,,,,,,,1070.3731192959967,1070.3731192959967,1070.3731192959967,1070.3731192959967,1070.3731192959967,1070.3731192959967,1070.3731192959967,1070.3731192959967,1070.3731192959967,1070.3731192959967,l,1.969518578989664,1,849,2,1072.3751494340104,1073.8770851470035,,,,,,,,,,,,,,,,,,,,,,,,,,,,,,,,,,,,,,,,,,,,,,,,,,,,,,,,,,,,,,,,,,74219,2022-10-27_11h18.16.087,vts_reward_expectancy_bt_OFFLINE,2022.2.4,59.89075734261679,
0,1,0,0,0,0,1,0,circle,hexagon,2,0,2,0,3,6,42,4,,,,,,,,,,,,,,,,,,,,,,,,,,,,,,,,,,,,,,,,1074.3773572439968,1074.3773572439968,1074.3773572439968,1074.3773572439968,1074.3773572439968,1074.3773572439968,1074.3773572439968,1074.3773572439968,1074.3773572439968,1074.3773572439968,a,1.0118741679907544,10,859,2,1075.4118061769987,1076.913502142008,,,,,,,,,,,,,,,,,,,,,,,,,,,,,,,,,,,,,,,,,,,,,,,,,,,,,,,,,,,,,,,,,,74219,2022-10-27_11h18.16.087,vts_reward_expectancy_bt_OFFLINE,2022.2.4,59.89075734261679,
0,0,0,1,1,0,0,0,star,triangle,2,0,2,0,3,7,43,9,,,,,,,,,,,,,,,,,,,,,,,,,,,,,,,,,,,,,,,,1077.414203237,1077.414203237,1077.414203237,1077.414203237,1077.414203237,1077.414203237,1077.414203237,1077.414203237,1077.414203237,1077.414203237,l,2.3749639429879608,1,860,2,1079.8168069759995,1081.3186033600068,,,,,,,,,,,,,,,,,,,,,,,,,,,,,,,,,,,,,,,,,,,,,,,,,,,,,,,,,,,,,,,,,,74219,2022-10-27_11h18.16.087,vts_reward_expectancy_bt_OFFLINE,2022.2.4,59.89075734261679,
0,0,0,1,0,0,1,0,star,hexagon,2,0,2,0,3,8,44,11,,,,,,,,,,,,,,,,,,,,,,,,,,,,,,,,,,,,,,,,1081.8189590880065,1081.8189590880065,1081.8189590880065,1081.8189590880065,1081.8189590880065,1081.8189590880065,1081.8189590880065,1081.8189590880065,1081.8189590880065,1081.8189590880065,a,0.8424077629897511,10,870,2,1082.686432418006,1084.1882894700102,,,,,,,,,,,,,,,,,,,,,,,,,,,,,,,,,,,,,,,,,,,,,,,,,,,,,,,,,,,,,,,,,,74219,2022-10-27_11h18.16.087,vts_reward_expectancy_bt_OFFLINE,2022.2.4,59.89075734261679,
0,1,0,0,0,0,0,1,circle,star,2,0,2,0,3,9,45,5,,,,,,,,,,,,,,,,,,,,,,,,,,,,,,,,,,,,,,,,1084.6892630840011,1084.6892630840011,1084.6892630840011,1084.6892630840011,1084.6892630840011,1084.6892630840011,1084.6892630840011,1084.6892630840011,1084.6892630840011,1084.6892630840011,l,2.212516819985467,1,871,2,1086.9245545739977,1088.4263213710074,,,,,,,,,,,,,,,,,,,,,,,,,,,,,,,,,,,,,,,,,,,,,,,,,,,,,,,,,,,,,,,,,,74219,2022-10-27_11h18.16.087,vts_reward_expectancy_bt_OFFLINE,2022.2.4,59.89075734261679,
0,0,1,0,1,0,0,0,hexagon,triangle,2,0,2,0,3,10,46,6,,,,,,,,,,,,,,,,,,,,,,,,,,,,,,,,,,,,,,,,1088.926829325006,1088.926829325006,1088.926829325006,1088.926829325006,1088.926829325006,1088.926829325006,1088.926829325006,1088.926829325006,1088.926829325006,1088.926829325006,l,1.943142167001497,1,872,2,1090.8965597409988,1092.3973367430008,,,,,,,,,,,,,,,,,,,,,,,,,,,,,,,,,,,,,,,,,,,,,,,,,,,,,,,,,,,,,,,,,,74219,2022-10-27_11h18.16.087,vts_reward_expectancy_bt_OFFLINE,2022.2.4,59.89075734261679,
1,0,0,0,0,1,0,0,triangle,circle,2,0,2,0,3,11,47,0,,,,,,,,,,,,,,,,,,,,,,,,,,,,,,,,,,,,,,,,1092.8983350790077,1092.8983350790077,1092.8983350790077,1092.8983350790077,1092.8983350790077,1092.8983350790077,1092.8983350790077,1092.8983350790077,1092.8983350790077,1092.8983350790077,l,1.1004283879883587,10,882,2,1094.0157453870052,1095.5174321910017,,,,,,,,,,,,,,,,,,,,,,,,,,,,,,,,,,,,,,,,,,,,,,,,,,,,,,,,,,,,,,,,,,74219,2022-10-27_11h18.16.087,vts_reward_expectancy_bt_OFFLINE,2022.2.4,59.89075734261679,
,,,,,,,,,,,,,,,,,,0,0,0,0,0,0,0,0,,,,,,,,,,,,,,,,,,,,,,,,,,,,,,,,,,,,,,,,,,,,,,,,1126.351452325005,,146,S,triangle,0.0024327559949597344,1121.6583039670077,1123.164582537007,1123.164582537007,1123.164582537007,1,0,d,1.6651478999847313,0,1124.8499949940015,,,,,,,,,,,,,,,,,,,,,,,,,,,,,,,,,,,,,,,,,,,,,,,,,,,74219,2022-10-27_11h18.16.087,vts_reward_expectancy_bt_OFFLINE,2022.2.4,59.89075734261679,
,,,,,,,,,,,,,,,,,,0,0,0,0,1,0,1,0,,,,,,,,,,,,,,,,,,,,,,,,,,,,,,,,,,,,,,,,,,,,,,,,1131.3902428750007,,125,F,circle,0.0016865609941305593,1127.3305207230005,1128.8374550820008,1128.8374550820008,1128.8374550820008,1,0,d,1.0324055019882508,0,1129.8887249600084,,,,,,,,,,,,,,,,,,,,,,,,,,,,,,,,,,,,,,,,,,,,,,,,,,,74219,2022-10-27_11h18.16.087,vts_reward_expectancy_bt_OFFLINE,2022.2.4,59.89075734261679,
,,,,,,,,,,,,,,,,,,0,0,0,0,2,0,2,0,,,,,,,,,,,,,,,,,,,,,,,,,,,,,,,,,,,,,,,,,,,,,,,,1136.2124863659992,,174,H,star,0.0011558280093595386,1132.369949658998,1133.8765356910008,1133.8765356910008,1133.8765356910008,1,0,f,0.8019917049969081,0,1134.710621256003,,,,,,,,,,,,,,,,,,,,,,,,,,,,,,,,,,,,,,,,,,,,,,,,,,,74219,2022-10-27_11h18.16.087,vts_reward_expectancy_bt_OFFLINE,2022.2.4,59.89075734261679,
,,,,,,,,,,,,,,,,,,0,0,0,0,3,0,3,0,,,,,,,,,,,,,,,,,,,,,,,,,,,,,,,,,,,,,,,,,,,,,,,,1141.2344211330055,,181,U,hexagon,0.0014923630078556016,1137.1914271590067,1138.6984980280104,1138.6984980280104,1138.6984980280104,1,0,f,1.0113956189888995,0,1139.732983873997,,,,,,,,,,,,,,,,,,,,,,,,,,,,,,,,,,,,,,,,,,,,,,,,,,,74219,2022-10-27_11h18.16.087,vts_reward_expectancy_bt_OFFLINE,2022.2.4,59.89075734261679,
,,,,,,,,,,,,,,,,,,0,0,0,0,4,0,4,0,,,,,,,,,,,,,,,,,,,,,,,,,,,,,,,,,,,,,,,,,,,,,,,,1146.2401731360005,,160,D,circle,0.0016582979878876358,1142.2127655119984,1143.7205722500075,1143.7205722500075,1143.7205722500075,1,0,f,0.9895457379898289,0,1144.7383606420044,,,,,,,,,,,,,,,,,,,,,,,,,,,,,,,,,,,,,,,,,,,,,,,,,,,74219,2022-10-27_11h18.16.087,vts_reward_expectancy_bt_OFFLINE,2022.2.4,59.89075734261679,
,,,,,,,,,,,,,,,,,,0,0,0,0,5,0,5,0,,,,,,,,,,,,,,,,,,,,,,,,,,,,,,,,,,,,,,,,,,,,,,,,1151.3289928879967,,139,W,hexagon,0.001072138999006711,1147.2196761829982,1148.7262460830098,1148.7262460830098,1148.7262460830098,1,0,d,1.0791986319964053,0,1149.8275550420076,,,,,,,,,,,,,,,,,,,,,,,,,,,,,,,,,,,,,,,,,,,,,,,,,,,74219,2022-10-27_11h18.16.087,vts_reward_expectancy_bt_OFFLINE,2022.2.4,59.89075734261679,
,,,,,,,,,,,,,,,,,,0,0,0,0,6,0,6,0,,,,,,,,,,,,,,,,,,,,,,,,,,,,,,,,,,,,,,,,,,,,,,,,1156.199615245001,,132,B,triangle,0.0016332819941453636,1152.3064091240085,1153.8150679320097,1153.8150679320097,1153.8150679320097,1,0,d,0.8621811829798389,0,1154.6995410590025,1156.199615245001,1156.700437779,,,,,,,,,,,,,,,,,,,,,,,,,,,,,,,,,,,,,,,,,,,,,,,,,74219,2022-10-27_11h18.16.087,vts_reward_expectancy_bt_OFFLINE,2022.2.4,59.89075734261679,
,,,,,,,,,,,,,,,,,,0,0,0,0,7,0,7,0,,,,,,,,,,,,,,,,,,,,,,,,,,,,,,,,,,,,,,,,,,,,,,,,1160.972989521004,,167,Y,star,0.0013511720026144758,1157.1782911920018,1158.686998368008,1158.686998368008,1158.686998368008,1,0,f,0.7680112489906605,0,1159.4712667010026,,,,,,,,,,,,,,,,,,,,,,,,,,,,,,,,,,,,,,,,,,,,,,,,,,,74219,2022-10-27_11h18.16.087,vts_reward_expectancy_bt_OFFLINE,2022.2.4,59.89075734261679,
,,,,,,,,,,,,,,,,,,0,0,0,0,8,0,8,0,,,,,,,,,,,,,,,,,,,,,,,,,,,,,,,,,,,,,,,,,,,,,,,,1165.6781351340032,,146,S,hexagon,0.0008578050037613139,1161.949770072999,1163.4590810320078,1163.4590810320078,1163.4590810320078,1,0,d,0.6903699999966193,0,1164.176501553011,,,,,,,,,,,,,,,,,,,,,,,,,,,,,,,,,,,,,,,,,,,,,,,,,,,74219,2022-10-27_11h18.16.087,vts_reward_expectancy_bt_OFFLINE,2022.2.4,59.89075734261679,
,,,,,,,,,,,,,,,,,,0,0,0,0,9,0,9,0,,,,,,,,,,,,,,,,,,,,,,,,,,,,,,,,,,,,,,,,,,,,,,,,1170.3332382200024,,125,F,triangle,0.00206093599263113,1166.6558604330057,1168.1643208239984,1168.1643208239984,1168.1643208239984,1,0,d,0.6407036039890954,0,1168.831573648,,,,,,,,,,,,,,,,,,,,,,,,,,,,,,,,,,,,,,,,,,,,,,,,,,,74219,2022-10-27_11h18.16.087,vts_reward_expectancy_bt_OFFLINE,2022.2.4,59.89075734261679,
,,,,,,,,,,,,,,,,,,,,,,,,,,0,0,0,0,0,0,0,0,,,,,,,,,,,,,,,,,,,,,,,,,,,,,,,,,,,,,,,,1196.3785987390002,,181,U,triangle,0.002157323993742466,,,,,1,0,,,1,1194.877127328,,,1190.800350206002,1192.307532263003,1192.307532263003,1192.307532263003,k,2.546421275998,,,,,,,,,,,,,,,,,,,,,,,,,,,,,,,,,,,,,,,,,,,74219,2022-10-27_11h18.16.087,vts_reward_expectancy_bt_OFFLINE,2022.2.4,59.89075734261679,
,,,,,,,,,,,,,,,,,,,,,,,,,,0,0,0,0,1,0,1,0,,,,,,,,,,,,,,,,,,,,,,,,,,,,,,,,,,,,,,,,1201.3844509230112,,167,S,star,0.001367154996842146,,,,,1,0,,,1,1199.882655406007,,,1197.3565360290086,1198.8651059859985,1198.8651059859985,1198.8651059859985,k,0.9895493469957728,,,,,,,,,,,,,,,,,,,,,,,,,,,,,,,,,,,,,,,,,,,74219,2022-10-27_11h18.16.087,vts_reward_expectancy_bt_OFFLINE,2022.2.4,59.89075734261679,
,,,,,,,,,,,,,,,,,,,,,,,,,,0,0,0,0,2,0,2,0,,,,,,,,,,,,,,,,,,,,,,,,,,,,,,,,,,,,,,,,1206.1393828419968,,132,Y,hexagon,0.0013329859939403832,,,,,1,0,,,1,1204.637896676999,,,1202.362326101007,1203.8703848190053,1203.8703848190053,1203.8703848190053,k,0.7351468719862169,,,,,,,,,,,,,,,,,,,,,,,,,,,,,,,,,,,,,,,,,,,74219,2022-10-27_11h18.16.087,vts_reward_expectancy_bt_OFFLINE,2022.2.4,59.89075734261679,
,,,,,,,,,,,,,,,,,,,,,,,,,,0,0,0,0,3,0,3,0,,,,,,,,,,,,,,,,,,,,,,,,,,,,,,,,,,,,,,,,1211.0280683570018,,125,D,circle,0.0017501429974799976,,,,,1,0,,,1,1209.5267565060058,,,1207.1169209619984,1208.6256230400031,1208.6256230400031,1208.6256230400031,j,0.8752627639914863,,,,,,,,,,,,,,,,,,,,,,,,,,,,,,,,,,,,,,,,,,,74219,2022-10-27_11h18.16.087,vts_reward_expectancy_bt_OFFLINE,2022.2.4,59.89075734261679,
,,,,,,,,,,,,,,,,,,,,,,,,,,0,0,0,0,4,0,4,0,,,,,,,,,,,,,,,,,,,,,,,,,,,,,,,,,,,,,,,,1216.033730547002,,146,W,triangle,0.0016876040026545525,,,,,1,0,,,1,1214.5320060420054,,,1212.0059757550043,1213.514373501006,1213.514373501006,1213.514373501006,k,0.994753918988863,,,,,,,,,,,,,,,,,,,,,,,,,,,,,,,,,,,,,,,,,,,74219,2022-10-27_11h18.16.087,vts_reward_expectancy_bt_OFFLINE,2022.2.4,59.89075734261679,
,,,,,,,,,,,,,,,,,,,,,,,,,,0,0,0,0,5,0,5,0,,,,,,,,,,,,,,,,,,,,,,,,,,,,,,,,,,,,,,,,1220.7224044660106,,139,B,hexagon,0.0015456090040970594,,,,,1,0,,,1,1219.2205451030022,,,1217.010802830002,1218.5198388510034,1218.5198388510034,1218.5198388510034,j,0.6697451749932952,,,,,,,,,,,,,,,,,,,,,,,,,,,,,,,,,,,,,,,,,,,74219,2022-10-27_11h18.16.087,vts_reward_expectancy_bt_OFFLINE,2022.2.4,59.89075734261679,
,,,,,,,,,,,,,,,,,,,,,,,,,,0,0,0,0,6,0,6,0,,,,,,,,,,,,,,,,,,,,,,,,,,,,,,,,,,,,,,,,1225.8444885909994,,160,F,star,0.0019065839878749102,,,,,1,0,,,1,1224.3432030060067,,,1221.7009777380008,1223.2086070369987,1223.2086070369987,1223.2086070369987,j,1.1019791279832134,,,,,,,,,,,,,,,,,,,,,,,,,,,,,,,,,,,,,,,,,,,74219,2022-10-27_11h18.16.087,vts_reward_expectancy_bt_OFFLINE,2022.2.4,59.89075734261679,
,,,,,,,,,,,,,,,,,,,,,,,,,,0,0,0,0,7,0,7,0,,,,,,,,,,,,,,,,,,,,,,,,,,,,,,,,,,,,,,,,1230.8167101730069,,174,H,circle,0.0018452040094416589,,,,,1,0,,,1,1229.3150366769987,,,1226.8221557130018,1228.3354150119994,1228.3354150119994,1228.3354150119994,j,0.9508292449900182,,,,,,,,,,,,,,,,,,,,,,,,,,,,,,,,,,,,,,,,,,,74219,2022-10-27_11h18.16.087,vts_reward_expectancy_bt_OFFLINE,2022.2.4,59.89075734261679,
,,,,,,,,,,,,,,,,,,,,,,,,,,0,0,0,0,8,0,8,0,,,,,,,,,,,,,,,,,,,,,,,,,,,,,,,,,,,,,,,,1235.6888136750058,,181,U,circle,0.0012544060009531677,,,,,1,0,,,1,1234.187058599011,,,1231.7939745449985,1233.302713298006,1233.302713298006,1233.302713298006,k,0.8625315979879815,,,,,,,,,,,,,,,,,,,,,,,,,,,,,,,,,,,,,,,,,,,74219,2022-10-27_11h18.16.087,vts_reward_expectancy_bt_OFFLINE,2022.2.4,59.89075734261679,
,,,,,,,,,,,,,,,,,,,,,,,,,,0,0,0,0,9,0,9,0,,,,,,,,,,,,,,,,,,,,,,,,,,,,,,,,,,,,,,,,1240.5608075530035,,167,S,triangle,0.0018369039898971096,,,,,1,0,,,1,1239.0590433070029,,,1236.666083876,1238.174827327006,1238.174827327006,1238.174827327006,k,0.8555273120000493,,,,,,,,,,,,,,,,,,,,,,,,,,,,,,,,,,,,,,,,,,,74219,2022-10-27_11h18.16.087,vts_reward_expectancy_bt_OFFLINE,2022.2.4,59.89075734261679,
,,,,,,,,,,,,,,,,,,,,,,,,,,,,,,,,,,0,0,0,0,0,0,0,0,,,,,,,,,,,,,,,,,,,,,,,,,,,,0,882,,,1279.853990418007,,167,W,triangle,0.002370604997850023,,,,,1,0,,,2,,,,,,,,,,1274.8619388549996,1274.8619388549996,1274.8619388549996,1274.8619388549996,1276.3668207770097,1276.3668207770097,1276.3668207770097,1276.3668207770097,1276.3668207770097,1276.3668207770097,1276.3668207770097,1276.3668207770097,-1,number,NA,f,1.9579963430005591,vtsPrac,1278.3523839539994,,,,,,,,,,,,,,,,,,,,,,,,74219,2022-10-27_11h18.16.087,vts_reward_expectancy_bt_OFFLINE,2022.2.4,59.89075734261679,
,,,,,,,,,,,,,,,,,,,,,,,,,,,,,,,,,,0,0,0,0,1,0,1,0,,,,,,,,,,,,,,,,,,,,,,,,,,,,0,882,,,1284.4924824190093,,132,Y,circle,0.0016056960012065247,,,,,1,0,,,2,,,,,,,,,,1280.8332474240015,1280.8332474240015,1280.8332474240015,1280.8332474240015,1282.3402181270067,1282.3402181270067,1282.3402181270067,1282.3402181270067,1282.3402181270067,1282.3402181270067,1282.3402181270067,1282.3402181270067,repeat,number,numRpt,d,0.6257245359884109,vtsPrac,1282.9909774600092,,,,,,,,,,,,,,,,,,,,,,,,74219,2022-10-27_11h18.16.087,vts_reward_expectancy_bt_OFFLINE,2022.2.4,59.89075734261679,
,,,,,,,,,,,,,,,,,,,,,,,,,,,,,,,,,,0,0,0,0,2,0,2,0,,,,,,,,,,,,,,,,,,,,,,,,,,,,0,882,,,1290.2821309370047,,146,B,hexagon,0.0015287380083464086,,,,,1,0,,,2,,,,,,,,,,1285.4723799290077,1285.4723799290077,1285.4723799290077,1285.4723799290077,1286.978954478007,1286.978954478007,1286.978954478007,1286.978954478007,1286.978954478007,1286.978954478007,1286.978954478007,1286.978954478007,switch,letter,lettSwt,j,1.7706652999768266,vtsPrac,1288.7809167259984,,,,,,,,,,,,,,,,,,,,,,,,74219,2022-10-27_11h18.16.087,vts_reward_expectancy_bt_OFFLINE,2022.2.4,59.89075734261679,
,,,,,,,,,,,,,,,,,,,,,,,,,,,,,,,,,,0,0,0,0,3,0,3,0,,,,,,,,,,,,,,,,,,,,,,,,,,,,0,882,,,1295.3213079080015,,125,U,star,0.0017894229968078434,,,,,1,0,,,2,,,,,,,,,,1291.2619780539972,1291.2619780539972,1291.2619780539972,1291.2619780539972,1292.7685168180033,1292.7685168180033,1292.7685168180033,1292.7685168180033,1292.7685168180033,1292.7685168180033,1292.7685168180033,1292.7685168180033,switch,number,numSwt,d,1.0208751619938994,vtsPrac,1293.819447433998,,,,,,,,,,,,,,,,,,,,,,,,74219,2022-10-27_11h18.16.087,vts_reward_expectancy_bt_OFFLINE,2022.2.4,59.89075734261679,
,,,,,,,,,,,,,,,,,,,,,,,,,,,,,,,,,,0,0,0,0,4,0,4,0,,,,,,,,,,,,,,,,,,,,,,,,,,,,0,882,,,1300.1597441400081,,167,W,hexagon,0.0017263609915971756,,,,,1,0,,,2,,,,,,,,,,1296.2987676129997,1296.2987676129997,1296.2987676129997,1296.2987676129997,1297.8072318210034,1297.8072318210034,1297.8072318210034,1297.8072318210034,1297.8072318210034,1297.8072318210034,1297.8072318210034,1297.8072318210034,switch,letter,lettSwt,k,0.8230228149914183,vtsPrac,1298.6582072949968,,,,,,,,,,,,,,,,,,,,,,,,74219,2022-10-27_11h18.16.087,vts_reward_expectancy_bt_OFFLINE,2022.2.4,59.89075734261679,
,,,,,,,,,,,,,,,,,,,,,,,,,,,,,,,,,,0,0,0,0,5,0,5,0,,,,,,,,,,,,,,,,,,,,,,,,,,,,0,882,,,1304.981822280999,,132,Y,triangle,0.0017345939995720983,,,,,1,0,,,2,,,,,,,,,,1301.136415854009,1301.136415854009,1301.136415854009,1301.136415854009,1302.6459476040036,1302.6459476040036,1302.6459476040036,1302.6459476040036,1302.6459476040036,1302.6459476040036,1302.6459476040036,1302.6459476040036,repeat,letter,lettRpt,k,0.8072866649890784,vtsPrac,1303.4802412330027,,,,,,,,,,,,,,,,,,,,,,,,74219,2022-10-27_11h18.16.087,vts_reward_expectancy_bt_OFFLINE,2022.2.4,59.89075734261679,
,,,,,,,,,,,,,,,,,,,,,,,,,,,,,,,,,,0,0,0,0,6,0,6,0,,,,,,,,,,,,,,,,,,,,,,,,,,,,0,882,,,1309.837184368007,,146,B,circle,0.002073936993838288,,,,,1,0,,,2,,,,,,,,,,1305.9603197789984,1305.9603197789984,1305.9603197789984,1305.9603197789984,1307.4679692820064,1307.4679692820064,1307.4679692820064,1307.4679692820064,1307.4679692820064,1307.4679692820064,1307.4679692820064,1307.4679692820064,switch,number,numSwt,d,0.8415752069995506,vtsPrac,1308.3356523060065,,,,,,,,,,,,,,,,,,,,,,,,74219,2022-10-27_11h18.16.087,vts_reward_expectancy_bt_OFFLINE,2022.2.4,59.89075734261679,
,,,,,,,,,,,,,,,,,,,,,,,,,,,,,,,,,,0,0,0,0,7,0,7,0,,,,,,,,,,,,,,,,,,,,,,,,,,,,0,882,,,1316.1261229380034,,125,U,star,0.0017188310011988506,,,,,1,0,,,2,,,,,,,,,,1310.8150284270087,1310.8150284270087,1310.8150284270087,1310.8150284270087,1312.32330602601,1312.32330602601,1312.32330602601,1312.32330602601,1312.32330602601,1312.32330602601,1312.32330602601,1312.32330602601,switch,letter,lettSwt,k,2.274082482981612,vtsPrac,1314.6259137910092,1316.1261229380034,,,,,,,,,,,,,,,,,,,,,,,74219,2022-10-27_11h18.16.087,vts_reward_expectancy_bt_OFFLINE,2022.2.4,59.89075734261679,
,,,,,,,,,,,,,,,,,,,,,,,,,,,,,,,,,,0,0,0,0,8,0,8,0,,,,,,,,,,,,,,,,,,,,,,,,,,,,0,882,,,1321.6503549810004,,139,D,triangle,0.0015540829917881638,,,,,1,0,,,2,,,,,,,,,,1317.1069184049993,1317.1069184049993,1317.1069184049993,1317.1069184049993,1318.6135760040052,1318.6135760040052,1318.6135760040052,1318.6135760040052,1318.6135760040052,1318.6135760040052,1318.6135760040052,1318.6135760040052,switch,number,numSwt,d,1.5036705219972646,vtsPrac,1320.1485450530017,,,,,,,,,,,,,,,,,,,,,,,,74219,2022-10-27_11h18.16.087,vts_reward_expectancy_bt_OFFLINE,2022.2.4,59.89075734261679,
,,,,,,,,,,,,,,,,,,,,,,,,,,,,,,,,,,0,0,0,0,9,0,9,0,,,,,,,,,,,,,,,,,,,,,,,,,,,,0,882,,,1326.7391709970107,,146,U,circle,0.0017348249966744334,,,,,1,0,,,2,,,,,,,,,,1322.6291810100083,1322.6291810100083,1322.6291810100083,1322.6291810100083,1324.1362881410023,1324.1362881410023,1324.1362881410023,1324.1362881410023,1324.1362881410023,1324.1362881410023,1324.1362881410023,1324.1362881410023,repeat,number,numRpt,d,1.0769578919862397,vtsPrac,1325.237351845004,,,,,,,,,,,,,,,,,,,,,,,,74219,2022-10-27_11h18.16.087,vts_reward_expectancy_bt_OFFLINE,2022.2.4,59.89075734261679,
,,,,,,,,,,,,,,,,,,,,,,,,,,,,,,,,,,0,0,0,0,10,0,10,0,,,,,,,,,,,,,,,,,,,,,,,,,,,,0,882,,,1331.6778895540047,,160,W,circle,0.0016576720081502572,,,,,1,0,,,2,,,,,,,,,,1327.717158585001,1327.717158585001,1327.717158585001,1327.717158585001,1329.2250355480064,1329.2250355480064,1329.2250355480064,1329.2250355480064,1329.2250355480064,1329.2250355480064,1329.2250355480064,1329.2250355480064,switch,letter,lettSwt,k,0.9330610719916876,vtsPrac,1330.1762820709992,,,,,,,,,,,,,,,,,,,,,,,,74219,2022-10-27_11h18.16.087,vts_reward_expectancy_bt_OFFLINE,2022.2.4,59.89075734261679,
,,,,,,,,,,,,,,,,,,,,,,,,,,,,,,,,,,0,0,0,0,11,0,11,0,,,,,,,,,,,,,,,,,,,,,,,,,,,,0,882,,,1336.716864697999,,125,S,hexagon,0.0014706610090797767,,,,,1,0,,,2,,,,,,,,,,1332.6565591060062,1332.6565591060062,1332.6565591060062,1332.6565591060062,1334.1640004560031,1334.1640004560031,1334.1640004560031,1334.1640004560031,1334.1640004560031,1334.1640004560031,1334.1640004560031,1334.1640004560031,switch,number,numSwt,d,1.0258215359936003,vtsPrac,1335.215160355001,,,,,,,,,,,,,,,,,,,,,,,,74219,2022-10-27_11h18.16.087,vts_reward_expectancy_bt_OFFLINE,2022.2.4,59.89075734261679,
,,,,,,,,,,,,,,,,,,,,,,,,,,,,,,,,,,0,0,0,0,12,0,12,0,,,,,,,,,,,,,,,,,,,,,,,,,,,,0,882,,,1341.7222824060009,,125,W,star,0.001971149002201855,,,,,1,0,,,2,,,,,,,,,,1337.6946342360025,1337.6946342360025,1337.6946342360025,1337.6946342360025,1339.2029867189995,1339.2029867189995,1339.2029867189995,1339.2029867189995,1339.2029867189995,1339.2029867189995,1339.2029867189995,1339.2029867189995,switch,letter,lettSwt,k,0.986320429990883,vtsPrac,1340.2206703350093,,,,,,,,,,,,,,,,,,,,,,,,74219,2022-10-27_11h18.16.087,vts_reward_expectancy_bt_OFFLINE,2022.2.4,59.89075734261679,
,,,,,,,,,,,,,,,,,,,,,,,,,,,,,,,,,,0,0,0,0,13,0,13,0,,,,,,,,,,,,,,,,,,,,,,,,,,,,0,882,,,1346.8112942890002,,132,U,triangle,0.0019247460004407912,,,,,1,0,,,2,,,,,,,,,,1342.701302018002,1342.701302018002,1342.701302018002,1342.701302018002,1344.2083675210015,1344.2083675210015,1344.2083675210015,1344.2083675210015,1344.2083675210015,1344.2083675210015,1344.2083675210015,1344.2083675210015,repeat,letter,lettRpt,k,1.0773952459858265,vtsPrac,1345.3095779490104,,,,,,,,,,,,,,,,,,,,,,,,74219,2022-10-27_11h18.16.087,vts_reward_expectancy_bt_OFFLINE,2022.2.4,59.89075734261679,
,,,,,,,,,,,,,,,,,,,,,,,,,,,,,,,,,,0,0,0,0,14,0,14,0,,,,,,,,,,,,,,,,,,,,,,,,,,,,0,882,,,1351.8170183280017,,167,H,hexagon,0.001578194001922384,,,,,1,0,,,2,,,,,,,,,,1347.78898239501,1347.78898239501,1347.78898239501,1347.78898239501,1349.2972257650108,1349.2972257650108,1349.2972257650108,1349.2972257650108,1349.2972257650108,1349.2972257650108,1349.2972257650108,1349.2972257650108,switch,number,numSwt,f,0.9887802229932277,vtsPrac,1350.3151845810062,,,,,,,,,,,,,,,,,,,,,,,,74219,2022-10-27_11h18.16.087,vts_reward_expectancy_bt_OFFLINE,2022.2.4,59.89075734261679,
,,,,,,,,,,,,,,,,,,,,,,,,,,,,,,,,,,0,0,0,0,15,0,15,0,,,,,,,,,,,,,,,,,,,,,,,,,,,,0,882,,,1356.5720545119984,,174,D,circle,0.0012738649966195226,,,,,1,0,,,2,,,,,,,,,,1352.7945887570095,1352.7945887570095,1352.7945887570095,1352.7945887570095,1354.3030306090077,1354.3030306090077,1354.3030306090077,1354.3030306090077,1354.3030306090077,1354.3030306090077,1354.3030306090077,1354.3030306090077,repeat,number,numRpt,f,0.7353634269820759,vtsPrac,1355.0703608180047,,,,,,,,,,,,,,,,,,,,,,,,74219,2022-10-27_11h18.16.087,vts_reward_expectancy_bt_OFFLINE,2022.2.4,59.89075734261679,
,,,,,,,,,,,,,,,,,,,,,,,,,,,,,,,,,,,,,,,,,,0,0,0,0,,,,,,,,,,,,,,,,,,,,,,,,0,882,,,1394.513874295997,,167,U,hexagon,0.0020002719975309446,,,,,0,0,,,,,,,,,,,,,1389.969269342997,1389.969269342997,1389.969269342997,1389.969269342997,1391.4772597330011,1391.4772597330011,1391.4772597330011,1391.4772597330011,1391.4772597330011,1391.4772597330011,1391.4772597330011,1391.4772597330011,repeat,number,NA,d,1.511645888997009,noRew,,,0,1393.0121971629997,,,,,,,,,,,,,,,,,,,,,74219,2022-10-27_11h18.16.087,vts_reward_expectancy_bt_OFFLINE,2022.2.4,59.89075734261679,
,,,,,,,,,,,,,,,,,,,,,,,,,,,,,,,,,,,,,,,,,,1,0,1,0,,,,,,,,,,,,,,,,,,,,,,,,0,882,,,1400.1034777360037,,125,D,circle,0.001454112003557384,,,,,1,1,,,,,,,,,,,,,1395.4917729450099,1395.4917729450099,1395.4917729450099,1395.4917729450099,1396.9999472140044,1396.9999472140044,1396.9999472140044,1396.9999472140044,1396.9999472140044,1396.9999472140044,1396.9999472140044,1396.9999472140044,repeat,number,numRpt,d,1.581789559990284,noRew,,,0,1398.601840939009,,,,,,,,,,,,,,,,,,,,,74219,2022-10-27_11h18.16.087,vts_reward_expectancy_bt_OFFLINE,2022.2.4,59.89075734261679,
,,,,,,,,,,,,,,,,,,,,,,,,,,,,,,,,,,,,,,,,,,2,0,2,0,,,,,,,,,,,,,,,,,,,,,,,,0,882,,,1405.3090774370066,,132,B,circle,0.001395116007188335,,,,,1,0,,,,,,,,,,,,,1401.0801513220067,1401.0801513220067,1401.0801513220067,1401.0801513220067,1402.5894706300023,1402.5894706300023,1402.5894706300023,1402.5894706300023,1402.5894706300023,1402.5894706300023,1402.5894706300023,1402.5894706300023,repeat,number,numRpt,d,1.1854035379947163,noRew,,,0,1403.8075283650105,,,,,,,,,,,,,,,,,,,,,74219,2022-10-27_11h18.16.087,vts_reward_expectancy_bt_OFFLINE,2022.2.4,59.89075734261679,
,,,,,,,,,,,,,,,,,,,,,,,,,,,,,,,,,,,,,,,,,,3,0,3,0,,,,,,,,,,,,,,,,,,,,,,,,0,882,,,1410.4647563160106,,160,W,hexagon,0.001572968001710251,,,,,1,0,,,,,,,,,,,,,1406.2866037080094,1406.2866037080094,1406.2866037080094,1406.2866037080094,1407.7951710500056,1407.7951710500056,1407.7951710500056,1407.7951710500056,1407.7951710500056,1407.7951710500056,1407.7951710500056,1407.7951710500056,switch,letter,lettSwt,k,1.1466093899944099,noRew,,,0,1408.9631377180049,,,,,,,,,,,,,,,,,,,,,74219,2022-10-27_11h18.16.087,vts_reward_expectancy_bt_OFFLINE,2022.2.4,59.89075734261679,
,,,,,,,,,,,,,,,,,,,,,,,,,,,,,,,,,,,,,,,,,,4,0,4,0,,,,,,,,,,,,,,,,,,,,,,,,0,882,,,1415.553777293011,,167,U,circle,0.0014658800064353272,,,,,1,0,,,,,,,,,,,,,1411.4424955349969,1411.4424955349969,1411.4424955349969,1411.4424955349969,1412.9507583920058,1412.9507583920058,1412.9507583920058,1412.9507583920058,1412.9507583920058,1412.9507583920058,1412.9507583920058,1412.9507583920058,repeat,letter,lettRpt,k,1.070320285987691,noRew,,,0,1414.0520827130094,,,,,,,,,,,,,,,,,,,,,74219,2022-10-27_11h18.16.087,vts_reward_expectancy_bt_OFFLINE,2022.2.4,59.89075734261679,
,,,,,,,,,,,,,,,,,,,,,,,,,,,,,,,,,,,,,,,,,,5,0,5,0,,,,,,,,,,,,,,,,,,,,,,,,0,882,,,1420.642912345007,,125,D,triangle,0.001624939002795145,,,,,1,0,,,,,,,,,,,,,1416.5316852960095,1416.5316852960095,1416.5316852960095,1416.5316852960095,1418.040051864009,1418.040051864009,1418.040051864009,1418.040051864009,1418.040051864009,1418.040051864009,1418.040051864009,1418.040051864009,repeat,letter,lettRpt,j,1.06881771699409,noRew,,,0,1419.141062448005,,,,,,,,,,,,,,,,,,,,,74219,2022-10-27_11h18.16.087,vts_reward_expectancy_bt_OFFLINE,2022.2.4,59.89075734261679,
,,,,,,,,,,,,,,,,,,,,,,,,,,,,,,,,,,,,,,,,,,6,0,6,0,,,,,,,,,,,,,,,,,,,,,,,,0,882,,,1426.065566684003,,132,B,triangle,0.0014406359987333417,,,,,1,0,,,,,,,,,,,,,1421.6206537950056,1421.6206537950056,1421.6206537950056,1421.6206537950056,1423.1288042509987,1423.1288042509987,1423.1288042509987,1423.1288042509987,1423.1288042509987,1423.1288042509987,1423.1288042509987,1423.1288042509987,repeat,letter,lettRpt,j,1.4121170779835666,noRew,,,0,1424.5637723260006,,,,,,,,,,,,,,,,,,,,,74219,2022-10-27_11h18.16.087,vts_reward_expectancy_bt_OFFLINE,2022.2.4,59.89075734261679,
,,,,,,,,,,,,,,,,,,,,,,,,,,,,,,,,,,,,,,,,,,7,0,7,0,,,,,,,,,,,,,,,,,,,,,,,,0,882,,,1431.0377210250008,,160,W,hexagon,0.0016397340077674016,,,,,1,0,,,,,,,,,,,,,1427.0434599319997,1427.0434599319997,1427.0434599319997,1427.0434599319997,1428.5516919040092,1428.5516919040092,1428.5516919040092,1428.5516919040092,1428.5516919040092,1428.5516919040092,1428.5516919040092,1428.5516919040092,switch,number,numSwt,f,0.9572823819908081,noRew,,,0,1429.5358543280017,,,,,,,,,,,,,,,,,,,,,74219,2022-10-27_11h18.16.087,vts_reward_expectancy_bt_OFFLINE,2022.2.4,59.89075734261679,
,,,,,,,,,,,,,,,,,,,,,,,,,,,,,,,,,,,,,,,,,,8,0,8,0,,,,,,,,,,,,,,,,,,,,,,,,0,882,,,1435.9263356419979,,132,B,triangle,0.0014252440014388412,,,,,1,0,,,,,,,,,,,,,1432.0154321870068,1432.0154321870068,1432.0154321870068,1432.0154321870068,1433.5237643330038,1433.5237643330038,1433.5237643330038,1433.5237643330038,1433.5237643330038,1433.5237643330038,1433.5237643330038,1433.5237643330038,repeat,number,numRpt,d,0.8813108959875535,noRew,,,0,1434.4247737370024,,,,,,,,,,,,,,,,,,,,,74219,2022-10-27_11h18.16.087,vts_reward_expectancy_bt_OFFLINE,2022.2.4,59.89075734261679,
,,,,,,,,,,,,,,,,,,,,,,,,,,,,,,,,,,,,,,,,,,9,0,9,0,,,,,,,,,,,,,,,,,,,,,,,,0,882,,,1441.0151110330044,,174,Y,star,0.0013009599933866411,,,,,1,0,,,,,,,,,,,,,1436.9037668630044,1436.9037668630044,1436.9037668630044,1436.9037668630044,1438.4124443070032,1438.4124443070032,1438.4124443070032,1438.4124443070032,1438.4124443070032,1438.4124443070032,1438.4124443070032,1438.4124443070032,repeat,number,numRpt,f,1.0732459299906623,noRew,,,0,1439.5134985449986,,,,,,,,,,,,,,,,,,,,,74219,2022-10-27_11h18.16.087,vts_reward_expectancy_bt_OFFLINE,2022.2.4,59.89075734261679,
,,,,,,,,,,,,,,,,,,,,,,,,,,,,,,,,,,,,,,,,,,10,0,10,0,,,,,,,,,,,,,,,,,,,,,,,,0,882,,,1446.0707851300103,,181,F,triangle,0.0014791180001338944,,,,,1,0,,,,,,,,,,,,,1441.9941921670106,1441.9941921670106,1441.9941921670106,1441.9941921670106,1443.5011326120002,1443.5011326120002,1443.5011326120002,1443.5011326120002,1443.5011326120002,1443.5011326120002,1443.5011326120002,1443.5011326120002,repeat,number,numRpt,f,1.0399612839828478,noRew,,,0,1444.5690747960034,,,,,,,,,,,,,,,,,,,,,74219,2022-10-27_11h18.16.087,vts_reward_expectancy_bt_OFFLINE,2022.2.4,59.89075734261679,
,,,,,,,,,,,,,,,,,,,,,,,,,,,,,,,,,,,,,,,,,,11,0,11,0,,,,,,,,,,,,,,,,,,,,,,,,0,882,,,1450.7926926880027,,160,D,star,0.0022507699904963374,,,,,1,0,,,,,,,,,,,,,1447.0493472020025,1447.0493472020025,1447.0493472020025,1447.0493472020025,1448.5569054329972,1448.5569054329972,1448.5569054329972,1448.5569054329972,1448.5569054329972,1448.5569054329972,1448.5569054329972,1448.5569054329972,switch,letter,lettSwt,j,0.7126114789862186,noRew,,,0,1449.290958771002,,,,,,,,,,,,,,,,,,,,,74219,2022-10-27_11h18.16.087,vts_reward_expectancy_bt_OFFLINE,2022.2.4,59.89075734261679,
,,,,,,,,,,,,,,,,,,,,,,,,,,,,,,,,,,,,,,,,,,12,0,12,0,,,,,,,,,,,,,,,,,,,,,,,,0,882,,,1455.5645745920046,,132,Y,star,0.0015797700034454465,,,,,1,0,,,,,,,,,,,,,1451.7705100090097,1451.7705100090097,1451.7705100090097,1451.7705100090097,1453.2788576360035,1453.2788576360035,1453.2788576360035,1453.2788576360035,1453.2788576360035,1453.2788576360035,1453.2788576360035,1453.2788576360035,repeat,letter,lettRpt,k,0.7586833459936315,noRew,,,0,1454.0629539280053,,,,,,,,,,,,,,,,,,,,,74219,2022-10-27_11h18.16.087,vts_reward_expectancy_bt_OFFLINE,2022.2.4,59.89075734261679,
,,,,,,,,,,,,,,,,,,,,,,,,,,,,,,,,,,,,,,,,,,13,0,13,0,,,,,,,,,,,,,,,,,,,,,,,,0,882,,,1460.8037200420076,,139,B,triangle,0.0016833569970913231,,,,,1,0,,,,,,,,,,,,,1456.5424467590055,1456.5424467590055,1456.5424467590055,1456.5424467590055,1458.0508454509982,1458.0508454509982,1458.0508454509982,1458.0508454509982,1458.0508454509982,1458.0508454509982,1458.0508454509982,1458.0508454509982,repeat,letter,lettRpt,j,1.2188320779823698,noRew,,,0,1459.3020512910007,,,,,,,,,,,,,,,,,,,,,74219,2022-10-27_11h18.16.087,vts_reward_expectancy_bt_OFFLINE,2022.2.4,59.89075734261679,
,,,,,,,,,,,,,,,,,,,,,,,,,,,,,,,,,,,,,,,,,,14,0,14,0,,,,,,,,,,,,,,,,,,,,,,,,0,882,,,1465.7591366270062,,174,H,triangle,0.0016982240049401298,,,,,1,0,,,,,,,,,,,,,1461.781538287003,1461.781538287003,1461.781538287003,1461.781538287003,1463.2897852930037,1463.2897852930037,1463.2897852930037,1463.2897852930037,1463.2897852930037,1463.2897852930037,1463.2897852930037,1463.2897852930037,switch,number,numSwt,f,0.9481668929947773,noRew,,,0,1464.2575285019993,,,,,,,,,,,,,,,,,,,,,74219,2022-10-27_11h18.16.087,vts_reward_expectancy_bt_OFFLINE,2022.2.4,59.89075734261679,
,,,,,,,,,,,,,,,,,,,,,,,,,,,,,,,,,,,,,,,,,,15,0,15,0,,,,,,,,,,,,,,,,,,,,,,,,0,882,,,1470.5644985960098,,160,U,hexagon,0.0013854439894203097,,,,,1,0,,,,,,,,,,,,,1466.7366880260088,1466.7366880260088,1466.7366880260088,1466.7366880260088,1468.245188056011,1468.245188056011,1468.245188056011,1468.245188056011,1468.245188056011,1468.245188056011,1468.245188056011,1468.245188056011,repeat,number,numRpt,f,0.7921190789929824,noRew,,,0,1469.0627656010038,,,,,,,,,,,,,,,,,,,,,74219,2022-10-27_11h18.16.087,vts_reward_expectancy_bt_OFFLINE,2022.2.4,59.89075734261679,
,,,,,,,,,,,,,,,,,,,,,,,,,,,,,,,,,,,,,,,,,,16,0,16,0,,,,,,,,,,,,,,,,,,,,,,,,0,882,,,1476.5711271309992,,132,S,star,0.0016314529930241406,,,,,1,0,,,,,,,,,,,,,1471.54247342101,1471.54247342101,1471.54247342101,1471.54247342101,1473.050545916005,1473.050545916005,1473.050545916005,1473.050545916005,1473.050545916005,1473.050545916005,1473.050545916005,1473.050545916005,repeat,number,numRpt,d,1.9946678829874145,noRew,,,0,1475.0695568000083,,,,,,,,,,,,,,,,,,,,,74219,2022-10-27_11h18.16.087,vts_reward_expectancy_bt_OFFLINE,2022.2.4,59.89075734261679,
