LTriangleOpac,LCircleOpac,LHexagonOpac,LStarOpac,RTriangleOpac,RCircleOpac,RHexagonOpac,RStarOpac,LShape_ID,RShape_ID,training_blocks.thisRepN,training_blocks.thisTrialN,training_blocks.thisN,training_blocks.thisIndex,training.thisRepN,training.thisTrialN,training.thisN,training.thisIndex,task1_prac_redo.thisRepN,task1_prac_redo.thisTrialN,task1_prac_redo.thisN,task1_prac_redo.thisIndex,task1_prac_trials.thisRepN,task1_prac_trials.thisTrialN,task1_prac_trials.thisN,task1_prac_trials.thisIndex,task2_prac_redo.thisRepN,task2_prac_redo.thisTrialN,task2_prac_redo.thisN,task2_prac_redo.thisIndex,task2_praac_trials.thisRepN,task2_praac_trials.thisTrialN,task2_praac_trials.thisN,task2_praac_trials.thisIndex,vts_prac_redo.thisRepN,vts_prac_redo.thisTrialN,vts_prac_redo.thisN,vts_prac_redo.thisIndex,vts_practice_trials.thisRepN,vts_practice_trials.thisTrialN,vts_practice_trials.thisN,vts_practice_trials.thisIndex,trials_norew.thisRepN,trials_norew.thisTrialN,trials_norew.thisN,trials_norew.thisIndex,block.thisRepN,block.thisTrialN,block.thisN,block.thisIndex,trials_rew.thisRepN,trials_rew.thisTrialN,trials_rew.thisN,trials_rew.thisIndex,key_resp.started,key_resp.keys,key_resp.rt,left_circle.started,right_circle.started,left_triangle.started,right_triangle.started,left_star.started,right_star.started,left_hexagon.started,right_hexagon.started,training_fix.started,training_resp.started,training_resp.keys,training_resp.rt,points_trial,points_cumul,trainBlock,training_feedback_txt.started,fix.started,training_feedback_txt.stopped,fix.stopped,curr_topStim,curr_bottStim,curr_shape,ISI.started,tgt_fix_prac1.started,top_target_prac1.started,bott_target_prac1.started,target_resp_prac1.started,acc,E1,target_resp_prac1.keys,target_resp_prac1.rt,pracBlock,prac_fback_text.started,prac_fback_text.stopped,tgt_fix_prac2.started,top_target_prac2.started,bott_target_prac2.started,target_resp_prac2.started,target_resp_prac2.keys,target_resp_prac2.rt,star.started,hegagon.started,triangle.started,circle.started,top_target.started,tgt_fix.started,bot_target.started,target_resp.started,star.stopped,hegagon.stopped,triangle.stopped,circle.stopped,top_target.stopped,tgt_fix.stopped,bot_target.stopped,target_resp.stopped,alt,task,condition,target_resp.keys,rewCond,vts_fback.started,target_resp.rt,vts_fback.stopped,blockNum,norew_fback.started,norew_fback.stopped,key_resp_2.keys,key_resp_2.rt,rewExpectancy,feedbk_text.started,feedbk_text.stopped,text_3.started,debrief.started,text_3.stopped,button.started,debrief.index,debrief.itemText,debrief.type,debrief.granularity,debrief.font,debrief.markerColor,debrief.response,debrief.rt,button.numClicks,button.timesOn,button.timesOff,participant,date,expName,psychopyVersion,frameRate,
,,,,,,,,,,,,,,,,,,,,,,,,,,,,,,,,,,,,,,,,,,,,,,,,,,,,,,2179.818461359013,space,6.169844394084066,,,,,,,,,,,,,,,,,,,,,,,,,,,,,,,,,,,,,,,,,,,,,,,,,,,,,,,,,,,,,,,,,,,,,,,,,,,,,,,,,,,,,,,,75773,2022-11-10_11h39.14.067,vts_reward_expectancy_bt_OFFLINE,2022.2.4,61.11879019335923,
0,0,1,0,0,0,0,1,hexagon,star,0,0,0,0,0,0,0,8,,,,,,,,,,,,,,,,,,,,,,,,,,,,,,,,,,,,,,,,2211.511591312941,2211.511591312941,2211.511591312941,2211.511591312941,2211.511591312941,2211.511591312941,2211.511591312941,2211.511591312941,2211.511591312941,2211.511591312941,l,6.371809205040336,10,10,0,2217.9054771459196,2219.420588729903,,,,,,,,,,,,,,,,,,,,,,,,,,,,,,,,,,,,,,,,,,,,,,,,,,,,,,,,,,,,,,,,,,,,,,,75773,2022-11-10_11h39.14.067,vts_reward_expectancy_bt_OFFLINE,2022.2.4,61.11879019335923,
0,0,0,1,0,0,1,0,star,hexagon,0,0,0,0,0,1,1,11,,,,,,,,,,,,,,,,,,,,,,,,,,,,,,,,,,,,,,,,2219.920668820967,2219.920668820967,2219.920668820967,2219.920668820967,2219.920668820967,2219.920668820967,2219.920668820967,2219.920668820967,2219.920668820967,2219.920668820967,a,1.0678747551282868,1,11,0,2221.0206932539586,2222.523252920946,,,,,,,,,,,,,,,,,,,,,,,,,,,,,,,,,,,,,,,,,,,,,,,,,,,,,,,,,,,,,,,,,,,,,,,75773,2022-11-10_11h39.14.067,vts_reward_expectancy_bt_OFFLINE,2022.2.4,61.11879019335923,
1,0,0,0,0,1,0,0,triangle,circle,0,0,0,0,0,2,2,0,,,,,,,,,,,,,,,,,,,,,,,,,,,,,,,,,,,,,,,,2223.0236606330145,2223.0236606330145,2223.0236606330145,2223.0236606330145,2223.0236606330145,2223.0236606330145,2223.0236606330145,2223.0236606330145,2223.0236606330145,2223.0236606330145,l,7.731389343040064,1,12,0,2230.7781924799783,2232.280646286905,,,,,,,,,,,,,,,,,,,,,,,,,,,,,,,,,,,,,,,,,,,,,,,,,,,,,,,,,,,,,,,,,,,,,,,75773,2022-11-10_11h39.14.067,vts_reward_expectancy_bt_OFFLINE,2022.2.4,61.11879019335923,
1,0,0,0,0,0,0,1,triangle,star,0,0,0,0,0,3,3,2,,,,,,,,,,,,,,,,,,,,,,,,,,,,,,,,,,,,,,,,2232.780792039004,2232.780792039004,2232.780792039004,2232.780792039004,2232.780792039004,2232.780792039004,2232.780792039004,2232.780792039004,2232.780792039004,2232.780792039004,l,0.8431447300827131,10,22,0,2233.6489509129897,2235.1481083129765,2235.1481083129765,2235.648320818902,,,,,,,,,,,,,,,,,,,,,,,,,,,,,,,,,,,,,,,,,,,,,,,,,,,,,,,,,,,,,,,,,,,,,75773,2022-11-10_11h39.14.067,vts_reward_expectancy_bt_OFFLINE,2022.2.4,61.11879019335923,
0,1,0,0,1,0,0,0,circle,triangle,0,0,0,0,0,4,4,3,,,,,,,,,,,,,,,,,,,,,,,,,,,,,,,,,,,,,,,,2235.648320818902,2235.648320818902,2235.648320818902,2235.648320818902,2235.648320818902,2235.648320818902,2235.648320818902,2235.648320818902,2235.648320818902,2235.648320818902,a,1.2941686960402876,10,32,0,2236.9600765459472,2238.4680251309182,,,,,,,,,,,,,,,,,,,,,,,,,,,,,,,,,,,,,,,,,,,,,,,,,,,,,,,,,,,,,,,,,,,,,,,75773,2022-11-10_11h39.14.067,vts_reward_expectancy_bt_OFFLINE,2022.2.4,61.11879019335923,
1,0,0,0,0,0,1,0,triangle,hexagon,0,0,0,0,0,5,5,1,,,,,,,,,,,,,,,,,,,,,,,,,,,,,,,,,,,,,,,,2238.9681885279715,2238.9681885279715,2238.9681885279715,2238.9681885279715,2238.9681885279715,2238.9681885279715,2238.9681885279715,2238.9681885279715,2238.9681885279715,2238.9681885279715,l,0.9223782151238993,1,33,0,2239.91923276498,2241.4190151799703,2241.4190151799703,2241.918883414939,,,,,,,,,,,,,,,,,,,,,,,,,,,,,,,,,,,,,,,,,,,,,,,,,,,,,,,,,,,,,,,,,,,,,75773,2022-11-10_11h39.14.067,vts_reward_expectancy_bt_OFFLINE,2022.2.4,61.11879019335923,
0,1,0,0,0,0,1,0,circle,hexagon,0,0,0,0,0,6,6,4,,,,,,,,,,,,,,,,,,,,,,,,,,,,,,,,,,,,,,,,2241.918883414939,2241.918883414939,2241.918883414939,2241.918883414939,2241.918883414939,2241.918883414939,2241.918883414939,2241.918883414939,2241.918883414939,2241.918883414939,l,0.7834000021684915,1,34,0,2242.721153252991,2244.2220093639335,2244.2220093639335,,,,,,,,,,,,,,,,,,,,,,,,,,,,,,,,,,,,,,,,,,,,,,,,,,,,,,,,,,,,,,,,,,,,,,75773,2022-11-10_11h39.14.067,vts_reward_expectancy_bt_OFFLINE,2022.2.4,61.11879019335923,
0,0,1,0,1,0,0,0,hexagon,triangle,0,0,0,0,0,7,7,6,,,,,,,,,,,,,,,,,,,,,,,,,,,,,,,,,,,,,,,,2244.72209475399,2244.72209475399,2244.72209475399,2244.72209475399,2244.72209475399,2244.72209475399,2244.72209475399,2244.72209475399,2244.72209475399,2244.72209475399,a,0.7143584880977869,1,35,0,2245.4554705480114,2246.9540520349983,2246.9540520349983,,,,,,,,,,,,,,,,,,,,,,,,,,,,,,,,,,,,,,,,,,,,,,,,,,,,,,,,,,,,,,,,,,,,,,75773,2022-11-10_11h39.14.067,vts_reward_expectancy_bt_OFFLINE,2022.2.4,61.11879019335923,
0,0,1,0,0,1,0,0,hexagon,circle,0,0,0,0,0,8,8,7,,,,,,,,,,,,,,,,,,,,,,,,,,,,,,,,,,,,,,,,2247.4582648059586,2247.4582648059586,2247.4582648059586,2247.4582648059586,2247.4582648059586,2247.4582648059586,2247.4582648059586,2247.4582648059586,2247.4582648059586,2247.4582648059586,a,1.7133399860467762,1,36,0,2249.1920532579534,2250.6927816959796,2250.6927816959796,2251.1928896479076,,,,,,,,,,,,,,,,,,,,,,,,,,,,,,,,,,,,,,,,,,,,,,,,,,,,,,,,,,,,,,,,,,,,,75773,2022-11-10_11h39.14.067,vts_reward_expectancy_bt_OFFLINE,2022.2.4,61.11879019335923,
0,0,0,1,1,0,0,0,star,triangle,0,0,0,0,0,9,9,9,,,,,,,,,,,,,,,,,,,,,,,,,,,,,,,,,,,,,,,,2251.1928896479076,2251.1928896479076,2251.1928896479076,2251.1928896479076,2251.1928896479076,2251.1928896479076,2251.1928896479076,2251.1928896479076,2251.1928896479076,2251.1928896479076,a,0.9035840270807967,10,46,0,2252.1284421429737,2253.6288105229614,2253.6288105229614,2254.129268583958,,,,,,,,,,,,,,,,,,,,,,,,,,,,,,,,,,,,,,,,,,,,,,,,,,,,,,,,,,,,,,,,,,,,,75773,2022-11-10_11h39.14.067,vts_reward_expectancy_bt_OFFLINE,2022.2.4,61.11879019335923,
0,0,0,1,0,1,0,0,star ,circle,0,0,0,0,0,10,10,10,,,,,,,,,,,,,,,,,,,,,,,,,,,,,,,,,,,,,,,,2254.129268583958,2254.129268583958,2254.129268583958,2254.129268583958,2254.129268583958,2254.129268583958,2254.129268583958,2254.129268583958,2254.129268583958,2254.129268583958,a,1.635009951191023,10,56,0,2255.7962257289328,2257.2986093469663,,,,,,,,,,,,,,,,,,,,,,,,,,,,,,,,,,,,,,,,,,,,,,,,,,,,,,,,,,,,,,,,,,,,,,,75773,2022-11-10_11h39.14.067,vts_reward_expectancy_bt_OFFLINE,2022.2.4,61.11879019335923,
0,1,0,0,0,0,0,1,circle,star,0,0,0,0,0,11,11,5,,,,,,,,,,,,,,,,,,,,,,,,,,,,,,,,,,,,,,,,2257.799084274913,2257.799084274913,2257.799084274913,2257.799084274913,2257.799084274913,2257.799084274913,2257.799084274913,2257.799084274913,2257.799084274913,2257.799084274913,l,1.0258947040420026,1,57,0,2258.8502412419766,2260.349991429015,2260.349991429015,2260.8499987960095,,,,,,,,,,,,,,,,,,,,,,,,,,,,,,,,,,,,,,,,,,,,,,,,,,,,,,,,,,,,,,,,,,,,,75773,2022-11-10_11h39.14.067,vts_reward_expectancy_bt_OFFLINE,2022.2.4,61.11879019335923,
0,1,0,0,0,0,0,1,circle,star,0,0,0,0,1,0,12,5,,,,,,,,,,,,,,,,,,,,,,,,,,,,,,,,,,,,,,,,2260.8499987960095,2260.8499987960095,2260.8499987960095,2260.8499987960095,2260.8499987960095,2260.8499987960095,2260.8499987960095,2260.8499987960095,2260.8499987960095,2260.8499987960095,a,2.7006996811833233,10,67,0,2263.5705576949986,2265.0700163369766,2265.0700163369766,2265.570333240903,,,,,,,,,,,,,,,,,,,,,,,,,,,,,,,,,,,,,,,,,,,,,,,,,,,,,,,,,,,,,,,,,,,,,75773,2022-11-10_11h39.14.067,vts_reward_expectancy_bt_OFFLINE,2022.2.4,61.11879019335923,
0,0,0,1,0,0,1,0,star,hexagon,0,0,0,0,1,1,13,11,,,,,,,,,,,,,,,,,,,,,,,,,,,,,,,,,,,,,,,,2265.570333240903,2265.570333240903,2265.570333240903,2265.570333240903,2265.570333240903,2265.570333240903,2265.570333240903,2265.570333240903,2265.570333240903,2265.570333240903,a,0.5668958661844954,10,77,0,2266.15384922293,2267.6562722219387,,,,,,,,,,,,,,,,,,,,,,,,,,,,,,,,,,,,,,,,,,,,,,,,,,,,,,,,,,,,,,,,,,,,,,,75773,2022-11-10_11h39.14.067,vts_reward_expectancy_bt_OFFLINE,2022.2.4,61.11879019335923,
1,0,0,0,0,0,1,0,triangle,hexagon,0,0,0,0,1,2,14,1,,,,,,,,,,,,,,,,,,,,,,,,,,,,,,,,,,,,,,,,2268.156388272997,2268.156388272997,2268.156388272997,2268.156388272997,2268.156388272997,2268.156388272997,2268.156388272997,2268.156388272997,2268.156388272997,2268.156388272997,a,1.0862244120799005,10,87,0,2269.273418174009,2270.773792400956,2270.773792400956,2271.274282811908,,,,,,,,,,,,,,,,,,,,,,,,,,,,,,,,,,,,,,,,,,,,,,,,,,,,,,,,,,,,,,,,,,,,,75773,2022-11-10_11h39.14.067,vts_reward_expectancy_bt_OFFLINE,2022.2.4,61.11879019335923,
0,0,1,0,1,0,0,0,hexagon,triangle,0,0,0,0,1,3,15,6,,,,,,,,,,,,,,,,,,,,,,,,,,,,,,,,,,,,,,,,2271.274282811908,2271.274282811908,2271.274282811908,2271.274282811908,2271.274282811908,2271.274282811908,2271.274282811908,2271.274282811908,2271.274282811908,2271.274282811908,a,0.7019423031015322,1,88,0,2272.0001882499782,2273.510159116937,,,,,,,,,,,,,,,,,,,,,,,,,,,,,,,,,,,,,,,,,,,,,,,,,,,,,,,,,,,,,,,,,,,,,,,75773,2022-11-10_11h39.14.067,vts_reward_expectancy_bt_OFFLINE,2022.2.4,61.11879019335923,
1,0,0,0,0,0,0,1,triangle,star,0,0,0,0,1,4,16,2,,,,,,,,,,,,,,,,,,,,,,,,,,,,,,,,,,,,,,,,2274.010369787924,2274.010369787924,2274.010369787924,2274.010369787924,2274.010369787924,2274.010369787924,2274.010369787924,2274.010369787924,2274.010369787924,2274.010369787924,a,0.7337878561811522,1,89,0,2274.7772814629134,2276.27776178997,2276.27776178997,2276.778008045978,,,,,,,,,,,,,,,,,,,,,,,,,,,,,,,,,,,,,,,,,,,,,,,,,,,,,,,,,,,,,,,,,,,,,75773,2022-11-10_11h39.14.067,vts_reward_expectancy_bt_OFFLINE,2022.2.4,61.11879019335923,
0,1,0,0,0,0,1,0,circle,hexagon,0,0,0,0,1,5,17,4,,,,,,,,,,,,,,,,,,,,,,,,,,,,,,,,,,,,,,,,2276.778008045978,2276.778008045978,2276.778008045978,2276.778008045978,2276.778008045978,2276.778008045978,2276.778008045978,2276.778008045978,2276.778008045978,2276.778008045978,a,0.5780503890709952,10,99,0,2277.38100446295,2278.880534405005,2278.880534405005,2279.3807092879433,,,,,,,,,,,,,,,,,,,,,,,,,,,,,,,,,,,,,,,,,,,,,,,,,,,,,,,,,,,,,,,,,,,,,75773,2022-11-10_11h39.14.067,vts_reward_expectancy_bt_OFFLINE,2022.2.4,61.11879019335923,
0,0,0,1,1,0,0,0,star,triangle,0,0,0,0,1,6,18,9,,,,,,,,,,,,,,,,,,,,,,,,,,,,,,,,,,,,,,,,2279.3807092879433,2279.3807092879433,2279.3807092879433,2279.3807092879433,2279.3807092879433,2279.3807092879433,2279.3807092879433,2279.3807092879433,2279.3807092879433,2279.3807092879433,a,0.6066513890400529,10,109,0,2280.0142816009466,2281.514779085992,2281.514779085992,,,,,,,,,,,,,,,,,,,,,,,,,,,,,,,,,,,,,,,,,,,,,,,,,,,,,,,,,,,,,,,,,,,,,,75773,2022-11-10_11h39.14.067,vts_reward_expectancy_bt_OFFLINE,2022.2.4,61.11879019335923,
1,0,0,0,0,1,0,0,triangle,circle,0,0,0,0,1,7,19,0,,,,,,,,,,,,,,,,,,,,,,,,,,,,,,,,,,,,,,,,2282.018009001971,2282.018009001971,2282.018009001971,2282.018009001971,2282.018009001971,2282.018009001971,2282.018009001971,2282.018009001971,2282.018009001971,2282.018009001971,a,0.42137445509433746,1,110,0,2282.4676588099683,2283.967616132926,2283.967616132926,,,,,,,,,,,,,,,,,,,,,,,,,,,,,,,,,,,,,,,,,,,,,,,,,,,,,,,,,,,,,,,,,,,,,,75773,2022-11-10_11h39.14.067,vts_reward_expectancy_bt_OFFLINE,2022.2.4,61.11879019335923,
0,1,0,0,1,0,0,0,circle,triangle,0,0,0,0,1,8,20,3,,,,,,,,,,,,,,,,,,,,,,,,,,,,,,,,,,,,,,,,2284.4678293289617,2284.4678293289617,2284.4678293289617,2284.4678293289617,2284.4678293289617,2284.4678293289617,2284.4678293289617,2284.4678293289617,2284.4678293289617,2284.4678293289617,a,0.4927978281630203,10,120,0,2284.9859796979,2286.4852961249417,2286.4852961249417,2286.9831179769244,,,,,,,,,,,,,,,,,,,,,,,,,,,,,,,,,,,,,,,,,,,,,,,,,,,,,,,,,,,,,,,,,,,,,75773,2022-11-10_11h39.14.067,vts_reward_expectancy_bt_OFFLINE,2022.2.4,61.11879019335923,
0,0,1,0,0,0,0,1,hexagon,star,0,0,0,0,1,9,21,8,,,,,,,,,,,,,,,,,,,,,,,,,,,,,,,,,,,,,,,,2286.9831179769244,2286.9831179769244,2286.9831179769244,2286.9831179769244,2286.9831179769244,2286.9831179769244,2286.9831179769244,2286.9831179769244,2286.9831179769244,2286.9831179769244,a,0.40652396716177464,1,121,0,2287.42071755894,2288.921299912967,2288.921299912967,2289.421288632904,,,,,,,,,,,,,,,,,,,,,,,,,,,,,,,,,,,,,,,,,,,,,,,,,,,,,,,,,,,,,,,,,,,,,75773,2022-11-10_11h39.14.067,vts_reward_expectancy_bt_OFFLINE,2022.2.4,61.11879019335923,
0,0,1,0,0,1,0,0,hexagon,circle,0,0,0,0,1,10,22,7,,,,,,,,,,,,,,,,,,,,,,,,,,,,,,,,,,,,,,,,2289.421288632904,2289.421288632904,2289.421288632904,2289.421288632904,2289.421288632904,2289.421288632904,2289.421288632904,2289.421288632904,2289.421288632904,2289.421288632904,a,0.589608445065096,1,122,0,2290.0382284689695,2291.539019153919,2291.539019153919,,,,,,,,,,,,,,,,,,,,,,,,,,,,,,,,,,,,,,,,,,,,,,,,,,,,,,,,,,,,,,,,,,,,,,75773,2022-11-10_11h39.14.067,vts_reward_expectancy_bt_OFFLINE,2022.2.4,61.11879019335923,
0,0,0,1,0,1,0,0,star ,circle,0,0,0,0,1,11,23,10,,,,,,,,,,,,,,,,,,,,,,,,,,,,,,,,,,,,,,,,2292.0409862089437,2292.0409862089437,2292.0409862089437,2292.0409862089437,2292.0409862089437,2292.0409862089437,2292.0409862089437,2292.0409862089437,2292.0409862089437,2292.0409862089437,a,0.5696012281114236,1,123,0,2292.6411387049593,2294.1416215349454,2294.1416215349454,2294.6417677189456,,,,,,,,,,,,,,,,,,,,,,,,,,,,,,,,,,,,,,,,,,,,,,,,,,,,,,,,,,,,,,,,,,,,,75773,2022-11-10_11h39.14.067,vts_reward_expectancy_bt_OFFLINE,2022.2.4,61.11879019335923,
0,0,0,1,0,1,0,0,star ,circle,0,0,0,0,2,0,24,10,,,,,,,,,,,,,,,,,,,,,,,,,,,,,,,,,,,,,,,,2294.6417677189456,2294.6417677189456,2294.6417677189456,2294.6417677189456,2294.6417677189456,2294.6417677189456,2294.6417677189456,2294.6417677189456,2294.6417677189456,2294.6417677189456,a,3.2119916680967435,1,124,0,2297.8780740529764,2299.378777642967,2299.378777642967,2299.8788824379444,,,,,,,,,,,,,,,,,,,,,,,,,,,,,,,,,,,,,,,,,,,,,,,,,,,,,,,,,,,,,,,,,,,,,75773,2022-11-10_11h39.14.067,vts_reward_expectancy_bt_OFFLINE,2022.2.4,61.11879019335923,
0,0,1,0,0,0,0,1,hexagon,star,0,0,0,0,2,1,25,8,,,,,,,,,,,,,,,,,,,,,,,,,,,,,,,,,,,,,,,,2299.8788824379444,2299.8788824379444,2299.8788824379444,2299.8788824379444,2299.8788824379444,2299.8788824379444,2299.8788824379444,2299.8788824379444,2299.8788824379444,2299.8788824379444,l,1.675847027101554,10,134,0,2301.580261470983,2303.0817110559437,,,,,,,,,,,,,,,,,,,,,,,,,,,,,,,,,,,,,,,,,,,,,,,,,,,,,,,,,,,,,,,,,,,,,,,75773,2022-11-10_11h39.14.067,vts_reward_expectancy_bt_OFFLINE,2022.2.4,61.11879019335923,
1,0,0,0,0,0,1,0,triangle,hexagon,0,0,0,0,2,2,26,1,,,,,,,,,,,,,,,,,,,,,,,,,,,,,,,,,,,,,,,,2303.582103004912,2303.582103004912,2303.582103004912,2303.582103004912,2303.582103004912,2303.582103004912,2303.582103004912,2303.582103004912,2303.582103004912,2303.582103004912,a,3.2486818060278893,1,135,0,2306.8506265429314,2308.3522587389452,,,,,,,,,,,,,,,,,,,,,,,,,,,,,,,,,,,,,,,,,,,,,,,,,,,,,,,,,,,,,,,,,,,,,,,75773,2022-11-10_11h39.14.067,vts_reward_expectancy_bt_OFFLINE,2022.2.4,61.11879019335923,
0,1,0,0,0,0,1,0,circle,hexagon,0,0,0,0,2,3,27,4,,,,,,,,,,,,,,,,,,,,,,,,,,,,,,,,,,,,,,,,2308.8523516609566,2308.8523516609566,2308.8523516609566,2308.8523516609566,2308.8523516609566,2308.8523516609566,2308.8523516609566,2308.8523516609566,2308.8523516609566,2308.8523516609566,a,1.0388659940799698,10,145,0,2309.9209648629185,2311.420004982967,2311.420004982967,2311.9202267829096,,,,,,,,,,,,,,,,,,,,,,,,,,,,,,,,,,,,,,,,,,,,,,,,,,,,,,,,,,,,,,,,,,,,,75773,2022-11-10_11h39.14.067,vts_reward_expectancy_bt_OFFLINE,2022.2.4,61.11879019335923,
0,0,0,1,1,0,0,0,star,triangle,0,0,0,0,2,4,28,9,,,,,,,,,,,,,,,,,,,,,,,,,,,,,,,,,,,,,,,,2311.9202267829096,2311.9202267829096,2311.9202267829096,2311.9202267829096,2311.9202267829096,2311.9202267829096,2311.9202267829096,2311.9202267829096,2311.9202267829096,2311.9202267829096,l,1.3573858850868419,10,155,0,2313.305787371937,2314.8064777259715,2314.8064777259715,2315.3067470559618,,,,,,,,,,,,,,,,,,,,,,,,,,,,,,,,,,,,,,,,,,,,,,,,,,,,,,,,,,,,,,,,,,,,,75773,2022-11-10_11h39.14.067,vts_reward_expectancy_bt_OFFLINE,2022.2.4,61.11879019335923,
0,1,0,0,0,0,0,1,circle,star,0,0,0,0,2,5,29,5,,,,,,,,,,,,,,,,,,,,,,,,,,,,,,,,,,,,,,,,2315.3067470559618,2315.3067470559618,2315.3067470559618,2315.3067470559618,2315.3067470559618,2315.3067470559618,2315.3067470559618,2315.3067470559618,2315.3067470559618,2315.3067470559618,l,1.683824853040278,10,165,0,2317.004862041911,2318.509579838952,,,,,,,,,,,,,,,,,,,,,,,,,,,,,,,,,,,,,,,,,,,,,,,,,,,,,,,,,,,,,,,,,,,,,,,75773,2022-11-10_11h39.14.067,vts_reward_expectancy_bt_OFFLINE,2022.2.4,61.11879019335923,
0,0,1,0,0,1,0,0,hexagon,circle,0,0,0,0,2,6,30,7,,,,,,,,,,,,,,,,,,,,,,,,,,,,,,,,,,,,,,,,2319.009661413962,2319.009661413962,2319.009661413962,2319.009661413962,2319.009661413962,2319.009661413962,2319.009661413962,2319.009661413962,2319.009661413962,2319.009661413962,a,1.0518390401266515,1,166,0,2320.0938319299603,2321.594001171994,2321.594001171994,,,,,,,,,,,,,,,,,,,,,,,,,,,,,,,,,,,,,,,,,,,,,,,,,,,,,,,,,,,,,,,,,,,,,,75773,2022-11-10_11h39.14.067,vts_reward_expectancy_bt_OFFLINE,2022.2.4,61.11879019335923,
1,0,0,0,0,0,0,1,triangle,star,0,0,0,0,2,7,31,2,,,,,,,,,,,,,,,,,,,,,,,,,,,,,,,,,,,,,,,,2322.0961725729285,2322.0961725729285,2322.0961725729285,2322.0961725729285,2322.0961725729285,2322.0961725729285,2322.0961725729285,2322.0961725729285,2322.0961725729285,2322.0961725729285,l,1.2165917850797996,10,176,0,2323.3310471209697,2324.8305654749274,2324.8305654749274,2325.3304535360076,,,,,,,,,,,,,,,,,,,,,,,,,,,,,,,,,,,,,,,,,,,,,,,,,,,,,,,,,,,,,,,,,,,,,75773,2022-11-10_11h39.14.067,vts_reward_expectancy_bt_OFFLINE,2022.2.4,61.11879019335923,
0,0,0,1,0,0,1,0,star,hexagon,0,0,0,0,2,8,32,11,,,,,,,,,,,,,,,,,,,,,,,,,,,,,,,,,,,,,,,,2325.3304535360076,2325.3304535360076,2325.3304535360076,2325.3304535360076,2325.3304535360076,2325.3304535360076,2325.3304535360076,2325.3304535360076,2325.3304535360076,2325.3304535360076,a,1.3466816850705072,10,186,0,2326.697565270937,2328.1998510889243,,,,,,,,,,,,,,,,,,,,,,,,,,,,,,,,,,,,,,,,,,,,,,,,,,,,,,,,,,,,,,,,,,,,,,,75773,2022-11-10_11h39.14.067,vts_reward_expectancy_bt_OFFLINE,2022.2.4,61.11879019335923,
0,1,0,0,1,0,0,0,circle,triangle,0,0,0,0,2,9,33,3,,,,,,,,,,,,,,,,,,,,,,,,,,,,,,,,,,,,,,,,2328.700253776973,2328.700253776973,2328.700253776973,2328.700253776973,2328.700253776973,2328.700253776973,2328.700253776973,2328.700253776973,2328.700253776973,2328.700253776973,a,1.7677339081419632,10,196,0,2330.5008829209255,2332.0016759019345,2332.0016759019345,,,,,,,,,,,,,,,,,,,,,,,,,,,,,,,,,,,,,,,,,,,,,,,,,,,,,,,,,,,,,,,,,,,,,,75773,2022-11-10_11h39.14.067,vts_reward_expectancy_bt_OFFLINE,2022.2.4,61.11879019335923,
0,0,1,0,1,0,0,0,hexagon,triangle,0,0,0,0,2,10,34,6,,,,,,,,,,,,,,,,,,,,,,,,,,,,,,,,,,,,,,,,2332.503402140923,2332.503402140923,2332.503402140923,2332.503402140923,2332.503402140923,2332.503402140923,2332.503402140923,2332.503402140923,2332.503402140923,2332.503402140923,l,3.8262031980557367,1,197,0,2336.3561072039884,2337.857139350963,,,,,,,,,,,,,,,,,,,,,,,,,,,,,,,,,,,,,,,,,,,,,,,,,,,,,,,,,,,,,,,,,,,,,,,75773,2022-11-10_11h39.14.067,vts_reward_expectancy_bt_OFFLINE,2022.2.4,61.11879019335923,
1,0,0,0,0,1,0,0,triangle,circle,0,0,0,0,2,11,35,0,,,,,,,,,,,,,,,,,,,,,,,,,,,,,,,,,,,,,,,,2338.357569587999,2338.357569587999,2338.357569587999,2338.357569587999,2338.357569587999,2338.357569587999,2338.357569587999,2338.357569587999,2338.357569587999,2338.357569587999,l,1.6740699131041765,10,207,0,2340.0595224850113,2341.5752418179763,,,,,,,,,,,,,,,,,,,,,,,,,,,,,,,,,,,,,,,,,,,,,,,,,,,,,,,,,,,,,,,,,,,,,,,75773,2022-11-10_11h39.14.067,vts_reward_expectancy_bt_OFFLINE,2022.2.4,61.11879019335923,
0,0,1,0,1,0,0,0,hexagon,triangle,0,0,0,0,3,0,36,6,,,,,,,,,,,,,,,,,,,,,,,,,,,,,,,,,,,,,,,,2342.0624121059664,2342.0624121059664,2342.0624121059664,2342.0624121059664,2342.0624121059664,2342.0624121059664,2342.0624121059664,2342.0624121059664,2342.0624121059664,2342.0624121059664,a,1.378474620054476,10,217,0,2343.46100210899,2344.9614549299004,2344.9614549299004,2345.461692102952,,,,,,,,,,,,,,,,,,,,,,,,,,,,,,,,,,,,,,,,,,,,,,,,,,,,,,,,,,,,,,,,,,,,,75773,2022-11-10_11h39.14.067,vts_reward_expectancy_bt_OFFLINE,2022.2.4,61.11879019335923,
1,0,0,0,0,0,0,1,triangle,star,0,0,0,0,3,1,37,2,,,,,,,,,,,,,,,,,,,,,,,,,,,,,,,,,,,,,,,,2345.461692102952,2345.461692102952,2345.461692102952,2345.461692102952,2345.461692102952,2345.461692102952,2345.461692102952,2345.461692102952,2345.461692102952,2345.461692102952,l,1.0269104200415313,10,227,0,2346.511986046913,2348.0145451369463,,,,,,,,,,,,,,,,,,,,,,,,,,,,,,,,,,,,,,,,,,,,,,,,,,,,,,,,,,,,,,,,,,,,,,,75773,2022-11-10_11h39.14.067,vts_reward_expectancy_bt_OFFLINE,2022.2.4,61.11879019335923,
0,0,1,0,0,1,0,0,hexagon,circle,0,0,0,0,3,2,38,7,,,,,,,,,,,,,,,,,,,,,,,,,,,,,,,,,,,,,,,,2348.514773358009,2348.514773358009,2348.514773358009,2348.514773358009,2348.514773358009,2348.514773358009,2348.514773358009,2348.514773358009,2348.514773358009,2348.514773358009,l,1.4279685111250728,10,237,0,2349.9651978319744,2351.465668199933,2351.465668199933,2351.9657720449613,,,,,,,,,,,,,,,,,,,,,,,,,,,,,,,,,,,,,,,,,,,,,,,,,,,,,,,,,,,,,,,,,,,,,75773,2022-11-10_11h39.14.067,vts_reward_expectancy_bt_OFFLINE,2022.2.4,61.11879019335923,
0,1,0,0,0,0,0,1,circle,star,0,0,0,0,3,3,39,5,,,,,,,,,,,,,,,,,,,,,,,,,,,,,,,,,,,,,,,,2351.9657720449613,2351.9657720449613,2351.9657720449613,2351.9657720449613,2351.9657720449613,2351.9657720449613,2351.9657720449613,2351.9657720449613,2351.9657720449613,2351.9657720449613,a,2.1965279050637037,10,247,0,2354.185339750955,2355.68564806995,2355.68564806995,2356.1859029110055,,,,,,,,,,,,,,,,,,,,,,,,,,,,,,,,,,,,,,,,,,,,,,,,,,,,,,,,,,,,,,,,,,,,,75773,2022-11-10_11h39.14.067,vts_reward_expectancy_bt_OFFLINE,2022.2.4,61.11879019335923,
0,0,1,0,0,0,0,1,hexagon,star,0,0,0,0,3,4,40,8,,,,,,,,,,,,,,,,,,,,,,,,,,,,,,,,,,,,,,,,2356.1859029110055,2356.1859029110055,2356.1859029110055,2356.1859029110055,2356.1859029110055,2356.1859029110055,2356.1859029110055,2356.1859029110055,2356.1859029110055,2356.1859029110055,l,2.397384601063095,10,257,0,2358.605389868957,2360.10589932499,2360.10589932499,2360.606033536955,,,,,,,,,,,,,,,,,,,,,,,,,,,,,,,,,,,,,,,,,,,,,,,,,,,,,,,,,,,,,,,,,,,,,75773,2022-11-10_11h39.14.067,vts_reward_expectancy_bt_OFFLINE,2022.2.4,61.11879019335923,
0,0,0,1,0,1,0,0,star ,circle,0,0,0,0,3,5,41,10,,,,,,,,,,,,,,,,,,,,,,,,,,,,,,,,,,,,,,,,2360.606033536955,2360.606033536955,2360.606033536955,2360.606033536955,2360.606033536955,2360.606033536955,2360.606033536955,2360.606033536955,2360.606033536955,2360.606033536955,l,1.3861225481377915,10,267,0,2362.0232608779334,2363.525687003974,,,,,,,,,,,,,,,,,,,,,,,,,,,,,,,,,,,,,,,,,,,,,,,,,,,,,,,,,,,,,,,,,,,,,,,75773,2022-11-10_11h39.14.067,vts_reward_expectancy_bt_OFFLINE,2022.2.4,61.11879019335923,
1,0,0,0,0,1,0,0,triangle,circle,0,0,0,0,3,6,42,0,,,,,,,,,,,,,,,,,,,,,,,,,,,,,,,,,,,,,,,,2364.025853723986,2364.025853723986,2364.025853723986,2364.025853723986,2364.025853723986,2364.025853723986,2364.025853723986,2364.025853723986,2364.025853723986,2364.025853723986,l,1.3861278641270474,10,277,0,2365.443234396982,2366.943643025006,2366.943643025006,,,,,,,,,,,,,,,,,,,,,,,,,,,,,,,,,,,,,,,,,,,,,,,,,,,,,,,,,,,,,,,,,,,,,,75773,2022-11-10_11h39.14.067,vts_reward_expectancy_bt_OFFLINE,2022.2.4,61.11879019335923,
0,0,0,1,1,0,0,0,star,triangle,0,0,0,0,3,7,43,9,,,,,,,,,,,,,,,,,,,,,,,,,,,,,,,,,,,,,,,,2367.4455479820026,2367.4455479820026,2367.4455479820026,2367.4455479820026,2367.4455479820026,2367.4455479820026,2367.4455479820026,2367.4455479820026,2367.4455479820026,2367.4455479820026,a,1.387375706108287,10,287,0,2368.862780900905,2370.3629480779637,2370.3629480779637,2370.863336173934,,,,,,,,,,,,,,,,,,,,,,,,,,,,,,,,,,,,,,,,,,,,,,,,,,,,,,,,,,,,,,,,,,,,,75773,2022-11-10_11h39.14.067,vts_reward_expectancy_bt_OFFLINE,2022.2.4,61.11879019335923,
0,1,0,0,0,0,1,0,circle,hexagon,0,0,0,0,3,8,44,4,,,,,,,,,,,,,,,,,,,,,,,,,,,,,,,,,,,,,,,,2370.863336173934,2370.863336173934,2370.863336173934,2370.863336173934,2370.863336173934,2370.863336173934,2370.863336173934,2370.863336173934,2370.863336173934,2370.863336173934,a,0.9504984761588275,10,297,0,2371.830515136011,2373.3330248749116,,,,,,,,,,,,,,,,,,,,,,,,,,,,,,,,,,,,,,,,,,,,,,,,,,,,,,,,,,,,,,,,,,,,,,,75773,2022-11-10_11h39.14.067,vts_reward_expectancy_bt_OFFLINE,2022.2.4,61.11879019335923,
0,0,0,1,0,0,1,0,star,hexagon,0,0,0,0,3,9,45,11,,,,,,,,,,,,,,,,,,,,,,,,,,,,,,,,,,,,,,,,2373.8329061279073,2373.8329061279073,2373.8329061279073,2373.8329061279073,2373.8329061279073,2373.8329061279073,2373.8329061279073,2373.8329061279073,2373.8329061279073,2373.8329061279073,a,1.0521047620568424,10,307,0,2374.9167337769177,2376.417310015997,2376.417310015997,2376.9173435219564,,,,,,,,,,,,,,,,,,,,,,,,,,,,,,,,,,,,,,,,,,,,,,,,,,,,,,,,,,,,,,,,,,,,,75773,2022-11-10_11h39.14.067,vts_reward_expectancy_bt_OFFLINE,2022.2.4,61.11879019335923,
1,0,0,0,0,0,1,0,triangle,hexagon,0,0,0,0,3,10,46,1,,,,,,,,,,,,,,,,,,,,,,,,,,,,,,,,,,,,,,,,2376.9173435219564,2376.9173435219564,2376.9173435219564,2376.9173435219564,2376.9173435219564,2376.9173435219564,2376.9173435219564,2376.9173435219564,2376.9173435219564,2376.9173435219564,a,1.9166784101398662,10,317,0,2378.85333569895,2380.3539738639956,2380.3539738639956,2380.854088547989,,,,,,,,,,,,,,,,,,,,,,,,,,,,,,,,,,,,,,,,,,,,,,,,,,,,,,,,,,,,,,,,,,,,,75773,2022-11-10_11h39.14.067,vts_reward_expectancy_bt_OFFLINE,2022.2.4,61.11879019335923,
0,1,0,0,1,0,0,0,circle,triangle,0,0,0,0,3,11,47,3,,,,,,,,,,,,,,,,,,,,,,,,,,,,,,,,,,,,,,,,2380.854088547989,2380.854088547989,2380.854088547989,2380.854088547989,2380.854088547989,2380.854088547989,2380.854088547989,2380.854088547989,2380.854088547989,2380.854088547989,a,0.9838928719982505,10,327,0,2381.8710787019227,2383.3733268579235,,,,,,,,,,,,,,,,,,,,,,,,,,,,,,,,,,,,,,,,,,,,,,,,,,,,,,,,,,,,,,,,,,,,,,,75773,2022-11-10_11h39.14.067,vts_reward_expectancy_bt_OFFLINE,2022.2.4,61.11879019335923,
0,0,1,0,0,1,0,0,hexagon,circle,1,0,1,0,0,0,0,7,,,,,,,,,,,,,,,,,,,,,,,,,,,,,,,,,,,,,,,,2389.137885164935,2389.137885164935,2389.137885164935,2389.137885164935,2389.137885164935,2389.137885164935,2389.137885164935,2389.137885164935,2389.137885164935,2389.137885164935,l,1.8806455060839653,10,337,1,2391.0447430899367,2392.5470877029,,,,,,,,,,,,,,,,,,,,,,,,,,,,,,,,,,,,,,,,,,,,,,,,,,,,,,,,,,,,,,,,,,,,,,,75773,2022-11-10_11h39.14.067,vts_reward_expectancy_bt_OFFLINE,2022.2.4,61.11879019335923,
0,1,0,0,1,0,0,0,circle,triangle,1,0,1,0,0,1,1,3,,,,,,,,,,,,,,,,,,,,,,,,,,,,,,,,,,,,,,,,2393.047485924908,2393.047485924908,2393.047485924908,2393.047485924908,2393.047485924908,2393.047485924908,2393.047485924908,2393.047485924908,2393.047485924908,2393.047485924908,a,1.110801097122021,10,347,1,2394.1810119969305,2395.6813698239857,2395.6813698239857,2396.1818532209145,,,,,,,,,,,,,,,,,,,,,,,,,,,,,,,,,,,,,,,,,,,,,,,,,,,,,,,,,,,,,,,,,,,,,75773,2022-11-10_11h39.14.067,vts_reward_expectancy_bt_OFFLINE,2022.2.4,61.11879019335923,
0,0,0,1,1,0,0,0,star,triangle,1,0,1,0,0,2,2,9,,,,,,,,,,,,,,,,,,,,,,,,,,,,,,,,,,,,,,,,2396.1818532209145,2396.1818532209145,2396.1818532209145,2396.1818532209145,2396.1818532209145,2396.1818532209145,2396.1818532209145,2396.1818532209145,2396.1818532209145,2396.1818532209145,a,0.7437566921580583,10,357,1,2396.948527543922,2398.4511255519465,,,,,,,,,,,,,,,,,,,,,,,,,,,,,,,,,,,,,,,,,,,,,,,,,,,,,,,,,,,,,,,,,,,,,,,75773,2022-11-10_11h39.14.067,vts_reward_expectancy_bt_OFFLINE,2022.2.4,61.11879019335923,
0,0,0,1,0,0,1,0,star,hexagon,1,0,1,0,0,3,3,11,,,,,,,,,,,,,,,,,,,,,,,,,,,,,,,,,,,,,,,,2398.9510820469586,2398.9510820469586,2398.9510820469586,2398.9510820469586,2398.9510820469586,2398.9510820469586,2398.9510820469586,2398.9510820469586,2398.9510820469586,2398.9510820469586,a,0.6523504840442911,10,367,1,2399.6349982619286,2401.135386299924,2401.135386299924,2401.635474395938,,,,,,,,,,,,,,,,,,,,,,,,,,,,,,,,,,,,,,,,,,,,,,,,,,,,,,,,,,,,,,,,,,,,,75773,2022-11-10_11h39.14.067,vts_reward_expectancy_bt_OFFLINE,2022.2.4,61.11879019335923,
0,0,1,0,0,0,0,1,hexagon,star,1,0,1,0,0,4,4,8,,,,,,,,,,,,,,,,,,,,,,,,,,,,,,,,,,,,,,,,2401.635474395938,2401.635474395938,2401.635474395938,2401.635474395938,2401.635474395938,2401.635474395938,2401.635474395938,2401.635474395938,2401.635474395938,2401.635474395938,l,0.7472455661045387,10,377,1,2402.4042559519876,2403.904782391968,2403.904782391968,2404.404987399932,,,,,,,,,,,,,,,,,,,,,,,,,,,,,,,,,,,,,,,,,,,,,,,,,,,,,,,,,,,,,,,,,,,,,75773,2022-11-10_11h39.14.067,vts_reward_expectancy_bt_OFFLINE,2022.2.4,61.11879019335923,
1,0,0,0,0,0,1,0,triangle,hexagon,1,0,1,0,0,5,5,1,,,,,,,,,,,,,,,,,,,,,,,,,,,,,,,,,,,,,,,,2404.404987399932,2404.404987399932,2404.404987399932,2404.404987399932,2404.404987399932,2404.404987399932,2404.404987399932,2404.404987399932,2404.404987399932,2404.404987399932,a,2.061515340115875,1,378,1,2406.490269951988,2407.991634853999,,,,,,,,,,,,,,,,,,,,,,,,,,,,,,,,,,,,,,,,,,,,,,,,,,,,,,,,,,,,,,,,,,,,,,,75773,2022-11-10_11h39.14.067,vts_reward_expectancy_bt_OFFLINE,2022.2.4,61.11879019335923,
1,0,0,0,0,1,0,0,triangle,circle,1,0,1,0,0,6,6,0,,,,,,,,,,,,,,,,,,,,,,,,,,,,,,,,,,,,,,,,2408.4917201229837,2408.4917201229837,2408.4917201229837,2408.4917201229837,2408.4917201229837,2408.4917201229837,2408.4917201229837,2408.4917201229837,2408.4917201229837,2408.4917201229837,l,0.9439355510985479,10,388,1,2409.4601071969373,2410.9592830529436,2410.9592830529436,2411.4594508099835,,,,,,,,,,,,,,,,,,,,,,,,,,,,,,,,,,,,,,,,,,,,,,,,,,,,,,,,,,,,,,,,,,,,,75773,2022-11-10_11h39.14.067,vts_reward_expectancy_bt_OFFLINE,2022.2.4,61.11879019335923,
0,1,0,0,0,0,0,1,circle,star,1,0,1,0,0,7,7,5,,,,,,,,,,,,,,,,,,,,,,,,,,,,,,,,,,,,,,,,2411.4594508099835,2411.4594508099835,2411.4594508099835,2411.4594508099835,2411.4594508099835,2411.4594508099835,2411.4594508099835,2411.4594508099835,2411.4594508099835,2411.4594508099835,a,1.1153942751698196,1,389,1,2412.5960314699914,2414.0956251289463,2414.0956251289463,2414.595834667911,,,,,,,,,,,,,,,,,,,,,,,,,,,,,,,,,,,,,,,,,,,,,,,,,,,,,,,,,,,,,,,,,,,,,75773,2022-11-10_11h39.14.067,vts_reward_expectancy_bt_OFFLINE,2022.2.4,61.11879019335923,
0,0,1,0,1,0,0,0,hexagon,triangle,1,0,1,0,0,8,8,6,,,,,,,,,,,,,,,,,,,,,,,,,,,,,,,,,,,,,,,,2414.595834667911,2414.595834667911,2414.595834667911,2414.595834667911,2414.595834667911,2414.595834667911,2414.595834667911,2414.595834667911,2414.595834667911,2414.595834667911,a,4.943033431074582,1,390,1,2419.5660847309045,2421.066553656943,2421.066553656943,2421.5666828289395,,,,,,,,,,,,,,,,,,,,,,,,,,,,,,,,,,,,,,,,,,,,,,,,,,,,,,,,,,,,,,,,,,,,,75773,2022-11-10_11h39.14.067,vts_reward_expectancy_bt_OFFLINE,2022.2.4,61.11879019335923,
1,0,0,0,0,0,0,1,triangle,star,1,0,1,0,0,9,9,2,,,,,,,,,,,,,,,,,,,,,,,,,,,,,,,,,,,,,,,,2421.5666828289395,2421.5666828289395,2421.5666828289395,2421.5666828289395,2421.5666828289395,2421.5666828289395,2421.5666828289395,2421.5666828289395,2421.5666828289395,2421.5666828289395,l,1.583450956037268,10,400,1,2423.170474248007,2424.6696876069764,2424.6696876069764,,,,,,,,,,,,,,,,,,,,,,,,,,,,,,,,,,,,,,,,,,,,,,,,,,,,,,,,,,,,,,,,,,,,,,75773,2022-11-10_11h39.14.067,vts_reward_expectancy_bt_OFFLINE,2022.2.4,61.11879019335923,
0,0,0,1,0,1,0,0,star ,circle,1,0,1,0,0,10,10,10,,,,,,,,,,,,,,,,,,,,,,,,,,,,,,,,,,,,,,,,2425.16991701792,2425.16991701792,2425.16991701792,2425.16991701792,2425.16991701792,2425.16991701792,2425.16991701792,2425.16991701792,2425.16991701792,2425.16991701792,a,0.826648622052744,10,410,1,2426.020272271009,2427.5225492760073,,,,,,,,,,,,,,,,,,,,,,,,,,,,,,,,,,,,,,,,,,,,,,,,,,,,,,,,,,,,,,,,,,,,,,,75773,2022-11-10_11h39.14.067,vts_reward_expectancy_bt_OFFLINE,2022.2.4,61.11879019335923,
0,1,0,0,0,0,1,0,circle,hexagon,1,0,1,0,0,11,11,4,,,,,,,,,,,,,,,,,,,,,,,,,,,,,,,,,,,,,,,,2428.022714597988,2428.022714597988,2428.022714597988,2428.022714597988,2428.022714597988,2428.022714597988,2428.022714597988,2428.022714597988,2428.022714597988,2428.022714597988,a,1.8328113701427355,10,420,1,2429.8734865209553,2431.3742156429216,2431.3742156429216,2431.874160039006,,,,,,,,,,,,,,,,,,,,,,,,,,,,,,,,,,,,,,,,,,,,,,,,,,,,,,,,,,,,,,,,,,,,,75773,2022-11-10_11h39.14.067,vts_reward_expectancy_bt_OFFLINE,2022.2.4,61.11879019335923,
1,0,0,0,0,1,0,0,triangle,circle,1,0,1,0,1,0,12,0,,,,,,,,,,,,,,,,,,,,,,,,,,,,,,,,,,,,,,,,2431.874160039006,2431.874160039006,2431.874160039006,2431.874160039006,2431.874160039006,2431.874160039006,2431.874160039006,2431.874160039006,2431.874160039006,2431.874160039006,l,1.9193751831771806,1,421,1,2433.8116413209355,2435.3270918349735,,,,,,,,,,,,,,,,,,,,,,,,,,,,,,,,,,,,,,,,,,,,,,,,,,,,,,,,,,,,,,,,,,,,,,,75773,2022-11-10_11h39.14.067,vts_reward_expectancy_bt_OFFLINE,2022.2.4,61.11879019335923,
0,1,0,0,0,0,0,1,circle,star,1,0,1,0,1,1,13,5,,,,,,,,,,,,,,,,,,,,,,,,,,,,,,,,,,,,,,,,2435.827263109968,2435.827263109968,2435.827263109968,2435.827263109968,2435.827263109968,2435.827263109968,2435.827263109968,2435.827263109968,2435.827263109968,2435.827263109968,l,1.5885813040658832,10,431,1,2437.4475213029655,2438.946987891919,2438.946987891919,,,,,,,,,,,,,,,,,,,,,,,,,,,,,,,,,,,,,,,,,,,,,,,,,,,,,,,,,,,,,,,,,,,,,,75773,2022-11-10_11h39.14.067,vts_reward_expectancy_bt_OFFLINE,2022.2.4,61.11879019335923,
0,1,0,0,1,0,0,0,circle,triangle,1,0,1,0,1,2,14,3,,,,,,,,,,,,,,,,,,,,,,,,,,,,,,,,,,,,,,,,2439.4473787099123,2439.4473787099123,2439.4473787099123,2439.4473787099123,2439.4473787099123,2439.4473787099123,2439.4473787099123,2439.4473787099123,2439.4473787099123,2439.4473787099123,l,0.8487850860692561,1,432,1,2440.3154968179297,2441.8147042999044,2441.8147042999044,,,,,,,,,,,,,,,,,,,,,,,,,,,,,,,,,,,,,,,,,,,,,,,,,,,,,,,,,,,,,,,,,,,,,,75773,2022-11-10_11h39.14.067,vts_reward_expectancy_bt_OFFLINE,2022.2.4,61.11879019335923,
0,0,0,1,0,0,1,0,star,hexagon,1,0,1,0,1,3,15,11,,,,,,,,,,,,,,,,,,,,,,,,,,,,,,,,,,,,,,,,2442.316880374914,2442.316880374914,2442.316880374914,2442.316880374914,2442.316880374914,2442.316880374914,2442.316880374914,2442.316880374914,2442.316880374914,2442.316880374914,a,4.730166205088608,10,442,1,2447.069738522987,2448.5709997749655,,,,,,,,,,,,,,,,,,,,,,,,,,,,,,,,,,,,,,,,,,,,,,,,,,,,,,,,,,,,,,,,,,,,,,,75773,2022-11-10_11h39.14.067,vts_reward_expectancy_bt_OFFLINE,2022.2.4,61.11879019335923,
1,0,0,0,0,0,0,1,triangle,star,1,0,1,0,1,4,16,2,,,,,,,,,,,,,,,,,,,,,,,,,,,,,,,,,,,,,,,,2449.070912575,2449.070912575,2449.070912575,2449.070912575,2449.070912575,2449.070912575,2449.070912575,2449.070912575,2449.070912575,2449.070912575,l,1.4634027631254867,10,452,1,2450.554860114935,2452.0554528209614,2452.0554528209614,,,,,,,,,,,,,,,,,,,,,,,,,,,,,,,,,,,,,,,,,,,,,,,,,,,,,,,,,,,,,,,,,,,,,,75773,2022-11-10_11h39.14.067,vts_reward_expectancy_bt_OFFLINE,2022.2.4,61.11879019335923,
0,0,0,1,1,0,0,0,star,triangle,1,0,1,0,1,5,17,9,,,,,,,,,,,,,,,,,,,,,,,,,,,,,,,,,,,,,,,,2452.5575135688996,2452.5575135688996,2452.5575135688996,2452.5575135688996,2452.5575135688996,2452.5575135688996,2452.5575135688996,2452.5575135688996,2452.5575135688996,2452.5575135688996,a,1.0257422970607877,10,462,1,2453.6079016999574,2455.1082374739926,2455.1082374739926,,,,,,,,,,,,,,,,,,,,,,,,,,,,,,,,,,,,,,,,,,,,,,,,,,,,,,,,,,,,,,,,,,,,,,75773,2022-11-10_11h39.14.067,vts_reward_expectancy_bt_OFFLINE,2022.2.4,61.11879019335923,
0,1,0,0,0,0,1,0,circle,hexagon,1,0,1,0,1,6,18,4,,,,,,,,,,,,,,,,,,,,,,,,,,,,,,,,,,,,,,,,2455.60856309894,2455.60856309894,2455.60856309894,2455.60856309894,2455.60856309894,2455.60856309894,2455.60856309894,2455.60856309894,2455.60856309894,2455.60856309894,a,2.1604391840519384,10,472,1,2457.794508105959,2459.295105381985,2459.295105381985,2459.795373080997,,,,,,,,,,,,,,,,,,,,,,,,,,,,,,,,,,,,,,,,,,,,,,,,,,,,,,,,,,,,,,,,,,,,,75773,2022-11-10_11h39.14.067,vts_reward_expectancy_bt_OFFLINE,2022.2.4,61.11879019335923,
0,0,0,1,0,1,0,0,star ,circle,1,0,1,0,1,7,19,10,,,,,,,,,,,,,,,,,,,,,,,,,,,,,,,,,,,,,,,,2459.795373080997,2459.795373080997,2459.795373080997,2459.795373080997,2459.795373080997,2459.795373080997,2459.795373080997,2459.795373080997,2459.795373080997,2459.795373080997,a,1.2466820161789656,10,482,1,2461.0622215520125,2462.5647723929724,,,,,,,,,,,,,,,,,,,,,,,,,,,,,,,,,,,,,,,,,,,,,,,,,,,,,,,,,,,,,,,,,,,,,,,75773,2022-11-10_11h39.14.067,vts_reward_expectancy_bt_OFFLINE,2022.2.4,61.11879019335923,
0,0,1,0,0,1,0,0,hexagon,circle,1,0,1,0,1,8,20,7,,,,,,,,,,,,,,,,,,,,,,,,,,,,,,,,,,,,,,,,2463.0648662869353,2463.0648662869353,2463.0648662869353,2463.0648662869353,2463.0648662869353,2463.0648662869353,2463.0648662869353,2463.0648662869353,2463.0648662869353,2463.0648662869353,a,2.578935958095826,1,483,1,2465.6669153639814,2467.168456515996,,,,,,,,,,,,,,,,,,,,,,,,,,,,,,,,,,,,,,,,,,,,,,,,,,,,,,,,,,,,,,,,,,,,,,,75773,2022-11-10_11h39.14.067,vts_reward_expectancy_bt_OFFLINE,2022.2.4,61.11879019335923,
0,0,1,0,1,0,0,0,hexagon,triangle,1,0,1,0,1,9,21,6,,,,,,,,,,,,,,,,,,,,,,,,,,,,,,,,,,,,,,,,2467.6683325559134,2467.6683325559134,2467.6683325559134,2467.6683325559134,2467.6683325559134,2467.6683325559134,2467.6683325559134,2467.6683325559134,2467.6683325559134,2467.6683325559134,l,2.836212891037576,1,484,1,2470.536112023983,2472.0367966659833,2472.0367966659833,,,,,,,,,,,,,,,,,,,,,,,,,,,,,,,,,,,,,,,,,,,,,,,,,,,,,,,,,,,,,,,,,,,,,,75773,2022-11-10_11h39.14.067,vts_reward_expectancy_bt_OFFLINE,2022.2.4,61.11879019335923,
1,0,0,0,0,0,1,0,triangle,hexagon,1,0,1,0,1,10,22,1,,,,,,,,,,,,,,,,,,,,,,,,,,,,,,,,,,,,,,,,2472.5385555499233,2472.5385555499233,2472.5385555499233,2472.5385555499233,2472.5385555499233,2472.5385555499233,2472.5385555499233,2472.5385555499233,2472.5385555499233,2472.5385555499233,l,1.4866071260767058,10,494,1,2474.0574009199627,2475.5562502510147,2475.5562502510147,2476.0566987770144,,,,,,,,,,,,,,,,,,,,,,,,,,,,,,,,,,,,,,,,,,,,,,,,,,,,,,,,,,,,,,,,,,,,,75773,2022-11-10_11h39.14.067,vts_reward_expectancy_bt_OFFLINE,2022.2.4,61.11879019335923,
0,0,1,0,0,0,0,1,hexagon,star,1,0,1,0,1,11,23,8,,,,,,,,,,,,,,,,,,,,,,,,,,,,,,,,,,,,,,,,2476.0566987770144,2476.0566987770144,2476.0566987770144,2476.0566987770144,2476.0566987770144,2476.0566987770144,2476.0566987770144,2476.0566987770144,2476.0566987770144,2476.0566987770144,l,1.345057916129008,10,504,1,2477.4256987629924,2478.926099472912,2478.926099472912,2479.426395488903,,,,,,,,,,,,,,,,,,,,,,,,,,,,,,,,,,,,,,,,,,,,,,,,,,,,,,,,,,,,,,,,,,,,,75773,2022-11-10_11h39.14.067,vts_reward_expectancy_bt_OFFLINE,2022.2.4,61.11879019335923,
0,0,1,0,0,0,0,1,hexagon,star,1,0,1,0,2,0,24,8,,,,,,,,,,,,,,,,,,,,,,,,,,,,,,,,,,,,,,,,2479.426395488903,2479.426395488903,2479.426395488903,2479.426395488903,2479.426395488903,2479.426395488903,2479.426395488903,2479.426395488903,2479.426395488903,2479.426395488903,l,1.1590467831119895,10,514,1,2480.61016647995,2482.1105316849425,2482.1105316849425,,,,,,,,,,,,,,,,,,,,,,,,,,,,,,,,,,,,,,,,,,,,,,,,,,,,,,,,,,,,,,,,,,,,,,75773,2022-11-10_11h39.14.067,vts_reward_expectancy_bt_OFFLINE,2022.2.4,61.11879019335923,
1,0,0,0,0,0,1,0,triangle,hexagon,1,0,1,0,2,1,25,1,,,,,,,,,,,,,,,,,,,,,,,,,,,,,,,,,,,,,,,,2482.612581494963,2482.612581494963,2482.612581494963,2482.612581494963,2482.612581494963,2482.612581494963,2482.612581494963,2482.612581494963,2482.612581494963,2482.612581494963,l,2.404523291043006,1,515,1,2485.048076862935,2486.5474391279276,2486.5474391279276,,,,,,,,,,,,,,,,,,,,,,,,,,,,,,,,,,,,,,,,,,,,,,,,,,,,,,,,,,,,,,,,,,,,,,75773,2022-11-10_11h39.14.067,vts_reward_expectancy_bt_OFFLINE,2022.2.4,61.11879019335923,
0,1,0,0,1,0,0,0,circle,triangle,1,0,1,0,2,2,26,3,,,,,,,,,,,,,,,,,,,,,,,,,,,,,,,,,,,,,,,,2487.0474249549443,2487.0474249549443,2487.0474249549443,2487.0474249549443,2487.0474249549443,2487.0474249549443,2487.0474249549443,2487.0474249549443,2487.0474249549443,2487.0474249549443,a,2.019928915076889,10,525,1,2489.1002525689546,2490.6004802659154,2490.6004802659154,2491.100878653,,,,,,,,,,,,,,,,,,,,,,,,,,,,,,,,,,,,,,,,,,,,,,,,,,,,,,,,,,,,,,,,,,,,,75773,2022-11-10_11h39.14.067,vts_reward_expectancy_bt_OFFLINE,2022.2.4,61.11879019335923,
0,0,0,1,1,0,0,0,star,triangle,1,0,1,0,2,3,27,9,,,,,,,,,,,,,,,,,,,,,,,,,,,,,,,,,,,,,,,,2491.100878653,2491.100878653,2491.100878653,2491.100878653,2491.100878653,2491.100878653,2491.100878653,2491.100878653,2491.100878653,2491.100878653,a,4.413512532133609,1,526,1,2495.5393727329792,2497.0550177060068,,,,,,,,,,,,,,,,,,,,,,,,,,,,,,,,,,,,,,,,,,,,,,,,,,,,,,,,,,,,,,,,,,,,,,,75773,2022-11-10_11h39.14.067,vts_reward_expectancy_bt_OFFLINE,2022.2.4,61.11879019335923,
1,0,0,0,0,0,0,1,triangle,star,1,0,1,0,2,4,28,2,,,,,,,,,,,,,,,,,,,,,,,,,,,,,,,,,,,,,,,,2497.540089746937,2497.540089746937,2497.540089746937,2497.540089746937,2497.540089746937,2497.540089746937,2497.540089746937,2497.540089746937,2497.540089746937,2497.540089746937,l,1.2936336130369455,10,536,1,2498.8595207529142,2500.3746222719783,,,,,,,,,,,,,,,,,,,,,,,,,,,,,,,,,,,,,,,,,,,,,,,,,,,,,,,,,,,,,,,,,,,,,,,75773,2022-11-10_11h39.14.067,vts_reward_expectancy_bt_OFFLINE,2022.2.4,61.11879019335923,
0,0,0,1,0,1,0,0,star ,circle,1,0,1,0,2,5,29,10,,,,,,,,,,,,,,,,,,,,,,,,,,,,,,,,,,,,,,,,2500.874722394976,2500.874722394976,2500.874722394976,2500.874722394976,2500.874722394976,2500.874722394976,2500.874722394976,2500.874722394976,2500.874722394976,2500.874722394976,a,1.7500921870814636,10,546,1,2502.643890876905,2504.1443408809137,2504.1443408809137,2504.644790309947,,,,,,,,,,,,,,,,,,,,,,,,,,,,,,,,,,,,,,,,,,,,,,,,,,,,,,,,,,,,,,,,,,,,,75773,2022-11-10_11h39.14.067,vts_reward_expectancy_bt_OFFLINE,2022.2.4,61.11879019335923,
0,1,0,0,0,0,1,0,circle,hexagon,1,0,1,0,2,6,30,4,,,,,,,,,,,,,,,,,,,,,,,,,,,,,,,,,,,,,,,,2504.644790309947,2504.644790309947,2504.644790309947,2504.644790309947,2504.644790309947,2504.644790309947,2504.644790309947,2504.644790309947,2504.644790309947,2504.644790309947,l,3.6286093060625717,1,547,1,2508.2991898379987,2509.7982707580086,2509.7982707580086,2510.29809904797,,,,,,,,,,,,,,,,,,,,,,,,,,,,,,,,,,,,,,,,,,,,,,,,,,,,,,,,,,,,,,,,,,,,,75773,2022-11-10_11h39.14.067,vts_reward_expectancy_bt_OFFLINE,2022.2.4,61.11879019335923,
0,0,1,0,1,0,0,0,hexagon,triangle,1,0,1,0,2,7,31,6,,,,,,,,,,,,,,,,,,,,,,,,,,,,,,,,,,,,,,,,2510.29809904797,2510.29809904797,2510.29809904797,2510.29809904797,2510.29809904797,2510.29809904797,2510.29809904797,2510.29809904797,2510.29809904797,2510.29809904797,a,9.787200344144367,1,548,1,2520.1055421020137,2521.6061854090076,2521.6061854090076,,,,,,,,,,,,,,,,,,,,,,,,,,,,,,,,,,,,,,,,,,,,,,,,,,,,,,,,,,,,,,,,,,,,,,75773,2022-11-10_11h39.14.067,vts_reward_expectancy_bt_OFFLINE,2022.2.4,61.11879019335923,
0,0,1,0,0,1,0,0,hexagon,circle,1,0,1,0,2,8,32,7,,,,,,,,,,,,,,,,,,,,,,,,,,,,,,,,,,,,,,,,2522.1064484069357,2522.1064484069357,2522.1064484069357,2522.1064484069357,2522.1064484069357,2522.1064484069357,2522.1064484069357,2522.1064484069357,2522.1064484069357,2522.1064484069357,l,4.538221492199227,10,558,1,2526.6766056709457,2528.1789967109216,,,,,,,,,,,,,,,,,,,,,,,,,,,,,,,,,,,,,,,,,,,,,,,,,,,,,,,,,,,,,,,,,,,,,,,75773,2022-11-10_11h39.14.067,vts_reward_expectancy_bt_OFFLINE,2022.2.4,61.11879019335923,
0,0,0,1,0,0,1,0,star,hexagon,1,0,1,0,2,9,33,11,,,,,,,,,,,,,,,,,,,,,,,,,,,,,,,,,,,,,,,,2528.679234077921,2528.679234077921,2528.679234077921,2528.679234077921,2528.679234077921,2528.679234077921,2528.679234077921,2528.679234077921,2528.679234077921,2528.679234077921,a,1.2288656450109556,10,568,1,2529.9296388339717,2531.430019845953,2531.430019845953,2531.930081204977,,,,,,,,,,,,,,,,,,,,,,,,,,,,,,,,,,,,,,,,,,,,,,,,,,,,,,,,,,,,,,,,,,,,,75773,2022-11-10_11h39.14.067,vts_reward_expectancy_bt_OFFLINE,2022.2.4,61.11879019335923,
1,0,0,0,0,1,0,0,triangle,circle,1,0,1,0,2,10,34,0,,,,,,,,,,,,,,,,,,,,,,,,,,,,,,,,,,,,,,,,2531.930081204977,2531.930081204977,2531.930081204977,2531.930081204977,2531.930081204977,2531.930081204977,2531.930081204977,2531.930081204977,2531.930081204977,2531.930081204977,l,0.9471784151392058,10,578,1,2532.8992501149187,2534.3999706559116,2534.3999706559116,2534.899883240927,,,,,,,,,,,,,,,,,,,,,,,,,,,,,,,,,,,,,,,,,,,,,,,,,,,,,,,,,,,,,,,,,,,,,75773,2022-11-10_11h39.14.067,vts_reward_expectancy_bt_OFFLINE,2022.2.4,61.11879019335923,
0,1,0,0,0,0,0,1,circle,star,1,0,1,0,2,11,35,5,,,,,,,,,,,,,,,,,,,,,,,,,,,,,,,,,,,,,,,,2534.899883240927,2534.899883240927,2534.899883240927,2534.899883240927,2534.899883240927,2534.899883240927,2534.899883240927,2534.899883240927,2534.899883240927,2534.899883240927,l,2.3210267031099647,10,588,1,2537.2524762649555,2538.753270888934,2538.753270888934,2539.2533834929345,,,,,,,,,,,,,,,,,,,,,,,,,,,,,,,,,,,,,,,,,,,,,,,,,,,,,,,,,,,,,,,,,,,,,75773,2022-11-10_11h39.14.067,vts_reward_expectancy_bt_OFFLINE,2022.2.4,61.11879019335923,
0,0,1,0,0,0,0,1,hexagon,star,1,0,1,0,3,0,36,8,,,,,,,,,,,,,,,,,,,,,,,,,,,,,,,,,,,,,,,,2539.2533834929345,2539.2533834929345,2539.2533834929345,2539.2533834929345,2539.2533834929345,2539.2533834929345,2539.2533834929345,2539.2533834929345,2539.2533834929345,2539.2533834929345,l,0.9375470280647278,10,598,1,2540.220410354901,2541.7207415219164,2541.7207415219164,,,,,,,,,,,,,,,,,,,,,,,,,,,,,,,,,,,,,,,,,,,,,,,,,,,,,,,,,,,,,,,,,,,,,,75773,2022-11-10_11h39.14.067,vts_reward_expectancy_bt_OFFLINE,2022.2.4,61.11879019335923,
0,1,0,0,0,0,1,0,circle,hexagon,1,0,1,0,3,1,37,4,,,,,,,,,,,,,,,,,,,,,,,,,,,,,,,,,,,,,,,,2542.2230398979736,2542.2230398979736,2542.2230398979736,2542.2230398979736,2542.2230398979736,2542.2230398979736,2542.2230398979736,2542.2230398979736,2542.2230398979736,2542.2230398979736,l,2.5237519619986415,1,599,1,2544.77546245791,2546.2908970859135,,,,,,,,,,,,,,,,,,,,,,,,,,,,,,,,,,,,,,,,,,,,,,,,,,,,,,,,,,,,,,,,,,,,,,,75773,2022-11-10_11h39.14.067,vts_reward_expectancy_bt_OFFLINE,2022.2.4,61.11879019335923,
0,0,0,1,0,0,1,0,star,hexagon,1,0,1,0,3,2,38,11,,,,,,,,,,,,,,,,,,,,,,,,,,,,,,,,,,,,,,,,2546.791200440959,2546.791200440959,2546.791200440959,2546.791200440959,2546.791200440959,2546.791200440959,2546.791200440959,2546.791200440959,2546.791200440959,2546.791200440959,a,1.3303868341026828,10,609,1,2548.1447569919983,2549.6441452449653,,,,,,,,,,,,,,,,,,,,,,,,,,,,,,,,,,,,,,,,,,,,,,,,,,,,,,,,,,,,,,,,,,,,,,,75773,2022-11-10_11h39.14.067,vts_reward_expectancy_bt_OFFLINE,2022.2.4,61.11879019335923,
0,0,0,1,1,0,0,0,star,triangle,1,0,1,0,3,3,39,9,,,,,,,,,,,,,,,,,,,,,,,,,,,,,,,,,,,,,,,,2550.144177927985,2550.144177927985,2550.144177927985,2550.144177927985,2550.144177927985,2550.144177927985,2550.144177927985,2550.144177927985,2550.144177927985,2550.144177927985,a,0.6337032470619306,10,619,1,2550.794727726956,2552.2968954779208,,,,,,,,,,,,,,,,,,,,,,,,,,,,,,,,,,,,,,,,,,,,,,,,,,,,,,,,,,,,,,,,,,,,,,,75773,2022-11-10_11h39.14.067,vts_reward_expectancy_bt_OFFLINE,2022.2.4,61.11879019335923,
0,0,1,0,1,0,0,0,hexagon,triangle,1,0,1,0,3,4,40,6,,,,,,,,,,,,,,,,,,,,,,,,,,,,,,,,,,,,,,,,2552.79679215292,2552.79679215292,2552.79679215292,2552.79679215292,2552.79679215292,2552.79679215292,2552.79679215292,2552.79679215292,2552.79679215292,2552.79679215292,a,7.250905700027943,1,620,1,2560.0695307379356,2561.5688545409357,2561.5688545409357,2562.0689684139797,,,,,,,,,,,,,,,,,,,,,,,,,,,,,,,,,,,,,,,,,,,,,,,,,,,,,,,,,,,,,,,,,,,,,75773,2022-11-10_11h39.14.067,vts_reward_expectancy_bt_OFFLINE,2022.2.4,61.11879019335923,
0,0,0,1,0,1,0,0,star ,circle,1,0,1,0,3,5,41,10,,,,,,,,,,,,,,,,,,,,,,,,,,,,,,,,,,,,,,,,2562.0689684139797,2562.0689684139797,2562.0689684139797,2562.0689684139797,2562.0689684139797,2562.0689684139797,2562.0689684139797,2562.0689684139797,2562.0689684139797,2562.0689684139797,a,3.052453912096098,1,621,1,2565.138421282987,2566.6389720760053,2566.6389720760053,2567.1392733450048,,,,,,,,,,,,,,,,,,,,,,,,,,,,,,,,,,,,,,,,,,,,,,,,,,,,,,,,,,,,,,,,,,,,,75773,2022-11-10_11h39.14.067,vts_reward_expectancy_bt_OFFLINE,2022.2.4,61.11879019335923,
0,1,0,0,0,0,0,1,circle,star,1,0,1,0,3,6,42,5,,,,,,,,,,,,,,,,,,,,,,,,,,,,,,,,,,,,,,,,2567.1392733450048,2567.1392733450048,2567.1392733450048,2567.1392733450048,2567.1392733450048,2567.1392733450048,2567.1392733450048,2567.1392733450048,2567.1392733450048,2567.1392733450048,l,1.0882276460761204,10,631,1,2568.2598333599744,2569.775433711009,,,,,,,,,,,,,,,,,,,,,,,,,,,,,,,,,,,,,,,,,,,,,,,,,,,,,,,,,,,,,,,,,,,,,,,75773,2022-11-10_11h39.14.067,vts_reward_expectancy_bt_OFFLINE,2022.2.4,61.11879019335923,
1,0,0,0,0,0,0,1,triangle,star,1,0,1,0,3,7,43,2,,,,,,,,,,,,,,,,,,,,,,,,,,,,,,,,,,,,,,,,2570.275307617965,2570.275307617965,2570.275307617965,2570.275307617965,2570.275307617965,2570.275307617965,2570.275307617965,2570.275307617965,2570.275307617965,2570.275307617965,l,9.685589680098929,1,632,1,2579.9844696049113,2581.499985114904,,,,,,,,,,,,,,,,,,,,,,,,,,,,,,,,,,,,,,,,,,,,,,,,,,,,,,,,,,,,,,,,,,,,,,,75773,2022-11-10_11h39.14.067,vts_reward_expectancy_bt_OFFLINE,2022.2.4,61.11879019335923,
0,1,0,0,1,0,0,0,circle,triangle,1,0,1,0,3,8,44,3,,,,,,,,,,,,,,,,,,,,,,,,,,,,,,,,,,,,,,,,2581.999903628952,2581.999903628952,2581.999903628952,2581.999903628952,2581.999903628952,2581.999903628952,2581.999903628952,2581.999903628952,2581.999903628952,2581.999903628952,l,11.304267066065222,1,633,1,2593.3263993199216,2594.826864755014,2594.826864755014,2595.326856474974,,,,,,,,,,,,,,,,,,,,,,,,,,,,,,,,,,,,,,,,,,,,,,,,,,,,,,,,,,,,,,,,,,,,,75773,2022-11-10_11h39.14.067,vts_reward_expectancy_bt_OFFLINE,2022.2.4,61.11879019335923,
1,0,0,0,0,1,0,0,triangle,circle,1,0,1,0,3,9,45,0,,,,,,,,,,,,,,,,,,,,,,,,,,,,,,,,,,,,,,,,2595.326856474974,2595.326856474974,2595.326856474974,2595.326856474974,2595.326856474974,2595.326856474974,2595.326856474974,2595.326856474974,2595.326856474974,2595.326856474974,l,0.913679315126501,10,643,1,2596.262575328932,2597.7628891379572,,,,,,,,,,,,,,,,,,,,,,,,,,,,,,,,,,,,,,,,,,,,,,,,,,,,,,,,,,,,,,,,,,,,,,,75773,2022-11-10_11h39.14.067,vts_reward_expectancy_bt_OFFLINE,2022.2.4,61.11879019335923,
0,0,1,0,0,1,0,0,hexagon,circle,1,0,1,0,3,10,46,7,,,,,,,,,,,,,,,,,,,,,,,,,,,,,,,,,,,,,,,,2598.263235549908,2598.263235549908,2598.263235549908,2598.263235549908,2598.263235549908,2598.263235549908,2598.263235549908,2598.263235549908,2598.263235549908,2598.263235549908,l,22.70733533706516,10,653,1,2620.995328017976,2622.49777844199,,,,,,,,,,,,,,,,,,,,,,,,,,,,,,,,,,,,,,,,,,,,,,,,,,,,,,,,,,,,,,,,,,,,,,,75773,2022-11-10_11h39.14.067,vts_reward_expectancy_bt_OFFLINE,2022.2.4,61.11879019335923,
1,0,0,0,0,0,1,0,triangle,hexagon,1,0,1,0,3,11,47,1,,,,,,,,,,,,,,,,,,,,,,,,,,,,,,,,,,,,,,,,2622.997875902918,2622.997875902918,2622.997875902918,2622.997875902918,2622.997875902918,2622.997875902918,2622.997875902918,2622.997875902918,2622.997875902918,2622.997875902918,a,3.0230248641455546,1,654,1,2626.051277802908,2627.55134368001,,,,,,,,,,,,,,,,,,,,,,,,,,,,,,,,,,,,,,,,,,,,,,,,,,,,,,,,,,,,,,,,,,,,,,,75773,2022-11-10_11h39.14.067,vts_reward_expectancy_bt_OFFLINE,2022.2.4,61.11879019335923,
0,1,0,0,0,0,1,0,circle,hexagon,2,0,2,0,0,0,0,4,,,,,,,,,,,,,,,,,,,,,,,,,,,,,,,,,,,,,,,,2636.468295595958,2636.468295595958,2636.468295595958,2636.468295595958,2636.468295595958,2636.468295595958,2636.468295595958,2636.468295595958,2636.468295595958,2636.468295595958,l,5.844125333125703,1,655,2,2642.329644706915,2643.829489646014,2643.829489646014,2644.3297490240075,,,,,,,,,,,,,,,,,,,,,,,,,,,,,,,,,,,,,,,,,,,,,,,,,,,,,,,,,,,,,,,,,,,,,75773,2022-11-10_11h39.14.067,vts_reward_expectancy_bt_OFFLINE,2022.2.4,61.11879019335923,
0,0,0,1,1,0,0,0,star,triangle,2,0,2,0,0,1,1,9,,,,,,,,,,,,,,,,,,,,,,,,,,,,,,,,,,,,,,,,2644.3297490240075,2644.3297490240075,2644.3297490240075,2644.3297490240075,2644.3297490240075,2644.3297490240075,2644.3297490240075,2644.3297490240075,2644.3297490240075,2644.3297490240075,a,1.2792515150504187,10,665,2,2645.6316723349737,2647.1472813159926,,,,,,,,,,,,,,,,,,,,,,,,,,,,,,,,,,,,,,,,,,,,,,,,,,,,,,,,,,,,,,,,,,,,,,,75773,2022-11-10_11h39.14.067,vts_reward_expectancy_bt_OFFLINE,2022.2.4,61.11879019335923,
0,1,0,0,1,0,0,0,circle,triangle,2,0,2,0,0,2,2,3,,,,,,,,,,,,,,,,,,,,,,,,,,,,,,,,,,,,,,,,2647.632725197007,2647.632725197007,2647.632725197007,2647.632725197007,2647.632725197007,2647.632725197007,2647.632725197007,2647.632725197007,2647.632725197007,2647.632725197007,l,2.4426076010568067,1,666,2,2650.1022719199536,2651.6174507859396,,,,,,,,,,,,,,,,,,,,,,,,,,,,,,,,,,,,,,,,,,,,,,,,,,,,,,,,,,,,,,,,,,,,,,,75773,2022-11-10_11h39.14.067,vts_reward_expectancy_bt_OFFLINE,2022.2.4,61.11879019335923,
0,0,0,1,0,1,0,0,star ,circle,2,0,2,0,0,3,3,10,,,,,,,,,,,,,,,,,,,,,,,,,,,,,,,,,,,,,,,,2652.1177896229783,2652.1177896229783,2652.1177896229783,2652.1177896229783,2652.1177896229783,2652.1177896229783,2652.1177896229783,2652.1177896229783,2652.1177896229783,2652.1177896229783,a,0.668112552142702,1,667,2,2652.8031238029944,2654.303564677015,2654.303564677015,2654.803707671934,,,,,,,,,,,,,,,,,,,,,,,,,,,,,,,,,,,,,,,,,,,,,,,,,,,,,,,,,,,,,,,,,,,,,75773,2022-11-10_11h39.14.067,vts_reward_expectancy_bt_OFFLINE,2022.2.4,61.11879019335923,
0,0,1,0,0,0,0,1,hexagon,star,2,0,2,0,0,4,4,8,,,,,,,,,,,,,,,,,,,,,,,,,,,,,,,,,,,,,,,,2654.803707671934,2654.803707671934,2654.803707671934,2654.803707671934,2654.803707671934,2654.803707671934,2654.803707671934,2654.803707671934,2654.803707671934,2654.803707671934,l,0.829779104096815,10,677,2,2655.6559923319146,2657.1715989849763,,,,,,,,,,,,,,,,,,,,,,,,,,,,,,,,,,,,,,,,,,,,,,,,,,,,,,,,,,,,,,,,,,,,,,,75773,2022-11-10_11h39.14.067,vts_reward_expectancy_bt_OFFLINE,2022.2.4,61.11879019335923,
0,0,0,1,0,0,1,0,star,hexagon,2,0,2,0,0,5,5,11,,,,,,,,,,,,,,,,,,,,,,,,,,,,,,,,,,,,,,,,2657.6565652389545,2657.6565652389545,2657.6565652389545,2657.6565652389545,2657.6565652389545,2657.6565652389545,2657.6565652389545,2657.6565652389545,2657.6565652389545,2657.6565652389545,a,0.7997287390753627,1,678,2,2658.4753798379097,2659.990781906992,,,,,,,,,,,,,,,,,,,,,,,,,,,,,,,,,,,,,,,,,,,,,,,,,,,,,,,,,,,,,,,,,,,,,,,75773,2022-11-10_11h39.14.067,vts_reward_expectancy_bt_OFFLINE,2022.2.4,61.11879019335923,
0,0,1,0,0,1,0,0,hexagon,circle,2,0,2,0,0,6,6,7,,,,,,,,,,,,,,,,,,,,,,,,,,,,,,,,,,,,,,,,2660.4742064049933,2660.4742064049933,2660.4742064049933,2660.4742064049933,2660.4742064049933,2660.4742064049933,2660.4742064049933,2660.4742064049933,2660.4742064049933,2660.4742064049933,l,2.2799580501159653,1,679,2,2662.777218014933,2664.277582365903,2664.277582365903,2664.7777330019744,,,,,,,,,,,,,,,,,,,,,,,,,,,,,,,,,,,,,,,,,,,,,,,,,,,,,,,,,,,,,,,,,,,,,75773,2022-11-10_11h39.14.067,vts_reward_expectancy_bt_OFFLINE,2022.2.4,61.11879019335923,
1,0,0,0,0,0,0,1,triangle,star,2,0,2,0,0,7,7,2,,,,,,,,,,,,,,,,,,,,,,,,,,,,,,,,,,,,,,,,2664.7777330019744,2664.7777330019744,2664.7777330019744,2664.7777330019744,2664.7777330019744,2664.7777330019744,2664.7777330019744,2664.7777330019744,2664.7777330019744,2664.7777330019744,l,1.059428655076772,10,689,2,2665.86389987194,2667.3638596119126,,,,,,,,,,,,,,,,,,,,,,,,,,,,,,,,,,,,,,,,,,,,,,,,,,,,,,,,,,,,,,,,,,,,,,,75773,2022-11-10_11h39.14.067,vts_reward_expectancy_bt_OFFLINE,2022.2.4,61.11879019335923,
0,1,0,0,0,0,0,1,circle,star,2,0,2,0,0,8,8,5,,,,,,,,,,,,,,,,,,,,,,,,,,,,,,,,,,,,,,,,2667.863987488905,2667.863987488905,2667.863987488905,2667.863987488905,2667.863987488905,2667.863987488905,2667.863987488905,2667.863987488905,2667.863987488905,2667.863987488905,l,1.293151906109415,10,699,2,2669.1815536000067,2670.681399886962,2670.681399886962,2671.18175393797,,,,,,,,,,,,,,,,,,,,,,,,,,,,,,,,,,,,,,,,,,,,,,,,,,,,,,,,,,,,,,,,,,,,,75773,2022-11-10_11h39.14.067,vts_reward_expectancy_bt_OFFLINE,2022.2.4,61.11879019335923,
1,0,0,0,0,0,1,0,triangle,hexagon,2,0,2,0,0,9,9,1,,,,,,,,,,,,,,,,,,,,,,,,,,,,,,,,,,,,,,,,2671.18175393797,2671.18175393797,2671.18175393797,2671.18175393797,2671.18175393797,2671.18175393797,2671.18175393797,2671.18175393797,2671.18175393797,2671.18175393797,l,0.7865174991311505,1,700,2,2672.0012171620037,2673.5011563359294,,,,,,,,,,,,,,,,,,,,,,,,,,,,,,,,,,,,,,,,,,,,,,,,,,,,,,,,,,,,,,,,,,,,,,,75773,2022-11-10_11h39.14.067,vts_reward_expectancy_bt_OFFLINE,2022.2.4,61.11879019335923,
0,0,1,0,1,0,0,0,hexagon,triangle,2,0,2,0,0,10,10,6,,,,,,,,,,,,,,,,,,,,,,,,,,,,,,,,,,,,,,,,2674.001262055943,2674.001262055943,2674.001262055943,2674.001262055943,2674.001262055943,2674.001262055943,2674.001262055943,2674.001262055943,2674.001262055943,2674.001262055943,l,1.859292879118584,1,701,2,2675.8859447339782,2677.3876641319366,,,,,,,,,,,,,,,,,,,,,,,,,,,,,,,,,,,,,,,,,,,,,,,,,,,,,,,,,,,,,,,,,,,,,,,75773,2022-11-10_11h39.14.067,vts_reward_expectancy_bt_OFFLINE,2022.2.4,61.11879019335923,
1,0,0,0,0,1,0,0,triangle,circle,2,0,2,0,0,11,11,0,,,,,,,,,,,,,,,,,,,,,,,,,,,,,,,,,,,,,,,,2677.887847293983,2677.887847293983,2677.887847293983,2677.887847293983,2677.887847293983,2677.887847293983,2677.887847293983,2677.887847293983,2677.887847293983,2677.887847293983,a,5.083970835083164,1,702,2,2682.991719862912,2684.492173600942,2684.492173600942,2684.9923527128994,,,,,,,,,,,,,,,,,,,,,,,,,,,,,,,,,,,,,,,,,,,,,,,,,,,,,,,,,,,,,,,,,,,,,75773,2022-11-10_11h39.14.067,vts_reward_expectancy_bt_OFFLINE,2022.2.4,61.11879019335923,
1,0,0,0,0,0,0,1,triangle,star,2,0,2,0,1,0,12,2,,,,,,,,,,,,,,,,,,,,,,,,,,,,,,,,,,,,,,,,2684.9923527128994,2684.9923527128994,2684.9923527128994,2684.9923527128994,2684.9923527128994,2684.9923527128994,2684.9923527128994,2684.9923527128994,2684.9923527128994,2684.9923527128994,l,0.7126685860566795,10,712,2,2685.727388924919,2687.2264560559997,,,,,,,,,,,,,,,,,,,,,,,,,,,,,,,,,,,,,,,,,,,,,,,,,,,,,,,,,,,,,,,,,,,,,,,75773,2022-11-10_11h39.14.067,vts_reward_expectancy_bt_OFFLINE,2022.2.4,61.11879019335923,
1,0,0,0,0,0,1,0,triangle,hexagon,2,0,2,0,1,1,13,1,,,,,,,,,,,,,,,,,,,,,,,,,,,,,,,,,,,,,,,,2687.7283871999243,2687.7283871999243,2687.7283871999243,2687.7283871999243,2687.7283871999243,2687.7283871999243,2687.7283871999243,2687.7283871999243,2687.7283871999243,2687.7283871999243,l,2.195806307019666,1,713,2,2689.948051098967,2691.4630270010093,,,,,,,,,,,,,,,,,,,,,,,,,,,,,,,,,,,,,,,,,,,,,,,,,,,,,,,,,,,,,,,,,,,,,,,75773,2022-11-10_11h39.14.067,vts_reward_expectancy_bt_OFFLINE,2022.2.4,61.11879019335923,
0,1,0,0,1,0,0,0,circle,triangle,2,0,2,0,1,2,14,3,,,,,,,,,,,,,,,,,,,,,,,,,,,,,,,,,,,,,,,,2691.9633136709454,2691.9633136709454,2691.9633136709454,2691.9633136709454,2691.9633136709454,2691.9633136709454,2691.9633136709454,2691.9633136709454,2691.9633136709454,2691.9633136709454,a,3.451396317104809,10,723,2,2695.435067616985,2696.9503159229644,,,,,,,,,,,,,,,,,,,,,,,,,,,,,,,,,,,,,,,,,,,,,,,,,,,,,,,,,,,,,,,,,,,,,,,75773,2022-11-10_11h39.14.067,vts_reward_expectancy_bt_OFFLINE,2022.2.4,61.11879019335923,
0,0,1,0,0,1,0,0,hexagon,circle,2,0,2,0,1,3,15,7,,,,,,,,,,,,,,,,,,,,,,,,,,,,,,,,,,,,,,,,2697.435560365906,2697.435560365906,2697.435560365906,2697.435560365906,2697.435560365906,2697.435560365906,2697.435560365906,2697.435560365906,2697.435560365906,2697.435560365906,l,2.422806377056986,10,733,2,2699.886528534,2701.3872706209077,2701.3872706209077,2701.8872552179964,,,,,,,,,,,,,,,,,,,,,,,,,,,,,,,,,,,,,,,,,,,,,,,,,,,,,,,,,,,,,,,,,,,,,75773,2022-11-10_11h39.14.067,vts_reward_expectancy_bt_OFFLINE,2022.2.4,61.11879019335923,
0,1,0,0,0,0,1,0,circle,hexagon,2,0,2,0,1,4,16,4,,,,,,,,,,,,,,,,,,,,,,,,,,,,,,,,,,,,,,,,2701.8872552179964,2701.8872552179964,2701.8872552179964,2701.8872552179964,2701.8872552179964,2701.8872552179964,2701.8872552179964,2701.8872552179964,2701.8872552179964,2701.8872552179964,l,1.7511898220982403,1,734,2,2703.6583263910143,2705.1737004870083,,,,,,,,,,,,,,,,,,,,,,,,,,,,,,,,,,,,,,,,,,,,,,,,,,,,,,,,,,,,,,,,,,,,,,,75773,2022-11-10_11h39.14.067,vts_reward_expectancy_bt_OFFLINE,2022.2.4,61.11879019335923,
0,0,1,0,1,0,0,0,hexagon,triangle,2,0,2,0,1,5,17,6,,,,,,,,,,,,,,,,,,,,,,,,,,,,,,,,,,,,,,,,2705.6738741159206,2705.6738741159206,2705.6738741159206,2705.6738741159206,2705.6738741159206,2705.6738741159206,2705.6738741159206,2705.6738741159206,2705.6738741159206,2705.6738741159206,l,6.7750307731330395,1,735,2,2712.4799391829874,2713.980318126967,2713.980318126967,2714.4805831139674,,,,,,,,,,,,,,,,,,,,,,,,,,,,,,,,,,,,,,,,,,,,,,,,,,,,,,,,,,,,,,,,,,,,,75773,2022-11-10_11h39.14.067,vts_reward_expectancy_bt_OFFLINE,2022.2.4,61.11879019335923,
0,0,0,1,0,1,0,0,star ,circle,2,0,2,0,1,6,18,10,,,,,,,,,,,,,,,,,,,,,,,,,,,,,,,,,,,,,,,,2714.4805831139674,2714.4805831139674,2714.4805831139674,2714.4805831139674,2714.4805831139674,2714.4805831139674,2714.4805831139674,2714.4805831139674,2714.4805831139674,2714.4805831139674,l,4.246008882066235,1,736,2,2718.750872112927,2720.251033823006,2720.251033823006,2720.751417136984,,,,,,,,,,,,,,,,,,,,,,,,,,,,,,,,,,,,,,,,,,,,,,,,,,,,,,,,,,,,,,,,,,,,,75773,2022-11-10_11h39.14.067,vts_reward_expectancy_bt_OFFLINE,2022.2.4,61.11879019335923,
0,0,0,1,0,0,1,0,star,hexagon,2,0,2,0,1,7,19,11,,,,,,,,,,,,,,,,,,,,,,,,,,,,,,,,,,,,,,,,2720.751417136984,2720.751417136984,2720.751417136984,2720.751417136984,2720.751417136984,2720.751417136984,2720.751417136984,2720.751417136984,2720.751417136984,2720.751417136984,a,0.6068421631352976,1,737,2,2721.385007152916,2722.8873750589555,,,,,,,,,,,,,,,,,,,,,,,,,,,,,,,,,,,,,,,,,,,,,,,,,,,,,,,,,,,,,,,,,,,,,,,75773,2022-11-10_11h39.14.067,vts_reward_expectancy_bt_OFFLINE,2022.2.4,61.11879019335923,
1,0,0,0,0,1,0,0,triangle,circle,2,0,2,0,1,8,20,0,,,,,,,,,,,,,,,,,,,,,,,,,,,,,,,,,,,,,,,,2723.3873955029994,2723.3873955029994,2723.3873955029994,2723.3873955029994,2723.3873955029994,2723.3873955029994,2723.3873955029994,2723.3873955029994,2723.3873955029994,2723.3873955029994,a,1.347048233030364,1,738,2,2724.7549517869484,2726.255169086973,2726.255169086973,2726.7552207129775,,,,,,,,,,,,,,,,,,,,,,,,,,,,,,,,,,,,,,,,,,,,,,,,,,,,,,,,,,,,,,,,,,,,,75773,2022-11-10_11h39.14.067,vts_reward_expectancy_bt_OFFLINE,2022.2.4,61.11879019335923,
0,1,0,0,0,0,0,1,circle,star,2,0,2,0,1,9,21,5,,,,,,,,,,,,,,,,,,,,,,,,,,,,,,,,,,,,,,,,2726.7552207129775,2726.7552207129775,2726.7552207129775,2726.7552207129775,2726.7552207129775,2726.7552207129775,2726.7552207129775,2726.7552207129775,2726.7552207129775,2726.7552207129775,l,2.3891833131201565,10,748,2,2729.1770913699875,2730.6921619059285,,,,,,,,,,,,,,,,,,,,,,,,,,,,,,,,,,,,,,,,,,,,,,,,,,,,,,,,,,,,,,,,,,,,,,,75773,2022-11-10_11h39.14.067,vts_reward_expectancy_bt_OFFLINE,2022.2.4,61.11879019335923,
0,0,0,1,1,0,0,0,star,triangle,2,0,2,0,1,10,22,9,,,,,,,,,,,,,,,,,,,,,,,,,,,,,,,,,,,,,,,,2731.192266364,2731.192266364,2731.192266364,2731.192266364,2731.192266364,2731.192266364,2731.192266364,2731.192266364,2731.192266364,2731.192266364,a,1.034758332069032,10,758,2,2732.2591427699663,2733.761627801927,,,,,,,,,,,,,,,,,,,,,,,,,,,,,,,,,,,,,,,,,,,,,,,,,,,,,,,,,,,,,,,,,,,,,,,75773,2022-11-10_11h39.14.067,vts_reward_expectancy_bt_OFFLINE,2022.2.4,61.11879019335923,
0,0,1,0,0,0,0,1,hexagon,star,2,0,2,0,1,11,23,8,,,,,,,,,,,,,,,,,,,,,,,,,,,,,,,,,,,,,,,,2734.261843164917,2734.261843164917,2734.261843164917,2734.261843164917,2734.261843164917,2734.261843164917,2734.261843164917,2734.261843164917,2734.261843164917,2734.261843164917,a,0.9461354331579059,1,759,2,2735.2309455689974,2736.7460696049966,,,,,,,,,,,,,,,,,,,,,,,,,,,,,,,,,,,,,,,,,,,,,,,,,,,,,,,,,,,,,,,,,,,,,,,75773,2022-11-10_11h39.14.067,vts_reward_expectancy_bt_OFFLINE,2022.2.4,61.11879019335923,
1,0,0,0,0,0,1,0,triangle,hexagon,2,0,2,0,2,0,24,1,,,,,,,,,,,,,,,,,,,,,,,,,,,,,,,,,,,,,,,,2737.246241441928,2737.246241441928,2737.246241441928,2737.246241441928,2737.246241441928,2737.246241441928,2737.246241441928,2737.246241441928,2737.246241441928,2737.246241441928,a,1.0440113560762256,1,760,2,2738.3157282539178,2739.8156914839055,2739.8156914839055,2740.315564438002,,,,,,,,,,,,,,,,,,,,,,,,,,,,,,,,,,,,,,,,,,,,,,,,,,,,,,,,,,,,,,,,,,,,,75773,2022-11-10_11h39.14.067,vts_reward_expectancy_bt_OFFLINE,2022.2.4,61.11879019335923,
0,0,1,0,1,0,0,0,hexagon,triangle,2,0,2,0,2,1,25,6,,,,,,,,,,,,,,,,,,,,,,,,,,,,,,,,,,,,,,,,2740.315564438002,2740.315564438002,2740.315564438002,2740.315564438002,2740.315564438002,2740.315564438002,2740.315564438002,2740.315564438002,2740.315564438002,2740.315564438002,l,17.056145602138713,10,770,2,2757.410823188955,2758.9133973119315,,,,,,,,,,,,,,,,,,,,,,,,,,,,,,,,,,,,,,,,,,,,,,,,,,,,,,,,,,,,,,,,,,,,,,,75773,2022-11-10_11h39.14.067,vts_reward_expectancy_bt_OFFLINE,2022.2.4,61.11879019335923,
0,1,0,0,0,0,0,1,circle,star,2,0,2,0,2,2,26,5,,,,,,,,,,,,,,,,,,,,,,,,,,,,,,,,,,,,,,,,2759.4133527829545,2759.4133527829545,2759.4133527829545,2759.4133527829545,2759.4133527829545,2759.4133527829545,2759.4133527829545,2759.4133527829545,2759.4133527829545,2759.4133527829545,l,1.1656532720662653,10,780,2,2760.5975851679686,2762.0977238039486,2762.0977238039486,,,,,,,,,,,,,,,,,,,,,,,,,,,,,,,,,,,,,,,,,,,,,,,,,,,,,,,,,,,,,,,,,,,,,,75773,2022-11-10_11h39.14.067,vts_reward_expectancy_bt_OFFLINE,2022.2.4,61.11879019335923,
0,0,0,1,0,0,1,0,star,hexagon,2,0,2,0,2,3,27,11,,,,,,,,,,,,,,,,,,,,,,,,,,,,,,,,,,,,,,,,2762.599625619012,2762.599625619012,2762.599625619012,2762.599625619012,2762.599625619012,2762.599625619012,2762.599625619012,2762.599625619012,2762.599625619012,2762.599625619012,l,2.2646628881338984,1,781,2,2764.8863965040073,2766.4009871599264,,,,,,,,,,,,,,,,,,,,,,,,,,,,,,,,,,,,,,,,,,,,,,,,,,,,,,,,,,,,,,,,,,,,,,,75773,2022-11-10_11h39.14.067,vts_reward_expectancy_bt_OFFLINE,2022.2.4,61.11879019335923,
1,0,0,0,0,0,0,1,triangle,star,2,0,2,0,2,4,28,2,,,,,,,,,,,,,,,,,,,,,,,,,,,,,,,,,,,,,,,,2766.9010847469326,2766.9010847469326,2766.9010847469326,2766.9010847469326,2766.9010847469326,2766.9010847469326,2766.9010847469326,2766.9010847469326,2766.9010847469326,2766.9010847469326,l,0.9782035751268268,10,791,2,2767.906461608014,2769.4204751269426,,,,,,,,,,,,,,,,,,,,,,,,,,,,,,,,,,,,,,,,,,,,,,,,,,,,,,,,,,,,,,,,,,,,,,,75773,2022-11-10_11h39.14.067,vts_reward_expectancy_bt_OFFLINE,2022.2.4,61.11879019335923,
0,0,0,1,0,1,0,0,star ,circle,2,0,2,0,2,5,29,10,,,,,,,,,,,,,,,,,,,,,,,,,,,,,,,,,,,,,,,,2769.920688010985,2769.920688010985,2769.920688010985,2769.920688010985,2769.920688010985,2769.920688010985,2769.920688010985,2769.920688010985,2769.920688010985,2769.920688010985,a,1.0427749000955373,10,801,2,2770.988309581997,2772.4902839029673,,,,,,,,,,,,,,,,,,,,,,,,,,,,,,,,,,,,,,,,,,,,,,,,,,,,,,,,,,,,,,,,,,,,,,,75773,2022-11-10_11h39.14.067,vts_reward_expectancy_bt_OFFLINE,2022.2.4,61.11879019335923,
1,0,0,0,0,1,0,0,triangle,circle,2,0,2,0,2,6,30,0,,,,,,,,,,,,,,,,,,,,,,,,,,,,,,,,,,,,,,,,2772.9903832339915,2772.9903832339915,2772.9903832339915,2772.9903832339915,2772.9903832339915,2772.9903832339915,2772.9903832339915,2772.9903832339915,2772.9903832339915,2772.9903832339915,l,0.9870965130394325,10,811,2,2774.0082587249344,2775.5080077979947,2775.5080077979947,2776.008021752932,,,,,,,,,,,,,,,,,,,,,,,,,,,,,,,,,,,,,,,,,,,,,,,,,,,,,,,,,,,,,,,,,,,,,75773,2022-11-10_11h39.14.067,vts_reward_expectancy_bt_OFFLINE,2022.2.4,61.11879019335923,
0,0,0,1,1,0,0,0,star,triangle,2,0,2,0,2,7,31,9,,,,,,,,,,,,,,,,,,,,,,,,,,,,,,,,,,,,,,,,2776.008021752932,2776.008021752932,2776.008021752932,2776.008021752932,2776.008021752932,2776.008021752932,2776.008021752932,2776.008021752932,2776.008021752932,2776.008021752932,l,0.9732289210660383,1,812,2,2777.010891104932,2778.5109601279255,,,,,,,,,,,,,,,,,,,,,,,,,,,,,,,,,,,,,,,,,,,,,,,,,,,,,,,,,,,,,,,,,,,,,,,75773,2022-11-10_11h39.14.067,vts_reward_expectancy_bt_OFFLINE,2022.2.4,61.11879019335923,
0,0,1,0,0,1,0,0,hexagon,circle,2,0,2,0,2,8,32,7,,,,,,,,,,,,,,,,,,,,,,,,,,,,,,,,,,,,,,,,2779.0113357049413,2779.0113357049413,2779.0113357049413,2779.0113357049413,2779.0113357049413,2779.0113357049413,2779.0113357049413,2779.0113357049413,2779.0113357049413,2779.0113357049413,l,0.9859419671120122,10,822,2,2780.028659623,2781.5287971909856,2781.5287971909856,2782.0286957169883,,,,,,,,,,,,,,,,,,,,,,,,,,,,,,,,,,,,,,,,,,,,,,,,,,,,,,,,,,,,,,,,,,,,,75773,2022-11-10_11h39.14.067,vts_reward_expectancy_bt_OFFLINE,2022.2.4,61.11879019335923,
0,1,0,0,1,0,0,0,circle,triangle,2,0,2,0,2,9,33,3,,,,,,,,,,,,,,,,,,,,,,,,,,,,,,,,,,,,,,,,2782.0286957169883,2782.0286957169883,2782.0286957169883,2782.0286957169883,2782.0286957169883,2782.0286957169883,2782.0286957169883,2782.0286957169883,2782.0286957169883,2782.0286957169883,a,0.9385241240961477,10,832,2,2782.997989687952,2784.4983390109846,2784.4983390109846,,,,,,,,,,,,,,,,,,,,,,,,,,,,,,,,,,,,,,,,,,,,,,,,,,,,,,,,,,,,,,,,,,,,,,75773,2022-11-10_11h39.14.067,vts_reward_expectancy_bt_OFFLINE,2022.2.4,61.11879019335923,
0,0,1,0,0,0,0,1,hexagon,star,2,0,2,0,2,10,34,8,,,,,,,,,,,,,,,,,,,,,,,,,,,,,,,,,,,,,,,,2784.9982449549716,2784.9982449549716,2784.9982449549716,2784.9982449549716,2784.9982449549716,2784.9982449549716,2784.9982449549716,2784.9982449549716,2784.9982449549716,2784.9982449549716,l,1.2429960981244221,10,842,2,2786.2658865959384,2787.767703125952,,,,,,,,,,,,,,,,,,,,,,,,,,,,,,,,,,,,,,,,,,,,,,,,,,,,,,,,,,,,,,,,,,,,,,,75773,2022-11-10_11h39.14.067,vts_reward_expectancy_bt_OFFLINE,2022.2.4,61.11879019335923,
0,1,0,0,0,0,1,0,circle,hexagon,2,0,2,0,2,11,35,4,,,,,,,,,,,,,,,,,,,,,,,,,,,,,,,,,,,,,,,,2788.268148941919,2788.268148941919,2788.268148941919,2788.268148941919,2788.268148941919,2788.268148941919,2788.268148941919,2788.268148941919,2788.268148941919,2788.268148941919,a,3.0011176640400663,1,843,2,2791.3009813159006,2792.788244770956,,,,,,,,,,,,,,,,,,,,,,,,,,,,,,,,,,,,,,,,,,,,,,,,,,,,,,,,,,,,,,,,,,,,,,,75773,2022-11-10_11h39.14.067,vts_reward_expectancy_bt_OFFLINE,2022.2.4,61.11879019335923,
1,0,0,0,0,1,0,0,triangle,circle,2,0,2,0,3,0,36,0,,,,,,,,,,,,,,,,,,,,,,,,,,,,,,,,,,,,,,,,2793.2884220959386,2793.2884220959386,2793.2884220959386,2793.2884220959386,2793.2884220959386,2793.2884220959386,2793.2884220959386,2793.2884220959386,2793.2884220959386,2793.2884220959386,l,0.5460674281930551,10,853,2,2793.8575631529093,2795.372459079954,,,,,,,,,,,,,,,,,,,,,,,,,,,,,,,,,,,,,,,,,,,,,,,,,,,,,,,,,,,,,,,,,,,,,,,75773,2022-11-10_11h39.14.067,vts_reward_expectancy_bt_OFFLINE,2022.2.4,61.11879019335923,
0,0,1,0,1,0,0,0,hexagon,triangle,2,0,2,0,3,1,37,6,,,,,,,,,,,,,,,,,,,,,,,,,,,,,,,,,,,,,,,,2795.872478339006,2795.872478339006,2795.872478339006,2795.872478339006,2795.872478339006,2795.872478339006,2795.872478339006,2795.872478339006,2795.872478339006,2795.872478339006,l,0.8766410901444033,10,863,2,2796.7739796729293,2798.275313130929,,,,,,,,,,,,,,,,,,,,,,,,,,,,,,,,,,,,,,,,,,,,,,,,,,,,,,,,,,,,,,,,,,,,,,,75773,2022-11-10_11h39.14.067,vts_reward_expectancy_bt_OFFLINE,2022.2.4,61.11879019335923,
0,0,0,1,0,0,1,0,star,hexagon,2,0,2,0,3,2,38,11,,,,,,,,,,,,,,,,,,,,,,,,,,,,,,,,,,,,,,,,2798.775410195929,2798.775410195929,2798.775410195929,2798.775410195929,2798.775410195929,2798.775410195929,2798.775410195929,2798.775410195929,2798.775410195929,2798.775410195929,a,0.7744266490917653,10,873,2,2799.5762232879642,2801.076263589901,2801.076263589901,2801.5765310960123,,,,,,,,,,,,,,,,,,,,,,,,,,,,,,,,,,,,,,,,,,,,,,,,,,,,,,,,,,,,,,,,,,,,,75773,2022-11-10_11h39.14.067,vts_reward_expectancy_bt_OFFLINE,2022.2.4,61.11879019335923,
0,0,1,0,0,1,0,0,hexagon,circle,2,0,2,0,3,3,39,7,,,,,,,,,,,,,,,,,,,,,,,,,,,,,,,,,,,,,,,,2801.5765310960123,2801.5765310960123,2801.5765310960123,2801.5765310960123,2801.5765310960123,2801.5765310960123,2801.5765310960123,2801.5765310960123,2801.5765310960123,2801.5765310960123,l,1.4504951781127602,1,874,2,2803.0478410919895,2804.563012525905,,,,,,,,,,,,,,,,,,,,,,,,,,,,,,,,,,,,,,,,,,,,,,,,,,,,,,,,,,,,,,,,,,,,,,,75773,2022-11-10_11h39.14.067,vts_reward_expectancy_bt_OFFLINE,2022.2.4,61.11879019335923,
1,0,0,0,0,0,0,1,triangle,star,2,0,2,0,3,4,40,2,,,,,,,,,,,,,,,,,,,,,,,,,,,,,,,,,,,,,,,,2805.063100132975,2805.063100132975,2805.063100132975,2805.063100132975,2805.063100132975,2805.063100132975,2805.063100132975,2805.063100132975,2805.063100132975,2805.063100132975,l,0.642264606198296,10,884,2,2805.7322073279647,2807.2471093109343,,,,,,,,,,,,,,,,,,,,,,,,,,,,,,,,,,,,,,,,,,,,,,,,,,,,,,,,,,,,,,,,,,,,,,,75773,2022-11-10_11h39.14.067,vts_reward_expectancy_bt_OFFLINE,2022.2.4,61.11879019335923,
0,1,0,0,0,0,1,0,circle,hexagon,2,0,2,0,3,5,41,4,,,,,,,,,,,,,,,,,,,,,,,,,,,,,,,,,,,,,,,,2807.7324822349474,2807.7324822349474,2807.7324822349474,2807.7324822349474,2807.7324822349474,2807.7324822349474,2807.7324822349474,2807.7324822349474,2807.7324822349474,2807.7324822349474,a,1.3246669181389734,10,894,2,2809.0833582909545,2810.5834612899926,2810.5834612899926,2811.083352627931,,,,,,,,,,,,,,,,,,,,,,,,,,,,,,,,,,,,,,,,,,,,,,,,,,,,,,,,,,,,,,,,,,,,,75773,2022-11-10_11h39.14.067,vts_reward_expectancy_bt_OFFLINE,2022.2.4,61.11879019335923,
0,0,0,1,1,0,0,0,star,triangle,2,0,2,0,3,6,42,9,,,,,,,,,,,,,,,,,,,,,,,,,,,,,,,,,,,,,,,,2811.083352627931,2811.083352627931,2811.083352627931,2811.083352627931,2811.083352627931,2811.083352627931,2811.083352627931,2811.083352627931,2811.083352627931,2811.083352627931,a,0.673929579090327,1,895,2,2811.786373578012,2813.2862017889274,,,,,,,,,,,,,,,,,,,,,,,,,,,,,,,,,,,,,,,,,,,,,,,,,,,,,,,,,,,,,,,,,,,,,,,75773,2022-11-10_11h39.14.067,vts_reward_expectancy_bt_OFFLINE,2022.2.4,61.11879019335923,
0,0,1,0,0,0,0,1,hexagon,star,2,0,2,0,3,7,43,8,,,,,,,,,,,,,,,,,,,,,,,,,,,,,,,,,,,,,,,,2813.786600191961,2813.786600191961,2813.786600191961,2813.786600191961,2813.786600191961,2813.786600191961,2813.786600191961,2813.786600191961,2813.786600191961,2813.786600191961,a,1.4578029460972175,1,896,2,2815.2705912829842,2816.7707280199975,2816.7707280199975,,,,,,,,,,,,,,,,,,,,,,,,,,,,,,,,,,,,,,,,,,,,,,,,,,,,,,,,,,,,,,,,,,,,,,75773,2022-11-10_11h39.14.067,vts_reward_expectancy_bt_OFFLINE,2022.2.4,61.11879019335923,
0,0,0,1,0,1,0,0,star ,circle,2,0,2,0,3,8,44,10,,,,,,,,,,,,,,,,,,,,,,,,,,,,,,,,,,,,,,,,2817.271163881989,2817.271163881989,2817.271163881989,2817.271163881989,2817.271163881989,2817.271163881989,2817.271163881989,2817.271163881989,2817.271163881989,2817.271163881989,a,2.4291807141853496,1,897,2,2819.724163723993,2821.224350553006,2821.224350553006,2821.724354543956,,,,,,,,,,,,,,,,,,,,,,,,,,,,,,,,,,,,,,,,,,,,,,,,,,,,,,,,,,,,,,,,,,,,,75773,2022-11-10_11h39.14.067,vts_reward_expectancy_bt_OFFLINE,2022.2.4,61.11879019335923,
0,1,0,0,1,0,0,0,circle,triangle,2,0,2,0,3,9,45,3,,,,,,,,,,,,,,,,,,,,,,,,,,,,,,,,,,,,,,,,2821.724354543956,2821.724354543956,2821.724354543956,2821.724354543956,2821.724354543956,2821.724354543956,2821.724354543956,2821.724354543956,2821.724354543956,2821.724354543956,a,1.2616123621119186,1,898,2,2823.0105573019246,2824.510613746941,2824.510613746941,2825.0108879399486,,,,,,,,,,,,,,,,,,,,,,,,,,,,,,,,,,,,,,,,,,,,,,,,,,,,,,,,,,,,,,,,,,,,,75773,2022-11-10_11h39.14.067,vts_reward_expectancy_bt_OFFLINE,2022.2.4,61.11879019335923,
1,0,0,0,0,0,1,0,triangle,hexagon,2,0,2,0,3,10,46,1,,,,,,,,,,,,,,,,,,,,,,,,,,,,,,,,,,,,,,,,2825.0108879399486,2825.0108879399486,2825.0108879399486,2825.0108879399486,2825.0108879399486,2825.0108879399486,2825.0108879399486,2825.0108879399486,2825.0108879399486,2825.0108879399486,l,0.6745635861298069,10,908,2,2825.7136079199845,2827.2282093719114,,,,,,,,,,,,,,,,,,,,,,,,,,,,,,,,,,,,,,,,,,,,,,,,,,,,,,,,,,,,,,,,,,,,,,,75773,2022-11-10_11h39.14.067,vts_reward_expectancy_bt_OFFLINE,2022.2.4,61.11879019335923,
0,1,0,0,0,0,0,1,circle,star,2,0,2,0,3,11,47,5,,,,,,,,,,,,,,,,,,,,,,,,,,,,,,,,,,,,,,,,2827.7135134249693,2827.7135134249693,2827.7135134249693,2827.7135134249693,2827.7135134249693,2827.7135134249693,2827.7135134249693,2827.7135134249693,2827.7135134249693,2827.7135134249693,l,0.6722764770966023,10,918,2,2828.4145774629433,2829.914607408922,2829.914607408922,2830.4213943039067,,,,,,,,,,,,,,,,,,,,,,,,,,,,,,,,,,,,,,,,,,,,,,,,,,,,,,,,,,,,,,,,,,,,,75773,2022-11-10_11h39.14.067,vts_reward_expectancy_bt_OFFLINE,2022.2.4,61.11879019335923,
,,,,,,,,,,,,,,,,,,0,0,0,0,0,0,0,0,,,,,,,,,,,,,,,,,,,,,,,,,,,,,,,,,,,,,,,,,,,,,,,,2863.238900962984,,,132,U,triangle,0.001990913995541632,2859.516274934984,2861.023162030964,2861.023162030964,2861.023162030964,1,0,d,0.6866706671426073,0,2861.7402987040114,,,,,,,,,,,,,,,,,,,,,,,,,,,,,,,,,,,,,,,,,,,,,,,,,,,,,,,75773,2022-11-10_11h39.14.067,vts_reward_expectancy_bt_OFFLINE,2022.2.4,61.11879019335923,
,,,,,,,,,,,,,,,,,,0,0,0,0,1,0,1,0,,,,,,,,,,,,,,,,,,,,,,,,,,,,,,,,,,,,,,,,,,,,,,,,2867.725841393927,,,139,D,star,0.002062838990241289,2864.235443957965,2865.7235687680077,2865.7235687680077,2865.7235687680077,1,0,d,0.47609720716718584,0,2866.2244479609653,,,,,,,,,,,,,,,,,,,,,,,,,,,,,,,,,,,,,,,,,,,,,,,,,,,,,,,75773,2022-11-10_11h39.14.067,vts_reward_expectancy_bt_OFFLINE,2022.2.4,61.11879019335923,
,,,,,,,,,,,,,,,,,,0,0,0,0,2,0,2,0,,,,,,,,,,,,,,,,,,,,,,,,,,,,,,,,,,,,,,,,,,,,,,,,2872.194561455981,,,167,H,circle,0.0019193609477952123,2868.7222801379394,2870.2105078370078,2870.2105078370078,2870.2105078370078,1,0,f,0.4550671761389822,0,2870.694463455933,2872.194561455981,,,,,,,,,,,,,,,,,,,,,,,,,,,,,,,,,,,,,,,,,,,,,,,,,,,,,,75773,2022-11-10_11h39.14.067,vts_reward_expectancy_bt_OFFLINE,2022.2.4,61.11879019335923,
,,,,,,,,,,,,,,,,,,0,0,0,0,3,0,3,0,,,,,,,,,,,,,,,,,,,,,,,,,,,,,,,,,,,,,,,,,,,,,,,,2876.631030775956,,,125,W,hexagon,0.002083401894196868,2873.192034963984,2874.680384989013,2874.680384989013,2874.680384989013,1,0,d,0.4283475020201877,0,2875.131223142962,2876.631030775956,,,,,,,,,,,,,,,,,,,,,,,,,,,,,,,,,,,,,,,,,,,,,,,,,,,,,,75773,2022-11-10_11h39.14.067,vts_reward_expectancy_bt_OFFLINE,2022.2.4,61.11879019335923,
,,,,,,,,,,,,,,,,,,0,0,0,0,4,0,4,0,,,,,,,,,,,,,,,,,,,,,,,,,,,,,,,,,,,,,,,,,,,,,,,,2881.3012582559604,,2881.8013593819924,146,F,triangle,0.00038247101474553347,2877.6275974469027,2879.1172349679982,2879.1172349679982,2879.1172349679982,1,0,d,0.66079482214991,0,2879.801739902934,2881.3012582559604,,,,,,,,,,,,,,,,,,,,,,,,,,,,,,,,,,,,,,,,,,,,,,,,,,,,,,75773,2022-11-10_11h39.14.067,vts_reward_expectancy_bt_OFFLINE,2022.2.4,61.11879019335923,
,,,,,,,,,,,,,,,,,,0,0,0,0,5,0,5,0,,,,,,,,,,,,,,,,,,,,,,,,,,,,,,,,,,,,,,,,,,,,,,,,2885.8380145150004,,2886.3381987779867,181,S,star,0.0005760290659964085,2882.2981926379725,2883.7873304228997,2883.7873304228997,2883.7873304228997,1,0,f,0.5254301130771637,0,2884.3383868859382,2885.8380145150004,,,,,,,,,,,,,,,,,,,,,,,,,,,,,,,,,,,,,,,,,,,,,,,,,,,,,,75773,2022-11-10_11h39.14.067,vts_reward_expectancy_bt_OFFLINE,2022.2.4,61.11879019335923,
,,,,,,,,,,,,,,,,,,0,0,0,0,6,0,6,0,,,,,,,,,,,,,,,,,,,,,,,,,,,,,,,,,,,,,,,,,,,,,,,,2890.6081728879362,,2891.1082828269573,160,Y,circle,0.0007192449411377311,2886.834418614977,2888.324164088932,2888.324164088932,2888.324164088932,1,0,f,0.7588629560777918,0,2889.1083531969925,2890.6081728879362,,,,,,,,,,,,,,,,,,,,,,,,,,,,,,,,,,,,,,,,,,,,,,,,,,,,,,75773,2022-11-10_11h39.14.067,vts_reward_expectancy_bt_OFFLINE,2022.2.4,61.11879019335923,
,,,,,,,,,,,,,,,,,,0,0,0,0,7,0,7,0,,,,,,,,,,,,,,,,,,,,,,,,,,,,,,,,,,,,,,,,,,,,,,,,2895.1115993289277,,2895.6119927139953,174,B,hexagon,0.0004233709769323468,2891.6050535129616,2893.094558164943,2893.094558164943,2893.094558164943,1,0,f,0.4997731981566176,0,2893.6119931159774,2895.1115993289277,,,,,,,,,,,,,,,,,,,,,,,,,,,,,,,,,,,,,,,,,,,,,,,,,,,,,,75773,2022-11-10_11h39.14.067,vts_reward_expectancy_bt_OFFLINE,2022.2.4,61.11879019335923,
,,,,,,,,,,,,,,,,,,0,0,0,0,8,0,8,0,,,,,,,,,,,,,,,,,,,,,,,,,,,,,,,,,,,,,,,,,,,,,,,,2899.5151645119768,,,132,U,star,0.0005734999431297183,2896.108060005936,2897.597818737966,2897.597818737966,2897.597818737966,1,0,d,0.3950041941134259,0,2898.0150146699743,2899.5151645119768,,,,,,,,,,,,,,,,,,,,,,,,,,,,,,,,,,,,,,,,,,,,,,,,,,,,,,75773,2022-11-10_11h39.14.067,vts_reward_expectancy_bt_OFFLINE,2022.2.4,61.11879019335923,
,,,,,,,,,,,,,,,,,,0,0,0,0,9,0,9,0,,,,,,,,,,,,,,,,,,,,,,,,,,,,,,,,,,,,,,,,,,,,,,,,2903.968604924972,,,139,D,hexagon,0.0005665280623361468,2900.511262097978,2901.999522584956,2901.999522584956,2901.999522584956,1,0,d,0.4368955650134012,0,2902.457989574992,,,,,,,,,,,,,,,,,,,,,,,,,,,,,,,,,,,,,,,,,,,,,,,,,,,,,,,75773,2022-11-10_11h39.14.067,vts_reward_expectancy_bt_OFFLINE,2022.2.4,61.11879019335923,
,,,,,,,,,,,,,,,,,,,,,,,,,,0,0,0,0,0,0,0,0,,,,,,,,,,,,,,,,,,,,,,,,,,,,,,,,,,,,,,,,2939.327410324011,,,181,W,hexagon,0.017470440012402833,,,,,1,0,,,1,2937.8278869679198,2939.327410324011,2935.0372962779365,2936.508031738922,2936.508031738922,2936.508031738922,k,1.3014830721076578,,,,,,,,,,,,,,,,,,,,,,,,,,,,,,,,,,,,,,,,,,,,,,,,75773,2022-11-10_11h39.14.067,vts_reward_expectancy_bt_OFFLINE,2022.2.4,61.11879019335923,
,,,,,,,,,,,,,,,,,,,,,,,,,,0,0,0,0,1,0,1,0,,,,,,,,,,,,,,,,,,,,,,,,,,,,,,,,,,,,,,,,2943.8144129680004,,,125,F,circle,0.0003867120249196887,,,,,1,0,,,1,2942.312979621929,,2940.32411834097,2941.812015998992,2941.812015998992,2941.812015998992,j,0.47535703505855054,,,,,,,,,,,,,,,,,,,,,,,,,,,,,,,,,,,,,,,,,,,,,,,,75773,2022-11-10_11h39.14.067,vts_reward_expectancy_bt_OFFLINE,2022.2.4,61.11879019335923,
,,,,,,,,,,,,,,,,,,,,,,,,,,0,0,0,0,2,0,2,0,,,,,,,,,,,,,,,,,,,,,,,,,,,,,,,,,,,,,,,,2948.2673480069498,,,160,B,triangle,0.0021622779313474894,,,,,1,0,,,1,2946.7663057459285,,2944.810207931907,2946.298554542009,2946.298554542009,2946.298554542009,j,0.4426377600757405,,,,,,,,,,,,,,,,,,,,,,,,,,,,,,,,,,,,,,,,,,,,,,,,75773,2022-11-10_11h39.14.067,vts_reward_expectancy_bt_OFFLINE,2022.2.4,61.11879019335923,
,,,,,,,,,,,,,,,,,,,,,,,,,,0,0,0,0,3,0,3,0,,,,,,,,,,,,,,,,,,,,,,,,,,,,,,,,,,,,,,,,2952.7546320440015,,,132,Y,star,0.0017918789526447654,,,,,1,0,,,1,2951.252108452958,,2949.2638316960074,2950.752010384924,2950.752010384924,2950.752010384924,k,0.467782560037449,,,,,,,,,,,,,,,,,,,,,,,,,,,,,,,,,,,,,,,,,,,,,,,,75773,2022-11-10_11h39.14.067,vts_reward_expectancy_bt_OFFLINE,2022.2.4,61.11879019335923,
,,,,,,,,,,,,,,,,,,,,,,,,,,0,0,0,0,4,0,4,0,,,,,,,,,,,,,,,,,,,,,,,,,,,,,,,,,,,,,,,,2957.2062162029324,,,146,D,hexagon,0.001557527924887836,,,,,1,0,,,1,2955.7055819249945,2957.2062162029324,2953.750306856935,2955.238809824921,2955.238809824921,2955.238809824921,j,0.4353592350380495,,,,,,,,,,,,,,,,,,,,,,,,,,,,,,,,,,,,,,,,,,,,,,,,75773,2022-11-10_11h39.14.067,vts_reward_expectancy_bt_OFFLINE,2022.2.4,61.11879019335923,
,,,,,,,,,,,,,,,,,,,,,,,,,,0,0,0,0,5,0,5,0,,,,,,,,,,,,,,,,,,,,,,,,,,,,,,,,,,,,,,,,2961.6931208790047,,2962.1929400239605,174,H,triangle,0.0004390859976410866,,,,,1,0,,,1,2960.1931134829065,2961.6931208790047,2958.2038981459336,2959.692231716006,2959.692231716006,2959.692231716006,j,0.47169145103543997,,,,,,,,,,,,,,,,,,,,,,,,,,,,,,,,,,,,,,,,,,,,,,,,75773,2022-11-10_11h39.14.067,vts_reward_expectancy_bt_OFFLINE,2022.2.4,61.11879019335923,
,,,,,,,,,,,,,,,,,,,,,,,,,,0,0,0,0,6,0,6,0,,,,,,,,,,,,,,,,,,,,,,,,,,,,,,,,,,,,,,,,2966.179492358933,,2966.679918514914,139,S,circle,0.0006389410700649023,,,,,1,0,,,1,2964.680008995929,2966.179492358933,2962.6894903029315,2964.1789617569884,2964.1789617569884,2964.1789617569884,k,0.47433582006487995,,,,,,,,,,,,,,,,,,,,,,,,,,,,,,,,,,,,,,,,,,,,,,,,75773,2022-11-10_11h39.14.067,vts_reward_expectancy_bt_OFFLINE,2022.2.4,61.11879019335923,
,,,,,,,,,,,,,,,,,,,,,,,,,,0,0,0,0,7,0,7,0,,,,,,,,,,,,,,,,,,,,,,,,,,,,,,,,,,,,,,,,2970.699770146981,,,167,U,star,0.00043136789463460445,,,,,1,0,,,1,2969.1839621479157,,2967.1763216980034,2968.665857540909,2968.665857540909,2968.665857540909,k,0.4865709150908515,,,,,,,,,,,,,,,,,,,,,,,,,,,,,,,,,,,,,,,,,,,,,,,,75773,2022-11-10_11h39.14.067,vts_reward_expectancy_bt_OFFLINE,2022.2.4,61.11879019335923,
,,,,,,,,,,,,,,,,,,,,,,,,,,0,0,0,0,8,0,8,0,,,,,,,,,,,,,,,,,,,,,,,,,,,,,,,,,,,,,,,,2975.2199998350115,,2975.720168889966,181,W,triangle,0.016505295992828906,,,,,1,0,,,1,2973.7194472649135,2975.2199998350115,2971.6960701219505,2973.169042577967,2973.169042577967,2973.169042577967,k,0.5181829130742699,,,,,,,,,,,,,,,,,,,,,,,,,,,,,,,,,,,,,,,,,,,,,,,,75773,2022-11-10_11h39.14.067,vts_reward_expectancy_bt_OFFLINE,2022.2.4,61.11879019335923,
,,,,,,,,,,,,,,,,,,,,,,,,,,0,0,0,0,9,0,9,0,,,,,,,,,,,,,,,,,,,,,,,,,,,,,,,,,,,,,,,,2979.6067709609633,,2980.110207799007,125,F,circle,-0.0002799449721351266,,,,,0,0,,,1,2978.106952692964,2979.6067709609633,2976.215962384944,2977.7060790049145,2977.7060790049145,2977.7060790049145,k,0.36806804419029504,,,,,,,,,,,,,,,,,,,,,,,,,,,,,,,,,,,,,,,,,,,,,,,,75773,2022-11-10_11h39.14.067,vts_reward_expectancy_bt_OFFLINE,2022.2.4,61.11879019335923,
,,,,,,,,,,,,,,,,,,,,,,,,,,,,,,,,,,0,0,0,0,0,0,0,0,,,,,,,,,,,,,,,,,,,,,,,,,,,,0,918,,,3017.016551664914,,,132,Y,hexagon,0.0009471880039200187,,,,,-1,1,,,2,,,,,,,,,3011.0100166979246,3011.0100166979246,3011.0100166979246,3011.0100166979246,3012.496382445912,3012.496382445912,3012.496382445912,3012.496382445912,3012.5107544499915,3012.5107544499915,3012.5107544499915,3012.5107544499915,3015.5026473869802,3015.5026473869802,3015.5026473869802,3015.5026473869802,-1,no_choice,NA,None,vtsPrac,3015.5026473869802,,,,,,,,,,,,,,,,,,,,,,,,,,75773,2022-11-10_11h39.14.067,vts_reward_expectancy_bt_OFFLINE,2022.2.4,61.11879019335923,
,,,,,,,,,,,,,,,,,,,,,,,,,,,,,,,,,,0,0,0,0,1,0,1,0,,,,,,,,,,,,,,,,,,,,,,,,,,,,0,918,,,3022.855559053947,,,139,S,circle,0.004790292005054653,,,,,1,0,,,2,,,,,,,,,3018.0137126309564,3018.0137126309564,3018.0137126309564,3018.0137126309564,3019.5025284650037,3019.5025284650037,3019.5025284650037,3019.5025284650037,3019.5192641349277,3019.5192641349277,3019.5192641349277,3019.5192641349277,,,,,switch,number,numSwt,d,vtsPrac,3021.356299076928,1.830242293071933,,,,,,,,,,,,,,,,,,,,,,,,,75773,2022-11-10_11h39.14.067,vts_reward_expectancy_bt_OFFLINE,2022.2.4,61.11879019335923,
,,,,,,,,,,,,,,,,,,,,,,,,,,,,,,,,,,0,0,0,0,2,0,2,0,,,,,,,,,,,,,,,,,,,,,,,,,,,,0,918,,,3027.273705455009,,,167,D,circle,0.0018368150340393186,,,,,1,0,,,2,,,,,,,,,3023.851926538977,3023.851926538977,3023.851926538977,3023.851926538977,3025.3397124359617,3025.3397124359617,3025.3397124359617,3025.3397124359617,3025.3565978179686,3025.3565978179686,3025.3565978179686,3025.3565978179686,,,,,repeat,number,numRpt,f,vtsPrac,3025.77427474095,0.4144834791077301,3027.273705455009,,,,,,,,,,,,,,,,,,,,,,,,75773,2022-11-10_11h39.14.067,vts_reward_expectancy_bt_OFFLINE,2022.2.4,61.11879019335923,
,,,,,,,,,,,,,,,,,,,,,,,,,,,,,,,,,,0,0,0,0,3,0,3,0,,,,,,,,,,,,,,,,,,,,,,,,,,,,0,918,,,3031.7774244979955,,3032.2775838579983,146,W,star,0.002088233013637364,,,,,1,0,,,2,,,,,,,,,3028.272494036937,3028.272494036937,3028.272494036937,3028.272494036937,3029.7599037969485,3029.7599037969485,3029.7599037969485,3029.7599037969485,3029.776626272942,3029.776626272942,3029.776626272942,3029.776626272942,,,,,switch,letter,lettSwt,k,vtsPrac,3030.2779032170074,0.4951662211678922,3031.7774244979955,,,,,,,,,,,,,,,,,,,,,,,,75773,2022-11-10_11h39.14.067,vts_reward_expectancy_bt_OFFLINE,2022.2.4,61.11879019335923,
,,,,,,,,,,,,,,,,,,,,,,,,,,,,,,,,,,0,0,0,0,4,0,4,0,,,,,,,,,,,,,,,,,,,,,,,,,,,,0,918,,,3036.2472262269584,,3036.7475310629234,132,Y,triangle,0.00014794105663895607,,,,,1,0,,,2,,,,,,,,,3032.7739168689586,3032.7739168689586,3032.7739168689586,3032.7739168689586,3034.2633498479845,3034.2633498479845,3034.2633498479845,3034.2633498479845,3034.2799871119205,3034.2799871119205,3034.2799871119205,3034.2799871119205,,,,,switch,number,numSwt,d,vtsPrac,3034.7481126949424,0.4582160331774503,3036.2472262269584,,,,,,,,,,,,,,,,,,,,,,,,75773,2022-11-10_11h39.14.067,vts_reward_expectancy_bt_OFFLINE,2022.2.4,61.11879019335923,
,,,,,,,,,,,,,,,,,,,,,,,,,,,,,,,,,,0,0,0,0,5,0,5,0,,,,,,,,,,,,,,,,,,,,,,,,,,,,0,918,,,3040.900582521921,,3041.400992187904,139,S,circle,0.000486720004118979,,,,,1,0,,,2,,,,,,,,,3037.2436468959786,3037.2436468959786,3037.2436468959786,3037.2436468959786,3038.733380071004,3038.733380071004,3038.733380071004,3038.733380071004,3038.74997490691,3038.74997490691,3038.74997490691,3038.74997490691,,,,,switch,letter,lettSwt,k,vtsPrac,3039.4013288939605,0.645191636052914,3040.900582521921,,,,,,,,,,,,,,,,,,,,,,,,75773,2022-11-10_11h39.14.067,vts_reward_expectancy_bt_OFFLINE,2022.2.4,61.11879019335923,
,,,,,,,,,,,,,,,,,,,,,,,,,,,,,,,,,,0,0,0,0,6,0,6,0,,,,,,,,,,,,,,,,,,,,,,,,,,,,0,918,,,3045.4872866629157,,3045.987787817954,167,D,star,0.0005455530481413007,,,,,1,0,,,2,,,,,,,,,3041.897496488993,3041.897496488993,3041.897496488993,3041.897496488993,3043.3868343639188,3043.3868343639188,3043.3868343639188,3043.3868343639188,3043.4035352149513,3043.4035352149513,3043.4035352149513,3043.4035352149513,,,,,repeat,letter,lettRpt,j,vtsPrac,3043.988292938913,0.5831789220683277,3045.4872866629157,,,,,,,,,,,,,,,,,,,,,,,,75773,2022-11-10_11h39.14.067,vts_reward_expectancy_bt_OFFLINE,2022.2.4,61.11879019335923,
,,,,,,,,,,,,,,,,,,,,,,,,,,,,,,,,,,0,0,0,0,7,0,7,0,,,,,,,,,,,,,,,,,,,,,,,,,,,,0,918,,,3049.9412357979454,,3050.4412697089138,146,W,triangle,0.00021873496007174253,,,,,1,0,,,2,,,,,,,,,3046.484269117005,3046.484269117005,3046.484269117005,3046.484269117005,3047.973872464965,3047.973872464965,3047.973872464965,3047.973872464965,3047.9901864419226,3047.9901864419226,3047.9901864419226,3047.9901864419226,,,,,repeat,letter,lettRpt,k,vtsPrac,3048.441451666993,0.43994256819132715,3049.9412357979454,,,,,,,,,,,,,,,,,,,,,,,,75773,2022-11-10_11h39.14.067,vts_reward_expectancy_bt_OFFLINE,2022.2.4,61.11879019335923,
,,,,,,,,,,,,,,,,,,,,,,,,,,,,,,,,,,0,0,0,0,8,0,8,0,,,,,,,,,,,,,,,,,,,,,,,,,,,,0,918,,,3054.4110933420015,,3054.9113272049,132,Y,hexagon,0.00042911700438708067,,,,,1,0,,,2,,,,,,,,,3050.937631301931,3050.937631301931,3050.937631301931,3050.937631301931,3052.4253297839314,3052.4253297839314,3052.4253297839314,3052.4253297839314,3052.4420187899377,3052.4420187899377,3052.4420187899377,3052.4420187899377,,,,,switch,number,numSwt,d,vtsPrac,3052.9119046799606,0.46553900407161564,3054.4110933420015,,,,,,,,,,,,,,,,,,,,,,,,75773,2022-11-10_11h39.14.067,vts_reward_expectancy_bt_OFFLINE,2022.2.4,61.11879019335923,
,,,,,,,,,,,,,,,,,,,,,,,,,,,,,,,,,,0,0,0,0,9,0,9,0,,,,,,,,,,,,,,,,,,,,,,,,,,,,0,918,,,3058.8646566539537,,,160,B,circle,0.00038277998100966215,,,,,1,0,,,2,,,,,,,,,3055.408145311987,3055.408145311987,3055.408145311987,3055.408145311987,3056.895456242957,3056.895456242957,3056.895456242957,3056.895456242957,3056.9122022619704,3056.9122022619704,3056.9122022619704,3056.9122022619704,,,,,switch,letter,lettSwt,j,vtsPrac,3057.363936065929,0.4504073951393366,,,,,,,,,,,,,,,,,,,,,,,,,75773,2022-11-10_11h39.14.067,vts_reward_expectancy_bt_OFFLINE,2022.2.4,61.11879019335923,
,,,,,,,,,,,,,,,,,,,,,,,,,,,,,,,,,,0,0,0,0,10,0,10,0,,,,,,,,,,,,,,,,,,,,,,,,,,,,0,918,,,3063.3012615349144,,,146,U,star,0.0015364979626610875,,,,,1,0,,,2,,,,,,,,,3059.8611467949813,3059.8611467949813,3059.8611467949813,3059.8611467949813,3061.348718249006,3061.348718249006,3061.348718249006,3061.348718249006,3061.3655049089575,3061.3655049089575,3061.3655049089575,3061.3655049089575,,,,,repeat,letter,lettRpt,k,vtsPrac,3061.800283576944,0.4298513460671529,,,,,,,,,,,,,,,,,,,,,,,,,75773,2022-11-10_11h39.14.067,vts_reward_expectancy_bt_OFFLINE,2022.2.4,61.11879019335923,
,,,,,,,,,,,,,,,,,,,,,,,,,,,,,,,,,,0,0,0,0,11,0,11,0,,,,,,,,,,,,,,,,,,,,,,,,,,,,0,918,,,3067.721504115965,,,181,S,hexagon,0.0021410370245575905,,,,,1,0,,,2,,,,,,,,,3064.297411878011,3064.297411878011,3064.297411878011,3064.297411878011,3065.785546723986,3065.785546723986,3065.785546723986,3065.785546723986,3065.802223371924,3065.802223371924,3065.802223371924,3065.802223371924,,,,,switch,number,numSwt,f,vtsPrac,3066.220453568967,0.4032363110454753,,,,,,,,,,,,,,,,,,,,,,,,,75773,2022-11-10_11h39.14.067,vts_reward_expectancy_bt_OFFLINE,2022.2.4,61.11879019335923,
,,,,,,,,,,,,,,,,,,,,,,,,,,,,,,,,,,0,0,0,0,12,0,12,0,,,,,,,,,,,,,,,,,,,,,,,,,,,,0,918,,,3072.1564514099155,,,181,B,circle,0.001738127088174224,,,,,1,0,,,2,,,,,,,,,3068.7172467589844,3068.7172467589844,3068.7172467589844,3068.7172467589844,3070.205901187961,3070.205901187961,3070.205901187961,3070.205901187961,3070.2223759419285,3070.2223759419285,3070.2223759419285,3070.2223759419285,,,,,repeat,number,numRpt,f,vtsPrac,3070.6410386409843,0.41681666509248316,,,,,,,,,,,,,,,,,,,,,,,,,75773,2022-11-10_11h39.14.067,vts_reward_expectancy_bt_OFFLINE,2022.2.4,61.11879019335923,
,,,,,,,,,,,,,,,,,,,,,,,,,,,,,,,,,,0,0,0,0,13,0,13,0,,,,,,,,,,,,,,,,,,,,,,,,,,,,0,918,,,3076.6100127249956,,3077.1102136030095,167,Y,hexagon,0.00163559103384614,,,,,0,0,,,2,,,,,,,,,3073.137141452986,3073.137141452986,3073.137141452986,3073.137141452986,3074.6257581699174,3074.6257581699174,3074.6257581699174,3074.6257581699174,3074.6425732669886,3074.6425732669886,3074.6425732669886,3074.6425732669886,,,,,repeat,number,NA,d,vtsPrac,3075.1098969579907,0.45150544110219926,3076.6100127249956,,,,,,,,,,,,,,,,,,,,,,,,75773,2022-11-10_11h39.14.067,vts_reward_expectancy_bt_OFFLINE,2022.2.4,61.11879019335923,
,,,,,,,,,,,,,,,,,,,,,,,,,,,,,,,,,,0,0,0,0,14,0,14,0,,,,,,,,,,,,,,,,,,,,,,,,,,,,0,918,,,3081.229947224958,,,139,F,triangle,-0.0004161240067332983,,,,,1,1,,,2,,,,,,,,,3077.6071854860056,3077.6071854860056,3077.6071854860056,3077.6071854860056,3079.096080444986,3079.096080444986,3079.096080444986,3079.096080444986,3079.1126381689683,3079.1126381689683,3079.1126381689683,3079.1126381689683,,,,,repeat,number,numRpt,d,vtsPrac,3079.716188753955,0.5937686641700566,,,,,,,,,,,,,,,,,,,,,,,,,75773,2022-11-10_11h39.14.067,vts_reward_expectancy_bt_OFFLINE,2022.2.4,61.11879019335923,
,,,,,,,,,,,,,,,,,,,,,,,,,,,,,,,,,,0,0,0,0,15,0,15,0,,,,,,,,,,,,,,,,,,,,,,,,,,,,0,918,,,3086.016903375974,,3086.5173796099843,132,H,hexagon,0.01698375295381993,,,,,1,0,,,2,,,,,,,,,3082.2270647869445,3082.2270647869445,3082.2270647869445,3082.2270647869445,3083.6993852859596,3083.6993852859596,3083.6993852859596,3083.6993852859596,3083.7327864069957,3083.7327864069957,3083.7327864069957,3083.7327864069957,,,,,switch,letter,lettSwt,j,vtsPrac,3084.5177391848993,0.7951621511019766,3086.016903375974,,,,,,,,,,,,,,,,,,,,,,,,75773,2022-11-10_11h39.14.067,vts_reward_expectancy_bt_OFFLINE,2022.2.4,61.11879019335923,
,,,,,,,,,,,,,,,,,,,,,,,,,,,,,,,,,,0,0,0,0,16,0,16,0,,,,,,,,,,,,,,,,,,,,,,,,,,,,0,918,,,3090.6536873430014,,3091.154066781979,174,H,circle,0.0004203181015327573,,,,,1,0,,,2,,,,,,,,,3087.0130265469197,3087.0130265469197,3087.0130265469197,3087.0130265469197,3088.502924380009,3088.502924380009,3088.502924380009,3088.502924380009,3088.5195945969317,3088.5195945969317,3088.5195945969317,3088.5195945969317,,,,,repeat,letter,lettRpt,j,vtsPrac,3089.1545477819163,0.6267710321117193,3090.6536873430014,,,,,,,,,,,,,,,,,,,,,,,,75773,2022-11-10_11h39.14.067,vts_reward_expectancy_bt_OFFLINE,2022.2.4,61.11879019335923,
,,,,,,,,,,,,,,,,,,,,,,,,,,,,,,,,,,0,0,0,0,17,0,17,0,,,,,,,,,,,,,,,,,,,,,,,,,,,,0,918,,,3095.5238181169843,,,160,B,hexagon,0.000510514946654439,,,,,1,0,,,2,,,,,,,,,3091.6500276209554,3091.6500276209554,3091.6500276209554,3091.6500276209554,3093.139786874992,3093.139786874992,3093.139786874992,3093.139786874992,3093.156460915925,3093.156460915925,3093.156460915925,3093.156460915925,,,,,switch,number,numSwt,f,vtsPrac,3094.008555338951,0.849394298158586,,,,,,,,,,,,,,,,,,,,,,,,,75773,2022-11-10_11h39.14.067,vts_reward_expectancy_bt_OFFLINE,2022.2.4,61.11879019335923,
,,,,,,,,,,,,,,,,,,,,,,,,,,,,,,,,,,0,0,0,0,18,0,18,0,,,,,,,,,,,,,,,,,,,,,,,,,,,,0,918,,,3100.0109967549797,,3100.510880149901,139,U,triangle,0.016349451965652406,,,,,1,0,,,2,,,,,,,,,3096.520234884927,3096.520234884927,3096.520234884927,3096.520234884927,3097.993751241942,3097.993751241942,3097.993751241942,3097.993751241942,3098.026902020909,3098.026902020909,3098.026902020909,3098.026902020909,,,,,repeat,number,numRpt,d,vtsPrac,3098.5116712149465,0.4964026330271736,3100.0109967549797,,,,,,,,,,,,,,,,,,,,,,,,75773,2022-11-10_11h39.14.067,vts_reward_expectancy_bt_OFFLINE,2022.2.4,61.11879019335923,
,,,,,,,,,,,,,,,,,,,,,,,,,,,,,,,,,,0,0,0,0,19,0,19,0,,,,,,,,,,,,,,,,,,,,,,,,,,,,0,918,,,3104.8143749319715,,3105.3145182169974,132,W,circle,0.00040108896791934967,,,,,1,0,,,2,,,,,,,,,3101.0069053479237,3101.0069053479237,3101.0069053479237,3101.0069053479237,3102.4950069779297,3102.4950069779297,3102.4950069779297,3102.4950069779297,3102.5118959329557,3102.5118959329557,3102.5118959329557,3102.5118959329557,,,,,repeat,number,numRpt,d,vtsPrac,3103.3150151019217,0.7873997431015596,3104.8143749319715,,,,,,,,,,,,,,,,,,,,,,,,75773,2022-11-10_11h39.14.067,vts_reward_expectancy_bt_OFFLINE,2022.2.4,61.11879019335923,
,,,,,,,,,,,,,,,,,,,,,,,,,,,,,,,,,,0,0,0,0,20,0,20,0,,,,,,,,,,,,,,,,,,,,,,,,,,,,0,918,,,3109.2679445549147,,3109.7676951759495,132,W,circle,0.0005939849652349949,,,,,1,0,,,2,,,,,,,,,3105.8101057969034,3105.8101057969034,3105.8101057969034,3105.8101057969034,3107.2988861579215,3107.2988861579215,3107.2988861579215,3107.2988861579215,3107.315429106937,3107.315429106937,3107.315429106937,3107.315429106937,,,,,switch,letter,lettSwt,k,vtsPrac,3107.768415780971,0.4495595801854506,3109.2679445549147,,,,,,,,,,,,,,,,,,,,,,,,75773,2022-11-10_11h39.14.067,vts_reward_expectancy_bt_OFFLINE,2022.2.4,61.11879019335923,
,,,,,,,,,,,,,,,,,,,,,,,,,,,,,,,,,,0,0,0,0,21,0,21,0,,,,,,,,,,,,,,,,,,,,,,,,,,,,0,918,,,3113.721271717921,,,181,B,hexagon,0.0006211560685187578,,,,,1,0,,,2,,,,,,,,,3110.2640355289914,3110.2640355289914,3110.2640355289914,3110.2640355289914,3111.752100541955,3111.752100541955,3111.752100541955,3111.752100541955,3111.7685696049593,3111.7685696049593,3111.7685696049593,3111.7685696049593,,,,,repeat,letter,lettRpt,j,vtsPrac,3112.220073665958,0.4407486501149833,,,,,,,,,,,,,,,,,,,,,,,,,75773,2022-11-10_11h39.14.067,vts_reward_expectancy_bt_OFFLINE,2022.2.4,61.11879019335923,
,,,,,,,,,,,,,,,,,,,,,,,,,,,,,,,,,,0,0,0,0,22,0,22,0,,,,,,,,,,,,,,,,,,,,,,,,,,,,0,918,,,3118.7413990199566,,,146,D,star,0.002166399033740163,,,,,1,0,,,2,,,,,,,,,3114.716896239901,3114.716896239901,3114.716896239901,3114.716896239901,3116.205471433932,3116.205471433932,3116.205471433932,3116.205471433932,3116.2221944699995,3116.2221944699995,3116.2221944699995,3116.2221944699995,,,,,repeat,letter,lettRpt,j,vtsPrac,3117.2404907239834,1.0052567890379578,,,,,,,,,,,,,,,,,,,,,,,,,75773,2022-11-10_11h39.14.067,vts_reward_expectancy_bt_OFFLINE,2022.2.4,61.11879019335923,
,,,,,,,,,,,,,,,,,,,,,,,,,,,,,,,,,,0,0,0,0,23,0,23,0,,,,,,,,,,,,,,,,,,,,,,,,,,,,0,918,,,3123.5618710370036,,,125,H,triangle,0.0020420470973476768,,,,,1,0,,,2,,,,,,,,,3119.738047215971,3119.738047215971,3119.738047215971,3119.738047215971,3121.225756544969,3121.225756544969,3121.225756544969,3121.225756544969,3121.242357380921,3121.242357380921,3121.242357380921,3121.242357380921,,,,,switch,number,numSwt,d,vtsPrac,3122.0614676949335,0.8110700711840764,,,,,,,,,,,,,,,,,,,,,,,,,75773,2022-11-10_11h39.14.067,vts_reward_expectancy_bt_OFFLINE,2022.2.4,61.11879019335923,
