LTriangleOpac,LCircleOpac,LHexagonOpac,LStarOpac,RTriangleOpac,RCircleOpac,RHexagonOpac,RStarOpac,LShape_ID,RShape_ID,training_blocks.thisRepN,training_blocks.thisTrialN,training_blocks.thisN,training_blocks.thisIndex,training.thisRepN,training.thisTrialN,training.thisN,training.thisIndex,task1_prac_redo.thisRepN,task1_prac_redo.thisTrialN,task1_prac_redo.thisN,task1_prac_redo.thisIndex,task1_prac_trials.thisRepN,task1_prac_trials.thisTrialN,task1_prac_trials.thisN,task1_prac_trials.thisIndex,task2_prac_redo.thisRepN,task2_prac_redo.thisTrialN,task2_prac_redo.thisN,task2_prac_redo.thisIndex,task2_praac_trials.thisRepN,task2_praac_trials.thisTrialN,task2_praac_trials.thisN,task2_praac_trials.thisIndex,vts_prac_redo.thisRepN,vts_prac_redo.thisTrialN,vts_prac_redo.thisN,vts_prac_redo.thisIndex,vts_practice_trials.thisRepN,vts_practice_trials.thisTrialN,vts_practice_trials.thisN,vts_practice_trials.thisIndex,trials_norew.thisRepN,trials_norew.thisTrialN,trials_norew.thisN,trials_norew.thisIndex,block.thisRepN,block.thisTrialN,block.thisN,block.thisIndex,trials_rew.thisRepN,trials_rew.thisTrialN,trials_rew.thisN,trials_rew.thisIndex,key_resp.started,key_resp.keys,key_resp.rt,left_circle.started,right_circle.started,left_triangle.started,right_triangle.started,left_star.started,right_star.started,left_hexagon.started,right_hexagon.started,training_fix.started,training_resp.started,training_resp.keys,training_resp.rt,points_trial,points_cumul,trainBlock,training_feedback_txt.started,fix.started,training_feedback_txt.stopped,curr_topStim,curr_bottStim,curr_shape,ISI.started,tgt_fix_prac1.started,top_target_prac1.started,bott_target_prac1.started,target_resp_prac1.started,acc,E1,target_resp_prac1.keys,target_resp_prac1.rt,pracBlock,prac_fback_text.started,tgt_fix_prac2.started,top_target_prac2.started,bott_target_prac2.started,target_resp_prac2.started,target_resp_prac2.keys,target_resp_prac2.rt,prac_fback_text.stopped,top_target_prac2.stopped,tgt_fix_prac2.stopped,bott_target_prac2.stopped,target_resp_prac2.stopped,fix.stopped,star.started,hegagon.started,triangle.started,circle.started,star.stopped,hegagon.stopped,triangle.stopped,circle.stopped,top_target.started,tgt_fix.started,bot_target.started,target_resp.started,top_target.stopped,tgt_fix.stopped,bot_target.stopped,target_resp.stopped,alt,task,condition,target_resp.keys,rewCond,vts_fback.started,vts_fback.stopped,target_resp.rt,blockNum,norew_fback.started,norew_fback.stopped,key_resp_2.keys,key_resp_2.rt,rewExpectancy,feedbk_text.started,feedbk_text.stopped,text_3.started,debrief.started,text_3.stopped,button.started,debrief.index,debrief.itemText,debrief.type,debrief.granularity,debrief.font,debrief.markerColor,debrief.response,debrief.rt,button.numClicks,button.timesOn,button.timesOff,participant,date,expName,psychopyVersion,frameRate,
,,,,,,,,,,,,,,,,,,,,,,,,,,,,,,,,,,,,,,,,,,,,,,,,,,,,,,432.7764904939977,space,33.12159972501104,,,,,,,,,,,,,,,,,,,,,,,,,,,,,,,,,,,,,,,,,,,,,,,,,,,,,,,,,,,,,,,,,,,,,,,,,,,,,,,,,,,,,,,,,,,,77970,2022-11-22_08h04.02.974,vts_reward_expectancy_bt_OFFLINE,2022.2.4,59.94806914303617,
0,1,0,0,1,0,0,0,circle,triangle,0,0,0,0,0,0,0,3,,,,,,,,,,,,,,,,,,,,,,,,,,,,,,,,,,,,,,,,493.6638550759817,493.6638550759817,493.6638550759817,493.6638550759817,493.6638550759817,493.6638550759817,493.6638550759817,493.6638550759817,493.6638550759817,493.6638550759817,a,2.092956923006568,10,10,0,495.7818369519955,497.2836486559827,,,,,,,,,,,,,,,,,,,,,,,,,,,,,,,,,,,,,,,,,,,,,,,,,,,,,,,,,,,,,,,,,,,,,,,,,,,77970,2022-11-22_08h04.02.974,vts_reward_expectancy_bt_OFFLINE,2022.2.4,59.94806914303617,
0,1,0,0,0,0,0,1,circle,star,0,0,0,0,0,1,1,5,,,,,,,,,,,,,,,,,,,,,,,,,,,,,,,,,,,,,,,,497.7842168279749,497.7842168279749,497.7842168279749,497.7842168279749,497.7842168279749,497.7842168279749,497.7842168279749,497.7842168279749,497.7842168279749,497.7842168279749,a,0.8853616530250292,1,11,0,498.70177275899914,500.2036182929878,,,,,,,,,,,,,,,,,,,,,,,,,,,,,,,,,,,,,,,,,,,,,,,,,,,,,,,,,,,,,,,,,,,,,,,,,,,77970,2022-11-22_08h04.02.974,vts_reward_expectancy_bt_OFFLINE,2022.2.4,59.94806914303617,
0,0,0,1,0,0,1,0,star,hexagon,0,0,0,0,0,2,2,11,,,,,,,,,,,,,,,,,,,,,,,,,,,,,,,,,,,,,,,,500.7041750109929,500.7041750109929,500.7041750109929,500.7041750109929,500.7041750109929,500.7041750109929,500.7041750109929,500.7041750109929,500.7041750109929,500.7041750109929,a,0.8907893340219744,1,12,0,501.6218542220013,503.12337781800306,,,,,,,,,,,,,,,,,,,,,,,,,,,,,,,,,,,,,,,,,,,,,,,,,,,,,,,,,,,,,,,,,,,,,,,,,,,77970,2022-11-22_08h04.02.974,vts_reward_expectancy_bt_OFFLINE,2022.2.4,59.94806914303617,
1,0,0,0,0,1,0,0,triangle,circle,0,0,0,0,0,3,3,0,,,,,,,,,,,,,,,,,,,,,,,,,,,,,,,,,,,,,,,,503.6239106779976,503.6239106779976,503.6239106779976,503.6239106779976,503.6239106779976,503.6239106779976,503.6239106779976,503.6239106779976,503.6239106779976,503.6239106779976,l,0.3015337850083597,1,13,0,503.9577301410027,505.4594021969824,,,,,,,,,,,,,,,,,,,,,,,,,,,,,,,,,,,,,,,,,,,,,,,,,,,,,,,,,,,,,,,,,,,,,,,,,,,77970,2022-11-22_08h04.02.974,vts_reward_expectancy_bt_OFFLINE,2022.2.4,59.94806914303617,
1,0,0,0,0,0,0,1,triangle,star,0,0,0,0,0,4,4,2,,,,,,,,,,,,,,,,,,,,,,,,,,,,,,,,,,,,,,,,505.9600965039863,505.9600965039863,505.9600965039863,505.9600965039863,505.9600965039863,505.9600965039863,505.9600965039863,505.9600965039863,505.9600965039863,505.9600965039863,l,0.428381932026241,10,23,0,506.4105675009778,507.91197997599375,,,,,,,,,,,,,,,,,,,,,,,,,,,,,,,,,,,,,,,,,,,,,,,,,,,,,,,,,,,,,,,,,,,,,,,,,,,77970,2022-11-22_08h04.02.974,vts_reward_expectancy_bt_OFFLINE,2022.2.4,59.94806914303617,
0,1,0,0,0,0,1,0,circle,hexagon,0,0,0,0,0,5,5,4,,,,,,,,,,,,,,,,,,,,,,,,,,,,,,,,,,,,,,,,508.41271628899267,508.41271628899267,508.41271628899267,508.41271628899267,508.41271628899267,508.41271628899267,508.41271628899267,508.41271628899267,508.41271628899267,508.41271628899267,a,0.418038225005148,10,33,0,508.8634827249916,510.36479424498975,,,,,,,,,,,,,,,,,,,,,,,,,,,,,,,,,,,,,,,,,,,,,,,,,,,,,,,,,,,,,,,,,,,,,,,,,,,77970,2022-11-22_08h04.02.974,vts_reward_expectancy_bt_OFFLINE,2022.2.4,59.94806914303617,
0,0,1,0,0,0,0,1,hexagon,star,0,0,0,0,0,6,6,8,,,,,,,,,,,,,,,,,,,,,,,,,,,,,,,,,,,,,,,,510.86546577498666,510.86546577498666,510.86546577498666,510.86546577498666,510.86546577498666,510.86546577498666,510.86546577498666,510.86546577498666,510.86546577498666,510.86546577498666,a,1.8116050970274955,1,34,0,512.7006980769802,514.2022901349992,,,,,,,,,,,,,,,,,,,,,,,,,,,,,,,,,,,,,,,,,,,,,,,,,,,,,,,,,,,,,,,,,,,,,,,,,,,77970,2022-11-22_08h04.02.974,vts_reward_expectancy_bt_OFFLINE,2022.2.4,59.94806914303617,
0,0,1,0,0,1,0,0,hexagon,circle,0,0,0,0,0,7,7,7,,,,,,,,,,,,,,,,,,,,,,,,,,,,,,,,,,,,,,,,514.7029161629907,514.7029161629907,514.7029161629907,514.7029161629907,514.7029161629907,514.7029161629907,514.7029161629907,514.7029161629907,514.7029161629907,514.7029161629907,l,0.5730165000422858,1,35,0,515.3035496049852,516.805399860983,,,,,,,,,,,,,,,,,,,,,,,,,,,,,,,,,,,,,,,,,,,,,,,,,,,,,,,,,,,,,,,,,,,,,,,,,,,77970,2022-11-22_08h04.02.974,vts_reward_expectancy_bt_OFFLINE,2022.2.4,59.94806914303617,
0,0,0,1,1,0,0,0,star,triangle,0,0,0,0,0,8,8,9,,,,,,,,,,,,,,,,,,,,,,,,,,,,,,,,,,,,,,,,517.3057911619835,517.3057911619835,517.3057911619835,517.3057911619835,517.3057911619835,517.3057911619835,517.3057911619835,517.3057911619835,517.3057911619835,517.3057911619835,l,0.2772111900267191,1,36,0,517.6060885810002,519.1079070809938,,,,,,,,,,,,,,,,,,,,,,,,,,,,,,,,,,,,,,,,,,,,,,,,,,,,,,,,,,,,,,,,,,,,,,,,,,,77970,2022-11-22_08h04.02.974,vts_reward_expectancy_bt_OFFLINE,2022.2.4,59.94806914303617,
0,0,0,1,0,1,0,0,star ,circle,0,0,0,0,0,9,9,10,,,,,,,,,,,,,,,,,,,,,,,,,,,,,,,,,,,,,,,,519.6083497249929,519.6083497249929,519.6083497249929,519.6083497249929,519.6083497249929,519.6083497249929,519.6083497249929,519.6083497249929,519.6083497249929,519.6083497249929,l,0.25706234099925496,1,37,0,519.8920404219825,521.3936826249992,,,,,,,,,,,,,,,,,,,,,,,,,,,,,,,,,,,,,,,,,,,,,,,,,,,,,,,,,,,,,,,,,,,,,,,,,,,77970,2022-11-22_08h04.02.974,vts_reward_expectancy_bt_OFFLINE,2022.2.4,59.94806914303617,
0,0,1,0,1,0,0,0,hexagon,triangle,0,0,0,0,0,10,10,6,,,,,,,,,,,,,,,,,,,,,,,,,,,,,,,,,,,,,,,,521.8940860379953,521.8940860379953,521.8940860379953,521.8940860379953,521.8940860379953,521.8940860379953,521.8940860379953,521.8940860379953,521.8940860379953,521.8940860379953,a,1.9095154110109434,1,38,0,523.8296239229967,525.331348621985,,,,,,,,,,,,,,,,,,,,,,,,,,,,,,,,,,,,,,,,,,,,,,,,,,,,,,,,,,,,,,,,,,,,,,,,,,,77970,2022-11-22_08h04.02.974,vts_reward_expectancy_bt_OFFLINE,2022.2.4,59.94806914303617,
1,0,0,0,0,0,1,0,triangle,hexagon,0,0,0,0,0,11,11,1,,,,,,,,,,,,,,,,,,,,,,,,,,,,,,,,,,,,,,,,525.8319294819958,525.8319294819958,525.8319294819958,525.8319294819958,525.8319294819958,525.8319294819958,525.8319294819958,525.8319294819958,525.8319294819958,525.8319294819958,a,0.30198370103607886,10,48,0,526.165451607987,527.6671077099745,,,,,,,,,,,,,,,,,,,,,,,,,,,,,,,,,,,,,,,,,,,,,,,,,,,,,,,,,,,,,,,,,,,,,,,,,,,77970,2022-11-22_08h04.02.974,vts_reward_expectancy_bt_OFFLINE,2022.2.4,59.94806914303617,
1,0,0,0,0,1,0,0,triangle,circle,0,0,0,0,1,0,12,0,,,,,,,,,,,,,,,,,,,,,,,,,,,,,,,,,,,,,,,,528.1678931619972,528.1678931619972,528.1678931619972,528.1678931619972,528.1678931619972,528.1678931619972,528.1678931619972,528.1678931619972,528.1678931619972,528.1678931619972,l,0.37273202603682876,10,58,0,528.5682498480019,530.0698853049835,,,,,,,,,,,,,,,,,,,,,,,,,,,,,,,,,,,,,,,,,,,,,,,,,,,,,,,,,,,,,,,,,,,,,,,,,,,77970,2022-11-22_08h04.02.974,vts_reward_expectancy_bt_OFFLINE,2022.2.4,59.94806914303617,
0,0,1,0,0,0,0,1,hexagon,star,0,0,0,0,1,1,13,8,,,,,,,,,,,,,,,,,,,,,,,,,,,,,,,,,,,,,,,,530.5704009170004,530.5704009170004,530.5704009170004,530.5704009170004,530.5704009170004,530.5704009170004,530.5704009170004,530.5704009170004,530.5704009170004,530.5704009170004,a,0.29804818602860905,1,59,0,530.8874438929779,532.3890770759899,532.3890770759899,,,,,,,,,,,,,,,,,,,,,,,,,,,,,,,,,,,,,,,,,,,,,,,,,,,,,,,,,,,,,,,,,,,,,,,,,,77970,2022-11-22_08h04.02.974,vts_reward_expectancy_bt_OFFLINE,2022.2.4,59.94806914303617,
0,1,0,0,0,0,1,0,circle,hexagon,0,0,0,0,1,2,14,4,,,,,,,,,,,,,,,,,,,,,,,,,,,,,,,,,,,,,,,,532.8896813039901,532.8896813039901,532.8896813039901,532.8896813039901,532.8896813039901,532.8896813039901,532.8896813039901,532.8896813039901,532.8896813039901,532.8896813039901,l,0.5436533770116512,1,60,0,533.4569553530018,534.9588393959857,,,,,,,,,,,,,,,,,,,,,,,,,,,,,,,,,,,,,,,,,,,,,,,,,,,,,,,,,,,,,,,,,,,,,,,,,,,77970,2022-11-22_08h04.02.974,vts_reward_expectancy_bt_OFFLINE,2022.2.4,59.94806914303617,
0,1,0,0,0,0,0,1,circle,star,0,0,0,0,1,3,15,5,,,,,,,,,,,,,,,,,,,,,,,,,,,,,,,,,,,,,,,,535.4590745089808,535.4590745089808,535.4590745089808,535.4590745089808,535.4590745089808,535.4590745089808,535.4590745089808,535.4590745089808,535.4590745089808,535.4590745089808,a,1.991590908030048,10,70,0,537.4780327889894,538.9795172479935,,,,,,,,,,,,,,,,,,,,,,,,,,,,,,,,,,,,,,,,,,,,,,,,,,,,,,,,,,,,,,,,,,,,,,,,,,,77970,2022-11-22_08h04.02.974,vts_reward_expectancy_bt_OFFLINE,2022.2.4,59.94806914303617,
0,0,0,1,0,0,1,0,star,hexagon,0,0,0,0,1,4,16,11,,,,,,,,,,,,,,,,,,,,,,,,,,,,,,,,,,,,,,,,539.4801118739997,539.4801118739997,539.4801118739997,539.4801118739997,539.4801118739997,539.4801118739997,539.4801118739997,539.4801118739997,539.4801118739997,539.4801118739997,l,2.110146187042119,10,80,0,541.616244675999,543.1178730359825,,,,,,,,,,,,,,,,,,,,,,,,,,,,,,,,,,,,,,,,,,,,,,,,,,,,,,,,,,,,,,,,,,,,,,,,,,,77970,2022-11-22_08h04.02.974,vts_reward_expectancy_bt_OFFLINE,2022.2.4,59.94806914303617,
0,0,1,0,1,0,0,0,hexagon,triangle,0,0,0,0,1,5,17,6,,,,,,,,,,,,,,,,,,,,,,,,,,,,,,,,,,,,,,,,543.6183027669904,543.6183027669904,543.6183027669904,543.6183027669904,543.6183027669904,543.6183027669904,543.6183027669904,543.6183027669904,543.6183027669904,543.6183027669904,l,1.920309831009945,1,81,0,545.5703480679949,547.0720641200023,,,,,,,,,,,,,,,,,,,,,,,,,,,,,,,,,,,,,,,,,,,,,,,,,,,,,,,,,,,,,,,,,,,,,,,,,,,77970,2022-11-22_08h04.02.974,vts_reward_expectancy_bt_OFFLINE,2022.2.4,59.94806914303617,
0,1,0,0,1,0,0,0,circle,triangle,0,0,0,0,1,6,18,3,,,,,,,,,,,,,,,,,,,,,,,,,,,,,,,,,,,,,,,,547.5725382529781,547.5725382529781,547.5725382529781,547.5725382529781,547.5725382529781,547.5725382529781,547.5725382529781,547.5725382529781,547.5725382529781,547.5725382529781,a,0.7461691660282668,10,91,0,548.340247524,549.8417111779854,,,,,,,,,,,,,,,,,,,,,,,,,,,,,,,,,,,,,,,,,,,,,,,,,,,,,,,,,,,,,,,,,,,,,,,,,,,77970,2022-11-22_08h04.02.974,vts_reward_expectancy_bt_OFFLINE,2022.2.4,59.94806914303617,
0,0,0,1,0,1,0,0,star ,circle,0,0,0,0,1,7,19,10,,,,,,,,,,,,,,,,,,,,,,,,,,,,,,,,,,,,,,,,550.3421942779969,550.3421942779969,550.3421942779969,550.3421942779969,550.3421942779969,550.3421942779969,550.3421942779969,550.3421942779969,550.3421942779969,550.3421942779969,a,1.3066364550031722,10,101,0,551.6770806739805,553.178932209994,,,,,,,,,,,,,,,,,,,,,,,,,,,,,,,,,,,,,,,,,,,,,,,,,,,,,,,,,,,,,,,,,,,,,,,,,,,77970,2022-11-22_08h04.02.974,vts_reward_expectancy_bt_OFFLINE,2022.2.4,59.94806914303617,
1,0,0,0,0,0,1,0,triangle,hexagon,0,0,0,0,1,8,20,1,,,,,,,,,,,,,,,,,,,,,,,,,,,,,,,,,,,,,,,,553.6796608709847,553.6796608709847,553.6796608709847,553.6796608709847,553.6796608709847,553.6796608709847,553.6796608709847,553.6796608709847,553.6796608709847,553.6796608709847,l,3.0986933360109106,1,102,0,556.7992200570006,558.3010131499905,,,,,,,,,,,,,,,,,,,,,,,,,,,,,,,,,,,,,,,,,,,,,,,,,,,,,,,,,,,,,,,,,,,,,,,,,,,77970,2022-11-22_08h04.02.974,vts_reward_expectancy_bt_OFFLINE,2022.2.4,59.94806914303617,
0,0,1,0,0,1,0,0,hexagon,circle,0,0,0,0,1,9,21,7,,,,,,,,,,,,,,,,,,,,,,,,,,,,,,,,,,,,,,,,558.801430255,558.801430255,558.801430255,558.801430255,558.801430255,558.801430255,558.801430255,558.801430255,558.801430255,558.801430255,l,0.7777253450185526,1,103,0,559.6023062659951,561.1040650449868,,,,,,,,,,,,,,,,,,,,,,,,,,,,,,,,,,,,,,,,,,,,,,,,,,,,,,,,,,,,,,,,,,,,,,,,,,,77970,2022-11-22_08h04.02.974,vts_reward_expectancy_bt_OFFLINE,2022.2.4,59.94806914303617,
1,0,0,0,0,0,0,1,triangle,star,0,0,0,0,1,10,22,2,,,,,,,,,,,,,,,,,,,,,,,,,,,,,,,,,,,,,,,,561.6045915609866,561.6045915609866,561.6045915609866,561.6045915609866,561.6045915609866,561.6045915609866,561.6045915609866,561.6045915609866,561.6045915609866,561.6045915609866,a,1.0363839360070415,10,113,0,562.6724851719919,564.17409274698,,,,,,,,,,,,,,,,,,,,,,,,,,,,,,,,,,,,,,,,,,,,,,,,,,,,,,,,,,,,,,,,,,,,,,,,,,,77970,2022-11-22_08h04.02.974,vts_reward_expectancy_bt_OFFLINE,2022.2.4,59.94806914303617,
0,0,0,1,1,0,0,0,star,triangle,0,0,0,0,1,11,23,9,,,,,,,,,,,,,,,,,,,,,,,,,,,,,,,,,,,,,,,,564.6747036390007,564.6747036390007,564.6747036390007,564.6747036390007,564.6747036390007,564.6747036390007,564.6747036390007,564.6747036390007,564.6747036390007,564.6747036390007,a,0.4518815940245986,1,114,0,565.1585864999797,566.6602507459756,,,,,,,,,,,,,,,,,,,,,,,,,,,,,,,,,,,,,,,,,,,,,,,,,,,,,,,,,,,,,,,,,,,,,,,,,,,77970,2022-11-22_08h04.02.974,vts_reward_expectancy_bt_OFFLINE,2022.2.4,59.94806914303617,
1,0,0,0,0,1,0,0,triangle,circle,0,0,0,0,2,0,24,0,,,,,,,,,,,,,,,,,,,,,,,,,,,,,,,,,,,,,,,,567.1610277209838,567.1610277209838,567.1610277209838,567.1610277209838,567.1610277209838,567.1610277209838,567.1610277209838,567.1610277209838,567.1610277209838,567.1610277209838,a,0.5749802490172442,1,115,0,567.7614919329935,569.2632178450003,,,,,,,,,,,,,,,,,,,,,,,,,,,,,,,,,,,,,,,,,,,,,,,,,,,,,,,,,,,,,,,,,,,,,,,,,,,77970,2022-11-22_08h04.02.974,vts_reward_expectancy_bt_OFFLINE,2022.2.4,59.94806914303617,
0,1,0,0,1,0,0,0,circle,triangle,0,0,0,0,2,1,25,3,,,,,,,,,,,,,,,,,,,,,,,,,,,,,,,,,,,,,,,,569.7637238489988,569.7637238489988,569.7637238489988,569.7637238489988,569.7637238489988,569.7637238489988,569.7637238489988,569.7637238489988,569.7637238489988,569.7637238489988,l,0.44780237300437875,1,116,0,570.2307853639941,571.7323737229744,,,,,,,,,,,,,,,,,,,,,,,,,,,,,,,,,,,,,,,,,,,,,,,,,,,,,,,,,,,,,,,,,,,,,,,,,,,77970,2022-11-22_08h04.02.974,vts_reward_expectancy_bt_OFFLINE,2022.2.4,59.94806914303617,
0,0,0,1,1,0,0,0,star,triangle,0,0,0,0,2,2,26,9,,,,,,,,,,,,,,,,,,,,,,,,,,,,,,,,,,,,,,,,572.2328626679955,572.2328626679955,572.2328626679955,572.2328626679955,572.2328626679955,572.2328626679955,572.2328626679955,572.2328626679955,572.2328626679955,572.2328626679955,a,0.9822928360081278,10,126,0,573.2339608119801,574.7358666099899,574.7358666099899,,,,,,,,,,,,,,,,,,,,,,,,,,,,,,,,,,,,,,,,,,,,,,,,,,,,,,,,,,,,,,,,,,,,,,,,,,77970,2022-11-22_08h04.02.974,vts_reward_expectancy_bt_OFFLINE,2022.2.4,59.94806914303617,
0,1,0,0,0,0,1,0,circle,hexagon,0,0,0,0,2,3,27,4,,,,,,,,,,,,,,,,,,,,,,,,,,,,,,,,,,,,,,,,575.2363190189935,575.2363190189935,575.2363190189935,575.2363190189935,575.2363190189935,575.2363190189935,575.2363190189935,575.2363190189935,575.2363190189935,575.2363190189935,l,3.818386475002626,10,136,0,579.073872013978,580.5754931419797,,,,,,,,,,,,,,,,,,,,,,,,,,,,,,,,,,,,,,,,,,,,,,,,,,,,,,,,,,,,,,,,,,,,,,,,,,,77970,2022-11-22_08h04.02.974,vts_reward_expectancy_bt_OFFLINE,2022.2.4,59.94806914303617,
0,0,1,0,0,0,0,1,hexagon,star,0,0,0,0,2,4,28,8,,,,,,,,,,,,,,,,,,,,,,,,,,,,,,,,,,,,,,,,581.0759385889978,581.0759385889978,581.0759385889978,581.0759385889978,581.0759385889978,581.0759385889978,581.0759385889978,581.0759385889978,581.0759385889978,581.0759385889978,a,2.4562607670086436,1,137,0,583.5620923009992,585.0637046109769,,,,,,,,,,,,,,,,,,,,,,,,,,,,,,,,,,,,,,,,,,,,,,,,,,,,,,,,,,,,,,,,,,,,,,,,,,,77970,2022-11-22_08h04.02.974,vts_reward_expectancy_bt_OFFLINE,2022.2.4,59.94806914303617,
0,0,1,0,0,1,0,0,hexagon,circle,0,0,0,0,2,5,29,7,,,,,,,,,,,,,,,,,,,,,,,,,,,,,,,,,,,,,,,,585.5645521699917,585.5645521699917,585.5645521699917,585.5645521699917,585.5645521699917,585.5645521699917,585.5645521699917,585.5645521699917,585.5645521699917,585.5645521699917,l,0.8919535530149005,1,138,0,586.4821236220014,587.9837344909902,,,,,,,,,,,,,,,,,,,,,,,,,,,,,,,,,,,,,,,,,,,,,,,,,,,,,,,,,,,,,,,,,,,,,,,,,,,77970,2022-11-22_08h04.02.974,vts_reward_expectancy_bt_OFFLINE,2022.2.4,59.94806914303617,
0,0,1,0,1,0,0,0,hexagon,triangle,0,0,0,0,2,6,30,6,,,,,,,,,,,,,,,,,,,,,,,,,,,,,,,,,,,,,,,,588.4842662169831,588.4842662169831,588.4842662169831,588.4842662169831,588.4842662169831,588.4842662169831,588.4842662169831,588.4842662169831,588.4842662169831,588.4842662169831,a,1.865067999024177,10,148,0,590.3700081259885,591.8714918030018,,,,,,,,,,,,,,,,,,,,,,,,,,,,,,,,,,,,,,,,,,,,,,,,,,,,,,,,,,,,,,,,,,,,,,,,,,,77970,2022-11-22_08h04.02.974,vts_reward_expectancy_bt_OFFLINE,2022.2.4,59.94806914303617,
0,0,0,1,0,0,1,0,star,hexagon,0,0,0,0,2,7,31,11,,,,,,,,,,,,,,,,,,,,,,,,,,,,,,,,,,,,,,,,592.3720250809856,592.3720250809856,592.3720250809856,592.3720250809856,592.3720250809856,592.3720250809856,592.3720250809856,592.3720250809856,592.3720250809856,592.3720250809856,l,3.522930515027838,1,149,0,595.9258357489889,597.4274702969997,,,,,,,,,,,,,,,,,,,,,,,,,,,,,,,,,,,,,,,,,,,,,,,,,,,,,,,,,,,,,,,,,,,,,,,,,,,77970,2022-11-22_08h04.02.974,vts_reward_expectancy_bt_OFFLINE,2022.2.4,59.94806914303617,
1,0,0,0,0,0,1,0,triangle,hexagon,0,0,0,0,2,8,32,1,,,,,,,,,,,,,,,,,,,,,,,,,,,,,,,,,,,,,,,,597.9280587819812,597.9280587819812,597.9280587819812,597.9280587819812,597.9280587819812,597.9280587819812,597.9280587819812,597.9280587819812,597.9280587819812,597.9280587819812,l,0.7571735180099495,1,150,0,598.7121955939801,600.213776139979,,,,,,,,,,,,,,,,,,,,,,,,,,,,,,,,,,,,,,,,,,,,,,,,,,,,,,,,,,,,,,,,,,,,,,,,,,,77970,2022-11-22_08h04.02.974,vts_reward_expectancy_bt_OFFLINE,2022.2.4,59.94806914303617,
1,0,0,0,0,0,0,1,triangle,star,0,0,0,0,2,9,33,2,,,,,,,,,,,,,,,,,,,,,,,,,,,,,,,,,,,,,,,,600.7142812849779,600.7142812849779,600.7142812849779,600.7142812849779,600.7142812849779,600.7142812849779,600.7142812849779,600.7142812849779,600.7142812849779,600.7142812849779,a,0.34523720800643787,10,160,0,601.0817399449879,602.583318177989,,,,,,,,,,,,,,,,,,,,,,,,,,,,,,,,,,,,,,,,,,,,,,,,,,,,,,,,,,,,,,,,,,,,,,,,,,,77970,2022-11-22_08h04.02.974,vts_reward_expectancy_bt_OFFLINE,2022.2.4,59.94806914303617,
0,0,0,1,0,1,0,0,star ,circle,0,0,0,0,2,10,34,10,,,,,,,,,,,,,,,,,,,,,,,,,,,,,,,,,,,,,,,,603.0837999669893,603.0837999669893,603.0837999669893,603.0837999669893,603.0837999669893,603.0837999669893,603.0837999669893,603.0837999669893,603.0837999669893,603.0837999669893,l,0.7537188760179561,1,161,0,603.8682334600016,605.3695833929814,,,,,,,,,,,,,,,,,,,,,,,,,,,,,,,,,,,,,,,,,,,,,,,,,,,,,,,,,,,,,,,,,,,,,,,,,,,77970,2022-11-22_08h04.02.974,vts_reward_expectancy_bt_OFFLINE,2022.2.4,59.94806914303617,
0,1,0,0,0,0,0,1,circle,star,0,0,0,0,2,11,35,5,,,,,,,,,,,,,,,,,,,,,,,,,,,,,,,,,,,,,,,,605.870158774982,605.870158774982,605.870158774982,605.870158774982,605.870158774982,605.870158774982,605.870158774982,605.870158774982,605.870158774982,605.870158774982,a,0.4549805679998826,10,171,0,606.3539705679868,607.8556205559871,,,,,,,,,,,,,,,,,,,,,,,,,,,,,,,,,,,,,,,,,,,,,,,,,,,,,,,,,,,,,,,,,,,,,,,,,,,77970,2022-11-22_08h04.02.974,vts_reward_expectancy_bt_OFFLINE,2022.2.4,59.94806914303617,
0,0,1,0,0,1,0,0,hexagon,circle,0,0,0,0,3,0,36,7,,,,,,,,,,,,,,,,,,,,,,,,,,,,,,,,,,,,,,,,608.3561701599974,608.3561701599974,608.3561701599974,608.3561701599974,608.3561701599974,608.3561701599974,608.3561701599974,608.3561701599974,608.3561701599974,608.3561701599974,l,1.770416819024831,10,181,0,610.158128436975,611.6597807969956,,,,,,,,,,,,,,,,,,,,,,,,,,,,,,,,,,,,,,,,,,,,,,,,,,,,,,,,,,,,,,,,,,,,,,,,,,,77970,2022-11-22_08h04.02.974,vts_reward_expectancy_bt_OFFLINE,2022.2.4,59.94806914303617,
0,0,0,1,1,0,0,0,star,triangle,0,0,0,0,3,1,37,9,,,,,,,,,,,,,,,,,,,,,,,,,,,,,,,,,,,,,,,,612.1601825459802,612.1601825459802,612.1601825459802,612.1601825459802,612.1601825459802,612.1601825459802,612.1601825459802,612.1601825459802,612.1601825459802,612.1601825459802,l,1.747872747015208,10,191,0,613.9290005700022,615.4306962269766,,,,,,,,,,,,,,,,,,,,,,,,,,,,,,,,,,,,,,,,,,,,,,,,,,,,,,,,,,,,,,,,,,,,,,,,,,,77970,2022-11-22_08h04.02.974,vts_reward_expectancy_bt_OFFLINE,2022.2.4,59.94806914303617,
1,0,0,0,0,0,0,1,triangle,star,0,0,0,0,3,2,38,2,,,,,,,,,,,,,,,,,,,,,,,,,,,,,,,,,,,,,,,,615.9315236089751,615.9315236089751,615.9315236089751,615.9315236089751,615.9315236089751,615.9315236089751,615.9315236089751,615.9315236089751,615.9315236089751,615.9315236089751,a,1.9922142740397248,1,192,0,617.950339514995,619.4517754369881,,,,,,,,,,,,,,,,,,,,,,,,,,,,,,,,,,,,,,,,,,,,,,,,,,,,,,,,,,,,,,,,,,,,,,,,,,,77970,2022-11-22_08h04.02.974,vts_reward_expectancy_bt_OFFLINE,2022.2.4,59.94806914303617,
0,0,1,0,1,0,0,0,hexagon,triangle,0,0,0,0,3,3,39,6,,,,,,,,,,,,,,,,,,,,,,,,,,,,,,,,,,,,,,,,619.9524221879838,619.9524221879838,619.9524221879838,619.9524221879838,619.9524221879838,619.9524221879838,619.9524221879838,619.9524221879838,619.9524221879838,619.9524221879838,a,1.4029533490247559,1,193,0,621.3873191109742,622.8889233889931,,,,,,,,,,,,,,,,,,,,,,,,,,,,,,,,,,,,,,,,,,,,,,,,,,,,,,,,,,,,,,,,,,,,,,,,,,,77970,2022-11-22_08h04.02.974,vts_reward_expectancy_bt_OFFLINE,2022.2.4,59.94806914303617,
0,0,0,1,0,1,0,0,star ,circle,0,0,0,0,3,4,40,10,,,,,,,,,,,,,,,,,,,,,,,,,,,,,,,,,,,,,,,,623.3894822899892,623.3894822899892,623.3894822899892,623.3894822899892,623.3894822899892,623.3894822899892,623.3894822899892,623.3894822899892,623.3894822899892,623.3894822899892,l,1.2749819610326085,1,194,0,624.6910606710007,626.1929356299806,,,,,,,,,,,,,,,,,,,,,,,,,,,,,,,,,,,,,,,,,,,,,,,,,,,,,,,,,,,,,,,,,,,,,,,,,,,77970,2022-11-22_08h04.02.974,vts_reward_expectancy_bt_OFFLINE,2022.2.4,59.94806914303617,
1,0,0,0,0,1,0,0,triangle,circle,0,0,0,0,3,5,41,0,,,,,,,,,,,,,,,,,,,,,,,,,,,,,,,,,,,,,,,,626.693119293981,626.693119293981,626.693119293981,626.693119293981,626.693119293981,626.693119293981,626.693119293981,626.693119293981,626.693119293981,626.693119293981,l,0.8166632620268501,1,195,0,627.5273941119958,629.0290495029767,629.0290495029767,,,,,,,,,,,,,,,,,,,,,,,,,,,,,,,,,,,,,,,,,,,,,,,,,,,,,,,,,,,,,,,,,,,,,,,,,,77970,2022-11-22_08h04.02.974,vts_reward_expectancy_bt_OFFLINE,2022.2.4,59.94806914303617,
0,0,1,0,0,0,0,1,hexagon,star,0,0,0,0,3,6,42,8,,,,,,,,,,,,,,,,,,,,,,,,,,,,,,,,,,,,,,,,629.5298750109796,629.5298750109796,629.5298750109796,629.5298750109796,629.5298750109796,629.5298750109796,629.5298750109796,629.5298750109796,629.5298750109796,629.5298750109796,l,2.26896496603149,10,205,0,631.8088342569827,633.3169689249771,,,,,,,,,,,,,,,,,,,,,,,,,,,,,,,,,,,,,,,,,,,,,,,,,,,,,,,,,,,,,,,,,,,,,,,,,,,77970,2022-11-22_08h04.02.974,vts_reward_expectancy_bt_OFFLINE,2022.2.4,59.94806914303617,
0,0,0,1,0,0,1,0,star,hexagon,0,0,0,0,3,7,43,11,,,,,,,,,,,,,,,,,,,,,,,,,,,,,,,,,,,,,,,,633.8175946819829,633.8175946819829,633.8175946819829,633.8175946819829,633.8175946819829,633.8175946819829,633.8175946819829,633.8175946819829,633.8175946819829,633.8175946819829,l,2.3664770320174284,10,215,0,636.2035967859847,637.705281913979,,,,,,,,,,,,,,,,,,,,,,,,,,,,,,,,,,,,,,,,,,,,,,,,,,,,,,,,,,,,,,,,,,,,,,,,,,,77970,2022-11-22_08h04.02.974,vts_reward_expectancy_bt_OFFLINE,2022.2.4,59.94806914303617,
0,1,0,0,0,0,0,1,circle,star,0,0,0,0,3,8,44,5,,,,,,,,,,,,,,,,,,,,,,,,,,,,,,,,,,,,,,,,638.2062163329974,638.2062163329974,638.2062163329974,638.2062163329974,638.2062163329974,638.2062163329974,638.2062163329974,638.2062163329974,638.2062163329974,638.2062163329974,a,1.5878119600238279,10,225,0,639.824488860002,641.3259056509996,,,,,,,,,,,,,,,,,,,,,,,,,,,,,,,,,,,,,,,,,,,,,,,,,,,,,,,,,,,,,,,,,,,,,,,,,,,77970,2022-11-22_08h04.02.974,vts_reward_expectancy_bt_OFFLINE,2022.2.4,59.94806914303617,
1,0,0,0,0,0,1,0,triangle,hexagon,0,0,0,0,3,9,45,1,,,,,,,,,,,,,,,,,,,,,,,,,,,,,,,,,,,,,,,,641.8267308619979,641.8267308619979,641.8267308619979,641.8267308619979,641.8267308619979,641.8267308619979,641.8267308619979,641.8267308619979,641.8267308619979,641.8267308619979,a,1.85051852001925,10,235,0,643.6950935359928,645.1967907469952,,,,,,,,,,,,,,,,,,,,,,,,,,,,,,,,,,,,,,,,,,,,,,,,,,,,,,,,,,,,,,,,,,,,,,,,,,,77970,2022-11-22_08h04.02.974,vts_reward_expectancy_bt_OFFLINE,2022.2.4,59.94806914303617,
0,1,0,0,1,0,0,0,circle,triangle,0,0,0,0,3,10,46,3,,,,,,,,,,,,,,,,,,,,,,,,,,,,,,,,,,,,,,,,645.6973101329932,645.6973101329932,645.6973101329932,645.6973101329932,645.6973101329932,645.6973101329932,645.6973101329932,645.6973101329932,645.6973101329932,645.6973101329932,a,4.289430197997717,10,245,0,650.0188380499894,651.5205195129965,,,,,,,,,,,,,,,,,,,,,,,,,,,,,,,,,,,,,,,,,,,,,,,,,,,,,,,,,,,,,,,,,,,,,,,,,,,77970,2022-11-22_08h04.02.974,vts_reward_expectancy_bt_OFFLINE,2022.2.4,59.94806914303617,
0,1,0,0,0,0,1,0,circle,hexagon,0,0,0,0,3,11,47,4,,,,,,,,,,,,,,,,,,,,,,,,,,,,,,,,,,,,,,,,652.0208869209746,652.0208869209746,652.0208869209746,652.0208869209746,652.0208869209746,652.0208869209746,652.0208869209746,652.0208869209746,652.0208869209746,652.0208869209746,l,2.004973241011612,1,246,0,654.0566322839877,655.5582027279888,,,,,,,,,,,,,,,,,,,,,,,,,,,,,,,,,,,,,,,,,,,,,,,,,,,,,,,,,,,,,,,,,,,,,,,,,,,77970,2022-11-22_08h04.02.974,vts_reward_expectancy_bt_OFFLINE,2022.2.4,59.94806914303617,
0,0,1,0,0,0,0,1,hexagon,star,1,0,1,0,0,0,0,8,,,,,,,,,,,,,,,,,,,,,,,,,,,,,,,,,,,,,,,,661.2696616689791,661.2696616689791,661.2696616689791,661.2696616689791,661.2696616689791,661.2696616689791,661.2696616689791,661.2696616689791,661.2696616689791,661.2696616689791,a,2.4767757650115527,10,256,1,663.7673144269793,665.2692267499806,,,,,,,,,,,,,,,,,,,,,,,,,,,,,,,,,,,,,,,,,,,,,,,,,,,,,,,,,,,,,,,,,,,,,,,,,,,77970,2022-11-22_08h04.02.974,vts_reward_expectancy_bt_OFFLINE,2022.2.4,59.94806914303617,
1,0,0,0,0,1,0,0,triangle,circle,1,0,1,0,0,1,1,0,,,,,,,,,,,,,,,,,,,,,,,,,,,,,,,,,,,,,,,,665.769957335986,665.769957335986,665.769957335986,665.769957335986,665.769957335986,665.769957335986,665.769957335986,665.769957335986,665.769957335986,665.769957335986,l,1.5869685010111425,10,266,1,667.3878922239819,668.8896780879877,,,,,,,,,,,,,,,,,,,,,,,,,,,,,,,,,,,,,,,,,,,,,,,,,,,,,,,,,,,,,,,,,,,,,,,,,,,77970,2022-11-22_08h04.02.974,vts_reward_expectancy_bt_OFFLINE,2022.2.4,59.94806914303617,
1,0,0,0,0,0,1,0,triangle,hexagon,1,0,1,0,0,2,2,1,,,,,,,,,,,,,,,,,,,,,,,,,,,,,,,,,,,,,,,,669.3902091959899,669.3902091959899,669.3902091959899,669.3902091959899,669.3902091959899,669.3902091959899,669.3902091959899,669.3902091959899,669.3902091959899,669.3902091959899,a,2.648157561023254,10,276,1,672.059867960983,673.5615123029856,,,,,,,,,,,,,,,,,,,,,,,,,,,,,,,,,,,,,,,,,,,,,,,,,,,,,,,,,,,,,,,,,,,,,,,,,,,77970,2022-11-22_08h04.02.974,vts_reward_expectancy_bt_OFFLINE,2022.2.4,59.94806914303617,
0,0,1,0,0,1,0,0,hexagon,circle,1,0,1,0,0,3,3,7,,,,,,,,,,,,,,,,,,,,,,,,,,,,,,,,,,,,,,,,674.0620910209836,674.0620910209836,674.0620910209836,674.0620910209836,674.0620910209836,674.0620910209836,674.0620910209836,674.0620910209836,674.0620910209836,674.0620910209836,a,1.6661557930347044,10,286,1,675.7473408519872,677.249138551997,,,,,,,,,,,,,,,,,,,,,,,,,,,,,,,,,,,,,,,,,,,,,,,,,,,,,,,,,,,,,,,,,,,,,,,,,,,77970,2022-11-22_08h04.02.974,vts_reward_expectancy_bt_OFFLINE,2022.2.4,59.94806914303617,
0,0,1,0,1,0,0,0,hexagon,triangle,1,0,1,0,0,4,4,6,,,,,,,,,,,,,,,,,,,,,,,,,,,,,,,,,,,,,,,,677.7496381929959,677.7496381929959,677.7496381929959,677.7496381929959,677.7496381929959,677.7496381929959,677.7496381929959,677.7496381929959,677.7496381929959,677.7496381929959,l,1.7926267480361275,1,287,1,679.568136249989,681.069725497975,,,,,,,,,,,,,,,,,,,,,,,,,,,,,,,,,,,,,,,,,,,,,,,,,,,,,,,,,,,,,,,,,,,,,,,,,,,77970,2022-11-22_08h04.02.974,vts_reward_expectancy_bt_OFFLINE,2022.2.4,59.94806914303617,
0,0,0,1,1,0,0,0,star,triangle,1,0,1,0,0,5,5,9,,,,,,,,,,,,,,,,,,,,,,,,,,,,,,,,,,,,,,,,681.5704113909742,681.5704113909742,681.5704113909742,681.5704113909742,681.5704113909742,681.5704113909742,681.5704113909742,681.5704113909742,681.5704113909742,681.5704113909742,a,2.696486961998744,1,288,1,684.289943359996,685.7916777799837,,,,,,,,,,,,,,,,,,,,,,,,,,,,,,,,,,,,,,,,,,,,,,,,,,,,,,,,,,,,,,,,,,,,,,,,,,,77970,2022-11-22_08h04.02.974,vts_reward_expectancy_bt_OFFLINE,2022.2.4,59.94806914303617,
0,1,0,0,0,0,1,0,circle,hexagon,1,0,1,0,0,6,6,4,,,,,,,,,,,,,,,,,,,,,,,,,,,,,,,,,,,,,,,,686.2921798829921,686.2921798829921,686.2921798829921,686.2921798829921,686.2921798829921,686.2921798829921,686.2921798829921,686.2921798829921,686.2921798829921,686.2921798829921,a,1.9468269450298976,10,298,1,688.261068953987,689.7627291949757,,,,,,,,,,,,,,,,,,,,,,,,,,,,,,,,,,,,,,,,,,,,,,,,,,,,,,,,,,,,,,,,,,,,,,,,,,,77970,2022-11-22_08h04.02.974,vts_reward_expectancy_bt_OFFLINE,2022.2.4,59.94806914303617,
1,0,0,0,0,0,0,1,triangle,star,1,0,1,0,0,7,7,2,,,,,,,,,,,,,,,,,,,,,,,,,,,,,,,,,,,,,,,,690.2633470729925,690.2633470729925,690.2633470729925,690.2633470729925,690.2633470729925,690.2633470729925,690.2633470729925,690.2633470729925,690.2633470729925,690.2633470729925,a,2.700344684999436,10,308,1,692.9828324839764,694.4844712310005,694.4844712310005,,,,,,,,,,,,,,,,,,,,,,,,,,,,,,,,,,,,,,,,,,,,,,,,,,,,,,,,,,,,,,,,,,,,,,,,,,77970,2022-11-22_08h04.02.974,vts_reward_expectancy_bt_OFFLINE,2022.2.4,59.94806914303617,
0,1,0,0,1,0,0,0,circle,triangle,1,0,1,0,0,8,8,3,,,,,,,,,,,,,,,,,,,,,,,,,,,,,,,,,,,,,,,,694.9849558089918,694.9849558089918,694.9849558089918,694.9849558089918,694.9849558089918,694.9849558089918,694.9849558089918,694.9849558089918,694.9849558089918,694.9849558089918,a,4.110513328021625,1,309,1,699.1229867639777,700.6246408379811,,,,,,,,,,,,,,,,,,,,,,,,,,,,,,,,,,,,,,,,,,,,,,,,,,,,,,,,,,,,,,,,,,,,,,,,,,,77970,2022-11-22_08h04.02.974,vts_reward_expectancy_bt_OFFLINE,2022.2.4,59.94806914303617,
0,0,0,1,0,0,1,0,star,hexagon,1,0,1,0,0,9,9,11,,,,,,,,,,,,,,,,,,,,,,,,,,,,,,,,,,,,,,,,701.1251648519828,701.1251648519828,701.1251648519828,701.1251648519828,701.1251648519828,701.1251648519828,701.1251648519828,701.1251648519828,701.1251648519828,701.1251648519828,l,2.696234472998185,10,319,1,703.8449086089968,705.3465309669846,,,,,,,,,,,,,,,,,,,,,,,,,,,,,,,,,,,,,,,,,,,,,,,,,,,,,,,,,,,,,,,,,,,,,,,,,,,77970,2022-11-22_08h04.02.974,vts_reward_expectancy_bt_OFFLINE,2022.2.4,59.94806914303617,
0,0,0,1,0,1,0,0,star ,circle,1,0,1,0,0,10,10,10,,,,,,,,,,,,,,,,,,,,,,,,,,,,,,,,,,,,,,,,705.8471399949922,705.8471399949922,705.8471399949922,705.8471399949922,705.8471399949922,705.8471399949922,705.8471399949922,705.8471399949922,705.8471399949922,705.8471399949922,l,2.091714224021416,1,320,1,707.966354670003,709.4677423439862,,,,,,,,,,,,,,,,,,,,,,,,,,,,,,,,,,,,,,,,,,,,,,,,,,,,,,,,,,,,,,,,,,,,,,,,,,,77970,2022-11-22_08h04.02.974,vts_reward_expectancy_bt_OFFLINE,2022.2.4,59.94806914303617,
0,1,0,0,0,0,0,1,circle,star,1,0,1,0,0,11,11,5,,,,,,,,,,,,,,,,,,,,,,,,,,,,,,,,,,,,,,,,709.968216387002,709.968216387002,709.968216387002,709.968216387002,709.968216387002,709.968216387002,709.968216387002,709.968216387002,709.968216387002,709.968216387002,a,1.43632030201843,10,330,1,711.4364536609792,712.9380807349808,,,,,,,,,,,,,,,,,,,,,,,,,,,,,,,,,,,,,,,,,,,,,,,,,,,,,,,,,,,,,,,,,,,,,,,,,,,77970,2022-11-22_08h04.02.974,vts_reward_expectancy_bt_OFFLINE,2022.2.4,59.94806914303617,
0,0,0,1,0,0,1,0,star,hexagon,1,0,1,0,1,0,12,11,,,,,,,,,,,,,,,,,,,,,,,,,,,,,,,,,,,,,,,,713.4386135120003,713.4386135120003,713.4386135120003,713.4386135120003,713.4386135120003,713.4386135120003,713.4386135120003,713.4386135120003,713.4386135120003,713.4386135120003,l,1.5986016950046178,1,331,1,715.0572400539822,716.5588271549786,,,,,,,,,,,,,,,,,,,,,,,,,,,,,,,,,,,,,,,,,,,,,,,,,,,,,,,,,,,,,,,,,,,,,,,,,,,77970,2022-11-22_08h04.02.974,vts_reward_expectancy_bt_OFFLINE,2022.2.4,59.94806914303617,
0,1,0,0,1,0,0,0,circle,triangle,1,0,1,0,1,1,13,3,,,,,,,,,,,,,,,,,,,,,,,,,,,,,,,,,,,,,,,,717.059450863977,717.059450863977,717.059450863977,717.059450863977,717.059450863977,717.059450863977,717.059450863977,717.059450863977,717.059450863977,717.059450863977,a,2.5904474500275683,10,341,1,719.6790131189919,721.1807942089799,,,,,,,,,,,,,,,,,,,,,,,,,,,,,,,,,,,,,,,,,,,,,,,,,,,,,,,,,,,,,,,,,,,,,,,,,,,77970,2022-11-22_08h04.02.974,vts_reward_expectancy_bt_OFFLINE,2022.2.4,59.94806914303617,
0,1,0,0,0,0,1,0,circle,hexagon,1,0,1,0,1,2,14,4,,,,,,,,,,,,,,,,,,,,,,,,,,,,,,,,,,,,,,,,721.68130005899,721.68130005899,721.68130005899,721.68130005899,721.68130005899,721.68130005899,721.68130005899,721.68130005899,721.68130005899,721.68130005899,a,4.461704020010075,10,351,1,726.1695232449856,727.6712094139948,,,,,,,,,,,,,,,,,,,,,,,,,,,,,,,,,,,,,,,,,,,,,,,,,,,,,,,,,,,,,,,,,,,,,,,,,,,77970,2022-11-22_08h04.02.974,vts_reward_expectancy_bt_OFFLINE,2022.2.4,59.94806914303617,
0,0,0,1,0,1,0,0,star ,circle,1,0,1,0,1,3,15,10,,,,,,,,,,,,,,,,,,,,,,,,,,,,,,,,,,,,,,,,728.171935122984,728.171935122984,728.171935122984,728.171935122984,728.171935122984,728.171935122984,728.171935122984,728.171935122984,728.171935122984,728.171935122984,a,1.8960890550224576,10,361,1,730.0905229380005,731.592400649999,,,,,,,,,,,,,,,,,,,,,,,,,,,,,,,,,,,,,,,,,,,,,,,,,,,,,,,,,,,,,,,,,,,,,,,,,,,77970,2022-11-22_08h04.02.974,vts_reward_expectancy_bt_OFFLINE,2022.2.4,59.94806914303617,
1,0,0,0,0,1,0,0,triangle,circle,1,0,1,0,1,4,16,0,,,,,,,,,,,,,,,,,,,,,,,,,,,,,,,,,,,,,,,,732.0929533809831,732.0929533809831,732.0929533809831,732.0929533809831,732.0929533809831,732.0929533809831,732.0929533809831,732.0929533809831,732.0929533809831,732.0929533809831,l,6.4130279650271405,10,371,1,738.5333088979824,740.0350861979823,,,,,,,,,,,,,,,,,,,,,,,,,,,,,,,,,,,,,,,,,,,,,,,,,,,,,,,,,,,,,,,,,,,,,,,,,,,77970,2022-11-22_08h04.02.974,vts_reward_expectancy_bt_OFFLINE,2022.2.4,59.94806914303617,
0,0,1,0,1,0,0,0,hexagon,triangle,1,0,1,0,1,5,17,6,,,,,,,,,,,,,,,,,,,,,,,,,,,,,,,,,,,,,,,,740.5357821669895,740.5357821669895,740.5357821669895,740.5357821669895,740.5357821669895,740.5357821669895,740.5357821669895,740.5357821669895,740.5357821669895,740.5357821669895,l,5.034897256002296,10,381,1,745.5911260769935,747.0927423319954,,,,,,,,,,,,,,,,,,,,,,,,,,,,,,,,,,,,,,,,,,,,,,,,,,,,,,,,,,,,,,,,,,,,,,,,,,,77970,2022-11-22_08h04.02.974,vts_reward_expectancy_bt_OFFLINE,2022.2.4,59.94806914303617,
1,0,0,0,0,0,1,0,triangle,hexagon,1,0,1,0,1,6,18,1,,,,,,,,,,,,,,,,,,,,,,,,,,,,,,,,,,,,,,,,747.5932860159955,747.5932860159955,747.5932860159955,747.5932860159955,747.5932860159955,747.5932860159955,747.5932860159955,747.5932860159955,747.5932860159955,747.5932860159955,a,2.1625083140388597,1,382,1,749.7789521119848,751.2804583789839,,,,,,,,,,,,,,,,,,,,,,,,,,,,,,,,,,,,,,,,,,,,,,,,,,,,,,,,,,,,,,,,,,,,,,,,,,,77970,2022-11-22_08h04.02.974,vts_reward_expectancy_bt_OFFLINE,2022.2.4,59.94806914303617,
1,0,0,0,0,0,0,1,triangle,star,1,0,1,0,1,7,19,2,,,,,,,,,,,,,,,,,,,,,,,,,,,,,,,,,,,,,,,,751.7810337839765,751.7810337839765,751.7810337839765,751.7810337839765,751.7810337839765,751.7810337839765,751.7810337839765,751.7810337839765,751.7810337839765,751.7810337839765,l,2.9133336140366737,1,383,1,754.7175259539799,756.2195808189863,,,,,,,,,,,,,,,,,,,,,,,,,,,,,,,,,,,,,,,,,,,,,,,,,,,,,,,,,,,,,,,,,,,,,,,,,,,77970,2022-11-22_08h04.02.974,vts_reward_expectancy_bt_OFFLINE,2022.2.4,59.94806914303617,
0,1,0,0,0,0,0,1,circle,star,1,0,1,0,1,8,20,5,,,,,,,,,,,,,,,,,,,,,,,,,,,,,,,,,,,,,,,,756.7199652259878,756.7199652259878,756.7199652259878,756.7199652259878,756.7199652259878,756.7199652259878,756.7199652259878,756.7199652259878,756.7199652259878,756.7199652259878,a,1.4861531190108508,1,384,1,758.2383687019756,759.7400029519922,,,,,,,,,,,,,,,,,,,,,,,,,,,,,,,,,,,,,,,,,,,,,,,,,,,,,,,,,,,,,,,,,,,,,,,,,,,77970,2022-11-22_08h04.02.974,vts_reward_expectancy_bt_OFFLINE,2022.2.4,59.94806914303617,
0,0,1,0,0,0,0,1,hexagon,star,1,0,1,0,1,9,21,8,,,,,,,,,,,,,,,,,,,,,,,,,,,,,,,,,,,,,,,,760.2404719879851,760.2404719879851,760.2404719879851,760.2404719879851,760.2404719879851,760.2404719879851,760.2404719879851,760.2404719879851,760.2404719879851,760.2404719879851,l,2.0925302430114243,1,385,1,762.3593372159812,763.8609614769812,,,,,,,,,,,,,,,,,,,,,,,,,,,,,,,,,,,,,,,,,,,,,,,,,,,,,,,,,,,,,,,,,,,,,,,,,,,77970,2022-11-22_08h04.02.974,vts_reward_expectancy_bt_OFFLINE,2022.2.4,59.94806914303617,
0,0,0,1,1,0,0,0,star,triangle,1,0,1,0,1,10,22,9,,,,,,,,,,,,,,,,,,,,,,,,,,,,,,,,,,,,,,,,764.3616732340015,764.3616732340015,764.3616732340015,764.3616732340015,764.3616732340015,764.3616732340015,764.3616732340015,764.3616732340015,764.3616732340015,764.3616732340015,a,1.357551561028231,1,386,1,765.746937377,767.2482182690001,,,,,,,,,,,,,,,,,,,,,,,,,,,,,,,,,,,,,,,,,,,,,,,,,,,,,,,,,,,,,,,,,,,,,,,,,,,77970,2022-11-22_08h04.02.974,vts_reward_expectancy_bt_OFFLINE,2022.2.4,59.94806914303617,
0,0,1,0,0,1,0,0,hexagon,circle,1,0,1,0,1,11,23,7,,,,,,,,,,,,,,,,,,,,,,,,,,,,,,,,,,,,,,,,767.7488510429976,767.7488510429976,767.7488510429976,767.7488510429976,767.7488510429976,767.7488510429976,767.7488510429976,767.7488510429976,767.7488510429976,767.7488510429976,l,1.6274824360152707,1,387,1,769.4005098219786,770.9021243489988,,,,,,,,,,,,,,,,,,,,,,,,,,,,,,,,,,,,,,,,,,,,,,,,,,,,,,,,,,,,,,,,,,,,,,,,,,,77970,2022-11-22_08h04.02.974,vts_reward_expectancy_bt_OFFLINE,2022.2.4,59.94806914303617,
1,0,0,0,0,0,0,1,triangle,star,1,0,1,0,2,0,24,2,,,,,,,,,,,,,,,,,,,,,,,,,,,,,,,,,,,,,,,,771.4027083010005,771.4027083010005,771.4027083010005,771.4027083010005,771.4027083010005,771.4027083010005,771.4027083010005,771.4027083010005,771.4027083010005,771.4027083010005,a,3.487689864006825,10,397,1,774.9067518859811,776.408317637979,776.408317637979,,,,,,,,,,,,,,,,,,,,,,,,,,,,,,,,,,,,,,,,,,,,,,,,,,,,,,,,,,,,,,,,,,,,,,,,,,77970,2022-11-22_08h04.02.974,vts_reward_expectancy_bt_OFFLINE,2022.2.4,59.94806914303617,
0,0,1,0,1,0,0,0,hexagon,triangle,1,0,1,0,2,1,25,6,,,,,,,,,,,,,,,,,,,,,,,,,,,,,,,,,,,,,,,,776.9090294239868,776.9090294239868,776.9090294239868,776.9090294239868,776.9090294239868,776.9090294239868,776.9090294239868,776.9090294239868,776.9090294239868,776.9090294239868,l,1.7258648060378619,10,407,1,778.6608348369773,780.1624485679786,,,,,,,,,,,,,,,,,,,,,,,,,,,,,,,,,,,,,,,,,,,,,,,,,,,,,,,,,,,,,,,,,,,,,,,,,,,77970,2022-11-22_08h04.02.974,vts_reward_expectancy_bt_OFFLINE,2022.2.4,59.94806914303617,
0,0,0,1,0,0,1,0,star,hexagon,1,0,1,0,2,2,26,11,,,,,,,,,,,,,,,,,,,,,,,,,,,,,,,,,,,,,,,,780.662928649981,780.662928649981,780.662928649981,780.662928649981,780.662928649981,780.662928649981,780.662928649981,780.662928649981,780.662928649981,780.662928649981,l,3.2928889330360107,1,408,1,783.9831688969862,785.4848014549934,,,,,,,,,,,,,,,,,,,,,,,,,,,,,,,,,,,,,,,,,,,,,,,,,,,,,,,,,,,,,,,,,,,,,,,,,,,77970,2022-11-22_08h04.02.974,vts_reward_expectancy_bt_OFFLINE,2022.2.4,59.94806914303617,
1,0,0,0,0,1,0,0,triangle,circle,1,0,1,0,2,3,27,0,,,,,,,,,,,,,,,,,,,,,,,,,,,,,,,,,,,,,,,,785.9854887539987,785.9854887539987,785.9854887539987,785.9854887539987,785.9854887539987,785.9854887539987,785.9854887539987,785.9854887539987,785.9854887539987,785.9854887539987,l,1.7531314970110543,1,409,1,787.7706158359942,789.2724161539809,,,,,,,,,,,,,,,,,,,,,,,,,,,,,,,,,,,,,,,,,,,,,,,,,,,,,,,,,,,,,,,,,,,,,,,,,,,77970,2022-11-22_08h04.02.974,vts_reward_expectancy_bt_OFFLINE,2022.2.4,59.94806914303617,
0,1,0,0,0,0,0,1,circle,star,1,0,1,0,2,4,28,5,,,,,,,,,,,,,,,,,,,,,,,,,,,,,,,,,,,,,,,,789.7729345650005,789.7729345650005,789.7729345650005,789.7729345650005,789.7729345650005,789.7729345650005,789.7729345650005,789.7729345650005,789.7729345650005,789.7729345650005,a,1.2598135370062664,10,419,1,791.0578229279781,792.5594009369961,,,,,,,,,,,,,,,,,,,,,,,,,,,,,,,,,,,,,,,,,,,,,,,,,,,,,,,,,,,,,,,,,,,,,,,,,,,77970,2022-11-22_08h04.02.974,vts_reward_expectancy_bt_OFFLINE,2022.2.4,59.94806914303617,
0,0,0,1,0,1,0,0,star ,circle,1,0,1,0,2,5,29,10,,,,,,,,,,,,,,,,,,,,,,,,,,,,,,,,,,,,,,,,793.0603896999964,793.0603896999964,793.0603896999964,793.0603896999964,793.0603896999964,793.0603896999964,793.0603896999964,793.0603896999964,793.0603896999964,793.0603896999964,a,1.561637413018616,10,429,1,794.6450944439857,796.1466688109795,,,,,,,,,,,,,,,,,,,,,,,,,,,,,,,,,,,,,,,,,,,,,,,,,,,,,,,,,,,,,,,,,,,,,,,,,,,77970,2022-11-22_08h04.02.974,vts_reward_expectancy_bt_OFFLINE,2022.2.4,59.94806914303617,
0,0,1,0,0,0,0,1,hexagon,star,1,0,1,0,2,6,30,8,,,,,,,,,,,,,,,,,,,,,,,,,,,,,,,,,,,,,,,,796.647024742997,796.647024742997,796.647024742997,796.647024742997,796.647024742997,796.647024742997,796.647024742997,796.647024742997,796.647024742997,796.647024742997,l,3.3973150760284625,1,430,1,800.0675577359798,801.5693056889868,,,,,,,,,,,,,,,,,,,,,,,,,,,,,,,,,,,,,,,,,,,,,,,,,,,,,,,,,,,,,,,,,,,,,,,,,,,77970,2022-11-22_08h04.02.974,vts_reward_expectancy_bt_OFFLINE,2022.2.4,59.94806914303617,
0,1,0,0,1,0,0,0,circle,triangle,1,0,1,0,2,7,31,3,,,,,,,,,,,,,,,,,,,,,,,,,,,,,,,,,,,,,,,,802.0698282419762,802.0698282419762,802.0698282419762,802.0698282419762,802.0698282419762,802.0698282419762,802.0698282419762,802.0698282419762,802.0698282419762,802.0698282419762,a,0.8537333510175813,10,440,1,802.9540932090022,804.4557373349962,,,,,,,,,,,,,,,,,,,,,,,,,,,,,,,,,,,,,,,,,,,,,,,,,,,,,,,,,,,,,,,,,,,,,,,,,,,77970,2022-11-22_08h04.02.974,vts_reward_expectancy_bt_OFFLINE,2022.2.4,59.94806914303617,
1,0,0,0,0,0,1,0,triangle,hexagon,1,0,1,0,2,8,32,1,,,,,,,,,,,,,,,,,,,,,,,,,,,,,,,,,,,,,,,,804.956224583002,804.956224583002,804.956224583002,804.956224583002,804.956224583002,804.956224583002,804.956224583002,804.956224583002,804.956224583002,804.956224583002,a,1.6470400070247706,1,441,1,806.6249227729859,808.126576265,,,,,,,,,,,,,,,,,,,,,,,,,,,,,,,,,,,,,,,,,,,,,,,,,,,,,,,,,,,,,,,,,,,,,,,,,,,77970,2022-11-22_08h04.02.974,vts_reward_expectancy_bt_OFFLINE,2022.2.4,59.94806914303617,
0,1,0,0,0,0,1,0,circle,hexagon,1,0,1,0,2,9,33,4,,,,,,,,,,,,,,,,,,,,,,,,,,,,,,,,,,,,,,,,808.6271738799987,808.6271738799987,808.6271738799987,808.6271738799987,808.6271738799987,808.6271738799987,808.6271738799987,808.6271738799987,808.6271738799987,808.6271738799987,l,2.375814353028545,1,442,1,811.0302450419986,812.5315523489844,,,,,,,,,,,,,,,,,,,,,,,,,,,,,,,,,,,,,,,,,,,,,,,,,,,,,,,,,,,,,,,,,,,,,,,,,,,77970,2022-11-22_08h04.02.974,vts_reward_expectancy_bt_OFFLINE,2022.2.4,59.94806914303617,
0,0,0,1,1,0,0,0,star,triangle,1,0,1,0,2,10,34,9,,,,,,,,,,,,,,,,,,,,,,,,,,,,,,,,,,,,,,,,813.0321039859846,813.0321039859846,813.0321039859846,813.0321039859846,813.0321039859846,813.0321039859846,813.0321039859846,813.0321039859846,813.0321039859846,813.0321039859846,l,2.8538429030159023,1,443,1,815.9185423859744,817.4199397549964,,,,,,,,,,,,,,,,,,,,,,,,,,,,,,,,,,,,,,,,,,,,,,,,,,,,,,,,,,,,,,,,,,,,,,,,,,,77970,2022-11-22_08h04.02.974,vts_reward_expectancy_bt_OFFLINE,2022.2.4,59.94806914303617,
0,0,1,0,0,1,0,0,hexagon,circle,1,0,1,0,2,11,35,7,,,,,,,,,,,,,,,,,,,,,,,,,,,,,,,,,,,,,,,,817.9205781469936,817.9205781469936,817.9205781469936,817.9205781469936,817.9205781469936,817.9205781469936,817.9205781469936,817.9205781469936,817.9205781469936,817.9205781469936,a,1.215659545006929,1,444,1,819.1552985719754,820.6572515909793,,,,,,,,,,,,,,,,,,,,,,,,,,,,,,,,,,,,,,,,,,,,,,,,,,,,,,,,,,,,,,,,,,,,,,,,,,,77970,2022-11-22_08h04.02.974,vts_reward_expectancy_bt_OFFLINE,2022.2.4,59.94806914303617,
0,0,1,0,0,0,0,1,hexagon,star,1,0,1,0,3,0,36,8,,,,,,,,,,,,,,,,,,,,,,,,,,,,,,,,,,,,,,,,821.1576848239929,821.1576848239929,821.1576848239929,821.1576848239929,821.1576848239929,821.1576848239929,821.1576848239929,821.1576848239929,821.1576848239929,821.1576848239929,a,0.8130551060312428,1,445,1,821.9918227320013,823.4935378980008,,,,,,,,,,,,,,,,,,,,,,,,,,,,,,,,,,,,,,,,,,,,,,,,,,,,,,,,,,,,,,,,,,,,,,,,,,,77970,2022-11-22_08h04.02.974,vts_reward_expectancy_bt_OFFLINE,2022.2.4,59.94806914303617,
0,1,0,0,0,0,0,1,circle,star,1,0,1,0,3,1,37,5,,,,,,,,,,,,,,,,,,,,,,,,,,,,,,,,,,,,,,,,823.9941638869932,823.9941638869932,823.9941638869932,823.9941638869932,823.9941638869932,823.9941638869932,823.9941638869932,823.9941638869932,823.9941638869932,823.9941638869932,a,1.0034773890220094,10,455,1,825.028744078998,826.5304675649968,,,,,,,,,,,,,,,,,,,,,,,,,,,,,,,,,,,,,,,,,,,,,,,,,,,,,,,,,,,,,,,,,,,,,,,,,,,77970,2022-11-22_08h04.02.974,vts_reward_expectancy_bt_OFFLINE,2022.2.4,59.94806914303617,
0,0,0,1,0,1,0,0,star ,circle,1,0,1,0,3,2,38,10,,,,,,,,,,,,,,,,,,,,,,,,,,,,,,,,,,,,,,,,827.0309262779774,827.0309262779774,827.0309262779774,827.0309262779774,827.0309262779774,827.0309262779774,827.0309262779774,827.0309262779774,827.0309262779774,827.0309262779774,l,1.3858147150313016,1,456,1,828.4490963049757,829.9505783899804,,,,,,,,,,,,,,,,,,,,,,,,,,,,,,,,,,,,,,,,,,,,,,,,,,,,,,,,,,,,,,,,,,,,,,,,,,,77970,2022-11-22_08h04.02.974,vts_reward_expectancy_bt_OFFLINE,2022.2.4,59.94806914303617,
1,0,0,0,0,0,1,0,triangle,hexagon,1,0,1,0,3,3,39,1,,,,,,,,,,,,,,,,,,,,,,,,,,,,,,,,,,,,,,,,830.4512167240027,830.4512167240027,830.4512167240027,830.4512167240027,830.4512167240027,830.4512167240027,830.4512167240027,830.4512167240027,830.4512167240027,830.4512167240027,l,1.858130003005499,10,466,1,832.3367529719835,833.8383145429834,,,,,,,,,,,,,,,,,,,,,,,,,,,,,,,,,,,,,,,,,,,,,,,,,,,,,,,,,,,,,,,,,,,,,,,,,,,77970,2022-11-22_08h04.02.974,vts_reward_expectancy_bt_OFFLINE,2022.2.4,59.94806914303617,
1,0,0,0,0,1,0,0,triangle,circle,1,0,1,0,3,4,40,0,,,,,,,,,,,,,,,,,,,,,,,,,,,,,,,,,,,,,,,,834.3388593029813,834.3388593029813,834.3388593029813,834.3388593029813,834.3388593029813,834.3388593029813,834.3388593029813,834.3388593029813,834.3388593029813,834.3388593029813,a,1.2795247830217704,10,476,1,835.6401287659828,837.1416788159986,,,,,,,,,,,,,,,,,,,,,,,,,,,,,,,,,,,,,,,,,,,,,,,,,,,,,,,,,,,,,,,,,,,,,,,,,,,77970,2022-11-22_08h04.02.974,vts_reward_expectancy_bt_OFFLINE,2022.2.4,59.94806914303617,
0,0,1,0,0,1,0,0,hexagon,circle,1,0,1,0,3,5,41,7,,,,,,,,,,,,,,,,,,,,,,,,,,,,,,,,,,,,,,,,837.6423314329877,837.6423314329877,837.6423314329877,837.6423314329877,837.6423314329877,837.6423314329877,837.6423314329877,837.6423314329877,837.6423314329877,837.6423314329877,l,2.0593084300344344,1,477,1,839.7280783669848,841.2297493309889,,,,,,,,,,,,,,,,,,,,,,,,,,,,,,,,,,,,,,,,,,,,,,,,,,,,,,,,,,,,,,,,,,,,,,,,,,,77970,2022-11-22_08h04.02.974,vts_reward_expectancy_bt_OFFLINE,2022.2.4,59.94806914303617,
1,0,0,0,0,0,0,1,triangle,star,1,0,1,0,3,6,42,2,,,,,,,,,,,,,,,,,,,,,,,,,,,,,,,,,,,,,,,,841.7302934019826,841.7302934019826,841.7302934019826,841.7302934019826,841.7302934019826,841.7302934019826,841.7302934019826,841.7302934019826,841.7302934019826,841.7302934019826,l,2.0001782330218703,1,478,1,843.7492958689982,845.2508105319866,,,,,,,,,,,,,,,,,,,,,,,,,,,,,,,,,,,,,,,,,,,,,,,,,,,,,,,,,,,,,,,,,,,,,,,,,,,77970,2022-11-22_08h04.02.974,vts_reward_expectancy_bt_OFFLINE,2022.2.4,59.94806914303617,
0,0,1,0,1,0,0,0,hexagon,triangle,1,0,1,0,3,7,43,6,,,,,,,,,,,,,,,,,,,,,,,,,,,,,,,,,,,,,,,,845.7516876859881,845.7516876859881,845.7516876859881,845.7516876859881,845.7516876859881,845.7516876859881,845.7516876859881,845.7516876859881,845.7516876859881,845.7516876859881,l,1.7135337970394175,10,488,1,847.4866821229807,848.9882474379847,,,,,,,,,,,,,,,,,,,,,,,,,,,,,,,,,,,,,,,,,,,,,,,,,,,,,,,,,,,,,,,,,,,,,,,,,,,77970,2022-11-22_08h04.02.974,vts_reward_expectancy_bt_OFFLINE,2022.2.4,59.94806914303617,
0,0,0,1,1,0,0,0,star,triangle,1,0,1,0,3,8,44,9,,,,,,,,,,,,,,,,,,,,,,,,,,,,,,,,,,,,,,,,849.4891714709811,849.4891714709811,849.4891714709811,849.4891714709811,849.4891714709811,849.4891714709811,849.4891714709811,849.4891714709811,849.4891714709811,849.4891714709811,a,1.5644751030195039,10,498,1,851.0741742259997,852.5754912519769,,,,,,,,,,,,,,,,,,,,,,,,,,,,,,,,,,,,,,,,,,,,,,,,,,,,,,,,,,,,,,,,,,,,,,,,,,,77970,2022-11-22_08h04.02.974,vts_reward_expectancy_bt_OFFLINE,2022.2.4,59.94806914303617,
0,1,0,0,0,0,1,0,circle,hexagon,1,0,1,0,3,9,45,4,,,,,,,,,,,,,,,,,,,,,,,,,,,,,,,,,,,,,,,,853.076549756981,853.076549756981,853.076549756981,853.076549756981,853.076549756981,853.076549756981,853.076549756981,853.076549756981,853.076549756981,853.076549756981,l,4.1088531730056275,1,499,1,857.2140574289951,858.7157273539924,,,,,,,,,,,,,,,,,,,,,,,,,,,,,,,,,,,,,,,,,,,,,,,,,,,,,,,,,,,,,,,,,,,,,,,,,,,77970,2022-11-22_08h04.02.974,vts_reward_expectancy_bt_OFFLINE,2022.2.4,59.94806914303617,
0,1,0,0,1,0,0,0,circle,triangle,1,0,1,0,3,10,46,3,,,,,,,,,,,,,,,,,,,,,,,,,,,,,,,,,,,,,,,,859.2162208840018,859.2162208840018,859.2162208840018,859.2162208840018,859.2162208840018,859.2162208840018,859.2162208840018,859.2162208840018,859.2162208840018,859.2162208840018,l,1.140858897997532,1,500,1,860.3843392900017,861.8858869739925,,,,,,,,,,,,,,,,,,,,,,,,,,,,,,,,,,,,,,,,,,,,,,,,,,,,,,,,,,,,,,,,,,,,,,,,,,,77970,2022-11-22_08h04.02.974,vts_reward_expectancy_bt_OFFLINE,2022.2.4,59.94806914303617,
0,0,0,1,0,0,1,0,star,hexagon,1,0,1,0,3,11,47,11,,,,,,,,,,,,,,,,,,,,,,,,,,,,,,,,,,,,,,,,862.3865505519789,862.3865505519789,862.3865505519789,862.3865505519789,862.3865505519789,862.3865505519789,862.3865505519789,862.3865505519789,862.3865505519789,862.3865505519789,a,0.997550479019992,1,501,1,863.4042236940004,864.9058672849787,,,,,,,,,,,,,,,,,,,,,,,,,,,,,,,,,,,,,,,,,,,,,,,,,,,,,,,,,,,,,,,,,,,,,,,,,,,77970,2022-11-22_08h04.02.974,vts_reward_expectancy_bt_OFFLINE,2022.2.4,59.94806914303617,
0,0,1,0,0,0,0,1,hexagon,star,2,0,2,0,0,0,0,8,,,,,,,,,,,,,,,,,,,,,,,,,,,,,,,,,,,,,,,,873.0699362299929,873.0699362299929,873.0699362299929,873.0699362299929,873.0699362299929,873.0699362299929,873.0699362299929,873.0699362299929,873.0699362299929,873.0699362299929,l,3.971894892019918,10,511,2,877.0693523589871,878.5710374100017,,,,,,,,,,,,,,,,,,,,,,,,,,,,,,,,,,,,,,,,,,,,,,,,,,,,,,,,,,,,,,,,,,,,,,,,,,,77970,2022-11-22_08h04.02.974,vts_reward_expectancy_bt_OFFLINE,2022.2.4,59.94806914303617,
1,0,0,0,0,0,0,1,triangle,star,2,0,2,0,0,1,1,2,,,,,,,,,,,,,,,,,,,,,,,,,,,,,,,,,,,,,,,,879.0717919759918,879.0717919759918,879.0717919759918,879.0717919759918,879.0717919759918,879.0717919759918,879.0717919759918,879.0717919759918,879.0717919759918,879.0717919759918,l,2.1094339430273976,10,521,2,881.207111027994,882.7091705849743,,,,,,,,,,,,,,,,,,,,,,,,,,,,,,,,,,,,,,,,,,,,,,,,,,,,,,,,,,,,,,,,,,,,,,,,,,,77970,2022-11-22_08h04.02.974,vts_reward_expectancy_bt_OFFLINE,2022.2.4,59.94806914303617,
0,0,0,1,0,0,1,0,star,hexagon,2,0,2,0,0,2,2,11,,,,,,,,,,,,,,,,,,,,,,,,,,,,,,,,,,,,,,,,883.2092688629928,883.2092688629928,883.2092688629928,883.2092688629928,883.2092688629928,883.2092688629928,883.2092688629928,883.2092688629928,883.2092688629928,883.2092688629928,a,2.6642479540314525,10,531,2,885.8960229279764,887.397389093996,,,,,,,,,,,,,,,,,,,,,,,,,,,,,,,,,,,,,,,,,,,,,,,,,,,,,,,,,,,,,,,,,,,,,,,,,,,77970,2022-11-22_08h04.02.974,vts_reward_expectancy_bt_OFFLINE,2022.2.4,59.94806914303617,
0,0,1,0,0,1,0,0,hexagon,circle,2,0,2,0,0,3,3,7,,,,,,,,,,,,,,,,,,,,,,,,,,,,,,,,,,,,,,,,887.8981210450002,887.8981210450002,887.8981210450002,887.8981210450002,887.8981210450002,887.8981210450002,887.8981210450002,887.8981210450002,887.8981210450002,887.8981210450002,l,2.2846311130269896,1,532,2,890.2006965799956,891.7020105239935,,,,,,,,,,,,,,,,,,,,,,,,,,,,,,,,,,,,,,,,,,,,,,,,,,,,,,,,,,,,,,,,,,,,,,,,,,,77970,2022-11-22_08h04.02.974,vts_reward_expectancy_bt_OFFLINE,2022.2.4,59.94806914303617,
1,0,0,0,0,1,0,0,triangle,circle,2,0,2,0,0,4,4,0,,,,,,,,,,,,,,,,,,,,,,,,,,,,,,,,,,,,,,,,892.2026609899767,892.2026609899767,892.2026609899767,892.2026609899767,892.2026609899767,892.2026609899767,892.2026609899767,892.2026609899767,892.2026609899767,892.2026609899767,a,1.0738052370143123,1,533,2,893.3038239099842,894.8055289429903,,,,,,,,,,,,,,,,,,,,,,,,,,,,,,,,,,,,,,,,,,,,,,,,,,,,,,,,,,,,,,,,,,,,,,,,,,,77970,2022-11-22_08h04.02.974,vts_reward_expectancy_bt_OFFLINE,2022.2.4,59.94806914303617,
1,0,0,0,0,0,1,0,triangle,hexagon,2,0,2,0,0,5,5,1,,,,,,,,,,,,,,,,,,,,,,,,,,,,,,,,,,,,,,,,895.3061257219815,895.3061257219815,895.3061257219815,895.3061257219815,895.3061257219815,895.3061257219815,895.3061257219815,895.3061257219815,895.3061257219815,895.3061257219815,l,1.4244291690120008,1,534,2,896.7575550710026,898.2592197479971,,,,,,,,,,,,,,,,,,,,,,,,,,,,,,,,,,,,,,,,,,,,,,,,,,,,,,,,,,,,,,,,,,,,,,,,,,,77970,2022-11-22_08h04.02.974,vts_reward_expectancy_bt_OFFLINE,2022.2.4,59.94806914303617,
0,1,0,0,1,0,0,0,circle,triangle,2,0,2,0,0,6,6,3,,,,,,,,,,,,,,,,,,,,,,,,,,,,,,,,,,,,,,,,898.7596831709961,898.7596831709961,898.7596831709961,898.7596831709961,898.7596831709961,898.7596831709961,898.7596831709961,898.7596831709961,898.7596831709961,898.7596831709961,a,0.9627498850168195,10,544,2,899.7442871319945,901.2458229129843,,,,,,,,,,,,,,,,,,,,,,,,,,,,,,,,,,,,,,,,,,,,,,,,,,,,,,,,,,,,,,,,,,,,,,,,,,,77970,2022-11-22_08h04.02.974,vts_reward_expectancy_bt_OFFLINE,2022.2.4,59.94806914303617,
0,0,0,1,1,0,0,0,star,triangle,2,0,2,0,0,7,7,9,,,,,,,,,,,,,,,,,,,,,,,,,,,,,,,,,,,,,,,,901.7464801629831,901.7464801629831,901.7464801629831,901.7464801629831,901.7464801629831,901.7464801629831,901.7464801629831,901.7464801629831,901.7464801629831,901.7464801629831,a,1.0600810140313115,10,554,2,902.8310317689902,904.3326805209799,,,,,,,,,,,,,,,,,,,,,,,,,,,,,,,,,,,,,,,,,,,,,,,,,,,,,,,,,,,,,,,,,,,,,,,,,,,77970,2022-11-22_08h04.02.974,vts_reward_expectancy_bt_OFFLINE,2022.2.4,59.94806914303617,
0,0,1,0,1,0,0,0,hexagon,triangle,2,0,2,0,0,8,8,6,,,,,,,,,,,,,,,,,,,,,,,,,,,,,,,,,,,,,,,,904.833056649979,904.833056649979,904.833056649979,904.833056649979,904.833056649979,904.833056649979,904.833056649979,904.833056649979,904.833056649979,904.833056649979,l,1.2363034560112283,1,555,2,906.1013464389835,907.6032238449843,,,,,,,,,,,,,,,,,,,,,,,,,,,,,,,,,,,,,,,,,,,,,,,,,,,,,,,,,,,,,,,,,,,,,,,,,,,77970,2022-11-22_08h04.02.974,vts_reward_expectancy_bt_OFFLINE,2022.2.4,59.94806914303617,
0,1,0,0,0,0,0,1,circle,star,2,0,2,0,0,9,9,5,,,,,,,,,,,,,,,,,,,,,,,,,,,,,,,,,,,,,,,,908.1035819209937,908.1035819209937,908.1035819209937,908.1035819209937,908.1035819209937,908.1035819209937,908.1035819209937,908.1035819209937,908.1035819209937,908.1035819209937,a,0.9019073520030361,10,565,2,909.0377912379918,910.5396082910011,,,,,,,,,,,,,,,,,,,,,,,,,,,,,,,,,,,,,,,,,,,,,,,,,,,,,,,,,,,,,,,,,,,,,,,,,,,77970,2022-11-22_08h04.02.974,vts_reward_expectancy_bt_OFFLINE,2022.2.4,59.94806914303617,
0,1,0,0,0,0,1,0,circle,hexagon,2,0,2,0,0,10,10,4,,,,,,,,,,,,,,,,,,,,,,,,,,,,,,,,,,,,,,,,911.0400928439922,911.0400928439922,911.0400928439922,911.0400928439922,911.0400928439922,911.0400928439922,911.0400928439922,911.0400928439922,911.0400928439922,911.0400928439922,a,2.947214176034322,10,575,2,914.0100063169957,915.5119845279842,,,,,,,,,,,,,,,,,,,,,,,,,,,,,,,,,,,,,,,,,,,,,,,,,,,,,,,,,,,,,,,,,,,,,,,,,,,77970,2022-11-22_08h04.02.974,vts_reward_expectancy_bt_OFFLINE,2022.2.4,59.94806914303617,
0,0,0,1,0,1,0,0,star ,circle,2,0,2,0,0,11,11,10,,,,,,,,,,,,,,,,,,,,,,,,,,,,,,,,,,,,,,,,916.0121435759938,916.0121435759938,916.0121435759938,916.0121435759938,916.0121435759938,916.0121435759938,916.0121435759938,916.0121435759938,916.0121435759938,916.0121435759938,l,1.7225019420147873,1,576,2,917.7641301409749,919.265710549982,,,,,,,,,,,,,,,,,,,,,,,,,,,,,,,,,,,,,,,,,,,,,,,,,,,,,,,,,,,,,,,,,,,,,,,,,,,77970,2022-11-22_08h04.02.974,vts_reward_expectancy_bt_OFFLINE,2022.2.4,59.94806914303617,
0,1,0,0,0,0,1,0,circle,hexagon,2,0,2,0,1,0,12,4,,,,,,,,,,,,,,,,,,,,,,,,,,,,,,,,,,,,,,,,919.7662938569847,919.7662938569847,919.7662938569847,919.7662938569847,919.7662938569847,919.7662938569847,919.7662938569847,919.7662938569847,919.7662938569847,919.7662938569847,a,1.0743586460012011,10,586,2,920.8675695089914,922.3692549989792,,,,,,,,,,,,,,,,,,,,,,,,,,,,,,,,,,,,,,,,,,,,,,,,,,,,,,,,,,,,,,,,,,,,,,,,,,,77970,2022-11-22_08h04.02.974,vts_reward_expectancy_bt_OFFLINE,2022.2.4,59.94806914303617,
0,0,0,1,0,1,0,0,star ,circle,2,0,2,0,1,1,13,10,,,,,,,,,,,,,,,,,,,,,,,,,,,,,,,,,,,,,,,,922.8698497409932,922.8698497409932,922.8698497409932,922.8698497409932,922.8698497409932,922.8698497409932,922.8698497409932,922.8698497409932,922.8698497409932,922.8698497409932,a,1.2436101050116122,10,596,2,924.1377864379901,925.6394184289966,,,,,,,,,,,,,,,,,,,,,,,,,,,,,,,,,,,,,,,,,,,,,,,,,,,,,,,,,,,,,,,,,,,,,,,,,,,77970,2022-11-22_08h04.02.974,vts_reward_expectancy_bt_OFFLINE,2022.2.4,59.94806914303617,
1,0,0,0,0,0,0,1,triangle,star,2,0,2,0,1,2,14,2,,,,,,,,,,,,,,,,,,,,,,,,,,,,,,,,,,,,,,,,926.140060331003,926.140060331003,926.140060331003,926.140060331003,926.140060331003,926.140060331003,926.140060331003,926.140060331003,926.140060331003,926.140060331003,l,1.0350986100092996,1,597,2,927.1913204259763,928.6930059930019,928.6930059930019,,,,,,,,,,,,,,,,,,,,,,,,,,,,,,,,,,,,,,,,,,,,,,,,,,,,,,,,,,,,,,,,,,,,,,,,,,77970,2022-11-22_08h04.02.974,vts_reward_expectancy_bt_OFFLINE,2022.2.4,59.94806914303617,
0,0,1,0,1,0,0,0,hexagon,triangle,2,0,2,0,1,3,15,6,,,,,,,,,,,,,,,,,,,,,,,,,,,,,,,,,,,,,,,,929.1938438479847,929.1938438479847,929.1938438479847,929.1938438479847,929.1938438479847,929.1938438479847,929.1938438479847,929.1938438479847,929.1938438479847,929.1938438479847,a,0.7923433840333018,10,607,2,930.0109631909872,931.5127280269808,,,,,,,,,,,,,,,,,,,,,,,,,,,,,,,,,,,,,,,,,,,,,,,,,,,,,,,,,,,,,,,,,,,,,,,,,,,77970,2022-11-22_08h04.02.974,vts_reward_expectancy_bt_OFFLINE,2022.2.4,59.94806914303617,
1,0,0,0,0,0,1,0,triangle,hexagon,2,0,2,0,1,4,16,1,,,,,,,,,,,,,,,,,,,,,,,,,,,,,,,,,,,,,,,,932.0131622679764,932.0131622679764,932.0131622679764,932.0131622679764,932.0131622679764,932.0131622679764,932.0131622679764,932.0131622679764,932.0131622679764,932.0131622679764,l,1.270114626007853,10,617,2,933.3147196169884,934.8163945440028,,,,,,,,,,,,,,,,,,,,,,,,,,,,,,,,,,,,,,,,,,,,,,,,,,,,,,,,,,,,,,,,,,,,,,,,,,,77970,2022-11-22_08h04.02.974,vts_reward_expectancy_bt_OFFLINE,2022.2.4,59.94806914303617,
0,0,1,0,0,0,0,1,hexagon,star,2,0,2,0,1,5,17,8,,,,,,,,,,,,,,,,,,,,,,,,,,,,,,,,,,,,,,,,935.3170508439944,935.3170508439944,935.3170508439944,935.3170508439944,935.3170508439944,935.3170508439944,935.3170508439944,935.3170508439944,935.3170508439944,935.3170508439944,a,0.8351276400208008,1,618,2,936.1844491539814,937.6863696609798,,,,,,,,,,,,,,,,,,,,,,,,,,,,,,,,,,,,,,,,,,,,,,,,,,,,,,,,,,,,,,,,,,,,,,,,,,,77970,2022-11-22_08h04.02.974,vts_reward_expectancy_bt_OFFLINE,2022.2.4,59.94806914303617,
0,0,0,1,1,0,0,0,star,triangle,2,0,2,0,1,6,18,9,,,,,,,,,,,,,,,,,,,,,,,,,,,,,,,,,,,,,,,,938.1866555309971,938.1866555309971,938.1866555309971,938.1866555309971,938.1866555309971,938.1866555309971,938.1866555309971,938.1866555309971,938.1866555309971,938.1866555309971,a,1.285615114029497,1,619,2,939.5047742069873,941.0060692629777,,,,,,,,,,,,,,,,,,,,,,,,,,,,,,,,,,,,,,,,,,,,,,,,,,,,,,,,,,,,,,,,,,,,,,,,,,,77970,2022-11-22_08h04.02.974,vts_reward_expectancy_bt_OFFLINE,2022.2.4,59.94806914303617,
0,1,0,0,0,0,0,1,circle,star,2,0,2,0,1,7,19,5,,,,,,,,,,,,,,,,,,,,,,,,,,,,,,,,,,,,,,,,941.5073649849801,941.5073649849801,941.5073649849801,941.5073649849801,941.5073649849801,941.5073649849801,941.5073649849801,941.5073649849801,941.5073649849801,941.5073649849801,l,0.7302440920320805,1,620,2,942.2580100459745,943.7595663039829,,,,,,,,,,,,,,,,,,,,,,,,,,,,,,,,,,,,,,,,,,,,,,,,,,,,,,,,,,,,,,,,,,,,,,,,,,,77970,2022-11-22_08h04.02.974,vts_reward_expectancy_bt_OFFLINE,2022.2.4,59.94806914303617,
0,1,0,0,1,0,0,0,circle,triangle,2,0,2,0,1,8,20,3,,,,,,,,,,,,,,,,,,,,,,,,,,,,,,,,,,,,,,,,944.2601107009978,944.2601107009978,944.2601107009978,944.2601107009978,944.2601107009978,944.2601107009978,944.2601107009978,944.2601107009978,944.2601107009978,944.2601107009978,a,0.9023179580399301,10,630,2,945.194433030003,946.6961037029978,,,,,,,,,,,,,,,,,,,,,,,,,,,,,,,,,,,,,,,,,,,,,,,,,,,,,,,,,,,,,,,,,,,,,,,,,,,77970,2022-11-22_08h04.02.974,vts_reward_expectancy_bt_OFFLINE,2022.2.4,59.94806914303617,
0,0,0,1,0,0,1,0,star,hexagon,2,0,2,0,1,9,21,11,,,,,,,,,,,,,,,,,,,,,,,,,,,,,,,,,,,,,,,,947.1966865639843,947.1966865639843,947.1966865639843,947.1966865639843,947.1966865639843,947.1966865639843,947.1966865639843,947.1966865639843,947.1966865639843,947.1966865639843,a,1.261548936017789,10,640,2,948.4813776359952,949.9829737789987,,,,,,,,,,,,,,,,,,,,,,,,,,,,,,,,,,,,,,,,,,,,,,,,,,,,,,,,,,,,,,,,,,,,,,,,,,,77970,2022-11-22_08h04.02.974,vts_reward_expectancy_bt_OFFLINE,2022.2.4,59.94806914303617,
0,0,1,0,0,1,0,0,hexagon,circle,2,0,2,0,1,10,22,7,,,,,,,,,,,,,,,,,,,,,,,,,,,,,,,,,,,,,,,,950.4834672379948,950.4834672379948,950.4834672379948,950.4834672379948,950.4834672379948,950.4834672379948,950.4834672379948,950.4834672379948,950.4834672379948,950.4834672379948,l,2.1833268830087036,10,650,2,952.6863387019839,954.1879181799886,,,,,,,,,,,,,,,,,,,,,,,,,,,,,,,,,,,,,,,,,,,,,,,,,,,,,,,,,,,,,,,,,,,,,,,,,,,77970,2022-11-22_08h04.02.974,vts_reward_expectancy_bt_OFFLINE,2022.2.4,59.94806914303617,
1,0,0,0,0,1,0,0,triangle,circle,2,0,2,0,1,11,23,0,,,,,,,,,,,,,,,,,,,,,,,,,,,,,,,,,,,,,,,,954.6882330279914,954.6882330279914,954.6882330279914,954.6882330279914,954.6882330279914,954.6882330279914,954.6882330279914,954.6882330279914,954.6882330279914,954.6882330279914,a,1.9839688630308956,10,660,2,956.6903644359845,958.1920038949756,,,,,,,,,,,,,,,,,,,,,,,,,,,,,,,,,,,,,,,,,,,,,,,,,,,,,,,,,,,,,,,,,,,,,,,,,,,77970,2022-11-22_08h04.02.974,vts_reward_expectancy_bt_OFFLINE,2022.2.4,59.94806914303617,
0,1,0,0,0,0,0,1,circle,star,2,0,2,0,2,0,24,5,,,,,,,,,,,,,,,,,,,,,,,,,,,,,,,,,,,,,,,,958.692526963976,958.692526963976,958.692526963976,958.692526963976,958.692526963976,958.692526963976,958.692526963976,958.692526963976,958.692526963976,958.692526963976,l,1.6125777510169428,10,670,2,960.3277308409743,961.8294960079947,,,,,,,,,,,,,,,,,,,,,,,,,,,,,,,,,,,,,,,,,,,,,,,,,,,,,,,,,,,,,,,,,,,,,,,,,,,77970,2022-11-22_08h04.02.974,vts_reward_expectancy_bt_OFFLINE,2022.2.4,59.94806914303617,
0,0,1,0,0,1,0,0,hexagon,circle,2,0,2,0,2,1,25,7,,,,,,,,,,,,,,,,,,,,,,,,,,,,,,,,,,,,,,,,962.3300605549884,962.3300605549884,962.3300605549884,962.3300605549884,962.3300605549884,962.3300605549884,962.3300605549884,962.3300605549884,962.3300605549884,962.3300605549884,a,0.8436172670044471,1,671,2,963.1974963769899,964.6992469480028,,,,,,,,,,,,,,,,,,,,,,,,,,,,,,,,,,,,,,,,,,,,,,,,,,,,,,,,,,,,,,,,,,,,,,,,,,,77970,2022-11-22_08h04.02.974,vts_reward_expectancy_bt_OFFLINE,2022.2.4,59.94806914303617,
0,0,1,0,1,0,0,0,hexagon,triangle,2,0,2,0,2,2,26,6,,,,,,,,,,,,,,,,,,,,,,,,,,,,,,,,,,,,,,,,965.1997637949826,965.1997637949826,965.1997637949826,965.1997637949826,965.1997637949826,965.1997637949826,965.1997637949826,965.1997637949826,965.1997637949826,965.1997637949826,l,0.7076379440259188,10,681,2,965.9340583719895,967.4355233839888,,,,,,,,,,,,,,,,,,,,,,,,,,,,,,,,,,,,,,,,,,,,,,,,,,,,,,,,,,,,,,,,,,,,,,,,,,,77970,2022-11-22_08h04.02.974,vts_reward_expectancy_bt_OFFLINE,2022.2.4,59.94806914303617,
0,0,0,1,1,0,0,0,star,triangle,2,0,2,0,2,3,27,9,,,,,,,,,,,,,,,,,,,,,,,,,,,,,,,,,,,,,,,,967.9361045440019,967.9361045440019,967.9361045440019,967.9361045440019,967.9361045440019,967.9361045440019,967.9361045440019,967.9361045440019,967.9361045440019,967.9361045440019,l,0.7409832910343539,1,682,2,968.7037443799782,970.2052616079745,,,,,,,,,,,,,,,,,,,,,,,,,,,,,,,,,,,,,,,,,,,,,,,,,,,,,,,,,,,,,,,,,,,,,,,,,,,77970,2022-11-22_08h04.02.974,vts_reward_expectancy_bt_OFFLINE,2022.2.4,59.94806914303617,
1,0,0,0,0,0,0,1,triangle,star,2,0,2,0,2,4,28,2,,,,,,,,,,,,,,,,,,,,,,,,,,,,,,,,,,,,,,,,970.7059661499807,970.7059661499807,970.7059661499807,970.7059661499807,970.7059661499807,970.7059661499807,970.7059661499807,970.7059661499807,970.7059661499807,970.7059661499807,a,0.37705511902458966,1,683,2,971.1063736520009,972.608352203999,,,,,,,,,,,,,,,,,,,,,,,,,,,,,,,,,,,,,,,,,,,,,,,,,,,,,,,,,,,,,,,,,,,,,,,,,,,77970,2022-11-22_08h04.02.974,vts_reward_expectancy_bt_OFFLINE,2022.2.4,59.94806914303617,
0,0,0,1,0,1,0,0,star ,circle,2,0,2,0,2,5,29,10,,,,,,,,,,,,,,,,,,,,,,,,,,,,,,,,,,,,,,,,973.1084211719863,973.1084211719863,973.1084211719863,973.1084211719863,973.1084211719863,973.1084211719863,973.1084211719863,973.1084211719863,973.1084211719863,973.1084211719863,l,0.2816039920144249,1,684,2,973.4090181319916,974.9104403809761,,,,,,,,,,,,,,,,,,,,,,,,,,,,,,,,,,,,,,,,,,,,,,,,,,,,,,,,,,,,,,,,,,,,,,,,,,,77970,2022-11-22_08h04.02.974,vts_reward_expectancy_bt_OFFLINE,2022.2.4,59.94806914303617,
0,0,1,0,0,0,0,1,hexagon,star,2,0,2,0,2,6,30,8,,,,,,,,,,,,,,,,,,,,,,,,,,,,,,,,,,,,,,,,975.4110799119808,975.4110799119808,975.4110799119808,975.4110799119808,975.4110799119808,975.4110799119808,975.4110799119808,975.4110799119808,975.4110799119808,975.4110799119808,l,1.0161370690038893,10,694,2,976.4455796330003,977.9471650609921,,,,,,,,,,,,,,,,,,,,,,,,,,,,,,,,,,,,,,,,,,,,,,,,,,,,,,,,,,,,,,,,,,,,,,,,,,,77970,2022-11-22_08h04.02.974,vts_reward_expectancy_bt_OFFLINE,2022.2.4,59.94806914303617,
0,0,0,1,0,0,1,0,star,hexagon,2,0,2,0,2,7,31,11,,,,,,,,,,,,,,,,,,,,,,,,,,,,,,,,,,,,,,,,978.4476258789946,978.4476258789946,978.4476258789946,978.4476258789946,978.4476258789946,978.4476258789946,978.4476258789946,978.4476258789946,978.4476258789946,978.4476258789946,a,1.9058104970026761,10,704,2,980.3832241240016,981.8849189169996,,,,,,,,,,,,,,,,,,,,,,,,,,,,,,,,,,,,,,,,,,,,,,,,,,,,,,,,,,,,,,,,,,,,,,,,,,,77970,2022-11-22_08h04.02.974,vts_reward_expectancy_bt_OFFLINE,2022.2.4,59.94806914303617,
1,0,0,0,0,0,1,0,triangle,hexagon,2,0,2,0,2,8,32,1,,,,,,,,,,,,,,,,,,,,,,,,,,,,,,,,,,,,,,,,982.385442186991,982.385442186991,982.385442186991,982.385442186991,982.385442186991,982.385442186991,982.385442186991,982.385442186991,982.385442186991,982.385442186991,l,1.5801398000039626,1,705,2,983.9872511379945,985.4888621029968,,,,,,,,,,,,,,,,,,,,,,,,,,,,,,,,,,,,,,,,,,,,,,,,,,,,,,,,,,,,,,,,,,,,,,,,,,,77970,2022-11-22_08h04.02.974,vts_reward_expectancy_bt_OFFLINE,2022.2.4,59.94806914303617,
1,0,0,0,0,1,0,0,triangle,circle,2,0,2,0,2,9,33,0,,,,,,,,,,,,,,,,,,,,,,,,,,,,,,,,,,,,,,,,985.9896338029939,985.9896338029939,985.9896338029939,985.9896338029939,985.9896338029939,985.9896338029939,985.9896338029939,985.9896338029939,985.9896338029939,985.9896338029939,a,0.4958458460168913,10,715,2,986.5065860199975,988.0084684999892,,,,,,,,,,,,,,,,,,,,,,,,,,,,,,,,,,,,,,,,,,,,,,,,,,,,,,,,,,,,,,,,,,,,,,,,,,,77970,2022-11-22_08h04.02.974,vts_reward_expectancy_bt_OFFLINE,2022.2.4,59.94806914303617,
0,1,0,0,1,0,0,0,circle,triangle,2,0,2,0,2,10,34,3,,,,,,,,,,,,,,,,,,,,,,,,,,,,,,,,,,,,,,,,988.5093465719838,988.5093465719838,988.5093465719838,988.5093465719838,988.5093465719838,988.5093465719838,988.5093465719838,988.5093465719838,988.5093465719838,988.5093465719838,l,1.8240085389988963,10,725,2,990.3609107039811,991.8623097099771,,,,,,,,,,,,,,,,,,,,,,,,,,,,,,,,,,,,,,,,,,,,,,,,,,,,,,,,,,,,,,,,,,,,,,,,,,,77970,2022-11-22_08h04.02.974,vts_reward_expectancy_bt_OFFLINE,2022.2.4,59.94806914303617,
0,1,0,0,0,0,1,0,circle,hexagon,2,0,2,0,2,11,35,4,,,,,,,,,,,,,,,,,,,,,,,,,,,,,,,,,,,,,,,,992.363190213975,992.363190213975,992.363190213975,992.363190213975,992.363190213975,992.363190213975,992.363190213975,992.363190213975,992.363190213975,992.363190213975,l,1.2768329800164793,10,735,2,993.664374444983,995.1661521740025,,,,,,,,,,,,,,,,,,,,,,,,,,,,,,,,,,,,,,,,,,,,,,,,,,,,,,,,,,,,,,,,,,,,,,,,,,,77970,2022-11-22_08h04.02.974,vts_reward_expectancy_bt_OFFLINE,2022.2.4,59.94806914303617,
0,0,0,1,1,0,0,0,star,triangle,2,0,2,0,3,0,36,9,,,,,,,,,,,,,,,,,,,,,,,,,,,,,,,,,,,,,,,,995.6667849469814,995.6667849469814,995.6667849469814,995.6667849469814,995.6667849469814,995.6667849469814,995.6667849469814,995.6667849469814,995.6667849469814,995.6667849469814,a,1.057738474017242,1,736,2,996.7512755979842,998.252866883995,,,,,,,,,,,,,,,,,,,,,,,,,,,,,,,,,,,,,,,,,,,,,,,,,,,,,,,,,,,,,,,,,,,,,,,,,,,77970,2022-11-22_08h04.02.974,vts_reward_expectancy_bt_OFFLINE,2022.2.4,59.94806914303617,
0,0,0,1,0,0,1,0,star,hexagon,2,0,2,0,3,1,37,11,,,,,,,,,,,,,,,,,,,,,,,,,,,,,,,,,,,,,,,,998.753427882999,998.753427882999,998.753427882999,998.753427882999,998.753427882999,998.753427882999,998.753427882999,998.753427882999,998.753427882999,998.753427882999,l,3.5946581680036616,10,746,2,1002.3745353939885,1003.8757626639854,,,,,,,,,,,,,,,,,,,,,,,,,,,,,,,,,,,,,,,,,,,,,,,,,,,,,,,,,,,,,,,,,,,,,,,,,,,77970,2022-11-22_08h04.02.974,vts_reward_expectancy_bt_OFFLINE,2022.2.4,59.94806914303617,
0,1,0,0,1,0,0,0,circle,triangle,2,0,2,0,3,2,38,3,,,,,,,,,,,,,,,,,,,,,,,,,,,,,,,,,,,,,,,,1004.376565626997,1004.376565626997,1004.376565626997,1004.376565626997,1004.376565626997,1004.376565626997,1004.376565626997,1004.376565626997,1004.376565626997,1004.376565626997,a,0.9185621760261711,1,747,2,1005.3274380569928,1006.829090418003,,,,,,,,,,,,,,,,,,,,,,,,,,,,,,,,,,,,,,,,,,,,,,,,,,,,,,,,,,,,,,,,,,,,,,,,,,,77970,2022-11-22_08h04.02.974,vts_reward_expectancy_bt_OFFLINE,2022.2.4,59.94806914303617,
0,0,0,1,0,1,0,0,star ,circle,2,0,2,0,3,3,39,10,,,,,,,,,,,,,,,,,,,,,,,,,,,,,,,,,,,,,,,,1007.3296014239895,1007.3296014239895,1007.3296014239895,1007.3296014239895,1007.3296014239895,1007.3296014239895,1007.3296014239895,1007.3296014239895,1007.3296014239895,1007.3296014239895,l,0.6442559370188974,10,757,2,1007.997293619992,1009.4988076699956,,,,,,,,,,,,,,,,,,,,,,,,,,,,,,,,,,,,,,,,,,,,,,,,,,,,,,,,,,,,,,,,,,,,,,,,,,,77970,2022-11-22_08h04.02.974,vts_reward_expectancy_bt_OFFLINE,2022.2.4,59.94806914303617,
0,0,1,0,1,0,0,0,hexagon,triangle,2,0,2,0,3,4,40,6,,,,,,,,,,,,,,,,,,,,,,,,,,,,,,,,,,,,,,,,1009.9995403359935,1009.9995403359935,1009.9995403359935,1009.9995403359935,1009.9995403359935,1009.9995403359935,1009.9995403359935,1009.9995403359935,1009.9995403359935,1009.9995403359935,a,1.145686296018539,1,758,2,1011.1672363979742,1012.6687865059939,,,,,,,,,,,,,,,,,,,,,,,,,,,,,,,,,,,,,,,,,,,,,,,,,,,,,,,,,,,,,,,,,,,,,,,,,,,77970,2022-11-22_08h04.02.974,vts_reward_expectancy_bt_OFFLINE,2022.2.4,59.94806914303617,
0,1,0,0,0,0,1,0,circle,hexagon,2,0,2,0,3,5,41,4,,,,,,,,,,,,,,,,,,,,,,,,,,,,,,,,,,,,,,,,1013.1694284399855,1013.1694284399855,1013.1694284399855,1013.1694284399855,1013.1694284399855,1013.1694284399855,1013.1694284399855,1013.1694284399855,1013.1694284399855,1013.1694284399855,l,0.598103507043561,1,759,2,1013.7866461189988,1015.288350938994,,,,,,,,,,,,,,,,,,,,,,,,,,,,,,,,,,,,,,,,,,,,,,,,,,,,,,,,,,,,,,,,,,,,,,,,,,,77970,2022-11-22_08h04.02.974,vts_reward_expectancy_bt_OFFLINE,2022.2.4,59.94806914303617,
0,1,0,0,0,0,0,1,circle,star,2,0,2,0,3,6,42,5,,,,,,,,,,,,,,,,,,,,,,,,,,,,,,,,,,,,,,,,1015.7893592829932,1015.7893592829932,1015.7893592829932,1015.7893592829932,1015.7893592829932,1015.7893592829932,1015.7893592829932,1015.7893592829932,1015.7893592829932,1015.7893592829932,l,0.2946364880190231,1,760,2,1016.1059851119935,1017.6078277170018,,,,,,,,,,,,,,,,,,,,,,,,,,,,,,,,,,,,,,,,,,,,,,,,,,,,,,,,,,,,,,,,,,,,,,,,,,,77970,2022-11-22_08h04.02.974,vts_reward_expectancy_bt_OFFLINE,2022.2.4,59.94806914303617,
0,0,1,0,0,1,0,0,hexagon,circle,2,0,2,0,3,7,43,7,,,,,,,,,,,,,,,,,,,,,,,,,,,,,,,,,,,,,,,,1018.1086721009924,1018.1086721009924,1018.1086721009924,1018.1086721009924,1018.1086721009924,1018.1086721009924,1018.1086721009924,1018.1086721009924,1018.1086721009924,1018.1086721009924,l,0.30648371603456326,1,761,2,1018.4420985759934,1019.9438179839926,,,,,,,,,,,,,,,,,,,,,,,,,,,,,,,,,,,,,,,,,,,,,,,,,,,,,,,,,,,,,,,,,,,,,,,,,,,77970,2022-11-22_08h04.02.974,vts_reward_expectancy_bt_OFFLINE,2022.2.4,59.94806914303617,
1,0,0,0,0,1,0,0,triangle,circle,2,0,2,0,3,8,44,0,,,,,,,,,,,,,,,,,,,,,,,,,,,,,,,,,,,,,,,,1020.4442647389951,1020.4442647389951,1020.4442647389951,1020.4442647389951,1020.4442647389951,1020.4442647389951,1020.4442647389951,1020.4442647389951,1020.4442647389951,1020.4442647389951,l,0.2978345070150681,10,771,2,1020.7612488829764,1022.2629395939875,,,,,,,,,,,,,,,,,,,,,,,,,,,,,,,,,,,,,,,,,,,,,,,,,,,,,,,,,,,,,,,,,,,,,,,,,,,77970,2022-11-22_08h04.02.974,vts_reward_expectancy_bt_OFFLINE,2022.2.4,59.94806914303617,
1,0,0,0,0,0,0,1,triangle,star,2,0,2,0,3,9,45,2,,,,,,,,,,,,,,,,,,,,,,,,,,,,,,,,,,,,,,,,1022.763511622994,1022.763511622994,1022.763511622994,1022.763511622994,1022.763511622994,1022.763511622994,1022.763511622994,1022.763511622994,1022.763511622994,1022.763511622994,l,1.8716064800100867,1,772,2,1024.6652895739826,1026.1669757659838,,,,,,,,,,,,,,,,,,,,,,,,,,,,,,,,,,,,,,,,,,,,,,,,,,,,,,,,,,,,,,,,,,,,,,,,,,,77970,2022-11-22_08h04.02.974,vts_reward_expectancy_bt_OFFLINE,2022.2.4,59.94806914303617,
1,0,0,0,0,0,1,0,triangle,hexagon,2,0,2,0,3,10,46,1,,,,,,,,,,,,,,,,,,,,,,,,,,,,,,,,,,,,,,,,1026.6676651979797,1026.6676651979797,1026.6676651979797,1026.6676651979797,1026.6676651979797,1026.6676651979797,1026.6676651979797,1026.6676651979797,1026.6676651979797,1026.6676651979797,a,0.8580084170098417,10,782,2,1027.5519715579867,1029.0535800989892,,,,,,,,,,,,,,,,,,,,,,,,,,,,,,,,,,,,,,,,,,,,,,,,,,,,,,,,,,,,,,,,,,,,,,,,,,,77970,2022-11-22_08h04.02.974,vts_reward_expectancy_bt_OFFLINE,2022.2.4,59.94806914303617,
0,0,1,0,0,0,0,1,hexagon,star,2,0,2,0,3,11,47,8,,,,,,,,,,,,,,,,,,,,,,,,,,,,,,,,,,,,,,,,1029.5541186530027,1029.5541186530027,1029.5541186530027,1029.5541186530027,1029.5541186530027,1029.5541186530027,1029.5541186530027,1029.5541186530027,1029.5541186530027,1029.5541186530027,l,2.9441991640196647,1,783,2,1032.524063595978,1034.0256352449942,,,,,,,,,,,,,,,,,,,,,,,,,,,,,,,,,,,,,,,,,,,,,,,,,,,,,,,,,,,,,,,,,,,,,,,,,,,77970,2022-11-22_08h04.02.974,vts_reward_expectancy_bt_OFFLINE,2022.2.4,59.94806914303617,
,,,,,,,,,,,,,,,,,,0,0,0,0,0,0,0,0,,,,,,,,,,,,,,,,,,,,,,,,,,,,,,,,,,,,,,,,,,,,,,,,1074.5205347469891,,H,125,hexagon,0.002204782998887822,1068.6927711349854,1070.1989320149878,1070.1989320149878,1070.1989320149878,1,0,d,2.790785258024698,0,1073.018859606993,,,,,,,,,,,,,,,,,,,,,,,,,,,,,,,,,,,,,,,,,,,,,,,,,,,,,,,,,,,,77970,2022-11-22_08h04.02.974,vts_reward_expectancy_bt_OFFLINE,2022.2.4,59.94806914303617,
,,,,,,,,,,,,,,,,,,0,0,0,0,1,0,1,0,,,,,,,,,,,,,,,,,,,,,,,,,,,,,,,,,,,,,,,,,,,,,,,,1079.4591628880007,,D,139,circle,0.001546032988699153,1075.499731383985,1077.006533081003,1077.006533081003,1077.006533081003,1,0,d,0.9206384740245994,0,1077.9574994719878,,,,,,,,,,,,,,,,,,,,,,,,,,,,,,,,,,,,,,,,,,,,,,,,,,,,,,,,,,,,77970,2022-11-22_08h04.02.974,vts_reward_expectancy_bt_OFFLINE,2022.2.4,59.94806914303617,
,,,,,,,,,,,,,,,,,,0,0,0,0,2,0,2,0,,,,,,,,,,,,,,,,,,,,,,,,,,,,,,,,,,,,,,,,,,,,,,,,1084.3478050849808,,F,181,triangle,0.001662165013840422,1080.438261244999,1081.9451229229744,1081.9451229229744,1081.9451229229744,1,0,d,0.8773330920084845,0,1082.8460950939916,,,,,,,,,,,,,,,,,,,,,,,,,,,,,,,,,,,,,,,,,,,,,,,,,,,,,,,,,,,,77970,2022-11-22_08h04.02.974,vts_reward_expectancy_bt_OFFLINE,2022.2.4,59.94806914303617,
,,,,,,,,,,,,,,,,,,0,0,0,0,3,0,3,0,,,,,,,,,,,,,,,,,,,,,,,,,,,,,,,,,,,,,,,,,,,,,,,,1089.720761384,,U,146,star,0.0017522029811516404,1085.3270423169888,1086.8338936069922,1086.8338936069922,1086.8338936069922,1,0,f,1.3658713019976858,0,1088.2188948349794,,,,,,,,,,,,,,,,,,,,,,,,,,,,,,,,,,,,,,,,,,,,,,,,,,,,,,,,,,,,77970,2022-11-22_08h04.02.974,vts_reward_expectancy_bt_OFFLINE,2022.2.4,59.94806914303617,
,,,,,,,,,,,,,,,,,,0,0,0,0,4,0,4,0,,,,,,,,,,,,,,,,,,,,,,,,,,,,,,,,,,,,,,,,,,,,,,,,1094.3923173539806,,W,174,star,0.00132093601860106,1090.7002185419842,1092.2065602429793,1092.2065602429793,1092.2065602429793,1,0,f,0.6524186380265746,0,1092.8906624649826,,,,,,,,,,,,,,,,,,,,,,,,,,,,,,,,,,,,,,,,,,,,,,,,,,,,,,,,,,,,77970,2022-11-22_08h04.02.974,vts_reward_expectancy_bt_OFFLINE,2022.2.4,59.94806914303617,
,,,,,,,,,,,,,,,,,,0,0,0,0,5,0,5,0,,,,,,,,,,,,,,,,,,,,,,,,,,,,,,,,,,,,,,,,,,,,,,,,1099.5986359799863,,S,167,hexagon,0.0018029320053756237,1095.3701598579937,1096.8784492089762,1096.8784492089762,1096.8784492089762,1,0,f,1.1869672120083123,0,1098.0964669829991,,,,,,,,,,,,,,,,,,,,,,,,,,,,,,,,,,,,,,,,,,,,,,,,,,,,,,,,,,,,77970,2022-11-22_08h04.02.974,vts_reward_expectancy_bt_OFFLINE,2022.2.4,59.94806914303617,
,,,,,,,,,,,,,,,,,,0,0,0,0,6,0,6,0,,,,,,,,,,,,,,,,,,,,,,,,,,,,,,,,,,,,,,,,,,,,,,,,1104.253251675982,,Y,132,triangle,0.002082150982460007,1100.5763675149938,1102.0841501159885,1102.0841501159885,1102.0841501159885,1,0,f,0.6389598429959733,0,1102.751534312003,,,,,,,,,,,,,,,,,,,,,,,,,,,,,,,,,,,,,,,,,,,,,,,,,,,,,,,,,,,,77970,2022-11-22_08h04.02.974,vts_reward_expectancy_bt_OFFLINE,2022.2.4,59.94806914303617,
,,,,,,,,,,,,,,,,,,0,0,0,0,7,0,7,0,,,,,,,,,,,,,,,,,,,,,,,,,,,,,,,,,,,,,,,,,,,,,,,,1109.1086332399864,,B,160,circle,0.0016550139989703894,1105.2316238329804,1106.7393570449785,1106.7393570449785,1106.7393570449785,1,0,d,0.8355222590034828,0,1107.6073169070005,,,,,,,,,,,,,,,,,,,,,,,,,,,,,,,,,,,,,,,,,,,,,,,,,,,,,,,,,,,,77970,2022-11-22_08h04.02.974,vts_reward_expectancy_bt_OFFLINE,2022.2.4,59.94806914303617,
,,,,,,,,,,,,,,,,,,0,0,0,0,8,0,8,0,,,,,,,,,,,,,,,,,,,,,,,,,,,,,,,,,,,,,,,,,,,,,,,,1113.9638701379881,,H,125,star,0.0017620600119698793,1110.085876851983,1111.5946259119955,1111.5946259119955,1111.5946259119955,1,0,d,0.8487011410179548,0,1112.4620788369793,,,,,,,,,,,,,,,,,,,,,,,,,,,,,,,,,,,,,,,,,,,,,,,,,,,,,,,,,,,,77970,2022-11-22_08h04.02.974,vts_reward_expectancy_bt_OFFLINE,2022.2.4,59.94806914303617,
,,,,,,,,,,,,,,,,,,0,0,0,0,9,0,9,0,,,,,,,,,,,,,,,,,,,,,,,,,,,,,,,,,,,,,,,,,,,,,,,,1118.9362708459958,,D,139,triangle,0.0010135430202353746,1114.9408227719832,1116.4499062839895,1116.4499062839895,1116.4499062839895,1,0,d,0.9564976610126905,0,1117.4344879359996,,,,,,,,,,,,,,,,,,,,,,,,,,,,,,,,,,,,,,,,,,,,,,,,,,,,,,,,,,,,77970,2022-11-22_08h04.02.974,vts_reward_expectancy_bt_OFFLINE,2022.2.4,59.94806914303617,
,,,,,,,,,,,,,,,,,,,,,,,,,,0,0,0,0,0,0,0,0,,,,,,,,,,,,,,,,,,,,,,,,,,,,,,,,,,,,,,,,1154.041446393996,,S,167,hexagon,0.002107861015247181,,,,,1,0,,,1,1152.5396872309793,1149.780194291001,1151.2883616129984,1151.2883616129984,1151.2883616129984,k,1.2194326910248492,,,,,,,,,,,,,,,,,,,,,,,,,,,,,,,,,,,,,,,,,,,,,,,,,,,,,,77970,2022-11-22_08h04.02.974,vts_reward_expectancy_bt_OFFLINE,2022.2.4,59.94806914303617,
,,,,,,,,,,,,,,,,,,,,,,,,,,0,0,0,0,1,0,1,0,,,,,,,,,,,,,,,,,,,,,,,,,,,,,,,,,,,,,,,,1158.763374653994,,H,146,star,0.0013041789934504777,,,,,1,0,,,1,1157.2616508200008,1155.018127399002,1156.5274173929938,1156.5274173929938,1156.5274173929938,j,0.7153054000227712,1158.763374653994,,,,,,,,,,,,,,,,,,,,,,,,,,,,,,,,,,,,,,,,,,,,,,,,,,,,,77970,2022-11-22_08h04.02.974,vts_reward_expectancy_bt_OFFLINE,2022.2.4,59.94806914303617,
,,,,,,,,,,,,,,,,,,,,,,,,,,0,0,0,0,2,0,2,0,,,,,,,,,,,,,,,,,,,,,,,,,,,,,,,,,,,,,,,,1163.5356164339755,,W,181,circle,0.0007969920116011053,,,,,1,0,,,1,1162.0337116209848,1159.7400767380022,1161.2494168549892,1161.2494168549892,1161.2494168549892,k,0.7637927909963764,,,,,,,,,,,,,,,,,,,,,,,,,,,,,,,,,,,,,,,,,,,,,,,,,,,,,,77970,2022-11-22_08h04.02.974,vts_reward_expectancy_bt_OFFLINE,2022.2.4,59.94806914303617,
,,,,,,,,,,,,,,,,,,,,,,,,,,0,0,0,0,3,0,3,0,,,,,,,,,,,,,,,,,,,,,,,,,,,,,,,,,,,,,,,,1168.5575814869953,,B,174,triangle,0.0012611910060513765,,,,,1,0,,,1,1167.055659399979,1164.5131878870015,1166.0213911739993,1166.0213911739993,1166.0213911739993,k,1.0093887190159876,,,,,,,,,,,,,,,,,,,,,,,,,,,,,,,,,,,,,,,,,,,,,,,,,,,,,,77970,2022-11-22_08h04.02.974,vts_reward_expectancy_bt_OFFLINE,2022.2.4,59.94806914303617,
,,,,,,,,,,,,,,,,,,,,,,,,,,0,0,0,0,4,0,4,0,,,,,,,,,,,,,,,,,,,,,,,,,,,,,,,,,,,,,,,,1173.930105382984,,Y,132,circle,0.0016496539756190032,,,,,1,0,,,1,1172.4283916839922,1169.5351711019757,1171.0437749869889,1171.0437749869889,1171.0437749869889,j,1.3525556960084941,,,,,,,,,,,,,,,,,,,,,,,,,,,,,,,,,,,,,,,,,,,,,,,,,,,,,,77970,2022-11-22_08h04.02.974,vts_reward_expectancy_bt_OFFLINE,2022.2.4,59.94806914303617,
,,,,,,,,,,,,,,,,,,,,,,,,,,0,0,0,0,5,0,5,0,,,,,,,,,,,,,,,,,,,,,,,,,,,,,,,,,,,,,,,,1178.8855646709853,,F,160,hexagon,0.0017460600065533072,,,,,1,0,,,1,1177.3838671839912,1174.9072960229823,1176.4160857879906,1176.4160857879906,1176.4160857879906,k,0.9425306190096308,,,,,,,,,,,,,,,,,,,,,,,,,,,,,,,,,,,,,,,,,,,,,,,,,,,,,,77970,2022-11-22_08h04.02.974,vts_reward_expectancy_bt_OFFLINE,2022.2.4,59.94806914303617,
,,,,,,,,,,,,,,,,,,,,,,,,,,0,0,0,0,6,0,6,0,,,,,,,,,,,,,,,,,,,,,,,,,,,,,,,,,,,,,,,,1184.6084362919792,,D,139,star,0.0016680559783708304,,,,,1,0,,,1,1183.1068403269746,1179.8623183469754,1181.3717446230003,1181.3717446230003,1181.3717446230003,j,1.703480649041012,,,,,,,,,,,,,,,,,,,,,,,,,,,,,,,,,,,,,,,,,,,,,,,,,,,,,,77970,2022-11-22_08h04.02.974,vts_reward_expectancy_bt_OFFLINE,2022.2.4,59.94806914303617,
,,,,,,,,,,,,,,,,,,,,,,,,,,0,0,0,0,7,0,7,0,,,,,,,,,,,,,,,,,,,,,,,,,,,,,,,,,,,,,,,,1189.480482234998,,U,125,triangle,0.0015396059898193926,,,,,1,0,,,1,1187.9787927389843,1185.5857678689936,1187.0945525199932,1187.0945525199932,1187.0945525199932,j,0.8521369459922425,,,,,,,,,,,,,,,,,,,,,,,,,,,,,,,,,,,,,,,,,,,,,,,,,,,,,,77970,2022-11-22_08h04.02.974,vts_reward_expectancy_bt_OFFLINE,2022.2.4,59.94806914303617,
,,,,,,,,,,,,,,,,,,,,,,,,,,0,0,0,0,8,0,8,0,,,,,,,,,,,,,,,,,,,,,,,,,,,,,,,,,,,,,,,,1194.3857909639773,,S,167,circle,0.0018141760083381087,,,,,1,0,,,1,1192.8842103490024,1190.4572019740008,1191.9666434050014,1191.9666434050014,1191.9666434050014,k,0.8950022630160674,,,,,,,,,,,,,,,,,,,,,,,,,,,,,,,,,,,,,,,,,,,,,,,,,,,,,,77970,2022-11-22_08h04.02.974,vts_reward_expectancy_bt_OFFLINE,2022.2.4,59.94806914303617,
,,,,,,,,,,,,,,,,,,,,,,,,,,0,0,0,0,9,0,9,0,,,,,,,,,,,,,,,,,,,,,,,,,,,,,,,,,,,,,,,,1201.3770761009946,,H,146,hexagon,0.0016137360071297735,,,,,0,0,,,1,1199.875447370985,1195.3629688729998,1196.8721170289791,1196.8721170289791,1196.8721170289791,None,,1201.3770761009946,1199.875447370985,1199.875447370985,1199.875447370985,1199.875447370985,1201.8775508120016,,,,,,,,,,,,,,,,,,,,,,,,,,,,,,,,,,,,,,,,,,,,,,,,77970,2022-11-22_08h04.02.974,vts_reward_expectancy_bt_OFFLINE,2022.2.4,59.94806914303617,
,,,,,,,,,,,,,,,,,,,,,,,,,,,,,,,,,,0,0,0,0,0,0,0,0,,,,,,,,,,,,,,,,,,,,,,,,,,,,0,783,,,1255.9374898989918,,U,167,triangle,0.0020556120143737644,,,,,-1,1,,,2,,,,,,,,,,,,,1256.437828176975,1249.9262170629809,1249.9262170629809,1249.9262170629809,1249.9262170629809,1251.4323043499899,1251.4323043499899,1251.4323043499899,1251.4323043499899,1251.4323043499899,1251.4323043499899,1251.4323043499899,1251.4323043499899,1254.4356690709828,1254.4356690709828,1254.4356690709828,1254.4356690709828,-1,no_choice,NA,None,vtsPrac,1254.4356690709828,1255.9374898989918,,,,,,,,,,,,,,,,,,,,,,,,,77970,2022-11-22_08h04.02.974,vts_reward_expectancy_bt_OFFLINE,2022.2.4,59.94806914303617,
,,,,,,,,,,,,,,,,,,,,,,,,,,,,,,,,,,0,0,0,0,1,0,1,0,,,,,,,,,,,,,,,,,,,,,,,,,,,,0,783,,,1260.826020546985,,Y,125,star,0.009158622997347265,,,,,1,0,,,2,,,,,,,,,,,,,,1256.9321607659804,1256.9321607659804,1256.9321607659804,1256.9321607659804,1258.4400147979904,1258.4400147979904,1258.4400147979904,1258.4400147979904,1258.4400147979904,1258.4400147979904,1258.4400147979904,1258.4400147979904,,,,,switch,letter,lettSwt,f,vtsPrac,1259.3242708139878,,0.8550424570275936,,,,,,,,,,,,,,,,,,,,,,,,77970,2022-11-22_08h04.02.974,vts_reward_expectancy_bt_OFFLINE,2022.2.4,59.94806914303617,
,,,,,,,,,,,,,,,,,,,,,,,,,,,,,,,,,,0,0,0,0,2,0,2,0,,,,,,,,,,,,,,,,,,,,,,,,,,,,0,783,,,1265.4476805089798,,W,174,circle,0.0016355929838027805,,,,,1,0,,,2,,,,,,,,,,,,,,1261.8055603849934,1261.8055603849934,1261.8055603849934,1261.8055603849934,1263.312010973983,1263.312010973983,1263.312010973983,1263.312010973983,1263.312010973983,1263.312010973983,1263.312010973983,1263.312010973983,,,,,repeat,letter,lettRpt,f,vtsPrac,1263.9463032170024,,0.6062468360178173,,,,,,,,,,,,,,,,,,,,,,,,77970,2022-11-22_08h04.02.974,vts_reward_expectancy_bt_OFFLINE,2022.2.4,59.94806914303617,
,,,,,,,,,,,,,,,,,,,,,,,,,,,,,,,,,,0,0,0,0,3,0,3,0,,,,,,,,,,,,,,,,,,,,,,,,,,,,0,783,,,1270.3866053759994,,H,146,triangle,0.0017426990089006722,,,,,1,0,,,2,,,,,,,,,,,,,,1266.426098492986,1266.426098492986,1266.426098492986,1266.426098492986,1267.9340016069764,1267.9340016069764,1267.9340016069764,1267.9340016069764,1267.9340016069764,1267.9340016069764,1267.9340016069764,1267.9340016069764,,,,,switch,number,numSwt,j,vtsPrac,1268.8848715889908,,0.9227632490219548,,,,,,,,,,,,,,,,,,,,,,,,77970,2022-11-22_08h04.02.974,vts_reward_expectancy_bt_OFFLINE,2022.2.4,59.94806914303617,
,,,,,,,,,,,,,,,,,,,,,,,,,,,,,,,,,,0,0,0,0,4,0,4,0,,,,,,,,,,,,,,,,,,,,,,,,,,,,0,783,,,1275.158406573988,,U,167,triangle,0.0018271440058015287,,,,,1,0,,,2,,,,,,,,,,,,,,1271.3652771060006,1271.3652771060006,1271.3652771060006,1271.3652771060006,1272.8724338219909,1272.8724338219909,1272.8724338219909,1272.8724338219909,1272.8724338219909,1272.8724338219909,1272.8724338219909,1272.8724338219909,,,,,switch,letter,lettSwt,f,vtsPrac,1273.6567746060027,,0.767725383018842,,,,,,,,,,,,,,,,,,,,,,,,77970,2022-11-22_08h04.02.974,vts_reward_expectancy_bt_OFFLINE,2022.2.4,59.94806914303617,
,,,,,,,,,,,,,,,,,,,,,,,,,,,,,,,,,,0,0,0,0,5,0,5,0,,,,,,,,,,,,,,,,,,,,,,,,,,,,0,783,,,1279.8469181649853,,Y,125,hexagon,0.0009657480113673955,,,,,1,0,,,2,,,,,,,,,,,,,,1276.135995249002,1276.135995249002,1276.135995249002,1276.135995249002,1277.6443364349834,1277.6443364349834,1277.6443364349834,1277.6443364349834,1277.6443364349834,1277.6443364349834,1277.6443364349834,1277.6443364349834,,,,,switch,number,numSwt,j,vtsPrac,1278.3451563239796,,0.6737769820319954,,,,,,,,,,,,,,,,,,,,,,,,77970,2022-11-22_08h04.02.974,vts_reward_expectancy_bt_OFFLINE,2022.2.4,59.94806914303617,
,,,,,,,,,,,,,,,,,,,,,,,,,,,,,,,,,,0,0,0,0,6,0,6,0,,,,,,,,,,,,,,,,,,,,,,,,,,,,0,783,,,1284.6021011399862,,W,174,star,0.0015933890244923532,,,,,1,0,,,2,,,,,,,,,,,,,,1280.8238488929928,1280.8238488929928,1280.8238488929928,1280.8238488929928,1282.3329428540019,1282.3329428540019,1282.3329428540019,1282.3329428540019,1282.3329428540019,1282.3329428540019,1282.3329428540019,1282.3329428540019,,,,,repeat,number,numRpt,k,vtsPrac,1283.1006745559862,,0.7441313650342636,,,,,,,,,,,,,,,,,,,,,,,,77970,2022-11-22_08h04.02.974,vts_reward_expectancy_bt_OFFLINE,2022.2.4,59.94806914303617,
,,,,,,,,,,,,,,,,,,,,,,,,,,,,,,,,,,0,0,0,0,7,0,7,0,,,,,,,,,,,,,,,,,,,,,,,,,,,,0,783,,,1289.7078865869844,,H,146,circle,0.0017308310198131949,,,,,1,0,,,2,,,,,,,,,,,,,,1285.579772305995,1285.579772305995,1285.579772305995,1285.579772305995,1287.088181514002,1287.088181514002,1287.088181514002,1287.088181514002,1287.088181514002,1287.088181514002,1287.088181514002,1287.088181514002,,,,,repeat,number,numRpt,j,vtsPrac,1288.2060804849898,,1.0857606400095392,,,,,,,,,,,,,,,,,,,,,,,,77970,2022-11-22_08h04.02.974,vts_reward_expectancy_bt_OFFLINE,2022.2.4,59.94806914303617,
,,,,,,,,,,,,,,,,,,,,,,,,,,,,,,,,,,0,0,0,0,8,0,8,0,,,,,,,,,,,,,,,,,,,,,,,,,,,,0,783,,,1294.3295102549891,,F,125,triangle,0.001829365995945409,,,,,1,0,,,2,,,,,,,,,,,,,,1290.6862228209793,1290.6862228209793,1290.6862228209793,1290.6862228209793,1292.193762750976,1292.193762750976,1292.193762750976,1292.193762750976,1292.193762750976,1292.193762750976,1292.193762750976,1292.193762750976,,,,,switch,letter,lettSwt,d,vtsPrac,1292.8279583669791,,0.6043934720219113,,,,,,,,,,,,,,,,,,,,,,,,77970,2022-11-22_08h04.02.974,vts_reward_expectancy_bt_OFFLINE,2022.2.4,59.94806914303617,
,,,,,,,,,,,,,,,,,,,,,,,,,,,,,,,,,,0,0,0,0,9,0,9,0,,,,,,,,,,,,,,,,,,,,,,,,,,,,0,783,,,1300.002739855001,,W,132,circle,0.0012243239907547832,,,,,1,0,,,2,,,,,,,,,,,,,,1295.3075485989975,1295.3075485989975,1295.3075485989975,1295.3075485989975,1296.8158655899751,1296.8158655899751,1296.8158655899751,1296.8158655899751,1296.8158655899751,1296.8158655899751,1296.8158655899751,1296.8158655899751,,,,,switch,number,numSwt,j,vtsPrac,1298.5007957179914,,1.6526097900350578,,,,,,,,,,,,,,,,,,,,,,,,77970,2022-11-22_08h04.02.974,vts_reward_expectancy_bt_OFFLINE,2022.2.4,59.94806914303617,
,,,,,,,,,,,,,,,,,,,,,,,,,,,,,,,,,,0,0,0,0,10,0,10,0,,,,,,,,,,,,,,,,,,,,,,,,,,,,0,783,,,1304.6743192559807,,Y,139,hexagon,0.0016403260233346373,,,,,1,0,,,2,,,,,,,,,,,,,,1300.980799817975,1300.980799817975,1300.980799817975,1300.980799817975,1302.488879113982,1302.488879113982,1302.488879113982,1302.488879113982,1302.488879113982,1302.488879113982,1302.488879113982,1302.488879113982,,,,,switch,letter,lettSwt,f,vtsPrac,1303.1728910509846,,0.6589706770319026,,,,,,,,,,,,,,,,,,,,,,,,77970,2022-11-22_08h04.02.974,vts_reward_expectancy_bt_OFFLINE,2022.2.4,59.94806914303617,
,,,,,,,,,,,,,,,,,,,,,,,,,,,,,,,,,,0,0,0,0,11,0,11,0,,,,,,,,,,,,,,,,,,,,,,,,,,,,0,783,,,1309.5296484599821,,H,181,star,0.001543405989650637,,,,,1,0,,,2,,,,,,,,,,,,,,1305.6536165079742,1305.6536165079742,1305.6536165079742,1305.6536165079742,1307.160442813998,1307.160442813998,1307.160442813998,1307.160442813998,1307.160442813998,1307.160442813998,1307.160442813998,1307.160442813998,,,,,repeat,letter,lettRpt,d,vtsPrac,1308.0280727319769,,0.848545320041012,,,,,,,,,,,,,,,,,,,,,,,,77970,2022-11-22_08h04.02.974,vts_reward_expectancy_bt_OFFLINE,2022.2.4,59.94806914303617,
,,,,,,,,,,,,,,,,,,,,,,,,,,,,,,,,,,0,0,0,0,12,0,12,0,,,,,,,,,,,,,,,,,,,,,,,,,,,,0,783,,,1314.3181448729883,,F,125,triangle,0.0010102280066348612,,,,,1,0,,,2,,,,,,,,,,,,,,1310.5067634329898,1310.5067634329898,1310.5067634329898,1310.5067634329898,1312.0157854549761,1312.0157854549761,1312.0157854549761,1312.0157854549761,1312.0157854549761,1312.0157854549761,1312.0157854549761,1312.0157854549761,,,,,repeat,letter,lettRpt,d,vtsPrac,1312.8166272579983,,0.7731897140329238,,,,,,,,,,,,,,,,,,,,,,,,77970,2022-11-22_08h04.02.974,vts_reward_expectancy_bt_OFFLINE,2022.2.4,59.94806914303617,
,,,,,,,,,,,,,,,,,,,,,,,,,,,,,,,,,,0,0,0,0,13,0,13,0,,,,,,,,,,,,,,,,,,,,,,,,,,,,0,783,,,1319.056857158983,,H,181,star,0.001810285000829026,,,,,1,0,,,2,,,,,,,,,,,,,,1315.2956020299753,1315.2956020299753,1315.2956020299753,1315.2956020299753,1316.8043718079862,1316.8043718079862,1316.8043718079862,1316.8043718079862,1316.8043718079862,1316.8043718079862,1316.8043718079862,1316.8043718079862,,,,,switch,number,numSwt,k,vtsPrac,1317.555233697989,1319.056857158983,0.7349659930041526,,,,,,,,,,,,,,,,,,,,,,,,77970,2022-11-22_08h04.02.974,vts_reward_expectancy_bt_OFFLINE,2022.2.4,59.94806914303617,
,,,,,,,,,,,,,,,,,,,,,,,,,,,,,,,,,,0,0,0,0,14,0,14,0,,,,,,,,,,,,,,,,,,,,,,,,,,,,0,783,,,1323.9121024199994,,S,174,circle,0.00046617499901913106,,,,,1,0,,,2,,,,,,,,,,,,,,1320.0352435619861,1320.0352435619861,1320.0352435619861,1320.0352435619861,1321.5428554039972,1321.5428554039972,1321.5428554039972,1321.5428554039972,1321.5428554039972,1321.5428554039972,1321.5428554039972,1321.5428554039972,,,,,switch,letter,lettSwt,f,vtsPrac,1322.4105219869816,,0.8437828240275849,,,,,,,,,,,,,,,,,,,,,,,,77970,2022-11-22_08h04.02.974,vts_reward_expectancy_bt_OFFLINE,2022.2.4,59.94806914303617,
,,,,,,,,,,,,,,,,,,,,,,,,,,,,,,,,,,0,0,0,0,15,0,15,0,,,,,,,,,,,,,,,,,,,,,,,,,,,,0,783,,,1328.9511749839876,,B,160,hexagon,0.0017373060109093785,,,,,1,0,,,2,,,,,,,,,,,,,,1324.8908062879927,1324.8908062879927,1324.8908062879927,1324.8908062879927,1326.3982878029929,1326.3982878029929,1326.3982878029929,1326.3982878029929,1326.3982878029929,1326.3982878029929,1326.3982878029929,1326.3982878029929,,,,,switch,number,numSwt,k,vtsPrac,1327.4493089289754,,1.0189958060218487,,,,,,,,,,,,,,,,,,,,,,,,77970,2022-11-22_08h04.02.974,vts_reward_expectancy_bt_OFFLINE,2022.2.4,59.94806914303617,
,,,,,,,,,,,,,,,,,,,,,,,,,,,,,,,,,,0,0,0,0,16,0,16,0,,,,,,,,,,,,,,,,,,,,,,,,,,,,0,783,,,1333.673054391984,,H,174,circle,0.001638054003706202,,,,,1,0,,,2,,,,,,,,,,,,,,1329.9281859280018,1329.9281859280018,1329.9281859280018,1329.9281859280018,1331.4372207229899,1331.4372207229899,1331.4372207229899,1331.4372207229899,1331.4372207229899,1331.4372207229899,1331.4372207229899,1331.4372207229899,,,,,repeat,number,numRpt,k,vtsPrac,1332.1712390619796,,0.7149237690318841,,,,,,,,,,,,,,,,,,,,,,,,77970,2022-11-22_08h04.02.974,vts_reward_expectancy_bt_OFFLINE,2022.2.4,59.94806914303617,
,,,,,,,,,,,,,,,,,,,,,,,,,,,,,,,,,,0,0,0,0,17,0,17,0,,,,,,,,,,,,,,,,,,,,,,,,,,,,0,783,,,1338.594909634994,,S,160,star,0.0013801070163026452,,,,,1,0,,,2,,,,,,,,,,,,,,1334.6506787149992,1334.6506787149992,1334.6506787149992,1334.6506787149992,1336.1589669550012,1336.1589669550012,1336.1589669550012,1336.1589669550012,1336.1589669550012,1336.1589669550012,1336.1589669550012,1336.1589669550012,,,,,switch,letter,lettSwt,f,vtsPrac,1337.0932381250022,,0.9089411190070678,,,,,,,,,,,,,,,,,,,,,,,,77970,2022-11-22_08h04.02.974,vts_reward_expectancy_bt_OFFLINE,2022.2.4,59.94806914303617,
,,,,,,,,,,,,,,,,,,,,,,,,,,,,,,,,,,0,0,0,0,18,0,18,0,,,,,,,,,,,,,,,,,,,,,,,,,,,,0,783,,,1343.3168538349855,,W,181,hexagon,0.001738763996399939,,,,,1,0,,,2,,,,,,,,,,,,,,1339.5726327619923,1339.5726327619923,1339.5726327619923,1339.5726327619923,1341.0810599059914,1341.0810599059914,1341.0810599059914,1341.0810599059914,1341.0810599059914,1341.0810599059914,1341.0810599059914,1341.0810599059914,,,,,repeat,letter,lettRpt,f,vtsPrac,1341.815214827977,,0.7116181950259488,,,,,,,,,,,,,,,,,,,,,,,,77970,2022-11-22_08h04.02.974,vts_reward_expectancy_bt_OFFLINE,2022.2.4,59.94806914303617,
,,,,,,,,,,,,,,,,,,,,,,,,,,,,,,,,,,0,0,0,0,19,0,19,0,,,,,,,,,,,,,,,,,,,,,,,,,,,,0,783,,,1348.7736463169858,,B,146,circle,0.0016017970046959817,,,,,1,0,,,2,,,,,,,,,,,,,,1344.2951833559782,1344.2951833559782,1344.2951833559782,1344.2951833559782,1345.803044499975,1345.803044499975,1345.803044499975,1345.803044499975,1345.803044499975,1345.803044499975,1345.803044499975,1345.803044499975,,,,,switch,number,numSwt,j,vtsPrac,1347.2713304819772,,1.4468234710220713,,,,,,,,,,,,,,,,,,,,,,,,77970,2022-11-22_08h04.02.974,vts_reward_expectancy_bt_OFFLINE,2022.2.4,59.94806914303617,
,,,,,,,,,,,,,,,,,,,,,,,,,,,,,,,,,,0,0,0,0,20,0,20,0,,,,,,,,,,,,,,,,,,,,,,,,,,,,0,783,,,1353.4617740079993,,W,181,star,0.001704349007923156,,,,,1,0,,,2,,,,,,,,,,,,,,1349.7505094149965,1349.7505094149965,1349.7505094149965,1349.7505094149965,1351.2590820899932,1351.2590820899932,1351.2590820899932,1351.2590820899932,1351.2590820899932,1351.2590820899932,1351.2590820899932,1351.2590820899932,,,,,switch,letter,lettSwt,f,vtsPrac,1351.9597165579908,,0.6816517420229502,,,,,,,,,,,,,,,,,,,,,,,,77970,2022-11-22_08h04.02.974,vts_reward_expectancy_bt_OFFLINE,2022.2.4,59.94806914303617,
,,,,,,,,,,,,,,,,,,,,,,,,,,,,,,,,,,0,0,0,0,21,0,21,0,,,,,,,,,,,,,,,,,,,,,,,,,,,,0,783,,,1358.784358125995,,D,146,hexagon,0.0009859740093816072,,,,,1,0,,,2,,,,,,,,,,,,,,1354.4398922809924,1354.4398922809924,1354.4398922809924,1354.4398922809924,1355.9475815769983,1355.9475815769983,1355.9475815769983,1355.9475815769983,1355.9475815769983,1355.9475815769983,1355.9475815769983,1355.9475815769983,,,,,switch,number,numSwt,j,vtsPrac,1357.2821755359764,,1.3033278880175203,,,,,,,,,,,,,,,,,,,,,,,,77970,2022-11-22_08h04.02.974,vts_reward_expectancy_bt_OFFLINE,2022.2.4,59.94806914303617,
,,,,,,,,,,,,,,,,,,,,,,,,,,,,,,,,,,0,0,0,0,22,0,22,0,,,,,,,,,,,,,,,,,,,,,,,,,,,,0,783,,,1363.539219178987,,U,167,star,0.001595652021933347,,,,,1,0,,,2,,,,,,,,,,,,,,1359.7606592699885,1359.7606592699885,1359.7606592699885,1359.7606592699885,1361.2699270989979,1361.2699270989979,1361.2699270989979,1361.2699270989979,1361.2699270989979,1361.2699270989979,1361.2699270989979,1361.2699270989979,,,,,repeat,number,numRpt,k,vtsPrac,1362.0375267829804,,0.7394828250107821,,,,,,,,,,,,,,,,,,,,,,,,77970,2022-11-22_08h04.02.974,vts_reward_expectancy_bt_OFFLINE,2022.2.4,59.94806914303617,
,,,,,,,,,,,,,,,,,,,,,,,,,,,,,,,,,,0,0,0,0,23,0,23,0,,,,,,,,,,,,,,,,,,,,,,,,,,,,0,783,,,1368.361097867979,,F,125,triangle,0.0015239209751598537,,,,,1,0,,,2,,,,,,,,,,,,,,1364.516439309984,1364.516439309984,1364.516439309984,1364.516439309984,1366.0252729069907,1366.0252729069907,1366.0252729069907,1366.0252729069907,1366.0252729069907,1366.0252729069907,1366.0252729069907,1366.0252729069907,,,,,repeat,number,numRpt,j,vtsPrac,1366.8595513209875,,0.8117005830281414,,,,,,,,,,,,,,,,,,,,,,,,77970,2022-11-22_08h04.02.974,vts_reward_expectancy_bt_OFFLINE,2022.2.4,59.94806914303617,
,,,,,,,,,,,,,,,,,,,,,,,,,,,,,,,,,,0,0,0,0,24,0,24,0,,,,,,,,,,,,,,,,,,,,,,,,,,,,0,783,,,1373.3000112879963,,W,181,triangle,0.0014555350062437356,,,,,1,0,,,2,,,,,,,,,,,,,,1369.3374655349762,1369.3374655349762,1369.3374655349762,1369.3374655349762,1370.847300141002,1370.847300141002,1370.847300141002,1370.847300141002,1370.847300141002,1370.847300141002,1370.847300141002,1370.847300141002,,,,,repeat,number,numRpt,k,vtsPrac,1371.7982531199814,,0.9190823120297864,,,,,,,,,,,,,,,,,,,,,,,,77970,2022-11-22_08h04.02.974,vts_reward_expectancy_bt_OFFLINE,2022.2.4,59.94806914303617,
,,,,,,,,,,,,,,,,,,,,,,,,,,,,,,,,,,0,0,0,0,25,0,25,0,,,,,,,,,,,,,,,,,,,,,,,,,,,,0,783,,,1378.7895068079815,,F,167,circle,0.0015817130042705685,,,,,1,0,,,2,,,,,,,,,,,,,,1374.2774753799895,1374.2774753799895,1374.2774753799895,1374.2774753799895,1375.7861020159908,1375.7861020159908,1375.7861020159908,1375.7861020159908,1375.7861020159908,1375.7861020159908,1375.7861020159908,1375.7861020159908,,,,,switch,letter,lettSwt,d,vtsPrac,1377.2877439619915,,1.4800372140307445,,,,,,,,,,,,,,,,,,,,,,,,77970,2022-11-22_08h04.02.974,vts_reward_expectancy_bt_OFFLINE,2022.2.4,59.94806914303617,
,,,,,,,,,,,,,,,,,,,,,,,,,,,,,,,,,,0,0,0,0,26,0,26,0,,,,,,,,,,,,,,,,,,,,,,,,,,,,0,783,,,1383.5779744479805,,S,146,hexagon,0.0014466349966824055,,,,,1,0,,,2,,,,,,,,,,,,,,1379.767465856974,1379.767465856974,1379.767465856974,1379.767465856974,1381.27539548598,1381.27539548598,1381.27539548598,1381.27539548598,1381.27539548598,1381.27539548598,1381.27539548598,1381.27539548598,,,,,repeat,letter,lettRpt,f,vtsPrac,1382.0763120919873,,0.7829469100106508,,,,,,,,,,,,,,,,,,,,,,,,77970,2022-11-22_08h04.02.974,vts_reward_expectancy_bt_OFFLINE,2022.2.4,59.94806914303617,
,,,,,,,,,,,,,,,,,,,,,,,,,,,,,,,,,,0,0,0,0,27,0,27,0,,,,,,,,,,,,,,,,,,,,,,,,,,,,0,783,,,1389.9017089399858,,U,174,circle,0.0012118809972889721,,,,,1,0,,,2,,,,,,,,,,,,,,1384.555421515979,1384.555421515979,1384.555421515979,1384.555421515979,1386.0639784520026,1386.0639784520026,1386.0639784520026,1386.0639784520026,1386.0639784520026,1386.0639784520026,1386.0639784520026,1386.0639784520026,,,,,repeat,letter,lettRpt,f,vtsPrac,1388.4000355140015,,2.3168209450377617,,,,,,,,,,,,,,,,,,,,,,,,77970,2022-11-22_08h04.02.974,vts_reward_expectancy_bt_OFFLINE,2022.2.4,59.94806914303617,
,,,,,,,,,,,,,,,,,,,,,,,,,,,,,,,,,,0,0,0,0,28,0,28,0,,,,,,,,,,,,,,,,,,,,,,,,,,,,0,783,,,1395.1907657199772,,H,181,hexagon,0.001191065995953977,,,,,1,0,,,2,,,,,,,,,,,,,,1390.8792832019972,1390.8792832019972,1390.8792832019972,1390.8792832019972,1392.3876187799906,1392.3876187799906,1392.3876187799906,1392.3876187799906,1392.3876187799906,1392.3876187799906,1392.3876187799906,1392.3876187799906,,,,,switch,number,numSwt,k,vtsPrac,1393.6891351649829,,1.282044064020738,,,,,,,,,,,,,,,,,,,,,,,,77970,2022-11-22_08h04.02.974,vts_reward_expectancy_bt_OFFLINE,2022.2.4,59.94806914303617,
