LTriangleOpac,LCircleOpac,LHexagonOpac,LStarOpac,RTriangleOpac,RCircleOpac,RHexagonOpac,RStarOpac,LShape_ID,RShape_ID,training_blocks.thisRepN,training_blocks.thisTrialN,training_blocks.thisN,training_blocks.thisIndex,training.thisRepN,training.thisTrialN,training.thisN,training.thisIndex,task1_prac_redo.thisRepN,task1_prac_redo.thisTrialN,task1_prac_redo.thisN,task1_prac_redo.thisIndex,task1_prac_trials.thisRepN,task1_prac_trials.thisTrialN,task1_prac_trials.thisN,task1_prac_trials.thisIndex,task2_prac_redo.thisRepN,task2_prac_redo.thisTrialN,task2_prac_redo.thisN,task2_prac_redo.thisIndex,task2_praac_trials.thisRepN,task2_praac_trials.thisTrialN,task2_praac_trials.thisN,task2_praac_trials.thisIndex,vts_prac_redo.thisRepN,vts_prac_redo.thisTrialN,vts_prac_redo.thisN,vts_prac_redo.thisIndex,vts_practice_trials.thisRepN,vts_practice_trials.thisTrialN,vts_practice_trials.thisN,vts_practice_trials.thisIndex,trials_norew.thisRepN,trials_norew.thisTrialN,trials_norew.thisN,trials_norew.thisIndex,block.thisRepN,block.thisTrialN,block.thisN,block.thisIndex,trials_rew.thisRepN,trials_rew.thisTrialN,trials_rew.thisN,trials_rew.thisIndex,key_resp.started,key_resp.keys,key_resp.rt,left_circle.started,right_circle.started,left_triangle.started,right_triangle.started,left_star.started,right_star.started,left_hexagon.started,right_hexagon.started,training_fix.started,training_resp.started,training_resp.keys,training_resp.rt,points_trial,points_cumul,trainBlock,training_feedback_txt.started,training_feedback_txt.stopped,fix.started,fix.stopped,curr_topStim,curr_bottStim,curr_shape,ISI.started,tgt_fix_prac1.started,top_target_prac1.started,bott_target_prac1.started,target_resp_prac1.started,acc,E1,target_resp_prac1.keys,target_resp_prac1.rt,pracBlock,prac_fback_text.started,prac_fback_text.stopped,tgt_fix_prac2.started,top_target_prac2.started,bott_target_prac2.started,target_resp_prac2.started,target_resp_prac2.keys,target_resp_prac2.rt,star.started,hegagon.started,triangle.started,circle.started,top_target.started,tgt_fix.started,bot_target.started,target_resp.started,star.stopped,hegagon.stopped,triangle.stopped,circle.stopped,alt,task,condition,target_resp.keys,target_resp.rt,rewCond,vts_fback.started,top_target.stopped,tgt_fix.stopped,bot_target.stopped,target_resp.stopped,vts_fback.stopped,blockNum,norew_fback.started,norew_fback.stopped,key_resp_2.keys,key_resp_2.rt,rewExpectancy,feedbk_text.started,feedbk_text.stopped,text_3.started,debrief.started,text_3.stopped,button.started,debrief.index,debrief.itemText,debrief.type,debrief.granularity,debrief.font,debrief.markerColor,debrief.response,debrief.rt,button.numClicks,button.timesOn,button.timesOff,participant,date,expName,psychopyVersion,frameRate,
,,,,,,,,,,,,,,,,,,,,,,,,,,,,,,,,,,,,,,,,,,,,,,,,,,,,,,1463.9188404399902,space,16.013370702043176,,,,,,,,,,,,,,,,,,,,,,,,,,,,,,,,,,,,,,,,,,,,,,,,,,,,,,,,,,,,,,,,,,,,,,,,,,,,,,,,,,,,,,,,80052,2022-11-15_10h09.31.025,vts_reward_expectancy_bt_OFFLINE,2022.2.4,60.033283768246825,
0,1,0,0,0,0,0,1,circle,star,0,0,0,0,0,0,0,5,,,,,,,,,,,,,,,,,,,,,,,,,,,,,,,,,,,,,,,,1557.6473371379543,1557.6473371379543,1557.6473371379543,1557.6473371379543,1557.6473371379543,1557.6473371379543,1557.6473371379543,1557.6473371379543,1557.6473371379543,1557.6473371379543,l,2.6596483951434493,1,1,0,1560.3406169738155,1561.8397660569753,1561.8397660569753,1562.339963252889,,,,,,,,,,,,,,,,,,,,,,,,,,,,,,,,,,,,,,,,,,,,,,,,,,,,,,,,,,,,,,,,,,,,,80052,2022-11-15_10h09.31.025,vts_reward_expectancy_bt_OFFLINE,2022.2.4,60.033283768246825,
0,0,0,1,1,0,0,0,star,triangle,0,0,0,0,0,1,1,9,,,,,,,,,,,,,,,,,,,,,,,,,,,,,,,,,,,,,,,,1562.339963252889,1562.339963252889,1562.339963252889,1562.339963252889,1562.339963252889,1562.339963252889,1562.339963252889,1562.339963252889,1562.339963252889,1562.339963252889,l,2.1077594191301614,10,11,0,1564.477910580812,,1565.9931407358963,,,,,,,,,,,,,,,,,,,,,,,,,,,,,,,,,,,,,,,,,,,,,,,,,,,,,,,,,,,,,,,,,,,,,,80052,2022-11-15_10h09.31.025,vts_reward_expectancy_bt_OFFLINE,2022.2.4,60.033283768246825,
0,0,0,1,0,0,1,0,star,hexagon,0,0,0,0,0,2,2,11,,,,,,,,,,,,,,,,,,,,,,,,,,,,,,,,,,,,,,,,1566.4931149638724,1566.4931149638724,1566.4931149638724,1566.4931149638724,1566.4931149638724,1566.4931149638724,1566.4931149638724,1566.4931149638724,1566.4931149638724,1566.4931149638724,l,3.0734743599314243,1,12,0,1569.5976607748307,,1571.0968149239197,,,,,,,,,,,,,,,,,,,,,,,,,,,,,,,,,,,,,,,,,,,,,,,,,,,,,,,,,,,,,,,,,,,,,,80052,2022-11-15_10h09.31.025,vts_reward_expectancy_bt_OFFLINE,2022.2.4,60.033283768246825,
0,1,0,0,1,0,0,0,circle,triangle,0,0,0,0,0,3,3,3,,,,,,,,,,,,,,,,,,,,,,,,,,,,,,,,,,,,,,,,1571.5967857588548,1571.5967857588548,1571.5967857588548,1571.5967857588548,1571.5967857588548,1571.5967857588548,1571.5967857588548,1571.5967857588548,1571.5967857588548,1571.5967857588548,l,1.3109688071999699,10,22,0,1572.9321390038822,,1574.433082528878,,,,,,,,,,,,,,,,,,,,,,,,,,,,,,,,,,,,,,,,,,,,,,,,,,,,,,,,,,,,,,,,,,,,,,80052,2022-11-15_10h09.31.025,vts_reward_expectancy_bt_OFFLINE,2022.2.4,60.033283768246825,
0,1,0,0,0,0,1,0,circle,hexagon,0,0,0,0,0,4,4,4,,,,,,,,,,,,,,,,,,,,,,,,,,,,,,,,,,,,,,,,1574.9334264788777,1574.9334264788777,1574.9334264788777,1574.9334264788777,1574.9334264788777,1574.9334264788777,1574.9334264788777,1574.9334264788777,1574.9334264788777,1574.9334264788777,a,1.3158258490730077,1,23,0,1576.2687723960262,,1577.7843433099333,,,,,,,,,,,,,,,,,,,,,,,,,,,,,,,,,,,,,,,,,,,,,,,,,,,,,,,,,,,,,,,,,,,,,,80052,2022-11-15_10h09.31.025,vts_reward_expectancy_bt_OFFLINE,2022.2.4,60.033283768246825,
1,0,0,0,0,0,0,1,triangle,star,0,0,0,0,0,5,5,2,,,,,,,,,,,,,,,,,,,,,,,,,,,,,,,,,,,,,,,,1578.2843330230098,1578.2843330230098,1578.2843330230098,1578.2843330230098,1578.2843330230098,1578.2843330230098,1578.2843330230098,1578.2843330230098,1578.2843330230098,1578.2843330230098,a,1.2943446568679065,1,24,0,1579.6034851258155,1581.1039179179352,1581.1039179179352,1581.6043028950226,,,,,,,,,,,,,,,,,,,,,,,,,,,,,,,,,,,,,,,,,,,,,,,,,,,,,,,,,,,,,,,,,,,,,80052,2022-11-15_10h09.31.025,vts_reward_expectancy_bt_OFFLINE,2022.2.4,60.033283768246825,
0,0,0,1,0,1,0,0,star ,circle,0,0,0,0,0,6,6,10,,,,,,,,,,,,,,,,,,,,,,,,,,,,,,,,,,,,,,,,1581.6043028950226,1581.6043028950226,1581.6043028950226,1581.6043028950226,1581.6043028950226,1581.6043028950226,1581.6043028950226,1581.6043028950226,1581.6043028950226,1581.6043028950226,a,1.2383121771272272,1,25,0,1582.8712080158293,,1584.3737293099985,,,,,,,,,,,,,,,,,,,,,,,,,,,,,,,,,,,,,,,,,,,,,,,,,,,,,,,,,,,,,,,,,,,,,,80052,2022-11-15_10h09.31.025,vts_reward_expectancy_bt_OFFLINE,2022.2.4,60.033283768246825,
0,0,1,0,1,0,0,0,hexagon,triangle,0,0,0,0,0,7,7,6,,,,,,,,,,,,,,,,,,,,,,,,,,,,,,,,,,,,,,,,1584.8737803639378,1584.8737803639378,1584.8737803639378,1584.8737803639378,1584.8737803639378,1584.8737803639378,1584.8737803639378,1584.8737803639378,1584.8737803639378,1584.8737803639378,a,1.1520999460481107,10,35,0,1586.057975093834,1587.5581538469996,1587.5581538469996,1588.0584287308156,,,,,,,,,,,,,,,,,,,,,,,,,,,,,,,,,,,,,,,,,,,,,,,,,,,,,,,,,,,,,,,,,,,,,80052,2022-11-15_10h09.31.025,vts_reward_expectancy_bt_OFFLINE,2022.2.4,60.033283768246825,
0,0,1,0,0,0,0,1,hexagon,star,0,0,0,0,0,8,8,8,,,,,,,,,,,,,,,,,,,,,,,,,,,,,,,,,,,,,,,,1588.0584287308156,1588.0584287308156,1588.0584287308156,1588.0584287308156,1588.0584287308156,1588.0584287308156,1588.0584287308156,1588.0584287308156,1588.0584287308156,1588.0584287308156,l,3.142253313213587,1,36,0,1591.2294160698075,1592.728549348889,1592.728549348889,,,,,,,,,,,,,,,,,,,,,,,,,,,,,,,,,,,,,,,,,,,,,,,,,,,,,,,,,,,,,,,,,,,,,,80052,2022-11-15_10h09.31.025,vts_reward_expectancy_bt_OFFLINE,2022.2.4,60.033283768246825,
0,0,1,0,0,1,0,0,hexagon,circle,0,0,0,0,0,9,9,7,,,,,,,,,,,,,,,,,,,,,,,,,,,,,,,,,,,,,,,,1593.2284882208332,1593.2284882208332,1593.2284882208332,1593.2284882208332,1593.2284882208332,1593.2284882208332,1593.2284882208332,1593.2284882208332,1593.2284882208332,1593.2284882208332,a,0.8416539090685546,1,37,0,1594.0975348579232,1595.5979323899373,1595.5979323899373,1596.0983004819136,,,,,,,,,,,,,,,,,,,,,,,,,,,,,,,,,,,,,,,,,,,,,,,,,,,,,,,,,,,,,,,,,,,,,80052,2022-11-15_10h09.31.025,vts_reward_expectancy_bt_OFFLINE,2022.2.4,60.033283768246825,
1,0,0,0,0,1,0,0,triangle,circle,0,0,0,0,0,10,10,0,,,,,,,,,,,,,,,,,,,,,,,,,,,,,,,,,,,,,,,,1596.0983004819136,1596.0983004819136,1596.0983004819136,1596.0983004819136,1596.0983004819136,1596.0983004819136,1596.0983004819136,1596.0983004819136,1596.0983004819136,1596.0983004819136,l,0.806524118874222,10,47,0,1596.9335404238664,,1598.4490365828387,,,,,,,,,,,,,,,,,,,,,,,,,,,,,,,,,,,,,,,,,,,,,,,,,,,,,,,,,,,,,,,,,,,,,,80052,2022-11-15_10h09.31.025,vts_reward_expectancy_bt_OFFLINE,2022.2.4,60.033283768246825,
1,0,0,0,0,0,1,0,triangle,hexagon,0,0,0,0,0,11,11,1,,,,,,,,,,,,,,,,,,,,,,,,,,,,,,,,,,,,,,,,1598.9343918738887,1598.9343918738887,1598.9343918738887,1598.9343918738887,1598.9343918738887,1598.9343918738887,1598.9343918738887,1598.9343918738887,1598.9343918738887,1598.9343918738887,l,1.806829527951777,1,48,0,1600.7699017638806,1602.2687786018942,1602.2687786018942,1602.7692569608334,,,,,,,,,,,,,,,,,,,,,,,,,,,,,,,,,,,,,,,,,,,,,,,,,,,,,,,,,,,,,,,,,,,,,80052,2022-11-15_10h09.31.025,vts_reward_expectancy_bt_OFFLINE,2022.2.4,60.033283768246825,
1,0,0,0,0,0,0,1,triangle,star,0,0,0,0,1,0,12,2,,,,,,,,,,,,,,,,,,,,,,,,,,,,,,,,,,,,,,,,1602.7692569608334,1602.7692569608334,1602.7692569608334,1602.7692569608334,1602.7692569608334,1602.7692569608334,1602.7692569608334,1602.7692569608334,1602.7692569608334,1602.7692569608334,l,1.1106313378550112,1,49,0,1603.9047715850174,1605.405179817928,1605.405179817928,,,,,,,,,,,,,,,,,,,,,,,,,,,,,,,,,,,,,,,,,,,,,,,,,,,,,,,,,,,,,,,,,,,,,,80052,2022-11-15_10h09.31.025,vts_reward_expectancy_bt_OFFLINE,2022.2.4,60.033283768246825,
1,0,0,0,0,0,1,0,triangle,hexagon,0,0,0,0,1,1,13,1,,,,,,,,,,,,,,,,,,,,,,,,,,,,,,,,,,,,,,,,1605.9054793308023,1605.9054793308023,1605.9054793308023,1605.9054793308023,1605.9054793308023,1605.9054793308023,1605.9054793308023,1605.9054793308023,1605.9054793308023,1605.9054793308023,a,0.6089349549729377,10,59,0,1606.5406426379923,,1608.056195833953,,,,,,,,,,,,,,,,,,,,,,,,,,,,,,,,,,,,,,,,,,,,,,,,,,,,,,,,,,,,,,,,,,,,,,80052,2022-11-15_10h09.31.025,vts_reward_expectancy_bt_OFFLINE,2022.2.4,60.033283768246825,
0,0,1,0,1,0,0,0,hexagon,triangle,0,0,0,0,1,2,14,6,,,,,,,,,,,,,,,,,,,,,,,,,,,,,,,,,,,,,,,,1608.5531249910127,1608.5531249910127,1608.5531249910127,1608.5531249910127,1608.5531249910127,1608.5531249910127,1608.5531249910127,1608.5531249910127,1608.5531249910127,1608.5531249910127,l,0.7730500830803066,1,60,0,1609.3587350170128,1610.8590783439577,1610.8590783439577,1611.3591250230093,,,,,,,,,,,,,,,,,,,,,,,,,,,,,,,,,,,,,,,,,,,,,,,,,,,,,,,,,,,,,,,,,,,,,80052,2022-11-15_10h09.31.025,vts_reward_expectancy_bt_OFFLINE,2022.2.4,60.033283768246825,
0,0,0,1,1,0,0,0,star,triangle,0,0,0,0,1,3,15,9,,,,,,,,,,,,,,,,,,,,,,,,,,,,,,,,,,,,,,,,1611.3591250230093,1611.3591250230093,1611.3591250230093,1611.3591250230093,1611.3591250230093,1611.3591250230093,1611.3591250230093,1611.3591250230093,1611.3591250230093,1611.3591250230093,a,1.5776342789176852,10,70,0,1612.961624099873,,1614.4621205360163,,,,,,,,,,,,,,,,,,,,,,,,,,,,,,,,,,,,,,,,,,,,,,,,,,,,,,,,,,,,,,,,,,,,,,80052,2022-11-15_10h09.31.025,vts_reward_expectancy_bt_OFFLINE,2022.2.4,60.033283768246825,
0,0,1,0,0,0,0,1,hexagon,star,0,0,0,0,1,4,16,8,,,,,,,,,,,,,,,,,,,,,,,,,,,,,,,,,,,,,,,,1614.962427114835,1614.962427114835,1614.962427114835,1614.962427114835,1614.962427114835,1614.962427114835,1614.962427114835,1614.962427114835,1614.962427114835,1614.962427114835,a,0.9445864220615476,1,71,0,1615.9309463519603,,1617.4465398078319,,,,,,,,,,,,,,,,,,,,,,,,,,,,,,,,,,,,,,,,,,,,,,,,,,,,,,,,,,,,,,,,,,,,,,80052,2022-11-15_10h09.31.025,vts_reward_expectancy_bt_OFFLINE,2022.2.4,60.033283768246825,
0,1,0,0,1,0,0,0,circle,triangle,0,0,0,0,1,5,17,3,,,,,,,,,,,,,,,,,,,,,,,,,,,,,,,,,,,,,,,,1617.946740149986,1617.946740149986,1617.946740149986,1617.946740149986,1617.946740149986,1617.946740149986,1617.946740149986,1617.946740149986,1617.946740149986,1617.946740149986,l,0.9081637810450047,10,81,0,1618.883901696885,,1620.399473138852,,,,,,,,,,,,,,,,,,,,,,,,,,,,,,,,,,,,,,,,,,,,,,,,,,,,,,,,,,,,,,,,,,,,,,80052,2022-11-15_10h09.31.025,vts_reward_expectancy_bt_OFFLINE,2022.2.4,60.033283768246825,
1,0,0,0,0,1,0,0,triangle,circle,0,0,0,0,1,6,18,0,,,,,,,,,,,,,,,,,,,,,,,,,,,,,,,,,,,,,,,,1620.899563051993,1620.899563051993,1620.899563051993,1620.899563051993,1620.899563051993,1620.899563051993,1620.899563051993,1620.899563051993,1620.899563051993,1620.899563051993,a,2.9852110389620066,10,91,0,1623.9025611758698,1625.4029838549905,1625.4029838549905,1625.9033125129063,,,,,,,,,,,,,,,,,,,,,,,,,,,,,,,,,,,,,,,,,,,,,,,,,,,,,,,,,,,,,,,,,,,,,80052,2022-11-15_10h09.31.025,vts_reward_expectancy_bt_OFFLINE,2022.2.4,60.033283768246825,
0,0,0,1,0,0,1,0,star,hexagon,0,0,0,0,1,7,19,11,,,,,,,,,,,,,,,,,,,,,,,,,,,,,,,,,,,,,,,,1625.9033125129063,1625.9033125129063,1625.9033125129063,1625.9033125129063,1625.9033125129063,1625.9033125129063,1625.9033125129063,1625.9033125129063,1625.9033125129063,1625.9033125129063,a,1.390353662893176,10,101,0,1627.3203696948476,,1628.8230122670066,,,,,,,,,,,,,,,,,,,,,,,,,,,,,,,,,,,,,,,,,,,,,,,,,,,,,,,,,,,,,,,,,,,,,,80052,2022-11-15_10h09.31.025,vts_reward_expectancy_bt_OFFLINE,2022.2.4,60.033283768246825,
0,1,0,0,0,0,0,1,circle,star,0,0,0,0,1,8,20,5,,,,,,,,,,,,,,,,,,,,,,,,,,,,,,,,,,,,,,,,1629.3232522089966,1629.3232522089966,1629.3232522089966,1629.3232522089966,1629.3232522089966,1629.3232522089966,1629.3232522089966,1629.3232522089966,1629.3232522089966,1629.3232522089966,l,0.6579841540660709,10,111,0,1630.006576379994,1631.5070497298148,1631.5070497298148,1632.0075657879934,,,,,,,,,,,,,,,,,,,,,,,,,,,,,,,,,,,,,,,,,,,,,,,,,,,,,,,,,,,,,,,,,,,,,80052,2022-11-15_10h09.31.025,vts_reward_expectancy_bt_OFFLINE,2022.2.4,60.033283768246825,
0,0,1,0,0,1,0,0,hexagon,circle,0,0,0,0,1,9,21,7,,,,,,,,,,,,,,,,,,,,,,,,,,,,,,,,,,,,,,,,1632.0075657879934,1632.0075657879934,1632.0075657879934,1632.0075657879934,1632.0075657879934,1632.0075657879934,1632.0075657879934,1632.0075657879934,1632.0075657879934,1632.0075657879934,l,1.4283184178639203,10,121,0,1633.4578012079,,1634.9602107249666,,,,,,,,,,,,,,,,,,,,,,,,,,,,,,,,,,,,,,,,,,,,,,,,,,,,,,,,,,,,,,,,,,,,,,80052,2022-11-15_10h09.31.025,vts_reward_expectancy_bt_OFFLINE,2022.2.4,60.033283768246825,
0,1,0,0,0,0,1,0,circle,hexagon,0,0,0,0,1,10,22,4,,,,,,,,,,,,,,,,,,,,,,,,,,,,,,,,,,,,,,,,1635.460389175918,1635.460389175918,1635.460389175918,1635.460389175918,1635.460389175918,1635.460389175918,1635.460389175918,1635.460389175918,1635.460389175918,1635.460389175918,a,1.0582713540643454,1,122,0,1636.5460283469874,,1638.061444365885,,,,,,,,,,,,,,,,,,,,,,,,,,,,,,,,,,,,,,,,,,,,,,,,,,,,,,,,,,,,,,,,,,,,,,80052,2022-11-15_10h09.31.025,vts_reward_expectancy_bt_OFFLINE,2022.2.4,60.033283768246825,
0,0,0,1,0,1,0,0,star ,circle,0,0,0,0,1,11,23,10,,,,,,,,,,,,,,,,,,,,,,,,,,,,,,,,,,,,,,,,1638.561401943909,1638.561401943909,1638.561401943909,1638.561401943909,1638.561401943909,1638.561401943909,1638.561401943909,1638.561401943909,1638.561401943909,1638.561401943909,a,1.5455710510723293,1,123,0,1640.130820750026,1641.6312117378693,1641.6312117378693,1642.1313104690053,,,,,,,,,,,,,,,,,,,,,,,,,,,,,,,,,,,,,,,,,,,,,,,,,,,,,,,,,,,,,,,,,,,,,80052,2022-11-15_10h09.31.025,vts_reward_expectancy_bt_OFFLINE,2022.2.4,60.033283768246825,
0,1,0,0,0,0,0,1,circle,star,0,0,0,0,2,0,24,5,,,,,,,,,,,,,,,,,,,,,,,,,,,,,,,,,,,,,,,,1642.1313104690053,1642.1313104690053,1642.1313104690053,1642.1313104690053,1642.1313104690053,1642.1313104690053,1642.1313104690053,1642.1313104690053,1642.1313104690053,1642.1313104690053,a,2.2059443560428917,1,124,0,1644.367231868906,1645.8679486368783,1645.8679486368783,1646.3680242919363,,,,,,,,,,,,,,,,,,,,,,,,,,,,,,,,,,,,,,,,,,,,,,,,,,,,,,,,,,,,,,,,,,,,,80052,2022-11-15_10h09.31.025,vts_reward_expectancy_bt_OFFLINE,2022.2.4,60.033283768246825,
0,0,1,0,0,0,0,1,hexagon,star,0,0,0,0,2,1,25,8,,,,,,,,,,,,,,,,,,,,,,,,,,,,,,,,,,,,,,,,1646.3680242919363,1646.3680242919363,1646.3680242919363,1646.3680242919363,1646.3680242919363,1646.3680242919363,1646.3680242919363,1646.3680242919363,1646.3680242919363,1646.3680242919363,l,0.4895661720074713,1,125,0,1646.8847411829047,,1648.3853285820223,,,,,,,,,,,,,,,,,,,,,,,,,,,,,,,,,,,,,,,,,,,,,,,,,,,,,,,,,,,,,,,,,,,,,,80052,2022-11-15_10h09.31.025,vts_reward_expectancy_bt_OFFLINE,2022.2.4,60.033283768246825,
0,1,0,0,0,0,1,0,circle,hexagon,0,0,0,0,2,2,26,4,,,,,,,,,,,,,,,,,,,,,,,,,,,,,,,,,,,,,,,,1648.8875648928806,1648.8875648928806,1648.8875648928806,1648.8875648928806,1648.8875648928806,1648.8875648928806,1648.8875648928806,1648.8875648928806,1648.8875648928806,1648.8875648928806,l,1.0090231350623071,10,135,0,1649.9230395709164,,1651.4383157708216,,,,,,,,,,,,,,,,,,,,,,,,,,,,,,,,,,,,,,,,,,,,,,,,,,,,,,,,,,,,,,,,,,,,,,80052,2022-11-15_10h09.31.025,vts_reward_expectancy_bt_OFFLINE,2022.2.4,60.033283768246825,
1,0,0,0,0,0,1,0,triangle,hexagon,0,0,0,0,2,3,27,1,,,,,,,,,,,,,,,,,,,,,,,,,,,,,,,,,,,,,,,,1651.9382167549338,1651.9382167549338,1651.9382167549338,1651.9382167549338,1651.9382167549338,1651.9382167549338,1651.9382167549338,1651.9382167549338,1651.9382167549338,1651.9382167549338,l,0.6232259040698409,10,145,0,1652.5887268409133,,1654.09118932602,,,,,,,,,,,,,,,,,,,,,,,,,,,,,,,,,,,,,,,,,,,,,,,,,,,,,,,,,,,,,,,,,,,,,,80052,2022-11-15_10h09.31.025,vts_reward_expectancy_bt_OFFLINE,2022.2.4,60.033283768246825,
0,1,0,0,1,0,0,0,circle,triangle,0,0,0,0,2,4,28,3,,,,,,,,,,,,,,,,,,,,,,,,,,,,,,,,,,,,,,,,1654.5914098150097,1654.5914098150097,1654.5914098150097,1654.5914098150097,1654.5914098150097,1654.5914098150097,1654.5914098150097,1654.5914098150097,1654.5914098150097,1654.5914098150097,a,2.8188023099210113,1,146,0,1657.4431130108424,,1658.944726655027,,,,,,,,,,,,,,,,,,,,,,,,,,,,,,,,,,,,,,,,,,,,,,,,,,,,,,,,,,,,,,,,,,,,,,80052,2022-11-15_10h09.31.025,vts_reward_expectancy_bt_OFFLINE,2022.2.4,60.033283768246825,
0,0,0,1,0,0,1,0,star,hexagon,0,0,0,0,2,5,29,11,,,,,,,,,,,,,,,,,,,,,,,,,,,,,,,,,,,,,,,,1659.4447849439457,1659.4447849439457,1659.4447849439457,1659.4447849439457,1659.4447849439457,1659.4447849439457,1659.4447849439457,1659.4447849439457,1659.4447849439457,1659.4447849439457,l,2.117005255073309,1,147,0,1661.578945101006,1663.0795803389046,1663.0795803389046,1663.5797237989027,,,,,,,,,,,,,,,,,,,,,,,,,,,,,,,,,,,,,,,,,,,,,,,,,,,,,,,,,,,,,,,,,,,,,80052,2022-11-15_10h09.31.025,vts_reward_expectancy_bt_OFFLINE,2022.2.4,60.033283768246825,
1,0,0,0,0,0,0,1,triangle,star,0,0,0,0,2,6,30,2,,,,,,,,,,,,,,,,,,,,,,,,,,,,,,,,,,,,,,,,1663.5797237989027,1663.5797237989027,1663.5797237989027,1663.5797237989027,1663.5797237989027,1663.5797237989027,1663.5797237989027,1663.5797237989027,1663.5797237989027,1663.5797237989027,a,3.7311241880524904,10,157,0,1667.334617746994,,1668.8352196128108,,,,,,,,,,,,,,,,,,,,,,,,,,,,,,,,,,,,,,,,,,,,,,,,,,,,,,,,,,,,,,,,,,,,,,80052,2022-11-15_10h09.31.025,vts_reward_expectancy_bt_OFFLINE,2022.2.4,60.033283768246825,
0,0,0,1,1,0,0,0,star,triangle,0,0,0,0,2,7,31,9,,,,,,,,,,,,,,,,,,,,,,,,,,,,,,,,,,,,,,,,1669.3353948169388,1669.3353948169388,1669.3353948169388,1669.3353948169388,1669.3353948169388,1669.3353948169388,1669.3353948169388,1669.3353948169388,1669.3353948169388,1669.3353948169388,a,2.769123262958601,10,167,0,1672.1365567119792,,1673.6395522609819,,,,,,,,,,,,,,,,,,,,,,,,,,,,,,,,,,,,,,,,,,,,,,,,,,,,,,,,,,,,,,,,,,,,,,80052,2022-11-15_10h09.31.025,vts_reward_expectancy_bt_OFFLINE,2022.2.4,60.033283768246825,
0,0,0,1,0,1,0,0,star ,circle,0,0,0,0,2,8,32,10,,,,,,,,,,,,,,,,,,,,,,,,,,,,,,,,,,,,,,,,1674.138968686806,1674.138968686806,1674.138968686806,1674.138968686806,1674.138968686806,1674.138968686806,1674.138968686806,1674.138968686806,1674.138968686806,1674.138968686806,a,2.2624799120239913,10,177,0,1676.4230024099816,1677.9237257649656,1677.9237257649656,1678.4238801428583,,,,,,,,,,,,,,,,,,,,,,,,,,,,,,,,,,,,,,,,,,,,,,,,,,,,,,,,,,,,,,,,,,,,,80052,2022-11-15_10h09.31.025,vts_reward_expectancy_bt_OFFLINE,2022.2.4,60.033283768246825,
0,0,1,0,0,1,0,0,hexagon,circle,0,0,0,0,2,9,33,7,,,,,,,,,,,,,,,,,,,,,,,,,,,,,,,,,,,,,,,,1678.4238801428583,1678.4238801428583,1678.4238801428583,1678.4238801428583,1678.4238801428583,1678.4238801428583,1678.4238801428583,1678.4238801428583,1678.4238801428583,1678.4238801428583,a,1.8477187878452241,1,178,0,1680.2951604048721,,1681.8102197030094,,,,,,,,,,,,,,,,,,,,,,,,,,,,,,,,,,,,,,,,,,,,,,,,,,,,,,,,,,,,,,,,,,,,,,80052,2022-11-15_10h09.31.025,vts_reward_expectancy_bt_OFFLINE,2022.2.4,60.033283768246825,
0,0,1,0,1,0,0,0,hexagon,triangle,0,0,0,0,2,10,34,6,,,,,,,,,,,,,,,,,,,,,,,,,,,,,,,,,,,,,,,,1682.310374579858,1682.310374579858,1682.310374579858,1682.310374579858,1682.310374579858,1682.310374579858,1682.310374579858,1682.310374579858,1682.310374579858,1682.310374579858,l,1.6513037190306932,10,188,0,1683.9815507659223,,1685.496944669867,,,,,,,,,,,,,,,,,,,,,,,,,,,,,,,,,,,,,,,,,,,,,,,,,,,,,,,,,,,,,,,,,,,,,,80052,2022-11-15_10h09.31.025,vts_reward_expectancy_bt_OFFLINE,2022.2.4,60.033283768246825,
1,0,0,0,0,1,0,0,triangle,circle,0,0,0,0,2,11,35,0,,,,,,,,,,,,,,,,,,,,,,,,,,,,,,,,,,,,,,,,1685.9969321899116,1685.9969321899116,1685.9969321899116,1685.9969321899116,1685.9969321899116,1685.9969321899116,1685.9969321899116,1685.9969321899116,1685.9969321899116,1685.9969321899116,a,3.770163163077086,1,189,0,1689.8005560180172,1691.3009465599898,1691.3009465599898,1691.8008135198615,,,,,,,,,,,,,,,,,,,,,,,,,,,,,,,,,,,,,,,,,,,,,,,,,,,,,,,,,,,,,,,,,,,,,80052,2022-11-15_10h09.31.025,vts_reward_expectancy_bt_OFFLINE,2022.2.4,60.033283768246825,
0,1,0,0,0,0,1,0,circle,hexagon,0,0,0,0,3,0,36,4,,,,,,,,,,,,,,,,,,,,,,,,,,,,,,,,,,,,,,,,1691.8008135198615,1691.8008135198615,1691.8008135198615,1691.8008135198615,1691.8008135198615,1691.8008135198615,1691.8008135198615,1691.8008135198615,1691.8008135198615,1691.8008135198615,l,1.55596690508537,10,199,0,1693.3869289348368,,1694.8871913189068,,,,,,,,,,,,,,,,,,,,,,,,,,,,,,,,,,,,,,,,,,,,,,,,,,,,,,,,,,,,,,,,,,,,,,80052,2022-11-15_10h09.31.025,vts_reward_expectancy_bt_OFFLINE,2022.2.4,60.033283768246825,
1,0,0,0,0,0,1,0,triangle,hexagon,0,0,0,0,3,1,37,1,,,,,,,,,,,,,,,,,,,,,,,,,,,,,,,,,,,,,,,,1695.3874432339799,1695.3874432339799,1695.3874432339799,1695.3874432339799,1695.3874432339799,1695.3874432339799,1695.3874432339799,1695.3874432339799,1695.3874432339799,1695.3874432339799,l,4.989489802159369,10,209,0,1700.407774362946,1701.907980012009,1701.907980012009,1702.4085536848288,,,,,,,,,,,,,,,,,,,,,,,,,,,,,,,,,,,,,,,,,,,,,,,,,,,,,,,,,,,,,,,,,,,,,80052,2022-11-15_10h09.31.025,vts_reward_expectancy_bt_OFFLINE,2022.2.4,60.033283768246825,
0,1,0,0,1,0,0,0,circle,triangle,0,0,0,0,3,2,38,3,,,,,,,,,,,,,,,,,,,,,,,,,,,,,,,,,,,,,,,,1702.4085536848288,1702.4085536848288,1702.4085536848288,1702.4085536848288,1702.4085536848288,1702.4085536848288,1702.4085536848288,1702.4085536848288,1702.4085536848288,1702.4085536848288,a,1.3659079999197274,10,219,0,1703.7944405358285,1705.2946951659396,1705.2946951659396,1705.7950007589534,,,,,,,,,,,,,,,,,,,,,,,,,,,,,,,,,,,,,,,,,,,,,,,,,,,,,,,,,,,,,,,,,,,,,80052,2022-11-15_10h09.31.025,vts_reward_expectancy_bt_OFFLINE,2022.2.4,60.033283768246825,
1,0,0,0,0,0,0,1,triangle,star,0,0,0,0,3,3,39,2,,,,,,,,,,,,,,,,,,,,,,,,,,,,,,,,,,,,,,,,1705.7950007589534,1705.7950007589534,1705.7950007589534,1705.7950007589534,1705.7950007589534,1705.7950007589534,1705.7950007589534,1705.7950007589534,1705.7950007589534,1705.7950007589534,l,1.1413433889392763,1,220,0,1706.9638357078657,,1708.479315741919,,,,,,,,,,,,,,,,,,,,,,,,,,,,,,,,,,,,,,,,,,,,,,,,,,,,,,,,,,,,,,,,,,,,,,80052,2022-11-15_10h09.31.025,vts_reward_expectancy_bt_OFFLINE,2022.2.4,60.033283768246825,
0,0,0,1,0,1,0,0,star ,circle,0,0,0,0,3,4,40,10,,,,,,,,,,,,,,,,,,,,,,,,,,,,,,,,,,,,,,,,1708.9643669789657,1708.9643669789657,1708.9643669789657,1708.9643669789657,1708.9643669789657,1708.9643669789657,1708.9643669789657,1708.9643669789657,1708.9643669789657,1708.9643669789657,a,3.4166437280364335,1,221,0,1712.3988969798665,,1713.9014418399893,,,,,,,,,,,,,,,,,,,,,,,,,,,,,,,,,,,,,,,,,,,,,,,,,,,,,,,,,,,,,,,,,,,,,,80052,2022-11-15_10h09.31.025,vts_reward_expectancy_bt_OFFLINE,2022.2.4,60.033283768246825,
0,0,1,0,0,0,0,1,hexagon,star,0,0,0,0,3,5,41,8,,,,,,,,,,,,,,,,,,,,,,,,,,,,,,,,,,,,,,,,1714.401541372994,1714.401541372994,1714.401541372994,1714.401541372994,1714.401541372994,1714.401541372994,1714.401541372994,1714.401541372994,1714.401541372994,1714.401541372994,a,2.9073924580588937,10,231,0,1717.3377093018498,,1718.8382033028174,,,,,,,,,,,,,,,,,,,,,,,,,,,,,,,,,,,,,,,,,,,,,,,,,,,,,,,,,,,,,,,,,,,,,,80052,2022-11-15_10h09.31.025,vts_reward_expectancy_bt_OFFLINE,2022.2.4,60.033283768246825,
0,0,1,0,0,1,0,0,hexagon,circle,0,0,0,0,3,6,42,7,,,,,,,,,,,,,,,,,,,,,,,,,,,,,,,,,,,,,,,,1719.3384801580105,1719.3384801580105,1719.3384801580105,1719.3384801580105,1719.3384801580105,1719.3384801580105,1719.3384801580105,1719.3384801580105,1719.3384801580105,1719.3384801580105,l,2.8980981789063662,1,232,0,1722.2576623589266,,1723.7585577229038,,,,,,,,,,,,,,,,,,,,,,,,,,,,,,,,,,,,,,,,,,,,,,,,,,,,,,,,,,,,,,,,,,,,,,80052,2022-11-15_10h09.31.025,vts_reward_expectancy_bt_OFFLINE,2022.2.4,60.033283768246825,
1,0,0,0,0,1,0,0,triangle,circle,0,0,0,0,3,7,43,0,,,,,,,,,,,,,,,,,,,,,,,,,,,,,,,,,,,,,,,,1724.2597972129006,1724.2597972129006,1724.2597972129006,1724.2597972129006,1724.2597972129006,1724.2597972129006,1724.2597972129006,1724.2597972129006,1724.2597972129006,1724.2597972129006,a,1.216730770887807,10,242,0,1725.5102939929347,1727.0097446530126,1727.0097446530126,1727.5099086198024,,,,,,,,,,,,,,,,,,,,,,,,,,,,,,,,,,,,,,,,,,,,,,,,,,,,,,,,,,,,,,,,,,,,,80052,2022-11-15_10h09.31.025,vts_reward_expectancy_bt_OFFLINE,2022.2.4,60.033283768246825,
0,0,0,1,0,0,1,0,star,hexagon,0,0,0,0,3,8,44,11,,,,,,,,,,,,,,,,,,,,,,,,,,,,,,,,,,,,,,,,1727.5099086198024,1727.5099086198024,1727.5099086198024,1727.5099086198024,1727.5099086198024,1727.5099086198024,1727.5099086198024,1727.5099086198024,1727.5099086198024,1727.5099086198024,a,2.4454391500912607,1,243,0,1729.981559512904,,1731.496830635937,,,,,,,,,,,,,,,,,,,,,,,,,,,,,,,,,,,,,,,,,,,,,,,,,,,,,,,,,,,,,,,,,,,,,,80052,2022-11-15_10h09.31.025,vts_reward_expectancy_bt_OFFLINE,2022.2.4,60.033283768246825,
0,1,0,0,0,0,0,1,circle,star,0,0,0,0,3,9,45,5,,,,,,,,,,,,,,,,,,,,,,,,,,,,,,,,,,,,,,,,1731.9966591878328,1731.9966591878328,1731.9966591878328,1731.9966591878328,1731.9966591878328,1731.9966591878328,1731.9966591878328,1731.9966591878328,1731.9966591878328,1731.9966591878328,a,1.141544610960409,10,253,0,1733.1659436039627,,1734.6662668338977,,,,,,,,,,,,,,,,,,,,,,,,,,,,,,,,,,,,,,,,,,,,,,,,,,,,,,,,,,,,,,,,,,,,,,80052,2022-11-15_10h09.31.025,vts_reward_expectancy_bt_OFFLINE,2022.2.4,60.033283768246825,
0,0,0,1,1,0,0,0,star,triangle,0,0,0,0,3,10,46,9,,,,,,,,,,,,,,,,,,,,,,,,,,,,,,,,,,,,,,,,1735.1664656118955,1735.1664656118955,1735.1664656118955,1735.1664656118955,1735.1664656118955,1735.1664656118955,1735.1664656118955,1735.1664656118955,1735.1664656118955,1735.1664656118955,l,1.9327544190455228,10,263,0,1737.1170232510194,,1738.617550117895,,,,,,,,,,,,,,,,,,,,,,,,,,,,,,,,,,,,,,,,,,,,,,,,,,,,,,,,,,,,,,,,,,,,,,80052,2022-11-15_10h09.31.025,vts_reward_expectancy_bt_OFFLINE,2022.2.4,60.033283768246825,
0,0,1,0,1,0,0,0,hexagon,triangle,0,0,0,0,3,11,47,6,,,,,,,,,,,,,,,,,,,,,,,,,,,,,,,,,,,,,,,,1739.119559573941,1739.119559573941,1739.119559573941,1739.119559573941,1739.119559573941,1739.119559573941,1739.119559573941,1739.119559573941,1739.119559573941,1739.119559573941,a,0.9837185789365321,10,273,0,1740.1205297028646,1741.6204448679928,1741.6204448679928,1742.126872858964,,,,,,,,,,,,,,,,,,,,,,,,,,,,,,,,,,,,,,,,,,,,,,,,,,,,,,,,,,,,,,,,,,,,,80052,2022-11-15_10h09.31.025,vts_reward_expectancy_bt_OFFLINE,2022.2.4,60.033283768246825,
1,0,0,0,0,0,1,0,triangle,hexagon,1,0,1,0,0,0,0,1,,,,,,,,,,,,,,,,,,,,,,,,,,,,,,,,,,,,,,,,1814.585383537924,1814.585383537924,1814.585383537924,1814.585383537924,1814.585383537924,1814.585383537924,1814.585383537924,1814.585383537924,1814.585383537924,1814.585383537924,l,2.505033708177507,10,283,1,1817.1084876279347,1818.609123928938,1818.609123928938,,,,,,,,,,,,,,,,,,,,,,,,,,,,,,,,,,,,,,,,,,,,,,,,,,,,,,,,,,,,,,,,,,,,,,80052,2022-11-15_10h09.31.025,vts_reward_expectancy_bt_OFFLINE,2022.2.4,60.033283768246825,
0,0,1,0,1,0,0,0,hexagon,triangle,1,0,1,0,0,1,1,6,,,,,,,,,,,,,,,,,,,,,,,,,,,,,,,,,,,,,,,,1819.1112285088748,1819.1112285088748,1819.1112285088748,1819.1112285088748,1819.1112285088748,1819.1112285088748,1819.1112285088748,1819.1112285088748,1819.1112285088748,1819.1112285088748,a,1.8505075089633465,1,284,1,1820.9807388118934,,1822.4957832898945,,,,,,,,,,,,,,,,,,,,,,,,,,,,,,,,,,,,,,,,,,,,,,,,,,,,,,,,,,,,,,,,,,,,,,80052,2022-11-15_10h09.31.025,vts_reward_expectancy_bt_OFFLINE,2022.2.4,60.033283768246825,
0,0,0,1,0,1,0,0,star ,circle,1,0,1,0,0,2,2,10,,,,,,,,,,,,,,,,,,,,,,,,,,,,,,,,,,,,,,,,1822.9957041810267,1822.9957041810267,1822.9957041810267,1822.9957041810267,1822.9957041810267,1822.9957041810267,1822.9957041810267,1822.9957041810267,1822.9957041810267,1822.9957041810267,l,1.2499078561086208,1,285,1,1824.26480489783,1825.765507848002,1825.765507848002,,,,,,,,,,,,,,,,,,,,,,,,,,,,,,,,,,,,,,,,,,,,,,,,,,,,,,,,,,,,,,,,,,,,,,80052,2022-11-15_10h09.31.025,vts_reward_expectancy_bt_OFFLINE,2022.2.4,60.033283768246825,
0,0,1,0,0,0,0,1,hexagon,star,1,0,1,0,0,3,3,8,,,,,,,,,,,,,,,,,,,,,,,,,,,,,,,,,,,,,,,,1826.2655303128995,1826.2655303128995,1826.2655303128995,1826.2655303128995,1826.2655303128995,1826.2655303128995,1826.2655303128995,1826.2655303128995,1826.2655303128995,1826.2655303128995,l,1.0403987930621952,1,286,1,1827.3326497059315,,1828.835178483976,,,,,,,,,,,,,,,,,,,,,,,,,,,,,,,,,,,,,,,,,,,,,,,,,,,,,,,,,,,,,,,,,,,,,,80052,2022-11-15_10h09.31.025,vts_reward_expectancy_bt_OFFLINE,2022.2.4,60.033283768246825,
0,0,0,1,1,0,0,0,star,triangle,1,0,1,0,0,4,4,9,,,,,,,,,,,,,,,,,,,,,,,,,,,,,,,,,,,,,,,,1829.3348891229834,1829.3348891229834,1829.3348891229834,1829.3348891229834,1829.3348891229834,1829.3348891229834,1829.3348891229834,1829.3348891229834,1829.3348891229834,1829.3348891229834,a,1.1786044042091817,1,287,1,1830.535536764888,,1832.0361637559254,,,,,,,,,,,,,,,,,,,,,,,,,,,,,,,,,,,,,,,,,,,,,,,,,,,,,,,,,,,,,,,,,,,,,,80052,2022-11-15_10h09.31.025,vts_reward_expectancy_bt_OFFLINE,2022.2.4,60.033283768246825,
1,0,0,0,0,1,0,0,triangle,circle,1,0,1,0,0,5,5,0,,,,,,,,,,,,,,,,,,,,,,,,,,,,,,,,,,,,,,,,1832.5364249688573,1832.5364249688573,1832.5364249688573,1832.5364249688573,1832.5364249688573,1832.5364249688573,1832.5364249688573,1832.5364249688573,1832.5364249688573,1832.5364249688573,a,1.6216925580520183,10,297,1,1834.1906405088957,,1835.7061054429505,,,,,,,,,,,,,,,,,,,,,,,,,,,,,,,,,,,,,,,,,,,,,,,,,,,,,,,,,,,,,,,,,,,,,,80052,2022-11-15_10h09.31.025,vts_reward_expectancy_bt_OFFLINE,2022.2.4,60.033283768246825,
0,0,1,0,0,1,0,0,hexagon,circle,1,0,1,0,0,6,6,7,,,,,,,,,,,,,,,,,,,,,,,,,,,,,,,,,,,,,,,,1836.189555218909,1836.189555218909,1836.189555218909,1836.189555218909,1836.189555218909,1836.189555218909,1836.189555218909,1836.189555218909,1836.189555218909,1836.189555218909,a,2.513176721986383,1,298,1,1838.7230286810081,,1840.226280304836,,,,,,,,,,,,,,,,,,,,,,,,,,,,,,,,,,,,,,,,,,,,,,,,,,,,,,,,,,,,,,,,,,,,,,80052,2022-11-15_10h09.31.025,vts_reward_expectancy_bt_OFFLINE,2022.2.4,60.033283768246825,
0,1,0,0,1,0,0,0,circle,triangle,1,0,1,0,0,7,7,3,,,,,,,,,,,,,,,,,,,,,,,,,,,,,,,,,,,,,,,,1840.7263194588013,1840.7263194588013,1840.7263194588013,1840.7263194588013,1840.7263194588013,1840.7263194588013,1840.7263194588013,1840.7263194588013,1840.7263194588013,1840.7263194588013,l,2.6910589628387243,1,299,1,1843.4444495909847,,1844.9462956609204,,,,,,,,,,,,,,,,,,,,,,,,,,,,,,,,,,,,,,,,,,,,,,,,,,,,,,,,,,,,,,,,,,,,,,80052,2022-11-15_10h09.31.025,vts_reward_expectancy_bt_OFFLINE,2022.2.4,60.033283768246825,
0,1,0,0,0,0,1,0,circle,hexagon,1,0,1,0,0,8,8,4,,,,,,,,,,,,,,,,,,,,,,,,,,,,,,,,,,,,,,,,1845.4464478648733,1845.4464478648733,1845.4464478648733,1845.4464478648733,1845.4464478648733,1845.4464478648733,1845.4464478648733,1845.4464478648733,1845.4464478648733,1845.4464478648733,a,1.8185698192100972,1,300,1,1847.2973284539767,,1848.7995500399265,,,,,,,,,,,,,,,,,,,,,,,,,,,,,,,,,,,,,,,,,,,,,,,,,,,,,,,,,,,,,,,,,,,,,,80052,2022-11-15_10h09.31.025,vts_reward_expectancy_bt_OFFLINE,2022.2.4,60.033283768246825,
1,0,0,0,0,0,0,1,triangle,star,1,0,1,0,0,9,9,2,,,,,,,,,,,,,,,,,,,,,,,,,,,,,,,,,,,,,,,,1849.299715835834,1849.299715835834,1849.299715835834,1849.299715835834,1849.299715835834,1849.299715835834,1849.299715835834,1849.299715835834,1849.299715835834,1849.299715835834,l,1.4634988068137318,10,310,1,1850.7857491718605,,1852.3007979418617,,,,,,,,,,,,,,,,,,,,,,,,,,,,,,,,,,,,,,,,,,,,,,,,,,,,,,,,,,,,,,,,,,,,,,80052,2022-11-15_10h09.31.025,vts_reward_expectancy_bt_OFFLINE,2022.2.4,60.033283768246825,
0,0,0,1,0,0,1,0,star,hexagon,1,0,1,0,0,10,10,11,,,,,,,,,,,,,,,,,,,,,,,,,,,,,,,,,,,,,,,,1852.800814548973,1852.800814548973,1852.800814548973,1852.800814548973,1852.800814548973,1852.800814548973,1852.800814548973,1852.800814548973,1852.800814548973,1852.800814548973,a,0.9557748551014811,10,320,1,1853.7731893199962,,1855.2870754548348,,,,,,,,,,,,,,,,,,,,,,,,,,,,,,,,,,,,,,,,,,,,,,,,,,,,,,,,,,,,,,,,,,,,,,80052,2022-11-15_10h09.31.025,vts_reward_expectancy_bt_OFFLINE,2022.2.4,60.033283768246825,
0,1,0,0,0,0,0,1,circle,star,1,0,1,0,0,11,11,5,,,,,,,,,,,,,,,,,,,,,,,,,,,,,,,,,,,,,,,,1855.7875493818428,1855.7875493818428,1855.7875493818428,1855.7875493818428,1855.7875493818428,1855.7875493818428,1855.7875493818428,1855.7875493818428,1855.7875493818428,1855.7875493818428,l,1.5130311460234225,10,330,1,1857.3212710069492,,1858.823567437008,,,,,,,,,,,,,,,,,,,,,,,,,,,,,,,,,,,,,,,,,,,,,,,,,,,,,,,,,,,,,,,,,,,,,,80052,2022-11-15_10h09.31.025,vts_reward_expectancy_bt_OFFLINE,2022.2.4,60.033283768246825,
0,1,0,0,0,0,1,0,circle,hexagon,1,0,1,0,1,0,12,4,,,,,,,,,,,,,,,,,,,,,,,,,,,,,,,,,,,,,,,,1859.3235797309317,1859.3235797309317,1859.3235797309317,1859.3235797309317,1859.3235797309317,1859.3235797309317,1859.3235797309317,1859.3235797309317,1859.3235797309317,1859.3235797309317,l,2.3188528339378536,10,340,1,1861.6745664619375,1863.1750371379312,1863.1750371379312,1863.6754006478004,,,,,,,,,,,,,,,,,,,,,,,,,,,,,,,,,,,,,,,,,,,,,,,,,,,,,,,,,,,,,,,,,,,,,80052,2022-11-15_10h09.31.025,vts_reward_expectancy_bt_OFFLINE,2022.2.4,60.033283768246825,
0,1,0,0,1,0,0,0,circle,triangle,1,0,1,0,1,1,13,3,,,,,,,,,,,,,,,,,,,,,,,,,,,,,,,,,,,,,,,,1863.6754006478004,1863.6754006478004,1863.6754006478004,1863.6754006478004,1863.6754006478004,1863.6754006478004,1863.6754006478004,1863.6754006478004,1863.6754006478004,1863.6754006478004,a,0.9149437448941171,10,350,1,1864.6109594418667,1866.1114238239825,1866.1114238239825,1866.6114823748358,,,,,,,,,,,,,,,,,,,,,,,,,,,,,,,,,,,,,,,,,,,,,,,,,,,,,,,,,,,,,,,,,,,,,80052,2022-11-15_10h09.31.025,vts_reward_expectancy_bt_OFFLINE,2022.2.4,60.033283768246825,
0,1,0,0,0,0,0,1,circle,star,1,0,1,0,1,2,14,5,,,,,,,,,,,,,,,,,,,,,,,,,,,,,,,,,,,,,,,,1866.6114823748358,1866.6114823748358,1866.6114823748358,1866.6114823748358,1866.6114823748358,1866.6114823748358,1866.6114823748358,1866.6114823748358,1866.6114823748358,1866.6114823748358,a,3.4696083560120314,1,351,1,1870.1003045819234,,1871.6151518949773,,,,,,,,,,,,,,,,,,,,,,,,,,,,,,,,,,,,,,,,,,,,,,,,,,,,,,,,,,,,,,,,,,,,,,80052,2022-11-15_10h09.31.025,vts_reward_expectancy_bt_OFFLINE,2022.2.4,60.033283768246825,
0,0,0,1,1,0,0,0,star,triangle,1,0,1,0,1,3,15,9,,,,,,,,,,,,,,,,,,,,,,,,,,,,,,,,,,,,,,,,1872.115082749864,1872.115082749864,1872.115082749864,1872.115082749864,1872.115082749864,1872.115082749864,1872.115082749864,1872.115082749864,1872.115082749864,1872.115082749864,a,1.0379107589833438,10,361,1,1873.1848044698127,,1874.68490603799,,,,,,,,,,,,,,,,,,,,,,,,,,,,,,,,,,,,,,,,,,,,,,,,,,,,,,,,,,,,,,,,,,,,,,80052,2022-11-15_10h09.31.025,vts_reward_expectancy_bt_OFFLINE,2022.2.4,60.033283768246825,
0,0,0,1,0,0,1,0,star,hexagon,1,0,1,0,1,4,16,11,,,,,,,,,,,,,,,,,,,,,,,,,,,,,,,,,,,,,,,,1875.1849995139055,1875.1849995139055,1875.1849995139055,1875.1849995139055,1875.1849995139055,1875.1849995139055,1875.1849995139055,1875.1849995139055,1875.1849995139055,1875.1849995139055,a,0.8927295480389148,10,371,1,1876.1022210929077,1877.6023499639705,1877.6023499639705,1878.1025975989178,,,,,,,,,,,,,,,,,,,,,,,,,,,,,,,,,,,,,,,,,,,,,,,,,,,,,,,,,,,,,,,,,,,,,80052,2022-11-15_10h09.31.025,vts_reward_expectancy_bt_OFFLINE,2022.2.4,60.033283768246825,
0,0,1,0,0,0,0,1,hexagon,star,1,0,1,0,1,5,17,8,,,,,,,,,,,,,,,,,,,,,,,,,,,,,,,,,,,,,,,,1878.1025975989178,1878.1025975989178,1878.1025975989178,1878.1025975989178,1878.1025975989178,1878.1025975989178,1878.1025975989178,1878.1025975989178,1878.1025975989178,1878.1025975989178,l,1.4396939910948277,10,381,1,1879.5715513138566,1881.0720358998515,1881.0720358998515,1881.5725636240095,,,,,,,,,,,,,,,,,,,,,,,,,,,,,,,,,,,,,,,,,,,,,,,,,,,,,,,,,,,,,,,,,,,,,80052,2022-11-15_10h09.31.025,vts_reward_expectancy_bt_OFFLINE,2022.2.4,60.033283768246825,
0,0,1,0,1,0,0,0,hexagon,triangle,1,0,1,0,1,6,18,6,,,,,,,,,,,,,,,,,,,,,,,,,,,,,,,,,,,,,,,,1881.5725636240095,1881.5725636240095,1881.5725636240095,1881.5725636240095,1881.5725636240095,1881.5725636240095,1881.5725636240095,1881.5725636240095,1881.5725636240095,1881.5725636240095,a,2.3020633729174733,10,391,1,1883.8919567419216,1885.392275615828,1885.392275615828,1885.8925559909549,,,,,,,,,,,,,,,,,,,,,,,,,,,,,,,,,,,,,,,,,,,,,,,,,,,,,,,,,,,,,,,,,,,,,80052,2022-11-15_10h09.31.025,vts_reward_expectancy_bt_OFFLINE,2022.2.4,60.033283768246825,
1,0,0,0,0,0,1,0,triangle,hexagon,1,0,1,0,1,7,19,1,,,,,,,,,,,,,,,,,,,,,,,,,,,,,,,,,,,,,,,,1885.8925559909549,1885.8925559909549,1885.8925559909549,1885.8925559909549,1885.8925559909549,1885.8925559909549,1885.8925559909549,1885.8925559909549,1885.8925559909549,1885.8925559909549,l,0.9963397372048348,1,392,1,1886.9116888449062,,1888.4267895498779,,,,,,,,,,,,,,,,,,,,,,,,,,,,,,,,,,,,,,,,,,,,,,,,,,,,,,,,,,,,,,,,,,,,,,80052,2022-11-15_10h09.31.025,vts_reward_expectancy_bt_OFFLINE,2022.2.4,60.033283768246825,
0,0,0,1,0,1,0,0,star ,circle,1,0,1,0,1,8,20,10,,,,,,,,,,,,,,,,,,,,,,,,,,,,,,,,,,,,,,,,1888.9122150549665,1888.9122150549665,1888.9122150549665,1888.9122150549665,1888.9122150549665,1888.9122150549665,1888.9122150549665,1888.9122150549665,1888.9122150549665,1888.9122150549665,a,2.0055455551482737,1,393,1,1890.946307668928,1892.4464227280114,1892.4464227280114,1892.9467973778956,,,,,,,,,,,,,,,,,,,,,,,,,,,,,,,,,,,,,,,,,,,,,,,,,,,,,,,,,,,,,,,,,,,,,80052,2022-11-15_10h09.31.025,vts_reward_expectancy_bt_OFFLINE,2022.2.4,60.033283768246825,
1,0,0,0,0,0,0,1,triangle,star,1,0,1,0,1,9,21,2,,,,,,,,,,,,,,,,,,,,,,,,,,,,,,,,,,,,,,,,1892.9467973778956,1892.9467973778956,1892.9467973778956,1892.9467973778956,1892.9467973778956,1892.9467973778956,1892.9467973778956,1892.9467973778956,1892.9467973778956,1892.9467973778956,l,1.3789517460390925,10,403,1,1894.3511946448125,,1895.8662458178587,,,,,,,,,,,,,,,,,,,,,,,,,,,,,,,,,,,,,,,,,,,,,,,,,,,,,,,,,,,,,,,,,,,,,,80052,2022-11-15_10h09.31.025,vts_reward_expectancy_bt_OFFLINE,2022.2.4,60.033283768246825,
1,0,0,0,0,1,0,0,triangle,circle,1,0,1,0,1,10,22,0,,,,,,,,,,,,,,,,,,,,,,,,,,,,,,,,,,,,,,,,1896.3499786818866,1896.3499786818866,1896.3499786818866,1896.3499786818866,1896.3499786818866,1896.3499786818866,1896.3499786818866,1896.3499786818866,1896.3499786818866,1896.3499786818866,l,2.3749284849036485,1,404,1,1898.7530900719576,,1900.2532621719874,,,,,,,,,,,,,,,,,,,,,,,,,,,,,,,,,,,,,,,,,,,,,,,,,,,,,,,,,,,,,,,,,,,,,,80052,2022-11-15_10h09.31.025,vts_reward_expectancy_bt_OFFLINE,2022.2.4,60.033283768246825,
0,0,1,0,0,1,0,0,hexagon,circle,1,0,1,0,1,11,23,7,,,,,,,,,,,,,,,,,,,,,,,,,,,,,,,,,,,,,,,,1900.7529657590203,1900.7529657590203,1900.7529657590203,1900.7529657590203,1900.7529657590203,1900.7529657590203,1900.7529657590203,1900.7529657590203,1900.7529657590203,1900.7529657590203,l,2.2136844790074974,10,414,1,1902.9899456768762,,1904.4897199228872,,,,,,,,,,,,,,,,,,,,,,,,,,,,,,,,,,,,,,,,,,,,,,,,,,,,,,,,,,,,,,,,,,,,,,80052,2022-11-15_10h09.31.025,vts_reward_expectancy_bt_OFFLINE,2022.2.4,60.033283768246825,
0,1,0,0,0,0,0,1,circle,star,1,0,1,0,2,0,24,5,,,,,,,,,,,,,,,,,,,,,,,,,,,,,,,,,,,,,,,,1904.9902196170297,1904.9902196170297,1904.9902196170297,1904.9902196170297,1904.9902196170297,1904.9902196170297,1904.9902196170297,1904.9902196170297,1904.9902196170297,1904.9902196170297,l,1.4297899000812322,10,424,1,1906.4407208249904,1907.9409536838066,1907.9409536838066,1908.4412216038909,,,,,,,,,,,,,,,,,,,,,,,,,,,,,,,,,,,,,,,,,,,,,,,,,,,,,,,,,,,,,,,,,,,,,80052,2022-11-15_10h09.31.025,vts_reward_expectancy_bt_OFFLINE,2022.2.4,60.033283768246825,
0,0,0,1,0,0,1,0,star,hexagon,1,0,1,0,2,1,25,11,,,,,,,,,,,,,,,,,,,,,,,,,,,,,,,,,,,,,,,,1908.4412216038909,1908.4412216038909,1908.4412216038909,1908.4412216038909,1908.4412216038909,1908.4412216038909,1908.4412216038909,1908.4412216038909,1908.4412216038909,1908.4412216038909,a,0.9162603060249239,1,425,1,1909.3792250039987,,1910.894012431847,,,,,,,,,,,,,,,,,,,,,,,,,,,,,,,,,,,,,,,,,,,,,,,,,,,,,,,,,,,,,,,,,,,,,,80052,2022-11-15_10h09.31.025,vts_reward_expectancy_bt_OFFLINE,2022.2.4,60.033283768246825,
1,0,0,0,0,1,0,0,triangle,circle,1,0,1,0,2,2,26,0,,,,,,,,,,,,,,,,,,,,,,,,,,,,,,,,,,,,,,,,1911.3942887478042,1911.3942887478042,1911.3942887478042,1911.3942887478042,1911.3942887478042,1911.3942887478042,1911.3942887478042,1911.3942887478042,1911.3942887478042,1911.3942887478042,l,3.205391376046464,1,426,1,1914.6302097288426,1916.1310867618304,1916.1310867618304,1916.631021086825,,,,,,,,,,,,,,,,,,,,,,,,,,,,,,,,,,,,,,,,,,,,,,,,,,,,,,,,,,,,,,,,,,,,,80052,2022-11-15_10h09.31.025,vts_reward_expectancy_bt_OFFLINE,2022.2.4,60.033283768246825,
0,1,0,0,1,0,0,0,circle,triangle,1,0,1,0,2,3,27,3,,,,,,,,,,,,,,,,,,,,,,,,,,,,,,,,,,,,,,,,1916.631021086825,1916.631021086825,1916.631021086825,1916.631021086825,1916.631021086825,1916.631021086825,1916.631021086825,1916.631021086825,1916.631021086825,1916.631021086825,l,1.7596732280217111,10,436,1,1918.417525960831,,1919.9175556078553,,,,,,,,,,,,,,,,,,,,,,,,,,,,,,,,,,,,,,,,,,,,,,,,,,,,,,,,,,,,,,,,,,,,,,80052,2022-11-15_10h09.31.025,vts_reward_expectancy_bt_OFFLINE,2022.2.4,60.033283768246825,
1,0,0,0,0,0,1,0,triangle,hexagon,1,0,1,0,2,4,28,1,,,,,,,,,,,,,,,,,,,,,,,,,,,,,,,,,,,,,,,,1920.4178069178015,1920.4178069178015,1920.4178069178015,1920.4178069178015,1920.4178069178015,1920.4178069178015,1920.4178069178015,1920.4178069178015,1920.4178069178015,1920.4178069178015,a,1.61839899700135,10,446,1,1922.0683513130061,1923.568818419939,1923.568818419939,,,,,,,,,,,,,,,,,,,,,,,,,,,,,,,,,,,,,,,,,,,,,,,,,,,,,,,,,,,,,,,,,,,,,,80052,2022-11-15_10h09.31.025,vts_reward_expectancy_bt_OFFLINE,2022.2.4,60.033283768246825,
0,0,1,0,0,0,0,1,hexagon,star,1,0,1,0,2,5,29,8,,,,,,,,,,,,,,,,,,,,,,,,,,,,,,,,,,,,,,,,1924.070794499945,1924.070794499945,1924.070794499945,1924.070794499945,1924.070794499945,1924.070794499945,1924.070794499945,1924.070794499945,1924.070794499945,1924.070794499945,a,2.1403128399979323,1,447,1,1926.2403536299244,,1927.7388901768718,,,,,,,,,,,,,,,,,,,,,,,,,,,,,,,,,,,,,,,,,,,,,,,,,,,,,,,,,,,,,,,,,,,,,,80052,2022-11-15_10h09.31.025,vts_reward_expectancy_bt_OFFLINE,2022.2.4,60.033283768246825,
0,0,0,1,0,1,0,0,star ,circle,1,0,1,0,2,6,30,10,,,,,,,,,,,,,,,,,,,,,,,,,,,,,,,,,,,,,,,,1928.2389137148857,1928.2389137148857,1928.2389137148857,1928.2389137148857,1928.2389137148857,1928.2389137148857,1928.2389137148857,1928.2389137148857,1928.2389137148857,1928.2389137148857,a,3.1462717140093446,1,448,1,1931.4089559589047,1932.9093461339362,1932.9093461339362,,,,,,,,,,,,,,,,,,,,,,,,,,,,,,,,,,,,,,,,,,,,,,,,,,,,,,,,,,,,,,,,,,,,,,80052,2022-11-15_10h09.31.025,vts_reward_expectancy_bt_OFFLINE,2022.2.4,60.033283768246825,
0,0,1,0,0,1,0,0,hexagon,circle,1,0,1,0,2,7,31,7,,,,,,,,,,,,,,,,,,,,,,,,,,,,,,,,,,,,,,,,1933.4092704169452,1933.4092704169452,1933.4092704169452,1933.4092704169452,1933.4092704169452,1933.4092704169452,1933.4092704169452,1933.4092704169452,1933.4092704169452,1933.4092704169452,l,3.500703783938661,1,449,1,1936.9293882579077,1938.4297675618436,1938.4297675618436,,,,,,,,,,,,,,,,,,,,,,,,,,,,,,,,,,,,,,,,,,,,,,,,,,,,,,,,,,,,,,,,,,,,,,80052,2022-11-15_10h09.31.025,vts_reward_expectancy_bt_OFFLINE,2022.2.4,60.033283768246825,
1,0,0,0,0,0,0,1,triangle,star,1,0,1,0,2,8,32,2,,,,,,,,,,,,,,,,,,,,,,,,,,,,,,,,,,,,,,,,1938.9315384228248,1938.9315384228248,1938.9315384228248,1938.9315384228248,1938.9315384228248,1938.9315384228248,1938.9315384228248,1938.9315384228248,1938.9315384228248,1938.9315384228248,l,1.2638826940674335,1,450,1,1940.2163624989334,1941.7161727310158,1941.7161727310158,1942.2161762958858,,,,,,,,,,,,,,,,,,,,,,,,,,,,,,,,,,,,,,,,,,,,,,,,,,,,,,,,,,,,,,,,,,,,,80052,2022-11-15_10h09.31.025,vts_reward_expectancy_bt_OFFLINE,2022.2.4,60.033283768246825,
0,0,0,1,1,0,0,0,star,triangle,1,0,1,0,2,9,33,9,,,,,,,,,,,,,,,,,,,,,,,,,,,,,,,,,,,,,,,,1942.2161762958858,1942.2161762958858,1942.2161762958858,1942.2161762958858,1942.2161762958858,1942.2161762958858,1942.2161762958858,1942.2161762958858,1942.2161762958858,1942.2161762958858,a,1.7140491411555558,10,460,1,1943.9545609708875,,1945.469198814826,,,,,,,,,,,,,,,,,,,,,,,,,,,,,,,,,,,,,,,,,,,,,,,,,,,,,,,,,,,,,,,,,,,,,,80052,2022-11-15_10h09.31.025,vts_reward_expectancy_bt_OFFLINE,2022.2.4,60.033283768246825,
0,0,1,0,1,0,0,0,hexagon,triangle,1,0,1,0,2,10,34,6,,,,,,,,,,,,,,,,,,,,,,,,,,,,,,,,,,,,,,,,1945.9696931119543,1945.9696931119543,1945.9696931119543,1945.9696931119543,1945.9696931119543,1945.9696931119543,1945.9696931119543,1945.9696931119543,1945.9696931119543,1945.9696931119543,a,8.75002975994721,10,470,1,1954.7433353299275,,1956.2436157139018,,,,,,,,,,,,,,,,,,,,,,,,,,,,,,,,,,,,,,,,,,,,,,,,,,,,,,,,,,,,,,,,,,,,,,80052,2022-11-15_10h09.31.025,vts_reward_expectancy_bt_OFFLINE,2022.2.4,60.033283768246825,
0,1,0,0,0,0,1,0,circle,hexagon,1,0,1,0,2,11,35,4,,,,,,,,,,,,,,,,,,,,,,,,,,,,,,,,,,,,,,,,1956.7438035940286,1956.7438035940286,1956.7438035940286,1956.7438035940286,1956.7438035940286,1956.7438035940286,1956.7438035940286,1956.7438035940286,1956.7438035940286,1956.7438035940286,l,0.6525445478037,1,471,1,1957.4285410658922,,1958.9296762729064,1959.4295019200072,,,,,,,,,,,,,,,,,,,,,,,,,,,,,,,,,,,,,,,,,,,,,,,,,,,,,,,,,,,,,,,,,,,,,80052,2022-11-15_10h09.31.025,vts_reward_expectancy_bt_OFFLINE,2022.2.4,60.033283768246825,
0,0,0,1,1,0,0,0,star,triangle,1,0,1,0,3,0,36,9,,,,,,,,,,,,,,,,,,,,,,,,,,,,,,,,,,,,,,,,1959.4295019200072,1959.4295019200072,1959.4295019200072,1959.4295019200072,1959.4295019200072,1959.4295019200072,1959.4295019200072,1959.4295019200072,1959.4295019200072,1959.4295019200072,a,0.7121981100644916,1,472,1,1960.1639986138325,1961.663740637945,1961.663740637945,1962.1642979788594,,,,,,,,,,,,,,,,,,,,,,,,,,,,,,,,,,,,,,,,,,,,,,,,,,,,,,,,,,,,,,,,,,,,,80052,2022-11-15_10h09.31.025,vts_reward_expectancy_bt_OFFLINE,2022.2.4,60.033283768246825,
1,0,0,0,0,1,0,0,triangle,circle,1,0,1,0,3,1,37,0,,,,,,,,,,,,,,,,,,,,,,,,,,,,,,,,,,,,,,,,1962.1642979788594,1962.1642979788594,1962.1642979788594,1962.1642979788594,1962.1642979788594,1962.1642979788594,1962.1642979788594,1962.1642979788594,1962.1642979788594,1962.1642979788594,l,0.7907876409590244,1,473,1,1962.9823164178524,,1964.4833384379745,,,,,,,,,,,,,,,,,,,,,,,,,,,,,,,,,,,,,,,,,,,,,,,,,,,,,,,,,,,,,,,,,,,,,,80052,2022-11-15_10h09.31.025,vts_reward_expectancy_bt_OFFLINE,2022.2.4,60.033283768246825,
0,0,1,0,1,0,0,0,hexagon,triangle,1,0,1,0,3,2,38,6,,,,,,,,,,,,,,,,,,,,,,,,,,,,,,,,,,,,,,,,1964.983649146976,1964.983649146976,1964.983649146976,1964.983649146976,1964.983649146976,1964.983649146976,1964.983649146976,1964.983649146976,1964.983649146976,1964.983649146976,a,0.9295004648156464,1,474,1,1965.9347556659486,1967.4344514238182,1967.4344514238182,1967.9347794968635,,,,,,,,,,,,,,,,,,,,,,,,,,,,,,,,,,,,,,,,,,,,,,,,,,,,,,,,,,,,,,,,,,,,,80052,2022-11-15_10h09.31.025,vts_reward_expectancy_bt_OFFLINE,2022.2.4,60.033283768246825,
0,0,1,0,0,0,0,1,hexagon,star,1,0,1,0,3,3,39,8,,,,,,,,,,,,,,,,,,,,,,,,,,,,,,,,,,,,,,,,1967.9347794968635,1967.9347794968635,1967.9347794968635,1967.9347794968635,1967.9347794968635,1967.9347794968635,1967.9347794968635,1967.9347794968635,1967.9347794968635,1967.9347794968635,l,1.2072955891489983,10,484,1,1969.1725931030232,,1970.6875900009181,,,,,,,,,,,,,,,,,,,,,,,,,,,,,,,,,,,,,,,,,,,,,,,,,,,,,,,,,,,,,,,,,,,,,,80052,2022-11-15_10h09.31.025,vts_reward_expectancy_bt_OFFLINE,2022.2.4,60.033283768246825,
0,1,0,0,0,0,0,1,circle,star,1,0,1,0,3,4,40,5,,,,,,,,,,,,,,,,,,,,,,,,,,,,,,,,,,,,,,,,1971.170863199979,1971.170863199979,1971.170863199979,1971.170863199979,1971.170863199979,1971.170863199979,1971.170863199979,1971.170863199979,1971.170863199979,1971.170863199979,l,1.7852957530412823,1,485,1,1972.9903997490183,1974.4907886779401,1974.4907886779401,1974.9911906269845,,,,,,,,,,,,,,,,,,,,,,,,,,,,,,,,,,,,,,,,,,,,,,,,,,,,,,,,,,,,,,,,,,,,,80052,2022-11-15_10h09.31.025,vts_reward_expectancy_bt_OFFLINE,2022.2.4,60.033283768246825,
1,0,0,0,0,0,0,1,triangle,star,1,0,1,0,3,5,41,2,,,,,,,,,,,,,,,,,,,,,,,,,,,,,,,,,,,,,,,,1974.9911906269845,1974.9911906269845,1974.9911906269845,1974.9911906269845,1974.9911906269845,1974.9911906269845,1974.9911906269845,1974.9911906269845,1974.9911906269845,1974.9911906269845,a,2.251669544959441,10,495,1,1977.2764157250058,1978.7756607979536,1978.7756607979536,1979.2776597449556,,,,,,,,,,,,,,,,,,,,,,,,,,,,,,,,,,,,,,,,,,,,,,,,,,,,,,,,,,,,,,,,,,,,,80052,2022-11-15_10h09.31.025,vts_reward_expectancy_bt_OFFLINE,2022.2.4,60.033283768246825,
0,0,0,1,0,1,0,0,star ,circle,1,0,1,0,3,6,42,10,,,,,,,,,,,,,,,,,,,,,,,,,,,,,,,,,,,,,,,,1979.2776597449556,1979.2776597449556,1979.2776597449556,1979.2776597449556,1979.2776597449556,1979.2776597449556,1979.2776597449556,1979.2776597449556,1979.2776597449556,1979.2776597449556,a,1.5660384281072766,10,505,1,1980.8621601869818,1982.3618784788996,1982.3618784788996,1982.8619737029076,,,,,,,,,,,,,,,,,,,,,,,,,,,,,,,,,,,,,,,,,,,,,,,,,,,,,,,,,,,,,,,,,,,,,80052,2022-11-15_10h09.31.025,vts_reward_expectancy_bt_OFFLINE,2022.2.4,60.033283768246825,
0,0,0,1,0,0,1,0,star,hexagon,1,0,1,0,3,7,43,11,,,,,,,,,,,,,,,,,,,,,,,,,,,,,,,,,,,,,,,,1982.8619737029076,1982.8619737029076,1982.8619737029076,1982.8619737029076,1982.8619737029076,1982.8619737029076,1982.8619737029076,1982.8619737029076,1982.8619737029076,1982.8619737029076,a,3.933069352991879,10,515,1,1986.8161904648878,1988.3159286759328,1988.3159286759328,1988.8161801060196,,,,,,,,,,,,,,,,,,,,,,,,,,,,,,,,,,,,,,,,,,,,,,,,,,,,,,,,,,,,,,,,,,,,,80052,2022-11-15_10h09.31.025,vts_reward_expectancy_bt_OFFLINE,2022.2.4,60.033283768246825,
0,1,0,0,1,0,0,0,circle,triangle,1,0,1,0,3,8,44,3,,,,,,,,,,,,,,,,,,,,,,,,,,,,,,,,,,,,,,,,1988.8161801060196,1988.8161801060196,1988.8161801060196,1988.8161801060196,1988.8161801060196,1988.8161801060196,1988.8161801060196,1988.8161801060196,1988.8161801060196,1988.8161801060196,a,2.78235001093708,10,525,1,1991.6197013850324,1993.1195561939385,1993.1195561939385,,,,,,,,,,,,,,,,,,,,,,,,,,,,,,,,,,,,,,,,,,,,,,,,,,,,,,,,,,,,,,,,,,,,,,80052,2022-11-15_10h09.31.025,vts_reward_expectancy_bt_OFFLINE,2022.2.4,60.033283768246825,
0,1,0,0,0,0,1,0,circle,hexagon,1,0,1,0,3,9,45,4,,,,,,,,,,,,,,,,,,,,,,,,,,,,,,,,,,,,,,,,1993.6196429089177,1993.6196429089177,1993.6196429089177,1993.6196429089177,1993.6196429089177,1993.6196429089177,1993.6196429089177,1993.6196429089177,1993.6196429089177,1993.6196429089177,l,3.177488751942292,10,535,1,1996.823427090887,1998.323233088944,1998.323233088944,1998.8234397408087,,,,,,,,,,,,,,,,,,,,,,,,,,,,,,,,,,,,,,,,,,,,,,,,,,,,,,,,,,,,,,,,,,,,,80052,2022-11-15_10h09.31.025,vts_reward_expectancy_bt_OFFLINE,2022.2.4,60.033283768246825,
1,0,0,0,0,0,1,0,triangle,hexagon,1,0,1,0,3,10,46,1,,,,,,,,,,,,,,,,,,,,,,,,,,,,,,,,,,,,,,,,1998.8234397408087,1998.8234397408087,1998.8234397408087,1998.8234397408087,1998.8234397408087,1998.8234397408087,1998.8234397408087,1998.8234397408087,1998.8234397408087,1998.8234397408087,l,1.3258893331512809,1,536,1,2000.2401152618695,,2001.6929402109236,,,,,,,,,,,,,,,,,,,,,,,,,,,,,,,,,,,,,,,,,,,,,,,,,,,,,,,,,,,,,,,,,,,,,,80052,2022-11-15_10h09.31.025,vts_reward_expectancy_bt_OFFLINE,2022.2.4,60.033283768246825,
0,0,1,0,0,1,0,0,hexagon,circle,1,0,1,0,3,11,47,7,,,,,,,,,,,,,,,,,,,,,,,,,,,,,,,,,,,,,,,,2002.192962352885,2002.192962352885,2002.192962352885,2002.192962352885,2002.192962352885,2002.192962352885,2002.192962352885,2002.192962352885,2002.192962352885,2002.192962352885,a,3.593271425925195,1,537,1,2005.8139345718082,2007.3134860629216,2007.3134860629216,2007.8190374679398,,,,,,,,,,,,,,,,,,,,,,,,,,,,,,,,,,,,,,,,,,,,,,,,,,,,,,,,,,,,,,,,,,,,,80052,2022-11-15_10h09.31.025,vts_reward_expectancy_bt_OFFLINE,2022.2.4,60.033283768246825,
0,0,1,0,1,0,0,0,hexagon,triangle,2,0,2,0,0,0,0,6,,,,,,,,,,,,,,,,,,,,,,,,,,,,,,,,,,,,,,,,2014.5122926428448,2014.5122926428448,2014.5122926428448,2014.5122926428448,2014.5122926428448,2014.5122926428448,2014.5122926428448,2014.5122926428448,2014.5122926428448,2014.5122926428448,a,1.2296850220300257,10,547,2,2015.7729828190058,,2017.2874265948776,,,,,,,,,,,,,,,,,,,,,,,,,,,,,,,,,,,,,,,,,,,,,,,,,,,,,,,,,,,,,,,,,,,,,,80052,2022-11-15_10h09.31.025,vts_reward_expectancy_bt_OFFLINE,2022.2.4,60.033283768246825,
1,0,0,0,0,0,0,1,triangle,star,2,0,2,0,0,1,1,2,,,,,,,,,,,,,,,,,,,,,,,,,,,,,,,,,,,,,,,,2017.7872256929986,2017.7872256929986,2017.7872256929986,2017.7872256929986,2017.7872256929986,2017.7872256929986,2017.7872256929986,2017.7872256929986,2017.7872256929986,2017.7872256929986,l,0.9585869889706373,10,557,2,2018.7723074168898,,2020.2738299979828,,,,,,,,,,,,,,,,,,,,,,,,,,,,,,,,,,,,,,,,,,,,,,,,,,,,,,,,,,,,,,,,,,,,,,80052,2022-11-15_10h09.31.025,vts_reward_expectancy_bt_OFFLINE,2022.2.4,60.033283768246825,
0,0,0,1,0,1,0,0,star ,circle,2,0,2,0,0,2,2,10,,,,,,,,,,,,,,,,,,,,,,,,,,,,,,,,,,,,,,,,2020.7739283489063,2020.7739283489063,2020.7739283489063,2020.7739283489063,2020.7739283489063,2020.7739283489063,2020.7739283489063,2020.7739283489063,2020.7739283489063,2020.7739283489063,a,0.8532522358000278,10,567,2,2021.6577482759021,2023.1582063359674,2023.1582063359674,2023.6581957750022,,,,,,,,,,,,,,,,,,,,,,,,,,,,,,,,,,,,,,,,,,,,,,,,,,,,,,,,,,,,,,,,,,,,,80052,2022-11-15_10h09.31.025,vts_reward_expectancy_bt_OFFLINE,2022.2.4,60.033283768246825,
0,1,0,0,0,0,1,0,circle,hexagon,2,0,2,0,0,3,3,4,,,,,,,,,,,,,,,,,,,,,,,,,,,,,,,,,,,,,,,,2023.6581957750022,2023.6581957750022,2023.6581957750022,2023.6581957750022,2023.6581957750022,2023.6581957750022,2023.6581957750022,2023.6581957750022,2023.6581957750022,2023.6581957750022,l,0.9381577929016203,10,577,2,2024.628020316828,2026.1277751899324,2026.1277751899324,,,,,,,,,,,,,,,,,,,,,,,,,,,,,,,,,,,,,,,,,,,,,,,,,,,,,,,,,,,,,,,,,,,,,,80052,2022-11-15_10h09.31.025,vts_reward_expectancy_bt_OFFLINE,2022.2.4,60.033283768246825,
0,1,0,0,0,0,0,1,circle,star,2,0,2,0,0,4,4,5,,,,,,,,,,,,,,,,,,,,,,,,,,,,,,,,,,,,,,,,2026.6278293908108,2026.6278293908108,2026.6278293908108,2026.6278293908108,2026.6278293908108,2026.6278293908108,2026.6278293908108,2026.6278293908108,2026.6278293908108,2026.6278293908108,l,0.9053593019489199,10,587,2,2027.5621172378305,,2029.0638831458054,,,,,,,,,,,,,,,,,,,,,,,,,,,,,,,,,,,,,,,,,,,,,,,,,,,,,,,,,,,,,,,,,,,,,,80052,2022-11-15_10h09.31.025,vts_reward_expectancy_bt_OFFLINE,2022.2.4,60.033283768246825,
1,0,0,0,0,0,1,0,triangle,hexagon,2,0,2,0,0,5,5,1,,,,,,,,,,,,,,,,,,,,,,,,,,,,,,,,,,,,,,,,2029.5639440158848,2029.5639440158848,2029.5639440158848,2029.5639440158848,2029.5639440158848,2029.5639440158848,2029.5639440158848,2029.5639440158848,2029.5639440158848,2029.5639440158848,l,0.9616754970047623,10,597,2,2030.5486350930296,2032.048324518837,2032.048324518837,2032.5485293988604,,,,,,,,,,,,,,,,,,,,,,,,,,,,,,,,,,,,,,,,,,,,,,,,,,,,,,,,,,,,,,,,,,,,,80052,2022-11-15_10h09.31.025,vts_reward_expectancy_bt_OFFLINE,2022.2.4,60.033283768246825,
0,0,0,1,1,0,0,0,star,triangle,2,0,2,0,0,6,6,9,,,,,,,,,,,,,,,,,,,,,,,,,,,,,,,,,,,,,,,,2032.5485293988604,2032.5485293988604,2032.5485293988604,2032.5485293988604,2032.5485293988604,2032.5485293988604,2032.5485293988604,2032.5485293988604,2032.5485293988604,2032.5485293988604,a,0.7668852810747921,1,598,2,2033.3351314950269,,2034.834321073955,,,,,,,,,,,,,,,,,,,,,,,,,,,,,,,,,,,,,,,,,,,,,,,,,,,,,,,,,,,,,,,,,,,,,,80052,2022-11-15_10h09.31.025,vts_reward_expectancy_bt_OFFLINE,2022.2.4,60.033283768246825,
0,0,0,1,0,0,1,0,star,hexagon,2,0,2,0,0,7,7,11,,,,,,,,,,,,,,,,,,,,,,,,,,,,,,,,,,,,,,,,2035.3346855689306,2035.3346855689306,2035.3346855689306,2035.3346855689306,2035.3346855689306,2035.3346855689306,2035.3346855689306,2035.3346855689306,2035.3346855689306,2035.3346855689306,a,2.594294640934095,10,608,2,2037.9662383948453,,2039.4545598449185,,,,,,,,,,,,,,,,,,,,,,,,,,,,,,,,,,,,,,,,,,,,,,,,,,,,,,,,,,,,,,,,,,,,,,80052,2022-11-15_10h09.31.025,vts_reward_expectancy_bt_OFFLINE,2022.2.4,60.033283768246825,
0,0,1,0,0,0,0,1,hexagon,star,2,0,2,0,0,8,8,8,,,,,,,,,,,,,,,,,,,,,,,,,,,,,,,,,,,,,,,,2039.954622596968,2039.954622596968,2039.954622596968,2039.954622596968,2039.954622596968,2039.954622596968,2039.954622596968,2039.954622596968,2039.954622596968,2039.954622596968,l,2.5638047689571977,10,618,2,2042.5398680840153,,2044.0417296998203,,,,,,,,,,,,,,,,,,,,,,,,,,,,,,,,,,,,,,,,,,,,,,,,,,,,,,,,,,,,,,,,,,,,,,80052,2022-11-15_10h09.31.025,vts_reward_expectancy_bt_OFFLINE,2022.2.4,60.033283768246825,
1,0,0,0,0,1,0,0,triangle,circle,2,0,2,0,0,9,9,0,,,,,,,,,,,,,,,,,,,,,,,,,,,,,,,,,,,,,,,,2044.5415466108825,2044.5415466108825,2044.5415466108825,2044.5415466108825,2044.5415466108825,2044.5415466108825,2044.5415466108825,2044.5415466108825,2044.5415466108825,2044.5415466108825,a,2.004719786113128,1,619,2,2046.5781038389541,,2048.092833020026,,,,,,,,,,,,,,,,,,,,,,,,,,,,,,,,,,,,,,,,,,,,,,,,,,,,,,,,,,,,,,,,,,,,,,80052,2022-11-15_10h09.31.025,vts_reward_expectancy_bt_OFFLINE,2022.2.4,60.033283768246825,
0,0,1,0,0,1,0,0,hexagon,circle,2,0,2,0,0,10,10,7,,,,,,,,,,,,,,,,,,,,,,,,,,,,,,,,,,,,,,,,2048.5763887499925,2048.5763887499925,2048.5763887499925,2048.5763887499925,2048.5763887499925,2048.5763887499925,2048.5763887499925,2048.5763887499925,2048.5763887499925,2048.5763887499925,a,1.5365454850252718,1,620,2,2050.145739526022,2051.646078185877,2051.646078185877,2052.146247667959,,,,,,,,,,,,,,,,,,,,,,,,,,,,,,,,,,,,,,,,,,,,,,,,,,,,,,,,,,,,,,,,,,,,,80052,2022-11-15_10h09.31.025,vts_reward_expectancy_bt_OFFLINE,2022.2.4,60.033283768246825,
0,1,0,0,1,0,0,0,circle,triangle,2,0,2,0,0,11,11,3,,,,,,,,,,,,,,,,,,,,,,,,,,,,,,,,,,,,,,,,2052.146247667959,2052.146247667959,2052.146247667959,2052.146247667959,2052.146247667959,2052.146247667959,2052.146247667959,2052.146247667959,2052.146247667959,2052.146247667959,l,1.3648125738836825,10,630,2,2053.533229376888,,2055.0324455599766,,,,,,,,,,,,,,,,,,,,,,,,,,,,,,,,,,,,,,,,,,,,,,,,,,,,,,,,,,,,,,,,,,,,,,80052,2022-11-15_10h09.31.025,vts_reward_expectancy_bt_OFFLINE,2022.2.4,60.033283768246825,
0,0,0,1,1,0,0,0,star,triangle,2,0,2,0,1,0,12,9,,,,,,,,,,,,,,,,,,,,,,,,,,,,,,,,,,,,,,,,2055.532643088838,2055.532643088838,2055.532643088838,2055.532643088838,2055.532643088838,2055.532643088838,2055.532643088838,2055.532643088838,2055.532643088838,2055.532643088838,l,2.196656384970993,1,631,2,2057.7533606400248,,2059.2523219909053,,,,,,,,,,,,,,,,,,,,,,,,,,,,,,,,,,,,,,,,,,,,,,,,,,,,,,,,,,,,,,,,,,,,,,80052,2022-11-15_10h09.31.025,vts_reward_expectancy_bt_OFFLINE,2022.2.4,60.033283768246825,
0,0,0,1,0,0,1,0,star,hexagon,2,0,2,0,1,1,13,11,,,,,,,,,,,,,,,,,,,,,,,,,,,,,,,,,,,,,,,,2059.752679597819,2059.752679597819,2059.752679597819,2059.752679597819,2059.752679597819,2059.752679597819,2059.752679597819,2059.752679597819,2059.752679597819,2059.752679597819,a,0.892530013108626,1,632,2,2060.6705476378556,2062.170188274933,2062.170188274933,2062.6701349939685,,,,,,,,,,,,,,,,,,,,,,,,,,,,,,,,,,,,,,,,,,,,,,,,,,,,,,,,,,,,,,,,,,,,,80052,2022-11-15_10h09.31.025,vts_reward_expectancy_bt_OFFLINE,2022.2.4,60.033283768246825,
0,1,0,0,1,0,0,0,circle,triangle,2,0,2,0,1,2,14,3,,,,,,,,,,,,,,,,,,,,,,,,,,,,,,,,,,,,,,,,2062.6701349939685,2062.6701349939685,2062.6701349939685,2062.6701349939685,2062.6701349939685,2062.6701349939685,2062.6701349939685,2062.6701349939685,2062.6701349939685,2062.6701349939685,a,2.1357850080821663,1,633,2,2064.8238873130176,2066.3234773860313,2066.3234773860313,2066.8235379369,,,,,,,,,,,,,,,,,,,,,,,,,,,,,,,,,,,,,,,,,,,,,,,,,,,,,,,,,,,,,,,,,,,,,80052,2022-11-15_10h09.31.025,vts_reward_expectancy_bt_OFFLINE,2022.2.4,60.033283768246825,
0,0,1,0,0,0,0,1,hexagon,star,2,0,2,0,1,3,15,8,,,,,,,,,,,,,,,,,,,,,,,,,,,,,,,,,,,,,,,,2066.8235379369,2066.8235379369,2066.8235379369,2066.8235379369,2066.8235379369,2066.8235379369,2066.8235379369,2066.8235379369,2066.8235379369,2066.8235379369,l,0.9749837599229068,10,643,2,2067.8268220669124,,2069.326275685802,,,,,,,,,,,,,,,,,,,,,,,,,,,,,,,,,,,,,,,,,,,,,,,,,,,,,,,,,,,,,,,,,,,,,,80052,2022-11-15_10h09.31.025,vts_reward_expectancy_bt_OFFLINE,2022.2.4,60.033283768246825,
1,0,0,0,0,0,1,0,triangle,hexagon,2,0,2,0,1,4,16,1,,,,,,,,,,,,,,,,,,,,,,,,,,,,,,,,,,,,,,,,2069.8267004799563,2069.8267004799563,2069.8267004799563,2069.8267004799563,2069.8267004799563,2069.8267004799563,2069.8267004799563,2069.8267004799563,2069.8267004799563,2069.8267004799563,l,1.3583255191333592,1,644,2,2071.213524557883,,2072.7276172919665,,,,,,,,,,,,,,,,,,,,,,,,,,,,,,,,,,,,,,,,,,,,,,,,,,,,,,,,,,,,,,,,,,,,,,80052,2022-11-15_10h09.31.025,vts_reward_expectancy_bt_OFFLINE,2022.2.4,60.033283768246825,
0,0,1,0,0,1,0,0,hexagon,circle,2,0,2,0,1,5,17,7,,,,,,,,,,,,,,,,,,,,,,,,,,,,,,,,,,,,,,,,2073.227739096852,2073.227739096852,2073.227739096852,2073.227739096852,2073.227739096852,2073.227739096852,2073.227739096852,2073.227739096852,2073.227739096852,2073.227739096852,a,4.730003166012466,1,645,2,2077.9825774449855,,2079.4835587488487,,,,,,,,,,,,,,,,,,,,,,,,,,,,,,,,,,,,,,,,,,,,,,,,,,,,,,,,,,,,,,,,,,,,,,80052,2022-11-15_10h09.31.025,vts_reward_expectancy_bt_OFFLINE,2022.2.4,60.033283768246825,
1,0,0,0,0,0,0,1,triangle,star,2,0,2,0,1,6,18,2,,,,,,,,,,,,,,,,,,,,,,,,,,,,,,,,,,,,,,,,2079.983811522834,2079.983811522834,2079.983811522834,2079.983811522834,2079.983811522834,2079.983811522834,2079.983811522834,2079.983811522834,2079.983811522834,2079.983811522834,l,2.5086467179935426,10,655,2,2082.520952319959,,2084.0207709218375,,,,,,,,,,,,,,,,,,,,,,,,,,,,,,,,,,,,,,,,,,,,,,,,,,,,,,,,,,,,,,,,,,,,,,80052,2022-11-15_10h09.31.025,vts_reward_expectancy_bt_OFFLINE,2022.2.4,60.033283768246825,
0,0,0,1,0,1,0,0,star ,circle,2,0,2,0,1,7,19,10,,,,,,,,,,,,,,,,,,,,,,,,,,,,,,,,,,,,,,,,2084.5208291788585,2084.5208291788585,2084.5208291788585,2084.5208291788585,2084.5208291788585,2084.5208291788585,2084.5208291788585,2084.5208291788585,2084.5208291788585,2084.5208291788585,a,0.7280945607926697,10,665,2,2085.272158605978,2086.7714862539433,2086.7714862539433,2087.2717779569793,,,,,,,,,,,,,,,,,,,,,,,,,,,,,,,,,,,,,,,,,,,,,,,,,,,,,,,,,,,,,,,,,,,,,80052,2022-11-15_10h09.31.025,vts_reward_expectancy_bt_OFFLINE,2022.2.4,60.033283768246825,
0,1,0,0,0,0,1,0,circle,hexagon,2,0,2,0,1,8,20,4,,,,,,,,,,,,,,,,,,,,,,,,,,,,,,,,,,,,,,,,2087.2717779569793,2087.2717779569793,2087.2717779569793,2087.2717779569793,2087.2717779569793,2087.2717779569793,2087.2717779569793,2087.2717779569793,2087.2717779569793,2087.2717779569793,l,0.8680401211604476,10,675,2,2088.1721279828344,2089.674402571982,2089.674402571982,2090.1746547778603,,,,,,,,,,,,,,,,,,,,,,,,,,,,,,,,,,,,,,,,,,,,,,,,,,,,,,,,,,,,,,,,,,,,,80052,2022-11-15_10h09.31.025,vts_reward_expectancy_bt_OFFLINE,2022.2.4,60.033283768246825,
0,1,0,0,0,0,0,1,circle,star,2,0,2,0,1,9,21,5,,,,,,,,,,,,,,,,,,,,,,,,,,,,,,,,,,,,,,,,2090.1746547778603,2090.1746547778603,2090.1746547778603,2090.1746547778603,2090.1746547778603,2090.1746547778603,2090.1746547778603,2090.1746547778603,2090.1746547778603,2090.1746547778603,l,0.7324232300743461,10,685,2,2090.9259867309593,2092.4253050168045,2092.4253050168045,2092.9253637120128,,,,,,,,,,,,,,,,,,,,,,,,,,,,,,,,,,,,,,,,,,,,,,,,,,,,,,,,,,,,,,,,,,,,,80052,2022-11-15_10h09.31.025,vts_reward_expectancy_bt_OFFLINE,2022.2.4,60.033283768246825,
1,0,0,0,0,1,0,0,triangle,circle,2,0,2,0,1,10,22,0,,,,,,,,,,,,,,,,,,,,,,,,,,,,,,,,,,,,,,,,2092.9253637120128,2092.9253637120128,2092.9253637120128,2092.9253637120128,2092.9253637120128,2092.9253637120128,2092.9253637120128,2092.9253637120128,2092.9253637120128,2092.9253637120128,l,2.81986727216281,1,686,2,2095.7653066138737,,2097.2789464839734,,,,,,,,,,,,,,,,,,,,,,,,,,,,,,,,,,,,,,,,,,,,,,,,,,,,,,,,,,,,,,,,,,,,,,80052,2022-11-15_10h09.31.025,vts_reward_expectancy_bt_OFFLINE,2022.2.4,60.033283768246825,
0,0,1,0,1,0,0,0,hexagon,triangle,2,0,2,0,1,11,23,6,,,,,,,,,,,,,,,,,,,,,,,,,,,,,,,,,,,,,,,,2097.779173449846,2097.779173449846,2097.779173449846,2097.779173449846,2097.779173449846,2097.779173449846,2097.779173449846,2097.779173449846,2097.779173449846,2097.779173449846,a,1.3072967370972037,1,687,2,2099.116104637971,2100.6153655929957,2100.6153655929957,2101.1157443940174,,,,,,,,,,,,,,,,,,,,,,,,,,,,,,,,,,,,,,,,,,,,,,,,,,,,,,,,,,,,,,,,,,,,,80052,2022-11-15_10h09.31.025,vts_reward_expectancy_bt_OFFLINE,2022.2.4,60.033283768246825,
1,0,0,0,0,1,0,0,triangle,circle,2,0,2,0,2,0,24,0,,,,,,,,,,,,,,,,,,,,,,,,,,,,,,,,,,,,,,,,2101.1157443940174,2101.1157443940174,2101.1157443940174,2101.1157443940174,2101.1157443940174,2101.1157443940174,2101.1157443940174,2101.1157443940174,2101.1157443940174,2101.1157443940174,l,1.4478833640459925,10,697,2,2102.585860858904,,2104.085032196017,,,,,,,,,,,,,,,,,,,,,,,,,,,,,,,,,,,,,,,,,,,,,,,,,,,,,,,,,,,,,,,,,,,,,,80052,2022-11-15_10h09.31.025,vts_reward_expectancy_bt_OFFLINE,2022.2.4,60.033283768246825,
0,0,0,1,0,1,0,0,star ,circle,2,0,2,0,2,1,25,10,,,,,,,,,,,,,,,,,,,,,,,,,,,,,,,,,,,,,,,,2104.585175101878,2104.585175101878,2104.585175101878,2104.585175101878,2104.585175101878,2104.585175101878,2104.585175101878,2104.585175101878,2104.585175101878,2104.585175101878,a,2.3093855280894786,10,707,2,2106.9205583080184,2108.4198312850203,2108.4198312850203,2108.9169817918446,,,,,,,,,,,,,,,,,,,,,,,,,,,,,,,,,,,,,,,,,,,,,,,,,,,,,,,,,,,,,,,,,,,,,80052,2022-11-15_10h09.31.025,vts_reward_expectancy_bt_OFFLINE,2022.2.4,60.033283768246825,
1,0,0,0,0,0,0,1,triangle,star,2,0,2,0,2,2,26,2,,,,,,,,,,,,,,,,,,,,,,,,,,,,,,,,,,,,,,,,2108.9169817918446,2108.9169817918446,2108.9169817918446,2108.9169817918446,2108.9169817918446,2108.9169817918446,2108.9169817918446,2108.9169817918446,2108.9169817918446,2108.9169817918446,l,1.3645143050234765,10,717,2,2110.3067950028926,2111.806372613879,2111.806372613879,2112.3066145048942,,,,,,,,,,,,,,,,,,,,,,,,,,,,,,,,,,,,,,,,,,,,,,,,,,,,,,,,,,,,,,,,,,,,,80052,2022-11-15_10h09.31.025,vts_reward_expectancy_bt_OFFLINE,2022.2.4,60.033283768246825,
0,1,0,0,1,0,0,0,circle,triangle,2,0,2,0,2,3,27,3,,,,,,,,,,,,,,,,,,,,,,,,,,,,,,,,,,,,,,,,2112.3066145048942,2112.3066145048942,2112.3066145048942,2112.3066145048942,2112.3066145048942,2112.3066145048942,2112.3066145048942,2112.3066145048942,2112.3066145048942,2112.3066145048942,a,1.6529802400618792,10,727,2,2113.978506717831,,2115.49301342899,,,,,,,,,,,,,,,,,,,,,,,,,,,,,,,,,,,,,,,,,,,,,,,,,,,,,,,,,,,,,,,,,,,,,,80052,2022-11-15_10h09.31.025,vts_reward_expectancy_bt_OFFLINE,2022.2.4,60.033283768246825,
0,0,0,1,0,0,1,0,star,hexagon,2,0,2,0,2,4,28,11,,,,,,,,,,,,,,,,,,,,,,,,,,,,,,,,,,,,,,,,2115.9933696039952,2115.9933696039952,2115.9933696039952,2115.9933696039952,2115.9933696039952,2115.9933696039952,2115.9933696039952,2115.9933696039952,2115.9933696039952,2115.9933696039952,a,1.1846543299034238,10,737,2,2117.2105610389262,2118.710682375822,2118.710682375822,2119.212657894939,,,,,,,,,,,,,,,,,,,,,,,,,,,,,,,,,,,,,,,,,,,,,,,,,,,,,,,,,,,,,,,,,,,,,80052,2022-11-15_10h09.31.025,vts_reward_expectancy_bt_OFFLINE,2022.2.4,60.033283768246825,
0,0,1,0,0,1,0,0,hexagon,circle,2,0,2,0,2,5,29,7,,,,,,,,,,,,,,,,,,,,,,,,,,,,,,,,,,,,,,,,2119.212657894939,2119.212657894939,2119.212657894939,2119.212657894939,2119.212657894939,2119.212657894939,2119.212657894939,2119.212657894939,2119.212657894939,2119.212657894939,a,1.4426215630955994,1,738,2,2120.683316212846,,2122.197236158885,,,,,,,,,,,,,,,,,,,,,,,,,,,,,,,,,,,,,,,,,,,,,,,,,,,,,,,,,,,,,,,,,,,,,,80052,2022-11-15_10h09.31.025,vts_reward_expectancy_bt_OFFLINE,2022.2.4,60.033283768246825,
0,0,1,0,1,0,0,0,hexagon,triangle,2,0,2,0,2,6,30,6,,,,,,,,,,,,,,,,,,,,,,,,,,,,,,,,,,,,,,,,2122.696992398938,2122.696992398938,2122.696992398938,2122.696992398938,2122.696992398938,2122.696992398938,2122.696992398938,2122.696992398938,2122.696992398938,2122.696992398938,a,0.994297455996275,10,748,2,2123.7169502510224,,2125.216816197848,,,,,,,,,,,,,,,,,,,,,,,,,,,,,,,,,,,,,,,,,,,,,,,,,,,,,,,,,,,,,,,,,,,,,,80052,2022-11-15_10h09.31.025,vts_reward_expectancy_bt_OFFLINE,2022.2.4,60.033283768246825,
0,0,0,1,1,0,0,0,star,triangle,2,0,2,0,2,7,31,9,,,,,,,,,,,,,,,,,,,,,,,,,,,,,,,,,,,,,,,,2125.7169300769456,2125.7169300769456,2125.7169300769456,2125.7169300769456,2125.7169300769456,2125.7169300769456,2125.7169300769456,2125.7169300769456,2125.7169300769456,2125.7169300769456,a,0.865829898044467,10,758,2,2126.6018418360036,2128.101079409942,2128.101079409942,2128.6012343899347,,,,,,,,,,,,,,,,,,,,,,,,,,,,,,,,,,,,,,,,,,,,,,,,,,,,,,,,,,,,,,,,,,,,,80052,2022-11-15_10h09.31.025,vts_reward_expectancy_bt_OFFLINE,2022.2.4,60.033283768246825,
0,1,0,0,0,0,1,0,circle,hexagon,2,0,2,0,2,8,32,4,,,,,,,,,,,,,,,,,,,,,,,,,,,,,,,,,,,,,,,,2128.6012343899347,2128.6012343899347,2128.6012343899347,2128.6012343899347,2128.6012343899347,2128.6012343899347,2128.6012343899347,2128.6012343899347,2128.6012343899347,2128.6012343899347,a,1.165225924924016,10,768,2,2129.788263625931,2131.2876245698426,2131.2876245698426,2131.7874938349705,,,,,,,,,,,,,,,,,,,,,,,,,,,,,,,,,,,,,,,,,,,,,,,,,,,,,,,,,,,,,,,,,,,,,80052,2022-11-15_10h09.31.025,vts_reward_expectancy_bt_OFFLINE,2022.2.4,60.033283768246825,
0,1,0,0,0,0,0,1,circle,star,2,0,2,0,2,9,33,5,,,,,,,,,,,,,,,,,,,,,,,,,,,,,,,,,,,,,,,,2131.7874938349705,2131.7874938349705,2131.7874938349705,2131.7874938349705,2131.7874938349705,2131.7874938349705,2131.7874938349705,2131.7874938349705,2131.7874938349705,2131.7874938349705,l,0.8145177350379527,1,769,2,2132.62453723792,,2134.1235245699063,,,,,,,,,,,,,,,,,,,,,,,,,,,,,,,,,,,,,,,,,,,,,,,,,,,,,,,,,,,,,,,,,,,,,,80052,2022-11-15_10h09.31.025,vts_reward_expectancy_bt_OFFLINE,2022.2.4,60.033283768246825,
1,0,0,0,0,0,1,0,triangle,hexagon,2,0,2,0,2,10,34,1,,,,,,,,,,,,,,,,,,,,,,,,,,,,,,,,,,,,,,,,2134.6234358239453,2134.6234358239453,2134.6234358239453,2134.6234358239453,2134.6234358239453,2134.6234358239453,2134.6234358239453,2134.6234358239453,2134.6234358239453,2134.6234358239453,l,2.5577726599294692,10,779,2,2137.2110123718157,,2138.7253192670178,,,,,,,,,,,,,,,,,,,,,,,,,,,,,,,,,,,,,,,,,,,,,,,,,,,,,,,,,,,,,,,,,,,,,,80052,2022-11-15_10h09.31.025,vts_reward_expectancy_bt_OFFLINE,2022.2.4,60.033283768246825,
0,0,1,0,0,0,0,1,hexagon,star,2,0,2,0,2,11,35,8,,,,,,,,,,,,,,,,,,,,,,,,,,,,,,,,,,,,,,,,2139.210550694028,2139.210550694028,2139.210550694028,2139.210550694028,2139.210550694028,2139.210550694028,2139.210550694028,2139.210550694028,2139.210550694028,2139.210550694028,l,1.0082210830878466,10,789,2,2140.2456420829985,2141.7447300779168,2141.7447300779168,2142.2451364519075,,,,,,,,,,,,,,,,,,,,,,,,,,,,,,,,,,,,,,,,,,,,,,,,,,,,,,,,,,,,,,,,,,,,,80052,2022-11-15_10h09.31.025,vts_reward_expectancy_bt_OFFLINE,2022.2.4,60.033283768246825,
0,0,1,0,1,0,0,0,hexagon,triangle,2,0,2,0,3,0,36,6,,,,,,,,,,,,,,,,,,,,,,,,,,,,,,,,,,,,,,,,2142.2451364519075,2142.2451364519075,2142.2451364519075,2142.2451364519075,2142.2451364519075,2142.2451364519075,2142.2451364519075,2142.2451364519075,2142.2451364519075,2142.2451364519075,a,0.9770466000773013,10,799,2,2143.2467583678663,,2144.7476314448286,,,,,,,,,,,,,,,,,,,,,,,,,,,,,,,,,,,,,,,,,,,,,,,,,,,,,,,,,,,,,,,,,,,,,,80052,2022-11-15_10h09.31.025,vts_reward_expectancy_bt_OFFLINE,2022.2.4,60.033283768246825,
0,1,0,0,0,0,1,0,circle,hexagon,2,0,2,0,3,1,37,4,,,,,,,,,,,,,,,,,,,,,,,,,,,,,,,,,,,,,,,,2145.248186843004,2145.248186843004,2145.248186843004,2145.248186843004,2145.248186843004,2145.248186843004,2145.248186843004,2145.248186843004,2145.248186843004,2145.248186843004,l,0.775746830040589,1,800,2,2146.0514299490023,,2147.565357944928,,,,,,,,,,,,,,,,,,,,,,,,,,,,,,,,,,,,,,,,,,,,,,,,,,,,,,,,,,,,,,,,,,,,,,80052,2022-11-15_10h09.31.025,vts_reward_expectancy_bt_OFFLINE,2022.2.4,60.033283768246825,
0,1,0,0,1,0,0,0,circle,triangle,2,0,2,0,3,2,38,3,,,,,,,,,,,,,,,,,,,,,,,,,,,,,,,,,,,,,,,,2148.0655750348233,2148.0655750348233,2148.0655750348233,2148.0655750348233,2148.0655750348233,2148.0655750348233,2148.0655750348233,2148.0655750348233,2148.0655750348233,2148.0655750348233,a,2.5489899879321456,1,801,2,2150.6365338228643,,2152.152507926803,,,,,,,,,,,,,,,,,,,,,,,,,,,,,,,,,,,,,,,,,,,,,,,,,,,,,,,,,,,,,,,,,,,,,,80052,2022-11-15_10h09.31.025,vts_reward_expectancy_bt_OFFLINE,2022.2.4,60.033283768246825,
0,0,1,0,0,1,0,0,hexagon,circle,2,0,2,0,3,3,39,7,,,,,,,,,,,,,,,,,,,,,,,,,,,,,,,,,,,,,,,,2152.652569678845,2152.652569678845,2152.652569678845,2152.652569678845,2152.652569678845,2152.652569678845,2152.652569678845,2152.652569678845,2152.652569678845,2152.652569678845,a,1.2021699608303607,1,802,2,2153.8865803428926,2155.388705551857,2155.388705551857,2155.8886951908935,,,,,,,,,,,,,,,,,,,,,,,,,,,,,,,,,,,,,,,,,,,,,,,,,,,,,,,,,,,,,,,,,,,,,80052,2022-11-15_10h09.31.025,vts_reward_expectancy_bt_OFFLINE,2022.2.4,60.033283768246825,
1,0,0,0,0,0,0,1,triangle,star,2,0,2,0,3,4,40,2,,,,,,,,,,,,,,,,,,,,,,,,,,,,,,,,,,,,,,,,2155.8886951908935,2155.8886951908935,2155.8886951908935,2155.8886951908935,2155.8886951908935,2155.8886951908935,2155.8886951908935,2155.8886951908935,2155.8886951908935,2155.8886951908935,l,0.7455390389077365,1,803,2,2156.6569974988233,2158.1561307220254,2158.1561307220254,2158.656306518009,,,,,,,,,,,,,,,,,,,,,,,,,,,,,,,,,,,,,,,,,,,,,,,,,,,,,,,,,,,,,,,,,,,,,80052,2022-11-15_10h09.31.025,vts_reward_expectancy_bt_OFFLINE,2022.2.4,60.033283768246825,
0,0,1,0,0,0,0,1,hexagon,star,2,0,2,0,3,5,41,8,,,,,,,,,,,,,,,,,,,,,,,,,,,,,,,,,,,,,,,,2158.656306518009,2158.656306518009,2158.656306518009,2158.656306518009,2158.656306518009,2158.656306518009,2158.656306518009,2158.656306518009,2158.656306518009,2158.656306518009,l,1.96000806405209,10,813,2,2160.6457814020105,,2162.159526966978,,,,,,,,,,,,,,,,,,,,,,,,,,,,,,,,,,,,,,,,,,,,,,,,,,,,,,,,,,,,,,,,,,,,,,80052,2022-11-15_10h09.31.025,vts_reward_expectancy_bt_OFFLINE,2022.2.4,60.033283768246825,
1,0,0,0,0,1,0,0,triangle,circle,2,0,2,0,3,6,42,0,,,,,,,,,,,,,,,,,,,,,,,,,,,,,,,,,,,,,,,,2162.6597133199684,2162.6597133199684,2162.6597133199684,2162.6597133199684,2162.6597133199684,2162.6597133199684,2162.6597133199684,2162.6597133199684,2162.6597133199684,2162.6597133199684,l,2.6144428472034633,1,814,2,2165.299445295008,,2166.8128041208256,,,,,,,,,,,,,,,,,,,,,,,,,,,,,,,,,,,,,,,,,,,,,,,,,,,,,,,,,,,,,,,,,,,,,,80052,2022-11-15_10h09.31.025,vts_reward_expectancy_bt_OFFLINE,2022.2.4,60.033283768246825,
0,0,0,1,0,0,1,0,star,hexagon,2,0,2,0,3,7,43,11,,,,,,,,,,,,,,,,,,,,,,,,,,,,,,,,,,,,,,,,2167.3131088588852,2167.3131088588852,2167.3131088588852,2167.3131088588852,2167.3131088588852,2167.3131088588852,2167.3131088588852,2167.3131088588852,2167.3131088588852,2167.3131088588852,a,0.6043074850458652,1,815,2,2167.947907246882,,2169.449111787835,,,,,,,,,,,,,,,,,,,,,,,,,,,,,,,,,,,,,,,,,,,,,,,,,,,,,,,,,,,,,,,,,,,,,,80052,2022-11-15_10h09.31.025,vts_reward_expectancy_bt_OFFLINE,2022.2.4,60.033283768246825,
1,0,0,0,0,0,1,0,triangle,hexagon,2,0,2,0,3,8,44,1,,,,,,,,,,,,,,,,,,,,,,,,,,,,,,,,,,,,,,,,2169.9493261908647,2169.9493261908647,2169.9493261908647,2169.9493261908647,2169.9493261908647,2169.9493261908647,2169.9493261908647,2169.9493261908647,2169.9493261908647,2169.9493261908647,l,2.9188989349640906,1,816,2,2172.9006302868947,2174.402620204026,2174.402620204026,2174.9029400018044,,,,,,,,,,,,,,,,,,,,,,,,,,,,,,,,,,,,,,,,,,,,,,,,,,,,,,,,,,,,,,,,,,,,,80052,2022-11-15_10h09.31.025,vts_reward_expectancy_bt_OFFLINE,2022.2.4,60.033283768246825,
0,0,0,1,1,0,0,0,star,triangle,2,0,2,0,3,9,45,9,,,,,,,,,,,,,,,,,,,,,,,,,,,,,,,,,,,,,,,,2174.9029400018044,2174.9029400018044,2174.9029400018044,2174.9029400018044,2174.9029400018044,2174.9029400018044,2174.9029400018044,2174.9029400018044,2174.9029400018044,2174.9029400018044,l,1.7455672919750214,10,826,2,2176.673628638964,,2178.187584302854,,,,,,,,,,,,,,,,,,,,,,,,,,,,,,,,,,,,,,,,,,,,,,,,,,,,,,,,,,,,,,,,,,,,,,80052,2022-11-15_10h09.31.025,vts_reward_expectancy_bt_OFFLINE,2022.2.4,60.033283768246825,
0,1,0,0,0,0,0,1,circle,star,2,0,2,0,3,10,46,5,,,,,,,,,,,,,,,,,,,,,,,,,,,,,,,,,,,,,,,,2178.687516073929,2178.687516073929,2178.687516073929,2178.687516073929,2178.687516073929,2178.687516073929,2178.687516073929,2178.687516073929,2178.687516073929,2178.687516073929,l,0.7507847449742258,1,827,2,2179.4596526538953,,2180.9736479248386,,,,,,,,,,,,,,,,,,,,,,,,,,,,,,,,,,,,,,,,,,,,,,,,,,,,,,,,,,,,,,,,,,,,,,80052,2022-11-15_10h09.31.025,vts_reward_expectancy_bt_OFFLINE,2022.2.4,60.033283768246825,
0,0,0,1,0,1,0,0,star ,circle,2,0,2,0,3,11,47,10,,,,,,,,,,,,,,,,,,,,,,,,,,,,,,,,,,,,,,,,2181.457274826942,2181.457274826942,2181.457274826942,2181.457274826942,2181.457274826942,2181.457274826942,2181.457274826942,2181.457274826942,2181.457274826942,2181.457274826942,a,0.917147901142016,1,828,2,2182.3928149098065,,2183.908193590818,,,,,,,,,,,,,,,,,,,,,,,,,,,,,,,,,,,,,,,,,,,,,,,,,,,,,,,,,,,,,,,,,,,,,,80052,2022-11-15_10h09.31.025,vts_reward_expectancy_bt_OFFLINE,2022.2.4,60.033283768246825,
,,,,,,,,,,,,,,,,,,0,0,0,0,0,0,0,0,,,,,,,,,,,,,,,,,,,,,,,,,,,,,,,,,,,,,,,,,,,,,,,,,2274.762536033988,,181,U,circle,0.002492960076779127,2270.284106983803,2271.7728018208873,2271.7728018208873,2271.7728018208873,1,0,f,1.4617698399815708,0,2273.2599077590276,,,,,,,,,,,,,,,,,,,,,,,,,,,,,,,,,,,,,,,,,,,,,,,,,,,,,,,80052,2022-11-15_10h09.31.025,vts_reward_expectancy_bt_OFFLINE,2022.2.4,60.033283768246825,
,,,,,,,,,,,,,,,,,,0,0,0,0,1,0,1,0,,,,,,,,,,,,,,,,,,,,,,,,,,,,,,,,,,,,,,,,,,,,,,,,,2279.595827608835,,174,H,triangle,0.0017188801430165768,2275.754842138849,2277.242958674906,2277.242958674906,2277.242958674906,1,0,f,0.8298301741015166,0,2278.0949188959785,,,,,,,,,,,,,,,,,,,,,,,,,,,,,,,,,,,,,,,,,,,,,,,,,,,,,,,80052,2022-11-15_10h09.31.025,vts_reward_expectancy_bt_OFFLINE,2022.2.4,60.033283768246825,
,,,,,,,,,,,,,,,,,,0,0,0,0,2,0,2,0,,,,,,,,,,,,,,,,,,,,,,,,,,,,,,,,,,,,,,,,,,,,,,,,,2284.832809380954,,139,F,hexagon,0.0020312739070504904,2280.5915562089067,2282.07994378102,2282.07994378102,2282.07994378102,1,0,d,1.2236810859758407,0,2283.331972962944,,,,,,,,,,,,,,,,,,,,,,,,,,,,,,,,,,,,,,,,,,,,,,,,,,,,,,,80052,2022-11-15_10h09.31.025,vts_reward_expectancy_bt_OFFLINE,2022.2.4,60.033283768246825,
,,,,,,,,,,,,,,,,,,0,0,0,0,3,0,3,0,,,,,,,,,,,,,,,,,,,,,,,,,,,,,,,,,,,,,,,,,,,,,,,,,2289.919887189986,,160,D,star,0.001764883054420352,2285.8281281560194,2287.317115390906,2287.317115390906,2287.317115390906,1,0,f,1.0837810500524938,0,2288.4195017500315,,,,,,,,,,,,,,,,,,,,,,,,,,,,,,,,,,,,,,,,,,,,,,,,,,,,,,,80052,2022-11-15_10h09.31.025,vts_reward_expectancy_bt_OFFLINE,2022.2.4,60.033283768246825,
,,,,,,,,,,,,,,,,,,0,0,0,0,4,0,4,0,,,,,,,,,,,,,,,,,,,,,,,,,,,,,,,,,,,,,,,,,,,,,,,,,2295.27368420898,,146,Y,hexagon,0.0020527499727904797,2290.9154728199355,2292.4040181660093,2292.4040181660093,2292.4040181660093,1,0,d,1.340954844839871,0,2293.7727734628133,,,,,,,,,,,,,,,,,,,,,,,,,,,,,,,,,,,,,,,,,,,,,,,,,,,,,,,80052,2022-11-15_10h09.31.025,vts_reward_expectancy_bt_OFFLINE,2022.2.4,60.033283768246825,
,,,,,,,,,,,,,,,,,,0,0,0,0,5,0,5,0,,,,,,,,,,,,,,,,,,,,,,,,,,,,,,,,,,,,,,,,,,,,,,,,,2299.91047941288,,125,W,triangle,0.0019789820071309805,2296.269589198986,2297.75763807795,2297.75763807795,2297.75763807795,1,0,d,0.6329090390354395,0,2298.409799569985,,,,,,,,,,,,,,,,,,,,,,,,,,,,,,,,,,,,,,,,,,,,,,,,,,,,,,,80052,2022-11-15_10h09.31.025,vts_reward_expectancy_bt_OFFLINE,2022.2.4,60.033283768246825,
,,,,,,,,,,,,,,,,,,0,0,0,0,6,0,6,0,,,,,,,,,,,,,,,,,,,,,,,,,,,,,,,,,,,,,,,,,,,,,,,,,2304.5473674410023,,167,S,circle,0.002391168149188161,2300.906133785844,2302.3947199939284,2302.3947199939284,2302.3947199939284,1,0,f,0.6208681508433074,0,2303.046642602887,,,,,,,,,,,,,,,,,,,,,,,,,,,,,,,,,,,,,,,,,,,,,,,,,,,,,,,80052,2022-11-15_10h09.31.025,vts_reward_expectancy_bt_OFFLINE,2022.2.4,60.033283768246825,
,,,,,,,,,,,,,,,,,,0,0,0,0,7,0,7,0,,,,,,,,,,,,,,,,,,,,,,,,,,,,,,,,,,,,,,,,,,,,,,,,,2309.2509161368944,,132,B,star,0.0017928739544004202,2305.542944954941,2307.0317072579637,2307.0317072579637,2307.0317072579637,1,0,d,0.6860074319411069,0,2307.749555417802,,,,,,,,,,,,,,,,,,,,,,,,,,,,,,,,,,,,,,,,,,,,,,,,,,,,,,,80052,2022-11-15_10h09.31.025,vts_reward_expectancy_bt_OFFLINE,2022.2.4,60.033283768246825,
,,,,,,,,,,,,,,,,,,0,0,0,0,8,0,8,0,,,,,,,,,,,,,,,,,,,,,,,,,,,,,,,,,,,,,,,,,,,,,,,,,2313.702399721835,,181,U,star,0.0021796829532831907,2310.2458234739024,2311.7350941449404,2311.7350941449404,2311.7350941449404,1,0,f,0.43860017298720777,0,2312.2033231188543,2313.702399721835,,,,,,,,,,,,,,,,,,,,,,,,,,,,,,,,,,,,,,,,,,,,,,,,,,,,,,80052,2022-11-15_10h09.31.025,vts_reward_expectancy_bt_OFFLINE,2022.2.4,60.033283768246825,
,,,,,,,,,,,,,,,,,,0,0,0,0,9,0,9,0,,,,,,,,,,,,,,,,,,,,,,,,,,,,,,,,,,,,,,,,,,,,,,,,,2318.372828269843,2318.883673225995,174,H,circle,0.0019342540763318539,2314.69902473595,2316.18866282003,2316.18866282003,2316.18866282003,1,0,f,0.6641702700871974,0,2316.8736909558065,2318.372828269843,,,,,,,,,,,,,,,,,,,,,,,,,,,,,,,,,,,,,,,,,,,,,,,,,,,,,,80052,2022-11-15_10h09.31.025,vts_reward_expectancy_bt_OFFLINE,2022.2.4,60.033283768246825,
,,,,,,,,,,,,,,,,,,,,,,,,,,0,0,0,0,0,0,0,0,,,,,,,,,,,,,,,,,,,,,,,,,,,,,,,,,,,,,,,,,2348.5278175869025,,132,W,hexagon,0.000687542138621211,,,,,1,0,,,1,2347.012991653988,,2344.5039439038374,2345.993537056027,2345.993537056027,2345.993537056027,k,1.000381818972528,,,,,,,,,,,,,,,,,,,,,,,,,,,,,,,,,,,,,,,,,,,,,,,,80052,2022-11-15_10h09.31.025,vts_reward_expectancy_bt_OFFLINE,2022.2.4,60.033283768246825,
,,,,,,,,,,,,,,,,,,,,,,,,,,0,0,0,0,1,0,1,0,,,,,,,,,,,,,,,,,,,,,,,,,,,,,,,,,,,,,,,,,2353.3983791058417,2353.8984322198667,181,Y,circle,0.01638628006912768,,,,,1,0,,,1,2351.8976511398796,2353.3983791058417,2349.5242102209013,2350.9972650299314,2350.9972650299314,2350.9972650299314,k,0.8683572211302817,,,,,,,,,,,,,,,,,,,,,,,,,,,,,,,,,,,,,,,,,,,,,,,,80052,2022-11-15_10h09.31.025,vts_reward_expectancy_bt_OFFLINE,2022.2.4,60.033283768246825,
,,,,,,,,,,,,,,,,,,,,,,,,,,0,0,0,0,2,0,2,0,,,,,,,,,,,,,,,,,,,,,,,,,,,,,,,,,,,,,,,,,2358.418436844833,,174,H,star,0.014979890082031488,,,,,1,0,,,1,2356.9193022709806,2358.418436844833,2354.411076936871,2355.884354979964,2355.884354979964,2355.884354979964,j,1.0092453539837152,,,,,,,,,,,,,,,,,,,,,,,,,,,,,,,,,,,,,,,,,,,,,,,,80052,2022-11-15_10h09.31.025,vts_reward_expectancy_bt_OFFLINE,2022.2.4,60.033283768246825,
,,,,,,,,,,,,,,,,,,,,,,,,,,0,0,0,0,3,0,3,0,,,,,,,,,,,,,,,,,,,,,,,,,,,,,,,,,,,,,,,,,2363.288564894814,,146,D,triangle,0.00038345810025930405,,,,,1,0,,,1,2361.77371964301,,2359.4146352028474,2360.9045283189043,2360.9045283189043,2360.9045283189043,j,0.8382728090509772,,,,,,,,,,,,,,,,,,,,,,,,,,,,,,,,,,,,,,,,,,,,,,,,80052,2022-11-15_10h09.31.025,vts_reward_expectancy_bt_OFFLINE,2022.2.4,60.033283768246825,
,,,,,,,,,,,,,,,,,,,,,,,,,,0,0,0,0,4,0,4,0,,,,,,,,,,,,,,,,,,,,,,,,,,,,,,,,,,,,,,,,,2368.025371773867,2368.5257906899787,125,B,star,0.01685966900549829,,,,,1,0,,,1,2366.5265649210196,2368.025371773867,2364.2848525249865,2365.7580438498408,2365.7580438498408,2365.7580438498408,j,0.7436304041184485,,,,,,,,,,,,,,,,,,,,,,,,,,,,,,,,,,,,,,,,,,,,,,,,80052,2022-11-15_10h09.31.025,vts_reward_expectancy_bt_OFFLINE,2022.2.4,60.033283768246825,
,,,,,,,,,,,,,,,,,,,,,,,,,,0,0,0,0,5,0,5,0,,,,,,,,,,,,,,,,,,,,,,,,,,,,,,,,,,,,,,,,,2372.745801314013,2373.245878970949,160,U,triangle,0.0005403158720582724,,,,,1,0,,,1,2371.246695884969,2372.745801314013,2369.02129017096,2370.5118677569553,2370.5118677569553,2370.5118677569553,k,0.7039289041422307,,,,,,,,,,,,,,,,,,,,,,,,,,,,,,,,,,,,,,,,,,,,,,,,80052,2022-11-15_10h09.31.025,vts_reward_expectancy_bt_OFFLINE,2022.2.4,60.033283768246825,
,,,,,,,,,,,,,,,,,,,,,,,,,,0,0,0,0,6,0,6,0,,,,,,,,,,,,,,,,,,,,,,,,,,,,,,,,,,,,,,,,,2377.566101287026,,139,F,hexagon,0.0005280859768390656,,,,,1,0,,,1,2376.050627514953,,2373.741801901022,2375.232074694941,2375.232074694941,2375.232074694941,j,0.7990166870877147,,,,,,,,,,,,,,,,,,,,,,,,,,,,,,,,,,,,,,,,,,,,,,,,80052,2022-11-15_10h09.31.025,vts_reward_expectancy_bt_OFFLINE,2022.2.4,60.033283768246825,
,,,,,,,,,,,,,,,,,,,,,,,,,,0,0,0,0,7,0,7,0,,,,,,,,,,,,,,,,,,,,,,,,,,,,,,,,,,,,,,,,,2382.3194509758614,2382.819824115839,167,S,circle,0.016900451853871346,,,,,1,0,,,1,2380.820667081978,2382.3194509758614,2378.5617574369535,2380.0352862318978,2380.0352862318978,2380.0352862318978,k,0.766032133018598,,,,,,,,,,,,,,,,,,,,,,,,,,,,,,,,,,,,,,,,,,,,,,,,80052,2022-11-15_10h09.31.025,vts_reward_expectancy_bt_OFFLINE,2022.2.4,60.033283768246825,
,,,,,,,,,,,,,,,,,,,,,,,,,,0,0,0,0,8,0,8,0,,,,,,,,,,,,,,,,,,,,,,,,,,,,,,,,,,,,,,,,,2387.1395521638915,,132,W,triangle,0.0004158490337431431,,,,,1,0,,,1,2385.6243004438,,2383.3152569418307,2384.805671949871,2384.805671949871,2384.805671949871,k,0.7883261009119451,,,,,,,,,,,,,,,,,,,,,,,,,,,,,,,,,,,,,,,,,,,,,,,,80052,2022-11-15_10h09.31.025,vts_reward_expectancy_bt_OFFLINE,2022.2.4,60.033283768246825,
,,,,,,,,,,,,,,,,,,,,,,,,,,0,0,0,0,9,0,9,0,,,,,,,,,,,,,,,,,,,,,,,,,,,,,,,,,,,,,,,,,2391.893250914989,,181,Y,hexagon,0.016924783820286393,,,,,1,0,,,1,2390.3779030449223,,2388.135523323901,2389.6091610079166,2389.6091610079166,2389.6091610079166,k,0.7438199729658663,,,,,,,,,,,,,,,,,,,,,,,,,,,,,,,,,,,,,,,,,,,,,,,,80052,2022-11-15_10h09.31.025,vts_reward_expectancy_bt_OFFLINE,2022.2.4,60.033283768246825,
,,,,,,,,,,,,,,,,,,,,,,,,,,,,,,,,,,0,0,0,0,0,0,0,0,,,,,,,,,,,,,,,,,,,,,,,,,,,,0,828,,,,2451.853560921969,,181,S,circle,0.0025039841420948505,,,,,1,0,,,2,,,,,,,,,2446.162848589942,2446.162848589942,2446.162848589942,2446.162848589942,2447.650140646845,2447.650140646845,2447.650140646845,2447.650140646845,2447.666873198934,2447.666873198934,2447.666873198934,2447.666873198934,-1,letter,NA,k,2.6691742839757353,vtsPrac,2450.340012129862,,,,,,,,,,,,,,,,,,,,,,,,,,,,,80052,2022-11-15_10h09.31.025,vts_reward_expectancy_bt_OFFLINE,2022.2.4,60.033283768246825,
,,,,,,,,,,,,,,,,,,,,,,,,,,,,,,,,,,0,0,0,0,1,0,1,0,,,,,,,,,,,,,,,,,,,,,,,,,,,,0,828,,,,2458.791327690007,,132,D,star,0.016816973919048905,,,,,1,0,,,2,,,,,,,,,2452.8496809038334,2452.8496809038334,2452.8496809038334,2452.8496809038334,2454.3230297940318,2454.3230297940318,2454.3230297940318,2454.3230297940318,2454.3562032349873,2454.3562032349873,2454.3562032349873,2454.3562032349873,switch,number,numSwt,d,2.925658449996263,vtsPrac,2457.2762397928163,,,,,,,,,,,,,,,,,,,,,,,,,,,,,80052,2022-11-15_10h09.31.025,vts_reward_expectancy_bt_OFFLINE,2022.2.4,60.033283768246825,
,,,,,,,,,,,,,,,,,,,,,,,,,,,,,,,,,,0,0,0,0,2,0,2,0,,,,,,,,,,,,,,,,,,,,,,,,,,,,0,828,,,,2464.1875490299426,,139,U,triangle,0.002020671032369137,,,,,1,0,,,2,,,,,,,,,2459.7721761448774,2459.7721761448774,2459.7721761448774,2459.7721761448774,2461.260622816859,2461.260622816859,2461.260622816859,2461.260622816859,2461.277252244996,2461.277252244996,2461.277252244996,2461.277252244996,switch,letter,lettSwt,k,1.3888159031048417,vtsPrac,2462.679688207805,,,,,,,,,,,,,,,,,,,,,,,,,,,,,80052,2022-11-15_10h09.31.025,vts_reward_expectancy_bt_OFFLINE,2022.2.4,60.033283768246825,
,,,,,,,,,,,,,,,,,,,,,,,,,,,,,,,,,,0,0,0,0,3,0,3,0,,,,,,,,,,,,,,,,,,,,,,,,,,,,0,828,,,,2471.1845705898013,,167,F,star,0.001853455789387226,,,,,-1,0,,,2,,,,,,,,,2465.175867548911,2465.175867548911,2465.175867548911,2465.175867548911,2466.6646245110314,2466.6646245110314,2466.6646245110314,2466.6646245110314,2466.681421905989,2466.681421905989,2466.681421905989,2466.681421905989,switch,no_choice,NA,None,,vtsPrac,2469.670781862922,2469.670781862922,2469.670781862922,2469.670781862922,2469.670781862922,,,,,,,,,,,,,,,,,,,,,,,,,80052,2022-11-15_10h09.31.025,vts_reward_expectancy_bt_OFFLINE,2022.2.4,60.033283768246825,
,,,,,,,,,,,,,,,,,,,,,,,,,,,,,,,,,,0,0,0,0,4,0,4,0,,,,,,,,,,,,,,,,,,,,,,,,,,,,0,828,,,,2476.15492530982,,181,S,triangle,0.006568067008629441,,,,,1,0,,,2,,,,,,,,,2472.180430976907,2472.180430976907,2472.180430976907,2472.180430976907,2473.6685680840164,2473.6685680840164,2473.6685680840164,2473.6685680840164,2473.685421865899,2473.685421865899,2473.685421865899,2473.685421865899,switch,number,numSwt,f,0.9397875941358507,vtsPrac,2474.6408103108406,,,,,,,,,,,,,,,,,,,,,,,,,,,,,80052,2022-11-15_10h09.31.025,vts_reward_expectancy_bt_OFFLINE,2022.2.4,60.033283768246825,
,,,,,,,,,,,,,,,,,,,,,,,,,,,,,,,,,,0,0,0,0,5,0,5,0,,,,,,,,,,,,,,,,,,,,,,,,,,,,0,828,,,,2481.0250936418306,,132,D,circle,0.01676214998587966,,,,,1,0,,,2,,,,,,,,,2477.150657156948,2477.150657156948,2477.150657156948,2477.150657156948,2478.6223724549636,2478.6223724549636,2478.6223724549636,2478.6223724549636,2478.6557802588213,2478.6557802588213,2478.6557802588213,2478.6557802588213,switch,letter,lettSwt,j,0.8688257031608373,vtsPrac,2479.510037516011,,,,,,,,,,,,,,,,,,,,,,,,,,,,,80052,2022-11-15_10h09.31.025,vts_reward_expectancy_bt_OFFLINE,2022.2.4,60.033283768246825,
,,,,,,,,,,,,,,,,,,,,,,,,,,,,,,,,,,0,0,0,0,6,0,6,0,,,,,,,,,,,,,,,,,,,,,,,,,,,,0,828,,,,2486.5455512879416,,139,U,hexagon,0.016660593915730715,,,,,1,0,,,2,,,,,,,,,2482.0208757750224,2482.0208757750224,2482.0208757750224,2482.0208757750224,2483.4925399399363,2483.4925399399363,2483.4925399399363,2483.4925399399363,2483.5261473290157,2483.5261473290157,2483.5261473290157,2483.5261473290157,switch,number,numSwt,d,1.5114996549673378,vtsPrac,2485.0301885029767,,,,,,,,,,,,,,,,,,,,,,,,,,,,,80052,2022-11-15_10h09.31.025,vts_reward_expectancy_bt_OFFLINE,2022.2.4,60.033283768246825,
,,,,,,,,,,,,,,,,,,,,,,,,,,,,,,,,,,0,0,0,0,7,0,7,0,,,,,,,,,,,,,,,,,,,,,,,,,,,,0,828,,,,2491.4660332859494,,167,F,circle,0.00043856981210410595,,,,,1,0,,,2,,,,,,,,,2487.5244394089095,2487.5244394089095,2487.5244394089095,2487.5244394089095,2489.013021052815,2489.013021052815,2489.013021052815,2489.013021052815,2489.029891356826,2489.029891356826,2489.029891356826,2489.029891356826,switch,letter,lettSwt,j,0.9192076299805194,vtsPrac,2489.9508264898323,,,,,,,,,,,,,,,,,,,,,,,,,,,,,80052,2022-11-15_10h09.31.025,vts_reward_expectancy_bt_OFFLINE,2022.2.4,60.033283768246825,
,,,,,,,,,,,,,,,,,,,,,,,,,,,,,,,,,,0,0,0,0,8,0,8,0,,,,,,,,,,,,,,,,,,,,,,,,,,,,0,828,,,,2496.386148029007,,125,U,circle,0.016421904088929296,,,,,1,0,,,2,,,,,,,,,2492.461653877981,2492.461653877981,2492.461653877981,2492.461653877981,2493.933133618906,2493.933133618906,2493.933133618906,2493.933133618906,2493.9666373438668,2493.9666373438668,2493.9666373438668,2493.9666373438668,repeat,letter,lettRpt,k,0.9151672911830246,vtsPrac,2494.8710221089423,,,,,,,,,,,,,,,,,,,,,,,,,,,,,80052,2022-11-15_10h09.31.025,vts_reward_expectancy_bt_OFFLINE,2022.2.4,60.033283768246825,
,,,,,,,,,,,,,,,,,,,,,,,,,,,,,,,,,,0,0,0,0,9,0,9,0,,,,,,,,,,,,,,,,,,,,,,,,,,,,0,828,,,,2501.1229313388467,,181,F,triangle,0.016988910036161542,,,,,1,0,,,2,,,,,,,,,2497.381371534895,2497.381371534895,2497.381371534895,2497.381371534895,2498.8536374438554,2498.8536374438554,2498.8536374438554,2498.8536374438554,2498.887287027901,2498.887287027901,2498.887287027901,2498.887287027901,switch,number,numSwt,f,0.7317193141207099,vtsPrac,2499.607721888926,,,,,,,,,,,,,,,,,,,,,,,,,,,,,80052,2022-11-15_10h09.31.025,vts_reward_expectancy_bt_OFFLINE,2022.2.4,60.033283768246825,
,,,,,,,,,,,,,,,,,,,,,,,,,,,,,,,,,,0,0,0,0,10,0,10,0,,,,,,,,,,,,,,,,,,,,,,,,,,,,0,828,,,,2505.843332231976,,132,B,triangle,0.01689179101958871,,,,,1,0,,,2,,,,,,,,,2502.118882345967,2502.118882345967,2502.118882345967,2502.118882345967,2503.5905226389877,2503.5905226389877,2503.5905226389877,2503.5905226389877,2503.6241236990318,2503.6241236990318,2503.6241236990318,2503.6241236990318,repeat,number,numRpt,d,0.7086535720154643,vtsPrac,2504.3284521489404,,,,,,,,,,,,,,,,,,,,,,,,,,,,,80052,2022-11-15_10h09.31.025,vts_reward_expectancy_bt_OFFLINE,2022.2.4,60.033283768246825,
,,,,,,,,,,,,,,,,,,,,,,,,,,,,,,,,,,0,0,0,0,11,0,11,0,,,,,,,,,,,,,,,,,,,,,,,,,,,,0,828,,,,2510.863643639954,,146,H,circle,0.016581550939008594,,,,,1,0,,,2,,,,,,,,,2506.8393044699915,2506.8393044699915,2506.8393044699915,2506.8393044699915,2508.3110553428996,2508.3110553428996,2508.3110553428996,2508.3110553428996,2508.344373826869,2508.344373826869,2508.344373826869,2508.344373826869,switch,letter,lettSwt,j,1.0054766149260104,vtsPrac,2509.348262268817,,,,,,,,,,,,,,,,,,,,,,,,,,,,,80052,2022-11-15_10h09.31.025,vts_reward_expectancy_bt_OFFLINE,2022.2.4,60.033283768246825,
,,,,,,,,,,,,,,,,,,,,,,,,,,,,,,,,,,0,0,0,0,12,0,12,0,,,,,,,,,,,,,,,,,,,,,,,,,,,,0,828,,,,2515.7005709968507,2516.2005429358687,181,B,star,0.017139364033937454,,,,,1,0,,,2,,,,,,,,,2511.85922735394,2511.85922735394,2511.85922735394,2511.85922735394,2513.3309286218137,2513.3309286218137,2513.3309286218137,2513.3309286218137,2513.3645214908756,2513.3645214908756,2513.3645214908756,2513.3645214908756,switch,number,numSwt,f,0.8351162080653012,vtsPrac,2514.19853838603,,,,,2515.7005709968507,,,,,,,,,,,,,,,,,,,,,,,,80052,2022-11-15_10h09.31.025,vts_reward_expectancy_bt_OFFLINE,2022.2.4,60.033283768246825,
,,,,,,,,,,,,,,,,,,,,,,,,,,,,,,,,,,0,0,0,0,13,0,13,0,,,,,,,,,,,,,,,,,,,,,,,,,,,,0,828,,,,2520.470569461817,2520.9707335378043,132,H,circle,-0.00012214179150760174,,,,,1,0,,,2,,,,,,,,,2516.7079251518007,2516.7079251518007,2516.7079251518007,2516.7079251518007,2518.1847910808865,2518.1847910808865,2518.1847910808865,2518.1847910808865,2518.2182009699754,2518.2182009699754,2518.2182009699754,2518.2182009699754,repeat,number,numRpt,d,0.7514238590374589,vtsPrac,2518.968900049804,,,,,2520.470569461817,,,,,,,,,,,,,,,,,,,,,,,,80052,2022-11-15_10h09.31.025,vts_reward_expectancy_bt_OFFLINE,2022.2.4,60.033283768246825,
,,,,,,,,,,,,,,,,,,,,,,,,,,,,,,,,,,0,0,0,0,14,0,14,0,,,,,,,,,,,,,,,,,,,,,,,,,,,,0,828,,,,2526.341328691924,,160,F,hexagon,-0.00031880009919404984,,,,,1,0,,,2,,,,,,,,,2521.4780905218795,2521.4780905218795,2521.4780905218795,2521.4780905218795,2522.9548418519553,2522.9548418519553,2522.9548418519553,2522.9548418519553,2522.988207435934,2522.988207435934,2522.988207435934,2522.988207435934,repeat,number,numRpt,f,1.8437198740430176,vtsPrac,2524.8261644570157,,,,,,,,,,,,,,,,,,,,,,,,,,,,,80052,2022-11-15_10h09.31.025,vts_reward_expectancy_bt_OFFLINE,2022.2.4,60.033283768246825,
,,,,,,,,,,,,,,,,,,,,,,,,,,,,,,,,,,0,0,0,0,15,0,15,0,,,,,,,,,,,,,,,,,,,,,,,,,,,,0,828,,,,2533.3121551438235,2533.8125015958212,167,U,circle,0.016950268065556884,,,,,-1,0,,,2,,,,,,,,,2527.3369785728864,2527.3369785728864,2527.3369785728864,2527.3369785728864,2528.808666091878,2528.808666091878,2528.808666091878,2528.808666091878,2528.84237018181,2528.84237018181,2528.84237018181,2528.84237018181,switch,no_choice,NA,None,,vtsPrac,2531.8121189358644,2531.8121189358644,2531.8121189358644,2531.8121189358644,2531.8121189358644,2533.3121551438235,,,,,,,,,,,,,,,,,,,,,,,,80052,2022-11-15_10h09.31.025,vts_reward_expectancy_bt_OFFLINE,2022.2.4,60.033283768246825,
,,,,,,,,,,,,,,,,,,,,,,,,,,,,,,,,,,0,0,0,0,16,0,16,0,,,,,,,,,,,,,,,,,,,,,,,,,,,,0,828,,,,2538.2657054909505,,181,H,hexagon,0.004178713075816631,,,,,1,0,,,2,,,,,,,,,2534.3244358159136,2534.3244358159136,2534.3244358159136,2534.3244358159136,2535.815040906891,2535.815040906891,2535.815040906891,2535.815040906891,2535.831734418869,2535.831734418869,2535.831734418869,2535.831734418869,switch,number,numSwt,f,0.9081905838102102,vtsPrac,2536.752013504971,,,,,,,,,,,,,,,,,,,,,,,,,,,,,80052,2022-11-15_10h09.31.025,vts_reward_expectancy_bt_OFFLINE,2022.2.4,60.033283768246825,
,,,,,,,,,,,,,,,,,,,,,,,,,,,,,,,,,,0,0,0,0,17,0,17,0,,,,,,,,,,,,,,,,,,,,,,,,,,,,0,828,,,,2543.836508965818,,160,S,circle,0.0004116480704396963,,,,,1,0,,,2,,,,,,,,,2539.2453598538414,2539.2453598538414,2539.2453598538414,2539.2453598538414,2540.735234238906,2540.735234238906,2540.735234238906,2540.735234238906,2540.7518767078873,2540.7518767078873,2540.7518767078873,2540.7518767078873,repeat,number,numRpt,f,1.5568663228768855,vtsPrac,2542.3213320309296,,,,,,,,,,,,,,,,,,,,,,,,,,,,,80052,2022-11-15_10h09.31.025,vts_reward_expectancy_bt_OFFLINE,2022.2.4,60.033283768246825,
,,,,,,,,,,,,,,,,,,,,,,,,,,,,,,,,,,0,0,0,0,18,0,18,0,,,,,,,,,,,,,,,,,,,,,,,,,,,,0,828,,,,2548.65679338295,,132,B,star,0.001838854979723692,,,,,1,0,,,2,,,,,,,,,2544.8165754328948,2544.8165754328948,2544.8165754328948,2544.8165754328948,2546.3058309529442,2546.3058309529442,2546.3058309529442,2546.3058309529442,2546.3224477928597,2546.3224477928597,2546.3224477928597,2546.3224477928597,repeat,number,numRpt,d,0.8130833581089973,vtsPrac,2547.141524955863,,,,,,,,,,,,,,,,,,,,,,,,,,,,,80052,2022-11-15_10h09.31.025,vts_reward_expectancy_bt_OFFLINE,2022.2.4,60.033283768246825,
,,,,,,,,,,,,,,,,,,,,,,,,,,,,,,,,,,0,0,0,0,19,0,19,0,,,,,,,,,,,,,,,,,,,,,,,,,,,,0,828,,,,2553.593444322003,,174,Y,circle,0.016823902959004045,,,,,1,0,,,2,,,,,,,,,2549.652910031844,2549.652910031844,2549.652910031844,2549.652910031844,2551.1262319879606,2551.1262319879606,2551.1262319879606,2551.1262319879606,2551.159430366941,2551.159430366941,2551.159430366941,2551.159430366941,switch,letter,lettSwt,k,0.9312630388885736,vtsPrac,2552.078429268906,,,,,,,,,,,,,,,,,,,,,,,,,,,,,80052,2022-11-15_10h09.31.025,vts_reward_expectancy_bt_OFFLINE,2022.2.4,60.033283768246825,
,,,,,,,,,,,,,,,,,,,,,,,,,,,,,,,,,,0,0,0,0,20,0,20,0,,,,,,,,,,,,,,,,,,,,,,,,,,,,0,828,,,,2558.4973575908225,,174,Y,hexagon,0.0004980720113962889,,,,,1,0,,,2,,,,,,,,,2554.572592776967,2554.572592776967,2554.572592776967,2554.572592776967,2556.0629989118315,2556.0629989118315,2556.0629989118315,2556.0629989118315,2556.0798324868083,2556.0798324868083,2556.0798324868083,2556.0798324868083,repeat,letter,lettRpt,k,0.9001161579508334,vtsPrac,2556.982405276969,,,,,,,,,,,,,,,,,,,,,,,,,,,,,80052,2022-11-15_10h09.31.025,vts_reward_expectancy_bt_OFFLINE,2022.2.4,60.033283768246825,
,,,,,,,,,,,,,,,,,,,,,,,,,,,,,,,,,,0,0,0,0,21,0,21,0,,,,,,,,,,,,,,,,,,,,,,,,,,,,0,828,,,,2563.1509396058973,,167,H,star,0.016653737984597683,,,,,1,0,,,2,,,,,,,,,2559.493205599021,2559.493205599021,2559.493205599021,2559.493205599021,2560.9666324348655,2560.9666324348655,2560.9666324348655,2560.9666324348655,2561.000091688009,2561.000091688009,2561.000091688009,2561.000091688009,repeat,letter,lettRpt,j,0.642524799099192,vtsPrac,2561.6357914018445,,,,,,,,,,,,,,,,,,,,,,,,,,,,,80052,2022-11-15_10h09.31.025,vts_reward_expectancy_bt_OFFLINE,2022.2.4,60.033283768246825,
,,,,,,,,,,,,,,,,,,,,,,,,,,,,,,,,,,0,0,0,0,22,0,22,0,,,,,,,,,,,,,,,,,,,,,,,,,,,,0,828,,,,2568.2878095158376,,132,S,hexagon,0.016955463914200664,,,,,1,0,,,2,,,,,,,,,2564.146956547862,2564.146956547862,2564.146956547862,2564.146956547862,2565.6201419869903,2565.6201419869903,2565.6201419869903,2565.6201419869903,2565.6534419979434,2565.6534419979434,2565.6534419979434,2565.6534419979434,repeat,letter,lettRpt,k,1.1314436718821526,vtsPrac,2566.7726942838635,,,,,,,,,,,,,,,,,,,,,,,,,,,,,80052,2022-11-15_10h09.31.025,vts_reward_expectancy_bt_OFFLINE,2022.2.4,60.033283768246825,
,,,,,,,,,,,,,,,,,,,,,,,,,,,,,,,,,,0,0,0,0,23,0,23,0,,,,,,,,,,,,,,,,,,,,,,,,,,,,0,828,,,,2573.2914036349393,,125,U,triangle,0.016945695970207453,,,,,1,0,,,2,,,,,,,,,2569.283732791897,2569.283732791897,2569.283732791897,2569.283732791897,2570.757140985923,2570.757140985923,2570.757140985923,2570.757140985923,2570.7905249258038,2570.7905249258038,2570.7905249258038,2570.7905249258038,repeat,letter,lettRpt,k,1.000239857006818,vtsPrac,2571.776573842857,,,,,,,,,,,,,,,,,,,,,,,,,,,,,80052,2022-11-15_10h09.31.025,vts_reward_expectancy_bt_OFFLINE,2022.2.4,60.033283768246825,
