LTriangleOpac,LCircleOpac,LHexagonOpac,LStarOpac,RTriangleOpac,RCircleOpac,RHexagonOpac,RStarOpac,LShape_ID,RShape_ID,training_blocks.thisRepN,training_blocks.thisTrialN,training_blocks.thisN,training_blocks.thisIndex,training.thisRepN,training.thisTrialN,training.thisN,training.thisIndex,task1_prac_redo.thisRepN,task1_prac_redo.thisTrialN,task1_prac_redo.thisN,task1_prac_redo.thisIndex,task1_prac_trials.thisRepN,task1_prac_trials.thisTrialN,task1_prac_trials.thisN,task1_prac_trials.thisIndex,task2_prac_redo.thisRepN,task2_prac_redo.thisTrialN,task2_prac_redo.thisN,task2_prac_redo.thisIndex,task2_praac_trials.thisRepN,task2_praac_trials.thisTrialN,task2_praac_trials.thisN,task2_praac_trials.thisIndex,vts_prac_redo.thisRepN,vts_prac_redo.thisTrialN,vts_prac_redo.thisN,vts_prac_redo.thisIndex,vts_practice_trials.thisRepN,vts_practice_trials.thisTrialN,vts_practice_trials.thisN,vts_practice_trials.thisIndex,trials_norew.thisRepN,trials_norew.thisTrialN,trials_norew.thisN,trials_norew.thisIndex,block.thisRepN,block.thisTrialN,block.thisN,block.thisIndex,trials_rew.thisRepN,trials_rew.thisTrialN,trials_rew.thisN,trials_rew.thisIndex,key_resp.started,key_resp.keys,key_resp.rt,left_circle.started,right_circle.started,left_triangle.started,right_triangle.started,left_star.started,right_star.started,left_hexagon.started,right_hexagon.started,training_fix.started,training_resp.started,training_resp.keys,training_resp.rt,points_trial,points_cumul,trainBlock,training_feedback_txt.started,training_feedback_txt.stopped,fix.started,curr_topStim,curr_bottStim,curr_shape,ISI.started,tgt_fix_prac1.started,top_target_prac1.started,bott_target_prac1.started,target_resp_prac1.started,acc,E1,target_resp_prac1.keys,target_resp_prac1.rt,pracBlock,prac_fback_text.started,tgt_fix_prac2.started,top_target_prac2.started,bott_target_prac2.started,target_resp_prac2.started,top_target_prac2.stopped,tgt_fix_prac2.stopped,bott_target_prac2.stopped,target_resp_prac2.stopped,target_resp_prac2.keys,prac_fback_text.stopped,fix.stopped,target_resp_prac2.rt,star.started,hegagon.started,triangle.started,circle.started,star.stopped,hegagon.stopped,triangle.stopped,circle.stopped,top_target.started,tgt_fix.started,bot_target.started,target_resp.started,alt,task,condition,target_resp.keys,target_resp.rt,rewCond,vts_fback.started,blockNum,norew_fback.started,norew_fback.stopped,key_resp_2.keys,key_resp_2.rt,rewExpectancy,feedbk_text.started,feedbk_text.stopped,text_3.started,debrief.started,text_3.stopped,button.started,debrief.index,debrief.itemText,debrief.type,debrief.granularity,debrief.font,debrief.markerColor,debrief.response,debrief.rt,button.numClicks,button.timesOn,button.timesOff,participant,date,expName,psychopyVersion,frameRate,
,,,,,,,,,,,,,,,,,,,,,,,,,,,,,,,,,,,,,,,,,,,,,,,,,,,,,,323.71966215601424,space,15.172020610974869,,,,,,,,,,,,,,,,,,,,,,,,,,,,,,,,,,,,,,,,,,,,,,,,,,,,,,,,,,,,,,,,,,,,,,,,,,,,,,,,,,,,,,,80700,2022-12-01_08h10.00.849,vts_reward_expectancy_bt_OFFLINE,2022.2.4,59.91531976085079,
0,1,0,0,1,0,0,0,circle,triangle,0,0,0,0,0,0,0,3,,,,,,,,,,,,,,,,,,,,,,,,,,,,,,,,,,,,,,,,361.20137877200614,361.20137877200614,361.20137877200614,361.20137877200614,361.20137877200614,361.20137877200614,361.20137877200614,361.20137877200614,361.20137877200614,361.20137877200614,a,1.5075485419656616,1,1,0,362.7250940010126,364.22681578600896,364.22681578600896,,,,,,,,,,,,,,,,,,,,,,,,,,,,,,,,,,,,,,,,,,,,,,,,,,,,,,,,,,,,,,,,,,,,,80700,2022-12-01_08h10.00.849,vts_reward_expectancy_bt_OFFLINE,2022.2.4,59.91531976085079,
0,0,1,0,0,0,0,1,hexagon,star,0,0,0,0,0,1,1,8,,,,,,,,,,,,,,,,,,,,,,,,,,,,,,,,,,,,,,,,364.72743531200103,364.72743531200103,364.72743531200103,364.72743531200103,364.72743531200103,364.72743531200103,364.72743531200103,364.72743531200103,364.72743531200103,364.72743531200103,l,1.8690948559960816,1,2,0,366.62918117901427,,368.13089496199973,,,,,,,,,,,,,,,,,,,,,,,,,,,,,,,,,,,,,,,,,,,,,,,,,,,,,,,,,,,,,,,,,,,,,80700,2022-12-01_08h10.00.849,vts_reward_expectancy_bt_OFFLINE,2022.2.4,59.91531976085079,
1,0,0,0,0,0,0,1,triangle,star,0,0,0,0,0,2,2,2,,,,,,,,,,,,,,,,,,,,,,,,,,,,,,,,,,,,,,,,368.63156382899615,368.63156382899615,368.63156382899615,368.63156382899615,368.63156382899615,368.63156382899615,368.63156382899615,368.63156382899615,368.63156382899615,368.63156382899615,a,1.8203603149740957,10,12,0,370.48345994600095,,371.98520767100854,,,,,,,,,,,,,,,,,,,,,,,,,,,,,,,,,,,,,,,,,,,,,,,,,,,,,,,,,,,,,,,,,,,,,80700,2022-12-01_08h10.00.849,vts_reward_expectancy_bt_OFFLINE,2022.2.4,59.91531976085079,
0,0,0,1,1,0,0,0,star,triangle,0,0,0,0,0,3,3,9,,,,,,,,,,,,,,,,,,,,,,,,,,,,,,,,,,,,,,,,372.4857732100063,372.4857732100063,372.4857732100063,372.4857732100063,372.4857732100063,372.4857732100063,372.4857732100063,372.4857732100063,372.4857732100063,372.4857732100063,l,1.5579476839920972,10,22,0,374.07086794200586,,375.5724397050217,,,,,,,,,,,,,,,,,,,,,,,,,,,,,,,,,,,,,,,,,,,,,,,,,,,,,,,,,,,,,,,,,,,,,80700,2022-12-01_08h10.00.849,vts_reward_expectancy_bt_OFFLINE,2022.2.4,59.91531976085079,
1,0,0,0,0,0,1,0,triangle,hexagon,0,0,0,0,0,4,4,1,,,,,,,,,,,,,,,,,,,,,,,,,,,,,,,,,,,,,,,,376.07290960202226,376.07290960202226,376.07290960202226,376.07290960202226,376.07290960202226,376.07290960202226,376.07290960202226,376.07290960202226,376.07290960202226,376.07290960202226,a,2.0529017629742157,1,23,0,378.14193790001445,379.643664342002,379.643664342002,,,,,,,,,,,,,,,,,,,,,,,,,,,,,,,,,,,,,,,,,,,,,,,,,,,,,,,,,,,,,,,,,,,,,80700,2022-12-01_08h10.00.849,vts_reward_expectancy_bt_OFFLINE,2022.2.4,59.91531976085079,
0,0,1,0,0,1,0,0,hexagon,circle,0,0,0,0,0,5,5,7,,,,,,,,,,,,,,,,,,,,,,,,,,,,,,,,,,,,,,,,380.1440740370017,380.1440740370017,380.1440740370017,380.1440740370017,380.1440740370017,380.1440740370017,380.1440740370017,380.1440740370017,380.1440740370017,380.1440740370017,a,2.043138844979694,10,33,0,382.21303864900256,,383.7146245240001,,,,,,,,,,,,,,,,,,,,,,,,,,,,,,,,,,,,,,,,,,,,,,,,,,,,,,,,,,,,,,,,,,,,,80700,2022-12-01_08h10.00.849,vts_reward_expectancy_bt_OFFLINE,2022.2.4,59.91531976085079,
0,1,0,0,0,0,0,1,circle,star,0,0,0,0,0,6,6,5,,,,,,,,,,,,,,,,,,,,,,,,,,,,,,,,,,,,,,,,384.21531581602176,384.21531581602176,384.21531581602176,384.21531581602176,384.21531581602176,384.21531581602176,384.21531581602176,384.21531581602176,384.21531581602176,384.21531581602176,a,1.8281521999742836,1,34,0,386.0673628730001,,387.56890633900184,,,,,,,,,,,,,,,,,,,,,,,,,,,,,,,,,,,,,,,,,,,,,,,,,,,,,,,,,,,,,,,,,,,,,80700,2022-12-01_08h10.00.849,vts_reward_expectancy_bt_OFFLINE,2022.2.4,59.91531976085079,
1,0,0,0,0,1,0,0,triangle,circle,0,0,0,0,0,7,7,0,,,,,,,,,,,,,,,,,,,,,,,,,,,,,,,,,,,,,,,,388.069728130009,388.069728130009,388.069728130009,388.069728130009,388.069728130009,388.069728130009,388.069728130009,388.069728130009,388.069728130009,388.069728130009,a,1.4142060699814465,10,44,0,389.5043896709976,,391.0060571100039,,,,,,,,,,,,,,,,,,,,,,,,,,,,,,,,,,,,,,,,,,,,,,,,,,,,,,,,,,,,,,,,,,,,,80700,2022-12-01_08h10.00.849,vts_reward_expectancy_bt_OFFLINE,2022.2.4,59.91531976085079,
0,0,0,1,0,1,0,0,star ,circle,0,0,0,0,0,8,8,10,,,,,,,,,,,,,,,,,,,,,,,,,,,,,,,,,,,,,,,,391.50666253000963,391.50666253000963,391.50666253000963,391.50666253000963,391.50666253000963,391.50666253000963,391.50666253000963,391.50666253000963,391.50666253000963,391.50666253000963,a,1.3689246889844071,10,54,0,392.9081756150117,,394.40981756101246,,,,,,,,,,,,,,,,,,,,,,,,,,,,,,,,,,,,,,,,,,,,,,,,,,,,,,,,,,,,,,,,,,,,,80700,2022-12-01_08h10.00.849,vts_reward_expectancy_bt_OFFLINE,2022.2.4,59.91531976085079,
0,0,1,0,1,0,0,0,hexagon,triangle,0,0,0,0,0,9,9,6,,,,,,,,,,,,,,,,,,,,,,,,,,,,,,,,,,,,,,,,394.9105139540043,394.9105139540043,394.9105139540043,394.9105139540043,394.9105139540043,394.9105139540043,394.9105139540043,394.9105139540043,394.9105139540043,394.9105139540043,l,3.7724321769783273,1,55,0,398.71475647200714,,400.2162377110217,,,,,,,,,,,,,,,,,,,,,,,,,,,,,,,,,,,,,,,,,,,,,,,,,,,,,,,,,,,,,,,,,,,,,80700,2022-12-01_08h10.00.849,vts_reward_expectancy_bt_OFFLINE,2022.2.4,59.91531976085079,
0,0,0,1,0,0,1,0,star,hexagon,0,0,0,0,0,10,10,11,,,,,,,,,,,,,,,,,,,,,,,,,,,,,,,,,,,,,,,,400.7169232760207,400.7169232760207,400.7169232760207,400.7169232760207,400.7169232760207,400.7169232760207,400.7169232760207,400.7169232760207,400.7169232760207,400.7169232760207,l,1.6472458809730597,1,56,0,402.3853948780161,,403.8870336849941,,,,,,,,,,,,,,,,,,,,,,,,,,,,,,,,,,,,,,,,,,,,,,,,,,,,,,,,,,,,,,,,,,,,,80700,2022-12-01_08h10.00.849,vts_reward_expectancy_bt_OFFLINE,2022.2.4,59.91531976085079,
0,1,0,0,0,0,1,0,circle,hexagon,0,0,0,0,0,11,11,4,,,,,,,,,,,,,,,,,,,,,,,,,,,,,,,,,,,,,,,,404.38756921500317,404.38756921500317,404.38756921500317,404.38756921500317,404.38756921500317,404.38756921500317,404.38756921500317,404.38756921500317,404.38756921500317,404.38756921500317,l,1.2959734739852138,10,66,0,405.70563749500434,,407.20717910301755,,,,,,,,,,,,,,,,,,,,,,,,,,,,,,,,,,,,,,,,,,,,,,,,,,,,,,,,,,,,,,,,,,,,,80700,2022-12-01_08h10.00.849,vts_reward_expectancy_bt_OFFLINE,2022.2.4,59.91531976085079,
0,0,1,0,1,0,0,0,hexagon,triangle,0,0,0,0,1,0,12,6,,,,,,,,,,,,,,,,,,,,,,,,,,,,,,,,,,,,,,,,407.7079503440182,407.7079503440182,407.7079503440182,407.7079503440182,407.7079503440182,407.7079503440182,407.7079503440182,407.7079503440182,407.7079503440182,407.7079503440182,a,1.9531824069854338,10,76,0,409.6934622580011,,411.1950373680156,,,,,,,,,,,,,,,,,,,,,,,,,,,,,,,,,,,,,,,,,,,,,,,,,,,,,,,,,,,,,,,,,,,,,80700,2022-12-01_08h10.00.849,vts_reward_expectancy_bt_OFFLINE,2022.2.4,59.91531976085079,
0,0,1,0,0,0,0,1,hexagon,star,0,0,0,0,1,1,13,8,,,,,,,,,,,,,,,,,,,,,,,,,,,,,,,,,,,,,,,,411.6956579470134,411.6956579470134,411.6956579470134,411.6956579470134,411.6956579470134,411.6956579470134,411.6956579470134,411.6956579470134,411.6956579470134,411.6956579470134,a,0.8754748970095534,1,77,0,412.5967129950004,,414.0982776780147,,,,,,,,,,,,,,,,,,,,,,,,,,,,,,,,,,,,,,,,,,,,,,,,,,,,,,,,,,,,,,,,,,,,,80700,2022-12-01_08h10.00.849,vts_reward_expectancy_bt_OFFLINE,2022.2.4,59.91531976085079,
1,0,0,0,0,0,0,1,triangle,star,0,0,0,0,1,2,14,2,,,,,,,,,,,,,,,,,,,,,,,,,,,,,,,,,,,,,,,,414.5991195710085,414.5991195710085,414.5991195710085,414.5991195710085,414.5991195710085,414.5991195710085,414.5991195710085,414.5991195710085,414.5991195710085,414.5991195710085,l,0.9804062609910034,1,78,0,415.600056847994,,417.10167760800687,,,,,,,,,,,,,,,,,,,,,,,,,,,,,,,,,,,,,,,,,,,,,,,,,,,,,,,,,,,,,,,,,,,,,80700,2022-12-01_08h10.00.849,vts_reward_expectancy_bt_OFFLINE,2022.2.4,59.91531976085079,
0,0,1,0,0,1,0,0,hexagon,circle,0,0,0,0,1,3,15,7,,,,,,,,,,,,,,,,,,,,,,,,,,,,,,,,,,,,,,,,417.6021699330013,417.6021699330013,417.6021699330013,417.6021699330013,417.6021699330013,417.6021699330013,417.6021699330013,417.6021699330013,417.6021699330013,417.6021699330013,a,1.3376127849915065,1,79,0,418.9704506120179,,420.47205098101404,,,,,,,,,,,,,,,,,,,,,,,,,,,,,,,,,,,,,,,,,,,,,,,,,,,,,,,,,,,,,,,,,,,,,80700,2022-12-01_08h10.00.849,vts_reward_expectancy_bt_OFFLINE,2022.2.4,59.91531976085079,
0,0,0,1,0,0,1,0,star,hexagon,0,0,0,0,1,4,16,11,,,,,,,,,,,,,,,,,,,,,,,,,,,,,,,,,,,,,,,,420.9727553950215,420.9727553950215,420.9727553950215,420.9727553950215,420.9727553950215,420.9727553950215,420.9727553950215,420.9727553950215,420.9727553950215,420.9727553950215,a,1.7685926569974981,1,80,0,422.7579668260005,,424.2596829760005,,,,,,,,,,,,,,,,,,,,,,,,,,,,,,,,,,,,,,,,,,,,,,,,,,,,,,,,,,,,,,,,,,,,,80700,2022-12-01_08h10.00.849,vts_reward_expectancy_bt_OFFLINE,2022.2.4,59.91531976085079,
0,0,0,1,0,1,0,0,star ,circle,0,0,0,0,1,5,17,10,,,,,,,,,,,,,,,,,,,,,,,,,,,,,,,,,,,,,,,,424.7600685090001,424.7600685090001,424.7600685090001,424.7600685090001,424.7600685090001,424.7600685090001,424.7600685090001,424.7600685090001,424.7600685090001,424.7600685090001,a,1.5868206249724608,1,81,0,426.37855421501445,,427.88037523199455,,,,,,,,,,,,,,,,,,,,,,,,,,,,,,,,,,,,,,,,,,,,,,,,,,,,,,,,,,,,,,,,,,,,,80700,2022-12-01_08h10.00.849,vts_reward_expectancy_bt_OFFLINE,2022.2.4,59.91531976085079,
1,0,0,0,0,0,1,0,triangle,hexagon,0,0,0,0,1,6,18,1,,,,,,,,,,,,,,,,,,,,,,,,,,,,,,,,,,,,,,,,428.380860314006,428.380860314006,428.380860314006,428.380860314006,428.380860314006,428.380860314006,428.380860314006,428.380860314006,428.380860314006,428.380860314006,l,2.510523570992518,10,91,0,430.91677990101743,,432.4184842870163,,,,,,,,,,,,,,,,,,,,,,,,,,,,,,,,,,,,,,,,,,,,,,,,,,,,,,,,,,,,,,,,,,,,,80700,2022-12-01_08h10.00.849,vts_reward_expectancy_bt_OFFLINE,2022.2.4,59.91531976085079,
0,1,0,0,0,0,0,1,circle,star,0,0,0,0,1,7,19,5,,,,,,,,,,,,,,,,,,,,,,,,,,,,,,,,,,,,,,,,432.9191677000199,432.9191677000199,432.9191677000199,432.9191677000199,432.9191677000199,432.9191677000199,432.9191677000199,432.9191677000199,432.9191677000199,432.9191677000199,l,2.51662586996099,1,92,0,435.45531111600576,,436.95678071901784,,,,,,,,,,,,,,,,,,,,,,,,,,,,,,,,,,,,,,,,,,,,,,,,,,,,,,,,,,,,,,,,,,,,,80700,2022-12-01_08h10.00.849,vts_reward_expectancy_bt_OFFLINE,2022.2.4,59.91531976085079,
0,0,0,1,1,0,0,0,star,triangle,0,0,0,0,1,8,20,9,,,,,,,,,,,,,,,,,,,,,,,,,,,,,,,,,,,,,,,,437.4574827880133,437.4574827880133,437.4574827880133,437.4574827880133,437.4574827880133,437.4574827880133,437.4574827880133,437.4574827880133,437.4574827880133,437.4574827880133,a,2.138337958982447,10,102,0,439.6265472290106,,441.12807270901976,,,,,,,,,,,,,,,,,,,,,,,,,,,,,,,,,,,,,,,,,,,,,,,,,,,,,,,,,,,,,,,,,,,,,80700,2022-12-01_08h10.00.849,vts_reward_expectancy_bt_OFFLINE,2022.2.4,59.91531976085079,
0,1,0,0,1,0,0,0,circle,triangle,0,0,0,0,1,9,21,3,,,,,,,,,,,,,,,,,,,,,,,,,,,,,,,,,,,,,,,,441.6288074119948,441.6288074119948,441.6288074119948,441.6288074119948,441.6288074119948,441.6288074119948,441.6288074119948,441.6288074119948,441.6288074119948,441.6288074119948,a,1.5751617639907636,10,112,0,443.23075126000913,,444.7321486590081,,,,,,,,,,,,,,,,,,,,,,,,,,,,,,,,,,,,,,,,,,,,,,,,,,,,,,,,,,,,,,,,,,,,,80700,2022-12-01_08h10.00.849,vts_reward_expectancy_bt_OFFLINE,2022.2.4,59.91531976085079,
0,1,0,0,0,0,1,0,circle,hexagon,0,0,0,0,1,10,22,4,,,,,,,,,,,,,,,,,,,,,,,,,,,,,,,,,,,,,,,,445.2331329070148,445.2331329070148,445.2331329070148,445.2331329070148,445.2331329070148,445.2331329070148,445.2331329070148,445.2331329070148,445.2331329070148,445.2331329070148,l,1.5154578200017568,10,122,0,446.76766541501274,,448.26938997700927,,,,,,,,,,,,,,,,,,,,,,,,,,,,,,,,,,,,,,,,,,,,,,,,,,,,,,,,,,,,,,,,,,,,,80700,2022-12-01_08h10.00.849,vts_reward_expectancy_bt_OFFLINE,2022.2.4,59.91531976085079,
1,0,0,0,0,1,0,0,triangle,circle,0,0,0,0,1,11,23,0,,,,,,,,,,,,,,,,,,,,,,,,,,,,,,,,,,,,,,,,448.77029047801625,448.77029047801625,448.77029047801625,448.77029047801625,448.77029047801625,448.77029047801625,448.77029047801625,448.77029047801625,448.77029047801625,448.77029047801625,l,1.344937157962704,1,123,0,450.13825460200314,,451.63989017900894,,,,,,,,,,,,,,,,,,,,,,,,,,,,,,,,,,,,,,,,,,,,,,,,,,,,,,,,,,,,,,,,,,,,,80700,2022-12-01_08h10.00.849,vts_reward_expectancy_bt_OFFLINE,2022.2.4,59.91531976085079,
1,0,0,0,0,0,0,1,triangle,star,0,0,0,0,2,0,24,2,,,,,,,,,,,,,,,,,,,,,,,,,,,,,,,,,,,,,,,,452.14033404699876,452.14033404699876,452.14033404699876,452.14033404699876,452.14033404699876,452.14033404699876,452.14033404699876,452.14033404699876,452.14033404699876,452.14033404699876,l,1.3849959479703102,10,133,0,453.54197458102135,,455.0436512409942,,,,,,,,,,,,,,,,,,,,,,,,,,,,,,,,,,,,,,,,,,,,,,,,,,,,,,,,,,,,,,,,,,,,,80700,2022-12-01_08h10.00.849,vts_reward_expectancy_bt_OFFLINE,2022.2.4,59.91531976085079,
0,0,0,1,0,1,0,0,star ,circle,0,0,0,0,2,1,25,10,,,,,,,,,,,,,,,,,,,,,,,,,,,,,,,,,,,,,,,,455.54446994900354,455.54446994900354,455.54446994900354,455.54446994900354,455.54446994900354,455.54446994900354,455.54446994900354,455.54446994900354,455.54446994900354,455.54446994900354,a,1.1474035259743687,10,143,0,456.712029464019,,458.2138002180145,,,,,,,,,,,,,,,,,,,,,,,,,,,,,,,,,,,,,,,,,,,,,,,,,,,,,,,,,,,,,,,,,,,,,80700,2022-12-01_08h10.00.849,vts_reward_expectancy_bt_OFFLINE,2022.2.4,59.91531976085079,
1,0,0,0,0,1,0,0,triangle,circle,0,0,0,0,2,2,26,0,,,,,,,,,,,,,,,,,,,,,,,,,,,,,,,,,,,,,,,,458.7142311320058,458.7142311320058,458.7142311320058,458.7142311320058,458.7142311320058,458.7142311320058,458.7142311320058,458.7142311320058,458.7142311320058,458.7142311320058,a,0.8575484359753318,10,153,0,459.59864688501693,,461.1003855430172,,,,,,,,,,,,,,,,,,,,,,,,,,,,,,,,,,,,,,,,,,,,,,,,,,,,,,,,,,,,,,,,,,,,,80700,2022-12-01_08h10.00.849,vts_reward_expectancy_bt_OFFLINE,2022.2.4,59.91531976085079,
0,0,1,0,1,0,0,0,hexagon,triangle,0,0,0,0,2,3,27,6,,,,,,,,,,,,,,,,,,,,,,,,,,,,,,,,,,,,,,,,461.6008154230076,461.6008154230076,461.6008154230076,461.6008154230076,461.6008154230076,461.6008154230076,461.6008154230076,461.6008154230076,461.6008154230076,461.6008154230076,a,1.6742394629691262,10,163,0,463.30262953901547,,464.80431348001,,,,,,,,,,,,,,,,,,,,,,,,,,,,,,,,,,,,,,,,,,,,,,,,,,,,,,,,,,,,,,,,,,,,,80700,2022-12-01_08h10.00.849,vts_reward_expectancy_bt_OFFLINE,2022.2.4,59.91531976085079,
0,0,1,0,0,1,0,0,hexagon,circle,0,0,0,0,2,4,28,7,,,,,,,,,,,,,,,,,,,,,,,,,,,,,,,,,,,,,,,,465.3047890950111,465.3047890950111,465.3047890950111,465.3047890950111,465.3047890950111,465.3047890950111,465.3047890950111,465.3047890950111,465.3047890950111,465.3047890950111,a,1.8112413649796508,10,173,0,467.1402527000173,,468.64208775400766,,,,,,,,,,,,,,,,,,,,,,,,,,,,,,,,,,,,,,,,,,,,,,,,,,,,,,,,,,,,,,,,,,,,,80700,2022-12-01_08h10.00.849,vts_reward_expectancy_bt_OFFLINE,2022.2.4,59.91531976085079,
0,1,0,0,0,0,1,0,circle,hexagon,0,0,0,0,2,5,29,4,,,,,,,,,,,,,,,,,,,,,,,,,,,,,,,,,,,,,,,,469.14265247702133,469.14265247702133,469.14265247702133,469.14265247702133,469.14265247702133,469.14265247702133,469.14265247702133,469.14265247702133,469.14265247702133,469.14265247702133,l,1.5184931279800367,10,183,0,470.6773983600142,,472.17920144600794,,,,,,,,,,,,,,,,,,,,,,,,,,,,,,,,,,,,,,,,,,,,,,,,,,,,,,,,,,,,,,,,,,,,,80700,2022-12-01_08h10.00.849,vts_reward_expectancy_bt_OFFLINE,2022.2.4,59.91531976085079,
0,0,0,1,0,0,1,0,star,hexagon,0,0,0,0,2,6,30,11,,,,,,,,,,,,,,,,,,,,,,,,,,,,,,,,,,,,,,,,472.6796065290109,472.6796065290109,472.6796065290109,472.6796065290109,472.6796065290109,472.6796065290109,472.6796065290109,472.6796065290109,472.6796065290109,472.6796065290109,a,1.117636834969744,1,184,0,473.81441126100253,,475.31587053401745,,,,,,,,,,,,,,,,,,,,,,,,,,,,,,,,,,,,,,,,,,,,,,,,,,,,,,,,,,,,,,,,,,,,,80700,2022-12-01_08h10.00.849,vts_reward_expectancy_bt_OFFLINE,2022.2.4,59.91531976085079,
0,0,0,1,1,0,0,0,star,triangle,0,0,0,0,2,7,31,9,,,,,,,,,,,,,,,,,,,,,,,,,,,,,,,,,,,,,,,,475.8162630230072,475.8162630230072,475.8162630230072,475.8162630230072,475.8162630230072,475.8162630230072,475.8162630230072,475.8162630230072,475.8162630230072,475.8162630230072,a,1.39563756599091,1,185,0,477.2345874920138,,478.73614662501495,,,,,,,,,,,,,,,,,,,,,,,,,,,,,,,,,,,,,,,,,,,,,,,,,,,,,,,,,,,,,,,,,,,,,80700,2022-12-01_08h10.00.849,vts_reward_expectancy_bt_OFFLINE,2022.2.4,59.91531976085079,
0,1,0,0,0,0,0,1,circle,star,0,0,0,0,2,8,32,5,,,,,,,,,,,,,,,,,,,,,,,,,,,,,,,,,,,,,,,,479.2367856860219,479.2367856860219,479.2367856860219,479.2367856860219,479.2367856860219,479.2367856860219,479.2367856860219,479.2367856860219,479.2367856860219,479.2367856860219,l,1.8476876099884976,10,195,0,481.1055243970186,,482.60724548000144,,,,,,,,,,,,,,,,,,,,,,,,,,,,,,,,,,,,,,,,,,,,,,,,,,,,,,,,,,,,,,,,,,,,,80700,2022-12-01_08h10.00.849,vts_reward_expectancy_bt_OFFLINE,2022.2.4,59.91531976085079,
0,0,1,0,0,0,0,1,hexagon,star,0,0,0,0,2,9,33,8,,,,,,,,,,,,,,,,,,,,,,,,,,,,,,,,,,,,,,,,483.1079572059971,483.1079572059971,483.1079572059971,483.1079572059971,483.1079572059971,483.1079572059971,483.1079572059971,483.1079572059971,483.1079572059971,483.1079572059971,l,1.3524741099972744,1,196,0,484.4927861400065,,485.9944275080052,,,,,,,,,,,,,,,,,,,,,,,,,,,,,,,,,,,,,,,,,,,,,,,,,,,,,,,,,,,,,,,,,,,,,80700,2022-12-01_08h10.00.849,vts_reward_expectancy_bt_OFFLINE,2022.2.4,59.91531976085079,
0,1,0,0,1,0,0,0,circle,triangle,0,0,0,0,2,10,34,3,,,,,,,,,,,,,,,,,,,,,,,,,,,,,,,,,,,,,,,,486.4948231980088,486.4948231980088,486.4948231980088,486.4948231980088,486.4948231980088,486.4948231980088,486.4948231980088,486.4948231980088,486.4948231980088,486.4948231980088,a,2.5650161359808408,1,197,0,489.0811670520052,,490.5826714760042,,,,,,,,,,,,,,,,,,,,,,,,,,,,,,,,,,,,,,,,,,,,,,,,,,,,,,,,,,,,,,,,,,,,,80700,2022-12-01_08h10.00.849,vts_reward_expectancy_bt_OFFLINE,2022.2.4,59.91531976085079,
1,0,0,0,0,0,1,0,triangle,hexagon,0,0,0,0,2,11,35,1,,,,,,,,,,,,,,,,,,,,,,,,,,,,,,,,,,,,,,,,491.083249214018,491.083249214018,491.083249214018,491.083249214018,491.083249214018,491.083249214018,491.083249214018,491.083249214018,491.083249214018,491.083249214018,l,1.720486729987897,1,198,0,492.83514690599986,,494.33677262900164,,,,,,,,,,,,,,,,,,,,,,,,,,,,,,,,,,,,,,,,,,,,,,,,,,,,,,,,,,,,,,,,,,,,,80700,2022-12-01_08h10.00.849,vts_reward_expectancy_bt_OFFLINE,2022.2.4,59.91531976085079,
1,0,0,0,0,0,1,0,triangle,hexagon,0,0,0,0,3,0,36,1,,,,,,,,,,,,,,,,,,,,,,,,,,,,,,,,,,,,,,,,494.83737364099943,494.83737364099943,494.83737364099943,494.83737364099943,494.83737364099943,494.83737364099943,494.83737364099943,494.83737364099943,494.83737364099943,494.83737364099943,l,1.9266364779905416,10,208,0,496.7895675150212,,498.29121830200893,,,,,,,,,,,,,,,,,,,,,,,,,,,,,,,,,,,,,,,,,,,,,,,,,,,,,,,,,,,,,,,,,,,,,80700,2022-12-01_08h10.00.849,vts_reward_expectancy_bt_OFFLINE,2022.2.4,59.91531976085079,
0,1,0,0,0,0,1,0,circle,hexagon,0,0,0,0,3,1,37,4,,,,,,,,,,,,,,,,,,,,,,,,,,,,,,,,,,,,,,,,498.79177088901633,498.79177088901633,498.79177088901633,498.79177088901633,498.79177088901633,498.79177088901633,498.79177088901633,498.79177088901633,498.79177088901633,498.79177088901633,l,2.5954217379912734,10,218,0,501.41119527001865,,502.9129596390121,,,,,,,,,,,,,,,,,,,,,,,,,,,,,,,,,,,,,,,,,,,,,,,,,,,,,,,,,,,,,,,,,,,,,80700,2022-12-01_08h10.00.849,vts_reward_expectancy_bt_OFFLINE,2022.2.4,59.91531976085079,
1,0,0,0,0,0,0,1,triangle,star,0,0,0,0,3,2,38,2,,,,,,,,,,,,,,,,,,,,,,,,,,,,,,,,,,,,,,,,503.41344787200796,503.41344787200796,503.41344787200796,503.41344787200796,503.41344787200796,503.41344787200796,503.41344787200796,503.41344787200796,503.41344787200796,503.41344787200796,l,1.935908319981536,1,219,0,505.36570778200985,,506.8672721470066,,,,,,,,,,,,,,,,,,,,,,,,,,,,,,,,,,,,,,,,,,,,,,,,,,,,,,,,,,,,,,,,,,,,,80700,2022-12-01_08h10.00.849,vts_reward_expectancy_bt_OFFLINE,2022.2.4,59.91531976085079,
0,0,0,1,0,0,1,0,star,hexagon,0,0,0,0,3,3,39,11,,,,,,,,,,,,,,,,,,,,,,,,,,,,,,,,,,,,,,,,507.36797800302156,507.36797800302156,507.36797800302156,507.36797800302156,507.36797800302156,507.36797800302156,507.36797800302156,507.36797800302156,507.36797800302156,507.36797800302156,l,2.86862127497443,1,220,0,510.25438771399786,,511.75602124701254,,,,,,,,,,,,,,,,,,,,,,,,,,,,,,,,,,,,,,,,,,,,,,,,,,,,,,,,,,,,,,,,,,,,,80700,2022-12-01_08h10.00.849,vts_reward_expectancy_bt_OFFLINE,2022.2.4,59.91531976085079,
0,0,0,1,1,0,0,0,star,triangle,0,0,0,0,3,4,40,9,,,,,,,,,,,,,,,,,,,,,,,,,,,,,,,,,,,,,,,,512.256661855994,512.256661855994,512.256661855994,512.256661855994,512.256661855994,512.256661855994,512.256661855994,512.256661855994,512.256661855994,512.256661855994,l,3.082962377986405,10,230,0,515.3599872470077,,516.8616945980175,,,,,,,,,,,,,,,,,,,,,,,,,,,,,,,,,,,,,,,,,,,,,,,,,,,,,,,,,,,,,,,,,,,,,80700,2022-12-01_08h10.00.849,vts_reward_expectancy_bt_OFFLINE,2022.2.4,59.91531976085079,
0,0,1,0,1,0,0,0,hexagon,triangle,0,0,0,0,3,5,41,6,,,,,,,,,,,,,,,,,,,,,,,,,,,,,,,,,,,,,,,,517.3622807080101,517.3622807080101,517.3622807080101,517.3622807080101,517.3622807080101,517.3622807080101,517.3622807080101,517.3622807080101,517.3622807080101,517.3622807080101,a,1.185512325988384,10,240,0,518.580231666012,,520.0821137000166,,,,,,,,,,,,,,,,,,,,,,,,,,,,,,,,,,,,,,,,,,,,,,,,,,,,,,,,,,,,,,,,,,,,,80700,2022-12-01_08h10.00.849,vts_reward_expectancy_bt_OFFLINE,2022.2.4,59.91531976085079,
0,1,0,0,1,0,0,0,circle,triangle,0,0,0,0,3,6,42,3,,,,,,,,,,,,,,,,,,,,,,,,,,,,,,,,,,,,,,,,520.5825052540167,520.5825052540167,520.5825052540167,520.5825052540167,520.5825052540167,520.5825052540167,520.5825052540167,520.5825052540167,520.5825052540167,520.5825052540167,l,3.0866650459647644,1,241,0,523.6859176309954,,525.1876032870205,,,,,,,,,,,,,,,,,,,,,,,,,,,,,,,,,,,,,,,,,,,,,,,,,,,,,,,,,,,,,,,,,,,,,80700,2022-12-01_08h10.00.849,vts_reward_expectancy_bt_OFFLINE,2022.2.4,59.91531976085079,
0,0,1,0,0,1,0,0,hexagon,circle,0,0,0,0,3,7,43,7,,,,,,,,,,,,,,,,,,,,,,,,,,,,,,,,,,,,,,,,525.6884098949959,525.6884098949959,525.6884098949959,525.6884098949959,525.6884098949959,525.6884098949959,525.6884098949959,525.6884098949959,525.6884098949959,525.6884098949959,a,1.7712500529596582,10,251,0,527.490321463003,,528.991831324005,,,,,,,,,,,,,,,,,,,,,,,,,,,,,,,,,,,,,,,,,,,,,,,,,,,,,,,,,,,,,,,,,,,,,80700,2022-12-01_08h10.00.849,vts_reward_expectancy_bt_OFFLINE,2022.2.4,59.91531976085079,
0,1,0,0,0,0,0,1,circle,star,0,0,0,0,3,8,44,5,,,,,,,,,,,,,,,,,,,,,,,,,,,,,,,,,,,,,,,,529.4923390200129,529.4923390200129,529.4923390200129,529.4923390200129,529.4923390200129,529.4923390200129,529.4923390200129,529.4923390200129,529.4923390200129,529.4923390200129,l,2.808404144976521,1,252,0,532.3286532960192,,533.8303933709976,,,,,,,,,,,,,,,,,,,,,,,,,,,,,,,,,,,,,,,,,,,,,,,,,,,,,,,,,,,,,,,,,,,,,80700,2022-12-01_08h10.00.849,vts_reward_expectancy_bt_OFFLINE,2022.2.4,59.91531976085079,
0,0,0,1,0,1,0,0,star ,circle,0,0,0,0,3,9,45,10,,,,,,,,,,,,,,,,,,,,,,,,,,,,,,,,,,,,,,,,534.3310746240022,534.3310746240022,534.3310746240022,534.3310746240022,534.3310746240022,534.3310746240022,534.3310746240022,534.3310746240022,534.3310746240022,534.3310746240022,a,1.2970738359726965,1,253,0,535.6491970719944,,537.1509381369979,,,,,,,,,,,,,,,,,,,,,,,,,,,,,,,,,,,,,,,,,,,,,,,,,,,,,,,,,,,,,,,,,,,,,80700,2022-12-01_08h10.00.849,vts_reward_expectancy_bt_OFFLINE,2022.2.4,59.91531976085079,
0,0,1,0,0,0,0,1,hexagon,star,0,0,0,0,3,10,46,8,,,,,,,,,,,,,,,,,,,,,,,,,,,,,,,,,,,,,,,,537.6516888879996,537.6516888879996,537.6516888879996,537.6516888879996,537.6516888879996,537.6516888879996,537.6516888879996,537.6516888879996,537.6516888879996,537.6516888879996,a,1.0643340709793847,10,263,0,538.7359328260063,,540.237739862001,,,,,,,,,,,,,,,,,,,,,,,,,,,,,,,,,,,,,,,,,,,,,,,,,,,,,,,,,,,,,,,,,,,,,80700,2022-12-01_08h10.00.849,vts_reward_expectancy_bt_OFFLINE,2022.2.4,59.91531976085079,
1,0,0,0,0,1,0,0,triangle,circle,0,0,0,0,3,11,47,0,,,,,,,,,,,,,,,,,,,,,,,,,,,,,,,,,,,,,,,,540.738092234009,540.738092234009,540.738092234009,540.738092234009,540.738092234009,540.738092234009,540.738092234009,540.738092234009,540.738092234009,540.738092234009,a,1.5694513289781753,1,264,0,542.3397087010089,,543.8414783519984,,,,,,,,,,,,,,,,,,,,,,,,,,,,,,,,,,,,,,,,,,,,,,,,,,,,,,,,,,,,,,,,,,,,,80700,2022-12-01_08h10.00.849,vts_reward_expectancy_bt_OFFLINE,2022.2.4,59.91531976085079,
0,1,0,0,1,0,0,0,circle,triangle,1,0,1,0,0,0,0,3,,,,,,,,,,,,,,,,,,,,,,,,,,,,,,,,,,,,,,,,548.7352338210039,548.7352338210039,548.7352338210039,548.7352338210039,548.7352338210039,548.7352338210039,548.7352338210039,548.7352338210039,548.7352338210039,548.7352338210039,a,1.6531492149806581,1,265,1,550.4152968630078,,551.9170053419948,,,,,,,,,,,,,,,,,,,,,,,,,,,,,,,,,,,,,,,,,,,,,,,,,,,,,,,,,,,,,,,,,,,,,80700,2022-12-01_08h10.00.849,vts_reward_expectancy_bt_OFFLINE,2022.2.4,59.91531976085079,
0,0,1,0,1,0,0,0,hexagon,triangle,1,0,1,0,0,1,1,6,,,,,,,,,,,,,,,,,,,,,,,,,,,,,,,,,,,,,,,,552.4177703800087,552.4177703800087,552.4177703800087,552.4177703800087,552.4177703800087,552.4177703800087,552.4177703800087,552.4177703800087,552.4177703800087,552.4177703800087,a,1.042059347993927,1,266,1,553.4854239020206,,554.9871649790148,,,,,,,,,,,,,,,,,,,,,,,,,,,,,,,,,,,,,,,,,,,,,,,,,,,,,,,,,,,,,,,,,,,,,80700,2022-12-01_08h10.00.849,vts_reward_expectancy_bt_OFFLINE,2022.2.4,59.91531976085079,
0,0,0,1,1,0,0,0,star,triangle,1,0,1,0,0,2,2,9,,,,,,,,,,,,,,,,,,,,,,,,,,,,,,,,,,,,,,,,555.4875705979939,555.4875705979939,555.4875705979939,555.4875705979939,555.4875705979939,555.4875705979939,555.4875705979939,555.4875705979939,555.4875705979939,555.4875705979939,a,1.4763703659991734,1,267,1,556.9895012680208,,558.490900741017,,,,,,,,,,,,,,,,,,,,,,,,,,,,,,,,,,,,,,,,,,,,,,,,,,,,,,,,,,,,,,,,,,,,,80700,2022-12-01_08h10.00.849,vts_reward_expectancy_bt_OFFLINE,2022.2.4,59.91531976085079,
0,0,1,0,0,0,0,1,hexagon,star,1,0,1,0,0,3,3,8,,,,,,,,,,,,,,,,,,,,,,,,,,,,,,,,,,,,,,,,558.9915769619984,558.9915769619984,558.9915769619984,558.9915769619984,558.9915769619984,558.9915769619984,558.9915769619984,558.9915769619984,558.9915769619984,558.9915769619984,l,1.1409938400029205,1,268,1,560.1593919210136,,561.6610752670094,,,,,,,,,,,,,,,,,,,,,,,,,,,,,,,,,,,,,,,,,,,,,,,,,,,,,,,,,,,,,,,,,,,,,80700,2022-12-01_08h10.00.849,vts_reward_expectancy_bt_OFFLINE,2022.2.4,59.91531976085079,
1,0,0,0,0,0,1,0,triangle,hexagon,1,0,1,0,0,4,4,1,,,,,,,,,,,,,,,,,,,,,,,,,,,,,,,,,,,,,,,,562.1616054619954,562.1616054619954,562.1616054619954,562.1616054619954,562.1616054619954,562.1616054619954,562.1616054619954,562.1616054619954,562.1616054619954,562.1616054619954,l,1.2101238719769754,10,278,1,563.3964385120198,,564.8980082280177,,,,,,,,,,,,,,,,,,,,,,,,,,,,,,,,,,,,,,,,,,,,,,,,,,,,,,,,,,,,,,,,,,,,,80700,2022-12-01_08h10.00.849,vts_reward_expectancy_bt_OFFLINE,2022.2.4,59.91531976085079,
0,1,0,0,0,0,0,1,circle,star,1,0,1,0,0,5,5,5,,,,,,,,,,,,,,,,,,,,,,,,,,,,,,,,,,,,,,,,565.3984797370213,565.3984797370213,565.3984797370213,565.3984797370213,565.3984797370213,565.3984797370213,565.3984797370213,565.3984797370213,565.3984797370213,565.3984797370213,l,1.1500750629638787,10,288,1,566.5664629430103,,568.0681519180071,,,,,,,,,,,,,,,,,,,,,,,,,,,,,,,,,,,,,,,,,,,,,,,,,,,,,,,,,,,,,,,,,,,,,80700,2022-12-01_08h10.00.849,vts_reward_expectancy_bt_OFFLINE,2022.2.4,59.91531976085079,
1,0,0,0,0,0,0,1,triangle,star,1,0,1,0,0,6,6,2,,,,,,,,,,,,,,,,,,,,,,,,,,,,,,,,,,,,,,,,568.5687946350081,568.5687946350081,568.5687946350081,568.5687946350081,568.5687946350081,568.5687946350081,568.5687946350081,568.5687946350081,568.5687946350081,568.5687946350081,a,1.2992284379724879,10,298,1,569.8869098380092,,571.3884024930012,,,,,,,,,,,,,,,,,,,,,,,,,,,,,,,,,,,,,,,,,,,,,,,,,,,,,,,,,,,,,,,,,,,,,80700,2022-12-01_08h10.00.849,vts_reward_expectancy_bt_OFFLINE,2022.2.4,59.91531976085079,
0,0,0,1,0,0,1,0,star,hexagon,1,0,1,0,0,7,7,11,,,,,,,,,,,,,,,,,,,,,,,,,,,,,,,,,,,,,,,,571.8891125149967,571.8891125149967,571.8891125149967,571.8891125149967,571.8891125149967,571.8891125149967,571.8891125149967,571.8891125149967,571.8891125149967,571.8891125149967,l,1.4682683869905304,1,299,1,573.374060289003,,574.8757651690103,,,,,,,,,,,,,,,,,,,,,,,,,,,,,,,,,,,,,,,,,,,,,,,,,,,,,,,,,,,,,,,,,,,,,80700,2022-12-01_08h10.00.849,vts_reward_expectancy_bt_OFFLINE,2022.2.4,59.91531976085079,
1,0,0,0,0,1,0,0,triangle,circle,1,0,1,0,0,8,8,0,,,,,,,,,,,,,,,,,,,,,,,,,,,,,,,,,,,,,,,,575.3763172780164,575.3763172780164,575.3763172780164,575.3763172780164,575.3763172780164,575.3763172780164,575.3763172780164,575.3763172780164,575.3763172780164,575.3763172780164,a,1.979268687980948,10,309,1,577.3784767920151,,578.8802296430222,,,,,,,,,,,,,,,,,,,,,,,,,,,,,,,,,,,,,,,,,,,,,,,,,,,,,,,,,,,,,,,,,,,,,80700,2022-12-01_08h10.00.849,vts_reward_expectancy_bt_OFFLINE,2022.2.4,59.91531976085079,
0,1,0,0,0,0,1,0,circle,hexagon,1,0,1,0,0,9,9,4,,,,,,,,,,,,,,,,,,,,,,,,,,,,,,,,,,,,,,,,579.3807715279981,579.3807715279981,579.3807715279981,579.3807715279981,579.3807715279981,579.3807715279981,579.3807715279981,579.3807715279981,579.3807715279981,579.3807715279981,l,1.2943925489962567,10,319,1,580.6987547830213,,582.2004381770093,,,,,,,,,,,,,,,,,,,,,,,,,,,,,,,,,,,,,,,,,,,,,,,,,,,,,,,,,,,,,,,,,,,,,80700,2022-12-01_08h10.00.849,vts_reward_expectancy_bt_OFFLINE,2022.2.4,59.91531976085079,
0,0,0,1,0,1,0,0,star ,circle,1,0,1,0,0,10,10,10,,,,,,,,,,,,,,,,,,,,,,,,,,,,,,,,,,,,,,,,582.7011183529976,582.7011183529976,582.7011183529976,582.7011183529976,582.7011183529976,582.7011183529976,582.7011183529976,582.7011183529976,582.7011183529976,582.7011183529976,a,2.0309760849922895,10,329,1,584.7535018380149,,586.2550605820143,,,,,,,,,,,,,,,,,,,,,,,,,,,,,,,,,,,,,,,,,,,,,,,,,,,,,,,,,,,,,,,,,,,,,80700,2022-12-01_08h10.00.849,vts_reward_expectancy_bt_OFFLINE,2022.2.4,59.91531976085079,
0,0,1,0,0,1,0,0,hexagon,circle,1,0,1,0,0,11,11,7,,,,,,,,,,,,,,,,,,,,,,,,,,,,,,,,,,,,,,,,586.7555131250119,586.7555131250119,586.7555131250119,586.7555131250119,586.7555131250119,586.7555131250119,586.7555131250119,586.7555131250119,586.7555131250119,586.7555131250119,a,1.1284890009847004,1,330,1,587.9066639710218,,589.4086015899957,,,,,,,,,,,,,,,,,,,,,,,,,,,,,,,,,,,,,,,,,,,,,,,,,,,,,,,,,,,,,,,,,,,,,80700,2022-12-01_08h10.00.849,vts_reward_expectancy_bt_OFFLINE,2022.2.4,59.91531976085079,
0,0,1,0,0,1,0,0,hexagon,circle,1,0,1,0,1,0,12,7,,,,,,,,,,,,,,,,,,,,,,,,,,,,,,,,,,,,,,,,589.9090204999957,589.9090204999957,589.9090204999957,589.9090204999957,589.9090204999957,589.9090204999957,589.9090204999957,589.9090204999957,589.9090204999957,589.9090204999957,a,1.215181624982506,10,340,1,591.1439886839944,,592.6456163740077,,,,,,,,,,,,,,,,,,,,,,,,,,,,,,,,,,,,,,,,,,,,,,,,,,,,,,,,,,,,,,,,,,,,,80700,2022-12-01_08h10.00.849,vts_reward_expectancy_bt_OFFLINE,2022.2.4,59.91531976085079,
0,1,0,0,1,0,0,0,circle,triangle,1,0,1,0,1,1,13,3,,,,,,,,,,,,,,,,,,,,,,,,,,,,,,,,,,,,,,,,593.1459820290038,593.1459820290038,593.1459820290038,593.1459820290038,593.1459820290038,593.1459820290038,593.1459820290038,593.1459820290038,593.1459820290038,593.1459820290038,l,2.6336875519773457,10,350,1,595.7987794039946,,597.3003515110177,,,,,,,,,,,,,,,,,,,,,,,,,,,,,,,,,,,,,,,,,,,,,,,,,,,,,,,,,,,,,,,,,,,,,80700,2022-12-01_08h10.00.849,vts_reward_expectancy_bt_OFFLINE,2022.2.4,59.91531976085079,
1,0,0,0,0,0,1,0,triangle,hexagon,1,0,1,0,1,2,14,1,,,,,,,,,,,,,,,,,,,,,,,,,,,,,,,,,,,,,,,,597.8009789040079,597.8009789040079,597.8009789040079,597.8009789040079,597.8009789040079,597.8009789040079,597.8009789040079,597.8009789040079,597.8009789040079,597.8009789040079,l,1.090785447973758,10,360,1,598.9188571030099,,600.420742767019,,,,,,,,,,,,,,,,,,,,,,,,,,,,,,,,,,,,,,,,,,,,,,,,,,,,,,,,,,,,,,,,,,,,,80700,2022-12-01_08h10.00.849,vts_reward_expectancy_bt_OFFLINE,2022.2.4,59.91531976085079,
0,0,0,1,0,0,1,0,star,hexagon,1,0,1,0,1,3,15,11,,,,,,,,,,,,,,,,,,,,,,,,,,,,,,,,,,,,,,,,600.9212624500215,600.9212624500215,600.9212624500215,600.9212624500215,600.9212624500215,600.9212624500215,600.9212624500215,600.9212624500215,600.9212624500215,600.9212624500215,a,0.8678771879931446,10,370,1,601.8053277160216,603.3069396649953,603.3069396649953,,,,,,,,,,,,,,,,,,,,,,,,,,,,,,,,,,,,,,,,,,,,,,,,,,,,,,,,,,,,,,,,,,,,,80700,2022-12-01_08h10.00.849,vts_reward_expectancy_bt_OFFLINE,2022.2.4,59.91531976085079,
1,0,0,0,0,0,0,1,triangle,star,1,0,1,0,1,4,16,2,,,,,,,,,,,,,,,,,,,,,,,,,,,,,,,,,,,,,,,,603.8076647710113,603.8076647710113,603.8076647710113,603.8076647710113,603.8076647710113,603.8076647710113,603.8076647710113,603.8076647710113,603.8076647710113,603.8076647710113,l,0.6682609579875134,1,371,1,604.5084785470099,,606.0104058040015,,,,,,,,,,,,,,,,,,,,,,,,,,,,,,,,,,,,,,,,,,,,,,,,,,,,,,,,,,,,,,,,,,,,,80700,2022-12-01_08h10.00.849,vts_reward_expectancy_bt_OFFLINE,2022.2.4,59.91531976085079,
0,0,1,0,0,0,0,1,hexagon,star,1,0,1,0,1,5,17,8,,,,,,,,,,,,,,,,,,,,,,,,,,,,,,,,,,,,,,,,606.5108562630194,606.5108562630194,606.5108562630194,606.5108562630194,606.5108562630194,606.5108562630194,606.5108562630194,606.5108562630194,606.5108562630194,606.5108562630194,l,1.2445849649957381,1,372,1,607.778696955007,,609.2802754220029,,,,,,,,,,,,,,,,,,,,,,,,,,,,,,,,,,,,,,,,,,,,,,,,,,,,,,,,,,,,,,,,,,,,,80700,2022-12-01_08h10.00.849,vts_reward_expectancy_bt_OFFLINE,2022.2.4,59.91531976085079,
1,0,0,0,0,1,0,0,triangle,circle,1,0,1,0,1,6,18,0,,,,,,,,,,,,,,,,,,,,,,,,,,,,,,,,,,,,,,,,609.7807670439943,609.7807670439943,609.7807670439943,609.7807670439943,609.7807670439943,609.7807670439943,609.7807670439943,609.7807670439943,609.7807670439943,609.7807670439943,a,0.8238633839937393,10,382,1,610.6316384249949,,612.1334494960029,,,,,,,,,,,,,,,,,,,,,,,,,,,,,,,,,,,,,,,,,,,,,,,,,,,,,,,,,,,,,,,,,,,,,80700,2022-12-01_08h10.00.849,vts_reward_expectancy_bt_OFFLINE,2022.2.4,59.91531976085079,
0,1,0,0,0,0,0,1,circle,star,1,0,1,0,1,7,19,5,,,,,,,,,,,,,,,,,,,,,,,,,,,,,,,,,,,,,,,,612.6338201260078,612.6338201260078,612.6338201260078,612.6338201260078,612.6338201260078,612.6338201260078,612.6338201260078,612.6338201260078,612.6338201260078,612.6338201260078,a,1.23552823998034,10,392,1,613.9019471680222,,615.4037068830221,,,,,,,,,,,,,,,,,,,,,,,,,,,,,,,,,,,,,,,,,,,,,,,,,,,,,,,,,,,,,,,,,,,,,80700,2022-12-01_08h10.00.849,vts_reward_expectancy_bt_OFFLINE,2022.2.4,59.91531976085079,
0,0,0,1,0,1,0,0,star ,circle,1,0,1,0,1,8,20,10,,,,,,,,,,,,,,,,,,,,,,,,,,,,,,,,,,,,,,,,615.9043360860087,615.9043360860087,615.9043360860087,615.9043360860087,615.9043360860087,615.9043360860087,615.9043360860087,615.9043360860087,615.9043360860087,615.9043360860087,l,1.0350712199870031,10,402,1,616.9721303950064,,618.4738604300073,,,,,,,,,,,,,,,,,,,,,,,,,,,,,,,,,,,,,,,,,,,,,,,,,,,,,,,,,,,,,,,,,,,,,80700,2022-12-01_08h10.00.849,vts_reward_expectancy_bt_OFFLINE,2022.2.4,59.91531976085079,
0,0,0,1,1,0,0,0,star,triangle,1,0,1,0,1,9,21,9,,,,,,,,,,,,,,,,,,,,,,,,,,,,,,,,,,,,,,,,618.9743875010172,618.9743875010172,618.9743875010172,618.9743875010172,618.9743875010172,618.9743875010172,618.9743875010172,618.9743875010172,618.9743875010172,618.9743875010172,l,0.845104084990453,10,412,1,619.8421839759976,,621.3438461830083,,,,,,,,,,,,,,,,,,,,,,,,,,,,,,,,,,,,,,,,,,,,,,,,,,,,,,,,,,,,,,,,,,,,,80700,2022-12-01_08h10.00.849,vts_reward_expectancy_bt_OFFLINE,2022.2.4,59.91531976085079,
0,1,0,0,0,0,1,0,circle,hexagon,1,0,1,0,1,10,22,4,,,,,,,,,,,,,,,,,,,,,,,,,,,,,,,,,,,,,,,,621.8441962450161,621.8441962450161,621.8441962450161,621.8441962450161,621.8441962450161,621.8441962450161,621.8441962450161,621.8441962450161,621.8441962450161,621.8441962450161,l,1.2958847129775677,10,422,1,623.1622138860112,,624.6641528390173,,,,,,,,,,,,,,,,,,,,,,,,,,,,,,,,,,,,,,,,,,,,,,,,,,,,,,,,,,,,,,,,,,,,,80700,2022-12-01_08h10.00.849,vts_reward_expectancy_bt_OFFLINE,2022.2.4,59.91531976085079,
0,0,1,0,1,0,0,0,hexagon,triangle,1,0,1,0,1,11,23,6,,,,,,,,,,,,,,,,,,,,,,,,,,,,,,,,,,,,,,,,625.1648947799986,625.1648947799986,625.1648947799986,625.1648947799986,625.1648947799986,625.1648947799986,625.1648947799986,625.1648947799986,625.1648947799986,625.1648947799986,l,1.702668198995525,10,432,1,626.8999764250184,,628.4016082670132,,,,,,,,,,,,,,,,,,,,,,,,,,,,,,,,,,,,,,,,,,,,,,,,,,,,,,,,,,,,,,,,,,,,,80700,2022-12-01_08h10.00.849,vts_reward_expectancy_bt_OFFLINE,2022.2.4,59.91531976085079,
1,0,0,0,0,1,0,0,triangle,circle,1,0,1,0,2,0,24,0,,,,,,,,,,,,,,,,,,,,,,,,,,,,,,,,,,,,,,,,628.9019847729942,628.9019847729942,628.9019847729942,628.9019847729942,628.9019847729942,628.9019847729942,628.9019847729942,628.9019847729942,628.9019847729942,628.9019847729942,a,1.853818016970763,10,442,1,630.787222487008,,632.2890232240024,,,,,,,,,,,,,,,,,,,,,,,,,,,,,,,,,,,,,,,,,,,,,,,,,,,,,,,,,,,,,,,,,,,,,80700,2022-12-01_08h10.00.849,vts_reward_expectancy_bt_OFFLINE,2022.2.4,59.91531976085079,
1,0,0,0,0,0,1,0,triangle,hexagon,1,0,1,0,2,1,25,1,,,,,,,,,,,,,,,,,,,,,,,,,,,,,,,,,,,,,,,,632.7896218120004,632.7896218120004,632.7896218120004,632.7896218120004,632.7896218120004,632.7896218120004,632.7896218120004,632.7896218120004,632.7896218120004,632.7896218120004,a,2.0701397829689085,10,452,1,634.8919137890043,,636.3939492609934,,,,,,,,,,,,,,,,,,,,,,,,,,,,,,,,,,,,,,,,,,,,,,,,,,,,,,,,,,,,,,,,,,,,,80700,2022-12-01_08h10.00.849,vts_reward_expectancy_bt_OFFLINE,2022.2.4,59.91531976085079,
1,0,0,0,0,0,0,1,triangle,star,1,0,1,0,2,2,26,2,,,,,,,,,,,,,,,,,,,,,,,,,,,,,,,,,,,,,,,,636.8941096329945,636.8941096329945,636.8941096329945,636.8941096329945,636.8941096329945,636.8941096329945,636.8941096329945,636.8941096329945,636.8941096329945,636.8941096329945,a,1.4057088759727776,10,462,1,638.3293924450118,,639.8307881540095,,,,,,,,,,,,,,,,,,,,,,,,,,,,,,,,,,,,,,,,,,,,,,,,,,,,,,,,,,,,,,,,,,,,,80700,2022-12-01_08h10.00.849,vts_reward_expectancy_bt_OFFLINE,2022.2.4,59.91531976085079,
0,0,0,1,0,1,0,0,star ,circle,1,0,1,0,2,3,27,10,,,,,,,,,,,,,,,,,,,,,,,,,,,,,,,,,,,,,,,,640.3313027550175,640.3313027550175,640.3313027550175,640.3313027550175,640.3313027550175,640.3313027550175,640.3313027550175,640.3313027550175,640.3313027550175,640.3313027550175,l,2.4724312979669776,10,472,1,642.8340813970135,,644.3359448029951,,,,,,,,,,,,,,,,,,,,,,,,,,,,,,,,,,,,,,,,,,,,,,,,,,,,,,,,,,,,,,,,,,,,,80700,2022-12-01_08h10.00.849,vts_reward_expectancy_bt_OFFLINE,2022.2.4,59.91531976085079,
0,0,1,0,1,0,0,0,hexagon,triangle,1,0,1,0,2,4,28,6,,,,,,,,,,,,,,,,,,,,,,,,,,,,,,,,,,,,,,,,644.8362949820003,644.8362949820003,644.8362949820003,644.8362949820003,644.8362949820003,644.8362949820003,644.8362949820003,644.8362949820003,644.8362949820003,644.8362949820003,l,3.9914509439549875,10,482,1,648.8572459200223,,650.3590165200003,,,,,,,,,,,,,,,,,,,,,,,,,,,,,,,,,,,,,,,,,,,,,,,,,,,,,,,,,,,,,,,,,,,,,80700,2022-12-01_08h10.00.849,vts_reward_expectancy_bt_OFFLINE,2022.2.4,59.91531976085079,
0,0,0,1,0,0,1,0,star,hexagon,1,0,1,0,2,5,29,11,,,,,,,,,,,,,,,,,,,,,,,,,,,,,,,,,,,,,,,,650.859532433009,650.859532433009,650.859532433009,650.859532433009,650.859532433009,650.859532433009,650.859532433009,650.859532433009,650.859532433009,650.859532433009,l,1.4409247509902343,1,483,1,652.3277482940175,,653.8294274770014,,,,,,,,,,,,,,,,,,,,,,,,,,,,,,,,,,,,,,,,,,,,,,,,,,,,,,,,,,,,,,,,,,,,,80700,2022-12-01_08h10.00.849,vts_reward_expectancy_bt_OFFLINE,2022.2.4,59.91531976085079,
0,0,1,0,0,0,0,1,hexagon,star,1,0,1,0,2,6,30,8,,,,,,,,,,,,,,,,,,,,,,,,,,,,,,,,,,,,,,,,654.3304715880076,654.3304715880076,654.3304715880076,654.3304715880076,654.3304715880076,654.3304715880076,654.3304715880076,654.3304715880076,654.3304715880076,654.3304715880076,a,2.202471847005654,10,493,1,656.5494050090201,,658.0508934429963,,,,,,,,,,,,,,,,,,,,,,,,,,,,,,,,,,,,,,,,,,,,,,,,,,,,,,,,,,,,,,,,,,,,,80700,2022-12-01_08h10.00.849,vts_reward_expectancy_bt_OFFLINE,2022.2.4,59.91531976085079,
0,1,0,0,0,0,0,1,circle,star,1,0,1,0,2,7,31,5,,,,,,,,,,,,,,,,,,,,,,,,,,,,,,,,,,,,,,,,658.5513526860159,658.5513526860159,658.5513526860159,658.5513526860159,658.5513526860159,658.5513526860159,658.5513526860159,658.5513526860159,658.5513526860159,658.5513526860159,a,3.501142434979556,10,503,1,662.0718634090154,,663.5736074990127,,,,,,,,,,,,,,,,,,,,,,,,,,,,,,,,,,,,,,,,,,,,,,,,,,,,,,,,,,,,,,,,,,,,,80700,2022-12-01_08h10.00.849,vts_reward_expectancy_bt_OFFLINE,2022.2.4,59.91531976085079,
0,0,0,1,1,0,0,0,star,triangle,1,0,1,0,2,8,32,9,,,,,,,,,,,,,,,,,,,,,,,,,,,,,,,,,,,,,,,,664.0743903370167,664.0743903370167,664.0743903370167,664.0743903370167,664.0743903370167,664.0743903370167,664.0743903370167,664.0743903370167,664.0743903370167,664.0743903370167,l,2.4814739669673145,10,513,1,666.5769064690103,,668.0785252610222,,,,,,,,,,,,,,,,,,,,,,,,,,,,,,,,,,,,,,,,,,,,,,,,,,,,,,,,,,,,,,,,,,,,,80700,2022-12-01_08h10.00.849,vts_reward_expectancy_bt_OFFLINE,2022.2.4,59.91531976085079,
0,1,0,0,0,0,1,0,circle,hexagon,1,0,1,0,2,9,33,4,,,,,,,,,,,,,,,,,,,,,,,,,,,,,,,,,,,,,,,,668.5791540990176,668.5791540990176,668.5791540990176,668.5791540990176,668.5791540990176,668.5791540990176,668.5791540990176,668.5791540990176,668.5791540990176,668.5791540990176,l,4.816956489987206,10,523,1,673.4176181380171,,674.9193544830196,,,,,,,,,,,,,,,,,,,,,,,,,,,,,,,,,,,,,,,,,,,,,,,,,,,,,,,,,,,,,,,,,,,,,80700,2022-12-01_08h10.00.849,vts_reward_expectancy_bt_OFFLINE,2022.2.4,59.91531976085079,
0,0,1,0,0,1,0,0,hexagon,circle,1,0,1,0,2,10,34,7,,,,,,,,,,,,,,,,,,,,,,,,,,,,,,,,,,,,,,,,675.4200830920017,675.4200830920017,675.4200830920017,675.4200830920017,675.4200830920017,675.4200830920017,675.4200830920017,675.4200830920017,675.4200830920017,675.4200830920017,a,3.415119474986568,1,524,1,678.8572312940087,,680.3585679990065,,,,,,,,,,,,,,,,,,,,,,,,,,,,,,,,,,,,,,,,,,,,,,,,,,,,,,,,,,,,,,,,,,,,,80700,2022-12-01_08h10.00.849,vts_reward_expectancy_bt_OFFLINE,2022.2.4,59.91531976085079,
0,1,0,0,1,0,0,0,circle,triangle,1,0,1,0,2,11,35,3,,,,,,,,,,,,,,,,,,,,,,,,,,,,,,,,,,,,,,,,680.8591553769947,680.8591553769947,680.8591553769947,680.8591553769947,680.8591553769947,680.8591553769947,680.8591553769947,680.8591553769947,680.8591553769947,680.8591553769947,l,1.32895785200526,10,534,1,682.2108613400196,,683.7123922870087,,,,,,,,,,,,,,,,,,,,,,,,,,,,,,,,,,,,,,,,,,,,,,,,,,,,,,,,,,,,,,,,,,,,,80700,2022-12-01_08h10.00.849,vts_reward_expectancy_bt_OFFLINE,2022.2.4,59.91531976085079,
0,1,0,0,0,0,1,0,circle,hexagon,1,0,1,0,3,0,36,4,,,,,,,,,,,,,,,,,,,,,,,,,,,,,,,,,,,,,,,,684.2130053199944,684.2130053199944,684.2130053199944,684.2130053199944,684.2130053199944,684.2130053199944,684.2130053199944,684.2130053199944,684.2130053199944,684.2130053199944,l,2.3266891579842195,1,535,1,686.565604989999,,688.0673180860176,,,,,,,,,,,,,,,,,,,,,,,,,,,,,,,,,,,,,,,,,,,,,,,,,,,,,,,,,,,,,,,,,,,,,80700,2022-12-01_08h10.00.849,vts_reward_expectancy_bt_OFFLINE,2022.2.4,59.91531976085079,
0,0,0,1,1,0,0,0,star,triangle,1,0,1,0,3,1,37,9,,,,,,,,,,,,,,,,,,,,,,,,,,,,,,,,,,,,,,,,688.5680911139934,688.5680911139934,688.5680911139934,688.5680911139934,688.5680911139934,688.5680911139934,688.5680911139934,688.5680911139934,688.5680911139934,688.5680911139934,l,5.228601320966845,1,536,1,693.823946820019,,695.32502806501,,,,,,,,,,,,,,,,,,,,,,,,,,,,,,,,,,,,,,,,,,,,,,,,,,,,,,,,,,,,,,,,,,,,,80700,2022-12-01_08h10.00.849,vts_reward_expectancy_bt_OFFLINE,2022.2.4,59.91531976085079,
0,1,0,0,1,0,0,0,circle,triangle,1,0,1,0,3,2,38,3,,,,,,,,,,,,,,,,,,,,,,,,,,,,,,,,,,,,,,,,695.8258091140015,695.8258091140015,695.8258091140015,695.8258091140015,695.8258091140015,695.8258091140015,695.8258091140015,695.8258091140015,695.8258091140015,695.8258091140015,l,1.986576287978096,1,537,1,697.8445940630045,,699.3462192010193,,,,,,,,,,,,,,,,,,,,,,,,,,,,,,,,,,,,,,,,,,,,,,,,,,,,,,,,,,,,,,,,,,,,,80700,2022-12-01_08h10.00.849,vts_reward_expectancy_bt_OFFLINE,2022.2.4,59.91531976085079,
1,0,0,0,0,0,0,1,triangle,star,1,0,1,0,3,3,39,2,,,,,,,,,,,,,,,,,,,,,,,,,,,,,,,,,,,,,,,,699.8471098790178,699.8471098790178,699.8471098790178,699.8471098790178,699.8471098790178,699.8471098790178,699.8471098790178,699.8471098790178,699.8471098790178,699.8471098790178,a,2.9013074499671347,10,547,1,702.7669071640121,,704.2685431620048,,,,,,,,,,,,,,,,,,,,,,,,,,,,,,,,,,,,,,,,,,,,,,,,,,,,,,,,,,,,,,,,,,,,,80700,2022-12-01_08h10.00.849,vts_reward_expectancy_bt_OFFLINE,2022.2.4,59.91531976085079,
1,0,0,0,0,0,1,0,triangle,hexagon,1,0,1,0,3,4,40,1,,,,,,,,,,,,,,,,,,,,,,,,,,,,,,,,,,,,,,,,704.7689896060037,704.7689896060037,704.7689896060037,704.7689896060037,704.7689896060037,704.7689896060037,704.7689896060037,704.7689896060037,704.7689896060037,704.7689896060037,l,1.970736108982237,1,548,1,706.7714070570073,,708.2727597650082,,,,,,,,,,,,,,,,,,,,,,,,,,,,,,,,,,,,,,,,,,,,,,,,,,,,,,,,,,,,,,,,,,,,,80700,2022-12-01_08h10.00.849,vts_reward_expectancy_bt_OFFLINE,2022.2.4,59.91531976085079,
0,0,1,0,0,1,0,0,hexagon,circle,1,0,1,0,3,5,41,7,,,,,,,,,,,,,,,,,,,,,,,,,,,,,,,,,,,,,,,,708.7733627620037,708.7733627620037,708.7733627620037,708.7733627620037,708.7733627620037,708.7733627620037,708.7733627620037,708.7733627620037,708.7733627620037,708.7733627620037,a,2.05443029498565,10,558,1,710.8590522379964,,712.3606111739937,,,,,,,,,,,,,,,,,,,,,,,,,,,,,,,,,,,,,,,,,,,,,,,,,,,,,,,,,,,,,,,,,,,,,80700,2022-12-01_08h10.00.849,vts_reward_expectancy_bt_OFFLINE,2022.2.4,59.91531976085079,
0,0,0,1,0,0,1,0,star,hexagon,1,0,1,0,3,6,42,11,,,,,,,,,,,,,,,,,,,,,,,,,,,,,,,,,,,,,,,,712.861394069012,712.861394069012,712.861394069012,712.861394069012,712.861394069012,712.861394069012,712.861394069012,712.861394069012,712.861394069012,712.861394069012,a,1.9984933379746508,1,559,1,714.8801345200045,,716.3817345850111,,,,,,,,,,,,,,,,,,,,,,,,,,,,,,,,,,,,,,,,,,,,,,,,,,,,,,,,,,,,,,,,,,,,,80700,2022-12-01_08h10.00.849,vts_reward_expectancy_bt_OFFLINE,2022.2.4,59.91531976085079,
0,0,1,0,1,0,0,0,hexagon,triangle,1,0,1,0,3,7,43,6,,,,,,,,,,,,,,,,,,,,,,,,,,,,,,,,,,,,,,,,716.8822784890071,716.8822784890071,716.8822784890071,716.8822784890071,716.8822784890071,716.8822784890071,716.8822784890071,716.8822784890071,716.8822784890071,716.8822784890071,l,1.865938726987224,10,569,1,718.7677695800085,,720.2694930169964,,,,,,,,,,,,,,,,,,,,,,,,,,,,,,,,,,,,,,,,,,,,,,,,,,,,,,,,,,,,,,,,,,,,,80700,2022-12-01_08h10.00.849,vts_reward_expectancy_bt_OFFLINE,2022.2.4,59.91531976085079,
1,0,0,0,0,1,0,0,triangle,circle,1,0,1,0,3,8,44,0,,,,,,,,,,,,,,,,,,,,,,,,,,,,,,,,,,,,,,,,720.7701724540093,720.7701724540093,720.7701724540093,720.7701724540093,720.7701724540093,720.7701724540093,720.7701724540093,720.7701724540093,720.7701724540093,720.7701724540093,a,0.9065658149775118,10,579,1,721.7044004079944,,723.205902007001,,,,,,,,,,,,,,,,,,,,,,,,,,,,,,,,,,,,,,,,,,,,,,,,,,,,,,,,,,,,,,,,,,,,,80700,2022-12-01_08h10.00.849,vts_reward_expectancy_bt_OFFLINE,2022.2.4,59.91531976085079,
0,0,0,1,0,1,0,0,star ,circle,1,0,1,0,3,9,45,10,,,,,,,,,,,,,,,,,,,,,,,,,,,,,,,,,,,,,,,,723.7065798450203,723.7065798450203,723.7065798450203,723.7065798450203,723.7065798450203,723.7065798450203,723.7065798450203,723.7065798450203,723.7065798450203,723.7065798450203,l,2.041331738990266,10,589,1,725.7755511100113,,727.2773252360057,,,,,,,,,,,,,,,,,,,,,,,,,,,,,,,,,,,,,,,,,,,,,,,,,,,,,,,,,,,,,,,,,,,,,80700,2022-12-01_08h10.00.849,vts_reward_expectancy_bt_OFFLINE,2022.2.4,59.91531976085079,
0,1,0,0,0,0,0,1,circle,star,1,0,1,0,3,10,46,5,,,,,,,,,,,,,,,,,,,,,,,,,,,,,,,,,,,,,,,,727.7776159440109,727.7776159440109,727.7776159440109,727.7776159440109,727.7776159440109,727.7776159440109,727.7776159440109,727.7776159440109,727.7776159440109,727.7776159440109,a,1.7052668099640869,1,590,1,729.5115359540214,,731.0145195890218,,,,,,,,,,,,,,,,,,,,,,,,,,,,,,,,,,,,,,,,,,,,,,,,,,,,,,,,,,,,,,,,,,,,,80700,2022-12-01_08h10.00.849,vts_reward_expectancy_bt_OFFLINE,2022.2.4,59.91531976085079,
0,0,1,0,0,0,0,1,hexagon,star,1,0,1,0,3,11,47,8,,,,,,,,,,,,,,,,,,,,,,,,,,,,,,,,,,,,,,,,731.5150647190167,731.5150647190167,731.5150647190167,731.5150647190167,731.5150647190167,731.5150647190167,731.5150647190167,731.5150647190167,731.5150647190167,731.5150647190167,a,3.1766631719947327,1,591,1,734.7186426060216,,736.2203992959985,,,,,,,,,,,,,,,,,,,,,,,,,,,,,,,,,,,,,,,,,,,,,,,,,,,,,,,,,,,,,,,,,,,,,80700,2022-12-01_08h10.00.849,vts_reward_expectancy_bt_OFFLINE,2022.2.4,59.91531976085079,
0,0,0,1,0,0,1,0,star,hexagon,2,0,2,0,0,0,0,11,,,,,,,,,,,,,,,,,,,,,,,,,,,,,,,,,,,,,,,,739.2966294320067,739.2966294320067,739.2966294320067,739.2966294320067,739.2966294320067,739.2966294320067,739.2966294320067,739.2966294320067,739.2966294320067,739.2966294320067,l,4.418173563986784,1,592,2,743.7455370090029,,745.2470725020103,,,,,,,,,,,,,,,,,,,,,,,,,,,,,,,,,,,,,,,,,,,,,,,,,,,,,,,,,,,,,,,,,,,,,80700,2022-12-01_08h10.00.849,vts_reward_expectancy_bt_OFFLINE,2022.2.4,59.91531976085079,
1,0,0,0,0,0,0,1,triangle,star,2,0,2,0,0,1,1,2,,,,,,,,,,,,,,,,,,,,,,,,,,,,,,,,,,,,,,,,745.7477560499974,745.7477560499974,745.7477560499974,745.7477560499974,745.7477560499974,745.7477560499974,745.7477560499974,745.7477560499974,745.7477560499974,745.7477560499974,a,1.6963381379609928,10,602,2,747.4660579980118,,748.9678245730174,,,,,,,,,,,,,,,,,,,,,,,,,,,,,,,,,,,,,,,,,,,,,,,,,,,,,,,,,,,,,,,,,,,,,80700,2022-12-01_08h10.00.849,vts_reward_expectancy_bt_OFFLINE,2022.2.4,59.91531976085079,
0,0,1,0,1,0,0,0,hexagon,triangle,2,0,2,0,0,2,2,6,,,,,,,,,,,,,,,,,,,,,,,,,,,,,,,,,,,,,,,,749.4683697390137,749.4683697390137,749.4683697390137,749.4683697390137,749.4683697390137,749.4683697390137,749.4683697390137,749.4683697390137,749.4683697390137,749.4683697390137,l,4.519946385989897,10,612,2,754.0066706869984,,755.5082234959991,,,,,,,,,,,,,,,,,,,,,,,,,,,,,,,,,,,,,,,,,,,,,,,,,,,,,,,,,,,,,,,,,,,,,80700,2022-12-01_08h10.00.849,vts_reward_expectancy_bt_OFFLINE,2022.2.4,59.91531976085079,
1,0,0,0,0,0,1,0,triangle,hexagon,2,0,2,0,0,3,3,1,,,,,,,,,,,,,,,,,,,,,,,,,,,,,,,,,,,,,,,,756.0087039009959,756.0087039009959,756.0087039009959,756.0087039009959,756.0087039009959,756.0087039009959,756.0087039009959,756.0087039009959,756.0087039009959,756.0087039009959,a,0.9709705749701243,10,622,2,757.0100151550141,,758.5115156999964,,,,,,,,,,,,,,,,,,,,,,,,,,,,,,,,,,,,,,,,,,,,,,,,,,,,,,,,,,,,,,,,,,,,,80700,2022-12-01_08h10.00.849,vts_reward_expectancy_bt_OFFLINE,2022.2.4,59.91531976085079,
0,0,0,1,0,1,0,0,star ,circle,2,0,2,0,0,4,4,10,,,,,,,,,,,,,,,,,,,,,,,,,,,,,,,,,,,,,,,,759.0120714660152,759.0120714660152,759.0120714660152,759.0120714660152,759.0120714660152,759.0120714660152,759.0120714660152,759.0120714660152,759.0120714660152,759.0120714660152,l,2.343272103986237,1,623,2,761.3814738570072,,762.8831347030064,,,,,,,,,,,,,,,,,,,,,,,,,,,,,,,,,,,,,,,,,,,,,,,,,,,,,,,,,,,,,,,,,,,,,80700,2022-12-01_08h10.00.849,vts_reward_expectancy_bt_OFFLINE,2022.2.4,59.91531976085079,
0,0,1,0,0,0,0,1,hexagon,star,2,0,2,0,0,5,5,8,,,,,,,,,,,,,,,,,,,,,,,,,,,,,,,,,,,,,,,,763.3838821840181,763.3838821840181,763.3838821840181,763.3838821840181,763.3838821840181,763.3838821840181,763.3838821840181,763.3838821840181,763.3838821840181,763.3838821840181,l,3.1878565549850464,1,624,2,766.6041283009981,,768.1056106780015,,,,,,,,,,,,,,,,,,,,,,,,,,,,,,,,,,,,,,,,,,,,,,,,,,,,,,,,,,,,,,,,,,,,,80700,2022-12-01_08h10.00.849,vts_reward_expectancy_bt_OFFLINE,2022.2.4,59.91531976085079,
0,0,1,0,0,1,0,0,hexagon,circle,2,0,2,0,0,6,6,7,,,,,,,,,,,,,,,,,,,,,,,,,,,,,,,,,,,,,,,,768.6062507060124,768.6062507060124,768.6062507060124,768.6062507060124,768.6062507060124,768.6062507060124,768.6062507060124,768.6062507060124,768.6062507060124,768.6062507060124,a,1.4137261729920283,10,634,2,770.0409337930032,,771.5425566020131,,,,,,,,,,,,,,,,,,,,,,,,,,,,,,,,,,,,,,,,,,,,,,,,,,,,,,,,,,,,,,,,,,,,,80700,2022-12-01_08h10.00.849,vts_reward_expectancy_bt_OFFLINE,2022.2.4,59.91531976085079,
0,0,0,1,1,0,0,0,star,triangle,2,0,2,0,0,7,7,9,,,,,,,,,,,,,,,,,,,,,,,,,,,,,,,,,,,,,,,,772.0430755249981,772.0430755249981,772.0430755249981,772.0430755249981,772.0430755249981,772.0430755249981,772.0430755249981,772.0430755249981,772.0430755249981,772.0430755249981,l,1.0403528029855806,1,635,2,773.1108828440192,,774.6127063500171,,,,,,,,,,,,,,,,,,,,,,,,,,,,,,,,,,,,,,,,,,,,,,,,,,,,,,,,,,,,,,,,,,,,,80700,2022-12-01_08h10.00.849,vts_reward_expectancy_bt_OFFLINE,2022.2.4,59.91531976085079,
0,1,0,0,1,0,0,0,circle,triangle,2,0,2,0,0,8,8,3,,,,,,,,,,,,,,,,,,,,,,,,,,,,,,,,,,,,,,,,775.1130798380182,775.1130798380182,775.1130798380182,775.1130798380182,775.1130798380182,775.1130798380182,775.1130798380182,775.1130798380182,775.1130798380182,775.1130798380182,l,1.2519544409879018,1,636,2,776.3811348540185,,777.8828307340154,,,,,,,,,,,,,,,,,,,,,,,,,,,,,,,,,,,,,,,,,,,,,,,,,,,,,,,,,,,,,,,,,,,,,80700,2022-12-01_08h10.00.849,vts_reward_expectancy_bt_OFFLINE,2022.2.4,59.91531976085079,
0,1,0,0,0,0,0,1,circle,star,2,0,2,0,0,9,9,5,,,,,,,,,,,,,,,,,,,,,,,,,,,,,,,,,,,,,,,,778.3833811780205,778.3833811780205,778.3833811780205,778.3833811780205,778.3833811780205,778.3833811780205,778.3833811780205,778.3833811780205,778.3833811780205,778.3833811780205,l,4.155962815973908,1,637,2,782.5713550310174,,784.0730890010018,,,,,,,,,,,,,,,,,,,,,,,,,,,,,,,,,,,,,,,,,,,,,,,,,,,,,,,,,,,,,,,,,,,,,80700,2022-12-01_08h10.00.849,vts_reward_expectancy_bt_OFFLINE,2022.2.4,59.91531976085079,
0,1,0,0,0,0,1,0,circle,hexagon,2,0,2,0,0,10,10,4,,,,,,,,,,,,,,,,,,,,,,,,,,,,,,,,,,,,,,,,784.5736532480223,784.5736532480223,784.5736532480223,784.5736532480223,784.5736532480223,784.5736532480223,784.5736532480223,784.5736532480223,784.5736532480223,784.5736532480223,a,1.535264374979306,1,638,2,786.1253287540167,,787.6269713049987,,,,,,,,,,,,,,,,,,,,,,,,,,,,,,,,,,,,,,,,,,,,,,,,,,,,,,,,,,,,,,,,,,,,,80700,2022-12-01_08h10.00.849,vts_reward_expectancy_bt_OFFLINE,2022.2.4,59.91531976085079,
1,0,0,0,0,1,0,0,triangle,circle,2,0,2,0,0,11,11,0,,,,,,,,,,,,,,,,,,,,,,,,,,,,,,,,,,,,,,,,788.1275127390109,788.1275127390109,788.1275127390109,788.1275127390109,788.1275127390109,788.1275127390109,788.1275127390109,788.1275127390109,788.1275127390109,788.1275127390109,l,1.2916274819872342,1,639,2,789.4457039560075,,790.9472858990193,,,,,,,,,,,,,,,,,,,,,,,,,,,,,,,,,,,,,,,,,,,,,,,,,,,,,,,,,,,,,,,,,,,,,80700,2022-12-01_08h10.00.849,vts_reward_expectancy_bt_OFFLINE,2022.2.4,59.91531976085079,
0,0,1,0,0,0,0,1,hexagon,star,2,0,2,0,1,0,12,8,,,,,,,,,,,,,,,,,,,,,,,,,,,,,,,,,,,,,,,,791.447790870996,791.447790870996,791.447790870996,791.447790870996,791.447790870996,791.447790870996,791.447790870996,791.447790870996,791.447790870996,791.447790870996,a,1.1015016779711004,10,649,2,792.5657095469942,,794.0673570150102,,,,,,,,,,,,,,,,,,,,,,,,,,,,,,,,,,,,,,,,,,,,,,,,,,,,,,,,,,,,,,,,,,,,,80700,2022-12-01_08h10.00.849,vts_reward_expectancy_bt_OFFLINE,2022.2.4,59.91531976085079,
0,0,0,1,0,0,1,0,star,hexagon,2,0,2,0,1,1,13,11,,,,,,,,,,,,,,,,,,,,,,,,,,,,,,,,,,,,,,,,794.5678936850163,794.5678936850163,794.5678936850163,794.5678936850163,794.5678936850163,794.5678936850163,794.5678936850163,794.5678936850163,794.5678936850163,794.5678936850163,l,0.6849046339921188,10,659,2,795.2854945730069,,796.7874247230066,,,,,,,,,,,,,,,,,,,,,,,,,,,,,,,,,,,,,,,,,,,,,,,,,,,,,,,,,,,,,,,,,,,,,80700,2022-12-01_08h10.00.849,vts_reward_expectancy_bt_OFFLINE,2022.2.4,59.91531976085079,
1,0,0,0,0,1,0,0,triangle,circle,2,0,2,0,1,2,14,0,,,,,,,,,,,,,,,,,,,,,,,,,,,,,,,,,,,,,,,,797.2882007409935,797.2882007409935,797.2882007409935,797.2882007409935,797.2882007409935,797.2882007409935,797.2882007409935,797.2882007409935,797.2882007409935,797.2882007409935,a,2.971339920972241,10,669,2,800.2909077900113,,801.7925305819954,,,,,,,,,,,,,,,,,,,,,,,,,,,,,,,,,,,,,,,,,,,,,,,,,,,,,,,,,,,,,,,,,,,,,80700,2022-12-01_08h10.00.849,vts_reward_expectancy_bt_OFFLINE,2022.2.4,59.91531976085079,
0,0,1,0,0,1,0,0,hexagon,circle,2,0,2,0,1,3,15,7,,,,,,,,,,,,,,,,,,,,,,,,,,,,,,,,,,,,,,,,802.293198430998,802.293198430998,802.293198430998,802.293198430998,802.293198430998,802.293198430998,802.293198430998,802.293198430998,802.293198430998,802.293198430998,a,2.0861256450007204,10,679,2,804.4121191700106,,805.913941812003,,,,,,,,,,,,,,,,,,,,,,,,,,,,,,,,,,,,,,,,,,,,,,,,,,,,,,,,,,,,,,,,,,,,,80700,2022-12-01_08h10.00.849,vts_reward_expectancy_bt_OFFLINE,2022.2.4,59.91531976085079,
1,0,0,0,0,0,1,0,triangle,hexagon,2,0,2,0,1,4,16,1,,,,,,,,,,,,,,,,,,,,,,,,,,,,,,,,,,,,,,,,806.4144529800105,806.4144529800105,806.4144529800105,806.4144529800105,806.4144529800105,806.4144529800105,806.4144529800105,806.4144529800105,806.4144529800105,806.4144529800105,l,2.3729988309787586,1,680,2,808.817331246013,,810.3187669239996,,,,,,,,,,,,,,,,,,,,,,,,,,,,,,,,,,,,,,,,,,,,,,,,,,,,,,,,,,,,,,,,,,,,,80700,2022-12-01_08h10.00.849,vts_reward_expectancy_bt_OFFLINE,2022.2.4,59.91531976085079,
0,0,0,1,1,0,0,0,star,triangle,2,0,2,0,1,5,17,9,,,,,,,,,,,,,,,,,,,,,,,,,,,,,,,,,,,,,,,,810.8194609210186,810.8194609210186,810.8194609210186,810.8194609210186,810.8194609210186,810.8194609210186,810.8194609210186,810.8194609210186,810.8194609210186,810.8194609210186,a,1.3756525290082209,1,681,2,812.2208467489982,,813.722548307007,,,,,,,,,,,,,,,,,,,,,,,,,,,,,,,,,,,,,,,,,,,,,,,,,,,,,,,,,,,,,,,,,,,,,80700,2022-12-01_08h10.00.849,vts_reward_expectancy_bt_OFFLINE,2022.2.4,59.91531976085079,
1,0,0,0,0,0,0,1,triangle,star,2,0,2,0,1,6,18,2,,,,,,,,,,,,,,,,,,,,,,,,,,,,,,,,,,,,,,,,814.2230459710117,814.2230459710117,814.2230459710117,814.2230459710117,814.2230459710117,814.2230459710117,814.2230459710117,814.2230459710117,814.2230459710117,814.2230459710117,a,1.3719029619824141,10,691,2,815.6232969789999,,817.126149896998,,,,,,,,,,,,,,,,,,,,,,,,,,,,,,,,,,,,,,,,,,,,,,,,,,,,,,,,,,,,,,,,,,,,,80700,2022-12-01_08h10.00.849,vts_reward_expectancy_bt_OFFLINE,2022.2.4,59.91531976085079,
0,1,0,0,0,0,0,1,circle,star,2,0,2,0,1,7,19,5,,,,,,,,,,,,,,,,,,,,,,,,,,,,,,,,,,,,,,,,817.6266582249955,817.6266582249955,817.6266582249955,817.6266582249955,817.6266582249955,817.6266582249955,817.6266582249955,817.6266582249955,817.6266582249955,817.6266582249955,l,8.33754443898215,1,692,2,825.9859853270173,,827.4876591250068,,,,,,,,,,,,,,,,,,,,,,,,,,,,,,,,,,,,,,,,,,,,,,,,,,,,,,,,,,,,,,,,,,,,,80700,2022-12-01_08h10.00.849,vts_reward_expectancy_bt_OFFLINE,2022.2.4,59.91531976085079,
0,1,0,0,1,0,0,0,circle,triangle,2,0,2,0,1,8,20,3,,,,,,,,,,,,,,,,,,,,,,,,,,,,,,,,,,,,,,,,827.9881021240144,827.9881021240144,827.9881021240144,827.9881021240144,827.9881021240144,827.9881021240144,827.9881021240144,827.9881021240144,827.9881021240144,827.9881021240144,l,1.3915936969860923,1,693,2,829.4063753960072,,830.908368088014,,,,,,,,,,,,,,,,,,,,,,,,,,,,,,,,,,,,,,,,,,,,,,,,,,,,,,,,,,,,,,,,,,,,,80700,2022-12-01_08h10.00.849,vts_reward_expectancy_bt_OFFLINE,2022.2.4,59.91531976085079,
0,0,1,0,1,0,0,0,hexagon,triangle,2,0,2,0,1,9,21,6,,,,,,,,,,,,,,,,,,,,,,,,,,,,,,,,,,,,,,,,831.4088898430055,831.4088898430055,831.4088898430055,831.4088898430055,831.4088898430055,831.4088898430055,831.4088898430055,831.4088898430055,831.4088898430055,831.4088898430055,a,1.6031137789832428,10,703,2,833.0440812190063,,834.5457493819995,,,,,,,,,,,,,,,,,,,,,,,,,,,,,,,,,,,,,,,,,,,,,,,,,,,,,,,,,,,,,,,,,,,,,80700,2022-12-01_08h10.00.849,vts_reward_expectancy_bt_OFFLINE,2022.2.4,59.91531976085079,
0,0,0,1,0,1,0,0,star ,circle,2,0,2,0,1,10,22,10,,,,,,,,,,,,,,,,,,,,,,,,,,,,,,,,,,,,,,,,835.0461371970014,835.0461371970014,835.0461371970014,835.0461371970014,835.0461371970014,835.0461371970014,835.0461371970014,835.0461371970014,835.0461371970014,835.0461371970014,a,1.6698270379856694,10,713,2,836.7478589210077,,838.2498571230099,,,,,,,,,,,,,,,,,,,,,,,,,,,,,,,,,,,,,,,,,,,,,,,,,,,,,,,,,,,,,,,,,,,,,80700,2022-12-01_08h10.00.849,vts_reward_expectancy_bt_OFFLINE,2022.2.4,59.91531976085079,
0,1,0,0,0,0,1,0,circle,hexagon,2,0,2,0,1,11,23,4,,,,,,,,,,,,,,,,,,,,,,,,,,,,,,,,,,,,,,,,838.7501544110128,838.7501544110128,838.7501544110128,838.7501544110128,838.7501544110128,838.7501544110128,838.7501544110128,838.7501544110128,838.7501544110128,838.7501544110128,l,1.7351911769947037,10,723,2,840.5020262710168,,842.003813473013,,,,,,,,,,,,,,,,,,,,,,,,,,,,,,,,,,,,,,,,,,,,,,,,,,,,,,,,,,,,,,,,,,,,,80700,2022-12-01_08h10.00.849,vts_reward_expectancy_bt_OFFLINE,2022.2.4,59.91531976085079,
0,0,1,0,1,0,0,0,hexagon,triangle,2,0,2,0,2,0,24,6,,,,,,,,,,,,,,,,,,,,,,,,,,,,,,,,,,,,,,,,842.5044684120221,842.5044684120221,842.5044684120221,842.5044684120221,842.5044684120221,842.5044684120221,842.5044684120221,842.5044684120221,842.5044684120221,842.5044684120221,a,1.562727405980695,10,733,2,844.089725783997,,845.5909851450124,,,,,,,,,,,,,,,,,,,,,,,,,,,,,,,,,,,,,,,,,,,,,,,,,,,,,,,,,,,,,,,,,,,,,80700,2022-12-01_08h10.00.849,vts_reward_expectancy_bt_OFFLINE,2022.2.4,59.91531976085079,
0,0,1,0,0,1,0,0,hexagon,circle,2,0,2,0,2,1,25,7,,,,,,,,,,,,,,,,,,,,,,,,,,,,,,,,,,,,,,,,846.0914443640213,846.0914443640213,846.0914443640213,846.0914443640213,846.0914443640213,846.0914443640213,846.0914443640213,846.0914443640213,846.0914443640213,846.0914443640213,a,2.359527573978994,10,743,2,848.4774505870009,,849.9792253549967,,,,,,,,,,,,,,,,,,,,,,,,,,,,,,,,,,,,,,,,,,,,,,,,,,,,,,,,,,,,,,,,,,,,,80700,2022-12-01_08h10.00.849,vts_reward_expectancy_bt_OFFLINE,2022.2.4,59.91531976085079,
0,0,0,1,0,0,1,0,star,hexagon,2,0,2,0,2,2,26,11,,,,,,,,,,,,,,,,,,,,,,,,,,,,,,,,,,,,,,,,850.4796894940082,850.4796894940082,850.4796894940082,850.4796894940082,850.4796894940082,850.4796894940082,850.4796894940082,850.4796894940082,850.4796894940082,850.4796894940082,l,1.532599053985905,1,744,2,852.0313599000219,,853.5330840980168,,,,,,,,,,,,,,,,,,,,,,,,,,,,,,,,,,,,,,,,,,,,,,,,,,,,,,,,,,,,,,,,,,,,,80700,2022-12-01_08h10.00.849,vts_reward_expectancy_bt_OFFLINE,2022.2.4,59.91531976085079,
1,0,0,0,0,1,0,0,triangle,circle,2,0,2,0,2,3,27,0,,,,,,,,,,,,,,,,,,,,,,,,,,,,,,,,,,,,,,,,854.033616383007,854.033616383007,854.033616383007,854.033616383007,854.033616383007,854.033616383007,854.033616383007,854.033616383007,854.033616383007,854.033616383007,l,2.521300722990418,10,754,2,856.5864913350088,,858.0881347070099,,,,,,,,,,,,,,,,,,,,,,,,,,,,,,,,,,,,,,,,,,,,,,,,,,,,,,,,,,,,,,,,,,,,,80700,2022-12-01_08h10.00.849,vts_reward_expectancy_bt_OFFLINE,2022.2.4,59.91531976085079,
1,0,0,0,0,0,1,0,triangle,hexagon,2,0,2,0,2,4,28,1,,,,,,,,,,,,,,,,,,,,,,,,,,,,,,,,,,,,,,,,858.5886592860043,858.5886592860043,858.5886592860043,858.5886592860043,858.5886592860043,858.5886592860043,858.5886592860043,858.5886592860043,858.5886592860043,858.5886592860043,a,2.8945553599915,1,755,2,861.5085270020063,,863.0104437209957,,,,,,,,,,,,,,,,,,,,,,,,,,,,,,,,,,,,,,,,,,,,,,,,,,,,,,,,,,,,,,,,,,,,,80700,2022-12-01_08h10.00.849,vts_reward_expectancy_bt_OFFLINE,2022.2.4,59.91531976085079,
0,0,0,1,0,1,0,0,star ,circle,2,0,2,0,2,5,29,10,,,,,,,,,,,,,,,,,,,,,,,,,,,,,,,,,,,,,,,,863.510895637999,863.510895637999,863.510895637999,863.510895637999,863.510895637999,863.510895637999,863.510895637999,863.510895637999,863.510895637999,863.510895637999,a,3.1564092409680597,1,756,2,866.6978060310066,,868.1993161510036,,,,,,,,,,,,,,,,,,,,,,,,,,,,,,,,,,,,,,,,,,,,,,,,,,,,,,,,,,,,,,,,,,,,,80700,2022-12-01_08h10.00.849,vts_reward_expectancy_bt_OFFLINE,2022.2.4,59.91531976085079,
0,1,0,0,0,0,0,1,circle,star,2,0,2,0,2,6,30,5,,,,,,,,,,,,,,,,,,,,,,,,,,,,,,,,,,,,,,,,868.6997914740059,868.6997914740059,868.6997914740059,868.6997914740059,868.6997914740059,868.6997914740059,868.6997914740059,868.6997914740059,868.6997914740059,868.6997914740059,l,1.2803074499825016,10,766,2,870.001074986998,,871.5027518180141,,,,,,,,,,,,,,,,,,,,,,,,,,,,,,,,,,,,,,,,,,,,,,,,,,,,,,,,,,,,,,,,,,,,,80700,2022-12-01_08h10.00.849,vts_reward_expectancy_bt_OFFLINE,2022.2.4,59.91531976085079,
1,0,0,0,0,0,0,1,triangle,star,2,0,2,0,2,7,31,2,,,,,,,,,,,,,,,,,,,,,,,,,,,,,,,,,,,,,,,,872.0033360790112,872.0033360790112,872.0033360790112,872.0033360790112,872.0033360790112,872.0033360790112,872.0033360790112,872.0033360790112,872.0033360790112,872.0033360790112,a,1.8807736039743759,1,767,2,873.9055582940055,,875.4072070590046,,,,,,,,,,,,,,,,,,,,,,,,,,,,,,,,,,,,,,,,,,,,,,,,,,,,,,,,,,,,,,,,,,,,,80700,2022-12-01_08h10.00.849,vts_reward_expectancy_bt_OFFLINE,2022.2.4,59.91531976085079,
0,0,1,0,0,0,0,1,hexagon,star,2,0,2,0,2,8,32,8,,,,,,,,,,,,,,,,,,,,,,,,,,,,,,,,,,,,,,,,875.9076946730202,875.9076946730202,875.9076946730202,875.9076946730202,875.9076946730202,875.9076946730202,875.9076946730202,875.9076946730202,875.9076946730202,875.9076946730202,a,1.6640747919736896,10,777,2,877.5930005800037,,879.0946127969946,,,,,,,,,,,,,,,,,,,,,,,,,,,,,,,,,,,,,,,,,,,,,,,,,,,,,,,,,,,,,,,,,,,,,80700,2022-12-01_08h10.00.849,vts_reward_expectancy_bt_OFFLINE,2022.2.4,59.91531976085079,
0,0,0,1,1,0,0,0,star,triangle,2,0,2,0,2,9,33,9,,,,,,,,,,,,,,,,,,,,,,,,,,,,,,,,,,,,,,,,879.5953040560125,879.5953040560125,879.5953040560125,879.5953040560125,879.5953040560125,879.5953040560125,879.5953040560125,879.5953040560125,879.5953040560125,879.5953040560125,l,3.353800393990241,1,778,2,882.9655072599999,,884.4671139760176,,,,,,,,,,,,,,,,,,,,,,,,,,,,,,,,,,,,,,,,,,,,,,,,,,,,,,,,,,,,,,,,,,,,,80700,2022-12-01_08h10.00.849,vts_reward_expectancy_bt_OFFLINE,2022.2.4,59.91531976085079,
0,1,0,0,0,0,1,0,circle,hexagon,2,0,2,0,2,10,34,4,,,,,,,,,,,,,,,,,,,,,,,,,,,,,,,,,,,,,,,,884.9675814860093,884.9675814860093,884.9675814860093,884.9675814860093,884.9675814860093,884.9675814860093,884.9675814860093,884.9675814860093,884.9675814860093,884.9675814860093,l,1.285550398984924,10,788,2,886.2693332100171,887.7708569800016,887.7708569800016,,,,,,,,,,,,,,,,,,,,,,,,,,,,,,,,,,,,,,,,,,,,,,,,,,,,,,,,,,,,,,,,,,,,,80700,2022-12-01_08h10.00.849,vts_reward_expectancy_bt_OFFLINE,2022.2.4,59.91531976085079,
0,1,0,0,1,0,0,0,circle,triangle,2,0,2,0,2,11,35,3,,,,,,,,,,,,,,,,,,,,,,,,,,,,,,,,,,,,,,,,888.2714329129958,888.2714329129958,888.2714329129958,888.2714329129958,888.2714329129958,888.2714329129958,888.2714329129958,888.2714329129958,888.2714329129958,888.2714329129958,l,2.8208479909808375,1,789,2,891.1245894890162,,892.6262411890202,,,,,,,,,,,,,,,,,,,,,,,,,,,,,,,,,,,,,,,,,,,,,,,,,,,,,,,,,,,,,,,,,,,,,80700,2022-12-01_08h10.00.849,vts_reward_expectancy_bt_OFFLINE,2022.2.4,59.91531976085079,
1,0,0,0,0,0,1,0,triangle,hexagon,2,0,2,0,3,0,36,1,,,,,,,,,,,,,,,,,,,,,,,,,,,,,,,,,,,,,,,,893.1269888560055,893.1269888560055,893.1269888560055,893.1269888560055,893.1269888560055,893.1269888560055,893.1269888560055,893.1269888560055,893.1269888560055,893.1269888560055,l,2.6609279199910816,10,799,2,895.8130307540123,,897.314825066016,,,,,,,,,,,,,,,,,,,,,,,,,,,,,,,,,,,,,,,,,,,,,,,,,,,,,,,,,,,,,,,,,,,,,80700,2022-12-01_08h10.00.849,vts_reward_expectancy_bt_OFFLINE,2022.2.4,59.91531976085079,
0,0,0,1,0,1,0,0,star ,circle,2,0,2,0,3,1,37,10,,,,,,,,,,,,,,,,,,,,,,,,,,,,,,,,,,,,,,,,897.8152725360123,897.8152725360123,897.8152725360123,897.8152725360123,897.8152725360123,897.8152725360123,897.8152725360123,897.8152725360123,897.8152725360123,897.8152725360123,a,1.3180822209978942,10,809,2,899.1501069079968,,900.6518436339975,,,,,,,,,,,,,,,,,,,,,,,,,,,,,,,,,,,,,,,,,,,,,,,,,,,,,,,,,,,,,,,,,,,,,80700,2022-12-01_08h10.00.849,vts_reward_expectancy_bt_OFFLINE,2022.2.4,59.91531976085079,
0,1,0,0,0,0,0,1,circle,star,2,0,2,0,3,2,38,5,,,,,,,,,,,,,,,,,,,,,,,,,,,,,,,,,,,,,,,,901.1523849790101,901.1523849790101,901.1523849790101,901.1523849790101,901.1523849790101,901.1523849790101,901.1523849790101,901.1523849790101,901.1523849790101,901.1523849790101,l,1.69884650898166,10,819,2,902.8708884490188,,904.3724605760071,,,,,,,,,,,,,,,,,,,,,,,,,,,,,,,,,,,,,,,,,,,,,,,,,,,,,,,,,,,,,,,,,,,,,80700,2022-12-01_08h10.00.849,vts_reward_expectancy_bt_OFFLINE,2022.2.4,59.91531976085079,
0,0,1,0,1,0,0,0,hexagon,triangle,2,0,2,0,3,3,39,6,,,,,,,,,,,,,,,,,,,,,,,,,,,,,,,,,,,,,,,,904.8733746450162,904.8733746450162,904.8733746450162,904.8733746450162,904.8733746450162,904.8733746450162,904.8733746450162,904.8733746450162,904.8733746450162,904.8733746450162,a,1.1146888659859542,1,820,2,906.007693549007,,907.509326542,,,,,,,,,,,,,,,,,,,,,,,,,,,,,,,,,,,,,,,,,,,,,,,,,,,,,,,,,,,,,,,,,,,,,80700,2022-12-01_08h10.00.849,vts_reward_expectancy_bt_OFFLINE,2022.2.4,59.91531976085079,
0,0,0,1,0,0,1,0,star,hexagon,2,0,2,0,3,4,40,11,,,,,,,,,,,,,,,,,,,,,,,,,,,,,,,,,,,,,,,,908.0099032050057,908.0099032050057,908.0099032050057,908.0099032050057,908.0099032050057,908.0099032050057,908.0099032050057,908.0099032050057,908.0099032050057,908.0099032050057,a,1.6254054690070916,1,821,2,909.6617981099989,,911.1633436630073,,,,,,,,,,,,,,,,,,,,,,,,,,,,,,,,,,,,,,,,,,,,,,,,,,,,,,,,,,,,,,,,,,,,,80700,2022-12-01_08h10.00.849,vts_reward_expectancy_bt_OFFLINE,2022.2.4,59.91531976085079,
0,0,1,0,0,0,0,1,hexagon,star,2,0,2,0,3,5,41,8,,,,,,,,,,,,,,,,,,,,,,,,,,,,,,,,,,,,,,,,911.6638532649959,911.6638532649959,911.6638532649959,911.6638532649959,911.6638532649959,911.6638532649959,911.6638532649959,911.6638532649959,911.6638532649959,911.6638532649959,l,3.6601689620001707,10,831,2,915.3513607170025,,916.85283965501,,,,,,,,,,,,,,,,,,,,,,,,,,,,,,,,,,,,,,,,,,,,,,,,,,,,,,,,,,,,,,,,,,,,,80700,2022-12-01_08h10.00.849,vts_reward_expectancy_bt_OFFLINE,2022.2.4,59.91531976085079,
0,1,0,0,0,0,1,0,circle,hexagon,2,0,2,0,3,6,42,4,,,,,,,,,,,,,,,,,,,,,,,,,,,,,,,,,,,,,,,,917.3534952900081,917.3534952900081,917.3534952900081,917.3534952900081,917.3534952900081,917.3534952900081,917.3534952900081,917.3534952900081,917.3534952900081,917.3534952900081,l,1.5787726119742729,10,841,2,918.9552381510148,,920.4568755600194,,,,,,,,,,,,,,,,,,,,,,,,,,,,,,,,,,,,,,,,,,,,,,,,,,,,,,,,,,,,,,,,,,,,,80700,2022-12-01_08h10.00.849,vts_reward_expectancy_bt_OFFLINE,2022.2.4,59.91531976085079,
0,0,1,0,0,1,0,0,hexagon,circle,2,0,2,0,3,7,43,7,,,,,,,,,,,,,,,,,,,,,,,,,,,,,,,,,,,,,,,,920.9575611740001,920.9575611740001,920.9575611740001,920.9575611740001,920.9575611740001,920.9575611740001,920.9575611740001,920.9575611740001,920.9575611740001,920.9575611740001,a,1.5257466379844118,1,842,2,922.509308948007,,924.0110212290019,,,,,,,,,,,,,,,,,,,,,,,,,,,,,,,,,,,,,,,,,,,,,,,,,,,,,,,,,,,,,,,,,,,,,80700,2022-12-01_08h10.00.849,vts_reward_expectancy_bt_OFFLINE,2022.2.4,59.91531976085079,
0,1,0,0,1,0,0,0,circle,triangle,2,0,2,0,3,8,44,3,,,,,,,,,,,,,,,,,,,,,,,,,,,,,,,,,,,,,,,,924.511400117015,924.511400117015,924.511400117015,924.511400117015,924.511400117015,924.511400117015,924.511400117015,924.511400117015,924.511400117015,924.511400117015,l,3.739537412970094,1,843,2,928.2822262289992,,929.7838366950164,,,,,,,,,,,,,,,,,,,,,,,,,,,,,,,,,,,,,,,,,,,,,,,,,,,,,,,,,,,,,,,,,,,,,80700,2022-12-01_08h10.00.849,vts_reward_expectancy_bt_OFFLINE,2022.2.4,59.91531976085079,
1,0,0,0,0,0,0,1,triangle,star,2,0,2,0,3,9,45,2,,,,,,,,,,,,,,,,,,,,,,,,,,,,,,,,,,,,,,,,930.2843148090178,930.2843148090178,930.2843148090178,930.2843148090178,930.2843148090178,930.2843148090178,930.2843148090178,930.2843148090178,930.2843148090178,930.2843148090178,l,2.03188580396818,10,853,2,932.3364939480089,,933.8382750900055,,,,,,,,,,,,,,,,,,,,,,,,,,,,,,,,,,,,,,,,,,,,,,,,,,,,,,,,,,,,,,,,,,,,,80700,2022-12-01_08h10.00.849,vts_reward_expectancy_bt_OFFLINE,2022.2.4,59.91531976085079,
0,0,0,1,1,0,0,0,star,triangle,2,0,2,0,3,10,46,9,,,,,,,,,,,,,,,,,,,,,,,,,,,,,,,,,,,,,,,,934.339079471014,934.339079471014,934.339079471014,934.339079471014,934.339079471014,934.339079471014,934.339079471014,934.339079471014,934.339079471014,934.339079471014,a,1.288381517981179,10,863,2,935.657178124995,,937.1587115410075,,,,,,,,,,,,,,,,,,,,,,,,,,,,,,,,,,,,,,,,,,,,,,,,,,,,,,,,,,,,,,,,,,,,,80700,2022-12-01_08h10.00.849,vts_reward_expectancy_bt_OFFLINE,2022.2.4,59.91531976085079,
1,0,0,0,0,1,0,0,triangle,circle,2,0,2,0,3,11,47,0,,,,,,,,,,,,,,,,,,,,,,,,,,,,,,,,,,,,,,,,937.6594719080022,937.6594719080022,937.6594719080022,937.6594719080022,937.6594719080022,937.6594719080022,937.6594719080022,937.6594719080022,937.6594719080022,937.6594719080022,l,1.1518068239965942,1,864,2,938.8438931940182,,940.3455464949948,,,,,,,,,,,,,,,,,,,,,,,,,,,,,,,,,,,,,,,,,,,,,,,,,,,,,,,,,,,,,,,,,,,,,80700,2022-12-01_08h10.00.849,vts_reward_expectancy_bt_OFFLINE,2022.2.4,59.91531976085079,
,,,,,,,,,,,,,,,,,,0,0,0,0,0,0,0,0,,,,,,,,,,,,,,,,,,,,,,,,,,,,,,,,,,,,,,,,,,,,,,,,,970.4286811930069,167,Y,triangle,0.0019911019771825522,965.7856962899968,967.2920776620158,967.2920776620158,967.2920776620158,1,0,f,1.6078335109632462,0,968.9274120570044,,,,,,,,,,,,,,,,,,,,,,,,,,,,,,,,,,,,,,,,,,,,,,,,,,,,,,,80700,2022-12-01_08h10.00.849,vts_reward_expectancy_bt_OFFLINE,2022.2.4,59.91531976085079,
,,,,,,,,,,,,,,,,,,0,0,0,0,1,0,1,0,,,,,,,,,,,,,,,,,,,,,,,,,,,,,,,,,,,,,,,,,,,,,,,,,975.8847100400017,132,S,star,0.0015055030235089362,971.4067919590161,972.9149718330009,972.9149718330009,972.9149718330009,1,0,d,1.4400708429748192,0,974.3831101130054,,,,,,,,,,,,,,,,,,,,,,,,,,,,,,,,,,,,,,,,,,,,,,,,,,,,,,,80700,2022-12-01_08h10.00.849,vts_reward_expectancy_bt_OFFLINE,2022.2.4,59.91531976085079,
,,,,,,,,,,,,,,,,,,0,0,0,0,2,0,2,0,,,,,,,,,,,,,,,,,,,,,,,,,,,,,,,,,,,,,,,,,,,,,,,,,980.7900318420143,174,U,circle,0.0018117919971700758,976.8645229710091,978.3707863310119,978.3707863310119,978.3707863310119,1,0,f,0.8966421549557708,0,979.2887065350078,,,,,,,,,,,,,,,,,,,,,,,,,,,,,,,,,,,,,,,,,,,,,,,,,,,,,,,80700,2022-12-01_08h10.00.849,vts_reward_expectancy_bt_OFFLINE,2022.2.4,59.91531976085079,
,,,,,,,,,,,,,,,,,,0,0,0,0,3,0,3,0,,,,,,,,,,,,,,,,,,,,,,,,,,,,,,,,,,,,,,,,,,,,,,,,,985.6789174160222,160,B,hexagon,0.0015079579898156226,981.7685795740108,983.276274533011,983.276274533011,983.276274533011,1,0,f,0.8723262759740464,0,984.1772295060218,,,,,,,,,,,,,,,,,,,,,,,,,,,,,,,,,,,,,,,,,,,,,,,,,,,,,,,80700,2022-12-01_08h10.00.849,vts_reward_expectancy_bt_OFFLINE,2022.2.4,59.91531976085079,
,,,,,,,,,,,,,,,,,,0,0,0,0,4,0,4,0,,,,,,,,,,,,,,,,,,,,,,,,,,,,,,,,,,,,,,,,,,,,,,,,,990.634201673005,146,H,triangle,0.0017352279974147677,986.6571066790202,988.1648691610026,988.1648691610026,988.1648691610026,1,0,d,0.9353975539852399,0,989.132568504021,,,,,,,,,,,,,,,,,,,,,,,,,,,,,,,,,,,,,,,,,,,,,,,,,,,,,,,80700,2022-12-01_08h10.00.849,vts_reward_expectancy_bt_OFFLINE,2022.2.4,59.91531976085079,
,,,,,,,,,,,,,,,,,,0,0,0,0,5,0,5,0,,,,,,,,,,,,,,,,,,,,,,,,,,,,,,,,,,,,,,,,,,,,,,,,,995.3228367050178,181,W,star,0.001783632003935054,991.6139668840042,993.1202848730027,993.1202848730027,993.1202848730027,1,0,f,0.6758695789903868,0,993.821107516007,,,,,,,,,,,,,,,,,,,,,,,,,,,,,,,,,,,,,,,,,,,,,,,,,,,,,,,80700,2022-12-01_08h10.00.849,vts_reward_expectancy_bt_OFFLINE,2022.2.4,59.91531976085079,
,,,,,,,,,,,,,,,,,,0,0,0,0,6,0,6,0,,,,,,,,,,,,,,,,,,,,,,,,,,,,,,,,,,,,,,,,,,,,,,,,,1000.0279496709991,139,F,hexagon,0.0012305259879212826,996.3022129340097,997.8089435209986,997.8089435209986,997.8089435209986,1,0,d,0.6902623369824141,0,998.5263009880146,,,,,,,,,,,,,,,,,,,,,,,,,,,,,,,,,,,,,,,,,,,,,,,,,,,,,,,80700,2022-12-01_08h10.00.849,vts_reward_expectancy_bt_OFFLINE,2022.2.4,59.91531976085079,
,,,,,,,,,,,,,,,,,,0,0,0,0,7,0,7,0,,,,,,,,,,,,,,,,,,,,,,,,,,,,,,,,,,,,,,,,,,,,,,,,,1005.3844895939983,125,D,circle,0.001543563004815951,1001.0066352559952,1002.5139850669948,1002.5139850669948,1002.5139850669948,1,0,d,1.3373663959791884,0,1003.8822931890027,,,,,,,,,,,,,,,,,,,,,,,,,,,,,,,,,,,,,,,,,,,,,,,,,,,,,,,80700,2022-12-01_08h10.00.849,vts_reward_expectancy_bt_OFFLINE,2022.2.4,59.91531976085079,
,,,,,,,,,,,,,,,,,,0,0,0,0,8,0,8,0,,,,,,,,,,,,,,,,,,,,,,,,,,,,,,,,,,,,,,,,,,,,,,,,,1010.1391738020175,167,Y,hexagon,0.001379905006615445,1006.3616216010123,1007.870307448,1007.870307448,1007.870307448,1,0,f,0.7509720489906613,0,1008.6378040029958,,,,,,,,,,,,,,,,,,,,,,,,,,,,,,,,,,,,,,,,,,,,,,,,,,,,,,,80700,2022-12-01_08h10.00.849,vts_reward_expectancy_bt_OFFLINE,2022.2.4,59.91531976085079,
,,,,,,,,,,,,,,,,,,0,0,0,0,9,0,9,0,,,,,,,,,,,,,,,,,,,,,,,,,,,,,,,,,,,,,,,,,,,,,,,,,1014.8110684720159,132,S,star,0.0008652050164528191,1011.1173052900122,1012.6252339500061,1012.6252339500061,1012.6252339500061,1,0,d,0.6515698099974543,0,1013.3093773199944,,,,,,,,,,,,,,,,,,,,,,,,,,,,,,,,,,,,,,,,,,,,,,,,,,,,,,,80700,2022-12-01_08h10.00.849,vts_reward_expectancy_bt_OFFLINE,2022.2.4,59.91531976085079,
,,,,,,,,,,,,,,,,,,,,,,,,,,0,0,0,0,0,0,0,0,,,,,,,,,,,,,,,,,,,,,,,,,,,,,,,,,,,,,,,,,1076.4122718780127,167,H,triangle,0.0019672519993036985,,,,,0,0,,,1,1074.9105241840007,1070.4002324810135,1071.9072142960213,1071.9072142960213,1071.9072142960213,1074.9105241840007,1074.9105241840007,1074.9105241840007,1074.9105241840007,None,1076.4122718780127,1076.9127707980224,,,,,,,,,,,,,,,,,,,,,,,,,,,,,,,,,,,,,,,,,,,,80700,2022-12-01_08h10.00.849,vts_reward_expectancy_bt_OFFLINE,2022.2.4,59.91531976085079,
,,,,,,,,,,,,,,,,,,,,,,,,,,0,0,0,0,1,0,1,0,,,,,,,,,,,,,,,,,,,,,,,,,,,,,,,,,,,,,,,,,1081.584713868011,174,B,star,0.009042013989528641,,,,,1,1,,,1,1080.0828763890022,1077.407441117015,1078.9151922700112,1078.9151922700112,1078.9151922700112,,,,,j,,,1.1359684219933115,,,,,,,,,,,,,,,,,,,,,,,,,,,,,,,,,,,,,,,,,,,80700,2022-12-01_08h10.00.849,vts_reward_expectancy_bt_OFFLINE,2022.2.4,59.91531976085079,
,,,,,,,,,,,,,,,,,,,,,,,,,,0,0,0,0,2,0,2,0,,,,,,,,,,,,,,,,,,,,,,,,,,,,,,,,,,,,,,,,,1086.2566612910014,139,W,circle,0.0017705470090731978,,,,,1,0,,,1,1084.7548317820183,1082.562932216999,1084.0707605589996,1084.0707605589996,1084.0707605589996,,,,,k,,,0.6523152939917054,,,,,,,,,,,,,,,,,,,,,,,,,,,,,,,,,,,,,,,,,,,80700,2022-12-01_08h10.00.849,vts_reward_expectancy_bt_OFFLINE,2022.2.4,59.91531976085079,
,,,,,,,,,,,,,,,,,,,,,,,,,,0,0,0,0,3,0,3,0,,,,,,,,,,,,,,,,,,,,,,,,,,,,,,,,,,,,,,,,,1091.0116357130173,181,U,hexagon,0.0017390479915775359,,,,,1,0,,,1,1089.510031945014,1087.2348293990071,1088.7426805860014,1088.7426805860014,1088.7426805860014,,,,,k,,,0.7410734749573749,,,,,,,,,,,,,,,,,,,,,,,,,,,,,,,,,,,,,,,,,,,80700,2022-12-01_08h10.00.849,vts_reward_expectancy_bt_OFFLINE,2022.2.4,59.91531976085079,
,,,,,,,,,,,,,,,,,,,,,,,,,,0,0,0,0,4,0,4,0,,,,,,,,,,,,,,,,,,,,,,,,,,,,,,,,,,,,,,,,,1095.91723636401,160,S,hexagon,0.0016453540010843426,,,,,1,0,,,1,1094.415309692995,1091.9891224169987,1093.4977132299973,1093.4977132299973,1093.4977132299973,,,,,k,,,0.8984769639791921,,,,,,,,,,,,,,,,,,,,,,,,,,,,,,,,,,,,,,,,,,,80700,2022-12-01_08h10.00.849,vts_reward_expectancy_bt_OFFLINE,2022.2.4,59.91531976085079,
,,,,,,,,,,,,,,,,,,,,,,,,,,0,0,0,0,5,0,5,0,,,,,,,,,,,,,,,,,,,,,,,,,,,,,,,,,,,,,,,,,1100.488827032008,146,D,circle,0.0012997489830013365,,,,,1,0,,,1,1098.987122927996,1096.8941161340044,1098.4034347160195,1098.4034347160195,1098.4034347160195,,,,,j,,,0.5520951209764462,,,,,,,,,,,,,,,,,,,,,,,,,,,,,,,,,,,,,,,,,,,80700,2022-12-01_08h10.00.849,vts_reward_expectancy_bt_OFFLINE,2022.2.4,59.91531976085079,
,,,,,,,,,,,,,,,,,,,,,,,,,,0,0,0,0,6,0,6,0,,,,,,,,,,,,,,,,,,,,,,,,,,,,,,,,,,,,,,,,,1105.310830713017,132,F,star,0.001506914006313309,,,,,1,0,,,1,1103.8090347069956,1101.4663407210028,1102.9749138189945,1102.9749138189945,1102.9749138189945,,,,,j,,,0.8058107079996262,,,,,,,,,,,,,,,,,,,,,,,,,,,,,,,,,,,,,,,,,,,80700,2022-12-01_08h10.00.849,vts_reward_expectancy_bt_OFFLINE,2022.2.4,59.91531976085079,
,,,,,,,,,,,,,,,,,,,,,,,,,,0,0,0,0,7,0,7,0,,,,,,,,,,,,,,,,,,,,,,,,,,,,,,,,,,,,,,,,,1109.8990998000081,125,Y,triangle,0.0016215289942920208,,,,,1,0,,,1,1108.3963325520162,1106.2888895900105,1107.7968538520217,1107.7968538520217,1107.7968538520217,,,,,k,,,0.5686857659893576,,,,,,,,,,,,,,,,,,,,,,,,,,,,,,,,,,,,,,,,,,,80700,2022-12-01_08h10.00.849,vts_reward_expectancy_bt_OFFLINE,2022.2.4,59.91531976085079,
,,,,,,,,,,,,,,,,,,,,,,,,,,0,0,0,0,8,0,8,0,,,,,,,,,,,,,,,,,,,,,,,,,,,,,,,,,,,,,,,,,1114.7711836630187,167,H,star,0.0016626950236968696,,,,,1,0,,,1,1113.2694499049976,1110.8763568930153,1112.3851779290126,1112.3851779290126,1112.3851779290126,,,,,j,,,0.8586273139808327,,,,,,,,,,,,,,,,,,,,,,,,,,,,,,,,,,,,,,,,,,,80700,2022-12-01_08h10.00.849,vts_reward_expectancy_bt_OFFLINE,2022.2.4,59.91531976085079,
,,,,,,,,,,,,,,,,,,,,,,,,,,0,0,0,0,9,0,9,0,,,,,,,,,,,,,,,,,,,,,,,,,,,,,,,,,,,,,,,,,1119.5765062989958,174,B,hexagon,0.0016514220042154193,,,,,1,0,,,1,1118.0752712270187,1115.7476567050035,1117.2575202599983,1117.2575202599983,1117.2575202599983,,,,,j,,,0.7937501259730197,,,,,,,,,,,,,,,,,,,,,,,,,,,,,,,,,,,,,,,,,,,80700,2022-12-01_08h10.00.849,vts_reward_expectancy_bt_OFFLINE,2022.2.4,59.91531976085079,
,,,,,,,,,,,,,,,,,,,,,,,,,,,,,,,,,,0,0,0,0,0,0,0,0,,,,,,,,,,,,,,,,,,,,,,,,,,,,0,864,,,,1156.6672713510052,125,B,star,0.002477742003975436,,,,,1,0,,,2,,,,,,,,,,,,,,1151.675236289011,1151.675236289011,1151.675236289011,1151.675236289011,1153.1803130500193,1153.1803130500193,1153.1803130500193,1153.1803130500193,1153.1803130500193,1153.1803130500193,1153.1803130500193,1153.1803130500193,-1,letter,NA,j,1.9596039119642228,vtsPrac,1155.1660785870044,,,,,,,,,,,,,,,,,,,,,,,,80700,2022-12-01_08h10.00.849,vts_reward_expectancy_bt_OFFLINE,2022.2.4,59.91531976085079,
,,,,,,,,,,,,,,,,,,,,,,,,,,,,,,,,,,0,0,0,0,1,0,1,0,,,,,,,,,,,,,,,,,,,,,,,,,,,,0,864,,,,1162.1402500560216,181,W,triangle,0.0014922780101187527,,,,,0,0,,,2,,,,,,,,,,,,,,1157.6461007920152,1157.6461007920152,1157.6461007920152,1157.6461007920152,1159.153698618,1159.153698618,1159.153698618,1159.153698618,1159.153698618,1159.153698618,1159.153698618,1159.153698618,repeat,letter,NA,j,1.4577658169728238,vtsPrac,1160.6386487380078,,,,,,,,,,,,,,,,,,,,,,,,80700,2022-12-01_08h10.00.849,vts_reward_expectancy_bt_OFFLINE,2022.2.4,59.91531976085079,
,,,,,,,,,,,,,,,,,,,,,,,,,,,,,,,,,,0,0,0,0,2,0,2,0,,,,,,,,,,,,,,,,,,,,,,,,,,,,0,864,,,,1167.6632042900019,132,Y,star,0.0014072580088395625,,,,,1,1,,,2,,,,,,,,,,,,,,1163.1209892470215,1163.1209892470215,1163.1209892470215,1163.1209892470215,1164.626328405022,1164.626328405022,1164.626328405022,1164.626328405022,1164.626328405022,1164.626328405022,1164.626328405022,1164.626328405022,repeat,letter,lettRpt,k,1.5064098299772013,vtsPrac,1166.1612474470166,,,,,,,,,,,,,,,,,,,,,,,,80700,2022-12-01_08h10.00.849,vts_reward_expectancy_bt_OFFLINE,2022.2.4,59.91531976085079,
,,,,,,,,,,,,,,,,,,,,,,,,,,,,,,,,,,0,0,0,0,3,0,3,0,,,,,,,,,,,,,,,,,,,,,,,,,,,,0,864,,,,1172.868646618008,146,D,triangle,0.001382073009153828,,,,,1,0,,,2,,,,,,,,,,,,,,1168.6417173900118,1168.6417173900118,1168.6417173900118,1168.6417173900118,1170.148920281994,1170.148920281994,1170.148920281994,1170.148920281994,1170.148920281994,1170.148920281994,1170.148920281994,1170.148920281994,switch,number,numSwt,d,1.1987380039936397,vtsPrac,1171.3671201179968,,,,,,,,,,,,,,,,,,,,,,,,80700,2022-12-01_08h10.00.849,vts_reward_expectancy_bt_OFFLINE,2022.2.4,59.91531976085079,
,,,,,,,,,,,,,,,,,,,,,,,,,,,,,,,,,,0,0,0,0,4,0,4,0,,,,,,,,,,,,,,,,,,,,,,,,,,,,0,864,,,,1178.0409645129985,125,B,hexagon,0.0012960730236954987,,,,,1,0,,,2,,,,,,,,,,,,,,1173.8458842450054,1173.8458842450054,1173.8458842450054,1173.8458842450054,1175.3548556610185,1175.3548556610185,1175.3548556610185,1175.3548556610185,1175.3548556610185,1175.3548556610185,1175.3548556610185,1175.3548556610185,repeat,number,numRpt,d,1.1530606739979703,vtsPrac,1176.5394905120193,,,,,,,,,,,,,,,,,,,,,,,,80700,2022-12-01_08h10.00.849,vts_reward_expectancy_bt_OFFLINE,2022.2.4,59.91531976085079,
,,,,,,,,,,,,,,,,,,,,,,,,,,,,,,,,,,0,0,0,0,5,0,5,0,,,,,,,,,,,,,,,,,,,,,,,,,,,,0,864,,,,1182.862896948005,181,W,star,0.0015506950148846954,,,,,1,0,,,2,,,,,,,,,,,,,,1179.018569308013,1179.018569308013,1179.018569308013,1179.018569308013,1180.5271921880194,1180.5271921880194,1180.5271921880194,1180.5271921880194,1180.5271921880194,1180.5271921880194,1180.5271921880194,1180.5271921880194,switch,letter,lettSwt,k,0.8132038399635348,vtsPrac,1181.3613089760183,,,,,,,,,,,,,,,,,,,,,,,,80700,2022-12-01_08h10.00.849,vts_reward_expectancy_bt_OFFLINE,2022.2.4,59.91531976085079,
,,,,,,,,,,,,,,,,,,,,,,,,,,,,,,,,,,0,0,0,0,6,0,6,0,,,,,,,,,,,,,,,,,,,,,,,,,,,,0,864,,,,1187.601498406002,132,Y,star,0.0016282430151477456,,,,,1,0,,,2,,,,,,,,,,,,,,1183.8407465920027,1183.8407465920027,1183.8407465920027,1183.8407465920027,1185.3491017970082,1185.3491017970082,1185.3491017970082,1185.3491017970082,1185.3491017970082,1185.3491017970082,1185.3491017970082,1185.3491017970082,switch,number,numSwt,d,0.7270582819764968,vtsPrac,1186.0997928510187,,,,,,,,,,,,,,,,,,,,,,,,80700,2022-12-01_08h10.00.849,vts_reward_expectancy_bt_OFFLINE,2022.2.4,59.91531976085079,
,,,,,,,,,,,,,,,,,,,,,,,,,,,,,,,,,,0,0,0,0,7,0,7,0,,,,,,,,,,,,,,,,,,,,,,,,,,,,0,864,,,,1192.3567882700008,146,D,circle,0.001804445986635983,,,,,1,0,,,2,,,,,,,,,,,,,,1188.5797136370093,1188.5797136370093,1188.5797136370093,1188.5797136370093,1190.0874924859963,1190.0874924859963,1190.0874924859963,1190.0874924859963,1190.0874924859963,1190.0874924859963,1190.0874924859963,1190.0874924859963,switch,letter,lettSwt,j,0.7483868549752515,vtsPrac,1190.8551273860212,,,,,,,,,,,,,,,,,,,,,,,,80700,2022-12-01_08h10.00.849,vts_reward_expectancy_bt_OFFLINE,2022.2.4,59.91531976085079,
,,,,,,,,,,,,,,,,,,,,,,,,,,,,,,,,,,0,0,0,0,8,0,8,0,,,,,,,,,,,,,,,,,,,,,,,,,,,,0,864,,,,1197.178750399995,125,H,triangle,0.001560795004479587,,,,,1,0,,,2,,,,,,,,,,,,,,1193.3356901720108,1193.3356901720108,1193.3356901720108,1193.3356901720108,1194.8430013710167,1194.8430013710167,1194.8430013710167,1194.8430013710167,1194.8430013710167,1194.8430013710167,1194.8430013710167,1194.8430013710167,repeat,letter,lettRpt,j,0.8177045429765712,vtsPrac,1195.6770460480184,,,,,,,,,,,,,,,,,,,,,,,,80700,2022-12-01_08h10.00.849,vts_reward_expectancy_bt_OFFLINE,2022.2.4,59.91531976085079,
,,,,,,,,,,,,,,,,,,,,,,,,,,,,,,,,,,0,0,0,0,9,0,9,0,,,,,,,,,,,,,,,,,,,,,,,,,,,,0,864,,,,1201.733844361006,160,Y,star,0.0011122769792564213,,,,,1,0,,,2,,,,,,,,,,,,,,1198.1570601020067,1198.1570601020067,1198.1570601020067,1198.1570601020067,1199.6648729540175,1199.6648729540175,1199.6648729540175,1199.6648729540175,1199.6648729540175,1199.6648729540175,1199.6648729540175,1199.6648729540175,switch,number,numSwt,f,0.5396320929867215,vtsPrac,1200.232207106019,,,,,,,,,,,,,,,,,,,,,,,,80700,2022-12-01_08h10.00.849,vts_reward_expectancy_bt_OFFLINE,2022.2.4,59.91531976085079,
,,,,,,,,,,,,,,,,,,,,,,,,,,,,,,,,,,0,0,0,0,10,0,10,0,,,,,,,,,,,,,,,,,,,,,,,,,,,,0,864,,,,1206.9895150290104,146,D,circle,0.0018083089962601662,,,,,1,0,,,2,,,,,,,,,,,,,,1202.7118355210114,1202.7118355210114,1202.7118355210114,1202.7118355210114,1204.219982095994,1204.219982095994,1204.219982095994,1204.219982095994,1204.219982095994,1204.219982095994,1204.219982095994,1204.219982095994,repeat,number,numRpt,d,1.2401370989682619,vtsPrac,1205.487913606019,,,,,,,,,,,,,,,,,,,,,,,,80700,2022-12-01_08h10.00.849,vts_reward_expectancy_bt_OFFLINE,2022.2.4,59.91531976085079,
,,,,,,,,,,,,,,,,,,,,,,,,,,,,,,,,,,0,0,0,0,11,0,11,0,,,,,,,,,,,,,,,,,,,,,,,,,,,,0,864,,,,1212.2787173039978,174,B,star,0.0016085760144051164,,,,,1,0,,,2,,,,,,,,,,,,,,1207.9681366260047,1207.9681366260047,1207.9681366260047,1207.9681366260047,1209.4759061470104,1209.4759061470104,1209.4759061470104,1209.4759061470104,1209.4759061470104,1209.4759061470104,1209.4759061470104,1209.4759061470104,switch,letter,lettSwt,j,1.2732376589847263,vtsPrac,1210.7771001530054,,,,,,,,,,,,,,,,,,,,,,,,80700,2022-12-01_08h10.00.849,vts_reward_expectancy_bt_OFFLINE,2022.2.4,59.91531976085079,
,,,,,,,,,,,,,,,,,,,,,,,,,,,,,,,,,,0,0,0,0,12,0,12,0,,,,,,,,,,,,,,,,,,,,,,,,,,,,0,864,,,,1217.2677953210077,181,W,circle,0.0017027560097631067,,,,,1,0,,,2,,,,,,,,,,,,,,1213.2567397500097,1213.2567397500097,1213.2567397500097,1213.2567397500097,1214.7647998059983,1214.7647998059983,1214.7647998059983,1214.7647998059983,1214.7647998059983,1214.7647998059983,1214.7647998059983,1214.7647998059983,switch,number,numSwt,f,0.984803108003689,vtsPrac,1215.766436400998,,,,,,,,,,,,,,,,,,,,,,,,80700,2022-12-01_08h10.00.849,vts_reward_expectancy_bt_OFFLINE,2022.2.4,59.91531976085079,
,,,,,,,,,,,,,,,,,,,,,,,,,,,,,,,,,,0,0,0,0,13,0,13,0,,,,,,,,,,,,,,,,,,,,,,,,,,,,0,864,,,,1222.4733827839955,167,S,star,0.0010282419971190393,,,,,1,0,,,2,,,,,,,,,,,,,,1218.2455536530179,1218.2455536530179,1218.2455536530179,1218.2455536530179,1219.7537230930175,1219.7537230930175,1219.7537230930175,1219.7537230930175,1219.7537230930175,1219.7537230930175,1219.7537230930175,1219.7537230930175,switch,letter,lettSwt,k,1.1853497279807925,vtsPrac,1220.9717994980165,,,,,,,,,,,,,,,,,,,,,,,,80700,2022-12-01_08h10.00.849,vts_reward_expectancy_bt_OFFLINE,2022.2.4,59.91531976085079,
,,,,,,,,,,,,,,,,,,,,,,,,,,,,,,,,,,0,0,0,0,14,0,14,0,,,,,,,,,,,,,,,,,,,,,,,,,,,,0,864,,,,1227.0783745550143,174,D,hexagon,0.0014493830094579607,,,,,1,0,,,2,,,,,,,,,,,,,,1223.4499729480012,1223.4499729480012,1223.4499729480012,1223.4499729480012,1224.9594688930083,1224.9594688930083,1224.9594688930083,1224.9594688930083,1224.9594688930083,1224.9594688930083,1224.9594688930083,1224.9594688930083,switch,number,numSwt,f,0.5888879849808291,vtsPrac,1225.5766978330212,,,,,,,,,,,,,,,,,,,,,,,,80700,2022-12-01_08h10.00.849,vts_reward_expectancy_bt_OFFLINE,2022.2.4,59.91531976085079,
,,,,,,,,,,,,,,,,,,,,,,,,,,,,,,,,,,0,0,0,0,15,0,15,0,,,,,,,,,,,,,,,,,,,,,,,,,,,,0,864,,,,1231.883578081004,125,U,circle,0.001629842008696869,,,,,0,0,,,2,,,,,,,,,,,,,,1228.057002696005,1228.057002696005,1228.057002696005,1228.057002696005,1229.5644703230064,1229.5644703230064,1229.5644703230064,1229.5644703230064,1229.5644703230064,1229.5644703230064,1229.5644703230064,1229.5644703230064,switch,letter,NA,j,0.7910861299897078,vtsPrac,1230.3820158519957,,,,,,,,,,,,,,,,,,,,,,,,80700,2022-12-01_08h10.00.849,vts_reward_expectancy_bt_OFFLINE,2022.2.4,59.91531976085079,
,,,,,,,,,,,,,,,,,,,,,,,,,,,,,,,,,,0,0,0,0,16,0,16,0,,,,,,,,,,,,,,,,,,,,,,,,,,,,0,864,,,,1237.1229021420004,160,W,triangle,0.0018195690063294023,,,,,1,1,,,2,,,,,,,,,,,,,,1232.8616355010017,1232.8616355010017,1232.8616355010017,1232.8616355010017,1234.3696826609957,1234.3696826609957,1234.3696826609957,1234.3696826609957,1234.3696826609957,1234.3696826609957,1234.3696826609957,1234.3696826609957,repeat,letter,lettRpt,k,1.2353897559805773,vtsPrac,1235.6210672830057,,,,,,,,,,,,,,,,,,,,,,,,80700,2022-12-01_08h10.00.849,vts_reward_expectancy_bt_OFFLINE,2022.2.4,59.91531976085079,
,,,,,,,,,,,,,,,,,,,,,,,,,,,,,,,,,,0,0,0,0,17,0,17,0,,,,,,,,,,,,,,,,,,,,,,,,,,,,0,864,,,,1242.1784236050153,167,H,circle,0.0008929029863793403,,,,,0,0,,,2,,,,,,,,,,,,,,1238.1008860020083,1238.1008860020083,1238.1008860020083,1238.1008860020083,1239.609217470017,1239.609217470017,1239.609217470017,1239.609217470017,1239.609217470017,1239.609217470017,1239.609217470017,1239.609217470017,repeat,letter,NA,k,1.0355325370037463,vtsPrac,1240.6766781400074,,,,,,,,,,,,,,,,,,,,,,,,80700,2022-12-01_08h10.00.849,vts_reward_expectancy_bt_OFFLINE,2022.2.4,59.91531976085079,
,,,,,,,,,,,,,,,,,,,,,,,,,,,,,,,,,,0,0,0,0,18,0,18,0,,,,,,,,,,,,,,,,,,,,,,,,,,,,0,864,,,,1247.1338511549984,132,Y,triangle,0.001465362001908943,,,,,1,1,,,2,,,,,,,,,,,,,,1243.156064648996,1243.156064648996,1243.156064648996,1243.156064648996,1244.6645222630177,1244.6645222630177,1244.6645222630177,1244.6645222630177,1244.6645222630177,1244.6645222630177,1244.6645222630177,1244.6645222630177,switch,number,numSwt,d,0.9470002809830476,vtsPrac,1245.632311046007,,,,,,,,,,,,,,,,,,,,,,,,80700,2022-12-01_08h10.00.849,vts_reward_expectancy_bt_OFFLINE,2022.2.4,59.91531976085079,
,,,,,,,,,,,,,,,,,,,,,,,,,,,,,,,,,,0,0,0,0,19,0,19,0,,,,,,,,,,,,,,,,,,,,,,,,,,,,0,864,,,,1251.9725157770154,181,D,star,0.001624530996195972,,,,,1,0,,,2,,,,,,,,,,,,,,1248.1125444200006,1248.1125444200006,1248.1125444200006,1248.1125444200006,1249.6199846100062,1249.6199846100062,1249.6199846100062,1249.6199846100062,1249.6199846100062,1249.6199846100062,1249.6199846100062,1249.6199846100062,switch,letter,lettSwt,j,0.8316959589719772,vtsPrac,1250.4708942150173,,,,,,,,,,,,,,,,,,,,,,,,80700,2022-12-01_08h10.00.849,vts_reward_expectancy_bt_OFFLINE,2022.2.4,59.91531976085079,
,,,,,,,,,,,,,,,,,,,,,,,,,,,,,,,,,,0,0,0,0,20,0,20,0,,,,,,,,,,,,,,,,,,,,,,,,,,,,0,864,,,,1256.5280312700197,125,D,triangle,0.0015274180041160434,,,,,1,0,,,2,,,,,,,,,,,,,,1252.9493457810022,1252.9493457810022,1252.9493457810022,1252.9493457810022,1254.4585788650147,1254.4585788650147,1254.4585788650147,1254.4585788650147,1254.4585788650147,1254.4585788650147,1254.4585788650147,1254.4585788650147,repeat,letter,lettRpt,j,0.5365501570049673,vtsPrac,1255.0259371800057,,,,,,,,,,,,,,,,,,,,,,,,80700,2022-12-01_08h10.00.849,vts_reward_expectancy_bt_OFFLINE,2022.2.4,59.91531976085079,
,,,,,,,,,,,,,,,,,,,,,,,,,,,,,,,,,,0,0,0,0,21,0,21,0,,,,,,,,,,,,,,,,,,,,,,,,,,,,0,864,,,,1261.1995147069974,174,Y,circle,0.0012582039926201105,,,,,1,0,,,2,,,,,,,,,,,,,,1257.5048449590104,1257.5048449590104,1257.5048449590104,1257.5048449590104,1259.0137661030167,1259.0137661030167,1259.0137661030167,1259.0137661030167,1259.0137661030167,1259.0137661030167,1259.0137661030167,1259.0137661030167,repeat,letter,lettRpt,k,0.6615902759949677,vtsPrac,1259.6981073640054,,,,,,,,,,,,,,,,,,,,,,,,80700,2022-12-01_08h10.00.849,vts_reward_expectancy_bt_OFFLINE,2022.2.4,59.91531976085079,
,,,,,,,,,,,,,,,,,,,,,,,,,,,,,,,,,,0,0,0,0,22,0,22,0,,,,,,,,,,,,,,,,,,,,,,,,,,,,0,864,,,,1265.9882300320023,139,F,hexagon,0.0013189580058678985,,,,,1,0,,,2,,,,,,,,,,,,,,1262.1798234989983,1262.1798234989983,1262.1798234989983,1262.1798234989983,1263.6857167260023,1263.6857167260023,1263.6857167260023,1263.6857167260023,1263.6857167260023,1263.6857167260023,1263.6857167260023,1263.6857167260023,switch,number,numSwt,d,0.7832725119951647,vtsPrac,1264.4863912690198,,,,,,,,,,,,,,,,,,,,,,,,80700,2022-12-01_08h10.00.849,vts_reward_expectancy_bt_OFFLINE,2022.2.4,59.91531976085079,
,,,,,,,,,,,,,,,,,,,,,,,,,,,,,,,,,,0,0,0,0,23,0,23,0,,,,,,,,,,,,,,,,,,,,,,,,,,,,0,864,,,,1270.6598655779962,160,H,circle,0.001377890002913773,,,,,1,0,,,2,,,,,,,,,,,,,,1266.9658730289957,1266.9658730289957,1266.9658730289957,1266.9658730289957,1268.4740254890057,1268.4740254890057,1268.4740254890057,1268.4740254890057,1268.4740254890057,1268.4740254890057,1268.4740254890057,1268.4740254890057,repeat,number,numRpt,f,0.6669501409633085,vtsPrac,1269.158265332022,,,,,,,,,,,,,,,,,,,,,,,,80700,2022-12-01_08h10.00.849,vts_reward_expectancy_bt_OFFLINE,2022.2.4,59.91531976085079,
,,,,,,,,,,,,,,,,,,,,,,,,,,,,,,,,,,0,0,0,0,24,0,24,0,,,,,,,,,,,,,,,,,,,,,,,,,,,,0,864,,,,1275.4485529380036,174,Y,star,0.0012220120115671307,,,,,1,0,,,2,,,,,,,,,,,,,,1271.6388066850195,1271.6388066850195,1271.6388066850195,1271.6388066850195,1273.1459127670096,1273.1459127670096,1273.1459127670096,1273.1459127670096,1273.1459127670096,1273.1459127670096,1273.1459127670096,1273.1459127670096,repeat,number,numRpt,f,0.7698202809842769,vtsPrac,1273.9468775379937,,,,,,,,,,,,,,,,,,,,,,,,80700,2022-12-01_08h10.00.849,vts_reward_expectancy_bt_OFFLINE,2022.2.4,59.91531976085079,
,,,,,,,,,,,,,,,,,,,,,,,,,,,,,,,,,,0,0,0,0,25,0,25,0,,,,,,,,,,,,,,,,,,,,,,,,,,,,0,864,,,,1280.1534750910068,160,W,circle,0.0014856630004942417,,,,,1,0,,,2,,,,,,,,,,,,,,1276.4261615330179,1276.4261615330179,1276.4261615330179,1276.4261615330179,1277.9345603180118,1277.9345603180118,1277.9345603180118,1277.9345603180118,1277.9345603180118,1277.9345603180118,1277.9345603180118,1277.9345603180118,repeat,number,numRpt,f,0.6936830689955968,vtsPrac,1278.651935610018,,,,,,,,,,,,,,,,,,,,,,,,80700,2022-12-01_08h10.00.849,vts_reward_expectancy_bt_OFFLINE,2022.2.4,59.91531976085079,
,,,,,,,,,,,,,,,,,,,,,,,,,,,,,,,,,,0,0,0,0,26,0,26,0,,,,,,,,,,,,,,,,,,,,,,,,,,,,0,864,,,,1284.8088396530075,132,U,star,0.0018927250057458878,,,,,1,0,,,2,,,,,,,,,,,,,,1281.130805983994,1281.130805983994,1281.130805983994,1281.130805983994,1282.6398082240194,1282.6398082240194,1282.6398082240194,1282.6398082240194,1282.6398082240194,1282.6398082240194,1282.6398082240194,1282.6398082240194,switch,letter,lettSwt,k,0.6359950399782974,vtsPrac,1283.3072697540047,,,,,,,,,,,,,,,,,,,,,,,,80700,2022-12-01_08h10.00.849,vts_reward_expectancy_bt_OFFLINE,2022.2.4,59.91531976085079,
,,,,,,,,,,,,,,,,,,,,,,,,,,,,,,,,,,0,0,0,0,27,0,27,0,,,,,,,,,,,,,,,,,,,,,,,,,,,,0,864,,,,1289.4308744739974,167,F,triangle,0.0015641629870515317,,,,,1,0,,,2,,,,,,,,,,,,,,1285.7861528100038,1285.7861528100038,1285.7861528100038,1285.7861528100038,1287.2948386039934,1287.2948386039934,1287.2948386039934,1287.2948386039934,1287.2948386039934,1287.2948386039934,1287.2948386039934,1287.2948386039934,switch,number,numSwt,f,0.6059133789967746,vtsPrac,1287.929148522002,,,,,,,,,,,,,,,,,,,,,,,,80700,2022-12-01_08h10.00.849,vts_reward_expectancy_bt_OFFLINE,2022.2.4,59.91531976085079,
,,,,,,,,,,,,,,,,,,,,,,,,,,,,,,,,,,0,0,0,0,28,0,28,0,,,,,,,,,,,,,,,,,,,,,,,,,,,,0,864,,,,1294.0022587470012,160,Y,star,0.0015597300080116838,,,,,1,0,,,2,,,,,,,,,,,,,,1290.408858668001,1290.408858668001,1290.408858668001,1290.408858668001,1291.9164690960024,1291.9164690960024,1291.9164690960024,1291.9164690960024,1291.9164690960024,1291.9164690960024,1291.9164690960024,1291.9164690960024,repeat,number,numRpt,f,0.5516740449820645,vtsPrac,1292.5005531159986,,,,,,,,,,,,,,,,,,,,,,,,80700,2022-12-01_08h10.00.849,vts_reward_expectancy_bt_OFFLINE,2022.2.4,59.91531976085079,
,,,,,,,,,,,,,,,,,,,,,,,,,,,,,,,,,,0,0,0,0,29,0,29,0,,,,,,,,,,,,,,,,,,,,,,,,,,,,0,864,,,,1298.7408105950162,174,B,circle,0.001741004001814872,,,,,1,0,,,2,,,,,,,,,,,,,,1294.9801741990086,1294.9801741990086,1294.9801741990086,1294.9801741990086,1296.4884192070167,1296.4884192070167,1296.4884192070167,1296.4884192070167,1296.4884192070167,1296.4884192070167,1296.4884192070167,1296.4884192070167,switch,letter,lettSwt,j,0.7323939139896538,vtsPrac,1297.239339517022,,,,,,,,,,,,,,,,,,,,,,,,80700,2022-12-01_08h10.00.849,vts_reward_expectancy_bt_OFFLINE,2022.2.4,59.91531976085079,
,,,,,,,,,,,,,,,,,,,,,,,,,,,,,,,,,,0,0,0,0,30,0,30,0,,,,,,,,,,,,,,,,,,,,,,,,,,,,0,864,,,,1303.3963116829982,139,W,star,0.0012651279976125807,,,,,1,0,,,2,,,,,,,,,,,,,,1299.7199154820119,1299.7199154820119,1299.7199154820119,1299.7199154820119,1301.2268394020211,1301.2268394020211,1301.2268394020211,1301.2268394020211,1301.2268394020211,1301.2268394020211,1301.2268394020211,1301.2268394020211,repeat,letter,lettRpt,k,0.6409017939877231,vtsPrac,1301.8942849720188,,,,,,,,,,,,,,,,,,,,,,,,80700,2022-12-01_08h10.00.849,vts_reward_expectancy_bt_OFFLINE,2022.2.4,59.91531976085079,
