LTriangleOpac,LCircleOpac,LHexagonOpac,LStarOpac,RTriangleOpac,RCircleOpac,RHexagonOpac,RStarOpac,LShape_ID,RShape_ID,training_blocks.thisRepN,training_blocks.thisTrialN,training_blocks.thisN,training_blocks.thisIndex,training.thisRepN,training.thisTrialN,training.thisN,training.thisIndex,task1_prac_redo.thisRepN,task1_prac_redo.thisTrialN,task1_prac_redo.thisN,task1_prac_redo.thisIndex,task1_prac_trials.thisRepN,task1_prac_trials.thisTrialN,task1_prac_trials.thisN,task1_prac_trials.thisIndex,task2_prac_redo.thisRepN,task2_prac_redo.thisTrialN,task2_prac_redo.thisN,task2_prac_redo.thisIndex,task2_praac_trials.thisRepN,task2_praac_trials.thisTrialN,task2_praac_trials.thisN,task2_praac_trials.thisIndex,vts_prac_redo.thisRepN,vts_prac_redo.thisTrialN,vts_prac_redo.thisN,vts_prac_redo.thisIndex,vts_practice_trials.thisRepN,vts_practice_trials.thisTrialN,vts_practice_trials.thisN,vts_practice_trials.thisIndex,trials_norew.thisRepN,trials_norew.thisTrialN,trials_norew.thisN,trials_norew.thisIndex,block.thisRepN,block.thisTrialN,block.thisN,block.thisIndex,trials_rew.thisRepN,trials_rew.thisTrialN,trials_rew.thisN,trials_rew.thisIndex,key_resp.started,key_resp.keys,key_resp.rt,left_circle.started,right_circle.started,left_triangle.started,right_triangle.started,left_star.started,right_star.started,left_hexagon.started,right_hexagon.started,training_fix.started,training_resp.started,training_resp.keys,training_resp.rt,points_trial,points_cumul,trainBlock,training_feedback_txt.started,fix.started,training_feedback_txt.stopped,fix.stopped,curr_topStim,curr_bottStim,curr_shape,ISI.started,tgt_fix_prac1.started,top_target_prac1.started,bott_target_prac1.started,target_resp_prac1.started,top_target_prac1.stopped,bott_target_prac1.stopped,target_resp_prac1.stopped,acc,E1,target_resp_prac1.keys,pracBlock,prac_fback_text.started,target_resp_prac1.rt,prac_fback_text.stopped,tgt_fix_prac2.started,top_target_prac2.started,bott_target_prac2.started,target_resp_prac2.started,target_resp_prac2.keys,target_resp_prac2.rt,star.started,hegagon.started,triangle.started,circle.started,top_target.started,tgt_fix.started,bot_target.started,target_resp.started,star.stopped,hegagon.stopped,triangle.stopped,circle.stopped,alt,task,condition,target_resp.keys,target_resp.rt,rewCond,vts_fback.started,vts_fback.stopped,blockNum,norew_fback.started,norew_fback.stopped,key_resp_2.keys,key_resp_2.rt,rewExpectancy,feedbk_text.started,top_target.stopped,tgt_fix.stopped,bot_target.stopped,target_resp.stopped,feedbk_text.stopped,text_3.started,text_3.stopped,button.started,debrief.index,debrief.itemText,debrief.type,debrief.granularity,debrief.font,debrief.markerColor,debrief.response,debrief.rt,button.numClicks,button.timesOn,button.timesOff,participant,date,expName,psychopyVersion,frameRate,
,,,,,,,,,,,,,,,,,,,,,,,,,,,,,,,,,,,,,,,,,,,,,,,,,,,,,,13.524507208989235,space,21.432864321017405,,,,,,,,,,,,,,,,,,,,,,,,,,,,,,,,,,,,,,,,,,,,,,,,,,,,,,,,,,,,,,,,,,,,,,,,,,,,,,,,,,,,,,,,,,81170,2022-10-28_09h09.52.183,vts_reward_expectancy_bt_OFFLINE,2022.2.4,59.993802760605824,
0,0,1,0,0,0,0,1,hexagon,star,0,0,0,0,0,0,0,8,,,,,,,,,,,,,,,,,,,,,,,,,,,,,,,,,,,,,,,,63.44529532600427,63.44529532600427,63.44529532600427,63.44529532600427,63.44529532600427,63.44529532600427,63.44529532600427,63.44529532600427,63.44529532600427,63.44529532600427,a,1.9442097980354447,1,1,0,65.42044432199327,66.92018039000686,,,,,,,,,,,,,,,,,,,,,,,,,,,,,,,,,,,,,,,,,,,,,,,,,,,,,,,,,,,,,,,,,,,,,,,,,81170,2022-10-28_09h09.52.183,vts_reward_expectancy_bt_OFFLINE,2022.2.4,59.993802760605824,
1,0,0,0,0,0,0,1,triangle,star,0,0,0,0,0,1,1,2,,,,,,,,,,,,,,,,,,,,,,,,,,,,,,,,,,,,,,,,67.42039952499908,67.42039952499908,67.42039952499908,67.42039952499908,67.42039952499908,67.42039952499908,67.42039952499908,67.42039952499908,67.42039952499908,67.42039952499908,l,1.6648388310277369,10,11,0,69.10642379999626,70.60675540598459,,,,,,,,,,,,,,,,,,,,,,,,,,,,,,,,,,,,,,,,,,,,,,,,,,,,,,,,,,,,,,,,,,,,,,,,,81170,2022-10-28_09h09.52.183,vts_reward_expectancy_bt_OFFLINE,2022.2.4,59.993802760605824,
0,1,0,0,0,0,1,0,circle,hexagon,0,0,0,0,0,2,2,4,,,,,,,,,,,,,,,,,,,,,,,,,,,,,,,,,,,,,,,,71.10682319998159,71.10682319998159,71.10682319998159,71.10682319998159,71.10682319998159,71.10682319998159,71.10682319998159,71.10682319998159,71.10682319998159,71.10682319998159,l,1.4020439000159968,1,12,0,72.54131937000784,74.04137465998065,74.04137465998065,74.54140891699353,,,,,,,,,,,,,,,,,,,,,,,,,,,,,,,,,,,,,,,,,,,,,,,,,,,,,,,,,,,,,,,,,,,,,,,81170,2022-10-28_09h09.52.183,vts_reward_expectancy_bt_OFFLINE,2022.2.4,59.993802760605824,
0,0,0,1,0,1,0,0,star ,circle,0,0,0,0,0,3,3,10,,,,,,,,,,,,,,,,,,,,,,,,,,,,,,,,,,,,,,,,74.54140891699353,74.54140891699353,74.54140891699353,74.54140891699353,74.54140891699353,74.54140891699353,74.54140891699353,74.54140891699353,74.54140891699353,74.54140891699353,a,1.1199195960361976,1,13,0,75.69386627798667,77.19446782700834,77.19446782700834,77.69460717000766,,,,,,,,,,,,,,,,,,,,,,,,,,,,,,,,,,,,,,,,,,,,,,,,,,,,,,,,,,,,,,,,,,,,,,,81170,2022-10-28_09h09.52.183,vts_reward_expectancy_bt_OFFLINE,2022.2.4,59.993802760605824,
0,1,0,0,0,0,0,1,circle,star,0,0,0,0,0,4,4,5,,,,,,,,,,,,,,,,,,,,,,,,,,,,,,,,,,,,,,,,77.69460717000766,77.69460717000766,77.69460717000766,77.69460717000766,77.69460717000766,77.69460717000766,77.69460717000766,77.69460717000766,77.69460717000766,77.69460717000766,l,1.3503526840067934,10,23,0,79.06371938798111,80.5710867769958,,,,,,,,,,,,,,,,,,,,,,,,,,,,,,,,,,,,,,,,,,,,,,,,,,,,,,,,,,,,,,,,,,,,,,,,,81170,2022-10-28_09h09.52.183,vts_reward_expectancy_bt_OFFLINE,2022.2.4,59.993802760605824,
0,0,1,0,1,0,0,0,hexagon,triangle,0,0,0,0,0,5,5,6,,,,,,,,,,,,,,,,,,,,,,,,,,,,,,,,,,,,,,,,81.06419291198836,81.06419291198836,81.06419291198836,81.06419291198836,81.06419291198836,81.06419291198836,81.06419291198836,81.06419291198836,81.06419291198836,81.06419291198836,l,2.1084375560167246,10,33,0,83.19831548500224,84.6988356570073,84.6988356570073,85.19892016999074,,,,,,,,,,,,,,,,,,,,,,,,,,,,,,,,,,,,,,,,,,,,,,,,,,,,,,,,,,,,,,,,,,,,,,,81170,2022-10-28_09h09.52.183,vts_reward_expectancy_bt_OFFLINE,2022.2.4,59.993802760605824,
0,0,0,1,0,0,1,0,star,hexagon,0,0,0,0,0,6,6,11,,,,,,,,,,,,,,,,,,,,,,,,,,,,,,,,,,,,,,,,85.19892016999074,85.19892016999074,85.19892016999074,85.19892016999074,85.19892016999074,85.19892016999074,85.19892016999074,85.19892016999074,85.19892016999074,85.19892016999074,a,1.7499713120341767,1,34,0,86.96972453099443,88.4853840849828,,,,,,,,,,,,,,,,,,,,,,,,,,,,,,,,,,,,,,,,,,,,,,,,,,,,,,,,,,,,,,,,,,,,,,,,,81170,2022-10-28_09h09.52.183,vts_reward_expectancy_bt_OFFLINE,2022.2.4,59.993802760605824,
0,0,0,1,1,0,0,0,star,triangle,0,0,0,0,0,7,7,9,,,,,,,,,,,,,,,,,,,,,,,,,,,,,,,,,,,,,,,,88.98562404699624,88.98562404699624,88.98562404699624,88.98562404699624,88.98562404699624,88.98562404699624,88.98562404699624,88.98562404699624,88.98562404699624,88.98562404699624,l,0.8516329930280335,10,44,0,89.8697334069875,91.37170079600764,,,,,,,,,,,,,,,,,,,,,,,,,,,,,,,,,,,,,,,,,,,,,,,,,,,,,,,,,,,,,,,,,,,,,,,,,81170,2022-10-28_09h09.52.183,vts_reward_expectancy_bt_OFFLINE,2022.2.4,59.993802760605824,
0,1,0,0,1,0,0,0,circle,triangle,0,0,0,0,0,8,8,3,,,,,,,,,,,,,,,,,,,,,,,,,,,,,,,,,,,,,,,,91.87192000399227,91.87192000399227,91.87192000399227,91.87192000399227,91.87192000399227,91.87192000399227,91.87192000399227,91.87192000399227,91.87192000399227,91.87192000399227,l,0.4205386290268507,10,54,0,92.32218841998838,93.82247598198592,93.82247598198592,,,,,,,,,,,,,,,,,,,,,,,,,,,,,,,,,,,,,,,,,,,,,,,,,,,,,,,,,,,,,,,,,,,,,,,,81170,2022-10-28_09h09.52.183,vts_reward_expectancy_bt_OFFLINE,2022.2.4,59.993802760605824,
0,0,1,0,0,1,0,0,hexagon,circle,0,0,0,0,0,9,9,7,,,,,,,,,,,,,,,,,,,,,,,,,,,,,,,,,,,,,,,,94.32275587500772,94.32275587500772,94.32275587500772,94.32275587500772,94.32275587500772,94.32275587500772,94.32275587500772,94.32275587500772,94.32275587500772,94.32275587500772,l,0.3860041920270305,1,55,0,94.7413357909827,96.24184694199357,,,,,,,,,,,,,,,,,,,,,,,,,,,,,,,,,,,,,,,,,,,,,,,,,,,,,,,,,,,,,,,,,,,,,,,,,81170,2022-10-28_09h09.52.183,vts_reward_expectancy_bt_OFFLINE,2022.2.4,59.993802760605824,
1,0,0,0,0,0,1,0,triangle,hexagon,0,0,0,0,0,10,10,1,,,,,,,,,,,,,,,,,,,,,,,,,,,,,,,,,,,,,,,,96.74218778999057,96.74218778999057,96.74218778999057,96.74218778999057,96.74218778999057,96.74218778999057,96.74218778999057,96.74218778999057,96.74218778999057,96.74218778999057,l,0.5270904540375341,1,56,0,97.29223238598206,98.79272797398153,98.79272797398153,99.29300610898645,,,,,,,,,,,,,,,,,,,,,,,,,,,,,,,,,,,,,,,,,,,,,,,,,,,,,,,,,,,,,,,,,,,,,,,81170,2022-10-28_09h09.52.183,vts_reward_expectancy_bt_OFFLINE,2022.2.4,59.993802760605824,
1,0,0,0,0,1,0,0,triangle,circle,0,0,0,0,0,11,11,0,,,,,,,,,,,,,,,,,,,,,,,,,,,,,,,,,,,,,,,,99.29300610898645,99.29300610898645,99.29300610898645,99.29300610898645,99.29300610898645,99.29300610898645,99.29300610898645,99.29300610898645,99.29300610898645,99.29300610898645,l,1.6483666490239557,1,57,0,100.96200790099101,102.4768410550023,,,,,,,,,,,,,,,,,,,,,,,,,,,,,,,,,,,,,,,,,,,,,,,,,,,,,,,,,,,,,,,,,,,,,,,,,81170,2022-10-28_09h09.52.183,vts_reward_expectancy_bt_OFFLINE,2022.2.4,59.993802760605824,
0,1,0,0,0,0,1,0,circle,hexagon,0,0,0,0,1,0,12,4,,,,,,,,,,,,,,,,,,,,,,,,,,,,,,,,,,,,,,,,102.96254678798141,102.96254678798141,102.96254678798141,102.96254678798141,102.96254678798141,102.96254678798141,102.96254678798141,102.96254678798141,102.96254678798141,102.96254678798141,a,1.1143566720129456,1,58,0,104.09652927998104,105.6022218639846,,,,,,,,,,,,,,,,,,,,,,,,,,,,,,,,,,,,,,,,,,,,,,,,,,,,,,,,,,,,,,,,,,,,,,,,,81170,2022-10-28_09h09.52.183,vts_reward_expectancy_bt_OFFLINE,2022.2.4,59.993802760605824,
1,0,0,0,0,0,1,0,triangle,hexagon,0,0,0,0,1,1,13,1,,,,,,,,,,,,,,,,,,,,,,,,,,,,,,,,,,,,,,,,106.09919137100223,106.09919137100223,106.09919137100223,106.09919137100223,106.09919137100223,106.09919137100223,106.09919137100223,106.09919137100223,106.09919137100223,106.09919137100223,a,0.7860423090169206,1,59,0,106.91627775199595,108.41652083297959,,108.9166551780072,,,,,,,,,,,,,,,,,,,,,,,,,,,,,,,,,,,,,,,,,,,,,,,,,,,,,,,,,,,,,,,,,,,,,,,81170,2022-10-28_09h09.52.183,vts_reward_expectancy_bt_OFFLINE,2022.2.4,59.993802760605824,
0,1,0,0,1,0,0,0,circle,triangle,0,0,0,0,1,2,14,3,,,,,,,,,,,,,,,,,,,,,,,,,,,,,,,,,,,,,,,,108.9166551780072,108.9166551780072,108.9166551780072,108.9166551780072,108.9166551780072,108.9166551780072,108.9166551780072,108.9166551780072,108.9166551780072,108.9166551780072,l,1.8716403640282806,1,60,0,110.8192512819951,112.31988182800706,112.31988182800706,112.81984286999796,,,,,,,,,,,,,,,,,,,,,,,,,,,,,,,,,,,,,,,,,,,,,,,,,,,,,,,,,,,,,,,,,,,,,,,81170,2022-10-28_09h09.52.183,vts_reward_expectancy_bt_OFFLINE,2022.2.4,59.993802760605824,
0,0,1,0,0,1,0,0,hexagon,circle,0,0,0,0,1,3,15,7,,,,,,,,,,,,,,,,,,,,,,,,,,,,,,,,,,,,,,,,112.81984286999796,112.81984286999796,112.81984286999796,112.81984286999796,112.81984286999796,112.81984286999796,112.81984286999796,112.81984286999796,112.81984286999796,112.81984286999796,a,1.3685068899940234,10,70,0,114.22112874998129,115.72311868699035,,,,,,,,,,,,,,,,,,,,,,,,,,,,,,,,,,,,,,,,,,,,,,,,,,,,,,,,,,,,,,,,,,,,,,,,,81170,2022-10-28_09h09.52.183,vts_reward_expectancy_bt_OFFLINE,2022.2.4,59.993802760605824,
1,0,0,0,0,1,0,0,triangle,circle,0,0,0,0,1,4,16,0,,,,,,,,,,,,,,,,,,,,,,,,,,,,,,,,,,,,,,,,116.22312705699005,116.22312705699005,116.22312705699005,116.22312705699005,116.22312705699005,116.22312705699005,116.22312705699005,116.22312705699005,116.22312705699005,116.22312705699005,l,1.5092099910252728,10,80,0,117.7570674860035,119.25746287198854,119.25746287198854,,,,,,,,,,,,,,,,,,,,,,,,,,,,,,,,,,,,,,,,,,,,,,,,,,,,,,,,,,,,,,,,,,,,,,,,81170,2022-10-28_09h09.52.183,vts_reward_expectancy_bt_OFFLINE,2022.2.4,59.993802760605824,
0,0,1,0,1,0,0,0,hexagon,triangle,0,0,0,0,1,5,17,6,,,,,,,,,,,,,,,,,,,,,,,,,,,,,,,,,,,,,,,,119.75769678800134,119.75769678800134,119.75769678800134,119.75769678800134,119.75769678800134,119.75769678800134,119.75769678800134,119.75769678800134,119.75769678800134,119.75769678800134,a,1.2637506640166976,1,81,0,121.04518805400585,122.56047136898269,,,,,,,,,,,,,,,,,,,,,,,,,,,,,,,,,,,,,,,,,,,,,,,,,,,,,,,,,,,,,,,,,,,,,,,,,81170,2022-10-28_09h09.52.183,vts_reward_expectancy_bt_OFFLINE,2022.2.4,59.993802760605824,
0,0,0,1,0,1,0,0,star ,circle,0,0,0,0,1,6,18,10,,,,,,,,,,,,,,,,,,,,,,,,,,,,,,,,,,,,,,,,123.06063479898148,123.06063479898148,123.06063479898148,123.06063479898148,123.06063479898148,123.06063479898148,123.06063479898148,123.06063479898148,123.06063479898148,123.06063479898148,a,1.296647497016238,1,82,0,124.3779143349966,125.88023833799525,,,,,,,,,,,,,,,,,,,,,,,,,,,,,,,,,,,,,,,,,,,,,,,,,,,,,,,,,,,,,,,,,,,,,,,,,81170,2022-10-28_09h09.52.183,vts_reward_expectancy_bt_OFFLINE,2022.2.4,59.993802760605824,
0,1,0,0,0,0,0,1,circle,star,0,0,0,0,1,7,19,5,,,,,,,,,,,,,,,,,,,,,,,,,,,,,,,,,,,,,,,,126.38051231598365,126.38051231598365,126.38051231598365,126.38051231598365,126.38051231598365,126.38051231598365,126.38051231598365,126.38051231598365,126.38051231598365,126.38051231598365,l,0.920690959028434,10,92,0,127.33256225500372,128.8475395370042,,,,,,,,,,,,,,,,,,,,,,,,,,,,,,,,,,,,,,,,,,,,,,,,,,,,,,,,,,,,,,,,,,,,,,,,,81170,2022-10-28_09h09.52.183,vts_reward_expectancy_bt_OFFLINE,2022.2.4,59.993802760605824,
0,0,0,1,1,0,0,0,star,triangle,0,0,0,0,1,8,20,9,,,,,,,,,,,,,,,,,,,,,,,,,,,,,,,,,,,,,,,,129.3480094219849,129.3480094219849,129.3480094219849,129.3480094219849,129.3480094219849,129.3480094219849,129.3480094219849,129.3480094219849,129.3480094219849,129.3480094219849,l,3.096404986019479,1,93,0,132.46949680900434,133.98487119498895,,,,,,,,,,,,,,,,,,,,,,,,,,,,,,,,,,,,,,,,,,,,,,,,,,,,,,,,,,,,,,,,,,,,,,,,,81170,2022-10-28_09h09.52.183,vts_reward_expectancy_bt_OFFLINE,2022.2.4,59.993802760605824,
0,0,1,0,0,0,0,1,hexagon,star,0,0,0,0,1,9,21,8,,,,,,,,,,,,,,,,,,,,,,,,,,,,,,,,,,,,,,,,134.48525151400827,134.48525151400827,134.48525151400827,134.48525151400827,134.48525151400827,134.48525151400827,134.48525151400827,134.48525151400827,134.48525151400827,134.48525151400827,l,0.615573552029673,10,103,0,135.121006166999,136.62096190499142,,,,,,,,,,,,,,,,,,,,,,,,,,,,,,,,,,,,,,,,,,,,,,,,,,,,,,,,,,,,,,,,,,,,,,,,,81170,2022-10-28_09h09.52.183,vts_reward_expectancy_bt_OFFLINE,2022.2.4,59.993802760605824,
1,0,0,0,0,0,0,1,triangle,star,0,0,0,0,1,10,22,2,,,,,,,,,,,,,,,,,,,,,,,,,,,,,,,,,,,,,,,,137.12108659098158,137.12108659098158,137.12108659098158,137.12108659098158,137.12108659098158,137.12108659098158,137.12108659098158,137.12108659098158,137.12108659098158,137.12108659098158,l,1.140211685007671,10,113,0,138.28844377599307,139.7888944860024,,,,,,,,,,,,,,,,,,,,,,,,,,,,,,,,,,,,,,,,,,,,,,,,,,,,,,,,,,,,,,,,,,,,,,,,,81170,2022-10-28_09h09.52.183,vts_reward_expectancy_bt_OFFLINE,2022.2.4,59.993802760605824,
0,0,0,1,0,0,1,0,star,hexagon,0,0,0,0,1,11,23,11,,,,,,,,,,,,,,,,,,,,,,,,,,,,,,,,,,,,,,,,140.28879639599472,140.28879639599472,140.28879639599472,140.28879639599472,140.28879639599472,140.28879639599472,140.28879639599472,140.28879639599472,140.28879639599472,140.28879639599472,a,1.8360526800097432,10,123,0,142.1417843749805,143.64204843100742,143.64204843100742,144.14226786300424,,,,,,,,,,,,,,,,,,,,,,,,,,,,,,,,,,,,,,,,,,,,,,,,,,,,,,,,,,,,,,,,,,,,,,,81170,2022-10-28_09h09.52.183,vts_reward_expectancy_bt_OFFLINE,2022.2.4,59.993802760605824,
0,0,1,0,1,0,0,0,hexagon,triangle,0,0,0,0,2,0,24,6,,,,,,,,,,,,,,,,,,,,,,,,,,,,,,,,,,,,,,,,144.14226786300424,144.14226786300424,144.14226786300424,144.14226786300424,144.14226786300424,144.14226786300424,144.14226786300424,144.14226786300424,144.14226786300424,144.14226786300424,l,1.6061969909933396,10,133,0,145.77801925499807,147.2786452260043,147.2786452260043,147.77873081498547,,,,,,,,,,,,,,,,,,,,,,,,,,,,,,,,,,,,,,,,,,,,,,,,,,,,,,,,,,,,,,,,,,,,,,,81170,2022-10-28_09h09.52.183,vts_reward_expectancy_bt_OFFLINE,2022.2.4,59.993802760605824,
0,0,0,1,0,0,1,0,star,hexagon,0,0,0,0,2,1,25,11,,,,,,,,,,,,,,,,,,,,,,,,,,,,,,,,,,,,,,,,147.77873081498547,147.77873081498547,147.77873081498547,147.77873081498547,147.77873081498547,147.77873081498547,147.77873081498547,147.77873081498547,147.77873081498547,147.77873081498547,a,1.426497584034223,1,134,0,149.23130657000002,150.73165536599117,,,,,,,,,,,,,,,,,,,,,,,,,,,,,,,,,,,,,,,,,,,,,,,,,,,,,,,,,,,,,,,,,,,,,,,,,81170,2022-10-28_09h09.52.183,vts_reward_expectancy_bt_OFFLINE,2022.2.4,59.993802760605824,
1,0,0,0,0,1,0,0,triangle,circle,0,0,0,0,2,2,26,0,,,,,,,,,,,,,,,,,,,,,,,,,,,,,,,,,,,,,,,,151.23172790999524,151.23172790999524,151.23172790999524,151.23172790999524,151.23172790999524,151.23172790999524,151.23172790999524,151.23172790999524,151.23172790999524,151.23172790999524,l,1.2531143710075412,10,144,0,152.51774469797965,154.03272643798846,,,,,,,,,,,,,,,,,,,,,,,,,,,,,,,,,,,,,,,,,,,,,,,,,,,,,,,,,,,,,,,,,,,,,,,,,81170,2022-10-28_09h09.52.183,vts_reward_expectancy_bt_OFFLINE,2022.2.4,59.993802760605824,
0,1,0,0,0,0,0,1,circle,star,0,0,0,0,2,3,27,5,,,,,,,,,,,,,,,,,,,,,,,,,,,,,,,,,,,,,,,,154.51646170098684,154.51646170098684,154.51646170098684,154.51646170098684,154.51646170098684,154.51646170098684,154.51646170098684,154.51646170098684,154.51646170098684,154.51646170098684,a,1.6959425560198724,10,154,0,156.23563008999918,157.73615091800457,157.73615091800457,158.23615887900814,,,,,,,,,,,,,,,,,,,,,,,,,,,,,,,,,,,,,,,,,,,,,,,,,,,,,,,,,,,,,,,,,,,,,,,81170,2022-10-28_09h09.52.183,vts_reward_expectancy_bt_OFFLINE,2022.2.4,59.993802760605824,
0,1,0,0,1,0,0,0,circle,triangle,0,0,0,0,2,4,28,3,,,,,,,,,,,,,,,,,,,,,,,,,,,,,,,,,,,,,,,,158.23615887900814,158.23615887900814,158.23615887900814,158.23615887900814,158.23615887900814,158.23615887900814,158.23615887900814,158.23615887900814,158.23615887900814,158.23615887900814,a,1.3363642710028216,10,164,0,159.60331852099625,161.10565060100635,,,,,,,,,,,,,,,,,,,,,,,,,,,,,,,,,,,,,,,,,,,,,,,,,,,,,,,,,,,,,,,,,,,,,,,,,81170,2022-10-28_09h09.52.183,vts_reward_expectancy_bt_OFFLINE,2022.2.4,59.993802760605824,
0,1,0,0,0,0,1,0,circle,hexagon,0,0,0,0,2,5,29,4,,,,,,,,,,,,,,,,,,,,,,,,,,,,,,,,,,,,,,,,161.60626671698992,161.60626671698992,161.60626671698992,161.60626671698992,161.60626671698992,161.60626671698992,161.60626671698992,161.60626671698992,161.60626671698992,161.60626671698992,a,1.598250936018303,1,165,0,163.22493257798487,164.74049301998457,,,,,,,,,,,,,,,,,,,,,,,,,,,,,,,,,,,,,,,,,,,,,,,,,,,,,,,,,,,,,,,,,,,,,,,,,81170,2022-10-28_09h09.52.183,vts_reward_expectancy_bt_OFFLINE,2022.2.4,59.993802760605824,
0,0,0,1,1,0,0,0,star,triangle,0,0,0,0,2,6,30,9,,,,,,,,,,,,,,,,,,,,,,,,,,,,,,,,,,,,,,,,165.24075693800114,165.24075693800114,165.24075693800114,165.24075693800114,165.24075693800114,165.24075693800114,165.24075693800114,165.24075693800114,165.24075693800114,165.24075693800114,l,2.0676316210301593,1,166,0,167.32647585400264,168.82671428497997,168.82671428497997,169.3271047899907,,,,,,,,,,,,,,,,,,,,,,,,,,,,,,,,,,,,,,,,,,,,,,,,,,,,,,,,,,,,,,,,,,,,,,,81170,2022-10-28_09h09.52.183,vts_reward_expectancy_bt_OFFLINE,2022.2.4,59.993802760605824,
0,0,0,1,0,1,0,0,star ,circle,0,0,0,0,2,7,31,10,,,,,,,,,,,,,,,,,,,,,,,,,,,,,,,,,,,,,,,,169.3271047899907,169.3271047899907,169.3271047899907,169.3271047899907,169.3271047899907,169.3271047899907,169.3271047899907,169.3271047899907,169.3271047899907,169.3271047899907,l,1.477667661034502,1,167,0,170.829719078989,172.33027513397974,172.33027513397974,172.83020903298166,,,,,,,,,,,,,,,,,,,,,,,,,,,,,,,,,,,,,,,,,,,,,,,,,,,,,,,,,,,,,,,,,,,,,,,81170,2022-10-28_09h09.52.183,vts_reward_expectancy_bt_OFFLINE,2022.2.4,59.993802760605824,
1,0,0,0,0,0,1,0,triangle,hexagon,0,0,0,0,2,8,32,1,,,,,,,,,,,,,,,,,,,,,,,,,,,,,,,,,,,,,,,,172.83020903298166,172.83020903298166,172.83020903298166,172.83020903298166,172.83020903298166,172.83020903298166,172.83020903298166,172.83020903298166,172.83020903298166,172.83020903298166,l,1.103190963040106,10,177,0,173.9660823069862,175.4813917169813,,,,,,,,,,,,,,,,,,,,,,,,,,,,,,,,,,,,,,,,,,,,,,,,,,,,,,,,,,,,,,,,,,,,,,,,,81170,2022-10-28_09h09.52.183,vts_reward_expectancy_bt_OFFLINE,2022.2.4,59.993802760605824,
1,0,0,0,0,0,0,1,triangle,star,0,0,0,0,2,9,33,2,,,,,,,,,,,,,,,,,,,,,,,,,,,,,,,,,,,,,,,,175.96659653398092,175.96659653398092,175.96659653398092,175.96659653398092,175.96659653398092,175.96659653398092,175.96659653398092,175.96659653398092,175.96659653398092,175.96659653398092,l,1.1338872680207714,10,187,0,177.11706799498643,178.6177259089891,178.6177259089891,179.11777956300648,,,,,,,,,,,,,,,,,,,,,,,,,,,,,,,,,,,,,,,,,,,,,,,,,,,,,,,,,,,,,,,,,,,,,,,81170,2022-10-28_09h09.52.183,vts_reward_expectancy_bt_OFFLINE,2022.2.4,59.993802760605824,
0,0,1,0,0,1,0,0,hexagon,circle,0,0,0,0,2,10,34,7,,,,,,,,,,,,,,,,,,,,,,,,,,,,,,,,,,,,,,,,179.11777956300648,179.11777956300648,179.11777956300648,179.11777956300648,179.11777956300648,179.11777956300648,179.11777956300648,179.11777956300648,179.11777956300648,179.11777956300648,a,1.0390231440251227,1,188,0,180.18698553499416,181.6873623249994,,,,,,,,,,,,,,,,,,,,,,,,,,,,,,,,,,,,,,,,,,,,,,,,,,,,,,,,,,,,,,,,,,,,,,,,,81170,2022-10-28_09h09.52.183,vts_reward_expectancy_bt_OFFLINE,2022.2.4,59.993802760605824,
0,0,1,0,0,0,0,1,hexagon,star,0,0,0,0,2,11,35,8,,,,,,,,,,,,,,,,,,,,,,,,,,,,,,,,,,,,,,,,182.18735408398788,182.18735408398788,182.18735408398788,182.18735408398788,182.18735408398788,182.18735408398788,182.18735408398788,182.18735408398788,182.18735408398788,182.18735408398788,l,0.8660970170167275,10,198,0,183.0734845069819,184.5883638029918,,,,,,,,,,,,,,,,,,,,,,,,,,,,,,,,,,,,,,,,,,,,,,,,,,,,,,,,,,,,,,,,,,,,,,,,,81170,2022-10-28_09h09.52.183,vts_reward_expectancy_bt_OFFLINE,2022.2.4,59.993802760605824,
0,1,0,0,1,0,0,0,circle,triangle,0,0,0,0,3,0,36,3,,,,,,,,,,,,,,,,,,,,,,,,,,,,,,,,,,,,,,,,185.0883086929971,185.0883086929971,185.0883086929971,185.0883086929971,185.0883086929971,185.0883086929971,185.0883086929971,185.0883086929971,185.0883086929971,185.0883086929971,a,1.2280871270340867,1,199,0,186.34258583298652,187.85775381099666,,,,,,,,,,,,,,,,,,,,,,,,,,,,,,,,,,,,,,,,,,,,,,,,,,,,,,,,,,,,,,,,,,,,,,,,,81170,2022-10-28_09h09.52.183,vts_reward_expectancy_bt_OFFLINE,2022.2.4,59.993802760605824,
1,0,0,0,0,0,1,0,triangle,hexagon,0,0,0,0,3,1,37,1,,,,,,,,,,,,,,,,,,,,,,,,,,,,,,,,,,,,,,,,188.3413220559887,188.3413220559887,188.3413220559887,188.3413220559887,188.3413220559887,188.3413220559887,188.3413220559887,188.3413220559887,188.3413220559887,188.3413220559887,a,2.7117954270215705,10,209,0,191.07936380599858,192.5947565450042,,,,,,,,,,,,,,,,,,,,,,,,,,,,,,,,,,,,,,,,,,,,,,,,,,,,,,,,,,,,,,,,,,,,,,,,,81170,2022-10-28_09h09.52.183,vts_reward_expectancy_bt_OFFLINE,2022.2.4,59.993802760605824,
0,0,1,0,0,1,0,0,hexagon,circle,0,0,0,0,3,2,38,7,,,,,,,,,,,,,,,,,,,,,,,,,,,,,,,,,,,,,,,,193.078175061004,193.078175061004,193.078175061004,193.078175061004,193.078175061004,193.078175061004,193.078175061004,193.078175061004,193.078175061004,193.078175061004,l,1.7187122360337526,1,210,0,194.82981813099468,196.33137973898556,,,,,,,,,,,,,,,,,,,,,,,,,,,,,,,,,,,,,,,,,,,,,,,,,,,,,,,,,,,,,,,,,,,,,,,,,81170,2022-10-28_09h09.52.183,vts_reward_expectancy_bt_OFFLINE,2022.2.4,59.993802760605824,
1,0,0,0,0,1,0,0,triangle,circle,0,0,0,0,3,3,39,0,,,,,,,,,,,,,,,,,,,,,,,,,,,,,,,,,,,,,,,,196.8314916289819,196.8314916289819,196.8314916289819,196.8314916289819,196.8314916289819,196.8314916289819,196.8314916289819,196.8314916289819,196.8314916289819,196.8314916289819,l,3.637270666018594,1,211,0,200.49922341198544,202.00172542399378,,,,,,,,,,,,,,,,,,,,,,,,,,,,,,,,,,,,,,,,,,,,,,,,,,,,,,,,,,,,,,,,,,,,,,,,,81170,2022-10-28_09h09.52.183,vts_reward_expectancy_bt_OFFLINE,2022.2.4,59.993802760605824,
0,0,1,0,1,0,0,0,hexagon,triangle,0,0,0,0,3,4,40,6,,,,,,,,,,,,,,,,,,,,,,,,,,,,,,,,,,,,,,,,202.50213805600652,202.50213805600652,202.50213805600652,202.50213805600652,202.50213805600652,202.50213805600652,202.50213805600652,202.50213805600652,202.50213805600652,202.50213805600652,l,1.7506504630146082,1,212,0,204.26990087499144,205.77160686798743,,,,,,,,,,,,,,,,,,,,,,,,,,,,,,,,,,,,,,,,,,,,,,,,,,,,,,,,,,,,,,,,,,,,,,,,,81170,2022-10-28_09h09.52.183,vts_reward_expectancy_bt_OFFLINE,2022.2.4,59.993802760605824,
0,0,0,1,0,1,0,0,star ,circle,0,0,0,0,3,5,41,10,,,,,,,,,,,,,,,,,,,,,,,,,,,,,,,,,,,,,,,,206.27197908898233,206.27197908898233,206.27197908898233,206.27197908898233,206.27197908898233,206.27197908898233,206.27197908898233,206.27197908898233,206.27197908898233,206.27197908898233,a,0.9324569790333044,1,213,0,207.2223664399935,208.72286097399774,208.72286097399774,209.22274510699208,,,,,,,,,,,,,,,,,,,,,,,,,,,,,,,,,,,,,,,,,,,,,,,,,,,,,,,,,,,,,,,,,,,,,,,81170,2022-10-28_09h09.52.183,vts_reward_expectancy_bt_OFFLINE,2022.2.4,59.993802760605824,
0,0,0,1,0,0,1,0,star,hexagon,0,0,0,0,3,6,42,11,,,,,,,,,,,,,,,,,,,,,,,,,,,,,,,,,,,,,,,,209.22274510699208,209.22274510699208,209.22274510699208,209.22274510699208,209.22274510699208,209.22274510699208,209.22274510699208,209.22274510699208,209.22274510699208,209.22274510699208,l,1.2382765660295263,1,214,0,210.49039762699977,211.99255550198723,,,,,,,,,,,,,,,,,,,,,,,,,,,,,,,,,,,,,,,,,,,,,,,,,,,,,,,,,,,,,,,,,,,,,,,,,81170,2022-10-28_09h09.52.183,vts_reward_expectancy_bt_OFFLINE,2022.2.4,59.993802760605824,
0,0,0,1,1,0,0,0,star,triangle,0,0,0,0,3,7,43,9,,,,,,,,,,,,,,,,,,,,,,,,,,,,,,,,,,,,,,,,212.4926530039811,212.4926530039811,212.4926530039811,212.4926530039811,212.4926530039811,212.4926530039811,212.4926530039811,212.4926530039811,212.4926530039811,212.4926530039811,l,1.151640476018656,1,215,0,213.67620170899318,215.17708323599072,215.17708323599072,,,,,,,,,,,,,,,,,,,,,,,,,,,,,,,,,,,,,,,,,,,,,,,,,,,,,,,,,,,,,,,,,,,,,,,,81170,2022-10-28_09h09.52.183,vts_reward_expectancy_bt_OFFLINE,2022.2.4,59.993802760605824,
1,0,0,0,0,0,0,1,triangle,star,0,0,0,0,3,8,44,2,,,,,,,,,,,,,,,,,,,,,,,,,,,,,,,,,,,,,,,,215.68245942899375,215.68245942899375,215.68245942899375,215.68245942899375,215.68245942899375,215.68245942899375,215.68245942899375,215.68245942899375,215.68245942899375,215.68245942899375,a,1.6507476810365915,1,216,0,217.36285096299252,218.86327904299833,218.86327904299833,219.36372191799455,,,,,,,,,,,,,,,,,,,,,,,,,,,,,,,,,,,,,,,,,,,,,,,,,,,,,,,,,,,,,,,,,,,,,,,81170,2022-10-28_09h09.52.183,vts_reward_expectancy_bt_OFFLINE,2022.2.4,59.993802760605824,
0,1,0,0,0,0,1,0,circle,hexagon,0,0,0,0,3,9,45,4,,,,,,,,,,,,,,,,,,,,,,,,,,,,,,,,,,,,,,,,219.36372191799455,219.36372191799455,219.36372191799455,219.36372191799455,219.36372191799455,219.36372191799455,219.36372191799455,219.36372191799455,219.36372191799455,219.36372191799455,a,0.7374923480092548,1,217,0,220.13048465398606,221.63284226099495,,,,,,,,,,,,,,,,,,,,,,,,,,,,,,,,,,,,,,,,,,,,,,,,,,,,,,,,,,,,,,,,,,,,,,,,,81170,2022-10-28_09h09.52.183,vts_reward_expectancy_bt_OFFLINE,2022.2.4,59.993802760605824,
0,0,1,0,0,0,0,1,hexagon,star,0,0,0,0,3,10,46,8,,,,,,,,,,,,,,,,,,,,,,,,,,,,,,,,,,,,,,,,222.133103982982,222.133103982982,222.133103982982,222.133103982982,222.133103982982,222.133103982982,222.133103982982,222.133103982982,222.133103982982,222.133103982982,l,0.31966834602644667,10,227,0,222.48482409099233,224.0005396299821,,,,,,,,,,,,,,,,,,,,,,,,,,,,,,,,,,,,,,,,,,,,,,,,,,,,,,,,,,,,,,,,,,,,,,,,,81170,2022-10-28_09h09.52.183,vts_reward_expectancy_bt_OFFLINE,2022.2.4,59.993802760605824,
0,1,0,0,0,0,0,1,circle,star,0,0,0,0,3,11,47,5,,,,,,,,,,,,,,,,,,,,,,,,,,,,,,,,,,,,,,,,224.50054318498587,224.50054318498587,224.50054318498587,224.50054318498587,224.50054318498587,224.50054318498587,224.50054318498587,224.50054318498587,224.50054318498587,224.50054318498587,l,0.3926454450120218,1,228,0,224.9197383270075,226.41979005900794,,,,,,,,,,,,,,,,,,,,,,,,,,,,,,,,,,,,,,,,,,,,,,,,,,,,,,,,,,,,,,,,,,,,,,,,,81170,2022-10-28_09h09.52.183,vts_reward_expectancy_bt_OFFLINE,2022.2.4,59.993802760605824,
0,1,0,0,0,0,1,0,circle,hexagon,1,0,1,0,0,0,0,4,,,,,,,,,,,,,,,,,,,,,,,,,,,,,,,,,,,,,,,,236.92187967000064,236.92187967000064,236.92187967000064,236.92187967000064,236.92187967000064,236.92187967000064,236.92187967000064,236.92187967000064,236.92187967000064,236.92187967000064,a,1.2751214880263433,10,238,1,238.23012863000622,239.74521661599283,,,,,,,,,,,,,,,,,,,,,,,,,,,,,,,,,,,,,,,,,,,,,,,,,,,,,,,,,,,,,,,,,,,,,,,,,81170,2022-10-28_09h09.52.183,vts_reward_expectancy_bt_OFFLINE,2022.2.4,59.993802760605824,
0,0,1,0,1,0,0,0,hexagon,triangle,1,0,1,0,0,1,1,6,,,,,,,,,,,,,,,,,,,,,,,,,,,,,,,,,,,,,,,,240.2451019930013,240.2451019930013,240.2451019930013,240.2451019930013,240.2451019930013,240.2451019930013,240.2451019930013,240.2451019930013,240.2451019930013,240.2451019930013,l,1.7359640630311333,1,239,1,241.9998115839844,243.51483115600422,,,,,,,,,,,,,,,,,,,,,,,,,,,,,,,,,,,,,,,,,,,,,,,,,,,,,,,,,,,,,,,,,,,,,,,,,81170,2022-10-28_09h09.52.183,vts_reward_expectancy_bt_OFFLINE,2022.2.4,59.993802760605824,
0,0,0,1,0,0,1,0,star,hexagon,1,0,1,0,0,2,2,11,,,,,,,,,,,,,,,,,,,,,,,,,,,,,,,,,,,,,,,,244.01513782300754,244.01513782300754,244.01513782300754,244.01513782300754,244.01513782300754,244.01513782300754,244.01513782300754,244.01513782300754,244.01513782300754,244.01513782300754,a,0.4140775170235429,1,240,1,244.44841796299443,245.9508387419919,,,,,,,,,,,,,,,,,,,,,,,,,,,,,,,,,,,,,,,,,,,,,,,,,,,,,,,,,,,,,,,,,,,,,,,,,81170,2022-10-28_09h09.52.183,vts_reward_expectancy_bt_OFFLINE,2022.2.4,59.993802760605824,
1,0,0,0,0,0,0,1,triangle,star,1,0,1,0,0,3,3,2,,,,,,,,,,,,,,,,,,,,,,,,,,,,,,,,,,,,,,,,246.45106022499385,246.45106022499385,246.45106022499385,246.45106022499385,246.45106022499385,246.45106022499385,246.45106022499385,246.45106022499385,246.45106022499385,246.45106022499385,l,0.6424524080066476,10,250,1,247.12030721400515,248.6352619509853,,,,,,,,,,,,,,,,,,,,,,,,,,,,,,,,,,,,,,,,,,,,,,,,,,,,,,,,,,,,,,,,,,,,,,,,,81170,2022-10-28_09h09.52.183,vts_reward_expectancy_bt_OFFLINE,2022.2.4,59.993802760605824,
0,0,0,1,0,1,0,0,star ,circle,1,0,1,0,0,4,4,10,,,,,,,,,,,,,,,,,,,,,,,,,,,,,,,,,,,,,,,,249.13547756400658,249.13547756400658,249.13547756400658,249.13547756400658,249.13547756400658,249.13547756400658,249.13547756400658,249.13547756400658,249.13547756400658,249.13547756400658,l,0.6935551140049938,10,260,1,249.85245779098477,251.35462600798928,,,,,,,,,,,,,,,,,,,,,,,,,,,,,,,,,,,,,,,,,,,,,,,,,,,,,,,,,,,,,,,,,,,,,,,,,81170,2022-10-28_09h09.52.183,vts_reward_expectancy_bt_OFFLINE,2022.2.4,59.993802760605824,
0,1,0,0,0,0,0,1,circle,star,1,0,1,0,0,5,5,5,,,,,,,,,,,,,,,,,,,,,,,,,,,,,,,,,,,,,,,,251.8548367219919,251.8548367219919,251.8548367219919,251.8548367219919,251.8548367219919,251.8548367219919,251.8548367219919,251.8548367219919,251.8548367219919,251.8548367219919,a,1.310051063017454,1,261,1,253.1909830759978,254.70577577498625,,,,,,,,,,,,,,,,,,,,,,,,,,,,,,,,,,,,,,,,,,,,,,,,,,,,,,,,,,,,,,,,,,,,,,,,,81170,2022-10-28_09h09.52.183,vts_reward_expectancy_bt_OFFLINE,2022.2.4,59.993802760605824,
0,0,1,0,0,0,0,1,hexagon,star,1,0,1,0,0,6,6,8,,,,,,,,,,,,,,,,,,,,,,,,,,,,,,,,,,,,,,,,255.20581151498482,255.20581151498482,255.20581151498482,255.20581151498482,255.20581151498482,255.20581151498482,255.20581151498482,255.20581151498482,255.20581151498482,255.20581151498482,l,1.2385150480258744,1,262,1,256.4752965240041,257.9756306849886,257.9756306849886,258.4757220899919,,,,,,,,,,,,,,,,,,,,,,,,,,,,,,,,,,,,,,,,,,,,,,,,,,,,,,,,,,,,,,,,,,,,,,,81170,2022-10-28_09h09.52.183,vts_reward_expectancy_bt_OFFLINE,2022.2.4,59.993802760605824,
1,0,0,0,0,1,0,0,triangle,circle,1,0,1,0,0,7,7,0,,,,,,,,,,,,,,,,,,,,,,,,,,,,,,,,,,,,,,,,258.4757220899919,258.4757220899919,258.4757220899919,258.4757220899919,258.4757220899919,258.4757220899919,258.4757220899919,258.4757220899919,258.4757220899919,258.4757220899919,l,1.0733483330113813,10,272,1,259.57823408799595,261.07848109700717,,,,,,,,,,,,,,,,,,,,,,,,,,,,,,,,,,,,,,,,,,,,,,,,,,,,,,,,,,,,,,,,,,,,,,,,,81170,2022-10-28_09h09.52.183,vts_reward_expectancy_bt_OFFLINE,2022.2.4,59.993802760605824,
0,0,0,1,1,0,0,0,star,triangle,1,0,1,0,0,8,8,9,,,,,,,,,,,,,,,,,,,,,,,,,,,,,,,,,,,,,,,,261.57867108800565,261.57867108800565,261.57867108800565,261.57867108800565,261.57867108800565,261.57867108800565,261.57867108800565,261.57867108800565,261.57867108800565,261.57867108800565,a,0.9463756309996825,10,282,1,262.5456140959868,264.0462003449793,264.0462003449793,264.5462830379838,,,,,,,,,,,,,,,,,,,,,,,,,,,,,,,,,,,,,,,,,,,,,,,,,,,,,,,,,,,,,,,,,,,,,,,81170,2022-10-28_09h09.52.183,vts_reward_expectancy_bt_OFFLINE,2022.2.4,59.993802760605824,
0,0,1,0,0,1,0,0,hexagon,circle,1,0,1,0,0,9,9,7,,,,,,,,,,,,,,,,,,,,,,,,,,,,,,,,,,,,,,,,264.5462830379838,264.5462830379838,264.5462830379838,264.5462830379838,264.5462830379838,264.5462830379838,264.5462830379838,264.5462830379838,264.5462830379838,264.5462830379838,l,0.7390969440166373,10,292,1,265.313481338002,266.81574595399434,,,,,,,,,,,,,,,,,,,,,,,,,,,,,,,,,,,,,,,,,,,,,,,,,,,,,,,,,,,,,,,,,,,,,,,,,81170,2022-10-28_09h09.52.183,vts_reward_expectancy_bt_OFFLINE,2022.2.4,59.993802760605824,
0,1,0,0,1,0,0,0,circle,triangle,1,0,1,0,0,10,10,3,,,,,,,,,,,,,,,,,,,,,,,,,,,,,,,,,,,,,,,,267.31597041297937,267.31597041297937,267.31597041297937,267.31597041297937,267.31597041297937,267.31597041297937,267.31597041297937,267.31597041297937,267.31597041297937,267.31597041297937,a,0.7294445320148952,10,302,1,268.06647175498074,269.5667846479919,,,,,,,,,,,,,,,,,,,,,,,,,,,,,,,,,,,,,,,,,,,,,,,,,,,,,,,,,,,,,,,,,,,,,,,,,81170,2022-10-28_09h09.52.183,vts_reward_expectancy_bt_OFFLINE,2022.2.4,59.993802760605824,
1,0,0,0,0,0,1,0,triangle,hexagon,1,0,1,0,0,11,11,1,,,,,,,,,,,,,,,,,,,,,,,,,,,,,,,,,,,,,,,,270.0668600089848,270.0668600089848,270.0668600089848,270.0668600089848,270.0668600089848,270.0668600089848,270.0668600089848,270.0668600089848,270.0668600089848,270.0668600089848,a,1.4180876369937323,10,312,1,271.5030748319987,273.0032553380006,273.0032553380006,273.5033676289895,,,,,,,,,,,,,,,,,,,,,,,,,,,,,,,,,,,,,,,,,,,,,,,,,,,,,,,,,,,,,,,,,,,,,,,81170,2022-10-28_09h09.52.183,vts_reward_expectancy_bt_OFFLINE,2022.2.4,59.993802760605824,
0,0,1,0,1,0,0,0,hexagon,triangle,1,0,1,0,1,0,12,6,,,,,,,,,,,,,,,,,,,,,,,,,,,,,,,,,,,,,,,,273.5033676289895,273.5033676289895,273.5033676289895,273.5033676289895,273.5033676289895,273.5033676289895,273.5033676289895,273.5033676289895,273.5033676289895,273.5033676289895,l,1.0620609470061027,1,313,1,274.58934430600493,276.0894762639946,,,,,,,,,,,,,,,,,,,,,,,,,,,,,,,,,,,,,,,,,,,,,,,,,,,,,,,,,,,,,,,,,,,,,,,,,81170,2022-10-28_09h09.52.183,vts_reward_expectancy_bt_OFFLINE,2022.2.4,59.993802760605824,
0,0,0,1,0,0,1,0,star,hexagon,1,0,1,0,1,1,13,11,,,,,,,,,,,,,,,,,,,,,,,,,,,,,,,,,,,,,,,,276.58967037600814,276.58967037600814,276.58967037600814,276.58967037600814,276.58967037600814,276.58967037600814,276.58967037600814,276.58967037600814,276.58967037600814,276.58967037600814,a,1.3350552810297813,1,314,1,277.9568137959868,279.4572740159929,279.4572740159929,279.9574746709841,,,,,,,,,,,,,,,,,,,,,,,,,,,,,,,,,,,,,,,,,,,,,,,,,,,,,,,,,,,,,,,,,,,,,,,81170,2022-10-28_09h09.52.183,vts_reward_expectancy_bt_OFFLINE,2022.2.4,59.993802760605824,
1,0,0,0,0,0,1,0,triangle,hexagon,1,0,1,0,1,2,14,1,,,,,,,,,,,,,,,,,,,,,,,,,,,,,,,,,,,,,,,,279.9574746709841,279.9574746709841,279.9574746709841,279.9574746709841,279.9574746709841,279.9574746709841,279.9574746709841,279.9574746709841,279.9574746709841,279.9574746709841,l,0.6713022490148433,10,324,1,280.6599456240074,282.15999466899666,,,,,,,,,,,,,,,,,,,,,,,,,,,,,,,,,,,,,,,,,,,,,,,,,,,,,,,,,,,,,,,,,,,,,,,,,81170,2022-10-28_09h09.52.183,vts_reward_expectancy_bt_OFFLINE,2022.2.4,59.993802760605824,
0,0,1,0,0,0,0,1,hexagon,star,1,0,1,0,1,3,15,8,,,,,,,,,,,,,,,,,,,,,,,,,,,,,,,,,,,,,,,,282.66021682400606,282.66021682400606,282.66021682400606,282.66021682400606,282.66021682400606,282.66021682400606,282.66021682400606,282.66021682400606,282.66021682400606,282.66021682400606,l,0.8081281560007483,1,325,1,283.49647790999734,285.0112018699874,,,,,,,,,,,,,,,,,,,,,,,,,,,,,,,,,,,,,,,,,,,,,,,,,,,,,,,,,,,,,,,,,,,,,,,,,81170,2022-10-28_09h09.52.183,vts_reward_expectancy_bt_OFFLINE,2022.2.4,59.993802760605824,
1,0,0,0,0,1,0,0,triangle,circle,1,0,1,0,1,4,16,0,,,,,,,,,,,,,,,,,,,,,,,,,,,,,,,,,,,,,,,,285.5114649979805,285.5114649979805,285.5114649979805,285.5114649979805,285.5114649979805,285.5114649979805,285.5114649979805,285.5114649979805,285.5114649979805,285.5114649979805,l,0.7570683790254407,1,326,1,286.29698029899737,287.79747551798937,287.79747551798937,288.29763977599214,,,,,,,,,,,,,,,,,,,,,,,,,,,,,,,,,,,,,,,,,,,,,,,,,,,,,,,,,,,,,,,,,,,,,,,81170,2022-10-28_09h09.52.183,vts_reward_expectancy_bt_OFFLINE,2022.2.4,59.993802760605824,
0,1,0,0,0,0,1,0,circle,hexagon,1,0,1,0,1,5,17,4,,,,,,,,,,,,,,,,,,,,,,,,,,,,,,,,,,,,,,,,288.29763977599214,288.29763977599214,288.29763977599214,288.29763977599214,288.29763977599214,288.29763977599214,288.29763977599214,288.29763977599214,288.29763977599214,288.29763977599214,a,1.4195761210285127,1,327,1,289.74821371000144,291.25047631398775,,,,,,,,,,,,,,,,,,,,,,,,,,,,,,,,,,,,,,,,,,,,,,,,,,,,,,,,,,,,,,,,,,,,,,,,,81170,2022-10-28_09h09.52.183,vts_reward_expectancy_bt_OFFLINE,2022.2.4,59.993802760605824,
0,0,1,0,0,1,0,0,hexagon,circle,1,0,1,0,1,6,18,7,,,,,,,,,,,,,,,,,,,,,,,,,,,,,,,,,,,,,,,,291.7503939959861,291.7503939959861,291.7503939959861,291.7503939959861,291.7503939959861,291.7503939959861,291.7503939959861,291.7503939959861,291.7503939959861,291.7503939959861,l,0.3030096360016614,10,337,1,292.086416354985,293.60136883798987,,,,,,,,,,,,,,,,,,,,,,,,,,,,,,,,,,,,,,,,,,,,,,,,,,,,,,,,,,,,,,,,,,,,,,,,,81170,2022-10-28_09h09.52.183,vts_reward_expectancy_bt_OFFLINE,2022.2.4,59.993802760605824,
0,0,0,1,0,1,0,0,star ,circle,1,0,1,0,1,7,19,10,,,,,,,,,,,,,,,,,,,,,,,,,,,,,,,,,,,,,,,,294.1011559650069,294.1011559650069,294.1011559650069,294.1011559650069,294.1011559650069,294.1011559650069,294.1011559650069,294.1011559650069,294.1011559650069,294.1011559650069,a,0.6233245600305963,10,347,1,294.751771826006,296.25399619698874,,,,,,,,,,,,,,,,,,,,,,,,,,,,,,,,,,,,,,,,,,,,,,,,,,,,,,,,,,,,,,,,,,,,,,,,,81170,2022-10-28_09h09.52.183,vts_reward_expectancy_bt_OFFLINE,2022.2.4,59.993802760605824,
0,1,0,0,1,0,0,0,circle,triangle,1,0,1,0,1,8,20,3,,,,,,,,,,,,,,,,,,,,,,,,,,,,,,,,,,,,,,,,296.75420488300733,296.75420488300733,296.75420488300733,296.75420488300733,296.75420488300733,296.75420488300733,296.75420488300733,296.75420488300733,296.75420488300733,296.75420488300733,a,0.7150590020173695,1,348,1,297.490004820982,299.0049506239884,,,,,,,,,,,,,,,,,,,,,,,,,,,,,,,,,,,,,,,,,,,,,,,,,,,,,,,,,,,,,,,,,,,,,,,,,81170,2022-10-28_09h09.52.183,vts_reward_expectancy_bt_OFFLINE,2022.2.4,59.993802760605824,
1,0,0,0,0,0,0,1,triangle,star,1,0,1,0,1,9,21,2,,,,,,,,,,,,,,,,,,,,,,,,,,,,,,,,,,,,,,,,299.50524850099464,299.50524850099464,299.50524850099464,299.50524850099464,299.50524850099464,299.50524850099464,299.50524850099464,299.50524850099464,299.50524850099464,299.50524850099464,l,1.2120305550342891,10,358,1,300.7364143129962,302.2413117639953,,,,,,,,,,,,,,,,,,,,,,,,,,,,,,,,,,,,,,,,,,,,,,,,,,,,,,,,,,,,,,,,,,,,,,,,,81170,2022-10-28_09h09.52.183,vts_reward_expectancy_bt_OFFLINE,2022.2.4,59.993802760605824,
0,1,0,0,0,0,0,1,circle,star,1,0,1,0,1,10,22,5,,,,,,,,,,,,,,,,,,,,,,,,,,,,,,,,,,,,,,,,302.7416377729969,302.7416377729969,302.7416377729969,302.7416377729969,302.7416377729969,302.7416377729969,302.7416377729969,302.7416377729969,302.7416377729969,302.7416377729969,l,0.2716823290102184,10,368,1,303.0422207659867,304.54235031898133,304.54235031898133,305.04205548000755,,,,,,,,,,,,,,,,,,,,,,,,,,,,,,,,,,,,,,,,,,,,,,,,,,,,,,,,,,,,,,,,,,,,,,,81170,2022-10-28_09h09.52.183,vts_reward_expectancy_bt_OFFLINE,2022.2.4,59.993802760605824,
0,0,0,1,1,0,0,0,star,triangle,1,0,1,0,1,11,23,9,,,,,,,,,,,,,,,,,,,,,,,,,,,,,,,,,,,,,,,,305.04205548000755,305.04205548000755,305.04205548000755,305.04205548000755,305.04205548000755,305.04205548000755,305.04205548000755,305.04205548000755,305.04205548000755,305.04205548000755,a,0.2671415080258157,1,369,1,305.32848550300696,306.82823344599456,,,,,,,,,,,,,,,,,,,,,,,,,,,,,,,,,,,,,,,,,,,,,,,,,,,,,,,,,,,,,,,,,,,,,,,,,81170,2022-10-28_09h09.52.183,vts_reward_expectancy_bt_OFFLINE,2022.2.4,59.993802760605824,
0,0,1,0,1,0,0,0,hexagon,triangle,1,0,1,0,2,0,24,6,,,,,,,,,,,,,,,,,,,,,,,,,,,,,,,,,,,,,,,,307.3283384660026,307.3283384660026,307.3283384660026,307.3283384660026,307.3283384660026,307.3283384660026,307.3283384660026,307.3283384660026,307.3283384660026,307.3283384660026,a,0.3562497190141585,10,379,1,307.7141005839803,309.2290663679887,,,,,,,,,,,,,,,,,,,,,,,,,,,,,,,,,,,,,,,,,,,,,,,,,,,,,,,,,,,,,,,,,,,,,,,,,81170,2022-10-28_09h09.52.183,vts_reward_expectancy_bt_OFFLINE,2022.2.4,59.993802760605824,
0,0,1,0,0,1,0,0,hexagon,circle,1,0,1,0,2,1,25,7,,,,,,,,,,,,,,,,,,,,,,,,,,,,,,,,,,,,,,,,309.712626959983,309.712626959983,309.712626959983,309.712626959983,309.712626959983,309.712626959983,309.712626959983,309.712626959983,309.712626959983,309.712626959983,a,0.34875596503843553,10,389,1,310.0797863100015,311.581738887995,,,,,,,,,,,,,,,,,,,,,,,,,,,,,,,,,,,,,,,,,,,,,,,,,,,,,,,,,,,,,,,,,,,,,,,,,81170,2022-10-28_09h09.52.183,vts_reward_expectancy_bt_OFFLINE,2022.2.4,59.993802760605824,
0,0,1,0,0,0,0,1,hexagon,star,1,0,1,0,2,2,26,8,,,,,,,,,,,,,,,,,,,,,,,,,,,,,,,,,,,,,,,,312.081980493007,312.081980493007,312.081980493007,312.081980493007,312.081980493007,312.081980493007,312.081980493007,312.081980493007,312.081980493007,312.081980493007,l,0.5631266340205912,1,390,1,312.6678390750021,314.1827852409915,,,,,,,,,,,,,,,,,,,,,,,,,,,,,,,,,,,,,,,,,,,,,,,,,,,,,,,,,,,,,,,,,,,,,,,,,81170,2022-10-28_09h09.52.183,vts_reward_expectancy_bt_OFFLINE,2022.2.4,59.993802760605824,
1,0,0,0,0,0,0,1,triangle,star,1,0,1,0,2,3,27,2,,,,,,,,,,,,,,,,,,,,,,,,,,,,,,,,,,,,,,,,314.6827449539851,314.6827449539851,314.6827449539851,314.6827449539851,314.6827449539851,314.6827449539851,314.6827449539851,314.6827449539851,314.6827449539851,314.6827449539851,l,11.70582787701278,10,400,1,326.41147645999445,327.9264037240064,,,,,,,,,,,,,,,,,,,,,,,,,,,,,,,,,,,,,,,,,,,,,,,,,,,,,,,,,,,,,,,,,,,,,,,,,81170,2022-10-28_09h09.52.183,vts_reward_expectancy_bt_OFFLINE,2022.2.4,59.993802760605824,
1,0,0,0,0,1,0,0,triangle,circle,1,0,1,0,2,4,28,0,,,,,,,,,,,,,,,,,,,,,,,,,,,,,,,,,,,,,,,,328.426738471986,328.426738471986,328.426738471986,328.426738471986,328.426738471986,328.426738471986,328.426738471986,328.426738471986,328.426738471986,328.426738471986,l,0.6347569090139586,10,410,1,329.0937607919914,330.5941047339875,330.5941047339875,,,,,,,,,,,,,,,,,,,,,,,,,,,,,,,,,,,,,,,,,,,,,,,,,,,,,,,,,,,,,,,,,,,,,,,,81170,2022-10-28_09h09.52.183,vts_reward_expectancy_bt_OFFLINE,2022.2.4,59.993802760605824,
0,0,0,1,0,1,0,0,star ,circle,1,0,1,0,2,5,29,10,,,,,,,,,,,,,,,,,,,,,,,,,,,,,,,,,,,,,,,,331.09615130600287,331.09615130600287,331.09615130600287,331.09615130600287,331.09615130600287,331.09615130600287,331.09615130600287,331.09615130600287,331.09615130600287,331.09615130600287,l,0.4845095340278931,10,420,1,331.61291512299795,333.11346286398475,333.11346286398475,333.61357389600016,,,,,,,,,,,,,,,,,,,,,,,,,,,,,,,,,,,,,,,,,,,,,,,,,,,,,,,,,,,,,,,,,,,,,,,81170,2022-10-28_09h09.52.183,vts_reward_expectancy_bt_OFFLINE,2022.2.4,59.993802760605824,
0,0,0,1,1,0,0,0,star,triangle,1,0,1,0,2,6,30,9,,,,,,,,,,,,,,,,,,,,,,,,,,,,,,,,,,,,,,,,333.61357389600016,333.61357389600016,333.61357389600016,333.61357389600016,333.61357389600016,333.61357389600016,333.61357389600016,333.61357389600016,333.61357389600016,333.61357389600016,a,0.2952594700327609,10,430,1,333.9308826439956,335.4312294200063,335.4312294200063,,,,,,,,,,,,,,,,,,,,,,,,,,,,,,,,,,,,,,,,,,,,,,,,,,,,,,,,,,,,,,,,,,,,,,,,81170,2022-10-28_09h09.52.183,vts_reward_expectancy_bt_OFFLINE,2022.2.4,59.993802760605824,
0,1,0,0,1,0,0,0,circle,triangle,1,0,1,0,2,7,31,3,,,,,,,,,,,,,,,,,,,,,,,,,,,,,,,,,,,,,,,,335.9330810600077,335.9330810600077,335.9330810600077,335.9330810600077,335.9330810600077,335.9330810600077,335.9330810600077,335.9330810600077,335.9330810600077,335.9330810600077,a,0.3282356660347432,10,440,1,336.28359407000244,337.7839986339968,337.7839986339968,338.28396072698524,,,,,,,,,,,,,,,,,,,,,,,,,,,,,,,,,,,,,,,,,,,,,,,,,,,,,,,,,,,,,,,,,,,,,,,81170,2022-10-28_09h09.52.183,vts_reward_expectancy_bt_OFFLINE,2022.2.4,59.993802760605824,
0,0,0,1,0,0,1,0,star,hexagon,1,0,1,0,2,8,32,11,,,,,,,,,,,,,,,,,,,,,,,,,,,,,,,,,,,,,,,,338.28396072698524,338.28396072698524,338.28396072698524,338.28396072698524,338.28396072698524,338.28396072698524,338.28396072698524,338.28396072698524,338.28396072698524,338.28396072698524,a,0.2730848230130505,10,450,1,338.58483450100175,340.0846948849794,340.0846948849794,340.5846912660054,,,,,,,,,,,,,,,,,,,,,,,,,,,,,,,,,,,,,,,,,,,,,,,,,,,,,,,,,,,,,,,,,,,,,,,81170,2022-10-28_09h09.52.183,vts_reward_expectancy_bt_OFFLINE,2022.2.4,59.993802760605824,
0,1,0,0,0,0,1,0,circle,hexagon,1,0,1,0,2,9,33,4,,,,,,,,,,,,,,,,,,,,,,,,,,,,,,,,,,,,,,,,340.5846912660054,340.5846912660054,340.5846912660054,340.5846912660054,340.5846912660054,340.5846912660054,340.5846912660054,340.5846912660054,340.5846912660054,340.5846912660054,l,0.291769806004595,10,460,1,340.9038281159883,342.40372737898724,342.40372737898724,342.9043642010074,,,,,,,,,,,,,,,,,,,,,,,,,,,,,,,,,,,,,,,,,,,,,,,,,,,,,,,,,,,,,,,,,,,,,,,81170,2022-10-28_09h09.52.183,vts_reward_expectancy_bt_OFFLINE,2022.2.4,59.993802760605824,
1,0,0,0,0,0,1,0,triangle,hexagon,1,0,1,0,2,10,34,1,,,,,,,,,,,,,,,,,,,,,,,,,,,,,,,,,,,,,,,,342.9043642010074,342.9043642010074,342.9043642010074,342.9043642010074,342.9043642010074,342.9043642010074,342.9043642010074,342.9043642010074,342.9043642010074,342.9043642010074,l,0.2845835280313622,1,461,1,343.2225380879827,344.73812575798365,,,,,,,,,,,,,,,,,,,,,,,,,,,,,,,,,,,,,,,,,,,,,,,,,,,,,,,,,,,,,,,,,,,,,,,,,81170,2022-10-28_09h09.52.183,vts_reward_expectancy_bt_OFFLINE,2022.2.4,59.993802760605824,
0,1,0,0,0,0,0,1,circle,star,1,0,1,0,2,11,35,5,,,,,,,,,,,,,,,,,,,,,,,,,,,,,,,,,,,,,,,,345.23827361498843,345.23827361498843,345.23827361498843,345.23827361498843,345.23827361498843,345.23827361498843,345.23827361498843,345.23827361498843,345.23827361498843,345.23827361498843,l,0.3589005110261496,10,471,1,345.6242747469805,347.12405980197946,,,,,,,,,,,,,,,,,,,,,,,,,,,,,,,,,,,,,,,,,,,,,,,,,,,,,,,,,,,,,,,,,,,,,,,,,81170,2022-10-28_09h09.52.183,vts_reward_expectancy_bt_OFFLINE,2022.2.4,59.993802760605824,
0,0,1,0,0,1,0,0,hexagon,circle,1,0,1,0,3,0,36,7,,,,,,,,,,,,,,,,,,,,,,,,,,,,,,,,,,,,,,,,347.6242705459881,347.6242705459881,347.6242705459881,347.6242705459881,347.6242705459881,347.6242705459881,347.6242705459881,347.6242705459881,347.6242705459881,347.6242705459881,a,0.325288749038009,10,481,1,347.97484823098057,349.47484265698586,349.47484265698586,349.9751428469899,,,,,,,,,,,,,,,,,,,,,,,,,,,,,,,,,,,,,,,,,,,,,,,,,,,,,,,,,,,,,,,,,,,,,,,81170,2022-10-28_09h09.52.183,vts_reward_expectancy_bt_OFFLINE,2022.2.4,59.993802760605824,
0,1,0,0,0,0,1,0,circle,hexagon,1,0,1,0,3,1,37,4,,,,,,,,,,,,,,,,,,,,,,,,,,,,,,,,,,,,,,,,349.9751428469899,349.9751428469899,349.9751428469899,349.9751428469899,349.9751428469899,349.9751428469899,349.9751428469899,349.9751428469899,349.9751428469899,349.9751428469899,a,0.2692984940367751,1,482,1,350.2766618729802,351.7776194670005,351.7776194670005,352.2777115860081,,,,,,,,,,,,,,,,,,,,,,,,,,,,,,,,,,,,,,,,,,,,,,,,,,,,,,,,,,,,,,,,,,,,,,,81170,2022-10-28_09h09.52.183,vts_reward_expectancy_bt_OFFLINE,2022.2.4,59.993802760605824,
0,0,0,1,0,1,0,0,star ,circle,1,0,1,0,3,2,38,10,,,,,,,,,,,,,,,,,,,,,,,,,,,,,,,,,,,,,,,,352.2777115860081,352.2777115860081,352.2777115860081,352.2777115860081,352.2777115860081,352.2777115860081,352.2777115860081,352.2777115860081,352.2777115860081,352.2777115860081,a,0.3435611460299697,1,483,1,352.64503594799316,354.14493881197996,354.14493881197996,354.64513876699493,,,,,,,,,,,,,,,,,,,,,,,,,,,,,,,,,,,,,,,,,,,,,,,,,,,,,,,,,,,,,,,,,,,,,,,81170,2022-10-28_09h09.52.183,vts_reward_expectancy_bt_OFFLINE,2022.2.4,59.993802760605824,
1,0,0,0,0,0,0,1,triangle,star,1,0,1,0,3,3,39,2,,,,,,,,,,,,,,,,,,,,,,,,,,,,,,,,,,,,,,,,354.64513876699493,354.64513876699493,354.64513876699493,354.64513876699493,354.64513876699493,354.64513876699493,354.64513876699493,354.64513876699493,354.64513876699493,354.64513876699493,l,0.2876327280246187,10,493,1,354.96442584399483,356.4643069389858,,,,,,,,,,,,,,,,,,,,,,,,,,,,,,,,,,,,,,,,,,,,,,,,,,,,,,,,,,,,,,,,,,,,,,,,,81170,2022-10-28_09h09.52.183,vts_reward_expectancy_bt_OFFLINE,2022.2.4,59.993802760605824,
1,0,0,0,0,1,0,0,triangle,circle,1,0,1,0,3,4,40,0,,,,,,,,,,,,,,,,,,,,,,,,,,,,,,,,,,,,,,,,356.9647416509979,356.9647416509979,356.9647416509979,356.9647416509979,356.9647416509979,356.9647416509979,356.9647416509979,356.9647416509979,356.9647416509979,356.9647416509979,l,0.9357642109971493,10,503,1,357.93179786897963,359.4322654409916,359.4322654409916,359.93227311898954,,,,,,,,,,,,,,,,,,,,,,,,,,,,,,,,,,,,,,,,,,,,,,,,,,,,,,,,,,,,,,,,,,,,,,,81170,2022-10-28_09h09.52.183,vts_reward_expectancy_bt_OFFLINE,2022.2.4,59.993802760605824,
0,0,0,1,0,0,1,0,star,hexagon,1,0,1,0,3,5,41,11,,,,,,,,,,,,,,,,,,,,,,,,,,,,,,,,,,,,,,,,359.93227311898954,359.93227311898954,359.93227311898954,359.93227311898954,359.93227311898954,359.93227311898954,359.93227311898954,359.93227311898954,359.93227311898954,359.93227311898954,l,0.6091271240147762,1,504,1,360.56846431599115,362.0684613150079,,,,,,,,,,,,,,,,,,,,,,,,,,,,,,,,,,,,,,,,,,,,,,,,,,,,,,,,,,,,,,,,,,,,,,,,,81170,2022-10-28_09h09.52.183,vts_reward_expectancy_bt_OFFLINE,2022.2.4,59.993802760605824,
0,1,0,0,1,0,0,0,circle,triangle,1,0,1,0,3,6,42,3,,,,,,,,,,,,,,,,,,,,,,,,,,,,,,,,,,,,,,,,362.56842703698203,362.56842703698203,362.56842703698203,362.56842703698203,362.56842703698203,362.56842703698203,362.56842703698203,362.56842703698203,362.56842703698203,362.56842703698203,l,0.5160060610214714,1,505,1,363.10271393699804,364.60249071900034,364.60249071900034,,,,,,,,,,,,,,,,,,,,,,,,,,,,,,,,,,,,,,,,,,,,,,,,,,,,,,,,,,,,,,,,,,,,,,,,81170,2022-10-28_09h09.52.183,vts_reward_expectancy_bt_OFFLINE,2022.2.4,59.993802760605824,
0,1,0,0,0,0,0,1,circle,star,1,0,1,0,3,7,43,5,,,,,,,,,,,,,,,,,,,,,,,,,,,,,,,,,,,,,,,,365.1025638580031,365.1025638580031,365.1025638580031,365.1025638580031,365.1025638580031,365.1025638580031,365.1025638580031,365.1025638580031,365.1025638580031,365.1025638580031,a,0.3181766400230117,1,506,1,365.4528326629952,366.9553236469801,,367.45553874899633,,,,,,,,,,,,,,,,,,,,,,,,,,,,,,,,,,,,,,,,,,,,,,,,,,,,,,,,,,,,,,,,,,,,,,,81170,2022-10-28_09h09.52.183,vts_reward_expectancy_bt_OFFLINE,2022.2.4,59.993802760605824,
0,0,0,1,1,0,0,0,star,triangle,1,0,1,0,3,8,44,9,,,,,,,,,,,,,,,,,,,,,,,,,,,,,,,,,,,,,,,,367.45553874899633,367.45553874899633,367.45553874899633,367.45553874899633,367.45553874899633,367.45553874899633,367.45553874899633,367.45553874899633,367.45553874899633,367.45553874899633,l,0.29382471600547433,1,507,1,367.77270167000825,369.2726743639796,369.2726743639796,,,,,,,,,,,,,,,,,,,,,,,,,,,,,,,,,,,,,,,,,,,,,,,,,,,,,,,,,,,,,,,,,,,,,,,,81170,2022-10-28_09h09.52.183,vts_reward_expectancy_bt_OFFLINE,2022.2.4,59.993802760605824,
0,0,1,0,0,0,0,1,hexagon,star,1,0,1,0,3,9,45,8,,,,,,,,,,,,,,,,,,,,,,,,,,,,,,,,,,,,,,,,369.7728543919802,369.7728543919802,369.7728543919802,369.7728543919802,369.7728543919802,369.7728543919802,369.7728543919802,369.7728543919802,369.7728543919802,369.7728543919802,l,0.23214519501198083,10,517,1,370.0258283430012,371.5252830499958,,,,,,,,,,,,,,,,,,,,,,,,,,,,,,,,,,,,,,,,,,,,,,,,,,,,,,,,,,,,,,,,,,,,,,,,,81170,2022-10-28_09h09.52.183,vts_reward_expectancy_bt_OFFLINE,2022.2.4,59.993802760605824,
1,0,0,0,0,0,1,0,triangle,hexagon,1,0,1,0,3,10,46,1,,,,,,,,,,,,,,,,,,,,,,,,,,,,,,,,,,,,,,,,372.0256043369882,372.0256043369882,372.0256043369882,372.0256043369882,372.0256043369882,372.0256043369882,372.0256043369882,372.0256043369882,372.0256043369882,372.0256043369882,l,0.4830303540220484,10,527,1,372.52646329198615,374.0263176939916,374.0263176939916,374.52662513399264,,,,,,,,,,,,,,,,,,,,,,,,,,,,,,,,,,,,,,,,,,,,,,,,,,,,,,,,,,,,,,,,,,,,,,,81170,2022-10-28_09h09.52.183,vts_reward_expectancy_bt_OFFLINE,2022.2.4,59.993802760605824,
0,0,1,0,1,0,0,0,hexagon,triangle,1,0,1,0,3,11,47,6,,,,,,,,,,,,,,,,,,,,,,,,,,,,,,,,,,,,,,,,374.52662513399264,374.52662513399264,374.52662513399264,374.52662513399264,374.52662513399264,374.52662513399264,374.52662513399264,374.52662513399264,374.52662513399264,374.52662513399264,l,0.40623464100644924,1,528,1,374.9624779849837,376.46233208000194,,,,,,,,,,,,,,,,,,,,,,,,,,,,,,,,,,,,,,,,,,,,,,,,,,,,,,,,,,,,,,,,,,,,,,,,,81170,2022-10-28_09h09.52.183,vts_reward_expectancy_bt_OFFLINE,2022.2.4,59.993802760605824,
0,0,0,1,1,0,0,0,star,triangle,2,0,2,0,0,0,0,9,,,,,,,,,,,,,,,,,,,,,,,,,,,,,,,,,,,,,,,,380.6920228499803,380.6920228499803,380.6920228499803,380.6920228499803,380.6920228499803,380.6920228499803,380.6920228499803,380.6920228499803,380.6920228499803,380.6920228499803,a,0.6083947410224937,1,529,2,381.33237566499156,382.8331977079797,382.8331977079797,383.3332955799997,,,,,,,,,,,,,,,,,,,,,,,,,,,,,,,,,,,,,,,,,,,,,,,,,,,,,,,,,,,,,,,,,,,,,,,81170,2022-10-28_09h09.52.183,vts_reward_expectancy_bt_OFFLINE,2022.2.4,59.993802760605824,
1,0,0,0,0,0,1,0,triangle,hexagon,2,0,2,0,0,1,1,1,,,,,,,,,,,,,,,,,,,,,,,,,,,,,,,,,,,,,,,,383.3332955799997,383.3332955799997,383.3332955799997,383.3332955799997,383.3332955799997,383.3332955799997,383.3332955799997,383.3332955799997,383.3332955799997,383.3332955799997,l,0.06397792103234679,10,539,2,383.41942184898653,384.934181856981,,,,,,,,,,,,,,,,,,,,,,,,,,,,,,,,,,,,,,,,,,,,,,,,,,,,,,,,,,,,,,,,,,,,,,,,,81170,2022-10-28_09h09.52.183,vts_reward_expectancy_bt_OFFLINE,2022.2.4,59.993802760605824,
0,1,0,0,0,0,0,1,circle,star,2,0,2,0,0,2,2,5,,,,,,,,,,,,,,,,,,,,,,,,,,,,,,,,,,,,,,,,385.4172723219963,385.4172723219963,385.4172723219963,385.4172723219963,385.4172723219963,385.4172723219963,385.4172723219963,385.4172723219963,385.4172723219963,385.4172723219963,l,1.4754399600205943,1,540,2,386.9222779109841,388.4371172520041,,,,,,,,,,,,,,,,,,,,,,,,,,,,,,,,,,,,,,,,,,,,,,,,,,,,,,,,,,,,,,,,,,,,,,,,,81170,2022-10-28_09h09.52.183,vts_reward_expectancy_bt_OFFLINE,2022.2.4,59.993802760605824,
0,0,0,1,0,1,0,0,star ,circle,2,0,2,0,0,3,3,10,,,,,,,,,,,,,,,,,,,,,,,,,,,,,,,,,,,,,,,,388.9371553300007,388.9371553300007,388.9371553300007,388.9371553300007,388.9371553300007,388.9371553300007,388.9371553300007,388.9371553300007,388.9371553300007,388.9371553300007,a,0.30793889399501495,1,541,2,389.2714296869817,390.7712191519968,390.7712191519968,,,,,,,,,,,,,,,,,,,,,,,,,,,,,,,,,,,,,,,,,,,,,,,,,,,,,,,,,,,,,,,,,,,,,,,,81170,2022-10-28_09h09.52.183,vts_reward_expectancy_bt_OFFLINE,2022.2.4,59.993802760605824,
0,1,0,0,1,0,0,0,circle,triangle,2,0,2,0,0,4,4,3,,,,,,,,,,,,,,,,,,,,,,,,,,,,,,,,,,,,,,,,391.2729967930063,391.2729967930063,391.2729967930063,391.2729967930063,391.2729967930063,391.2729967930063,391.2729967930063,391.2729967930063,391.2729967930063,391.2729967930063,l,0.2514132840151433,1,542,2,391.55643876999966,393.0572395210038,393.0572395210038,393.55732575198635,,,,,,,,,,,,,,,,,,,,,,,,,,,,,,,,,,,,,,,,,,,,,,,,,,,,,,,,,,,,,,,,,,,,,,,81170,2022-10-28_09h09.52.183,vts_reward_expectancy_bt_OFFLINE,2022.2.4,59.993802760605824,
0,1,0,0,0,0,1,0,circle,hexagon,2,0,2,0,0,5,5,4,,,,,,,,,,,,,,,,,,,,,,,,,,,,,,,,,,,,,,,,393.55732575198635,393.55732575198635,393.55732575198635,393.55732575198635,393.55732575198635,393.55732575198635,393.55732575198635,393.55732575198635,393.55732575198635,393.55732575198635,a,0.26311307403375395,1,543,2,393.841632458003,395.34120157099096,395.34120157099096,,,,,,,,,,,,,,,,,,,,,,,,,,,,,,,,,,,,,,,,,,,,,,,,,,,,,,,,,,,,,,,,,,,,,,,,81170,2022-10-28_09h09.52.183,vts_reward_expectancy_bt_OFFLINE,2022.2.4,59.993802760605824,
1,0,0,0,0,0,0,1,triangle,star,2,0,2,0,0,6,6,2,,,,,,,,,,,,,,,,,,,,,,,,,,,,,,,,,,,,,,,,395.84346388999256,395.84346388999256,395.84346388999256,395.84346388999256,395.84346388999256,395.84346388999256,395.84346388999256,395.84346388999256,395.84346388999256,395.84346388999256,l,1.7610764309938531,10,553,2,397.6415843629802,399.14449638698716,,,,,,,,,,,,,,,,,,,,,,,,,,,,,,,,,,,,,,,,,,,,,,,,,,,,,,,,,,,,,,,,,,,,,,,,,81170,2022-10-28_09h09.52.183,vts_reward_expectancy_bt_OFFLINE,2022.2.4,59.993802760605824,
0,0,1,0,0,0,0,1,hexagon,star,2,0,2,0,0,7,7,8,,,,,,,,,,,,,,,,,,,,,,,,,,,,,,,,,,,,,,,,399.6446634409949,399.6446634409949,399.6446634409949,399.6446634409949,399.6446634409949,399.6446634409949,399.6446634409949,399.6446634409949,399.6446634409949,399.6446634409949,l,0.32850605802377686,10,563,2,399.9957241109805,401.49709011698724,,,,,,,,,,,,,,,,,,,,,,,,,,,,,,,,,,,,,,,,,,,,,,,,,,,,,,,,,,,,,,,,,,,,,,,,,81170,2022-10-28_09h09.52.183,vts_reward_expectancy_bt_OFFLINE,2022.2.4,59.993802760605824,
0,0,0,1,0,0,1,0,star,hexagon,2,0,2,0,0,8,8,11,,,,,,,,,,,,,,,,,,,,,,,,,,,,,,,,,,,,,,,,401.99745995999547,401.99745995999547,401.99745995999547,401.99745995999547,401.99745995999547,401.99745995999547,401.99745995999547,401.99745995999547,401.99745995999547,401.99745995999547,a,0.31929590602521785,10,573,2,402.3482245419873,403.8480850799824,403.8480850799824,404.3481550430006,,,,,,,,,,,,,,,,,,,,,,,,,,,,,,,,,,,,,,,,,,,,,,,,,,,,,,,,,,,,,,,,,,,,,,,81170,2022-10-28_09h09.52.183,vts_reward_expectancy_bt_OFFLINE,2022.2.4,59.993802760605824,
0,0,1,0,0,1,0,0,hexagon,circle,2,0,2,0,0,9,9,7,,,,,,,,,,,,,,,,,,,,,,,,,,,,,,,,,,,,,,,,404.3481550430006,404.3481550430006,404.3481550430006,404.3481550430006,404.3481550430006,404.3481550430006,404.3481550430006,404.3481550430006,404.3481550430006,404.3481550430006,a,0.31323989701922983,1,574,2,404.69612139000674,406.1841405449959,,,,,,,,,,,,,,,,,,,,,,,,,,,,,,,,,,,,,,,,,,,,,,,,,,,,,,,,,,,,,,,,,,,,,,,,,81170,2022-10-28_09h09.52.183,vts_reward_expectancy_bt_OFFLINE,2022.2.4,59.993802760605824,
0,0,1,0,1,0,0,0,hexagon,triangle,2,0,2,0,0,10,10,6,,,,,,,,,,,,,,,,,,,,,,,,,,,,,,,,,,,,,,,,406.68412245900254,406.68412245900254,406.68412245900254,406.68412245900254,406.68412245900254,406.68412245900254,406.68412245900254,406.68412245900254,406.68412245900254,406.68412245900254,l,1.153087361017242,1,575,2,407.8686664259876,409.3685629279935,409.3685629279935,,,,,,,,,,,,,,,,,,,,,,,,,,,,,,,,,,,,,,,,,,,,,,,,,,,,,,,,,,,,,,,,,,,,,,,,81170,2022-10-28_09h09.52.183,vts_reward_expectancy_bt_OFFLINE,2022.2.4,59.993802760605824,
1,0,0,0,0,1,0,0,triangle,circle,2,0,2,0,0,11,11,0,,,,,,,,,,,,,,,,,,,,,,,,,,,,,,,,,,,,,,,,409.86872463300824,409.86872463300824,409.86872463300824,409.86872463300824,409.86872463300824,409.86872463300824,409.86872463300824,409.86872463300824,409.86872463300824,409.86872463300824,l,0.696482156025013,1,576,2,410.5863654749992,412.08793309199973,,,,,,,,,,,,,,,,,,,,,,,,,,,,,,,,,,,,,,,,,,,,,,,,,,,,,,,,,,,,,,,,,,,,,,,,,81170,2022-10-28_09h09.52.183,vts_reward_expectancy_bt_OFFLINE,2022.2.4,59.993802760605824,
1,0,0,0,0,1,0,0,triangle,circle,2,0,2,0,1,0,12,0,,,,,,,,,,,,,,,,,,,,,,,,,,,,,,,,,,,,,,,,412.5878827839915,412.5878827839915,412.5878827839915,412.5878827839915,412.5878827839915,412.5878827839915,412.5878827839915,412.5878827839915,412.5878827839915,412.5878827839915,l,0.7849269880098291,10,586,2,413.40670461198897,414.9056688709825,414.9056688709825,415.40578482300043,,,,,,,,,,,,,,,,,,,,,,,,,,,,,,,,,,,,,,,,,,,,,,,,,,,,,,,,,,,,,,,,,,,,,,,81170,2022-10-28_09h09.52.183,vts_reward_expectancy_bt_OFFLINE,2022.2.4,59.993802760605824,
1,0,0,0,0,0,1,0,triangle,hexagon,2,0,2,0,1,1,13,1,,,,,,,,,,,,,,,,,,,,,,,,,,,,,,,,,,,,,,,,415.40578482300043,415.40578482300043,415.40578482300043,415.40578482300043,415.40578482300043,415.40578482300043,415.40578482300043,415.40578482300043,415.40578482300043,415.40578482300043,a,2.199081284023123,1,587,2,417.62789866598905,419.142320398998,,,,,,,,,,,,,,,,,,,,,,,,,,,,,,,,,,,,,,,,,,,,,,,,,,,,,,,,,,,,,,,,,,,,,,,,,81170,2022-10-28_09h09.52.183,vts_reward_expectancy_bt_OFFLINE,2022.2.4,59.993802760605824,
0,1,0,0,0,0,0,1,circle,star,2,0,2,0,1,2,14,5,,,,,,,,,,,,,,,,,,,,,,,,,,,,,,,,,,,,,,,,419.64247004600475,419.64247004600475,419.64247004600475,419.64247004600475,419.64247004600475,419.64247004600475,419.64247004600475,419.64247004600475,419.64247004600475,419.64247004600475,l,0.45916686701821163,10,597,2,420.12895947200013,421.6284763480071,,,,,,,,,,,,,,,,,,,,,,,,,,,,,,,,,,,,,,,,,,,,,,,,,,,,,,,,,,,,,,,,,,,,,,,,,81170,2022-10-28_09h09.52.183,vts_reward_expectancy_bt_OFFLINE,2022.2.4,59.993802760605824,
0,0,1,0,1,0,0,0,hexagon,triangle,2,0,2,0,1,3,15,6,,,,,,,,,,,,,,,,,,,,,,,,,,,,,,,,,,,,,,,,422.1286535089894,422.1286535089894,422.1286535089894,422.1286535089894,422.1286535089894,422.1286535089894,422.1286535089894,422.1286535089894,422.1286535089894,422.1286535089894,l,0.547651045024395,1,598,2,422.70981518598273,424.2128969079931,,,,,,,,,,,,,,,,,,,,,,,,,,,,,,,,,,,,,,,,,,,,,,,,,,,,,,,,,,,,,,,,,,,,,,,,,81170,2022-10-28_09h09.52.183,vts_reward_expectancy_bt_OFFLINE,2022.2.4,59.993802760605824,
0,0,0,1,0,1,0,0,star ,circle,2,0,2,0,1,4,16,10,,,,,,,,,,,,,,,,,,,,,,,,,,,,,,,,,,,,,,,,424.7128792190051,424.7128792190051,424.7128792190051,424.7128792190051,424.7128792190051,424.7128792190051,424.7128792190051,424.7128792190051,424.7128792190051,424.7128792190051,a,0.8928942700149491,1,599,2,425.6310327629908,427.13219713198487,,,,,,,,,,,,,,,,,,,,,,,,,,,,,,,,,,,,,,,,,,,,,,,,,,,,,,,,,,,,,,,,,,,,,,,,,81170,2022-10-28_09h09.52.183,vts_reward_expectancy_bt_OFFLINE,2022.2.4,59.993802760605824,
0,1,0,0,0,0,1,0,circle,hexagon,2,0,2,0,1,5,17,4,,,,,,,,,,,,,,,,,,,,,,,,,,,,,,,,,,,,,,,,427.63253983698087,427.63253983698087,427.63253983698087,427.63253983698087,427.63253983698087,427.63253983698087,427.63253983698087,427.63253983698087,427.63253983698087,427.63253983698087,l,0.28470244802883826,10,609,2,427.9512277379981,429.4664747499919,,,,,,,,,,,,,,,,,,,,,,,,,,,,,,,,,,,,,,,,,,,,,,,,,,,,,,,,,,,,,,,,,,,,,,,,,81170,2022-10-28_09h09.52.183,vts_reward_expectancy_bt_OFFLINE,2022.2.4,59.993802760605824,
0,0,0,1,0,0,1,0,star,hexagon,2,0,2,0,1,6,18,11,,,,,,,,,,,,,,,,,,,,,,,,,,,,,,,,,,,,,,,,429.96662438099156,429.96662438099156,429.96662438099156,429.96662438099156,429.96662438099156,429.96662438099156,429.96662438099156,429.96662438099156,429.96662438099156,429.96662438099156,l,0.4142694630136248,10,619,2,430.4010667660041,431.9023630769807,,,,,,,,,,,,,,,,,,,,,,,,,,,,,,,,,,,,,,,,,,,,,,,,,,,,,,,,,,,,,,,,,,,,,,,,,81170,2022-10-28_09h09.52.183,vts_reward_expectancy_bt_OFFLINE,2022.2.4,59.993802760605824,
0,0,1,0,0,0,0,1,hexagon,star,2,0,2,0,1,7,19,8,,,,,,,,,,,,,,,,,,,,,,,,,,,,,,,,,,,,,,,,432.4027267439815,432.4027267439815,432.4027267439815,432.4027267439815,432.4027267439815,432.4027267439815,432.4027267439815,432.4027267439815,432.4027267439815,432.4027267439815,l,0.3544946289912332,10,629,2,432.7869266369962,434.2867466659809,434.2867466659809,434.78681684899493,,,,,,,,,,,,,,,,,,,,,,,,,,,,,,,,,,,,,,,,,,,,,,,,,,,,,,,,,,,,,,,,,,,,,,,81170,2022-10-28_09h09.52.183,vts_reward_expectancy_bt_OFFLINE,2022.2.4,59.993802760605824,
0,0,1,0,0,1,0,0,hexagon,circle,2,0,2,0,1,8,20,7,,,,,,,,,,,,,,,,,,,,,,,,,,,,,,,,,,,,,,,,434.78681684899493,434.78681684899493,434.78681684899493,434.78681684899493,434.78681684899493,434.78681684899493,434.78681684899493,434.78681684899493,434.78681684899493,434.78681684899493,a,0.2656197400356177,1,630,2,435.0734586439794,436.57248481799616,,,,,,,,,,,,,,,,,,,,,,,,,,,,,,,,,,,,,,,,,,,,,,,,,,,,,,,,,,,,,,,,,,,,,,,,,81170,2022-10-28_09h09.52.183,vts_reward_expectancy_bt_OFFLINE,2022.2.4,59.993802760605824,
1,0,0,0,0,0,0,1,triangle,star,2,0,2,0,1,9,21,2,,,,,,,,,,,,,,,,,,,,,,,,,,,,,,,,,,,,,,,,437.07254717699834,437.07254717699834,437.07254717699834,437.07254717699834,437.07254717699834,437.07254717699834,437.07254717699834,437.07254717699834,437.07254717699834,437.07254717699834,a,0.9402103120228276,10,640,2,438.04307627800154,439.55724498300697,,,,,,,,,,,,,,,,,,,,,,,,,,,,,,,,,,,,,,,,,,,,,,,,,,,,,,,,,,,,,,,,,,,,,,,,,81170,2022-10-28_09h09.52.183,vts_reward_expectancy_bt_OFFLINE,2022.2.4,59.993802760605824,
0,0,0,1,1,0,0,0,star,triangle,2,0,2,0,1,10,22,9,,,,,,,,,,,,,,,,,,,,,,,,,,,,,,,,,,,,,,,,440.05711248799344,440.05711248799344,440.05711248799344,440.05711248799344,440.05711248799344,440.05711248799344,440.05711248799344,440.05711248799344,440.05711248799344,440.05711248799344,a,0.8754056370235048,10,650,2,440.96040137897944,442.4601220350014,442.4601220350014,442.9601298990019,,,,,,,,,,,,,,,,,,,,,,,,,,,,,,,,,,,,,,,,,,,,,,,,,,,,,,,,,,,,,,,,,,,,,,,81170,2022-10-28_09h09.52.183,vts_reward_expectancy_bt_OFFLINE,2022.2.4,59.993802760605824,
0,1,0,0,1,0,0,0,circle,triangle,2,0,2,0,1,11,23,3,,,,,,,,,,,,,,,,,,,,,,,,,,,,,,,,,,,,,,,,442.9601298990019,442.9601298990019,442.9601298990019,442.9601298990019,442.9601298990019,442.9601298990019,442.9601298990019,442.9601298990019,442.9601298990019,442.9601298990019,a,0.8207839950337075,10,660,2,443.8113039190066,445.31094461798784,445.31094461798784,,,,,,,,,,,,,,,,,,,,,,,,,,,,,,,,,,,,,,,,,,,,,,,,,,,,,,,,,,,,,,,,,,,,,,,,81170,2022-10-28_09h09.52.183,vts_reward_expectancy_bt_OFFLINE,2022.2.4,59.993802760605824,
0,1,0,0,1,0,0,0,circle,triangle,2,0,2,0,2,0,24,3,,,,,,,,,,,,,,,,,,,,,,,,,,,,,,,,,,,,,,,,445.81086228298955,445.81086228298955,445.81086228298955,445.81086228298955,445.81086228298955,445.81086228298955,445.81086228298955,445.81086228298955,445.81086228298955,445.81086228298955,a,0.5226425279979594,1,661,2,446.36645617400063,447.880312866997,,,,,,,,,,,,,,,,,,,,,,,,,,,,,,,,,,,,,,,,,,,,,,,,,,,,,,,,,,,,,,,,,,,,,,,,,81170,2022-10-28_09h09.52.183,vts_reward_expectancy_bt_OFFLINE,2022.2.4,59.993802760605824,
1,0,0,0,0,1,0,0,triangle,circle,2,0,2,0,2,1,25,0,,,,,,,,,,,,,,,,,,,,,,,,,,,,,,,,,,,,,,,,448.3807374500029,448.3807374500029,448.3807374500029,448.3807374500029,448.3807374500029,448.3807374500029,448.3807374500029,448.3807374500029,448.3807374500029,448.3807374500029,l,0.5845947440247983,10,671,2,448.999857961986,450.51472962400294,,,,,,,,,,,,,,,,,,,,,,,,,,,,,,,,,,,,,,,,,,,,,,,,,,,,,,,,,,,,,,,,,,,,,,,,,81170,2022-10-28_09h09.52.183,vts_reward_expectancy_bt_OFFLINE,2022.2.4,59.993802760605824,
0,0,0,1,1,0,0,0,star,triangle,2,0,2,0,2,2,26,9,,,,,,,,,,,,,,,,,,,,,,,,,,,,,,,,,,,,,,,,451.01677805098007,451.01677805098007,451.01677805098007,451.01677805098007,451.01677805098007,451.01677805098007,451.01677805098007,451.01677805098007,451.01677805098007,451.01677805098007,l,0.5478837420232594,10,681,2,451.5847242549935,453.08419949098607,453.08419949098607,453.58427655298146,,,,,,,,,,,,,,,,,,,,,,,,,,,,,,,,,,,,,,,,,,,,,,,,,,,,,,,,,,,,,,,,,,,,,,,81170,2022-10-28_09h09.52.183,vts_reward_expectancy_bt_OFFLINE,2022.2.4,59.993802760605824,
0,1,0,0,0,0,0,1,circle,star,2,0,2,0,2,3,27,5,,,,,,,,,,,,,,,,,,,,,,,,,,,,,,,,,,,,,,,,453.58427655298146,453.58427655298146,453.58427655298146,453.58427655298146,453.58427655298146,453.58427655298146,453.58427655298146,453.58427655298146,453.58427655298146,453.58427655298146,a,0.5168593960115686,1,682,2,454.12114066098,455.6352248809999,,,,,,,,,,,,,,,,,,,,,,,,,,,,,,,,,,,,,,,,,,,,,,,,,,,,,,,,,,,,,,,,,,,,,,,,,81170,2022-10-28_09h09.52.183,vts_reward_expectancy_bt_OFFLINE,2022.2.4,59.993802760605824,
0,0,1,0,0,0,0,1,hexagon,star,2,0,2,0,2,4,28,8,,,,,,,,,,,,,,,,,,,,,,,,,,,,,,,,,,,,,,,,456.12061664499925,456.12061664499925,456.12061664499925,456.12061664499925,456.12061664499925,456.12061664499925,456.12061664499925,456.12061664499925,456.12061664499925,456.12061664499925,l,7.7798103200038895,1,683,2,463.926258950989,465.4254847560078,465.4254847560078,,,,,,,,,,,,,,,,,,,,,,,,,,,,,,,,,,,,,,,,,,,,,,,,,,,,,,,,,,,,,,,,,,,,,,,,81170,2022-10-28_09h09.52.183,vts_reward_expectancy_bt_OFFLINE,2022.2.4,59.993802760605824,
0,0,0,1,0,1,0,0,star ,circle,2,0,2,0,2,5,29,10,,,,,,,,,,,,,,,,,,,,,,,,,,,,,,,,,,,,,,,,465.9277170400019,465.9277170400019,465.9277170400019,465.9277170400019,465.9277170400019,465.9277170400019,465.9277170400019,465.9277170400019,465.9277170400019,465.9277170400019,a,0.5097173230315093,1,684,2,466.4621415970032,467.9617937169969,467.9617937169969,468.4617978640017,,,,,,,,,,,,,,,,,,,,,,,,,,,,,,,,,,,,,,,,,,,,,,,,,,,,,,,,,,,,,,,,,,,,,,,81170,2022-10-28_09h09.52.183,vts_reward_expectancy_bt_OFFLINE,2022.2.4,59.993802760605824,
0,0,1,0,1,0,0,0,hexagon,triangle,2,0,2,0,2,6,30,6,,,,,,,,,,,,,,,,,,,,,,,,,,,,,,,,,,,,,,,,468.4617978640017,468.4617978640017,468.4617978640017,468.4617978640017,468.4617978640017,468.4617978640017,468.4617978640017,468.4617978640017,468.4617978640017,468.4617978640017,l,0.36661646302673034,1,685,2,468.8463544539991,470.3456547939859,470.3456547939859,470.84281904197996,,,,,,,,,,,,,,,,,,,,,,,,,,,,,,,,,,,,,,,,,,,,,,,,,,,,,,,,,,,,,,,,,,,,,,,81170,2022-10-28_09h09.52.183,vts_reward_expectancy_bt_OFFLINE,2022.2.4,59.993802760605824,
1,0,0,0,0,0,1,0,triangle,hexagon,2,0,2,0,2,7,31,1,,,,,,,,,,,,,,,,,,,,,,,,,,,,,,,,,,,,,,,,470.84281904197996,470.84281904197996,470.84281904197996,470.84281904197996,470.84281904197996,470.84281904197996,470.84281904197996,470.84281904197996,470.84281904197996,470.84281904197996,a,0.306478815007722,10,695,2,471.1836458229809,472.69872558899806,,,,,,,,,,,,,,,,,,,,,,,,,,,,,,,,,,,,,,,,,,,,,,,,,,,,,,,,,,,,,,,,,,,,,,,,,81170,2022-10-28_09h09.52.183,vts_reward_expectancy_bt_OFFLINE,2022.2.4,59.993802760605824,
1,0,0,0,0,0,0,1,triangle,star,2,0,2,0,2,8,32,2,,,,,,,,,,,,,,,,,,,,,,,,,,,,,,,,,,,,,,,,473.19857647898607,473.19857647898607,473.19857647898607,473.19857647898607,473.19857647898607,473.19857647898607,473.19857647898607,473.19857647898607,473.19857647898607,473.19857647898607,l,1.382813217031071,1,696,2,474.6024817079888,476.1014799340046,,,,,,,,,,,,,,,,,,,,,,,,,,,,,,,,,,,,,,,,,,,,,,,,,,,,,,,,,,,,,,,,,,,,,,,,,81170,2022-10-28_09h09.52.183,vts_reward_expectancy_bt_OFFLINE,2022.2.4,59.993802760605824,
0,0,1,0,0,1,0,0,hexagon,circle,2,0,2,0,2,9,33,7,,,,,,,,,,,,,,,,,,,,,,,,,,,,,,,,,,,,,,,,476.6017100669851,476.6017100669851,476.6017100669851,476.6017100669851,476.6017100669851,476.6017100669851,476.6017100669851,476.6017100669851,476.6017100669851,476.6017100669851,l,0.49118637401261367,10,706,2,477.1219561419857,478.6356912989868,,,,,,,,,,,,,,,,,,,,,,,,,,,,,,,,,,,,,,,,,,,,,,,,,,,,,,,,,,,,,,,,,,,,,,,,,81170,2022-10-28_09h09.52.183,vts_reward_expectancy_bt_OFFLINE,2022.2.4,59.993802760605824,
0,0,0,1,0,0,1,0,star,hexagon,2,0,2,0,2,10,34,11,,,,,,,,,,,,,,,,,,,,,,,,,,,,,,,,,,,,,,,,479.13617164597963,479.13617164597963,479.13617164597963,479.13617164597963,479.13617164597963,479.13617164597963,479.13617164597963,479.13617164597963,479.13617164597963,479.13617164597963,a,0.6207109500246588,10,716,2,479.78732844098704,481.28859390999423,,,,,,,,,,,,,,,,,,,,,,,,,,,,,,,,,,,,,,,,,,,,,,,,,,,,,,,,,,,,,,,,,,,,,,,,,81170,2022-10-28_09h09.52.183,vts_reward_expectancy_bt_OFFLINE,2022.2.4,59.993802760605824,
0,1,0,0,0,0,1,0,circle,hexagon,2,0,2,0,2,11,35,4,,,,,,,,,,,,,,,,,,,,,,,,,,,,,,,,,,,,,,,,481.78881606599316,481.78881606599316,481.78881606599316,481.78881606599316,481.78881606599316,481.78881606599316,481.78881606599316,481.78881606599316,481.78881606599316,481.78881606599316,l,0.39199978701071814,10,726,2,482.2065528630046,483.70614587698947,483.70614587698947,484.2063224919839,,,,,,,,,,,,,,,,,,,,,,,,,,,,,,,,,,,,,,,,,,,,,,,,,,,,,,,,,,,,,,,,,,,,,,,81170,2022-10-28_09h09.52.183,vts_reward_expectancy_bt_OFFLINE,2022.2.4,59.993802760605824,
1,0,0,0,0,0,0,1,triangle,star,2,0,2,0,3,0,36,2,,,,,,,,,,,,,,,,,,,,,,,,,,,,,,,,,,,,,,,,484.2063224919839,484.2063224919839,484.2063224919839,484.2063224919839,484.2063224919839,484.2063224919839,484.2063224919839,484.2063224919839,484.2063224919839,484.2063224919839,l,0.3745938200154342,1,727,2,484.6098520249943,486.10902930799057,,,,,,,,,,,,,,,,,,,,,,,,,,,,,,,,,,,,,,,,,,,,,,,,,,,,,,,,,,,,,,,,,,,,,,,,,81170,2022-10-28_09h09.52.183,vts_reward_expectancy_bt_OFFLINE,2022.2.4,59.993802760605824,
0,0,1,0,1,0,0,0,hexagon,triangle,2,0,2,0,3,1,37,6,,,,,,,,,,,,,,,,,,,,,,,,,,,,,,,,,,,,,,,,486.60899147798773,486.60899147798773,486.60899147798773,486.60899147798773,486.60899147798773,486.60899147798773,486.60899147798773,486.60899147798773,486.60899147798773,486.60899147798773,a,0.41192231501918286,1,728,2,487.04355169300106,488.5432313049969,488.5432313049969,489.04312311598915,,,,,,,,,,,,,,,,,,,,,,,,,,,,,,,,,,,,,,,,,,,,,,,,,,,,,,,,,,,,,,,,,,,,,,,81170,2022-10-28_09h09.52.183,vts_reward_expectancy_bt_OFFLINE,2022.2.4,59.993802760605824,
0,0,0,1,0,1,0,0,star ,circle,2,0,2,0,3,2,38,10,,,,,,,,,,,,,,,,,,,,,,,,,,,,,,,,,,,,,,,,489.04312311598915,489.04312311598915,489.04312311598915,489.04312311598915,489.04312311598915,489.04312311598915,489.04312311598915,489.04312311598915,489.04312311598915,489.04312311598915,l,0.21034543402493,10,738,2,489.2795565749984,490.7774643639859,,,,,,,,,,,,,,,,,,,,,,,,,,,,,,,,,,,,,,,,,,,,,,,,,,,,,,,,,,,,,,,,,,,,,,,,,81170,2022-10-28_09h09.52.183,vts_reward_expectancy_bt_OFFLINE,2022.2.4,59.993802760605824,
1,0,0,0,0,1,0,0,triangle,circle,2,0,2,0,3,3,39,0,,,,,,,,,,,,,,,,,,,,,,,,,,,,,,,,,,,,,,,,491.27917992699076,491.27917992699076,491.27917992699076,491.27917992699076,491.27917992699076,491.27917992699076,491.27917992699076,491.27917992699076,491.27917992699076,491.27917992699076,l,0.7338914580177516,10,748,2,492.031151845993,493.54674614500254,,,,,,,,,,,,,,,,,,,,,,,,,,,,,,,,,,,,,,,,,,,,,,,,,,,,,,,,,,,,,,,,,,,,,,,,,81170,2022-10-28_09h09.52.183,vts_reward_expectancy_bt_OFFLINE,2022.2.4,59.993802760605824,
0,0,0,1,0,0,1,0,star,hexagon,2,0,2,0,3,4,40,11,,,,,,,,,,,,,,,,,,,,,,,,,,,,,,,,,,,,,,,,494.04685440598405,494.04685440598405,494.04685440598405,494.04685440598405,494.04685440598405,494.04685440598405,494.04685440598405,494.04685440598405,494.04685440598405,494.04685440598405,a,1.2623643390252255,10,758,2,495.3316177020024,496.8330989649985,,,,,,,,,,,,,,,,,,,,,,,,,,,,,,,,,,,,,,,,,,,,,,,,,,,,,,,,,,,,,,,,,,,,,,,,,81170,2022-10-28_09h09.52.183,vts_reward_expectancy_bt_OFFLINE,2022.2.4,59.993802760605824,
0,0,0,1,1,0,0,0,star,triangle,2,0,2,0,3,5,41,9,,,,,,,,,,,,,,,,,,,,,,,,,,,,,,,,,,,,,,,,497.33336697198683,497.33336697198683,497.33336697198683,497.33336697198683,497.33336697198683,497.33336697198683,497.33336697198683,497.33336697198683,497.33336697198683,497.33336697198683,a,1.5760515740257688,10,768,2,498.93496329998015,500.4344392530038,500.4344392530038,,,,,,,,,,,,,,,,,,,,,,,,,,,,,,,,,,,,,,,,,,,,,,,,,,,,,,,,,,,,,,,,,,,,,,,,81170,2022-10-28_09h09.52.183,vts_reward_expectancy_bt_OFFLINE,2022.2.4,59.993802760605824,
0,0,1,0,0,1,0,0,hexagon,circle,2,0,2,0,3,6,42,7,,,,,,,,,,,,,,,,,,,,,,,,,,,,,,,,,,,,,,,,500.9364548419835,500.9364548419835,500.9364548419835,500.9364548419835,500.9364548419835,500.9364548419835,500.9364548419835,500.9364548419835,500.9364548419835,500.9364548419835,l,0.4921964360109996,1,769,2,501.45630620399606,502.9703382230073,,,,,,,,,,,,,,,,,,,,,,,,,,,,,,,,,,,,,,,,,,,,,,,,,,,,,,,,,,,,,,,,,,,,,,,,,81170,2022-10-28_09h09.52.183,vts_reward_expectancy_bt_OFFLINE,2022.2.4,59.993802760605824,
0,1,0,0,0,0,1,0,circle,hexagon,2,0,2,0,3,7,43,4,,,,,,,,,,,,,,,,,,,,,,,,,,,,,,,,,,,,,,,,503.45407572598197,503.45407572598197,503.45407572598197,503.45407572598197,503.45407572598197,503.45407572598197,503.45407572598197,503.45407572598197,503.45407572598197,503.45407572598197,l,0.534405983024044,10,779,2,504.02289520800696,505.538067794987,,,,,,,,,,,,,,,,,,,,,,,,,,,,,,,,,,,,,,,,,,,,,,,,,,,,,,,,,,,,,,,,,,,,,,,,,81170,2022-10-28_09h09.52.183,vts_reward_expectancy_bt_OFFLINE,2022.2.4,59.993802760605824,
0,1,0,0,1,0,0,0,circle,triangle,2,0,2,0,3,8,44,3,,,,,,,,,,,,,,,,,,,,,,,,,,,,,,,,,,,,,,,,506.03992582298815,506.03992582298815,506.03992582298815,506.03992582298815,506.03992582298815,506.03992582298815,506.03992582298815,506.03992582298815,506.03992582298815,506.03992582298815,l,0.3644586170266848,1,780,2,506.42639065298135,507.9240887379856,,,,,,,,,,,,,,,,,,,,,,,,,,,,,,,,,,,,,,,,,,,,,,,,,,,,,,,,,,,,,,,,,,,,,,,,,81170,2022-10-28_09h09.52.183,vts_reward_expectancy_bt_OFFLINE,2022.2.4,59.993802760605824,
0,1,0,0,0,0,0,1,circle,star,2,0,2,0,3,9,45,5,,,,,,,,,,,,,,,,,,,,,,,,,,,,,,,,,,,,,,,,508.4243756700016,508.4243756700016,508.4243756700016,508.4243756700016,508.4243756700016,508.4243756700016,508.4243756700016,508.4243756700016,508.4243756700016,508.4243756700016,l,0.396212818013737,10,790,2,508.844162510999,510.358485853998,,,,,,,,,,,,,,,,,,,,,,,,,,,,,,,,,,,,,,,,,,,,,,,,,,,,,,,,,,,,,,,,,,,,,,,,,81170,2022-10-28_09h09.52.183,vts_reward_expectancy_bt_OFFLINE,2022.2.4,59.993802760605824,
0,0,1,0,0,0,0,1,hexagon,star,2,0,2,0,3,10,46,8,,,,,,,,,,,,,,,,,,,,,,,,,,,,,,,,,,,,,,,,510.858214020991,510.858214020991,510.858214020991,510.858214020991,510.858214020991,510.858214020991,510.858214020991,510.858214020991,510.858214020991,510.858214020991,l,0.49860468500992283,10,800,2,511.3784778289846,512.8776972540072,512.8776972540072,513.3780108880019,,,,,,,,,,,,,,,,,,,,,,,,,,,,,,,,,,,,,,,,,,,,,,,,,,,,,,,,,,,,,,,,,,,,,,,81170,2022-10-28_09h09.52.183,vts_reward_expectancy_bt_OFFLINE,2022.2.4,59.993802760605824,
1,0,0,0,0,0,1,0,triangle,hexagon,2,0,2,0,3,11,47,1,,,,,,,,,,,,,,,,,,,,,,,,,,,,,,,,,,,,,,,,513.3780108880019,513.3780108880019,513.3780108880019,513.3780108880019,513.3780108880019,513.3780108880019,513.3780108880019,513.3780108880019,513.3780108880019,513.3780108880019,a,0.5228837199974805,10,810,2,513.9296005239885,515.4287949379941,515.4287949379941,,,,,,,,,,,,,,,,,,,,,,,,,,,,,,,,,,,,,,,,,,,,,,,,,,,,,,,,,,,,,,,,,,,,,,,,81170,2022-10-28_09h09.52.183,vts_reward_expectancy_bt_OFFLINE,2022.2.4,59.993802760605824,
,,,,,,,,,,,,,,,,,,0,0,0,0,0,0,0,0,,,,,,,,,,,,,,,,,,,,,,,,,,,,,,,,,,,,,,,,,,,,,,,,587.8156129459967,,,H,139,star,0.0024626209924463183,581.8074827749806,583.2956816899823,583.2956816899823,583.2956816899823,586.2984121769841,586.2984121769841,586.2984121769841,0,0,None,0,586.3157675719995,,,,,,,,,,,,,,,,,,,,,,,,,,,,,,,,,,,,,,,,,,,,,,,,,,,,,,,81170,2022-10-28_09h09.52.183,vts_reward_expectancy_bt_OFFLINE,2022.2.4,59.993802760605824,
,,,,,,,,,,,,,,,,,,0,0,0,0,1,0,1,0,,,,,,,,,,,,,,,,,,,,,,,,,,,,,,,,,,,,,,,,,,,,,,,,592.5191173180065,,,W,160,circle,0.006722087011439726,588.8113809929928,590.2996821769921,590.2996821769921,590.2996821769921,,,,1,1,f,0,591.0051955259987,0.6729747980134562,,,,,,,,,,,,,,,,,,,,,,,,,,,,,,,,,,,,,,,,,,,,,,,,,,,,,,81170,2022-10-28_09h09.52.183,vts_reward_expectancy_bt_OFFLINE,2022.2.4,59.993802760605824,
,,,,,,,,,,,,,,,,,,0,0,0,0,2,0,2,0,,,,,,,,,,,,,,,,,,,,,,,,,,,,,,,,,,,,,,,,,,,,,,,,597.1394121199846,,,D,174,hexagon,0.016709026996977627,593.5153779700049,594.9868216110044,594.9868216110044,594.9868216110044,,,,1,0,d,0,595.636816535989,0.6180927320383489,,,,,,,,,,,,,,,,,,,,,,,,,,,,,,,,,,,,,,,,,,,,,,,,,,,,,,81170,2022-10-28_09h09.52.183,vts_reward_expectancy_bt_OFFLINE,2022.2.4,59.993802760605824,
,,,,,,,,,,,,,,,,,,0,0,0,0,3,0,3,0,,,,,,,,,,,,,,,,,,,,,,,,,,,,,,,,,,,,,,,,,,,,,,,,601.7758262360003,,,B,132,triangle,0.0004908280097879469,598.1351444679894,599.623545348004,599.623545348004,599.623545348004,,,,1,0,d,0,600.2881546629942,0.62933872899157,,,,,,,,,,,,,,,,,,,,,,,,,,,,,,,,,,,,,,,,,,,,,,,,,,,,,,81170,2022-10-28_09h09.52.183,vts_reward_expectancy_bt_OFFLINE,2022.2.4,59.993802760605824,
,,,,,,,,,,,,,,,,,,0,0,0,0,4,0,4,0,,,,,,,,,,,,,,,,,,,,,,,,,,,,,,,,,,,,,,,,,,,,,,,,606.479448559985,,,F,146,circle,0.0014281340118031949,602.7706803150068,604.2601822149882,604.2601822149882,604.2601822149882,,,,1,0,d,0,604.9784398619959,0.6967285069986247,,,,,,,,,,,,,,,,,,,,,,,,,,,,,,,,,,,,,,,,,,,,,,,,,,,,,,81170,2022-10-28_09h09.52.183,vts_reward_expectancy_bt_OFFLINE,2022.2.4,59.993802760605824,
,,,,,,,,,,,,,,,,,,0,0,0,0,5,0,5,0,,,,,,,,,,,,,,,,,,,,,,,,,,,,,,,,,,,,,,,,,,,,,,,,611.1328608909971,,,S,181,star,0.0020534920040518045,607.4751884829893,608.9638708859857,608.9638708859857,608.9638708859857,,,,1,0,f,0,609.632293172006,0.6494647090148646,,,,,,,,,,,,,,,,,,,,,,,,,,,,,,,,,,,,,,,,,,,,,,,,,,,,,,81170,2022-10-28_09h09.52.183,vts_reward_expectancy_bt_OFFLINE,2022.2.4,59.993802760605824,
,,,,,,,,,,,,,,,,,,0,0,0,0,6,0,6,0,,,,,,,,,,,,,,,,,,,,,,,,,,,,,,,,,,,,,,,,,,,,,,,,615.9184662089974,,,U,125,hexagon,0.0018532650137785822,612.1286993490066,613.6175750459952,613.6175750459952,613.6175750459952,,,,1,0,f,0,614.4190935159859,0.7794999220059253,615.9184662089974,,,,,,,,,,,,,,,,,,,,,,,,,,,,,,,,,,,,,,,,,,,,,,,,,,,,,81170,2022-10-28_09h09.52.183,vts_reward_expectancy_bt_OFFLINE,2022.2.4,59.993802760605824,
,,,,,,,,,,,,,,,,,,0,0,0,0,7,0,7,0,,,,,,,,,,,,,,,,,,,,,,,,,,,,,,,,,,,,,,,,,,,,,,,,620.5384376400034,,,Y,167,triangle,0.0018334219930693507,616.9151043829916,618.4043670009996,618.4043670009996,618.4043670009996,,,,1,0,f,0,619.0393454229925,0.6167252400191501,620.5384376400034,,,,,,,,,,,,,,,,,,,,,,,,,,,,,,,,,,,,,,,,,,,,,,,,,,,,,81170,2022-10-28_09h09.52.183,vts_reward_expectancy_bt_OFFLINE,2022.2.4,59.993802760605824,
,,,,,,,,,,,,,,,,,,0,0,0,0,8,0,8,0,,,,,,,,,,,,,,,,,,,,,,,,,,,,,,,,,,,,,,,,,,,,,,,,625.1084515149996,,,H,139,triangle,0.001955522981006652,621.5349672889861,623.0242978500028,623.0242978500028,623.0242978500028,,,,1,0,d,0,623.6093731699802,0.5568416810419876,625.1084515149996,,,,,,,,,,,,,,,,,,,,,,,,,,,,,,,,,,,,,,,,,,,,,,,,,,,,,81170,2022-10-28_09h09.52.183,vts_reward_expectancy_bt_OFFLINE,2022.2.4,59.993802760605824,
,,,,,,,,,,,,,,,,,,0,0,0,0,9,0,9,0,,,,,,,,,,,,,,,,,,,,,,,,,,,,,,,,,,,,,,,,,,,,,,,,629.9622068780009,,,W,160,hexagon,0.0003403919981792569,626.1037382420036,627.594567047985,627.594567047985,627.594567047985,,,,1,0,f,0,628.4466263439972,0.8263764910225291,,,,,,,,,,,,,,,,,,,,,,,,,,,,,,,,,,,,,,,,,,,,,,,,,,,,,,81170,2022-10-28_09h09.52.183,vts_reward_expectancy_bt_OFFLINE,2022.2.4,59.993802760605824,
,,,,,,,,,,,,,,,,,,,,,,,,,,0,0,0,0,0,0,0,0,,,,,,,,,,,,,,,,,,,,,,,,,,,,,,,,,,,,,,,,650.5603503870079,,,Y,146,triangle,0.002180965995648876,,,,,,,,1,0,,1,649.0609097999986,,,646.6874391959864,648.175859385985,648.175859385985,648.175859385985,j,0.8531531810294837,,,,,,,,,,,,,,,,,,,,,,,,,,,,,,,,,,,,,,,,,,,,,,,81170,2022-10-28_09h09.52.183,vts_reward_expectancy_bt_OFFLINE,2022.2.4,59.993802760605824,
,,,,,,,,,,,,,,,,,,,,,,,,,,0,0,0,0,1,0,1,0,,,,,,,,,,,,,,,,,,,,,,,,,,,,,,,,,,,,,,,,655.1970902750036,,655.697238296998,D,132,circle,0.0022536000178661197,,,,,,,,1,0,,1,653.6979570499971,,655.1970902750036,651.5572395240015,653.0465095730033,653.0465095730033,653.0465095730033,j,0.6219753550249152,,,,,,,,,,,,,,,,,,,,,,,,,,,,,,,,,,,,,,,,,,,,,,,81170,2022-10-28_09h09.52.183,vts_reward_expectancy_bt_OFFLINE,2022.2.4,59.993802760605824,
,,,,,,,,,,,,,,,,,,,,,,,,,,0,0,0,0,2,0,2,0,,,,,,,,,,,,,,,,,,,,,,,,,,,,,,,,,,,,,,,,659.6172655249829,,660.1174154850014,S,181,star,0.0006062430038582534,,,,,,,,1,0,,1,658.1168525679968,,659.6172655249829,656.1934460499906,657.6829042559839,657.6829042559839,657.6829042559839,k,0.40143355302279815,,,,,,,,,,,,,,,,,,,,,,,,,,,,,,,,,,,,,,,,,,,,,,,81170,2022-10-28_09h09.52.183,vts_reward_expectancy_bt_OFFLINE,2022.2.4,59.993802760605824,
,,,,,,,,,,,,,,,,,,,,,,,,,,0,0,0,0,3,0,3,0,,,,,,,,,,,,,,,,,,,,,,,,,,,,,,,,,,,,,,,,664.2706955949834,,,B,160,hexagon,0.014496796997264028,,,,,,,,1,0,,1,662.7551927159948,,,660.6296614779858,662.1031764459913,662.1031764459913,662.1031764459913,k,0.6223293570219539,,,,,,,,,,,,,,,,,,,,,,,,,,,,,,,,,,,,,,,,,,,,,,,81170,2022-10-28_09h09.52.183,vts_reward_expectancy_bt_OFFLINE,2022.2.4,59.993802760605824,
,,,,,,,,,,,,,,,,,,,,,,,,,,0,0,0,0,4,0,4,0,,,,,,,,,,,,,,,,,,,,,,,,,,,,,,,,,,,,,,,,669.0940709649876,,,F,174,hexagon,0.01656840299256146,,,,,,,,1,0,,1,667.5918556819961,,,665.2663078089827,666.7396688729932,666.7396688729932,666.7396688729932,k,0.8258371640404221,,,,,,,,,,,,,,,,,,,,,,,,,,,,,,,,,,,,,,,,,,,,,,,81170,2022-10-28_09h09.52.183,vts_reward_expectancy_bt_OFFLINE,2022.2.4,59.993802760605824,
,,,,,,,,,,,,,,,,,,,,,,,,,,0,0,0,0,5,0,5,0,,,,,,,,,,,,,,,,,,,,,,,,,,,,,,,,,,,,,,,,673.5945851400029,,,H,125,star,0.016938337997999042,,,,,,,,1,0,,1,672.0791508499824,,,670.1030857849983,671.5768718110048,671.5768718110048,671.5768718110048,j,0.48354118803399615,,,,,,,,,,,,,,,,,,,,,,,,,,,,,,,,,,,,,,,,,,,,,,,81170,2022-10-28_09h09.52.183,vts_reward_expectancy_bt_OFFLINE,2022.2.4,59.993802760605824,
,,,,,,,,,,,,,,,,,,,,,,,,,,0,0,0,0,6,0,6,0,,,,,,,,,,,,,,,,,,,,,,,,,,,,,,,,,,,,,,,,678.2311502319935,,,U,167,circle,0.016415187012171373,,,,,,,,1,0,,1,676.7153731279832,,,674.5898342799919,676.0637563919881,676.0637563919881,676.0637563919881,k,0.6296875450352672,,,,,,,,,,,,,,,,,,,,,,,,,,,,,,,,,,,,,,,,,,,,,,,81170,2022-10-28_09h09.52.183,vts_reward_expectancy_bt_OFFLINE,2022.2.4,59.993802760605824,
,,,,,,,,,,,,,,,,,,,,,,,,,,0,0,0,0,7,0,7,0,,,,,,,,,,,,,,,,,,,,,,,,,,,,,,,,,,,,,,,,682.8014910439961,,,W,139,triangle,0.016778288001660258,,,,,,,,1,0,,1,681.2858179939794,,,679.2269943089923,680.698598160001,680.698598160001,680.698598160001,j,0.5547218170249835,,,,,,,,,,,,,,,,,,,,,,,,,,,,,,,,,,,,,,,,,,,,,,,81170,2022-10-28_09h09.52.183,vts_reward_expectancy_bt_OFFLINE,2022.2.4,59.993802760605824,
,,,,,,,,,,,,,,,,,,,,,,,,,,0,0,0,0,8,0,8,0,,,,,,,,,,,,,,,,,,,,,,,,,,,,,,,,,,,,,,,,687.3714526859985,,,Y,146,hexagon,0.016927576012676582,,,,,,,,1,0,,1,685.8707002479932,,,683.796703289001,685.2690547879902,685.2690547879902,685.2690547879902,j,0.5759421590191778,,,,,,,,,,,,,,,,,,,,,,,,,,,,,,,,,,,,,,,,,,,,,,,81170,2022-10-28_09h09.52.183,vts_reward_expectancy_bt_OFFLINE,2022.2.4,59.993802760605824,
,,,,,,,,,,,,,,,,,,,,,,,,,,0,0,0,0,9,0,9,0,,,,,,,,,,,,,,,,,,,,,,,,,,,,,,,,,,,,,,,,691.9583576660079,,,D,132,triangle,0.0020195409888401628,,,,,,,,1,0,,1,690.4575502229854,,,688.3666581040015,689.8554798609985,689.8554798609985,689.8554798609985,j,0.5735925539920572,,,,,,,,,,,,,,,,,,,,,,,,,,,,,,,,,,,,,,,,,,,,,,,81170,2022-10-28_09h09.52.183,vts_reward_expectancy_bt_OFFLINE,2022.2.4,59.993802760605824,
,,,,,,,,,,,,,,,,,,,,,,,,,,,,,,,,,,0,0,0,0,0,0,0,0,,,,,,,,,,,,,,,,,,,,,,,,,,,,0,810,,,746.2980285479862,,,H,181,circle,0.0024986199859995395,,,,,,,,1,0,,2,,,,,,,,,,742.5578208119841,742.5578208119841,742.5578208119841,742.5578208119841,744.0454565350083,744.0454565350083,744.0454565350083,744.0454565350083,744.0620076640043,744.0620076640043,744.0620076640043,744.0620076640043,-1,letter,NA,d,0.7272783250082284,vtsPrac,744.8013158749964,,,,,,,,,,,,,,,,,,,,,,,,,,,,81170,2022-10-28_09h09.52.183,vts_reward_expectancy_bt_OFFLINE,2022.2.4,59.993802760605824,
,,,,,,,,,,,,,,,,,,,,,,,,,,,,,,,,,,0,0,0,0,1,0,1,0,,,,,,,,,,,,,,,,,,,,,,,,,,,,0,810,,,750.9497959949949,,,B,132,hexagon,0.0018090690136887133,,,,,,,,1,0,,2,,,,,,,,,,747.2941100460012,747.2941100460012,747.2941100460012,747.2941100460012,748.7822708530002,748.7822708530002,748.7822708530002,748.7822708530002,748.7988468229887,748.7988468229887,748.7988468229887,748.7988468229887,repeat,letter,lettRpt,d,0.630376758024795,vtsPrac,749.4343212359818,,,,,,,,,,,,,,,,,,,,,,,,,,,,81170,2022-10-28_09h09.52.183,vts_reward_expectancy_bt_OFFLINE,2022.2.4,59.993802760605824,
,,,,,,,,,,,,,,,,,,,,,,,,,,,,,,,,,,0,0,0,0,2,0,2,0,,,,,,,,,,,,,,,,,,,,,,,,,,,,0,810,,,755.519974099996,,,W,174,triangle,0.0019699980039149523,,,,,,,,1,0,,2,,,,,,,,,,751.9307735599868,751.9307735599868,751.9307735599868,751.9307735599868,753.4190953409998,753.4190953409998,753.4190953409998,753.4190953409998,753.435669937986,753.435669937986,753.435669937986,753.435669937986,switch,number,numSwt,k,0.554088614997454,vtsPrac,754.004713014001,,,,,,,,,,,,,,,,,,,,,,,,,,,,81170,2022-10-28_09h09.52.183,vts_reward_expectancy_bt_OFFLINE,2022.2.4,59.993802760605824,
,,,,,,,,,,,,,,,,,,,,,,,,,,,,,,,,,,0,0,0,0,3,0,3,0,,,,,,,,,,,,,,,,,,,,,,,,,,,,0,810,,,760.6237283079827,,,S,125,circle,0.0003239359939470887,,,,,,,,1,0,,2,,,,,,,,,,756.4998046690016,756.4998046690016,756.4998046690016,756.4998046690016,757.9891618499823,757.9891618499823,757.9891618499823,757.9891618499823,758.0059964759857,758.0059964759857,758.0059964759857,758.0059964759857,repeat,number,numRpt,j,1.0877441830234602,vtsPrac,759.1082747909823,,,,,,,,,,,,,,,,,,,,,,,,,,,,81170,2022-10-28_09h09.52.183,vts_reward_expectancy_bt_OFFLINE,2022.2.4,59.993802760605824,
,,,,,,,,,,,,,,,,,,,,,,,,,,,,,,,,,,0,0,0,0,4,0,4,0,,,,,,,,,,,,,,,,,,,,,,,,,,,,0,810,,,765.5938616659842,,,H,181,star,0.0023636510013602674,,,,,,,,1,0,,2,,,,,,,,,,761.6041758499923,761.6041758499923,761.6041758499923,761.6041758499923,763.0929487799876,763.0929487799876,763.0929487799876,763.0929487799876,763.1096820289968,763.1096820289968,763.1096820289968,763.1096820289968,repeat,number,numRpt,k,0.9594858810305595,vtsPrac,764.0783670959936,,,,,,,,,,,,,,,,,,,,,,,,,,,,81170,2022-10-28_09h09.52.183,vts_reward_expectancy_bt_OFFLINE,2022.2.4,59.993802760605824,
,,,,,,,,,,,,,,,,,,,,,,,,,,,,,,,,,,0,0,0,0,5,0,5,0,,,,,,,,,,,,,,,,,,,,,,,,,,,,0,810,,,770.2473549059941,,,B,132,triangle,0.009312823007348925,,,,,,,,1,0,,2,,,,,,,,,,766.5762924680021,766.5762924680021,766.5762924680021,766.5762924680021,768.0632046099927,768.0632046099927,768.0632046099927,768.0632046099927,768.0798930960009,768.0798930960009,768.0798930960009,768.0798930960009,switch,letter,lettSwt,d,0.6372641260386445,vtsPrac,768.7320967369888,,,,,,,,,,,,,,,,,,,,,,,,,,,,81170,2022-10-28_09h09.52.183,vts_reward_expectancy_bt_OFFLINE,2022.2.4,59.993802760605824,
,,,,,,,,,,,,,,,,,,,,,,,,,,,,,,,,,,0,0,0,0,6,0,6,0,,,,,,,,,,,,,,,,,,,,,,,,,,,,0,810,,,775.017546210991,,,W,174,hexagon,0.01691514701815322,,,,,,,,1,0,,2,,,,,,,,,,771.2433703049901,771.2433703049901,771.2433703049901,771.2433703049901,772.7168590719812,772.7168590719812,772.7168590719812,772.7168590719812,772.750125969993,772.750125969993,772.750125969993,772.750125969993,repeat,letter,lettRpt,f,0.7602234090154525,vtsPrac,773.5021798499802,,,,,,,,,,,,,,,,,,,,,,,,,,,,81170,2022-10-28_09h09.52.183,vts_reward_expectancy_bt_OFFLINE,2022.2.4,59.993802760605824,
,,,,,,,,,,,,,,,,,,,,,,,,,,,,,,,,,,0,0,0,0,7,0,7,0,,,,,,,,,,,,,,,,,,,,,,,,,,,,0,810,,,779.637781509984,,,S,125,triangle,0.00037313401116989553,,,,,,,,1,0,,2,,,,,,,,,,775.996705447993,775.996705447993,775.996705447993,775.996705447993,777.4868826709862,777.4868826709862,777.4868826709862,777.4868826709862,777.5036536940024,777.5036536940024,777.5036536940024,777.5036536940024,repeat,letter,lettRpt,f,0.605607550998684,vtsPrac,778.1224254419794,,,,,,,,,,,,,,,,,,,,,,,,,,,,81170,2022-10-28_09h09.52.183,vts_reward_expectancy_bt_OFFLINE,2022.2.4,59.993802760605824,
,,,,,,,,,,,,,,,,,,,,,,,,,,,,,,,,,,0,0,0,0,8,0,8,0,,,,,,,,,,,,,,,,,,,,,,,,,,,,0,810,,,784.1746566839865,,,U,146,circle,0.01690371401491575,,,,,,,,1,0,,2,,,,,,,,,,780.6335295169847,780.6335295169847,780.6335295169847,780.6335295169847,782.1068475759821,782.1068475759821,782.1068475759821,782.1068475759821,782.1403486210038,782.1403486210038,782.1403486210038,782.1403486210038,switch,number,numSwt,j,0.5225130570179317,vtsPrac,782.6593993830029,,,,,,,,,,,,,,,,,,,,,,,,,,,,81170,2022-10-28_09h09.52.183,vts_reward_expectancy_bt_OFFLINE,2022.2.4,59.993802760605824,
,,,,,,,,,,,,,,,,,,,,,,,,,,,,,,,,,,0,0,0,0,9,0,9,0,,,,,,,,,,,,,,,,,,,,,,,,,,,,0,810,,,788.8278215139871,,,Y,160,hexagon,0.016877992980880663,,,,,,,,1,0,,2,,,,,,,,,,785.1705961909902,785.1705961909902,785.1705961909902,785.1705961909902,786.6435632630019,786.6435632630019,786.6435632630019,786.6435632630019,786.6771712400077,786.6771712400077,786.6771712400077,786.6771712400077,repeat,number,numRpt,k,0.6415263180097099,vtsPrac,787.3126503920066,,,,,,,,,,,,,,,,,,,,,,,,,,,,81170,2022-10-28_09h09.52.183,vts_reward_expectancy_bt_OFFLINE,2022.2.4,59.993802760605824,
,,,,,,,,,,,,,,,,,,,,,,,,,,,,,,,,,,0,0,0,0,10,0,10,0,,,,,,,,,,,,,,,,,,,,,,,,,,,,0,810,,,793.381414145988,,,W,181,triangle,0.016894813015824184,,,,,,,,1,0,,2,,,,,,,,,,789.8237430169829,789.8237430169829,789.8237430169829,789.8237430169829,791.2973407289828,791.2973407289828,791.2973407289828,791.2973407289828,791.3307731690002,791.3307731690002,791.3307731690002,791.3307731690002,repeat,number,numRpt,k,0.5476110970193986,vtsPrac,791.8660436589853,,,,,,,,,,,,,,,,,,,,,,,,,,,,81170,2022-10-28_09h09.52.183,vts_reward_expectancy_bt_OFFLINE,2022.2.4,59.993802760605824,
,,,,,,,,,,,,,,,,,,,,,,,,,,,,,,,,,,0,0,0,0,11,0,11,0,,,,,,,,,,,,,,,,,,,,,,,,,,,,0,810,,,798.8352483669878,,,S,174,star,0.00044257298577576876,,,,,,,,1,0,,2,,,,,,,,,,794.3605037530069,794.3605037530069,794.3605037530069,794.3605037530069,795.8491452559829,795.8491452559829,795.8491452559829,795.8491452559829,795.8658754079952,795.8658754079952,795.8658754079952,795.8658754079952,repeat,number,numRpt,k,1.4436239280330483,vtsPrac,797.3203391160059,,,,,,,,,,,,,,,,,,,,,,,,,,,,81170,2022-10-28_09h09.52.183,vts_reward_expectancy_bt_OFFLINE,2022.2.4,59.993802760605824,
,,,,,,,,,,,,,,,,,,,,,,,,,,,,,,,,,,0,0,0,0,12,0,12,0,,,,,,,,,,,,,,,,,,,,,,,,,,,,0,810,,,804.038728665997,,,H,160,triangle,0.016621690010651946,,,,,,,,1,0,,2,,,,,,,,,,799.8308691849816,799.8308691849816,799.8308691849816,799.8308691849816,801.3045491999947,801.3045491999947,801.3045491999947,801.3045491999947,801.3377971129958,801.3377971129958,801.3377971129958,801.3377971129958,switch,letter,lettSwt,d,1.1878969200188294,vtsPrac,802.5236374590022,,,,,,,,,,,,,,,,,,,,,,,,,,,,81170,2022-10-28_09h09.52.183,vts_reward_expectancy_bt_OFFLINE,2022.2.4,59.993802760605824,
,,,,,,,,,,,,,,,,,,,,,,,,,,,,,,,,,,0,0,0,0,13,0,13,0,,,,,,,,,,,,,,,,,,,,,,,,,,,,0,810,,,809.0926034479926,,,D,132,hexagon,0.01660167600493878,,,,,,,,1,0,,2,,,,,,,,,,805.0351061699912,805.0351061699912,805.0351061699912,805.0351061699912,806.508197549003,806.508197549003,806.508197549003,806.508197549003,806.5417917140003,806.5417917140003,806.5417917140003,806.5417917140003,repeat,letter,lettRpt,d,1.0402763110178057,vtsPrac,807.5774739919871,,,,,,,,,,,,,,,,,,,,,,,,,,,,81170,2022-10-28_09h09.52.183,vts_reward_expectancy_bt_OFFLINE,2022.2.4,59.993802760605824,
,,,,,,,,,,,,,,,,,,,,,,,,,,,,,,,,,,0,0,0,0,14,0,14,0,,,,,,,,,,,,,,,,,,,,,,,,,,,,0,810,,,813.7961233469832,,814.2964363530045,F,167,circle,0.01694514899281785,,,,,,,,1,0,,2,,,,,,,,,,810.0886928969994,810.0886928969994,810.0886928969994,810.0886928969994,811.5621780660003,811.5621780660003,811.5621780660003,811.5621780660003,811.5954493689933,811.5954493689933,811.5954493689933,811.5954493689933,repeat,letter,lettRpt,d,0.7146739630261436,vtsPrac,812.2949166869803,813.7961233469832,,,,,,,,,,,,,,,,,,,,,,,,,,,81170,2022-10-28_09h09.52.183,vts_reward_expectancy_bt_OFFLINE,2022.2.4,59.993802760605824,
,,,,,,,,,,,,,,,,,,,,,,,,,,,,,,,,,,0,0,0,0,15,0,15,0,,,,,,,,,,,,,,,,,,,,,,,,,,,,0,810,,,819.6001438039821,,,U,125,hexagon,0.00023762599448673427,,,,,,,,1,0,,2,,,,,,,,,,814.791868337983,814.791868337983,814.791868337983,814.791868337983,816.282240836008,816.282240836008,816.282240836008,816.282240836008,816.2990673239983,816.2990673239983,816.2990673239983,816.2990673239983,repeat,letter,lettRpt,f,1.770940505026374,vtsPrac,818.0848663639918,,,,,,,,,,,,,,,,,,,,,,,,,,,,81170,2022-10-28_09h09.52.183,vts_reward_expectancy_bt_OFFLINE,2022.2.4,59.993802760605824,
,,,,,,,,,,,,,,,,,,,,,,,,,,,,,,,,,,,,,,,,,,0,0,0,0,,,,,,,,,,,,,,,,,,,,,,,,0,810,,,876.5759884789877,,,U,167,circle,0.0027216180169489235,,,,,,,,1,0,,,,,,,,,,,,872.950770320982,872.950770320982,872.950770320982,872.950770320982,874.4400623689871,874.4400623689871,874.4400623689871,874.4400623689871,874.4566129529849,874.4566129529849,874.4566129529849,874.4566129529849,switch,number,numSwt,k,0.6133574250270613,noRew,,,0,875.0770283539896,,,,,,,,,,,,,,,,,,,,,,,,,81170,2022-10-28_09h09.52.183,vts_reward_expectancy_bt_OFFLINE,2022.2.4,59.993802760605824,
,,,,,,,,,,,,,,,,,,,,,,,,,,,,,,,,,,,,,,,,,,1,0,1,0,,,,,,,,,,,,,,,,,,,,,,,,0,810,,,881.1532728759921,,,S,125,hexagon,0.002089655987219885,,,,,,,,1,0,,,,,,,,,,,,877.5716006940056,877.5716006940056,877.5716006940056,877.5716006940056,879.0600343259866,879.0600343259866,879.0600343259866,879.0600343259866,879.0770269350032,879.0770269350032,879.0770269350032,879.0770269350032,repeat,number,numRpt,j,0.5523245830263477,noRew,,,0,879.6462680829864,,,,,,,,,,,,,,,,,,,,,,,,,81170,2022-10-28_09h09.52.183,vts_reward_expectancy_bt_OFFLINE,2022.2.4,59.993802760605824,
,,,,,,,,,,,,,,,,,,,,,,,,,,,,,,,,,,,,,,,,,,2,0,2,0,,,,,,,,,,,,,,,,,,,,,,,,0,810,,,885.8811747499858,,,B,139,hexagon,0.001905083016026765,,,,,,,,1,0,,,,,,,,,,,,882.1418498249841,882.1418498249841,882.1418498249841,882.1418498249841,883.6302893959801,883.6302893959801,883.6302893959801,883.6302893959801,883.6472912379832,883.6472912379832,883.6472912379832,883.6472912379832,switch,letter,lettSwt,d,0.7107489700138103,noRew,,,0,884.3663747679966,,,,,,,,,,,,,,,,,,,,,,,,,81170,2022-10-28_09h09.52.183,vts_reward_expectancy_bt_OFFLINE,2022.2.4,59.993802760605824,
,,,,,,,,,,,,,,,,,,,,,,,,,,,,,,,,,,,,,,,,,,3,0,3,0,,,,,,,,,,,,,,,,,,,,,,,,0,810,,,890.5847085109854,,,Y,146,star,0.0020248990040272474,,,,,,,,1,0,,,,,,,,,,,,886.8613364189805,886.8613364189805,886.8613364189805,886.8613364189805,888.3506821659976,888.3506821659976,888.3506821659976,888.3506821659976,888.367252461001,888.367252461001,888.367252461001,888.367252461001,repeat,letter,lettRpt,f,0.6859483270091005,noRew,,,0,889.0697459259827,,,,,,,,,,,,,,,,,,,,,,,,,81170,2022-10-28_09h09.52.183,vts_reward_expectancy_bt_OFFLINE,2022.2.4,59.993802760605824,
,,,,,,,,,,,,,,,,,,,,,,,,,,,,,,,,,,,,,,,,,,4,0,4,0,,,,,,,,,,,,,,,,,,,,,,,,0,810,,,895.5384707310004,,,U,167,triangle,0.01723058900097385,,,,,,,,1,0,,,,,,,,,,,,891.5807817959867,891.5807817959867,891.5807817959867,891.5807817959867,893.0541071509942,893.0541071509942,893.0541071509942,893.0541071509942,893.0875712209963,893.0875712209963,893.0875712209963,893.0875712209963,repeat,letter,lettRpt,f,0.950477975042304,noRew,,,0,894.0235915170051,,,,,,,,,,,,,,,,,,,,,,,,,81170,2022-10-28_09h09.52.183,vts_reward_expectancy_bt_OFFLINE,2022.2.4,59.993802760605824,
,,,,,,,,,,,,,,,,,,,,,,,,,,,,,,,,,,,,,,,,,,5,0,5,0,,,,,,,,,,,,,,,,,,,,,,,,0,810,,,900.141752800002,,,S,125,star,0.016528406005818397,,,,,,,,1,0,,,,,,,,,,,,896.5346002779843,896.5346002779843,896.5346002779843,896.5346002779843,898.0078709969821,898.0078709969821,898.0078709969821,898.0078709969821,898.041221980995,898.041221980995,898.041221980995,898.041221980995,repeat,letter,lettRpt,f,0.5970082370040473,noRew,,,0,898.627075122,,,,,,,,,,,,,,,,,,,,,,,,,81170,2022-10-28_09h09.52.183,vts_reward_expectancy_bt_OFFLINE,2022.2.4,59.993802760605824,
,,,,,,,,,,,,,,,,,,,,,,,,,,,,,,,,,,,,,,,,,,6,0,6,0,,,,,,,,,,,,,,,,,,,,,,,,0,810,,,904.828584945004,,,B,139,star,0.01656827999977395,,,,,,,,1,0,,,,,,,,,,,,901.1379390509974,901.1379390509974,901.1379390509974,901.1379390509974,902.6112184140075,902.6112184140075,902.6112184140075,902.6112184140075,902.6446332070045,902.6446332070045,902.6446332070045,902.6446332070045,repeat,letter,lettRpt,d,0.6732030400307849,noRew,,,0,903.3137292619795,,,,,,,,,,,,,,,,,,,,,,,,,81170,2022-10-28_09h09.52.183,vts_reward_expectancy_bt_OFFLINE,2022.2.4,59.993802760605824,
,,,,,,,,,,,,,,,,,,,,,,,,,,,,,,,,,,,,,,,,,,7,0,7,0,,,,,,,,,,,,,,,,,,,,,,,,0,810,,,909.4321227289911,,,Y,146,circle,0.017131194996181875,,,,,,,,0,0,,,,,,,,,,,,905.8248377749987,905.8248377749987,905.8248377749987,905.8248377749987,907.2982462969958,907.2982462969958,907.2982462969958,907.2982462969958,907.3314686589874,907.3314686589874,907.3314686589874,907.3314686589874,switch,number,NA,k,0.5871588760055602,noRew,,,0,907.9180587939918,,,,,,,,,,,,,,,,,,,,,,,,,81170,2022-10-28_09h09.52.183,vts_reward_expectancy_bt_OFFLINE,2022.2.4,59.993802760605824,
,,,,,,,,,,,,,,,,,,,,,,,,,,,,,,,,,,,,,,,,,,8,0,8,0,,,,,,,,,,,,,,,,,,,,,,,,0,810,,,914.0522806789959,,,Y,174,hexagon,0.016580566996708512,,,,,,,,1,1,,,,,,,,,,,,910.4274818220001,910.4274818220001,910.4274818220001,910.4274818220001,911.9015380939818,911.9015380939818,911.9015380939818,911.9015380939818,911.934933099983,911.934933099983,911.934933099983,911.934933099983,repeat,number,numRpt,k,0.6153987309953663,noRew,,,0,912.5383849279897,,,,,,,,,,,,,,,,,,,,,,,,,81170,2022-10-28_09h09.52.183,vts_reward_expectancy_bt_OFFLINE,2022.2.4,59.993802760605824,
,,,,,,,,,,,,,,,,,,,,,,,,,,,,,,,,,,,,,,,,,,9,0,9,0,,,,,,,,,,,,,,,,,,,,,,,,0,810,,,918.9557135629875,,,F,160,triangle,0.01669283799128607,,,,,,,,1,0,,,,,,,,,,,,915.0481993620051,915.0481993620051,915.0481993620051,915.0481993620051,916.5217288229906,916.5217288229906,916.5217288229906,916.5217288229906,916.5551360959944,916.5551360959944,916.5551360959944,916.5551360959944,repeat,number,numRpt,k,0.8995685430127196,noRew,,,0,917.4410681659938,,,,,,,,,,,,,,,,,,,,,,,,,81170,2022-10-28_09h09.52.183,vts_reward_expectancy_bt_OFFLINE,2022.2.4,59.993802760605824,
