LTriangleOpac,LCircleOpac,LHexagonOpac,LStarOpac,RTriangleOpac,RCircleOpac,RHexagonOpac,RStarOpac,LShape_ID,RShape_ID,training_blocks.thisRepN,training_blocks.thisTrialN,training_blocks.thisN,training_blocks.thisIndex,training.thisRepN,training.thisTrialN,training.thisN,training.thisIndex,task1_prac_redo.thisRepN,task1_prac_redo.thisTrialN,task1_prac_redo.thisN,task1_prac_redo.thisIndex,task1_prac_trials.thisRepN,task1_prac_trials.thisTrialN,task1_prac_trials.thisN,task1_prac_trials.thisIndex,task2_prac_redo.thisRepN,task2_prac_redo.thisTrialN,task2_prac_redo.thisN,task2_prac_redo.thisIndex,task2_praac_trials.thisRepN,task2_praac_trials.thisTrialN,task2_praac_trials.thisN,task2_praac_trials.thisIndex,vts_prac_redo.thisRepN,vts_prac_redo.thisTrialN,vts_prac_redo.thisN,vts_prac_redo.thisIndex,vts_practice_trials.thisRepN,vts_practice_trials.thisTrialN,vts_practice_trials.thisN,vts_practice_trials.thisIndex,trials_norew.thisRepN,trials_norew.thisTrialN,trials_norew.thisN,trials_norew.thisIndex,block.thisRepN,block.thisTrialN,block.thisN,block.thisIndex,trials_rew.thisRepN,trials_rew.thisTrialN,trials_rew.thisN,trials_rew.thisIndex,key_resp.started,key_resp.keys,key_resp.rt,left_circle.started,right_circle.started,left_triangle.started,right_triangle.started,left_star.started,right_star.started,left_hexagon.started,right_hexagon.started,training_fix.started,training_resp.started,training_resp.keys,training_resp.rt,points_trial,points_cumul,trainBlock,training_feedback_txt.started,fix.started,training_feedback_txt.stopped,fix.stopped,curr_topStim,curr_bottStim,curr_shape,ISI.started,tgt_fix_prac1.started,top_target_prac1.started,bott_target_prac1.started,target_resp_prac1.started,acc,E1,target_resp_prac1.keys,target_resp_prac1.rt,pracBlock,prac_fback_text.started,tgt_fix_prac2.started,top_target_prac2.started,bott_target_prac2.started,target_resp_prac2.started,target_resp_prac2.keys,target_resp_prac2.rt,prac_fback_text.stopped,star.started,hegagon.started,triangle.started,circle.started,star.stopped,hegagon.stopped,triangle.stopped,circle.stopped,top_target.started,tgt_fix.started,bot_target.started,target_resp.started,top_target.stopped,tgt_fix.stopped,bot_target.stopped,target_resp.stopped,alt,task,condition,target_resp.keys,rewCond,vts_fback.started,vts_fback.stopped,target_resp.rt,blockNum,norew_fback.started,norew_fback.stopped,key_resp_2.keys,key_resp_2.rt,rewExpectancy,feedbk_text.started,feedbk_text.stopped,text_3.started,debrief.started,text_3.stopped,button.started,debrief.index,debrief.itemText,debrief.type,debrief.granularity,debrief.font,debrief.markerColor,debrief.response,debrief.rt,button.numClicks,button.timesOn,button.timesOff,participant,date,expName,psychopyVersion,frameRate,
,,,,,,,,,,,,,,,,,,,,,,,,,,,,,,,,,,,,,,,,,,,,,,,,,,,,,,23.22416750001139,space,20.975391032989137,,,,,,,,,,,,,,,,,,,,,,,,,,,,,,,,,,,,,,,,,,,,,,,,,,,,,,,,,,,,,,,,,,,,,,,,,,,,,,,,,,,,,,,,82645,2022-11-17_14h04.31.668,vts_reward_expectancy_bt_OFFLINE,2022.2.4,59.952219880520786,
1,0,0,0,0,0,0,1,triangle,star,0,0,0,0,0,0,0,2,,,,,,,,,,,,,,,,,,,,,,,,,,,,,,,,,,,,,,,,73.14237442798913,73.14237442798913,73.14237442798913,73.14237442798913,73.14237442798913,73.14237442798913,73.14237442798913,73.14237442798913,73.14237442798913,73.14237442798913,l,2.026860657002544,1,1,0,75.19483277099789,76.69641750201117,,,,,,,,,,,,,,,,,,,,,,,,,,,,,,,,,,,,,,,,,,,,,,,,,,,,,,,,,,,,,,,,,,,,,,,82645,2022-11-17_14h04.31.668,vts_reward_expectancy_bt_OFFLINE,2022.2.4,59.952219880520786,
0,1,0,0,0,0,1,0,circle,hexagon,0,0,0,0,0,1,1,4,,,,,,,,,,,,,,,,,,,,,,,,,,,,,,,,,,,,,,,,77.1976252339955,77.1976252339955,77.1976252339955,77.1976252339955,77.1976252339955,77.1976252339955,77.1976252339955,77.1976252339955,77.1976252339955,77.1976252339955,a,1.0541593990055844,1,2,0,78.28182031400502,79.78344573901268,,,,,,,,,,,,,,,,,,,,,,,,,,,,,,,,,,,,,,,,,,,,,,,,,,,,,,,,,,,,,,,,,,,,,,,82645,2022-11-17_14h04.31.668,vts_reward_expectancy_bt_OFFLINE,2022.2.4,59.952219880520786,
1,0,0,0,0,0,1,0,triangle,hexagon,0,0,0,0,0,2,2,1,,,,,,,,,,,,,,,,,,,,,,,,,,,,,,,,,,,,,,,,80.28395565599203,80.28395565599203,80.28395565599203,80.28395565599203,80.28395565599203,80.28395565599203,80.28395565599203,80.28395565599203,80.28395565599203,80.28395565599203,a,0.9037296439928468,1,3,0,81.21845812001266,82.71987672301475,,,,,,,,,,,,,,,,,,,,,,,,,,,,,,,,,,,,,,,,,,,,,,,,,,,,,,,,,,,,,,,,,,,,,,,82645,2022-11-17_14h04.31.668,vts_reward_expectancy_bt_OFFLINE,2022.2.4,59.952219880520786,
0,0,1,0,0,0,0,1,hexagon,star,0,0,0,0,0,3,3,8,,,,,,,,,,,,,,,,,,,,,,,,,,,,,,,,,,,,,,,,83.22045929799788,83.22045929799788,83.22045929799788,83.22045929799788,83.22045929799788,83.22045929799788,83.22045929799788,83.22045929799788,83.22045929799788,83.22045929799788,a,0.8703232539992314,10,13,0,84.12157052199473,85.62315992001095,,,,,,,,,,,,,,,,,,,,,,,,,,,,,,,,,,,,,,,,,,,,,,,,,,,,,,,,,,,,,,,,,,,,,,,82645,2022-11-17_14h04.31.668,vts_reward_expectancy_bt_OFFLINE,2022.2.4,59.952219880520786,
0,0,0,1,1,0,0,0,star,triangle,0,0,0,0,0,4,4,9,,,,,,,,,,,,,,,,,,,,,,,,,,,,,,,,,,,,,,,,86.12365117599256,86.12365117599256,86.12365117599256,86.12365117599256,86.12365117599256,86.12365117599256,86.12365117599256,86.12365117599256,86.12365117599256,86.12365117599256,l,1.1620631930127274,10,23,0,87.30831277900143,88.8100702080119,,,,,,,,,,,,,,,,,,,,,,,,,,,,,,,,,,,,,,,,,,,,,,,,,,,,,,,,,,,,,,,,,,,,,,,82645,2022-11-17_14h04.31.668,vts_reward_expectancy_bt_OFFLINE,2022.2.4,59.952219880520786,
0,1,0,0,0,0,0,1,circle,star,0,0,0,0,0,5,5,5,,,,,,,,,,,,,,,,,,,,,,,,,,,,,,,,,,,,,,,,89.31058576199575,89.31058576199575,89.31058576199575,89.31058576199575,89.31058576199575,89.31058576199575,89.31058576199575,89.31058576199575,89.31058576199575,89.31058576199575,l,1.1708753110142425,1,24,0,90.51214258201071,92.01391615401371,,,,,,,,,,,,,,,,,,,,,,,,,,,,,,,,,,,,,,,,,,,,,,,,,,,,,,,,,,,,,,,,,,,,,,,82645,2022-11-17_14h04.31.668,vts_reward_expectancy_bt_OFFLINE,2022.2.4,59.952219880520786,
0,0,1,0,1,0,0,0,hexagon,triangle,0,0,0,0,0,6,6,6,,,,,,,,,,,,,,,,,,,,,,,,,,,,,,,,,,,,,,,,92.51401114600594,92.51401114600594,92.51401114600594,92.51401114600594,92.51401114600594,92.51401114600594,92.51401114600594,92.51401114600594,92.51401114600594,92.51401114600594,l,0.8920632579829544,10,34,0,93.4317542760109,94.9334370259894,,,,,,,,,,,,,,,,,,,,,,,,,,,,,,,,,,,,,,,,,,,,,,,,,,,,,,,,,,,,,,,,,,,,,,,82645,2022-11-17_14h04.31.668,vts_reward_expectancy_bt_OFFLINE,2022.2.4,59.952219880520786,
0,0,0,1,0,0,1,0,star,hexagon,0,0,0,0,0,7,7,11,,,,,,,,,,,,,,,,,,,,,,,,,,,,,,,,,,,,,,,,95.43388300700462,95.43388300700462,95.43388300700462,95.43388300700462,95.43388300700462,95.43388300700462,95.43388300700462,95.43388300700462,95.43388300700462,95.43388300700462,l,1.0328187630220782,10,44,0,96.48528740601614,97.986761519016,97.986761519016,98.4873056760116,,,,,,,,,,,,,,,,,,,,,,,,,,,,,,,,,,,,,,,,,,,,,,,,,,,,,,,,,,,,,,,,,,,,,82645,2022-11-17_14h04.31.668,vts_reward_expectancy_bt_OFFLINE,2022.2.4,59.952219880520786,
1,0,0,0,0,1,0,0,triangle,circle,0,0,0,0,0,8,8,0,,,,,,,,,,,,,,,,,,,,,,,,,,,,,,,,,,,,,,,,98.4873056760116,98.4873056760116,98.4873056760116,98.4873056760116,98.4873056760116,98.4873056760116,98.4873056760116,98.4873056760116,98.4873056760116,98.4873056760116,l,1.073971799982246,1,45,0,99.58832761901431,101.09002982798847,,,,,,,,,,,,,,,,,,,,,,,,,,,,,,,,,,,,,,,,,,,,,,,,,,,,,,,,,,,,,,,,,,,,,,,82645,2022-11-17_14h04.31.668,vts_reward_expectancy_bt_OFFLINE,2022.2.4,59.952219880520786,
0,0,0,1,0,1,0,0,star ,circle,0,0,0,0,0,9,9,10,,,,,,,,,,,,,,,,,,,,,,,,,,,,,,,,,,,,,,,,101.59077159001026,101.59077159001026,101.59077159001026,101.59077159001026,101.59077159001026,101.59077159001026,101.59077159001026,101.59077159001026,101.59077159001026,101.59077159001026,l,0.6692746990011074,1,46,0,102.2915985879954,103.79328943099244,,,,,,,,,,,,,,,,,,,,,,,,,,,,,,,,,,,,,,,,,,,,,,,,,,,,,,,,,,,,,,,,,,,,,,,82645,2022-11-17_14h04.31.668,vts_reward_expectancy_bt_OFFLINE,2022.2.4,59.952219880520786,
0,1,0,0,1,0,0,0,circle,triangle,0,0,0,0,0,10,10,3,,,,,,,,,,,,,,,,,,,,,,,,,,,,,,,,,,,,,,,,104.29363268200541,104.29363268200541,104.29363268200541,104.29363268200541,104.29363268200541,104.29363268200541,104.29363268200541,104.29363268200541,104.29363268200541,104.29363268200541,a,0.6230251149972901,1,47,0,104.94443148901337,106.44604287101538,,,,,,,,,,,,,,,,,,,,,,,,,,,,,,,,,,,,,,,,,,,,,,,,,,,,,,,,,,,,,,,,,,,,,,,82645,2022-11-17_14h04.31.668,vts_reward_expectancy_bt_OFFLINE,2022.2.4,59.952219880520786,
0,0,1,0,0,1,0,0,hexagon,circle,0,0,0,0,0,11,11,7,,,,,,,,,,,,,,,,,,,,,,,,,,,,,,,,,,,,,,,,106.94673027799581,106.94673027799581,106.94673027799581,106.94673027799581,106.94673027799581,106.94673027799581,106.94673027799581,106.94673027799581,106.94673027799581,106.94673027799581,l,0.6803758949972689,1,48,0,107.6473335660121,109.14920929100481,,,,,,,,,,,,,,,,,,,,,,,,,,,,,,,,,,,,,,,,,,,,,,,,,,,,,,,,,,,,,,,,,,,,,,,82645,2022-11-17_14h04.31.668,vts_reward_expectancy_bt_OFFLINE,2022.2.4,59.952219880520786,
1,0,0,0,0,1,0,0,triangle,circle,0,0,0,0,1,0,12,0,,,,,,,,,,,,,,,,,,,,,,,,,,,,,,,,,,,,,,,,109.64959223699407,109.64959223699407,109.64959223699407,109.64959223699407,109.64959223699407,109.64959223699407,109.64959223699407,109.64959223699407,109.64959223699407,109.64959223699407,l,0.7453489520121366,1,49,0,110.41717637499096,111.91862719200435,,,,,,,,,,,,,,,,,,,,,,,,,,,,,,,,,,,,,,,,,,,,,,,,,,,,,,,,,,,,,,,,,,,,,,,82645,2022-11-17_14h04.31.668,vts_reward_expectancy_bt_OFFLINE,2022.2.4,59.952219880520786,
0,1,0,0,0,0,1,0,circle,hexagon,0,0,0,0,1,1,13,4,,,,,,,,,,,,,,,,,,,,,,,,,,,,,,,,,,,,,,,,112.41923163901083,112.41923163901083,112.41923163901083,112.41923163901083,112.41923163901083,112.41923163901083,112.41923163901083,112.41923163901083,112.41923163901083,112.41923163901083,l,0.5850707350182347,10,59,0,113.03676673400332,114.53821565801627,,,,,,,,,,,,,,,,,,,,,,,,,,,,,,,,,,,,,,,,,,,,,,,,,,,,,,,,,,,,,,,,,,,,,,,82645,2022-11-17_14h04.31.668,vts_reward_expectancy_bt_OFFLINE,2022.2.4,59.952219880520786,
0,0,0,1,0,1,0,0,star ,circle,0,0,0,0,1,2,14,10,,,,,,,,,,,,,,,,,,,,,,,,,,,,,,,,,,,,,,,,115.03878133400576,115.03878133400576,115.03878133400576,115.03878133400576,115.03878133400576,115.03878133400576,115.03878133400576,115.03878133400576,115.03878133400576,115.03878133400576,l,0.6429576850205194,10,69,0,115.70629385800567,117.20813437900506,,,,,,,,,,,,,,,,,,,,,,,,,,,,,,,,,,,,,,,,,,,,,,,,,,,,,,,,,,,,,,,,,,,,,,,82645,2022-11-17_14h04.31.668,vts_reward_expectancy_bt_OFFLINE,2022.2.4,59.952219880520786,
0,0,0,1,0,0,1,0,star,hexagon,0,0,0,0,1,3,15,11,,,,,,,,,,,,,,,,,,,,,,,,,,,,,,,,,,,,,,,,117.70866091299104,117.70866091299104,117.70866091299104,117.70866091299104,117.70866091299104,117.70866091299104,117.70866091299104,117.70866091299104,117.70866091299104,117.70866091299104,l,0.5851729109999724,10,79,0,118.32600114299566,119.82791064601042,,,,,,,,,,,,,,,,,,,,,,,,,,,,,,,,,,,,,,,,,,,,,,,,,,,,,,,,,,,,,,,,,,,,,,,82645,2022-11-17_14h04.31.668,vts_reward_expectancy_bt_OFFLINE,2022.2.4,59.952219880520786,
0,0,0,1,1,0,0,0,star,triangle,0,0,0,0,1,4,16,9,,,,,,,,,,,,,,,,,,,,,,,,,,,,,,,,,,,,,,,,120.32836890898761,120.32836890898761,120.32836890898761,120.32836890898761,120.32836890898761,120.32836890898761,120.32836890898761,120.32836890898761,120.32836890898761,120.32836890898761,l,0.618158591008978,10,89,0,120.97894235700369,122.48051017601392,,,,,,,,,,,,,,,,,,,,,,,,,,,,,,,,,,,,,,,,,,,,,,,,,,,,,,,,,,,,,,,,,,,,,,,82645,2022-11-17_14h04.31.668,vts_reward_expectancy_bt_OFFLINE,2022.2.4,59.952219880520786,
0,0,1,0,0,0,0,1,hexagon,star,0,0,0,0,1,5,17,8,,,,,,,,,,,,,,,,,,,,,,,,,,,,,,,,,,,,,,,,122.98129020800116,122.98129020800116,122.98129020800116,122.98129020800116,122.98129020800116,122.98129020800116,122.98129020800116,122.98129020800116,122.98129020800116,122.98129020800116,l,0.5991592950013,1,90,0,123.5984151760058,125.09997770999325,,,,,,,,,,,,,,,,,,,,,,,,,,,,,,,,,,,,,,,,,,,,,,,,,,,,,,,,,,,,,,,,,,,,,,,82645,2022-11-17_14h04.31.668,vts_reward_expectancy_bt_OFFLINE,2022.2.4,59.952219880520786,
0,1,0,0,0,0,0,1,circle,star,0,0,0,0,1,6,18,5,,,,,,,,,,,,,,,,,,,,,,,,,,,,,,,,,,,,,,,,125.60052632601582,125.60052632601582,125.60052632601582,125.60052632601582,125.60052632601582,125.60052632601582,125.60052632601582,125.60052632601582,125.60052632601582,125.60052632601582,a,0.8827348310151137,1,91,0,126.50145758601138,128.00331144800293,,,,,,,,,,,,,,,,,,,,,,,,,,,,,,,,,,,,,,,,,,,,,,,,,,,,,,,,,,,,,,,,,,,,,,,82645,2022-11-17_14h04.31.668,vts_reward_expectancy_bt_OFFLINE,2022.2.4,59.952219880520786,
0,0,1,0,1,0,0,0,hexagon,triangle,0,0,0,0,1,7,19,6,,,,,,,,,,,,,,,,,,,,,,,,,,,,,,,,,,,,,,,,128.50373717400362,128.50373717400362,128.50373717400362,128.50373717400362,128.50373717400362,128.50373717400362,128.50373717400362,128.50373717400362,128.50373717400362,128.50373717400362,l,0.6017581190099008,10,101,0,129.13783767301356,130.6394087570079,,,,,,,,,,,,,,,,,,,,,,,,,,,,,,,,,,,,,,,,,,,,,,,,,,,,,,,,,,,,,,,,,,,,,,,82645,2022-11-17_14h04.31.668,vts_reward_expectancy_bt_OFFLINE,2022.2.4,59.952219880520786,
0,0,1,0,0,1,0,0,hexagon,circle,0,0,0,0,1,8,20,7,,,,,,,,,,,,,,,,,,,,,,,,,,,,,,,,,,,,,,,,131.1402277009911,131.1402277009911,131.1402277009911,131.1402277009911,131.1402277009911,131.1402277009911,131.1402277009911,131.1402277009911,131.1402277009911,131.1402277009911,l,0.4945419939758722,1,102,0,131.65714382298756,133.15916328399908,,,,,,,,,,,,,,,,,,,,,,,,,,,,,,,,,,,,,,,,,,,,,,,,,,,,,,,,,,,,,,,,,,,,,,,82645,2022-11-17_14h04.31.668,vts_reward_expectancy_bt_OFFLINE,2022.2.4,59.952219880520786,
1,0,0,0,0,0,1,0,triangle,hexagon,0,0,0,0,1,9,21,1,,,,,,,,,,,,,,,,,,,,,,,,,,,,,,,,,,,,,,,,133.65940986500937,133.65940986500937,133.65940986500937,133.65940986500937,133.65940986500937,133.65940986500937,133.65940986500937,133.65940986500937,133.65940986500937,133.65940986500937,l,0.5628450650256127,10,112,0,134.24336210801266,135.74502444898826,,,,,,,,,,,,,,,,,,,,,,,,,,,,,,,,,,,,,,,,,,,,,,,,,,,,,,,,,,,,,,,,,,,,,,,82645,2022-11-17_14h04.31.668,vts_reward_expectancy_bt_OFFLINE,2022.2.4,59.952219880520786,
1,0,0,0,0,0,0,1,triangle,star,0,0,0,0,1,10,22,2,,,,,,,,,,,,,,,,,,,,,,,,,,,,,,,,,,,,,,,,136.24564613300026,136.24564613300026,136.24564613300026,136.24564613300026,136.24564613300026,136.24564613300026,136.24564613300026,136.24564613300026,136.24564613300026,136.24564613300026,a,0.6431506719964091,10,122,0,136.91288582599373,138.41469102501287,,,,,,,,,,,,,,,,,,,,,,,,,,,,,,,,,,,,,,,,,,,,,,,,,,,,,,,,,,,,,,,,,,,,,,,82645,2022-11-17_14h04.31.668,vts_reward_expectancy_bt_OFFLINE,2022.2.4,59.952219880520786,
0,1,0,0,1,0,0,0,circle,triangle,0,0,0,0,1,11,23,3,,,,,,,,,,,,,,,,,,,,,,,,,,,,,,,,,,,,,,,,138.91516249999404,138.91516249999404,138.91516249999404,138.91516249999404,138.91516249999404,138.91516249999404,138.91516249999404,138.91516249999404,138.91516249999404,138.91516249999404,l,1.38309924598434,10,132,0,140.3170050040062,141.81848010700196,141.81848010700196,,,,,,,,,,,,,,,,,,,,,,,,,,,,,,,,,,,,,,,,,,,,,,,,,,,,,,,,,,,,,,,,,,,,,,82645,2022-11-17_14h04.31.668,vts_reward_expectancy_bt_OFFLINE,2022.2.4,59.952219880520786,
1,0,0,0,0,1,0,0,triangle,circle,0,0,0,0,2,0,24,0,,,,,,,,,,,,,,,,,,,,,,,,,,,,,,,,,,,,,,,,142.3190662919951,142.3190662919951,142.3190662919951,142.3190662919951,142.3190662919951,142.3190662919951,142.3190662919951,142.3190662919951,142.3190662919951,142.3190662919951,a,0.8356984169804491,10,142,0,143.18654484700528,144.68827263600542,,,,,,,,,,,,,,,,,,,,,,,,,,,,,,,,,,,,,,,,,,,,,,,,,,,,,,,,,,,,,,,,,,,,,,,82645,2022-11-17_14h04.31.668,vts_reward_expectancy_bt_OFFLINE,2022.2.4,59.952219880520786,
0,0,1,0,0,1,0,0,hexagon,circle,0,0,0,0,2,1,25,7,,,,,,,,,,,,,,,,,,,,,,,,,,,,,,,,,,,,,,,,145.18895244499436,145.18895244499436,145.18895244499436,145.18895244499436,145.18895244499436,145.18895244499436,145.18895244499436,145.18895244499436,145.18895244499436,145.18895244499436,l,0.9137136210047174,1,143,0,146.12318286500522,147.62480646400945,,,,,,,,,,,,,,,,,,,,,,,,,,,,,,,,,,,,,,,,,,,,,,,,,,,,,,,,,,,,,,,,,,,,,,,82645,2022-11-17_14h04.31.668,vts_reward_expectancy_bt_OFFLINE,2022.2.4,59.952219880520786,
0,0,0,1,1,0,0,0,star,triangle,0,0,0,0,2,2,26,9,,,,,,,,,,,,,,,,,,,,,,,,,,,,,,,,,,,,,,,,148.1252653390111,148.1252653390111,148.1252653390111,148.1252653390111,148.1252653390111,148.1252653390111,148.1252653390111,148.1252653390111,148.1252653390111,148.1252653390111,l,0.6562793559860438,10,153,0,148.809666887013,150.31105121198925,,,,,,,,,,,,,,,,,,,,,,,,,,,,,,,,,,,,,,,,,,,,,,,,,,,,,,,,,,,,,,,,,,,,,,,82645,2022-11-17_14h04.31.668,vts_reward_expectancy_bt_OFFLINE,2022.2.4,59.952219880520786,
0,0,0,1,0,1,0,0,star ,circle,0,0,0,0,2,3,27,10,,,,,,,,,,,,,,,,,,,,,,,,,,,,,,,,,,,,,,,,150.8117308699875,150.8117308699875,150.8117308699875,150.8117308699875,150.8117308699875,150.8117308699875,150.8117308699875,150.8117308699875,150.8117308699875,150.8117308699875,a,1.1985399019904435,10,163,0,152.02960343600716,153.53113729300094,,,,,,,,,,,,,,,,,,,,,,,,,,,,,,,,,,,,,,,,,,,,,,,,,,,,,,,,,,,,,,,,,,,,,,,82645,2022-11-17_14h04.31.668,vts_reward_expectancy_bt_OFFLINE,2022.2.4,59.952219880520786,
0,0,1,0,1,0,0,0,hexagon,triangle,0,0,0,0,2,4,28,6,,,,,,,,,,,,,,,,,,,,,,,,,,,,,,,,,,,,,,,,154.03173330498976,154.03173330498976,154.03173330498976,154.03173330498976,154.03173330498976,154.03173330498976,154.03173330498976,154.03173330498976,154.03173330498976,154.03173330498976,l,0.7795330590161029,10,173,0,154.83266238999204,156.3344599760021,,,,,,,,,,,,,,,,,,,,,,,,,,,,,,,,,,,,,,,,,,,,,,,,,,,,,,,,,,,,,,,,,,,,,,,82645,2022-11-17_14h04.31.668,vts_reward_expectancy_bt_OFFLINE,2022.2.4,59.952219880520786,
0,1,0,0,0,0,0,1,circle,star,0,0,0,0,2,5,29,5,,,,,,,,,,,,,,,,,,,,,,,,,,,,,,,,,,,,,,,,156.83509937601048,156.83509937601048,156.83509937601048,156.83509937601048,156.83509937601048,156.83509937601048,156.83509937601048,156.83509937601048,156.83509937601048,156.83509937601048,l,1.271311758988304,1,174,0,158.13640884499182,159.63807189199724,,,,,,,,,,,,,,,,,,,,,,,,,,,,,,,,,,,,,,,,,,,,,,,,,,,,,,,,,,,,,,,,,,,,,,,82645,2022-11-17_14h04.31.668,vts_reward_expectancy_bt_OFFLINE,2022.2.4,59.952219880520786,
1,0,0,0,0,0,1,0,triangle,hexagon,0,0,0,0,2,6,30,1,,,,,,,,,,,,,,,,,,,,,,,,,,,,,,,,,,,,,,,,160.13905102401623,160.13905102401623,160.13905102401623,160.13905102401623,160.13905102401623,160.13905102401623,160.13905102401623,160.13905102401623,160.13905102401623,160.13905102401623,a,1.2868515620066319,10,184,0,161.45684708599583,162.95839864600566,,,,,,,,,,,,,,,,,,,,,,,,,,,,,,,,,,,,,,,,,,,,,,,,,,,,,,,,,,,,,,,,,,,,,,,82645,2022-11-17_14h04.31.668,vts_reward_expectancy_bt_OFFLINE,2022.2.4,59.952219880520786,
1,0,0,0,0,0,0,1,triangle,star,0,0,0,0,2,7,31,2,,,,,,,,,,,,,,,,,,,,,,,,,,,,,,,,,,,,,,,,163.45939261899912,163.45939261899912,163.45939261899912,163.45939261899912,163.45939261899912,163.45939261899912,163.45939261899912,163.45939261899912,163.45939261899912,163.45939261899912,a,0.7350331490160897,10,194,0,164.22645048200502,165.7285122399917,,,,,,,,,,,,,,,,,,,,,,,,,,,,,,,,,,,,,,,,,,,,,,,,,,,,,,,,,,,,,,,,,,,,,,,82645,2022-11-17_14h04.31.668,vts_reward_expectancy_bt_OFFLINE,2022.2.4,59.952219880520786,
0,0,0,1,0,0,1,0,star,hexagon,0,0,0,0,2,8,32,11,,,,,,,,,,,,,,,,,,,,,,,,,,,,,,,,,,,,,,,,166.2288180720061,166.2288180720061,166.2288180720061,166.2288180720061,166.2288180720061,166.2288180720061,166.2288180720061,166.2288180720061,166.2288180720061,166.2288180720061,l,1.2379367419925984,10,204,0,167.49676818499574,168.99836350799887,,,,,,,,,,,,,,,,,,,,,,,,,,,,,,,,,,,,,,,,,,,,,,,,,,,,,,,,,,,,,,,,,,,,,,,82645,2022-11-17_14h04.31.668,vts_reward_expectancy_bt_OFFLINE,2022.2.4,59.952219880520786,
0,0,1,0,0,0,0,1,hexagon,star,0,0,0,0,2,9,33,8,,,,,,,,,,,,,,,,,,,,,,,,,,,,,,,,,,,,,,,,169.49907388401334,169.49907388401334,169.49907388401334,169.49907388401334,169.49907388401334,169.49907388401334,169.49907388401334,169.49907388401334,169.49907388401334,169.49907388401334,l,1.0740226659982,10,214,0,170.60017765499651,172.1021485000092,,,,,,,,,,,,,,,,,,,,,,,,,,,,,,,,,,,,,,,,,,,,,,,,,,,,,,,,,,,,,,,,,,,,,,,82645,2022-11-17_14h04.31.668,vts_reward_expectancy_bt_OFFLINE,2022.2.4,59.952219880520786,
0,1,0,0,1,0,0,0,circle,triangle,0,0,0,0,2,10,34,3,,,,,,,,,,,,,,,,,,,,,,,,,,,,,,,,,,,,,,,,172.60236772499047,172.60236772499047,172.60236772499047,172.60236772499047,172.60236772499047,172.60236772499047,172.60236772499047,172.60236772499047,172.60236772499047,172.60236772499047,l,0.8623173510131892,10,224,0,173.48671480698977,174.98855763100437,,,,,,,,,,,,,,,,,,,,,,,,,,,,,,,,,,,,,,,,,,,,,,,,,,,,,,,,,,,,,,,,,,,,,,,82645,2022-11-17_14h04.31.668,vts_reward_expectancy_bt_OFFLINE,2022.2.4,59.952219880520786,
0,1,0,0,0,0,1,0,circle,hexagon,0,0,0,0,2,11,35,4,,,,,,,,,,,,,,,,,,,,,,,,,,,,,,,,,,,,,,,,175.48883772001136,175.48883772001136,175.48883772001136,175.48883772001136,175.48883772001136,175.48883772001136,175.48883772001136,175.48883772001136,175.48883772001136,175.48883772001136,a,1.0121873040043283,1,225,0,176.52343219399336,178.02518839100958,,,,,,,,,,,,,,,,,,,,,,,,,,,,,,,,,,,,,,,,,,,,,,,,,,,,,,,,,,,,,,,,,,,,,,,82645,2022-11-17_14h04.31.668,vts_reward_expectancy_bt_OFFLINE,2022.2.4,59.952219880520786,
0,0,0,1,1,0,0,0,star,triangle,0,0,0,0,3,0,36,9,,,,,,,,,,,,,,,,,,,,,,,,,,,,,,,,,,,,,,,,178.52561492301174,178.52561492301174,178.52561492301174,178.52561492301174,178.52561492301174,178.52561492301174,178.52561492301174,178.52561492301174,178.52561492301174,178.52561492301174,l,1.0135025900090113,10,235,0,179.55998246799572,181.06188626898802,,,,,,,,,,,,,,,,,,,,,,,,,,,,,,,,,,,,,,,,,,,,,,,,,,,,,,,,,,,,,,,,,,,,,,,82645,2022-11-17_14h04.31.668,vts_reward_expectancy_bt_OFFLINE,2022.2.4,59.952219880520786,
0,0,1,0,0,1,0,0,hexagon,circle,0,0,0,0,3,1,37,7,,,,,,,,,,,,,,,,,,,,,,,,,,,,,,,,,,,,,,,,181.56244410399813,181.56244410399813,181.56244410399813,181.56244410399813,181.56244410399813,181.56244410399813,181.56244410399813,181.56244410399813,181.56244410399813,181.56244410399813,l,1.1848665800062008,10,245,0,182.76352152301115,184.26524609001353,,,,,,,,,,,,,,,,,,,,,,,,,,,,,,,,,,,,,,,,,,,,,,,,,,,,,,,,,,,,,,,,,,,,,,,82645,2022-11-17_14h04.31.668,vts_reward_expectancy_bt_OFFLINE,2022.2.4,59.952219880520786,
1,0,0,0,0,0,1,0,triangle,hexagon,0,0,0,0,3,2,38,1,,,,,,,,,,,,,,,,,,,,,,,,,,,,,,,,,,,,,,,,184.76583034099895,184.76583034099895,184.76583034099895,184.76583034099895,184.76583034099895,184.76583034099895,184.76583034099895,184.76583034099895,184.76583034099895,184.76583034099895,a,0.8821989730058704,10,255,0,185.6667291840131,187.16837717499584,,,,,,,,,,,,,,,,,,,,,,,,,,,,,,,,,,,,,,,,,,,,,,,,,,,,,,,,,,,,,,,,,,,,,,,82645,2022-11-17_14h04.31.668,vts_reward_expectancy_bt_OFFLINE,2022.2.4,59.952219880520786,
0,0,0,1,0,0,1,0,star,hexagon,0,0,0,0,3,3,39,11,,,,,,,,,,,,,,,,,,,,,,,,,,,,,,,,,,,,,,,,187.66925940601504,187.66925940601504,187.66925940601504,187.66925940601504,187.66925940601504,187.66925940601504,187.66925940601504,187.66925940601504,187.66925940601504,187.66925940601504,a,1.230155615019612,1,256,0,188.92045165700256,190.42225791901,,,,,,,,,,,,,,,,,,,,,,,,,,,,,,,,,,,,,,,,,,,,,,,,,,,,,,,,,,,,,,,,,,,,,,,82645,2022-11-17_14h04.31.668,vts_reward_expectancy_bt_OFFLINE,2022.2.4,59.952219880520786,
0,0,1,0,0,0,0,1,hexagon,star,0,0,0,0,3,4,40,8,,,,,,,,,,,,,,,,,,,,,,,,,,,,,,,,,,,,,,,,190.92258087798837,190.92258087798837,190.92258087798837,190.92258087798837,190.92258087798837,190.92258087798837,190.92258087798837,190.92258087798837,190.92258087798837,190.92258087798837,l,1.025333886995213,1,257,0,191.9740154700121,193.47541551099857,,,,,,,,,,,,,,,,,,,,,,,,,,,,,,,,,,,,,,,,,,,,,,,,,,,,,,,,,,,,,,,,,,,,,,,82645,2022-11-17_14h04.31.668,vts_reward_expectancy_bt_OFFLINE,2022.2.4,59.952219880520786,
0,1,0,0,0,0,1,0,circle,hexagon,0,0,0,0,3,5,41,4,,,,,,,,,,,,,,,,,,,,,,,,,,,,,,,,,,,,,,,,193.97590821099584,193.97590821099584,193.97590821099584,193.97590821099584,193.97590821099584,193.97590821099584,193.97590821099584,193.97590821099584,193.97590821099584,193.97590821099584,l,1.6400687269924674,10,267,0,195.64446927901008,197.14608645401313,,,,,,,,,,,,,,,,,,,,,,,,,,,,,,,,,,,,,,,,,,,,,,,,,,,,,,,,,,,,,,,,,,,,,,,82645,2022-11-17_14h04.31.668,vts_reward_expectancy_bt_OFFLINE,2022.2.4,59.952219880520786,
1,0,0,0,0,0,0,1,triangle,star,0,0,0,0,3,6,42,2,,,,,,,,,,,,,,,,,,,,,,,,,,,,,,,,,,,,,,,,197.64662329800194,197.64662329800194,197.64662329800194,197.64662329800194,197.64662329800194,197.64662329800194,197.64662329800194,197.64662329800194,197.64662329800194,197.64662329800194,a,0.9612908299895935,10,277,0,198.63121057199896,200.13279576599598,,,,,,,,,,,,,,,,,,,,,,,,,,,,,,,,,,,,,,,,,,,,,,,,,,,,,,,,,,,,,,,,,,,,,,,82645,2022-11-17_14h04.31.668,vts_reward_expectancy_bt_OFFLINE,2022.2.4,59.952219880520786,
0,1,0,0,0,0,0,1,circle,star,0,0,0,0,3,7,43,5,,,,,,,,,,,,,,,,,,,,,,,,,,,,,,,,,,,,,,,,200.63359138200758,200.63359138200758,200.63359138200758,200.63359138200758,200.63359138200758,200.63359138200758,200.63359138200758,200.63359138200758,200.63359138200758,200.63359138200758,l,1.1019932290073484,1,278,0,201.76806481400854,203.26954327701242,,,,,,,,,,,,,,,,,,,,,,,,,,,,,,,,,,,,,,,,,,,,,,,,,,,,,,,,,,,,,,,,,,,,,,,82645,2022-11-17_14h04.31.668,vts_reward_expectancy_bt_OFFLINE,2022.2.4,59.952219880520786,
0,0,1,0,1,0,0,0,hexagon,triangle,0,0,0,0,3,8,44,6,,,,,,,,,,,,,,,,,,,,,,,,,,,,,,,,,,,,,,,,203.77015348701389,203.77015348701389,203.77015348701389,203.77015348701389,203.77015348701389,203.77015348701389,203.77015348701389,203.77015348701389,203.77015348701389,203.77015348701389,l,0.7117573189898394,10,288,0,204.5042867739976,206.00608756500878,,,,,,,,,,,,,,,,,,,,,,,,,,,,,,,,,,,,,,,,,,,,,,,,,,,,,,,,,,,,,,,,,,,,,,,82645,2022-11-17_14h04.31.668,vts_reward_expectancy_bt_OFFLINE,2022.2.4,59.952219880520786,
0,1,0,0,1,0,0,0,circle,triangle,0,0,0,0,3,9,45,3,,,,,,,,,,,,,,,,,,,,,,,,,,,,,,,,,,,,,,,,206.50645417699707,206.50645417699707,206.50645417699707,206.50645417699707,206.50645417699707,206.50645417699707,206.50645417699707,206.50645417699707,206.50645417699707,206.50645417699707,l,0.7317282830190379,10,298,0,207.25722651800606,208.75944612099556,,,,,,,,,,,,,,,,,,,,,,,,,,,,,,,,,,,,,,,,,,,,,,,,,,,,,,,,,,,,,,,,,,,,,,,82645,2022-11-17_14h04.31.668,vts_reward_expectancy_bt_OFFLINE,2022.2.4,59.952219880520786,
0,0,0,1,0,1,0,0,star ,circle,0,0,0,0,3,10,46,10,,,,,,,,,,,,,,,,,,,,,,,,,,,,,,,,,,,,,,,,209.25963106600102,209.25963106600102,209.25963106600102,209.25963106600102,209.25963106600102,209.25963106600102,209.25963106600102,209.25963106600102,209.25963106600102,209.25963106600102,a,1.2523742690100335,10,308,0,210.54422706901096,212.0460335740063,,,,,,,,,,,,,,,,,,,,,,,,,,,,,,,,,,,,,,,,,,,,,,,,,,,,,,,,,,,,,,,,,,,,,,,82645,2022-11-17_14h04.31.668,vts_reward_expectancy_bt_OFFLINE,2022.2.4,59.952219880520786,
1,0,0,0,0,1,0,0,triangle,circle,0,0,0,0,3,11,47,0,,,,,,,,,,,,,,,,,,,,,,,,,,,,,,,,,,,,,,,,212.54651705099968,212.54651705099968,212.54651705099968,212.54651705099968,212.54651705099968,212.54651705099968,212.54651705099968,212.54651705099968,212.54651705099968,212.54651705099968,a,0.8235849599877838,10,318,0,213.3976254799927,214.89903819200117,,,,,,,,,,,,,,,,,,,,,,,,,,,,,,,,,,,,,,,,,,,,,,,,,,,,,,,,,,,,,,,,,,,,,,,82645,2022-11-17_14h04.31.668,vts_reward_expectancy_bt_OFFLINE,2022.2.4,59.952219880520786,
0,1,0,0,0,0,0,1,circle,star,1,0,1,0,0,0,0,5,,,,,,,,,,,,,,,,,,,,,,,,,,,,,,,,,,,,,,,,221.72910101601155,221.72910101601155,221.72910101601155,221.72910101601155,221.72910101601155,221.72910101601155,221.72910101601155,221.72910101601155,221.72910101601155,221.72910101601155,l,1.7766564009943977,10,328,1,223.52520067399018,225.02703510501306,,,,,,,,,,,,,,,,,,,,,,,,,,,,,,,,,,,,,,,,,,,,,,,,,,,,,,,,,,,,,,,,,,,,,,,82645,2022-11-17_14h04.31.668,vts_reward_expectancy_bt_OFFLINE,2022.2.4,59.952219880520786,
1,0,0,0,0,1,0,0,triangle,circle,1,0,1,0,0,1,1,0,,,,,,,,,,,,,,,,,,,,,,,,,,,,,,,,,,,,,,,,225.5274047970015,225.5274047970015,225.5274047970015,225.5274047970015,225.5274047970015,225.5274047970015,225.5274047970015,225.5274047970015,225.5274047970015,225.5274047970015,a,0.6349132090108469,10,338,1,226.1782463270065,227.67982143201516,227.67982143201516,,,,,,,,,,,,,,,,,,,,,,,,,,,,,,,,,,,,,,,,,,,,,,,,,,,,,,,,,,,,,,,,,,,,,,82645,2022-11-17_14h04.31.668,vts_reward_expectancy_bt_OFFLINE,2022.2.4,59.952219880520786,
0,0,0,1,0,0,1,0,star,hexagon,1,0,1,0,0,2,2,11,,,,,,,,,,,,,,,,,,,,,,,,,,,,,,,,,,,,,,,,228.18037731101504,228.18037731101504,228.18037731101504,228.18037731101504,228.18037731101504,228.18037731101504,228.18037731101504,228.18037731101504,228.18037731101504,228.18037731101504,l,0.8601427660032641,1,339,1,229.06476126500638,230.56626251200214,,,,,,,,,,,,,,,,,,,,,,,,,,,,,,,,,,,,,,,,,,,,,,,,,,,,,,,,,,,,,,,,,,,,,,,82645,2022-11-17_14h04.31.668,vts_reward_expectancy_bt_OFFLINE,2022.2.4,59.952219880520786,
1,0,0,0,0,0,0,1,triangle,star,1,0,1,0,0,3,3,2,,,,,,,,,,,,,,,,,,,,,,,,,,,,,,,,,,,,,,,,231.0668420350121,231.0668420350121,231.0668420350121,231.0668420350121,231.0668420350121,231.0668420350121,231.0668420350121,231.0668420350121,231.0668420350121,231.0668420350121,a,0.6403436319960747,1,340,1,231.73429191601463,233.23598814199795,,,,,,,,,,,,,,,,,,,,,,,,,,,,,,,,,,,,,,,,,,,,,,,,,,,,,,,,,,,,,,,,,,,,,,,82645,2022-11-17_14h04.31.668,vts_reward_expectancy_bt_OFFLINE,2022.2.4,59.952219880520786,
0,0,1,0,0,0,0,1,hexagon,star,1,0,1,0,0,4,4,8,,,,,,,,,,,,,,,,,,,,,,,,,,,,,,,,,,,,,,,,233.73652222100645,233.73652222100645,233.73652222100645,233.73652222100645,233.73652222100645,233.73652222100645,233.73652222100645,233.73652222100645,233.73652222100645,233.73652222100645,a,0.770828826003708,1,341,1,234.53758748900145,236.03906633899896,,,,,,,,,,,,,,,,,,,,,,,,,,,,,,,,,,,,,,,,,,,,,,,,,,,,,,,,,,,,,,,,,,,,,,,82645,2022-11-17_14h04.31.668,vts_reward_expectancy_bt_OFFLINE,2022.2.4,59.952219880520786,
0,1,0,0,1,0,0,0,circle,triangle,1,0,1,0,0,5,5,3,,,,,,,,,,,,,,,,,,,,,,,,,,,,,,,,,,,,,,,,236.5395871869987,236.5395871869987,236.5395871869987,236.5395871869987,236.5395871869987,236.5395871869987,236.5395871869987,236.5395871869987,236.5395871869987,236.5395871869987,l,0.9950611289823428,1,342,1,237.55747459401027,239.0591562310001,,,,,,,,,,,,,,,,,,,,,,,,,,,,,,,,,,,,,,,,,,,,,,,,,,,,,,,,,,,,,,,,,,,,,,,82645,2022-11-17_14h04.31.668,vts_reward_expectancy_bt_OFFLINE,2022.2.4,59.952219880520786,
0,0,1,0,1,0,0,0,hexagon,triangle,1,0,1,0,0,6,6,6,,,,,,,,,,,,,,,,,,,,,,,,,,,,,,,,,,,,,,,,239.55962579799234,239.55962579799234,239.55962579799234,239.55962579799234,239.55962579799234,239.55962579799234,239.55962579799234,239.55962579799234,239.55962579799234,239.55962579799234,l,0.4849252479907591,10,352,1,240.07694032401196,241.57835096301278,,,,,,,,,,,,,,,,,,,,,,,,,,,,,,,,,,,,,,,,,,,,,,,,,,,,,,,,,,,,,,,,,,,,,,,82645,2022-11-17_14h04.31.668,vts_reward_expectancy_bt_OFFLINE,2022.2.4,59.952219880520786,
1,0,0,0,0,0,1,0,triangle,hexagon,1,0,1,0,0,7,7,1,,,,,,,,,,,,,,,,,,,,,,,,,,,,,,,,,,,,,,,,242.0791653030028,242.0791653030028,242.0791653030028,242.0791653030028,242.0791653030028,242.0791653030028,242.0791653030028,242.0791653030028,242.0791653030028,242.0791653030028,a,0.6760945100104436,1,353,1,242.77996764099225,244.2814570569899,,,,,,,,,,,,,,,,,,,,,,,,,,,,,,,,,,,,,,,,,,,,,,,,,,,,,,,,,,,,,,,,,,,,,,,82645,2022-11-17_14h04.31.668,vts_reward_expectancy_bt_OFFLINE,2022.2.4,59.952219880520786,
0,0,0,1,1,0,0,0,star,triangle,1,0,1,0,0,8,8,9,,,,,,,,,,,,,,,,,,,,,,,,,,,,,,,,,,,,,,,,244.78197500901297,244.78197500901297,244.78197500901297,244.78197500901297,244.78197500901297,244.78197500901297,244.78197500901297,244.78197500901297,244.78197500901297,244.78197500901297,a,0.6741234909859486,1,354,1,245.48281511600362,246.98450007499196,,,,,,,,,,,,,,,,,,,,,,,,,,,,,,,,,,,,,,,,,,,,,,,,,,,,,,,,,,,,,,,,,,,,,,,82645,2022-11-17_14h04.31.668,vts_reward_expectancy_bt_OFFLINE,2022.2.4,59.952219880520786,
0,0,0,1,0,1,0,0,star ,circle,1,0,1,0,0,9,9,10,,,,,,,,,,,,,,,,,,,,,,,,,,,,,,,,,,,,,,,,247.48526670099818,247.48526670099818,247.48526670099818,247.48526670099818,247.48526670099818,247.48526670099818,247.48526670099818,247.48526670099818,247.48526670099818,247.48526670099818,l,0.8735357539844699,1,355,1,248.3859675450076,249.8876091830025,,,,,,,,,,,,,,,,,,,,,,,,,,,,,,,,,,,,,,,,,,,,,,,,,,,,,,,,,,,,,,,,,,,,,,,82645,2022-11-17_14h04.31.668,vts_reward_expectancy_bt_OFFLINE,2022.2.4,59.952219880520786,
0,1,0,0,0,0,1,0,circle,hexagon,1,0,1,0,0,10,10,4,,,,,,,,,,,,,,,,,,,,,,,,,,,,,,,,,,,,,,,,250.3881898529944,250.3881898529944,250.3881898529944,250.3881898529944,250.3881898529944,250.3881898529944,250.3881898529944,250.3881898529944,250.3881898529944,250.3881898529944,l,0.6025866999989375,10,365,1,251.02216616799706,252.52372367799398,,,,,,,,,,,,,,,,,,,,,,,,,,,,,,,,,,,,,,,,,,,,,,,,,,,,,,,,,,,,,,,,,,,,,,,82645,2022-11-17_14h04.31.668,vts_reward_expectancy_bt_OFFLINE,2022.2.4,59.952219880520786,
0,0,1,0,0,1,0,0,hexagon,circle,1,0,1,0,0,11,11,7,,,,,,,,,,,,,,,,,,,,,,,,,,,,,,,,,,,,,,,,253.02454029698856,253.02454029698856,253.02454029698856,253.02454029698856,253.02454029698856,253.02454029698856,253.02454029698856,253.02454029698856,253.02454029698856,253.02454029698856,a,2.5439212420023978,10,375,1,255.59391507599503,257.0956982159987,,,,,,,,,,,,,,,,,,,,,,,,,,,,,,,,,,,,,,,,,,,,,,,,,,,,,,,,,,,,,,,,,,,,,,,82645,2022-11-17_14h04.31.668,vts_reward_expectancy_bt_OFFLINE,2022.2.4,59.952219880520786,
0,0,1,0,0,0,0,1,hexagon,star,1,0,1,0,1,0,12,8,,,,,,,,,,,,,,,,,,,,,,,,,,,,,,,,,,,,,,,,257.59608363799634,257.59608363799634,257.59608363799634,257.59608363799634,257.59608363799634,257.59608363799634,257.59608363799634,257.59608363799634,257.59608363799634,257.59608363799634,a,0.987695732008433,10,385,1,258.6141498500074,260.115721189999,,,,,,,,,,,,,,,,,,,,,,,,,,,,,,,,,,,,,,,,,,,,,,,,,,,,,,,,,,,,,,,,,,,,,,,82645,2022-11-17_14h04.31.668,vts_reward_expectancy_bt_OFFLINE,2022.2.4,59.952219880520786,
0,0,0,1,1,0,0,0,star,triangle,1,0,1,0,1,1,13,9,,,,,,,,,,,,,,,,,,,,,,,,,,,,,,,,,,,,,,,,260.61640069799614,260.61640069799614,260.61640069799614,260.61640069799614,260.61640069799614,260.61640069799614,260.61640069799614,260.61640069799614,260.61640069799614,260.61640069799614,a,1.094693831022596,10,395,1,261.73422754599596,263.23580930399476,,,,,,,,,,,,,,,,,,,,,,,,,,,,,,,,,,,,,,,,,,,,,,,,,,,,,,,,,,,,,,,,,,,,,,,82645,2022-11-17_14h04.31.668,vts_reward_expectancy_bt_OFFLINE,2022.2.4,59.952219880520786,
0,0,1,0,1,0,0,0,hexagon,triangle,1,0,1,0,1,2,14,6,,,,,,,,,,,,,,,,,,,,,,,,,,,,,,,,,,,,,,,,263.7363590509922,263.7363590509922,263.7363590509922,263.7363590509922,263.7363590509922,263.7363590509922,263.7363590509922,263.7363590509922,263.7363590509922,263.7363590509922,a,0.8216665360087063,10,405,1,264.58721276099095,266.08891255100025,,,,,,,,,,,,,,,,,,,,,,,,,,,,,,,,,,,,,,,,,,,,,,,,,,,,,,,,,,,,,,,,,,,,,,,82645,2022-11-17_14h04.31.668,vts_reward_expectancy_bt_OFFLINE,2022.2.4,59.952219880520786,
1,0,0,0,0,0,1,0,triangle,hexagon,1,0,1,0,1,3,15,1,,,,,,,,,,,,,,,,,,,,,,,,,,,,,,,,,,,,,,,,266.5892818059947,266.5892818059947,266.5892818059947,266.5892818059947,266.5892818059947,266.5892818059947,266.5892818059947,266.5892818059947,266.5892818059947,266.5892818059947,l,1.4114363850094378,10,415,1,268.0245831529901,269.5259919349919,,,,,,,,,,,,,,,,,,,,,,,,,,,,,,,,,,,,,,,,,,,,,,,,,,,,,,,,,,,,,,,,,,,,,,,82645,2022-11-17_14h04.31.668,vts_reward_expectancy_bt_OFFLINE,2022.2.4,59.952219880520786,
0,0,0,1,0,0,1,0,star,hexagon,1,0,1,0,1,4,16,11,,,,,,,,,,,,,,,,,,,,,,,,,,,,,,,,,,,,,,,,270.0268971630139,270.0268971630139,270.0268971630139,270.0268971630139,270.0268971630139,270.0268971630139,270.0268971630139,270.0268971630139,270.0268971630139,270.0268971630139,l,0.7966029070084915,10,425,1,270.84398098199745,272.3460981459939,,,,,,,,,,,,,,,,,,,,,,,,,,,,,,,,,,,,,,,,,,,,,,,,,,,,,,,,,,,,,,,,,,,,,,,82645,2022-11-17_14h04.31.668,vts_reward_expectancy_bt_OFFLINE,2022.2.4,59.952219880520786,
0,0,1,0,0,1,0,0,hexagon,circle,1,0,1,0,1,5,17,7,,,,,,,,,,,,,,,,,,,,,,,,,,,,,,,,,,,,,,,,272.8465803840081,272.8465803840081,272.8465803840081,272.8465803840081,272.8465803840081,272.8465803840081,272.8465803840081,272.8465803840081,272.8465803840081,272.8465803840081,l,0.8684830800048076,1,426,1,273.7473445580108,275.2490994480031,,,,,,,,,,,,,,,,,,,,,,,,,,,,,,,,,,,,,,,,,,,,,,,,,,,,,,,,,,,,,,,,,,,,,,,82645,2022-11-17_14h04.31.668,vts_reward_expectancy_bt_OFFLINE,2022.2.4,59.952219880520786,
0,1,0,0,1,0,0,0,circle,triangle,1,0,1,0,1,6,18,3,,,,,,,,,,,,,,,,,,,,,,,,,,,,,,,,,,,,,,,,275.74949276601546,275.74949276601546,275.74949276601546,275.74949276601546,275.74949276601546,275.74949276601546,275.74949276601546,275.74949276601546,275.74949276601546,275.74949276601546,a,1.7363651519990526,1,427,1,277.51794550800696,279.01970377299585,,,,,,,,,,,,,,,,,,,,,,,,,,,,,,,,,,,,,,,,,,,,,,,,,,,,,,,,,,,,,,,,,,,,,,,82645,2022-11-17_14h04.31.668,vts_reward_expectancy_bt_OFFLINE,2022.2.4,59.952219880520786,
0,1,0,0,0,0,1,0,circle,hexagon,1,0,1,0,1,7,19,4,,,,,,,,,,,,,,,,,,,,,,,,,,,,,,,,,,,,,,,,279.5203232789936,279.5203232789936,279.5203232789936,279.5203232789936,279.5203232789936,279.5203232789936,279.5203232789936,279.5203232789936,279.5203232789936,279.5203232789936,l,0.8214574260055088,10,437,1,280.3713934409898,281.8728607200028,,,,,,,,,,,,,,,,,,,,,,,,,,,,,,,,,,,,,,,,,,,,,,,,,,,,,,,,,,,,,,,,,,,,,,,82645,2022-11-17_14h04.31.668,vts_reward_expectancy_bt_OFFLINE,2022.2.4,59.952219880520786,
0,1,0,0,0,0,0,1,circle,star,1,0,1,0,1,8,20,5,,,,,,,,,,,,,,,,,,,,,,,,,,,,,,,,,,,,,,,,282.37335454300046,282.37335454300046,282.37335454300046,282.37335454300046,282.37335454300046,282.37335454300046,282.37335454300046,282.37335454300046,282.37335454300046,282.37335454300046,l,0.8482908769801725,1,438,1,283.2409563619876,284.7427256820083,,,,,,,,,,,,,,,,,,,,,,,,,,,,,,,,,,,,,,,,,,,,,,,,,,,,,,,,,,,,,,,,,,,,,,,82645,2022-11-17_14h04.31.668,vts_reward_expectancy_bt_OFFLINE,2022.2.4,59.952219880520786,
0,0,0,1,0,1,0,0,star ,circle,1,0,1,0,1,9,21,10,,,,,,,,,,,,,,,,,,,,,,,,,,,,,,,,,,,,,,,,285.24318283601315,285.24318283601315,285.24318283601315,285.24318283601315,285.24318283601315,285.24318283601315,285.24318283601315,285.24318283601315,285.24318283601315,285.24318283601315,l,1.7811844740062952,1,439,1,287.0451818690053,288.54700233699987,,,,,,,,,,,,,,,,,,,,,,,,,,,,,,,,,,,,,,,,,,,,,,,,,,,,,,,,,,,,,,,,,,,,,,,82645,2022-11-17_14h04.31.668,vts_reward_expectancy_bt_OFFLINE,2022.2.4,59.952219880520786,
1,0,0,0,0,1,0,0,triangle,circle,1,0,1,0,1,10,22,0,,,,,,,,,,,,,,,,,,,,,,,,,,,,,,,,,,,,,,,,289.04618259100243,289.04618259100243,289.04618259100243,289.04618259100243,289.04618259100243,289.04618259100243,289.04618259100243,289.04618259100243,289.04618259100243,289.04618259100243,a,1.1633582880022004,10,449,1,290.23212627499015,291.73375050601317,,,,,,,,,,,,,,,,,,,,,,,,,,,,,,,,,,,,,,,,,,,,,,,,,,,,,,,,,,,,,,,,,,,,,,,82645,2022-11-17_14h04.31.668,vts_reward_expectancy_bt_OFFLINE,2022.2.4,59.952219880520786,
1,0,0,0,0,0,0,1,triangle,star,1,0,1,0,1,11,23,2,,,,,,,,,,,,,,,,,,,,,,,,,,,,,,,,,,,,,,,,292.234573757014,292.234573757014,292.234573757014,292.234573757014,292.234573757014,292.234573757014,292.234573757014,292.234573757014,292.234573757014,292.234573757014,a,0.820451305975439,10,459,1,293.0859031509899,294.5869130170031,,,,,,,,,,,,,,,,,,,,,,,,,,,,,,,,,,,,,,,,,,,,,,,,,,,,,,,,,,,,,,,,,,,,,,,82645,2022-11-17_14h04.31.668,vts_reward_expectancy_bt_OFFLINE,2022.2.4,59.952219880520786,
0,0,1,0,1,0,0,0,hexagon,triangle,1,0,1,0,2,0,24,6,,,,,,,,,,,,,,,,,,,,,,,,,,,,,,,,,,,,,,,,295.0875269229873,295.0875269229873,295.0875269229873,295.0875269229873,295.0875269229873,295.0875269229873,295.0875269229873,295.0875269229873,295.0875269229873,295.0875269229873,l,0.7686765770195052,10,469,1,295.8884618800075,297.3903363250138,,,,,,,,,,,,,,,,,,,,,,,,,,,,,,,,,,,,,,,,,,,,,,,,,,,,,,,,,,,,,,,,,,,,,,,82645,2022-11-17_14h04.31.668,vts_reward_expectancy_bt_OFFLINE,2022.2.4,59.952219880520786,
1,0,0,0,0,0,0,1,triangle,star,1,0,1,0,2,1,25,2,,,,,,,,,,,,,,,,,,,,,,,,,,,,,,,,,,,,,,,,297.8905777820037,297.8905777820037,297.8905777820037,297.8905777820037,297.8905777820037,297.8905777820037,297.8905777820037,297.8905777820037,297.8905777820037,297.8905777820037,a,0.6537373430037405,10,479,1,298.57477838301565,300.0762153319956,,,,,,,,,,,,,,,,,,,,,,,,,,,,,,,,,,,,,,,,,,,,,,,,,,,,,,,,,,,,,,,,,,,,,,,82645,2022-11-17_14h04.31.668,vts_reward_expectancy_bt_OFFLINE,2022.2.4,59.952219880520786,
0,1,0,0,1,0,0,0,circle,triangle,1,0,1,0,2,2,26,3,,,,,,,,,,,,,,,,,,,,,,,,,,,,,,,,,,,,,,,,300.57686669001123,300.57686669001123,300.57686669001123,300.57686669001123,300.57686669001123,300.57686669001123,300.57686669001123,300.57686669001123,300.57686669001123,300.57686669001123,l,0.7813987369881943,1,480,1,301.37806690699654,302.87945655401563,,,,,,,,,,,,,,,,,,,,,,,,,,,,,,,,,,,,,,,,,,,,,,,,,,,,,,,,,,,,,,,,,,,,,,,82645,2022-11-17_14h04.31.668,vts_reward_expectancy_bt_OFFLINE,2022.2.4,59.952219880520786,
0,1,0,0,0,0,0,1,circle,star,1,0,1,0,2,3,27,5,,,,,,,,,,,,,,,,,,,,,,,,,,,,,,,,,,,,,,,,303.37999683999806,303.37999683999806,303.37999683999806,303.37999683999806,303.37999683999806,303.37999683999806,303.37999683999806,303.37999683999806,303.37999683999806,303.37999683999806,l,0.8799773180217016,1,481,1,304.2811694210104,305.7826435439929,,,,,,,,,,,,,,,,,,,,,,,,,,,,,,,,,,,,,,,,,,,,,,,,,,,,,,,,,,,,,,,,,,,,,,,82645,2022-11-17_14h04.31.668,vts_reward_expectancy_bt_OFFLINE,2022.2.4,59.952219880520786,
0,0,0,1,0,0,1,0,star,hexagon,1,0,1,0,2,4,28,11,,,,,,,,,,,,,,,,,,,,,,,,,,,,,,,,,,,,,,,,306.28334045401425,306.28334045401425,306.28334045401425,306.28334045401425,306.28334045401425,306.28334045401425,306.28334045401425,306.28334045401425,306.28334045401425,306.28334045401425,l,0.8354102529992815,10,491,1,307.15073886400205,308.65233952901326,,,,,,,,,,,,,,,,,,,,,,,,,,,,,,,,,,,,,,,,,,,,,,,,,,,,,,,,,,,,,,,,,,,,,,,82645,2022-11-17_14h04.31.668,vts_reward_expectancy_bt_OFFLINE,2022.2.4,59.952219880520786,
0,0,1,0,0,1,0,0,hexagon,circle,1,0,1,0,2,5,29,7,,,,,,,,,,,,,,,,,,,,,,,,,,,,,,,,,,,,,,,,309.15299154201057,309.15299154201057,309.15299154201057,309.15299154201057,309.15299154201057,309.15299154201057,309.15299154201057,309.15299154201057,309.15299154201057,309.15299154201057,a,0.844715051993262,1,492,1,310.02044043000205,311.5221310509951,,,,,,,,,,,,,,,,,,,,,,,,,,,,,,,,,,,,,,,,,,,,,,,,,,,,,,,,,,,,,,,,,,,,,,,82645,2022-11-17_14h04.31.668,vts_reward_expectancy_bt_OFFLINE,2022.2.4,59.952219880520786,
0,1,0,0,0,0,1,0,circle,hexagon,1,0,1,0,2,6,30,4,,,,,,,,,,,,,,,,,,,,,,,,,,,,,,,,,,,,,,,,312.0229053820076,312.0229053820076,312.0229053820076,312.0229053820076,312.0229053820076,312.0229053820076,312.0229053820076,312.0229053820076,312.0229053820076,312.0229053820076,a,0.5956815399986226,1,493,1,312.64002946199616,314.14187486399896,,,,,,,,,,,,,,,,,,,,,,,,,,,,,,,,,,,,,,,,,,,,,,,,,,,,,,,,,,,,,,,,,,,,,,,82645,2022-11-17_14h04.31.668,vts_reward_expectancy_bt_OFFLINE,2022.2.4,59.952219880520786,
1,0,0,0,0,1,0,0,triangle,circle,1,0,1,0,2,7,31,0,,,,,,,,,,,,,,,,,,,,,,,,,,,,,,,,,,,,,,,,314.6422954169975,314.6422954169975,314.6422954169975,314.6422954169975,314.6422954169975,314.6422954169975,314.6422954169975,314.6422954169975,314.6422954169975,314.6422954169975,a,0.5982881709933281,10,503,1,315.25969218701357,316.7615246119967,,,,,,,,,,,,,,,,,,,,,,,,,,,,,,,,,,,,,,,,,,,,,,,,,,,,,,,,,,,,,,,,,,,,,,,82645,2022-11-17_14h04.31.668,vts_reward_expectancy_bt_OFFLINE,2022.2.4,59.952219880520786,
0,0,0,1,1,0,0,0,star,triangle,1,0,1,0,2,8,32,9,,,,,,,,,,,,,,,,,,,,,,,,,,,,,,,,,,,,,,,,317.2622214629955,317.2622214629955,317.2622214629955,317.2622214629955,317.2622214629955,317.2622214629955,317.2622214629955,317.2622214629955,317.2622214629955,317.2622214629955,l,0.690083813999081,10,513,1,317.97961584100267,319.4813595050073,,,,,,,,,,,,,,,,,,,,,,,,,,,,,,,,,,,,,,,,,,,,,,,,,,,,,,,,,,,,,,,,,,,,,,,82645,2022-11-17_14h04.31.668,vts_reward_expectancy_bt_OFFLINE,2022.2.4,59.952219880520786,
1,0,0,0,0,0,1,0,triangle,hexagon,1,0,1,0,2,9,33,1,,,,,,,,,,,,,,,,,,,,,,,,,,,,,,,,,,,,,,,,319.9816832600045,319.9816832600045,319.9816832600045,319.9816832600045,319.9816832600045,319.9816832600045,319.9816832600045,319.9816832600045,319.9816832600045,319.9816832600045,a,0.5461810340057127,10,523,1,320.5487913120014,322.05038303599576,,,,,,,,,,,,,,,,,,,,,,,,,,,,,,,,,,,,,,,,,,,,,,,,,,,,,,,,,,,,,,,,,,,,,,,82645,2022-11-17_14h04.31.668,vts_reward_expectancy_bt_OFFLINE,2022.2.4,59.952219880520786,
0,0,1,0,0,0,0,1,hexagon,star,1,0,1,0,2,10,34,8,,,,,,,,,,,,,,,,,,,,,,,,,,,,,,,,,,,,,,,,322.55108810801175,322.55108810801175,322.55108810801175,322.55108810801175,322.55108810801175,322.55108810801175,322.55108810801175,322.55108810801175,322.55108810801175,322.55108810801175,a,0.768634520994965,10,533,1,323.3521107129927,324.8535520310106,,,,,,,,,,,,,,,,,,,,,,,,,,,,,,,,,,,,,,,,,,,,,,,,,,,,,,,,,,,,,,,,,,,,,,,82645,2022-11-17_14h04.31.668,vts_reward_expectancy_bt_OFFLINE,2022.2.4,59.952219880520786,
0,0,0,1,0,1,0,0,star ,circle,1,0,1,0,2,11,35,10,,,,,,,,,,,,,,,,,,,,,,,,,,,,,,,,,,,,,,,,325.3542634159967,325.3542634159967,325.3542634159967,325.3542634159967,325.3542634159967,325.3542634159967,325.3542634159967,325.3542634159967,325.3542634159967,325.3542634159967,l,0.809901317988988,1,534,1,326.1883057639934,327.69011126601254,,,,,,,,,,,,,,,,,,,,,,,,,,,,,,,,,,,,,,,,,,,,,,,,,,,,,,,,,,,,,,,,,,,,,,,82645,2022-11-17_14h04.31.668,vts_reward_expectancy_bt_OFFLINE,2022.2.4,59.952219880520786,
0,0,1,0,0,0,0,1,hexagon,star,1,0,1,0,3,0,36,8,,,,,,,,,,,,,,,,,,,,,,,,,,,,,,,,,,,,,,,,328.19056398500106,328.19056398500106,328.19056398500106,328.19056398500106,328.19056398500106,328.19056398500106,328.19056398500106,328.19056398500106,328.19056398500106,328.19056398500106,a,0.6966092539951205,10,544,1,328.90811106801266,330.40965977101587,,,,,,,,,,,,,,,,,,,,,,,,,,,,,,,,,,,,,,,,,,,,,,,,,,,,,,,,,,,,,,,,,,,,,,,82645,2022-11-17_14h04.31.668,vts_reward_expectancy_bt_OFFLINE,2022.2.4,59.952219880520786,
0,1,0,0,0,0,0,1,circle,star,1,0,1,0,3,1,37,5,,,,,,,,,,,,,,,,,,,,,,,,,,,,,,,,,,,,,,,,330.9104620500002,330.9104620500002,330.9104620500002,330.9104620500002,330.9104620500002,330.9104620500002,330.9104620500002,330.9104620500002,330.9104620500002,330.9104620500002,a,1.093443614023272,1,545,1,332.02841619899846,333.53006049300893,,,,,,,,,,,,,,,,,,,,,,,,,,,,,,,,,,,,,,,,,,,,,,,,,,,,,,,,,,,,,,,,,,,,,,,82645,2022-11-17_14h04.31.668,vts_reward_expectancy_bt_OFFLINE,2022.2.4,59.952219880520786,
1,0,0,0,0,1,0,0,triangle,circle,1,0,1,0,3,2,38,0,,,,,,,,,,,,,,,,,,,,,,,,,,,,,,,,,,,,,,,,334.030513678008,334.030513678008,334.030513678008,334.030513678008,334.030513678008,334.030513678008,334.030513678008,334.030513678008,334.030513678008,334.030513678008,l,0.5737268380180467,1,546,1,334.63108524901327,336.13272801501444,,,,,,,,,,,,,,,,,,,,,,,,,,,,,,,,,,,,,,,,,,,,,,,,,,,,,,,,,,,,,,,,,,,,,,,82645,2022-11-17_14h04.31.668,vts_reward_expectancy_bt_OFFLINE,2022.2.4,59.952219880520786,
1,0,0,0,0,0,1,0,triangle,hexagon,1,0,1,0,3,3,39,1,,,,,,,,,,,,,,,,,,,,,,,,,,,,,,,,,,,,,,,,336.63329923999845,336.63329923999845,336.63329923999845,336.63329923999845,336.63329923999845,336.63329923999845,336.63329923999845,336.63329923999845,336.63329923999845,336.63329923999845,l,0.6803158440161496,10,556,1,337.3339640159975,338.835744357988,,,,,,,,,,,,,,,,,,,,,,,,,,,,,,,,,,,,,,,,,,,,,,,,,,,,,,,,,,,,,,,,,,,,,,,82645,2022-11-17_14h04.31.668,vts_reward_expectancy_bt_OFFLINE,2022.2.4,59.952219880520786,
0,0,0,1,0,1,0,0,star ,circle,1,0,1,0,3,4,40,10,,,,,,,,,,,,,,,,,,,,,,,,,,,,,,,,,,,,,,,,339.3365117319918,339.3365117319918,339.3365117319918,339.3365117319918,339.3365117319918,339.3365117319918,339.3365117319918,339.3365117319918,339.3365117319918,339.3365117319918,a,0.9245376650069375,10,566,1,340.28729444000055,341.78893741199863,,,,,,,,,,,,,,,,,,,,,,,,,,,,,,,,,,,,,,,,,,,,,,,,,,,,,,,,,,,,,,,,,,,,,,,82645,2022-11-17_14h04.31.668,vts_reward_expectancy_bt_OFFLINE,2022.2.4,59.952219880520786,
0,1,0,0,0,0,1,0,circle,hexagon,1,0,1,0,3,5,41,4,,,,,,,,,,,,,,,,,,,,,,,,,,,,,,,,,,,,,,,,342.28967151101097,342.28967151101097,342.28967151101097,342.28967151101097,342.28967151101097,342.28967151101097,342.28967151101097,342.28967151101097,342.28967151101097,342.28967151101097,l,0.6266243039863184,10,576,1,342.9402109369985,344.44199628799106,,,,,,,,,,,,,,,,,,,,,,,,,,,,,,,,,,,,,,,,,,,,,,,,,,,,,,,,,,,,,,,,,,,,,,,82645,2022-11-17_14h04.31.668,vts_reward_expectancy_bt_OFFLINE,2022.2.4,59.952219880520786,
0,0,1,0,0,1,0,0,hexagon,circle,1,0,1,0,3,6,42,7,,,,,,,,,,,,,,,,,,,,,,,,,,,,,,,,,,,,,,,,344.9424569469993,344.9424569469993,344.9424569469993,344.9424569469993,344.9424569469993,344.9424569469993,344.9424569469993,344.9424569469993,344.9424569469993,344.9424569469993,l,0.5733650580223184,1,577,1,345.543281604012,347.0451988670102,,,,,,,,,,,,,,,,,,,,,,,,,,,,,,,,,,,,,,,,,,,,,,,,,,,,,,,,,,,,,,,,,,,,,,,82645,2022-11-17_14h04.31.668,vts_reward_expectancy_bt_OFFLINE,2022.2.4,59.952219880520786,
0,0,0,1,0,0,1,0,star,hexagon,1,0,1,0,3,7,43,11,,,,,,,,,,,,,,,,,,,,,,,,,,,,,,,,,,,,,,,,347.5459067180054,347.5459067180054,347.5459067180054,347.5459067180054,347.5459067180054,347.5459067180054,347.5459067180054,347.5459067180054,347.5459067180054,347.5459067180054,l,0.5677473479881883,10,587,1,348.1459158679936,349.64783150400035,,,,,,,,,,,,,,,,,,,,,,,,,,,,,,,,,,,,,,,,,,,,,,,,,,,,,,,,,,,,,,,,,,,,,,,82645,2022-11-17_14h04.31.668,vts_reward_expectancy_bt_OFFLINE,2022.2.4,59.952219880520786,
0,0,1,0,1,0,0,0,hexagon,triangle,1,0,1,0,3,8,44,6,,,,,,,,,,,,,,,,,,,,,,,,,,,,,,,,,,,,,,,,350.14833675700356,350.14833675700356,350.14833675700356,350.14833675700356,350.14833675700356,350.14833675700356,350.14833675700356,350.14833675700356,350.14833675700356,350.14833675700356,a,0.5860717620234936,10,597,1,350.76562056998955,352.2675837620045,,,,,,,,,,,,,,,,,,,,,,,,,,,,,,,,,,,,,,,,,,,,,,,,,,,,,,,,,,,,,,,,,,,,,,,82645,2022-11-17_14h04.31.668,vts_reward_expectancy_bt_OFFLINE,2022.2.4,59.952219880520786,
0,0,0,1,1,0,0,0,star,triangle,1,0,1,0,3,9,45,9,,,,,,,,,,,,,,,,,,,,,,,,,,,,,,,,,,,,,,,,352.76794353700825,352.76794353700825,352.76794353700825,352.76794353700825,352.76794353700825,352.76794353700825,352.76794353700825,352.76794353700825,352.76794353700825,352.76794353700825,a,0.8924791459867265,10,607,1,353.6853654269944,355.1874844080012,,,,,,,,,,,,,,,,,,,,,,,,,,,,,,,,,,,,,,,,,,,,,,,,,,,,,,,,,,,,,,,,,,,,,,,82645,2022-11-17_14h04.31.668,vts_reward_expectancy_bt_OFFLINE,2022.2.4,59.952219880520786,
0,1,0,0,1,0,0,0,circle,triangle,1,0,1,0,3,10,46,3,,,,,,,,,,,,,,,,,,,,,,,,,,,,,,,,,,,,,,,,355.6876956220076,355.6876956220076,355.6876956220076,355.6876956220076,355.6876956220076,355.6876956220076,355.6876956220076,355.6876956220076,355.6876956220076,355.6876956220076,l,0.7296569270256441,10,617,1,356.4384718569927,357.9401554669894,,,,,,,,,,,,,,,,,,,,,,,,,,,,,,,,,,,,,,,,,,,,,,,,,,,,,,,,,,,,,,,,,,,,,,,82645,2022-11-17_14h04.31.668,vts_reward_expectancy_bt_OFFLINE,2022.2.4,59.952219880520786,
1,0,0,0,0,0,0,1,triangle,star,1,0,1,0,3,11,47,2,,,,,,,,,,,,,,,,,,,,,,,,,,,,,,,,,,,,,,,,358.4409403009922,358.4409403009922,358.4409403009922,358.4409403009922,358.4409403009922,358.4409403009922,358.4409403009922,358.4409403009922,358.4409403009922,358.4409403009922,a,0.6531630200042855,10,627,1,359.1249019179959,360.62680255799205,,,,,,,,,,,,,,,,,,,,,,,,,,,,,,,,,,,,,,,,,,,,,,,,,,,,,,,,,,,,,,,,,,,,,,,82645,2022-11-17_14h04.31.668,vts_reward_expectancy_bt_OFFLINE,2022.2.4,59.952219880520786,
1,0,0,0,0,0,0,1,triangle,star,2,0,2,0,0,0,0,2,,,,,,,,,,,,,,,,,,,,,,,,,,,,,,,,,,,,,,,,364.7866688359936,364.7866688359936,364.7866688359936,364.7866688359936,364.7866688359936,364.7866688359936,364.7866688359936,364.7866688359936,364.7866688359936,364.7866688359936,a,1.2820666990010068,1,628,2,366.0994891129958,367.600735251006,,,,,,,,,,,,,,,,,,,,,,,,,,,,,,,,,,,,,,,,,,,,,,,,,,,,,,,,,,,,,,,,,,,,,,,82645,2022-11-17_14h04.31.668,vts_reward_expectancy_bt_OFFLINE,2022.2.4,59.952219880520786,
0,0,0,1,0,0,1,0,star,hexagon,2,0,2,0,0,1,1,11,,,,,,,,,,,,,,,,,,,,,,,,,,,,,,,,,,,,,,,,368.10127792699495,368.10127792699495,368.10127792699495,368.10127792699495,368.10127792699495,368.10127792699495,368.10127792699495,368.10127792699495,368.10127792699495,368.10127792699495,a,0.6459141350060236,1,629,2,368.7688221829885,370.27036120399134,,,,,,,,,,,,,,,,,,,,,,,,,,,,,,,,,,,,,,,,,,,,,,,,,,,,,,,,,,,,,,,,,,,,,,,82645,2022-11-17_14h04.31.668,vts_reward_expectancy_bt_OFFLINE,2022.2.4,59.952219880520786,
1,0,0,0,0,0,1,0,triangle,hexagon,2,0,2,0,0,2,2,1,,,,,,,,,,,,,,,,,,,,,,,,,,,,,,,,,,,,,,,,370.7710165079916,370.7710165079916,370.7710165079916,370.7710165079916,370.7710165079916,370.7710165079916,370.7710165079916,370.7710165079916,370.7710165079916,370.7710165079916,l,0.6996455049957149,10,639,2,371.4882372819993,372.9901168080105,,,,,,,,,,,,,,,,,,,,,,,,,,,,,,,,,,,,,,,,,,,,,,,,,,,,,,,,,,,,,,,,,,,,,,,82645,2022-11-17_14h04.31.668,vts_reward_expectancy_bt_OFFLINE,2022.2.4,59.952219880520786,
0,1,0,0,0,0,1,0,circle,hexagon,2,0,2,0,0,3,3,4,,,,,,,,,,,,,,,,,,,,,,,,,,,,,,,,,,,,,,,,373.49078363200533,373.49078363200533,373.49078363200533,373.49078363200533,373.49078363200533,373.49078363200533,373.49078363200533,373.49078363200533,373.49078363200533,373.49078363200533,l,0.6230664910108317,10,649,2,374.14139045600314,375.6430987979984,,,,,,,,,,,,,,,,,,,,,,,,,,,,,,,,,,,,,,,,,,,,,,,,,,,,,,,,,,,,,,,,,,,,,,,82645,2022-11-17_14h04.31.668,vts_reward_expectancy_bt_OFFLINE,2022.2.4,59.952219880520786,
0,0,1,0,0,1,0,0,hexagon,circle,2,0,2,0,0,4,4,7,,,,,,,,,,,,,,,,,,,,,,,,,,,,,,,,,,,,,,,,376.14368729598937,376.14368729598937,376.14368729598937,376.14368729598937,376.14368729598937,376.14368729598937,376.14368729598937,376.14368729598937,376.14368729598937,376.14368729598937,a,0.6354485990013927,10,659,2,376.81097407700145,378.31256746899453,,,,,,,,,,,,,,,,,,,,,,,,,,,,,,,,,,,,,,,,,,,,,,,,,,,,,,,,,,,,,,,,,,,,,,,82645,2022-11-17_14h04.31.668,vts_reward_expectancy_bt_OFFLINE,2022.2.4,59.952219880520786,
0,1,0,0,1,0,0,0,circle,triangle,2,0,2,0,0,5,5,3,,,,,,,,,,,,,,,,,,,,,,,,,,,,,,,,,,,,,,,,378.8132715479878,378.8132715479878,378.8132715479878,378.8132715479878,378.8132715479878,378.8132715479878,378.8132715479878,378.8132715479878,378.8132715479878,378.8132715479878,l,0.735114581999369,10,669,2,379.58080022598733,381.08216464699944,,,,,,,,,,,,,,,,,,,,,,,,,,,,,,,,,,,,,,,,,,,,,,,,,,,,,,,,,,,,,,,,,,,,,,,82645,2022-11-17_14h04.31.668,vts_reward_expectancy_bt_OFFLINE,2022.2.4,59.952219880520786,
0,1,0,0,0,0,0,1,circle,star,2,0,2,0,0,6,6,5,,,,,,,,,,,,,,,,,,,,,,,,,,,,,,,,,,,,,,,,381.5829785449896,381.5829785449896,381.5829785449896,381.5829785449896,381.5829785449896,381.5829785449896,381.5829785449896,381.5829785449896,381.5829785449896,381.5829785449896,l,0.7092395139916334,1,670,2,382.31698200601386,383.8187069359992,,,,,,,,,,,,,,,,,,,,,,,,,,,,,,,,,,,,,,,,,,,,,,,,,,,,,,,,,,,,,,,,,,,,,,,82645,2022-11-17_14h04.31.668,vts_reward_expectancy_bt_OFFLINE,2022.2.4,59.952219880520786,
0,0,0,1,0,1,0,0,star ,circle,2,0,2,0,0,7,7,10,,,,,,,,,,,,,,,,,,,,,,,,,,,,,,,,,,,,,,,,384.3191761900089,384.3191761900089,384.3191761900089,384.3191761900089,384.3191761900089,384.3191761900089,384.3191761900089,384.3191761900089,384.3191761900089,384.3191761900089,l,0.551933775015641,1,671,2,384.903131294006,386.40482397400774,,,,,,,,,,,,,,,,,,,,,,,,,,,,,,,,,,,,,,,,,,,,,,,,,,,,,,,,,,,,,,,,,,,,,,,82645,2022-11-17_14h04.31.668,vts_reward_expectancy_bt_OFFLINE,2022.2.4,59.952219880520786,
0,0,0,1,1,0,0,0,star,triangle,2,0,2,0,0,8,8,9,,,,,,,,,,,,,,,,,,,,,,,,,,,,,,,,,,,,,,,,386.90542064100737,386.90542064100737,386.90542064100737,386.90542064100737,386.90542064100737,386.90542064100737,386.90542064100737,386.90542064100737,386.90542064100737,386.90542064100737,l,0.697012643009657,10,681,2,387.62295312501374,389.1243853849883,,,,,,,,,,,,,,,,,,,,,,,,,,,,,,,,,,,,,,,,,,,,,,,,,,,,,,,,,,,,,,,,,,,,,,,82645,2022-11-17_14h04.31.668,vts_reward_expectancy_bt_OFFLINE,2022.2.4,59.952219880520786,
1,0,0,0,0,1,0,0,triangle,circle,2,0,2,0,0,9,9,0,,,,,,,,,,,,,,,,,,,,,,,,,,,,,,,,,,,,,,,,389.62507615599316,389.62507615599316,389.62507615599316,389.62507615599316,389.62507615599316,389.62507615599316,389.62507615599316,389.62507615599316,389.62507615599316,389.62507615599316,a,0.6560657899826765,10,691,2,390.30904393899255,391.8107450570096,,,,,,,,,,,,,,,,,,,,,,,,,,,,,,,,,,,,,,,,,,,,,,,,,,,,,,,,,,,,,,,,,,,,,,,82645,2022-11-17_14h04.31.668,vts_reward_expectancy_bt_OFFLINE,2022.2.4,59.952219880520786,
0,0,1,0,1,0,0,0,hexagon,triangle,2,0,2,0,0,10,10,6,,,,,,,,,,,,,,,,,,,,,,,,,,,,,,,,,,,,,,,,392.311723471008,392.311723471008,392.311723471008,392.311723471008,392.311723471008,392.311723471008,392.311723471008,392.311723471008,392.311723471008,392.311723471008,l,0.6451583759917412,10,701,2,392.9788916549878,394.4805164950085,,,,,,,,,,,,,,,,,,,,,,,,,,,,,,,,,,,,,,,,,,,,,,,,,,,,,,,,,,,,,,,,,,,,,,,82645,2022-11-17_14h04.31.668,vts_reward_expectancy_bt_OFFLINE,2022.2.4,59.952219880520786,
0,0,1,0,0,0,0,1,hexagon,star,2,0,2,0,0,11,11,8,,,,,,,,,,,,,,,,,,,,,,,,,,,,,,,,,,,,,,,,394.9811348709918,394.9811348709918,394.9811348709918,394.9811348709918,394.9811348709918,394.9811348709918,394.9811348709918,394.9811348709918,394.9811348709918,394.9811348709918,a,0.8905084170110058,10,711,2,395.8986091010156,397.40045158201247,,,,,,,,,,,,,,,,,,,,,,,,,,,,,,,,,,,,,,,,,,,,,,,,,,,,,,,,,,,,,,,,,,,,,,,82645,2022-11-17_14h04.31.668,vts_reward_expectancy_bt_OFFLINE,2022.2.4,59.952219880520786,
0,1,0,0,1,0,0,0,circle,triangle,2,0,2,0,1,0,12,3,,,,,,,,,,,,,,,,,,,,,,,,,,,,,,,,,,,,,,,,397.9007531290117,397.9007531290117,397.9007531290117,397.9007531290117,397.9007531290117,397.9007531290117,397.9007531290117,397.9007531290117,397.9007531290117,397.9007531290117,l,0.6152177980111446,10,721,2,398.53491167898756,400.0366618919943,,,,,,,,,,,,,,,,,,,,,,,,,,,,,,,,,,,,,,,,,,,,,,,,,,,,,,,,,,,,,,,,,,,,,,,82645,2022-11-17_14h04.31.668,vts_reward_expectancy_bt_OFFLINE,2022.2.4,59.952219880520786,
0,0,1,0,0,0,0,1,hexagon,star,2,0,2,0,1,1,13,8,,,,,,,,,,,,,,,,,,,,,,,,,,,,,,,,,,,,,,,,400.53719700701186,400.53719700701186,400.53719700701186,400.53719700701186,400.53719700701186,400.53719700701186,400.53719700701186,400.53719700701186,400.53719700701186,400.53719700701186,l,0.7567569869861472,1,722,2,401.32150092499796,402.82299241400324,,,,,,,,,,,,,,,,,,,,,,,,,,,,,,,,,,,,,,,,,,,,,,,,,,,,,,,,,,,,,,,,,,,,,,,82645,2022-11-17_14h04.31.668,vts_reward_expectancy_bt_OFFLINE,2022.2.4,59.952219880520786,
0,1,0,0,0,0,0,1,circle,star,2,0,2,0,1,2,14,5,,,,,,,,,,,,,,,,,,,,,,,,,,,,,,,,,,,,,,,,403.32356673901086,403.32356673901086,403.32356673901086,403.32356673901086,403.32356673901086,403.32356673901086,403.32356673901086,403.32356673901086,403.32356673901086,403.32356673901086,l,0.829396215005545,1,723,2,404.17451094600256,405.6760128409951,,,,,,,,,,,,,,,,,,,,,,,,,,,,,,,,,,,,,,,,,,,,,,,,,,,,,,,,,,,,,,,,,,,,,,,82645,2022-11-17_14h04.31.668,vts_reward_expectancy_bt_OFFLINE,2022.2.4,59.952219880520786,
1,0,0,0,0,0,0,1,triangle,star,2,0,2,0,1,3,15,2,,,,,,,,,,,,,,,,,,,,,,,,,,,,,,,,,,,,,,,,406.1764667050156,406.1764667050156,406.1764667050156,406.1764667050156,406.1764667050156,406.1764667050156,406.1764667050156,406.1764667050156,406.1764667050156,406.1764667050156,l,0.8350656979891937,1,724,2,407.0276245799905,408.5292730680085,408.5292730680085,,,,,,,,,,,,,,,,,,,,,,,,,,,,,,,,,,,,,,,,,,,,,,,,,,,,,,,,,,,,,,,,,,,,,,82645,2022-11-17_14h04.31.668,vts_reward_expectancy_bt_OFFLINE,2022.2.4,59.952219880520786,
0,0,1,0,1,0,0,0,hexagon,triangle,2,0,2,0,1,4,16,6,,,,,,,,,,,,,,,,,,,,,,,,,,,,,,,,,,,,,,,,409.0299966649909,409.0299966649909,409.0299966649909,409.0299966649909,409.0299966649909,409.0299966649909,409.0299966649909,409.0299966649909,409.0299966649909,409.0299966649909,l,0.7245845170109533,10,734,2,409.7805429119908,411.282283662993,,,,,,,,,,,,,,,,,,,,,,,,,,,,,,,,,,,,,,,,,,,,,,,,,,,,,,,,,,,,,,,,,,,,,,,82645,2022-11-17_14h04.31.668,vts_reward_expectancy_bt_OFFLINE,2022.2.4,59.952219880520786,
0,0,0,1,0,0,1,0,star,hexagon,2,0,2,0,1,5,17,11,,,,,,,,,,,,,,,,,,,,,,,,,,,,,,,,,,,,,,,,411.78267610500916,411.78267610500916,411.78267610500916,411.78267610500916,411.78267610500916,411.78267610500916,411.78267610500916,411.78267610500916,411.78267610500916,411.78267610500916,l,1.1443622070073616,10,744,2,412.9508108829905,414.45232886099257,,,,,,,,,,,,,,,,,,,,,,,,,,,,,,,,,,,,,,,,,,,,,,,,,,,,,,,,,,,,,,,,,,,,,,,82645,2022-11-17_14h04.31.668,vts_reward_expectancy_bt_OFFLINE,2022.2.4,59.952219880520786,
1,0,0,0,0,1,0,0,triangle,circle,2,0,2,0,1,6,18,0,,,,,,,,,,,,,,,,,,,,,,,,,,,,,,,,,,,,,,,,414.95283396501327,414.95283396501327,414.95283396501327,414.95283396501327,414.95283396501327,414.95283396501327,414.95283396501327,414.95283396501327,414.95283396501327,414.95283396501327,a,1.181112325983122,1,745,2,416.1541791649943,417.65598683900316,,,,,,,,,,,,,,,,,,,,,,,,,,,,,,,,,,,,,,,,,,,,,,,,,,,,,,,,,,,,,,,,,,,,,,,82645,2022-11-17_14h04.31.668,vts_reward_expectancy_bt_OFFLINE,2022.2.4,59.952219880520786,
1,0,0,0,0,0,1,0,triangle,hexagon,2,0,2,0,1,7,19,1,,,,,,,,,,,,,,,,,,,,,,,,,,,,,,,,,,,,,,,,418.1565030050115,418.1565030050115,418.1565030050115,418.1565030050115,418.1565030050115,418.1565030050115,418.1565030050115,418.1565030050115,418.1565030050115,418.1565030050115,a,0.6091663539991714,1,746,2,418.79053746699356,420.2922689160041,,,,,,,,,,,,,,,,,,,,,,,,,,,,,,,,,,,,,,,,,,,,,,,,,,,,,,,,,,,,,,,,,,,,,,,82645,2022-11-17_14h04.31.668,vts_reward_expectancy_bt_OFFLINE,2022.2.4,59.952219880520786,
0,0,0,1,0,1,0,0,star ,circle,2,0,2,0,1,8,20,10,,,,,,,,,,,,,,,,,,,,,,,,,,,,,,,,,,,,,,,,420.79285267399973,420.79285267399973,420.79285267399973,420.79285267399973,420.79285267399973,420.79285267399973,420.79285267399973,420.79285267399973,420.79285267399973,420.79285267399973,l,1.0103265029902104,10,756,2,421.82759505001013,423.32911535399035,,,,,,,,,,,,,,,,,,,,,,,,,,,,,,,,,,,,,,,,,,,,,,,,,,,,,,,,,,,,,,,,,,,,,,,82645,2022-11-17_14h04.31.668,vts_reward_expectancy_bt_OFFLINE,2022.2.4,59.952219880520786,
0,1,0,0,0,0,1,0,circle,hexagon,2,0,2,0,1,9,21,4,,,,,,,,,,,,,,,,,,,,,,,,,,,,,,,,,,,,,,,,423.8295735520078,423.8295735520078,423.8295735520078,423.8295735520078,423.8295735520078,423.8295735520078,423.8295735520078,423.8295735520078,423.8295735520078,423.8295735520078,l,1.5861066759971436,10,766,2,425.4480477790057,426.9495372239908,,,,,,,,,,,,,,,,,,,,,,,,,,,,,,,,,,,,,,,,,,,,,,,,,,,,,,,,,,,,,,,,,,,,,,,82645,2022-11-17_14h04.31.668,vts_reward_expectancy_bt_OFFLINE,2022.2.4,59.952219880520786,
0,0,0,1,1,0,0,0,star,triangle,2,0,2,0,1,10,22,9,,,,,,,,,,,,,,,,,,,,,,,,,,,,,,,,,,,,,,,,427.4501344200107,427.4501344200107,427.4501344200107,427.4501344200107,427.4501344200107,427.4501344200107,427.4501344200107,427.4501344200107,427.4501344200107,427.4501344200107,l,0.6425575500179548,10,776,2,428.11744677100796,429.6191641979967,,,,,,,,,,,,,,,,,,,,,,,,,,,,,,,,,,,,,,,,,,,,,,,,,,,,,,,,,,,,,,,,,,,,,,,82645,2022-11-17_14h04.31.668,vts_reward_expectancy_bt_OFFLINE,2022.2.4,59.952219880520786,
0,0,1,0,0,1,0,0,hexagon,circle,2,0,2,0,1,11,23,7,,,,,,,,,,,,,,,,,,,,,,,,,,,,,,,,,,,,,,,,430.1197448800085,430.1197448800085,430.1197448800085,430.1197448800085,430.1197448800085,430.1197448800085,430.1197448800085,430.1197448800085,430.1197448800085,430.1197448800085,a,0.5514373960031662,10,786,2,430.70368599999347,432.2053559079941,,,,,,,,,,,,,,,,,,,,,,,,,,,,,,,,,,,,,,,,,,,,,,,,,,,,,,,,,,,,,,,,,,,,,,,82645,2022-11-17_14h04.31.668,vts_reward_expectancy_bt_OFFLINE,2022.2.4,59.952219880520786,
0,1,0,0,1,0,0,0,circle,triangle,2,0,2,0,2,0,24,3,,,,,,,,,,,,,,,,,,,,,,,,,,,,,,,,,,,,,,,,432.7059018239961,432.7059018239961,432.7059018239961,432.7059018239961,432.7059018239961,432.7059018239961,432.7059018239961,432.7059018239961,432.7059018239961,432.7059018239961,l,0.5402636340004392,10,796,2,433.2732026510057,434.7747900550021,,,,,,,,,,,,,,,,,,,,,,,,,,,,,,,,,,,,,,,,,,,,,,,,,,,,,,,,,,,,,,,,,,,,,,,82645,2022-11-17_14h04.31.668,vts_reward_expectancy_bt_OFFLINE,2022.2.4,59.952219880520786,
1,0,0,0,0,0,1,0,triangle,hexagon,2,0,2,0,2,1,25,1,,,,,,,,,,,,,,,,,,,,,,,,,,,,,,,,,,,,,,,,435.27523192801164,435.27523192801164,435.27523192801164,435.27523192801164,435.27523192801164,435.27523192801164,435.27523192801164,435.27523192801164,435.27523192801164,435.27523192801164,l,0.7369298030098435,10,806,2,436.042939417006,437.5449927780137,,,,,,,,,,,,,,,,,,,,,,,,,,,,,,,,,,,,,,,,,,,,,,,,,,,,,,,,,,,,,,,,,,,,,,,82645,2022-11-17_14h04.31.668,vts_reward_expectancy_bt_OFFLINE,2022.2.4,59.952219880520786,
0,0,0,1,1,0,0,0,star,triangle,2,0,2,0,2,2,26,9,,,,,,,,,,,,,,,,,,,,,,,,,,,,,,,,,,,,,,,,438.0452095819928,438.0452095819928,438.0452095819928,438.0452095819928,438.0452095819928,438.0452095819928,438.0452095819928,438.0452095819928,438.0452095819928,438.0452095819928,l,0.6110781829920597,10,816,2,438.67948413200793,440.18084683900815,,,,,,,,,,,,,,,,,,,,,,,,,,,,,,,,,,,,,,,,,,,,,,,,,,,,,,,,,,,,,,,,,,,,,,,82645,2022-11-17_14h04.31.668,vts_reward_expectancy_bt_OFFLINE,2022.2.4,59.952219880520786,
0,0,1,0,1,0,0,0,hexagon,triangle,2,0,2,0,2,3,27,6,,,,,,,,,,,,,,,,,,,,,,,,,,,,,,,,,,,,,,,,440.68143985798815,440.68143985798815,440.68143985798815,440.68143985798815,440.68143985798815,440.68143985798815,440.68143985798815,440.68143985798815,440.68143985798815,440.68143985798815,l,0.519173700013198,10,826,2,441.23199548298726,442.73367401899304,,,,,,,,,,,,,,,,,,,,,,,,,,,,,,,,,,,,,,,,,,,,,,,,,,,,,,,,,,,,,,,,,,,,,,,82645,2022-11-17_14h04.31.668,vts_reward_expectancy_bt_OFFLINE,2022.2.4,59.952219880520786,
1,0,0,0,0,1,0,0,triangle,circle,2,0,2,0,2,4,28,0,,,,,,,,,,,,,,,,,,,,,,,,,,,,,,,,,,,,,,,,443.2344419390138,443.2344419390138,443.2344419390138,443.2344419390138,443.2344419390138,443.2344419390138,443.2344419390138,443.2344419390138,443.2344419390138,443.2344419390138,a,0.6535828479973134,10,836,2,443.9183614999929,445.4198475400044,,,,,,,,,,,,,,,,,,,,,,,,,,,,,,,,,,,,,,,,,,,,,,,,,,,,,,,,,,,,,,,,,,,,,,,82645,2022-11-17_14h04.31.668,vts_reward_expectancy_bt_OFFLINE,2022.2.4,59.952219880520786,
0,0,1,0,0,1,0,0,hexagon,circle,2,0,2,0,2,5,29,7,,,,,,,,,,,,,,,,,,,,,,,,,,,,,,,,,,,,,,,,445.9207201320096,445.9207201320096,445.9207201320096,445.9207201320096,445.9207201320096,445.9207201320096,445.9207201320096,445.9207201320096,445.9207201320096,445.9207201320096,l,0.7576144009944983,1,837,2,446.70479073599563,448.20641977898777,,,,,,,,,,,,,,,,,,,,,,,,,,,,,,,,,,,,,,,,,,,,,,,,,,,,,,,,,,,,,,,,,,,,,,,82645,2022-11-17_14h04.31.668,vts_reward_expectancy_bt_OFFLINE,2022.2.4,59.952219880520786,
0,0,0,1,0,0,1,0,star,hexagon,2,0,2,0,2,6,30,11,,,,,,,,,,,,,,,,,,,,,,,,,,,,,,,,,,,,,,,,448.7070237660082,448.7070237660082,448.7070237660082,448.7070237660082,448.7070237660082,448.7070237660082,448.7070237660082,448.7070237660082,448.7070237660082,448.7070237660082,l,0.66031812899746,10,847,2,449.39099938599975,450.892779716989,,,,,,,,,,,,,,,,,,,,,,,,,,,,,,,,,,,,,,,,,,,,,,,,,,,,,,,,,,,,,,,,,,,,,,,82645,2022-11-17_14h04.31.668,vts_reward_expectancy_bt_OFFLINE,2022.2.4,59.952219880520786,
1,0,0,0,0,0,0,1,triangle,star,2,0,2,0,2,7,31,2,,,,,,,,,,,,,,,,,,,,,,,,,,,,,,,,,,,,,,,,451.3932086020068,451.3932086020068,451.3932086020068,451.3932086020068,451.3932086020068,451.3932086020068,451.3932086020068,451.3932086020068,451.3932086020068,451.3932086020068,a,0.7294839250098448,10,857,2,452.14401587299653,453.64600760201574,,,,,,,,,,,,,,,,,,,,,,,,,,,,,,,,,,,,,,,,,,,,,,,,,,,,,,,,,,,,,,,,,,,,,,,82645,2022-11-17_14h04.31.668,vts_reward_expectancy_bt_OFFLINE,2022.2.4,59.952219880520786,
0,0,1,0,0,0,0,1,hexagon,star,2,0,2,0,2,8,32,8,,,,,,,,,,,,,,,,,,,,,,,,,,,,,,,,,,,,,,,,454.14633020799374,454.14633020799374,454.14633020799374,454.14633020799374,454.14633020799374,454.14633020799374,454.14633020799374,454.14633020799374,454.14633020799374,454.14633020799374,a,0.710899484984111,10,867,2,454.88044664499466,456.38201311801095,,,,,,,,,,,,,,,,,,,,,,,,,,,,,,,,,,,,,,,,,,,,,,,,,,,,,,,,,,,,,,,,,,,,,,,82645,2022-11-17_14h04.31.668,vts_reward_expectancy_bt_OFFLINE,2022.2.4,59.952219880520786,
0,0,0,1,0,1,0,0,star ,circle,2,0,2,0,2,9,33,10,,,,,,,,,,,,,,,,,,,,,,,,,,,,,,,,,,,,,,,,456.8827387779893,456.8827387779893,456.8827387779893,456.8827387779893,456.8827387779893,456.8827387779893,456.8827387779893,456.8827387779893,456.8827387779893,456.8827387779893,l,0.719025492988294,1,868,2,457.63354803499533,459.13520254701143,,,,,,,,,,,,,,,,,,,,,,,,,,,,,,,,,,,,,,,,,,,,,,,,,,,,,,,,,,,,,,,,,,,,,,,82645,2022-11-17_14h04.31.668,vts_reward_expectancy_bt_OFFLINE,2022.2.4,59.952219880520786,
0,1,0,0,0,0,0,1,circle,star,2,0,2,0,2,10,34,5,,,,,,,,,,,,,,,,,,,,,,,,,,,,,,,,,,,,,,,,459.63576793301036,459.63576793301036,459.63576793301036,459.63576793301036,459.63576793301036,459.63576793301036,459.63576793301036,459.63576793301036,459.63576793301036,459.63576793301036,l,0.8026880800025538,10,878,2,460.4698151529883,461.97149511100724,,,,,,,,,,,,,,,,,,,,,,,,,,,,,,,,,,,,,,,,,,,,,,,,,,,,,,,,,,,,,,,,,,,,,,,82645,2022-11-17_14h04.31.668,vts_reward_expectancy_bt_OFFLINE,2022.2.4,59.952219880520786,
0,1,0,0,0,0,1,0,circle,hexagon,2,0,2,0,2,11,35,4,,,,,,,,,,,,,,,,,,,,,,,,,,,,,,,,,,,,,,,,462.47242266099784,462.47242266099784,462.47242266099784,462.47242266099784,462.47242266099784,462.47242266099784,462.47242266099784,462.47242266099784,462.47242266099784,462.47242266099784,l,0.6082772550289519,10,888,2,463.1062777090119,464.6078200270131,,,,,,,,,,,,,,,,,,,,,,,,,,,,,,,,,,,,,,,,,,,,,,,,,,,,,,,,,,,,,,,,,,,,,,,82645,2022-11-17_14h04.31.668,vts_reward_expectancy_bt_OFFLINE,2022.2.4,59.952219880520786,
1,0,0,0,0,0,1,0,triangle,hexagon,2,0,2,0,3,0,36,1,,,,,,,,,,,,,,,,,,,,,,,,,,,,,,,,,,,,,,,,465.1082101989887,465.1082101989887,465.1082101989887,465.1082101989887,465.1082101989887,465.1082101989887,465.1082101989887,465.1082101989887,465.1082101989887,465.1082101989887,l,0.6853420319966972,1,889,2,465.8258864119998,467.3274962140131,,,,,,,,,,,,,,,,,,,,,,,,,,,,,,,,,,,,,,,,,,,,,,,,,,,,,,,,,,,,,,,,,,,,,,,82645,2022-11-17_14h04.31.668,vts_reward_expectancy_bt_OFFLINE,2022.2.4,59.952219880520786,
0,0,0,1,1,0,0,0,star,triangle,2,0,2,0,3,1,37,9,,,,,,,,,,,,,,,,,,,,,,,,,,,,,,,,,,,,,,,,467.82812237899634,467.82812237899634,467.82812237899634,467.82812237899634,467.82812237899634,467.82812237899634,467.82812237899634,467.82812237899634,467.82812237899634,467.82812237899634,l,0.5965550529945176,10,899,2,468.4453640030115,469.94706466500065,,,,,,,,,,,,,,,,,,,,,,,,,,,,,,,,,,,,,,,,,,,,,,,,,,,,,,,,,,,,,,,,,,,,,,,82645,2022-11-17_14h04.31.668,vts_reward_expectancy_bt_OFFLINE,2022.2.4,59.952219880520786,
0,0,0,1,0,0,1,0,star,hexagon,2,0,2,0,3,2,38,11,,,,,,,,,,,,,,,,,,,,,,,,,,,,,,,,,,,,,,,,470.4479281800159,470.4479281800159,470.4479281800159,470.4479281800159,470.4479281800159,470.4479281800159,470.4479281800159,470.4479281800159,470.4479281800159,470.4479281800159,l,0.7103077420033514,10,909,2,471.18181467900285,472.68367187000695,,,,,,,,,,,,,,,,,,,,,,,,,,,,,,,,,,,,,,,,,,,,,,,,,,,,,,,,,,,,,,,,,,,,,,,82645,2022-11-17_14h04.31.668,vts_reward_expectancy_bt_OFFLINE,2022.2.4,59.952219880520786,
0,1,0,0,0,0,1,0,circle,hexagon,2,0,2,0,3,3,39,4,,,,,,,,,,,,,,,,,,,,,,,,,,,,,,,,,,,,,,,,473.18403375399066,473.18403375399066,473.18403375399066,473.18403375399066,473.18403375399066,473.18403375399066,473.18403375399066,473.18403375399066,473.18403375399066,473.18403375399066,l,0.7868995209864806,10,919,2,474.00137847301085,475.5032091269968,,,,,,,,,,,,,,,,,,,,,,,,,,,,,,,,,,,,,,,,,,,,,,,,,,,,,,,,,,,,,,,,,,,,,,,82645,2022-11-17_14h04.31.668,vts_reward_expectancy_bt_OFFLINE,2022.2.4,59.952219880520786,
1,0,0,0,0,0,0,1,triangle,star,2,0,2,0,3,4,40,2,,,,,,,,,,,,,,,,,,,,,,,,,,,,,,,,,,,,,,,,476.0038210909988,476.0038210909988,476.0038210909988,476.0038210909988,476.0038210909988,476.0038210909988,476.0038210909988,476.0038210909988,476.0038210909988,476.0038210909988,a,0.7022556450101547,10,929,2,476.73777336400235,478.239623417001,,,,,,,,,,,,,,,,,,,,,,,,,,,,,,,,,,,,,,,,,,,,,,,,,,,,,,,,,,,,,,,,,,,,,,,82645,2022-11-17_14h04.31.668,vts_reward_expectancy_bt_OFFLINE,2022.2.4,59.952219880520786,
0,1,0,0,1,0,0,0,circle,triangle,2,0,2,0,3,5,41,3,,,,,,,,,,,,,,,,,,,,,,,,,,,,,,,,,,,,,,,,478.74016013299115,478.74016013299115,478.74016013299115,478.74016013299115,478.74016013299115,478.74016013299115,478.74016013299115,478.74016013299115,478.74016013299115,478.74016013299115,l,0.5978948650008533,10,939,2,479.3577594179951,480.85897403699346,,,,,,,,,,,,,,,,,,,,,,,,,,,,,,,,,,,,,,,,,,,,,,,,,,,,,,,,,,,,,,,,,,,,,,,82645,2022-11-17_14h04.31.668,vts_reward_expectancy_bt_OFFLINE,2022.2.4,59.952219880520786,
0,0,0,1,0,1,0,0,star ,circle,2,0,2,0,3,6,42,10,,,,,,,,,,,,,,,,,,,,,,,,,,,,,,,,,,,,,,,,481.3597392459924,481.3597392459924,481.3597392459924,481.3597392459924,481.3597392459924,481.3597392459924,481.3597392459924,481.3597392459924,481.3597392459924,481.3597392459924,a,1.8362634160148446,10,949,2,483.22831613899325,484.7300661680056,,,,,,,,,,,,,,,,,,,,,,,,,,,,,,,,,,,,,,,,,,,,,,,,,,,,,,,,,,,,,,,,,,,,,,,82645,2022-11-17_14h04.31.668,vts_reward_expectancy_bt_OFFLINE,2022.2.4,59.952219880520786,
0,0,1,0,0,1,0,0,hexagon,circle,2,0,2,0,3,7,43,7,,,,,,,,,,,,,,,,,,,,,,,,,,,,,,,,,,,,,,,,485.23074105998967,485.23074105998967,485.23074105998967,485.23074105998967,485.23074105998967,485.23074105998967,485.23074105998967,485.23074105998967,485.23074105998967,485.23074105998967,a,1.0823965299932752,10,959,2,486.33161585900234,487.8333404280129,487.8333404280129,,,,,,,,,,,,,,,,,,,,,,,,,,,,,,,,,,,,,,,,,,,,,,,,,,,,,,,,,,,,,,,,,,,,,,82645,2022-11-17_14h04.31.668,vts_reward_expectancy_bt_OFFLINE,2022.2.4,59.952219880520786,
0,1,0,0,0,0,0,1,circle,star,2,0,2,0,3,8,44,5,,,,,,,,,,,,,,,,,,,,,,,,,,,,,,,,,,,,,,,,488.3337854850106,488.3337854850106,488.3337854850106,488.3337854850106,488.3337854850106,488.3337854850106,488.3337854850106,488.3337854850106,488.3337854850106,488.3337854850106,l,1.028491336008301,1,960,2,489.3851040920126,490.8867371180095,,,,,,,,,,,,,,,,,,,,,,,,,,,,,,,,,,,,,,,,,,,,,,,,,,,,,,,,,,,,,,,,,,,,,,,82645,2022-11-17_14h04.31.668,vts_reward_expectancy_bt_OFFLINE,2022.2.4,59.952219880520786,
0,0,1,0,0,0,0,1,hexagon,star,2,0,2,0,3,9,45,8,,,,,,,,,,,,,,,,,,,,,,,,,,,,,,,,,,,,,,,,491.3872668420081,491.3872668420081,491.3872668420081,491.3872668420081,491.3872668420081,491.3872668420081,491.3872668420081,491.3872668420081,491.3872668420081,491.3872668420081,a,0.7996223639929667,10,970,2,492.20471711599384,493.70661601400934,,,,,,,,,,,,,,,,,,,,,,,,,,,,,,,,,,,,,,,,,,,,,,,,,,,,,,,,,,,,,,,,,,,,,,,82645,2022-11-17_14h04.31.668,vts_reward_expectancy_bt_OFFLINE,2022.2.4,59.952219880520786,
1,0,0,0,0,1,0,0,triangle,circle,2,0,2,0,3,10,46,0,,,,,,,,,,,,,,,,,,,,,,,,,,,,,,,,,,,,,,,,494.207144118991,494.207144118991,494.207144118991,494.207144118991,494.207144118991,494.207144118991,494.207144118991,494.207144118991,494.207144118991,494.207144118991,a,0.6897133160091471,10,980,2,494.9245196359989,496.4261649280088,,,,,,,,,,,,,,,,,,,,,,,,,,,,,,,,,,,,,,,,,,,,,,,,,,,,,,,,,,,,,,,,,,,,,,,82645,2022-11-17_14h04.31.668,vts_reward_expectancy_bt_OFFLINE,2022.2.4,59.952219880520786,
0,0,1,0,1,0,0,0,hexagon,triangle,2,0,2,0,3,11,47,6,,,,,,,,,,,,,,,,,,,,,,,,,,,,,,,,,,,,,,,,496.92667625899776,496.92667625899776,496.92667625899776,496.92667625899776,496.92667625899776,496.92667625899776,496.92667625899776,496.92667625899776,496.92667625899776,496.92667625899776,l,0.5576538890018128,10,990,2,497.5106702579942,499.01232749200426,,,,,,,,,,,,,,,,,,,,,,,,,,,,,,,,,,,,,,,,,,,,,,,,,,,,,,,,,,,,,,,,,,,,,,,82645,2022-11-17_14h04.31.668,vts_reward_expectancy_bt_OFFLINE,2022.2.4,59.952219880520786,
,,,,,,,,,,,,,,,,,,0,0,0,0,0,0,0,0,,,,,,,,,,,,,,,,,,,,,,,,,,,,,,,,,,,,,,,,,,,,,,,,537.0544128470065,,,167,Y,circle,0.0014295029977802187,532.193271318014,533.7006649649993,533.7006649649993,533.7006649649993,1,0,f,1.833006008004304,0,535.5530222310044,,,,,,,,,,,,,,,,,,,,,,,,,,,,,,,,,,,,,,,,,,,,,,,,,,,,,,,82645,2022-11-17_14h04.31.668,vts_reward_expectancy_bt_OFFLINE,2022.2.4,59.952219880520786,
,,,,,,,,,,,,,,,,,,0,0,0,0,1,0,1,0,,,,,,,,,,,,,,,,,,,,,,,,,,,,,,,,,,,,,,,,,,,,,,,,542.176887714013,,,181,D,hexagon,0.0009378319955430925,538.0321735870093,539.5403439270158,539.5403439270158,539.5403439270158,1,0,f,1.1026687450066675,0,540.6752098620054,,,,,,,,,,,,,,,,,,,,,,,,,,,,,,,,,,,,,,,,,,,,,,,,,,,,,,,82645,2022-11-17_14h04.31.668,vts_reward_expectancy_bt_OFFLINE,2022.2.4,59.952219880520786,
,,,,,,,,,,,,,,,,,,0,0,0,0,2,0,2,0,,,,,,,,,,,,,,,,,,,,,,,,,,,,,,,,,,,,,,,,,,,,,,,,547.0320707639912,,,125,B,star,0.0017096249794121832,543.1559225940146,544.6630914279958,544.6630914279958,544.6630914279958,1,0,d,0.8392255270155147,0,545.5304705000017,,,,,,,,,,,,,,,,,,,,,,,,,,,,,,,,,,,,,,,,,,,,,,,,,,,,,,,82645,2022-11-17_14h04.31.668,vts_reward_expectancy_bt_OFFLINE,2022.2.4,59.952219880520786,
,,,,,,,,,,,,,,,,,,0,0,0,0,3,0,3,0,,,,,,,,,,,,,,,,,,,,,,,,,,,,,,,,,,,,,,,,,,,,,,,,552.5548709119903,,,132,U,triangle,0.0013795369886793196,548.0108738309937,549.5183011800109,549.5183011800109,549.5183011800109,1,0,d,1.5067862140131183,0,551.0534933790041,,,,,,,,,,,,,,,,,,,,,,,,,,,,,,,,,,,,,,,,,,,,,,,,,,,,,,,82645,2022-11-17_14h04.31.668,vts_reward_expectancy_bt_OFFLINE,2022.2.4,59.952219880520786,
,,,,,,,,,,,,,,,,,,0,0,0,0,4,0,4,0,,,,,,,,,,,,,,,,,,,,,,,,,,,,,,,,,,,,,,,,,,,,,,,,557.4436003110022,,,174,W,star,0.0017141590069513768,553.5335066439875,555.0408661540132,555.0408661540132,555.0408661540132,1,0,f,0.8778770610224456,0,555.9421037680004,,,,,,,,,,,,,,,,,,,,,,,,,,,,,,,,,,,,,,,,,,,,,,,,,,,,,,,82645,2022-11-17_14h04.31.668,vts_reward_expectancy_bt_OFFLINE,2022.2.4,59.952219880520786,
,,,,,,,,,,,,,,,,,,0,0,0,0,5,0,5,0,,,,,,,,,,,,,,,,,,,,,,,,,,,,,,,,,,,,,,,,,,,,,,,,562.716049145005,,,139,F,triangle,0.0013941490033175796,558.4211935230123,559.929640221002,559.929640221002,559.929640221002,1,0,d,1.26586536099785,0,561.2143324149947,,,,,,,,,,,,,,,,,,,,,,,,,,,,,,,,,,,,,,,,,,,,,,,,,,,,,,,82645,2022-11-17_14h04.31.668,vts_reward_expectancy_bt_OFFLINE,2022.2.4,59.952219880520786,
,,,,,,,,,,,,,,,,,,0,0,0,0,6,0,6,0,,,,,,,,,,,,,,,,,,,,,,,,,,,,,,,,,,,,,,,,,,,,,,,,568.105430622003,,,160,S,hexagon,0.001117292995331809,563.6952967020043,565.2021762880031,565.2021762880031,565.2021762880031,1,0,f,1.3824344940076116,0,566.6036719650147,,,,,,,,,,,,,,,,,,,,,,,,,,,,,,,,,,,,,,,,,,,,,,,,,,,,,,,82645,2022-11-17_14h04.31.668,vts_reward_expectancy_bt_OFFLINE,2022.2.4,59.952219880520786,
,,,,,,,,,,,,,,,,,,0,0,0,0,7,0,7,0,,,,,,,,,,,,,,,,,,,,,,,,,,,,,,,,,,,,,,,,,,,,,,,,572.8104014919954,,,146,H,circle,0.0011202449968550354,569.0829936790105,570.5913955360011,570.5913955360011,570.5913955360011,1,0,d,0.685407576005673,0,571.3089677260141,,,,,,,,,,,,,,,,,,,,,,,,,,,,,,,,,,,,,,,,,,,,,,,,,,,,,,,82645,2022-11-17_14h04.31.668,vts_reward_expectancy_bt_OFFLINE,2022.2.4,59.952219880520786,
,,,,,,,,,,,,,,,,,,0,0,0,0,8,0,8,0,,,,,,,,,,,,,,,,,,,,,,,,,,,,,,,,,,,,,,,,,,,,,,,,577.5657766590011,,,167,Y,circle,0.0017611549992579967,573.7876436719962,575.2966487870144,575.2966487870144,575.2966487870144,1,0,f,0.7511008840228897,0,576.0640584740031,,,,,,,,,,,,,,,,,,,,,,,,,,,,,,,,,,,,,,,,,,,,,,,,,,,,,,,82645,2022-11-17_14h04.31.668,vts_reward_expectancy_bt_OFFLINE,2022.2.4,59.952219880520786,
,,,,,,,,,,,,,,,,,,0,0,0,0,9,0,9,0,,,,,,,,,,,,,,,,,,,,,,,,,,,,,,,,,,,,,,,,,,,,,,,,582.2375428210071,,,181,D,star,0.0008863519760780036,578.5427583040146,580.0518090359983,580.0518090359983,580.0518090359983,1,0,f,0.6517987039987929,0,580.7359029650106,,,,,,,,,,,,,,,,,,,,,,,,,,,,,,,,,,,,,,,,,,,,,,,,,,,,,,,82645,2022-11-17_14h04.31.668,vts_reward_expectancy_bt_OFFLINE,2022.2.4,59.952219880520786,
,,,,,,,,,,,,,,,,,,,,,,,,,,0,0,0,0,0,0,0,0,,,,,,,,,,,,,,,,,,,,,,,,,,,,,,,,,,,,,,,,603.3609676350025,,,125,F,star,0.002041990024736151,,,,,1,0,,,1,601.8591809289937,598.8702593350026,600.3742490750155,600.3742490750155,600.3742490750155,j,1.4567913200007752,,,,,,,,,,,,,,,,,,,,,,,,,,,,,,,,,,,,,,,,,,,,,,,,,82645,2022-11-17_14h04.31.668,vts_reward_expectancy_bt_OFFLINE,2022.2.4,59.952219880520786,
,,,,,,,,,,,,,,,,,,,,,,,,,,0,0,0,0,1,0,1,0,,,,,,,,,,,,,,,,,,,,,,,,,,,,,,,,,,,,,,,,608.2160742680135,,,167,Y,hexagon,0.0018159219762310386,,,,,1,0,,,1,606.7145633749897,604.3391884739976,605.8470538519905,605.8470538519905,605.8470538519905,k,0.8458375849877484,,,,,,,,,,,,,,,,,,,,,,,,,,,,,,,,,,,,,,,,,,,,,,,,,82645,2022-11-17_14h04.31.668,vts_reward_expectancy_bt_OFFLINE,2022.2.4,59.952219880520786,
,,,,,,,,,,,,,,,,,,,,,,,,,,0,0,0,0,2,0,2,0,,,,,,,,,,,,,,,,,,,,,,,,,,,,,,,,,,,,,,,,613.3217028079962,,,132,H,triangle,0.0012418910046108067,,,,,1,0,,,1,611.8201601369947,609.1945620320039,610.7021891890035,610.7021891890035,610.7021891890035,j,1.0856964570120908,,,,,,,,,,,,,,,,,,,,,,,,,,,,,,,,,,,,,,,,,,,,,,,,,82645,2022-11-17_14h04.31.668,vts_reward_expectancy_bt_OFFLINE,2022.2.4,59.952219880520786,
,,,,,,,,,,,,,,,,,,,,,,,,,,0,0,0,0,3,0,3,0,,,,,,,,,,,,,,,,,,,,,,,,,,,,,,,,,,,,,,,,618.243872994004,,,160,S,circle,0.0019795430125668645,,,,,1,0,,,1,616.7423570009996,614.2995215789997,615.8078276400047,615.8078276400047,615.8078276400047,k,0.9076005079841707,,,,,,,,,,,,,,,,,,,,,,,,,,,,,,,,,,,,,,,,,,,,,,,,,82645,2022-11-17_14h04.31.668,vts_reward_expectancy_bt_OFFLINE,2022.2.4,59.952219880520786,
,,,,,,,,,,,,,,,,,,,,,,,,,,0,0,0,0,4,0,4,0,,,,,,,,,,,,,,,,,,,,,,,,,,,,,,,,,,,,,,,,623.1492159460031,,,146,U,hexagon,0.0015808430034667253,,,,,1,0,,,1,621.6478869600105,619.2227742579998,620.7301754660148,620.7301754660148,620.7301754660148,k,0.890889086003881,,,,,,,,,,,,,,,,,,,,,,,,,,,,,,,,,,,,,,,,,,,,,,,,,82645,2022-11-17_14h04.31.668,vts_reward_expectancy_bt_OFFLINE,2022.2.4,59.952219880520786,
,,,,,,,,,,,,,,,,,,,,,,,,,,0,0,0,0,5,0,5,0,,,,,,,,,,,,,,,,,,,,,,,,,,,,,,,,,,,,,,,,628.7560259670136,,,174,B,circle,0.0017099550168495625,,,,,1,0,,,1,627.2538197799877,624.126892232016,625.6356702159974,625.6356702159974,625.6356702159974,j,1.6004928899928927,628.7560259670136,,,,,,,,,,,,,,,,,,,,,,,,,,,,,,,,,,,,,,,,,,,,,,,,82645,2022-11-17_14h04.31.668,vts_reward_expectancy_bt_OFFLINE,2022.2.4,59.952219880520786,
,,,,,,,,,,,,,,,,,,,,,,,,,,0,0,0,0,6,0,6,0,,,,,,,,,,,,,,,,,,,,,,,,,,,,,,,,,,,,,,,,633.9113870529982,,,139,D,triangle,0.000514112995006144,,,,,1,0,,,1,632.4097086389957,629.7956424150034,631.2417580879992,631.2417580879992,631.2417580879992,j,1.14640125198639,,,,,,,,,,,,,,,,,,,,,,,,,,,,,,,,,,,,,,,,,,,,,,,,,82645,2022-11-17_14h04.31.668,vts_reward_expectancy_bt_OFFLINE,2022.2.4,59.952219880520786,
,,,,,,,,,,,,,,,,,,,,,,,,,,0,0,0,0,7,0,7,0,,,,,,,,,,,,,,,,,,,,,,,,,,,,,,,,,,,,,,,,638.5663553420163,,,181,W,star,0.001736072008498013,,,,,1,0,,,1,637.0648002219968,634.8884480920096,636.3972330150136,636.3972330150136,636.3972330150136,k,0.6484560930111911,,,,,,,,,,,,,,,,,,,,,,,,,,,,,,,,,,,,,,,,,,,,,,,,,82645,2022-11-17_14h04.31.668,vts_reward_expectancy_bt_OFFLINE,2022.2.4,59.952219880520786,
,,,,,,,,,,,,,,,,,,,,,,,,,,0,0,0,0,8,0,8,0,,,,,,,,,,,,,,,,,,,,,,,,,,,,,,,,,,,,,,,,643.488322426012,,,125,F,triangle,0.000918361998628825,,,,,1,0,,,1,641.9866567460122,639.5428756939946,641.0523994429968,641.0523994429968,641.0523994429968,j,0.9088961280067451,,,,,,,,,,,,,,,,,,,,,,,,,,,,,,,,,,,,,,,,,,,,,,,,,82645,2022-11-17_14h04.31.668,vts_reward_expectancy_bt_OFFLINE,2022.2.4,59.952219880520786,
,,,,,,,,,,,,,,,,,,,,,,,,,,0,0,0,0,9,0,9,0,,,,,,,,,,,,,,,,,,,,,,,,,,,,,,,,,,,,,,,,648.1936885770119,,,167,Y,star,0.001892585976747796,,,,,1,0,,,1,646.6919954759942,644.4650604299968,645.9745361130044,645.9745361130044,645.9745361130044,k,0.689272190007614,,,,,,,,,,,,,,,,,,,,,,,,,,,,,,,,,,,,,,,,,,,,,,,,,82645,2022-11-17_14h04.31.668,vts_reward_expectancy_bt_OFFLINE,2022.2.4,59.952219880520786,
,,,,,,,,,,,,,,,,,,,,,,,,,,,,,,,,,,0,0,0,0,0,0,0,0,,,,,,,,,,,,,,,,,,,,,,,,,,,,0,990,,,677.1925094090111,,677.6929947980097,167,H,star,0.0024685630050953478,,,,,-1,0,,,2,,,,,,,,,671.1823548460088,671.1823548460088,671.1823548460088,671.1823548460088,672.6874410230084,672.6874410230084,672.6874410230084,672.6874410230084,672.6874410230084,672.6874410230084,672.6874410230084,672.6874410230084,675.6910189010086,675.6910189010086,675.6910189010086,675.6910189010086,-1,no_choice,NA,None,vtsPrac,675.6910189010086,677.1925094090111,,,,,,,,,,,,,,,,,,,,,,,,,82645,2022-11-17_14h04.31.668,vts_reward_expectancy_bt_OFFLINE,2022.2.4,59.952219880520786,
,,,,,,,,,,,,,,,,,,,,,,,,,,,,,,,,,,0,0,0,0,1,0,1,0,,,,,,,,,,,,,,,,,,,,,,,,,,,,0,990,,,682.7153329369903,,,146,Y,circle,0.009582497994415462,,,,,1,0,,,2,,,,,,,,,678.1877622700122,678.1877622700122,678.1877622700122,678.1877622700122,679.6952993049927,679.6952993049927,679.6952993049927,679.6952993049927,679.6952993049927,679.6952993049927,679.6952993049927,679.6952993049927,,,,,switch,number,numSwt,d,vtsPrac,681.2133775299881,,1.485880524996901,,,,,,,,,,,,,,,,,,,,,,,,82645,2022-11-17_14h04.31.668,vts_reward_expectancy_bt_OFFLINE,2022.2.4,59.952219880520786,
,,,,,,,,,,,,,,,,,,,,,,,,,,,,,,,,,,0,0,0,0,2,0,2,0,,,,,,,,,,,,,,,,,,,,,,,,,,,,0,990,,,687.8208955790033,,,174,W,triangle,0.001989706011954695,,,,,1,0,,,2,,,,,,,,,683.6932719459874,683.6932719459874,683.6932719459874,683.6932719459874,685.2015590480005,685.2015590480005,685.2015590480005,685.2015590480005,685.2015590480005,685.2015590480005,685.2015590480005,685.2015590480005,,,,,repeat,number,numRpt,f,vtsPrac,686.3192128509982,,1.0859923509997316,,,,,,,,,,,,,,,,,,,,,,,,82645,2022-11-17_14h04.31.668,vts_reward_expectancy_bt_OFFLINE,2022.2.4,59.952219880520786,
,,,,,,,,,,,,,,,,,,,,,,,,,,,,,,,,,,0,0,0,0,3,0,3,0,,,,,,,,,,,,,,,,,,,,,,,,,,,,0,990,,,692.7762359429908,,,160,B,star,0.0016910539998207241,,,,,1,0,,,2,,,,,,,,,688.7996332560142,688.7996332560142,688.7996332560142,688.7996332560142,690.3067364949966,690.3067364949966,690.3067364949966,690.3067364949966,690.3067364949966,690.3067364949966,690.3067364949966,690.3067364949966,,,,,switch,letter,lettSwt,j,vtsPrac,691.2744299070037,,0.9421607730037067,,,,,,,,,,,,,,,,,,,,,,,,82645,2022-11-17_14h04.31.668,vts_reward_expectancy_bt_OFFLINE,2022.2.4,59.952219880520786,
,,,,,,,,,,,,,,,,,,,,,,,,,,,,,,,,,,0,0,0,0,4,0,4,0,,,,,,,,,,,,,,,,,,,,,,,,,,,,0,990,,,698.4324325720081,,,167,H,triangle,0.0014019090158399194,,,,,1,0,,,2,,,,,,,,,693.7533197159937,693.7533197159937,693.7533197159937,693.7533197159937,695.2622450790077,695.2622450790077,695.2622450790077,695.2622450790077,695.2622450790077,695.2622450790077,695.2622450790077,695.2622450790077,,,,,switch,number,numSwt,f,vtsPrac,696.9308479549945,,1.6362849650031421,,,,,,,,,,,,,,,,,,,,,,,,82645,2022-11-17_14h04.31.668,vts_reward_expectancy_bt_OFFLINE,2022.2.4,59.952219880520786,
,,,,,,,,,,,,,,,,,,,,,,,,,,,,,,,,,,0,0,0,0,5,0,5,0,,,,,,,,,,,,,,,,,,,,,,,,,,,,0,990,,,703.2211990760115,,,146,Y,hexagon,0.0014839099894743413,,,,,1,0,,,2,,,,,,,,,699.410325534991,699.410325534991,699.410325534991,699.410325534991,700.9184768520063,700.9184768520063,700.9184768520063,700.9184768520063,700.9184768520063,700.9184768520063,700.9184768520063,700.9184768520063,,,,,switch,letter,lettSwt,k,vtsPrac,701.719381967996,,0.7723829169990495,,,,,,,,,,,,,,,,,,,,,,,,82645,2022-11-17_14h04.31.668,vts_reward_expectancy_bt_OFFLINE,2022.2.4,59.952219880520786,
,,,,,,,,,,,,,,,,,,,,,,,,,,,,,,,,,,0,0,0,0,6,0,6,0,,,,,,,,,,,,,,,,,,,,,,,,,,,,0,990,,,708.1099899600085,,,174,W,triangle,0.0014711599797010422,,,,,1,0,,,2,,,,,,,,,704.1987403199892,704.1987403199892,704.1987403199892,704.1987403199892,705.7071569479886,705.7071569479886,705.7071569479886,705.7071569479886,705.7071569479886,705.7071569479886,705.7071569479886,705.7071569479886,,,,,switch,number,numSwt,f,vtsPrac,706.6085349729983,,0.8759288960136473,,,,,,,,,,,,,,,,,,,,,,,,82645,2022-11-17_14h04.31.668,vts_reward_expectancy_bt_OFFLINE,2022.2.4,59.952219880520786,
,,,,,,,,,,,,,,,,,,,,,,,,,,,,,,,,,,0,0,0,0,7,0,7,0,,,,,,,,,,,,,,,,,,,,,,,,,,,,0,990,,,712.9317358460103,,,160,B,circle,0.0017849690048024058,,,,,1,0,,,2,,,,,,,,,709.0869651100074,709.0869651100074,709.0869651100074,709.0869651100074,710.5961750579881,710.5961750579881,710.5961750579881,710.5961750579881,710.5961750579881,710.5961750579881,710.5961750579881,710.5961750579881,,,,,switch,letter,lettSwt,j,vtsPrac,711.43015753699,,0.8150785160250962,,,,,,,,,,,,,,,,,,,,,,,,82645,2022-11-17_14h04.31.668,vts_reward_expectancy_bt_OFFLINE,2022.2.4,59.952219880520786,
,,,,,,,,,,,,,,,,,,,,,,,,,,,,,,,,,,0,0,0,0,8,0,8,0,,,,,,,,,,,,,,,,,,,,,,,,,,,,0,990,,,717.820451868989,,,146,H,circle,0.000997799972537905,,,,,1,0,,,2,,,,,,,,,713.9094253930089,713.9094253930089,713.9094253930089,713.9094253930089,715.4178841510147,715.4178841510147,715.4178841510147,715.4178841510147,715.4178841510147,715.4178841510147,715.4178841510147,715.4178841510147,,,,,repeat,letter,lettRpt,j,vtsPrac,716.3187843670021,,0.875651934009511,,,,,,,,,,,,,,,,,,,,,,,,82645,2022-11-17_14h04.31.668,vts_reward_expectancy_bt_OFFLINE,2022.2.4,59.952219880520786,
,,,,,,,,,,,,,,,,,,,,,,,,,,,,,,,,,,0,0,0,0,9,0,9,0,,,,,,,,,,,,,,,,,,,,,,,,,,,,0,990,,,722.9260302339972,,,160,B,hexagon,0.0016171220049727708,,,,,1,0,,,2,,,,,,,,,718.7972020969901,718.7972020969901,718.7972020969901,718.7972020969901,720.3065022540104,720.3065022540104,720.3065022540104,720.3065022540104,720.3065022540104,720.3065022540104,720.3065022540104,720.3065022540104,,,,,repeat,letter,lettRpt,j,vtsPrac,721.424514977989,,1.0936935619974975,,,,,,,,,,,,,,,,,,,,,,,,82645,2022-11-17_14h04.31.668,vts_reward_expectancy_bt_OFFLINE,2022.2.4,59.952219880520786,
,,,,,,,,,,,,,,,,,,,,,,,,,,,,,,,,,,0,0,0,0,10,0,10,0,,,,,,,,,,,,,,,,,,,,,,,,,,,,0,990,,,727.7147413720086,,,174,F,hexagon,0.001600659015821293,,,,,1,0,,,2,,,,,,,,,723.9047137229936,723.9047137229936,723.9047137229936,723.9047137229936,725.4121905599895,725.4121905599895,725.4121905599895,725.4121905599895,725.4121905599895,725.4121905599895,725.4121905599895,725.4121905599895,,,,,switch,number,numSwt,f,vtsPrac,726.2129828959878,,0.7685452600126155,,,,,,,,,,,,,,,,,,,,,,,,82645,2022-11-17_14h04.31.668,vts_reward_expectancy_bt_OFFLINE,2022.2.4,59.952219880520786,
,,,,,,,,,,,,,,,,,,,,,,,,,,,,,,,,,,0,0,0,0,11,0,11,0,,,,,,,,,,,,,,,,,,,,,,,,,,,,0,990,,,732.4201462370111,,,167,W,circle,0.0016282570140901953,,,,,1,0,,,2,,,,,,,,,728.6921896720014,728.6921896720014,728.6921896720014,728.6921896720014,730.2011150770122,730.2011150770122,730.2011150770122,730.2011150770122,730.2011150770122,730.2011150770122,730.2011150770122,730.2011150770122,,,,,repeat,number,numRpt,f,vtsPrac,730.9185289239977,,0.6944214710092638,,,,,,,,,,,,,,,,,,,,,,,,82645,2022-11-17_14h04.31.668,vts_reward_expectancy_bt_OFFLINE,2022.2.4,59.952219880520786,
,,,,,,,,,,,,,,,,,,,,,,,,,,,,,,,,,,0,0,0,0,12,0,12,0,,,,,,,,,,,,,,,,,,,,,,,,,,,,0,990,,,737.1417964299908,,,125,W,star,0.00148366202483885,,,,,1,0,,,2,,,,,,,,,733.3967796390061,733.3967796390061,733.3967796390061,733.3967796390061,734.9060677890084,734.9060677890084,734.9060677890084,734.9060677890084,734.9060677890084,734.9060677890084,734.9060677890084,734.9060677890084,,,,,switch,letter,lettSwt,k,vtsPrac,735.6401049910055,,0.7146947209839709,,,,,,,,,,,,,,,,,,,,,,,,82645,2022-11-17_14h04.31.668,vts_reward_expectancy_bt_OFFLINE,2022.2.4,59.952219880520786,
,,,,,,,,,,,,,,,,,,,,,,,,,,,,,,,,,,0,0,0,0,13,0,13,0,,,,,,,,,,,,,,,,,,,,,,,,,,,,0,990,,,741.8969222890155,,,181,D,triangle,0.0012195429881103337,,,,,1,0,,,2,,,,,,,,,738.121142996999,738.121142996999,738.121142996999,738.121142996999,739.6279936560022,739.6279936560022,739.6279936560022,739.6279936560022,739.6279936560022,739.6279936560022,739.6279936560022,739.6279936560022,,,,,repeat,letter,lettRpt,j,vtsPrac,740.3953915940074,,0.7400378700112924,,,,,,,,,,,,,,,,,,,,,,,,82645,2022-11-17_14h04.31.668,vts_reward_expectancy_bt_OFFLINE,2022.2.4,59.952219880520786,
,,,,,,,,,,,,,,,,,,,,,,,,,,,,,,,,,,0,0,0,0,14,0,14,0,,,,,,,,,,,,,,,,,,,,,,,,,,,,0,990,,,746.8689327780157,,,139,Y,triangle,0.0013704579905606806,,,,,1,0,,,2,,,,,,,,,742.8759370990156,742.8759370990156,742.8759370990156,742.8759370990156,744.3829993180116,744.3829993180116,744.3829993180116,744.3829993180116,744.3829993180116,744.3829993180116,744.3829993180116,744.3829993180116,,,,,switch,number,numSwt,d,vtsPrac,745.3675083190028,,0.9588459369842894,,,,,,,,,,,,,,,,,,,,,,,,82645,2022-11-17_14h04.31.668,vts_reward_expectancy_bt_OFFLINE,2022.2.4,59.952219880520786,
,,,,,,,,,,,,,,,,,,,,,,,,,,,,,,,,,,0,0,0,0,15,0,15,0,,,,,,,,,,,,,,,,,,,,,,,,,,,,0,990,,,751.7244316250144,,,132,U,circle,0.0016764989995863289,,,,,1,0,,,2,,,,,,,,,747.8478166369896,747.8478166369896,747.8478166369896,747.8478166369896,749.3555409330002,749.3555409330002,749.3555409330002,749.3555409330002,749.3555409330002,749.3555409330002,749.3555409330002,749.3555409330002,,,,,repeat,number,numRpt,d,vtsPrac,750.2230539009906,,0.8352223139954731,,,,,,,,,,,,,,,,,,,,,,,,82645,2022-11-17_14h04.31.668,vts_reward_expectancy_bt_OFFLINE,2022.2.4,59.952219880520786,
,,,,,,,,,,,,,,,,,,,,,,,,,,,,,,,,,,0,0,0,0,16,0,16,0,,,,,,,,,,,,,,,,,,,,,,,,,,,,0,990,,,756.4463138169958,,,139,D,hexagon,0.0017907209985423833,,,,,1,0,,,2,,,,,,,,,752.7026359130105,752.7026359130105,752.7026359130105,752.7026359130105,754.2106866879913,754.2106866879913,754.2106866879913,754.2106866879913,754.2106866879913,754.2106866879913,754.2106866879913,754.2106866879913,,,,,repeat,number,numRpt,d,vtsPrac,754.9447014490142,,0.7040667480032425,,,,,,,,,,,,,,,,,,,,,,,,82645,2022-11-17_14h04.31.668,vts_reward_expectancy_bt_OFFLINE,2022.2.4,59.952219880520786,
,,,,,,,,,,,,,,,,,,,,,,,,,,,,,,,,,,0,0,0,0,17,0,17,0,,,,,,,,,,,,,,,,,,,,,,,,,,,,0,990,,,761.2849767660082,,,181,W,star,0.0011670279782265425,,,,,1,0,,,2,,,,,,,,,757.4246883270098,757.4246883270098,757.4246883270098,757.4246883270098,758.9324136780051,758.9324136780051,758.9324136780051,758.9324136780051,758.9324136780051,758.9324136780051,758.9324136780051,758.9324136780051,,,,,repeat,number,numRpt,f,vtsPrac,759.7834440190054,,0.8195323369873222,,,,,,,,,,,,,,,,,,,,,,,,82645,2022-11-17_14h04.31.668,vts_reward_expectancy_bt_OFFLINE,2022.2.4,59.952219880520786,
,,,,,,,,,,,,,,,,,,,,,,,,,,,,,,,,,,0,0,0,0,18,0,18,0,,,,,,,,,,,,,,,,,,,,,,,,,,,,0,990,,,766.1238439230074,,,132,U,star,0.0014610019861720502,,,,,1,0,,,2,,,,,,,,,762.2643123870075,762.2643123870075,762.2643123870075,762.2643123870075,763.7710599220009,763.7710599220009,763.7710599220009,763.7710599220009,763.7710599220009,763.7710599220009,763.7710599220009,763.7710599220009,,,,,repeat,number,numRpt,d,vtsPrac,764.622020550014,,0.8188325840164907,,,,,,,,,,,,,,,,,,,,,,,,82645,2022-11-17_14h04.31.668,vts_reward_expectancy_bt_OFFLINE,2022.2.4,59.952219880520786,
,,,,,,,,,,,,,,,,,,,,,,,,,,,,,,,,,,0,0,0,0,19,0,19,0,,,,,,,,,,,,,,,,,,,,,,,,,,,,0,990,,,770.9956501109991,,,125,S,hexagon,0.0017590370262041688,,,,,1,0,,,2,,,,,,,,,767.102368472988,767.102368472988,767.102368472988,767.102368472988,768.6097202480014,768.6097202480014,768.6097202480014,768.6097202480014,768.6097202480014,768.6097202480014,768.6097202480014,768.6097202480014,,,,,switch,letter,lettSwt,k,vtsPrac,769.4940045340045,,0.8625297689868603,,,,,,,,,,,,,,,,,,,,,,,,82645,2022-11-17_14h04.31.668,vts_reward_expectancy_bt_OFFLINE,2022.2.4,59.952219880520786,
,,,,,,,,,,,,,,,,,,,,,,,,,,,,,,,,,,0,0,0,0,20,0,20,0,,,,,,,,,,,,,,,,,,,,,,,,,,,,0,990,,,776.101392903016,,,125,F,circle,0.0016343420138582587,,,,,1,0,,,2,,,,,,,,,771.9734243729908,771.9734243729908,771.9734243729908,771.9734243729908,773.4818143089942,773.4818143089942,773.4818143089942,773.4818143089942,773.4818143089942,773.4818143089942,773.4818143089942,773.4818143089942,,,,,switch,number,numSwt,d,vtsPrac,774.5996849620133,,1.0882618880132213,,,,,,,,,,,,,,,,,,,,,,,,82645,2022-11-17_14h04.31.668,vts_reward_expectancy_bt_OFFLINE,2022.2.4,59.952219880520786,
,,,,,,,,,,,,,,,,,,,,,,,,,,,,,,,,,,0,0,0,0,21,0,21,0,,,,,,,,,,,,,,,,,,,,,,,,,,,,0,990,,,780.8397886650055,,,160,D,star,0.00161272898549214,,,,,1,0,,,2,,,,,,,,,777.0799697359907,777.0799697359907,777.0799697359907,777.0799697359907,778.5874057720066,778.5874057720066,778.5874057720066,778.5874057720066,778.5874057720066,778.5874057720066,778.5874057720066,778.5874057720066,,,,,switch,letter,lettSwt,j,vtsPrac,779.3381917460065,,0.7187423069844954,,,,,,,,,,,,,,,,,,,,,,,,82645,2022-11-17_14h04.31.668,vts_reward_expectancy_bt_OFFLINE,2022.2.4,59.952219880520786,
,,,,,,,,,,,,,,,,,,,,,,,,,,,,,,,,,,0,0,0,0,22,0,22,0,,,,,,,,,,,,,,,,,,,,,,,,,,,,0,990,,,785.6286445820006,,,132,Y,hexagon,0.0016654070059303194,,,,,1,0,,,2,,,,,,,,,781.8173289090046,781.8173289090046,781.8173289090046,781.8173289090046,783.3260980279883,783.3260980279883,783.3260980279883,783.3260980279883,783.3260980279883,783.3260980279883,783.3260980279883,783.3260980279883,,,,,switch,number,numSwt,d,vtsPrac,784.1269719720003,,0.7726584459887818,,,,,,,,,,,,,,,,,,,,,,,,82645,2022-11-17_14h04.31.668,vts_reward_expectancy_bt_OFFLINE,2022.2.4,59.952219880520786,
,,,,,,,,,,,,,,,,,,,,,,,,,,,,,,,,,,0,0,0,0,23,0,23,0,,,,,,,,,,,,,,,,,,,,,,,,,,,,0,990,,,790.5506463279889,,,146,W,triangle,0.0015693409950472414,,,,,1,0,,,2,,,,,,,,,786.6065084910078,786.6065084910078,786.6065084910078,786.6065084910078,788.114837613015,788.114837613015,788.114837613015,788.114837613015,788.114837613015,788.114837613015,788.114837613015,788.114837613015,,,,,repeat,number,numRpt,d,vtsPrac,789.0490675299952,,0.9116389509872533,,,,,,,,,,,,,,,,,,,,,,,,82645,2022-11-17_14h04.31.668,vts_reward_expectancy_bt_OFFLINE,2022.2.4,59.952219880520786,
,,,,,,,,,,,,,,,,,,,,,,,,,,,,,,,,,,0,0,0,0,24,0,24,0,,,,,,,,,,,,,,,,,,,,,,,,,,,,0,990,,,795.2560153969971,,,125,D,circle,0.0015548900119028986,,,,,1,0,,,2,,,,,,,,,791.5283901020011,791.5283901020011,791.5283901020011,791.5283901020011,793.0367781179957,793.0367781179957,793.0367781179957,793.0367781179957,793.0367781179957,793.0367781179957,793.0367781179957,793.0367781179957,,,,,switch,letter,lettSwt,j,vtsPrac,793.7542274229927,,0.6911933009978384,,,,,,,,,,,,,,,,,,,,,,,,82645,2022-11-17_14h04.31.668,vts_reward_expectancy_bt_OFFLINE,2022.2.4,59.952219880520786,
,,,,,,,,,,,,,,,,,,,,,,,,,,,,,,,,,,0,0,0,0,25,0,25,0,,,,,,,,,,,,,,,,,,,,,,,,,,,,0,990,,,800.1445560769935,,,146,H,hexagon,0.0016687429742887616,,,,,1,0,,,2,,,,,,,,,796.2337720810028,796.2337720810028,796.2337720810028,796.2337720810028,797.742257439997,797.742257439997,797.742257439997,797.742257439997,797.742257439997,797.742257439997,797.742257439997,797.742257439997,,,,,switch,number,numSwt,d,vtsPrac,798.6430076409888,,0.868459860997973,,,,,,,,,,,,,,,,,,,,,,,,82645,2022-11-17_14h04.31.668,vts_reward_expectancy_bt_OFFLINE,2022.2.4,59.952219880520786,
,,,,,,,,,,,,,,,,,,,,,,,,,,,,,,,,,,0,0,0,0,26,0,26,0,,,,,,,,,,,,,,,,,,,,,,,,,,,,0,990,,,804.9163228819962,,,181,U,star,0.0018172220152337104,,,,,1,0,,,2,,,,,,,,,801.1223596289929,801.1223596289929,801.1223596289929,801.1223596289929,802.6306115679909,802.6306115679909,802.6306115679909,802.6306115679909,802.6306115679909,802.6306115679909,802.6306115679909,802.6306115679909,,,,,switch,letter,lettSwt,k,vtsPrac,803.4147327200044,,0.752224973984994,,,,,,,,,,,,,,,,,,,,,,,,82645,2022-11-17_14h04.31.668,vts_reward_expectancy_bt_OFFLINE,2022.2.4,59.952219880520786,
,,,,,,,,,,,,,,,,,,,,,,,,,,,,,,,,,,0,0,0,0,27,0,27,0,,,,,,,,,,,,,,,,,,,,,,,,,,,,0,990,,,809.6050321199873,,,160,W,hexagon,0.0014195109833963215,,,,,1,0,,,2,,,,,,,,,805.8941884769883,805.8941884769883,805.8941884769883,805.8941884769883,807.4025218140159,807.4025218140159,807.4025218140159,807.4025218140159,807.4025218140159,807.4025218140159,807.4025218140159,807.4025218140159,,,,,repeat,letter,lettRpt,k,vtsPrac,808.103319640999,,0.6817565240198746,,,,,,,,,,,,,,,,,,,,,,,,82645,2022-11-17_14h04.31.668,vts_reward_expectancy_bt_OFFLINE,2022.2.4,59.952219880520786,
,,,,,,,,,,,,,,,,,,,,,,,,,,,,,,,,,,0,0,0,0,28,0,28,0,,,,,,,,,,,,,,,,,,,,,,,,,,,,0,990,,,814.1936060810112,,,132,Y,circle,0.0010423269995953888,,,,,1,0,,,2,,,,,,,,,810.5828299210116,810.5828299210116,810.5828299210116,810.5828299210116,812.0911293780082,812.0911293780082,812.0911293780082,812.0911293780082,812.0911293780082,812.0911293780082,812.0911293780082,812.0911293780082,,,,,repeat,letter,lettRpt,k,vtsPrac,812.691817517014,,0.5723475599952508,,,,,,,,,,,,,,,,,,,,,,,,82645,2022-11-17_14h04.31.668,vts_reward_expectancy_bt_OFFLINE,2022.2.4,59.952219880520786,
