LTriangleOpac,LCircleOpac,LHexagonOpac,LStarOpac,RTriangleOpac,RCircleOpac,RHexagonOpac,RStarOpac,LShape_ID,RShape_ID,training_blocks.thisRepN,training_blocks.thisTrialN,training_blocks.thisN,training_blocks.thisIndex,training.thisRepN,training.thisTrialN,training.thisN,training.thisIndex,task1_prac_redo.thisRepN,task1_prac_redo.thisTrialN,task1_prac_redo.thisN,task1_prac_redo.thisIndex,task1_prac_trials.thisRepN,task1_prac_trials.thisTrialN,task1_prac_trials.thisN,task1_prac_trials.thisIndex,task2_prac_redo.thisRepN,task2_prac_redo.thisTrialN,task2_prac_redo.thisN,task2_prac_redo.thisIndex,task2_praac_trials.thisRepN,task2_praac_trials.thisTrialN,task2_praac_trials.thisN,task2_praac_trials.thisIndex,vts_prac_redo.thisRepN,vts_prac_redo.thisTrialN,vts_prac_redo.thisN,vts_prac_redo.thisIndex,vts_practice_trials.thisRepN,vts_practice_trials.thisTrialN,vts_practice_trials.thisN,vts_practice_trials.thisIndex,trials_norew.thisRepN,trials_norew.thisTrialN,trials_norew.thisN,trials_norew.thisIndex,block.thisRepN,block.thisTrialN,block.thisN,block.thisIndex,trials_rew.thisRepN,trials_rew.thisTrialN,trials_rew.thisN,trials_rew.thisIndex,key_resp.started,key_resp.keys,key_resp.rt,left_circle.started,right_circle.started,left_triangle.started,right_triangle.started,left_star.started,right_star.started,left_hexagon.started,right_hexagon.started,training_fix.started,training_resp.started,training_resp.keys,training_resp.rt,points_trial,points_cumul,trainBlock,training_feedback_txt.started,fix.started,training_feedback_txt.stopped,fix.stopped,curr_topStim,curr_bottStim,curr_shape,ISI.started,tgt_fix_prac1.started,top_target_prac1.started,bott_target_prac1.started,target_resp_prac1.started,acc,E1,target_resp_prac1.keys,target_resp_prac1.rt,pracBlock,prac_fback_text.started,prac_fback_text.stopped,tgt_fix_prac2.started,top_target_prac2.started,bott_target_prac2.started,target_resp_prac2.started,target_resp_prac2.keys,target_resp_prac2.rt,star.started,hegagon.started,triangle.started,circle.started,top_target.started,tgt_fix.started,bot_target.started,target_resp.started,star.stopped,hegagon.stopped,triangle.stopped,circle.stopped,alt,task,condition,target_resp.keys,target_resp.rt,rewCond,vts_fback.started,vts_fback.stopped,blockNum,norew_fback.started,norew_fback.stopped,key_resp_2.keys,key_resp_2.rt,rewExpectancy,feedbk_text.started,feedbk_text.stopped,text_3.started,debrief.started,text_3.stopped,button.started,debrief.index,debrief.itemText,debrief.type,debrief.granularity,debrief.font,debrief.markerColor,debrief.response,debrief.rt,button.numClicks,button.timesOn,button.timesOff,participant,date,expName,psychopyVersion,frameRate,
,,,,,,,,,,,,,,,,,,,,,,,,,,,,,,,,,,,,,,,,,,,,,,,,,,,,,,1110.7914618379436,space,40.62346857925877,,,,,,,,,,,,,,,,,,,,,,,,,,,,,,,,,,,,,,,,,,,,,,,,,,,,,,,,,,,,,,,,,,,,,,,,,,,,,,,,,,,,82866,2022-11-22_10h17.46.575,vts_reward_expectancy_bt_OFFLINE,2022.2.4,59.95814850278986,
0,0,0,1,0,1,0,0,star ,circle,0,0,0,0,0,0,0,10,,,,,,,,,,,,,,,,,,,,,,,,,,,,,,,,,,,,,,,,1173.5060905818827,1173.5060905818827,1173.5060905818827,1173.5060905818827,1173.5060905818827,1173.5060905818827,1173.5060905818827,1173.5060905818827,1173.5060905818827,1173.5060905818827,a,1.2082302141934633,0,0,0,1174.7449728809297,1176.259756454965,,,,,,,,,,,,,,,,,,,,,,,,,,,,,,,,,,,,,,,,,,,,,,,,,,,,,,,,,,,,,,,,,,,82866,2022-11-22_10h17.46.575,vts_reward_expectancy_bt_OFFLINE,2022.2.4,59.95814850278986,
0,1,0,0,0,0,0,1,circle,star,0,0,0,0,0,1,1,5,,,,,,,,,,,,,,,,,,,,,,,,,,,,,,,,,,,,,,,,1176.759863305837,1176.759863305837,1176.759863305837,1176.759863305837,1176.759863305837,1176.759863305837,1176.759863305837,1176.759863305837,1176.759863305837,1176.759863305837,a,1.0267073202412575,1,1,0,1177.813869623933,1179.329429310048,,,,,,,,,,,,,,,,,,,,,,,,,,,,,,,,,,,,,,,,,,,,,,,,,,,,,,,,,,,,,,,,,,,82866,2022-11-22_10h17.46.575,vts_reward_expectancy_bt_OFFLINE,2022.2.4,59.95814850278986,
1,0,0,0,0,1,0,0,triangle,circle,0,0,0,0,0,2,2,0,,,,,,,,,,,,,,,,,,,,,,,,,,,,,,,,,,,,,,,,1179.829530875897,1179.829530875897,1179.829530875897,1179.829530875897,1179.829530875897,1179.829530875897,1179.829530875897,1179.829530875897,1179.829530875897,1179.829530875897,a,1.466332073090598,10,11,0,1181.3148276668508,1182.8158336218912,,,,,,,,,,,,,,,,,,,,,,,,,,,,,,,,,,,,,,,,,,,,,,,,,,,,,,,,,,,,,,,,,,,82866,2022-11-22_10h17.46.575,vts_reward_expectancy_bt_OFFLINE,2022.2.4,59.95814850278986,
0,1,0,0,1,0,0,0,circle,triangle,0,0,0,0,0,3,3,3,,,,,,,,,,,,,,,,,,,,,,,,,,,,,,,,,,,,,,,,1183.3161181809846,1183.3161181809846,1183.3161181809846,1183.3161181809846,1183.3161181809846,1183.3161181809846,1183.3161181809846,1183.3161181809846,1183.3161181809846,1183.3161181809846,l,0.6695658462122083,1,12,0,1184.0177394049242,1185.5168188218959,1185.5168188218959,1186.0168625570368,,,,,,,,,,,,,,,,,,,,,,,,,,,,,,,,,,,,,,,,,,,,,,,,,,,,,,,,,,,,,,,,,82866,2022-11-22_10h17.46.575,vts_reward_expectancy_bt_OFFLINE,2022.2.4,59.95814850278986,
0,0,1,0,0,0,0,1,hexagon,star,0,0,0,0,0,4,4,8,,,,,,,,,,,,,,,,,,,,,,,,,,,,,,,,,,,,,,,,1186.0168625570368,1186.0168625570368,1186.0168625570368,1186.0168625570368,1186.0168625570368,1186.0168625570368,1186.0168625570368,1186.0168625570368,1186.0168625570368,1186.0168625570368,l,0.983314756071195,1,13,0,1187.0174388508312,1188.519836655818,,,,,,,,,,,,,,,,,,,,,,,,,,,,,,,,,,,,,,,,,,,,,,,,,,,,,,,,,,,,,,,,,,,82866,2022-11-22_10h17.46.575,vts_reward_expectancy_bt_OFFLINE,2022.2.4,59.95814850278986,
0,1,0,0,0,0,1,0,circle,hexagon,0,0,0,0,0,5,5,4,,,,,,,,,,,,,,,,,,,,,,,,,,,,,,,,,,,,,,,,1189.0198628630023,1189.0198628630023,1189.0198628630023,1189.0198628630023,1189.0198628630023,1189.0198628630023,1189.0198628630023,1189.0198628630023,1189.0198628630023,1189.0198628630023,l,0.917289380216971,10,23,0,1189.9554010599386,1191.4707954698242,,,,,,,,,,,,,,,,,,,,,,,,,,,,,,,,,,,,,,,,,,,,,,,,,,,,,,,,,,,,,,,,,,,82866,2022-11-22_10h17.46.575,vts_reward_expectancy_bt_OFFLINE,2022.2.4,59.95814850278986,
1,0,0,0,0,0,0,1,triangle,star,0,0,0,0,0,6,6,2,,,,,,,,,,,,,,,,,,,,,,,,,,,,,,,,,,,,,,,,1191.9712205058895,1191.9712205058895,1191.9712205058895,1191.9712205058895,1191.9712205058895,1191.9712205058895,1191.9712205058895,1191.9712205058895,1191.9712205058895,1191.9712205058895,a,1.1276552071794868,1,24,0,1193.1244859928265,1194.6238763679285,1194.6238763679285,1195.1241151939612,,,,,,,,,,,,,,,,,,,,,,,,,,,,,,,,,,,,,,,,,,,,,,,,,,,,,,,,,,,,,,,,,82866,2022-11-22_10h17.46.575,vts_reward_expectancy_bt_OFFLINE,2022.2.4,59.95814850278986,
0,0,0,1,0,0,1,0,star,hexagon,0,0,0,0,0,7,7,11,,,,,,,,,,,,,,,,,,,,,,,,,,,,,,,,,,,,,,,,1195.1241151939612,1195.1241151939612,1195.1241151939612,1195.1241151939612,1195.1241151939612,1195.1241151939612,1195.1241151939612,1195.1241151939612,1195.1241151939612,1195.1241151939612,l,1.7651604101993144,10,34,0,1196.909458626993,1198.410332718864,,,,,,,,,,,,,,,,,,,,,,,,,,,,,,,,,,,,,,,,,,,,,,,,,,,,,,,,,,,,,,,,,,,82866,2022-11-22_10h17.46.575,vts_reward_expectancy_bt_OFFLINE,2022.2.4,59.95814850278986,
1,0,0,0,0,0,1,0,triangle,hexagon,0,0,0,0,0,8,8,1,,,,,,,,,,,,,,,,,,,,,,,,,,,,,,,,,,,,,,,,1198.9107267558575,1198.9107267558575,1198.9107267558575,1198.9107267558575,1198.9107267558575,1198.9107267558575,1198.9107267558575,1198.9107267558575,1198.9107267558575,1198.9107267558575,l,1.0950140161439776,10,44,0,1200.0277436808683,1201.5282838249113,1201.5282838249113,,,,,,,,,,,,,,,,,,,,,,,,,,,,,,,,,,,,,,,,,,,,,,,,,,,,,,,,,,,,,,,,,,82866,2022-11-22_10h17.46.575,vts_reward_expectancy_bt_OFFLINE,2022.2.4,59.95814850278986,
0,0,0,1,1,0,0,0,star,triangle,0,0,0,0,0,9,9,9,,,,,,,,,,,,,,,,,,,,,,,,,,,,,,,,,,,,,,,,1202.0283328769729,1202.0283328769729,1202.0283328769729,1202.0283328769729,1202.0283328769729,1202.0283328769729,1202.0283328769729,1202.0283328769729,1202.0283328769729,1202.0283328769729,a,0.8125128771644086,1,45,0,1202.865121675888,1204.3644220288843,1204.3644220288843,1204.864557351917,,,,,,,,,,,,,,,,,,,,,,,,,,,,,,,,,,,,,,,,,,,,,,,,,,,,,,,,,,,,,,,,,82866,2022-11-22_10h17.46.575,vts_reward_expectancy_bt_OFFLINE,2022.2.4,59.95814850278986,
0,0,1,0,0,1,0,0,hexagon,circle,0,0,0,0,0,10,10,7,,,,,,,,,,,,,,,,,,,,,,,,,,,,,,,,,,,,,,,,1204.864557351917,1204.864557351917,1204.864557351917,1204.864557351917,1204.864557351917,1204.864557351917,1204.864557351917,1204.864557351917,1204.864557351917,1204.864557351917,a,0.8451762781478465,1,46,0,1205.7314558839425,1207.2372063610237,,,,,,,,,,,,,,,,,,,,,,,,,,,,,,,,,,,,,,,,,,,,,,,,,,,,,,,,,,,,,,,,,,,82866,2022-11-22_10h17.46.575,vts_reward_expectancy_bt_OFFLINE,2022.2.4,59.95814850278986,
0,0,1,0,1,0,0,0,hexagon,triangle,0,0,0,0,0,11,11,6,,,,,,,,,,,,,,,,,,,,,,,,,,,,,,,,,,,,,,,,1207.7340602229815,1207.7340602229815,1207.7340602229815,1207.7340602229815,1207.7340602229815,1207.7340602229815,1207.7340602229815,1207.7340602229815,1207.7340602229815,1207.7340602229815,a,0.8002517919521779,10,56,0,1208.552492955001,1210.0515112229623,1210.0515112229623,1210.5518614279572,,,,,,,,,,,,,,,,,,,,,,,,,,,,,,,,,,,,,,,,,,,,,,,,,,,,,,,,,,,,,,,,,82866,2022-11-22_10h17.46.575,vts_reward_expectancy_bt_OFFLINE,2022.2.4,59.95814850278986,
0,0,0,1,0,0,1,0,star,hexagon,0,0,0,0,1,0,12,11,,,,,,,,,,,,,,,,,,,,,,,,,,,,,,,,,,,,,,,,1210.5518614279572,1210.5518614279572,1210.5518614279572,1210.5518614279572,1210.5518614279572,1210.5518614279572,1210.5518614279572,1210.5518614279572,1210.5518614279572,1210.5518614279572,l,1.1106186141259968,10,66,0,1211.685410571983,1213.1878240848891,,,,,,,,,,,,,,,,,,,,,,,,,,,,,,,,,,,,,,,,,,,,,,,,,,,,,,,,,,,,,,,,,,,82866,2022-11-22_10h17.46.575,vts_reward_expectancy_bt_OFFLINE,2022.2.4,59.95814850278986,
0,0,1,0,1,0,0,0,hexagon,triangle,0,0,0,0,1,1,13,6,,,,,,,,,,,,,,,,,,,,,,,,,,,,,,,,,,,,,,,,1213.6882361739408,1213.6882361739408,1213.6882361739408,1213.6882361739408,1213.6882361739408,1213.6882361739408,1213.6882361739408,1213.6882361739408,1213.6882361739408,1213.6882361739408,a,1.0220631891861558,10,76,0,1214.7384257339872,1216.238866257947,1216.238866257947,1216.7391097848304,,,,,,,,,,,,,,,,,,,,,,,,,,,,,,,,,,,,,,,,,,,,,,,,,,,,,,,,,,,,,,,,,82866,2022-11-22_10h17.46.575,vts_reward_expectancy_bt_OFFLINE,2022.2.4,59.95814850278986,
0,0,1,0,0,0,0,1,hexagon,star,0,0,0,0,1,2,14,8,,,,,,,,,,,,,,,,,,,,,,,,,,,,,,,,,,,,,,,,1216.7391097848304,1216.7391097848304,1216.7391097848304,1216.7391097848304,1216.7391097848304,1216.7391097848304,1216.7391097848304,1216.7391097848304,1216.7391097848304,1216.7391097848304,a,0.6045485271606594,1,77,0,1217.3757954980247,1218.8751179829706,1218.8751179829706,,,,,,,,,,,,,,,,,,,,,,,,,,,,,,,,,,,,,,,,,,,,,,,,,,,,,,,,,,,,,,,,,,82866,2022-11-22_10h17.46.575,vts_reward_expectancy_bt_OFFLINE,2022.2.4,59.95814850278986,
0,0,1,0,0,1,0,0,hexagon,circle,0,0,0,0,1,3,15,7,,,,,,,,,,,,,,,,,,,,,,,,,,,,,,,,,,,,,,,,1219.3751473058946,1219.3751473058946,1219.3751473058946,1219.3751473058946,1219.3751473058946,1219.3751473058946,1219.3751473058946,1219.3751473058946,1219.3751473058946,1219.3751473058946,a,0.6683350100647658,10,87,0,1220.0755665048491,1221.576199095929,1221.576199095929,1222.0761864499655,,,,,,,,,,,,,,,,,,,,,,,,,,,,,,,,,,,,,,,,,,,,,,,,,,,,,,,,,,,,,,,,,82866,2022-11-22_10h17.46.575,vts_reward_expectancy_bt_OFFLINE,2022.2.4,59.95814850278986,
0,0,0,1,0,1,0,0,star ,circle,0,0,0,0,1,4,16,10,,,,,,,,,,,,,,,,,,,,,,,,,,,,,,,,,,,,,,,,1222.0761864499655,1222.0761864499655,1222.0761864499655,1222.0761864499655,1222.0761864499655,1222.0761864499655,1222.0761864499655,1222.0761864499655,1222.0761864499655,1222.0761864499655,a,1.2856043211650103,10,97,0,1223.378572704969,1224.8791226448957,1224.8791226448957,1225.3792598550208,,,,,,,,,,,,,,,,,,,,,,,,,,,,,,,,,,,,,,,,,,,,,,,,,,,,,,,,,,,,,,,,,82866,2022-11-22_10h17.46.575,vts_reward_expectancy_bt_OFFLINE,2022.2.4,59.95814850278986,
0,1,0,0,0,0,0,1,circle,star,0,0,0,0,1,5,17,5,,,,,,,,,,,,,,,,,,,,,,,,,,,,,,,,,,,,,,,,1225.3792598550208,1225.3792598550208,1225.3792598550208,1225.3792598550208,1225.3792598550208,1225.3792598550208,1225.3792598550208,1225.3792598550208,1225.3792598550208,1225.3792598550208,l,1.121852886164561,10,107,0,1226.529750208836,1228.03186974884,,,,,,,,,,,,,,,,,,,,,,,,,,,,,,,,,,,,,,,,,,,,,,,,,,,,,,,,,,,,,,,,,,,82866,2022-11-22_10h17.46.575,vts_reward_expectancy_bt_OFFLINE,2022.2.4,59.95814850278986,
0,1,0,0,0,0,1,0,circle,hexagon,0,0,0,0,1,6,18,4,,,,,,,,,,,,,,,,,,,,,,,,,,,,,,,,,,,,,,,,1228.5322219738737,1228.5322219738737,1228.5322219738737,1228.5322219738737,1228.5322219738737,1228.5322219738737,1228.5322219738737,1228.5322219738737,1228.5322219738737,1228.5322219738737,l,0.6914437981322408,10,117,0,1229.2493147959467,1230.7496060749982,1230.7496060749982,1231.2500514429994,,,,,,,,,,,,,,,,,,,,,,,,,,,,,,,,,,,,,,,,,,,,,,,,,,,,,,,,,,,,,,,,,82866,2022-11-22_10h17.46.575,vts_reward_expectancy_bt_OFFLINE,2022.2.4,59.95814850278986,
0,1,0,0,1,0,0,0,circle,triangle,0,0,0,0,1,7,19,3,,,,,,,,,,,,,,,,,,,,,,,,,,,,,,,,,,,,,,,,1231.2500514429994,1231.2500514429994,1231.2500514429994,1231.2500514429994,1231.2500514429994,1231.2500514429994,1231.2500514429994,1231.2500514429994,1231.2500514429994,1231.2500514429994,l,1.067163224099204,10,127,0,1232.3355948599055,1233.8359264968894,1233.8359264968894,1234.3360781769734,,,,,,,,,,,,,,,,,,,,,,,,,,,,,,,,,,,,,,,,,,,,,,,,,,,,,,,,,,,,,,,,,82866,2022-11-22_10h17.46.575,vts_reward_expectancy_bt_OFFLINE,2022.2.4,59.95814850278986,
1,0,0,0,0,0,0,1,triangle,star,0,0,0,0,1,8,20,2,,,,,,,,,,,,,,,,,,,,,,,,,,,,,,,,,,,,,,,,1234.3360781769734,1234.3360781769734,1234.3360781769734,1234.3360781769734,1234.3360781769734,1234.3360781769734,1234.3360781769734,1234.3360781769734,1234.3360781769734,1234.3360781769734,a,1.0197010631673038,1,128,0,1235.3864978149068,1236.8868294779677,1236.8868294779677,,,,,,,,,,,,,,,,,,,,,,,,,,,,,,,,,,,,,,,,,,,,,,,,,,,,,,,,,,,,,,,,,,82866,2022-11-22_10h17.46.575,vts_reward_expectancy_bt_OFFLINE,2022.2.4,59.95814850278986,
1,0,0,0,0,1,0,0,triangle,circle,0,0,0,0,1,9,21,0,,,,,,,,,,,,,,,,,,,,,,,,,,,,,,,,,,,,,,,,1237.389249469852,1237.389249469852,1237.389249469852,1237.389249469852,1237.389249469852,1237.389249469852,1237.389249469852,1237.389249469852,1237.389249469852,1237.389249469852,a,0.8132493509911001,1,129,0,1238.222634790931,1239.723175000865,1239.723175000865,1240.2233746978454,,,,,,,,,,,,,,,,,,,,,,,,,,,,,,,,,,,,,,,,,,,,,,,,,,,,,,,,,,,,,,,,,82866,2022-11-22_10h17.46.575,vts_reward_expectancy_bt_OFFLINE,2022.2.4,59.95814850278986,
0,0,0,1,1,0,0,0,star,triangle,0,0,0,0,1,10,22,9,,,,,,,,,,,,,,,,,,,,,,,,,,,,,,,,,,,,,,,,1240.2233746978454,1240.2233746978454,1240.2233746978454,1240.2233746978454,1240.2233746978454,1240.2233746978454,1240.2233746978454,1240.2233746978454,1240.2233746978454,1240.2233746978454,l,1.4439985370263457,10,139,0,1241.6919295990374,1243.1930835088715,,,,,,,,,,,,,,,,,,,,,,,,,,,,,,,,,,,,,,,,,,,,,,,,,,,,,,,,,,,,,,,,,,,82866,2022-11-22_10h17.46.575,vts_reward_expectancy_bt_OFFLINE,2022.2.4,59.95814850278986,
1,0,0,0,0,0,1,0,triangle,hexagon,0,0,0,0,1,11,23,1,,,,,,,,,,,,,,,,,,,,,,,,,,,,,,,,,,,,,,,,1243.6930526748765,1243.6930526748765,1243.6930526748765,1243.6930526748765,1243.6930526748765,1243.6930526748765,1243.6930526748765,1243.6930526748765,1243.6930526748765,1243.6930526748765,l,0.7298899011220783,10,149,0,1244.4437043669168,1245.9439671779983,1245.9439671779983,,,,,,,,,,,,,,,,,,,,,,,,,,,,,,,,,,,,,,,,,,,,,,,,,,,,,,,,,,,,,,,,,,82866,2022-11-22_10h17.46.575,vts_reward_expectancy_bt_OFFLINE,2022.2.4,59.95814850278986,
0,0,0,1,0,1,0,0,star ,circle,0,0,0,0,2,0,24,10,,,,,,,,,,,,,,,,,,,,,,,,,,,,,,,,,,,,,,,,1246.4441658838186,1246.4441658838186,1246.4441658838186,1246.4441658838186,1246.4441658838186,1246.4441658838186,1246.4441658838186,1246.4441658838186,1246.4441658838186,1246.4441658838186,a,0.8259399081580341,10,159,0,1247.2981351059861,1248.8136829698924,,,,,,,,,,,,,,,,,,,,,,,,,,,,,,,,,,,,,,,,,,,,,,,,,,,,,,,,,,,,,,,,,,,82866,2022-11-22_10h17.46.575,vts_reward_expectancy_bt_OFFLINE,2022.2.4,59.95814850278986,
1,0,0,0,0,0,1,0,triangle,hexagon,0,0,0,0,2,1,25,1,,,,,,,,,,,,,,,,,,,,,,,,,,,,,,,,,,,,,,,,1249.3136722790077,1249.3136722790077,1249.3136722790077,1249.3136722790077,1249.3136722790077,1249.3136722790077,1249.3136722790077,1249.3136722790077,1249.3136722790077,1249.3136722790077,l,1.0505197059828788,1,160,0,1250.3826907798648,1251.8981975738425,,,,,,,,,,,,,,,,,,,,,,,,,,,,,,,,,,,,,,,,,,,,,,,,,,,,,,,,,,,,,,,,,,,82866,2022-11-22_10h17.46.575,vts_reward_expectancy_bt_OFFLINE,2022.2.4,59.95814850278986,
0,0,1,0,1,0,0,0,hexagon,triangle,0,0,0,0,2,2,26,6,,,,,,,,,,,,,,,,,,,,,,,,,,,,,,,,,,,,,,,,1252.3833821490407,1252.3833821490407,1252.3833821490407,1252.3833821490407,1252.3833821490407,1252.3833821490407,1252.3833821490407,1252.3833821490407,1252.3833821490407,1252.3833821490407,a,0.6246782511007041,1,161,0,1253.0337065448985,1254.5342072129715,1254.5342072129715,1255.0342895579524,,,,,,,,,,,,,,,,,,,,,,,,,,,,,,,,,,,,,,,,,,,,,,,,,,,,,,,,,,,,,,,,,82866,2022-11-22_10h17.46.575,vts_reward_expectancy_bt_OFFLINE,2022.2.4,59.95814850278986,
1,0,0,0,0,1,0,0,triangle,circle,0,0,0,0,2,3,27,0,,,,,,,,,,,,,,,,,,,,,,,,,,,,,,,,,,,,,,,,1255.0342895579524,1255.0342895579524,1255.0342895579524,1255.0342895579524,1255.0342895579524,1255.0342895579524,1255.0342895579524,1255.0342895579524,1255.0342895579524,1255.0342895579524,a,1.8542089730035514,10,171,0,1256.9198957178742,1258.4208302518819,,,,,,,,,,,,,,,,,,,,,,,,,,,,,,,,,,,,,,,,,,,,,,,,,,,,,,,,,,,,,,,,,,,82866,2022-11-22_10h17.46.575,vts_reward_expectancy_bt_OFFLINE,2022.2.4,59.95814850278986,
0,1,0,0,0,0,1,0,circle,hexagon,0,0,0,0,2,4,28,4,,,,,,,,,,,,,,,,,,,,,,,,,,,,,,,,,,,,,,,,1258.920934746042,1258.920934746042,1258.920934746042,1258.920934746042,1258.920934746042,1258.920934746042,1258.920934746042,1258.920934746042,1258.920934746042,1258.920934746042,l,0.5898039622697979,10,181,0,1259.537836574018,1261.0383436328266,1261.0383436328266,1261.5384141588584,,,,,,,,,,,,,,,,,,,,,,,,,,,,,,,,,,,,,,,,,,,,,,,,,,,,,,,,,,,,,,,,,82866,2022-11-22_10h17.46.575,vts_reward_expectancy_bt_OFFLINE,2022.2.4,59.95814850278986,
0,0,0,1,1,0,0,0,star,triangle,0,0,0,0,2,5,29,9,,,,,,,,,,,,,,,,,,,,,,,,,,,,,,,,,,,,,,,,1261.5384141588584,1261.5384141588584,1261.5384141588584,1261.5384141588584,1261.5384141588584,1261.5384141588584,1261.5384141588584,1261.5384141588584,1261.5384141588584,1261.5384141588584,a,0.661613104166463,1,182,0,1262.223391053034,1263.724589459831,,,,,,,,,,,,,,,,,,,,,,,,,,,,,,,,,,,,,,,,,,,,,,,,,,,,,,,,,,,,,,,,,,,82866,2022-11-22_10h17.46.575,vts_reward_expectancy_bt_OFFLINE,2022.2.4,59.95814850278986,
0,0,0,1,0,0,1,0,star,hexagon,0,0,0,0,2,6,30,11,,,,,,,,,,,,,,,,,,,,,,,,,,,,,,,,,,,,,,,,1264.2248713849112,1264.2248713849112,1264.2248713849112,1264.2248713849112,1264.2248713849112,1264.2248713849112,1264.2248713849112,1264.2248713849112,1264.2248713849112,1264.2248713849112,l,0.5841888221912086,10,192,0,1264.8416880299337,1266.3420395108406,1266.3420395108406,1266.8423197369557,,,,,,,,,,,,,,,,,,,,,,,,,,,,,,,,,,,,,,,,,,,,,,,,,,,,,,,,,,,,,,,,,82866,2022-11-22_10h17.46.575,vts_reward_expectancy_bt_OFFLINE,2022.2.4,59.95814850278986,
1,0,0,0,0,0,0,1,triangle,star,0,0,0,0,2,7,31,2,,,,,,,,,,,,,,,,,,,,,,,,,,,,,,,,,,,,,,,,1266.8423197369557,1266.8423197369557,1266.8423197369557,1266.8423197369557,1266.8423197369557,1266.8423197369557,1266.8423197369557,1266.8423197369557,1266.8423197369557,1266.8423197369557,l,1.5792873811442405,1,193,0,1268.4461675300263,1269.9453993600328,1269.9453993600328,1270.4453436369076,,,,,,,,,,,,,,,,,,,,,,,,,,,,,,,,,,,,,,,,,,,,,,,,,,,,,,,,,,,,,,,,,82866,2022-11-22_10h17.46.575,vts_reward_expectancy_bt_OFFLINE,2022.2.4,59.95814850278986,
0,1,0,0,0,0,0,1,circle,star,0,0,0,0,2,8,32,5,,,,,,,,,,,,,,,,,,,,,,,,,,,,,,,,,,,,,,,,1270.4453436369076,1270.4453436369076,1270.4453436369076,1270.4453436369076,1270.4453436369076,1270.4453436369076,1270.4453436369076,1270.4453436369076,1270.4453436369076,1270.4453436369076,l,1.024891802109778,10,203,0,1271.4974749160465,1272.997950796038,,,,,,,,,,,,,,,,,,,,,,,,,,,,,,,,,,,,,,,,,,,,,,,,,,,,,,,,,,,,,,,,,,,82866,2022-11-22_10h17.46.575,vts_reward_expectancy_bt_OFFLINE,2022.2.4,59.95814850278986,
0,0,1,0,0,1,0,0,hexagon,circle,0,0,0,0,2,9,33,7,,,,,,,,,,,,,,,,,,,,,,,,,,,,,,,,,,,,,,,,1273.4984145709313,1273.4984145709313,1273.4984145709313,1273.4984145709313,1273.4984145709313,1273.4984145709313,1273.4984145709313,1273.4984145709313,1273.4984145709313,1273.4984145709313,a,0.8183997471351177,10,213,0,1274.3484894868452,1275.8490132328589,1275.8490132328589,1276.3489919148851,,,,,,,,,,,,,,,,,,,,,,,,,,,,,,,,,,,,,,,,,,,,,,,,,,,,,,,,,,,,,,,,,82866,2022-11-22_10h17.46.575,vts_reward_expectancy_bt_OFFLINE,2022.2.4,59.95814850278986,
0,1,0,0,1,0,0,0,circle,triangle,0,0,0,0,2,10,34,3,,,,,,,,,,,,,,,,,,,,,,,,,,,,,,,,,,,,,,,,1276.3489919148851,1276.3489919148851,1276.3489919148851,1276.3489919148851,1276.3489919148851,1276.3489919148851,1276.3489919148851,1276.3489919148851,1276.3489919148851,1276.3489919148851,l,0.6338582092430443,1,214,0,1277.0014758098405,1278.5019113658927,,,,,,,,,,,,,,,,,,,,,,,,,,,,,,,,,,,,,,,,,,,,,,,,,,,,,,,,,,,,,,,,,,,82866,2022-11-22_10h17.46.575,vts_reward_expectancy_bt_OFFLINE,2022.2.4,59.95814850278986,
0,0,1,0,0,0,0,1,hexagon,star,0,0,0,0,2,11,35,8,,,,,,,,,,,,,,,,,,,,,,,,,,,,,,,,,,,,,,,,1279.002139406046,1279.002139406046,1279.002139406046,1279.002139406046,1279.002139406046,1279.002139406046,1279.002139406046,1279.002139406046,1279.002139406046,1279.002139406046,a,0.7927543371915817,10,224,0,1279.8208353838418,1281.3361516818404,,,,,,,,,,,,,,,,,,,,,,,,,,,,,,,,,,,,,,,,,,,,,,,,,,,,,,,,,,,,,,,,,,,82866,2022-11-22_10h17.46.575,vts_reward_expectancy_bt_OFFLINE,2022.2.4,59.95814850278986,
1,0,0,0,0,0,1,0,triangle,hexagon,0,0,0,0,3,0,36,1,,,,,,,,,,,,,,,,,,,,,,,,,,,,,,,,,,,,,,,,1281.8362288898788,1281.8362288898788,1281.8362288898788,1281.8362288898788,1281.8362288898788,1281.8362288898788,1281.8362288898788,1281.8362288898788,1281.8362288898788,1281.8362288898788,l,0.6820265401620418,10,234,0,1282.5385900009423,1284.039425961906,1284.039425961906,1284.5393062839285,,,,,,,,,,,,,,,,,,,,,,,,,,,,,,,,,,,,,,,,,,,,,,,,,,,,,,,,,,,,,,,,,82866,2022-11-22_10h17.46.575,vts_reward_expectancy_bt_OFFLINE,2022.2.4,59.95814850278986,
0,0,1,0,0,0,0,1,hexagon,star,0,0,0,0,3,1,37,8,,,,,,,,,,,,,,,,,,,,,,,,,,,,,,,,,,,,,,,,1284.5393062839285,1284.5393062839285,1284.5393062839285,1284.5393062839285,1284.5393062839285,1284.5393062839285,1284.5393062839285,1284.5393062839285,1284.5393062839285,1284.5393062839285,a,0.7463937331922352,1,235,0,1285.3076862348244,1286.8067602219526,1286.8067602219526,,,,,,,,,,,,,,,,,,,,,,,,,,,,,,,,,,,,,,,,,,,,,,,,,,,,,,,,,,,,,,,,,,82866,2022-11-22_10h17.46.575,vts_reward_expectancy_bt_OFFLINE,2022.2.4,59.95814850278986,
0,0,1,0,0,1,0,0,hexagon,circle,0,0,0,0,3,2,38,7,,,,,,,,,,,,,,,,,,,,,,,,,,,,,,,,,,,,,,,,1287.311244607903,1287.311244607903,1287.311244607903,1287.311244607903,1287.311244607903,1287.311244607903,1287.311244607903,1287.311244607903,1287.311244607903,1287.311244607903,a,0.6179136470891535,10,245,0,1287.9606801769696,1289.4763377490453,,,,,,,,,,,,,,,,,,,,,,,,,,,,,,,,,,,,,,,,,,,,,,,,,,,,,,,,,,,,,,,,,,,82866,2022-11-22_10h17.46.575,vts_reward_expectancy_bt_OFFLINE,2022.2.4,59.95814850278986,
0,0,0,1,0,1,0,0,star ,circle,0,0,0,0,3,3,39,10,,,,,,,,,,,,,,,,,,,,,,,,,,,,,,,,,,,,,,,,1289.9598520149011,1289.9598520149011,1289.9598520149011,1289.9598520149011,1289.9598520149011,1289.9598520149011,1289.9598520149011,1289.9598520149011,1289.9598520149011,1289.9598520149011,a,0.5346045400947332,10,255,0,1290.5264753899537,1292.0270797209814,1292.0270797209814,,,,,,,,,,,,,,,,,,,,,,,,,,,,,,,,,,,,,,,,,,,,,,,,,,,,,,,,,,,,,,,,,,82866,2022-11-22_10h17.46.575,vts_reward_expectancy_bt_OFFLINE,2022.2.4,59.95814850278986,
0,0,0,1,0,0,1,0,star,hexagon,0,0,0,0,3,4,40,11,,,,,,,,,,,,,,,,,,,,,,,,,,,,,,,,,,,,,,,,1292.5291460589506,1292.5291460589506,1292.5291460589506,1292.5291460589506,1292.5291460589506,1292.5291460589506,1292.5291460589506,1292.5291460589506,1292.5291460589506,1292.5291460589506,l,1.4417265260126442,1,256,0,1293.998091918882,1295.513450004859,,,,,,,,,,,,,,,,,,,,,,,,,,,,,,,,,,,,,,,,,,,,,,,,,,,,,,,,,,,,,,,,,,,82866,2022-11-22_10h17.46.575,vts_reward_expectancy_bt_OFFLINE,2022.2.4,59.95814850278986,
0,0,0,1,1,0,0,0,star,triangle,0,0,0,0,3,5,41,9,,,,,,,,,,,,,,,,,,,,,,,,,,,,,,,,,,,,,,,,1296.013737456873,1296.013737456873,1296.013737456873,1296.013737456873,1296.013737456873,1296.013737456873,1296.013737456873,1296.013737456873,1296.013737456873,1296.013737456873,a,0.6569604340475053,1,257,0,1296.6972156120464,1298.1998088888358,,,,,,,,,,,,,,,,,,,,,,,,,,,,,,,,,,,,,,,,,,,,,,,,,,,,,,,,,,,,,,,,,,,82866,2022-11-22_10h17.46.575,vts_reward_expectancy_bt_OFFLINE,2022.2.4,59.95814850278986,
0,1,0,0,0,0,1,0,circle,hexagon,0,0,0,0,3,6,42,4,,,,,,,,,,,,,,,,,,,,,,,,,,,,,,,,,,,,,,,,1298.6996853949968,1298.6996853949968,1298.6996853949968,1298.6996853949968,1298.6996853949968,1298.6996853949968,1298.6996853949968,1298.6996853949968,1298.6996853949968,1298.6996853949968,l,0.49241054127924144,10,267,0,1299.2184322879184,1300.7339656269178,,,,,,,,,,,,,,,,,,,,,,,,,,,,,,,,,,,,,,,,,,,,,,,,,,,,,,,,,,,,,,,,,,,82866,2022-11-22_10h17.46.575,vts_reward_expectancy_bt_OFFLINE,2022.2.4,59.95814850278986,
1,0,0,0,0,0,0,1,triangle,star,0,0,0,0,3,7,43,2,,,,,,,,,,,,,,,,,,,,,,,,,,,,,,,,,,,,,,,,1301.234097224893,1301.234097224893,1301.234097224893,1301.234097224893,1301.234097224893,1301.234097224893,1301.234097224893,1301.234097224893,1301.234097224893,1301.234097224893,l,1.2651919901836663,10,277,0,1302.5198616900016,1304.0200300659053,1304.0200300659053,1304.5205790409818,,,,,,,,,,,,,,,,,,,,,,,,,,,,,,,,,,,,,,,,,,,,,,,,,,,,,,,,,,,,,,,,,82866,2022-11-22_10h17.46.575,vts_reward_expectancy_bt_OFFLINE,2022.2.4,59.95814850278986,
0,1,0,0,0,0,0,1,circle,star,0,0,0,0,3,8,44,5,,,,,,,,,,,,,,,,,,,,,,,,,,,,,,,,,,,,,,,,1304.5205790409818,1304.5205790409818,1304.5205790409818,1304.5205790409818,1304.5205790409818,1304.5205790409818,1304.5205790409818,1304.5205790409818,1304.5205790409818,1304.5205790409818,l,0.9592619971372187,1,278,0,1305.5061258238275,1307.0214244718663,,,,,,,,,,,,,,,,,,,,,,,,,,,,,,,,,,,,,,,,,,,,,,,,,,,,,,,,,,,,,,,,,,,82866,2022-11-22_10h17.46.575,vts_reward_expectancy_bt_OFFLINE,2022.2.4,59.95814850278986,
1,0,0,0,0,1,0,0,triangle,circle,0,0,0,0,3,9,45,0,,,,,,,,,,,,,,,,,,,,,,,,,,,,,,,,,,,,,,,,1307.506728184875,1307.506728184875,1307.506728184875,1307.506728184875,1307.506728184875,1307.506728184875,1307.506728184875,1307.506728184875,1307.506728184875,1307.506728184875,a,2.327991937054321,1,279,0,1309.8577046389692,1311.3582219118252,1311.3582219118252,1311.8580058619846,,,,,,,,,,,,,,,,,,,,,,,,,,,,,,,,,,,,,,,,,,,,,,,,,,,,,,,,,,,,,,,,,82866,2022-11-22_10h17.46.575,vts_reward_expectancy_bt_OFFLINE,2022.2.4,59.95814850278986,
0,1,0,0,1,0,0,0,circle,triangle,0,0,0,0,3,10,46,3,,,,,,,,,,,,,,,,,,,,,,,,,,,,,,,,,,,,,,,,1311.8580058619846,1311.8580058619846,1311.8580058619846,1311.8580058619846,1311.8580058619846,1311.8580058619846,1311.8580058619846,1311.8580058619846,1311.8580058619846,1311.8580058619846,a,0.833443189272657,1,280,0,1312.7104546499904,1314.2111163740046,1314.2111163740046,1314.7111226359848,,,,,,,,,,,,,,,,,,,,,,,,,,,,,,,,,,,,,,,,,,,,,,,,,,,,,,,,,,,,,,,,,82866,2022-11-22_10h17.46.575,vts_reward_expectancy_bt_OFFLINE,2022.2.4,59.95814850278986,
0,0,1,0,1,0,0,0,hexagon,triangle,0,0,0,0,3,11,47,6,,,,,,,,,,,,,,,,,,,,,,,,,,,,,,,,,,,,,,,,1314.7111226359848,1314.7111226359848,1314.7111226359848,1314.7111226359848,1314.7111226359848,1314.7111226359848,1314.7111226359848,1314.7111226359848,1314.7111226359848,1314.7111226359848,a,0.7479892771225423,10,290,0,1315.4798680359963,1316.9787555239163,1316.9787555239163,,,,,,,,,,,,,,,,,,,,,,,,,,,,,,,,,,,,,,,,,,,,,,,,,,,,,,,,,,,,,,,,,,82866,2022-11-22_10h17.46.575,vts_reward_expectancy_bt_OFFLINE,2022.2.4,59.95814850278986,
0,1,0,0,1,0,0,0,circle,triangle,1,0,1,0,0,0,0,3,,,,,,,,,,,,,,,,,,,,,,,,,,,,,,,,,,,,,,,,1320.459040632937,1320.459040632937,1320.459040632937,1320.459040632937,1320.459040632937,1320.459040632937,1320.459040632937,1320.459040632937,1320.459040632937,1320.459040632937,a,1.4017490623518825,1,291,1,1321.8844800929073,1323.384622406913,,,,,,,,,,,,,,,,,,,,,,,,,,,,,,,,,,,,,,,,,,,,,,,,,,,,,,,,,,,,,,,,,,,82866,2022-11-22_10h17.46.575,vts_reward_expectancy_bt_OFFLINE,2022.2.4,59.95814850278986,
0,0,1,0,1,0,0,0,hexagon,triangle,1,0,1,0,0,1,1,6,,,,,,,,,,,,,,,,,,,,,,,,,,,,,,,,,,,,,,,,1323.885067848023,1323.885067848023,1323.885067848023,1323.885067848023,1323.885067848023,1323.885067848023,1323.885067848023,1323.885067848023,1323.885067848023,1323.885067848023,a,0.8115263811778277,1,292,1,1324.7187527958304,1326.2190565238707,1326.2190565238707,,,,,,,,,,,,,,,,,,,,,,,,,,,,,,,,,,,,,,,,,,,,,,,,,,,,,,,,,,,,,,,,,,82866,2022-11-22_10h17.46.575,vts_reward_expectancy_bt_OFFLINE,2022.2.4,59.95814850278986,
0,0,0,1,0,1,0,0,star ,circle,1,0,1,0,0,2,2,10,,,,,,,,,,,,,,,,,,,,,,,,,,,,,,,,,,,,,,,,1326.7190744599793,1326.7190744599793,1326.7190744599793,1326.7190744599793,1326.7190744599793,1326.7190744599793,1326.7190744599793,1326.7190744599793,1326.7190744599793,1326.7190744599793,a,0.7341900032479316,1,293,1,1327.471272524912,1328.9717597030103,1328.9717597030103,1329.4718719730154,,,,,,,,,,,,,,,,,,,,,,,,,,,,,,,,,,,,,,,,,,,,,,,,,,,,,,,,,,,,,,,,,82866,2022-11-22_10h17.46.575,vts_reward_expectancy_bt_OFFLINE,2022.2.4,59.95814850278986,
1,0,0,0,0,0,1,0,triangle,hexagon,1,0,1,0,0,3,3,1,,,,,,,,,,,,,,,,,,,,,,,,,,,,,,,,,,,,,,,,1329.4718719730154,1329.4718719730154,1329.4718719730154,1329.4718719730154,1329.4718719730154,1329.4718719730154,1329.4718719730154,1329.4718719730154,1329.4718719730154,1329.4718719730154,l,0.7143918231595308,1,294,1,1330.2055858818348,1331.706119269831,1331.706119269831,,,,,,,,,,,,,,,,,,,,,,,,,,,,,,,,,,,,,,,,,,,,,,,,,,,,,,,,,,,,,,,,,,82866,2022-11-22_10h17.46.575,vts_reward_expectancy_bt_OFFLINE,2022.2.4,59.95814850278986,
0,1,0,0,0,0,1,0,circle,hexagon,1,0,1,0,0,4,4,4,,,,,,,,,,,,,,,,,,,,,,,,,,,,,,,,,,,,,,,,1332.2063097758219,1332.2063097758219,1332.2063097758219,1332.2063097758219,1332.2063097758219,1332.2063097758219,1332.2063097758219,1332.2063097758219,1332.2063097758219,1332.2063097758219,a,1.1420873501338065,1,295,1,1333.3751422648784,1334.8757587140426,1334.8757587140426,,,,,,,,,,,,,,,,,,,,,,,,,,,,,,,,,,,,,,,,,,,,,,,,,,,,,,,,,,,,,,,,,,82866,2022-11-22_10h17.46.575,vts_reward_expectancy_bt_OFFLINE,2022.2.4,59.95814850278986,
1,0,0,0,0,0,0,1,triangle,star,1,0,1,0,0,5,5,2,,,,,,,,,,,,,,,,,,,,,,,,,,,,,,,,,,,,,,,,1335.3759692518506,1335.3759692518506,1335.3759692518506,1335.3759692518506,1335.3759692518506,1335.3759692518506,1335.3759692518506,1335.3759692518506,1335.3759692518506,1335.3759692518506,l,0.6269174681510776,10,305,1,1336.028295228025,1337.5286017579492,,,,,,,,,,,,,,,,,,,,,,,,,,,,,,,,,,,,,,,,,,,,,,,,,,,,,,,,,,,,,,,,,,,82866,2022-11-22_10h17.46.575,vts_reward_expectancy_bt_OFFLINE,2022.2.4,59.95814850278986,
0,0,0,1,1,0,0,0,star,triangle,1,0,1,0,0,6,6,9,,,,,,,,,,,,,,,,,,,,,,,,,,,,,,,,,,,,,,,,1338.0288725430146,1338.0288725430146,1338.0288725430146,1338.0288725430146,1338.0288725430146,1338.0288725430146,1338.0288725430146,1338.0288725430146,1338.0288725430146,1338.0288725430146,a,0.5503543149679899,1,306,1,1338.597870826954,1340.11274512182,,,,,,,,,,,,,,,,,,,,,,,,,,,,,,,,,,,,,,,,,,,,,,,,,,,,,,,,,,,,,,,,,,,82866,2022-11-22_10h17.46.575,vts_reward_expectancy_bt_OFFLINE,2022.2.4,59.95814850278986,
0,0,1,0,0,1,0,0,hexagon,circle,1,0,1,0,0,7,7,7,,,,,,,,,,,,,,,,,,,,,,,,,,,,,,,,,,,,,,,,1340.6130327919964,1340.6130327919964,1340.6130327919964,1340.6130327919964,1340.6130327919964,1340.6130327919964,1340.6130327919964,1340.6130327919964,1340.6130327919964,1340.6130327919964,a,0.7230238132178783,1,307,1,1341.3633138048463,1342.8656758789439,,,,,,,,,,,,,,,,,,,,,,,,,,,,,,,,,,,,,,,,,,,,,,,,,,,,,,,,,,,,,,,,,,,82866,2022-11-22_10h17.46.575,vts_reward_expectancy_bt_OFFLINE,2022.2.4,59.95814850278986,
0,1,0,0,0,0,0,1,circle,star,1,0,1,0,0,8,8,5,,,,,,,,,,,,,,,,,,,,,,,,,,,,,,,,,,,,,,,,1343.3658664438408,1343.3658664438408,1343.3658664438408,1343.3658664438408,1343.3658664438408,1343.3658664438408,1343.3658664438408,1343.3658664438408,1343.3658664438408,1343.3658664438408,l,1.5481710999738425,1,308,1,1344.9331053940114,1346.4336706649046,1346.4336706649046,1346.9335404359736,,,,,,,,,,,,,,,,,,,,,,,,,,,,,,,,,,,,,,,,,,,,,,,,,,,,,,,,,,,,,,,,,82866,2022-11-22_10h17.46.575,vts_reward_expectancy_bt_OFFLINE,2022.2.4,59.95814850278986,
0,0,1,0,0,0,0,1,hexagon,star,1,0,1,0,0,9,9,8,,,,,,,,,,,,,,,,,,,,,,,,,,,,,,,,,,,,,,,,1346.9335404359736,1346.9335404359736,1346.9335404359736,1346.9335404359736,1346.9335404359736,1346.9335404359736,1346.9335404359736,1346.9335404359736,1346.9335404359736,1346.9335404359736,a,0.7819202782120556,1,309,1,1347.735880282009,1349.236617996823,1349.236617996823,,,,,,,,,,,,,,,,,,,,,,,,,,,,,,,,,,,,,,,,,,,,,,,,,,,,,,,,,,,,,,,,,,82866,2022-11-22_10h17.46.575,vts_reward_expectancy_bt_OFFLINE,2022.2.4,59.95814850278986,
0,0,0,1,0,0,1,0,star,hexagon,1,0,1,0,0,10,10,11,,,,,,,,,,,,,,,,,,,,,,,,,,,,,,,,,,,,,,,,1349.736494106939,1349.736494106939,1349.736494106939,1349.736494106939,1349.736494106939,1349.736494106939,1349.736494106939,1349.736494106939,1349.736494106939,1349.736494106939,l,1.0608308042865247,10,319,1,1350.8226400918793,1352.3298748089,,,,,,,,,,,,,,,,,,,,,,,,,,,,,,,,,,,,,,,,,,,,,,,,,,,,,,,,,,,,,,,,,,,82866,2022-11-22_10h17.46.575,vts_reward_expectancy_bt_OFFLINE,2022.2.4,59.95814850278986,
1,0,0,0,0,1,0,0,triangle,circle,1,0,1,0,0,11,11,0,,,,,,,,,,,,,,,,,,,,,,,,,,,,,,,,,,,,,,,,1352.8228578208946,1352.8228578208946,1352.8228578208946,1352.8228578208946,1352.8228578208946,1352.8228578208946,1352.8228578208946,1352.8228578208946,1352.8228578208946,1352.8228578208946,l,2.4634355870075524,10,329,1,1355.3071505618282,1356.8077552898321,1356.8077552898321,1357.3075645468198,,,,,,,,,,,,,,,,,,,,,,,,,,,,,,,,,,,,,,,,,,,,,,,,,,,,,,,,,,,,,,,,,82866,2022-11-22_10h17.46.575,vts_reward_expectancy_bt_OFFLINE,2022.2.4,59.95814850278986,
0,0,0,1,0,1,0,0,star ,circle,1,0,1,0,1,0,12,10,,,,,,,,,,,,,,,,,,,,,,,,,,,,,,,,,,,,,,,,1357.3075645468198,1357.3075645468198,1357.3075645468198,1357.3075645468198,1357.3075645468198,1357.3075645468198,1357.3075645468198,1357.3075645468198,1357.3075645468198,1357.3075645468198,a,1.388501156354323,10,339,1,1358.726755599957,1360.2276818638202,1360.2276818638202,1360.7276854519732,,,,,,,,,,,,,,,,,,,,,,,,,,,,,,,,,,,,,,,,,,,,,,,,,,,,,,,,,,,,,,,,,82866,2022-11-22_10h17.46.575,vts_reward_expectancy_bt_OFFLINE,2022.2.4,59.95814850278986,
0,0,1,0,1,0,0,0,hexagon,triangle,1,0,1,0,1,1,13,6,,,,,,,,,,,,,,,,,,,,,,,,,,,,,,,,,,,,,,,,1360.7276854519732,1360.7276854519732,1360.7276854519732,1360.7276854519732,1360.7276854519732,1360.7276854519732,1360.7276854519732,1360.7276854519732,1360.7276854519732,1360.7276854519732,a,1.4221196931321174,10,349,1,1362.1781800619792,1363.680686299922,,,,,,,,,,,,,,,,,,,,,,,,,,,,,,,,,,,,,,,,,,,,,,,,,,,,,,,,,,,,,,,,,,,82866,2022-11-22_10h17.46.575,vts_reward_expectancy_bt_OFFLINE,2022.2.4,59.95814850278986,
0,0,0,1,1,0,0,0,star,triangle,1,0,1,0,1,2,14,9,,,,,,,,,,,,,,,,,,,,,,,,,,,,,,,,,,,,,,,,1364.1807685010135,1364.1807685010135,1364.1807685010135,1364.1807685010135,1364.1807685010135,1364.1807685010135,1364.1807685010135,1364.1807685010135,1364.1807685010135,1364.1807685010135,a,1.322277451166883,10,359,1,1365.5312077039853,1367.0318671269342,1367.0318671269342,,,,,,,,,,,,,,,,,,,,,,,,,,,,,,,,,,,,,,,,,,,,,,,,,,,,,,,,,,,,,,,,,,82866,2022-11-22_10h17.46.575,vts_reward_expectancy_bt_OFFLINE,2022.2.4,59.95814850278986,
0,1,0,0,1,0,0,0,circle,triangle,1,0,1,0,1,3,15,3,,,,,,,,,,,,,,,,,,,,,,,,,,,,,,,,,,,,,,,,1367.5339266748633,1367.5339266748633,1367.5339266748633,1367.5339266748633,1367.5339266748633,1367.5339266748633,1367.5339266748633,1367.5339266748633,1367.5339266748633,1367.5339266748633,l,4.369819536106661,1,360,1,1371.935680569848,1373.4377494498622,,,,,,,,,,,,,,,,,,,,,,,,,,,,,,,,,,,,,,,,,,,,,,,,,,,,,,,,,,,,,,,,,,,82866,2022-11-22_10h17.46.575,vts_reward_expectancy_bt_OFFLINE,2022.2.4,59.95814850278986,
1,0,0,0,0,0,0,1,triangle,star,1,0,1,0,1,4,16,2,,,,,,,,,,,,,,,,,,,,,,,,,,,,,,,,,,,,,,,,1373.9378866020124,1373.9378866020124,1373.9378866020124,1373.9378866020124,1373.9378866020124,1373.9378866020124,1373.9378866020124,1373.9378866020124,1373.9378866020124,1373.9378866020124,l,0.7558772549964488,1,361,1,1374.721791540971,1376.221875279909,1376.221875279909,1376.722014729865,,,,,,,,,,,,,,,,,,,,,,,,,,,,,,,,,,,,,,,,,,,,,,,,,,,,,,,,,,,,,,,,,82866,2022-11-22_10h17.46.575,vts_reward_expectancy_bt_OFFLINE,2022.2.4,59.95814850278986,
0,0,1,0,0,0,0,1,hexagon,star,1,0,1,0,1,5,17,8,,,,,,,,,,,,,,,,,,,,,,,,,,,,,,,,,,,,,,,,1376.722014729865,1376.722014729865,1376.722014729865,1376.722014729865,1376.722014729865,1376.722014729865,1376.722014729865,1376.722014729865,1376.722014729865,1376.722014729865,a,0.638414743123576,1,362,1,1377.3776878588833,1378.8915650488343,,,,,,,,,,,,,,,,,,,,,,,,,,,,,,,,,,,,,,,,,,,,,,,,,,,,,,,,,,,,,,,,,,,82866,2022-11-22_10h17.46.575,vts_reward_expectancy_bt_OFFLINE,2022.2.4,59.95814850278986,
1,0,0,0,0,1,0,0,triangle,circle,1,0,1,0,1,6,18,0,,,,,,,,,,,,,,,,,,,,,,,,,,,,,,,,,,,,,,,,1379.3916217810474,1379.3916217810474,1379.3916217810474,1379.3916217810474,1379.3916217810474,1379.3916217810474,1379.3916217810474,1379.3916217810474,1379.3916217810474,1379.3916217810474,a,1.0519779291935265,10,372,1,1380.4757503250148,1381.9759823239874,1381.9759823239874,,,,,,,,,,,,,,,,,,,,,,,,,,,,,,,,,,,,,,,,,,,,,,,,,,,,,,,,,,,,,,,,,,82866,2022-11-22_10h17.46.575,vts_reward_expectancy_bt_OFFLINE,2022.2.4,59.95814850278986,
0,0,0,1,0,0,1,0,star,hexagon,1,0,1,0,1,7,19,11,,,,,,,,,,,,,,,,,,,,,,,,,,,,,,,,,,,,,,,,1382.4780421128962,1382.4780421128962,1382.4780421128962,1382.4780421128962,1382.4780421128962,1382.4780421128962,1382.4780421128962,1382.4780421128962,1382.4780421128962,1382.4780421128962,l,2.443279587198049,1,373,1,1384.9478537589312,1386.4627642189153,,,,,,,,,,,,,,,,,,,,,,,,,,,,,,,,,,,,,,,,,,,,,,,,,,,,,,,,,,,,,,,,,,,82866,2022-11-22_10h17.46.575,vts_reward_expectancy_bt_OFFLINE,2022.2.4,59.95814850278986,
0,0,1,0,0,1,0,0,hexagon,circle,1,0,1,0,1,8,20,7,,,,,,,,,,,,,,,,,,,,,,,,,,,,,,,,,,,,,,,,1386.9626774659846,1386.9626774659846,1386.9626774659846,1386.9626774659846,1386.9626774659846,1386.9626774659846,1386.9626774659846,1386.9626774659846,1386.9626774659846,1386.9626774659846,a,1.0403850190341473,1,374,1,1388.0316995198373,1389.532347200904,1389.532347200904,,,,,,,,,,,,,,,,,,,,,,,,,,,,,,,,,,,,,,,,,,,,,,,,,,,,,,,,,,,,,,,,,,82866,2022-11-22_10h17.46.575,vts_reward_expectancy_bt_OFFLINE,2022.2.4,59.95814850278986,
0,1,0,0,0,0,1,0,circle,hexagon,1,0,1,0,1,9,21,4,,,,,,,,,,,,,,,,,,,,,,,,,,,,,,,,,,,,,,,,1390.0326504078694,1390.0326504078694,1390.0326504078694,1390.0326504078694,1390.0326504078694,1390.0326504078694,1390.0326504078694,1390.0326504078694,1390.0326504078694,1390.0326504078694,l,0.5581313741859049,10,384,1,1390.6182365068235,1392.1332708948757,,,,,,,,,,,,,,,,,,,,,,,,,,,,,,,,,,,,,,,,,,,,,,,,,,,,,,,,,,,,,,,,,,,82866,2022-11-22_10h17.46.575,vts_reward_expectancy_bt_OFFLINE,2022.2.4,59.95814850278986,
0,1,0,0,0,0,0,1,circle,star,1,0,1,0,1,10,22,5,,,,,,,,,,,,,,,,,,,,,,,,,,,,,,,,,,,,,,,,1392.6184819708578,1392.6184819708578,1392.6184819708578,1392.6184819708578,1392.6184819708578,1392.6184819708578,1392.6184819708578,1392.6184819708578,1392.6184819708578,1392.6184819708578,l,0.661632162053138,10,394,1,1393.3021876649,1394.8026050280314,1394.8026050280314,1395.3029736368917,,,,,,,,,,,,,,,,,,,,,,,,,,,,,,,,,,,,,,,,,,,,,,,,,,,,,,,,,,,,,,,,,82866,2022-11-22_10h17.46.575,vts_reward_expectancy_bt_OFFLINE,2022.2.4,59.95814850278986,
1,0,0,0,0,0,1,0,triangle,hexagon,1,0,1,0,1,11,23,1,,,,,,,,,,,,,,,,,,,,,,,,,,,,,,,,,,,,,,,,1395.3029736368917,1395.3029736368917,1395.3029736368917,1395.3029736368917,1395.3029736368917,1395.3029736368917,1395.3029736368917,1395.3029736368917,1395.3029736368917,1395.3029736368917,l,0.5871752020902932,1,395,1,1395.9219445108902,1397.4221329030115,,,,,,,,,,,,,,,,,,,,,,,,,,,,,,,,,,,,,,,,,,,,,,,,,,,,,,,,,,,,,,,,,,,82866,2022-11-22_10h17.46.575,vts_reward_expectancy_bt_OFFLINE,2022.2.4,59.95814850278986,
0,0,0,1,0,1,0,0,star ,circle,1,0,1,0,2,0,24,10,,,,,,,,,,,,,,,,,,,,,,,,,,,,,,,,,,,,,,,,1397.922248119954,1397.922248119954,1397.922248119954,1397.922248119954,1397.922248119954,1397.922248119954,1397.922248119954,1397.922248119954,1397.922248119954,1397.922248119954,a,0.7015219221357256,1,396,1,1398.6558313788846,1400.1565083928872,1400.1565083928872,1400.6567289568484,,,,,,,,,,,,,,,,,,,,,,,,,,,,,,,,,,,,,,,,,,,,,,,,,,,,,,,,,,,,,,,,,82866,2022-11-22_10h17.46.575,vts_reward_expectancy_bt_OFFLINE,2022.2.4,59.95814850278986,
1,0,0,0,0,1,0,0,triangle,circle,1,0,1,0,2,1,25,0,,,,,,,,,,,,,,,,,,,,,,,,,,,,,,,,,,,,,,,,1400.6567289568484,1400.6567289568484,1400.6567289568484,1400.6567289568484,1400.6567289568484,1400.6567289568484,1400.6567289568484,1400.6567289568484,1400.6567289568484,1400.6567289568484,l,0.9262029633391649,1,397,1,1401.6073617159855,1403.1092608948238,,,,,,,,,,,,,,,,,,,,,,,,,,,,,,,,,,,,,,,,,,,,,,,,,,,,,,,,,,,,,,,,,,,82866,2022-11-22_10h17.46.575,vts_reward_expectancy_bt_OFFLINE,2022.2.4,59.95814850278986,
0,0,0,1,1,0,0,0,star,triangle,1,0,1,0,2,2,26,9,,,,,,,,,,,,,,,,,,,,,,,,,,,,,,,,,,,,,,,,1403.6094861219171,1403.6094861219171,1403.6094861219171,1403.6094861219171,1403.6094861219171,1403.6094861219171,1403.6094861219171,1403.6094861219171,1403.6094861219171,1403.6094861219171,a,0.5950325620360672,10,407,1,1404.2283476218581,1405.743520875927,,,,,,,,,,,,,,,,,,,,,,,,,,,,,,,,,,,,,,,,,,,,,,,,,,,,,,,,,,,,,,,,,,,82866,2022-11-22_10h17.46.575,vts_reward_expectancy_bt_OFFLINE,2022.2.4,59.95814850278986,
0,0,1,0,0,1,0,0,hexagon,circle,1,0,1,0,2,3,27,7,,,,,,,,,,,,,,,,,,,,,,,,,,,,,,,,,,,,,,,,1406.226852554828,1406.226852554828,1406.226852554828,1406.226852554828,1406.226852554828,1406.226852554828,1406.226852554828,1406.226852554828,1406.226852554828,1406.226852554828,a,0.7906585913151503,10,417,1,1407.044511284912,1408.54669690202,,,,,,,,,,,,,,,,,,,,,,,,,,,,,,,,,,,,,,,,,,,,,,,,,,,,,,,,,,,,,,,,,,,82866,2022-11-22_10h17.46.575,vts_reward_expectancy_bt_OFFLINE,2022.2.4,59.95814850278986,
0,0,1,0,0,0,0,1,hexagon,star,1,0,1,0,2,4,28,8,,,,,,,,,,,,,,,,,,,,,,,,,,,,,,,,,,,,,,,,1409.0467008650303,1409.0467008650303,1409.0467008650303,1409.0467008650303,1409.0467008650303,1409.0467008650303,1409.0467008650303,1409.0467008650303,1409.0467008650303,1409.0467008650303,l,0.6026320101227611,10,427,1,1409.6803164440207,1411.1807555879932,1411.1807555879932,1411.681041614851,,,,,,,,,,,,,,,,,,,,,,,,,,,,,,,,,,,,,,,,,,,,,,,,,,,,,,,,,,,,,,,,,82866,2022-11-22_10h17.46.575,vts_reward_expectancy_bt_OFFLINE,2022.2.4,59.95814850278986,
0,0,1,0,1,0,0,0,hexagon,triangle,1,0,1,0,2,5,29,6,,,,,,,,,,,,,,,,,,,,,,,,,,,,,,,,,,,,,,,,1411.681041614851,1411.681041614851,1411.681041614851,1411.681041614851,1411.681041614851,1411.681041614851,1411.681041614851,1411.681041614851,1411.681041614851,1411.681041614851,a,0.6689993161708117,1,428,1,1412.376568893902,1413.8836399659049,,,,,,,,,,,,,,,,,,,,,,,,,,,,,,,,,,,,,,,,,,,,,,,,,,,,,,,,,,,,,,,,,,,82866,2022-11-22_10h17.46.575,vts_reward_expectancy_bt_OFFLINE,2022.2.4,59.95814850278986,
0,1,0,0,1,0,0,0,circle,triangle,1,0,1,0,2,6,30,3,,,,,,,,,,,,,,,,,,,,,,,,,,,,,,,,,,,,,,,,1414.3839225859847,1414.3839225859847,1414.3839225859847,1414.3839225859847,1414.3839225859847,1414.3839225859847,1414.3839225859847,1414.3839225859847,1414.3839225859847,1414.3839225859847,l,0.5537105551920831,10,438,1,1414.9694755219389,1416.4846848328598,,,,,,,,,,,,,,,,,,,,,,,,,,,,,,,,,,,,,,,,,,,,,,,,,,,,,,,,,,,,,,,,,,,82866,2022-11-22_10h17.46.575,vts_reward_expectancy_bt_OFFLINE,2022.2.4,59.95814850278986,
1,0,0,0,0,0,0,1,triangle,star,1,0,1,0,2,7,31,2,,,,,,,,,,,,,,,,,,,,,,,,,,,,,,,,,,,,,,,,1416.967913589906,1416.967913589906,1416.967913589906,1416.967913589906,1416.967913589906,1416.967913589906,1416.967913589906,1416.967913589906,1416.967913589906,1416.967913589906,l,0.5571524989791214,1,439,1,1417.555689578876,1419.070812616963,,,,,,,,,,,,,,,,,,,,,,,,,,,,,,,,,,,,,,,,,,,,,,,,,,,,,,,,,,,,,,,,,,,82866,2022-11-22_10h17.46.575,vts_reward_expectancy_bt_OFFLINE,2022.2.4,59.95814850278986,
0,1,0,0,0,0,1,0,circle,hexagon,1,0,1,0,2,8,32,4,,,,,,,,,,,,,,,,,,,,,,,,,,,,,,,,,,,,,,,,1419.5708547439426,1419.5708547439426,1419.5708547439426,1419.5708547439426,1419.5708547439426,1419.5708547439426,1419.5708547439426,1419.5708547439426,1419.5708547439426,1419.5708547439426,l,0.6313690573442727,10,449,1,1420.2234934649896,1421.7384247670416,,,,,,,,,,,,,,,,,,,,,,,,,,,,,,,,,,,,,,,,,,,,,,,,,,,,,,,,,,,,,,,,,,,82866,2022-11-22_10h17.46.575,vts_reward_expectancy_bt_OFFLINE,2022.2.4,59.95814850278986,
0,0,0,1,0,0,1,0,star,hexagon,1,0,1,0,2,9,33,11,,,,,,,,,,,,,,,,,,,,,,,,,,,,,,,,,,,,,,,,1422.238370989915,1422.238370989915,1422.238370989915,1422.238370989915,1422.238370989915,1422.238370989915,1422.238370989915,1422.238370989915,1422.238370989915,1422.238370989915,a,0.7882961381692439,1,450,1,1423.059321213048,1424.5743095639627,,,,,,,,,,,,,,,,,,,,,,,,,,,,,,,,,,,,,,,,,,,,,,,,,,,,,,,,,,,,,,,,,,,82866,2022-11-22_10h17.46.575,vts_reward_expectancy_bt_OFFLINE,2022.2.4,59.95814850278986,
1,0,0,0,0,0,1,0,triangle,hexagon,1,0,1,0,2,10,34,1,,,,,,,,,,,,,,,,,,,,,,,,,,,,,,,,,,,,,,,,1425.0747138909064,1425.0747138909064,1425.0747138909064,1425.0747138909064,1425.0747138909064,1425.0747138909064,1425.0747138909064,1425.0747138909064,1425.0747138909064,1425.0747138909064,l,0.7756685509812087,10,460,1,1425.877469762927,1427.3848087808583,,,,,,,,,,,,,,,,,,,,,,,,,,,,,,,,,,,,,,,,,,,,,,,,,,,,,,,,,,,,,,,,,,,82866,2022-11-22_10h17.46.575,vts_reward_expectancy_bt_OFFLINE,2022.2.4,59.95814850278986,
0,1,0,0,0,0,0,1,circle,star,1,0,1,0,2,11,35,5,,,,,,,,,,,,,,,,,,,,,,,,,,,,,,,,,,,,,,,,1427.8775182690006,1427.8775182690006,1427.8775182690006,1427.8775182690006,1427.8775182690006,1427.8775182690006,1427.8775182690006,1427.8775182690006,1427.8775182690006,1427.8775182690006,l,0.7514571773353964,10,470,1,1428.6610796109308,1430.1615324239247,1430.1615324239247,1430.661874633981,,,,,,,,,,,,,,,,,,,,,,,,,,,,,,,,,,,,,,,,,,,,,,,,,,,,,,,,,,,,,,,,,82866,2022-11-22_10h17.46.575,vts_reward_expectancy_bt_OFFLINE,2022.2.4,59.95814850278986,
0,0,0,1,0,1,0,0,star ,circle,1,0,1,0,3,0,36,10,,,,,,,,,,,,,,,,,,,,,,,,,,,,,,,,,,,,,,,,1430.661874633981,1430.661874633981,1430.661874633981,1430.661874633981,1430.661874633981,1430.661874633981,1430.661874633981,1430.661874633981,1430.661874633981,1430.661874633981,a,4.448211995186284,10,480,1,1435.1321172758471,1436.632537079975,1436.632537079975,1437.132545053959,,,,,,,,,,,,,,,,,,,,,,,,,,,,,,,,,,,,,,,,,,,,,,,,,,,,,,,,,,,,,,,,,82866,2022-11-22_10h17.46.575,vts_reward_expectancy_bt_OFFLINE,2022.2.4,59.95814850278986,
0,1,0,0,0,0,0,1,circle,star,1,0,1,0,3,1,37,5,,,,,,,,,,,,,,,,,,,,,,,,,,,,,,,,,,,,,,,,1437.132545053959,1437.132545053959,1437.132545053959,1437.132545053959,1437.132545053959,1437.132545053959,1437.132545053959,1437.132545053959,1437.132545053959,1437.132545053959,l,0.6996576271485537,1,481,1,1437.8536193298642,1439.3686340670101,,,,,,,,,,,,,,,,,,,,,,,,,,,,,,,,,,,,,,,,,,,,,,,,,,,,,,,,,,,,,,,,,,,82866,2022-11-22_10h17.46.575,vts_reward_expectancy_bt_OFFLINE,2022.2.4,59.95814850278986,
1,0,0,0,0,0,1,0,triangle,hexagon,1,0,1,0,3,2,38,1,,,,,,,,,,,,,,,,,,,,,,,,,,,,,,,,,,,,,,,,1439.8689411249943,1439.8689411249943,1439.8689411249943,1439.8689411249943,1439.8689411249943,1439.8689411249943,1439.8689411249943,1439.8689411249943,1439.8689411249943,1439.8689411249943,l,1.0464257469866425,10,491,1,1440.9381262939423,1442.4384251360316,,,,,,,,,,,,,,,,,,,,,,,,,,,,,,,,,,,,,,,,,,,,,,,,,,,,,,,,,,,,,,,,,,,82866,2022-11-22_10h17.46.575,vts_reward_expectancy_bt_OFFLINE,2022.2.4,59.95814850278986,
0,0,1,0,0,1,0,0,hexagon,circle,1,0,1,0,3,3,39,7,,,,,,,,,,,,,,,,,,,,,,,,,,,,,,,,,,,,,,,,1442.9384523259941,1442.9384523259941,1442.9384523259941,1442.9384523259941,1442.9384523259941,1442.9384523259941,1442.9384523259941,1442.9384523259941,1442.9384523259941,1442.9384523259941,a,0.7218826210591942,1,492,1,1443.691031391034,1445.1891347018536,,,,,,,,,,,,,,,,,,,,,,,,,,,,,,,,,,,,,,,,,,,,,,,,,,,,,,,,,,,,,,,,,,,82866,2022-11-22_10h17.46.575,vts_reward_expectancy_bt_OFFLINE,2022.2.4,59.95814850278986,
1,0,0,0,0,1,0,0,triangle,circle,1,0,1,0,3,4,40,0,,,,,,,,,,,,,,,,,,,,,,,,,,,,,,,,,,,,,,,,1445.6893991818652,1445.6893991818652,1445.6893991818652,1445.6893991818652,1445.6893991818652,1445.6893991818652,1445.6893991818652,1445.6893991818652,1445.6893991818652,1445.6893991818652,a,1.0194764081388712,1,493,1,1446.7396618030034,1448.2420497669373,1448.2420497669373,,,,,,,,,,,,,,,,,,,,,,,,,,,,,,,,,,,,,,,,,,,,,,,,,,,,,,,,,,,,,,,,,,82866,2022-11-22_10h17.46.575,vts_reward_expectancy_bt_OFFLINE,2022.2.4,59.95814850278986,
0,1,0,0,0,0,1,0,circle,hexagon,1,0,1,0,3,5,41,4,,,,,,,,,,,,,,,,,,,,,,,,,,,,,,,,,,,,,,,,1448.7425506520085,1448.7425506520085,1448.7425506520085,1448.7425506520085,1448.7425506520085,1448.7425506520085,1448.7425506520085,1448.7425506520085,1448.7425506520085,1448.7425506520085,l,0.6438323541078717,1,494,1,1449.4095593888778,1450.9096356600057,1450.9096356600057,1451.4099452369846,,,,,,,,,,,,,,,,,,,,,,,,,,,,,,,,,,,,,,,,,,,,,,,,,,,,,,,,,,,,,,,,,82866,2022-11-22_10h17.46.575,vts_reward_expectancy_bt_OFFLINE,2022.2.4,59.95814850278986,
0,0,0,1,1,0,0,0,star,triangle,1,0,1,0,3,6,42,9,,,,,,,,,,,,,,,,,,,,,,,,,,,,,,,,,,,,,,,,1451.4099452369846,1451.4099452369846,1451.4099452369846,1451.4099452369846,1451.4099452369846,1451.4099452369846,1451.4099452369846,1451.4099452369846,1451.4099452369846,1451.4099452369846,a,0.5978229851461947,1,495,1,1452.0270589368884,1453.5291592008434,,,,,,,,,,,,,,,,,,,,,,,,,,,,,,,,,,,,,,,,,,,,,,,,,,,,,,,,,,,,,,,,,,,82866,2022-11-22_10h17.46.575,vts_reward_expectancy_bt_OFFLINE,2022.2.4,59.95814850278986,
0,1,0,0,1,0,0,0,circle,triangle,1,0,1,0,3,7,43,3,,,,,,,,,,,,,,,,,,,,,,,,,,,,,,,,,,,,,,,,1454.0295089590363,1454.0295089590363,1454.0295089590363,1454.0295089590363,1454.0295089590363,1454.0295089590363,1454.0295089590363,1454.0295089590363,1454.0295089590363,1454.0295089590363,l,2.309644593158737,10,505,1,1456.3658586780075,1457.8659681929275,,,,,,,,,,,,,,,,,,,,,,,,,,,,,,,,,,,,,,,,,,,,,,,,,,,,,,,,,,,,,,,,,,,82866,2022-11-22_10h17.46.575,vts_reward_expectancy_bt_OFFLINE,2022.2.4,59.95814850278986,
0,0,1,0,0,0,0,1,hexagon,star,1,0,1,0,3,8,44,8,,,,,,,,,,,,,,,,,,,,,,,,,,,,,,,,,,,,,,,,1458.3661974510178,1458.3661974510178,1458.3661974510178,1458.3661974510178,1458.3661974510178,1458.3661974510178,1458.3661974510178,1458.3661974510178,1458.3661974510178,1458.3661974510178,l,0.7632478133309633,10,515,1,1459.1502179529052,1460.6502293988597,1460.6502293988597,1461.1502407039516,,,,,,,,,,,,,,,,,,,,,,,,,,,,,,,,,,,,,,,,,,,,,,,,,,,,,,,,,,,,,,,,,82866,2022-11-22_10h17.46.575,vts_reward_expectancy_bt_OFFLINE,2022.2.4,59.95814850278986,
1,0,0,0,0,0,0,1,triangle,star,1,0,1,0,3,9,45,2,,,,,,,,,,,,,,,,,,,,,,,,,,,,,,,,,,,,,,,,1461.1502407039516,1461.1502407039516,1461.1502407039516,1461.1502407039516,1461.1502407039516,1461.1502407039516,1461.1502407039516,1461.1502407039516,1461.1502407039516,1461.1502407039516,l,1.3206541140098125,1,516,1,1462.5043796198443,1464.0034029749222,1464.0034029749222,1464.503429160919,,,,,,,,,,,,,,,,,,,,,,,,,,,,,,,,,,,,,,,,,,,,,,,,,,,,,,,,,,,,,,,,,82866,2022-11-22_10h17.46.575,vts_reward_expectancy_bt_OFFLINE,2022.2.4,59.95814850278986,
0,0,0,1,0,0,1,0,star,hexagon,1,0,1,0,3,10,46,11,,,,,,,,,,,,,,,,,,,,,,,,,,,,,,,,,,,,,,,,1464.503429160919,1464.503429160919,1464.503429160919,1464.503429160919,1464.503429160919,1464.503429160919,1464.503429160919,1464.503429160919,1464.503429160919,1464.503429160919,l,1.5685332410503179,10,526,1,1466.1048729850445,1467.6066034699325,,,,,,,,,,,,,,,,,,,,,,,,,,,,,,,,,,,,,,,,,,,,,,,,,,,,,,,,,,,,,,,,,,,82866,2022-11-22_10h17.46.575,vts_reward_expectancy_bt_OFFLINE,2022.2.4,59.95814850278986,
0,0,1,0,1,0,0,0,hexagon,triangle,1,0,1,0,3,11,47,6,,,,,,,,,,,,,,,,,,,,,,,,,,,,,,,,,,,,,,,,1468.1067245129962,1468.1067245129962,1468.1067245129962,1468.1067245129962,1468.1067245129962,1468.1067245129962,1468.1067245129962,1468.1067245129962,1468.1067245129962,1468.1067245129962,a,2.0147211130242795,10,536,1,1470.1412868609186,1471.641455737874,1471.641455737874,1472.148209628882,,,,,,,,,,,,,,,,,,,,,,,,,,,,,,,,,,,,,,,,,,,,,,,,,,,,,,,,,,,,,,,,,82866,2022-11-22_10h17.46.575,vts_reward_expectancy_bt_OFFLINE,2022.2.4,59.95814850278986,
1,0,0,0,0,0,0,1,triangle,star,2,0,2,0,0,0,0,2,,,,,,,,,,,,,,,,,,,,,,,,,,,,,,,,,,,,,,,,1477.8920185239986,1477.8920185239986,1477.8920185239986,1477.8920185239986,1477.8920185239986,1477.8920185239986,1477.8920185239986,1477.8920185239986,1477.8920185239986,1477.8920185239986,a,2.175498025259003,10,546,2,1480.0986187108792,1481.5987471828703,1481.5987471828703,1482.0987322889268,,,,,,,,,,,,,,,,,,,,,,,,,,,,,,,,,,,,,,,,,,,,,,,,,,,,,,,,,,,,,,,,,82866,2022-11-22_10h17.46.575,vts_reward_expectancy_bt_OFFLINE,2022.2.4,59.95814850278986,
0,1,0,0,1,0,0,0,circle,triangle,2,0,2,0,0,1,1,3,,,,,,,,,,,,,,,,,,,,,,,,,,,,,,,,,,,,,,,,1482.0987322889268,1482.0987322889268,1482.0987322889268,1482.0987322889268,1482.0987322889268,1482.0987322889268,1482.0987322889268,1482.0987322889268,1482.0987322889268,1482.0987322889268,l,0.9727214712183923,10,556,2,1483.1015860959888,1484.6015497730114,1484.6015497730114,1485.101611842867,,,,,,,,,,,,,,,,,,,,,,,,,,,,,,,,,,,,,,,,,,,,,,,,,,,,,,,,,,,,,,,,,82866,2022-11-22_10h17.46.575,vts_reward_expectancy_bt_OFFLINE,2022.2.4,59.95814850278986,
0,1,0,0,0,0,1,0,circle,hexagon,2,0,2,0,0,2,2,4,,,,,,,,,,,,,,,,,,,,,,,,,,,,,,,,,,,,,,,,1485.101611842867,1485.101611842867,1485.101611842867,1485.101611842867,1485.101611842867,1485.101611842867,1485.101611842867,1485.101611842867,1485.101611842867,1485.101611842867,l,1.602928571170196,10,566,2,1486.7356529699173,1488.2377292539459,1488.2377292539459,1488.7382758788299,,,,,,,,,,,,,,,,,,,,,,,,,,,,,,,,,,,,,,,,,,,,,,,,,,,,,,,,,,,,,,,,,82866,2022-11-22_10h17.46.575,vts_reward_expectancy_bt_OFFLINE,2022.2.4,59.95814850278986,
0,0,0,1,0,1,0,0,star ,circle,2,0,2,0,0,3,3,10,,,,,,,,,,,,,,,,,,,,,,,,,,,,,,,,,,,,,,,,1488.7382758788299,1488.7382758788299,1488.7382758788299,1488.7382758788299,1488.7382758788299,1488.7382758788299,1488.7382758788299,1488.7382758788299,1488.7382758788299,1488.7382758788299,a,1.296562439063564,10,576,2,1490.0555662019178,1491.555927356938,1491.555927356938,,,,,,,,,,,,,,,,,,,,,,,,,,,,,,,,,,,,,,,,,,,,,,,,,,,,,,,,,,,,,,,,,,82866,2022-11-22_10h17.46.575,vts_reward_expectancy_bt_OFFLINE,2022.2.4,59.95814850278986,
1,0,0,0,0,0,1,0,triangle,hexagon,2,0,2,0,0,4,4,1,,,,,,,,,,,,,,,,,,,,,,,,,,,,,,,,,,,,,,,,1492.0560757219791,1492.0560757219791,1492.0560757219791,1492.0560757219791,1492.0560757219791,1492.0560757219791,1492.0560757219791,1492.0560757219791,1492.0560757219791,1492.0560757219791,l,1.7368224172387272,10,586,2,1493.8252603099681,1495.3259242819622,1495.3259242819622,1495.8257265118882,,,,,,,,,,,,,,,,,,,,,,,,,,,,,,,,,,,,,,,,,,,,,,,,,,,,,,,,,,,,,,,,,82866,2022-11-22_10h17.46.575,vts_reward_expectancy_bt_OFFLINE,2022.2.4,59.95814850278986,
0,1,0,0,0,0,0,1,circle,star,2,0,2,0,0,5,5,5,,,,,,,,,,,,,,,,,,,,,,,,,,,,,,,,,,,,,,,,1495.8257265118882,1495.8257265118882,1495.8257265118882,1495.8257265118882,1495.8257265118882,1495.8257265118882,1495.8257265118882,1495.8257265118882,1495.8257265118882,1495.8257265118882,l,1.9051487250253558,10,596,2,1497.7617609319277,1499.2621058148798,1499.2621058148798,1499.7625166010112,,,,,,,,,,,,,,,,,,,,,,,,,,,,,,,,,,,,,,,,,,,,,,,,,,,,,,,,,,,,,,,,,82866,2022-11-22_10h17.46.575,vts_reward_expectancy_bt_OFFLINE,2022.2.4,59.95814850278986,
0,0,1,0,0,0,0,1,hexagon,star,2,0,2,0,0,6,6,8,,,,,,,,,,,,,,,,,,,,,,,,,,,,,,,,,,,,,,,,1499.7625166010112,1499.7625166010112,1499.7625166010112,1499.7625166010112,1499.7625166010112,1499.7625166010112,1499.7625166010112,1499.7625166010112,1499.7625166010112,1499.7625166010112,a,1.0616796512622386,1,597,2,1500.8486558999866,1502.3635317878798,,,,,,,,,,,,,,,,,,,,,,,,,,,,,,,,,,,,,,,,,,,,,,,,,,,,,,,,,,,,,,,,,,,82866,2022-11-22_10h17.46.575,vts_reward_expectancy_bt_OFFLINE,2022.2.4,59.95814850278986,
0,0,1,0,1,0,0,0,hexagon,triangle,2,0,2,0,0,7,7,6,,,,,,,,,,,,,,,,,,,,,,,,,,,,,,,,,,,,,,,,1502.8487521440256,1502.8487521440256,1502.8487521440256,1502.8487521440256,1502.8487521440256,1502.8487521440256,1502.8487521440256,1502.8487521440256,1502.8487521440256,1502.8487521440256,a,1.4973114160820842,10,607,2,1504.3684508819133,1505.8831474608742,,,,,,,,,,,,,,,,,,,,,,,,,,,,,,,,,,,,,,,,,,,,,,,,,,,,,,,,,,,,,,,,,,,82866,2022-11-22_10h17.46.575,vts_reward_expectancy_bt_OFFLINE,2022.2.4,59.95814850278986,
1,0,0,0,0,1,0,0,triangle,circle,2,0,2,0,0,8,8,0,,,,,,,,,,,,,,,,,,,,,,,,,,,,,,,,,,,,,,,,1506.3831249878276,1506.3831249878276,1506.3831249878276,1506.3831249878276,1506.3831249878276,1506.3831249878276,1506.3831249878276,1506.3831249878276,1506.3831249878276,1506.3831249878276,a,1.3947496830951422,10,617,2,1507.8028600120451,1509.30273973383,1509.30273973383,1509.8031964160036,,,,,,,,,,,,,,,,,,,,,,,,,,,,,,,,,,,,,,,,,,,,,,,,,,,,,,,,,,,,,,,,,82866,2022-11-22_10h17.46.575,vts_reward_expectancy_bt_OFFLINE,2022.2.4,59.95814850278986,
0,0,0,1,1,0,0,0,star,triangle,2,0,2,0,0,9,9,9,,,,,,,,,,,,,,,,,,,,,,,,,,,,,,,,,,,,,,,,1509.8031964160036,1509.8031964160036,1509.8031964160036,1509.8031964160036,1509.8031964160036,1509.8031964160036,1509.8031964160036,1509.8031964160036,1509.8031964160036,1509.8031964160036,l,1.878881350159645,1,618,2,1511.7062058069278,1513.2058627018705,,,,,,,,,,,,,,,,,,,,,,,,,,,,,,,,,,,,,,,,,,,,,,,,,,,,,,,,,,,,,,,,,,,82866,2022-11-22_10h17.46.575,vts_reward_expectancy_bt_OFFLINE,2022.2.4,59.95814850278986,
0,0,0,1,0,0,1,0,star,hexagon,2,0,2,0,0,10,10,11,,,,,,,,,,,,,,,,,,,,,,,,,,,,,,,,,,,,,,,,1513.7061401018873,1513.7061401018873,1513.7061401018873,1513.7061401018873,1513.7061401018873,1513.7061401018873,1513.7061401018873,1513.7061401018873,1513.7061401018873,1513.7061401018873,l,1.30575145711191,10,628,2,1515.0426766048186,1516.5572546299081,,,,,,,,,,,,,,,,,,,,,,,,,,,,,,,,,,,,,,,,,,,,,,,,,,,,,,,,,,,,,,,,,,,82866,2022-11-22_10h17.46.575,vts_reward_expectancy_bt_OFFLINE,2022.2.4,59.95814850278986,
0,0,1,0,0,1,0,0,hexagon,circle,2,0,2,0,0,11,11,7,,,,,,,,,,,,,,,,,,,,,,,,,,,,,,,,,,,,,,,,1517.0573577999603,1517.0573577999603,1517.0573577999603,1517.0573577999603,1517.0573577999603,1517.0573577999603,1517.0573577999603,1517.0573577999603,1517.0573577999603,1517.0573577999603,a,0.7213562582619488,10,638,2,1517.80956002092,1519.3102320998441,1519.3102320998441,1519.8102491879836,,,,,,,,,,,,,,,,,,,,,,,,,,,,,,,,,,,,,,,,,,,,,,,,,,,,,,,,,,,,,,,,,82866,2022-11-22_10h17.46.575,vts_reward_expectancy_bt_OFFLINE,2022.2.4,59.95814850278986,
1,0,0,0,0,1,0,0,triangle,circle,2,0,2,0,1,0,12,0,,,,,,,,,,,,,,,,,,,,,,,,,,,,,,,,,,,,,,,,1519.8102491879836,1519.8102491879836,1519.8102491879836,1519.8102491879836,1519.8102491879836,1519.8102491879836,1519.8102491879836,1519.8102491879836,1519.8102491879836,1519.8102491879836,a,0.7030718941241503,10,648,2,1520.5445568088908,1522.0444395029917,1522.0444395029917,,,,,,,,,,,,,,,,,,,,,,,,,,,,,,,,,,,,,,,,,,,,,,,,,,,,,,,,,,,,,,,,,,82866,2022-11-22_10h17.46.575,vts_reward_expectancy_bt_OFFLINE,2022.2.4,59.95814850278986,
1,0,0,0,0,0,0,1,triangle,star,2,0,2,0,1,1,13,2,,,,,,,,,,,,,,,,,,,,,,,,,,,,,,,,,,,,,,,,1522.5464458209462,1522.5464458209462,1522.5464458209462,1522.5464458209462,1522.5464458209462,1522.5464458209462,1522.5464458209462,1522.5464458209462,1522.5464458209462,1522.5464458209462,a,0.9146758781280369,10,658,2,1523.4808238239493,1524.980868794024,1524.980868794024,1525.480700001819,,,,,,,,,,,,,,,,,,,,,,,,,,,,,,,,,,,,,,,,,,,,,,,,,,,,,,,,,,,,,,,,,82866,2022-11-22_10h17.46.575,vts_reward_expectancy_bt_OFFLINE,2022.2.4,59.95814850278986,
0,0,0,1,0,0,1,0,star,hexagon,2,0,2,0,1,2,14,11,,,,,,,,,,,,,,,,,,,,,,,,,,,,,,,,,,,,,,,,1525.480700001819,1525.480700001819,1525.480700001819,1525.480700001819,1525.480700001819,1525.480700001819,1525.480700001819,1525.480700001819,1525.480700001819,1525.480700001819,l,0.9055541912093759,10,668,2,1526.4150942298584,1527.9168452208396,,,,,,,,,,,,,,,,,,,,,,,,,,,,,,,,,,,,,,,,,,,,,,,,,,,,,,,,,,,,,,,,,,,82866,2022-11-22_10h17.46.575,vts_reward_expectancy_bt_OFFLINE,2022.2.4,59.95814850278986,
0,0,0,1,1,0,0,0,star,triangle,2,0,2,0,1,3,15,9,,,,,,,,,,,,,,,,,,,,,,,,,,,,,,,,,,,,,,,,1528.417229163926,1528.417229163926,1528.417229163926,1528.417229163926,1528.417229163926,1528.417229163926,1528.417229163926,1528.417229163926,1528.417229163926,1528.417229163926,l,1.1978705422952771,1,669,2,1529.6368079038803,1531.151358883828,,,,,,,,,,,,,,,,,,,,,,,,,,,,,,,,,,,,,,,,,,,,,,,,,,,,,,,,,,,,,,,,,,,82866,2022-11-22_10h17.46.575,vts_reward_expectancy_bt_OFFLINE,2022.2.4,59.95814850278986,
0,1,0,0,0,0,1,0,circle,hexagon,2,0,2,0,1,4,16,4,,,,,,,,,,,,,,,,,,,,,,,,,,,,,,,,,,,,,,,,1531.6512367008254,1531.6512367008254,1531.6512367008254,1531.6512367008254,1531.6512367008254,1531.6512367008254,1531.6512367008254,1531.6512367008254,1531.6512367008254,1531.6512367008254,l,1.0010881971102208,10,679,2,1532.6849793728907,1534.1876994150225,,,,,,,,,,,,,,,,,,,,,,,,,,,,,,,,,,,,,,,,,,,,,,,,,,,,,,,,,,,,,,,,,,,82866,2022-11-22_10h17.46.575,vts_reward_expectancy_bt_OFFLINE,2022.2.4,59.95814850278986,
0,0,0,1,0,1,0,0,star ,circle,2,0,2,0,1,5,17,10,,,,,,,,,,,,,,,,,,,,,,,,,,,,,,,,,,,,,,,,1534.6877537979744,1534.6877537979744,1534.6877537979744,1534.6877537979744,1534.6877537979744,1534.6877537979744,1534.6877537979744,1534.6877537979744,1534.6877537979744,1534.6877537979744,a,0.9006576971150935,10,689,2,1535.6062039430253,1537.1052567269653,1537.1052567269653,,,,,,,,,,,,,,,,,,,,,,,,,,,,,,,,,,,,,,,,,,,,,,,,,,,,,,,,,,,,,,,,,,82866,2022-11-22_10h17.46.575,vts_reward_expectancy_bt_OFFLINE,2022.2.4,59.95814850278986,
0,1,0,0,1,0,0,0,circle,triangle,2,0,2,0,1,6,18,3,,,,,,,,,,,,,,,,,,,,,,,,,,,,,,,,,,,,,,,,1537.607406605035,1537.607406605035,1537.607406605035,1537.607406605035,1537.607406605035,1537.607406605035,1537.607406605035,1537.607406605035,1537.607406605035,1537.607406605035,l,0.9747038742061704,10,699,2,1538.6084760418162,1540.1083019250073,1540.1083019250073,1540.6083452289458,,,,,,,,,,,,,,,,,,,,,,,,,,,,,,,,,,,,,,,,,,,,,,,,,,,,,,,,,,,,,,,,,82866,2022-11-22_10h17.46.575,vts_reward_expectancy_bt_OFFLINE,2022.2.4,59.95814850278986,
0,0,1,0,0,0,0,1,hexagon,star,2,0,2,0,1,7,19,8,,,,,,,,,,,,,,,,,,,,,,,,,,,,,,,,,,,,,,,,1540.6083452289458,1540.6083452289458,1540.6083452289458,1540.6083452289458,1540.6083452289458,1540.6083452289458,1540.6083452289458,1540.6083452289458,1540.6083452289458,1540.6083452289458,a,0.7757764731068164,10,709,2,1541.4097213349305,1542.9110576759558,,,,,,,,,,,,,,,,,,,,,,,,,,,,,,,,,,,,,,,,,,,,,,,,,,,,,,,,,,,,,,,,,,,82866,2022-11-22_10h17.46.575,vts_reward_expectancy_bt_OFFLINE,2022.2.4,59.95814850278986,
1,0,0,0,0,0,1,0,triangle,hexagon,2,0,2,0,1,8,20,1,,,,,,,,,,,,,,,,,,,,,,,,,,,,,,,,,,,,,,,,1543.4112386070192,1543.4112386070192,1543.4112386070192,1543.4112386070192,1543.4112386070192,1543.4112386070192,1543.4112386070192,1543.4112386070192,1543.4112386070192,1543.4112386070192,l,0.8851642531808466,10,719,2,1544.3283594548702,1545.8287486068439,1545.8287486068439,1546.3289772118442,,,,,,,,,,,,,,,,,,,,,,,,,,,,,,,,,,,,,,,,,,,,,,,,,,,,,,,,,,,,,,,,,82866,2022-11-22_10h17.46.575,vts_reward_expectancy_bt_OFFLINE,2022.2.4,59.95814850278986,
0,0,1,0,1,0,0,0,hexagon,triangle,2,0,2,0,1,9,21,6,,,,,,,,,,,,,,,,,,,,,,,,,,,,,,,,,,,,,,,,1546.3289772118442,1546.3289772118442,1546.3289772118442,1546.3289772118442,1546.3289772118442,1546.3289772118442,1546.3289772118442,1546.3289772118442,1546.3289772118442,1546.3289772118442,a,0.7800947411451489,10,729,2,1547.1301010129973,1548.6317149989773,,,,,,,,,,,,,,,,,,,,,,,,,,,,,,,,,,,,,,,,,,,,,,,,,,,,,,,,,,,,,,,,,,,82866,2022-11-22_10h17.46.575,vts_reward_expectancy_bt_OFFLINE,2022.2.4,59.95814850278986,
0,1,0,0,0,0,0,1,circle,star,2,0,2,0,1,10,22,5,,,,,,,,,,,,,,,,,,,,,,,,,,,,,,,,,,,,,,,,1549.1318648939487,1549.1318648939487,1549.1318648939487,1549.1318648939487,1549.1318648939487,1549.1318648939487,1549.1318648939487,1549.1318648939487,1549.1318648939487,1549.1318648939487,l,1.1836249302141368,10,739,2,1550.333402239019,1551.8327929829247,1551.8327929829247,1552.332854083972,,,,,,,,,,,,,,,,,,,,,,,,,,,,,,,,,,,,,,,,,,,,,,,,,,,,,,,,,,,,,,,,,82866,2022-11-22_10h17.46.575,vts_reward_expectancy_bt_OFFLINE,2022.2.4,59.95814850278986,
0,0,1,0,0,1,0,0,hexagon,circle,2,0,2,0,1,11,23,7,,,,,,,,,,,,,,,,,,,,,,,,,,,,,,,,,,,,,,,,1552.332854083972,1552.332854083972,1552.332854083972,1552.332854083972,1552.332854083972,1552.332854083972,1552.332854083972,1552.332854083972,1552.332854083972,1552.332854083972,a,0.7277777201961726,1,740,2,1553.08751293784,1554.602461868897,,,,,,,,,,,,,,,,,,,,,,,,,,,,,,,,,,,,,,,,,,,,,,,,,,,,,,,,,,,,,,,,,,,82866,2022-11-22_10h17.46.575,vts_reward_expectancy_bt_OFFLINE,2022.2.4,59.95814850278986,
0,1,0,0,1,0,0,0,circle,triangle,2,0,2,0,2,0,24,3,,,,,,,,,,,,,,,,,,,,,,,,,,,,,,,,,,,,,,,,1555.085831659846,1555.085831659846,1555.085831659846,1555.085831659846,1555.085831659846,1555.085831659846,1555.085831659846,1555.085831659846,1555.085831659846,1555.085831659846,l,1.035150432959199,1,741,2,1556.1531599620357,1557.6553281869274,1557.6553281869274,1558.1553581829648,,,,,,,,,,,,,,,,,,,,,,,,,,,,,,,,,,,,,,,,,,,,,,,,,,,,,,,,,,,,,,,,,82866,2022-11-22_10h17.46.575,vts_reward_expectancy_bt_OFFLINE,2022.2.4,59.95814850278986,
0,0,0,1,0,1,0,0,star ,circle,2,0,2,0,2,1,25,10,,,,,,,,,,,,,,,,,,,,,,,,,,,,,,,,,,,,,,,,1558.1553581829648,1558.1553581829648,1558.1553581829648,1558.1553581829648,1558.1553581829648,1558.1553581829648,1558.1553581829648,1558.1553581829648,1558.1553581829648,1558.1553581829648,a,1.1499252740759403,1,742,2,1559.3232094240375,1560.8232422848232,1560.8232422848232,,,,,,,,,,,,,,,,,,,,,,,,,,,,,,,,,,,,,,,,,,,,,,,,,,,,,,,,,,,,,,,,,,82866,2022-11-22_10h17.46.575,vts_reward_expectancy_bt_OFFLINE,2022.2.4,59.95814850278986,
0,0,0,1,0,0,1,0,star,hexagon,2,0,2,0,2,2,26,11,,,,,,,,,,,,,,,,,,,,,,,,,,,,,,,,,,,,,,,,1561.32313247188,1561.32313247188,1561.32313247188,1561.32313247188,1561.32313247188,1561.32313247188,1561.32313247188,1561.32313247188,1561.32313247188,1561.32313247188,l,1.1444251800421625,1,743,2,1562.485770593863,1563.9927650308236,,,,,,,,,,,,,,,,,,,,,,,,,,,,,,,,,,,,,,,,,,,,,,,,,,,,,,,,,,,,,,,,,,,82866,2022-11-22_10h17.46.575,vts_reward_expectancy_bt_OFFLINE,2022.2.4,59.95814850278986,
0,1,0,0,0,0,0,1,circle,star,2,0,2,0,2,3,27,5,,,,,,,,,,,,,,,,,,,,,,,,,,,,,,,,,,,,,,,,1564.4928519360255,1564.4928519360255,1564.4928519360255,1564.4928519360255,1564.4928519360255,1564.4928519360255,1564.4928519360255,1564.4928519360255,1564.4928519360255,1564.4928519360255,a,1.9108791460748762,10,753,2,1566.4295179608744,1567.9291331139393,,,,,,,,,,,,,,,,,,,,,,,,,,,,,,,,,,,,,,,,,,,,,,,,,,,,,,,,,,,,,,,,,,,82866,2022-11-22_10h17.46.575,vts_reward_expectancy_bt_OFFLINE,2022.2.4,59.95814850278986,
0,0,1,0,0,0,0,1,hexagon,star,2,0,2,0,2,4,28,8,,,,,,,,,,,,,,,,,,,,,,,,,,,,,,,,,,,,,,,,1568.4295362178236,1568.4295362178236,1568.4295362178236,1568.4295362178236,1568.4295362178236,1568.4295362178236,1568.4295362178236,1568.4295362178236,1568.4295362178236,1568.4295362178236,a,1.1144692671950907,10,763,2,1569.5640444629826,1571.0637331509497,1571.0637331509497,1571.5638693040237,,,,,,,,,,,,,,,,,,,,,,,,,,,,,,,,,,,,,,,,,,,,,,,,,,,,,,,,,,,,,,,,,82866,2022-11-22_10h17.46.575,vts_reward_expectancy_bt_OFFLINE,2022.2.4,59.95814850278986,
0,0,1,0,1,0,0,0,hexagon,triangle,2,0,2,0,2,5,29,6,,,,,,,,,,,,,,,,,,,,,,,,,,,,,,,,,,,,,,,,1571.5638693040237,1571.5638693040237,1571.5638693040237,1571.5638693040237,1571.5638693040237,1571.5638693040237,1571.5638693040237,1571.5638693040237,1571.5638693040237,1571.5638693040237,a,2.209846733370796,1,764,2,1573.8146350348834,1575.3170538828708,,,,,,,,,,,,,,,,,,,,,,,,,,,,,,,,,,,,,,,,,,,,,,,,,,,,,,,,,,,,,,,,,,,82866,2022-11-22_10h17.46.575,vts_reward_expectancy_bt_OFFLINE,2022.2.4,59.95814850278986,
0,0,1,0,0,1,0,0,hexagon,circle,2,0,2,0,2,6,30,7,,,,,,,,,,,,,,,,,,,,,,,,,,,,,,,,,,,,,,,,1575.8173722689971,1575.8173722689971,1575.8173722689971,1575.8173722689971,1575.8173722689971,1575.8173722689971,1575.8173722689971,1575.8173722689971,1575.8173722689971,1575.8173722689971,l,1.0157651060726494,1,765,2,1576.852123529883,1578.3535171640106,,,,,,,,,,,,,,,,,,,,,,,,,,,,,,,,,,,,,,,,,,,,,,,,,,,,,,,,,,,,,,,,,,,82866,2022-11-22_10h17.46.575,vts_reward_expectancy_bt_OFFLINE,2022.2.4,59.95814850278986,
0,0,0,1,1,0,0,0,star,triangle,2,0,2,0,2,7,31,9,,,,,,,,,,,,,,,,,,,,,,,,,,,,,,,,,,,,,,,,1578.8535585040227,1578.8535585040227,1578.8535585040227,1578.8535585040227,1578.8535585040227,1578.8535585040227,1578.8535585040227,1578.8535585040227,1578.8535585040227,1578.8535585040227,l,1.0399128191638738,10,775,2,1579.923694333993,1581.4378475029953,,,,,,,,,,,,,,,,,,,,,,,,,,,,,,,,,,,,,,,,,,,,,,,,,,,,,,,,,,,,,,,,,,,82866,2022-11-22_10h17.46.575,vts_reward_expectancy_bt_OFFLINE,2022.2.4,59.95814850278986,
1,0,0,0,0,1,0,0,triangle,circle,2,0,2,0,2,8,32,0,,,,,,,,,,,,,,,,,,,,,,,,,,,,,,,,,,,,,,,,1581.9213522628415,1581.9213522628415,1581.9213522628415,1581.9213522628415,1581.9213522628415,1581.9213522628415,1581.9213522628415,1581.9213522628415,1581.9213522628415,1581.9213522628415,a,2.7541919541545212,1,776,2,1584.7088718209416,1586.2080699268263,1586.2080699268263,1586.7082568118349,,,,,,,,,,,,,,,,,,,,,,,,,,,,,,,,,,,,,,,,,,,,,,,,,,,,,,,,,,,,,,,,,82866,2022-11-22_10h17.46.575,vts_reward_expectancy_bt_OFFLINE,2022.2.4,59.95814850278986,
0,1,0,0,0,0,1,0,circle,hexagon,2,0,2,0,2,9,33,4,,,,,,,,,,,,,,,,,,,,,,,,,,,,,,,,,,,,,,,,1586.7082568118349,1586.7082568118349,1586.7082568118349,1586.7082568118349,1586.7082568118349,1586.7082568118349,1586.7082568118349,1586.7082568118349,1586.7082568118349,1586.7082568118349,l,0.8019043470267206,1,777,2,1587.5302885239944,1589.044147734996,,,,,,,,,,,,,,,,,,,,,,,,,,,,,,,,,,,,,,,,,,,,,,,,,,,,,,,,,,,,,,,,,,,82866,2022-11-22_10h17.46.575,vts_reward_expectancy_bt_OFFLINE,2022.2.4,59.95814850278986,
1,0,0,0,0,0,0,1,triangle,star,2,0,2,0,2,10,34,2,,,,,,,,,,,,,,,,,,,,,,,,,,,,,,,,,,,,,,,,1589.5443907720037,1589.5443907720037,1589.5443907720037,1589.5443907720037,1589.5443907720037,1589.5443907720037,1589.5443907720037,1589.5443907720037,1589.5443907720037,1589.5443907720037,a,0.9029149520210922,1,778,2,1590.47806862602,1591.9788629449904,1591.9788629449904,1592.478687366005,,,,,,,,,,,,,,,,,,,,,,,,,,,,,,,,,,,,,,,,,,,,,,,,,,,,,,,,,,,,,,,,,82866,2022-11-22_10h17.46.575,vts_reward_expectancy_bt_OFFLINE,2022.2.4,59.95814850278986,
1,0,0,0,0,0,1,0,triangle,hexagon,2,0,2,0,2,11,35,1,,,,,,,,,,,,,,,,,,,,,,,,,,,,,,,,,,,,,,,,1592.478687366005,1592.478687366005,1592.478687366005,1592.478687366005,1592.478687366005,1592.478687366005,1592.478687366005,1592.478687366005,1592.478687366005,1592.478687366005,l,1.7948157251812518,1,779,2,1594.2988064850215,1595.7984707888681,1595.7984707888681,,,,,,,,,,,,,,,,,,,,,,,,,,,,,,,,,,,,,,,,,,,,,,,,,,,,,,,,,,,,,,,,,,82866,2022-11-22_10h17.46.575,vts_reward_expectancy_bt_OFFLINE,2022.2.4,59.95814850278986,
0,0,1,0,0,1,0,0,hexagon,circle,2,0,2,0,3,0,36,7,,,,,,,,,,,,,,,,,,,,,,,,,,,,,,,,,,,,,,,,1596.2986543169245,1596.2986543169245,1596.2986543169245,1596.2986543169245,1596.2986543169245,1596.2986543169245,1596.2986543169245,1596.2986543169245,1596.2986543169245,1596.2986543169245,l,1.1120106482412666,10,789,2,1597.4356938609853,1598.9349218208808,,,,,,,,,,,,,,,,,,,,,,,,,,,,,,,,,,,,,,,,,,,,,,,,,,,,,,,,,,,,,,,,,,,82866,2022-11-22_10h17.46.575,vts_reward_expectancy_bt_OFFLINE,2022.2.4,59.95814850278986,
0,1,0,0,1,0,0,0,circle,triangle,2,0,2,0,3,1,37,3,,,,,,,,,,,,,,,,,,,,,,,,,,,,,,,,,,,,,,,,1599.4352182329167,1599.4352182329167,1599.4352182329167,1599.4352182329167,1599.4352182329167,1599.4352182329167,1599.4352182329167,1599.4352182329167,1599.4352182329167,1599.4352182329167,a,0.9005319951102138,10,799,2,1600.3685559048317,1601.8690719339065,1601.8690719339065,1602.3692532449495,,,,,,,,,,,,,,,,,,,,,,,,,,,,,,,,,,,,,,,,,,,,,,,,,,,,,,,,,,,,,,,,,82866,2022-11-22_10h17.46.575,vts_reward_expectancy_bt_OFFLINE,2022.2.4,59.95814850278986,
1,0,0,0,0,0,0,1,triangle,star,2,0,2,0,3,2,38,2,,,,,,,,,,,,,,,,,,,,,,,,,,,,,,,,,,,,,,,,1602.3692532449495,1602.3692532449495,1602.3692532449495,1602.3692532449495,1602.3692532449495,1602.3692532449495,1602.3692532449495,1602.3692532449495,1602.3692532449495,1602.3692532449495,l,1.0381302442401648,1,800,2,1603.4401696168352,1604.9556832499802,,,,,,,,,,,,,,,,,,,,,,,,,,,,,,,,,,,,,,,,,,,,,,,,,,,,,,,,,,,,,,,,,,,82866,2022-11-22_10h17.46.575,vts_reward_expectancy_bt_OFFLINE,2022.2.4,59.95814850278986,
0,1,0,0,0,0,1,0,circle,hexagon,2,0,2,0,3,3,39,4,,,,,,,,,,,,,,,,,,,,,,,,,,,,,,,,,,,,,,,,1605.4556833170354,1605.4556833170354,1605.4556833170354,1605.4556833170354,1605.4556833170354,1605.4556833170354,1605.4556833170354,1605.4556833170354,1605.4556833170354,1605.4556833170354,a,0.8771679452620447,10,810,2,1606.3590657508466,1607.8583897908684,,,,,,,,,,,,,,,,,,,,,,,,,,,,,,,,,,,,,,,,,,,,,,,,,,,,,,,,,,,,,,,,,,,82866,2022-11-22_10h17.46.575,vts_reward_expectancy_bt_OFFLINE,2022.2.4,59.95814850278986,
0,1,0,0,0,0,0,1,circle,star,2,0,2,0,3,4,40,5,,,,,,,,,,,,,,,,,,,,,,,,,,,,,,,,,,,,,,,,1608.358637342928,1608.358637342928,1608.358637342928,1608.358637342928,1608.358637342928,1608.358637342928,1608.358637342928,1608.358637342928,1608.358637342928,1608.358637342928,a,0.7525085993111134,1,811,2,1609.1441278448328,1610.659230906982,,,,,,,,,,,,,,,,,,,,,,,,,,,,,,,,,,,,,,,,,,,,,,,,,,,,,,,,,,,,,,,,,,,82866,2022-11-22_10h17.46.575,vts_reward_expectancy_bt_OFFLINE,2022.2.4,59.95814850278986,
0,0,1,0,0,0,0,1,hexagon,star,2,0,2,0,3,5,41,8,,,,,,,,,,,,,,,,,,,,,,,,,,,,,,,,,,,,,,,,1611.1594735940453,1611.1594735940453,1611.1594735940453,1611.1594735940453,1611.1594735940453,1611.1594735940453,1611.1594735940453,1611.1594735940453,1611.1594735940453,1611.1594735940453,a,3.453268352197483,10,821,2,1614.6327495309524,1616.1466748758685,,,,,,,,,,,,,,,,,,,,,,,,,,,,,,,,,,,,,,,,,,,,,,,,,,,,,,,,,,,,,,,,,,,82866,2022-11-22_10h17.46.575,vts_reward_expectancy_bt_OFFLINE,2022.2.4,59.95814850278986,
1,0,0,0,0,1,0,0,triangle,circle,2,0,2,0,3,6,42,0,,,,,,,,,,,,,,,,,,,,,,,,,,,,,,,,,,,,,,,,1616.646686666878,1616.646686666878,1616.646686666878,1616.646686666878,1616.646686666878,1616.646686666878,1616.646686666878,1616.646686666878,1616.646686666878,1616.646686666878,l,1.26365536917001,10,831,2,1617.9330289368518,1619.433034472866,,,,,,,,,,,,,,,,,,,,,,,,,,,,,,,,,,,,,,,,,,,,,,,,,,,,,,,,,,,,,,,,,,,82866,2022-11-22_10h17.46.575,vts_reward_expectancy_bt_OFFLINE,2022.2.4,59.95814850278986,
1,0,0,0,0,0,1,0,triangle,hexagon,2,0,2,0,3,7,43,1,,,,,,,,,,,,,,,,,,,,,,,,,,,,,,,,,,,,,,,,1619.932924224995,1619.932924224995,1619.932924224995,1619.932924224995,1619.932924224995,1619.932924224995,1619.932924224995,1619.932924224995,1619.932924224995,1619.932924224995,l,2.4652409141417593,1,832,2,1622.4203632159624,1623.9198668519966,,,,,,,,,,,,,,,,,,,,,,,,,,,,,,,,,,,,,,,,,,,,,,,,,,,,,,,,,,,,,,,,,,,82866,2022-11-22_10h17.46.575,vts_reward_expectancy_bt_OFFLINE,2022.2.4,59.95814850278986,
0,0,1,0,1,0,0,0,hexagon,triangle,2,0,2,0,3,8,44,6,,,,,,,,,,,,,,,,,,,,,,,,,,,,,,,,,,,,,,,,1624.4201408580411,1624.4201408580411,1624.4201408580411,1624.4201408580411,1624.4201408580411,1624.4201408580411,1624.4201408580411,1624.4201408580411,1624.4201408580411,1624.4201408580411,l,0.8807247132062912,1,833,2,1625.321016113041,1626.8209237910341,1626.8209237910341,,,,,,,,,,,,,,,,,,,,,,,,,,,,,,,,,,,,,,,,,,,,,,,,,,,,,,,,,,,,,,,,,,82866,2022-11-22_10h17.46.575,vts_reward_expectancy_bt_OFFLINE,2022.2.4,59.95814850278986,
0,0,0,1,0,0,1,0,star,hexagon,2,0,2,0,3,9,45,11,,,,,,,,,,,,,,,,,,,,,,,,,,,,,,,,,,,,,,,,1627.3208502898924,1627.3208502898924,1627.3208502898924,1627.3208502898924,1627.3208502898924,1627.3208502898924,1627.3208502898924,1627.3208502898924,1627.3208502898924,1627.3208502898924,a,2.1539747940842062,10,843,2,1629.5093312389217,1631.0240057168994,,,,,,,,,,,,,,,,,,,,,,,,,,,,,,,,,,,,,,,,,,,,,,,,,,,,,,,,,,,,,,,,,,,82866,2022-11-22_10h17.46.575,vts_reward_expectancy_bt_OFFLINE,2022.2.4,59.95814850278986,
0,0,0,1,0,1,0,0,star ,circle,2,0,2,0,3,10,46,10,,,,,,,,,,,,,,,,,,,,,,,,,,,,,,,,,,,,,,,,1631.5240754080005,1631.5240754080005,1631.5240754080005,1631.5240754080005,1631.5240754080005,1631.5240754080005,1631.5240754080005,1631.5240754080005,1631.5240754080005,1631.5240754080005,l,1.3602440753020346,10,853,2,1632.9112436729483,1634.410229014,1634.410229014,1634.910440377891,,,,,,,,,,,,,,,,,,,,,,,,,,,,,,,,,,,,,,,,,,,,,,,,,,,,,,,,,,,,,,,,,82866,2022-11-22_10h17.46.575,vts_reward_expectancy_bt_OFFLINE,2022.2.4,59.95814850278986,
0,0,0,1,1,0,0,0,star,triangle,2,0,2,0,3,11,47,9,,,,,,,,,,,,,,,,,,,,,,,,,,,,,,,,,,,,,,,,1634.910440377891,1634.910440377891,1634.910440377891,1634.910440377891,1634.910440377891,1634.910440377891,1634.910440377891,1634.910440377891,1634.910440377891,1634.910440377891,a,1.7542969682253897,10,863,2,1636.6956818208564,1638.196948116878,,,,,,,,,,,,,,,,,,,,,,,,,,,,,,,,,,,,,,,,,,,,,,,,,,,,,,,,,,,,,,,,,,,82866,2022-11-22_10h17.46.575,vts_reward_expectancy_bt_OFFLINE,2022.2.4,59.95814850278986,
,,,,,,,,,,,,,,,,,,0,0,0,0,0,0,0,0,,,,,,,,,,,,,,,,,,,,,,,,,,,,,,,,,,,,,,,,,,,,,,,,1669.0354964758735,,,167,F,triangle,0.002562353853136301,1663.9278167879675,1665.4158384639304,1665.4158384639304,1665.4158384639304,1,0,f,2.0868399392347783,0,1667.5366663290188,,,,,,,,,,,,,,,,,,,,,,,,,,,,,,,,,,,,,,,,,,,,,,,,,,,82866,2022-11-22_10h17.46.575,vts_reward_expectancy_bt_OFFLINE,2022.2.4,59.95814850278986,
,,,,,,,,,,,,,,,,,,0,0,0,0,1,0,1,0,,,,,,,,,,,,,,,,,,,,,,,,,,,,,,,,,,,,,,,,,,,,,,,,1675.3898578009102,,1675.8900513509288,181,H,circle,0.0017194391693919897,1670.0316086909734,1671.5199823598377,1671.5199823598377,1671.5199823598377,1,0,f,2.350112073123455,0,1673.8905305298977,1675.3898578009102,,,,,,,,,,,,,,,,,,,,,,,,,,,,,,,,,,,,,,,,,,,,,,,,,,82866,2022-11-22_10h17.46.575,vts_reward_expectancy_bt_OFFLINE,2022.2.4,59.95814850278986,
,,,,,,,,,,,,,,,,,,0,0,0,0,2,0,2,0,,,,,,,,,,,,,,,,,,,,,,,,,,,,,,,,,,,,,,,,,,,,,,,,1680.6935728539247,,,146,U,star,0.00032389815896749496,1676.3863620648626,1677.8760275919922,1677.8760275919922,1677.8760275919922,1,0,d,1.2710191521327943,0,1679.1781010588165,,,,,,,,,,,,,,,,,,,,,,,,,,,,,,,,,,,,,,,,,,,,,,,,,,,82866,2022-11-22_10h17.46.575,vts_reward_expectancy_bt_OFFLINE,2022.2.4,59.95814850278986,
,,,,,,,,,,,,,,,,,,0,0,0,0,3,0,3,0,,,,,,,,,,,,,,,,,,,,,,,,,,,,,,,,,,,,,,,,,,,,,,,,1685.2805759320036,,1685.7807461868506,125,W,hexagon,0.016381600173190236,1681.690079006832,1683.1629324809182,1683.1629324809182,1683.1629324809182,1,0,d,0.5853974481578916,0,1683.779738188954,1685.2805759320036,,,,,,,,,,,,,,,,,,,,,,,,,,,,,,,,,,,,,,,,,,,,,,,,,,82866,2022-11-22_10h17.46.575,vts_reward_expectancy_bt_OFFLINE,2022.2.4,59.95814850278986,
,,,,,,,,,,,,,,,,,,0,0,0,0,4,0,4,0,,,,,,,,,,,,,,,,,,,,,,,,,,,,,,,,,,,,,,,,,,,,,,,,1689.9839212459046,,,132,S,hexagon,0.015212842030450702,1686.2931071259081,1687.766411085846,1687.766411085846,1687.766411085846,1,0,d,0.6953143530990928,0,1688.484608437866,1689.9839212459046,,,,,,,,,,,,,,,,,,,,,,,,,,,,,,,,,,,,,,,,,,,,,,,,,,82866,2022-11-22_10h17.46.575,vts_reward_expectancy_bt_OFFLINE,2022.2.4,59.95814850278986,
,,,,,,,,,,,,,,,,,,0,0,0,0,5,0,5,0,,,,,,,,,,,,,,,,,,,,,,,,,,,,,,,,,,,,,,,,,,,,,,,,1694.9211152398493,,1695.420856178971,160,Y,star,0.0004484439268708229,1690.9795745278243,1692.4680972439237,1692.4680972439237,1692.4680972439237,1,0,f,0.9333237819373608,0,1693.4216426508501,1694.9211152398493,,,,,,,,,,,,,,,,,,,,,,,,,,,,,,,,,,,,,,,,,,,,,,,,,,82866,2022-11-22_10h17.46.575,vts_reward_expectancy_bt_OFFLINE,2022.2.4,59.95814850278986,
,,,,,,,,,,,,,,,,,,0,0,0,0,6,0,6,0,,,,,,,,,,,,,,,,,,,,,,,,,,,,,,,,,,,,,,,,,,,,,,,,1699.55782507197,,1700.057826046832,174,D,circle,0.00047216983512043953,1695.9169753140304,1697.4049391779117,1697.4049391779117,1697.4049391779117,1,0,f,0.6319097122177482,0,1698.0585450830404,1699.55782507197,,,,,,,,,,,,,,,,,,,,,,,,,,,,,,,,,,,,,,,,,,,,,,,,,,82866,2022-11-22_10h17.46.575,vts_reward_expectancy_bt_OFFLINE,2022.2.4,59.95814850278986,
,,,,,,,,,,,,,,,,,,0,0,0,0,7,0,7,0,,,,,,,,,,,,,,,,,,,,,,,,,,,,,,,,,,,,,,,,,,,,,,,,1704.0778558938764,,,139,B,triangle,0.0005061400588601828,1700.553850964876,1702.0421087259892,1702.0421087259892,1702.0421087259892,1,0,d,0.5066340260673314,0,1702.5741862279829,,,,,,,,,,,,,,,,,,,,,,,,,,,,,,,,,,,,,,,,,,,,,,,,,,,82866,2022-11-22_10h17.46.575,vts_reward_expectancy_bt_OFFLINE,2022.2.4,59.95814850278986,
,,,,,,,,,,,,,,,,,,0,0,0,0,8,0,8,0,,,,,,,,,,,,,,,,,,,,,,,,,,,,,,,,,,,,,,,,,,,,,,,,1708.6481053289026,,,167,F,hexagon,0.0016713060904294252,1705.0729612540454,1706.5620085438713,1706.5620085438713,1706.5620085438713,1,0,f,0.5539835733361542,0,1707.146934865974,,,,,,,,,,,,,,,,,,,,,,,,,,,,,,,,,,,,,,,,,,,,,,,,,,,82866,2022-11-22_10h17.46.575,vts_reward_expectancy_bt_OFFLINE,2022.2.4,59.95814850278986,
,,,,,,,,,,,,,,,,,,0,0,0,0,9,0,9,0,,,,,,,,,,,,,,,,,,,,,,,,,,,,,,,,,,,,,,,,,,,,,,,,1713.3681192889344,,,181,H,triangle,0.0019686338491737843,1709.6432742229663,1711.1321279269177,1711.1321279269177,1711.1321279269177,1,0,f,0.7094095649663359,0,1711.8671541400254,,,,,,,,,,,,,,,,,,,,,,,,,,,,,,,,,,,,,,,,,,,,,,,,,,,82866,2022-11-22_10h17.46.575,vts_reward_expectancy_bt_OFFLINE,2022.2.4,59.95814850278986,
,,,,,,,,,,,,,,,,,,,,,,,,,,0,0,0,0,0,0,0,0,,,,,,,,,,,,,,,,,,,,,,,,,,,,,,,,,,,,,,,,1743.0731094670482,,,174,D,star,0.002585149835795164,,,,,1,0,,,1,1741.5727377778385,,1739.4661039588973,1740.9539296389557,1740.9539296389557,1740.9539296389557,j,0.6003346152137965,,,,,,,,,,,,,,,,,,,,,,,,,,,,,,,,,,,,,,,,,,,,82866,2022-11-22_10h17.46.575,vts_reward_expectancy_bt_OFFLINE,2022.2.4,59.95814850278986,
,,,,,,,,,,,,,,,,,,,,,,,,,,0,0,0,0,1,0,1,0,,,,,,,,,,,,,,,,,,,,,,,,,,,,,,,,,,,,,,,,1747.8266565678641,,,139,Y,triangle,0.0016343649476766586,,,,,1,0,,,1,1746.3259150828235,,1744.0688925508875,1745.5574434618466,1745.5574434618466,1745.5574434618466,k,0.7440115930512547,,,,,,,,,,,,,,,,,,,,,,,,,,,,,,,,,,,,,,,,,,,,82866,2022-11-22_10h17.46.575,vts_reward_expectancy_bt_OFFLINE,2022.2.4,59.95814850278986,
,,,,,,,,,,,,,,,,,,,,,,,,,,0,0,0,0,2,0,2,0,,,,,,,,,,,,,,,,,,,,,,,,,,,,,,,,,,,,,,,,1752.4452791579533,,,125,U,circle,0.001830114983022213,,,,,1,0,,,1,1750.92979963799,,1748.821951976046,1750.3111121798865,1750.3111121798865,1750.3111121798865,k,0.5925633441656828,,,,,,,,,,,,,,,,,,,,,,,,,,,,,,,,,,,,,,,,,,,,82866,2022-11-22_10h17.46.575,vts_reward_expectancy_bt_OFFLINE,2022.2.4,59.95814850278986,
,,,,,,,,,,,,,,,,,,,,,,,,,,0,0,0,0,3,0,3,0,,,,,,,,,,,,,,,,,,,,,,,,,,,,,,,,,,,,,,,,1757.0653257998638,,,167,F,hexagon,0.001740399980917573,,,,,1,0,,,1,1755.5664002138656,1757.0653257998638,1753.4256393408868,1754.9146250949707,1754.9146250949707,1754.9146250949707,j,0.6235371581278741,,,,,,,,,,,,,,,,,,,,,,,,,,,,,,,,,,,,,,,,,,,,82866,2022-11-22_10h17.46.575,vts_reward_expectancy_bt_OFFLINE,2022.2.4,59.95814850278986,
,,,,,,,,,,,,,,,,,,,,,,,,,,0,0,0,0,4,0,4,0,,,,,,,,,,,,,,,,,,,,,,,,,,,,,,,,,,,,,,,,1761.6521020568907,,,181,W,hexagon,0.0003052470274269581,,,,,1,0,,,1,1760.1367092728615,,1758.0614983788691,1759.5513523658738,1759.5513523658738,1759.5513523658738,k,0.5544074201025069,,,,,,,,,,,,,,,,,,,,,,,,,,,,,,,,,,,,,,,,,,,,82866,2022-11-22_10h17.46.575,vts_reward_expectancy_bt_OFFLINE,2022.2.4,59.95814850278986,
,,,,,,,,,,,,,,,,,,,,,,,,,,0,0,0,0,5,0,5,0,,,,,,,,,,,,,,,,,,,,,,,,,,,,,,,,,,,,,,,,1766.2222490939312,,,160,B,star,0.016457646153867245,,,,,1,0,,,1,1764.7229354949668,1766.2222490939312,1762.6482604078483,1764.1216902269516,1764.1216902269516,1764.1216902269516,j,0.5747113870456815,,,,,,,,,,,,,,,,,,,,,,,,,,,,,,,,,,,,,,,,,,,,82866,2022-11-22_10h17.46.575,vts_reward_expectancy_bt_OFFLINE,2022.2.4,59.95814850278986,
,,,,,,,,,,,,,,,,,,,,,,,,,,0,0,0,0,6,0,6,0,,,,,,,,,,,,,,,,,,,,,,,,,,,,,,,,,,,,,,,,1770.9088655849919,,1771.409464682918,132,H,triangle,0.00034742592833936214,,,,,1,0,,,1,1769.408791848924,1770.9088655849919,1767.2178862039,1768.7082626100164,1768.7082626100164,1768.7082626100164,j,0.6683468972332776,,,,,,,,,,,,,,,,,,,,,,,,,,,,,,,,,,,,,,,,,,,,82866,2022-11-22_10h17.46.575,vts_reward_expectancy_bt_OFFLINE,2022.2.4,59.95814850278986,
,,,,,,,,,,,,,,,,,,,,,,,,,,0,0,0,0,7,0,7,0,,,,,,,,,,,,,,,,,,,,,,,,,,,,,,,,,,,,,,,,1775.6127665338572,,1776.1127343408298,146,S,circle,0.014522551093250513,,,,,1,0,,,1,1774.1121858258266,1775.6127665338572,1771.9216028710362,1773.3951459119562,1773.3951459119562,1773.3951459119562,k,0.6849649860523641,,,,,,,,,,,,,,,,,,,,,,,,,,,,,,,,,,,,,,,,,,,,82866,2022-11-22_10h17.46.575,vts_reward_expectancy_bt_OFFLINE,2022.2.4,59.95814850278986,
,,,,,,,,,,,,,,,,,,,,,,,,,,0,0,0,0,8,0,8,0,,,,,,,,,,,,,,,,,,,,,,,,,,,,,,,,,,,,,,,,1780.2828798368573,,,174,D,triangle,0.014798312913626432,,,,,1,0,,,1,1778.7674831929617,,1776.6248872480355,1778.0987378889695,1778.0987378889695,1778.0987378889695,j,0.6501838802359998,,,,,,,,,,,,,,,,,,,,,,,,,,,,,,,,,,,,,,,,,,,,82866,2022-11-22_10h17.46.575,vts_reward_expectancy_bt_OFFLINE,2022.2.4,59.95814850278986,
,,,,,,,,,,,,,,,,,,,,,,,,,,0,0,0,0,9,0,9,0,,,,,,,,,,,,,,,,,,,,,,,,,,,,,,,,,,,,,,,,1784.936510416912,,1785.439757375978,139,Y,circle,0.016581120900809765,,,,,1,0,,,1,1783.4371975490358,1784.936510416912,1781.2780618758406,1782.7522432599217,1782.7522432599217,1782.7522432599217,k,0.6657078843563795,,,,,,,,,,,,,,,,,,,,,,,,,,,,,,,,,,,,,,,,,,,,82866,2022-11-22_10h17.46.575,vts_reward_expectancy_bt_OFFLINE,2022.2.4,59.95814850278986,
,,,,,,,,,,,,,,,,,,,,,,,,,,,,,,,,,,0,0,0,0,0,0,0,0,,,,,,,,,,,,,,,,,,,,,,,,,,,,0,863,,,1813.6742887860164,,1814.1745043389965,146,Y,hexagon,0.002547134878113866,,,,,1,0,,,2,,,,,,,,,1808.7838036138564,1808.7838036138564,1808.7838036138564,1808.7838036138564,1810.271136204945,1810.271136204945,1810.271136204945,1810.271136204945,1810.2880679119844,1810.2880679119844,1810.2880679119844,1810.2880679119844,-1,number,NA,d,1.8687134459614754,vtsPrac,1812.1751558380201,1813.6742887860164,,,,,,,,,,,,,,,,,,,,,,,,82866,2022-11-22_10h17.46.575,vts_reward_expectancy_bt_OFFLINE,2022.2.4,59.95814850278986,
,,,,,,,,,,,,,,,,,,,,,,,,,,,,,,,,,,0,0,0,0,1,0,1,0,,,,,,,,,,,,,,,,,,,,,,,,,,,,0,863,,,1818.8449470808264,,,132,H,circle,0.0001730609219521284,,,,,1,0,,,2,,,,,,,,,1814.6709078089334,1814.6709078089334,1814.6709078089334,1814.6709078089334,1816.1587009588256,1816.1587009588256,1816.1587009588256,1816.1587009588256,1816.1751127308235,1816.1751127308235,1816.1751127308235,1816.1751127308235,repeat,number,numRpt,d,1.1573134250938892,vtsPrac,1817.344482333865,,,,,,,,,,,,,,,,,,,,,,,,,82866,2022-11-22_10h17.46.575,vts_reward_expectancy_bt_OFFLINE,2022.2.4,59.95814850278986,
,,,,,,,,,,,,,,,,,,,,,,,,,,,,,,,,,,0,0,0,0,2,0,2,0,,,,,,,,,,,,,,,,,,,,,,,,,,,,0,863,,,1824.1484394809231,,1824.6486899098381,160,F,hexagon,0.0016732639633119106,,,,,1,0,,,2,,,,,,,,,1819.840849489905,1819.840849489905,1819.840849489905,1819.840849489905,1821.3288574640173,1821.3288574640173,1821.3288574640173,1821.3288574640173,1821.345602790825,1821.345602790825,1821.345602790825,1821.345602790825,switch,letter,lettSwt,j,1.285305944038555,vtsPrac,1822.6465015260037,1824.1484394809231,,,,,,,,,,,,,,,,,,,,,,,,82866,2022-11-22_10h17.46.575,vts_reward_expectancy_bt_OFFLINE,2022.2.4,59.95814850278986,
,,,,,,,,,,,,,,,,,,,,,,,,,,,,,,,,,,0,0,0,0,3,0,3,0,,,,,,,,,,,,,,,,,,,,,,,,,,,,0,863,,,1828.9020775528625,,,139,B,triangle,0.00018257996998727322,,,,,1,0,,,2,,,,,,,,,1825.1450832989067,1825.1450832989067,1825.1450832989067,1825.1450832989067,1826.632867605891,1826.632867605891,1826.632867605891,1826.632867605891,1826.6494747579563,1826.6494747579563,1826.6494747579563,1826.6494747579563,switch,number,numSwt,d,0.7410068002063781,vtsPrac,1827.4010948739015,,,,,,,,,,,,,,,,,,,,,,,,,82866,2022-11-22_10h17.46.575,vts_reward_expectancy_bt_OFFLINE,2022.2.4,59.95814850278986,
,,,,,,,,,,,,,,,,,,,,,,,,,,,,,,,,,,0,0,0,0,4,0,4,0,,,,,,,,,,,,,,,,,,,,,,,,,,,,0,863,,,1833.9222754149232,,,146,Y,hexagon,0.0020783250220119953,,,,,1,0,,,2,,,,,,,,,1829.8973264098167,1829.8973264098167,1829.8973264098167,1829.8973264098167,1831.3864081590436,1831.3864081590436,1831.3864081590436,1831.3864081590436,1831.4029988988768,1831.4029988988768,1831.4029988988768,1831.4029988988768,switch,letter,lettSwt,k,1.0049448602367193,vtsPrac,1832.4220921760425,,,,,,,,,,,,,,,,,,,,,,,,,82866,2022-11-22_10h17.46.575,vts_reward_expectancy_bt_OFFLINE,2022.2.4,59.95814850278986,
,,,,,,,,,,,,,,,,,,,,,,,,,,,,,,,,,,0,0,0,0,5,0,5,0,,,,,,,,,,,,,,,,,,,,,,,,,,,,0,863,,,1838.5757080868352,,,132,H,triangle,0.0014433739706873894,,,,,1,0,,,2,,,,,,,,,1834.9180023299996,1834.9180023299996,1834.9180023299996,1834.9180023299996,1836.4067541989498,1836.4067541989498,1836.4067541989498,1836.4067541989498,1836.4231886158232,1836.4231886158232,1836.4231886158232,1836.4231886158232,repeat,letter,lettRpt,j,0.6424510881770402,vtsPrac,1837.0750485868193,,,,,,,,,,,,,,,,,,,,,,,,,82866,2022-11-22_10h17.46.575,vts_reward_expectancy_bt_OFFLINE,2022.2.4,59.95814850278986,
,,,,,,,,,,,,,,,,,,,,,,,,,,,,,,,,,,0,0,0,0,6,0,6,0,,,,,,,,,,,,,,,,,,,,,,,,,,,,0,863,,,1843.4625761439092,,,160,F,hexagon,0.002018506173044443,,,,,1,0,,,2,,,,,,,,,1839.5715777380392,1839.5715777380392,1839.5715777380392,1839.5715777380392,1841.0600138090085,1841.0600138090085,1841.0600138090085,1841.0600138090085,1841.0767385310028,1841.0767385310028,1841.0767385310028,1841.0767385310028,repeat,letter,lettRpt,j,0.8722347551956773,vtsPrac,1841.9621698178817,,,,,,,,,,,,,,,,,,,,,,,,,82866,2022-11-22_10h17.46.575,vts_reward_expectancy_bt_OFFLINE,2022.2.4,59.95814850278986,
,,,,,,,,,,,,,,,,,,,,,,,,,,,,,,,,,,0,0,0,0,7,0,7,0,,,,,,,,,,,,,,,,,,,,,,,,,,,,0,863,,,1848.6831343928352,,,139,B,circle,0.0018498802091926336,,,,,1,0,,,2,,,,,,,,,1844.458398371935,1844.458398371935,1844.458398371935,1844.458398371935,1845.9471464559902,1845.9471464559902,1845.9471464559902,1845.9471464559902,1845.9635060359724,1845.9635060359724,1845.9635060359724,1845.9635060359724,repeat,letter,lettRpt,j,1.2055984700564295,vtsPrac,1847.1827439239714,,,,,,,,,,,,,,,,,,,,,,,,,82866,2022-11-22_10h17.46.575,vts_reward_expectancy_bt_OFFLINE,2022.2.4,59.95814850278986,
,,,,,,,,,,,,,,,,,,,,,,,,,,,,,,,,,,0,0,0,0,8,0,8,0,,,,,,,,,,,,,,,,,,,,,,,,,,,,0,863,,,1853.9536739818286,,,132,H,triangle,0.002106514060869813,,,,,1,0,,,2,,,,,,,,,1849.6785687308293,1849.6785687308293,1849.6785687308293,1849.6785687308293,1851.1673790928908,1851.1673790928908,1851.1673790928908,1851.1673790928908,1851.1839870309923,1851.1839870309923,1851.1839870309923,1851.1839870309923,repeat,letter,lettRpt,j,1.2618897212669253,vtsPrac,1852.4530335448217,,,,,,,,,,,,,,,,,,,,,,,,,82866,2022-11-22_10h17.46.575,vts_reward_expectancy_bt_OFFLINE,2022.2.4,59.95814850278986,
,,,,,,,,,,,,,,,,,,,,,,,,,,,,,,,,,,0,0,0,0,9,0,9,0,,,,,,,,,,,,,,,,,,,,,,,,,,,,0,863,,,1858.9238359509036,,,181,W,star,0.002032252959907055,,,,,1,0,,,2,,,,,,,,,1854.9498155568726,1854.9498155568726,1854.9498155568726,1854.9498155568726,1856.4376201189589,1856.4376201189589,1856.4376201189589,1856.4376201189589,1856.4545134720393,1856.4545134720393,1856.4545134720393,1856.4545134720393,switch,number,numSwt,f,0.9531857883557677,vtsPrac,1857.4229813879356,,,,,,,,,,,,,,,,,,,,,,,,,82866,2022-11-22_10h17.46.575,vts_reward_expectancy_bt_OFFLINE,2022.2.4,59.95814850278986,
,,,,,,,,,,,,,,,,,,,,,,,,,,,,,,,,,,0,0,0,0,10,0,10,0,,,,,,,,,,,,,,,,,,,,,,,,,,,,0,863,,,1863.660776867997,,,146,B,triangle,0.0019828861113637686,,,,,1,0,,,2,,,,,,,,,1859.9192502310034,1859.9192502310034,1859.9192502310034,1859.9192502310034,1861.4081131049898,1861.4081131049898,1861.4081131049898,1861.4081131049898,1861.424761727918,1861.424761727918,1861.424761727918,1861.424761727918,switch,letter,lettSwt,j,0.7193938831333071,vtsPrac,1862.1598153449595,,,,,,,,,,,,,,,,,,,,,,,,,82866,2022-11-22_10h17.46.575,vts_reward_expectancy_bt_OFFLINE,2022.2.4,59.95814850278986,
,,,,,,,,,,,,,,,,,,,,,,,,,,,,,,,,,,0,0,0,0,11,0,11,0,,,,,,,,,,,,,,,,,,,,,,,,,,,,0,863,,,1868.2807922898792,,,125,U,star,0.002161941956728697,,,,,1,0,,,2,,,,,,,,,1864.6566255788784,1864.6566255788784,1864.6566255788784,1864.6566255788784,1866.1449334539939,1866.1449334539939,1866.1449334539939,1866.1449334539939,1866.1616706240457,1866.1616706240457,1866.1616706240457,1866.1616706240457,switch,number,numSwt,d,0.6167306972201914,vtsPrac,1866.7805355680175,,,,,,,,,,,,,,,,,,,,,,,,,82866,2022-11-22_10h17.46.575,vts_reward_expectancy_bt_OFFLINE,2022.2.4,59.95814850278986,
,,,,,,,,,,,,,,,,,,,,,,,,,,,,,,,,,,0,0,0,0,12,0,12,0,,,,,,,,,,,,,,,,,,,,,,,,,,,,0,863,,,1873.2680168950465,,,125,Y,hexagon,0.0015868479385972023,,,,,1,0,,,2,,,,,,,,,1869.2764700020198,1869.2764700020198,1869.2764700020198,1869.2764700020198,1870.7654005719814,1870.7654005719814,1870.7654005719814,1870.7654005719814,1870.7816514100414,1870.7816514100414,1870.7816514100414,1870.7816514100414,repeat,number,numRpt,d,0.9698069731239229,vtsPrac,1871.7677532939706,,,,,,,,,,,,,,,,,,,,,,,,,82866,2022-11-22_10h17.46.575,vts_reward_expectancy_bt_OFFLINE,2022.2.4,59.95814850278986,
,,,,,,,,,,,,,,,,,,,,,,,,,,,,,,,,,,0,0,0,0,13,0,13,0,,,,,,,,,,,,,,,,,,,,,,,,,,,,0,863,,,1877.921238098992,,,132,F,triangle,0.0017387140542268753,,,,,1,0,,,2,,,,,,,,,1874.2628917479888,1874.2628917479888,1874.2628917479888,1874.2628917479888,1875.7521198159084,1875.7521198159084,1875.7521198159084,1875.7521198159084,1875.7686631679535,1875.7686631679535,1875.7686631679535,1875.7686631679535,switch,letter,lettSwt,j,0.640167779289186,vtsPrac,1876.420990817016,,,,,,,,,,,,,,,,,,,,,,,,,82866,2022-11-22_10h17.46.575,vts_reward_expectancy_bt_OFFLINE,2022.2.4,59.95814850278986,
,,,,,,,,,,,,,,,,,,,,,,,,,,,,,,,,,,0,0,0,0,14,0,14,0,,,,,,,,,,,,,,,,,,,,,,,,,,,,0,863,,,1882.6397613580339,,,181,W,circle,0.0016673470381647348,,,,,1,0,,,2,,,,,,,,,1878.916902662022,1878.916902662022,1878.916902662022,1878.916902662022,1880.4056264068931,1880.4056264068931,1880.4056264068931,1880.4056264068931,1880.4222299938556,1880.4222299938556,1880.4222299938556,1880.4222299938556,switch,number,numSwt,f,0.689916152972728,vtsPrac,1881.1241818259005,,,,,,,,,,,,,,,,,,,,,,,,,82866,2022-11-22_10h17.46.575,vts_reward_expectancy_bt_OFFLINE,2022.2.4,59.95814850278986,
,,,,,,,,,,,,,,,,,,,,,,,,,,,,,,,,,,0,0,0,0,15,0,15,0,,,,,,,,,,,,,,,,,,,,,,,,,,,,0,863,,,1887.8120941959787,,,146,D,star,0.0020875788759440184,,,,,1,0,,,2,,,,,,,,,1883.6206060410477,1883.6206060410477,1883.6206060410477,1883.6206060410477,1885.109156887047,1885.109156887047,1885.109156887047,1885.109156887047,1885.1257060810458,1885.1257060810458,1885.1257060810458,1885.1257060810458,repeat,number,numRpt,d,1.1836507669650018,vtsPrac,1886.3118628559168,,,,,,,,,,,,,,,,,,,,,,,,,82866,2022-11-22_10h17.46.575,vts_reward_expectancy_bt_OFFLINE,2022.2.4,59.95814850278986,
,,,,,,,,,,,,,,,,,,,,,,,,,,,,,,,,,,0,0,0,0,16,0,16,0,,,,,,,,,,,,,,,,,,,,,,,,,,,,0,863,,,1892.430372547824,,,181,U,star,0.0016332468949258327,,,,,1,0,,,2,,,,,,,,,1888.807365405839,1888.807365405839,1888.807365405839,1888.807365405839,1890.2962391169276,1890.2962391169276,1890.2962391169276,1890.2962391169276,1890.3128737218212,1890.3128737218212,1890.3128737218212,1890.3128737218212,switch,letter,lettSwt,k,0.5988168502226472,vtsPrac,1890.9150831098668,,,,,,,,,,,,,,,,,,,,,,,,,82866,2022-11-22_10h17.46.575,vts_reward_expectancy_bt_OFFLINE,2022.2.4,59.95814850278986,
,,,,,,,,,,,,,,,,,,,,,,,,,,,,,,,,,,0,0,0,0,17,0,17,0,,,,,,,,,,,,,,,,,,,,,,,,,,,,0,863,,,1899.086450256873,,,132,D,triangle,0.0016472998540848494,,,,,1,0,,,2,,,,,,,,,1893.4103569409344,1893.4103569409344,1893.4103569409344,1893.4103569409344,1894.899596562842,1894.899596562842,1894.899596562842,1894.899596562842,1894.916277301032,1894.916277301032,1894.916277301032,1894.916277301032,switch,number,numSwt,d,2.655972345266491,vtsPrac,1897.5856138358358,,,,,,,,,,,,,,,,,,,,,,,,,82866,2022-11-22_10h17.46.575,vts_reward_expectancy_bt_OFFLINE,2022.2.4,59.95814850278986,
,,,,,,,,,,,,,,,,,,,,,,,,,,,,,,,,,,0,0,0,0,18,0,18,0,,,,,,,,,,,,,,,,,,,,,,,,,,,,0,863,,,1903.9064011909068,,,125,S,triangle,0.0020167760085314512,,,,,0,0,,,2,,,,,,,,,1900.0824354640208,1900.0824354640208,1900.0824354640208,1900.0824354640208,1901.570253809914,1901.570253809914,1901.570253809914,1901.570253809914,1901.5871109180152,1901.5871109180152,1901.5871109180152,1901.5871109180152,switch,letter,NA,j,0.8109313421882689,vtsPrac,1902.4076158660464,,,,,,,,,,,,,,,,,,,,,,,,,82866,2022-11-22_10h17.46.575,vts_reward_expectancy_bt_OFFLINE,2022.2.4,59.95814850278986,
,,,,,,,,,,,,,,,,,,,,,,,,,,,,,,,,,,0,0,0,0,19,0,19,0,,,,,,,,,,,,,,,,,,,,,,,,,,,,0,863,,,1909.1435602989513,,,146,H,circle,0.0020020001102238894,,,,,1,1,,,2,,,,,,,,,1904.902315112995,1904.902315112995,1904.902315112995,1904.902315112995,1906.3908009210136,1906.3908009210136,1906.3908009210136,1906.3908009210136,1906.4075873829424,1906.4075873829424,1906.4075873829424,1906.4075873829424,repeat,letter,lettRpt,j,1.232999173225835,vtsPrac,1907.644463954959,,,,,,,,,,,,,,,,,,,,,,,,,82866,2022-11-22_10h17.46.575,vts_reward_expectancy_bt_OFFLINE,2022.2.4,59.95814850278986,
,,,,,,,,,,,,,,,,,,,,,,,,,,,,,,,,,,0,0,0,0,20,0,20,0,,,,,,,,,,,,,,,,,,,,,,,,,,,,0,863,,,1913.6970003310125,,,125,U,triangle,0.0017453299369663,,,,,1,0,,,2,,,,,,,,,1910.1389587570447,1910.1389587570447,1910.1389587570447,1910.1389587570447,1911.6281391729135,1911.6281391729135,1911.6281391729135,1911.6281391729135,1911.6445629750378,1911.6445629750378,1911.6445629750378,1911.6445629750378,repeat,letter,lettRpt,k,0.5409244641195983,vtsPrac,1912.196681699017,,,,,,,,,,,,,,,,,,,,,,,,,82866,2022-11-22_10h17.46.575,vts_reward_expectancy_bt_OFFLINE,2022.2.4,59.95814850278986,
,,,,,,,,,,,,,,,,,,,,,,,,,,,,,,,,,,0,0,0,0,21,0,21,0,,,,,,,,,,,,,,,,,,,,,,,,,,,,0,863,,,1918.4005431069527,,,139,F,star,0.0017139299307018518,,,,,1,0,,,2,,,,,,,,,1914.6921366348397,1914.6921366348397,1914.6921366348397,1914.6921366348397,1916.1811498408206,1916.1811498408206,1916.1811498408206,1916.1811498408206,1916.1980186209548,1916.1980186209548,1916.1980186209548,1916.1980186209548,repeat,letter,lettRpt,j,0.6914455571677536,vtsPrac,1916.9004056279082,,,,,,,,,,,,,,,,,,,,,,,,,82866,2022-11-22_10h17.46.575,vts_reward_expectancy_bt_OFFLINE,2022.2.4,59.95814850278986,
,,,,,,,,,,,,,,,,,,,,,,,,,,,,,,,,,,0,0,0,0,22,0,22,0,,,,,,,,,,,,,,,,,,,,,,,,,,,,0,863,,,1923.3208891248796,,,181,D,star,0.0019320829305797815,,,,,1,0,,,2,,,,,,,,,1919.3955790249165,1919.3955790249165,1919.3955790249165,1919.3955790249165,1920.884654572932,1920.884654572932,1920.884654572932,1920.884654572932,1920.9015578159597,1920.9015578159597,1920.9015578159597,1920.9015578159597,switch,number,numSwt,f,0.9045855940785259,vtsPrac,1921.820685802959,,,,,,,,,,,,,,,,,,,,,,,,,82866,2022-11-22_10h17.46.575,vts_reward_expectancy_bt_OFFLINE,2022.2.4,59.95814850278986,
,,,,,,,,,,,,,,,,,,,,,,,,,,,,,,,,,,0,0,0,0,23,0,23,0,,,,,,,,,,,,,,,,,,,,,,,,,,,,0,863,,,1928.3912502538878,,,146,S,hexagon,0.0017388639971613884,,,,,1,0,,,2,,,,,,,,,1924.3159543508664,1924.3159543508664,1924.3159543508664,1924.3159543508664,1925.8052389130462,1925.8052389130462,1925.8052389130462,1925.8052389130462,1925.821865316946,1925.821865316946,1925.821865316946,1925.821865316946,repeat,number,numRpt,d,1.05811424436979,vtsPrac,1926.891097232001,,,,,,,,,,,,,,,,,,,,,,,,,82866,2022-11-22_10h17.46.575,vts_reward_expectancy_bt_OFFLINE,2022.2.4,59.95814850278986,
,,,,,,,,,,,,,,,,,,,,,,,,,,,,,,,,,,0,0,0,0,24,0,24,0,,,,,,,,,,,,,,,,,,,,,,,,,,,,0,863,,,1933.311441863887,,,132,H,circle,0.0018739609513431787,,,,,1,0,,,2,,,,,,,,,1929.3864469418768,1929.3864469418768,1929.3864469418768,1929.3864469418768,1930.8754448359832,1930.8754448359832,1930.8754448359832,1930.8754448359832,1930.8920769239776,1930.8920769239776,1930.8920769239776,1930.8920769239776,repeat,number,numRpt,d,0.9147991091012955,vtsPrac,1931.8112095668912,,,,,,,,,,,,,,,,,,,,,,,,,82866,2022-11-22_10h17.46.575,vts_reward_expectancy_bt_OFFLINE,2022.2.4,59.95814850278986,
,,,,,,,,,,,,,,,,,,,,,,,,,,,,,,,,,,0,0,0,0,25,0,25,0,,,,,,,,,,,,,,,,,,,,,,,,,,,,0,863,,,1938.9652977949008,,,146,W,triangle,0.0018838690593838692,,,,,1,0,,,2,,,,,,,,,1934.3065598518588,1934.3065598518588,1934.3065598518588,1934.3065598518588,1935.7955921399407,1935.7955921399407,1935.7955921399407,1935.7955921399407,1935.8121716219466,1935.8121716219466,1935.8121716219466,1935.8121716219466,switch,letter,lettSwt,k,1.643140396103263,vtsPrac,1937.46488340199,,,,,,,,,,,,,,,,,,,,,,,,,82866,2022-11-22_10h17.46.575,vts_reward_expectancy_bt_OFFLINE,2022.2.4,59.95814850278986,
