LTriangleOpac,LCircleOpac,LHexagonOpac,LStarOpac,RTriangleOpac,RCircleOpac,RHexagonOpac,RStarOpac,LShape_ID,RShape_ID,training_blocks.thisRepN,training_blocks.thisTrialN,training_blocks.thisN,training_blocks.thisIndex,training.thisRepN,training.thisTrialN,training.thisN,training.thisIndex,task1_prac_redo.thisRepN,task1_prac_redo.thisTrialN,task1_prac_redo.thisN,task1_prac_redo.thisIndex,task1_prac_trials.thisRepN,task1_prac_trials.thisTrialN,task1_prac_trials.thisN,task1_prac_trials.thisIndex,task2_prac_redo.thisRepN,task2_prac_redo.thisTrialN,task2_prac_redo.thisN,task2_prac_redo.thisIndex,task2_praac_trials.thisRepN,task2_praac_trials.thisTrialN,task2_praac_trials.thisN,task2_praac_trials.thisIndex,vts_prac_redo.thisRepN,vts_prac_redo.thisTrialN,vts_prac_redo.thisN,vts_prac_redo.thisIndex,vts_practice_trials.thisRepN,vts_practice_trials.thisTrialN,vts_practice_trials.thisN,vts_practice_trials.thisIndex,trials_norew.thisRepN,trials_norew.thisTrialN,trials_norew.thisN,trials_norew.thisIndex,block.thisRepN,block.thisTrialN,block.thisN,block.thisIndex,trials_rew.thisRepN,trials_rew.thisTrialN,trials_rew.thisN,trials_rew.thisIndex,key_resp.started,key_resp.keys,key_resp.rt,left_circle.started,right_circle.started,left_triangle.started,right_triangle.started,left_star.started,right_star.started,left_hexagon.started,right_hexagon.started,training_fix.started,training_resp.started,training_resp.keys,training_resp.rt,points_trial,points_cumul,trainBlock,training_feedback_txt.started,fix.started,training_feedback_txt.stopped,fix.stopped,curr_topStim,curr_bottStim,curr_shape,ISI.started,tgt_fix_prac1.started,top_target_prac1.started,bott_target_prac1.started,target_resp_prac1.started,acc,E1,target_resp_prac1.keys,target_resp_prac1.rt,pracBlock,prac_fback_text.started,tgt_fix_prac2.started,top_target_prac2.started,bott_target_prac2.started,target_resp_prac2.started,target_resp_prac2.keys,target_resp_prac2.rt,prac_fback_text.stopped,star.started,hegagon.started,triangle.started,circle.started,star.stopped,hegagon.stopped,triangle.stopped,circle.stopped,top_target.started,tgt_fix.started,bot_target.started,target_resp.started,alt,task,condition,target_resp.keys,target_resp.rt,rewCond,vts_fback.started,top_target.stopped,tgt_fix.stopped,bot_target.stopped,target_resp.stopped,vts_fback.stopped,blockNum,norew_fback.started,norew_fback.stopped,key_resp_2.keys,key_resp_2.rt,rewExpectancy,feedbk_text.started,feedbk_text.stopped,text_3.started,debrief.started,text_3.stopped,button.started,debrief.index,debrief.itemText,debrief.type,debrief.granularity,debrief.font,debrief.markerColor,debrief.response,debrief.rt,button.numClicks,button.timesOn,button.timesOff,participant,date,expName,psychopyVersion,frameRate,
,,,,,,,,,,,,,,,,,,,,,,,,,,,,,,,,,,,,,,,,,,,,,,,,,,,,,,29.166785505018197,space,21.694710977986688,,,,,,,,,,,,,,,,,,,,,,,,,,,,,,,,,,,,,,,,,,,,,,,,,,,,,,,,,,,,,,,,,,,,,,,,,,,,,,,,,,,,,,,,83693,2022-11-14_14h14.52.268,vts_reward_expectancy_bt_OFFLINE,2022.2.4,59.95288303338278,
0,1,0,0,1,0,0,0,circle,triangle,0,0,0,0,0,0,0,3,,,,,,,,,,,,,,,,,,,,,,,,,,,,,,,,,,,,,,,,103.9554582599958,103.9554582599958,103.9554582599958,103.9554582599958,103.9554582599958,103.9554582599958,103.9554582599958,103.9554582599958,103.9554582599958,103.9554582599958,l,1.4242793419980444,10,10,0,105.41226107801776,106.91378248701221,,,,,,,,,,,,,,,,,,,,,,,,,,,,,,,,,,,,,,,,,,,,,,,,,,,,,,,,,,,,,,,,,,,,,,,83693,2022-11-14_14h14.52.268,vts_reward_expectancy_bt_OFFLINE,2022.2.4,59.95288303338278,
0,0,0,1,0,1,0,0,star ,circle,0,0,0,0,0,1,1,10,,,,,,,,,,,,,,,,,,,,,,,,,,,,,,,,,,,,,,,,107.41451509701437,107.41451509701437,107.41451509701437,107.41451509701437,107.41451509701437,107.41451509701437,107.41451509701437,107.41451509701437,107.41451509701437,107.41451509701437,a,1.5192358770000283,10,20,0,108.96611765300622,110.46797938901,,,,,,,,,,,,,,,,,,,,,,,,,,,,,,,,,,,,,,,,,,,,,,,,,,,,,,,,,,,,,,,,,,,,,,,83693,2022-11-14_14h14.52.268,vts_reward_expectancy_bt_OFFLINE,2022.2.4,59.95288303338278,
0,0,1,0,0,1,0,0,hexagon,circle,0,0,0,0,0,2,2,7,,,,,,,,,,,,,,,,,,,,,,,,,,,,,,,,,,,,,,,,110.96829122700728,110.96829122700728,110.96829122700728,110.96829122700728,110.96829122700728,110.96829122700728,110.96829122700728,110.96829122700728,110.96829122700728,110.96829122700728,a,0.6562544789921958,10,30,0,111.65233616001206,113.15387065999676,,,,,,,,,,,,,,,,,,,,,,,,,,,,,,,,,,,,,,,,,,,,,,,,,,,,,,,,,,,,,,,,,,,,,,,83693,2022-11-14_14h14.52.268,vts_reward_expectancy_bt_OFFLINE,2022.2.4,59.95288303338278,
0,0,1,0,0,0,0,1,hexagon,star,0,0,0,0,0,3,3,8,,,,,,,,,,,,,,,,,,,,,,,,,,,,,,,,,,,,,,,,113.6544997660094,113.6544997660094,113.6544997660094,113.6544997660094,113.6544997660094,113.6544997660094,113.6544997660094,113.6544997660094,113.6544997660094,113.6544997660094,a,0.6802636180073023,10,40,0,114.35537363801268,115.85692489001667,,,,,,,,,,,,,,,,,,,,,,,,,,,,,,,,,,,,,,,,,,,,,,,,,,,,,,,,,,,,,,,,,,,,,,,83693,2022-11-14_14h14.52.268,vts_reward_expectancy_bt_OFFLINE,2022.2.4,59.95288303338278,
0,1,0,0,0,0,0,1,circle,star,0,0,0,0,0,4,4,5,,,,,,,,,,,,,,,,,,,,,,,,,,,,,,,,,,,,,,,,116.35738685401157,116.35738685401157,116.35738685401157,116.35738685401157,116.35738685401157,116.35738685401157,116.35738685401157,116.35738685401157,116.35738685401157,116.35738685401157,l,0.6907634499948472,10,50,0,117.07487979499274,118.57651598699158,,,,,,,,,,,,,,,,,,,,,,,,,,,,,,,,,,,,,,,,,,,,,,,,,,,,,,,,,,,,,,,,,,,,,,,83693,2022-11-14_14h14.52.268,vts_reward_expectancy_bt_OFFLINE,2022.2.4,59.95288303338278,
0,1,0,0,0,0,1,0,circle,hexagon,0,0,0,0,0,5,5,4,,,,,,,,,,,,,,,,,,,,,,,,,,,,,,,,,,,,,,,,119.07704312200076,119.07704312200076,119.07704312200076,119.07704312200076,119.07704312200076,119.07704312200076,119.07704312200076,119.07704312200076,119.07704312200076,119.07704312200076,l,0.725008290988626,10,60,0,119.82787032300257,121.32967462201486,,,,,,,,,,,,,,,,,,,,,,,,,,,,,,,,,,,,,,,,,,,,,,,,,,,,,,,,,,,,,,,,,,,,,,,83693,2022-11-14_14h14.52.268,vts_reward_expectancy_bt_OFFLINE,2022.2.4,59.95288303338278,
0,0,1,0,1,0,0,0,hexagon,triangle,0,0,0,0,0,6,6,6,,,,,,,,,,,,,,,,,,,,,,,,,,,,,,,,,,,,,,,,121.83025180999539,121.83025180999539,121.83025180999539,121.83025180999539,121.83025180999539,121.83025180999539,121.83025180999539,121.83025180999539,121.83025180999539,121.83025180999539,a,1.190890539000975,10,70,0,123.04824430399458,124.54989200201817,,,,,,,,,,,,,,,,,,,,,,,,,,,,,,,,,,,,,,,,,,,,,,,,,,,,,,,,,,,,,,,,,,,,,,,83693,2022-11-14_14h14.52.268,vts_reward_expectancy_bt_OFFLINE,2022.2.4,59.95288303338278,
1,0,0,0,0,0,1,0,triangle,hexagon,0,0,0,0,0,7,7,1,,,,,,,,,,,,,,,,,,,,,,,,,,,,,,,,,,,,,,,,125.05040865400224,125.05040865400224,125.05040865400224,125.05040865400224,125.05040865400224,125.05040865400224,125.05040865400224,125.05040865400224,125.05040865400224,125.05040865400224,l,0.7481124110054225,10,80,0,125.81800774700241,127.31959707301576,,,,,,,,,,,,,,,,,,,,,,,,,,,,,,,,,,,,,,,,,,,,,,,,,,,,,,,,,,,,,,,,,,,,,,,83693,2022-11-14_14h14.52.268,vts_reward_expectancy_bt_OFFLINE,2022.2.4,59.95288303338278,
1,0,0,0,0,0,0,1,triangle,star,0,0,0,0,0,8,8,2,,,,,,,,,,,,,,,,,,,,,,,,,,,,,,,,,,,,,,,,127.82008068900905,127.82008068900905,127.82008068900905,127.82008068900905,127.82008068900905,127.82008068900905,127.82008068900905,127.82008068900905,127.82008068900905,127.82008068900905,l,0.6359123590227682,10,90,0,128.48748218399123,129.9893892990076,,,,,,,,,,,,,,,,,,,,,,,,,,,,,,,,,,,,,,,,,,,,,,,,,,,,,,,,,,,,,,,,,,,,,,,83693,2022-11-14_14h14.52.268,vts_reward_expectancy_bt_OFFLINE,2022.2.4,59.95288303338278,
0,0,0,1,0,0,1,0,star,hexagon,0,0,0,0,0,9,9,11,,,,,,,,,,,,,,,,,,,,,,,,,,,,,,,,,,,,,,,,130.48977824000758,130.48977824000758,130.48977824000758,130.48977824000758,130.48977824000758,130.48977824000758,130.48977824000758,130.48977824000758,130.48977824000758,130.48977824000758,a,1.1139277530019172,1,91,0,131.62444685900118,133.12594191299286,,,,,,,,,,,,,,,,,,,,,,,,,,,,,,,,,,,,,,,,,,,,,,,,,,,,,,,,,,,,,,,,,,,,,,,83693,2022-11-14_14h14.52.268,vts_reward_expectancy_bt_OFFLINE,2022.2.4,59.95288303338278,
0,0,0,1,1,0,0,0,star,triangle,0,0,0,0,0,10,10,9,,,,,,,,,,,,,,,,,,,,,,,,,,,,,,,,,,,,,,,,133.6266341349983,133.6266341349983,133.6266341349983,133.6266341349983,133.6266341349983,133.6266341349983,133.6266341349983,133.6266341349983,133.6266341349983,133.6266341349983,l,0.7784171919920482,10,101,0,134.42734623499564,135.92917407199275,,,,,,,,,,,,,,,,,,,,,,,,,,,,,,,,,,,,,,,,,,,,,,,,,,,,,,,,,,,,,,,,,,,,,,,83693,2022-11-14_14h14.52.268,vts_reward_expectancy_bt_OFFLINE,2022.2.4,59.95288303338278,
1,0,0,0,0,1,0,0,triangle,circle,0,0,0,0,0,11,11,0,,,,,,,,,,,,,,,,,,,,,,,,,,,,,,,,,,,,,,,,136.42992676299764,136.42992676299764,136.42992676299764,136.42992676299764,136.42992676299764,136.42992676299764,136.42992676299764,136.42992676299764,136.42992676299764,136.42992676299764,a,1.1487682590086479,1,102,0,137.5976455110067,139.09930266899755,,,,,,,,,,,,,,,,,,,,,,,,,,,,,,,,,,,,,,,,,,,,,,,,,,,,,,,,,,,,,,,,,,,,,,,83693,2022-11-14_14h14.52.268,vts_reward_expectancy_bt_OFFLINE,2022.2.4,59.95288303338278,
1,0,0,0,0,0,1,0,triangle,hexagon,0,0,0,0,1,0,12,1,,,,,,,,,,,,,,,,,,,,,,,,,,,,,,,,,,,,,,,,139.5997775089927,139.5997775089927,139.5997775089927,139.5997775089927,139.5997775089927,139.5997775089927,139.5997775089927,139.5997775089927,139.5997775089927,139.5997775089927,l,0.982259149022866,10,112,0,140.60100175399566,142.10256788801053,,,,,,,,,,,,,,,,,,,,,,,,,,,,,,,,,,,,,,,,,,,,,,,,,,,,,,,,,,,,,,,,,,,,,,,83693,2022-11-14_14h14.52.268,vts_reward_expectancy_bt_OFFLINE,2022.2.4,59.95288303338278,
1,0,0,0,0,1,0,0,triangle,circle,0,0,0,0,1,1,13,0,,,,,,,,,,,,,,,,,,,,,,,,,,,,,,,,,,,,,,,,142.60306997600128,142.60306997600128,142.60306997600128,142.60306997600128,142.60306997600128,142.60306997600128,142.60306997600128,142.60306997600128,142.60306997600128,142.60306997600128,a,1.1074099300021771,10,122,0,143.7381656409998,145.23925235800561,,,,,,,,,,,,,,,,,,,,,,,,,,,,,,,,,,,,,,,,,,,,,,,,,,,,,,,,,,,,,,,,,,,,,,,83693,2022-11-14_14h14.52.268,vts_reward_expectancy_bt_OFFLINE,2022.2.4,59.95288303338278,
0,0,1,0,1,0,0,0,hexagon,triangle,0,0,0,0,1,2,14,6,,,,,,,,,,,,,,,,,,,,,,,,,,,,,,,,,,,,,,,,145.73985736901523,145.73985736901523,145.73985736901523,145.73985736901523,145.73985736901523,145.73985736901523,145.73985736901523,145.73985736901523,145.73985736901523,145.73985736901523,l,0.6351893930113874,10,132,0,146.40744452699437,147.9090211779985,,,,,,,,,,,,,,,,,,,,,,,,,,,,,,,,,,,,,,,,,,,,,,,,,,,,,,,,,,,,,,,,,,,,,,,83693,2022-11-14_14h14.52.268,vts_reward_expectancy_bt_OFFLINE,2022.2.4,59.95288303338278,
0,0,0,1,1,0,0,0,star,triangle,0,0,0,0,1,3,15,9,,,,,,,,,,,,,,,,,,,,,,,,,,,,,,,,,,,,,,,,148.40963378499146,148.40963378499146,148.40963378499146,148.40963378499146,148.40963378499146,148.40963378499146,148.40963378499146,148.40963378499146,148.40963378499146,148.40963378499146,l,0.5421319000015501,10,142,0,148.97681356899557,150.47854012000607,,,,,,,,,,,,,,,,,,,,,,,,,,,,,,,,,,,,,,,,,,,,,,,,,,,,,,,,,,,,,,,,,,,,,,,83693,2022-11-14_14h14.52.268,vts_reward_expectancy_bt_OFFLINE,2022.2.4,59.95288303338278,
0,1,0,0,1,0,0,0,circle,triangle,0,0,0,0,1,4,16,3,,,,,,,,,,,,,,,,,,,,,,,,,,,,,,,,,,,,,,,,150.97911610099254,150.97911610099254,150.97911610099254,150.97911610099254,150.97911610099254,150.97911610099254,150.97911610099254,150.97911610099254,150.97911610099254,150.97911610099254,l,0.6852617700060364,10,152,0,151.69646378001198,153.19818572199438,,,,,,,,,,,,,,,,,,,,,,,,,,,,,,,,,,,,,,,,,,,,,,,,,,,,,,,,,,,,,,,,,,,,,,,83693,2022-11-14_14h14.52.268,vts_reward_expectancy_bt_OFFLINE,2022.2.4,59.95288303338278,
0,0,0,1,0,1,0,0,star ,circle,0,0,0,0,1,5,17,10,,,,,,,,,,,,,,,,,,,,,,,,,,,,,,,,,,,,,,,,153.6985789219907,153.6985789219907,153.6985789219907,153.6985789219907,153.6985789219907,153.6985789219907,153.6985789219907,153.6985789219907,153.6985789219907,153.6985789219907,a,1.272565460007172,10,162,0,155.00011938199168,156.5017541020061,,,,,,,,,,,,,,,,,,,,,,,,,,,,,,,,,,,,,,,,,,,,,,,,,,,,,,,,,,,,,,,,,,,,,,,83693,2022-11-14_14h14.52.268,vts_reward_expectancy_bt_OFFLINE,2022.2.4,59.95288303338278,
0,0,1,0,0,0,0,1,hexagon,star,0,0,0,0,1,6,18,8,,,,,,,,,,,,,,,,,,,,,,,,,,,,,,,,,,,,,,,,157.00236055301502,157.00236055301502,157.00236055301502,157.00236055301502,157.00236055301502,157.00236055301502,157.00236055301502,157.00236055301502,157.00236055301502,157.00236055301502,a,1.2762453300238121,10,172,0,158.30377063099877,159.8053470599989,,,,,,,,,,,,,,,,,,,,,,,,,,,,,,,,,,,,,,,,,,,,,,,,,,,,,,,,,,,,,,,,,,,,,,,83693,2022-11-14_14h14.52.268,vts_reward_expectancy_bt_OFFLINE,2022.2.4,59.95288303338278,
0,0,0,1,0,0,1,0,star,hexagon,0,0,0,0,1,7,19,11,,,,,,,,,,,,,,,,,,,,,,,,,,,,,,,,,,,,,,,,160.3062922040117,160.3062922040117,160.3062922040117,160.3062922040117,160.3062922040117,160.3062922040117,160.3062922040117,160.3062922040117,160.3062922040117,160.3062922040117,l,0.9081575790187344,1,173,0,161.24026826801128,162.74216051900294,,,,,,,,,,,,,,,,,,,,,,,,,,,,,,,,,,,,,,,,,,,,,,,,,,,,,,,,,,,,,,,,,,,,,,,83693,2022-11-14_14h14.52.268,vts_reward_expectancy_bt_OFFLINE,2022.2.4,59.95288303338278,
0,0,1,0,0,1,0,0,hexagon,circle,0,0,0,0,1,8,20,7,,,,,,,,,,,,,,,,,,,,,,,,,,,,,,,,,,,,,,,,163.24287839600584,163.24287839600584,163.24287839600584,163.24287839600584,163.24287839600584,163.24287839600584,163.24287839600584,163.24287839600584,163.24287839600584,163.24287839600584,a,0.7615748819953296,10,183,0,164.02700985901174,165.52845407501445,,,,,,,,,,,,,,,,,,,,,,,,,,,,,,,,,,,,,,,,,,,,,,,,,,,,,,,,,,,,,,,,,,,,,,,83693,2022-11-14_14h14.52.268,vts_reward_expectancy_bt_OFFLINE,2022.2.4,59.95288303338278,
0,1,0,0,0,0,1,0,circle,hexagon,0,0,0,0,1,9,21,4,,,,,,,,,,,,,,,,,,,,,,,,,,,,,,,,,,,,,,,,166.02904617699096,166.02904617699096,166.02904617699096,166.02904617699096,166.02904617699096,166.02904617699096,166.02904617699096,166.02904617699096,166.02904617699096,166.02904617699096,l,0.8350815390294883,10,193,0,166.8965808530047,168.3982683249924,,,,,,,,,,,,,,,,,,,,,,,,,,,,,,,,,,,,,,,,,,,,,,,,,,,,,,,,,,,,,,,,,,,,,,,83693,2022-11-14_14h14.52.268,vts_reward_expectancy_bt_OFFLINE,2022.2.4,59.95288303338278,
0,1,0,0,0,0,0,1,circle,star,0,0,0,0,1,10,22,5,,,,,,,,,,,,,,,,,,,,,,,,,,,,,,,,,,,,,,,,168.8987099720107,168.8987099720107,168.8987099720107,168.8987099720107,168.8987099720107,168.8987099720107,168.8987099720107,168.8987099720107,168.8987099720107,168.8987099720107,l,1.2491039209999144,1,194,0,170.16693773600855,171.6686890659912,,,,,,,,,,,,,,,,,,,,,,,,,,,,,,,,,,,,,,,,,,,,,,,,,,,,,,,,,,,,,,,,,,,,,,,83693,2022-11-14_14h14.52.268,vts_reward_expectancy_bt_OFFLINE,2022.2.4,59.95288303338278,
1,0,0,0,0,0,0,1,triangle,star,0,0,0,0,1,11,23,2,,,,,,,,,,,,,,,,,,,,,,,,,,,,,,,,,,,,,,,,172.16910484500113,172.16910484500113,172.16910484500113,172.16910484500113,172.16910484500113,172.16910484500113,172.16910484500113,172.16910484500113,172.16910484500113,172.16910484500113,a,1.0853123450069688,10,204,0,173.2870316269982,174.78856784000527,,,,,,,,,,,,,,,,,,,,,,,,,,,,,,,,,,,,,,,,,,,,,,,,,,,,,,,,,,,,,,,,,,,,,,,83693,2022-11-14_14h14.52.268,vts_reward_expectancy_bt_OFFLINE,2022.2.4,59.95288303338278,
0,0,0,1,1,0,0,0,star,triangle,0,0,0,0,2,0,24,9,,,,,,,,,,,,,,,,,,,,,,,,,,,,,,,,,,,,,,,,175.28920257100253,175.28920257100253,175.28920257100253,175.28920257100253,175.28920257100253,175.28920257100253,175.28920257100253,175.28920257100253,175.28920257100253,175.28920257100253,l,0.8442155650118366,10,214,0,176.15680124500068,177.65842999101733,,,,,,,,,,,,,,,,,,,,,,,,,,,,,,,,,,,,,,,,,,,,,,,,,,,,,,,,,,,,,,,,,,,,,,,83693,2022-11-14_14h14.52.268,vts_reward_expectancy_bt_OFFLINE,2022.2.4,59.95288303338278,
0,0,0,1,0,1,0,0,star ,circle,0,0,0,0,2,1,25,10,,,,,,,,,,,,,,,,,,,,,,,,,,,,,,,,,,,,,,,,178.15907756699016,178.15907756699016,178.15907756699016,178.15907756699016,178.15907756699016,178.15907756699016,178.15907756699016,178.15907756699016,178.15907756699016,178.15907756699016,l,0.49352270900271833,1,215,0,178.67610910101212,180.177982513007,,,,,,,,,,,,,,,,,,,,,,,,,,,,,,,,,,,,,,,,,,,,,,,,,,,,,,,,,,,,,,,,,,,,,,,83693,2022-11-14_14h14.52.268,vts_reward_expectancy_bt_OFFLINE,2022.2.4,59.95288303338278,
0,1,0,0,0,0,0,1,circle,star,0,0,0,0,2,2,26,5,,,,,,,,,,,,,,,,,,,,,,,,,,,,,,,,,,,,,,,,180.67842869300512,180.67842869300512,180.67842869300512,180.67842869300512,180.67842869300512,180.67842869300512,180.67842869300512,180.67842869300512,180.67842869300512,180.67842869300512,l,0.798537861002842,1,216,0,181.49618410601397,182.99779985900386,,,,,,,,,,,,,,,,,,,,,,,,,,,,,,,,,,,,,,,,,,,,,,,,,,,,,,,,,,,,,,,,,,,,,,,83693,2022-11-14_14h14.52.268,vts_reward_expectancy_bt_OFFLINE,2022.2.4,59.95288303338278,
0,1,0,0,1,0,0,0,circle,triangle,0,0,0,0,2,3,27,3,,,,,,,,,,,,,,,,,,,,,,,,,,,,,,,,,,,,,,,,183.4983620849962,183.4983620849962,183.4983620849962,183.4983620849962,183.4983620849962,183.4983620849962,183.4983620849962,183.4983620849962,183.4983620849962,183.4983620849962,l,1.0052212810260244,10,226,0,184.5327023320133,186.03442194699892,,,,,,,,,,,,,,,,,,,,,,,,,,,,,,,,,,,,,,,,,,,,,,,,,,,,,,,,,,,,,,,,,,,,,,,83693,2022-11-14_14h14.52.268,vts_reward_expectancy_bt_OFFLINE,2022.2.4,59.95288303338278,
0,0,1,0,0,0,0,1,hexagon,star,0,0,0,0,2,4,28,8,,,,,,,,,,,,,,,,,,,,,,,,,,,,,,,,,,,,,,,,186.53512598000816,186.53512598000816,186.53512598000816,186.53512598000816,186.53512598000816,186.53512598000816,186.53512598000816,186.53512598000816,186.53512598000816,186.53512598000816,a,1.377306721988134,10,236,0,187.9364486699924,189.43822301499313,,,,,,,,,,,,,,,,,,,,,,,,,,,,,,,,,,,,,,,,,,,,,,,,,,,,,,,,,,,,,,,,,,,,,,,83693,2022-11-14_14h14.52.268,vts_reward_expectancy_bt_OFFLINE,2022.2.4,59.95288303338278,
0,0,0,1,0,0,1,0,star,hexagon,0,0,0,0,2,5,29,11,,,,,,,,,,,,,,,,,,,,,,,,,,,,,,,,,,,,,,,,189.93873988001724,189.93873988001724,189.93873988001724,189.93873988001724,189.93873988001724,189.93873988001724,189.93873988001724,189.93873988001724,189.93873988001724,189.93873988001724,l,0.7300571700034197,10,246,0,190.68953286399483,192.19149248901522,,,,,,,,,,,,,,,,,,,,,,,,,,,,,,,,,,,,,,,,,,,,,,,,,,,,,,,,,,,,,,,,,,,,,,,83693,2022-11-14_14h14.52.268,vts_reward_expectancy_bt_OFFLINE,2022.2.4,59.95288303338278,
1,0,0,0,0,1,0,0,triangle,circle,0,0,0,0,2,6,30,0,,,,,,,,,,,,,,,,,,,,,,,,,,,,,,,,,,,,,,,,192.6917824220145,192.6917824220145,192.6917824220145,192.6917824220145,192.6917824220145,192.6917824220145,192.6917824220145,192.6917824220145,192.6917824220145,192.6917824220145,a,0.8905072270135861,10,256,0,193.60935705699376,195.1110979570076,,,,,,,,,,,,,,,,,,,,,,,,,,,,,,,,,,,,,,,,,,,,,,,,,,,,,,,,,,,,,,,,,,,,,,,83693,2022-11-14_14h14.52.268,vts_reward_expectancy_bt_OFFLINE,2022.2.4,59.95288303338278,
0,0,1,0,0,1,0,0,hexagon,circle,0,0,0,0,2,7,31,7,,,,,,,,,,,,,,,,,,,,,,,,,,,,,,,,,,,,,,,,195.61147097698995,195.61147097698995,195.61147097698995,195.61147097698995,195.61147097698995,195.61147097698995,195.61147097698995,195.61147097698995,195.61147097698995,195.61147097698995,a,1.0192412490141578,10,266,0,196.6627407449996,198.16456567900605,,,,,,,,,,,,,,,,,,,,,,,,,,,,,,,,,,,,,,,,,,,,,,,,,,,,,,,,,,,,,,,,,,,,,,,83693,2022-11-14_14h14.52.268,vts_reward_expectancy_bt_OFFLINE,2022.2.4,59.95288303338278,
0,0,1,0,1,0,0,0,hexagon,triangle,0,0,0,0,2,8,32,6,,,,,,,,,,,,,,,,,,,,,,,,,,,,,,,,,,,,,,,,198.66519112500828,198.66519112500828,198.66519112500828,198.66519112500828,198.66519112500828,198.66519112500828,198.66519112500828,198.66519112500828,198.66519112500828,198.66519112500828,l,1.116593827988254,10,276,0,199.7995492700138,201.3010546680016,201.3010546680016,,,,,,,,,,,,,,,,,,,,,,,,,,,,,,,,,,,,,,,,,,,,,,,,,,,,,,,,,,,,,,,,,,,,,,83693,2022-11-14_14h14.52.268,vts_reward_expectancy_bt_OFFLINE,2022.2.4,59.95288303338278,
1,0,0,0,0,0,1,0,triangle,hexagon,0,0,0,0,2,9,33,1,,,,,,,,,,,,,,,,,,,,,,,,,,,,,,,,,,,,,,,,201.8018668369914,201.8018668369914,201.8018668369914,201.8018668369914,201.8018668369914,201.8018668369914,201.8018668369914,201.8018668369914,201.8018668369914,201.8018668369914,a,0.9158384620095603,10,286,0,202.7360409090179,204.23772466601804,,,,,,,,,,,,,,,,,,,,,,,,,,,,,,,,,,,,,,,,,,,,,,,,,,,,,,,,,,,,,,,,,,,,,,,83693,2022-11-14_14h14.52.268,vts_reward_expectancy_bt_OFFLINE,2022.2.4,59.95288303338278,
1,0,0,0,0,0,0,1,triangle,star,0,0,0,0,2,10,34,2,,,,,,,,,,,,,,,,,,,,,,,,,,,,,,,,,,,,,,,,204.73837912399904,204.73837912399904,204.73837912399904,204.73837912399904,204.73837912399904,204.73837912399904,204.73837912399904,204.73837912399904,204.73837912399904,204.73837912399904,a,0.8934425350162201,10,296,0,205.65585005300818,207.1574751480075,,,,,,,,,,,,,,,,,,,,,,,,,,,,,,,,,,,,,,,,,,,,,,,,,,,,,,,,,,,,,,,,,,,,,,,83693,2022-11-14_14h14.52.268,vts_reward_expectancy_bt_OFFLINE,2022.2.4,59.95288303338278,
0,1,0,0,0,0,1,0,circle,hexagon,0,0,0,0,2,11,35,4,,,,,,,,,,,,,,,,,,,,,,,,,,,,,,,,,,,,,,,,207.65808754300815,207.65808754300815,207.65808754300815,207.65808754300815,207.65808754300815,207.65808754300815,207.65808754300815,207.65808754300815,207.65808754300815,207.65808754300815,l,0.6616399400227237,10,306,0,208.34220334800193,209.84380733800936,,,,,,,,,,,,,,,,,,,,,,,,,,,,,,,,,,,,,,,,,,,,,,,,,,,,,,,,,,,,,,,,,,,,,,,83693,2022-11-14_14h14.52.268,vts_reward_expectancy_bt_OFFLINE,2022.2.4,59.95288303338278,
0,0,1,0,1,0,0,0,hexagon,triangle,0,0,0,0,3,0,36,6,,,,,,,,,,,,,,,,,,,,,,,,,,,,,,,,,,,,,,,,210.34451366300345,210.34451366300345,210.34451366300345,210.34451366300345,210.34451366300345,210.34451366300345,210.34451366300345,210.34451366300345,210.34451366300345,210.34451366300345,a,0.8014526029874105,10,316,0,211.1621418040013,212.66380750699318,212.66380750699318,,,,,,,,,,,,,,,,,,,,,,,,,,,,,,,,,,,,,,,,,,,,,,,,,,,,,,,,,,,,,,,,,,,,,,83693,2022-11-14_14h14.52.268,vts_reward_expectancy_bt_OFFLINE,2022.2.4,59.95288303338278,
0,0,0,1,0,0,1,0,star,hexagon,0,0,0,0,3,1,37,11,,,,,,,,,,,,,,,,,,,,,,,,,,,,,,,,,,,,,,,,213.16428744001314,213.16428744001314,213.16428744001314,213.16428744001314,213.16428744001314,213.16428744001314,213.16428744001314,213.16428744001314,213.16428744001314,213.16428744001314,a,1.8944166020082776,1,317,0,215.0831815279962,216.5847740000172,,,,,,,,,,,,,,,,,,,,,,,,,,,,,,,,,,,,,,,,,,,,,,,,,,,,,,,,,,,,,,,,,,,,,,,83693,2022-11-14_14h14.52.268,vts_reward_expectancy_bt_OFFLINE,2022.2.4,59.95288303338278,
1,0,0,0,0,1,0,0,triangle,circle,0,0,0,0,3,2,38,0,,,,,,,,,,,,,,,,,,,,,,,,,,,,,,,,,,,,,,,,217.08540001499932,217.08540001499932,217.08540001499932,217.08540001499932,217.08540001499932,217.08540001499932,217.08540001499932,217.08540001499932,217.08540001499932,217.08540001499932,l,0.6283248839899898,1,318,0,217.7361321170174,219.23775603799731,,,,,,,,,,,,,,,,,,,,,,,,,,,,,,,,,,,,,,,,,,,,,,,,,,,,,,,,,,,,,,,,,,,,,,,83693,2022-11-14_14h14.52.268,vts_reward_expectancy_bt_OFFLINE,2022.2.4,59.95288303338278,
0,0,0,1,1,0,0,0,star,triangle,0,0,0,0,3,3,39,9,,,,,,,,,,,,,,,,,,,,,,,,,,,,,,,,,,,,,,,,219.73818507700344,219.73818507700344,219.73818507700344,219.73818507700344,219.73818507700344,219.73818507700344,219.73818507700344,219.73818507700344,219.73818507700344,219.73818507700344,l,1.2725448870041873,1,319,0,221.03960497601656,222.54137671898934,,,,,,,,,,,,,,,,,,,,,,,,,,,,,,,,,,,,,,,,,,,,,,,,,,,,,,,,,,,,,,,,,,,,,,,83693,2022-11-14_14h14.52.268,vts_reward_expectancy_bt_OFFLINE,2022.2.4,59.95288303338278,
0,1,0,0,0,0,0,1,circle,star,0,0,0,0,3,4,40,5,,,,,,,,,,,,,,,,,,,,,,,,,,,,,,,,,,,,,,,,223.0418664230092,223.0418664230092,223.0418664230092,223.0418664230092,223.0418664230092,223.0418664230092,223.0418664230092,223.0418664230092,223.0418664230092,223.0418664230092,a,0.939471028978005,1,320,0,224.00962169200648,225.51119505800307,,,,,,,,,,,,,,,,,,,,,,,,,,,,,,,,,,,,,,,,,,,,,,,,,,,,,,,,,,,,,,,,,,,,,,,83693,2022-11-14_14h14.52.268,vts_reward_expectancy_bt_OFFLINE,2022.2.4,59.95288303338278,
0,1,0,0,0,0,1,0,circle,hexagon,0,0,0,0,3,5,41,4,,,,,,,,,,,,,,,,,,,,,,,,,,,,,,,,,,,,,,,,226.011752299004,226.011752299004,226.011752299004,226.011752299004,226.011752299004,226.011752299004,226.011752299004,226.011752299004,226.011752299004,226.011752299004,l,0.9617956739966758,10,330,0,226.9960726200079,228.497755082004,,,,,,,,,,,,,,,,,,,,,,,,,,,,,,,,,,,,,,,,,,,,,,,,,,,,,,,,,,,,,,,,,,,,,,,83693,2022-11-14_14h14.52.268,vts_reward_expectancy_bt_OFFLINE,2022.2.4,59.95288303338278,
0,0,0,1,0,1,0,0,star ,circle,0,0,0,0,3,6,42,10,,,,,,,,,,,,,,,,,,,,,,,,,,,,,,,,,,,,,,,,228.99834225999075,228.99834225999075,228.99834225999075,228.99834225999075,228.99834225999075,228.99834225999075,228.99834225999075,228.99834225999075,228.99834225999075,228.99834225999075,a,1.5747914919920731,10,340,0,230.60016028999235,232.10188330200617,,,,,,,,,,,,,,,,,,,,,,,,,,,,,,,,,,,,,,,,,,,,,,,,,,,,,,,,,,,,,,,,,,,,,,,83693,2022-11-14_14h14.52.268,vts_reward_expectancy_bt_OFFLINE,2022.2.4,59.95288303338278,
0,0,1,0,0,0,0,1,hexagon,star,0,0,0,0,3,7,43,8,,,,,,,,,,,,,,,,,,,,,,,,,,,,,,,,,,,,,,,,232.60262036099448,232.60262036099448,232.60262036099448,232.60262036099448,232.60262036099448,232.60262036099448,232.60262036099448,232.60262036099448,232.60262036099448,232.60262036099448,a,1.3242955339956097,10,350,0,233.95388341799844,235.45569512501243,,,,,,,,,,,,,,,,,,,,,,,,,,,,,,,,,,,,,,,,,,,,,,,,,,,,,,,,,,,,,,,,,,,,,,,83693,2022-11-14_14h14.52.268,vts_reward_expectancy_bt_OFFLINE,2022.2.4,59.95288303338278,
0,0,1,0,0,1,0,0,hexagon,circle,0,0,0,0,3,8,44,7,,,,,,,,,,,,,,,,,,,,,,,,,,,,,,,,,,,,,,,,235.95616536101443,235.95616536101443,235.95616536101443,235.95616536101443,235.95616536101443,235.95616536101443,235.95616536101443,235.95616536101443,235.95616536101443,235.95616536101443,a,0.9065821240074001,10,360,0,236.89059646299575,238.39220017701155,,,,,,,,,,,,,,,,,,,,,,,,,,,,,,,,,,,,,,,,,,,,,,,,,,,,,,,,,,,,,,,,,,,,,,,83693,2022-11-14_14h14.52.268,vts_reward_expectancy_bt_OFFLINE,2022.2.4,59.95288303338278,
0,1,0,0,1,0,0,0,circle,triangle,0,0,0,0,3,9,45,3,,,,,,,,,,,,,,,,,,,,,,,,,,,,,,,,,,,,,,,,238.89276449600584,238.89276449600584,238.89276449600584,238.89276449600584,238.89276449600584,238.89276449600584,238.89276449600584,238.89276449600584,238.89276449600584,238.89276449600584,l,0.928763062984217,10,370,0,239.84369733699714,241.34551400499186,,,,,,,,,,,,,,,,,,,,,,,,,,,,,,,,,,,,,,,,,,,,,,,,,,,,,,,,,,,,,,,,,,,,,,,83693,2022-11-14_14h14.52.268,vts_reward_expectancy_bt_OFFLINE,2022.2.4,59.95288303338278,
1,0,0,0,0,0,0,1,triangle,star,0,0,0,0,3,10,46,2,,,,,,,,,,,,,,,,,,,,,,,,,,,,,,,,,,,,,,,,241.84595636100858,241.84595636100858,241.84595636100858,241.84595636100858,241.84595636100858,241.84595636100858,241.84595636100858,241.84595636100858,241.84595636100858,241.84595636100858,a,1.0235975430114195,10,380,0,242.89709851701627,244.39863904600497,,,,,,,,,,,,,,,,,,,,,,,,,,,,,,,,,,,,,,,,,,,,,,,,,,,,,,,,,,,,,,,,,,,,,,,83693,2022-11-14_14h14.52.268,vts_reward_expectancy_bt_OFFLINE,2022.2.4,59.95288303338278,
1,0,0,0,0,0,1,0,triangle,hexagon,0,0,0,0,3,11,47,1,,,,,,,,,,,,,,,,,,,,,,,,,,,,,,,,,,,,,,,,244.89925135599333,244.89925135599333,244.89925135599333,244.89925135599333,244.89925135599333,244.89925135599333,244.89925135599333,244.89925135599333,244.89925135599333,244.89925135599333,a,1.1323178060119972,10,390,0,246.05080649600131,247.5523208300001,,,,,,,,,,,,,,,,,,,,,,,,,,,,,,,,,,,,,,,,,,,,,,,,,,,,,,,,,,,,,,,,,,,,,,,83693,2022-11-14_14h14.52.268,vts_reward_expectancy_bt_OFFLINE,2022.2.4,59.95288303338278,
1,0,0,0,0,0,1,0,triangle,hexagon,1,0,1,0,0,0,0,1,,,,,,,,,,,,,,,,,,,,,,,,,,,,,,,,,,,,,,,,265.7433549739944,265.7433549739944,265.7433549739944,265.7433549739944,265.7433549739944,265.7433549739944,265.7433549739944,265.7433549739944,265.7433549739944,265.7433549739944,a,1.6987901770044118,1,391,1,267.47411944399937,268.9757941059943,,,,,,,,,,,,,,,,,,,,,,,,,,,,,,,,,,,,,,,,,,,,,,,,,,,,,,,,,,,,,,,,,,,,,,,83693,2022-11-14_14h14.52.268,vts_reward_expectancy_bt_OFFLINE,2022.2.4,59.95288303338278,
1,0,0,0,0,1,0,0,triangle,circle,1,0,1,0,0,1,1,0,,,,,,,,,,,,,,,,,,,,,,,,,,,,,,,,,,,,,,,,269.4762805200007,269.4762805200007,269.4762805200007,269.4762805200007,269.4762805200007,269.4762805200007,269.4762805200007,269.4762805200007,269.4762805200007,269.4762805200007,a,1.057490309001878,10,401,1,270.56092504100525,272.0627560990106,,,,,,,,,,,,,,,,,,,,,,,,,,,,,,,,,,,,,,,,,,,,,,,,,,,,,,,,,,,,,,,,,,,,,,,83693,2022-11-14_14h14.52.268,vts_reward_expectancy_bt_OFFLINE,2022.2.4,59.95288303338278,
0,1,0,0,0,0,0,1,circle,star,1,0,1,0,0,2,2,5,,,,,,,,,,,,,,,,,,,,,,,,,,,,,,,,,,,,,,,,272.5633194230031,272.5633194230031,272.5633194230031,272.5633194230031,272.5633194230031,272.5633194230031,272.5633194230031,272.5633194230031,272.5633194230031,272.5633194230031,a,1.6160056189983152,1,402,1,274.19848379699397,275.69995584199205,,,,,,,,,,,,,,,,,,,,,,,,,,,,,,,,,,,,,,,,,,,,,,,,,,,,,,,,,,,,,,,,,,,,,,,83693,2022-11-14_14h14.52.268,vts_reward_expectancy_bt_OFFLINE,2022.2.4,59.95288303338278,
0,0,1,0,0,0,0,1,hexagon,star,1,0,1,0,0,3,3,8,,,,,,,,,,,,,,,,,,,,,,,,,,,,,,,,,,,,,,,,276.2002886229893,276.2002886229893,276.2002886229893,276.2002886229893,276.2002886229893,276.2002886229893,276.2002886229893,276.2002886229893,276.2002886229893,276.2002886229893,a,0.7571596170018893,10,412,1,276.9847370249918,278.48638353700517,,,,,,,,,,,,,,,,,,,,,,,,,,,,,,,,,,,,,,,,,,,,,,,,,,,,,,,,,,,,,,,,,,,,,,,83693,2022-11-14_14h14.52.268,vts_reward_expectancy_bt_OFFLINE,2022.2.4,59.95288303338278,
0,0,0,1,0,1,0,0,star ,circle,1,0,1,0,0,4,4,10,,,,,,,,,,,,,,,,,,,,,,,,,,,,,,,,,,,,,,,,278.9868687610142,278.9868687610142,278.9868687610142,278.9868687610142,278.9868687610142,278.9868687610142,278.9868687610142,278.9868687610142,278.9868687610142,278.9868687610142,l,1.652160894998815,10,422,1,280.65536835600506,282.15705536000314,,,,,,,,,,,,,,,,,,,,,,,,,,,,,,,,,,,,,,,,,,,,,,,,,,,,,,,,,,,,,,,,,,,,,,,83693,2022-11-14_14h14.52.268,vts_reward_expectancy_bt_OFFLINE,2022.2.4,59.95288303338278,
0,0,1,0,1,0,0,0,hexagon,triangle,1,0,1,0,0,5,5,6,,,,,,,,,,,,,,,,,,,,,,,,,,,,,,,,,,,,,,,,282.657653088012,282.657653088012,282.657653088012,282.657653088012,282.657653088012,282.657653088012,282.657653088012,282.657653088012,282.657653088012,282.657653088012,a,0.8592598900140729,10,432,1,283.54190501000267,285.04337464101263,,,,,,,,,,,,,,,,,,,,,,,,,,,,,,,,,,,,,,,,,,,,,,,,,,,,,,,,,,,,,,,,,,,,,,,83693,2022-11-14_14h14.52.268,vts_reward_expectancy_bt_OFFLINE,2022.2.4,59.95288303338278,
0,0,0,1,0,0,1,0,star,hexagon,1,0,1,0,0,6,6,11,,,,,,,,,,,,,,,,,,,,,,,,,,,,,,,,,,,,,,,,285.5440136459947,285.5440136459947,285.5440136459947,285.5440136459947,285.5440136459947,285.5440136459947,285.5440136459947,285.5440136459947,285.5440136459947,285.5440136459947,l,2.934304764989065,10,442,1,288.4976124970126,289.9994055290008,,,,,,,,,,,,,,,,,,,,,,,,,,,,,,,,,,,,,,,,,,,,,,,,,,,,,,,,,,,,,,,,,,,,,,,83693,2022-11-14_14h14.52.268,vts_reward_expectancy_bt_OFFLINE,2022.2.4,59.95288303338278,
0,1,0,0,1,0,0,0,circle,triangle,1,0,1,0,0,7,7,3,,,,,,,,,,,,,,,,,,,,,,,,,,,,,,,,,,,,,,,,290.49954164601513,290.49954164601513,290.49954164601513,290.49954164601513,290.49954164601513,290.49954164601513,290.49954164601513,290.49954164601513,290.49954164601513,290.49954164601513,l,1.0191377290175296,10,452,1,291.55061989699607,293.0523385470151,,,,,,,,,,,,,,,,,,,,,,,,,,,,,,,,,,,,,,,,,,,,,,,,,,,,,,,,,,,,,,,,,,,,,,,83693,2022-11-14_14h14.52.268,vts_reward_expectancy_bt_OFFLINE,2022.2.4,59.95288303338278,
0,0,1,0,0,1,0,0,hexagon,circle,1,0,1,0,0,8,8,7,,,,,,,,,,,,,,,,,,,,,,,,,,,,,,,,,,,,,,,,293.5529402359971,293.5529402359971,293.5529402359971,293.5529402359971,293.5529402359971,293.5529402359971,293.5529402359971,293.5529402359971,293.5529402359971,293.5529402359971,a,1.3157606850145385,10,462,1,294.88778882601764,296.38944380701287,,,,,,,,,,,,,,,,,,,,,,,,,,,,,,,,,,,,,,,,,,,,,,,,,,,,,,,,,,,,,,,,,,,,,,,83693,2022-11-14_14h14.52.268,vts_reward_expectancy_bt_OFFLINE,2022.2.4,59.95288303338278,
1,0,0,0,0,0,0,1,triangle,star,1,0,1,0,0,9,9,2,,,,,,,,,,,,,,,,,,,,,,,,,,,,,,,,,,,,,,,,296.8900359410036,296.8900359410036,296.8900359410036,296.8900359410036,296.8900359410036,296.8900359410036,296.8900359410036,296.8900359410036,296.8900359410036,296.8900359410036,a,1.1074764340010006,1,463,1,298.0244809540163,299.526282722014,,,,,,,,,,,,,,,,,,,,,,,,,,,,,,,,,,,,,,,,,,,,,,,,,,,,,,,,,,,,,,,,,,,,,,,83693,2022-11-14_14h14.52.268,vts_reward_expectancy_bt_OFFLINE,2022.2.4,59.95288303338278,
0,0,0,1,1,0,0,0,star,triangle,1,0,1,0,0,10,10,9,,,,,,,,,,,,,,,,,,,,,,,,,,,,,,,,,,,,,,,,300.0268304409983,300.0268304409983,300.0268304409983,300.0268304409983,300.0268304409983,300.0268304409983,300.0268304409983,300.0268304409983,300.0268304409983,300.0268304409983,a,1.0522870139975566,10,473,1,301.11122962701484,302.61293899299926,,,,,,,,,,,,,,,,,,,,,,,,,,,,,,,,,,,,,,,,,,,,,,,,,,,,,,,,,,,,,,,,,,,,,,,83693,2022-11-14_14h14.52.268,vts_reward_expectancy_bt_OFFLINE,2022.2.4,59.95288303338278,
0,1,0,0,0,0,1,0,circle,hexagon,1,0,1,0,0,11,11,4,,,,,,,,,,,,,,,,,,,,,,,,,,,,,,,,,,,,,,,,303.11339650000446,303.11339650000446,303.11339650000446,303.11339650000446,303.11339650000446,303.11339650000446,303.11339650000446,303.11339650000446,303.11339650000446,303.11339650000446,l,1.3859987760079093,10,483,1,304.5316237999941,306.0333836929931,,,,,,,,,,,,,,,,,,,,,,,,,,,,,,,,,,,,,,,,,,,,,,,,,,,,,,,,,,,,,,,,,,,,,,,83693,2022-11-14_14h14.52.268,vts_reward_expectancy_bt_OFFLINE,2022.2.4,59.95288303338278,
0,0,0,1,0,0,1,0,star,hexagon,1,0,1,0,1,0,12,11,,,,,,,,,,,,,,,,,,,,,,,,,,,,,,,,,,,,,,,,306.53404820201104,306.53404820201104,306.53404820201104,306.53404820201104,306.53404820201104,306.53404820201104,306.53404820201104,306.53404820201104,306.53404820201104,306.53404820201104,l,1.035797292017378,10,493,1,307.6016410110169,309.10345170501387,,,,,,,,,,,,,,,,,,,,,,,,,,,,,,,,,,,,,,,,,,,,,,,,,,,,,,,,,,,,,,,,,,,,,,,83693,2022-11-14_14h14.52.268,vts_reward_expectancy_bt_OFFLINE,2022.2.4,59.95288303338278,
1,0,0,0,0,0,1,0,triangle,hexagon,1,0,1,0,1,1,13,1,,,,,,,,,,,,,,,,,,,,,,,,,,,,,,,,,,,,,,,,309.60388457000954,309.60388457000954,309.60388457000954,309.60388457000954,309.60388457000954,309.60388457000954,309.60388457000954,309.60388457000954,309.60388457000954,309.60388457000954,a,1.6788765510136727,10,503,1,311.30575240199687,312.8073859089927,,,,,,,,,,,,,,,,,,,,,,,,,,,,,,,,,,,,,,,,,,,,,,,,,,,,,,,,,,,,,,,,,,,,,,,83693,2022-11-14_14h14.52.268,vts_reward_expectancy_bt_OFFLINE,2022.2.4,59.95288303338278,
0,0,0,1,1,0,0,0,star,triangle,1,0,1,0,1,2,14,9,,,,,,,,,,,,,,,,,,,,,,,,,,,,,,,,,,,,,,,,313.30789358500624,313.30789358500624,313.30789358500624,313.30789358500624,313.30789358500624,313.30789358500624,313.30789358500624,313.30789358500624,313.30789358500624,313.30789358500624,l,1.0361976230051368,10,513,1,314.375734472007,315.87787359399954,,,,,,,,,,,,,,,,,,,,,,,,,,,,,,,,,,,,,,,,,,,,,,,,,,,,,,,,,,,,,,,,,,,,,,,83693,2022-11-14_14h14.52.268,vts_reward_expectancy_bt_OFFLINE,2022.2.4,59.95288303338278,
0,0,0,1,0,1,0,0,star ,circle,1,0,1,0,1,3,15,10,,,,,,,,,,,,,,,,,,,,,,,,,,,,,,,,,,,,,,,,316.3780268020055,316.3780268020055,316.3780268020055,316.3780268020055,316.3780268020055,316.3780268020055,316.3780268020055,316.3780268020055,316.3780268020055,316.3780268020055,a,1.0148855590086896,10,523,1,317.41251554500195,318.91427339601796,,,,,,,,,,,,,,,,,,,,,,,,,,,,,,,,,,,,,,,,,,,,,,,,,,,,,,,,,,,,,,,,,,,,,,,83693,2022-11-14_14h14.52.268,vts_reward_expectancy_bt_OFFLINE,2022.2.4,59.95288303338278,
0,0,1,0,0,1,0,0,hexagon,circle,1,0,1,0,1,4,16,7,,,,,,,,,,,,,,,,,,,,,,,,,,,,,,,,,,,,,,,,319.41482996501145,319.41482996501145,319.41482996501145,319.41482996501145,319.41482996501145,319.41482996501145,319.41482996501145,319.41482996501145,319.41482996501145,319.41482996501145,a,1.0028033810085617,10,533,1,320.4493089180032,321.95095446301275,,,,,,,,,,,,,,,,,,,,,,,,,,,,,,,,,,,,,,,,,,,,,,,,,,,,,,,,,,,,,,,,,,,,,,,83693,2022-11-14_14h14.52.268,vts_reward_expectancy_bt_OFFLINE,2022.2.4,59.95288303338278,
1,0,0,0,0,0,0,1,triangle,star,1,0,1,0,1,5,17,2,,,,,,,,,,,,,,,,,,,,,,,,,,,,,,,,,,,,,,,,322.4514829099935,322.4514829099935,322.4514829099935,322.4514829099935,322.4514829099935,322.4514829099935,322.4514829099935,322.4514829099935,322.4514829099935,322.4514829099935,a,1.0853635340172332,10,543,1,323.5696567549894,325.0710849419993,,,,,,,,,,,,,,,,,,,,,,,,,,,,,,,,,,,,,,,,,,,,,,,,,,,,,,,,,,,,,,,,,,,,,,,83693,2022-11-14_14h14.52.268,vts_reward_expectancy_bt_OFFLINE,2022.2.4,59.95288303338278,
0,1,0,0,1,0,0,0,circle,triangle,1,0,1,0,1,6,18,3,,,,,,,,,,,,,,,,,,,,,,,,,,,,,,,,,,,,,,,,325.5716379870137,325.5716379870137,325.5716379870137,325.5716379870137,325.5716379870137,325.5716379870137,325.5716379870137,325.5716379870137,325.5716379870137,325.5716379870137,l,1.15833589900285,1,544,1,326.7561814970104,328.2580557340116,,,,,,,,,,,,,,,,,,,,,,,,,,,,,,,,,,,,,,,,,,,,,,,,,,,,,,,,,,,,,,,,,,,,,,,83693,2022-11-14_14h14.52.268,vts_reward_expectancy_bt_OFFLINE,2022.2.4,59.95288303338278,
0,0,1,0,1,0,0,0,hexagon,triangle,1,0,1,0,1,7,19,6,,,,,,,,,,,,,,,,,,,,,,,,,,,,,,,,,,,,,,,,328.75786688001244,328.75786688001244,328.75786688001244,328.75786688001244,328.75786688001244,328.75786688001244,328.75786688001244,328.75786688001244,328.75786688001244,328.75786688001244,l,1.3034021370112896,10,554,1,330.09397374201217,331.5959904009942,331.5959904009942,332.0978179280064,,,,,,,,,,,,,,,,,,,,,,,,,,,,,,,,,,,,,,,,,,,,,,,,,,,,,,,,,,,,,,,,,,,,,83693,2022-11-14_14h14.52.268,vts_reward_expectancy_bt_OFFLINE,2022.2.4,59.95288303338278,
0,1,0,0,0,0,1,0,circle,hexagon,1,0,1,0,1,8,20,4,,,,,,,,,,,,,,,,,,,,,,,,,,,,,,,,,,,,,,,,332.0978179280064,332.0978179280064,332.0978179280064,332.0978179280064,332.0978179280064,332.0978179280064,332.0978179280064,332.0978179280064,332.0978179280064,332.0978179280064,l,1.0444762400002219,10,564,1,333.1654752030154,334.6649092209991,334.6649092209991,335.16558390599675,,,,,,,,,,,,,,,,,,,,,,,,,,,,,,,,,,,,,,,,,,,,,,,,,,,,,,,,,,,,,,,,,,,,,83693,2022-11-14_14h14.52.268,vts_reward_expectancy_bt_OFFLINE,2022.2.4,59.95288303338278,
0,0,1,0,0,0,0,1,hexagon,star,1,0,1,0,1,9,21,8,,,,,,,,,,,,,,,,,,,,,,,,,,,,,,,,,,,,,,,,335.16558390599675,335.16558390599675,335.16558390599675,335.16558390599675,335.16558390599675,335.16558390599675,335.16558390599675,335.16558390599675,335.16558390599675,335.16558390599675,a,0.935268241999438,10,574,1,336.13329616200645,337.63493585199467,,,,,,,,,,,,,,,,,,,,,,,,,,,,,,,,,,,,,,,,,,,,,,,,,,,,,,,,,,,,,,,,,,,,,,,83693,2022-11-14_14h14.52.268,vts_reward_expectancy_bt_OFFLINE,2022.2.4,59.95288303338278,
1,0,0,0,0,1,0,0,triangle,circle,1,0,1,0,1,10,22,0,,,,,,,,,,,,,,,,,,,,,,,,,,,,,,,,,,,,,,,,338.1354540140019,338.1354540140019,338.1354540140019,338.1354540140019,338.1354540140019,338.1354540140019,338.1354540140019,338.1354540140019,338.1354540140019,338.1354540140019,a,1.8243281900067814,10,584,1,339.9876766730158,341.48917416401673,,,,,,,,,,,,,,,,,,,,,,,,,,,,,,,,,,,,,,,,,,,,,,,,,,,,,,,,,,,,,,,,,,,,,,,83693,2022-11-14_14h14.52.268,vts_reward_expectancy_bt_OFFLINE,2022.2.4,59.95288303338278,
0,1,0,0,0,0,0,1,circle,star,1,0,1,0,1,11,23,5,,,,,,,,,,,,,,,,,,,,,,,,,,,,,,,,,,,,,,,,341.9897155709914,341.9897155709914,341.9897155709914,341.9897155709914,341.9897155709914,341.9897155709914,341.9897155709914,341.9897155709914,341.9897155709914,341.9897155709914,a,1.796065689995885,10,594,1,343.80824916801066,345.310036002018,,,,,,,,,,,,,,,,,,,,,,,,,,,,,,,,,,,,,,,,,,,,,,,,,,,,,,,,,,,,,,,,,,,,,,,83693,2022-11-14_14h14.52.268,vts_reward_expectancy_bt_OFFLINE,2022.2.4,59.95288303338278,
0,0,1,0,1,0,0,0,hexagon,triangle,1,0,1,0,2,0,24,6,,,,,,,,,,,,,,,,,,,,,,,,,,,,,,,,,,,,,,,,345.8106677439937,345.8106677439937,345.8106677439937,345.8106677439937,345.8106677439937,345.8106677439937,345.8106677439937,345.8106677439937,345.8106677439937,345.8106677439937,l,1.529223738994915,10,604,1,347.36246249999385,348.864009714016,,,,,,,,,,,,,,,,,,,,,,,,,,,,,,,,,,,,,,,,,,,,,,,,,,,,,,,,,,,,,,,,,,,,,,,83693,2022-11-14_14h14.52.268,vts_reward_expectancy_bt_OFFLINE,2022.2.4,59.95288303338278,
0,0,0,1,0,0,1,0,star,hexagon,1,0,1,0,2,1,25,11,,,,,,,,,,,,,,,,,,,,,,,,,,,,,,,,,,,,,,,,349.3644972789916,349.3644972789916,349.3644972789916,349.3644972789916,349.3644972789916,349.3644972789916,349.3644972789916,349.3644972789916,349.3644972789916,349.3644972789916,l,1.294478458003141,10,614,1,350.6825134330138,352.18425477601704,,,,,,,,,,,,,,,,,,,,,,,,,,,,,,,,,,,,,,,,,,,,,,,,,,,,,,,,,,,,,,,,,,,,,,,83693,2022-11-14_14h14.52.268,vts_reward_expectancy_bt_OFFLINE,2022.2.4,59.95288303338278,
0,0,0,1,0,1,0,0,star ,circle,1,0,1,0,2,2,26,10,,,,,,,,,,,,,,,,,,,,,,,,,,,,,,,,,,,,,,,,352.6848270120099,352.6848270120099,352.6848270120099,352.6848270120099,352.6848270120099,352.6848270120099,352.6848270120099,352.6848270120099,352.6848270120099,352.6848270120099,l,1.4282136799884029,1,615,1,354.1363656890171,355.6379645400157,,,,,,,,,,,,,,,,,,,,,,,,,,,,,,,,,,,,,,,,,,,,,,,,,,,,,,,,,,,,,,,,,,,,,,,83693,2022-11-14_14h14.52.268,vts_reward_expectancy_bt_OFFLINE,2022.2.4,59.95288303338278,
1,0,0,0,0,1,0,0,triangle,circle,1,0,1,0,2,3,27,0,,,,,,,,,,,,,,,,,,,,,,,,,,,,,,,,,,,,,,,,356.13862671901006,356.13862671901006,356.13862671901006,356.13862671901006,356.13862671901006,356.13862671901006,356.13862671901006,356.13862671901006,356.13862671901006,356.13862671901006,a,0.9230316030152608,10,625,1,357.0894863939902,358.59133640499203,,,,,,,,,,,,,,,,,,,,,,,,,,,,,,,,,,,,,,,,,,,,,,,,,,,,,,,,,,,,,,,,,,,,,,,83693,2022-11-14_14h14.52.268,vts_reward_expectancy_bt_OFFLINE,2022.2.4,59.95288303338278,
0,0,1,0,0,1,0,0,hexagon,circle,1,0,1,0,2,4,28,7,,,,,,,,,,,,,,,,,,,,,,,,,,,,,,,,,,,,,,,,359.0918575480173,359.0918575480173,359.0918575480173,359.0918575480173,359.0918575480173,359.0918575480173,359.0918575480173,359.0918575480173,359.0918575480173,359.0918575480173,a,1.4020675760111772,10,635,1,360.51012988199363,362.011759246001,362.011759246001,,,,,,,,,,,,,,,,,,,,,,,,,,,,,,,,,,,,,,,,,,,,,,,,,,,,,,,,,,,,,,,,,,,,,,83693,2022-11-14_14h14.52.268,vts_reward_expectancy_bt_OFFLINE,2022.2.4,59.95288303338278,
0,1,0,0,0,0,0,1,circle,star,1,0,1,0,2,5,29,5,,,,,,,,,,,,,,,,,,,,,,,,,,,,,,,,,,,,,,,,362.51243818498915,362.51243818498915,362.51243818498915,362.51243818498915,362.51243818498915,362.51243818498915,362.51243818498915,362.51243818498915,362.51243818498915,362.51243818498915,l,1.3875913250085432,10,645,1,363.9307167500083,365.4321267020132,,,,,,,,,,,,,,,,,,,,,,,,,,,,,,,,,,,,,,,,,,,,,,,,,,,,,,,,,,,,,,,,,,,,,,,83693,2022-11-14_14h14.52.268,vts_reward_expectancy_bt_OFFLINE,2022.2.4,59.95288303338278,
0,0,1,0,0,0,0,1,hexagon,star,1,0,1,0,2,6,30,8,,,,,,,,,,,,,,,,,,,,,,,,,,,,,,,,,,,,,,,,365.93278308201116,365.93278308201116,365.93278308201116,365.93278308201116,365.93278308201116,365.93278308201116,365.93278308201116,365.93278308201116,365.93278308201116,365.93278308201116,a,0.9373440429917537,10,655,1,366.900476395007,368.4020939109905,,,,,,,,,,,,,,,,,,,,,,,,,,,,,,,,,,,,,,,,,,,,,,,,,,,,,,,,,,,,,,,,,,,,,,,83693,2022-11-14_14h14.52.268,vts_reward_expectancy_bt_OFFLINE,2022.2.4,59.95288303338278,
1,0,0,0,0,0,1,0,triangle,hexagon,1,0,1,0,2,7,31,1,,,,,,,,,,,,,,,,,,,,,,,,,,,,,,,,,,,,,,,,368.90279037700384,368.90279037700384,368.90279037700384,368.90279037700384,368.90279037700384,368.90279037700384,368.90279037700384,368.90279037700384,368.90279037700384,368.90279037700384,a,1.4687891129869968,10,665,1,370.3876019270101,371.8893049519975,371.8893049519975,,,,,,,,,,,,,,,,,,,,,,,,,,,,,,,,,,,,,,,,,,,,,,,,,,,,,,,,,,,,,,,,,,,,,,83693,2022-11-14_14h14.52.268,vts_reward_expectancy_bt_OFFLINE,2022.2.4,59.95288303338278,
0,1,0,0,1,0,0,0,circle,triangle,1,0,1,0,2,8,32,3,,,,,,,,,,,,,,,,,,,,,,,,,,,,,,,,,,,,,,,,372.3899074640067,372.3899074640067,372.3899074640067,372.3899074640067,372.3899074640067,372.3899074640067,372.3899074640067,372.3899074640067,372.3899074640067,372.3899074640067,l,1.0739980000071228,1,666,1,373.49107964901486,374.99272677500267,,,,,,,,,,,,,,,,,,,,,,,,,,,,,,,,,,,,,,,,,,,,,,,,,,,,,,,,,,,,,,,,,,,,,,,83693,2022-11-14_14h14.52.268,vts_reward_expectancy_bt_OFFLINE,2022.2.4,59.95288303338278,
0,0,0,1,1,0,0,0,star,triangle,1,0,1,0,2,9,33,9,,,,,,,,,,,,,,,,,,,,,,,,,,,,,,,,,,,,,,,,375.49331065799925,375.49331065799925,375.49331065799925,375.49331065799925,375.49331065799925,375.49331065799925,375.49331065799925,375.49331065799925,375.49331065799925,375.49331065799925,l,1.0188053239835426,10,676,1,376.54459888499696,378.0462242400099,,,,,,,,,,,,,,,,,,,,,,,,,,,,,,,,,,,,,,,,,,,,,,,,,,,,,,,,,,,,,,,,,,,,,,,83693,2022-11-14_14h14.52.268,vts_reward_expectancy_bt_OFFLINE,2022.2.4,59.95288303338278,
1,0,0,0,0,0,0,1,triangle,star,1,0,1,0,2,10,34,2,,,,,,,,,,,,,,,,,,,,,,,,,,,,,,,,,,,,,,,,378.54676976200426,378.54676976200426,378.54676976200426,378.54676976200426,378.54676976200426,378.54676976200426,378.54676976200426,378.54676976200426,378.54676976200426,378.54676976200426,a,1.869841905980138,10,686,1,380.44878014200367,381.9504218630027,,,,,,,,,,,,,,,,,,,,,,,,,,,,,,,,,,,,,,,,,,,,,,,,,,,,,,,,,,,,,,,,,,,,,,,83693,2022-11-14_14h14.52.268,vts_reward_expectancy_bt_OFFLINE,2022.2.4,59.95288303338278,
0,1,0,0,0,0,1,0,circle,hexagon,1,0,1,0,2,11,35,4,,,,,,,,,,,,,,,,,,,,,,,,,,,,,,,,,,,,,,,,382.4509386710124,382.4509386710124,382.4509386710124,382.4509386710124,382.4509386710124,382.4509386710124,382.4509386710124,382.4509386710124,382.4509386710124,382.4509386710124,l,1.2191543109947816,1,687,1,383.702383197,385.2040327390132,,,,,,,,,,,,,,,,,,,,,,,,,,,,,,,,,,,,,,,,,,,,,,,,,,,,,,,,,,,,,,,,,,,,,,,83693,2022-11-14_14h14.52.268,vts_reward_expectancy_bt_OFFLINE,2022.2.4,59.95288303338278,
0,0,0,1,1,0,0,0,star,triangle,1,0,1,0,3,0,36,9,,,,,,,,,,,,,,,,,,,,,,,,,,,,,,,,,,,,,,,,385.704500679014,385.704500679014,385.704500679014,385.704500679014,385.704500679014,385.704500679014,385.704500679014,385.704500679014,385.704500679014,385.704500679014,l,1.124232419009786,1,688,1,386.85573812699295,388.3573160870001,,,,,,,,,,,,,,,,,,,,,,,,,,,,,,,,,,,,,,,,,,,,,,,,,,,,,,,,,,,,,,,,,,,,,,,83693,2022-11-14_14h14.52.268,vts_reward_expectancy_bt_OFFLINE,2022.2.4,59.95288303338278,
0,0,0,1,0,0,1,0,star,hexagon,1,0,1,0,3,1,37,11,,,,,,,,,,,,,,,,,,,,,,,,,,,,,,,,,,,,,,,,388.8580757960153,388.8580757960153,388.8580757960153,388.8580757960153,388.8580757960153,388.8580757960153,388.8580757960153,388.8580757960153,388.8580757960153,388.8580757960153,l,0.8955576959997416,10,698,1,389.77580309601035,391.27754787399317,,,,,,,,,,,,,,,,,,,,,,,,,,,,,,,,,,,,,,,,,,,,,,,,,,,,,,,,,,,,,,,,,,,,,,,83693,2022-11-14_14h14.52.268,vts_reward_expectancy_bt_OFFLINE,2022.2.4,59.95288303338278,
1,0,0,0,0,1,0,0,triangle,circle,1,0,1,0,3,2,38,0,,,,,,,,,,,,,,,,,,,,,,,,,,,,,,,,,,,,,,,,391.7784190190141,391.7784190190141,391.7784190190141,391.7784190190141,391.7784190190141,391.7784190190141,391.7784190190141,391.7784190190141,391.7784190190141,391.7784190190141,a,2.1842058670008555,10,708,1,393.98050095001236,395.4820735529938,,,,,,,,,,,,,,,,,,,,,,,,,,,,,,,,,,,,,,,,,,,,,,,,,,,,,,,,,,,,,,,,,,,,,,,83693,2022-11-14_14h14.52.268,vts_reward_expectancy_bt_OFFLINE,2022.2.4,59.95288303338278,
0,0,1,0,0,0,0,1,hexagon,star,1,0,1,0,3,3,39,8,,,,,,,,,,,,,,,,,,,,,,,,,,,,,,,,,,,,,,,,395.98260526999366,395.98260526999366,395.98260526999366,395.98260526999366,395.98260526999366,395.98260526999366,395.98260526999366,395.98260526999366,395.98260526999366,395.98260526999366,a,1.1738412349950522,10,718,1,397.1838749430026,398.68576746599865,,,,,,,,,,,,,,,,,,,,,,,,,,,,,,,,,,,,,,,,,,,,,,,,,,,,,,,,,,,,,,,,,,,,,,,83693,2022-11-14_14h14.52.268,vts_reward_expectancy_bt_OFFLINE,2022.2.4,59.95288303338278,
1,0,0,0,0,0,0,1,triangle,star,1,0,1,0,3,4,40,2,,,,,,,,,,,,,,,,,,,,,,,,,,,,,,,,,,,,,,,,399.1862005130097,399.1862005130097,399.1862005130097,399.1862005130097,399.1862005130097,399.1862005130097,399.1862005130097,399.1862005130097,399.1862005130097,399.1862005130097,l,1.1203353260061704,1,719,1,400.3374814839917,401.8392754649976,,,,,,,,,,,,,,,,,,,,,,,,,,,,,,,,,,,,,,,,,,,,,,,,,,,,,,,,,,,,,,,,,,,,,,,83693,2022-11-14_14h14.52.268,vts_reward_expectancy_bt_OFFLINE,2022.2.4,59.95288303338278,
0,0,1,0,0,1,0,0,hexagon,circle,1,0,1,0,3,5,41,7,,,,,,,,,,,,,,,,,,,,,,,,,,,,,,,,,,,,,,,,402.33958588400856,402.33958588400856,402.33958588400856,402.33958588400856,402.33958588400856,402.33958588400856,402.33958588400856,402.33958588400856,402.33958588400856,402.33958588400856,l,1.1293927019869443,1,720,1,403.49116496599163,404.9929440600099,,,,,,,,,,,,,,,,,,,,,,,,,,,,,,,,,,,,,,,,,,,,,,,,,,,,,,,,,,,,,,,,,,,,,,,83693,2022-11-14_14h14.52.268,vts_reward_expectancy_bt_OFFLINE,2022.2.4,59.95288303338278,
0,0,0,1,0,1,0,0,star ,circle,1,0,1,0,3,6,42,10,,,,,,,,,,,,,,,,,,,,,,,,,,,,,,,,,,,,,,,,405.4930913319986,405.4930913319986,405.4930913319986,405.4930913319986,405.4930913319986,405.4930913319986,405.4930913319986,405.4930913319986,405.4930913319986,405.4930913319986,l,0.5732119610183872,10,730,1,406.0938910290133,407.5954998639936,,,,,,,,,,,,,,,,,,,,,,,,,,,,,,,,,,,,,,,,,,,,,,,,,,,,,,,,,,,,,,,,,,,,,,,83693,2022-11-14_14h14.52.268,vts_reward_expectancy_bt_OFFLINE,2022.2.4,59.95288303338278,
0,1,0,0,1,0,0,0,circle,triangle,1,0,1,0,3,7,43,3,,,,,,,,,,,,,,,,,,,,,,,,,,,,,,,,,,,,,,,,408.0960613549978,408.0960613549978,408.0960613549978,408.0960613549978,408.0960613549978,408.0960613549978,408.0960613549978,408.0960613549978,408.0960613549978,408.0960613549978,l,1.7415769709914457,10,740,1,409.86449764700956,411.3662072220177,,,,,,,,,,,,,,,,,,,,,,,,,,,,,,,,,,,,,,,,,,,,,,,,,,,,,,,,,,,,,,,,,,,,,,,83693,2022-11-14_14h14.52.268,vts_reward_expectancy_bt_OFFLINE,2022.2.4,59.95288303338278,
0,1,0,0,0,0,1,0,circle,hexagon,1,0,1,0,3,8,44,4,,,,,,,,,,,,,,,,,,,,,,,,,,,,,,,,,,,,,,,,411.8668284880114,411.8668284880114,411.8668284880114,411.8668284880114,411.8668284880114,411.8668284880114,411.8668284880114,411.8668284880114,411.8668284880114,411.8668284880114,l,1.3551945439830888,10,750,1,413.25167091100593,414.7533244630031,,,,,,,,,,,,,,,,,,,,,,,,,,,,,,,,,,,,,,,,,,,,,,,,,,,,,,,,,,,,,,,,,,,,,,,83693,2022-11-14_14h14.52.268,vts_reward_expectancy_bt_OFFLINE,2022.2.4,59.95288303338278,
0,0,1,0,1,0,0,0,hexagon,triangle,1,0,1,0,3,9,45,6,,,,,,,,,,,,,,,,,,,,,,,,,,,,,,,,,,,,,,,,415.2538334359997,415.2538334359997,415.2538334359997,415.2538334359997,415.2538334359997,415.2538334359997,415.2538334359997,415.2538334359997,415.2538334359997,415.2538334359997,l,1.3102306259970646,10,760,1,416.588707345014,418.090378880006,,,,,,,,,,,,,,,,,,,,,,,,,,,,,,,,,,,,,,,,,,,,,,,,,,,,,,,,,,,,,,,,,,,,,,,83693,2022-11-14_14h14.52.268,vts_reward_expectancy_bt_OFFLINE,2022.2.4,59.95288303338278,
1,0,0,0,0,0,1,0,triangle,hexagon,1,0,1,0,3,10,46,1,,,,,,,,,,,,,,,,,,,,,,,,,,,,,,,,,,,,,,,,418.59095470799366,418.59095470799366,418.59095470799366,418.59095470799366,418.59095470799366,418.59095470799366,418.59095470799366,418.59095470799366,418.59095470799366,418.59095470799366,a,1.2028417039837223,1,761,1,419.82544469300774,421.32721404501353,,,,,,,,,,,,,,,,,,,,,,,,,,,,,,,,,,,,,,,,,,,,,,,,,,,,,,,,,,,,,,,,,,,,,,,83693,2022-11-14_14h14.52.268,vts_reward_expectancy_bt_OFFLINE,2022.2.4,59.95288303338278,
0,1,0,0,0,0,0,1,circle,star,1,0,1,0,3,11,47,5,,,,,,,,,,,,,,,,,,,,,,,,,,,,,,,,,,,,,,,,421.82814267100184,421.82814267100184,421.82814267100184,421.82814267100184,421.82814267100184,421.82814267100184,421.82814267100184,421.82814267100184,421.82814267100184,421.82814267100184,l,1.6199236149841454,10,771,1,423.4796884249954,424.98141957700136,,,,,,,,,,,,,,,,,,,,,,,,,,,,,,,,,,,,,,,,,,,,,,,,,,,,,,,,,,,,,,,,,,,,,,,83693,2022-11-14_14h14.52.268,vts_reward_expectancy_bt_OFFLINE,2022.2.4,59.95288303338278,
0,0,0,1,1,0,0,0,star,triangle,2,0,2,0,0,0,0,9,,,,,,,,,,,,,,,,,,,,,,,,,,,,,,,,,,,,,,,,452.7668653439905,452.7668653439905,452.7668653439905,452.7668653439905,452.7668653439905,452.7668653439905,452.7668653439905,452.7668653439905,452.7668653439905,452.7668653439905,l,2.1155482140020467,1,772,2,454.91428172698943,456.41591573299957,,,,,,,,,,,,,,,,,,,,,,,,,,,,,,,,,,,,,,,,,,,,,,,,,,,,,,,,,,,,,,,,,,,,,,,83693,2022-11-14_14h14.52.268,vts_reward_expectancy_bt_OFFLINE,2022.2.4,59.95288303338278,
1,0,0,0,0,0,1,0,triangle,hexagon,2,0,2,0,0,1,1,1,,,,,,,,,,,,,,,,,,,,,,,,,,,,,,,,,,,,,,,,456.9165045720001,456.9165045720001,456.9165045720001,456.9165045720001,456.9165045720001,456.9165045720001,456.9165045720001,456.9165045720001,456.9165045720001,456.9165045720001,a,1.813920845015673,10,782,2,458.75189968699124,460.25348332201247,,,,,,,,,,,,,,,,,,,,,,,,,,,,,,,,,,,,,,,,,,,,,,,,,,,,,,,,,,,,,,,,,,,,,,,83693,2022-11-14_14h14.52.268,vts_reward_expectancy_bt_OFFLINE,2022.2.4,59.95288303338278,
1,0,0,0,0,1,0,0,triangle,circle,2,0,2,0,0,2,2,0,,,,,,,,,,,,,,,,,,,,,,,,,,,,,,,,,,,,,,,,460.7541430690035,460.7541430690035,460.7541430690035,460.7541430690035,460.7541430690035,460.7541430690035,460.7541430690035,460.7541430690035,460.7541430690035,460.7541430690035,a,2.58855676202802,1,783,2,463.37351136800135,464.87530244200025,,,,,,,,,,,,,,,,,,,,,,,,,,,,,,,,,,,,,,,,,,,,,,,,,,,,,,,,,,,,,,,,,,,,,,,83693,2022-11-14_14h14.52.268,vts_reward_expectancy_bt_OFFLINE,2022.2.4,59.95288303338278,
0,1,0,0,0,0,0,1,circle,star,2,0,2,0,0,3,3,5,,,,,,,,,,,,,,,,,,,,,,,,,,,,,,,,,,,,,,,,465.3760498840129,465.3760498840129,465.3760498840129,465.3760498840129,465.3760498840129,465.3760498840129,465.3760498840129,465.3760498840129,465.3760498840129,465.3760498840129,l,1.4204248450114392,1,784,2,466.8274855109921,468.3291043000063,,,,,,,,,,,,,,,,,,,,,,,,,,,,,,,,,,,,,,,,,,,,,,,,,,,,,,,,,,,,,,,,,,,,,,,83693,2022-11-14_14h14.52.268,vts_reward_expectancy_bt_OFFLINE,2022.2.4,59.95288303338278,
0,1,0,0,1,0,0,0,circle,triangle,2,0,2,0,0,4,4,3,,,,,,,,,,,,,,,,,,,,,,,,,,,,,,,,,,,,,,,,468.82962748000864,468.82962748000864,468.82962748000864,468.82962748000864,468.82962748000864,468.82962748000864,468.82962748000864,468.82962748000864,468.82962748000864,468.82962748000864,l,0.847261064016493,10,794,2,469.6975763649971,471.1992456369917,,,,,,,,,,,,,,,,,,,,,,,,,,,,,,,,,,,,,,,,,,,,,,,,,,,,,,,,,,,,,,,,,,,,,,,83693,2022-11-14_14h14.52.268,vts_reward_expectancy_bt_OFFLINE,2022.2.4,59.95288303338278,
0,0,1,0,0,0,0,1,hexagon,star,2,0,2,0,0,5,5,8,,,,,,,,,,,,,,,,,,,,,,,,,,,,,,,,,,,,,,,,471.6997840249969,471.6997840249969,471.6997840249969,471.6997840249969,471.6997840249969,471.6997840249969,471.6997840249969,471.6997840249969,471.6997840249969,471.6997840249969,a,0.7776565940002911,10,804,2,472.50042996701086,474.00195208899095,,,,,,,,,,,,,,,,,,,,,,,,,,,,,,,,,,,,,,,,,,,,,,,,,,,,,,,,,,,,,,,,,,,,,,,83693,2022-11-14_14h14.52.268,vts_reward_expectancy_bt_OFFLINE,2022.2.4,59.95288303338278,
0,0,1,0,1,0,0,0,hexagon,triangle,2,0,2,0,0,6,6,6,,,,,,,,,,,,,,,,,,,,,,,,,,,,,,,,,,,,,,,,474.50276237301296,474.50276237301296,474.50276237301296,474.50276237301296,474.50276237301296,474.50276237301296,474.50276237301296,474.50276237301296,474.50276237301296,474.50276237301296,l,0.5623010770068504,10,814,2,475.08665468599065,476.5880778559949,,,,,,,,,,,,,,,,,,,,,,,,,,,,,,,,,,,,,,,,,,,,,,,,,,,,,,,,,,,,,,,,,,,,,,,83693,2022-11-14_14h14.52.268,vts_reward_expectancy_bt_OFFLINE,2022.2.4,59.95288303338278,
0,0,1,0,0,1,0,0,hexagon,circle,2,0,2,0,0,7,7,7,,,,,,,,,,,,,,,,,,,,,,,,,,,,,,,,,,,,,,,,477.08874432899756,477.08874432899756,477.08874432899756,477.08874432899756,477.08874432899756,477.08874432899756,477.08874432899756,477.08874432899756,477.08874432899756,477.08874432899756,a,0.8905178889981471,10,824,2,478.0064478919958,479.5081537950027,,,,,,,,,,,,,,,,,,,,,,,,,,,,,,,,,,,,,,,,,,,,,,,,,,,,,,,,,,,,,,,,,,,,,,,83693,2022-11-14_14h14.52.268,vts_reward_expectancy_bt_OFFLINE,2022.2.4,59.95288303338278,
0,1,0,0,0,0,1,0,circle,hexagon,2,0,2,0,0,8,8,4,,,,,,,,,,,,,,,,,,,,,,,,,,,,,,,,,,,,,,,,480.00858967000386,480.00858967000386,480.00858967000386,480.00858967000386,480.00858967000386,480.00858967000386,480.00858967000386,480.00858967000386,480.00858967000386,480.00858967000386,l,0.625559746986255,10,834,2,480.65936205899925,482.1610516490182,,,,,,,,,,,,,,,,,,,,,,,,,,,,,,,,,,,,,,,,,,,,,,,,,,,,,,,,,,,,,,,,,,,,,,,83693,2022-11-14_14h14.52.268,vts_reward_expectancy_bt_OFFLINE,2022.2.4,59.95288303338278,
0,0,0,1,0,1,0,0,star ,circle,2,0,2,0,0,9,9,10,,,,,,,,,,,,,,,,,,,,,,,,,,,,,,,,,,,,,,,,482.6617004839936,482.6617004839936,482.6617004839936,482.6617004839936,482.6617004839936,482.6617004839936,482.6617004839936,482.6617004839936,482.6617004839936,482.6617004839936,a,0.9312946910213213,10,844,2,483.6126002969977,485.11429715700797,,,,,,,,,,,,,,,,,,,,,,,,,,,,,,,,,,,,,,,,,,,,,,,,,,,,,,,,,,,,,,,,,,,,,,,83693,2022-11-14_14h14.52.268,vts_reward_expectancy_bt_OFFLINE,2022.2.4,59.95288303338278,
1,0,0,0,0,0,0,1,triangle,star,2,0,2,0,0,10,10,2,,,,,,,,,,,,,,,,,,,,,,,,,,,,,,,,,,,,,,,,485.6149640910153,485.6149640910153,485.6149640910153,485.6149640910153,485.6149640910153,485.6149640910153,485.6149640910153,485.6149640910153,485.6149640910153,485.6149640910153,l,0.452517218014691,1,845,2,486.0987701849954,487.60042233599233,,,,,,,,,,,,,,,,,,,,,,,,,,,,,,,,,,,,,,,,,,,,,,,,,,,,,,,,,,,,,,,,,,,,,,,83693,2022-11-14_14h14.52.268,vts_reward_expectancy_bt_OFFLINE,2022.2.4,59.95288303338278,
0,0,0,1,0,0,1,0,star,hexagon,2,0,2,0,0,11,11,11,,,,,,,,,,,,,,,,,,,,,,,,,,,,,,,,,,,,,,,,488.1008802439901,488.1008802439901,488.1008802439901,488.1008802439901,488.1008802439901,488.1008802439901,488.1008802439901,488.1008802439901,488.1008802439901,488.1008802439901,l,2.309991785994498,10,855,2,490.43695684400154,491.9386429100123,,,,,,,,,,,,,,,,,,,,,,,,,,,,,,,,,,,,,,,,,,,,,,,,,,,,,,,,,,,,,,,,,,,,,,,83693,2022-11-14_14h14.52.268,vts_reward_expectancy_bt_OFFLINE,2022.2.4,59.95288303338278,
0,1,0,0,0,0,1,0,circle,hexagon,2,0,2,0,1,0,12,4,,,,,,,,,,,,,,,,,,,,,,,,,,,,,,,,,,,,,,,,492.4389968010073,492.4389968010073,492.4389968010073,492.4389968010073,492.4389968010073,492.4389968010073,492.4389968010073,492.4389968010073,492.4389968010073,492.4389968010073,l,0.9415947439847514,1,856,2,493.4067859830102,494.9084942880145,,,,,,,,,,,,,,,,,,,,,,,,,,,,,,,,,,,,,,,,,,,,,,,,,,,,,,,,,,,,,,,,,,,,,,,83693,2022-11-14_14h14.52.268,vts_reward_expectancy_bt_OFFLINE,2022.2.4,59.95288303338278,
0,0,0,1,1,0,0,0,star,triangle,2,0,2,0,1,1,13,9,,,,,,,,,,,,,,,,,,,,,,,,,,,,,,,,,,,,,,,,495.4090762370033,495.4090762370033,495.4090762370033,495.4090762370033,495.4090762370033,495.4090762370033,495.4090762370033,495.4090762370033,495.4090762370033,495.4090762370033,l,1.0199289819865953,10,866,2,496.46008753200294,497.96184947300935,,,,,,,,,,,,,,,,,,,,,,,,,,,,,,,,,,,,,,,,,,,,,,,,,,,,,,,,,,,,,,,,,,,,,,,83693,2022-11-14_14h14.52.268,vts_reward_expectancy_bt_OFFLINE,2022.2.4,59.95288303338278,
0,0,1,0,0,1,0,0,hexagon,circle,2,0,2,0,1,2,14,7,,,,,,,,,,,,,,,,,,,,,,,,,,,,,,,,,,,,,,,,498.4624599800154,498.4624599800154,498.4624599800154,498.4624599800154,498.4624599800154,498.4624599800154,498.4624599800154,498.4624599800154,498.4624599800154,498.4624599800154,a,1.073756971018156,10,876,2,499.5637146990048,501.065074195998,,,,,,,,,,,,,,,,,,,,,,,,,,,,,,,,,,,,,,,,,,,,,,,,,,,,,,,,,,,,,,,,,,,,,,,83693,2022-11-14_14h14.52.268,vts_reward_expectancy_bt_OFFLINE,2022.2.4,59.95288303338278,
1,0,0,0,0,0,1,0,triangle,hexagon,2,0,2,0,1,3,15,1,,,,,,,,,,,,,,,,,,,,,,,,,,,,,,,,,,,,,,,,501.56580213000416,501.56580213000416,501.56580213000416,501.56580213000416,501.56580213000416,501.56580213000416,501.56580213000416,501.56580213000416,501.56580213000416,501.56580213000416,a,0.9520743119937833,10,886,2,502.5503099549969,504.05178464599885,,,,,,,,,,,,,,,,,,,,,,,,,,,,,,,,,,,,,,,,,,,,,,,,,,,,,,,,,,,,,,,,,,,,,,,83693,2022-11-14_14h14.52.268,vts_reward_expectancy_bt_OFFLINE,2022.2.4,59.95288303338278,
0,0,0,1,0,1,0,0,star ,circle,2,0,2,0,1,4,16,10,,,,,,,,,,,,,,,,,,,,,,,,,,,,,,,,,,,,,,,,504.55239182699006,504.55239182699006,504.55239182699006,504.55239182699006,504.55239182699006,504.55239182699006,504.55239182699006,504.55239182699006,504.55239182699006,504.55239182699006,a,1.8457924310059752,10,896,2,506.42116946101305,507.9227867849986,,,,,,,,,,,,,,,,,,,,,,,,,,,,,,,,,,,,,,,,,,,,,,,,,,,,,,,,,,,,,,,,,,,,,,,83693,2022-11-14_14h14.52.268,vts_reward_expectancy_bt_OFFLINE,2022.2.4,59.95288303338278,
0,1,0,0,1,0,0,0,circle,triangle,2,0,2,0,1,5,17,3,,,,,,,,,,,,,,,,,,,,,,,,,,,,,,,,,,,,,,,,508.42336405199603,508.42336405199603,508.42336405199603,508.42336405199603,508.42336405199603,508.42336405199603,508.42336405199603,508.42336405199603,508.42336405199603,508.42336405199603,l,0.7652252539992332,10,906,2,509.2076110249909,510.7091964560095,,,,,,,,,,,,,,,,,,,,,,,,,,,,,,,,,,,,,,,,,,,,,,,,,,,,,,,,,,,,,,,,,,,,,,,83693,2022-11-14_14h14.52.268,vts_reward_expectancy_bt_OFFLINE,2022.2.4,59.95288303338278,
0,0,0,1,0,0,1,0,star,hexagon,2,0,2,0,1,6,18,11,,,,,,,,,,,,,,,,,,,,,,,,,,,,,,,,,,,,,,,,511.2097302399925,511.2097302399925,511.2097302399925,511.2097302399925,511.2097302399925,511.2097302399925,511.2097302399925,511.2097302399925,511.2097302399925,511.2097302399925,l,0.8020354000036605,10,916,2,512.0440531519998,513.5455390330171,,,,,,,,,,,,,,,,,,,,,,,,,,,,,,,,,,,,,,,,,,,,,,,,,,,,,,,,,,,,,,,,,,,,,,,83693,2022-11-14_14h14.52.268,vts_reward_expectancy_bt_OFFLINE,2022.2.4,59.95288303338278,
0,0,1,0,1,0,0,0,hexagon,triangle,2,0,2,0,1,7,19,6,,,,,,,,,,,,,,,,,,,,,,,,,,,,,,,,,,,,,,,,514.0460786230105,514.0460786230105,514.0460786230105,514.0460786230105,514.0460786230105,514.0460786230105,514.0460786230105,514.0460786230105,514.0460786230105,514.0460786230105,l,0.9687568490044214,10,926,2,515.0472756139934,516.5490185870149,,,,,,,,,,,,,,,,,,,,,,,,,,,,,,,,,,,,,,,,,,,,,,,,,,,,,,,,,,,,,,,,,,,,,,,83693,2022-11-14_14h14.52.268,vts_reward_expectancy_bt_OFFLINE,2022.2.4,59.95288303338278,
0,1,0,0,0,0,0,1,circle,star,2,0,2,0,1,8,20,5,,,,,,,,,,,,,,,,,,,,,,,,,,,,,,,,,,,,,,,,517.0495744970103,517.0495744970103,517.0495744970103,517.0495744970103,517.0495744970103,517.0495744970103,517.0495744970103,517.0495744970103,517.0495744970103,517.0495744970103,l,0.9929738299979363,1,927,2,518.0675067839911,519.5690311810176,,,,,,,,,,,,,,,,,,,,,,,,,,,,,,,,,,,,,,,,,,,,,,,,,,,,,,,,,,,,,,,,,,,,,,,83693,2022-11-14_14h14.52.268,vts_reward_expectancy_bt_OFFLINE,2022.2.4,59.95288303338278,
1,0,0,0,0,0,0,1,triangle,star,2,0,2,0,1,9,21,2,,,,,,,,,,,,,,,,,,,,,,,,,,,,,,,,,,,,,,,,520.0695720300137,520.0695720300137,520.0695720300137,520.0695720300137,520.0695720300137,520.0695720300137,520.0695720300137,520.0695720300137,520.0695720300137,520.0695720300137,a,1.4590841860044748,10,937,2,521.5544844949909,523.0560739130015,,,,,,,,,,,,,,,,,,,,,,,,,,,,,,,,,,,,,,,,,,,,,,,,,,,,,,,,,,,,,,,,,,,,,,,83693,2022-11-14_14h14.52.268,vts_reward_expectancy_bt_OFFLINE,2022.2.4,59.95288303338278,
0,0,1,0,0,0,0,1,hexagon,star,2,0,2,0,1,10,22,8,,,,,,,,,,,,,,,,,,,,,,,,,,,,,,,,,,,,,,,,523.5567871450039,523.5567871450039,523.5567871450039,523.5567871450039,523.5567871450039,523.5567871450039,523.5567871450039,523.5567871450039,523.5567871450039,523.5567871450039,a,0.8520686900010332,10,947,2,524.4410865879909,525.9424913440016,,,,,,,,,,,,,,,,,,,,,,,,,,,,,,,,,,,,,,,,,,,,,,,,,,,,,,,,,,,,,,,,,,,,,,,83693,2022-11-14_14h14.52.268,vts_reward_expectancy_bt_OFFLINE,2022.2.4,59.95288303338278,
1,0,0,0,0,1,0,0,triangle,circle,2,0,2,0,1,11,23,0,,,,,,,,,,,,,,,,,,,,,,,,,,,,,,,,,,,,,,,,526.4431791669922,526.4431791669922,526.4431791669922,526.4431791669922,526.4431791669922,526.4431791669922,526.4431791669922,526.4431791669922,526.4431791669922,526.4431791669922,a,1.026368980994448,10,957,2,527.4943033620075,528.9958724309981,,,,,,,,,,,,,,,,,,,,,,,,,,,,,,,,,,,,,,,,,,,,,,,,,,,,,,,,,,,,,,,,,,,,,,,83693,2022-11-14_14h14.52.268,vts_reward_expectancy_bt_OFFLINE,2022.2.4,59.95288303338278,
0,0,0,1,0,0,1,0,star,hexagon,2,0,2,0,2,0,24,11,,,,,,,,,,,,,,,,,,,,,,,,,,,,,,,,,,,,,,,,529.4965716479928,529.4965716479928,529.4965716479928,529.4965716479928,529.4965716479928,529.4965716479928,529.4965716479928,529.4965716479928,529.4965716479928,529.4965716479928,l,2.4951215230103116,10,967,2,532.0162365279975,533.5177905060118,,,,,,,,,,,,,,,,,,,,,,,,,,,,,,,,,,,,,,,,,,,,,,,,,,,,,,,,,,,,,,,,,,,,,,,83693,2022-11-14_14h14.52.268,vts_reward_expectancy_bt_OFFLINE,2022.2.4,59.95288303338278,
0,0,1,0,0,1,0,0,hexagon,circle,2,0,2,0,2,1,25,7,,,,,,,,,,,,,,,,,,,,,,,,,,,,,,,,,,,,,,,,534.0182787899976,534.0182787899976,534.0182787899976,534.0182787899976,534.0182787899976,534.0182787899976,534.0182787899976,534.0182787899976,534.0182787899976,534.0182787899976,a,1.6412738820072263,1,968,2,535.6867346770014,537.1885526420083,,,,,,,,,,,,,,,,,,,,,,,,,,,,,,,,,,,,,,,,,,,,,,,,,,,,,,,,,,,,,,,,,,,,,,,83693,2022-11-14_14h14.52.268,vts_reward_expectancy_bt_OFFLINE,2022.2.4,59.95288303338278,
0,0,1,0,0,0,0,1,hexagon,star,2,0,2,0,2,2,26,8,,,,,,,,,,,,,,,,,,,,,,,,,,,,,,,,,,,,,,,,537.6890215559979,537.6890215559979,537.6890215559979,537.6890215559979,537.6890215559979,537.6890215559979,537.6890215559979,537.6890215559979,537.6890215559979,537.6890215559979,l,1.0313329889904708,1,969,2,538.7400998910016,540.2418170399906,,,,,,,,,,,,,,,,,,,,,,,,,,,,,,,,,,,,,,,,,,,,,,,,,,,,,,,,,,,,,,,,,,,,,,,83693,2022-11-14_14h14.52.268,vts_reward_expectancy_bt_OFFLINE,2022.2.4,59.95288303338278,
0,1,0,0,0,0,1,0,circle,hexagon,2,0,2,0,2,3,27,4,,,,,,,,,,,,,,,,,,,,,,,,,,,,,,,,,,,,,,,,540.742633337999,540.742633337999,540.742633337999,540.742633337999,540.742633337999,540.742633337999,540.742633337999,540.742633337999,540.742633337999,540.742633337999,l,0.9136278019868769,10,979,2,541.6766442320077,543.1783174700104,,,,,,,,,,,,,,,,,,,,,,,,,,,,,,,,,,,,,,,,,,,,,,,,,,,,,,,,,,,,,,,,,,,,,,,83693,2022-11-14_14h14.52.268,vts_reward_expectancy_bt_OFFLINE,2022.2.4,59.95288303338278,
1,0,0,0,0,0,0,1,triangle,star,2,0,2,0,2,4,28,2,,,,,,,,,,,,,,,,,,,,,,,,,,,,,,,,,,,,,,,,543.6788080859988,543.6788080859988,543.6788080859988,543.6788080859988,543.6788080859988,543.6788080859988,543.6788080859988,543.6788080859988,543.6788080859988,543.6788080859988,a,0.710928641987266,10,989,2,544.4128887029947,545.9147027709987,,,,,,,,,,,,,,,,,,,,,,,,,,,,,,,,,,,,,,,,,,,,,,,,,,,,,,,,,,,,,,,,,,,,,,,83693,2022-11-14_14h14.52.268,vts_reward_expectancy_bt_OFFLINE,2022.2.4,59.95288303338278,
0,1,0,0,1,0,0,0,circle,triangle,2,0,2,0,2,5,29,3,,,,,,,,,,,,,,,,,,,,,,,,,,,,,,,,,,,,,,,,546.4153189950157,546.4153189950157,546.4153189950157,546.4153189950157,546.4153189950157,546.4153189950157,546.4153189950157,546.4153189950157,546.4153189950157,546.4153189950157,l,0.9020058110181708,10,999,2,547.3497664919996,548.8513080110133,,,,,,,,,,,,,,,,,,,,,,,,,,,,,,,,,,,,,,,,,,,,,,,,,,,,,,,,,,,,,,,,,,,,,,,83693,2022-11-14_14h14.52.268,vts_reward_expectancy_bt_OFFLINE,2022.2.4,59.95288303338278,
0,0,1,0,1,0,0,0,hexagon,triangle,2,0,2,0,2,6,30,6,,,,,,,,,,,,,,,,,,,,,,,,,,,,,,,,,,,,,,,,549.3519428790023,549.3519428790023,549.3519428790023,549.3519428790023,549.3519428790023,549.3519428790023,549.3519428790023,549.3519428790023,549.3519428790023,549.3519428790023,l,0.5520302210061345,1,1000,2,549.9358189610066,551.4374085640011,,,,,,,,,,,,,,,,,,,,,,,,,,,,,,,,,,,,,,,,,,,,,,,,,,,,,,,,,,,,,,,,,,,,,,,83693,2022-11-14_14h14.52.268,vts_reward_expectancy_bt_OFFLINE,2022.2.4,59.95288303338278,
1,0,0,0,0,1,0,0,triangle,circle,2,0,2,0,2,7,31,0,,,,,,,,,,,,,,,,,,,,,,,,,,,,,,,,,,,,,,,,551.9377785449906,551.9377785449906,551.9377785449906,551.9377785449906,551.9377785449906,551.9377785449906,551.9377785449906,551.9377785449906,551.9377785449906,551.9377785449906,a,2.0253122660215013,10,1010,2,553.990154574014,555.4919398589991,,,,,,,,,,,,,,,,,,,,,,,,,,,,,,,,,,,,,,,,,,,,,,,,,,,,,,,,,,,,,,,,,,,,,,,83693,2022-11-14_14h14.52.268,vts_reward_expectancy_bt_OFFLINE,2022.2.4,59.95288303338278,
0,0,0,1,0,1,0,0,star ,circle,2,0,2,0,2,8,32,10,,,,,,,,,,,,,,,,,,,,,,,,,,,,,,,,,,,,,,,,555.9924700229894,555.9924700229894,555.9924700229894,555.9924700229894,555.9924700229894,555.9924700229894,555.9924700229894,555.9924700229894,555.9924700229894,555.9924700229894,l,0.8404107470123563,10,1020,2,556.8600831830117,558.3617598800047,,,,,,,,,,,,,,,,,,,,,,,,,,,,,,,,,,,,,,,,,,,,,,,,,,,,,,,,,,,,,,,,,,,,,,,83693,2022-11-14_14h14.52.268,vts_reward_expectancy_bt_OFFLINE,2022.2.4,59.95288303338278,
1,0,0,0,0,0,1,0,triangle,hexagon,2,0,2,0,2,9,33,1,,,,,,,,,,,,,,,,,,,,,,,,,,,,,,,,,,,,,,,,558.8623071809998,558.8623071809998,558.8623071809998,558.8623071809998,558.8623071809998,558.8623071809998,558.8623071809998,558.8623071809998,558.8623071809998,558.8623071809998,a,2.2698013909976,10,1030,2,561.1481898190104,562.649793649005,562.649793649005,,,,,,,,,,,,,,,,,,,,,,,,,,,,,,,,,,,,,,,,,,,,,,,,,,,,,,,,,,,,,,,,,,,,,,83693,2022-11-14_14h14.52.268,vts_reward_expectancy_bt_OFFLINE,2022.2.4,59.95288303338278,
0,0,0,1,1,0,0,0,star,triangle,2,0,2,0,2,10,34,9,,,,,,,,,,,,,,,,,,,,,,,,,,,,,,,,,,,,,,,,563.1504601080087,563.1504601080087,563.1504601080087,563.1504601080087,563.1504601080087,563.1504601080087,563.1504601080087,563.1504601080087,563.1504601080087,563.1504601080087,l,0.691397507005604,1,1031,2,563.8678508420126,565.3694438149978,,,,,,,,,,,,,,,,,,,,,,,,,,,,,,,,,,,,,,,,,,,,,,,,,,,,,,,,,,,,,,,,,,,,,,,83693,2022-11-14_14h14.52.268,vts_reward_expectancy_bt_OFFLINE,2022.2.4,59.95288303338278,
0,1,0,0,0,0,0,1,circle,star,2,0,2,0,2,11,35,5,,,,,,,,,,,,,,,,,,,,,,,,,,,,,,,,,,,,,,,,565.8701132689894,565.8701132689894,565.8701132689894,565.8701132689894,565.8701132689894,565.8701132689894,565.8701132689894,565.8701132689894,565.8701132689894,565.8701132689894,a,1.3239889740070794,1,1032,2,567.2216373000119,568.7231370660011,,,,,,,,,,,,,,,,,,,,,,,,,,,,,,,,,,,,,,,,,,,,,,,,,,,,,,,,,,,,,,,,,,,,,,,83693,2022-11-14_14h14.52.268,vts_reward_expectancy_bt_OFFLINE,2022.2.4,59.95288303338278,
0,1,0,0,0,0,0,1,circle,star,2,0,2,0,3,0,36,5,,,,,,,,,,,,,,,,,,,,,,,,,,,,,,,,,,,,,,,,569.2236830579932,569.2236830579932,569.2236830579932,569.2236830579932,569.2236830579932,569.2236830579932,569.2236830579932,569.2236830579932,569.2236830579932,569.2236830579932,a,1.4360719720134512,1,1033,2,570.6920488619944,572.1935394770117,,,,,,,,,,,,,,,,,,,,,,,,,,,,,,,,,,,,,,,,,,,,,,,,,,,,,,,,,,,,,,,,,,,,,,,83693,2022-11-14_14h14.52.268,vts_reward_expectancy_bt_OFFLINE,2022.2.4,59.95288303338278,
0,0,0,1,1,0,0,0,star,triangle,2,0,2,0,3,1,37,9,,,,,,,,,,,,,,,,,,,,,,,,,,,,,,,,,,,,,,,,572.6940775749972,572.6940775749972,572.6940775749972,572.6940775749972,572.6940775749972,572.6940775749972,572.6940775749972,572.6940775749972,572.6940775749972,572.6940775749972,l,0.9468079459911678,10,1043,2,573.6618815060065,575.1636618610064,,,,,,,,,,,,,,,,,,,,,,,,,,,,,,,,,,,,,,,,,,,,,,,,,,,,,,,,,,,,,,,,,,,,,,,83693,2022-11-14_14h14.52.268,vts_reward_expectancy_bt_OFFLINE,2022.2.4,59.95288303338278,
0,1,0,0,0,0,1,0,circle,hexagon,2,0,2,0,3,2,38,4,,,,,,,,,,,,,,,,,,,,,,,,,,,,,,,,,,,,,,,,575.6641622390016,575.6641622390016,575.6641622390016,575.6641622390016,575.6641622390016,575.6641622390016,575.6641622390016,575.6641622390016,575.6641622390016,575.6641622390016,l,0.7559372569958214,1,1044,2,576.4484575570095,577.9500805019925,,,,,,,,,,,,,,,,,,,,,,,,,,,,,,,,,,,,,,,,,,,,,,,,,,,,,,,,,,,,,,,,,,,,,,,83693,2022-11-14_14h14.52.268,vts_reward_expectancy_bt_OFFLINE,2022.2.4,59.95288303338278,
0,0,1,0,1,0,0,0,hexagon,triangle,2,0,2,0,3,3,39,6,,,,,,,,,,,,,,,,,,,,,,,,,,,,,,,,,,,,,,,,578.4508717319986,578.4508717319986,578.4508717319986,578.4508717319986,578.4508717319986,578.4508717319986,578.4508717319986,578.4508717319986,578.4508717319986,578.4508717319986,l,0.9391894550062716,10,1054,2,579.4183848600078,580.9202712200058,,,,,,,,,,,,,,,,,,,,,,,,,,,,,,,,,,,,,,,,,,,,,,,,,,,,,,,,,,,,,,,,,,,,,,,83693,2022-11-14_14h14.52.268,vts_reward_expectancy_bt_OFFLINE,2022.2.4,59.95288303338278,
0,1,0,0,1,0,0,0,circle,triangle,2,0,2,0,3,4,40,3,,,,,,,,,,,,,,,,,,,,,,,,,,,,,,,,,,,,,,,,581.42047740001,581.42047740001,581.42047740001,581.42047740001,581.42047740001,581.42047740001,581.42047740001,581.42047740001,581.42047740001,581.42047740001,l,1.3905856810160913,10,1064,2,582.8388301169907,584.3404244600097,,,,,,,,,,,,,,,,,,,,,,,,,,,,,,,,,,,,,,,,,,,,,,,,,,,,,,,,,,,,,,,,,,,,,,,83693,2022-11-14_14h14.52.268,vts_reward_expectancy_bt_OFFLINE,2022.2.4,59.95288303338278,
1,0,0,0,0,0,0,1,triangle,star,2,0,2,0,3,5,41,2,,,,,,,,,,,,,,,,,,,,,,,,,,,,,,,,,,,,,,,,584.8408655940148,584.8408655940148,584.8408655940148,584.8408655940148,584.8408655940148,584.8408655940148,584.8408655940148,584.8408655940148,584.8408655940148,584.8408655940148,a,0.7485424879996572,10,1074,2,585.608306929993,587.1100223530084,,,,,,,,,,,,,,,,,,,,,,,,,,,,,,,,,,,,,,,,,,,,,,,,,,,,,,,,,,,,,,,,,,,,,,,83693,2022-11-14_14h14.52.268,vts_reward_expectancy_bt_OFFLINE,2022.2.4,59.95288303338278,
1,0,0,0,0,1,0,0,triangle,circle,2,0,2,0,3,6,42,0,,,,,,,,,,,,,,,,,,,,,,,,,,,,,,,,,,,,,,,,587.6105547889892,587.6105547889892,587.6105547889892,587.6105547889892,587.6105547889892,587.6105547889892,587.6105547889892,587.6105547889892,587.6105547889892,587.6105547889892,a,1.6801337779907044,10,1084,2,589.312477140018,590.8141256030067,,,,,,,,,,,,,,,,,,,,,,,,,,,,,,,,,,,,,,,,,,,,,,,,,,,,,,,,,,,,,,,,,,,,,,,83693,2022-11-14_14h14.52.268,vts_reward_expectancy_bt_OFFLINE,2022.2.4,59.95288303338278,
0,0,0,1,0,1,0,0,star ,circle,2,0,2,0,3,7,43,10,,,,,,,,,,,,,,,,,,,,,,,,,,,,,,,,,,,,,,,,591.3146696140175,591.3146696140175,591.3146696140175,591.3146696140175,591.3146696140175,591.3146696140175,591.3146696140175,591.3146696140175,591.3146696140175,591.3146696140175,a,1.3277005490090232,10,1094,2,592.6662291900138,594.1677896449983,,,,,,,,,,,,,,,,,,,,,,,,,,,,,,,,,,,,,,,,,,,,,,,,,,,,,,,,,,,,,,,,,,,,,,,83693,2022-11-14_14h14.52.268,vts_reward_expectancy_bt_OFFLINE,2022.2.4,59.95288303338278,
1,0,0,0,0,0,1,0,triangle,hexagon,2,0,2,0,3,8,44,1,,,,,,,,,,,,,,,,,,,,,,,,,,,,,,,,,,,,,,,,594.6682556770102,594.6682556770102,594.6682556770102,594.6682556770102,594.6682556770102,594.6682556770102,594.6682556770102,594.6682556770102,594.6682556770102,594.6682556770102,a,0.7186252240207978,1,1095,2,595.4191132790002,596.9210605499975,,,,,,,,,,,,,,,,,,,,,,,,,,,,,,,,,,,,,,,,,,,,,,,,,,,,,,,,,,,,,,,,,,,,,,,83693,2022-11-14_14h14.52.268,vts_reward_expectancy_bt_OFFLINE,2022.2.4,59.95288303338278,
0,0,0,1,0,0,1,0,star,hexagon,2,0,2,0,3,9,45,11,,,,,,,,,,,,,,,,,,,,,,,,,,,,,,,,,,,,,,,,597.4217539250094,597.4217539250094,597.4217539250094,597.4217539250094,597.4217539250094,597.4217539250094,597.4217539250094,597.4217539250094,597.4217539250094,597.4217539250094,l,1.5089818779961206,10,1105,2,598.9567526880128,600.4581069269916,,,,,,,,,,,,,,,,,,,,,,,,,,,,,,,,,,,,,,,,,,,,,,,,,,,,,,,,,,,,,,,,,,,,,,,83693,2022-11-14_14h14.52.268,vts_reward_expectancy_bt_OFFLINE,2022.2.4,59.95288303338278,
0,0,1,0,0,0,0,1,hexagon,star,2,0,2,0,3,10,46,8,,,,,,,,,,,,,,,,,,,,,,,,,,,,,,,,,,,,,,,,600.9586180039914,600.9586180039914,600.9586180039914,600.9586180039914,600.9586180039914,600.9586180039914,600.9586180039914,600.9586180039914,600.9586180039914,600.9586180039914,a,0.8194554380024783,10,1115,2,601.8096048040024,603.311348357005,,,,,,,,,,,,,,,,,,,,,,,,,,,,,,,,,,,,,,,,,,,,,,,,,,,,,,,,,,,,,,,,,,,,,,,83693,2022-11-14_14h14.52.268,vts_reward_expectancy_bt_OFFLINE,2022.2.4,59.95288303338278,
0,0,1,0,0,1,0,0,hexagon,circle,2,0,2,0,3,11,47,7,,,,,,,,,,,,,,,,,,,,,,,,,,,,,,,,,,,,,,,,603.811918648018,603.811918648018,603.811918648018,603.811918648018,603.811918648018,603.811918648018,603.811918648018,603.811918648018,603.811918648018,603.811918648018,l,1.407632588990964,1,1116,2,605.2467728590127,606.748456072004,,,,,,,,,,,,,,,,,,,,,,,,,,,,,,,,,,,,,,,,,,,,,,,,,,,,,,,,,,,,,,,,,,,,,,,83693,2022-11-14_14h14.52.268,vts_reward_expectancy_bt_OFFLINE,2022.2.4,59.95288303338278,
,,,,,,,,,,,,,,,,,,0,0,0,0,0,0,0,0,,,,,,,,,,,,,,,,,,,,,,,,,,,,,,,,,,,,,,,,,,,,,,,,664.161823093018,,,174,W,hexagon,0.002155415015295148,660.2861647600075,661.7925245189981,661.7925245189981,661.7925245189981,1,0,f,0.8396347000089008,0,662.6621168260172,,,,,,,,,,,,,,,,,,,,,,,,,,,,,,,,,,,,,,,,,,,,,,,,,,,,,,,83693,2022-11-14_14h14.52.268,vts_reward_expectancy_bt_OFFLINE,2022.2.4,59.95288303338278,
,,,,,,,,,,,,,,,,,,0,0,0,0,1,0,1,0,,,,,,,,,,,,,,,,,,,,,,,,,,,,,,,,,,,,,,,,,,,,,,,,669.0336689139949,,,132,U,triangle,0.0015986939833965153,665.1411581590073,666.6478405120142,666.6478405120142,666.6478405120142,1,0,d,0.8665433719870634,0,667.532117900002,,,,,,,,,,,,,,,,,,,,,,,,,,,,,,,,,,,,,,,,,,,,,,,,,,,,,,,83693,2022-11-14_14h14.52.268,vts_reward_expectancy_bt_OFFLINE,2022.2.4,59.95288303338278,
,,,,,,,,,,,,,,,,,,0,0,0,0,2,0,2,0,,,,,,,,,,,,,,,,,,,,,,,,,,,,,,,,,,,,,,,,,,,,,,,,673.905859986,,,167,H,circle,0.0012796440278179944,670.0125133460097,671.5201329030097,671.5201329030097,671.5201329030097,1,0,f,0.8528651320084464,0,672.4045849890099,,,,,,,,,,,,,,,,,,,,,,,,,,,,,,,,,,,,,,,,,,,,,,,,,,,,,,,83693,2022-11-14_14h14.52.268,vts_reward_expectancy_bt_OFFLINE,2022.2.4,59.95288303338278,
,,,,,,,,,,,,,,,,,,0,0,0,0,3,0,3,0,,,,,,,,,,,,,,,,,,,,,,,,,,,,,,,,,,,,,,,,,,,,,,,,678.5944628540019,,,139,S,star,0.0009948690130840987,674.8841007680167,676.3919095809979,676.3919095809979,676.3919095809979,1,0,d,0.6730150480289012,0,677.0926601749961,,,,,,,,,,,,,,,,,,,,,,,,,,,,,,,,,,,,,,,,,,,,,,,,,,,,,,,83693,2022-11-14_14h14.52.268,vts_reward_expectancy_bt_OFFLINE,2022.2.4,59.95288303338278,
,,,,,,,,,,,,,,,,,,0,0,0,0,4,0,4,0,,,,,,,,,,,,,,,,,,,,,,,,,,,,,,,,,,,,,,,,,,,,,,,,683.3328994520125,,,160,B,star,0.0016894779982976615,679.5726388859912,681.0803477430018,681.0803477430018,681.0803477430018,1,0,f,0.720397110999329,0,681.8313725889893,,,,,,,,,,,,,,,,,,,,,,,,,,,,,,,,,,,,,,,,,,,,,,,,,,,,,,,83693,2022-11-14_14h14.52.268,vts_reward_expectancy_bt_OFFLINE,2022.2.4,59.95288303338278,
,,,,,,,,,,,,,,,,,,0,0,0,0,5,0,5,0,,,,,,,,,,,,,,,,,,,,,,,,,,,,,,,,,,,,,,,,,,,,,,,,688.35534146399,,,146,F,hexagon,0.0009631009888835251,684.3097181210178,685.8189741290116,685.8189741290116,685.8189741290116,1,0,d,1.0022361649898812,0,686.8535143840127,,,,,,,,,,,,,,,,,,,,,,,,,,,,,,,,,,,,,,,,,,,,,,,,,,,,,,,83693,2022-11-14_14h14.52.268,vts_reward_expectancy_bt_OFFLINE,2022.2.4,59.95288303338278,
,,,,,,,,,,,,,,,,,,0,0,0,0,6,0,6,0,,,,,,,,,,,,,,,,,,,,,,,,,,,,,,,,,,,,,,,,,,,,,,,,693.0435508230003,,,181,Y,circle,0.0016245910082943738,689.3337497810135,690.841192863998,690.841192863998,690.841192863998,1,0,f,0.668456370010972,0,691.5418653770175,,,,,,,,,,,,,,,,,,,,,,,,,,,,,,,,,,,,,,,,,,,,,,,,,,,,,,,83693,2022-11-14_14h14.52.268,vts_reward_expectancy_bt_OFFLINE,2022.2.4,59.95288303338278,
,,,,,,,,,,,,,,,,,,0,0,0,0,7,0,7,0,,,,,,,,,,,,,,,,,,,,,,,,,,,,,,,,,,,,,,,,,,,,,,,,697.7155978860101,,,125,D,triangle,0.0014007209974806756,694.0216202629963,695.5298567170103,695.5298567170103,695.5298567170103,1,0,d,0.6517696750233881,0,696.2139284780133,,,,,,,,,,,,,,,,,,,,,,,,,,,,,,,,,,,,,,,,,,,,,,,,,,,,,,,83693,2022-11-14_14h14.52.268,vts_reward_expectancy_bt_OFFLINE,2022.2.4,59.95288303338278,
,,,,,,,,,,,,,,,,,,0,0,0,0,8,0,8,0,,,,,,,,,,,,,,,,,,,,,,,,,,,,,,,,,,,,,,,,,,,,,,,,702.3874257970019,,,174,W,triangle,0.0017121289856731892,698.6932970380003,700.2016831850051,700.2016831850051,700.2016831850051,1,0,f,0.658438110986026,0,700.8856587689952,,,,,,,,,,,,,,,,,,,,,,,,,,,,,,,,,,,,,,,,,,,,,,,,,,,,,,,83693,2022-11-14_14h14.52.268,vts_reward_expectancy_bt_OFFLINE,2022.2.4,59.95288303338278,
,,,,,,,,,,,,,,,,,,0,0,0,0,9,0,9,0,,,,,,,,,,,,,,,,,,,,,,,,,,,,,,,,,,,,,,,,,,,,,,,,706.9422344290069,,,132,U,star,0.0013804009940940887,703.3636148060032,704.8733547079901,704.8733547079901,704.8733547079901,1,0,d,0.5421386580273975,0,705.4406551900029,,,,,,,,,,,,,,,,,,,,,,,,,,,,,,,,,,,,,,,,,,,,,,,,,,,,,,,83693,2022-11-14_14h14.52.268,vts_reward_expectancy_bt_OFFLINE,2022.2.4,59.95288303338278,
,,,,,,,,,,,,,,,,,,,,,,,,,,0,0,0,0,0,0,0,0,,,,,,,,,,,,,,,,,,,,,,,,,,,,,,,,,,,,,,,,739.7116369470023,,,160,H,hexagon,0.0019776000117417425,,,,,1,0,,,1,738.2099943280045,735.7843442219892,737.2922521140135,737.2922521140135,737.2922521140135,j,0.8954201920132618,,,,,,,,,,,,,,,,,,,,,,,,,,,,,,,,,,,,,,,,,,,,,,,,,83693,2022-11-14_14h14.52.268,vts_reward_expectancy_bt_OFFLINE,2022.2.4,59.95288303338278,
,,,,,,,,,,,,,,,,,,,,,,,,,,0,0,0,0,1,0,1,0,,,,,,,,,,,,,,,,,,,,,,,,,,,,,,,,,,,,,,,,744.4169570459926,,,125,D,star,0.0015844580193515867,,,,,1,0,,,1,742.9153509669995,740.6905058250122,742.1978567370097,742.1978567370097,742.1978567370097,j,0.6925182010163553,,,,,,,,,,,,,,,,,,,,,,,,,,,,,,,,,,,,,,,,,,,,,,,,,83693,2022-11-14_14h14.52.268,vts_reward_expectancy_bt_OFFLINE,2022.2.4,59.95288303338278,
,,,,,,,,,,,,,,,,,,,,,,,,,,0,0,0,0,2,0,2,0,,,,,,,,,,,,,,,,,,,,,,,,,,,,,,,,,,,,,,,,749.6894510769926,,,167,W,circle,0.0012626359821297228,,,,,1,0,,,1,748.1881307850126,745.3940632030135,746.9018593690125,746.9018593690125,746.9018593690125,k,1.2663343219901435,,,,,,,,,,,,,,,,,,,,,,,,,,,,,,,,,,,,,,,,,,,,,,,,,83693,2022-11-14_14h14.52.268,vts_reward_expectancy_bt_OFFLINE,2022.2.4,59.95288303338278,
,,,,,,,,,,,,,,,,,,,,,,,,,,0,0,0,0,3,0,3,0,,,,,,,,,,,,,,,,,,,,,,,,,,,,,,,,,,,,,,,,754.2610200789932,,,132,Y,triangle,0.001393200014717877,,,,,1,0,,,1,752.7595909950032,750.6675650390098,752.1755644039949,752.1755644039949,752.1755644039949,k,0.5591608289978467,,,,,,,,,,,,,,,,,,,,,,,,,,,,,,,,,,,,,,,,,,,,,,,,,83693,2022-11-14_14h14.52.268,vts_reward_expectancy_bt_OFFLINE,2022.2.4,59.95288303338278,
,,,,,,,,,,,,,,,,,,,,,,,,,,0,0,0,0,4,0,4,0,,,,,,,,,,,,,,,,,,,,,,,,,,,,,,,,,,,,,,,,759.0164125850133,,,139,F,circle,0.0014545400044880807,,,,,1,0,,,1,757.5147210500145,755.2385790479893,756.7470286060125,756.7470286060125,756.7470286060125,j,0.7466145530052017,,,,,,,,,,,,,,,,,,,,,,,,,,,,,,,,,,,,,,,,,,,,,,,,,83693,2022-11-14_14h14.52.268,vts_reward_expectancy_bt_OFFLINE,2022.2.4,59.95288303338278,
,,,,,,,,,,,,,,,,,,,,,,,,,,0,0,0,0,5,0,5,0,,,,,,,,,,,,,,,,,,,,,,,,,,,,,,,,,,,,,,,,763.6719623829995,,,181,U,star,0.0017238160071428865,,,,,1,0,,,1,762.1699954039941,759.9940695220139,761.5026649649953,761.5026649649953,761.5026649649953,k,0.6495386210153811,,,,,,,,,,,,,,,,,,,,,,,,,,,,,,,,,,,,,,,,,,,,,,,,,83693,2022-11-14_14h14.52.268,vts_reward_expectancy_bt_OFFLINE,2022.2.4,59.95288303338278,
,,,,,,,,,,,,,,,,,,,,,,,,,,0,0,0,0,6,0,6,0,,,,,,,,,,,,,,,,,,,,,,,,,,,,,,,,,,,,,,,,768.5429006149934,,,146,B,hexagon,0.001017795002553612,,,,,1,0,,,1,767.0418972260086,764.6493736479897,766.1579540510138,766.1579540510138,766.1579540510138,j,0.8536165500117932,768.5429006149934,,,,,,,,,,,,,,,,,,,,,,,,,,,,,,,,,,,,,,,,,,,,,,,,83693,2022-11-14_14h14.52.268,vts_reward_expectancy_bt_OFFLINE,2022.2.4,59.95288303338278,
,,,,,,,,,,,,,,,,,,,,,,,,,,0,0,0,0,7,0,7,0,,,,,,,,,,,,,,,,,,,,,,,,,,,,,,,,,,,,,,,,773.1989596360072,,,174,S,triangle,0.0012426710163708776,,,,,1,0,,,1,771.6970923799963,769.5207813350135,771.0297752199986,771.0297752199986,771.0297752199986,k,0.6392476180044468,,,,,,,,,,,,,,,,,,,,,,,,,,,,,,,,,,,,,,,,,,,,,,,,,83693,2022-11-14_14h14.52.268,vts_reward_expectancy_bt_OFFLINE,2022.2.4,59.95288303338278,
,,,,,,,,,,,,,,,,,,,,,,,,,,0,0,0,0,8,0,8,0,,,,,,,,,,,,,,,,,,,,,,,,,,,,,,,,,,,,,,,,777.8873515400046,,,160,H,triangle,0.0014287309895735234,,,,,1,0,,,1,776.3854795340158,774.1755080879957,775.684738617012,775.684738617012,775.684738617012,j,0.6753985520044807,,,,,,,,,,,,,,,,,,,,,,,,,,,,,,,,,,,,,,,,,,,,,,,,,83693,2022-11-14_14h14.52.268,vts_reward_expectancy_bt_OFFLINE,2022.2.4,59.95288303338278,
,,,,,,,,,,,,,,,,,,,,,,,,,,0,0,0,0,9,0,9,0,,,,,,,,,,,,,,,,,,,,,,,,,,,,,,,,,,,,,,,,782.7595178179909,,,125,D,star,0.0015594619908370078,,,,,1,0,,,1,781.2576460450073,778.8644029080169,780.3733027249982,780.3733027249982,780.3733027249982,j,0.8580652009986807,,,,,,,,,,,,,,,,,,,,,,,,,,,,,,,,,,,,,,,,,,,,,,,,,83693,2022-11-14_14h14.52.268,vts_reward_expectancy_bt_OFFLINE,2022.2.4,59.95288303338278,
,,,,,,,,,,,,,,,,,,,,,,,,,,,,,,,,,,0,0,0,0,0,0,0,0,,,,,,,,,,,,,,,,,,,,,,,,,,,,0,1116,,,819.2328121309984,,,132,B,hexagon,0.0022128129785414785,,,,,0,0,,,2,,,,,,,,,815.225218667998,815.225218667998,815.225218667998,815.225218667998,816.7301168760168,816.7301168760168,816.7301168760168,816.7301168760168,816.7301168760168,816.7301168760168,816.7301168760168,816.7301168760168,-1,number,NA,f,0.9749202160164714,vtsPrac,817.7311921289947,,,,,,,,,,,,,,,,,,,,,,,,,,,,,83693,2022-11-14_14h14.52.268,vts_reward_expectancy_bt_OFFLINE,2022.2.4,59.95288303338278,
,,,,,,,,,,,,,,,,,,,,,,,,,,,,,,,,,,0,0,0,0,1,0,1,0,,,,,,,,,,,,,,,,,,,,,,,,,,,,0,1116,,,824.956040591991,,,125,S,triangle,0.0013676279922947288,,,,,0,1,,,2,,,,,,,,,820.2118710929935,820.2118710929935,820.2118710929935,820.2118710929935,821.7189562160056,821.7189562160056,821.7189562160056,821.7189562160056,821.7189562160056,821.7189562160056,821.7189562160056,821.7189562160056,switch,letter,NA,j,1.7036313959979452,vtsPrac,823.4543473800004,,,,,,,,,,,,,,,,,,,,,,,,,,,,,83693,2022-11-14_14h14.52.268,vts_reward_expectancy_bt_OFFLINE,2022.2.4,59.95288303338278,
,,,,,,,,,,,,,,,,,,,,,,,,,,,,,,,,,,0,0,0,0,2,0,2,0,,,,,,,,,,,,,,,,,,,,,,,,,,,,0,1116,,,831.9468965569977,,832.4474867130048,174,U,hexagon,0.0016816940042190254,,,,,-1,1,,,2,,,,,,,,,825.9365156670101,825.9365156670101,825.9365156670101,825.9365156670101,827.4421038260043,827.4421038260043,827.4421038260043,827.4421038260043,827.4421038260043,827.4421038260043,827.4421038260043,827.4421038260043,switch,no_choice,NA,None,,vtsPrac,830.4452164480172,830.4452164480172,830.4452164480172,830.4452164480172,830.4452164480172,831.9468965569977,,,,,,,,,,,,,,,,,,,,,,,,83693,2022-11-14_14h14.52.268,vts_reward_expectancy_bt_OFFLINE,2022.2.4,59.95288303338278,
,,,,,,,,,,,,,,,,,,,,,,,,,,,,,,,,,,0,0,0,0,3,0,3,0,,,,,,,,,,,,,,,,,,,,,,,,,,,,0,1116,,,836.5518471270043,,,181,H,triangle,0.009067951992619783,,,,,1,0,,,2,,,,,,,,,832.9431728789932,832.9431728789932,832.9431728789932,832.9431728789932,834.449706740008,834.449706740008,834.449706740008,834.449706740008,834.449706740008,834.449706740008,834.449706740008,834.449706740008,switch,number,numSwt,f,0.5691164309973828,vtsPrac,835.0502407219901,,,,,,,,,,,,,,,,,,,,,,,,,,,,,83693,2022-11-14_14h14.52.268,vts_reward_expectancy_bt_OFFLINE,2022.2.4,59.95288303338278,
,,,,,,,,,,,,,,,,,,,,,,,,,,,,,,,,,,0,0,0,0,4,0,4,0,,,,,,,,,,,,,,,,,,,,,,,,,,,,0,1116,,,841.4905588190013,,,132,B,triangle,0.0015039680001791567,,,,,1,0,,,2,,,,,,,,,837.5290880910179,837.5290880910179,837.5290880910179,837.5290880910179,839.037975728017,839.037975728017,839.037975728017,839.037975728017,839.037975728017,839.037975728017,839.037975728017,839.037975728017,switch,letter,lettSwt,j,0.9199826380063314,vtsPrac,839.9890629500151,,,,,,,,,,,,,,,,,,,,,,,,,,,,,83693,2022-11-14_14h14.52.268,vts_reward_expectancy_bt_OFFLINE,2022.2.4,59.95288303338278,
,,,,,,,,,,,,,,,,,,,,,,,,,,,,,,,,,,0,0,0,0,5,0,5,0,,,,,,,,,,,,,,,,,,,,,,,,,,,,0,1116,,,846.4128827700042,,,125,S,star,0.0014238199801184237,,,,,1,0,,,2,,,,,,,,,842.4684801129915,842.4684801129915,842.4684801129915,842.4684801129915,843.9766319810005,843.9766319810005,843.9766319810005,843.9766319810005,843.9766319810005,843.9766319810005,843.9766319810005,843.9766319810005,switch,number,numSwt,d,0.9093020090076607,vtsPrac,844.911031961994,,,,,,,,,,,,,,,,,,,,,,,,,,,,,83693,2022-11-14_14h14.52.268,vts_reward_expectancy_bt_OFFLINE,2022.2.4,59.95288303338278,
,,,,,,,,,,,,,,,,,,,,,,,,,,,,,,,,,,0,0,0,0,6,0,6,0,,,,,,,,,,,,,,,,,,,,,,,,,,,,0,1116,,,851.0011568639893,,,174,U,hexagon,0.0017576800019014627,,,,,0,0,,,2,,,,,,,,,847.3907028230024,847.3907028230024,847.3907028230024,847.3907028230024,848.8989643889945,848.8989643889945,848.8989643889945,848.8989643889945,848.8989643889945,848.8989643889945,848.8989643889945,848.8989643889945,repeat,number,NA,d,0.5684727820043918,vtsPrac,849.4996485490119,,,,,,,,,,,,,,,,,,,,,,,,,,,,,83693,2022-11-14_14h14.52.268,vts_reward_expectancy_bt_OFFLINE,2022.2.4,59.95288303338278,
,,,,,,,,,,,,,,,,,,,,,,,,,,,,,,,,,,0,0,0,0,7,0,7,0,,,,,,,,,,,,,,,,,,,,,,,,,,,,0,1116,,,855.7565705320158,,,181,H,star,0.0016012979904189706,,,,,1,1,,,2,,,,,,,,,851.9790089279995,851.9790089279995,851.9790089279995,851.9790089279995,853.4872757699923,853.4872757699923,853.4872757699923,853.4872757699923,853.4872757699923,853.4872757699923,853.4872757699923,853.4872757699923,switch,letter,lettSwt,j,0.7366143309918698,vtsPrac,854.2547260879946,,,,,,,,,,,,,,,,,,,,,,,,,,,,,83693,2022-11-14_14h14.52.268,vts_reward_expectancy_bt_OFFLINE,2022.2.4,59.95288303338278,
,,,,,,,,,,,,,,,,,,,,,,,,,,,,,,,,,,0,0,0,0,8,0,8,0,,,,,,,,,,,,,,,,,,,,,,,,,,,,0,1116,,,860.6284326800087,,,181,S,triangle,0.0017845389957074076,,,,,1,0,,,2,,,,,,,,,856.734312510991,856.734312510991,856.734312510991,856.734312510991,858.242550764,858.242550764,858.242550764,858.242550764,858.242550764,858.242550764,858.242550764,858.242550764,switch,number,numSwt,f,0.8647184130095411,vtsPrac,859.1268547619984,,,,,,,,,,,,,,,,,,,,,,,,,,,,,83693,2022-11-14_14h14.52.268,vts_reward_expectancy_bt_OFFLINE,2022.2.4,59.95288303338278,
,,,,,,,,,,,,,,,,,,,,,,,,,,,,,,,,,,0,0,0,0,9,0,9,0,,,,,,,,,,,,,,,,,,,,,,,,,,,,0,1116,,,865.2168878049997,,,174,B,star,0.0011635019909590483,,,,,1,0,,,2,,,,,,,,,861.6061290240032,861.6061290240032,861.6061290240032,861.6061290240032,863.114580235997,863.114580235997,863.114580235997,863.114580235997,863.114580235997,863.114580235997,863.114580235997,863.114580235997,switch,letter,lettSwt,j,0.5837578930077143,vtsPrac,863.7151443519979,,,,,865.2168878049997,,,,,,,,,,,,,,,,,,,,,,,,83693,2022-11-14_14h14.52.268,vts_reward_expectancy_bt_OFFLINE,2022.2.4,59.95288303338278,
,,,,,,,,,,,,,,,,,,,,,,,,,,,,,,,,,,0,0,0,0,10,0,10,0,,,,,,,,,,,,,,,,,,,,,,,,,,,,0,1116,,,869.8887268170074,,,139,W,triangle,0.0010251039930153638,,,,,1,0,,,2,,,,,,,,,866.1978690279939,866.1978690279939,866.1978690279939,866.1978690279939,867.7028853789961,867.7028853789961,867.7028853789961,867.7028853789961,867.7028853789961,867.7028853789961,867.7028853789961,867.7028853789961,repeat,letter,lettRpt,k,0.6624451380048413,vtsPrac,868.3870568739949,,,,,,,,,,,,,,,,,,,,,,,,,,,,,83693,2022-11-14_14h14.52.268,vts_reward_expectancy_bt_OFFLINE,2022.2.4,59.95288303338278,
,,,,,,,,,,,,,,,,,,,,,,,,,,,,,,,,,,0,0,0,0,11,0,11,0,,,,,,,,,,,,,,,,,,,,,,,,,,,,0,1116,,,874.7439159170026,,,160,Y,star,0.0015844889858271927,,,,,1,0,,,2,,,,,,,,,870.8688873850042,870.8688873850042,870.8688873850042,870.8688873850042,872.3748111090099,872.3748111090099,872.3748111090099,872.3748111090099,872.3748111090099,872.3748111090099,872.3748111090099,872.3748111090099,switch,number,numSwt,f,0.8397023199941032,vtsPrac,873.2423057180131,,,,,,,,,,,,,,,,,,,,,,,,,,,,,83693,2022-11-14_14h14.52.268,vts_reward_expectancy_bt_OFFLINE,2022.2.4,59.95288303338278,
,,,,,,,,,,,,,,,,,,,,,,,,,,,,,,,,,,0,0,0,0,12,0,12,0,,,,,,,,,,,,,,,,,,,,,,,,,,,,0,1116,,,879.4324823250063,,,174,D,star,0.001432143006240949,,,,,1,0,,,2,,,,,,,,,875.7225184770068,875.7225184770068,875.7225184770068,875.7225184770068,877.2300590630039,877.2300590630039,877.2300590630039,877.2300590630039,877.2300590630039,877.2300590630039,877.2300590630039,877.2300590630039,switch,letter,lettSwt,j,0.6764411180047318,vtsPrac,877.9309051210003,,,,,,,,,,,,,,,,,,,,,,,,,,,,,83693,2022-11-14_14h14.52.268,vts_reward_expectancy_bt_OFFLINE,2022.2.4,59.95288303338278,
,,,,,,,,,,,,,,,,,,,,,,,,,,,,,,,,,,0,0,0,0,13,0,13,0,,,,,,,,,,,,,,,,,,,,,,,,,,,,0,1116,,,884.1878000400029,,,167,S,hexagon,0.0015917580167297274,,,,,1,0,,,2,,,,,,,,,880.4105384710128,880.4105384710128,880.4105384710128,880.4105384710128,881.9186280870053,881.9186280870053,881.9186280870053,881.9186280870053,881.9186280870053,881.9186280870053,881.9186280870053,881.9186280870053,switch,number,numSwt,f,0.7353470410162117,vtsPrac,882.6862461949931,,,,,,,,,,,,,,,,,,,,,,,,,,,,,83693,2022-11-14_14h14.52.268,vts_reward_expectancy_bt_OFFLINE,2022.2.4,59.95288303338278,
,,,,,,,,,,,,,,,,,,,,,,,,,,,,,,,,,,0,0,0,0,14,0,14,0,,,,,,,,,,,,,,,,,,,,,,,,,,,,0,1116,,,888.859687944001,,,125,B,circle,0.00177601000177674,,,,,0,0,,,2,,,,,,,,,885.165533315012,885.165533315012,885.165533315012,885.165533315012,886.6740535710123,886.6740535710123,886.6740535710123,886.6740535710123,886.6740535710123,886.6740535710123,886.6740535710123,886.6740535710123,repeat,number,NA,f,0.6592615219997242,vtsPrac,887.3579485320079,,,,,,,,,,,,,,,,,,,,,,,,,,,,,83693,2022-11-14_14h14.52.268,vts_reward_expectancy_bt_OFFLINE,2022.2.4,59.95288303338278,
,,,,,,,,,,,,,,,,,,,,,,,,,,,,,,,,,,0,0,0,0,15,0,15,0,,,,,,,,,,,,,,,,,,,,,,,,,,,,0,1116,,,893.6649448870157,,,160,Y,triangle,0.0013787509815301746,,,,,1,1,,,2,,,,,,,,,889.8369285770168,889.8369285770168,889.8369285770168,889.8369285770168,891.3460566879949,891.3460566879949,891.3460566879949,891.3460566879949,891.3460566879949,891.3460566879949,891.3460566879949,891.3460566879949,repeat,number,numRpt,f,0.7912925700074993,vtsPrac,892.1633135619923,,,,,,,,,,,,,,,,,,,,,,,,,,,,,83693,2022-11-14_14h14.52.268,vts_reward_expectancy_bt_OFFLINE,2022.2.4,59.95288303338278,
,,,,,,,,,,,,,,,,,,,,,,,,,,,,,,,,,,0,0,0,0,16,0,16,0,,,,,,,,,,,,,,,,,,,,,,,,,,,,0,1116,,,898.3870156280173,,,174,W,star,0.0015506400086451322,,,,,1,0,,,2,,,,,,,,,894.642678172997,894.642678172997,894.642678172997,894.642678172997,896.151164623996,896.151164623996,896.151164623996,896.151164623996,896.151164623996,896.151164623996,896.151164623996,896.151164623996,repeat,number,numRpt,f,0.7112293540267274,vtsPrac,896.8850970480125,,,,,,,,,,,,,,,,,,,,,,,,,,,,,83693,2022-11-14_14h14.52.268,vts_reward_expectancy_bt_OFFLINE,2022.2.4,59.95288303338278,
,,,,,,,,,,,,,,,,,,,,,,,,,,,,,,,,,,0,0,0,0,17,0,17,0,,,,,,,,,,,,,,,,,,,,,,,,,,,,0,1116,,,903.2587581230036,,,167,H,triangle,0.0015122869808692485,,,,,1,0,,,2,,,,,,,,,899.3643871509994,899.3643871509994,899.3643871509994,899.3643871509994,900.8727709329978,900.8727709329978,900.8727709329978,900.8727709329978,900.8727709329978,900.8727709329978,900.8727709329978,900.8727709329978,switch,letter,lettSwt,j,0.8610294270038139,vtsPrac,901.7572180179995,,,,,,,,,,,,,,,,,,,,,,,,,,,,,83693,2022-11-14_14h14.52.268,vts_reward_expectancy_bt_OFFLINE,2022.2.4,59.95288303338278,
,,,,,,,,,,,,,,,,,,,,,,,,,,,,,,,,,,0,0,0,0,18,0,18,0,,,,,,,,,,,,,,,,,,,,,,,,,,,,0,1116,,,908.3977117559989,,,139,D,star,0.0017188579950015992,,,,,1,0,,,2,,,,,,,,,904.2365033419919,904.2365033419919,904.2365033419919,904.2365033419919,905.7448652370076,905.7448652370076,905.7448652370076,905.7448652370076,905.7448652370076,905.7448652370076,905.7448652370076,905.7448652370076,repeat,letter,lettRpt,j,1.1303842610213906,vtsPrac,906.8963612359948,,,,,,,,,,,,,,,,,,,,,,,,,,,,,83693,2022-11-14_14h14.52.268,vts_reward_expectancy_bt_OFFLINE,2022.2.4,59.95288303338278,
,,,,,,,,,,,,,,,,,,,,,,,,,,,,,,,,,,0,0,0,0,19,0,19,0,,,,,,,,,,,,,,,,,,,,,,,,,,,,0,1116,,,913.0697398860066,,,160,Y,hexagon,0.0015543779882136732,,,,,1,0,,,2,,,,,,,,,909.3747918230074,909.3747918230074,909.3747918230074,909.3747918230074,910.8839575829916,910.8839575829916,910.8839575829916,910.8839575829916,910.8839575829916,910.8839575829916,910.8839575829916,910.8839575829916,switch,number,numSwt,f,0.6611881070130039,vtsPrac,911.568068195018,,,,,,,,,,,,,,,,,,,,,,,,,,,,,83693,2022-11-14_14h14.52.268,vts_reward_expectancy_bt_OFFLINE,2022.2.4,59.95288303338278,
,,,,,,,,,,,,,,,,,,,,,,,,,,,,,,,,,,0,0,0,0,20,0,20,0,,,,,,,,,,,,,,,,,,,,,,,,,,,,0,1116,,,917.7581600370177,,,132,U,hexagon,0.0014269350212998688,,,,,1,0,,,2,,,,,,,,,914.0474850780156,914.0474850780156,914.0474850780156,914.0474850780156,915.5558955860033,915.5558955860033,915.5558955860033,915.5558955860033,915.5558955860033,915.5558955860033,915.5558955860033,915.5558955860033,switch,letter,lettSwt,k,0.6799751069920603,vtsPrac,916.2565903520153,,,,,,,,,,,,,,,,,,,,,,,,,,,,,83693,2022-11-14_14h14.52.268,vts_reward_expectancy_bt_OFFLINE,2022.2.4,59.95288303338278,
,,,,,,,,,,,,,,,,,,,,,,,,,,,,,,,,,,0,0,0,0,21,0,21,0,,,,,,,,,,,,,,,,,,,,,,,,,,,,0,1116,,,922.4283914800035,,,181,D,star,0.0016327689809259027,,,,,1,0,,,2,,,,,,,,,918.7353937480075,918.7353937480075,918.7353937480075,918.7353937480075,920.2442607319972,920.2442607319972,920.2442607319972,920.2442607319972,920.2442607319972,920.2442607319972,920.2442607319972,920.2442607319972,repeat,letter,lettRpt,j,0.6515443149837665,vtsPrac,920.9283489579975,,,,,922.4283914800035,,,,,,,,,,,,,,,,,,,,,,,,83693,2022-11-14_14h14.52.268,vts_reward_expectancy_bt_OFFLINE,2022.2.4,59.95288303338278,
,,,,,,,,,,,,,,,,,,,,,,,,,,,,,,,,,,0,0,0,0,22,0,22,0,,,,,,,,,,,,,,,,,,,,,,,,,,,,0,1116,,,927.7691023559892,,,139,H,triangle,0.0010407069930806756,,,,,1,0,,,2,,,,,,,,,923.4066193570034,923.4066193570034,923.4066193570034,923.4066193570034,924.915975484997,924.915975484997,924.915975484997,924.915975484997,924.915975484997,924.915975484997,924.915975484997,924.915975484997,switch,number,numSwt,d,1.3222075900121126,vtsPrac,926.2674611530092,,,,,,,,,,,,,,,,,,,,,,,,,,,,,83693,2022-11-14_14h14.52.268,vts_reward_expectancy_bt_OFFLINE,2022.2.4,59.95288303338278,
,,,,,,,,,,,,,,,,,,,,,,,,,,,,,,,,,,0,0,0,0,23,0,23,0,,,,,,,,,,,,,,,,,,,,,,,,,,,,0,1116,,,932.5411156839982,,,167,F,star,0.0018090469820890576,,,,,1,0,,,2,,,,,,,,,928.7475719510112,928.7475719510112,928.7475719510112,928.7475719510112,930.2551698609896,930.2551698609896,930.2551698609896,930.2551698609896,930.2551698609896,930.2551698609896,930.2551698609896,930.2551698609896,repeat,number,numRpt,f,0.7529380220221356,vtsPrac,931.0394378560013,,,,,,,,,,,,,,,,,,,,,,,,,,,,,83693,2022-11-14_14h14.52.268,vts_reward_expectancy_bt_OFFLINE,2022.2.4,59.95288303338278,
,,,,,,,,,,,,,,,,,,,,,,,,,,,,,,,,,,0,0,0,0,24,0,24,0,,,,,,,,,,,,,,,,,,,,,,,,,,,,0,1116,,,937.329661472002,,,132,D,hexagon,0.0015555080026388168,,,,,1,0,,,2,,,,,,,,,933.5189271370182,933.5189271370182,933.5189271370182,933.5189271370182,935.0271305830101,935.0271305830101,935.0271305830101,935.0271305830101,935.0271305830101,935.0271305830101,935.0271305830101,935.0271305830101,repeat,number,numRpt,d,0.7728146830049809,vtsPrac,935.828100735991,,,,,,,,,,,,,,,,,,,,,,,,,,,,,83693,2022-11-14_14h14.52.268,vts_reward_expectancy_bt_OFFLINE,2022.2.4,59.95288303338278,
,,,,,,,,,,,,,,,,,,,,,,,,,,,,,,,,,,0,0,0,0,25,0,25,0,,,,,,,,,,,,,,,,,,,,,,,,,,,,0,1116,,,942.6188758620119,,,160,W,triangle,0.0015377599920611829,,,,,1,0,,,2,,,,,,,,,938.3072485149896,938.3072485149896,938.3072485149896,938.3072485149896,939.8159789470083,939.8159789470083,939.8159789470083,939.8159789470083,939.8159789470083,939.8159789470083,939.8159789470083,939.8159789470083,switch,letter,lettSwt,k,1.2726666340022348,vtsPrac,941.1173028600169,,,,,,,,,,,,,,,,,,,,,,,,,,,,,83693,2022-11-14_14h14.52.268,vts_reward_expectancy_bt_OFFLINE,2022.2.4,59.95288303338278,
,,,,,,,,,,,,,,,,,,,,,,,,,,,,,,,,,,0,0,0,0,26,0,26,0,,,,,,,,,,,,,,,,,,,,,,,,,,,,0,1116,,,947.3741877790017,,,139,F,triangle,0.0015385699807666242,,,,,1,0,,,2,,,,,,,,,943.5965280329983,943.5965280329983,943.5965280329983,943.5965280329983,945.1048506660154,945.1048506660154,945.1048506660154,945.1048506660154,945.1048506660154,945.1048506660154,945.1048506660154,945.1048506660154,repeat,letter,lettRpt,j,0.7414453719975427,vtsPrac,945.8724902319955,,,,,,,,,,,,,,,,,,,,,,,,,,,,,83693,2022-11-14_14h14.52.268,vts_reward_expectancy_bt_OFFLINE,2022.2.4,59.95288303338278,
,,,,,,,,,,,,,,,,,,,,,,,,,,,,,,,,,,0,0,0,0,27,0,27,0,,,,,,,,,,,,,,,,,,,,,,,,,,,,0,1116,,,952.8467886550061,,,174,H,circle,0.0016579200164414942,,,,,1,0,,,2,,,,,,,,,948.3522623669996,948.3522623669996,948.3522623669996,948.3522623669996,949.8602196720021,949.8602196720021,949.8602196720021,949.8602196720021,949.8602196720021,949.8602196720021,949.8602196720021,949.8602196720021,repeat,letter,lettRpt,j,1.4659305389795918,vtsPrac,951.3451775349968,,,,,952.8467886550061,,,,,,,,,,,,,,,,,,,,,,,,83693,2022-11-14_14h14.52.268,vts_reward_expectancy_bt_OFFLINE,2022.2.4,59.95288303338278,
,,,,,,,,,,,,,,,,,,,,,,,,,,,,,,,,,,0,0,0,0,28,0,28,0,,,,,,,,,,,,,,,,,,,,,,,,,,,,0,1116,,,957.5686595620064,,,181,W,triangle,0.0008835510234348476,,,,,1,0,,,2,,,,,,,,,953.8239757580159,953.8239757580159,953.8239757580159,953.8239757580159,955.332891455997,955.332891455997,955.332891455997,955.332891455997,955.332891455997,955.332891455997,955.332891455997,955.332891455997,switch,number,numSwt,f,0.7069834180001635,vtsPrac,956.0669365549984,,,,,,,,,,,,,,,,,,,,,,,,,,,,,83693,2022-11-14_14h14.52.268,vts_reward_expectancy_bt_OFFLINE,2022.2.4,59.95288303338278,
,,,,,,,,,,,,,,,,,,,,,,,,,,,,,,,,,,0,0,0,0,29,0,29,0,,,,,,,,,,,,,,,,,,,,,,,,,,,,0,1116,,,962.3574967560126,,,174,U,star,0.0015694299945607781,,,,,1,0,,,2,,,,,,,,,958.546355694998,958.546355694998,958.546355694998,958.546355694998,960.0547032160102,960.0547032160102,960.0547032160102,960.0547032160102,960.0547032160102,960.0547032160102,960.0547032160102,960.0547032160102,repeat,number,numRpt,f,0.777930300013395,vtsPrac,960.8556897090166,,,,,,,,,,,,,,,,,,,,,,,,,,,,,83693,2022-11-14_14h14.52.268,vts_reward_expectancy_bt_OFFLINE,2022.2.4,59.95288303338278,
