LTriangleOpac,LCircleOpac,LHexagonOpac,LStarOpac,RTriangleOpac,RCircleOpac,RHexagonOpac,RStarOpac,LShape_ID,RShape_ID,training_blocks.thisRepN,training_blocks.thisTrialN,training_blocks.thisN,training_blocks.thisIndex,training.thisRepN,training.thisTrialN,training.thisN,training.thisIndex,task1_prac_redo.thisRepN,task1_prac_redo.thisTrialN,task1_prac_redo.thisN,task1_prac_redo.thisIndex,task1_prac_trials.thisRepN,task1_prac_trials.thisTrialN,task1_prac_trials.thisN,task1_prac_trials.thisIndex,task2_prac_redo.thisRepN,task2_prac_redo.thisTrialN,task2_prac_redo.thisN,task2_prac_redo.thisIndex,task2_praac_trials.thisRepN,task2_praac_trials.thisTrialN,task2_praac_trials.thisN,task2_praac_trials.thisIndex,vts_prac_redo.thisRepN,vts_prac_redo.thisTrialN,vts_prac_redo.thisN,vts_prac_redo.thisIndex,vts_practice_trials.thisRepN,vts_practice_trials.thisTrialN,vts_practice_trials.thisN,vts_practice_trials.thisIndex,trials_norew.thisRepN,trials_norew.thisTrialN,trials_norew.thisN,trials_norew.thisIndex,block.thisRepN,block.thisTrialN,block.thisN,block.thisIndex,trials_rew.thisRepN,trials_rew.thisTrialN,trials_rew.thisN,trials_rew.thisIndex,key_resp.started,key_resp.keys,key_resp.rt,left_circle.started,right_circle.started,left_triangle.started,right_triangle.started,left_star.started,right_star.started,left_hexagon.started,right_hexagon.started,training_fix.started,training_resp.started,training_resp.keys,training_resp.rt,points_trial,points_cumul,trainBlock,training_feedback_txt.started,fix.started,training_feedback_txt.stopped,fix.stopped,curr_topStim,curr_bottStim,curr_shape,ISI.started,tgt_fix_prac1.started,top_target_prac1.started,bott_target_prac1.started,target_resp_prac1.started,acc,E1,target_resp_prac1.keys,target_resp_prac1.rt,pracBlock,prac_fback_text.started,prac_fback_text.stopped,tgt_fix_prac2.started,top_target_prac2.started,bott_target_prac2.started,target_resp_prac2.started,target_resp_prac2.keys,target_resp_prac2.rt,star.started,hegagon.started,triangle.started,circle.started,top_target.started,tgt_fix.started,bot_target.started,target_resp.started,star.stopped,hegagon.stopped,triangle.stopped,circle.stopped,alt,task,condition,target_resp.keys,target_resp.rt,rewCond,vts_fback.started,vts_fback.stopped,top_target.stopped,tgt_fix.stopped,bot_target.stopped,target_resp.stopped,blockNum,norew_fback.started,norew_fback.stopped,key_resp_2.keys,key_resp_2.rt,rewExpectancy,feedbk_text.started,feedbk_text.stopped,text_3.started,debrief.started,text_3.stopped,button.started,debrief.index,debrief.itemText,debrief.type,debrief.granularity,debrief.font,debrief.markerColor,debrief.response,debrief.rt,button.numClicks,button.timesOn,button.timesOff,participant,date,expName,psychopyVersion,frameRate,
,,,,,,,,,,,,,,,,,,,,,,,,,,,,,,,,,,,,,,,,,,,,,,,,,,,,,,25.895733295939863,space,2.260188936954364,,,,,,,,,,,,,,,,,,,,,,,,,,,,,,,,,,,,,,,,,,,,,,,,,,,,,,,,,,,,,,,,,,,,,,,,,,,,,,,,,,,,,,,,85891,2022-11-11_15h17.43.389,vts_reward_expectancy_bt_OFFLINE,2022.2.4,59.89083447841669,
0,1,0,0,0,0,1,0,circle,hexagon,0,0,0,0,0,0,0,4,,,,,,,,,,,,,,,,,,,,,,,,,,,,,,,,,,,,,,,,45.25058645289391,45.25058645289391,45.25058645289391,45.25058645289391,45.25058645289391,45.25058645289391,45.25058645289391,45.25058645289391,45.25058645289391,45.25058645289391,a,1.2781405220739543,1,1,0,46.55170588498004,48.053245916962624,,,,,,,,,,,,,,,,,,,,,,,,,,,,,,,,,,,,,,,,,,,,,,,,,,,,,,,,,,,,,,,,,,,,,,,85891,2022-11-11_15h17.43.389,vts_reward_expectancy_bt_OFFLINE,2022.2.4,59.89083447841669,
0,0,0,1,0,0,1,0,star,hexagon,0,0,0,0,0,1,1,11,,,,,,,,,,,,,,,,,,,,,,,,,,,,,,,,,,,,,,,,48.55397122306749,48.55397122306749,48.55397122306749,48.55397122306749,48.55397122306749,48.55397122306749,48.55397122306749,48.55397122306749,48.55397122306749,48.55397122306749,l,0.8343914530705661,10,11,0,49.40623131999746,50.90636409097351,50.90636409097351,,,,,,,,,,,,,,,,,,,,,,,,,,,,,,,,,,,,,,,,,,,,,,,,,,,,,,,,,,,,,,,,,,,,,,85891,2022-11-11_15h17.43.389,vts_reward_expectancy_bt_OFFLINE,2022.2.4,59.89083447841669,
0,1,0,0,0,0,0,1,circle,star,0,0,0,0,0,2,2,5,,,,,,,,,,,,,,,,,,,,,,,,,,,,,,,,,,,,,,,,51.4071030379273,51.4071030379273,51.4071030379273,51.4071030379273,51.4071030379273,51.4071030379273,51.4071030379273,51.4071030379273,51.4071030379273,51.4071030379273,a,1.333418122958392,10,21,0,52.75848381710239,54.2603758580517,,,,,,,,,,,,,,,,,,,,,,,,,,,,,,,,,,,,,,,,,,,,,,,,,,,,,,,,,,,,,,,,,,,,,,,85891,2022-11-11_15h17.43.389,vts_reward_expectancy_bt_OFFLINE,2022.2.4,59.89083447841669,
0,0,1,0,0,1,0,0,hexagon,circle,0,0,0,0,0,3,3,7,,,,,,,,,,,,,,,,,,,,,,,,,,,,,,,,,,,,,,,,54.76087194192223,54.76087194192223,54.76087194192223,54.76087194192223,54.76087194192223,54.76087194192223,54.76087194192223,54.76087194192223,54.76087194192223,54.76087194192223,l,0.6911522950977087,1,22,0,55.478367572883144,56.979824516922235,,,,,,,,,,,,,,,,,,,,,,,,,,,,,,,,,,,,,,,,,,,,,,,,,,,,,,,,,,,,,,,,,,,,,,,85891,2022-11-11_15h17.43.389,vts_reward_expectancy_bt_OFFLINE,2022.2.4,59.89083447841669,
0,0,0,1,0,1,0,0,star ,circle,0,0,0,0,0,4,4,10,,,,,,,,,,,,,,,,,,,,,,,,,,,,,,,,,,,,,,,,57.48054755991325,57.48054755991325,57.48054755991325,57.48054755991325,57.48054755991325,57.48054755991325,57.48054755991325,57.48054755991325,57.48054755991325,57.48054755991325,l,0.6698062520008534,1,23,0,58.18143100710586,59.68301583803259,,,,,,,,,,,,,,,,,,,,,,,,,,,,,,,,,,,,,,,,,,,,,,,,,,,,,,,,,,,,,,,,,,,,,,,85891,2022-11-11_15h17.43.389,vts_reward_expectancy_bt_OFFLINE,2022.2.4,59.89083447841669,
1,0,0,0,0,0,1,0,triangle,hexagon,0,0,0,0,0,5,5,1,,,,,,,,,,,,,,,,,,,,,,,,,,,,,,,,,,,,,,,,60.18349203001708,60.18349203001708,60.18349203001708,60.18349203001708,60.18349203001708,60.18349203001708,60.18349203001708,60.18349203001708,60.18349203001708,60.18349203001708,l,0.96013676491566,10,33,0,61.17027529492043,62.66975629189983,,,,,,,,,,,,,,,,,,,,,,,,,,,,,,,,,,,,,,,,,,,,,,,,,,,,,,,,,,,,,,,,,,,,,,,85891,2022-11-11_15h17.43.389,vts_reward_expectancy_bt_OFFLINE,2022.2.4,59.89083447841669,
1,0,0,0,0,1,0,0,triangle,circle,0,0,0,0,0,6,6,0,,,,,,,,,,,,,,,,,,,,,,,,,,,,,,,,,,,,,,,,63.17011070204899,63.17011070204899,63.17011070204899,63.17011070204899,63.17011070204899,63.17011070204899,63.17011070204899,63.17011070204899,63.17011070204899,63.17011070204899,l,0.8656764631159604,10,43,0,64.05452524498105,65.55589584098198,,,,,,,,,,,,,,,,,,,,,,,,,,,,,,,,,,,,,,,,,,,,,,,,,,,,,,,,,,,,,,,,,,,,,,,85891,2022-11-11_15h17.43.389,vts_reward_expectancy_bt_OFFLINE,2022.2.4,59.89083447841669,
0,0,0,1,1,0,0,0,star,triangle,0,0,0,0,0,7,7,9,,,,,,,,,,,,,,,,,,,,,,,,,,,,,,,,,,,,,,,,66.0564999380149,66.0564999380149,66.0564999380149,66.0564999380149,66.0564999380149,66.0564999380149,66.0564999380149,66.0564999380149,66.0564999380149,66.0564999380149,l,1.6133092551026493,1,44,0,67.69170410302468,69.19349359092303,,,,,,,,,,,,,,,,,,,,,,,,,,,,,,,,,,,,,,,,,,,,,,,,,,,,,,,,,,,,,,,,,,,,,,,85891,2022-11-11_15h17.43.389,vts_reward_expectancy_bt_OFFLINE,2022.2.4,59.89083447841669,
0,1,0,0,1,0,0,0,circle,triangle,0,0,0,0,0,8,8,3,,,,,,,,,,,,,,,,,,,,,,,,,,,,,,,,,,,,,,,,69.69385200296529,69.69385200296529,69.69385200296529,69.69385200296529,69.69385200296529,69.69385200296529,69.69385200296529,69.69385200296529,69.69385200296529,69.69385200296529,a,2.7702303261030465,1,45,0,72.49709530291148,73.99873703205958,,,,,,,,,,,,,,,,,,,,,,,,,,,,,,,,,,,,,,,,,,,,,,,,,,,,,,,,,,,,,,,,,,,,,,,85891,2022-11-11_15h17.43.389,vts_reward_expectancy_bt_OFFLINE,2022.2.4,59.89083447841669,
1,0,0,0,0,0,0,1,triangle,star,0,0,0,0,0,9,9,2,,,,,,,,,,,,,,,,,,,,,,,,,,,,,,,,,,,,,,,,74.4990789371077,74.4990789371077,74.4990789371077,74.4990789371077,74.4990789371077,74.4990789371077,74.4990789371077,74.4990789371077,74.4990789371077,74.4990789371077,a,3.037789181806147,1,46,0,77.56918825604953,79.07093708193861,,,,,,,,,,,,,,,,,,,,,,,,,,,,,,,,,,,,,,,,,,,,,,,,,,,,,,,,,,,,,,,,,,,,,,,85891,2022-11-11_15h17.43.389,vts_reward_expectancy_bt_OFFLINE,2022.2.4,59.89083447841669,
0,0,1,0,0,0,0,1,hexagon,star,0,0,0,0,0,10,10,8,,,,,,,,,,,,,,,,,,,,,,,,,,,,,,,,,,,,,,,,79.57140651787631,79.57140651787631,79.57140651787631,79.57140651787631,79.57140651787631,79.57140651787631,79.57140651787631,79.57140651787631,79.57140651787631,79.57140651787631,a,1.0135766938328743,1,47,0,80.6061172708869,82.10781282093376,,,,,,,,,,,,,,,,,,,,,,,,,,,,,,,,,,,,,,,,,,,,,,,,,,,,,,,,,,,,,,,,,,,,,,,85891,2022-11-11_15h17.43.389,vts_reward_expectancy_bt_OFFLINE,2022.2.4,59.89083447841669,
0,0,1,0,1,0,0,0,hexagon,triangle,0,0,0,0,0,11,11,6,,,,,,,,,,,,,,,,,,,,,,,,,,,,,,,,,,,,,,,,82.6084340910893,82.6084340910893,82.6084340910893,82.6084340910893,82.6084340910893,82.6084340910893,82.6084340910893,82.6084340910893,82.6084340910893,82.6084340910893,a,1.6006650640629232,10,57,0,84.22683748998679,85.72815048787743,,,,,,,,,,,,,,,,,,,,,,,,,,,,,,,,,,,,,,,,,,,,,,,,,,,,,,,,,,,,,,,,,,,,,,,85891,2022-11-11_15h17.43.389,vts_reward_expectancy_bt_OFFLINE,2022.2.4,59.89083447841669,
0,0,1,0,1,0,0,0,hexagon,triangle,0,0,0,0,1,0,12,6,,,,,,,,,,,,,,,,,,,,,,,,,,,,,,,,,,,,,,,,86.22887244005688,86.22887244005688,86.22887244005688,86.22887244005688,86.22887244005688,86.22887244005688,86.22887244005688,86.22887244005688,86.22887244005688,86.22887244005688,a,0.7017310720402747,10,67,0,86.9631471100729,88.46477176807821,,,,,,,,,,,,,,,,,,,,,,,,,,,,,,,,,,,,,,,,,,,,,,,,,,,,,,,,,,,,,,,,,,,,,,,85891,2022-11-11_15h17.43.389,vts_reward_expectancy_bt_OFFLINE,2022.2.4,59.89083447841669,
0,1,0,0,0,0,0,1,circle,star,0,0,0,0,1,1,13,5,,,,,,,,,,,,,,,,,,,,,,,,,,,,,,,,,,,,,,,,88.96513439598493,88.96513439598493,88.96513439598493,88.96513439598493,88.96513439598493,88.96513439598493,88.96513439598493,88.96513439598493,88.96513439598493,88.96513439598493,a,0.9134983930271119,1,68,0,89.89945772103965,91.40126571198925,,,,,,,,,,,,,,,,,,,,,,,,,,,,,,,,,,,,,,,,,,,,,,,,,,,,,,,,,,,,,,,,,,,,,,,85891,2022-11-11_15h17.43.389,vts_reward_expectancy_bt_OFFLINE,2022.2.4,59.89083447841669,
0,1,0,0,1,0,0,0,circle,triangle,0,0,0,0,1,2,14,3,,,,,,,,,,,,,,,,,,,,,,,,,,,,,,,,,,,,,,,,91.90193451801315,91.90193451801315,91.90193451801315,91.90193451801315,91.90193451801315,91.90193451801315,91.90193451801315,91.90193451801315,91.90193451801315,91.90193451801315,l,2.1525376019999385,1,69,0,94.07177148107439,95.57264128606766,95.57264128606766,96.0732408920303,,,,,,,,,,,,,,,,,,,,,,,,,,,,,,,,,,,,,,,,,,,,,,,,,,,,,,,,,,,,,,,,,,,,,85891,2022-11-11_15h17.43.389,vts_reward_expectancy_bt_OFFLINE,2022.2.4,59.89083447841669,
1,0,0,0,0,0,1,0,triangle,hexagon,0,0,0,0,1,3,15,1,,,,,,,,,,,,,,,,,,,,,,,,,,,,,,,,,,,,,,,,96.0732408920303,96.0732408920303,96.0732408920303,96.0732408920303,96.0732408920303,96.0732408920303,96.0732408920303,96.0732408920303,96.0732408920303,96.0732408920303,a,1.2532780561596155,1,70,0,97.35778388101608,98.8596928450279,,,,,,,,,,,,,,,,,,,,,,,,,,,,,,,,,,,,,,,,,,,,,,,,,,,,,,,,,,,,,,,,,,,,,,,85891,2022-11-11_15h17.43.389,vts_reward_expectancy_bt_OFFLINE,2022.2.4,59.89083447841669,
0,0,0,1,0,1,0,0,star ,circle,0,0,0,0,1,4,16,10,,,,,,,,,,,,,,,,,,,,,,,,,,,,,,,,,,,,,,,,99.36010303604417,99.36010303604417,99.36010303604417,99.36010303604417,99.36010303604417,99.36010303604417,99.36010303604417,99.36010303604417,99.36010303604417,99.36010303604417,l,0.6006544888950884,1,71,0,99.97731156600639,101.47900845692493,101.47900845692493,,,,,,,,,,,,,,,,,,,,,,,,,,,,,,,,,,,,,,,,,,,,,,,,,,,,,,,,,,,,,,,,,,,,,,85891,2022-11-11_15h17.43.389,vts_reward_expectancy_bt_OFFLINE,2022.2.4,59.89083447841669,
0,1,0,0,0,0,1,0,circle,hexagon,0,0,0,0,1,5,17,4,,,,,,,,,,,,,,,,,,,,,,,,,,,,,,,,,,,,,,,,101.97952170995995,101.97952170995995,101.97952170995995,101.97952170995995,101.97952170995995,101.97952170995995,101.97952170995995,101.97952170995995,101.97952170995995,101.97952170995995,l,1.1752898171544075,10,81,0,103.18270112294704,104.6825865060091,,,,,,,,,,,,,,,,,,,,,,,,,,,,,,,,,,,,,,,,,,,,,,,,,,,,,,,,,,,,,,,,,,,,,,,85891,2022-11-11_15h17.43.389,vts_reward_expectancy_bt_OFFLINE,2022.2.4,59.89083447841669,
0,0,1,0,0,1,0,0,hexagon,circle,0,0,0,0,1,6,18,7,,,,,,,,,,,,,,,,,,,,,,,,,,,,,,,,,,,,,,,,105.18332102592103,105.18332102592103,105.18332102592103,105.18332102592103,105.18332102592103,105.18332102592103,105.18332102592103,105.18332102592103,105.18332102592103,105.18332102592103,a,0.7044493001885712,10,91,0,105.91728903306648,107.41891298489645,,,,,,,,,,,,,,,,,,,,,,,,,,,,,,,,,,,,,,,,,,,,,,,,,,,,,,,,,,,,,,,,,,,,,,,85891,2022-11-11_15h17.43.389,vts_reward_expectancy_bt_OFFLINE,2022.2.4,59.89083447841669,
1,0,0,0,0,1,0,0,triangle,circle,0,0,0,0,1,7,19,0,,,,,,,,,,,,,,,,,,,,,,,,,,,,,,,,,,,,,,,,107.91940276999958,107.91940276999958,107.91940276999958,107.91940276999958,107.91940276999958,107.91940276999958,107.91940276999958,107.91940276999958,107.91940276999958,107.91940276999958,l,2.4465624359436333,1,92,0,110.38872684305534,111.89036464504898,,,,,,,,,,,,,,,,,,,,,,,,,,,,,,,,,,,,,,,,,,,,,,,,,,,,,,,,,,,,,,,,,,,,,,,85891,2022-11-11_15h17.43.389,vts_reward_expectancy_bt_OFFLINE,2022.2.4,59.89083447841669,
1,0,0,0,0,0,0,1,triangle,star,0,0,0,0,1,8,20,2,,,,,,,,,,,,,,,,,,,,,,,,,,,,,,,,,,,,,,,,112.3909421779681,112.3909421779681,112.3909421779681,112.3909421779681,112.3909421779681,112.3909421779681,112.3909421779681,112.3909421779681,112.3909421779681,112.3909421779681,l,1.5761491970624775,1,93,0,113.99260902008973,115.49444663291797,,,,,,,,,,,,,,,,,,,,,,,,,,,,,,,,,,,,,,,,,,,,,,,,,,,,,,,,,,,,,,,,,,,,,,,85891,2022-11-11_15h17.43.389,vts_reward_expectancy_bt_OFFLINE,2022.2.4,59.89083447841669,
0,0,1,0,0,0,0,1,hexagon,star,0,0,0,0,1,9,21,8,,,,,,,,,,,,,,,,,,,,,,,,,,,,,,,,,,,,,,,,115.994881039951,115.994881039951,115.994881039951,115.994881039951,115.994881039951,115.994881039951,115.994881039951,115.994881039951,115.994881039951,115.994881039951,a,1.4707776207942516,10,103,0,117.49655123706907,118.99819704494439,,,,,,,,,,,,,,,,,,,,,,,,,,,,,,,,,,,,,,,,,,,,,,,,,,,,,,,,,,,,,,,,,,,,,,,85891,2022-11-11_15h17.43.389,vts_reward_expectancy_bt_OFFLINE,2022.2.4,59.89083447841669,
0,0,0,1,0,0,1,0,star,hexagon,0,0,0,0,1,10,22,11,,,,,,,,,,,,,,,,,,,,,,,,,,,,,,,,,,,,,,,,119.49882693192922,119.49882693192922,119.49882693192922,119.49882693192922,119.49882693192922,119.49882693192922,119.49882693192922,119.49882693192922,119.49882693192922,119.49882693192922,l,0.6445424009580165,10,113,0,120.1663539269939,121.66795082087629,,,,,,,,,,,,,,,,,,,,,,,,,,,,,,,,,,,,,,,,,,,,,,,,,,,,,,,,,,,,,,,,,,,,,,,85891,2022-11-11_15h17.43.389,vts_reward_expectancy_bt_OFFLINE,2022.2.4,59.89083447841669,
0,0,0,1,1,0,0,0,star,triangle,0,0,0,0,1,11,23,9,,,,,,,,,,,,,,,,,,,,,,,,,,,,,,,,,,,,,,,,122.16837118193507,122.16837118193507,122.16837118193507,122.16837118193507,122.16837118193507,122.16837118193507,122.16837118193507,122.16837118193507,122.16837118193507,122.16837118193507,a,1.135856072884053,10,123,0,123.33664129301906,124.83804246108048,124.83804246108048,125.33868922688998,,,,,,,,,,,,,,,,,,,,,,,,,,,,,,,,,,,,,,,,,,,,,,,,,,,,,,,,,,,,,,,,,,,,,85891,2022-11-11_15h17.43.389,vts_reward_expectancy_bt_OFFLINE,2022.2.4,59.89083447841669,
0,0,0,1,1,0,0,0,star,triangle,0,0,0,0,2,0,24,9,,,,,,,,,,,,,,,,,,,,,,,,,,,,,,,,,,,,,,,,125.33868922688998,125.33868922688998,125.33868922688998,125.33868922688998,125.33868922688998,125.33868922688998,125.33868922688998,125.33868922688998,125.33868922688998,125.33868922688998,a,0.6544524230994284,10,133,0,126.02263785805553,127.52436306490563,,,,,,,,,,,,,,,,,,,,,,,,,,,,,,,,,,,,,,,,,,,,,,,,,,,,,,,,,,,,,,,,,,,,,,,85891,2022-11-11_15h17.43.389,vts_reward_expectancy_bt_OFFLINE,2022.2.4,59.89083447841669,
1,0,0,0,0,1,0,0,triangle,circle,0,0,0,0,2,1,25,0,,,,,,,,,,,,,,,,,,,,,,,,,,,,,,,,,,,,,,,,128.02478877501562,128.02478877501562,128.02478877501562,128.02478877501562,128.02478877501562,128.02478877501562,128.02478877501562,128.02478877501562,128.02478877501562,128.02478877501562,a,0.9382430228870362,1,134,0,128.9927074960433,130.4944237319287,,,,,,,,,,,,,,,,,,,,,,,,,,,,,,,,,,,,,,,,,,,,,,,,,,,,,,,,,,,,,,,,,,,,,,,85891,2022-11-11_15h17.43.389,vts_reward_expectancy_bt_OFFLINE,2022.2.4,59.89083447841669,
0,1,0,0,1,0,0,0,circle,triangle,0,0,0,0,2,2,26,3,,,,,,,,,,,,,,,,,,,,,,,,,,,,,,,,,,,,,,,,130.99492600606754,130.99492600606754,130.99492600606754,130.99492600606754,130.99492600606754,130.99492600606754,130.99492600606754,130.99492600606754,130.99492600606754,130.99492600606754,a,1.287243511993438,1,135,0,132.31279326602817,133.8146170231048,133.8146170231048,134.31499569606967,,,,,,,,,,,,,,,,,,,,,,,,,,,,,,,,,,,,,,,,,,,,,,,,,,,,,,,,,,,,,,,,,,,,,85891,2022-11-11_15h17.43.389,vts_reward_expectancy_bt_OFFLINE,2022.2.4,59.89083447841669,
0,1,0,0,0,0,0,1,circle,star,0,0,0,0,2,3,27,5,,,,,,,,,,,,,,,,,,,,,,,,,,,,,,,,,,,,,,,,134.31499569606967,134.31499569606967,134.31499569606967,134.31499569606967,134.31499569606967,134.31499569606967,134.31499569606967,134.31499569606967,134.31499569606967,134.31499569606967,a,1.039377884939313,1,136,0,135.38305783295073,136.88460156298243,,,,,,,,,,,,,,,,,,,,,,,,,,,,,,,,,,,,,,,,,,,,,,,,,,,,,,,,,,,,,,,,,,,,,,,85891,2022-11-11_15h17.43.389,vts_reward_expectancy_bt_OFFLINE,2022.2.4,59.89083447841669,
1,0,0,0,0,0,1,0,triangle,hexagon,0,0,0,0,2,4,28,1,,,,,,,,,,,,,,,,,,,,,,,,,,,,,,,,,,,,,,,,137.3851106960792,137.3851106960792,137.3851106960792,137.3851106960792,137.3851106960792,137.3851106960792,137.3851106960792,137.3851106960792,137.3851106960792,137.3851106960792,l,0.6686348868533969,10,146,0,138.0858847349882,139.587575702928,,,,,,,,,,,,,,,,,,,,,,,,,,,,,,,,,,,,,,,,,,,,,,,,,,,,,,,,,,,,,,,,,,,,,,,85891,2022-11-11_15h17.43.389,vts_reward_expectancy_bt_OFFLINE,2022.2.4,59.89083447841669,
1,0,0,0,0,0,0,1,triangle,star,0,0,0,0,2,5,29,2,,,,,,,,,,,,,,,,,,,,,,,,,,,,,,,,,,,,,,,,140.08830008096993,140.08830008096993,140.08830008096993,140.08830008096993,140.08830008096993,140.08830008096993,140.08830008096993,140.08830008096993,140.08830008096993,140.08830008096993,l,0.4517173068597913,10,156,0,140.5721504429821,142.0739183248952,,,,,,,,,,,,,,,,,,,,,,,,,,,,,,,,,,,,,,,,,,,,,,,,,,,,,,,,,,,,,,,,,,,,,,,85891,2022-11-11_15h17.43.389,vts_reward_expectancy_bt_OFFLINE,2022.2.4,59.89083447841669,
0,0,0,1,0,1,0,0,star ,circle,0,0,0,0,2,6,30,10,,,,,,,,,,,,,,,,,,,,,,,,,,,,,,,,,,,,,,,,142.5743584369775,142.5743584369775,142.5743584369775,142.5743584369775,142.5743584369775,142.5743584369775,142.5743584369775,142.5743584369775,142.5743584369775,142.5743584369775,a,0.4525627719704062,10,166,0,143.05818372988142,144.55992486607283,,,,,,,,,,,,,,,,,,,,,,,,,,,,,,,,,,,,,,,,,,,,,,,,,,,,,,,,,,,,,,,,,,,,,,,85891,2022-11-11_15h17.43.389,vts_reward_expectancy_bt_OFFLINE,2022.2.4,59.89083447841669,
0,1,0,0,0,0,1,0,circle,hexagon,0,0,0,0,2,7,31,4,,,,,,,,,,,,,,,,,,,,,,,,,,,,,,,,,,,,,,,,145.06036180607043,145.06036180607043,145.06036180607043,145.06036180607043,145.06036180607043,145.06036180607043,145.06036180607043,145.06036180607043,145.06036180607043,145.06036180607043,l,0.3965787901543081,1,167,0,145.4773613929283,146.97912133508362,,,,,,,,,,,,,,,,,,,,,,,,,,,,,,,,,,,,,,,,,,,,,,,,,,,,,,,,,,,,,,,,,,,,,,,85891,2022-11-11_15h17.43.389,vts_reward_expectancy_bt_OFFLINE,2022.2.4,59.89083447841669,
0,0,1,0,0,0,0,1,hexagon,star,0,0,0,0,2,8,32,8,,,,,,,,,,,,,,,,,,,,,,,,,,,,,,,,,,,,,,,,147.47969764191657,147.47969764191657,147.47969764191657,147.47969764191657,147.47969764191657,147.47969764191657,147.47969764191657,147.47969764191657,147.47969764191657,147.47969764191657,l,0.4184184339828789,10,177,0,147.93046134710312,149.43205895088613,,,,,,,,,,,,,,,,,,,,,,,,,,,,,,,,,,,,,,,,,,,,,,,,,,,,,,,,,,,,,,,,,,,,,,,85891,2022-11-11_15h17.43.389,vts_reward_expectancy_bt_OFFLINE,2022.2.4,59.89083447841669,
0,0,1,0,0,1,0,0,hexagon,circle,0,0,0,0,2,9,33,7,,,,,,,,,,,,,,,,,,,,,,,,,,,,,,,,,,,,,,,,149.93259304296225,149.93259304296225,149.93259304296225,149.93259304296225,149.93259304296225,149.93259304296225,149.93259304296225,149.93259304296225,149.93259304296225,149.93259304296225,l,1.4535232589114457,1,178,0,151.41753700491972,152.9191770919133,,,,,,,,,,,,,,,,,,,,,,,,,,,,,,,,,,,,,,,,,,,,,,,,,,,,,,,,,,,,,,,,,,,,,,,85891,2022-11-11_15h17.43.389,vts_reward_expectancy_bt_OFFLINE,2022.2.4,59.89083447841669,
0,0,1,0,1,0,0,0,hexagon,triangle,0,0,0,0,2,10,34,6,,,,,,,,,,,,,,,,,,,,,,,,,,,,,,,,,,,,,,,,153.41955397790298,153.41955397790298,153.41955397790298,153.41955397790298,153.41955397790298,153.41955397790298,153.41955397790298,153.41955397790298,153.41955397790298,153.41955397790298,a,0.7018182738684118,10,188,0,154.1537668160163,155.65533097600564,155.65533097600564,156.15617628698237,,,,,,,,,,,,,,,,,,,,,,,,,,,,,,,,,,,,,,,,,,,,,,,,,,,,,,,,,,,,,,,,,,,,,85891,2022-11-11_15h17.43.389,vts_reward_expectancy_bt_OFFLINE,2022.2.4,59.89083447841669,
0,0,0,1,0,0,1,0,star,hexagon,0,0,0,0,2,11,35,11,,,,,,,,,,,,,,,,,,,,,,,,,,,,,,,,,,,,,,,,156.15617628698237,156.15617628698237,156.15617628698237,156.15617628698237,156.15617628698237,156.15617628698237,156.15617628698237,156.15617628698237,156.15617628698237,156.15617628698237,a,0.7097512220498174,10,198,0,156.89025490102358,158.39173460099846,,,,,,,,,,,,,,,,,,,,,,,,,,,,,,,,,,,,,,,,,,,,,,,,,,,,,,,,,,,,,,,,,,,,,,,85891,2022-11-11_15h17.43.389,vts_reward_expectancy_bt_OFFLINE,2022.2.4,59.89083447841669,
0,0,1,0,0,0,0,1,hexagon,star,0,0,0,0,3,0,36,8,,,,,,,,,,,,,,,,,,,,,,,,,,,,,,,,,,,,,,,,158.8922279679682,158.8922279679682,158.8922279679682,158.8922279679682,158.8922279679682,158.8922279679682,158.8922279679682,158.8922279679682,158.8922279679682,158.8922279679682,a,0.7292541468050331,10,208,0,159.64298818609677,161.14501153095625,,,,,,,,,,,,,,,,,,,,,,,,,,,,,,,,,,,,,,,,,,,,,,,,,,,,,,,,,,,,,,,,,,,,,,,85891,2022-11-11_15h17.43.389,vts_reward_expectancy_bt_OFFLINE,2022.2.4,59.89083447841669,
0,0,1,0,0,1,0,0,hexagon,circle,0,0,0,0,3,1,37,7,,,,,,,,,,,,,,,,,,,,,,,,,,,,,,,,,,,,,,,,161.6453135809861,161.6453135809861,161.6453135809861,161.6453135809861,161.6453135809861,161.6453135809861,161.6453135809861,161.6453135809861,161.6453135809861,161.6453135809861,a,0.518811410991475,1,209,0,162.19591287500225,163.6976695919875,,,,,,,,,,,,,,,,,,,,,,,,,,,,,,,,,,,,,,,,,,,,,,,,,,,,,,,,,,,,,,,,,,,,,,,85891,2022-11-11_15h17.43.389,vts_reward_expectancy_bt_OFFLINE,2022.2.4,59.89083447841669,
0,1,0,0,1,0,0,0,circle,triangle,0,0,0,0,3,2,38,3,,,,,,,,,,,,,,,,,,,,,,,,,,,,,,,,,,,,,,,,164.19816300203092,164.19816300203092,164.19816300203092,164.19816300203092,164.19816300203092,164.19816300203092,164.19816300203092,164.19816300203092,164.19816300203092,164.19816300203092,l,2.0058179199695587,1,210,0,166.2336325510405,167.73534402088262,167.73534402088262,168.23588082101196,,,,,,,,,,,,,,,,,,,,,,,,,,,,,,,,,,,,,,,,,,,,,,,,,,,,,,,,,,,,,,,,,,,,,85891,2022-11-11_15h17.43.389,vts_reward_expectancy_bt_OFFLINE,2022.2.4,59.89083447841669,
0,0,1,0,1,0,0,0,hexagon,triangle,0,0,0,0,3,3,39,6,,,,,,,,,,,,,,,,,,,,,,,,,,,,,,,,,,,,,,,,168.23588082101196,168.23588082101196,168.23588082101196,168.23588082101196,168.23588082101196,168.23588082101196,168.23588082101196,168.23588082101196,168.23588082101196,168.23588082101196,a,2.784034593962133,10,220,0,171.03884257306345,172.5406738501042,,,,,,,,,,,,,,,,,,,,,,,,,,,,,,,,,,,,,,,,,,,,,,,,,,,,,,,,,,,,,,,,,,,,,,,85891,2022-11-11_15h17.43.389,vts_reward_expectancy_bt_OFFLINE,2022.2.4,59.89083447841669,
0,1,0,0,0,0,1,0,circle,hexagon,0,0,0,0,3,4,40,4,,,,,,,,,,,,,,,,,,,,,,,,,,,,,,,,,,,,,,,,173.04132009088062,173.04132009088062,173.04132009088062,173.04132009088062,173.04132009088062,173.04132009088062,173.04132009088062,173.04132009088062,173.04132009088062,173.04132009088062,l,1.1062919781543314,10,230,0,174.17582834302448,175.67770210187882,,,,,,,,,,,,,,,,,,,,,,,,,,,,,,,,,,,,,,,,,,,,,,,,,,,,,,,,,,,,,,,,,,,,,,,85891,2022-11-11_15h17.43.389,vts_reward_expectancy_bt_OFFLINE,2022.2.4,59.89083447841669,
0,0,0,1,0,0,1,0,star,hexagon,0,0,0,0,3,5,41,11,,,,,,,,,,,,,,,,,,,,,,,,,,,,,,,,,,,,,,,,176.1782134429086,176.1782134429086,176.1782134429086,176.1782134429086,176.1782134429086,176.1782134429086,176.1782134429086,176.1782134429086,176.1782134429086,176.1782134429086,l,0.6349264369346201,10,240,0,176.84550796705298,178.34728110698052,,,,,,,,,,,,,,,,,,,,,,,,,,,,,,,,,,,,,,,,,,,,,,,,,,,,,,,,,,,,,,,,,,,,,,,85891,2022-11-11_15h17.43.389,vts_reward_expectancy_bt_OFFLINE,2022.2.4,59.89083447841669,
0,1,0,0,0,0,0,1,circle,star,0,0,0,0,3,6,42,5,,,,,,,,,,,,,,,,,,,,,,,,,,,,,,,,,,,,,,,,178.84789213491604,178.84789213491604,178.84789213491604,178.84789213491604,178.84789213491604,178.84789213491604,178.84789213491604,178.84789213491604,178.84789213491604,178.84789213491604,l,1.3961791309993714,10,250,0,180.2661009519361,181.76751859602518,,,,,,,,,,,,,,,,,,,,,,,,,,,,,,,,,,,,,,,,,,,,,,,,,,,,,,,,,,,,,,,,,,,,,,,85891,2022-11-11_15h17.43.389,vts_reward_expectancy_bt_OFFLINE,2022.2.4,59.89083447841669,
1,0,0,0,0,1,0,0,triangle,circle,0,0,0,0,3,7,43,0,,,,,,,,,,,,,,,,,,,,,,,,,,,,,,,,,,,,,,,,182.26806749100797,182.26806749100797,182.26806749100797,182.26806749100797,182.26806749100797,182.26806749100797,182.26806749100797,182.26806749100797,182.26806749100797,182.26806749100797,l,2.534021453000605,1,251,0,184.83755768509582,186.32253814302385,,,,,,,,,,,,,,,,,,,,,,,,,,,,,,,,,,,,,,,,,,,,,,,,,,,,,,,,,,,,,,,,,,,,,,,85891,2022-11-11_15h17.43.389,vts_reward_expectancy_bt_OFFLINE,2022.2.4,59.89083447841669,
0,0,0,1,0,1,0,0,star ,circle,0,0,0,0,3,8,44,10,,,,,,,,,,,,,,,,,,,,,,,,,,,,,,,,,,,,,,,,186.82322527095675,186.82322527095675,186.82322527095675,186.82322527095675,186.82322527095675,186.82322527095675,186.82322527095675,186.82322527095675,186.82322527095675,186.82322527095675,a,0.9268151759169996,1,252,0,187.77415990200825,189.27594499196857,,,,,,,,,,,,,,,,,,,,,,,,,,,,,,,,,,,,,,,,,,,,,,,,,,,,,,,,,,,,,,,,,,,,,,,85891,2022-11-11_15h17.43.389,vts_reward_expectancy_bt_OFFLINE,2022.2.4,59.89083447841669,
1,0,0,0,0,0,0,1,triangle,star,0,0,0,0,3,9,45,2,,,,,,,,,,,,,,,,,,,,,,,,,,,,,,,,,,,,,,,,189.77638477506116,189.77638477506116,189.77638477506116,189.77638477506116,189.77638477506116,189.77638477506116,189.77638477506116,189.77638477506116,189.77638477506116,189.77638477506116,l,1.472037032013759,10,262,0,191.2779715510551,192.77961141592823,192.77961141592823,193.2802419080399,,,,,,,,,,,,,,,,,,,,,,,,,,,,,,,,,,,,,,,,,,,,,,,,,,,,,,,,,,,,,,,,,,,,,85891,2022-11-11_15h17.43.389,vts_reward_expectancy_bt_OFFLINE,2022.2.4,59.89083447841669,
0,0,0,1,1,0,0,0,star,triangle,0,0,0,0,3,10,46,9,,,,,,,,,,,,,,,,,,,,,,,,,,,,,,,,,,,,,,,,193.2802419080399,193.2802419080399,193.2802419080399,193.2802419080399,193.2802419080399,193.2802419080399,193.2802419080399,193.2802419080399,193.2802419080399,193.2802419080399,a,0.7465567549224943,10,272,0,194.04808649094775,195.54930237005465,,,,,,,,,,,,,,,,,,,,,,,,,,,,,,,,,,,,,,,,,,,,,,,,,,,,,,,,,,,,,,,,,,,,,,,85891,2022-11-11_15h17.43.389,vts_reward_expectancy_bt_OFFLINE,2022.2.4,59.89083447841669,
1,0,0,0,0,0,1,0,triangle,hexagon,0,0,0,0,3,11,47,1,,,,,,,,,,,,,,,,,,,,,,,,,,,,,,,,,,,,,,,,196.0498785818927,196.0498785818927,196.0498785818927,196.0498785818927,196.0498785818927,196.0498785818927,196.0498785818927,196.0498785818927,196.0498785818927,196.0498785818927,l,0.6207689689472318,1,273,0,196.70059830206446,198.20242943102494,,,,,,,,,,,,,,,,,,,,,,,,,,,,,,,,,,,,,,,,,,,,,,,,,,,,,,,,,,,,,,,,,,,,,,,85891,2022-11-11_15h17.43.389,vts_reward_expectancy_bt_OFFLINE,2022.2.4,59.89083447841669,
0,1,0,0,0,0,1,0,circle,hexagon,1,0,1,0,0,0,0,4,,,,,,,,,,,,,,,,,,,,,,,,,,,,,,,,,,,,,,,,237.8795046019368,237.8795046019368,237.8795046019368,237.8795046019368,237.8795046019368,237.8795046019368,237.8795046019368,237.8795046019368,237.8795046019368,237.8795046019368,a,2.0181183519307524,10,283,1,239.91482635005377,241.4167817509733,241.4167817509733,,,,,,,,,,,,,,,,,,,,,,,,,,,,,,,,,,,,,,,,,,,,,,,,,,,,,,,,,,,,,,,,,,,,,,85891,2022-11-11_15h17.43.389,vts_reward_expectancy_bt_OFFLINE,2022.2.4,59.89083447841669,
1,0,0,0,0,1,0,0,triangle,circle,1,0,1,0,0,1,1,0,,,,,,,,,,,,,,,,,,,,,,,,,,,,,,,,,,,,,,,,241.91728979093023,241.91728979093023,241.91728979093023,241.91728979093023,241.91728979093023,241.91728979093023,241.91728979093023,241.91728979093023,241.91728979093023,241.91728979093023,l,1.5356825818307698,1,284,1,243.48598078195937,244.98731844010763,,,,,,,,,,,,,,,,,,,,,,,,,,,,,,,,,,,,,,,,,,,,,,,,,,,,,,,,,,,,,,,,,,,,,,,85891,2022-11-11_15h17.43.389,vts_reward_expectancy_bt_OFFLINE,2022.2.4,59.89083447841669,
0,0,1,0,0,1,0,0,hexagon,circle,1,0,1,0,0,2,2,7,,,,,,,,,,,,,,,,,,,,,,,,,,,,,,,,,,,,,,,,245.4878538150806,245.4878538150806,245.4878538150806,245.4878538150806,245.4878538150806,245.4878538150806,245.4878538150806,245.4878538150806,245.4878538150806,245.4878538150806,a,1.3052632329054177,10,294,1,246.82257022708654,248.32415434299037,248.32415434299037,248.82490000501275,,,,,,,,,,,,,,,,,,,,,,,,,,,,,,,,,,,,,,,,,,,,,,,,,,,,,,,,,,,,,,,,,,,,,85891,2022-11-11_15h17.43.389,vts_reward_expectancy_bt_OFFLINE,2022.2.4,59.89083447841669,
0,0,0,1,0,1,0,0,star ,circle,1,0,1,0,0,3,3,10,,,,,,,,,,,,,,,,,,,,,,,,,,,,,,,,,,,,,,,,248.82490000501275,248.82490000501275,248.82490000501275,248.82490000501275,248.82490000501275,248.82490000501275,248.82490000501275,248.82490000501275,248.82490000501275,248.82490000501275,a,0.6584856130648404,10,304,1,249.5092816229444,251.01050651608966,,,,,,,,,,,,,,,,,,,,,,,,,,,,,,,,,,,,,,,,,,,,,,,,,,,,,,,,,,,,,,,,,,,,,,,85891,2022-11-11_15h17.43.389,vts_reward_expectancy_bt_OFFLINE,2022.2.4,59.89083447841669,
1,0,0,0,0,0,0,1,triangle,star,1,0,1,0,0,4,4,2,,,,,,,,,,,,,,,,,,,,,,,,,,,,,,,,,,,,,,,,251.5111352270469,251.5111352270469,251.5111352270469,251.5111352270469,251.5111352270469,251.5111352270469,251.5111352270469,251.5111352270469,251.5111352270469,251.5111352270469,a,1.3462457759305835,1,305,1,252.8962675500661,254.38091616495512,,,,,,,,,,,,,,,,,,,,,,,,,,,,,,,,,,,,,,,,,,,,,,,,,,,,,,,,,,,,,,,,,,,,,,,85891,2022-11-11_15h17.43.389,vts_reward_expectancy_bt_OFFLINE,2022.2.4,59.89083447841669,
0,0,1,0,0,0,0,1,hexagon,star,1,0,1,0,0,5,5,8,,,,,,,,,,,,,,,,,,,,,,,,,,,,,,,,,,,,,,,,254.8818361349404,254.8818361349404,254.8818361349404,254.8818361349404,254.8818361349404,254.8818361349404,254.8818361349404,254.8818361349404,254.8818361349404,254.8818361349404,a,0.585923092905432,1,306,1,255.49911743495613,257.0007076000329,257.0007076000329,257.5012957321014,,,,,,,,,,,,,,,,,,,,,,,,,,,,,,,,,,,,,,,,,,,,,,,,,,,,,,,,,,,,,,,,,,,,,85891,2022-11-11_15h17.43.389,vts_reward_expectancy_bt_OFFLINE,2022.2.4,59.89083447841669,
0,1,0,0,0,0,0,1,circle,star,1,0,1,0,0,6,6,5,,,,,,,,,,,,,,,,,,,,,,,,,,,,,,,,,,,,,,,,257.5012957321014,257.5012957321014,257.5012957321014,257.5012957321014,257.5012957321014,257.5012957321014,257.5012957321014,257.5012957321014,257.5012957321014,257.5012957321014,a,0.7914204429835081,1,307,1,258.3190151830204,259.82018171506934,,,,,,,,,,,,,,,,,,,,,,,,,,,,,,,,,,,,,,,,,,,,,,,,,,,,,,,,,,,,,,,,,,,,,,,85891,2022-11-11_15h17.43.389,vts_reward_expectancy_bt_OFFLINE,2022.2.4,59.89083447841669,
1,0,0,0,0,0,1,0,triangle,hexagon,1,0,1,0,0,7,7,1,,,,,,,,,,,,,,,,,,,,,,,,,,,,,,,,,,,,,,,,260.32094512693584,260.32094512693584,260.32094512693584,260.32094512693584,260.32094512693584,260.32094512693584,260.32094512693584,260.32094512693584,260.32094512693584,260.32094512693584,a,0.4113193089142442,1,308,1,260.75473203510046,262.2566300549079,,,,,,,,,,,,,,,,,,,,,,,,,,,,,,,,,,,,,,,,,,,,,,,,,,,,,,,,,,,,,,,,,,,,,,,85891,2022-11-11_15h17.43.389,vts_reward_expectancy_bt_OFFLINE,2022.2.4,59.89083447841669,
0,0,1,0,1,0,0,0,hexagon,triangle,1,0,1,0,0,8,8,6,,,,,,,,,,,,,,,,,,,,,,,,,,,,,,,,,,,,,,,,262.7568526410032,262.7568526410032,262.7568526410032,262.7568526410032,262.7568526410032,262.7568526410032,262.7568526410032,262.7568526410032,262.7568526410032,262.7568526410032,a,0.3511077060829848,10,318,1,263.1408484899439,264.64249479793943,264.64249479793943,265.14285754202865,,,,,,,,,,,,,,,,,,,,,,,,,,,,,,,,,,,,,,,,,,,,,,,,,,,,,,,,,,,,,,,,,,,,,85891,2022-11-11_15h17.43.389,vts_reward_expectancy_bt_OFFLINE,2022.2.4,59.89083447841669,
0,0,0,1,1,0,0,0,star,triangle,1,0,1,0,0,9,9,9,,,,,,,,,,,,,,,,,,,,,,,,,,,,,,,,,,,,,,,,265.14285754202865,265.14285754202865,265.14285754202865,265.14285754202865,265.14285754202865,265.14285754202865,265.14285754202865,265.14285754202865,265.14285754202865,265.14285754202865,a,0.4392476659268141,10,328,1,265.6100592419971,267.1117425269913,,,,,,,,,,,,,,,,,,,,,,,,,,,,,,,,,,,,,,,,,,,,,,,,,,,,,,,,,,,,,,,,,,,,,,,85891,2022-11-11_15h17.43.389,vts_reward_expectancy_bt_OFFLINE,2022.2.4,59.89083447841669,
0,1,0,0,1,0,0,0,circle,triangle,1,0,1,0,0,10,10,3,,,,,,,,,,,,,,,,,,,,,,,,,,,,,,,,,,,,,,,,267.6122975049075,267.6122975049075,267.6122975049075,267.6122975049075,267.6122975049075,267.6122975049075,267.6122975049075,267.6122975049075,267.6122975049075,267.6122975049075,l,0.3010308099910617,1,329,1,267.94591632205993,269.44762846594676,,,,,,,,,,,,,,,,,,,,,,,,,,,,,,,,,,,,,,,,,,,,,,,,,,,,,,,,,,,,,,,,,,,,,,,85891,2022-11-11_15h17.43.389,vts_reward_expectancy_bt_OFFLINE,2022.2.4,59.89083447841669,
0,0,0,1,0,0,1,0,star,hexagon,1,0,1,0,0,11,11,11,,,,,,,,,,,,,,,,,,,,,,,,,,,,,,,,,,,,,,,,269.9483290670905,269.9483290670905,269.9483290670905,269.9483290670905,269.9483290670905,269.9483290670905,269.9483290670905,269.9483290670905,269.9483290670905,269.9483290670905,l,0.7750608769711107,10,339,1,270.76588901598006,272.2507543149404,,,,,,,,,,,,,,,,,,,,,,,,,,,,,,,,,,,,,,,,,,,,,,,,,,,,,,,,,,,,,,,,,,,,,,,85891,2022-11-11_15h17.43.389,vts_reward_expectancy_bt_OFFLINE,2022.2.4,59.89083447841669,
0,0,1,0,1,0,0,0,hexagon,triangle,1,0,1,0,1,0,12,6,,,,,,,,,,,,,,,,,,,,,,,,,,,,,,,,,,,,,,,,272.75138955307193,272.75138955307193,272.75138955307193,272.75138955307193,272.75138955307193,272.75138955307193,272.75138955307193,272.75138955307193,272.75138955307193,272.75138955307193,a,0.5034863890614361,10,349,1,273.28533215099014,274.7869958879892,,,,,,,,,,,,,,,,,,,,,,,,,,,,,,,,,,,,,,,,,,,,,,,,,,,,,,,,,,,,,,,,,,,,,,,85891,2022-11-11_15h17.43.389,vts_reward_expectancy_bt_OFFLINE,2022.2.4,59.89083447841669,
0,1,0,0,0,0,1,0,circle,hexagon,1,0,1,0,1,1,13,4,,,,,,,,,,,,,,,,,,,,,,,,,,,,,,,,,,,,,,,,275.28729987796396,275.28729987796396,275.28729987796396,275.28729987796396,275.28729987796396,275.28729987796396,275.28729987796396,275.28729987796396,275.28729987796396,275.28729987796396,l,0.3861176858190447,10,359,1,275.704587650951,277.2061818570364,,,,,,,,,,,,,,,,,,,,,,,,,,,,,,,,,,,,,,,,,,,,,,,,,,,,,,,,,,,,,,,,,,,,,,,85891,2022-11-11_15h17.43.389,vts_reward_expectancy_bt_OFFLINE,2022.2.4,59.89083447841669,
1,0,0,0,0,0,1,0,triangle,hexagon,1,0,1,0,1,2,14,1,,,,,,,,,,,,,,,,,,,,,,,,,,,,,,,,,,,,,,,,277.7069140060339,277.7069140060339,277.7069140060339,277.7069140060339,277.7069140060339,277.7069140060339,277.7069140060339,277.7069140060339,277.7069140060339,277.7069140060339,l,0.41916051087900996,10,369,1,278.157392451074,279.658761437051,,,,,,,,,,,,,,,,,,,,,,,,,,,,,,,,,,,,,,,,,,,,,,,,,,,,,,,,,,,,,,,,,,,,,,,85891,2022-11-11_15h17.43.389,vts_reward_expectancy_bt_OFFLINE,2022.2.4,59.89083447841669,
0,0,1,0,0,0,0,1,hexagon,star,1,0,1,0,1,3,15,8,,,,,,,,,,,,,,,,,,,,,,,,,,,,,,,,,,,,,,,,280.1594206299633,280.1594206299633,280.1594206299633,280.1594206299633,280.1594206299633,280.1594206299633,280.1594206299633,280.1594206299633,280.1594206299633,280.1594206299633,a,0.5774331660941243,1,370,1,280.7602172680199,282.2618292600382,,,,,,,,,,,,,,,,,,,,,,,,,,,,,,,,,,,,,,,,,,,,,,,,,,,,,,,,,,,,,,,,,,,,,,,85891,2022-11-11_15h17.43.389,vts_reward_expectancy_bt_OFFLINE,2022.2.4,59.89083447841669,
0,0,0,1,0,1,0,0,star ,circle,1,0,1,0,1,4,16,10,,,,,,,,,,,,,,,,,,,,,,,,,,,,,,,,,,,,,,,,282.7624871900771,282.7624871900771,282.7624871900771,282.7624871900771,282.7624871900771,282.7624871900771,282.7624871900771,282.7624871900771,282.7624871900771,282.7624871900771,a,0.9902557171881199,1,371,1,283.7799932321068,285.2818658009637,,,,,,,,,,,,,,,,,,,,,,,,,,,,,,,,,,,,,,,,,,,,,,,,,,,,,,,,,,,,,,,,,,,,,,,85891,2022-11-11_15h17.43.389,vts_reward_expectancy_bt_OFFLINE,2022.2.4,59.89083447841669,
0,0,0,1,1,0,0,0,star,triangle,1,0,1,0,1,5,17,9,,,,,,,,,,,,,,,,,,,,,,,,,,,,,,,,,,,,,,,,285.78234749590047,285.78234749590047,285.78234749590047,285.78234749590047,285.78234749590047,285.78234749590047,285.78234749590047,285.78234749590047,285.78234749590047,285.78234749590047,a,0.8043722629081458,10,381,1,286.61656633694656,288.11850806791335,,,,,,,,,,,,,,,,,,,,,,,,,,,,,,,,,,,,,,,,,,,,,,,,,,,,,,,,,,,,,,,,,,,,,,,85891,2022-11-11_15h17.43.389,vts_reward_expectancy_bt_OFFLINE,2022.2.4,59.89083447841669,
0,1,0,0,0,0,0,1,circle,star,1,0,1,0,1,6,18,5,,,,,,,,,,,,,,,,,,,,,,,,,,,,,,,,,,,,,,,,288.6187465460971,288.6187465460971,288.6187465460971,288.6187465460971,288.6187465460971,288.6187465460971,288.6187465460971,288.6187465460971,288.6187465460971,288.6187465460971,l,0.5017836790066212,10,391,1,289.15281379804946,290.65427775797434,,,,,,,,,,,,,,,,,,,,,,,,,,,,,,,,,,,,,,,,,,,,,,,,,,,,,,,,,,,,,,,,,,,,,,,85891,2022-11-11_15h17.43.389,vts_reward_expectancy_bt_OFFLINE,2022.2.4,59.89083447841669,
0,0,1,0,0,1,0,0,hexagon,circle,1,0,1,0,1,7,19,7,,,,,,,,,,,,,,,,,,,,,,,,,,,,,,,,,,,,,,,,291.1548920830246,291.1548920830246,291.1548920830246,291.1548920830246,291.1548920830246,291.1548920830246,291.1548920830246,291.1548920830246,291.1548920830246,291.1548920830246,a,0.48456423194147646,10,401,1,291.6721616459545,293.1739128800109,,,,,,,,,,,,,,,,,,,,,,,,,,,,,,,,,,,,,,,,,,,,,,,,,,,,,,,,,,,,,,,,,,,,,,,85891,2022-11-11_15h17.43.389,vts_reward_expectancy_bt_OFFLINE,2022.2.4,59.89083447841669,
1,0,0,0,0,0,0,1,triangle,star,1,0,1,0,1,8,20,2,,,,,,,,,,,,,,,,,,,,,,,,,,,,,,,,,,,,,,,,293.67430603597313,293.67430603597313,293.67430603597313,293.67430603597313,293.67430603597313,293.67430603597313,293.67430603597313,293.67430603597313,293.67430603597313,293.67430603597313,l,0.45176502293907106,1,402,1,294.1580242109485,295.6600108409766,,,,,,,,,,,,,,,,,,,,,,,,,,,,,,,,,,,,,,,,,,,,,,,,,,,,,,,,,,,,,,,,,,,,,,,85891,2022-11-11_15h17.43.389,vts_reward_expectancy_bt_OFFLINE,2022.2.4,59.89083447841669,
0,1,0,0,1,0,0,0,circle,triangle,1,0,1,0,1,9,21,3,,,,,,,,,,,,,,,,,,,,,,,,,,,,,,,,,,,,,,,,296.16039971797727,296.16039971797727,296.16039971797727,296.16039971797727,296.16039971797727,296.16039971797727,296.16039971797727,296.16039971797727,296.16039971797727,296.16039971797727,a,2.826576353982091,1,403,1,299.0138482109178,300.5153347880114,,,,,,,,,,,,,,,,,,,,,,,,,,,,,,,,,,,,,,,,,,,,,,,,,,,,,,,,,,,,,,,,,,,,,,,85891,2022-11-11_15h17.43.389,vts_reward_expectancy_bt_OFFLINE,2022.2.4,59.89083447841669,
0,0,0,1,0,0,1,0,star,hexagon,1,0,1,0,1,10,22,11,,,,,,,,,,,,,,,,,,,,,,,,,,,,,,,,,,,,,,,,301.01573151606135,301.01573151606135,301.01573151606135,301.01573151606135,301.01573151606135,301.01573151606135,301.01573151606135,301.01573151606135,301.01573151606135,301.01573151606135,l,0.5351167831104249,10,413,1,301.5831397259608,303.08476857701316,,,,,,,,,,,,,,,,,,,,,,,,,,,,,,,,,,,,,,,,,,,,,,,,,,,,,,,,,,,,,,,,,,,,,,,85891,2022-11-11_15h17.43.389,vts_reward_expectancy_bt_OFFLINE,2022.2.4,59.89083447841669,
1,0,0,0,0,1,0,0,triangle,circle,1,0,1,0,1,11,23,0,,,,,,,,,,,,,,,,,,,,,,,,,,,,,,,,,,,,,,,,303.5851021069102,303.5851021069102,303.5851021069102,303.5851021069102,303.5851021069102,303.5851021069102,303.5851021069102,303.5851021069102,303.5851021069102,303.5851021069102,a,1.0835034518968314,1,414,1,304.7032525099348,306.1881680719089,,,,,,,,,,,,,,,,,,,,,,,,,,,,,,,,,,,,,,,,,,,,,,,,,,,,,,,,,,,,,,,,,,,,,,,85891,2022-11-11_15h17.43.389,vts_reward_expectancy_bt_OFFLINE,2022.2.4,59.89083447841669,
0,1,0,0,0,0,1,0,circle,hexagon,1,0,1,0,2,0,24,4,,,,,,,,,,,,,,,,,,,,,,,,,,,,,,,,,,,,,,,,306.6888100609649,306.6888100609649,306.6888100609649,306.6888100609649,306.6888100609649,306.6888100609649,306.6888100609649,306.6888100609649,306.6888100609649,306.6888100609649,l,0.6442723968066275,10,424,1,307.3727546459995,308.8744546249509,,,,,,,,,,,,,,,,,,,,,,,,,,,,,,,,,,,,,,,,,,,,,,,,,,,,,,,,,,,,,,,,,,,,,,,85891,2022-11-11_15h17.43.389,vts_reward_expectancy_bt_OFFLINE,2022.2.4,59.89083447841669,
0,1,0,0,0,0,0,1,circle,star,1,0,1,0,2,1,25,5,,,,,,,,,,,,,,,,,,,,,,,,,,,,,,,,,,,,,,,,309.3583192520309,309.3583192520309,309.3583192520309,309.3583192520309,309.3583192520309,309.3583192520309,309.3583192520309,309.3583192520309,309.3583192520309,309.3583192520309,l,1.285992566961795,1,425,1,310.67649841704406,312.17810863093473,,,,,,,,,,,,,,,,,,,,,,,,,,,,,,,,,,,,,,,,,,,,,,,,,,,,,,,,,,,,,,,,,,,,,,,85891,2022-11-11_15h17.43.389,vts_reward_expectancy_bt_OFFLINE,2022.2.4,59.89083447841669,
1,0,0,0,0,0,1,0,triangle,hexagon,1,0,1,0,2,2,26,1,,,,,,,,,,,,,,,,,,,,,,,,,,,,,,,,,,,,,,,,312.67881087004207,312.67881087004207,312.67881087004207,312.67881087004207,312.67881087004207,312.67881087004207,312.67881087004207,312.67881087004207,312.67881087004207,312.67881087004207,l,0.5176777588203549,10,435,1,313.2292447120417,314.7308958671056,314.7308958671056,315.2313786300365,,,,,,,,,,,,,,,,,,,,,,,,,,,,,,,,,,,,,,,,,,,,,,,,,,,,,,,,,,,,,,,,,,,,,85891,2022-11-11_15h17.43.389,vts_reward_expectancy_bt_OFFLINE,2022.2.4,59.89083447841669,
0,0,1,0,0,0,0,1,hexagon,star,1,0,1,0,2,3,27,8,,,,,,,,,,,,,,,,,,,,,,,,,,,,,,,,,,,,,,,,315.2313786300365,315.2313786300365,315.2313786300365,315.2313786300365,315.2313786300365,315.2313786300365,315.2313786300365,315.2313786300365,315.2313786300365,315.2313786300365,a,0.9586001990828663,10,445,1,316.21579823689535,317.7174918029923,,,,,,,,,,,,,,,,,,,,,,,,,,,,,,,,,,,,,,,,,,,,,,,,,,,,,,,,,,,,,,,,,,,,,,,85891,2022-11-11_15h17.43.389,vts_reward_expectancy_bt_OFFLINE,2022.2.4,59.89083447841669,
0,0,1,0,1,0,0,0,hexagon,triangle,1,0,1,0,2,4,28,6,,,,,,,,,,,,,,,,,,,,,,,,,,,,,,,,,,,,,,,,318.21803285507485,318.21803285507485,318.21803285507485,318.21803285507485,318.21803285507485,318.21803285507485,318.21803285507485,318.21803285507485,318.21803285507485,318.21803285507485,a,0.5122713919263333,1,446,1,318.7521835230291,320.2535982648842,,,,,,,,,,,,,,,,,,,,,,,,,,,,,,,,,,,,,,,,,,,,,,,,,,,,,,,,,,,,,,,,,,,,,,,85891,2022-11-11_15h17.43.389,vts_reward_expectancy_bt_OFFLINE,2022.2.4,59.89083447841669,
1,0,0,0,0,1,0,0,triangle,circle,1,0,1,0,2,5,29,0,,,,,,,,,,,,,,,,,,,,,,,,,,,,,,,,,,,,,,,,320.7540916760918,320.7540916760918,320.7540916760918,320.7540916760918,320.7540916760918,320.7540916760918,320.7540916760918,320.7540916760918,320.7540916760918,320.7540916760918,l,1.486361149000004,1,447,1,322.27256803005,323.774342731107,,,,,,,,,,,,,,,,,,,,,,,,,,,,,,,,,,,,,,,,,,,,,,,,,,,,,,,,,,,,,,,,,,,,,,,85891,2022-11-11_15h17.43.389,vts_reward_expectancy_bt_OFFLINE,2022.2.4,59.89083447841669,
0,1,0,0,1,0,0,0,circle,triangle,1,0,1,0,2,6,30,3,,,,,,,,,,,,,,,,,,,,,,,,,,,,,,,,,,,,,,,,324.27490230998956,324.27490230998956,324.27490230998956,324.27490230998956,324.27490230998956,324.27490230998956,324.27490230998956,324.27490230998956,324.27490230998956,324.27490230998956,a,1.8929178530815989,1,448,1,326.2103554820642,327.7120129170362,,,,,,,,,,,,,,,,,,,,,,,,,,,,,,,,,,,,,,,,,,,,,,,,,,,,,,,,,,,,,,,,,,,,,,,85891,2022-11-11_15h17.43.389,vts_reward_expectancy_bt_OFFLINE,2022.2.4,59.89083447841669,
0,0,1,0,0,1,0,0,hexagon,circle,1,0,1,0,2,7,31,7,,,,,,,,,,,,,,,,,,,,,,,,,,,,,,,,,,,,,,,,328.1957124599721,328.1957124599721,328.1957124599721,328.1957124599721,328.1957124599721,328.1957124599721,328.1957124599721,328.1957124599721,328.1957124599721,328.1957124599721,a,0.5367321518715471,10,458,1,328.76297977310605,330.26470702304505,,,,,,,,,,,,,,,,,,,,,,,,,,,,,,,,,,,,,,,,,,,,,,,,,,,,,,,,,,,,,,,,,,,,,,,85891,2022-11-11_15h17.43.389,vts_reward_expectancy_bt_OFFLINE,2022.2.4,59.89083447841669,
0,0,0,1,0,0,1,0,star,hexagon,1,0,1,0,2,8,32,11,,,,,,,,,,,,,,,,,,,,,,,,,,,,,,,,,,,,,,,,330.76519539789297,330.76519539789297,330.76519539789297,330.76519539789297,330.76519539789297,330.76519539789297,330.76519539789297,330.76519539789297,330.76519539789297,330.76519539789297,l,0.5012891748920083,10,468,1,331.29921462293714,332.8010084130801,,,,,,,,,,,,,,,,,,,,,,,,,,,,,,,,,,,,,,,,,,,,,,,,,,,,,,,,,,,,,,,,,,,,,,,85891,2022-11-11_15h17.43.389,vts_reward_expectancy_bt_OFFLINE,2022.2.4,59.89083447841669,
0,0,0,1,1,0,0,0,star,triangle,1,0,1,0,2,9,33,9,,,,,,,,,,,,,,,,,,,,,,,,,,,,,,,,,,,,,,,,333.3013845230453,333.3013845230453,333.3013845230453,333.3013845230453,333.3013845230453,333.3013845230453,333.3013845230453,333.3013845230453,333.3013845230453,333.3013845230453,a,0.6753678231034428,10,478,1,334.00222653592937,335.5038670001086,335.5038670001086,,,,,,,,,,,,,,,,,,,,,,,,,,,,,,,,,,,,,,,,,,,,,,,,,,,,,,,,,,,,,,,,,,,,,,85891,2022-11-11_15h17.43.389,vts_reward_expectancy_bt_OFFLINE,2022.2.4,59.89083447841669,
1,0,0,0,0,0,0,1,triangle,star,1,0,1,0,2,10,34,2,,,,,,,,,,,,,,,,,,,,,,,,,,,,,,,,,,,,,,,,336.00463426089846,336.00463426089846,336.00463426089846,336.00463426089846,336.00463426089846,336.00463426089846,336.00463426089846,336.00463426089846,336.00463426089846,336.00463426089846,l,0.42474346701055765,10,488,1,336.4550103149377,337.9565704250708,,,,,,,,,,,,,,,,,,,,,,,,,,,,,,,,,,,,,,,,,,,,,,,,,,,,,,,,,,,,,,,,,,,,,,,85891,2022-11-11_15h17.43.389,vts_reward_expectancy_bt_OFFLINE,2022.2.4,59.89083447841669,
0,0,0,1,0,1,0,0,star ,circle,1,0,1,0,2,11,35,10,,,,,,,,,,,,,,,,,,,,,,,,,,,,,,,,,,,,,,,,338.45709254592657,338.45709254592657,338.45709254592657,338.45709254592657,338.45709254592657,338.45709254592657,338.45709254592657,338.45709254592657,338.45709254592657,338.45709254592657,a,0.616166457766667,10,498,1,339.0909941860009,340.5929022228811,340.5929022228811,,,,,,,,,,,,,,,,,,,,,,,,,,,,,,,,,,,,,,,,,,,,,,,,,,,,,,,,,,,,,,,,,,,,,,85891,2022-11-11_15h17.43.389,vts_reward_expectancy_bt_OFFLINE,2022.2.4,59.89083447841669,
1,0,0,0,0,1,0,0,triangle,circle,1,0,1,0,3,0,36,0,,,,,,,,,,,,,,,,,,,,,,,,,,,,,,,,,,,,,,,,341.09331651590765,341.09331651590765,341.09331651590765,341.09331651590765,341.09331651590765,341.09331651590765,341.09331651590765,341.09331651590765,341.09331651590765,341.09331651590765,l,0.903815230820328,1,499,1,342.0279470910318,343.52939644199796,,,,,,,,,,,,,,,,,,,,,,,,,,,,,,,,,,,,,,,,,,,,,,,,,,,,,,,,,,,,,,,,,,,,,,,85891,2022-11-11_15h17.43.389,vts_reward_expectancy_bt_OFFLINE,2022.2.4,59.89083447841669,
0,1,0,0,0,0,1,0,circle,hexagon,1,0,1,0,3,1,37,4,,,,,,,,,,,,,,,,,,,,,,,,,,,,,,,,,,,,,,,,344.02983164205216,344.02983164205216,344.02983164205216,344.02983164205216,344.02983164205216,344.02983164205216,344.02983164205216,344.02983164205216,344.02983164205216,344.02983164205216,l,0.4539895618800074,1,500,1,344.5139336180873,346.0154307400808,,,,,,,,,,,,,,,,,,,,,,,,,,,,,,,,,,,,,,,,,,,,,,,,,,,,,,,,,,,,,,,,,,,,,,,85891,2022-11-11_15h17.43.389,vts_reward_expectancy_bt_OFFLINE,2022.2.4,59.89083447841669,
0,0,0,1,1,0,0,0,star,triangle,1,0,1,0,3,2,38,9,,,,,,,,,,,,,,,,,,,,,,,,,,,,,,,,,,,,,,,,346.5161150819622,346.5161150819622,346.5161150819622,346.5161150819622,346.5161150819622,346.5161150819622,346.5161150819622,346.5161150819622,346.5161150819622,346.5161150819622,a,0.6110986969433725,10,510,1,347.1500873249024,348.65186333004385,,,,,,,,,,,,,,,,,,,,,,,,,,,,,,,,,,,,,,,,,,,,,,,,,,,,,,,,,,,,,,,,,,,,,,,85891,2022-11-11_15h17.43.389,vts_reward_expectancy_bt_OFFLINE,2022.2.4,59.89083447841669,
0,0,1,0,1,0,0,0,hexagon,triangle,1,0,1,0,3,3,39,6,,,,,,,,,,,,,,,,,,,,,,,,,,,,,,,,,,,,,,,,349.15229584509507,349.15229584509507,349.15229584509507,349.15229584509507,349.15229584509507,349.15229584509507,349.15229584509507,349.15229584509507,349.15229584509507,349.15229584509507,a,0.5295224019791931,10,520,1,349.70270799309947,351.2046930650249,,,,,,,,,,,,,,,,,,,,,,,,,,,,,,,,,,,,,,,,,,,,,,,,,,,,,,,,,,,,,,,,,,,,,,,85891,2022-11-11_15h17.43.389,vts_reward_expectancy_bt_OFFLINE,2022.2.4,59.89083447841669,
0,1,0,0,0,0,0,1,circle,star,1,0,1,0,3,4,40,5,,,,,,,,,,,,,,,,,,,,,,,,,,,,,,,,,,,,,,,,351.70511442096904,351.70511442096904,351.70511442096904,351.70511442096904,351.70511442096904,351.70511442096904,351.70511442096904,351.70511442096904,351.70511442096904,351.70511442096904,l,0.8589054078329355,10,530,1,352.58933468791656,354.0909820620436,,,,,,,,,,,,,,,,,,,,,,,,,,,,,,,,,,,,,,,,,,,,,,,,,,,,,,,,,,,,,,,,,,,,,,,85891,2022-11-11_15h17.43.389,vts_reward_expectancy_bt_OFFLINE,2022.2.4,59.89083447841669,
1,0,0,0,0,0,0,1,triangle,star,1,0,1,0,3,5,41,2,,,,,,,,,,,,,,,,,,,,,,,,,,,,,,,,,,,,,,,,354.59156949003227,354.59156949003227,354.59156949003227,354.59156949003227,354.59156949003227,354.59156949003227,354.59156949003227,354.59156949003227,354.59156949003227,354.59156949003227,l,0.559083049884066,10,540,1,355.1758020920679,356.67719207308255,,,,,,,,,,,,,,,,,,,,,,,,,,,,,,,,,,,,,,,,,,,,,,,,,,,,,,,,,,,,,,,,,,,,,,,85891,2022-11-11_15h17.43.389,vts_reward_expectancy_bt_OFFLINE,2022.2.4,59.89083447841669,
0,0,1,0,0,1,0,0,hexagon,circle,1,0,1,0,3,6,42,7,,,,,,,,,,,,,,,,,,,,,,,,,,,,,,,,,,,,,,,,357.17772909090854,357.17772909090854,357.17772909090854,357.17772909090854,357.17772909090854,357.17772909090854,357.17772909090854,357.17772909090854,357.17772909090854,357.17772909090854,a,0.4917356160003692,10,550,1,357.69505104096606,359.19660029001534,,,,,,,,,,,,,,,,,,,,,,,,,,,,,,,,,,,,,,,,,,,,,,,,,,,,,,,,,,,,,,,,,,,,,,,85891,2022-11-11_15h17.43.389,vts_reward_expectancy_bt_OFFLINE,2022.2.4,59.89083447841669,
1,0,0,0,0,0,1,0,triangle,hexagon,1,0,1,0,3,7,43,1,,,,,,,,,,,,,,,,,,,,,,,,,,,,,,,,,,,,,,,,359.6971702959854,359.6971702959854,359.6971702959854,359.6971702959854,359.6971702959854,359.6971702959854,359.6971702959854,359.6971702959854,359.6971702959854,359.6971702959854,l,0.4147701379843056,1,551,1,360.1312601650134,361.6326541570015,361.6326541570015,,,,,,,,,,,,,,,,,,,,,,,,,,,,,,,,,,,,,,,,,,,,,,,,,,,,,,,,,,,,,,,,,,,,,,85891,2022-11-11_15h17.43.389,vts_reward_expectancy_bt_OFFLINE,2022.2.4,59.89083447841669,
0,0,0,1,0,1,0,0,star ,circle,1,0,1,0,3,8,44,10,,,,,,,,,,,,,,,,,,,,,,,,,,,,,,,,,,,,,,,,362.1331940360833,362.1331940360833,362.1331940360833,362.1331940360833,362.1331940360833,362.1331940360833,362.1331940360833,362.1331940360833,362.1331940360833,362.1331940360833,a,0.6681345850229263,1,552,1,362.8339263170492,364.33568363194354,,,,,,,,,,,,,,,,,,,,,,,,,,,,,,,,,,,,,,,,,,,,,,,,,,,,,,,,,,,,,,,,,,,,,,,85891,2022-11-11_15h17.43.389,vts_reward_expectancy_bt_OFFLINE,2022.2.4,59.89083447841669,
0,0,0,1,0,0,1,0,star,hexagon,1,0,1,0,3,9,45,11,,,,,,,,,,,,,,,,,,,,,,,,,,,,,,,,,,,,,,,,364.8362812080886,364.8362812080886,364.8362812080886,364.8362812080886,364.8362812080886,364.8362812080886,364.8362812080886,364.8362812080886,364.8362812080886,364.8362812080886,a,0.6530164529103786,10,562,1,365.5202074719127,367.0220062509179,,,,,,,,,,,,,,,,,,,,,,,,,,,,,,,,,,,,,,,,,,,,,,,,,,,,,,,,,,,,,,,,,,,,,,,85891,2022-11-11_15h17.43.389,vts_reward_expectancy_bt_OFFLINE,2022.2.4,59.89083447841669,
0,1,0,0,1,0,0,0,circle,triangle,1,0,1,0,3,10,46,3,,,,,,,,,,,,,,,,,,,,,,,,,,,,,,,,,,,,,,,,367.5226513829548,367.5226513829548,367.5226513829548,367.5226513829548,367.5226513829548,367.5226513829548,367.5226513829548,367.5226513829548,367.5226513829548,367.5226513829548,a,1.104991827858612,1,563,1,368.657008751994,370.15874383505434,,,,,,,,,,,,,,,,,,,,,,,,,,,,,,,,,,,,,,,,,,,,,,,,,,,,,,,,,,,,,,,,,,,,,,,85891,2022-11-11_15h17.43.389,vts_reward_expectancy_bt_OFFLINE,2022.2.4,59.89083447841669,
0,0,1,0,0,0,0,1,hexagon,star,1,0,1,0,3,11,47,8,,,,,,,,,,,,,,,,,,,,,,,,,,,,,,,,,,,,,,,,370.6594279059209,370.6594279059209,370.6594279059209,370.6594279059209,370.6594279059209,370.6594279059209,370.6594279059209,370.6594279059209,370.6594279059209,370.6594279059209,a,0.5575011079199612,10,573,1,371.24313236004673,372.7448366249446,,,,,,,,,,,,,,,,,,,,,,,,,,,,,,,,,,,,,,,,,,,,,,,,,,,,,,,,,,,,,,,,,,,,,,,85891,2022-11-11_15h17.43.389,vts_reward_expectancy_bt_OFFLINE,2022.2.4,59.89083447841669,
0,0,0,1,0,1,0,0,star ,circle,2,0,2,0,0,0,0,10,,,,,,,,,,,,,,,,,,,,,,,,,,,,,,,,,,,,,,,,395.0528340418823,395.0528340418823,395.0528340418823,395.0528340418823,395.0528340418823,395.0528340418823,395.0528340418823,395.0528340418823,395.0528340418823,395.0528340418823,a,1.2637163870967925,10,583,2,396.33751113689505,397.8391349730082,,,,,,,,,,,,,,,,,,,,,,,,,,,,,,,,,,,,,,,,,,,,,,,,,,,,,,,,,,,,,,,,,,,,,,,85891,2022-11-11_15h17.43.389,vts_reward_expectancy_bt_OFFLINE,2022.2.4,59.89083447841669,
1,0,0,0,0,1,0,0,triangle,circle,2,0,2,0,0,1,1,0,,,,,,,,,,,,,,,,,,,,,,,,,,,,,,,,,,,,,,,,398.3397713219747,398.3397713219747,398.3397713219747,398.3397713219747,398.3397713219747,398.3397713219747,398.3397713219747,398.3397713219747,398.3397713219747,398.3397713219747,a,0.8585469319950789,1,584,2,399.22400344209746,400.72586166788824,,,,,,,,,,,,,,,,,,,,,,,,,,,,,,,,,,,,,,,,,,,,,,,,,,,,,,,,,,,,,,,,,,,,,,,85891,2022-11-11_15h17.43.389,vts_reward_expectancy_bt_OFFLINE,2022.2.4,59.89083447841669,
0,0,1,0,1,0,0,0,hexagon,triangle,2,0,2,0,0,2,2,6,,,,,,,,,,,,,,,,,,,,,,,,,,,,,,,,,,,,,,,,401.2263497870881,401.2263497870881,401.2263497870881,401.2263497870881,401.2263497870881,401.2263497870881,401.2263497870881,401.2263497870881,401.2263497870881,401.2263497870881,a,0.5468931219074875,10,594,2,401.7937127959449,403.295110038016,,,,,,,,,,,,,,,,,,,,,,,,,,,,,,,,,,,,,,,,,,,,,,,,,,,,,,,,,,,,,,,,,,,,,,,85891,2022-11-11_15h17.43.389,vts_reward_expectancy_bt_OFFLINE,2022.2.4,59.89083447841669,
1,0,0,0,0,0,0,1,triangle,star,2,0,2,0,0,3,3,2,,,,,,,,,,,,,,,,,,,,,,,,,,,,,,,,,,,,,,,,403.7958335510921,403.7958335510921,403.7958335510921,403.7958335510921,403.7958335510921,403.7958335510921,403.7958335510921,403.7958335510921,403.7958335510921,403.7958335510921,l,0.5083846549969167,10,604,2,404.3298526329454,405.8314227750525,,,,,,,,,,,,,,,,,,,,,,,,,,,,,,,,,,,,,,,,,,,,,,,,,,,,,,,,,,,,,,,,,,,,,,,85891,2022-11-11_15h17.43.389,vts_reward_expectancy_bt_OFFLINE,2022.2.4,59.89083447841669,
0,1,0,0,0,0,0,1,circle,star,2,0,2,0,0,4,4,5,,,,,,,,,,,,,,,,,,,,,,,,,,,,,,,,,,,,,,,,406.3320142100565,406.3320142100565,406.3320142100565,406.3320142100565,406.3320142100565,406.3320142100565,406.3320142100565,406.3320142100565,406.3320142100565,406.3320142100565,l,0.987078407779336,10,614,2,407.3499051160179,408.85160112194717,,,,,,,,,,,,,,,,,,,,,,,,,,,,,,,,,,,,,,,,,,,,,,,,,,,,,,,,,,,,,,,,,,,,,,,85891,2022-11-11_15h17.43.389,vts_reward_expectancy_bt_OFFLINE,2022.2.4,59.89083447841669,
0,0,1,0,0,1,0,0,hexagon,circle,2,0,2,0,0,5,5,7,,,,,,,,,,,,,,,,,,,,,,,,,,,,,,,,,,,,,,,,409.35198388504796,409.35198388504796,409.35198388504796,409.35198388504796,409.35198388504796,409.35198388504796,409.35198388504796,409.35198388504796,409.35198388504796,409.35198388504796,a,3.896963136969134,10,624,2,413.2729757549241,414.7745821769349,,,,,,,,,,,,,,,,,,,,,,,,,,,,,,,,,,,,,,,,,,,,,,,,,,,,,,,,,,,,,,,,,,,,,,,85891,2022-11-11_15h17.43.389,vts_reward_expectancy_bt_OFFLINE,2022.2.4,59.89083447841669,
0,0,0,1,1,0,0,0,star,triangle,2,0,2,0,0,6,6,9,,,,,,,,,,,,,,,,,,,,,,,,,,,,,,,,,,,,,,,,415.2750902210828,415.2750902210828,415.2750902210828,415.2750902210828,415.2750902210828,415.2750902210828,415.2750902210828,415.2750902210828,415.2750902210828,415.2750902210828,a,0.7993249800056219,10,634,2,416.0925764760468,417.5942333310377,,,,,,,,,,,,,,,,,,,,,,,,,,,,,,,,,,,,,,,,,,,,,,,,,,,,,,,,,,,,,,,,,,,,,,,85891,2022-11-11_15h17.43.389,vts_reward_expectancy_bt_OFFLINE,2022.2.4,59.89083447841669,
1,0,0,0,0,0,1,0,triangle,hexagon,2,0,2,0,0,7,7,1,,,,,,,,,,,,,,,,,,,,,,,,,,,,,,,,,,,,,,,,418.09505005693063,418.09505005693063,418.09505005693063,418.09505005693063,418.09505005693063,418.09505005693063,418.09505005693063,418.09505005693063,418.09505005693063,418.09505005693063,l,0.5197693358641118,10,644,2,418.64549462194555,420.14724084804766,420.14724084804766,,,,,,,,,,,,,,,,,,,,,,,,,,,,,,,,,,,,,,,,,,,,,,,,,,,,,,,,,,,,,,,,,,,,,,85891,2022-11-11_15h17.43.389,vts_reward_expectancy_bt_OFFLINE,2022.2.4,59.89083447841669,
0,1,0,0,1,0,0,0,circle,triangle,2,0,2,0,0,8,8,3,,,,,,,,,,,,,,,,,,,,,,,,,,,,,,,,,,,,,,,,420.6478040420916,420.6478040420916,420.6478040420916,420.6478040420916,420.6478040420916,420.6478040420916,420.6478040420916,420.6478040420916,420.6478040420916,420.6478040420916,a,0.712748316815123,1,645,2,421.3819234650582,422.88342634704895,,,,,,,,,,,,,,,,,,,,,,,,,,,,,,,,,,,,,,,,,,,,,,,,,,,,,,,,,,,,,,,,,,,,,,,85891,2022-11-11_15h17.43.389,vts_reward_expectancy_bt_OFFLINE,2022.2.4,59.89083447841669,
0,0,1,0,0,0,0,1,hexagon,star,2,0,2,0,0,9,9,8,,,,,,,,,,,,,,,,,,,,,,,,,,,,,,,,,,,,,,,,423.3842647608835,423.3842647608835,423.3842647608835,423.3842647608835,423.3842647608835,423.3842647608835,423.3842647608835,423.3842647608835,423.3842647608835,423.3842647608835,a,0.5184132501017302,10,655,2,423.93474633595906,425.4362366180867,,,,,,,,,,,,,,,,,,,,,,,,,,,,,,,,,,,,,,,,,,,,,,,,,,,,,,,,,,,,,,,,,,,,,,,85891,2022-11-11_15h17.43.389,vts_reward_expectancy_bt_OFFLINE,2022.2.4,59.89083447841669,
0,1,0,0,0,0,1,0,circle,hexagon,2,0,2,0,0,10,10,4,,,,,,,,,,,,,,,,,,,,,,,,,,,,,,,,,,,,,,,,425.93690779502504,425.93690779502504,425.93690779502504,425.93690779502504,425.93690779502504,425.93690779502504,425.93690779502504,425.93690779502504,425.93690779502504,425.93690779502504,l,0.768166386988014,10,665,2,426.73796659195796,428.2393194180913,,,,,,,,,,,,,,,,,,,,,,,,,,,,,,,,,,,,,,,,,,,,,,,,,,,,,,,,,,,,,,,,,,,,,,,85891,2022-11-11_15h17.43.389,vts_reward_expectancy_bt_OFFLINE,2022.2.4,59.89083447841669,
0,0,0,1,0,0,1,0,star,hexagon,2,0,2,0,0,11,11,11,,,,,,,,,,,,,,,,,,,,,,,,,,,,,,,,,,,,,,,,428.7400580209214,428.7400580209214,428.7400580209214,428.7400580209214,428.7400580209214,428.7400580209214,428.7400580209214,428.7400580209214,428.7400580209214,428.7400580209214,l,0.4962539279367775,10,675,2,429.2573660858907,430.75879666698165,430.75879666698165,,,,,,,,,,,,,,,,,,,,,,,,,,,,,,,,,,,,,,,,,,,,,,,,,,,,,,,,,,,,,,,,,,,,,,85891,2022-11-11_15h17.43.389,vts_reward_expectancy_bt_OFFLINE,2022.2.4,59.89083447841669,
0,1,0,0,1,0,0,0,circle,triangle,2,0,2,0,1,0,12,3,,,,,,,,,,,,,,,,,,,,,,,,,,,,,,,,,,,,,,,,431.2593326170463,431.2593326170463,431.2593326170463,431.2593326170463,431.2593326170463,431.2593326170463,431.2593326170463,431.2593326170463,431.2593326170463,431.2593326170463,l,1.3970491038635373,1,676,2,432.69434949196875,434.1795264550019,,,,,,,,,,,,,,,,,,,,,,,,,,,,,,,,,,,,,,,,,,,,,,,,,,,,,,,,,,,,,,,,,,,,,,,85891,2022-11-11_15h17.43.389,vts_reward_expectancy_bt_OFFLINE,2022.2.4,59.89083447841669,
0,0,0,1,0,1,0,0,star ,circle,2,0,2,0,1,1,13,10,,,,,,,,,,,,,,,,,,,,,,,,,,,,,,,,,,,,,,,,434.6799840480089,434.6799840480089,434.6799840480089,434.6799840480089,434.6799840480089,434.6799840480089,434.6799840480089,434.6799840480089,434.6799840480089,434.6799840480089,a,1.18491757591255,1,677,2,435.898068520939,437.3996134020854,,,,,,,,,,,,,,,,,,,,,,,,,,,,,,,,,,,,,,,,,,,,,,,,,,,,,,,,,,,,,,,,,,,,,,,85891,2022-11-11_15h17.43.389,vts_reward_expectancy_bt_OFFLINE,2022.2.4,59.89083447841669,
0,0,0,1,1,0,0,0,star,triangle,2,0,2,0,1,2,14,9,,,,,,,,,,,,,,,,,,,,,,,,,,,,,,,,,,,,,,,,437.88358118594624,437.88358118594624,437.88358118594624,437.88358118594624,437.88358118594624,437.88358118594624,437.88358118594624,437.88358118594624,437.88358118594624,437.88358118594624,l,0.8159993840381503,1,678,2,438.71767320507206,440.2192301719915,,,,,,,,,,,,,,,,,,,,,,,,,,,,,,,,,,,,,,,,,,,,,,,,,,,,,,,,,,,,,,,,,,,,,,,85891,2022-11-11_15h17.43.389,vts_reward_expectancy_bt_OFFLINE,2022.2.4,59.89083447841669,
1,0,0,0,0,1,0,0,triangle,circle,2,0,2,0,1,3,15,0,,,,,,,,,,,,,,,,,,,,,,,,,,,,,,,,,,,,,,,,440.7199129499495,440.7199129499495,440.7199129499495,440.7199129499495,440.7199129499495,440.7199129499495,440.7199129499495,440.7199129499495,440.7199129499495,440.7199129499495,l,2.162860935786739,1,679,2,442.9057071649004,444.40744837210514,,,,,,,,,,,,,,,,,,,,,,,,,,,,,,,,,,,,,,,,,,,,,,,,,,,,,,,,,,,,,,,,,,,,,,,85891,2022-11-11_15h17.43.389,vts_reward_expectancy_bt_OFFLINE,2022.2.4,59.89083447841669,
0,1,0,0,0,0,0,1,circle,star,2,0,2,0,1,4,16,5,,,,,,,,,,,,,,,,,,,,,,,,,,,,,,,,,,,,,,,,444.90796527592465,444.90796527592465,444.90796527592465,444.90796527592465,444.90796527592465,444.90796527592465,444.90796527592465,444.90796527592465,444.90796527592465,444.90796527592465,l,1.3735451649408787,10,689,2,446.3260503569618,447.82775291102007,,,,,,,,,,,,,,,,,,,,,,,,,,,,,,,,,,,,,,,,,,,,,,,,,,,,,,,,,,,,,,,,,,,,,,,85891,2022-11-11_15h17.43.389,vts_reward_expectancy_bt_OFFLINE,2022.2.4,59.89083447841669,
1,0,0,0,0,0,0,1,triangle,star,2,0,2,0,1,5,17,2,,,,,,,,,,,,,,,,,,,,,,,,,,,,,,,,,,,,,,,,448.3115396720823,448.3115396720823,448.3115396720823,448.3115396720823,448.3115396720823,448.3115396720823,448.3115396720823,448.3115396720823,448.3115396720823,448.3115396720823,l,0.6588268908672035,10,699,2,448.99581514298916,450.4974122119602,450.4974122119602,,,,,,,,,,,,,,,,,,,,,,,,,,,,,,,,,,,,,,,,,,,,,,,,,,,,,,,,,,,,,,,,,,,,,,85891,2022-11-11_15h17.43.389,vts_reward_expectancy_bt_OFFLINE,2022.2.4,59.89083447841669,
0,0,1,0,0,1,0,0,hexagon,circle,2,0,2,0,1,6,18,7,,,,,,,,,,,,,,,,,,,,,,,,,,,,,,,,,,,,,,,,450.99784235307015,450.99784235307015,450.99784235307015,450.99784235307015,450.99784235307015,450.99784235307015,450.99784235307015,450.99784235307015,450.99784235307015,450.99784235307015,a,0.46928750607185066,10,709,2,451.49861215497367,453.00008469307795,,,,,,,,,,,,,,,,,,,,,,,,,,,,,,,,,,,,,,,,,,,,,,,,,,,,,,,,,,,,,,,,,,,,,,,85891,2022-11-11_15h17.43.389,vts_reward_expectancy_bt_OFFLINE,2022.2.4,59.89083447841669,
0,0,1,0,0,0,0,1,hexagon,star,2,0,2,0,1,7,19,8,,,,,,,,,,,,,,,,,,,,,,,,,,,,,,,,,,,,,,,,453.50082709803246,453.50082709803246,453.50082709803246,453.50082709803246,453.50082709803246,453.50082709803246,453.50082709803246,453.50082709803246,453.50082709803246,453.50082709803246,a,0.45271686813794076,10,719,2,453.9845899150241,455.4862098270096,,,,,,,,,,,,,,,,,,,,,,,,,,,,,,,,,,,,,,,,,,,,,,,,,,,,,,,,,,,,,,,,,,,,,,,85891,2022-11-11_15h17.43.389,vts_reward_expectancy_bt_OFFLINE,2022.2.4,59.89083447841669,
0,0,0,1,0,0,1,0,star,hexagon,2,0,2,0,1,8,20,11,,,,,,,,,,,,,,,,,,,,,,,,,,,,,,,,,,,,,,,,455.98668770492077,455.98668770492077,455.98668770492077,455.98668770492077,455.98668770492077,455.98668770492077,455.98668770492077,455.98668770492077,455.98668770492077,455.98668770492077,a,1.061869113938883,10,729,2,457.07152021303773,458.5736934870947,,,,,,,,,,,,,,,,,,,,,,,,,,,,,,,,,,,,,,,,,,,,,,,,,,,,,,,,,,,,,,,,,,,,,,,85891,2022-11-11_15h17.43.389,vts_reward_expectancy_bt_OFFLINE,2022.2.4,59.89083447841669,
1,0,0,0,0,0,1,0,triangle,hexagon,2,0,2,0,1,9,21,1,,,,,,,,,,,,,,,,,,,,,,,,,,,,,,,,,,,,,,,,459.07342576095834,459.07342576095834,459.07342576095834,459.07342576095834,459.07342576095834,459.07342576095834,459.07342576095834,459.07342576095834,459.07342576095834,459.07342576095834,l,0.6630726580042392,1,730,2,459.77429093490355,461.2593504420947,,,,,,,,,,,,,,,,,,,,,,,,,,,,,,,,,,,,,,,,,,,,,,,,,,,,,,,,,,,,,,,,,,,,,,,85891,2022-11-11_15h17.43.389,vts_reward_expectancy_bt_OFFLINE,2022.2.4,59.89083447841669,
0,1,0,0,0,0,1,0,circle,hexagon,2,0,2,0,1,10,22,4,,,,,,,,,,,,,,,,,,,,,,,,,,,,,,,,,,,,,,,,461.7597479100805,461.7597479100805,461.7597479100805,461.7597479100805,461.7597479100805,461.7597479100805,461.7597479100805,461.7597479100805,461.7597479100805,461.7597479100805,l,0.4521591600496322,10,740,2,462.26039331103675,463.76197581598535,,,,,,,,,,,,,,,,,,,,,,,,,,,,,,,,,,,,,,,,,,,,,,,,,,,,,,,,,,,,,,,,,,,,,,,85891,2022-11-11_15h17.43.389,vts_reward_expectancy_bt_OFFLINE,2022.2.4,59.89083447841669,
0,0,1,0,1,0,0,0,hexagon,triangle,2,0,2,0,1,11,23,6,,,,,,,,,,,,,,,,,,,,,,,,,,,,,,,,,,,,,,,,464.2626540050842,464.2626540050842,464.2626540050842,464.2626540050842,464.2626540050842,464.2626540050842,464.2626540050842,464.2626540050842,464.2626540050842,464.2626540050842,a,0.6178219998255372,10,750,2,464.9133388309274,466.41503041703254,,,,,,,,,,,,,,,,,,,,,,,,,,,,,,,,,,,,,,,,,,,,,,,,,,,,,,,,,,,,,,,,,,,,,,,85891,2022-11-11_15h17.43.389,vts_reward_expectancy_bt_OFFLINE,2022.2.4,59.89083447841669,
0,0,0,1,0,1,0,0,star ,circle,2,0,2,0,2,0,24,10,,,,,,,,,,,,,,,,,,,,,,,,,,,,,,,,,,,,,,,,466.91560914204456,466.91560914204456,466.91560914204456,466.91560914204456,466.91560914204456,466.91560914204456,466.91560914204456,466.91560914204456,466.91560914204456,466.91560914204456,a,1.1465299390256405,10,760,2,468.0834158898797,469.5851133118849,,,,,,,,,,,,,,,,,,,,,,,,,,,,,,,,,,,,,,,,,,,,,,,,,,,,,,,,,,,,,,,,,,,,,,,85891,2022-11-11_15h17.43.389,vts_reward_expectancy_bt_OFFLINE,2022.2.4,59.89083447841669,
0,1,0,0,0,0,0,1,circle,star,2,0,2,0,2,1,25,5,,,,,,,,,,,,,,,,,,,,,,,,,,,,,,,,,,,,,,,,470.0854827819858,470.0854827819858,470.0854827819858,470.0854827819858,470.0854827819858,470.0854827819858,470.0854827819858,470.0854827819858,470.0854827819858,470.0854827819858,l,1.262803795048967,10,770,2,471.3702760869637,472.87204962503165,,,,,,,,,,,,,,,,,,,,,,,,,,,,,,,,,,,,,,,,,,,,,,,,,,,,,,,,,,,,,,,,,,,,,,,85891,2022-11-11_15h17.43.389,vts_reward_expectancy_bt_OFFLINE,2022.2.4,59.89083447841669,
0,1,0,0,0,0,1,0,circle,hexagon,2,0,2,0,2,2,26,4,,,,,,,,,,,,,,,,,,,,,,,,,,,,,,,,,,,,,,,,473.3726348450873,473.3726348450873,473.3726348450873,473.3726348450873,473.3726348450873,473.3726348450873,473.3726348450873,473.3726348450873,473.3726348450873,473.3726348450873,l,0.5977160390466452,1,771,2,473.99046745710075,475.49163336493075,,,,,,,,,,,,,,,,,,,,,,,,,,,,,,,,,,,,,,,,,,,,,,,,,,,,,,,,,,,,,,,,,,,,,,,85891,2022-11-11_15h17.43.389,vts_reward_expectancy_bt_OFFLINE,2022.2.4,59.89083447841669,
0,0,0,1,1,0,0,0,star,triangle,2,0,2,0,2,3,27,9,,,,,,,,,,,,,,,,,,,,,,,,,,,,,,,,,,,,,,,,475.99206963996403,475.99206963996403,475.99206963996403,475.99206963996403,475.99206963996403,475.99206963996403,475.99206963996403,475.99206963996403,475.99206963996403,475.99206963996403,a,1.6560917510651052,10,781,2,477.69394287792966,479.1955090400297,,,,,,,,,,,,,,,,,,,,,,,,,,,,,,,,,,,,,,,,,,,,,,,,,,,,,,,,,,,,,,,,,,,,,,,85891,2022-11-11_15h17.43.389,vts_reward_expectancy_bt_OFFLINE,2022.2.4,59.89083447841669,
0,0,1,0,1,0,0,0,hexagon,triangle,2,0,2,0,2,4,28,6,,,,,,,,,,,,,,,,,,,,,,,,,,,,,,,,,,,,,,,,479.6796432361007,479.6796432361007,479.6796432361007,479.6796432361007,479.6796432361007,479.6796432361007,479.6796432361007,479.6796432361007,479.6796432361007,479.6796432361007,a,0.7697754998225719,10,791,2,480.4804579920601,481.98225923697464,,,,,,,,,,,,,,,,,,,,,,,,,,,,,,,,,,,,,,,,,,,,,,,,,,,,,,,,,,,,,,,,,,,,,,,85891,2022-11-11_15h17.43.389,vts_reward_expectancy_bt_OFFLINE,2022.2.4,59.89083447841669,
0,0,1,0,0,0,0,1,hexagon,star,2,0,2,0,2,5,29,8,,,,,,,,,,,,,,,,,,,,,,,,,,,,,,,,,,,,,,,,482.4826798948925,482.4826798948925,482.4826798948925,482.4826798948925,482.4826798948925,482.4826798948925,482.4826798948925,482.4826798948925,482.4826798948925,482.4826798948925,a,0.5341675670351833,10,801,2,483.0499884421006,484.5515770618804,,,,,,,,,,,,,,,,,,,,,,,,,,,,,,,,,,,,,,,,,,,,,,,,,,,,,,,,,,,,,,,,,,,,,,,85891,2022-11-11_15h17.43.389,vts_reward_expectancy_bt_OFFLINE,2022.2.4,59.89083447841669,
1,0,0,0,0,1,0,0,triangle,circle,2,0,2,0,2,6,30,0,,,,,,,,,,,,,,,,,,,,,,,,,,,,,,,,,,,,,,,,485.0520593319088,485.0520593319088,485.0520593319088,485.0520593319088,485.0520593319088,485.0520593319088,485.0520593319088,485.0520593319088,485.0520593319088,485.0520593319088,a,3.261678366921842,1,802,2,488.3399592828937,489.84086656197906,489.84086656197906,,,,,,,,,,,,,,,,,,,,,,,,,,,,,,,,,,,,,,,,,,,,,,,,,,,,,,,,,,,,,,,,,,,,,,85891,2022-11-11_15h17.43.389,vts_reward_expectancy_bt_OFFLINE,2022.2.4,59.89083447841669,
0,1,0,0,1,0,0,0,circle,triangle,2,0,2,0,2,7,31,3,,,,,,,,,,,,,,,,,,,,,,,,,,,,,,,,,,,,,,,,490.3411967509892,490.3411967509892,490.3411967509892,490.3411967509892,490.3411967509892,490.3411967509892,490.3411967509892,490.3411967509892,490.3411967509892,490.3411967509892,a,1.6969909169711173,1,803,2,492.05995156802237,493.5615628119558,,,,,,,,,,,,,,,,,,,,,,,,,,,,,,,,,,,,,,,,,,,,,,,,,,,,,,,,,,,,,,,,,,,,,,,85891,2022-11-11_15h17.43.389,vts_reward_expectancy_bt_OFFLINE,2022.2.4,59.89083447841669,
0,0,0,1,0,0,1,0,star,hexagon,2,0,2,0,2,8,32,11,,,,,,,,,,,,,,,,,,,,,,,,,,,,,,,,,,,,,,,,494.06227755593136,494.06227755593136,494.06227755593136,494.06227755593136,494.06227755593136,494.06227755593136,494.06227755593136,494.06227755593136,494.06227755593136,494.06227755593136,l,1.0691611687652767,1,804,2,495.16346774296835,496.6650751400739,,,,,,,,,,,,,,,,,,,,,,,,,,,,,,,,,,,,,,,,,,,,,,,,,,,,,,,,,,,,,,,,,,,,,,,85891,2022-11-11_15h17.43.389,vts_reward_expectancy_bt_OFFLINE,2022.2.4,59.89083447841669,
1,0,0,0,0,0,1,0,triangle,hexagon,2,0,2,0,2,9,33,1,,,,,,,,,,,,,,,,,,,,,,,,,,,,,,,,,,,,,,,,497.1655206598807,497.1655206598807,497.1655206598807,497.1655206598807,497.1655206598807,497.1655206598807,497.1655206598807,497.1655206598807,497.1655206598807,497.1655206598807,l,0.499157692771405,10,814,2,497.69937416003086,499.1843868899159,,,,,,,,,,,,,,,,,,,,,,,,,,,,,,,,,,,,,,,,,,,,,,,,,,,,,,,,,,,,,,,,,,,,,,,85891,2022-11-11_15h17.43.389,vts_reward_expectancy_bt_OFFLINE,2022.2.4,59.89083447841669,
0,0,1,0,0,1,0,0,hexagon,circle,2,0,2,0,2,10,34,7,,,,,,,,,,,,,,,,,,,,,,,,,,,,,,,,,,,,,,,,499.68492059689015,499.68492059689015,499.68492059689015,499.68492059689015,499.68492059689015,499.68492059689015,499.68492059689015,499.68492059689015,499.68492059689015,499.68492059689015,a,0.6013888139277697,1,815,2,500.3189667048864,501.820820115041,,,,,,,,,,,,,,,,,,,,,,,,,,,,,,,,,,,,,,,,,,,,,,,,,,,,,,,,,,,,,,,,,,,,,,,85891,2022-11-11_15h17.43.389,vts_reward_expectancy_bt_OFFLINE,2022.2.4,59.89083447841669,
1,0,0,0,0,0,0,1,triangle,star,2,0,2,0,2,11,35,2,,,,,,,,,,,,,,,,,,,,,,,,,,,,,,,,,,,,,,,,502.3211343330331,502.3211343330331,502.3211343330331,502.3211343330331,502.3211343330331,502.3211343330331,502.3211343330331,502.3211343330331,502.3211343330331,502.3211343330331,l,1.0690648378804326,10,825,2,503.43911805702373,504.9409560910426,,,,,,,,,,,,,,,,,,,,,,,,,,,,,,,,,,,,,,,,,,,,,,,,,,,,,,,,,,,,,,,,,,,,,,,85891,2022-11-11_15h17.43.389,vts_reward_expectancy_bt_OFFLINE,2022.2.4,59.89083447841669,
1,0,0,0,0,0,0,1,triangle,star,2,0,2,0,3,0,36,2,,,,,,,,,,,,,,,,,,,,,,,,,,,,,,,,,,,,,,,,505.44130267808214,505.44130267808214,505.44130267808214,505.44130267808214,505.44130267808214,505.44130267808214,505.44130267808214,505.44130267808214,505.44130267808214,505.44130267808214,l,1.2018974549137056,1,826,2,506.67593255103566,508.17759035504423,,,,,,,,,,,,,,,,,,,,,,,,,,,,,,,,,,,,,,,,,,,,,,,,,,,,,,,,,,,,,,,,,,,,,,,85891,2022-11-11_15h17.43.389,vts_reward_expectancy_bt_OFFLINE,2022.2.4,59.89083447841669,
0,0,1,0,1,0,0,0,hexagon,triangle,2,0,2,0,3,1,37,6,,,,,,,,,,,,,,,,,,,,,,,,,,,,,,,,,,,,,,,,508.6782695099246,508.6782695099246,508.6782695099246,508.6782695099246,508.6782695099246,508.6782695099246,508.6782695099246,508.6782695099246,508.6782695099246,508.6782695099246,a,0.5627430810127407,10,836,2,509.2629768799525,510.7640042719431,,,,,,,,,,,,,,,,,,,,,,,,,,,,,,,,,,,,,,,,,,,,,,,,,,,,,,,,,,,,,,,,,,,,,,,85891,2022-11-11_15h17.43.389,vts_reward_expectancy_bt_OFFLINE,2022.2.4,59.89083447841669,
0,0,1,0,0,0,0,1,hexagon,star,2,0,2,0,3,2,38,8,,,,,,,,,,,,,,,,,,,,,,,,,,,,,,,,,,,,,,,,511.2645278000273,511.2645278000273,511.2645278000273,511.2645278000273,511.2645278000273,511.2645278000273,511.2645278000273,511.2645278000273,511.2645278000273,511.2645278000273,a,0.4181020448449999,10,846,2,511.71514650201425,513.2165901050903,,,,,,,,,,,,,,,,,,,,,,,,,,,,,,,,,,,,,,,,,,,,,,,,,,,,,,,,,,,,,,,,,,,,,,,85891,2022-11-11_15h17.43.389,vts_reward_expectancy_bt_OFFLINE,2022.2.4,59.89083447841669,
0,1,0,0,0,0,0,1,circle,star,2,0,2,0,3,3,39,5,,,,,,,,,,,,,,,,,,,,,,,,,,,,,,,,,,,,,,,,513.7172156779561,513.7172156779561,513.7172156779561,513.7172156779561,513.7172156779561,513.7172156779561,513.7172156779561,513.7172156779561,513.7172156779561,513.7172156779561,a,0.5754312018398196,10,856,2,514.3177752948832,515.8196477419697,,,,,,,,,,,,,,,,,,,,,,,,,,,,,,,,,,,,,,,,,,,,,,,,,,,,,,,,,,,,,,,,,,,,,,,85891,2022-11-11_15h17.43.389,vts_reward_expectancy_bt_OFFLINE,2022.2.4,59.89083447841669,
1,0,0,0,0,1,0,0,triangle,circle,2,0,2,0,3,4,40,0,,,,,,,,,,,,,,,,,,,,,,,,,,,,,,,,,,,,,,,,516.3202095460147,516.3202095460147,516.3202095460147,516.3202095460147,516.3202095460147,516.3202095460147,516.3202095460147,516.3202095460147,516.3202095460147,516.3202095460147,l,0.8637715398799628,1,857,2,517.2211744480301,518.7060626449529,,,,,,,,,,,,,,,,,,,,,,,,,,,,,,,,,,,,,,,,,,,,,,,,,,,,,,,,,,,,,,,,,,,,,,,85891,2022-11-11_15h17.43.389,vts_reward_expectancy_bt_OFFLINE,2022.2.4,59.89083447841669,
0,1,0,0,1,0,0,0,circle,triangle,2,0,2,0,3,5,41,3,,,,,,,,,,,,,,,,,,,,,,,,,,,,,,,,,,,,,,,,519.2066426710226,519.2066426710226,519.2066426710226,519.2066426710226,519.2066426710226,519.2066426710226,519.2066426710226,519.2066426710226,519.2066426710226,519.2066426710226,a,0.4748606230132282,1,858,2,519.7088838529307,521.2088065780699,521.2088065780699,,,,,,,,,,,,,,,,,,,,,,,,,,,,,,,,,,,,,,,,,,,,,,,,,,,,,,,,,,,,,,,,,,,,,,85891,2022-11-11_15h17.43.389,vts_reward_expectancy_bt_OFFLINE,2022.2.4,59.89083447841669,
0,1,0,0,0,0,1,0,circle,hexagon,2,0,2,0,3,6,42,4,,,,,,,,,,,,,,,,,,,,,,,,,,,,,,,,,,,,,,,,521.709221797064,521.709221797064,521.709221797064,521.709221797064,521.709221797064,521.709221797064,521.709221797064,521.709221797064,521.709221797064,521.709221797064,l,0.593039324041456,1,859,2,522.3265641410835,523.828310620971,,,,,,,,,,,,,,,,,,,,,,,,,,,,,,,,,,,,,,,,,,,,,,,,,,,,,,,,,,,,,,,,,,,,,,,85891,2022-11-11_15h17.43.389,vts_reward_expectancy_bt_OFFLINE,2022.2.4,59.89083447841669,
0,0,0,1,0,1,0,0,star ,circle,2,0,2,0,3,7,43,10,,,,,,,,,,,,,,,,,,,,,,,,,,,,,,,,,,,,,,,,524.328698876081,524.328698876081,524.328698876081,524.328698876081,524.328698876081,524.328698876081,524.328698876081,524.328698876081,524.328698876081,524.328698876081,a,0.6296385871246457,1,860,2,524.9795997480396,526.4812842980027,,,,,,,,,,,,,,,,,,,,,,,,,,,,,,,,,,,,,,,,,,,,,,,,,,,,,,,,,,,,,,,,,,,,,,,85891,2022-11-11_15h17.43.389,vts_reward_expectancy_bt_OFFLINE,2022.2.4,59.89083447841669,
0,0,0,1,1,0,0,0,star,triangle,2,0,2,0,3,8,44,9,,,,,,,,,,,,,,,,,,,,,,,,,,,,,,,,,,,,,,,,526.9816865080502,526.9816865080502,526.9816865080502,526.9816865080502,526.9816865080502,526.9816865080502,526.9816865080502,526.9816865080502,526.9816865080502,526.9816865080502,a,0.7553375801071525,10,870,2,527.7668146609794,529.2675952510908,,,,,,,,,,,,,,,,,,,,,,,,,,,,,,,,,,,,,,,,,,,,,,,,,,,,,,,,,,,,,,,,,,,,,,,85891,2022-11-11_15h17.43.389,vts_reward_expectancy_bt_OFFLINE,2022.2.4,59.89083447841669,
0,0,1,0,0,1,0,0,hexagon,circle,2,0,2,0,3,9,45,7,,,,,,,,,,,,,,,,,,,,,,,,,,,,,,,,,,,,,,,,529.7682361779734,529.7682361779734,529.7682361779734,529.7682361779734,529.7682361779734,529.7682361779734,529.7682361779734,529.7682361779734,529.7682361779734,529.7682361779734,a,0.6685769688338041,10,880,2,530.4690669579431,531.9707030709833,,,,,,,,,,,,,,,,,,,,,,,,,,,,,,,,,,,,,,,,,,,,,,,,,,,,,,,,,,,,,,,,,,,,,,,85891,2022-11-11_15h17.43.389,vts_reward_expectancy_bt_OFFLINE,2022.2.4,59.89083447841669,
1,0,0,0,0,0,1,0,triangle,hexagon,2,0,2,0,3,10,46,1,,,,,,,,,,,,,,,,,,,,,,,,,,,,,,,,,,,,,,,,532.4713242580183,532.4713242580183,532.4713242580183,532.4713242580183,532.4713242580183,532.4713242580183,532.4713242580183,532.4713242580183,532.4713242580183,532.4713242580183,l,0.9129461359698325,10,890,2,533.405523641035,534.9071316760965,,,,,,,,,,,,,,,,,,,,,,,,,,,,,,,,,,,,,,,,,,,,,,,,,,,,,,,,,,,,,,,,,,,,,,,85891,2022-11-11_15h17.43.389,vts_reward_expectancy_bt_OFFLINE,2022.2.4,59.89083447841669,
0,0,0,1,0,0,1,0,star,hexagon,2,0,2,0,3,11,47,11,,,,,,,,,,,,,,,,,,,,,,,,,,,,,,,,,,,,,,,,535.4076675130054,535.4076675130054,535.4076675130054,535.4076675130054,535.4076675130054,535.4076675130054,535.4076675130054,535.4076675130054,535.4076675130054,535.4076675130054,l,1.712489329976961,10,900,2,537.1429200770799,538.6446141279303,,,,,,,,,,,,,,,,,,,,,,,,,,,,,,,,,,,,,,,,,,,,,,,,,,,,,,,,,,,,,,,,,,,,,,,85891,2022-11-11_15h17.43.389,vts_reward_expectancy_bt_OFFLINE,2022.2.4,59.89083447841669,
,,,,,,,,,,,,,,,,,,0,0,0,0,0,0,0,0,,,,,,,,,,,,,,,,,,,,,,,,,,,,,,,,,,,,,,,,,,,,,,,,574.5175899208989,,,W,125,hexagon,0.002029641065746546,570.880625423044,572.3817185510416,572.3817185510416,572.3817185510416,1,0,f,0.6069191829301417,0,573.0325106480159,,,,,,,,,,,,,,,,,,,,,,,,,,,,,,,,,,,,,,,,,,,,,,,,,,,,,,,85891,2022-11-11_15h17.43.389,vts_reward_expectancy_bt_OFFLINE,2022.2.4,59.89083447841669,
,,,,,,,,,,,,,,,,,,0,0,0,0,1,0,1,0,,,,,,,,,,,,,,,,,,,,,,,,,,,,,,,,,,,,,,,,,,,,,,,,579.1726706519257,,,B,181,circle,0.000992537010461092,575.5031931099948,577.0034288379829,577.0034288379829,577.0034288379829,1,0,d,0.6415218401234597,0,577.6709753200412,,,,,,,,,,,,,,,,,,,,,,,,,,,,,,,,,,,,,,,,,,,,,,,,,,,,,,,85891,2022-11-11_15h17.43.389,vts_reward_expectancy_bt_OFFLINE,2022.2.4,59.89083447841669,
,,,,,,,,,,,,,,,,,,0,0,0,0,2,0,2,0,,,,,,,,,,,,,,,,,,,,,,,,,,,,,,,,,,,,,,,,,,,,,,,,583.9612257359549,,,S,146,triangle,0.001357755158096552,580.1584271080792,581.6587084960192,581.6587084960192,581.6587084960192,1,0,f,0.7684922970365733,0,582.4596020819154,,,,,,,,,,,,,,,,,,,,,,,,,,,,,,,,,,,,,,,,,,,,,,,,,,,,,,,85891,2022-11-11_15h17.43.389,vts_reward_expectancy_bt_OFFLINE,2022.2.4,59.89083447841669,
,,,,,,,,,,,,,,,,,,0,0,0,0,3,0,3,0,,,,,,,,,,,,,,,,,,,,,,,,,,,,,,,,,,,,,,,,,,,,,,,,588.5994876478799,,,U,139,star,0.0014025908894836903,584.9625704309437,586.4472022610717,586.4472022610717,586.4472022610717,1,0,f,0.6262639809865505,0,587.0981262500864,,,,,,,,,,,,,,,,,,,,,,,,,,,,,,,,,,,,,,,,,,,,,,,,,,,,,,,85891,2022-11-11_15h17.43.389,vts_reward_expectancy_bt_OFFLINE,2022.2.4,59.89083447841669,
,,,,,,,,,,,,,,,,,,0,0,0,0,4,0,4,0,,,,,,,,,,,,,,,,,,,,,,,,,,,,,,,,,,,,,,,,,,,,,,,,593.2047911479603,,,Y,132,star,0.0014410859439522028,589.5839717050549,591.0856965000276,591.0856965000276,591.0856965000276,1,0,f,0.5908123429398984,0,591.7031610549893,,,,,,,,,,,,,,,,,,,,,,,,,,,,,,,,,,,,,,,,,,,,,,,,,,,,,,,85891,2022-11-11_15h17.43.389,vts_reward_expectancy_bt_OFFLINE,2022.2.4,59.89083447841669,
,,,,,,,,,,,,,,,,,,0,0,0,0,5,0,5,0,,,,,,,,,,,,,,,,,,,,,,,,,,,,,,,,,,,,,,,,,,,,,,,,597.5930052020121,,,H,167,hexagon,0.0015591559931635857,594.1905441109557,595.6909822050948,595.6909822050948,595.6909822050948,1,0,d,0.3741555621381849,0,596.091500652954,597.5930052020121,,,,,,,,,,,,,,,,,,,,,,,,,,,,,,,,,,,,,,,,,,,,,,,,,,,,,,85891,2022-11-11_15h17.43.389,vts_reward_expectancy_bt_OFFLINE,2022.2.4,59.89083447841669,
,,,,,,,,,,,,,,,,,,0,0,0,0,6,0,6,0,,,,,,,,,,,,,,,,,,,,,,,,,,,,,,,,,,,,,,,,,,,,,,,,602.2982867469545,,,F,174,circle,0.001118974993005395,598.5771634520497,600.0792641760781,600.0792641760781,600.0792641760781,1,0,d,0.6992162759415805,0,600.7964241199661,,,,,,,,,,,,,,,,,,,,,,,,,,,,,,,,,,,,,,,,,,,,,,,,,,,,,,,85891,2022-11-11_15h17.43.389,vts_reward_expectancy_bt_OFFLINE,2022.2.4,59.89083447841669,
,,,,,,,,,,,,,,,,,,0,0,0,0,7,0,7,0,,,,,,,,,,,,,,,,,,,,,,,,,,,,,,,,,,,,,,,,,,,,,,,,606.970070105046,,,D,160,triangle,0.001132739009335637,603.2826689700596,604.7843492699321,604.7843492699321,604.7843492699321,1,0,d,0.6612248711753637,0,605.4682814199477,,,,,,,,,,,,,,,,,,,,,,,,,,,,,,,,,,,,,,,,,,,,,,,,,,,,,,,85891,2022-11-11_15h17.43.389,vts_reward_expectancy_bt_OFFLINE,2022.2.4,59.89083447841669,
,,,,,,,,,,,,,,,,,,0,0,0,0,8,0,8,0,,,,,,,,,,,,,,,,,,,,,,,,,,,,,,,,,,,,,,,,,,,,,,,,611.6419029058889,,,W,125,star,0.0014041769318282604,607.9542658058926,609.456004807027,609.456004807027,609.456004807027,1,0,f,0.6586458620149642,0,610.1402139710262,611.6419029058889,,,,,,,,,,,,,,,,,,,,,,,,,,,,,,,,,,,,,,,,,,,,,,,,,,,,,,85891,2022-11-11_15h17.43.389,vts_reward_expectancy_bt_OFFLINE,2022.2.4,59.89083447841669,
,,,,,,,,,,,,,,,,,,0,0,0,0,9,0,9,0,,,,,,,,,,,,,,,,,,,,,,,,,,,,,,,,,,,,,,,,,,,,,,,,616.2804328100756,,,B,181,hexagon,0.0012086199130862951,612.6264050810132,614.1279150629416,614.1279150629416,614.1279150629416,1,0,d,0.624344154028222,0,614.7785583059303,,,,,,,,,,,,,,,,,,,,,,,,,,,,,,,,,,,,,,,,,,,,,,,,,,,,,,,85891,2022-11-11_15h17.43.389,vts_reward_expectancy_bt_OFFLINE,2022.2.4,59.89083447841669,
,,,,,,,,,,,,,,,,,,,,,,,,,,0,0,0,0,0,0,0,0,,,,,,,,,,,,,,,,,,,,,,,,,,,,,,,,,,,,,,,,643.160132202087,,,F,174,star,0.002173210959881544,,,,,1,0,,,1,641.6580915150698,,639.238968502963,640.740465231007,640.740465231007,640.740465231007,k,0.8891740459948778,,,,,,,,,,,,,,,,,,,,,,,,,,,,,,,,,,,,,,,,,,,,,,,,85891,2022-11-11_15h17.43.389,vts_reward_expectancy_bt_OFFLINE,2022.2.4,59.89083447841669,
,,,,,,,,,,,,,,,,,,,,,,,,,,0,0,0,0,1,0,1,0,,,,,,,,,,,,,,,,,,,,,,,,,,,,,,,,,,,,,,,,647.8317734019365,,,B,146,hexagon,0.0009663030505180359,,,,,1,0,,,1,646.3300999819767,,644.1443094569258,645.6458026780747,645.6458026780747,645.6458026780747,j,0.6633703240659088,,,,,,,,,,,,,,,,,,,,,,,,,,,,,,,,,,,,,,,,,,,,,,,,85891,2022-11-11_15h17.43.389,vts_reward_expectancy_bt_OFFLINE,2022.2.4,59.89083447841669,
,,,,,,,,,,,,,,,,,,,,,,,,,,0,0,0,0,2,0,2,0,,,,,,,,,,,,,,,,,,,,,,,,,,,,,,,,,,,,,,,,652.5536188760307,,,U,125,circle,0.0011964079458266497,,,,,1,0,,,1,651.0518718650565,,648.8158748769201,650.3177447048947,650.3177447048947,650.3177447048947,j,0.706743722781539,,,,,,,,,,,,,,,,,,,,,,,,,,,,,,,,,,,,,,,,,,,,,,,,85891,2022-11-11_15h17.43.389,vts_reward_expectancy_bt_OFFLINE,2022.2.4,59.89083447841669,
,,,,,,,,,,,,,,,,,,,,,,,,,,0,0,0,0,3,0,3,0,,,,,,,,,,,,,,,,,,,,,,,,,,,,,,,,,,,,,,,,657.125196893001,,,H,132,triangle,0.0014130629133433104,,,,,1,0,,,1,655.6237435929943,,653.5379688669927,655.0396466620732,655.0396466620732,655.0396466620732,j,0.562901210039854,,,,,,,,,,,,,,,,,,,,,,,,,,,,,,,,,,,,,,,,,,,,,,,,85891,2022-11-11_15h17.43.389,vts_reward_expectancy_bt_OFFLINE,2022.2.4,59.89083447841669,
,,,,,,,,,,,,,,,,,,,,,,,,,,0,0,0,0,4,0,4,0,,,,,,,,,,,,,,,,,,,,,,,,,,,,,,,,,,,,,,,,661.5969200360123,,,Y,167,circle,0.0012314640916883945,,,,,1,0,,,1,660.0952288210392,,658.1098786760122,659.6114462430123,659.6114462430123,659.6114462430123,k,0.45729616982862353,,,,,,,,,,,,,,,,,,,,,,,,,,,,,,,,,,,,,,,,,,,,,,,,85891,2022-11-11_15h17.43.389,vts_reward_expectancy_bt_OFFLINE,2022.2.4,59.89083447841669,
,,,,,,,,,,,,,,,,,,,,,,,,,,0,0,0,0,5,0,5,0,,,,,,,,,,,,,,,,,,,,,,,,,,,,,,,,,,,,,,,,666.1520931399427,,,D,160,hexagon,0.001395365921780467,,,,,1,0,,,1,664.6502514230087,,662.5811818828806,664.0828868229873,664.0828868229873,664.0828868229873,k,0.5425052400678396,,,,,,,,,,,,,,,,,,,,,,,,,,,,,,,,,,,,,,,,,,,,,,,,85891,2022-11-11_15h17.43.389,vts_reward_expectancy_bt_OFFLINE,2022.2.4,59.89083447841669,
,,,,,,,,,,,,,,,,,,,,,,,,,,0,0,0,0,6,0,6,0,,,,,,,,,,,,,,,,,,,,,,,,,,,,,,,,,,,,,,,,670.6735464408994,,,W,139,star,0.0013559150975197554,,,,,1,0,,,1,669.1718673328869,,667.1363223700318,668.6381817730144,668.6381817730144,668.6381817730144,j,0.5095682400278747,,,,,,,,,,,,,,,,,,,,,,,,,,,,,,,,,,,,,,,,,,,,,,,,85891,2022-11-11_15h17.43.389,vts_reward_expectancy_bt_OFFLINE,2022.2.4,59.89083447841669,
,,,,,,,,,,,,,,,,,,,,,,,,,,0,0,0,0,7,0,7,0,,,,,,,,,,,,,,,,,,,,,,,,,,,,,,,,,,,,,,,,675.1117719120812,,,S,181,triangle,0.001190486829727888,,,,,1,0,,,1,673.6103642228991,,671.6579123470001,673.1599236899056,673.1599236899056,673.1599236899056,k,0.4219308630563319,,,,,,,,,,,,,,,,,,,,,,,,,,,,,,,,,,,,,,,,,,,,,,,,85891,2022-11-11_15h17.43.389,vts_reward_expectancy_bt_OFFLINE,2022.2.4,59.89083447841669,
,,,,,,,,,,,,,,,,,,,,,,,,,,0,0,0,0,8,0,8,0,,,,,,,,,,,,,,,,,,,,,,,,,,,,,,,,,,,,,,,,679.650187687017,,,F,174,hexagon,0.0012646941468119621,,,,,1,0,,,1,678.148592753103,,676.0961322900839,677.5980002279393,677.5980002279393,677.5980002279393,k,0.5181839598808438,,,,,,,,,,,,,,,,,,,,,,,,,,,,,,,,,,,,,,,,,,,,,,,,85891,2022-11-11_15h17.43.389,vts_reward_expectancy_bt_OFFLINE,2022.2.4,59.89083447841669,
,,,,,,,,,,,,,,,,,,,,,,,,,,0,0,0,0,9,0,9,0,,,,,,,,,,,,,,,,,,,,,,,,,,,,,,,,,,,,,,,,684.1720430999994,,,B,146,star,0.0013842328917235136,,,,,1,0,,,1,682.6703115280252,,680.6346662929282,682.1362016119529,682.1362016119529,682.1362016119529,j,0.5017803180962801,,,,,,,,,,,,,,,,,,,,,,,,,,,,,,,,,,,,,,,,,,,,,,,,85891,2022-11-11_15h17.43.389,vts_reward_expectancy_bt_OFFLINE,2022.2.4,59.89083447841669,
,,,,,,,,,,,,,,,,,,,,,,,,,,,,,,,,,,0,0,0,0,0,0,0,0,,,,,,,,,,,,,,,,,,,,,,,,,,,,0,900,,,741.585302591091,,,W,167,triangle,0.002051715040579438,,,,,0,0,,,2,,,,,,,,,736.6797734769061,736.6797734769061,736.6797734769061,736.6797734769061,738.1648455848917,738.1648455848917,738.1648455848917,738.1648455848917,738.1814295810182,738.1814295810182,738.1814295810182,738.1814295810182,-1,letter,NA,d,1.886844159802422,vtsPrac,740.0834135028999,741.585302591091,,,,,,,,,,,,,,,,,,,,,,,,,,,,85891,2022-11-11_15h17.43.389,vts_reward_expectancy_bt_OFFLINE,2022.2.4,59.89083447841669,
,,,,,,,,,,,,,,,,,,,,,,,,,,,,,,,,,,0,0,0,0,1,0,1,0,,,,,,,,,,,,,,,,,,,,,,,,,,,,0,900,,,748.442772415001,,,Y,174,hexagon,0.001000385032966733,,,,,1,1,,,2,,,,,,,,,742.5704432900529,742.5704432900529,742.5704432900529,742.5704432900529,744.0713738100603,744.0713738100603,744.0713738100603,744.0713738100603,744.0713738100603,744.0713738100603,744.0713738100603,744.0713738100603,repeat,letter,lettRpt,f,2.8437576168216765,vtsPrac,746.9581341480371,,,,,,,,,,,,,,,,,,,,,,,,,,,,,85891,2022-11-11_15h17.43.389,vts_reward_expectancy_bt_OFFLINE,2022.2.4,59.89083447841669,
,,,,,,,,,,,,,,,,,,,,,,,,,,,,,,,,,,0,0,0,0,2,0,2,0,,,,,,,,,,,,,,,,,,,,,,,,,,,,0,900,,,753.3480728580616,,,D,181,triangle,0.0015370389446616173,,,,,1,0,,,2,,,,,,,,,749.427933847066,749.427933847066,749.427933847066,749.427933847066,750.9288555679377,750.9288555679377,750.9288555679377,750.9288555679377,750.9288555679377,750.9288555679377,750.9288555679377,750.9288555679377,repeat,letter,lettRpt,d,0.8909102778416127,vtsPrac,751.8464599980507,,,,,,,,,,,,,,,,,,,,,,,,,,,,,85891,2022-11-11_15h17.43.389,vts_reward_expectancy_bt_OFFLINE,2022.2.4,59.89083447841669,
,,,,,,,,,,,,,,,,,,,,,,,,,,,,,,,,,,0,0,0,0,3,0,3,0,,,,,,,,,,,,,,,,,,,,,,,,,,,,0,900,,,757.953321107896,,,F,132,circle,0.0012936799321323633,,,,,1,0,,,2,,,,,,,,,754.3333877068944,754.3333877068944,754.3333877068944,754.3333877068944,755.8343752310611,755.8343752310611,755.8343752310611,755.8343752310611,755.8343752310611,755.8343752310611,755.8343752310611,755.8343752310611,switch,number,numSwt,j,0.599751811940223,vtsPrac,756.451646547066,757.953321107896,,,,,,,,,,,,,,,,,,,,,,,,,,,,85891,2022-11-11_15h17.43.389,vts_reward_expectancy_bt_OFFLINE,2022.2.4,59.89083447841669,
,,,,,,,,,,,,,,,,,,,,,,,,,,,,,,,,,,0,0,0,0,4,0,4,0,,,,,,,,,,,,,,,,,,,,,,,,,,,,0,900,,,762.5917169728782,,,W,167,hexagon,0.000700764125213027,,,,,1,0,,,2,,,,,,,,,758.9382636419032,758.9382636419032,758.9382636419032,758.9382636419032,760.4392273479607,760.4392273479607,760.4392273479607,760.4392273479607,760.4392273479607,760.4392273479607,760.4392273479607,760.4392273479607,repeat,number,numRpt,k,0.6279839309863746,vtsPrac,761.0900952029042,,,,,,,,,,,,,,,,,,,,,,,,,,,,,85891,2022-11-11_15h17.43.389,vts_reward_expectancy_bt_OFFLINE,2022.2.4,59.89083447841669,
,,,,,,,,,,,,,,,,,,,,,,,,,,,,,,,,,,0,0,0,0,5,0,5,0,,,,,,,,,,,,,,,,,,,,,,,,,,,,0,900,,,767.3970761250239,,,Y,174,circle,0.0014028181321918964,,,,,1,0,,,2,,,,,,,,,763.5760924250353,763.5760924250353,763.5760924250353,763.5760924250353,765.0778731019236,765.0778731019236,765.0778731019236,765.0778731019236,765.0778731019236,765.0778731019236,765.0778731019236,765.0778731019236,switch,letter,lettSwt,f,0.7934847068972886,vtsPrac,765.8953317480627,,,,,,,,,,,,,,,,,,,,,,,,,,,,,85891,2022-11-11_15h17.43.389,vts_reward_expectancy_bt_OFFLINE,2022.2.4,59.89083447841669,
,,,,,,,,,,,,,,,,,,,,,,,,,,,,,,,,,,0,0,0,0,6,0,6,0,,,,,,,,,,,,,,,,,,,,,,,,,,,,0,900,,,772.8531461209059,,,D,181,hexagon,0.0014077459927648306,,,,,1,0,,,2,,,,,,,,,768.3818166248966,768.3818166248966,768.3818166248966,768.3818166248966,769.8831128359307,769.8831128359307,769.8831128359307,769.8831128359307,769.8831128359307,769.8831128359307,769.8831128359307,769.8831128359307,switch,number,numSwt,k,1.4356800739187747,vtsPrac,771.3513689930551,,,,,,,,,,,,,,,,,,,,,,,,,,,,,85891,2022-11-11_15h17.43.389,vts_reward_expectancy_bt_OFFLINE,2022.2.4,59.89083447841669,
,,,,,,,,,,,,,,,,,,,,,,,,,,,,,,,,,,0,0,0,0,7,0,7,0,,,,,,,,,,,,,,,,,,,,,,,,,,,,0,900,,,778.3091197919566,,,F,132,circle,0.0013597600627690554,,,,,1,0,,,2,,,,,,,,,773.8375731559936,773.8375731559936,773.8375731559936,773.8375731559936,775.339003121946,775.339003121946,775.339003121946,775.339003121946,775.339003121946,775.339003121946,775.339003121946,775.339003121946,switch,letter,lettSwt,d,1.4454300538636744,vtsPrac,776.8074017849285,,,,,,,,,,,,,,,,,,,,,,,,,,,,,85891,2022-11-11_15h17.43.389,vts_reward_expectancy_bt_OFFLINE,2022.2.4,59.89083447841669,
,,,,,,,,,,,,,,,,,,,,,,,,,,,,,,,,,,0,0,0,0,8,0,8,0,,,,,,,,,,,,,,,,,,,,,,,,,,,,0,900,,,782.8805306970607,,,Y,167,triangle,0.0014075478538870811,,,,,1,0,,,2,,,,,,,,,779.2934188209474,779.2934188209474,779.2934188209474,779.2934188209474,780.794994302094,780.794994302094,780.794994302094,780.794994302094,780.794994302094,780.794994302094,780.794994302094,780.794994302094,switch,number,numSwt,k,0.5583051168359816,vtsPrac,781.3791623909492,,,,,,,,,,,,,,,,,,,,,,,,,,,,,85891,2022-11-11_15h17.43.389,vts_reward_expectancy_bt_OFFLINE,2022.2.4,59.89083447841669,
,,,,,,,,,,,,,,,,,,,,,,,,,,,,,,,,,,0,0,0,0,9,0,9,0,,,,,,,,,,,,,,,,,,,,,,,,,,,,0,900,,,787.5193182849325,,788.0199055499397,U,139,circle,0.001385255018249154,,,,,1,0,,,2,,,,,,,,,783.8664881000295,783.8664881000295,783.8664881000295,783.8664881000295,785.3669402720407,785.3669402720407,785.3669402720407,785.3669402720407,785.3669402720407,785.3669402720407,785.3669402720407,785.3669402720407,repeat,number,numRpt,j,0.6343867818359286,vtsPrac,786.0178239319939,787.5193182849325,,,,,,,,,,,,,,,,,,,,,,,,,,,,85891,2022-11-11_15h17.43.389,vts_reward_expectancy_bt_OFFLINE,2022.2.4,59.89083447841669,
,,,,,,,,,,,,,,,,,,,,,,,,,,,,,,,,,,0,0,0,0,10,0,10,0,,,,,,,,,,,,,,,,,,,,,,,,,,,,0,900,,,793.0250022560358,,,H,132,star,0.0006670409347862005,,,,,1,0,,,2,,,,,,,,,788.5036002760753,788.5036002760753,788.5036002760753,788.5036002760753,790.00531275291,790.00531275291,790.00531275291,790.00531275291,790.00531275291,790.00531275291,790.00531275291,790.00531275291,switch,letter,lettSwt,d,1.4955634400248528,vtsPrac,791.5234365900978,793.0250022560358,,,,,,,,,,,,,,,,,,,,,,,,,,,,85891,2022-11-11_15h17.43.389,vts_reward_expectancy_bt_OFFLINE,2022.2.4,59.89083447841669,
,,,,,,,,,,,,,,,,,,,,,,,,,,,,,,,,,,0,0,0,0,11,0,11,0,,,,,,,,,,,,,,,,,,,,,,,,,,,,0,900,,,798.5145746199414,,,D,181,circle,0.000769834965467453,,,,,1,0,,,2,,,,,,,,,794.0098771119956,794.0098771119956,794.0098771119956,794.0098771119956,795.5112446430139,795.5112446430139,795.5112446430139,795.5112446430139,795.5112446430139,795.5112446430139,795.5112446430139,795.5112446430139,switch,number,numSwt,k,1.469344951910898,vtsPrac,797.0128789010923,,,,,,,,,,,,,,,,,,,,,,,,,,,,,85891,2022-11-11_15h17.43.389,vts_reward_expectancy_bt_OFFLINE,2022.2.4,59.89083447841669,
,,,,,,,,,,,,,,,,,,,,,,,,,,,,,,,,,,0,0,0,0,12,0,12,0,,,,,,,,,,,,,,,,,,,,,,,,,,,,0,900,,,803.2531461250037,,,D,132,star,0.0013973009772598743,,,,,1,0,,,2,,,,,,,,,799.4990767079871,799.4990767079871,799.4990767079871,799.4990767079871,801.0007795370184,801.0007795370184,801.0007795370184,801.0007795370184,801.0007795370184,801.0007795370184,801.0007795370184,801.0007795370184,repeat,number,numRpt,j,0.7269278159365058,vtsPrac,801.7514910919126,,,,,,,,,,,,,,,,,,,,,,,,,,,,,85891,2022-11-11_15h17.43.389,vts_reward_expectancy_bt_OFFLINE,2022.2.4,59.89083447841669,
,,,,,,,,,,,,,,,,,,,,,,,,,,,,,,,,,,0,0,0,0,13,0,13,0,,,,,,,,,,,,,,,,,,,,,,,,,,,,0,900,,,808.5924344130326,,,S,174,triangle,0.0012611160054802895,,,,,1,0,,,2,,,,,,,,,804.2376437920611,804.2376437920611,804.2376437920611,804.2376437920611,805.739197667921,805.739197667921,805.739197667921,805.739197667921,805.739197667921,805.739197667921,805.739197667921,805.739197667921,switch,letter,lettSwt,f,1.3209770030807704,vtsPrac,807.0906391360331,808.5924344130326,,,,,,,,,,,,,,,,,,,,,,,,,,,,85891,2022-11-11_15h17.43.389,vts_reward_expectancy_bt_OFFLINE,2022.2.4,59.89083447841669,
,,,,,,,,,,,,,,,,,,,,,,,,,,,,,,,,,,0,0,0,0,14,0,14,0,,,,,,,,,,,,,,,,,,,,,,,,,,,,0,900,,,813.6314878959674,,,H,167,circle,0.0009507779031991959,,,,,1,0,,,2,,,,,,,,,809.5768040861003,809.5768040861003,809.5768040861003,809.5768040861003,811.0784020209685,811.0784020209685,811.0784020209685,811.0784020209685,811.0784020209685,811.0784020209685,811.0784020209685,811.0784020209685,repeat,letter,lettRpt,d,1.0238851620815694,vtsPrac,812.1297787700314,,,,,,,,,,,,,,,,,,,,,,,,,,,,,85891,2022-11-11_15h17.43.389,vts_reward_expectancy_bt_OFFLINE,2022.2.4,59.89083447841669,
,,,,,,,,,,,,,,,,,,,,,,,,,,,,,,,,,,0,0,0,0,15,0,15,0,,,,,,,,,,,,,,,,,,,,,,,,,,,,0,900,,,818.1695646650624,,,B,160,triangle,0.0014024239499121904,,,,,1,0,,,2,,,,,,,,,814.6322913900949,814.6322913900949,814.6322913900949,814.6322913900949,816.1175162200816,816.1175162200816,816.1175162200816,816.1175162200816,816.1342987229582,816.1342987229582,816.1342987229582,816.1342987229582,repeat,letter,lettRpt,d,0.528169411001727,vtsPrac,816.6680521829985,,,,,,,,,,,,,,,,,,,,,,,,,,,,,85891,2022-11-11_15h17.43.389,vts_reward_expectancy_bt_OFFLINE,2022.2.4,59.89083447841669,
,,,,,,,,,,,,,,,,,,,,,,,,,,,,,,,,,,0,0,0,0,16,0,16,0,,,,,,,,,,,,,,,,,,,,,,,,,,,,0,900,,,825.1774343519937,,,B,160,circle,0.0011556069366633892,,,,,-1,0,,,2,,,,,,,,,819.1541455879342,819.1541455879342,819.1541455879342,819.1541455879342,820.6558190730866,820.6558190730866,820.6558190730866,820.6558190730866,820.6558190730866,820.6558190730866,820.6558190730866,820.6558190730866,switch,no_choice,NA,None,,vtsPrac,823.6758022699505,,823.6758022699505,823.6758022699505,823.6758022699505,823.6758022699505,,,,,,,,,,,,,,,,,,,,,,,,85891,2022-11-11_15h17.43.389,vts_reward_expectancy_bt_OFFLINE,2022.2.4,59.89083447841669,
,,,,,,,,,,,,,,,,,,,,,,,,,,,,,,,,,,0,0,0,0,17,0,17,0,,,,,,,,,,,,,,,,,,,,,,,,,,,,0,900,,,830.0493303169496,,,F,146,triangle,0.009039795957505703,,,,,1,0,,,2,,,,,,,,,826.1618972648866,826.1618972648866,826.1618972648866,826.1618972648866,827.6634566169232,827.6634566169232,827.6634566169232,827.6634566169232,827.6634566169232,827.6634566169232,827.6634566169232,827.6634566169232,switch,number,numSwt,j,0.840927513083443,vtsPrac,828.5477265620138,,,,,,,,,,,,,,,,,,,,,,,,,,,,,85891,2022-11-11_15h17.43.389,vts_reward_expectancy_bt_OFFLINE,2022.2.4,59.89083447841669,
,,,,,,,,,,,,,,,,,,,,,,,,,,,,,,,,,,0,0,0,0,18,0,18,0,,,,,,,,,,,,,,,,,,,,,,,,,,,,0,900,,,835.3885092330165,,,H,139,star,0.001037134788930416,,,,,1,0,,,2,,,,,,,,,831.0173129800241,831.0173129800241,831.0173129800241,831.0173129800241,832.5188413779251,832.5188413779251,832.5188413779251,832.5188413779251,832.5188413779251,832.5188413779251,832.5188413779251,832.5188413779251,switch,letter,lettSwt,d,1.3413966000080109,vtsPrac,833.8868800580967,,,,,,,,,,,,,,,,,,,,,,,,,,,,,85891,2022-11-11_15h17.43.389,vts_reward_expectancy_bt_OFFLINE,2022.2.4,59.89083447841669,
,,,,,,,,,,,,,,,,,,,,,,,,,,,,,,,,,,0,0,0,0,19,0,19,0,,,,,,,,,,,,,,,,,,,,,,,,,,,,0,900,,,840.0271289399825,,,S,174,triangle,0.0011816511396318674,,,,,1,0,,,2,,,,,,,,,836.373082539998,836.373082539998,836.373082539998,836.373082539998,837.874692308018,837.874692308018,837.874692308018,837.874692308018,837.874692308018,837.874692308018,837.874692308018,837.874692308018,switch,number,numSwt,k,0.6335440669208765,vtsPrac,838.5254453159869,840.0271289399825,,,,,,,,,,,,,,,,,,,,,,,,,,,,85891,2022-11-11_15h17.43.389,vts_reward_expectancy_bt_OFFLINE,2022.2.4,59.89083447841669,
,,,,,,,,,,,,,,,,,,,,,,,,,,,,,,,,,,0,0,0,0,20,0,20,0,,,,,,,,,,,,,,,,,,,,,,,,,,,,0,900,,,844.8825661109295,,,B,167,circle,0.0007672598585486412,,,,,1,0,,,2,,,,,,,,,841.011775800027,841.011775800027,841.011775800027,841.011775800027,842.5132147918921,842.5132147918921,842.5132147918921,842.5132147918921,842.5132147918921,842.5132147918921,842.5132147918921,842.5132147918921,repeat,number,numRpt,k,0.8423722099978477,vtsPrac,843.3809299669228,,,,,,,,,,,,,,,,,,,,,,,,,,,,,85891,2022-11-11_15h17.43.389,vts_reward_expectancy_bt_OFFLINE,2022.2.4,59.89083447841669,
,,,,,,,,,,,,,,,,,,,,,,,,,,,,,,,,,,0,0,0,0,21,0,21,0,,,,,,,,,,,,,,,,,,,,,,,,,,,,0,900,,,849.571032167878,,,U,125,star,0.0011984810698777437,,,,,1,0,,,2,,,,,,,,,845.8669767549727,845.8669767549727,845.8669767549727,845.8669767549727,847.3687722510658,847.3687722510658,847.3687722510658,847.3687722510658,847.3687722510658,847.3687722510658,847.3687722510658,847.3687722510658,repeat,number,numRpt,j,0.6788690800312907,vtsPrac,848.0695576230064,,,,,,,,,,,,,,,,,,,,,,,,,,,,,85891,2022-11-11_15h17.43.389,vts_reward_expectancy_bt_OFFLINE,2022.2.4,59.89083447841669,
,,,,,,,,,,,,,,,,,,,,,,,,,,,,,,,,,,0,0,0,0,22,0,22,0,,,,,,,,,,,,,,,,,,,,,,,,,,,,0,900,,,854.292773521971,,,D,181,triangle,0.001127038849517703,,,,,1,0,,,2,,,,,,,,,850.5553692348767,850.5553692348767,850.5553692348767,850.5553692348767,852.0570206479169,852.0570206479169,852.0570206479169,852.0570206479169,852.0570206479169,852.0570206479169,852.0570206479169,852.0570206479169,switch,letter,lettSwt,d,0.7038218029774725,vtsPrac,852.7913754170295,854.292773521971,,,,,,,,,,,,,,,,,,,,,,,,,,,,85891,2022-11-11_15h17.43.389,vts_reward_expectancy_bt_OFFLINE,2022.2.4,59.89083447841669,
,,,,,,,,,,,,,,,,,,,,,,,,,,,,,,,,,,0,0,0,0,23,0,23,0,,,,,,,,,,,,,,,,,,,,,,,,,,,,0,900,,,859.4153022319078,,,S,160,hexagon,0.0005648280493915081,,,,,1,0,,,2,,,,,,,,,855.2772223970387,855.2772223970387,855.2772223970387,855.2772223970387,856.7789410720579,856.7789410720579,856.7789410720579,856.7789410720579,856.7789410720579,856.7789410720579,856.7789410720579,856.7789410720579,repeat,letter,lettRpt,f,1.1022806169930845,vtsPrac,857.9136504319031,,,,,,,,,,,,,,,,,,,,,,,,,,,,,85891,2022-11-11_15h17.43.389,vts_reward_expectancy_bt_OFFLINE,2022.2.4,59.89083447841669,
,,,,,,,,,,,,,,,,,,,,,,,,,,,,,,,,,,0,0,0,0,24,0,24,0,,,,,,,,,,,,,,,,,,,,,,,,,,,,0,900,,,864.187173519982,,,H,132,hexagon,0.0011007750872522593,,,,,1,0,,,2,,,,,,,,,860.3995430169161,860.3995430169161,860.3995430169161,860.3995430169161,861.9012249130756,861.9012249130756,861.9012249130756,861.9012249130756,861.9012249130756,861.9012249130756,861.9012249130756,861.9012249130756,switch,number,numSwt,j,0.7613298979122192,vtsPrac,862.6853962419555,,,,,,,,,,,,,,,,,,,,,,,,,,,,,85891,2022-11-11_15h17.43.389,vts_reward_expectancy_bt_OFFLINE,2022.2.4,59.89083447841669,
,,,,,,,,,,,,,,,,,,,,,,,,,,,,,,,,,,0,0,0,0,25,0,25,0,,,,,,,,,,,,,,,,,,,,,,,,,,,,0,900,,,869.3594125059899,,,B,160,star,0.0015035381074994802,,,,,1,0,,,2,,,,,,,,,865.1714668779168,865.1714668779168,865.1714668779168,865.1714668779168,866.673314757878,866.673314757878,866.673314757878,866.673314757878,866.673314757878,866.673314757878,866.673314757878,866.673314757878,switch,letter,lettSwt,d,1.1636152209248394,vtsPrac,867.8576077930629,,,,,,,,,,,,,,,,,,,,,,,,,,,,,85891,2022-11-11_15h17.43.389,vts_reward_expectancy_bt_OFFLINE,2022.2.4,59.89083447841669,
,,,,,,,,,,,,,,,,,,,,,,,,,,,,,,,,,,0,0,0,0,26,0,26,0,,,,,,,,,,,,,,,,,,,,,,,,,,,,0,900,,,875.0491023869254,,,F,167,hexagon,0.00122539303265512,,,,,1,0,,,2,,,,,,,,,870.3438172580209,870.3438172580209,870.3438172580209,870.3438172580209,871.8456366010942,871.8456366010942,871.8456366010942,871.8456366010942,871.8456366010942,871.8456366010942,871.8456366010942,871.8456366010942,repeat,letter,lettRpt,d,1.6749084340408444,vtsPrac,873.54765257705,,,,,,,,,,,,,,,,,,,,,,,,,,,,,85891,2022-11-11_15h17.43.389,vts_reward_expectancy_bt_OFFLINE,2022.2.4,59.89083447841669,
,,,,,,,,,,,,,,,,,,,,,,,,,,,,,,,,,,0,0,0,0,27,0,27,0,,,,,,,,,,,,,,,,,,,,,,,,,,,,0,900,,,879.7208024179563,,,S,125,circle,0.0011873580515384674,,,,,1,0,,,2,,,,,,,,,876.0335649109911,876.0335649109911,876.0335649109911,876.0335649109911,877.5353208309971,877.5353208309971,877.5353208309971,877.5353208309971,877.5353208309971,877.5353208309971,877.5353208309971,877.5353208309971,switch,number,numSwt,j,0.6648343179840595,vtsPrac,878.2190737959463,,,,,,,,,,,,,,,,,,,,,,,,,,,,,85891,2022-11-11_15h17.43.389,vts_reward_expectancy_bt_OFFLINE,2022.2.4,59.89083447841669,
,,,,,,,,,,,,,,,,,,,,,,,,,,,,,,,,,,0,0,0,0,28,0,28,0,,,,,,,,,,,,,,,,,,,,,,,,,,,,0,900,,,885.1102533079684,,,U,125,hexagon,0.0009825199376791716,,,,,1,0,,,2,,,,,,,,,880.7052808569279,880.7052808569279,880.7052808569279,880.7052808569279,882.2068642019294,882.2068642019294,882.2068642019294,882.2068642019294,882.2068642019294,882.2068642019294,882.2068642019294,882.2068642019294,repeat,number,numRpt,j,1.3704518859740347,vtsPrac,883.6084455410019,,,,,,,,,,,,,,,,,,,,,,,,,,,,,85891,2022-11-11_15h17.43.389,vts_reward_expectancy_bt_OFFLINE,2022.2.4,59.89083447841669,
