LTriangleOpac,LCircleOpac,LHexagonOpac,LStarOpac,RTriangleOpac,RCircleOpac,RHexagonOpac,RStarOpac,LShape_ID,RShape_ID,training_blocks.thisRepN,training_blocks.thisTrialN,training_blocks.thisN,training_blocks.thisIndex,training.thisRepN,training.thisTrialN,training.thisN,training.thisIndex,task1_prac_redo.thisRepN,task1_prac_redo.thisTrialN,task1_prac_redo.thisN,task1_prac_redo.thisIndex,task1_prac_trials.thisRepN,task1_prac_trials.thisTrialN,task1_prac_trials.thisN,task1_prac_trials.thisIndex,task2_prac_redo.thisRepN,task2_prac_redo.thisTrialN,task2_prac_redo.thisN,task2_prac_redo.thisIndex,task2_praac_trials.thisRepN,task2_praac_trials.thisTrialN,task2_praac_trials.thisN,task2_praac_trials.thisIndex,vts_prac_redo.thisRepN,vts_prac_redo.thisTrialN,vts_prac_redo.thisN,vts_prac_redo.thisIndex,vts_practice_trials.thisRepN,vts_practice_trials.thisTrialN,vts_practice_trials.thisN,vts_practice_trials.thisIndex,trials_norew.thisRepN,trials_norew.thisTrialN,trials_norew.thisN,trials_norew.thisIndex,block.thisRepN,block.thisTrialN,block.thisN,block.thisIndex,trials_rew.thisRepN,trials_rew.thisTrialN,trials_rew.thisN,trials_rew.thisIndex,key_resp.started,key_resp.keys,key_resp.rt,left_circle.started,right_circle.started,left_triangle.started,right_triangle.started,left_star.started,right_star.started,left_hexagon.started,right_hexagon.started,training_fix.started,training_resp.started,training_resp.keys,training_resp.rt,points_trial,points_cumul,trainBlock,training_feedback_txt.started,fix.started,training_feedback_txt.stopped,fix.stopped,curr_topStim,curr_bottStim,curr_shape,ISI.started,tgt_fix_prac1.started,top_target_prac1.started,bott_target_prac1.started,target_resp_prac1.started,acc,E1,target_resp_prac1.keys,target_resp_prac1.rt,pracBlock,prac_fback_text.started,prac_fback_text.stopped,tgt_fix_prac2.started,top_target_prac2.started,bott_target_prac2.started,target_resp_prac2.started,target_resp_prac2.keys,target_resp_prac2.rt,star.started,hegagon.started,triangle.started,circle.started,top_target.started,tgt_fix.started,bot_target.started,target_resp.started,star.stopped,hegagon.stopped,triangle.stopped,circle.stopped,alt,task,condition,target_resp.keys,target_resp.rt,rewCond,vts_fback.started,vts_fback.stopped,blockNum,norew_fback.started,norew_fback.stopped,key_resp_2.keys,key_resp_2.rt,rewExpectancy,feedbk_text.started,feedbk_text.stopped,text_3.started,debrief.started,text_3.stopped,button.started,debrief.index,debrief.itemText,debrief.type,debrief.granularity,debrief.font,debrief.markerColor,debrief.response,debrief.rt,button.numClicks,button.timesOn,button.timesOff,participant,date,expName,psychopyVersion,frameRate,
,,,,,,,,,,,,,,,,,,,,,,,,,,,,,,,,,,,,,,,,,,,,,,,,,,,,,,203.27139516593888,space,3.0704428548924625,,,,,,,,,,,,,,,,,,,,,,,,,,,,,,,,,,,,,,,,,,,,,,,,,,,,,,,,,,,,,,,,,,,,,,,,,,,,,,,,,,,,86462,2022-11-28_10h32.38.705,vts_reward_expectancy_bt_OFFLINE,2022.2.4,59.99635766952201,
0,0,0,1,0,1,0,0,star ,circle,0,0,0,0,0,0,0,10,,,,,,,,,,,,,,,,,,,,,,,,,,,,,,,,,,,,,,,,207.47642374318093,207.47642374318093,207.47642374318093,207.47642374318093,207.47642374318093,207.47642374318093,207.47642374318093,207.47642374318093,207.47642374318093,207.47642374318093,a,109.40254780603573,0,0,0,316.9113471270539,318.41355532221496,,,,,,,,,,,,,,,,,,,,,,,,,,,,,,,,,,,,,,,,,,,,,,,,,,,,,,,,,,,,,,,,,,,86462,2022-11-28_10h32.38.705,vts_reward_expectancy_bt_OFFLINE,2022.2.4,59.99635766952201,
0,0,0,1,1,0,0,0,star,triangle,0,0,0,0,0,1,1,9,,,,,,,,,,,,,,,,,,,,,,,,,,,,,,,,,,,,,,,,318.9138796380721,318.9138796380721,318.9138796380721,318.9138796380721,318.9138796380721,318.9138796380721,318.9138796380721,318.9138796380721,318.9138796380721,318.9138796380721,a,7.944473574869335,1,1,0,326.8871024809778,328.3875596700236,,,,,,,,,,,,,,,,,,,,,,,,,,,,,,,,,,,,,,,,,,,,,,,,,,,,,,,,,,,,,,,,,,,86462,2022-11-28_10h32.38.705,vts_reward_expectancy_bt_OFFLINE,2022.2.4,59.99635766952201,
1,0,0,0,0,0,0,1,triangle,star,0,0,0,0,0,2,2,2,,,,,,,,,,,,,,,,,,,,,,,,,,,,,,,,,,,,,,,,328.8878518049605,328.8878518049605,328.8878518049605,328.8878518049605,328.8878518049605,328.8878518049605,328.8878518049605,328.8878518049605,328.8878518049605,328.8878518049605,a,3.8771145092323422,1,2,0,332.789083075244,334.2915620333515,,,,,,,,,,,,,,,,,,,,,,,,,,,,,,,,,,,,,,,,,,,,,,,,,,,,,,,,,,,,,,,,,,,86462,2022-11-28_10h32.38.705,vts_reward_expectancy_bt_OFFLINE,2022.2.4,59.99635766952201,
0,0,0,1,0,0,1,0,star,hexagon,0,0,0,0,0,3,3,11,,,,,,,,,,,,,,,,,,,,,,,,,,,,,,,,,,,,,,,,334.79180634813383,334.79180634813383,334.79180634813383,334.79180634813383,334.79180634813383,334.79180634813383,334.79180634813383,334.79180634813383,334.79180634813383,334.79180634813383,a,7.761112723033875,10,12,0,342.5807530521415,344.0821126671508,,,,,,,,,,,,,,,,,,,,,,,,,,,,,,,,,,,,,,,,,,,,,,,,,,,,,,,,,,,,,,,,,,,86462,2022-11-28_10h32.38.705,vts_reward_expectancy_bt_OFFLINE,2022.2.4,59.99635766952201,
0,0,1,0,0,0,0,1,hexagon,star,0,0,0,0,0,4,4,8,,,,,,,,,,,,,,,,,,,,,,,,,,,,,,,,,,,,,,,,344.582545527257,344.582545527257,344.582545527257,344.582545527257,344.582545527257,344.582545527257,344.582545527257,344.582545527257,344.582545527257,344.582545527257,a,1.8633529772050679,1,13,0,346.46703282929957,347.9669408793561,347.9669408793561,,,,,,,,,,,,,,,,,,,,,,,,,,,,,,,,,,,,,,,,,,,,,,,,,,,,,,,,,,,,,,,,,,86462,2022-11-28_10h32.38.705,vts_reward_expectancy_bt_OFFLINE,2022.2.4,59.99635766952201,
0,0,1,0,1,0,0,0,hexagon,triangle,0,0,0,0,0,5,5,6,,,,,,,,,,,,,,,,,,,,,,,,,,,,,,,,,,,,,,,,348.46886996133253,348.46886996133253,348.46886996133253,348.46886996133253,348.46886996133253,348.46886996133253,348.46886996133253,348.46886996133253,348.46886996133253,348.46886996133253,a,0.5193028678186238,10,23,0,349.02001706091687,350.51966037694365,350.51966037694365,351.0198132363148,,,,,,,,,,,,,,,,,,,,,,,,,,,,,,,,,,,,,,,,,,,,,,,,,,,,,,,,,,,,,,,,,86462,2022-11-28_10h32.38.705,vts_reward_expectancy_bt_OFFLINE,2022.2.4,59.99635766952201,
0,0,1,0,0,1,0,0,hexagon,circle,0,0,0,0,0,6,6,7,,,,,,,,,,,,,,,,,,,,,,,,,,,,,,,,,,,,,,,,351.0198132363148,351.0198132363148,351.0198132363148,351.0198132363148,351.0198132363148,351.0198132363148,351.0198132363148,351.0198132363148,351.0198132363148,351.0198132363148,a,0.40989002399146557,1,24,0,351.4538722313009,352.9539493871853,352.9539493871853,,,,,,,,,,,,,,,,,,,,,,,,,,,,,,,,,,,,,,,,,,,,,,,,,,,,,,,,,,,,,,,,,,86462,2022-11-28_10h32.38.705,vts_reward_expectancy_bt_OFFLINE,2022.2.4,59.99635766952201,
0,1,0,0,1,0,0,0,circle,triangle,0,0,0,0,0,7,7,3,,,,,,,,,,,,,,,,,,,,,,,,,,,,,,,,,,,,,,,,353.45608128933236,353.45608128933236,353.45608128933236,353.45608128933236,353.45608128933236,353.45608128933236,353.45608128933236,353.45608128933236,353.45608128933236,353.45608128933236,a,0.3698842921294272,10,34,0,353.85734998993576,355.3566027889028,355.3566027889028,355.85669993422925,,,,,,,,,,,,,,,,,,,,,,,,,,,,,,,,,,,,,,,,,,,,,,,,,,,,,,,,,,,,,,,,,86462,2022-11-28_10h32.38.705,vts_reward_expectancy_bt_OFFLINE,2022.2.4,59.99635766952201,
0,1,0,0,0,0,0,1,circle,star,0,0,0,0,0,8,8,5,,,,,,,,,,,,,,,,,,,,,,,,,,,,,,,,,,,,,,,,355.85669993422925,355.85669993422925,355.85669993422925,355.85669993422925,355.85669993422925,355.85669993422925,355.85669993422925,355.85669993422925,355.85669993422925,355.85669993422925,a,0.29904312593862414,1,35,0,356.174569175113,357.67419721512124,357.67419721512124,,,,,,,,,,,,,,,,,,,,,,,,,,,,,,,,,,,,,,,,,,,,,,,,,,,,,,,,,,,,,,,,,,86462,2022-11-28_10h32.38.705,vts_reward_expectancy_bt_OFFLINE,2022.2.4,59.99635766952201,
1,0,0,0,0,0,1,0,triangle,hexagon,0,0,0,0,0,9,9,1,,,,,,,,,,,,,,,,,,,,,,,,,,,,,,,,,,,,,,,,358.17612110218033,358.17612110218033,358.17612110218033,358.17612110218033,358.17612110218033,358.17612110218033,358.17612110218033,358.17612110218033,358.17612110218033,358.17612110218033,a,0.39762262627482414,1,36,0,358.5926649929024,360.093328461051,360.093328461051,360.5937296273187,,,,,,,,,,,,,,,,,,,,,,,,,,,,,,,,,,,,,,,,,,,,,,,,,,,,,,,,,,,,,,,,,86462,2022-11-28_10h32.38.705,vts_reward_expectancy_bt_OFFLINE,2022.2.4,59.99635766952201,
1,0,0,0,0,1,0,0,triangle,circle,0,0,0,0,0,10,10,0,,,,,,,,,,,,,,,,,,,,,,,,,,,,,,,,,,,,,,,,360.5937296273187,360.5937296273187,360.5937296273187,360.5937296273187,360.5937296273187,360.5937296273187,360.5937296273187,360.5937296273187,360.5937296273187,360.5937296273187,a,1.8281925870105624,1,37,0,362.44391926703975,363.9464804069139,,,,,,,,,,,,,,,,,,,,,,,,,,,,,,,,,,,,,,,,,,,,,,,,,,,,,,,,,,,,,,,,,,,86462,2022-11-28_10h32.38.705,vts_reward_expectancy_bt_OFFLINE,2022.2.4,59.99635766952201,
0,1,0,0,0,0,1,0,circle,hexagon,0,0,0,0,0,11,11,4,,,,,,,,,,,,,,,,,,,,,,,,,,,,,,,,,,,,,,,,364.4468997842632,364.4468997842632,364.4468997842632,364.4468997842632,364.4468997842632,364.4468997842632,364.4468997842632,364.4468997842632,364.4468997842632,364.4468997842632,a,0.4836322288028896,10,47,0,364.9483619229868,366.44747341331095,366.44747341331095,366.9475650610402,,,,,,,,,,,,,,,,,,,,,,,,,,,,,,,,,,,,,,,,,,,,,,,,,,,,,,,,,,,,,,,,,86462,2022-11-28_10h32.38.705,vts_reward_expectancy_bt_OFFLINE,2022.2.4,59.99635766952201,
0,0,0,1,0,0,1,0,star,hexagon,0,0,0,0,1,0,12,11,,,,,,,,,,,,,,,,,,,,,,,,,,,,,,,,,,,,,,,,366.9475650610402,366.9475650610402,366.9475650610402,366.9475650610402,366.9475650610402,366.9475650610402,366.9475650610402,366.9475650610402,366.9475650610402,366.9475650610402,a,0.27790531842038035,1,48,0,367.24886026326567,368.7501277523115,,,,,,,,,,,,,,,,,,,,,,,,,,,,,,,,,,,,,,,,,,,,,,,,,,,,,,,,,,,,,,,,,,,86462,2022-11-28_10h32.38.705,vts_reward_expectancy_bt_OFFLINE,2022.2.4,59.99635766952201,
0,0,1,0,1,0,0,0,hexagon,triangle,0,0,0,0,1,1,13,6,,,,,,,,,,,,,,,,,,,,,,,,,,,,,,,,,,,,,,,,369.2506239521317,369.2506239521317,369.2506239521317,369.2506239521317,369.2506239521317,369.2506239521317,369.2506239521317,369.2506239521317,369.2506239521317,369.2506239521317,a,0.2594356080517173,10,58,0,369.53515137406066,371.0510967890732,,,,,,,,,,,,,,,,,,,,,,,,,,,,,,,,,,,,,,,,,,,,,,,,,,,,,,,,,,,,,,,,,,,86462,2022-11-28_10h32.38.705,vts_reward_expectancy_bt_OFFLINE,2022.2.4,59.99635766952201,
0,1,0,0,0,0,1,0,circle,hexagon,0,0,0,0,1,2,14,4,,,,,,,,,,,,,,,,,,,,,,,,,,,,,,,,,,,,,,,,371.5512117203325,371.5512117203325,371.5512117203325,371.5512117203325,371.5512117203325,371.5512117203325,371.5512117203325,371.5512117203325,371.5512117203325,371.5512117203325,a,0.3438368900679052,1,59,0,371.9192040050402,373.4204404982738,,,,,,,,,,,,,,,,,,,,,,,,,,,,,,,,,,,,,,,,,,,,,,,,,,,,,,,,,,,,,,,,,,,86462,2022-11-28_10h32.38.705,vts_reward_expectancy_bt_OFFLINE,2022.2.4,59.99635766952201,
0,0,0,1,0,1,0,0,star ,circle,0,0,0,0,1,3,15,10,,,,,,,,,,,,,,,,,,,,,,,,,,,,,,,,,,,,,,,,373.92047332506627,373.92047332506627,373.92047332506627,373.92047332506627,373.92047332506627,373.92047332506627,373.92047332506627,373.92047332506627,373.92047332506627,373.92047332506627,a,0.38255169708281755,1,60,0,374.32081781420857,375.82116292230785,375.82116292230785,376.3214328610338,,,,,,,,,,,,,,,,,,,,,,,,,,,,,,,,,,,,,,,,,,,,,,,,,,,,,,,,,,,,,,,,,86462,2022-11-28_10h32.38.705,vts_reward_expectancy_bt_OFFLINE,2022.2.4,59.99635766952201,
0,0,1,0,0,1,0,0,hexagon,circle,0,0,0,0,1,4,16,7,,,,,,,,,,,,,,,,,,,,,,,,,,,,,,,,,,,,,,,,376.3214328610338,376.3214328610338,376.3214328610338,376.3214328610338,376.3214328610338,376.3214328610338,376.3214328610338,376.3214328610338,376.3214328610338,376.3214328610338,a,0.47827233793213964,1,61,0,376.82157032890245,378.32372922217473,,,,,,,,,,,,,,,,,,,,,,,,,,,,,,,,,,,,,,,,,,,,,,,,,,,,,,,,,,,,,,,,,,,86462,2022-11-28_10h32.38.705,vts_reward_expectancy_bt_OFFLINE,2022.2.4,59.99635766952201,
0,1,0,0,0,0,0,1,circle,star,0,0,0,0,1,5,17,5,,,,,,,,,,,,,,,,,,,,,,,,,,,,,,,,,,,,,,,,378.82416086131707,378.82416086131707,378.82416086131707,378.82416086131707,378.82416086131707,378.82416086131707,378.82416086131707,378.82416086131707,378.82416086131707,378.82416086131707,l,10.576818094123155,10,71,0,389.434395999182,390.94888203125447,,,,,,,,,,,,,,,,,,,,,,,,,,,,,,,,,,,,,,,,,,,,,,,,,,,,,,,,,,,,,,,,,,,86462,2022-11-28_10h32.38.705,vts_reward_expectancy_bt_OFFLINE,2022.2.4,59.99635766952201,
1,0,0,0,0,0,0,1,triangle,star,0,0,0,0,1,6,18,2,,,,,,,,,,,,,,,,,,,,,,,,,,,,,,,,,,,,,,,,391.4490186893381,391.4490186893381,391.4490186893381,391.4490186893381,391.4490186893381,391.4490186893381,391.4490186893381,391.4490186893381,391.4490186893381,391.4490186893381,l,1.0900710057467222,10,81,0,392.56599264219403,394.06852126913145,,,,,,,,,,,,,,,,,,,,,,,,,,,,,,,,,,,,,,,,,,,,,,,,,,,,,,,,,,,,,,,,,,,86462,2022-11-28_10h32.38.705,vts_reward_expectancy_bt_OFFLINE,2022.2.4,59.99635766952201,
1,0,0,0,0,0,1,0,triangle,hexagon,0,0,0,0,1,7,19,1,,,,,,,,,,,,,,,,,,,,,,,,,,,,,,,,,,,,,,,,394.5688552330248,394.5688552330248,394.5688552330248,394.5688552330248,394.5688552330248,394.5688552330248,394.5688552330248,394.5688552330248,394.5688552330248,394.5688552330248,l,0.49041480012238026,1,82,0,395.0868957960047,396.5862144571729,396.5862144571729,397.0865361089818,,,,,,,,,,,,,,,,,,,,,,,,,,,,,,,,,,,,,,,,,,,,,,,,,,,,,,,,,,,,,,,,,86462,2022-11-28_10h32.38.705,vts_reward_expectancy_bt_OFFLINE,2022.2.4,59.99635766952201,
0,0,1,0,0,0,0,1,hexagon,star,0,0,0,0,1,8,20,8,,,,,,,,,,,,,,,,,,,,,,,,,,,,,,,,,,,,,,,,397.0865361089818,397.0865361089818,397.0865361089818,397.0865361089818,397.0865361089818,397.0865361089818,397.0865361089818,397.0865361089818,397.0865361089818,397.0865361089818,a,1.9107165960595012,1,83,0,399.0221328320913,400.52266512904316,400.52266512904316,401.0227534342557,,,,,,,,,,,,,,,,,,,,,,,,,,,,,,,,,,,,,,,,,,,,,,,,,,,,,,,,,,,,,,,,,86462,2022-11-28_10h32.38.705,vts_reward_expectancy_bt_OFFLINE,2022.2.4,59.99635766952201,
0,1,0,0,1,0,0,0,circle,triangle,0,0,0,0,1,9,21,3,,,,,,,,,,,,,,,,,,,,,,,,,,,,,,,,,,,,,,,,401.0227534342557,401.0227534342557,401.0227534342557,401.0227534342557,401.0227534342557,401.0227534342557,401.0227534342557,401.0227534342557,401.0227534342557,401.0227534342557,a,1.1018560780212283,1,84,0,402.15648021921515,403.6588649600744,,,,,,,,,,,,,,,,,,,,,,,,,,,,,,,,,,,,,,,,,,,,,,,,,,,,,,,,,,,,,,,,,,,86462,2022-11-28_10h32.38.705,vts_reward_expectancy_bt_OFFLINE,2022.2.4,59.99635766952201,
0,0,0,1,1,0,0,0,star,triangle,0,0,0,0,1,10,22,9,,,,,,,,,,,,,,,,,,,,,,,,,,,,,,,,,,,,,,,,404.15906158834696,404.15906158834696,404.15906158834696,404.15906158834696,404.15906158834696,404.15906158834696,404.15906158834696,404.15906158834696,404.15906158834696,404.15906158834696,a,0.7905258010141551,10,94,0,404.977660221979,406.47678474197164,406.47678474197164,406.97699656896293,,,,,,,,,,,,,,,,,,,,,,,,,,,,,,,,,,,,,,,,,,,,,,,,,,,,,,,,,,,,,,,,,86462,2022-11-28_10h32.38.705,vts_reward_expectancy_bt_OFFLINE,2022.2.4,59.99635766952201,
1,0,0,0,0,1,0,0,triangle,circle,0,0,0,0,1,11,23,0,,,,,,,,,,,,,,,,,,,,,,,,,,,,,,,,,,,,,,,,406.97699656896293,406.97699656896293,406.97699656896293,406.97699656896293,406.97699656896293,406.97699656896293,406.97699656896293,406.97699656896293,406.97699656896293,406.97699656896293,l,1.1002875696867704,10,104,0,408.0939043480903,409.5964717529714,,,,,,,,,,,,,,,,,,,,,,,,,,,,,,,,,,,,,,,,,,,,,,,,,,,,,,,,,,,,,,,,,,,86462,2022-11-28_10h32.38.705,vts_reward_expectancy_bt_OFFLINE,2022.2.4,59.99635766952201,
0,0,1,0,0,1,0,0,hexagon,circle,0,0,0,0,2,0,24,7,,,,,,,,,,,,,,,,,,,,,,,,,,,,,,,,,,,,,,,,410.09650340117514,410.09650340117514,410.09650340117514,410.09650340117514,410.09650340117514,410.09650340117514,410.09650340117514,410.09650340117514,410.09650340117514,410.09650340117514,l,0.7134300284087658,10,114,0,410.83015197422355,412.33068137802184,412.33068137802184,412.83072376204655,,,,,,,,,,,,,,,,,,,,,,,,,,,,,,,,,,,,,,,,,,,,,,,,,,,,,,,,,,,,,,,,,86462,2022-11-28_10h32.38.705,vts_reward_expectancy_bt_OFFLINE,2022.2.4,59.99635766952201,
0,0,1,0,1,0,0,0,hexagon,triangle,0,0,0,0,2,1,25,6,,,,,,,,,,,,,,,,,,,,,,,,,,,,,,,,,,,,,,,,412.83072376204655,412.83072376204655,412.83072376204655,412.83072376204655,412.83072376204655,412.83072376204655,412.83072376204655,412.83072376204655,412.83072376204655,412.83072376204655,l,1.084588197991252,1,115,0,413.9344098540023,415.433394884225,415.433394884225,415.9338192571886,,,,,,,,,,,,,,,,,,,,,,,,,,,,,,,,,,,,,,,,,,,,,,,,,,,,,,,,,,,,,,,,,86462,2022-11-28_10h32.38.705,vts_reward_expectancy_bt_OFFLINE,2022.2.4,59.99635766952201,
1,0,0,0,0,0,0,1,triangle,star,0,0,0,0,2,2,26,2,,,,,,,,,,,,,,,,,,,,,,,,,,,,,,,,,,,,,,,,415.9338192571886,415.9338192571886,415.9338192571886,415.9338192571886,415.9338192571886,415.9338192571886,415.9338192571886,415.9338192571886,415.9338192571886,415.9338192571886,a,0.9183276211842895,1,116,0,416.884269380942,418.3865178232081,,,,,,,,,,,,,,,,,,,,,,,,,,,,,,,,,,,,,,,,,,,,,,,,,,,,,,,,,,,,,,,,,,,86462,2022-11-28_10h32.38.705,vts_reward_expectancy_bt_OFFLINE,2022.2.4,59.99635766952201,
0,1,0,0,0,0,1,0,circle,hexagon,0,0,0,0,2,3,27,4,,,,,,,,,,,,,,,,,,,,,,,,,,,,,,,,,,,,,,,,418.88666898710653,418.88666898710653,418.88666898710653,418.88666898710653,418.88666898710653,418.88666898710653,418.88666898710653,418.88666898710653,418.88666898710653,418.88666898710653,l,0.8909057192504406,1,117,0,419.8036269801669,421.30415978236124,421.30415978236124,421.80443865433335,,,,,,,,,,,,,,,,,,,,,,,,,,,,,,,,,,,,,,,,,,,,,,,,,,,,,,,,,,,,,,,,,86462,2022-11-28_10h32.38.705,vts_reward_expectancy_bt_OFFLINE,2022.2.4,59.99635766952201,
0,0,1,0,0,0,0,1,hexagon,star,0,0,0,0,2,4,28,8,,,,,,,,,,,,,,,,,,,,,,,,,,,,,,,,,,,,,,,,421.80443865433335,421.80443865433335,421.80443865433335,421.80443865433335,421.80443865433335,421.80443865433335,421.80443865433335,421.80443865433335,421.80443865433335,421.80443865433335,a,0.8862153771333396,1,118,0,422.72126437025145,424.2236484149471,,,,,,,,,,,,,,,,,,,,,,,,,,,,,,,,,,,,,,,,,,,,,,,,,,,,,,,,,,,,,,,,,,,86462,2022-11-28_10h32.38.705,vts_reward_expectancy_bt_OFFLINE,2022.2.4,59.99635766952201,
0,0,0,1,0,0,1,0,star,hexagon,0,0,0,0,2,5,29,11,,,,,,,,,,,,,,,,,,,,,,,,,,,,,,,,,,,,,,,,424.7241843473166,424.7241843473166,424.7241843473166,424.7241843473166,424.7241843473166,424.7241843473166,424.7241843473166,424.7241843473166,424.7241843473166,424.7241843473166,a,31.111022089142352,1,119,0,455.862957760226,457.3632591413334,457.3632591413334,,,,,,,,,,,,,,,,,,,,,,,,,,,,,,,,,,,,,,,,,,,,,,,,,,,,,,,,,,,,,,,,,,86462,2022-11-28_10h32.38.705,vts_reward_expectancy_bt_OFFLINE,2022.2.4,59.99635766952201,
1,0,0,0,0,1,0,0,triangle,circle,0,0,0,0,2,6,30,0,,,,,,,,,,,,,,,,,,,,,,,,,,,,,,,,,,,,,,,,457.86331659602,457.86331659602,457.86331659602,457.86331659602,457.86331659602,457.86331659602,457.86331659602,457.86331659602,457.86331659602,457.86331659602,a,2.561884969007224,1,120,0,460.4497968372889,461.95043353829533,461.95043353829533,462.45019938703626,,,,,,,,,,,,,,,,,,,,,,,,,,,,,,,,,,,,,,,,,,,,,,,,,,,,,,,,,,,,,,,,,86462,2022-11-28_10h32.38.705,vts_reward_expectancy_bt_OFFLINE,2022.2.4,59.99635766952201,
0,0,0,1,0,1,0,0,star ,circle,0,0,0,0,2,7,31,10,,,,,,,,,,,,,,,,,,,,,,,,,,,,,,,,,,,,,,,,462.45019938703626,462.45019938703626,462.45019938703626,462.45019938703626,462.45019938703626,462.45019938703626,462.45019938703626,462.45019938703626,462.45019938703626,462.45019938703626,a,1.5752758937887847,1,121,0,464.0526379570365,465.55349470023066,465.55349470023066,466.05342219630256,,,,,,,,,,,,,,,,,,,,,,,,,,,,,,,,,,,,,,,,,,,,,,,,,,,,,,,,,,,,,,,,,86462,2022-11-28_10h32.38.705,vts_reward_expectancy_bt_OFFLINE,2022.2.4,59.99635766952201,
0,0,0,1,1,0,0,0,star,triangle,0,0,0,0,2,8,32,9,,,,,,,,,,,,,,,,,,,,,,,,,,,,,,,,,,,,,,,,466.05342219630256,466.05342219630256,466.05342219630256,466.05342219630256,466.05342219630256,466.05342219630256,466.05342219630256,466.05342219630256,466.05342219630256,466.05342219630256,a,2.9568752413615584,10,131,0,469.04111677827314,470.5404676599428,470.5404676599428,,,,,,,,,,,,,,,,,,,,,,,,,,,,,,,,,,,,,,,,,,,,,,,,,,,,,,,,,,,,,,,,,,86462,2022-11-28_10h32.38.705,vts_reward_expectancy_bt_OFFLINE,2022.2.4,59.99635766952201,
0,1,0,0,0,0,0,1,circle,star,0,0,0,0,2,9,33,5,,,,,,,,,,,,,,,,,,,,,,,,,,,,,,,,,,,,,,,,471.0402043829672,471.0402043829672,471.0402043829672,471.0402043829672,471.0402043829672,471.0402043829672,471.0402043829672,471.0402043829672,471.0402043829672,471.0402043829672,a,4.652531981933862,10,141,0,475.71102691814303,477.21115250419825,477.21115250419825,477.7114598089829,,,,,,,,,,,,,,,,,,,,,,,,,,,,,,,,,,,,,,,,,,,,,,,,,,,,,,,,,,,,,,,,,86462,2022-11-28_10h32.38.705,vts_reward_expectancy_bt_OFFLINE,2022.2.4,59.99635766952201,
0,1,0,0,1,0,0,0,circle,triangle,0,0,0,0,2,10,34,3,,,,,,,,,,,,,,,,,,,,,,,,,,,,,,,,,,,,,,,,477.7114598089829,477.7114598089829,477.7114598089829,477.7114598089829,477.7114598089829,477.7114598089829,477.7114598089829,477.7114598089829,477.7114598089829,477.7114598089829,a,1.6599048650823534,1,142,0,479.39860415505245,480.89751463616267,480.89751463616267,,,,,,,,,,,,,,,,,,,,,,,,,,,,,,,,,,,,,,,,,,,,,,,,,,,,,,,,,,,,,,,,,,86462,2022-11-28_10h32.38.705,vts_reward_expectancy_bt_OFFLINE,2022.2.4,59.99635766952201,
1,0,0,0,0,0,1,0,triangle,hexagon,0,0,0,0,2,11,35,1,,,,,,,,,,,,,,,,,,,,,,,,,,,,,,,,,,,,,,,,481.3979409392923,481.3979409392923,481.3979409392923,481.3979409392923,481.3979409392923,481.3979409392923,481.3979409392923,481.3979409392923,481.3979409392923,481.3979409392923,a,1.1126493969932199,10,152,0,482.53346939524636,484.0338148381561,,,,,,,,,,,,,,,,,,,,,,,,,,,,,,,,,,,,,,,,,,,,,,,,,,,,,,,,,,,,,,,,,,,86462,2022-11-28_10h32.38.705,vts_reward_expectancy_bt_OFFLINE,2022.2.4,59.99635766952201,
0,1,0,0,0,0,0,1,circle,star,0,0,0,0,3,0,36,5,,,,,,,,,,,,,,,,,,,,,,,,,,,,,,,,,,,,,,,,484.5340030891821,484.5340030891821,484.5340030891821,484.5340030891821,484.5340030891821,484.5340030891821,484.5340030891821,484.5340030891821,484.5340030891821,484.5340030891821,l,5.435571627225727,10,162,0,489.9881265540607,491.48828824190423,491.48828824190423,491.98854849208146,,,,,,,,,,,,,,,,,,,,,,,,,,,,,,,,,,,,,,,,,,,,,,,,,,,,,,,,,,,,,,,,,86462,2022-11-28_10h32.38.705,vts_reward_expectancy_bt_OFFLINE,2022.2.4,59.99635766952201,
0,0,1,0,1,0,0,0,hexagon,triangle,0,0,0,0,3,1,37,6,,,,,,,,,,,,,,,,,,,,,,,,,,,,,,,,,,,,,,,,491.98854849208146,491.98854849208146,491.98854849208146,491.98854849208146,491.98854849208146,491.98854849208146,491.98854849208146,491.98854849208146,491.98854849208146,491.98854849208146,l,0.4111646399833262,1,163,0,492.4239866021089,493.92446789518,,,,,,,,,,,,,,,,,,,,,,,,,,,,,,,,,,,,,,,,,,,,,,,,,,,,,,,,,,,,,,,,,,,86462,2022-11-28_10h32.38.705,vts_reward_expectancy_bt_OFFLINE,2022.2.4,59.99635766952201,
0,0,1,0,0,0,0,1,hexagon,star,0,0,0,0,3,2,38,8,,,,,,,,,,,,,,,,,,,,,,,,,,,,,,,,,,,,,,,,494.4249021350406,494.4249021350406,494.4249021350406,494.4249021350406,494.4249021350406,494.4249021350406,494.4249021350406,494.4249021350406,494.4249021350406,494.4249021350406,l,2.430021418724209,1,164,0,496.87563320901245,498.37780143134296,,,,,,,,,,,,,,,,,,,,,,,,,,,,,,,,,,,,,,,,,,,,,,,,,,,,,,,,,,,,,,,,,,,86462,2022-11-28_10h32.38.705,vts_reward_expectancy_bt_OFFLINE,2022.2.4,59.99635766952201,
1,0,0,0,0,1,0,0,triangle,circle,0,0,0,0,3,3,39,0,,,,,,,,,,,,,,,,,,,,,,,,,,,,,,,,,,,,,,,,498.87799258204177,498.87799258204177,498.87799258204177,498.87799258204177,498.87799258204177,498.87799258204177,498.87799258204177,498.87799258204177,498.87799258204177,498.87799258204177,a,0.7564129750244319,10,174,0,499.66346203396097,501.17905312916264,,,,,,,,,,,,,,,,,,,,,,,,,,,,,,,,,,,,,,,,,,,,,,,,,,,,,,,,,,,,,,,,,,,86462,2022-11-28_10h32.38.705,vts_reward_expectancy_bt_OFFLINE,2022.2.4,59.99635766952201,
0,0,0,1,1,0,0,0,star,triangle,0,0,0,0,3,4,40,9,,,,,,,,,,,,,,,,,,,,,,,,,,,,,,,,,,,,,,,,501.6791498581879,501.6791498581879,501.6791498581879,501.6791498581879,501.6791498581879,501.6791498581879,501.6791498581879,501.6791498581879,501.6791498581879,501.6791498581879,l,0.7459587939083576,1,175,0,502.4478722959757,503.94826910924166,,,,,,,,,,,,,,,,,,,,,,,,,,,,,,,,,,,,,,,,,,,,,,,,,,,,,,,,,,,,,,,,,,,86462,2022-11-28_10h32.38.705,vts_reward_expectancy_bt_OFFLINE,2022.2.4,59.99635766952201,
1,0,0,0,0,0,0,1,triangle,star,0,0,0,0,3,5,41,2,,,,,,,,,,,,,,,,,,,,,,,,,,,,,,,,,,,,,,,,504.4487249352969,504.4487249352969,504.4487249352969,504.4487249352969,504.4487249352969,504.4487249352969,504.4487249352969,504.4487249352969,504.4487249352969,504.4487249352969,a,1.553921656217426,1,176,0,506.0328054302372,507.5330216479488,507.5330216479488,508.0331794130616,,,,,,,,,,,,,,,,,,,,,,,,,,,,,,,,,,,,,,,,,,,,,,,,,,,,,,,,,,,,,,,,,86462,2022-11-28_10h32.38.705,vts_reward_expectancy_bt_OFFLINE,2022.2.4,59.99635766952201,
0,0,0,1,0,1,0,0,star ,circle,0,0,0,0,3,6,42,10,,,,,,,,,,,,,,,,,,,,,,,,,,,,,,,,,,,,,,,,508.0331794130616,508.0331794130616,508.0331794130616,508.0331794130616,508.0331794130616,508.0331794130616,508.0331794130616,508.0331794130616,508.0331794130616,508.0331794130616,a,2.5031662578694522,1,177,0,510.5529882940464,512.0531124393456,512.0531124393456,512.5535412519239,,,,,,,,,,,,,,,,,,,,,,,,,,,,,,,,,,,,,,,,,,,,,,,,,,,,,,,,,,,,,,,,,86462,2022-11-28_10h32.38.705,vts_reward_expectancy_bt_OFFLINE,2022.2.4,59.99635766952201,
1,0,0,0,0,0,1,0,triangle,hexagon,0,0,0,0,3,7,43,1,,,,,,,,,,,,,,,,,,,,,,,,,,,,,,,,,,,,,,,,512.5535412519239,512.5535412519239,512.5535412519239,512.5535412519239,512.5535412519239,512.5535412519239,512.5535412519239,512.5535412519239,512.5535412519239,512.5535412519239,a,6.139016041066498,10,187,0,518.7114668730646,520.2265605302528,,,,,,,,,,,,,,,,,,,,,,,,,,,,,,,,,,,,,,,,,,,,,,,,,,,,,,,,,,,,,,,,,,,86462,2022-11-28_10h32.38.705,vts_reward_expectancy_bt_OFFLINE,2022.2.4,59.99635766952201,
0,0,1,0,0,1,0,0,hexagon,circle,0,0,0,0,3,8,44,7,,,,,,,,,,,,,,,,,,,,,,,,,,,,,,,,,,,,,,,,520.726641101297,520.726641101297,520.726641101297,520.726641101297,520.726641101297,520.726641101297,520.726641101297,520.726641101297,520.726641101297,520.726641101297,a,3.198327683378011,1,188,0,523.9481391631998,525.4638013131917,,,,,,,,,,,,,,,,,,,,,,,,,,,,,,,,,,,,,,,,,,,,,,,,,,,,,,,,,,,,,,,,,,,86462,2022-11-28_10h32.38.705,vts_reward_expectancy_bt_OFFLINE,2022.2.4,59.99635766952201,
0,1,0,0,1,0,0,0,circle,triangle,0,0,0,0,3,9,45,3,,,,,,,,,,,,,,,,,,,,,,,,,,,,,,,,,,,,,,,,525.9637304591015,525.9637304591015,525.9637304591015,525.9637304591015,525.9637304591015,525.9637304591015,525.9637304591015,525.9637304591015,525.9637304591015,525.9637304591015,a,1.9435665239579976,10,198,0,527.9331361232325,529.4336234740913,,,,,,,,,,,,,,,,,,,,,,,,,,,,,,,,,,,,,,,,,,,,,,,,,,,,,,,,,,,,,,,,,,,86462,2022-11-28_10h32.38.705,vts_reward_expectancy_bt_OFFLINE,2022.2.4,59.99635766952201,
0,1,0,0,0,0,1,0,circle,hexagon,0,0,0,0,3,10,46,4,,,,,,,,,,,,,,,,,,,,,,,,,,,,,,,,,,,,,,,,529.933966493234,529.933966493234,529.933966493234,529.933966493234,529.933966493234,529.933966493234,529.933966493234,529.933966493234,529.933966493234,529.933966493234,a,1.021415294148028,10,208,0,530.9843537840061,532.484712397214,532.484712397214,532.9848794443533,,,,,,,,,,,,,,,,,,,,,,,,,,,,,,,,,,,,,,,,,,,,,,,,,,,,,,,,,,,,,,,,,86462,2022-11-28_10h32.38.705,vts_reward_expectancy_bt_OFFLINE,2022.2.4,59.99635766952201,
0,0,0,1,0,0,1,0,star,hexagon,0,0,0,0,3,11,47,11,,,,,,,,,,,,,,,,,,,,,,,,,,,,,,,,,,,,,,,,532.9848794443533,532.9848794443533,532.9848794443533,532.9848794443533,532.9848794443533,532.9848794443533,532.9848794443533,532.9848794443533,532.9848794443533,532.9848794443533,a,1.3680084189400077,1,209,0,534.3724804352969,535.8878476913087,,,,,,,,,,,,,,,,,,,,,,,,,,,,,,,,,,,,,,,,,,,,,,,,,,,,,,,,,,,,,,,,,,,86462,2022-11-28_10h32.38.705,vts_reward_expectancy_bt_OFFLINE,2022.2.4,59.99635766952201,
0,1,0,0,1,0,0,0,circle,triangle,1,0,1,0,0,0,0,3,,,,,,,,,,,,,,,,,,,,,,,,,,,,,,,,,,,,,,,,544.3887491831556,544.3887491831556,544.3887491831556,544.3887491831556,544.3887491831556,544.3887491831556,544.3887491831556,544.3887491831556,544.3887491831556,544.3887491831556,a,1.7101479000411928,1,210,1,546.1285644979216,547.6288534090854,547.6288534090854,548.1288034142926,,,,,,,,,,,,,,,,,,,,,,,,,,,,,,,,,,,,,,,,,,,,,,,,,,,,,,,,,,,,,,,,,86462,2022-11-28_10h32.38.705,vts_reward_expectancy_bt_OFFLINE,2022.2.4,59.99635766952201,
1,0,0,0,0,1,0,0,triangle,circle,1,0,1,0,0,1,1,0,,,,,,,,,,,,,,,,,,,,,,,,,,,,,,,,,,,,,,,,548.1288034142926,548.1288034142926,548.1288034142926,548.1288034142926,548.1288034142926,548.1288034142926,548.1288034142926,548.1288034142926,548.1288034142926,548.1288034142926,l,1.4243881041184068,10,220,1,549.5838253693655,551.0985445273109,,,,,,,,,,,,,,,,,,,,,,,,,,,,,,,,,,,,,,,,,,,,,,,,,,,,,,,,,,,,,,,,,,,86462,2022-11-28_10h32.38.705,vts_reward_expectancy_bt_OFFLINE,2022.2.4,59.99635766952201,
0,0,0,1,1,0,0,0,star,triangle,1,0,1,0,0,2,2,9,,,,,,,,,,,,,,,,,,,,,,,,,,,,,,,,,,,,,,,,551.5989814242348,551.5989814242348,551.5989814242348,551.5989814242348,551.5989814242348,551.5989814242348,551.5989814242348,551.5989814242348,551.5989814242348,551.5989814242348,l,3.016509215347469,10,230,1,554.6351051791571,556.1356340353377,556.1356340353377,,,,,,,,,,,,,,,,,,,,,,,,,,,,,,,,,,,,,,,,,,,,,,,,,,,,,,,,,,,,,,,,,,86462,2022-11-28_10h32.38.705,vts_reward_expectancy_bt_OFFLINE,2022.2.4,59.99635766952201,
1,0,0,0,0,0,1,0,triangle,hexagon,1,0,1,0,0,3,3,1,,,,,,,,,,,,,,,,,,,,,,,,,,,,,,,,,,,,,,,,556.6359413289465,556.6359413289465,556.6359413289465,556.6359413289465,556.6359413289465,556.6359413289465,556.6359413289465,556.6359413289465,556.6359413289465,556.6359413289465,l,1.4902556180022657,1,231,1,558.1550344740972,559.6555348150432,,,,,,,,,,,,,,,,,,,,,,,,,,,,,,,,,,,,,,,,,,,,,,,,,,,,,,,,,,,,,,,,,,,86462,2022-11-28_10h32.38.705,vts_reward_expectancy_bt_OFFLINE,2022.2.4,59.99635766952201,
0,0,0,1,0,1,0,0,star ,circle,1,0,1,0,0,4,4,10,,,,,,,,,,,,,,,,,,,,,,,,,,,,,,,,,,,,,,,,560.155823752284,560.155823752284,560.155823752284,560.155823752284,560.155823752284,560.155823752284,560.155823752284,560.155823752284,560.155823752284,560.155823752284,l,0.8282607803121209,10,241,1,561.0076001263224,562.5231615421362,,,,,,,,,,,,,,,,,,,,,,,,,,,,,,,,,,,,,,,,,,,,,,,,,,,,,,,,,,,,,,,,,,,86462,2022-11-28_10h32.38.705,vts_reward_expectancy_bt_OFFLINE,2022.2.4,59.99635766952201,
0,1,0,0,0,0,0,1,circle,star,1,0,1,0,0,5,5,5,,,,,,,,,,,,,,,,,,,,,,,,,,,,,,,,,,,,,,,,563.0233754999936,563.0233754999936,563.0233754999936,563.0233754999936,563.0233754999936,563.0233754999936,563.0233754999936,563.0233754999936,563.0233754999936,563.0233754999936,l,3.1583992331288755,1,242,1,566.2116349693388,567.7268084040843,,,,,,,,,,,,,,,,,,,,,,,,,,,,,,,,,,,,,,,,,,,,,,,,,,,,,,,,,,,,,,,,,,,86462,2022-11-28_10h32.38.705,vts_reward_expectancy_bt_OFFLINE,2022.2.4,59.99635766952201,
1,0,0,0,0,0,0,1,triangle,star,1,0,1,0,0,6,6,2,,,,,,,,,,,,,,,,,,,,,,,,,,,,,,,,,,,,,,,,568.224467555061,568.224467555061,568.224467555061,568.224467555061,568.224467555061,568.224467555061,568.224467555061,568.224467555061,568.224467555061,568.224467555061,a,0.9716665931046009,1,243,1,569.2131536439992,570.7133767269552,570.7133767269552,571.2134331841953,,,,,,,,,,,,,,,,,,,,,,,,,,,,,,,,,,,,,,,,,,,,,,,,,,,,,,,,,,,,,,,,,86462,2022-11-28_10h32.38.705,vts_reward_expectancy_bt_OFFLINE,2022.2.4,59.99635766952201,
0,0,1,0,0,1,0,0,hexagon,circle,1,0,1,0,0,7,7,7,,,,,,,,,,,,,,,,,,,,,,,,,,,,,,,,,,,,,,,,571.2134331841953,571.2134331841953,571.2134331841953,571.2134331841953,571.2134331841953,571.2134331841953,571.2134331841953,571.2134331841953,571.2134331841953,571.2134331841953,l,0.9979779911227524,1,244,1,572.2305275001563,573.7328249053098,,,,,,,,,,,,,,,,,,,,,,,,,,,,,,,,,,,,,,,,,,,,,,,,,,,,,,,,,,,,,,,,,,,86462,2022-11-28_10h32.38.705,vts_reward_expectancy_bt_OFFLINE,2022.2.4,59.99635766952201,
0,0,0,1,0,0,1,0,star,hexagon,1,0,1,0,0,8,8,11,,,,,,,,,,,,,,,,,,,,,,,,,,,,,,,,,,,,,,,,574.2327888561413,574.2327888561413,574.2327888561413,574.2327888561413,574.2327888561413,574.2327888561413,574.2327888561413,574.2327888561413,574.2327888561413,574.2327888561413,l,1.4443838014267385,10,254,1,575.7021028851159,577.2171985511668,,,,,,,,,,,,,,,,,,,,,,,,,,,,,,,,,,,,,,,,,,,,,,,,,,,,,,,,,,,,,,,,,,,86462,2022-11-28_10h32.38.705,vts_reward_expectancy_bt_OFFLINE,2022.2.4,59.99635766952201,
0,1,0,0,0,0,1,0,circle,hexagon,1,0,1,0,0,9,9,4,,,,,,,,,,,,,,,,,,,,,,,,,,,,,,,,,,,,,,,,577.7174115423113,577.7174115423113,577.7174115423113,577.7174115423113,577.7174115423113,577.7174115423113,577.7174115423113,577.7174115423113,577.7174115423113,577.7174115423113,a,0.5129944891668856,1,255,1,578.2485963283107,579.7535772603005,,,,,,,,,,,,,,,,,,,,,,,,,,,,,,,,,,,,,,,,,,,,,,,,,,,,,,,,,,,,,,,,,,,86462,2022-11-28_10h32.38.705,vts_reward_expectancy_bt_OFFLINE,2022.2.4,59.99635766952201,
0,0,1,0,1,0,0,0,hexagon,triangle,1,0,1,0,0,10,10,6,,,,,,,,,,,,,,,,,,,,,,,,,,,,,,,,,,,,,,,,580.2535237492993,580.2535237492993,580.2535237492993,580.2535237492993,580.2535237492993,580.2535237492993,580.2535237492993,580.2535237492993,580.2535237492993,580.2535237492993,l,0.48598015680909157,10,265,1,580.7710015829653,582.271025609225,582.271025609225,582.7708344841376,,,,,,,,,,,,,,,,,,,,,,,,,,,,,,,,,,,,,,,,,,,,,,,,,,,,,,,,,,,,,,,,,86462,2022-11-28_10h32.38.705,vts_reward_expectancy_bt_OFFLINE,2022.2.4,59.99635766952201,
0,0,1,0,0,0,0,1,hexagon,star,1,0,1,0,0,11,11,8,,,,,,,,,,,,,,,,,,,,,,,,,,,,,,,,,,,,,,,,582.7708344841376,582.7708344841376,582.7708344841376,582.7708344841376,582.7708344841376,582.7708344841376,582.7708344841376,582.7708344841376,582.7708344841376,582.7708344841376,l,0.477927363011986,1,266,1,583.2781582293101,584.7905902080238,,,,,,,,,,,,,,,,,,,,,,,,,,,,,,,,,,,,,,,,,,,,,,,,,,,,,,,,,,,,,,,,,,,86462,2022-11-28_10h32.38.705,vts_reward_expectancy_bt_OFFLINE,2022.2.4,59.99635766952201,
0,0,1,0,1,0,0,0,hexagon,triangle,1,0,1,0,1,0,12,6,,,,,,,,,,,,,,,,,,,,,,,,,,,,,,,,,,,,,,,,585.2902557230555,585.2902557230555,585.2902557230555,585.2902557230555,585.2902557230555,585.2902557230555,585.2902557230555,585.2902557230555,585.2902557230555,585.2902557230555,a,0.703048731200397,10,276,1,586.0244010449387,587.5248990012333,587.5248990012333,588.024992199149,,,,,,,,,,,,,,,,,,,,,,,,,,,,,,,,,,,,,,,,,,,,,,,,,,,,,,,,,,,,,,,,,86462,2022-11-28_10h32.38.705,vts_reward_expectancy_bt_OFFLINE,2022.2.4,59.99635766952201,
0,0,0,1,0,0,1,0,star,hexagon,1,0,1,0,1,1,13,11,,,,,,,,,,,,,,,,,,,,,,,,,,,,,,,,,,,,,,,,588.024992199149,588.024992199149,588.024992199149,588.024992199149,588.024992199149,588.024992199149,588.024992199149,588.024992199149,588.024992199149,588.024992199149,l,0.4545270502567291,1,277,1,588.5122088380158,590.0276261102408,,,,,,,,,,,,,,,,,,,,,,,,,,,,,,,,,,,,,,,,,,,,,,,,,,,,,,,,,,,,,,,,,,,86462,2022-11-28_10h32.38.705,vts_reward_expectancy_bt_OFFLINE,2022.2.4,59.99635766952201,
0,1,0,0,0,0,1,0,circle,hexagon,1,0,1,0,1,2,14,4,,,,,,,,,,,,,,,,,,,,,,,,,,,,,,,,,,,,,,,,590.5274552772753,590.5274552772753,590.5274552772753,590.5274552772753,590.5274552772753,590.5274552772753,590.5274552772753,590.5274552772753,590.5274552772753,590.5274552772753,l,0.8554329168982804,1,278,1,591.4113439870998,592.9118406600319,592.9118406600319,,,,,,,,,,,,,,,,,,,,,,,,,,,,,,,,,,,,,,,,,,,,,,,,,,,,,,,,,,,,,,,,,,86462,2022-11-28_10h32.38.705,vts_reward_expectancy_bt_OFFLINE,2022.2.4,59.99635766952201,
0,0,0,1,1,0,0,0,star,triangle,1,0,1,0,1,3,15,9,,,,,,,,,,,,,,,,,,,,,,,,,,,,,,,,,,,,,,,,593.4138944339938,593.4138944339938,593.4138944339938,593.4138944339938,593.4138944339938,593.4138944339938,593.4138944339938,593.4138944339938,593.4138944339938,593.4138944339938,l,0.9050117773003876,1,279,1,594.3475051340647,595.8479220173322,595.8479220173322,,,,,,,,,,,,,,,,,,,,,,,,,,,,,,,,,,,,,,,,,,,,,,,,,,,,,,,,,,,,,,,,,,86462,2022-11-28_10h32.38.705,vts_reward_expectancy_bt_OFFLINE,2022.2.4,59.99635766952201,
1,0,0,0,0,0,1,0,triangle,hexagon,1,0,1,0,1,4,16,1,,,,,,,,,,,,,,,,,,,,,,,,,,,,,,,,,,,,,,,,596.348362294957,596.348362294957,596.348362294957,596.348362294957,596.348362294957,596.348362294957,596.348362294957,596.348362294957,596.348362294957,596.348362294957,l,0.42299572192132473,10,289,1,596.8006058502942,598.3006396880373,,,,,,,,,,,,,,,,,,,,,,,,,,,,,,,,,,,,,,,,,,,,,,,,,,,,,,,,,,,,,,,,,,,86462,2022-11-28_10h32.38.705,vts_reward_expectancy_bt_OFFLINE,2022.2.4,59.99635766952201,
0,1,0,0,1,0,0,0,circle,triangle,1,0,1,0,1,5,17,3,,,,,,,,,,,,,,,,,,,,,,,,,,,,,,,,,,,,,,,,598.8008623099886,598.8008623099886,598.8008623099886,598.8008623099886,598.8008623099886,598.8008623099886,598.8008623099886,598.8008623099886,598.8008623099886,598.8008623099886,a,1.0760722649283707,10,299,1,599.9014548100531,601.4018438579515,601.4018438579515,601.9021751540713,,,,,,,,,,,,,,,,,,,,,,,,,,,,,,,,,,,,,,,,,,,,,,,,,,,,,,,,,,,,,,,,,86462,2022-11-28_10h32.38.705,vts_reward_expectancy_bt_OFFLINE,2022.2.4,59.99635766952201,
0,0,0,1,0,1,0,0,star ,circle,1,0,1,0,1,6,18,10,,,,,,,,,,,,,,,,,,,,,,,,,,,,,,,,,,,,,,,,601.9021751540713,601.9021751540713,601.9021751540713,601.9021751540713,601.9021751540713,601.9021751540713,601.9021751540713,601.9021751540713,601.9021751540713,601.9021751540713,a,0.9229277772828937,10,309,1,602.8526565101929,604.3547092420049,,,,,,,,,,,,,,,,,,,,,,,,,,,,,,,,,,,,,,,,,,,,,,,,,,,,,,,,,,,,,,,,,,,86462,2022-11-28_10h32.38.705,vts_reward_expectancy_bt_OFFLINE,2022.2.4,59.99635766952201,
0,0,1,0,0,0,0,1,hexagon,star,1,0,1,0,1,7,19,8,,,,,,,,,,,,,,,,,,,,,,,,,,,,,,,,,,,,,,,,604.8550804690458,604.8550804690458,604.8550804690458,604.8550804690458,604.8550804690458,604.8550804690458,604.8550804690458,604.8550804690458,604.8550804690458,604.8550804690458,a,1.0749428858980536,10,319,1,605.9554707282223,607.4558625700884,607.4558625700884,607.9561533313245,,,,,,,,,,,,,,,,,,,,,,,,,,,,,,,,,,,,,,,,,,,,,,,,,,,,,,,,,,,,,,,,,86462,2022-11-28_10h32.38.705,vts_reward_expectancy_bt_OFFLINE,2022.2.4,59.99635766952201,
1,0,0,0,0,1,0,0,triangle,circle,1,0,1,0,1,8,20,0,,,,,,,,,,,,,,,,,,,,,,,,,,,,,,,,,,,,,,,,607.9561533313245,607.9561533313245,607.9561533313245,607.9561533313245,607.9561533313245,607.9561533313245,607.9561533313245,607.9561533313245,607.9561533313245,607.9561533313245,l,1.1471039089374244,10,329,1,609.125156332273,610.62562084198,610.62562084198,611.1256502051838,,,,,,,,,,,,,,,,,,,,,,,,,,,,,,,,,,,,,,,,,,,,,,,,,,,,,,,,,,,,,,,,,86462,2022-11-28_10h32.38.705,vts_reward_expectancy_bt_OFFLINE,2022.2.4,59.99635766952201,
1,0,0,0,0,0,0,1,triangle,star,1,0,1,0,1,9,21,2,,,,,,,,,,,,,,,,,,,,,,,,,,,,,,,,,,,,,,,,611.1256502051838,611.1256502051838,611.1256502051838,611.1256502051838,611.1256502051838,611.1256502051838,611.1256502051838,611.1256502051838,611.1256502051838,611.1256502051838,a,1.1041983542963862,1,330,1,612.2618595599197,613.7616714942269,,,,,,,,,,,,,,,,,,,,,,,,,,,,,,,,,,,,,,,,,,,,,,,,,,,,,,,,,,,,,,,,,,,86462,2022-11-28_10h32.38.705,vts_reward_expectancy_bt_OFFLINE,2022.2.4,59.99635766952201,
0,1,0,0,0,0,0,1,circle,star,1,0,1,0,1,10,22,5,,,,,,,,,,,,,,,,,,,,,,,,,,,,,,,,,,,,,,,,614.2619249280542,614.2619249280542,614.2619249280542,614.2619249280542,614.2619249280542,614.2619249280542,614.2619249280542,614.2619249280542,614.2619249280542,614.2619249280542,l,1.0287369210273027,10,340,1,615.3147047660314,616.8296191492118,,,,,,,,,,,,,,,,,,,,,,,,,,,,,,,,,,,,,,,,,,,,,,,,,,,,,,,,,,,,,,,,,,,86462,2022-11-28_10h32.38.705,vts_reward_expectancy_bt_OFFLINE,2022.2.4,59.99635766952201,
0,0,1,0,0,1,0,0,hexagon,circle,1,0,1,0,1,11,23,7,,,,,,,,,,,,,,,,,,,,,,,,,,,,,,,,,,,,,,,,617.3297504573129,617.3297504573129,617.3297504573129,617.3297504573129,617.3297504573129,617.3297504573129,617.3297504573129,617.3297504573129,617.3297504573129,617.3297504573129,l,1.0886020446196198,10,350,1,618.448753931094,619.9493319611065,619.9493319611065,,,,,,,,,,,,,,,,,,,,,,,,,,,,,,,,,,,,,,,,,,,,,,,,,,,,,,,,,,,,,,,,,,86462,2022-11-28_10h32.38.705,vts_reward_expectancy_bt_OFFLINE,2022.2.4,59.99635766952201,
1,0,0,0,0,1,0,0,triangle,circle,1,0,1,0,2,0,24,0,,,,,,,,,,,,,,,,,,,,,,,,,,,,,,,,,,,,,,,,620.4493379271589,620.4493379271589,620.4493379271589,620.4493379271589,620.4493379271589,620.4493379271589,620.4493379271589,620.4493379271589,620.4493379271589,620.4493379271589,l,0.533780463039875,1,351,1,621.0021209083498,622.5169216431677,,,,,,,,,,,,,,,,,,,,,,,,,,,,,,,,,,,,,,,,,,,,,,,,,,,,,,,,,,,,,,,,,,,86462,2022-11-28_10h32.38.705,vts_reward_expectancy_bt_OFFLINE,2022.2.4,59.99635766952201,
0,1,0,0,0,0,0,1,circle,star,1,0,1,0,2,1,25,5,,,,,,,,,,,,,,,,,,,,,,,,,,,,,,,,,,,,,,,,623.0168613633141,623.0168613633141,623.0168613633141,623.0168613633141,623.0168613633141,623.0168613633141,623.0168613633141,623.0168613633141,623.0168613633141,623.0168613633141,l,0.9932619510218501,10,361,1,624.0379400779493,625.5534228081815,,,,,,,,,,,,,,,,,,,,,,,,,,,,,,,,,,,,,,,,,,,,,,,,,,,,,,,,,,,,,,,,,,,86462,2022-11-28_10h32.38.705,vts_reward_expectancy_bt_OFFLINE,2022.2.4,59.99635766952201,
0,1,0,0,1,0,0,0,circle,triangle,1,0,1,0,2,2,26,3,,,,,,,,,,,,,,,,,,,,,,,,,,,,,,,,,,,,,,,,626.0365718211979,626.0365718211979,626.0365718211979,626.0365718211979,626.0365718211979,626.0365718211979,626.0365718211979,626.0365718211979,626.0365718211979,626.0365718211979,l,0.6388283660635352,10,371,1,626.7033734680153,628.2043012832291,628.2043012832291,,,,,,,,,,,,,,,,,,,,,,,,,,,,,,,,,,,,,,,,,,,,,,,,,,,,,,,,,,,,,,,,,,86462,2022-11-28_10h32.38.705,vts_reward_expectancy_bt_OFFLINE,2022.2.4,59.99635766952201,
0,0,1,0,0,0,0,1,hexagon,star,1,0,1,0,2,3,27,8,,,,,,,,,,,,,,,,,,,,,,,,,,,,,,,,,,,,,,,,628.7058528470807,628.7058528470807,628.7058528470807,628.7058528470807,628.7058528470807,628.7058528470807,628.7058528470807,628.7058528470807,628.7058528470807,628.7058528470807,a,0.759508993010968,1,372,1,629.4919873601757,631.0069470712915,,,,,,,,,,,,,,,,,,,,,,,,,,,,,,,,,,,,,,,,,,,,,,,,,,,,,,,,,,,,,,,,,,,86462,2022-11-28_10h32.38.705,vts_reward_expectancy_bt_OFFLINE,2022.2.4,59.99635766952201,
1,0,0,0,0,0,1,0,triangle,hexagon,1,0,1,0,2,4,28,1,,,,,,,,,,,,,,,,,,,,,,,,,,,,,,,,,,,,,,,,631.4905442399904,631.4905442399904,631.4905442399904,631.4905442399904,631.4905442399904,631.4905442399904,631.4905442399904,631.4905442399904,631.4905442399904,631.4905442399904,l,0.3604087708517909,1,373,1,631.8739078133367,633.3762864009477,,,,,,,,,,,,,,,,,,,,,,,,,,,,,,,,,,,,,,,,,,,,,,,,,,,,,,,,,,,,,,,,,,,86462,2022-11-28_10h32.38.705,vts_reward_expectancy_bt_OFFLINE,2022.2.4,59.99635766952201,
0,1,0,0,0,0,1,0,circle,hexagon,1,0,1,0,2,5,29,4,,,,,,,,,,,,,,,,,,,,,,,,,,,,,,,,,,,,,,,,633.876281502191,633.876281502191,633.876281502191,633.876281502191,633.876281502191,633.876281502191,633.876281502191,633.876281502191,633.876281502191,633.876281502191,a,0.6747620860114694,1,374,1,634.5768398819491,636.0772837842815,636.0772837842815,636.577287368942,,,,,,,,,,,,,,,,,,,,,,,,,,,,,,,,,,,,,,,,,,,,,,,,,,,,,,,,,,,,,,,,,86462,2022-11-28_10h32.38.705,vts_reward_expectancy_bt_OFFLINE,2022.2.4,59.99635766952201,
0,0,1,0,1,0,0,0,hexagon,triangle,1,0,1,0,2,6,30,6,,,,,,,,,,,,,,,,,,,,,,,,,,,,,,,,,,,,,,,,636.577287368942,636.577287368942,636.577287368942,636.577287368942,636.577287368942,636.577287368942,636.577287368942,636.577287368942,636.577287368942,636.577287368942,l,0.5726690604351461,10,384,1,637.1799538480118,638.6795893991366,,,,,,,,,,,,,,,,,,,,,,,,,,,,,,,,,,,,,,,,,,,,,,,,,,,,,,,,,,,,,,,,,,,86462,2022-11-28_10h32.38.705,vts_reward_expectancy_bt_OFFLINE,2022.2.4,59.99635766952201,
0,0,0,1,0,1,0,0,star ,circle,1,0,1,0,2,7,31,10,,,,,,,,,,,,,,,,,,,,,,,,,,,,,,,,,,,,,,,,639.1801575231366,639.1801575231366,639.1801575231366,639.1801575231366,639.1801575231366,639.1801575231366,639.1801575231366,639.1801575231366,639.1801575231366,639.1801575231366,l,0.8495549121871591,10,394,1,640.0475231823511,641.547659767326,641.547659767326,642.047870030161,,,,,,,,,,,,,,,,,,,,,,,,,,,,,,,,,,,,,,,,,,,,,,,,,,,,,,,,,,,,,,,,,86462,2022-11-28_10h32.38.705,vts_reward_expectancy_bt_OFFLINE,2022.2.4,59.99635766952201,
0,0,1,0,0,1,0,0,hexagon,circle,1,0,1,0,2,8,32,7,,,,,,,,,,,,,,,,,,,,,,,,,,,,,,,,,,,,,,,,642.047870030161,642.047870030161,642.047870030161,642.047870030161,642.047870030161,642.047870030161,642.047870030161,642.047870030161,642.047870030161,642.047870030161,l,0.5359849650412798,10,404,1,642.6146089360118,644.1170562612824,644.1170562612824,644.6174470442347,,,,,,,,,,,,,,,,,,,,,,,,,,,,,,,,,,,,,,,,,,,,,,,,,,,,,,,,,,,,,,,,,86462,2022-11-28_10h32.38.705,vts_reward_expectancy_bt_OFFLINE,2022.2.4,59.99635766952201,
0,0,0,1,1,0,0,0,star,triangle,1,0,1,0,2,9,33,9,,,,,,,,,,,,,,,,,,,,,,,,,,,,,,,,,,,,,,,,644.6174470442347,644.6174470442347,644.6174470442347,644.6174470442347,644.6174470442347,644.6174470442347,644.6174470442347,644.6174470442347,644.6174470442347,644.6174470442347,a,0.7462991490028799,10,414,1,645.3847188139334,646.8845605752431,646.8845605752431,647.3851557411253,,,,,,,,,,,,,,,,,,,,,,,,,,,,,,,,,,,,,,,,,,,,,,,,,,,,,,,,,,,,,,,,,86462,2022-11-28_10h32.38.705,vts_reward_expectancy_bt_OFFLINE,2022.2.4,59.99635766952201,
0,0,0,1,0,0,1,0,star,hexagon,1,0,1,0,2,10,34,11,,,,,,,,,,,,,,,,,,,,,,,,,,,,,,,,,,,,,,,,647.3851557411253,647.3851557411253,647.3851557411253,647.3851557411253,647.3851557411253,647.3851557411253,647.3851557411253,647.3851557411253,647.3851557411253,647.3851557411253,l,0.44266942609101534,10,424,1,647.8519397540949,649.3540852852166,,,,,,,,,,,,,,,,,,,,,,,,,,,,,,,,,,,,,,,,,,,,,,,,,,,,,,,,,,,,,,,,,,,86462,2022-11-28_10h32.38.705,vts_reward_expectancy_bt_OFFLINE,2022.2.4,59.99635766952201,
1,0,0,0,0,0,0,1,triangle,star,1,0,1,0,2,11,35,2,,,,,,,,,,,,,,,,,,,,,,,,,,,,,,,,,,,,,,,,649.8545461362228,649.8545461362228,649.8545461362228,649.8545461362228,649.8545461362228,649.8545461362228,649.8545461362228,649.8545461362228,649.8545461362228,649.8545461362228,l,1.0670314421877265,1,425,1,650.9406930212863,652.4553970969282,,,,,,,,,,,,,,,,,,,,,,,,,,,,,,,,,,,,,,,,,,,,,,,,,,,,,,,,,,,,,,,,,,,86462,2022-11-28_10h32.38.705,vts_reward_expectancy_bt_OFFLINE,2022.2.4,59.99635766952201,
0,0,1,0,0,0,0,1,hexagon,star,1,0,1,0,3,0,36,8,,,,,,,,,,,,,,,,,,,,,,,,,,,,,,,,,,,,,,,,652.9555082800798,652.9555082800798,652.9555082800798,652.9555082800798,652.9555082800798,652.9555082800798,652.9555082800798,652.9555082800798,652.9555082800798,652.9555082800798,a,0.5750974584370852,1,426,1,653.5577898970805,655.058125691954,655.058125691954,655.5583647652529,,,,,,,,,,,,,,,,,,,,,,,,,,,,,,,,,,,,,,,,,,,,,,,,,,,,,,,,,,,,,,,,,86462,2022-11-28_10h32.38.705,vts_reward_expectancy_bt_OFFLINE,2022.2.4,59.99635766952201,
0,0,0,1,0,1,0,0,star ,circle,1,0,1,0,3,1,37,10,,,,,,,,,,,,,,,,,,,,,,,,,,,,,,,,,,,,,,,,655.5583647652529,655.5583647652529,655.5583647652529,655.5583647652529,655.5583647652529,655.5583647652529,655.5583647652529,655.5583647652529,655.5583647652529,655.5583647652529,l,0.5936215352267027,10,436,1,656.1776519110426,657.692477625329,,,,,,,,,,,,,,,,,,,,,,,,,,,,,,,,,,,,,,,,,,,,,,,,,,,,,,,,,,,,,,,,,,,86462,2022-11-28_10h32.38.705,vts_reward_expectancy_bt_OFFLINE,2022.2.4,59.99635766952201,
0,0,1,0,0,1,0,0,hexagon,circle,1,0,1,0,3,2,38,7,,,,,,,,,,,,,,,,,,,,,,,,,,,,,,,,,,,,,,,,658.1759164449759,658.1759164449759,658.1759164449759,658.1759164449759,658.1759164449759,658.1759164449759,658.1759164449759,658.1759164449759,658.1759164449759,658.1759164449759,l,0.5075452881865203,10,446,1,658.711304645054,660.2119440371171,660.2119440371171,,,,,,,,,,,,,,,,,,,,,,,,,,,,,,,,,,,,,,,,,,,,,,,,,,,,,,,,,,,,,,,,,,86462,2022-11-28_10h32.38.705,vts_reward_expectancy_bt_OFFLINE,2022.2.4,59.99635766952201,
1,0,0,0,0,0,0,1,triangle,star,1,0,1,0,3,3,39,2,,,,,,,,,,,,,,,,,,,,,,,,,,,,,,,,,,,,,,,,660.7119712322019,660.7119712322019,660.7119712322019,660.7119712322019,660.7119712322019,660.7119712322019,660.7119712322019,660.7119712322019,660.7119712322019,660.7119712322019,a,1.954597292933613,10,456,1,662.6964928801171,664.1983496812172,,,,,,,,,,,,,,,,,,,,,,,,,,,,,,,,,,,,,,,,,,,,,,,,,,,,,,,,,,,,,,,,,,,86462,2022-11-28_10h32.38.705,vts_reward_expectancy_bt_OFFLINE,2022.2.4,59.99635766952201,
0,1,0,0,0,0,1,0,circle,hexagon,1,0,1,0,3,4,40,4,,,,,,,,,,,,,,,,,,,,,,,,,,,,,,,,,,,,,,,,664.6985879773274,664.6985879773274,664.6985879773274,664.6985879773274,664.6985879773274,664.6985879773274,664.6985879773274,664.6985879773274,664.6985879773274,664.6985879773274,l,1.3771852599456906,10,466,1,666.0996248470619,667.5993689419702,667.5993689419702,668.0995469992049,,,,,,,,,,,,,,,,,,,,,,,,,,,,,,,,,,,,,,,,,,,,,,,,,,,,,,,,,,,,,,,,,86462,2022-11-28_10h32.38.705,vts_reward_expectancy_bt_OFFLINE,2022.2.4,59.99635766952201,
0,0,0,1,0,0,1,0,star,hexagon,1,0,1,0,3,5,41,11,,,,,,,,,,,,,,,,,,,,,,,,,,,,,,,,,,,,,,,,668.0995469992049,668.0995469992049,668.0995469992049,668.0995469992049,668.0995469992049,668.0995469992049,668.0995469992049,668.0995469992049,668.0995469992049,668.0995469992049,l,1.542578742839396,1,467,1,669.6714528421871,671.1862549842335,,,,,,,,,,,,,,,,,,,,,,,,,,,,,,,,,,,,,,,,,,,,,,,,,,,,,,,,,,,,,,,,,,,86462,2022-11-28_10h32.38.705,vts_reward_expectancy_bt_OFFLINE,2022.2.4,59.99635766952201,
1,0,0,0,0,1,0,0,triangle,circle,1,0,1,0,3,6,42,0,,,,,,,,,,,,,,,,,,,,,,,,,,,,,,,,,,,,,,,,671.6860394370742,671.6860394370742,671.6860394370742,671.6860394370742,671.6860394370742,671.6860394370742,671.6860394370742,671.6860394370742,671.6860394370742,671.6860394370742,l,0.6113151810131967,10,477,1,672.3220976740122,673.8221333003603,,,,,,,,,,,,,,,,,,,,,,,,,,,,,,,,,,,,,,,,,,,,,,,,,,,,,,,,,,,,,,,,,,,86462,2022-11-28_10h32.38.705,vts_reward_expectancy_bt_OFFLINE,2022.2.4,59.99635766952201,
0,1,0,0,0,0,0,1,circle,star,1,0,1,0,3,7,43,5,,,,,,,,,,,,,,,,,,,,,,,,,,,,,,,,,,,,,,,,674.3224467872642,674.3224467872642,674.3224467872642,674.3224467872642,674.3224467872642,674.3224467872642,674.3224467872642,674.3224467872642,674.3224467872642,674.3224467872642,l,1.2493243520148098,10,487,1,675.5902802161872,677.0900967651978,677.0900967651978,677.5900322292,,,,,,,,,,,,,,,,,,,,,,,,,,,,,,,,,,,,,,,,,,,,,,,,,,,,,,,,,,,,,,,,,86462,2022-11-28_10h32.38.705,vts_reward_expectancy_bt_OFFLINE,2022.2.4,59.99635766952201,
0,1,0,0,1,0,0,0,circle,triangle,1,0,1,0,3,8,44,3,,,,,,,,,,,,,,,,,,,,,,,,,,,,,,,,,,,,,,,,677.5900322292,677.5900322292,677.5900322292,677.5900322292,677.5900322292,677.5900322292,677.5900322292,677.5900322292,677.5900322292,677.5900322292,l,1.0299774631857872,10,497,1,678.6425278801471,680.1428563459776,680.1428563459776,680.6430100081488,,,,,,,,,,,,,,,,,,,,,,,,,,,,,,,,,,,,,,,,,,,,,,,,,,,,,,,,,,,,,,,,,86462,2022-11-28_10h32.38.705,vts_reward_expectancy_bt_OFFLINE,2022.2.4,59.99635766952201,
0,0,1,0,1,0,0,0,hexagon,triangle,1,0,1,0,3,9,45,6,,,,,,,,,,,,,,,,,,,,,,,,,,,,,,,,,,,,,,,,680.6430100081488,680.6430100081488,680.6430100081488,680.6430100081488,680.6430100081488,680.6430100081488,680.6430100081488,680.6430100081488,680.6430100081488,680.6430100081488,l,0.7222267296165228,1,498,1,681.3959553372115,682.9105270700529,,,,,,,,,,,,,,,,,,,,,,,,,,,,,,,,,,,,,,,,,,,,,,,,,,,,,,,,,,,,,,,,,,,86462,2022-11-28_10h32.38.705,vts_reward_expectancy_bt_OFFLINE,2022.2.4,59.99635766952201,
0,0,0,1,1,0,0,0,star,triangle,1,0,1,0,3,10,46,9,,,,,,,,,,,,,,,,,,,,,,,,,,,,,,,,,,,,,,,,683.396117201075,683.396117201075,683.396117201075,683.396117201075,683.396117201075,683.396117201075,683.396117201075,683.396117201075,683.396117201075,683.396117201075,l,0.8604390071704984,1,499,1,684.2802488091402,685.7802701871842,685.7802701871842,686.2803387711756,,,,,,,,,,,,,,,,,,,,,,,,,,,,,,,,,,,,,,,,,,,,,,,,,,,,,,,,,,,,,,,,,86462,2022-11-28_10h32.38.705,vts_reward_expectancy_bt_OFFLINE,2022.2.4,59.99635766952201,
1,0,0,0,0,0,1,0,triangle,hexagon,1,0,1,0,3,11,47,1,,,,,,,,,,,,,,,,,,,,,,,,,,,,,,,,,,,,,,,,686.2803387711756,686.2803387711756,686.2803387711756,686.2803387711756,686.2803387711756,686.2803387711756,686.2803387711756,686.2803387711756,686.2803387711756,686.2803387711756,a,1.689002240076661,1,500,1,687.9982066252269,689.5001007141545,,,,,,,,,,,,,,,,,,,,,,,,,,,,,,,,,,,,,,,,,,,,,,,,,,,,,,,,,,,,,,,,,,,86462,2022-11-28_10h32.38.705,vts_reward_expectancy_bt_OFFLINE,2022.2.4,59.99635766952201,
1,0,0,0,0,0,0,1,triangle,star,2,0,2,0,0,0,0,2,,,,,,,,,,,,,,,,,,,,,,,,,,,,,,,,,,,,,,,,693.7819630801678,693.7819630801678,693.7819630801678,693.7819630801678,693.7819630801678,693.7819630801678,693.7819630801678,693.7819630801678,693.7819630801678,693.7819630801678,l,1.129329218994826,1,501,2,694.9377901381813,696.4376519010402,696.4376519010402,696.9379910943098,,,,,,,,,,,,,,,,,,,,,,,,,,,,,,,,,,,,,,,,,,,,,,,,,,,,,,,,,,,,,,,,,86462,2022-11-28_10h32.38.705,vts_reward_expectancy_bt_OFFLINE,2022.2.4,59.99635766952201,
0,1,0,0,0,0,0,1,circle,star,2,0,2,0,0,1,1,5,,,,,,,,,,,,,,,,,,,,,,,,,,,,,,,,,,,,,,,,696.9379910943098,696.9379910943098,696.9379910943098,696.9379910943098,696.9379910943098,696.9379910943098,696.9379910943098,696.9379910943098,696.9379910943098,696.9379910943098,a,0.5385552500374615,1,502,2,697.5052931420505,699.0069867260754,,,,,,,,,,,,,,,,,,,,,,,,,,,,,,,,,,,,,,,,,,,,,,,,,,,,,,,,,,,,,,,,,,,86462,2022-11-28_10h32.38.705,vts_reward_expectancy_bt_OFFLINE,2022.2.4,59.99635766952201,
0,0,1,0,0,0,0,1,hexagon,star,2,0,2,0,0,2,2,8,,,,,,,,,,,,,,,,,,,,,,,,,,,,,,,,,,,,,,,,699.507315905299,699.507315905299,699.507315905299,699.507315905299,699.507315905299,699.507315905299,699.507315905299,699.507315905299,699.507315905299,699.507315905299,l,0.4656109930947423,10,512,2,699.9935173671693,701.5080113783479,,,,,,,,,,,,,,,,,,,,,,,,,,,,,,,,,,,,,,,,,,,,,,,,,,,,,,,,,,,,,,,,,,,86462,2022-11-28_10h32.38.705,vts_reward_expectancy_bt_OFFLINE,2022.2.4,59.99635766952201,
1,0,0,0,0,0,1,0,triangle,hexagon,2,0,2,0,0,3,3,1,,,,,,,,,,,,,,,,,,,,,,,,,,,,,,,,,,,,,,,,702.0080577610061,702.0080577610061,702.0080577610061,702.0080577610061,702.0080577610061,702.0080577610061,702.0080577610061,702.0080577610061,702.0080577610061,702.0080577610061,l,0.5420884559862316,1,513,2,702.5773469712585,704.0772930360399,,,,,,,,,,,,,,,,,,,,,,,,,,,,,,,,,,,,,,,,,,,,,,,,,,,,,,,,,,,,,,,,,,,86462,2022-11-28_10h32.38.705,vts_reward_expectancy_bt_OFFLINE,2022.2.4,59.99635766952201,
0,0,1,0,1,0,0,0,hexagon,triangle,2,0,2,0,0,4,4,6,,,,,,,,,,,,,,,,,,,,,,,,,,,,,,,,,,,,,,,,704.5776270711794,704.5776270711794,704.5776270711794,704.5776270711794,704.5776270711794,704.5776270711794,704.5776270711794,704.5776270711794,704.5776270711794,704.5776270711794,a,0.8182091931812465,10,523,2,705.4288219013251,706.9282999080606,706.9282999080606,707.4285851959139,,,,,,,,,,,,,,,,,,,,,,,,,,,,,,,,,,,,,,,,,,,,,,,,,,,,,,,,,,,,,,,,,86462,2022-11-28_10h32.38.705,vts_reward_expectancy_bt_OFFLINE,2022.2.4,59.99635766952201,
0,0,1,0,0,1,0,0,hexagon,circle,2,0,2,0,0,5,5,7,,,,,,,,,,,,,,,,,,,,,,,,,,,,,,,,,,,,,,,,707.4285851959139,707.4285851959139,707.4285851959139,707.4285851959139,707.4285851959139,707.4285851959139,707.4285851959139,707.4285851959139,707.4285851959139,707.4285851959139,l,0.6004924727603793,10,533,2,708.0468092272058,709.5479419049807,,,,,,,,,,,,,,,,,,,,,,,,,,,,,,,,,,,,,,,,,,,,,,,,,,,,,,,,,,,,,,,,,,,86462,2022-11-28_10h32.38.705,vts_reward_expectancy_bt_OFFLINE,2022.2.4,59.99635766952201,
0,0,0,1,1,0,0,0,star,triangle,2,0,2,0,0,6,6,9,,,,,,,,,,,,,,,,,,,,,,,,,,,,,,,,,,,,,,,,710.0481921453029,710.0481921453029,710.0481921453029,710.0481921453029,710.0481921453029,710.0481921453029,710.0481921453029,710.0481921453029,710.0481921453029,710.0481921453029,a,0.500257798936218,10,543,2,710.5661315550096,712.0655373879708,712.0655373879708,712.5653554792516,,,,,,,,,,,,,,,,,,,,,,,,,,,,,,,,,,,,,,,,,,,,,,,,,,,,,,,,,,,,,,,,,86462,2022-11-28_10h32.38.705,vts_reward_expectancy_bt_OFFLINE,2022.2.4,59.99635766952201,
0,1,0,0,1,0,0,0,circle,triangle,2,0,2,0,0,7,7,3,,,,,,,,,,,,,,,,,,,,,,,,,,,,,,,,,,,,,,,,712.5653554792516,712.5653554792516,712.5653554792516,712.5653554792516,712.5653554792516,712.5653554792516,712.5653554792516,712.5653554792516,712.5653554792516,712.5653554792516,a,0.7744550369679928,10,553,2,713.3581780903041,714.8684072303586,,,,,,,,,,,,,,,,,,,,,,,,,,,,,,,,,,,,,,,,,,,,,,,,,,,,,,,,,,,,,,,,,,,86462,2022-11-28_10h32.38.705,vts_reward_expectancy_bt_OFFLINE,2022.2.4,59.99635766952201,
0,1,0,0,0,0,1,0,circle,hexagon,2,0,2,0,0,8,8,4,,,,,,,,,,,,,,,,,,,,,,,,,,,,,,,,,,,,,,,,715.3684488921426,715.3684488921426,715.3684488921426,715.3684488921426,715.3684488921426,715.3684488921426,715.3684488921426,715.3684488921426,715.3684488921426,715.3684488921426,a,0.49112995620816946,10,563,2,715.8859904119745,717.3860758380033,717.3860758380033,717.8861333872192,,,,,,,,,,,,,,,,,,,,,,,,,,,,,,,,,,,,,,,,,,,,,,,,,,,,,,,,,,,,,,,,,86462,2022-11-28_10h32.38.705,vts_reward_expectancy_bt_OFFLINE,2022.2.4,59.99635766952201,
1,0,0,0,0,1,0,0,triangle,circle,2,0,2,0,0,9,9,0,,,,,,,,,,,,,,,,,,,,,,,,,,,,,,,,,,,,,,,,717.8861333872192,717.8861333872192,717.8861333872192,717.8861333872192,717.8861333872192,717.8861333872192,717.8861333872192,717.8861333872192,717.8861333872192,717.8861333872192,l,0.7188313659280539,10,573,2,718.6227949443273,720.1221750853583,720.1221750853583,720.6224167020991,,,,,,,,,,,,,,,,,,,,,,,,,,,,,,,,,,,,,,,,,,,,,,,,,,,,,,,,,,,,,,,,,86462,2022-11-28_10h32.38.705,vts_reward_expectancy_bt_OFFLINE,2022.2.4,59.99635766952201,
0,0,0,1,0,1,0,0,star ,circle,2,0,2,0,0,10,10,10,,,,,,,,,,,,,,,,,,,,,,,,,,,,,,,,,,,,,,,,720.6224167020991,720.6224167020991,720.6224167020991,720.6224167020991,720.6224167020991,720.6224167020991,720.6224167020991,720.6224167020991,720.6224167020991,720.6224167020991,l,0.693812167737633,1,574,2,721.3418204989284,722.8565318682231,,,,,,,,,,,,,,,,,,,,,,,,,,,,,,,,,,,,,,,,,,,,,,,,,,,,,,,,,,,,,,,,,,,86462,2022-11-28_10h32.38.705,vts_reward_expectancy_bt_OFFLINE,2022.2.4,59.99635766952201,
0,0,0,1,0,0,1,0,star,hexagon,2,0,2,0,0,11,11,11,,,,,,,,,,,,,,,,,,,,,,,,,,,,,,,,,,,,,,,,723.3503718613647,723.3503718613647,723.3503718613647,723.3503718613647,723.3503718613647,723.3503718613647,723.3503718613647,723.3503718613647,723.3503718613647,723.3503718613647,l,1.2391987750306726,1,575,2,724.6093876049854,726.1092716380954,726.1092716380954,726.6093894289806,,,,,,,,,,,,,,,,,,,,,,,,,,,,,,,,,,,,,,,,,,,,,,,,,,,,,,,,,,,,,,,,,86462,2022-11-28_10h32.38.705,vts_reward_expectancy_bt_OFFLINE,2022.2.4,59.99635766952201,
0,1,0,0,1,0,0,0,circle,triangle,2,0,2,0,1,0,12,3,,,,,,,,,,,,,,,,,,,,,,,,,,,,,,,,,,,,,,,,726.6093894289806,726.6093894289806,726.6093894289806,726.6093894289806,726.6093894289806,726.6093894289806,726.6093894289806,726.6093894289806,726.6093894289806,726.6093894289806,l,1.1302959029562771,1,576,2,727.7606269461103,729.2622672379948,,,,,,,,,,,,,,,,,,,,,,,,,,,,,,,,,,,,,,,,,,,,,,,,,,,,,,,,,,,,,,,,,,,86462,2022-11-28_10h32.38.705,vts_reward_expectancy_bt_OFFLINE,2022.2.4,59.99635766952201,
1,0,0,0,0,0,0,1,triangle,star,2,0,2,0,1,1,13,2,,,,,,,,,,,,,,,,,,,,,,,,,,,,,,,,,,,,,,,,729.762513034977,729.762513034977,729.762513034977,729.762513034977,729.762513034977,729.762513034977,729.762513034977,729.762513034977,729.762513034977,729.762513034977,l,0.879607536830008,10,586,2,730.6659263879992,732.1800180720165,,,,,,,,,,,,,,,,,,,,,,,,,,,,,,,,,,,,,,,,,,,,,,,,,,,,,,,,,,,,,,,,,,,86462,2022-11-28_10h32.38.705,vts_reward_expectancy_bt_OFFLINE,2022.2.4,59.99635766952201,
0,0,1,0,1,0,0,0,hexagon,triangle,2,0,2,0,1,2,14,6,,,,,,,,,,,,,,,,,,,,,,,,,,,,,,,,,,,,,,,,732.6635889993049,732.6635889993049,732.6635889993049,732.6635889993049,732.6635889993049,732.6635889993049,732.6635889993049,732.6635889993049,732.6635889993049,732.6635889993049,a,0.9948280630633235,10,596,2,733.6834604269825,735.1828694511205,735.1828694511205,735.6831580903381,,,,,,,,,,,,,,,,,,,,,,,,,,,,,,,,,,,,,,,,,,,,,,,,,,,,,,,,,,,,,,,,,86462,2022-11-28_10h32.38.705,vts_reward_expectancy_bt_OFFLINE,2022.2.4,59.99635766952201,
0,0,0,1,0,0,1,0,star,hexagon,2,0,2,0,1,3,15,11,,,,,,,,,,,,,,,,,,,,,,,,,,,,,,,,,,,,,,,,735.6831580903381,735.6831580903381,735.6831580903381,735.6831580903381,735.6831580903381,735.6831580903381,735.6831580903381,735.6831580903381,735.6831580903381,735.6831580903381,a,0.5168246673420072,10,606,2,736.218006378971,737.7171633611433,737.7171633611433,738.2173969862051,,,,,,,,,,,,,,,,,,,,,,,,,,,,,,,,,,,,,,,,,,,,,,,,,,,,,,,,,,,,,,,,,86462,2022-11-28_10h32.38.705,vts_reward_expectancy_bt_OFFLINE,2022.2.4,59.99635766952201,
0,1,0,0,0,0,1,0,circle,hexagon,2,0,2,0,1,4,16,4,,,,,,,,,,,,,,,,,,,,,,,,,,,,,,,,,,,,,,,,738.2173969862051,738.2173969862051,738.2173969862051,738.2173969862051,738.2173969862051,738.2173969862051,738.2173969862051,738.2173969862051,738.2173969862051,738.2173969862051,l,1.527163004502654,1,607,2,739.7723208982497,741.2871670322493,,,,,,,,,,,,,,,,,,,,,,,,,,,,,,,,,,,,,,,,,,,,,,,,,,,,,,,,,,,,,,,,,,,86462,2022-11-28_10h32.38.705,vts_reward_expectancy_bt_OFFLINE,2022.2.4,59.99635766952201,
0,1,0,0,0,0,0,1,circle,star,2,0,2,0,1,5,17,5,,,,,,,,,,,,,,,,,,,,,,,,,,,,,,,,,,,,,,,,741.7871027411893,741.7871027411893,741.7871027411893,741.7871027411893,741.7871027411893,741.7871027411893,741.7871027411893,741.7871027411893,741.7871027411893,741.7871027411893,l,0.6686901962384582,1,608,2,742.4870372992009,743.9896075269207,743.9896075269207,744.490008387249,,,,,,,,,,,,,,,,,,,,,,,,,,,,,,,,,,,,,,,,,,,,,,,,,,,,,,,,,,,,,,,,,86462,2022-11-28_10h32.38.705,vts_reward_expectancy_bt_OFFLINE,2022.2.4,59.99635766952201,
0,0,1,0,0,1,0,0,hexagon,circle,2,0,2,0,1,6,18,7,,,,,,,,,,,,,,,,,,,,,,,,,,,,,,,,,,,,,,,,744.490008387249,744.490008387249,744.490008387249,744.490008387249,744.490008387249,744.490008387249,744.490008387249,744.490008387249,744.490008387249,744.490008387249,l,0.5193423847667873,10,618,2,745.0415714550763,746.5406429190189,746.5406429190189,747.0409613703378,,,,,,,,,,,,,,,,,,,,,,,,,,,,,,,,,,,,,,,,,,,,,,,,,,,,,,,,,,,,,,,,,86462,2022-11-28_10h32.38.705,vts_reward_expectancy_bt_OFFLINE,2022.2.4,59.99635766952201,
1,0,0,0,0,1,0,0,triangle,circle,2,0,2,0,1,7,19,0,,,,,,,,,,,,,,,,,,,,,,,,,,,,,,,,,,,,,,,,747.0409613703378,747.0409613703378,747.0409613703378,747.0409613703378,747.0409613703378,747.0409613703378,747.0409613703378,747.0409613703378,747.0409613703378,747.0409613703378,l,0.6132239010185003,10,628,2,747.6757786930539,749.1767875221558,,,,,,,,,,,,,,,,,,,,,,,,,,,,,,,,,,,,,,,,,,,,,,,,,,,,,,,,,,,,,,,,,,,86462,2022-11-28_10h32.38.705,vts_reward_expectancy_bt_OFFLINE,2022.2.4,59.99635766952201,
0,0,0,1,1,0,0,0,star,triangle,2,0,2,0,1,8,20,9,,,,,,,,,,,,,,,,,,,,,,,,,,,,,,,,,,,,,,,,749.6771561470814,749.6771561470814,749.6771561470814,749.6771561470814,749.6771561470814,749.6771561470814,749.6771561470814,749.6771561470814,749.6771561470814,749.6771561470814,a,0.6872208919376135,10,638,2,750.3944513499737,751.8945073001087,751.8945073001087,,,,,,,,,,,,,,,,,,,,,,,,,,,,,,,,,,,,,,,,,,,,,,,,,,,,,,,,,,,,,,,,,,86462,2022-11-28_10h32.38.705,vts_reward_expectancy_bt_OFFLINE,2022.2.4,59.99635766952201,
0,0,1,0,0,0,0,1,hexagon,star,2,0,2,0,1,9,21,8,,,,,,,,,,,,,,,,,,,,,,,,,,,,,,,,,,,,,,,,752.3947680499405,752.3947680499405,752.3947680499405,752.3947680499405,752.3947680499405,752.3947680499405,752.3947680499405,752.3947680499405,752.3947680499405,752.3947680499405,l,0.5459973029792309,10,648,2,752.9626587610692,754.4640201302245,,,,,,,,,,,,,,,,,,,,,,,,,,,,,,,,,,,,,,,,,,,,,,,,,,,,,,,,,,,,,,,,,,,86462,2022-11-28_10h32.38.705,vts_reward_expectancy_bt_OFFLINE,2022.2.4,59.99635766952201,
0,0,0,1,0,1,0,0,star ,circle,2,0,2,0,1,10,22,10,,,,,,,,,,,,,,,,,,,,,,,,,,,,,,,,,,,,,,,,754.9640949843451,754.9640949843451,754.9640949843451,754.9640949843451,754.9640949843451,754.9640949843451,754.9640949843451,754.9640949843451,754.9640949843451,754.9640949843451,a,1.487184672150761,10,658,2,756.4825288541615,757.9818617892452,757.9818617892452,,,,,,,,,,,,,,,,,,,,,,,,,,,,,,,,,,,,,,,,,,,,,,,,,,,,,,,,,,,,,,,,,,86462,2022-11-28_10h32.38.705,vts_reward_expectancy_bt_OFFLINE,2022.2.4,59.99635766952201,
1,0,0,0,0,0,1,0,triangle,hexagon,2,0,2,0,1,11,23,1,,,,,,,,,,,,,,,,,,,,,,,,,,,,,,,,,,,,,,,,758.4839789131656,758.4839789131656,758.4839789131656,758.4839789131656,758.4839789131656,758.4839789131656,758.4839789131656,758.4839789131656,758.4839789131656,758.4839789131656,l,1.4659878201782703,1,659,2,759.9705495610833,761.4849786902778,,,,,,,,,,,,,,,,,,,,,,,,,,,,,,,,,,,,,,,,,,,,,,,,,,,,,,,,,,,,,,,,,,,86462,2022-11-28_10h32.38.705,vts_reward_expectancy_bt_OFFLINE,2022.2.4,59.99635766952201,
1,0,0,0,0,0,0,1,triangle,star,2,0,2,0,2,0,24,2,,,,,,,,,,,,,,,,,,,,,,,,,,,,,,,,,,,,,,,,761.9851806429215,761.9851806429215,761.9851806429215,761.9851806429215,761.9851806429215,761.9851806429215,761.9851806429215,761.9851806429215,761.9851806429215,761.9851806429215,l,0.6537200380116701,10,669,2,762.671362283174,764.1710960869677,,,,,,,,,,,,,,,,,,,,,,,,,,,,,,,,,,,,,,,,,,,,,,,,,,,,,,,,,,,,,,,,,,,86462,2022-11-28_10h32.38.705,vts_reward_expectancy_bt_OFFLINE,2022.2.4,59.99635766952201,
1,0,0,0,0,0,1,0,triangle,hexagon,2,0,2,0,2,1,25,1,,,,,,,,,,,,,,,,,,,,,,,,,,,,,,,,,,,,,,,,764.6710996483453,764.6710996483453,764.6710996483453,764.6710996483453,764.6710996483453,764.6710996483453,764.6710996483453,764.6710996483453,764.6710996483453,764.6710996483453,a,1.0506929960101843,1,670,2,765.7417440251447,767.2555148792453,,,,,,,,,,,,,,,,,,,,,,,,,,,,,,,,,,,,,,,,,,,,,,,,,,,,,,,,,,,,,,,,,,,86462,2022-11-28_10h32.38.705,vts_reward_expectancy_bt_OFFLINE,2022.2.4,59.99635766952201,
0,1,0,0,0,0,0,1,circle,star,2,0,2,0,2,2,26,5,,,,,,,,,,,,,,,,,,,,,,,,,,,,,,,,,,,,,,,,767.7556971139275,767.7556971139275,767.7556971139275,767.7556971139275,767.7556971139275,767.7556971139275,767.7556971139275,767.7556971139275,767.7556971139275,767.7556971139275,l,1.0159804890863597,10,680,2,768.793626780156,770.3086222670972,,,,,,,,,,,,,,,,,,,,,,,,,,,,,,,,,,,,,,,,,,,,,,,,,,,,,,,,,,,,,,,,,,,86462,2022-11-28_10h32.38.705,vts_reward_expectancy_bt_OFFLINE,2022.2.4,59.99635766952201,
0,0,1,0,0,1,0,0,hexagon,circle,2,0,2,0,2,3,27,7,,,,,,,,,,,,,,,,,,,,,,,,,,,,,,,,,,,,,,,,770.7920508142561,770.7920508142561,770.7920508142561,770.7920508142561,770.7920508142561,770.7920508142561,770.7920508142561,770.7920508142561,770.7920508142561,770.7920508142561,l,0.7461020718328655,10,690,2,771.5598130952567,773.0593015900813,773.0593015900813,,,,,,,,,,,,,,,,,,,,,,,,,,,,,,,,,,,,,,,,,,,,,,,,,,,,,,,,,,,,,,,,,,86462,2022-11-28_10h32.38.705,vts_reward_expectancy_bt_OFFLINE,2022.2.4,59.99635766952201,
0,1,0,0,1,0,0,0,circle,triangle,2,0,2,0,2,4,28,3,,,,,,,,,,,,,,,,,,,,,,,,,,,,,,,,,,,,,,,,773.5611947602592,773.5611947602592,773.5611947602592,773.5611947602592,773.5611947602592,773.5611947602592,773.5611947602592,773.5611947602592,773.5611947602592,773.5611947602592,a,0.7557711652480066,1,691,2,774.3479481050745,775.862474098336,,,,,,,,,,,,,,,,,,,,,,,,,,,,,,,,,,,,,,,,,,,,,,,,,,,,,,,,,,,,,,,,,,,86462,2022-11-28_10h32.38.705,vts_reward_expectancy_bt_OFFLINE,2022.2.4,59.99635766952201,
0,0,0,1,0,0,1,0,star,hexagon,2,0,2,0,2,5,29,11,,,,,,,,,,,,,,,,,,,,,,,,,,,,,,,,,,,,,,,,776.3625246589072,776.3625246589072,776.3625246589072,776.3625246589072,776.3625246589072,776.3625246589072,776.3625246589072,776.3625246589072,776.3625246589072,776.3625246589072,a,0.7453620680607855,1,692,2,777.1302768182941,778.6318132989109,,,,,,,,,,,,,,,,,,,,,,,,,,,,,,,,,,,,,,,,,,,,,,,,,,,,,,,,,,,,,,,,,,,86462,2022-11-28_10h32.38.705,vts_reward_expectancy_bt_OFFLINE,2022.2.4,59.99635766952201,
0,0,1,0,0,0,0,1,hexagon,star,2,0,2,0,2,6,30,8,,,,,,,,,,,,,,,,,,,,,,,,,,,,,,,,,,,,,,,,779.1320262663066,779.1320262663066,779.1320262663066,779.1320262663066,779.1320262663066,779.1320262663066,779.1320262663066,779.1320262663066,779.1320262663066,779.1320262663066,l,0.5628388780169189,1,693,2,779.716751662083,781.2162115299143,781.2162115299143,781.7162742679939,,,,,,,,,,,,,,,,,,,,,,,,,,,,,,,,,,,,,,,,,,,,,,,,,,,,,,,,,,,,,,,,,86462,2022-11-28_10h32.38.705,vts_reward_expectancy_bt_OFFLINE,2022.2.4,59.99635766952201,
0,0,0,1,0,1,0,0,star ,circle,2,0,2,0,2,7,31,10,,,,,,,,,,,,,,,,,,,,,,,,,,,,,,,,,,,,,,,,781.7162742679939,781.7162742679939,781.7162742679939,781.7162742679939,781.7162742679939,781.7162742679939,781.7162742679939,781.7162742679939,781.7162742679939,781.7162742679939,a,0.5438320920802653,1,694,2,782.2841680473648,783.7855365681462,,,,,,,,,,,,,,,,,,,,,,,,,,,,,,,,,,,,,,,,,,,,,,,,,,,,,,,,,,,,,,,,,,,86462,2022-11-28_10h32.38.705,vts_reward_expectancy_bt_OFFLINE,2022.2.4,59.99635766952201,
1,0,0,0,0,1,0,0,triangle,circle,2,0,2,0,2,8,32,0,,,,,,,,,,,,,,,,,,,,,,,,,,,,,,,,,,,,,,,,784.2856342620216,784.2856342620216,784.2856342620216,784.2856342620216,784.2856342620216,784.2856342620216,784.2856342620216,784.2856342620216,784.2856342620216,784.2856342620216,l,0.4387448998168111,1,695,2,784.7535181920975,786.2528829723597,786.2528829723597,786.7532702749595,,,,,,,,,,,,,,,,,,,,,,,,,,,,,,,,,,,,,,,,,,,,,,,,,,,,,,,,,,,,,,,,,86462,2022-11-28_10h32.38.705,vts_reward_expectancy_bt_OFFLINE,2022.2.4,59.99635766952201,
0,0,0,1,1,0,0,0,star,triangle,2,0,2,0,2,9,33,9,,,,,,,,,,,,,,,,,,,,,,,,,,,,,,,,,,,,,,,,786.7532702749595,786.7532702749595,786.7532702749595,786.7532702749595,786.7532702749595,786.7532702749595,786.7532702749595,786.7532702749595,786.7532702749595,786.7532702749595,a,0.6704354831017554,10,705,2,787.4568042852916,788.9557610340416,,,,,,,,,,,,,,,,,,,,,,,,,,,,,,,,,,,,,,,,,,,,,,,,,,,,,,,,,,,,,,,,,,,86462,2022-11-28_10h32.38.705,vts_reward_expectancy_bt_OFFLINE,2022.2.4,59.99635766952201,
0,1,0,0,0,0,1,0,circle,hexagon,2,0,2,0,2,10,34,4,,,,,,,,,,,,,,,,,,,,,,,,,,,,,,,,,,,,,,,,789.4561325912364,789.4561325912364,789.4561325912364,789.4561325912364,789.4561325912364,789.4561325912364,789.4561325912364,789.4561325912364,789.4561325912364,789.4561325912364,a,0.9385625603608787,10,715,2,790.4241017173044,791.9235909841955,791.9235909841955,792.4236709522083,,,,,,,,,,,,,,,,,,,,,,,,,,,,,,,,,,,,,,,,,,,,,,,,,,,,,,,,,,,,,,,,,86462,2022-11-28_10h32.38.705,vts_reward_expectancy_bt_OFFLINE,2022.2.4,59.99635766952201,
0,0,1,0,1,0,0,0,hexagon,triangle,2,0,2,0,2,11,35,6,,,,,,,,,,,,,,,,,,,,,,,,,,,,,,,,,,,,,,,,792.4236709522083,792.4236709522083,792.4236709522083,792.4236709522083,792.4236709522083,792.4236709522083,792.4236709522083,792.4236709522083,792.4236709522083,792.4236709522083,l,0.8400526652112603,1,716,2,793.2941684559919,794.7932780021802,,,,,,,,,,,,,,,,,,,,,,,,,,,,,,,,,,,,,,,,,,,,,,,,,,,,,,,,,,,,,,,,,,,86462,2022-11-28_10h32.38.705,vts_reward_expectancy_bt_OFFLINE,2022.2.4,59.99635766952201,
0,1,0,0,0,0,0,1,circle,star,2,0,2,0,3,0,36,5,,,,,,,,,,,,,,,,,,,,,,,,,,,,,,,,,,,,,,,,795.2935340111144,795.2935340111144,795.2935340111144,795.2935340111144,795.2935340111144,795.2935340111144,795.2935340111144,795.2935340111144,795.2935340111144,795.2935340111144,a,0.625949646346271,1,717,2,795.945204007905,797.4441588353366,797.4441588353366,797.944140098989,,,,,,,,,,,,,,,,,,,,,,,,,,,,,,,,,,,,,,,,,,,,,,,,,,,,,,,,,,,,,,,,,86462,2022-11-28_10h32.38.705,vts_reward_expectancy_bt_OFFLINE,2022.2.4,59.99635766952201,
0,0,1,0,0,0,0,1,hexagon,star,2,0,2,0,3,1,37,8,,,,,,,,,,,,,,,,,,,,,,,,,,,,,,,,,,,,,,,,797.944140098989,797.944140098989,797.944140098989,797.944140098989,797.944140098989,797.944140098989,797.944140098989,797.944140098989,797.944140098989,797.944140098989,l,0.6078662662766874,1,718,2,798.5808512172662,800.0801508883014,800.0801508883014,800.5804274999537,,,,,,,,,,,,,,,,,,,,,,,,,,,,,,,,,,,,,,,,,,,,,,,,,,,,,,,,,,,,,,,,,86462,2022-11-28_10h32.38.705,vts_reward_expectancy_bt_OFFLINE,2022.2.4,59.99635766952201,
1,0,0,0,0,0,0,1,triangle,star,2,0,2,0,3,2,38,2,,,,,,,,,,,,,,,,,,,,,,,,,,,,,,,,,,,,,,,,800.5804274999537,800.5804274999537,800.5804274999537,800.5804274999537,800.5804274999537,800.5804274999537,800.5804274999537,800.5804274999537,800.5804274999537,800.5804274999537,l,1.052947404794395,1,719,2,801.6653493749909,803.1644704919308,803.1644704919308,,,,,,,,,,,,,,,,,,,,,,,,,,,,,,,,,,,,,,,,,,,,,,,,,,,,,,,,,,,,,,,,,,86462,2022-11-28_10h32.38.705,vts_reward_expectancy_bt_OFFLINE,2022.2.4,59.99635766952201,
0,0,0,1,1,0,0,0,star,triangle,2,0,2,0,3,3,39,9,,,,,,,,,,,,,,,,,,,,,,,,,,,,,,,,,,,,,,,,803.6666431273334,803.6666431273334,803.6666431273334,803.6666431273334,803.6666431273334,803.6666431273334,803.6666431273334,803.6666431273334,803.6666431273334,803.6666431273334,a,0.724316974170506,10,729,2,804.4202809859999,805.9342653229833,,,,,,,,,,,,,,,,,,,,,,,,,,,,,,,,,,,,,,,,,,,,,,,,,,,,,,,,,,,,,,,,,,,86462,2022-11-28_10h32.38.705,vts_reward_expectancy_bt_OFFLINE,2022.2.4,59.99635766952201,
0,1,0,0,0,0,1,0,circle,hexagon,2,0,2,0,3,4,40,4,,,,,,,,,,,,,,,,,,,,,,,,,,,,,,,,,,,,,,,,806.4342685970478,806.4342685970478,806.4342685970478,806.4342685970478,806.4342685970478,806.4342685970478,806.4342685970478,806.4342685970478,806.4342685970478,806.4342685970478,a,0.7455298970453441,1,730,2,807.2042727833614,808.7037152019329,,,,,,,,,,,,,,,,,,,,,,,,,,,,,,,,,,,,,,,,,,,,,,,,,,,,,,,,,,,,,,,,,,,86462,2022-11-28_10h32.38.705,vts_reward_expectancy_bt_OFFLINE,2022.2.4,59.99635766952201,
0,0,0,1,0,1,0,0,star ,circle,2,0,2,0,3,5,41,10,,,,,,,,,,,,,,,,,,,,,,,,,,,,,,,,,,,,,,,,809.2038325499743,809.2038325499743,809.2038325499743,809.2038325499743,809.2038325499743,809.2038325499743,809.2038325499743,809.2038325499743,809.2038325499743,809.2038325499743,l,0.5756913940422237,10,740,2,809.8074934491888,811.321308658924,,,,,,,,,,,,,,,,,,,,,,,,,,,,,,,,,,,,,,,,,,,,,,,,,,,,,,,,,,,,,,,,,,,86462,2022-11-28_10h32.38.705,vts_reward_expectancy_bt_OFFLINE,2022.2.4,59.99635766952201,
0,0,1,0,1,0,0,0,hexagon,triangle,2,0,2,0,3,6,42,6,,,,,,,,,,,,,,,,,,,,,,,,,,,,,,,,,,,,,,,,811.8214592691511,811.8214592691511,811.8214592691511,811.8214592691511,811.8214592691511,811.8214592691511,811.8214592691511,811.8214592691511,811.8214592691511,811.8214592691511,a,0.7145864912308753,10,750,2,812.5562261599116,814.0573009881191,,,,,,,,,,,,,,,,,,,,,,,,,,,,,,,,,,,,,,,,,,,,,,,,,,,,,,,,,,,,,,,,,,,86462,2022-11-28_10h32.38.705,vts_reward_expectancy_bt_OFFLINE,2022.2.4,59.99635766952201,
1,0,0,0,0,1,0,0,triangle,circle,2,0,2,0,3,7,43,0,,,,,,,,,,,,,,,,,,,,,,,,,,,,,,,,,,,,,,,,814.5576397599652,814.5576397599652,814.5576397599652,814.5576397599652,814.5576397599652,814.5576397599652,814.5576397599652,814.5576397599652,814.5576397599652,814.5576397599652,l,0.5208028731867671,1,751,2,815.111154479906,816.625026859343,,,,,,,,,,,,,,,,,,,,,,,,,,,,,,,,,,,,,,,,,,,,,,,,,,,,,,,,,,,,,,,,,,,86462,2022-11-28_10h32.38.705,vts_reward_expectancy_bt_OFFLINE,2022.2.4,59.99635766952201,
1,0,0,0,0,0,1,0,triangle,hexagon,2,0,2,0,3,8,44,1,,,,,,,,,,,,,,,,,,,,,,,,,,,,,,,,,,,,,,,,817.1252706451342,817.1252706451342,817.1252706451342,817.1252706451342,817.1252706451342,817.1252706451342,817.1252706451342,817.1252706451342,817.1252706451342,817.1252706451342,a,0.7998217702843249,10,761,2,817.9451545849442,819.4445228399709,,,,,,,,,,,,,,,,,,,,,,,,,,,,,,,,,,,,,,,,,,,,,,,,,,,,,,,,,,,,,,,,,,,86462,2022-11-28_10h32.38.705,vts_reward_expectancy_bt_OFFLINE,2022.2.4,59.99635766952201,
0,0,0,1,0,0,1,0,star,hexagon,2,0,2,0,3,9,45,11,,,,,,,,,,,,,,,,,,,,,,,,,,,,,,,,,,,,,,,,819.9448859291151,819.9448859291151,819.9448859291151,819.9448859291151,819.9448859291151,819.9448859291151,819.9448859291151,819.9448859291151,819.9448859291151,819.9448859291151,a,0.7478431020863354,1,762,2,820.715264046099,822.2288781660609,,,,,,,,,,,,,,,,,,,,,,,,,,,,,,,,,,,,,,,,,,,,,,,,,,,,,,,,,,,,,,,,,,,86462,2022-11-28_10h32.38.705,vts_reward_expectancy_bt_OFFLINE,2022.2.4,59.99635766952201,
0,0,1,0,0,1,0,0,hexagon,circle,2,0,2,0,3,10,46,7,,,,,,,,,,,,,,,,,,,,,,,,,,,,,,,,,,,,,,,,822.728767907247,822.728767907247,822.728767907247,822.728767907247,822.728767907247,822.728767907247,822.728767907247,822.728767907247,822.728767907247,822.728767907247,l,0.7540110140107572,10,772,2,823.5165453031659,825.0317751970142,,,,,,,,,,,,,,,,,,,,,,,,,,,,,,,,,,,,,,,,,,,,,,,,,,,,,,,,,,,,,,,,,,,86462,2022-11-28_10h32.38.705,vts_reward_expectancy_bt_OFFLINE,2022.2.4,59.99635766952201,
0,1,0,0,1,0,0,0,circle,triangle,2,0,2,0,3,11,47,3,,,,,,,,,,,,,,,,,,,,,,,,,,,,,,,,,,,,,,,,825.5319863269106,825.5319863269106,825.5319863269106,825.5319863269106,825.5319863269106,825.5319863269106,825.5319863269106,825.5319863269106,825.5319863269106,825.5319863269106,a,0.6616539610549808,10,782,2,826.2166653512977,827.7161109461449,827.7161109461449,828.2225333112292,,,,,,,,,,,,,,,,,,,,,,,,,,,,,,,,,,,,,,,,,,,,,,,,,,,,,,,,,,,,,,,,,86462,2022-11-28_10h32.38.705,vts_reward_expectancy_bt_OFFLINE,2022.2.4,59.99635766952201,
,,,,,,,,,,,,,,,,,,0,0,0,0,0,0,0,0,,,,,,,,,,,,,,,,,,,,,,,,,,,,,,,,,,,,,,,,,,,,,,,,874.2007515020669,,,Y,160,hexagon,0.0007472848519682884,868.909013627097,870.39793060394,870.39793060394,870.39793060394,1,0,f,2.284285417292267,0,872.7032742062584,,,,,,,,,,,,,,,,,,,,,,,,,,,,,,,,,,,,,,,,,,,,,,,,,,,86462,2022-11-28_10h32.38.705,vts_reward_expectancy_bt_OFFLINE,2022.2.4,59.99635766952201,
,,,,,,,,,,,,,,,,,,0,0,0,0,1,0,1,0,,,,,,,,,,,,,,,,,,,,,,,,,,,,,,,,,,,,,,,,,,,,,,,,878.9712719842792,,,S,174,circle,0.0013391212560236454,875.1975961332209,876.6852304060012,876.6852304060012,876.6852304060012,1,0,f,0.7661890387535095,0,877.4702490381896,,,,,,,,,,,,,,,,,,,,,,,,,,,,,,,,,,,,,,,,,,,,,,,,,,,86462,2022-11-28_10h32.38.705,vts_reward_expectancy_bt_OFFLINE,2022.2.4,59.99635766952201,
,,,,,,,,,,,,,,,,,,0,0,0,0,2,0,2,0,,,,,,,,,,,,,,,,,,,,,,,,,,,,,,,,,,,,,,,,,,,,,,,,883.8579610851593,,,F,181,triangle,0.002056857105344534,879.9671574290842,881.4556007492356,881.4556007492356,881.4556007492356,1,0,d,0.8785128383897245,0,882.3569356543012,,,,,,,,,,,,,,,,,,,,,,,,,,,,,,,,,,,,,,,,,,,,,,,,,,,86462,2022-11-28_10h32.38.705,vts_reward_expectancy_bt_OFFLINE,2022.2.4,59.99635766952201,
,,,,,,,,,,,,,,,,,,0,0,0,0,3,0,3,0,,,,,,,,,,,,,,,,,,,,,,,,,,,,,,,,,,,,,,,,,,,,,,,,888.4814822310582,,,W,139,star,0.0019713318906724453,884.8548233290203,886.3425224423409,886.3425224423409,886.3425224423409,1,0,f,0.6054584961384535,0,886.9772282582708,,,,,,,,,,,,,,,,,,,,,,,,,,,,,,,,,,,,,,,,,,,,,,,,,,,86462,2022-11-28_10h32.38.705,vts_reward_expectancy_bt_OFFLINE,2022.2.4,59.99635766952201,
,,,,,,,,,,,,,,,,,,0,0,0,0,4,0,4,0,,,,,,,,,,,,,,,,,,,,,,,,,,,,,,,,,,,,,,,,,,,,,,,,892.9799468079582,,,D,132,circle,0.0017823032103478909,889.4740320281126,890.9626455269754,890.9626455269754,890.9626455269754,1,0,d,0.4732019160874188,0,891.4645401453599,,,,,,,,,,,,,,,,,,,,,,,,,,,,,,,,,,,,,,,,,,,,,,,,,,,86462,2022-11-28_10h32.38.705,vts_reward_expectancy_bt_OFFLINE,2022.2.4,59.99635766952201,
,,,,,,,,,,,,,,,,,,0,0,0,0,5,0,5,0,,,,,,,,,,,,,,,,,,,,,,,,,,,,,,,,,,,,,,,,,,,,,,,,897.5503851659596,,898.050399617292,B,146,star,0.014299377799034119,893.9750545723364,895.4493597131222,895.4493597131222,895.4493597131222,1,0,d,0.5774357658810914,0,896.0510890763253,897.5503851659596,,,,,,,,,,,,,,,,,,,,,,,,,,,,,,,,,,,,,,,,,,,,,,,,,,86462,2022-11-28_10h32.38.705,vts_reward_expectancy_bt_OFFLINE,2022.2.4,59.99635766952201,
,,,,,,,,,,,,,,,,,,0,0,0,0,6,0,6,0,,,,,,,,,,,,,,,,,,,,,,,,,,,,,,,,,,,,,,,,,,,,,,,,902.1701250332408,,902.6706518493593,U,125,hexagon,0.0004949960857629776,898.5474377321079,900.0362575063482,900.0362575063482,900.0362575063482,1,0,f,0.6027302467264235,0,900.6708461763337,902.1701250332408,,,,,,,,,,,,,,,,,,,,,,,,,,,,,,,,,,,,,,,,,,,,,,,,,,86462,2022-11-28_10h32.38.705,vts_reward_expectancy_bt_OFFLINE,2022.2.4,59.99635766952201,
,,,,,,,,,,,,,,,,,,0,0,0,0,7,0,7,0,,,,,,,,,,,,,,,,,,,,,,,,,,,,,,,,,,,,,,,,,,,,,,,,906.8738794103265,,,H,167,triangle,0.0004473002627491951,903.1671743872575,904.6564581110142,904.6564581110142,904.6564581110142,1,0,d,0.6963240872137249,0,905.3744921423495,906.8738794103265,,,,,,,,,,,,,,,,,,,,,,,,,,,,,,,,,,,,,,,,,,,,,,,,,,86462,2022-11-28_10h32.38.705,vts_reward_expectancy_bt_OFFLINE,2022.2.4,59.99635766952201,
,,,,,,,,,,,,,,,,,,0,0,0,0,8,0,8,0,,,,,,,,,,,,,,,,,,,,,,,,,,,,,,,,,,,,,,,,,,,,,,,,911.510641977191,,,Y,160,hexagon,0.00036489125341176987,907.8700610422529,909.3596806242131,909.3596806242131,909.3596806242131,1,0,f,0.6060061021707952,0,909.9952811282128,,,,,,,,,,,,,,,,,,,,,,,,,,,,,,,,,,,,,,,,,,,,,,,,,,,86462,2022-11-28_10h32.38.705,vts_reward_expectancy_bt_OFFLINE,2022.2.4,59.99635766952201,
,,,,,,,,,,,,,,,,,,0,0,0,0,9,0,9,0,,,,,,,,,,,,,,,,,,,,,,,,,,,,,,,,,,,,,,,,,,,,,,,,916.2809999319725,,916.7912015062757,S,174,triangle,0.016238967888057232,912.5066413441673,913.980041240342,913.980041240342,913.980041240342,1,0,f,0.7786415442824364,0,914.7813896159641,916.2809999319725,,,,,,,,,,,,,,,,,,,,,,,,,,,,,,,,,,,,,,,,,,,,,,,,,,86462,2022-11-28_10h32.38.705,vts_reward_expectancy_bt_OFFLINE,2022.2.4,59.99635766952201,
,,,,,,,,,,,,,,,,,,,,,,,,,,0,0,0,0,0,0,0,0,,,,,,,,,,,,,,,,,,,,,,,,,,,,,,,,,,,,,,,,940.5656270580366,,,B,174,hexagon,0.017183111049234867,,,,,1,0,,,1,939.0499879643321,,936.7748936112039,938.246238626074,938.246238626074,938.246238626074,k,0.7805212829262018,,,,,,,,,,,,,,,,,,,,,,,,,,,,,,,,,,,,,,,,,,,,86462,2022-11-28_10h32.38.705,vts_reward_expectancy_bt_OFFLINE,2022.2.4,59.99635766952201,
,,,,,,,,,,,,,,,,,,,,,,,,,,0,0,0,0,1,0,1,0,,,,,,,,,,,,,,,,,,,,,,,,,,,,,,,,,,,,,,,,945.5192582891323,,946.019477784168,S,139,star,0.01648592296987772,,,,,1,0,,,1,944.0195680549368,945.5192582891323,941.5613183290698,943.0331869772635,943.0331869772635,943.0331869772635,j,0.954248548951,,,,,,,,,,,,,,,,,,,,,,,,,,,,,,,,,,,,,,,,,,,,86462,2022-11-28_10h32.38.705,vts_reward_expectancy_bt_OFFLINE,2022.2.4,59.99635766952201,
,,,,,,,,,,,,,,,,,,,,,,,,,,0,0,0,0,2,0,2,0,,,,,,,,,,,,,,,,,,,,,,,,,,,,,,,,,,,,,,,,951.3230991363525,,,D,146,triangle,0.0006070998497307301,,,,,1,0,,,1,949.8072627121583,,946.5153202563524,948.0033980770968,948.0033980770968,948.0033980770968,j,1.7784910639747977,,,,,,,,,,,,,,,,,,,,,,,,,,,,,,,,,,,,,,,,,,,,86462,2022-11-28_10h32.38.705,vts_reward_expectancy_bt_OFFLINE,2022.2.4,59.99635766952201,
,,,,,,,,,,,,,,,,,,,,,,,,,,0,0,0,0,3,0,3,0,,,,,,,,,,,,,,,,,,,,,,,,,,,,,,,,,,,,,,,,956.0932634412311,,956.5934637612663,F,125,circle,0.016556596849113703,,,,,1,0,,,1,954.5942407632247,956.0932634412311,952.3186375531368,953.7923180819489,953.7923180819489,953.7923180819489,j,0.782709838822484,,,,,,,,,,,,,,,,,,,,,,,,,,,,,,,,,,,,,,,,,,,,86462,2022-11-28_10h32.38.705,vts_reward_expectancy_bt_OFFLINE,2022.2.4,59.99635766952201,
,,,,,,,,,,,,,,,,,,,,,,,,,,0,0,0,0,4,0,4,0,,,,,,,,,,,,,,,,,,,,,,,,,,,,,,,,,,,,,,,,960.8802697779611,,,U,167,hexagon,0.0002631489187479019,,,,,1,0,,,1,959.3806956340559,,957.0896448213607,958.5792467813008,958.5792467813008,958.5792467813008,k,0.7761896220035851,,,,,,,,,,,,,,,,,,,,,,,,,,,,,,,,,,,,,,,,,,,,86462,2022-11-28_10h32.38.705,vts_reward_expectancy_bt_OFFLINE,2022.2.4,59.99635766952201,
,,,,,,,,,,,,,,,,,,,,,,,,,,0,0,0,0,5,0,5,0,,,,,,,,,,,,,,,,,,,,,,,,,,,,,,,,,,,,,,,,966.1172269121744,,,W,160,triangle,0.00041094282642006874,,,,,1,0,,,1,964.6177735412493,966.1172269121744,961.8765439703129,963.3645238541067,963.3645238541067,963.3645238541067,k,1.234602625016123,,,,,,,,,,,,,,,,,,,,,,,,,,,,,,,,,,,,,,,,,,,,86462,2022-11-28_10h32.38.705,vts_reward_expectancy_bt_OFFLINE,2022.2.4,59.99635766952201,
,,,,,,,,,,,,,,,,,,,,,,,,,,0,0,0,0,6,0,6,0,,,,,,,,,,,,,,,,,,,,,,,,,,,,,,,,,,,,,,,,970.9543317402713,,,Y,132,star,0.0005113650113344193,,,,,1,0,,,1,969.4385021319613,,967.1134532070719,968.603231004905,968.603231004905,968.603231004905,j,0.8107281760312617,,,,,,,,,,,,,,,,,,,,,,,,,,,,,,,,,,,,,,,,,,,,86462,2022-11-28_10h32.38.705,vts_reward_expectancy_bt_OFFLINE,2022.2.4,59.99635766952201,
,,,,,,,,,,,,,,,,,,,,,,,,,,0,0,0,0,7,0,7,0,,,,,,,,,,,,,,,,,,,,,,,,,,,,,,,,,,,,,,,,975.6745481332764,,976.174433763139,H,181,circle,0.01707390509545803,,,,,1,0,,,1,974.1753718140535,975.6745481332764,971.9506103591993,973.4215925503522,973.4215925503522,973.4215925503522,k,0.7292256471700966,,,,,,,,,,,,,,,,,,,,,,,,,,,,,,,,,,,,,,,,,,,,86462,2022-11-28_10h32.38.705,vts_reward_expectancy_bt_OFFLINE,2022.2.4,59.99635766952201,
,,,,,,,,,,,,,,,,,,,,,,,,,,0,0,0,0,8,0,8,0,,,,,,,,,,,,,,,,,,,,,,,,,,,,,,,,,,,,,,,,980.5615549092181,,,B,174,star,0.0005401037633419037,,,,,1,0,,,1,979.0458045089617,,976.6699883509427,978.1586400591768,978.1586400591768,978.1586400591768,k,0.8635485260747373,,,,,,,,,,,,,,,,,,,,,,,,,,,,,,,,,,,,,,,,,,,,86462,2022-11-28_10h32.38.705,vts_reward_expectancy_bt_OFFLINE,2022.2.4,59.99635766952201,
,,,,,,,,,,,,,,,,,,,,,,,,,,0,0,0,0,9,0,9,0,,,,,,,,,,,,,,,,,,,,,,,,,,,,,,,,,,,,,,,,985.2148505272344,,985.7177572953515,S,139,circle,0.016660659108310938,,,,,1,0,,,1,983.7155276392587,,981.556729298085,983.0291013321839,983.0291013321839,983.0291013321839,j,0.6616225503385067,,,,,,,,,,,,,,,,,,,,,,,,,,,,,,,,,,,,,,,,,,,,86462,2022-11-28_10h32.38.705,vts_reward_expectancy_bt_OFFLINE,2022.2.4,59.99635766952201,
,,,,,,,,,,,,,,,,,,,,,,,,,,,,,,,,,,0,0,0,0,0,0,0,0,,,,,,,,,,,,,,,,,,,,,,,,,,,,0,782,,,1022.1742803859524,,,B,139,hexagon,0.016926906071603298,,,,,1,0,,,2,,,,,,,,,1017.0681111901067,1017.0681111901067,1017.0681111901067,1017.0681111901067,1018.5377861801535,1018.5377861801535,1018.5377861801535,1018.5377861801535,1018.56377045298,1018.56377045298,1018.56377045298,1018.56377045298,-1,letter,NA,d,2.08845782186836,vtsPrac,1020.6615016460419,,,,,,,,,,,,,,,,,,,,,,,,,86462,2022-11-28_10h32.38.705,vts_reward_expectancy_bt_OFFLINE,2022.2.4,59.99635766952201,
,,,,,,,,,,,,,,,,,,,,,,,,,,,,,,,,,,0,0,0,0,1,0,1,0,,,,,,,,,,,,,,,,,,,,,,,,,,,,0,782,,,1027.0443100519478,,,F,132,circle,0.016844728030264378,,,,,1,0,,,2,,,,,,,,,1023.171293803025,1023.171293803025,1023.171293803025,1023.171293803025,1024.6437544953078,1024.6437544953078,1024.6437544953078,1024.6437544953078,1024.6771391751245,1024.6771391751245,1024.6771391751245,1024.6771391751245,repeat,letter,lettRpt,d,0.8656730400398374,vtsPrac,1025.52916053636,,,,,,,,,,,,,,,,,,,,,,,,,86462,2022-11-28_10h32.38.705,vts_reward_expectancy_bt_OFFLINE,2022.2.4,59.99635766952201,
,,,,,,,,,,,,,,,,,,,,,,,,,,,,,,,,,,0,0,0,0,2,0,2,0,,,,,,,,,,,,,,,,,,,,,,,,,,,,0,782,,,1031.598006239161,,1032.0981037742458,U,125,triangle,0.017051560804247856,,,,,1,0,,,2,,,,,,,,,1028.0416200081818,1028.0416200081818,1028.0416200081818,1028.0416200081818,1029.513914057985,1029.513914057985,1029.513914057985,1029.513914057985,1029.5472679482773,1029.5472679482773,1029.5472679482773,1029.5472679482773,switch,number,numSwt,j,0.5515785873867571,vtsPrac,1030.097564843949,1031.598006239161,,,,,,,,,,,,,,,,,,,,,,,,86462,2022-11-28_10h32.38.705,vts_reward_expectancy_bt_OFFLINE,2022.2.4,59.99635766952201,
,,,,,,,,,,,,,,,,,,,,,,,,,,,,,,,,,,0,0,0,0,3,0,3,0,,,,,,,,,,,,,,,,,,,,,,,,,,,,0,782,,,1036.2848437139764,,,D,160,star,0.014195602852851152,,,,,1,0,,,2,,,,,,,,,1032.6114437351935,1032.6114437351935,1032.6114437351935,1032.6114437351935,1034.0838293782435,1034.0838293782435,1034.0838293782435,1034.0838293782435,1034.1173507892527,1034.1173507892527,1034.1173507892527,1034.1173507892527,switch,letter,lettSwt,d,0.6620427370071411,vtsPrac,1034.7691503190435,,,,,,,,,,,,,,,,,,,,,,,,,86462,2022-11-28_10h32.38.705,vts_reward_expectancy_bt_OFFLINE,2022.2.4,59.99635766952201,
,,,,,,,,,,,,,,,,,,,,,,,,,,,,,,,,,,0,0,0,0,4,0,4,0,,,,,,,,,,,,,,,,,,,,,,,,,,,,0,782,,,1040.8385273460299,,1041.3383124652319,B,139,triangle,0.016779218334704638,,,,,1,0,,,2,,,,,,,,,1037.281096120365,1037.281096120365,1037.281096120365,1037.281096120365,1038.7544388389215,1038.7544388389215,1038.7544388389215,1038.7544388389215,1038.7874776842073,1038.7874776842073,1038.7874776842073,1038.7874776842073,repeat,letter,lettRpt,d,0.5598451630212367,vtsPrac,1039.3392520719208,1040.8385273460299,,,,,,,,,,,,,,,,,,,,,,,,86462,2022-11-28_10h32.38.705,vts_reward_expectancy_bt_OFFLINE,2022.2.4,59.99635766952201,
,,,,,,,,,,,,,,,,,,,,,,,,,,,,,,,,,,0,0,0,0,5,0,5,0,,,,,,,,,,,,,,,,,,,,,,,,,,,,0,782,,,1045.6252485979348,,,F,132,circle,0.0003388640470802784,,,,,1,0,,,2,,,,,,,,,1041.8344377973117,1041.8344377973117,1041.8344377973117,1041.8344377973117,1043.3225080301054,1043.3225080301054,1043.3225080301054,1043.3225080301054,1043.3392996811308,1043.3392996811308,1043.3392996811308,1043.3392996811308,switch,number,numSwt,j,0.762142573017627,vtsPrac,1044.10982595291,,,,,,,,,,,,,,,,,,,,,,,,,86462,2022-11-28_10h32.38.705,vts_reward_expectancy_bt_OFFLINE,2022.2.4,59.99635766952201,
,,,,,,,,,,,,,,,,,,,,,,,,,,,,,,,,,,0,0,0,0,6,0,6,0,,,,,,,,,,,,,,,,,,,,,,,,,,,,0,782,,,1050.1621031640097,,1050.6622730889358,U,125,triangle,0.016978749074041843,,,,,1,0,,,2,,,,,,,,,1046.6215021149255,1046.6215021149255,1046.6215021149255,1046.6215021149255,1048.093035692349,1048.093035692349,1048.093035692349,1048.093035692349,1048.1262865099125,1048.1262865099125,1048.1262865099125,1048.1262865099125,repeat,number,numRpt,j,0.5362778040580451,vtsPrac,1048.6614908501506,1050.1621031640097,,,,,,,,,,,,,,,,,,,,,,,,86462,2022-11-28_10h32.38.705,vts_reward_expectancy_bt_OFFLINE,2022.2.4,59.99635766952201,
,,,,,,,,,,,,,,,,,,,,,,,,,,,,,,,,,,0,0,0,0,7,0,7,0,,,,,,,,,,,,,,,,,,,,,,,,,,,,0,782,,,1054.8654011129402,,,D,160,star,0.014585644006729126,,,,,1,0,,,2,,,,,,,,,1051.1746407640167,1051.1746407640167,1051.1746407640167,1051.1746407640167,1052.6630528471433,1052.6630528471433,1052.6630528471433,1052.6630528471433,1052.6796568580903,1052.6796568580903,1052.6796568580903,1052.6796568580903,repeat,number,numRpt,k,0.6694199377670884,vtsPrac,1053.3646332072094,,,,,,,,,,,,,,,,,,,,,,,,,86462,2022-11-28_10h32.38.705,vts_reward_expectancy_bt_OFFLINE,2022.2.4,59.99635766952201,
,,,,,,,,,,,,,,,,,,,,,,,,,,,,,,,,,,0,0,0,0,8,0,8,0,,,,,,,,,,,,,,,,,,,,,,,,,,,,0,782,,,1060.2027350231074,,,F,160,star,0.001974844839423895,,,,,1,0,,,2,,,,,,,,,1055.8613119330257,1055.8613119330257,1055.8613119330257,1055.8613119330257,1057.3499810383655,1057.3499810383655,1057.3499810383655,1057.3499810383655,1057.3665923909284,1057.3665923909284,1057.3665923909284,1057.3665923909284,repeat,number,numRpt,k,1.3152949381619692,vtsPrac,1058.6874779993668,,,,,,,,,,,,,,,,,,,,,,,,,86462,2022-11-28_10h32.38.705,vts_reward_expectancy_bt_OFFLINE,2022.2.4,59.99635766952201,
,,,,,,,,,,,,,,,,,,,,,,,,,,,,,,,,,,0,0,0,0,9,0,9,0,,,,,,,,,,,,,,,,,,,,,,,,,,,,0,782,,,1065.1563138640486,,,S,146,circle,0.01641358993947506,,,,,1,0,,,2,,,,,,,,,1061.1988850389607,1061.1988850389607,1061.1988850389607,1061.1988850389607,1062.6702439603396,1062.6702439603396,1062.6702439603396,1062.6702439603396,1062.703568431083,1062.703568431083,1062.703568431083,1062.703568431083,switch,letter,lettSwt,f,0.9450604943558574,vtsPrac,1063.641155592166,,,,,,,,,,,,,,,,,,,,,,,,,86462,2022-11-28_10h32.38.705,vts_reward_expectancy_bt_OFFLINE,2022.2.4,59.99635766952201,
,,,,,,,,,,,,,,,,,,,,,,,,,,,,,,,,,,0,0,0,0,10,0,10,0,,,,,,,,,,,,,,,,,,,,,,,,,,,,0,782,,,1070.3265844332054,,,W,181,hexagon,0.016745042987167835,,,,,1,0,,,2,,,,,,,,,1066.1528264232911,1066.1528264232911,1066.1528264232911,1066.1528264232911,1067.6235910863616,1067.6235910863616,1067.6235910863616,1067.6235910863616,1067.657116536051,1067.657116536051,1067.657116536051,1067.657116536051,switch,number,numSwt,k,1.166978850029409,vtsPrac,1068.8113706172444,,,,,,,,,,,,,,,,,,,,,,,,,86462,2022-11-28_10h32.38.705,vts_reward_expectancy_bt_OFFLINE,2022.2.4,59.99635766952201,
,,,,,,,,,,,,,,,,,,,,,,,,,,,,,,,,,,0,0,0,0,11,0,11,0,,,,,,,,,,,,,,,,,,,,,,,,,,,,0,782,,,1075.0302712093107,,,Y,132,circle,0.01673702709376812,,,,,1,0,,,2,,,,,,,,,1071.3227461930364,1071.3227461930364,1071.3227461930364,1071.3227461930364,1072.7944338540547,1072.7944338540547,1072.7944338540547,1072.7944338540547,1072.8275422952138,1072.8275422952138,1072.8275422952138,1072.8275422952138,repeat,number,numRpt,j,0.7093994170427322,vtsPrac,1073.5295497919433,,,,,,,,,,,,,,,,,,,,,,,,,86462,2022-11-28_10h32.38.705,vts_reward_expectancy_bt_OFFLINE,2022.2.4,59.99635766952201,
,,,,,,,,,,,,,,,,,,,,,,,,,,,,,,,,,,0,0,0,0,12,0,12,0,,,,,,,,,,,,,,,,,,,,,,,,,,,,0,782,,,1079.967255502008,,,F,160,circle,0.0019057109020650387,,,,,1,0,,,2,,,,,,,,,1076.0260251509026,1076.0260251509026,1076.0260251509026,1076.0260251509026,1077.5144168632105,1077.5144168632105,1077.5144168632105,1077.5144168632105,1077.5311634391546,1077.5311634391546,1077.5311634391546,1077.5311634391546,repeat,number,numRpt,k,0.9184315809980035,vtsPrac,1078.4669947680086,,,,,,,,,,,,,,,,,,,,,,,,,86462,2022-11-28_10h32.38.705,vts_reward_expectancy_bt_OFFLINE,2022.2.4,59.99635766952201,
,,,,,,,,,,,,,,,,,,,,,,,,,,,,,,,,,,0,0,0,0,13,0,13,0,,,,,,,,,,,,,,,,,,,,,,,,,,,,0,782,,,1084.8372821593657,,,S,174,triangle,0.0015689409337937832,,,,,1,0,,,2,,,,,,,,,1080.963476499077,1080.963476499077,1080.963476499077,1080.963476499077,1082.4512916272506,1082.4512916272506,1082.4512916272506,1082.4512916272506,1082.4680058700033,1082.4680058700033,1082.4680058700033,1082.4680058700033,repeat,number,numRpt,k,0.8638386940583587,vtsPrac,1083.3371205232106,,,,,,,,,,,,,,,,,,,,,,,,,86462,2022-11-28_10h32.38.705,vts_reward_expectancy_bt_OFFLINE,2022.2.4,59.99635766952201,
,,,,,,,,,,,,,,,,,,,,,,,,,,,,,,,,,,0,0,0,0,14,0,14,0,,,,,,,,,,,,,,,,,,,,,,,,,,,,0,782,,,1089.8911980502307,,,H,125,star,0.001947574783116579,,,,,1,0,,,2,,,,,,,,,1085.833441006951,1085.833441006951,1085.833441006951,1085.833441006951,1087.321476003155,1087.321476003155,1087.321476003155,1087.321476003155,1087.3381607653573,1087.3381607653573,1087.3381607653573,1087.3381607653573,switch,letter,lettSwt,d,1.044562361203134,vtsPrac,1088.3907442782074,,,,,,,,,,,,,,,,,,,,,,,,,86462,2022-11-28_10h32.38.705,vts_reward_expectancy_bt_OFFLINE,2022.2.4,59.99635766952201,
,,,,,,,,,,,,,,,,,,,,,,,,,,,,,,,,,,0,0,0,0,15,0,15,0,,,,,,,,,,,,,,,,,,,,,,,,,,,,0,782,,,1094.727772356011,,,W,167,hexagon,0.0017887549474835396,,,,,1,0,,,2,,,,,,,,,1090.8868906139396,1090.8868906139396,1090.8868906139396,1090.8868906139396,1092.3754069050774,1092.3754069050774,1092.3754069050774,1092.3754069050774,1092.3918701792136,1092.3918701792136,1092.3918701792136,1092.3918701792136,switch,number,numSwt,k,0.8285869788378477,vtsPrac,1093.2275333423167,,,,,,,,,,,,,,,,,,,,,,,,,86462,2022-11-28_10h32.38.705,vts_reward_expectancy_bt_OFFLINE,2022.2.4,59.99635766952201,
,,,,,,,,,,,,,,,,,,,,,,,,,,,,,,,,,,0,0,0,0,16,0,16,0,,,,,,,,,,,,,,,,,,,,,,,,,,,,0,782,,,1099.2813082402572,,,H,160,circle,0.001905691809952259,,,,,1,0,,,2,,,,,,,,,1095.7240213761106,1095.7240213761106,1095.7240213761106,1095.7240213761106,1097.212154675275,1097.212154675275,1097.212154675275,1097.212154675275,1097.2288727182895,1097.2288727182895,1097.2288727182895,1097.2288727182895,repeat,number,numRpt,k,0.53727250918746,vtsPrac,1097.781080244109,,,,,,,,,,,,,,,,,,,,,,,,,86462,2022-11-28_10h32.38.705,vts_reward_expectancy_bt_OFFLINE,2022.2.4,59.99635766952201,
,,,,,,,,,,,,,,,,,,,,,,,,,,,,,,,,,,0,0,0,0,17,0,17,0,,,,,,,,,,,,,,,,,,,,,,,,,,,,0,782,,,1104.3514258572832,,,F,174,hexagon,0.0019281557761132717,,,,,1,0,,,2,,,,,,,,,1100.2770041292533,1100.2770041292533,1100.2770041292533,1100.2770041292533,1101.7655811812729,1101.7655811812729,1101.7655811812729,1101.7655811812729,1101.7823718851432,1101.7823718851432,1101.7823718851432,1101.7823718851432,repeat,number,numRpt,k,1.0580203630961478,vtsPrac,1102.8513495502993,,,,,,,,,,,,,,,,,,,,,,,,,86462,2022-11-28_10h32.38.705,vts_reward_expectancy_bt_OFFLINE,2022.2.4,59.99635766952201,
,,,,,,,,,,,,,,,,,,,,,,,,,,,,,,,,,,0,0,0,0,18,0,18,0,,,,,,,,,,,,,,,,,,,,,,,,,,,,0,782,,,1109.1385047943331,,,U,146,star,0.0021453252993524075,,,,,1,0,,,2,,,,,,,,,1105.3478075489402,1105.3478075489402,1105.3478075489402,1105.3478075489402,1106.8358662673272,1106.8358662673272,1106.8358662673272,1106.8358662673272,1106.8527649831958,1106.8527649831958,1106.8527649831958,1106.8527649831958,switch,letter,lettSwt,f,0.7695531584322453,vtsPrac,1107.6386662619188,,,,,,,,,,,,,,,,,,,,,,,,,86462,2022-11-28_10h32.38.705,vts_reward_expectancy_bt_OFFLINE,2022.2.4,59.99635766952201,
,,,,,,,,,,,,,,,,,,,,,,,,,,,,,,,,,,0,0,0,0,19,0,19,0,,,,,,,,,,,,,,,,,,,,,,,,,,,,0,782,,,1113.8087549200282,,1114.308742180001,B,167,circle,0.0013778661377727985,,,,,1,0,,,2,,,,,,,,,1110.1345904893242,1110.1345904893242,1110.1345904893242,1110.1345904893242,1111.623051668983,1111.623051668983,1111.623051668983,1111.623051668983,1111.639636988286,1111.639636988286,1111.639636988286,1111.639636988286,repeat,letter,lettRpt,d,0.6507731401361525,vtsPrac,1112.3065377413295,1113.8087549200282,,,,,,,,,,,,,,,,,,,,,,,,86462,2022-11-28_10h32.38.705,vts_reward_expectancy_bt_OFFLINE,2022.2.4,59.99635766952201,
,,,,,,,,,,,,,,,,,,,,,,,,,,,,,,,,,,0,0,0,0,20,0,20,0,,,,,,,,,,,,,,,,,,,,,,,,,,,,0,782,,,1118.4938378911465,,,Y,167,hexagon,-0.00043801870197057724,,,,,1,0,,,2,,,,,,,,,1114.8042244100943,1114.8042244100943,1114.8042244100943,1114.8042244100943,1116.2930622370914,1116.2930622370914,1116.2930622370914,1116.2930622370914,1116.3095629112795,1116.3095629112795,1116.3095629112795,1116.3095629112795,repeat,letter,lettRpt,f,0.6621444900520146,vtsPrac,1116.9786717109382,,,,,,,,,,,,,,,,,,,,,,,,,86462,2022-11-28_10h32.38.705,vts_reward_expectancy_bt_OFFLINE,2022.2.4,59.99635766952201,
,,,,,,,,,,,,,,,,,,,,,,,,,,,,,,,,,,0,0,0,0,21,0,21,0,,,,,,,,,,,,,,,,,,,,,,,,,,,,0,782,,,1123.1972339609638,,,U,146,star,0.001909162849187851,,,,,1,0,,,2,,,,,,,,,1119.4745934433304,1119.4745934433304,1119.4745934433304,1119.4745934433304,1120.9633398982696,1120.9633398982696,1120.9633398982696,1120.9633398982696,1120.9801441882737,1120.9801441882737,1120.9801441882737,1120.9801441882737,repeat,letter,lettRpt,f,0.6932440516538918,vtsPrac,1121.6822690581903,,,,,,,,,,,,,,,,,,,,,,,,,86462,2022-11-28_10h32.38.705,vts_reward_expectancy_bt_OFFLINE,2022.2.4,59.99635766952201,
,,,,,,,,,,,,,,,,,,,,,,,,,,,,,,,,,,0,0,0,0,22,0,22,0,,,,,,,,,,,,,,,,,,,,,,,,,,,,0,782,,,1127.967574704904,,,F,125,star,0.0018460000865161419,,,,,1,0,,,2,,,,,,,,,1124.178016497288,1124.178016497288,1124.178016497288,1124.178016497288,1125.6666438253596,1125.6666438253596,1125.6666438253596,1125.6666438253596,1125.6833720332943,1125.6833720332943,1125.6833720332943,1125.6833720332943,repeat,letter,lettRpt,d,0.7609554440714419,vtsPrac,1126.4522786689922,,,,,,,,,,,,,,,,,,,,,,,,,86462,2022-11-28_10h32.38.705,vts_reward_expectancy_bt_OFFLINE,2022.2.4,59.99635766952201,
,,,,,,,,,,,,,,,,,,,,,,,,,,,,,,,,,,0,0,0,0,23,0,23,0,,,,,,,,,,,,,,,,,,,,,,,,,,,,0,782,,,1132.6876949081197,,,B,174,hexagon,0.0004458450712263584,,,,,1,0,,,2,,,,,,,,,1128.947259016335,1128.947259016335,1128.947259016335,1128.947259016335,1130.4369689519517,1130.4369689519517,1130.4369689519517,1130.4369689519517,1130.453726341948,1130.453726341948,1130.453726341948,1130.453726341948,switch,number,numSwt,k,0.7158410637639463,vtsPrac,1131.1727090389468,,,,,,,,,,,,,,,,,,,,,,,,,86462,2022-11-28_10h32.38.705,vts_reward_expectancy_bt_OFFLINE,2022.2.4,59.99635766952201,
,,,,,,,,,,,,,,,,,,,,,,,,,,,,,,,,,,0,0,0,0,24,0,24,0,,,,,,,,,,,,,,,,,,,,,,,,,,,,0,782,,,1137.7915090112947,,1138.2916943631135,B,125,triangle,0.016664256807416677,,,,,1,0,,,2,,,,,,,,,1133.6832820223644,1133.6832820223644,1133.6832820223644,1133.6832820223644,1135.157099861186,1135.157099861186,1135.157099861186,1135.157099861186,1135.190601834096,1135.190601834096,1135.190601834096,1135.190601834096,repeat,number,numRpt,j,1.114052124787122,vtsPrac,1136.2924530743621,1137.7915090112947,,,,,,,,,,,,,,,,,,,,,,,,86462,2022-11-28_10h32.38.705,vts_reward_expectancy_bt_OFFLINE,2022.2.4,59.99635766952201,
,,,,,,,,,,,,,,,,,,,,,,,,,,,,,,,,,,0,0,0,0,25,0,25,0,,,,,,,,,,,,,,,,,,,,,,,,,,,,0,782,,,1143.0952205043286,,,Y,139,hexagon,0.0006513092666864395,,,,,1,0,,,2,,,,,,,,,1138.7879595682025,1138.7879595682025,1138.7879595682025,1138.7879595682025,1140.277534507215,1140.277534507215,1140.277534507215,1140.277534507215,1140.2940033120103,1140.2940033120103,1140.2940033120103,1140.2940033120103,repeat,number,numRpt,j,1.2709089410491288,vtsPrac,1141.5800330070779,,,,,,,,,,,,,,,,,,,,,,,,,86462,2022-11-28_10h32.38.705,vts_reward_expectancy_bt_OFFLINE,2022.2.4,59.99635766952201,
,,,,,,,,,,,,,,,,,,,,,,,,,,,,,,,,,,0,0,0,0,26,0,26,0,,,,,,,,,,,,,,,,,,,,,,,,,,,,0,782,,,1147.8820157162845,,,F,181,hexagon,0.016971930395811796,,,,,1,0,,,2,,,,,,,,,1144.091974247247,1144.091974247247,1144.091974247247,1144.091974247247,1145.5644638929516,1145.5644638929516,1145.5644638929516,1145.5644638929516,1145.5979273789562,1145.5979273789562,1145.5979273789562,1145.5979273789562,switch,letter,lettSwt,d,0.7763488190248609,vtsPrac,1146.3671019040048,,,,,,,,,,,,,,,,,,,,,,,,,86462,2022-11-28_10h32.38.705,vts_reward_expectancy_bt_OFFLINE,2022.2.4,59.99635766952201,
,,,,,,,,,,,,,,,,,,,,,,,,,,,,,,,,,,0,0,0,0,27,0,27,0,,,,,,,,,,,,,,,,,,,,,,,,,,,,0,782,,,1152.969114145264,,,W,167,circle,0.01683672284707427,,,,,1,0,,,2,,,,,,,,,1148.8787979362532,1148.8787979362532,1148.8787979362532,1148.8787979362532,1150.3515010662377,1150.3515010662377,1150.3515010662377,1150.3515010662377,1150.384996518027,1150.384996518027,1150.384996518027,1150.384996518027,repeat,letter,lettRpt,f,1.0741379586979747,vtsPrac,1151.454077159986,,,,,,,,,,,,,,,,,,,,,,,,,86462,2022-11-28_10h32.38.705,vts_reward_expectancy_bt_OFFLINE,2022.2.4,59.99635766952201,
