LTriangleOpac,LCircleOpac,LHexagonOpac,LStarOpac,RTriangleOpac,RCircleOpac,RHexagonOpac,RStarOpac,LShape_ID,RShape_ID,training_blocks.thisRepN,training_blocks.thisTrialN,training_blocks.thisN,training_blocks.thisIndex,training.thisRepN,training.thisTrialN,training.thisN,training.thisIndex,task1_prac_redo.thisRepN,task1_prac_redo.thisTrialN,task1_prac_redo.thisN,task1_prac_redo.thisIndex,task1_prac_trials.thisRepN,task1_prac_trials.thisTrialN,task1_prac_trials.thisN,task1_prac_trials.thisIndex,task2_prac_redo.thisRepN,task2_prac_redo.thisTrialN,task2_prac_redo.thisN,task2_prac_redo.thisIndex,task2_praac_trials.thisRepN,task2_praac_trials.thisTrialN,task2_praac_trials.thisN,task2_praac_trials.thisIndex,vts_prac_redo.thisRepN,vts_prac_redo.thisTrialN,vts_prac_redo.thisN,vts_prac_redo.thisIndex,vts_practice_trials.thisRepN,vts_practice_trials.thisTrialN,vts_practice_trials.thisN,vts_practice_trials.thisIndex,trials_norew.thisRepN,trials_norew.thisTrialN,trials_norew.thisN,trials_norew.thisIndex,block.thisRepN,block.thisTrialN,block.thisN,block.thisIndex,trials_rew.thisRepN,trials_rew.thisTrialN,trials_rew.thisN,trials_rew.thisIndex,key_resp.started,key_resp.keys,key_resp.rt,left_circle.started,right_circle.started,left_triangle.started,right_triangle.started,left_star.started,right_star.started,left_hexagon.started,right_hexagon.started,training_fix.started,training_resp.started,training_resp.keys,training_resp.rt,points_trial,points_cumul,trainBlock,training_feedback_txt.started,fix.started,training_feedback_txt.stopped,fix.stopped,curr_topStim,curr_bottStim,curr_shape,ISI.started,tgt_fix_prac1.started,top_target_prac1.started,bott_target_prac1.started,target_resp_prac1.started,acc,E1,target_resp_prac1.keys,target_resp_prac1.rt,pracBlock,prac_fback_text.started,tgt_fix_prac2.started,top_target_prac2.started,bott_target_prac2.started,target_resp_prac2.started,target_resp_prac2.keys,target_resp_prac2.rt,star.started,hegagon.started,triangle.started,circle.started,star.stopped,hegagon.stopped,triangle.stopped,circle.stopped,top_target.started,tgt_fix.started,bot_target.started,target_resp.started,alt,task,condition,target_resp.keys,target_resp.rt,rewCond,vts_fback.started,vts_fback.stopped,blockNum,norew_fback.started,top_target.stopped,tgt_fix.stopped,bot_target.stopped,target_resp.stopped,norew_fback.stopped,key_resp_2.keys,key_resp_2.rt,rewExpectancy,feedbk_text.started,feedbk_text.stopped,text_3.started,debrief.started,text_3.stopped,button.started,debrief.index,debrief.itemText,debrief.type,debrief.granularity,debrief.font,debrief.markerColor,debrief.response,debrief.rt,button.numClicks,button.timesOn,button.timesOff,participant,date,expName,psychopyVersion,frameRate,
,,,,,,,,,,,,,,,,,,,,,,,,,,,,,,,,,,,,,,,,,,,,,,,,,,,,,,20.30873462400632,space,28.770778717007488,,,,,,,,,,,,,,,,,,,,,,,,,,,,,,,,,,,,,,,,,,,,,,,,,,,,,,,,,,,,,,,,,,,,,,,,,,,,,,,,,,,,,,,86542,2022-11-15_14h05.40.266,vts_reward_expectancy_bt_OFFLINE,2022.2.4,59.914083798130804,
0,0,1,0,1,0,0,0,hexagon,triangle,0,0,0,0,0,0,0,6,,,,,,,,,,,,,,,,,,,,,,,,,,,,,,,,,,,,,,,,69.88405563301058,69.88405563301058,69.88405563301058,69.88405563301058,69.88405563301058,69.88405563301058,69.88405563301058,69.88405563301058,69.88405563301058,69.88405563301058,a,4.146337946003769,10,10,0,74.06159313500393,75.56307373099844,,,,,,,,,,,,,,,,,,,,,,,,,,,,,,,,,,,,,,,,,,,,,,,,,,,,,,,,,,,,,,,,,,,,,,86542,2022-11-15_14h05.40.266,vts_reward_expectancy_bt_OFFLINE,2022.2.4,59.914083798130804,
1,0,0,0,0,0,1,0,triangle,hexagon,0,0,0,0,0,1,1,1,,,,,,,,,,,,,,,,,,,,,,,,,,,,,,,,,,,,,,,,76.0637442030129,76.0637442030129,76.0637442030129,76.0637442030129,76.0637442030129,76.0637442030129,76.0637442030129,76.0637442030129,76.0637442030129,76.0637442030129,a,1.725231589982286,1,11,0,77.81568792602047,79.31742099201074,,,,,,,,,,,,,,,,,,,,,,,,,,,,,,,,,,,,,,,,,,,,,,,,,,,,,,,,,,,,,,,,,,,,,,86542,2022-11-15_14h05.40.266,vts_reward_expectancy_bt_OFFLINE,2022.2.4,59.914083798130804,
0,0,0,1,0,1,0,0,star ,circle,0,0,0,0,0,2,2,10,,,,,,,,,,,,,,,,,,,,,,,,,,,,,,,,,,,,,,,,79.81776416601497,79.81776416601497,79.81776416601497,79.81776416601497,79.81776416601497,79.81776416601497,79.81776416601497,79.81776416601497,79.81776416601497,79.81776416601497,a,1.6048730709881056,1,12,0,81.45301197201479,82.95455326902447,,,,,,,,,,,,,,,,,,,,,,,,,,,,,,,,,,,,,,,,,,,,,,,,,,,,,,,,,,,,,,,,,,,,,,86542,2022-11-15_14h05.40.266,vts_reward_expectancy_bt_OFFLINE,2022.2.4,59.914083798130804,
0,0,0,1,1,0,0,0,star,triangle,0,0,0,0,0,3,3,9,,,,,,,,,,,,,,,,,,,,,,,,,,,,,,,,,,,,,,,,83.45516227601911,83.45516227601911,83.45516227601911,83.45516227601911,83.45516227601911,83.45516227601911,83.45516227601911,83.45516227601911,83.45516227601911,83.45516227601911,a,2.052583966986276,1,13,0,85.52411983601633,87.0258332020021,,,,,,,,,,,,,,,,,,,,,,,,,,,,,,,,,,,,,,,,,,,,,,,,,,,,,,,,,,,,,,,,,,,,,,86542,2022-11-15_14h05.40.266,vts_reward_expectancy_bt_OFFLINE,2022.2.4,59.914083798130804,
0,1,0,0,1,0,0,0,circle,triangle,0,0,0,0,0,4,4,3,,,,,,,,,,,,,,,,,,,,,,,,,,,,,,,,,,,,,,,,87.52632514800644,87.52632514800644,87.52632514800644,87.52632514800644,87.52632514800644,87.52632514800644,87.52632514800644,87.52632514800644,87.52632514800644,87.52632514800644,a,1.1087293689779472,10,23,0,88.66086397701292,90.16272950201528,,,,,,,,,,,,,,,,,,,,,,,,,,,,,,,,,,,,,,,,,,,,,,,,,,,,,,,,,,,,,,,,,,,,,,86542,2022-11-15_14h05.40.266,vts_reward_expectancy_bt_OFFLINE,2022.2.4,59.914083798130804,
0,0,0,1,0,0,1,0,star,hexagon,0,0,0,0,0,5,5,11,,,,,,,,,,,,,,,,,,,,,,,,,,,,,,,,,,,,,,,,90.66308383201249,90.66308383201249,90.66308383201249,90.66308383201249,90.66308383201249,90.66308383201249,90.66308383201249,90.66308383201249,90.66308383201249,90.66308383201249,l,0.7168923849822022,1,24,0,91.39720042201225,92.89892113499809,,,,,,,,,,,,,,,,,,,,,,,,,,,,,,,,,,,,,,,,,,,,,,,,,,,,,,,,,,,,,,,,,,,,,,86542,2022-11-15_14h05.40.266,vts_reward_expectancy_bt_OFFLINE,2022.2.4,59.914083798130804,
1,0,0,0,0,1,0,0,triangle,circle,0,0,0,0,0,6,6,0,,,,,,,,,,,,,,,,,,,,,,,,,,,,,,,,,,,,,,,,93.3995410480129,93.3995410480129,93.3995410480129,93.3995410480129,93.3995410480129,93.3995410480129,93.3995410480129,93.3995410480129,93.3995410480129,93.3995410480129,l,1.3550480130070355,10,34,0,94.78435099302442,96.28595640402636,,,,,,,,,,,,,,,,,,,,,,,,,,,,,,,,,,,,,,,,,,,,,,,,,,,,,,,,,,,,,,,,,,,,,,86542,2022-11-15_14h05.40.266,vts_reward_expectancy_bt_OFFLINE,2022.2.4,59.914083798130804,
0,1,0,0,0,0,1,0,circle,hexagon,0,0,0,0,0,7,7,4,,,,,,,,,,,,,,,,,,,,,,,,,,,,,,,,,,,,,,,,96.78649345302256,96.78649345302256,96.78649345302256,96.78649345302256,96.78649345302256,96.78649345302256,96.78649345302256,96.78649345302256,96.78649345302256,96.78649345302256,l,0.5672291140072048,1,35,0,97.37063399900217,98.87222251200001,,,,,,,,,,,,,,,,,,,,,,,,,,,,,,,,,,,,,,,,,,,,,,,,,,,,,,,,,,,,,,,,,,,,,,86542,2022-11-15_14h05.40.266,vts_reward_expectancy_bt_OFFLINE,2022.2.4,59.914083798130804,
0,0,1,0,0,0,0,1,hexagon,star,0,0,0,0,0,8,8,8,,,,,,,,,,,,,,,,,,,,,,,,,,,,,,,,,,,,,,,,99.37285182101186,99.37285182101186,99.37285182101186,99.37285182101186,99.37285182101186,99.37285182101186,99.37285182101186,99.37285182101186,99.37285182101186,99.37285182101186,a,0.7932540049951058,10,45,0,100.19040568900527,101.69194067100761,,,,,,,,,,,,,,,,,,,,,,,,,,,,,,,,,,,,,,,,,,,,,,,,,,,,,,,,,,,,,,,,,,,,,,86542,2022-11-15_14h05.40.266,vts_reward_expectancy_bt_OFFLINE,2022.2.4,59.914083798130804,
0,0,1,0,0,1,0,0,hexagon,circle,0,0,0,0,0,9,9,7,,,,,,,,,,,,,,,,,,,,,,,,,,,,,,,,,,,,,,,,102.192587233003,102.192587233003,102.192587233003,102.192587233003,102.192587233003,102.192587233003,102.192587233003,102.192587233003,102.192587233003,102.192587233003,a,0.6512808229890652,10,55,0,102.87670458600041,104.37823817902245,,,,,,,,,,,,,,,,,,,,,,,,,,,,,,,,,,,,,,,,,,,,,,,,,,,,,,,,,,,,,,,,,,,,,,86542,2022-11-15_14h05.40.266,vts_reward_expectancy_bt_OFFLINE,2022.2.4,59.914083798130804,
1,0,0,0,0,0,0,1,triangle,star,0,0,0,0,0,10,10,2,,,,,,,,,,,,,,,,,,,,,,,,,,,,,,,,,,,,,,,,104.87809509501676,104.87809509501676,104.87809509501676,104.87809509501676,104.87809509501676,104.87809509501676,104.87809509501676,104.87809509501676,104.87809509501676,104.87809509501676,a,1.104035674012266,1,56,0,106.0133668310009,107.51501962702605,,,,,,,,,,,,,,,,,,,,,,,,,,,,,,,,,,,,,,,,,,,,,,,,,,,,,,,,,,,,,,,,,,,,,,86542,2022-11-15_14h05.40.266,vts_reward_expectancy_bt_OFFLINE,2022.2.4,59.914083798130804,
0,1,0,0,0,0,0,1,circle,star,0,0,0,0,0,11,11,5,,,,,,,,,,,,,,,,,,,,,,,,,,,,,,,,,,,,,,,,108.0157609640155,108.0157609640155,108.0157609640155,108.0157609640155,108.0157609640155,108.0157609640155,108.0157609640155,108.0157609640155,108.0157609640155,108.0157609640155,a,0.7678661139798351,10,66,0,108.81642721101525,110.31819853300112,,,,,,,,,,,,,,,,,,,,,,,,,,,,,,,,,,,,,,,,,,,,,,,,,,,,,,,,,,,,,,,,,,,,,,86542,2022-11-15_14h05.40.266,vts_reward_expectancy_bt_OFFLINE,2022.2.4,59.914083798130804,
1,0,0,0,0,0,1,0,triangle,hexagon,0,0,0,0,1,0,12,1,,,,,,,,,,,,,,,,,,,,,,,,,,,,,,,,,,,,,,,,110.81872538200696,110.81872538200696,110.81872538200696,110.81872538200696,110.81872538200696,110.81872538200696,110.81872538200696,110.81872538200696,110.81872538200696,110.81872538200696,l,2.295628966006916,1,67,0,113.1380414890009,114.63955511600943,,,,,,,,,,,,,,,,,,,,,,,,,,,,,,,,,,,,,,,,,,,,,,,,,,,,,,,,,,,,,,,,,,,,,,86542,2022-11-15_14h05.40.266,vts_reward_expectancy_bt_OFFLINE,2022.2.4,59.914083798130804,
0,1,0,0,0,0,0,1,circle,star,0,0,0,0,1,1,13,5,,,,,,,,,,,,,,,,,,,,,,,,,,,,,,,,,,,,,,,,115.14007630600827,115.14007630600827,115.14007630600827,115.14007630600827,115.14007630600827,115.14007630600827,115.14007630600827,115.14007630600827,115.14007630600827,115.14007630600827,a,0.7534728439641185,10,77,0,115.92429633400752,117.42599729902577,,,,,,,,,,,,,,,,,,,,,,,,,,,,,,,,,,,,,,,,,,,,,,,,,,,,,,,,,,,,,,,,,,,,,,86542,2022-11-15_14h05.40.266,vts_reward_expectancy_bt_OFFLINE,2022.2.4,59.914083798130804,
0,0,0,1,0,0,1,0,star,hexagon,0,0,0,0,1,2,14,11,,,,,,,,,,,,,,,,,,,,,,,,,,,,,,,,,,,,,,,,117.92653511100798,117.92653511100798,117.92653511100798,117.92653511100798,117.92653511100798,117.92653511100798,117.92653511100798,117.92653511100798,117.92653511100798,117.92653511100798,a,0.7244366359664127,1,78,0,118.6773447660089,120.17898479301948,,,,,,,,,,,,,,,,,,,,,,,,,,,,,,,,,,,,,,,,,,,,,,,,,,,,,,,,,,,,,,,,,,,,,,86542,2022-11-15_14h05.40.266,vts_reward_expectancy_bt_OFFLINE,2022.2.4,59.914083798130804,
1,0,0,0,0,0,0,1,triangle,star,0,0,0,0,1,3,15,2,,,,,,,,,,,,,,,,,,,,,,,,,,,,,,,,,,,,,,,,120.67958789601107,120.67958789601107,120.67958789601107,120.67958789601107,120.67958789601107,120.67958789601107,120.67958789601107,120.67958789601107,120.67958789601107,120.67958789601107,a,0.7841890889685601,10,88,0,121.48035296201124,122.98200733301928,,,,,,,,,,,,,,,,,,,,,,,,,,,,,,,,,,,,,,,,,,,,,,,,,,,,,,,,,,,,,,,,,,,,,,86542,2022-11-15_14h05.40.266,vts_reward_expectancy_bt_OFFLINE,2022.2.4,59.914083798130804,
0,0,1,0,0,0,0,1,hexagon,star,0,0,0,0,1,4,16,8,,,,,,,,,,,,,,,,,,,,,,,,,,,,,,,,,,,,,,,,123.48252906400012,123.48252906400012,123.48252906400012,123.48252906400012,123.48252906400012,123.48252906400012,123.48252906400012,123.48252906400012,123.48252906400012,123.48252906400012,a,0.7588708859984763,10,98,0,124.26670999699854,125.7684477820003,,,,,,,,,,,,,,,,,,,,,,,,,,,,,,,,,,,,,,,,,,,,,,,,,,,,,,,,,,,,,,,,,,,,,,86542,2022-11-15_14h05.40.266,vts_reward_expectancy_bt_OFFLINE,2022.2.4,59.914083798130804,
0,0,0,1,0,1,0,0,star ,circle,0,0,0,0,1,5,17,10,,,,,,,,,,,,,,,,,,,,,,,,,,,,,,,,,,,,,,,,126.2690157360048,126.2690157360048,126.2690157360048,126.2690157360048,126.2690157360048,126.2690157360048,126.2690157360048,126.2690157360048,126.2690157360048,126.2690157360048,l,0.6607876869966276,10,108,0,126.9531296750065,128.45482713801903,,,,,,,,,,,,,,,,,,,,,,,,,,,,,,,,,,,,,,,,,,,,,,,,,,,,,,,,,,,,,,,,,,,,,,86542,2022-11-15_14h05.40.266,vts_reward_expectancy_bt_OFFLINE,2022.2.4,59.914083798130804,
0,1,0,0,1,0,0,0,circle,triangle,0,0,0,0,1,6,18,3,,,,,,,,,,,,,,,,,,,,,,,,,,,,,,,,,,,,,,,,128.95544402999803,128.95544402999803,128.95544402999803,128.95544402999803,128.95544402999803,128.95544402999803,128.95544402999803,128.95544402999803,128.95544402999803,128.95544402999803,a,0.5070080359873828,10,118,0,129.4892578200088,130.99101153601077,,,,,,,,,,,,,,,,,,,,,,,,,,,,,,,,,,,,,,,,,,,,,,,,,,,,,,,,,,,,,,,,,,,,,,86542,2022-11-15_14h05.40.266,vts_reward_expectancy_bt_OFFLINE,2022.2.4,59.914083798130804,
0,0,0,1,1,0,0,0,star,triangle,0,0,0,0,1,7,19,9,,,,,,,,,,,,,,,,,,,,,,,,,,,,,,,,,,,,,,,,131.49144067801535,131.49144067801535,131.49144067801535,131.49144067801535,131.49144067801535,131.49144067801535,131.49144067801535,131.49144067801535,131.49144067801535,131.49144067801535,l,0.7504120669909753,1,119,0,132.2592980019981,133.76073713801452,,,,,,,,,,,,,,,,,,,,,,,,,,,,,,,,,,,,,,,,,,,,,,,,,,,,,,,,,,,,,,,,,,,,,,86542,2022-11-15_14h05.40.266,vts_reward_expectancy_bt_OFFLINE,2022.2.4,59.914083798130804,
0,0,1,0,0,1,0,0,hexagon,circle,0,0,0,0,1,8,20,7,,,,,,,,,,,,,,,,,,,,,,,,,,,,,,,,,,,,,,,,134.26123074101633,134.26123074101633,134.26123074101633,134.26123074101633,134.26123074101633,134.26123074101633,134.26123074101633,134.26123074101633,134.26123074101633,134.26123074101633,a,0.7133962910156697,10,129,0,134.99558574901312,136.49702393900952,,,,,,,,,,,,,,,,,,,,,,,,,,,,,,,,,,,,,,,,,,,,,,,,,,,,,,,,,,,,,,,,,,,,,,86542,2022-11-15_14h05.40.266,vts_reward_expectancy_bt_OFFLINE,2022.2.4,59.914083798130804,
0,1,0,0,0,0,1,0,circle,hexagon,0,0,0,0,1,9,21,4,,,,,,,,,,,,,,,,,,,,,,,,,,,,,,,,,,,,,,,,136.99750821801717,136.99750821801717,136.99750821801717,136.99750821801717,136.99750821801717,136.99750821801717,136.99750821801717,136.99750821801717,136.99750821801717,136.99750821801717,a,0.02405129498220049,10,139,0,137.04776569301612,138.54930197700742,,,,,,,,,,,,,,,,,,,,,,,,,,,,,,,,,,,,,,,,,,,,,,,,,,,,,,,,,,,,,,,,,,,,,,86542,2022-11-15_14h05.40.266,vts_reward_expectancy_bt_OFFLINE,2022.2.4,59.914083798130804,
0,0,1,0,1,0,0,0,hexagon,triangle,0,0,0,0,1,10,22,6,,,,,,,,,,,,,,,,,,,,,,,,,,,,,,,,,,,,,,,,139.04972173800343,139.04972173800343,139.04972173800343,139.04972173800343,139.04972173800343,139.04972173800343,139.04972173800343,139.04972173800343,139.04972173800343,139.04972173800343,a,0.43608093599323183,10,149,0,139.51708482802496,141.01863540700288,,,,,,,,,,,,,,,,,,,,,,,,,,,,,,,,,,,,,,,,,,,,,,,,,,,,,,,,,,,,,,,,,,,,,,86542,2022-11-15_14h05.40.266,vts_reward_expectancy_bt_OFFLINE,2022.2.4,59.914083798130804,
1,0,0,0,0,1,0,0,triangle,circle,0,0,0,0,1,11,23,0,,,,,,,,,,,,,,,,,,,,,,,,,,,,,,,,,,,,,,,,141.51921259300434,141.51921259300434,141.51921259300434,141.51921259300434,141.51921259300434,141.51921259300434,141.51921259300434,141.51921259300434,141.51921259300434,141.51921259300434,l,2.085205869982019,10,159,0,143.62158476901823,145.1232377970009,,,,,,,,,,,,,,,,,,,,,,,,,,,,,,,,,,,,,,,,,,,,,,,,,,,,,,,,,,,,,,,,,,,,,,86542,2022-11-15_14h05.40.266,vts_reward_expectancy_bt_OFFLINE,2022.2.4,59.914083798130804,
0,0,0,1,0,0,1,0,star,hexagon,0,0,0,0,2,0,24,11,,,,,,,,,,,,,,,,,,,,,,,,,,,,,,,,,,,,,,,,145.62369559600484,145.62369559600484,145.62369559600484,145.62369559600484,145.62369559600484,145.62369559600484,145.62369559600484,145.62369559600484,145.62369559600484,145.62369559600484,l,1.1855855389731005,1,160,0,146.8416923750192,148.34338312101318,,,,,,,,,,,,,,,,,,,,,,,,,,,,,,,,,,,,,,,,,,,,,,,,,,,,,,,,,,,,,,,,,,,,,,86542,2022-11-15_14h05.40.266,vts_reward_expectancy_bt_OFFLINE,2022.2.4,59.914083798130804,
0,0,0,1,1,0,0,0,star,triangle,0,0,0,0,2,1,25,9,,,,,,,,,,,,,,,,,,,,,,,,,,,,,,,,,,,,,,,,148.84399589401437,148.84399589401437,148.84399589401437,148.84399589401437,148.84399589401437,148.84399589401437,148.84399589401437,148.84399589401437,148.84399589401437,148.84399589401437,a,0.42960884398780763,1,161,0,149.29454148301738,150.79620025900658,,,,,,,,,,,,,,,,,,,,,,,,,,,,,,,,,,,,,,,,,,,,,,,,,,,,,,,,,,,,,,,,,,,,,,86542,2022-11-15_14h05.40.266,vts_reward_expectancy_bt_OFFLINE,2022.2.4,59.914083798130804,
0,0,1,0,0,1,0,0,hexagon,circle,0,0,0,0,2,2,26,7,,,,,,,,,,,,,,,,,,,,,,,,,,,,,,,,,,,,,,,,151.2966697270167,151.2966697270167,151.2966697270167,151.2966697270167,151.2966697270167,151.2966697270167,151.2966697270167,151.2966697270167,151.2966697270167,151.2966697270167,l,0.384411517996341,10,171,0,151.71338042101706,153.21540135602118,,,,,,,,,,,,,,,,,,,,,,,,,,,,,,,,,,,,,,,,,,,,,,,,,,,,,,,,,,,,,,,,,,,,,,86542,2022-11-15_14h05.40.266,vts_reward_expectancy_bt_OFFLINE,2022.2.4,59.914083798130804,
0,1,0,0,0,0,0,1,circle,star,0,0,0,0,2,3,27,5,,,,,,,,,,,,,,,,,,,,,,,,,,,,,,,,,,,,,,,,153.71610304000205,153.71610304000205,153.71610304000205,153.71610304000205,153.71610304000205,153.71610304000205,153.71610304000205,153.71610304000205,153.71610304000205,153.71610304000205,a,0.632245368004078,1,172,0,154.3667096030258,155.86838242202066,,,,,,,,,,,,,,,,,,,,,,,,,,,,,,,,,,,,,,,,,,,,,,,,,,,,,,,,,,,,,,,,,,,,,,86542,2022-11-15_14h05.40.266,vts_reward_expectancy_bt_OFFLINE,2022.2.4,59.914083798130804,
0,0,1,0,0,0,0,1,hexagon,star,0,0,0,0,2,4,28,8,,,,,,,,,,,,,,,,,,,,,,,,,,,,,,,,,,,,,,,,156.36887389302137,156.36887389302137,156.36887389302137,156.36887389302137,156.36887389302137,156.36887389302137,156.36887389302137,156.36887389302137,156.36887389302137,156.36887389302137,l,0.419213643996045,10,182,0,156.81925405800575,158.32092812799965,,,,,,,,,,,,,,,,,,,,,,,,,,,,,,,,,,,,,,,,,,,,,,,,,,,,,,,,,,,,,,,,,,,,,,86542,2022-11-15_14h05.40.266,vts_reward_expectancy_bt_OFFLINE,2022.2.4,59.914083798130804,
0,1,0,0,1,0,0,0,circle,triangle,0,0,0,0,2,5,29,3,,,,,,,,,,,,,,,,,,,,,,,,,,,,,,,,,,,,,,,,158.82158596802037,158.82158596802037,158.82158596802037,158.82158596802037,158.82158596802037,158.82158596802037,158.82158596802037,158.82158596802037,158.82158596802037,158.82158596802037,l,0.6451177069975529,1,183,0,159.48885836201953,160.99056038301205,,,,,,,,,,,,,,,,,,,,,,,,,,,,,,,,,,,,,,,,,,,,,,,,,,,,,,,,,,,,,,,,,,,,,,86542,2022-11-15_14h05.40.266,vts_reward_expectancy_bt_OFFLINE,2022.2.4,59.914083798130804,
1,0,0,0,0,0,1,0,triangle,hexagon,0,0,0,0,2,6,30,1,,,,,,,,,,,,,,,,,,,,,,,,,,,,,,,,,,,,,,,,161.4912520260259,161.4912520260259,161.4912520260259,161.4912520260259,161.4912520260259,161.4912520260259,161.4912520260259,161.4912520260259,161.4912520260259,161.4912520260259,a,0.39314091799315065,10,193,0,161.9086238380114,163.41001836201758,,,,,,,,,,,,,,,,,,,,,,,,,,,,,,,,,,,,,,,,,,,,,,,,,,,,,,,,,,,,,,,,,,,,,,86542,2022-11-15_14h05.40.266,vts_reward_expectancy_bt_OFFLINE,2022.2.4,59.914083798130804,
1,0,0,0,0,1,0,0,triangle,circle,0,0,0,0,2,7,31,0,,,,,,,,,,,,,,,,,,,,,,,,,,,,,,,,,,,,,,,,163.91061413800344,163.91061413800344,163.91061413800344,163.91061413800344,163.91061413800344,163.91061413800344,163.91061413800344,163.91061413800344,163.91061413800344,163.91061413800344,l,0.07780636998359114,10,203,0,164.01076336202095,165.5123564680107,,,,,,,,,,,,,,,,,,,,,,,,,,,,,,,,,,,,,,,,,,,,,,,,,,,,,,,,,,,,,,,,,,,,,,86542,2022-11-15_14h05.40.266,vts_reward_expectancy_bt_OFFLINE,2022.2.4,59.914083798130804,
1,0,0,0,0,0,0,1,triangle,star,0,0,0,0,2,8,32,2,,,,,,,,,,,,,,,,,,,,,,,,,,,,,,,,,,,,,,,,166.01279518401134,166.01279518401134,166.01279518401134,166.01279518401134,166.01279518401134,166.01279518401134,166.01279518401134,166.01279518401134,166.01279518401134,166.01279518401134,l,0.7541256760014221,1,204,0,166.7970399740152,168.29876335602603,,,,,,,,,,,,,,,,,,,,,,,,,,,,,,,,,,,,,,,,,,,,,,,,,,,,,,,,,,,,,,,,,,,,,,86542,2022-11-15_14h05.40.266,vts_reward_expectancy_bt_OFFLINE,2022.2.4,59.914083798130804,
0,0,0,1,0,1,0,0,star ,circle,0,0,0,0,2,9,33,10,,,,,,,,,,,,,,,,,,,,,,,,,,,,,,,,,,,,,,,,168.79930069102556,168.79930069102556,168.79930069102556,168.79930069102556,168.79930069102556,168.79930069102556,168.79930069102556,168.79930069102556,168.79930069102556,168.79930069102556,l,0.060599618998821825,10,214,0,168.88279416502337,170.3843648720067,,,,,,,,,,,,,,,,,,,,,,,,,,,,,,,,,,,,,,,,,,,,,,,,,,,,,,,,,,,,,,,,,,,,,,86542,2022-11-15_14h05.40.266,vts_reward_expectancy_bt_OFFLINE,2022.2.4,59.914083798130804,
0,1,0,0,0,0,1,0,circle,hexagon,0,0,0,0,2,10,34,4,,,,,,,,,,,,,,,,,,,,,,,,,,,,,,,,,,,,,,,,170.88484829402296,170.88484829402296,170.88484829402296,170.88484829402296,170.88484829402296,170.88484829402296,170.88484829402296,170.88484829402296,170.88484829402296,170.88484829402296,a,0.05719795299228281,10,224,0,170.9682751520013,172.47012574999826,,,,,,,,,,,,,,,,,,,,,,,,,,,,,,,,,,,,,,,,,,,,,,,,,,,,,,,,,,,,,,,,,,,,,,86542,2022-11-15_14h05.40.266,vts_reward_expectancy_bt_OFFLINE,2022.2.4,59.914083798130804,
0,0,1,0,1,0,0,0,hexagon,triangle,0,0,0,0,2,11,35,6,,,,,,,,,,,,,,,,,,,,,,,,,,,,,,,,,,,,,,,,172.9705946550239,172.9705946550239,172.9705946550239,172.9705946550239,172.9705946550239,172.9705946550239,172.9705946550239,172.9705946550239,172.9705946550239,172.9705946550239,a,0.33355803100857884,1,225,0,173.32092725901748,174.8227045260137,,,,,,,,,,,,,,,,,,,,,,,,,,,,,,,,,,,,,,,,,,,,,,,,,,,,,,,,,,,,,,,,,,,,,,86542,2022-11-15_14h05.40.266,vts_reward_expectancy_bt_OFFLINE,2022.2.4,59.914083798130804,
0,1,0,0,0,0,1,0,circle,hexagon,0,0,0,0,3,0,36,4,,,,,,,,,,,,,,,,,,,,,,,,,,,,,,,,,,,,,,,,175.32317759899888,175.32317759899888,175.32317759899888,175.32317759899888,175.32317759899888,175.32317759899888,175.32317759899888,175.32317759899888,175.32317759899888,175.32317759899888,l,0.5573829259665217,1,226,0,175.90718331601238,177.4087198250054,,,,,,,,,,,,,,,,,,,,,,,,,,,,,,,,,,,,,,,,,,,,,,,,,,,,,,,,,,,,,,,,,,,,,,86542,2022-11-15_14h05.40.266,vts_reward_expectancy_bt_OFFLINE,2022.2.4,59.914083798130804,
0,0,0,1,1,0,0,0,star,triangle,0,0,0,0,3,1,37,9,,,,,,,,,,,,,,,,,,,,,,,,,,,,,,,,,,,,,,,,177.90931366200675,177.90931366200675,177.90931366200675,177.90931366200675,177.90931366200675,177.90931366200675,177.90931366200675,177.90931366200675,177.90931366200675,177.90931366200675,a,0.13207236598827876,1,227,0,178.05938339899876,179.5610867810028,,,,,,,,,,,,,,,,,,,,,,,,,,,,,,,,,,,,,,,,,,,,,,,,,,,,,,,,,,,,,,,,,,,,,,86542,2022-11-15_14h05.40.266,vts_reward_expectancy_bt_OFFLINE,2022.2.4,59.914083798130804,
1,0,0,0,0,1,0,0,triangle,circle,0,0,0,0,3,2,38,0,,,,,,,,,,,,,,,,,,,,,,,,,,,,,,,,,,,,,,,,180.06152313901111,180.06152313901111,180.06152313901111,180.06152313901111,180.06152313901111,180.06152313901111,180.06152313901111,180.06152313901111,180.06152313901111,180.06152313901111,l,0.5338776090065949,1,228,0,180.61230352902203,182.11402663600165,,,,,,,,,,,,,,,,,,,,,,,,,,,,,,,,,,,,,,,,,,,,,,,,,,,,,,,,,,,,,,,,,,,,,,86542,2022-11-15_14h05.40.266,vts_reward_expectancy_bt_OFFLINE,2022.2.4,59.914083798130804,
0,1,0,0,0,0,0,1,circle,star,0,0,0,0,3,3,39,5,,,,,,,,,,,,,,,,,,,,,,,,,,,,,,,,,,,,,,,,182.61457506701117,182.61457506701117,182.61457506701117,182.61457506701117,182.61457506701117,182.61457506701117,182.61457506701117,182.61457506701117,182.61457506701117,182.61457506701117,a,0.1288976320065558,1,229,0,182.7649017870135,184.2664064290002,,,,,,,,,,,,,,,,,,,,,,,,,,,,,,,,,,,,,,,,,,,,,,,,,,,,,,,,,,,,,,,,,,,,,,86542,2022-11-15_14h05.40.266,vts_reward_expectancy_bt_OFFLINE,2022.2.4,59.914083798130804,
0,0,1,0,0,1,0,0,hexagon,circle,0,0,0,0,3,4,40,7,,,,,,,,,,,,,,,,,,,,,,,,,,,,,,,,,,,,,,,,184.766875181027,184.766875181027,184.766875181027,184.766875181027,184.766875181027,184.766875181027,184.766875181027,184.766875181027,184.766875181027,184.766875181027,l,0.304752384981839,10,239,0,185.10061231500003,186.60215584700927,,,,,,,,,,,,,,,,,,,,,,,,,,,,,,,,,,,,,,,,,,,,,,,,,,,,,,,,,,,,,,,,,,,,,,86542,2022-11-15_14h05.40.266,vts_reward_expectancy_bt_OFFLINE,2022.2.4,59.914083798130804,
0,0,1,0,0,0,0,1,hexagon,star,0,0,0,0,3,5,41,8,,,,,,,,,,,,,,,,,,,,,,,,,,,,,,,,,,,,,,,,187.1029271290172,187.1029271290172,187.1029271290172,187.1029271290172,187.1029271290172,187.1029271290172,187.1029271290172,187.1029271290172,187.1029271290172,187.1029271290172,l,0.2304854999820236,10,249,0,187.35308452800382,188.8547795920167,,,,,,,,,,,,,,,,,,,,,,,,,,,,,,,,,,,,,,,,,,,,,,,,,,,,,,,,,,,,,,,,,,,,,,86542,2022-11-15_14h05.40.266,vts_reward_expectancy_bt_OFFLINE,2022.2.4,59.914083798130804,
0,0,0,1,0,0,1,0,star,hexagon,0,0,0,0,3,6,42,11,,,,,,,,,,,,,,,,,,,,,,,,,,,,,,,,,,,,,,,,189.35523902700515,189.35523902700515,189.35523902700515,189.35523902700515,189.35523902700515,189.35523902700515,189.35523902700515,189.35523902700515,189.35523902700515,189.35523902700515,a,0.38491079496452585,10,259,0,189.77252172800945,191.27414058201248,,,,,,,,,,,,,,,,,,,,,,,,,,,,,,,,,,,,,,,,,,,,,,,,,,,,,,,,,,,,,,,,,,,,,,86542,2022-11-15_14h05.40.266,vts_reward_expectancy_bt_OFFLINE,2022.2.4,59.914083798130804,
0,0,0,1,0,1,0,0,star ,circle,0,0,0,0,3,7,43,10,,,,,,,,,,,,,,,,,,,,,,,,,,,,,,,,,,,,,,,,191.7748245090188,191.7748245090188,191.7748245090188,191.7748245090188,191.7748245090188,191.7748245090188,191.7748245090188,191.7748245090188,191.7748245090188,191.7748245090188,a,0.1028482370020356,10,269,0,191.90814036500524,193.40983183099888,,,,,,,,,,,,,,,,,,,,,,,,,,,,,,,,,,,,,,,,,,,,,,,,,,,,,,,,,,,,,,,,,,,,,,86542,2022-11-15_14h05.40.266,vts_reward_expectancy_bt_OFFLINE,2022.2.4,59.914083798130804,
0,0,1,0,1,0,0,0,hexagon,triangle,0,0,0,0,3,8,44,6,,,,,,,,,,,,,,,,,,,,,,,,,,,,,,,,,,,,,,,,193.9103086530231,193.9103086530231,193.9103086530231,193.9103086530231,193.9103086530231,193.9103086530231,193.9103086530231,193.9103086530231,193.9103086530231,193.9103086530231,l,0.1283583339827601,10,279,0,194.06045456201537,195.56206256800215,,,,,,,,,,,,,,,,,,,,,,,,,,,,,,,,,,,,,,,,,,,,,,,,,,,,,,,,,,,,,,,,,,,,,,86542,2022-11-15_14h05.40.266,vts_reward_expectancy_bt_OFFLINE,2022.2.4,59.914083798130804,
0,1,0,0,1,0,0,0,circle,triangle,0,0,0,0,3,9,45,3,,,,,,,,,,,,,,,,,,,,,,,,,,,,,,,,,,,,,,,,196.06279013800668,196.06279013800668,196.06279013800668,196.06279013800668,196.06279013800668,196.06279013800668,196.06279013800668,196.06279013800668,196.06279013800668,196.06279013800668,a,0.05722390199662186,10,289,0,196.1462373220129,197.64780634801718,,,,,,,,,,,,,,,,,,,,,,,,,,,,,,,,,,,,,,,,,,,,,,,,,,,,,,,,,,,,,,,,,,,,,,86542,2022-11-15_14h05.40.266,vts_reward_expectancy_bt_OFFLINE,2022.2.4,59.914083798130804,
1,0,0,0,0,0,0,1,triangle,star,0,0,0,0,3,10,46,2,,,,,,,,,,,,,,,,,,,,,,,,,,,,,,,,,,,,,,,,198.14840754802572,198.14840754802572,198.14840754802572,198.14840754802572,198.14840754802572,198.14840754802572,198.14840754802572,198.14840754802572,198.14840754802572,198.14840754802572,a,0.006754595000529662,10,299,0,198.18174220400397,199.68346038702293,,,,,,,,,,,,,,,,,,,,,,,,,,,,,,,,,,,,,,,,,,,,,,,,,,,,,,,,,,,,,,,,,,,,,,86542,2022-11-15_14h05.40.266,vts_reward_expectancy_bt_OFFLINE,2022.2.4,59.914083798130804,
1,0,0,0,0,0,1,0,triangle,hexagon,0,0,0,0,3,11,47,1,,,,,,,,,,,,,,,,,,,,,,,,,,,,,,,,,,,,,,,,200.18409827401047,200.18409827401047,200.18409827401047,200.18409827401047,200.18409827401047,200.18409827401047,200.18409827401047,200.18409827401047,200.18409827401047,200.18409827401047,l,0.31228393598576076,10,309,0,200.51768324401928,202.01940105800168,,,,,,,,,,,,,,,,,,,,,,,,,,,,,,,,,,,,,,,,,,,,,,,,,,,,,,,,,,,,,,,,,,,,,,86542,2022-11-15_14h05.40.266,vts_reward_expectancy_bt_OFFLINE,2022.2.4,59.914083798130804,
0,0,1,0,0,1,0,0,hexagon,circle,1,0,1,0,0,0,0,7,,,,,,,,,,,,,,,,,,,,,,,,,,,,,,,,,,,,,,,,209.7509697440255,209.7509697440255,209.7509697440255,209.7509697440255,209.7509697440255,209.7509697440255,209.7509697440255,209.7509697440255,209.7509697440255,209.7509697440255,a,0.6456749130156823,1,310,1,210.42872052601888,211.9301581250038,,,,,,,,,,,,,,,,,,,,,,,,,,,,,,,,,,,,,,,,,,,,,,,,,,,,,,,,,,,,,,,,,,,,,,86542,2022-11-15_14h05.40.266,vts_reward_expectancy_bt_OFFLINE,2022.2.4,59.914083798130804,
0,0,0,1,1,0,0,0,star,triangle,1,0,1,0,0,1,1,9,,,,,,,,,,,,,,,,,,,,,,,,,,,,,,,,,,,,,,,,212.43089830802637,212.43089830802637,212.43089830802637,212.43089830802637,212.43089830802637,212.43089830802637,212.43089830802637,212.43089830802637,212.43089830802637,212.43089830802637,l,0.2606870479648933,10,320,1,212.714298410021,214.21605852301582,,,,,,,,,,,,,,,,,,,,,,,,,,,,,,,,,,,,,,,,,,,,,,,,,,,,,,,,,,,,,,,,,,,,,,86542,2022-11-15_14h05.40.266,vts_reward_expectancy_bt_OFFLINE,2022.2.4,59.914083798130804,
0,1,0,0,0,0,0,1,circle,star,1,0,1,0,0,2,2,5,,,,,,,,,,,,,,,,,,,,,,,,,,,,,,,,,,,,,,,,214.71658624600968,214.71658624600968,214.71658624600968,214.71658624600968,214.71658624600968,214.71658624600968,214.71658624600968,214.71658624600968,214.71658624600968,214.71658624600968,l,0.3027051500102971,1,321,1,215.05028085102094,216.5519156740047,,,,,,,,,,,,,,,,,,,,,,,,,,,,,,,,,,,,,,,,,,,,,,,,,,,,,,,,,,,,,,,,,,,,,,86542,2022-11-15_14h05.40.266,vts_reward_expectancy_bt_OFFLINE,2022.2.4,59.914083798130804,
0,0,1,0,0,0,0,1,hexagon,star,1,0,1,0,0,3,3,8,,,,,,,,,,,,,,,,,,,,,,,,,,,,,,,,,,,,,,,,217.05246155001805,217.05246155001805,217.05246155001805,217.05246155001805,217.05246155001805,217.05246155001805,217.05246155001805,217.05246155001805,217.05246155001805,217.05246155001805,a,0.22922972700325772,1,322,1,217.30276987401885,218.80457734499942,,,,,,,,,,,,,,,,,,,,,,,,,,,,,,,,,,,,,,,,,,,,,,,,,,,,,,,,,,,,,,,,,,,,,,86542,2022-11-15_14h05.40.266,vts_reward_expectancy_bt_OFFLINE,2022.2.4,59.914083798130804,
1,0,0,0,0,0,0,1,triangle,star,1,0,1,0,0,4,4,2,,,,,,,,,,,,,,,,,,,,,,,,,,,,,,,,,,,,,,,,219.30501364800148,219.30501364800148,219.30501364800148,219.30501364800148,219.30501364800148,219.30501364800148,219.30501364800148,219.30501364800148,219.30501364800148,219.30501364800148,l,0.17020485299872234,10,332,1,219.50525180701516,221.0068863670167,,,,,,,,,,,,,,,,,,,,,,,,,,,,,,,,,,,,,,,,,,,,,,,,,,,,,,,,,,,,,,,,,,,,,,86542,2022-11-15_14h05.40.266,vts_reward_expectancy_bt_OFFLINE,2022.2.4,59.914083798130804,
1,0,0,0,0,0,1,0,triangle,hexagon,1,0,1,0,0,5,5,1,,,,,,,,,,,,,,,,,,,,,,,,,,,,,,,,,,,,,,,,221.5073645200173,221.5073645200173,221.5073645200173,221.5073645200173,221.5073645200173,221.5073645200173,221.5073645200173,221.5073645200173,221.5073645200173,221.5073645200173,l,0.1278750299825333,10,342,1,221.65755944899865,223.1593237760244,,,,,,,,,,,,,,,,,,,,,,,,,,,,,,,,,,,,,,,,,,,,,,,,,,,,,,,,,,,,,,,,,,,,,,86542,2022-11-15_14h05.40.266,vts_reward_expectancy_bt_OFFLINE,2022.2.4,59.914083798130804,
0,1,0,0,1,0,0,0,circle,triangle,1,0,1,0,0,6,6,3,,,,,,,,,,,,,,,,,,,,,,,,,,,,,,,,,,,,,,,,223.65978632101906,223.65978632101906,223.65978632101906,223.65978632101906,223.65978632101906,223.65978632101906,223.65978632101906,223.65978632101906,223.65978632101906,223.65978632101906,a,0.012067207979271188,1,343,1,223.69312483002432,225.19496685100603,,,,,,,,,,,,,,,,,,,,,,,,,,,,,,,,,,,,,,,,,,,,,,,,,,,,,,,,,,,,,,,,,,,,,,86542,2022-11-15_14h05.40.266,vts_reward_expectancy_bt_OFFLINE,2022.2.4,59.914083798130804,
1,0,0,0,0,1,0,0,triangle,circle,1,0,1,0,0,7,7,0,,,,,,,,,,,,,,,,,,,,,,,,,,,,,,,,,,,,,,,,225.69550012800028,225.69550012800028,225.69550012800028,225.69550012800028,225.69550012800028,225.69550012800028,225.69550012800028,225.69550012800028,225.69550012800028,225.69550012800028,a,0.057818920991849154,1,344,1,225.77877441700548,227.28044070702163,,,,,,,,,,,,,,,,,,,,,,,,,,,,,,,,,,,,,,,,,,,,,,,,,,,,,,,,,,,,,,,,,,,,,,86542,2022-11-15_14h05.40.266,vts_reward_expectancy_bt_OFFLINE,2022.2.4,59.914083798130804,
0,0,0,1,0,1,0,0,star ,circle,1,0,1,0,0,8,8,10,,,,,,,,,,,,,,,,,,,,,,,,,,,,,,,,,,,,,,,,227.78134254500037,227.78134254500037,227.78134254500037,227.78134254500037,227.78134254500037,227.78134254500037,227.78134254500037,227.78134254500037,227.78134254500037,227.78134254500037,l,0.00739732597139664,1,345,1,227.81441208001343,229.31605213001603,,,,,,,,,,,,,,,,,,,,,,,,,,,,,,,,,,,,,,,,,,,,,,,,,,,,,,,,,,,,,,,,,,,,,,86542,2022-11-15_14h05.40.266,vts_reward_expectancy_bt_OFFLINE,2022.2.4,59.914083798130804,
0,1,0,0,0,0,1,0,circle,hexagon,1,0,1,0,0,9,9,4,,,,,,,,,,,,,,,,,,,,,,,,,,,,,,,,,,,,,,,,229.81662770800176,229.81662770800176,229.81662770800176,229.81662770800176,229.81662770800176,229.81662770800176,229.81662770800176,229.81662770800176,229.81662770800176,229.81662770800176,a,0.3012764769955538,1,346,1,230.15030095900875,231.65200380701572,,,,,,,,,,,,,,,,,,,,,,,,,,,,,,,,,,,,,,,,,,,,,,,,,,,,,,,,,,,,,,,,,,,,,,86542,2022-11-15_14h05.40.266,vts_reward_expectancy_bt_OFFLINE,2022.2.4,59.914083798130804,
0,0,1,0,1,0,0,0,hexagon,triangle,1,0,1,0,0,10,10,6,,,,,,,,,,,,,,,,,,,,,,,,,,,,,,,,,,,,,,,,232.15257920802105,232.15257920802105,232.15257920802105,232.15257920802105,232.15257920802105,232.15257920802105,232.15257920802105,232.15257920802105,232.15257920802105,232.15257920802105,l,0.04773841498536058,10,356,1,232.21937013001298,233.72087981901132,,,,,,,,,,,,,,,,,,,,,,,,,,,,,,,,,,,,,,,,,,,,,,,,,,,,,,,,,,,,,,,,,,,,,,86542,2022-11-15_14h05.40.266,vts_reward_expectancy_bt_OFFLINE,2022.2.4,59.914083798130804,
0,0,0,1,0,0,1,0,star,hexagon,1,0,1,0,0,11,11,11,,,,,,,,,,,,,,,,,,,,,,,,,,,,,,,,,,,,,,,,234.2216781830066,234.2216781830066,234.2216781830066,234.2216781830066,234.2216781830066,234.2216781830066,234.2216781830066,234.2216781830066,234.2216781830066,234.2216781830066,l,0.014905274991178885,10,366,1,234.2548012790212,235.75651461002417,,,,,,,,,,,,,,,,,,,,,,,,,,,,,,,,,,,,,,,,,,,,,,,,,,,,,,,,,,,,,,,,,,,,,,86542,2022-11-15_14h05.40.266,vts_reward_expectancy_bt_OFFLINE,2022.2.4,59.914083798130804,
1,0,0,0,0,1,0,0,triangle,circle,1,0,1,0,1,0,12,0,,,,,,,,,,,,,,,,,,,,,,,,,,,,,,,,,,,,,,,,236.25700370100094,236.25700370100094,236.25700370100094,236.25700370100094,236.25700370100094,236.25700370100094,236.25700370100094,236.25700370100094,236.25700370100094,236.25700370100094,l,0.37475819399696775,10,376,1,236.65738952800166,238.15908457202022,,,,,,,,,,,,,,,,,,,,,,,,,,,,,,,,,,,,,,,,,,,,,,,,,,,,,,,,,,,,,,,,,,,,,,86542,2022-11-15_14h05.40.266,vts_reward_expectancy_bt_OFFLINE,2022.2.4,59.914083798130804,
1,0,0,0,0,0,0,1,triangle,star,1,0,1,0,1,1,13,2,,,,,,,,,,,,,,,,,,,,,,,,,,,,,,,,,,,,,,,,238.65955132001545,238.65955132001545,238.65955132001545,238.65955132001545,238.65955132001545,238.65955132001545,238.65955132001545,238.65955132001545,238.65955132001545,238.65955132001545,l,0.27846345701254904,10,386,1,238.95994389001862,240.46156766600325,,,,,,,,,,,,,,,,,,,,,,,,,,,,,,,,,,,,,,,,,,,,,,,,,,,,,,,,,,,,,,,,,,,,,,86542,2022-11-15_14h05.40.266,vts_reward_expectancy_bt_OFFLINE,2022.2.4,59.914083798130804,
0,0,0,1,1,0,0,0,star,triangle,1,0,1,0,1,2,14,9,,,,,,,,,,,,,,,,,,,,,,,,,,,,,,,,,,,,,,,,240.96228643599898,240.96228643599898,240.96228643599898,240.96228643599898,240.96228643599898,240.96228643599898,240.96228643599898,240.96228643599898,240.96228643599898,240.96228643599898,l,0.023887884977739304,10,396,1,241.0122279000061,242.5139311310195,,,,,,,,,,,,,,,,,,,,,,,,,,,,,,,,,,,,,,,,,,,,,,,,,,,,,,,,,,,,,,,,,,,,,,86542,2022-11-15_14h05.40.266,vts_reward_expectancy_bt_OFFLINE,2022.2.4,59.914083798130804,
0,0,1,0,0,0,0,1,hexagon,star,1,0,1,0,1,3,15,8,,,,,,,,,,,,,,,,,,,,,,,,,,,,,,,,,,,,,,,,243.0148534780019,243.0148534780019,243.0148534780019,243.0148534780019,243.0148534780019,243.0148534780019,243.0148534780019,243.0148534780019,243.0148534780019,243.0148534780019,l,0.187147519987775,1,397,1,243.23141328801285,244.73317092002253,,,,,,,,,,,,,,,,,,,,,,,,,,,,,,,,,,,,,,,,,,,,,,,,,,,,,,,,,,,,,,,,,,,,,,86542,2022-11-15_14h05.40.266,vts_reward_expectancy_bt_OFFLINE,2022.2.4,59.914083798130804,
0,0,1,0,0,1,0,0,hexagon,circle,1,0,1,0,1,4,16,7,,,,,,,,,,,,,,,,,,,,,,,,,,,,,,,,,,,,,,,,245.23366905600415,245.23366905600415,245.23366905600415,245.23366905600415,245.23366905600415,245.23366905600415,245.23366905600415,245.23366905600415,245.23366905600415,245.23366905600415,a,0.06088061197078787,10,407,1,245.31720349402167,246.81875606201356,,,,,,,,,,,,,,,,,,,,,,,,,,,,,,,,,,,,,,,,,,,,,,,,,,,,,,,,,,,,,,,,,,,,,,86542,2022-11-15_14h05.40.266,vts_reward_expectancy_bt_OFFLINE,2022.2.4,59.914083798130804,
0,1,0,0,1,0,0,0,circle,triangle,1,0,1,0,1,5,17,3,,,,,,,,,,,,,,,,,,,,,,,,,,,,,,,,,,,,,,,,247.3192387210147,247.3192387210147,247.3192387210147,247.3192387210147,247.3192387210147,247.3192387210147,247.3192387210147,247.3192387210147,247.3192387210147,247.3192387210147,l,0.04592560598393902,10,417,1,247.38595288601937,248.88763262002612,,,,,,,,,,,,,,,,,,,,,,,,,,,,,,,,,,,,,,,,,,,,,,,,,,,,,,,,,,,,,,,,,,,,,,86542,2022-11-15_14h05.40.266,vts_reward_expectancy_bt_OFFLINE,2022.2.4,59.914083798130804,
0,1,0,0,0,0,0,1,circle,star,1,0,1,0,1,6,18,5,,,,,,,,,,,,,,,,,,,,,,,,,,,,,,,,,,,,,,,,249.38821445702342,249.38821445702342,249.38821445702342,249.38821445702342,249.38821445702342,249.38821445702342,249.38821445702342,249.38821445702342,249.38821445702342,249.38821445702342,l,0.013200471992604434,10,427,1,249.42147118301364,250.92318549501942,,,,,,,,,,,,,,,,,,,,,,,,,,,,,,,,,,,,,,,,,,,,,,,,,,,,,,,,,,,,,,,,,,,,,,86542,2022-11-15_14h05.40.266,vts_reward_expectancy_bt_OFFLINE,2022.2.4,59.914083798130804,
0,0,0,1,0,1,0,0,star ,circle,1,0,1,0,1,7,19,10,,,,,,,,,,,,,,,,,,,,,,,,,,,,,,,,,,,,,,,,251.4238479990163,251.4238479990163,251.4238479990163,251.4238479990163,251.4238479990163,251.4238479990163,251.4238479990163,251.4238479990163,251.4238479990163,251.4238479990163,l,0.09292474298854358,10,437,1,251.5406168460031,253.04238016702584,,,,,,,,,,,,,,,,,,,,,,,,,,,,,,,,,,,,,,,,,,,,,,,,,,,,,,,,,,,,,,,,,,,,,,86542,2022-11-15_14h05.40.266,vts_reward_expectancy_bt_OFFLINE,2022.2.4,59.914083798130804,
1,0,0,0,0,0,1,0,triangle,hexagon,1,0,1,0,1,8,20,1,,,,,,,,,,,,,,,,,,,,,,,,,,,,,,,,,,,,,,,,253.542765916005,253.542765916005,253.542765916005,253.542765916005,253.542765916005,253.542765916005,253.542765916005,253.542765916005,253.542765916005,253.542765916005,l,0.06654130399692804,10,447,1,253.62634561400046,255.1279903590039,,,,,,,,,,,,,,,,,,,,,,,,,,,,,,,,,,,,,,,,,,,,,,,,,,,,,,,,,,,,,,,,,,,,,,86542,2022-11-15_14h05.40.266,vts_reward_expectancy_bt_OFFLINE,2022.2.4,59.914083798130804,
0,0,0,1,0,0,1,0,star,hexagon,1,0,1,0,1,9,21,11,,,,,,,,,,,,,,,,,,,,,,,,,,,,,,,,,,,,,,,,255.62864638102474,255.62864638102474,255.62864638102474,255.62864638102474,255.62864638102474,255.62864638102474,255.62864638102474,255.62864638102474,255.62864638102474,255.62864638102474,l,0.10714525598450564,1,448,1,255.7619261900254,257.2636212790094,,,,,,,,,,,,,,,,,,,,,,,,,,,,,,,,,,,,,,,,,,,,,,,,,,,,,,,,,,,,,,,,,,,,,,86542,2022-11-15_14h05.40.266,vts_reward_expectancy_bt_OFFLINE,2022.2.4,59.914083798130804,
0,1,0,0,0,0,1,0,circle,hexagon,1,0,1,0,1,10,22,4,,,,,,,,,,,,,,,,,,,,,,,,,,,,,,,,,,,,,,,,257.76398985402193,257.76398985402193,257.76398985402193,257.76398985402193,257.76398985402193,257.76398985402193,257.76398985402193,257.76398985402193,257.76398985402193,257.76398985402193,a,0.07443895397591405,1,449,1,257.8640915520082,259.3658563530189,,,,,,,,,,,,,,,,,,,,,,,,,,,,,,,,,,,,,,,,,,,,,,,,,,,,,,,,,,,,,,,,,,,,,,86542,2022-11-15_14h05.40.266,vts_reward_expectancy_bt_OFFLINE,2022.2.4,59.914083798130804,
0,0,1,0,1,0,0,0,hexagon,triangle,1,0,1,0,1,11,23,6,,,,,,,,,,,,,,,,,,,,,,,,,,,,,,,,,,,,,,,,259.8664283280086,259.8664283280086,259.8664283280086,259.8664283280086,259.8664283280086,259.8664283280086,259.8664283280086,259.8664283280086,259.8664283280086,259.8664283280086,l,0.24451681500067934,1,450,1,260.1334214810049,261.6351651340083,,,,,,,,,,,,,,,,,,,,,,,,,,,,,,,,,,,,,,,,,,,,,,,,,,,,,,,,,,,,,,,,,,,,,,86542,2022-11-15_14h05.40.266,vts_reward_expectancy_bt_OFFLINE,2022.2.4,59.914083798130804,
1,0,0,0,0,0,0,1,triangle,star,1,0,1,0,2,0,24,2,,,,,,,,,,,,,,,,,,,,,,,,,,,,,,,,,,,,,,,,262.13566920001176,262.13566920001176,262.13566920001176,262.13566920001176,262.13566920001176,262.13566920001176,262.13566920001176,262.13566920001176,262.13566920001176,262.13566920001176,a,0.22574143900419585,10,460,1,262.38593798902,263.88752557500266,,,,,,,,,,,,,,,,,,,,,,,,,,,,,,,,,,,,,,,,,,,,,,,,,,,,,,,,,,,,,,,,,,,,,,86542,2022-11-15_14h05.40.266,vts_reward_expectancy_bt_OFFLINE,2022.2.4,59.914083798130804,
0,0,0,1,0,0,1,0,star,hexagon,1,0,1,0,2,1,25,11,,,,,,,,,,,,,,,,,,,,,,,,,,,,,,,,,,,,,,,,264.3880862520018,264.3880862520018,264.3880862520018,264.3880862520018,264.3880862520018,264.3880862520018,264.3880862520018,264.3880862520018,264.3880862520018,264.3880862520018,a,0.3480389619944617,10,470,1,264.7552059710142,266.2568483490031,,,,,,,,,,,,,,,,,,,,,,,,,,,,,,,,,,,,,,,,,,,,,,,,,,,,,,,,,,,,,,,,,,,,,,86542,2022-11-15_14h05.40.266,vts_reward_expectancy_bt_OFFLINE,2022.2.4,59.914083798130804,
0,0,0,1,1,0,0,0,star,triangle,1,0,1,0,2,2,26,9,,,,,,,,,,,,,,,,,,,,,,,,,,,,,,,,,,,,,,,,266.75739518299815,266.75739518299815,266.75739518299815,266.75739518299815,266.75739518299815,266.75739518299815,266.75739518299815,266.75739518299815,266.75739518299815,266.75739518299815,a,0.273381499981042,10,480,1,267.05771935600205,268.5593800320057,,,,,,,,,,,,,,,,,,,,,,,,,,,,,,,,,,,,,,,,,,,,,,,,,,,,,,,,,,,,,,,,,,,,,,86542,2022-11-15_14h05.40.266,vts_reward_expectancy_bt_OFFLINE,2022.2.4,59.914083798130804,
0,1,0,0,0,0,1,0,circle,hexagon,1,0,1,0,2,3,27,4,,,,,,,,,,,,,,,,,,,,,,,,,,,,,,,,,,,,,,,,269.05984545100364,269.05984545100364,269.05984545100364,269.05984545100364,269.05984545100364,269.05984545100364,269.05984545100364,269.05984545100364,269.05984545100364,269.05984545100364,l,0.2330726619984489,1,481,1,269.3102261360036,270.81204056102433,,,,,,,,,,,,,,,,,,,,,,,,,,,,,,,,,,,,,,,,,,,,,,,,,,,,,,,,,,,,,,,,,,,,,,86542,2022-11-15_14h05.40.266,vts_reward_expectancy_bt_OFFLINE,2022.2.4,59.914083798130804,
0,1,0,0,1,0,0,0,circle,triangle,1,0,1,0,2,4,28,3,,,,,,,,,,,,,,,,,,,,,,,,,,,,,,,,,,,,,,,,271.31241763100843,271.31241763100843,271.31241763100843,271.31241763100843,271.31241763100843,271.31241763100843,271.31241763100843,271.31241763100843,271.31241763100843,271.31241763100843,a,0.28610664000734687,10,491,1,271.6292254370055,273.13102075801,,,,,,,,,,,,,,,,,,,,,,,,,,,,,,,,,,,,,,,,,,,,,,,,,,,,,,,,,,,,,,,,,,,,,,86542,2022-11-15_14h05.40.266,vts_reward_expectancy_bt_OFFLINE,2022.2.4,59.914083798130804,
0,0,1,0,0,1,0,0,hexagon,circle,1,0,1,0,2,5,29,7,,,,,,,,,,,,,,,,,,,,,,,,,,,,,,,,,,,,,,,,273.6314956420101,273.6314956420101,273.6314956420101,273.6314956420101,273.6314956420101,273.6314956420101,273.6314956420101,273.6314956420101,273.6314956420101,273.6314956420101,l,0.015283108979929239,1,492,1,273.6648807900201,275.16665123801795,,,,,,,,,,,,,,,,,,,,,,,,,,,,,,,,,,,,,,,,,,,,,,,,,,,,,,,,,,,,,,,,,,,,,,86542,2022-11-15_14h05.40.266,vts_reward_expectancy_bt_OFFLINE,2022.2.4,59.914083798130804,
0,0,0,1,0,1,0,0,star ,circle,1,0,1,0,2,6,30,10,,,,,,,,,,,,,,,,,,,,,,,,,,,,,,,,,,,,,,,,275.66699722301564,275.66699722301564,275.66699722301564,275.66699722301564,275.66699722301564,275.66699722301564,275.66699722301564,275.66699722301564,275.66699722301564,275.66699722301564,a,0.37459191397647373,1,493,1,276.0672576990037,277.5693307540205,,,,,,,,,,,,,,,,,,,,,,,,,,,,,,,,,,,,,,,,,,,,,,,,,,,,,,,,,,,,,,,,,,,,,,86542,2022-11-15_14h05.40.266,vts_reward_expectancy_bt_OFFLINE,2022.2.4,59.914083798130804,
1,0,0,0,0,0,1,0,triangle,hexagon,1,0,1,0,2,7,31,1,,,,,,,,,,,,,,,,,,,,,,,,,,,,,,,,,,,,,,,,278.0701244450174,278.0701244450174,278.0701244450174,278.0701244450174,278.0701244450174,278.0701244450174,278.0701244450174,278.0701244450174,278.0701244450174,278.0701244450174,l,0.6377684040053282,1,494,1,278.73721544700675,280.238891075016,,,,,,,,,,,,,,,,,,,,,,,,,,,,,,,,,,,,,,,,,,,,,,,,,,,,,,,,,,,,,,,,,,,,,,86542,2022-11-15_14h05.40.266,vts_reward_expectancy_bt_OFFLINE,2022.2.4,59.914083798130804,
0,0,1,0,0,0,0,1,hexagon,star,1,0,1,0,2,8,32,8,,,,,,,,,,,,,,,,,,,,,,,,,,,,,,,,,,,,,,,,280.73943568899995,280.73943568899995,280.73943568899995,280.73943568899995,280.73943568899995,280.73943568899995,280.73943568899995,280.73943568899995,280.73943568899995,280.73943568899995,l,0.11848371001542546,10,504,1,280.8896401009988,282.39129511101055,,,,,,,,,,,,,,,,,,,,,,,,,,,,,,,,,,,,,,,,,,,,,,,,,,,,,,,,,,,,,,,,,,,,,,86542,2022-11-15_14h05.40.266,vts_reward_expectancy_bt_OFFLINE,2022.2.4,59.914083798130804,
0,0,1,0,1,0,0,0,hexagon,triangle,1,0,1,0,2,9,33,6,,,,,,,,,,,,,,,,,,,,,,,,,,,,,,,,,,,,,,,,282.8917478680087,282.8917478680087,282.8917478680087,282.8917478680087,282.8917478680087,282.8917478680087,282.8917478680087,282.8917478680087,282.8917478680087,282.8917478680087,l,0.14927373599493876,10,514,1,283.05866428502486,284.5602670710068,,,,,,,,,,,,,,,,,,,,,,,,,,,,,,,,,,,,,,,,,,,,,,,,,,,,,,,,,,,,,,,,,,,,,,86542,2022-11-15_14h05.40.266,vts_reward_expectancy_bt_OFFLINE,2022.2.4,59.914083798130804,
1,0,0,0,0,1,0,0,triangle,circle,1,0,1,0,2,10,34,0,,,,,,,,,,,,,,,,,,,,,,,,,,,,,,,,,,,,,,,,285.0610240100068,285.0610240100068,285.0610240100068,285.0610240100068,285.0610240100068,285.0610240100068,285.0610240100068,285.0610240100068,285.0610240100068,285.0610240100068,l,0.0595150800072588,10,524,1,285.14431187399896,286.64595008900505,,,,,,,,,,,,,,,,,,,,,,,,,,,,,,,,,,,,,,,,,,,,,,,,,,,,,,,,,,,,,,,,,,,,,,86542,2022-11-15_14h05.40.266,vts_reward_expectancy_bt_OFFLINE,2022.2.4,59.914083798130804,
0,1,0,0,0,0,0,1,circle,star,1,0,1,0,2,11,35,5,,,,,,,,,,,,,,,,,,,,,,,,,,,,,,,,,,,,,,,,287.14646407801774,287.14646407801774,287.14646407801774,287.14646407801774,287.14646407801774,287.14646407801774,287.14646407801774,287.14646407801774,287.14646407801774,287.14646407801774,a,0.30300613699364476,10,534,1,287.480150295014,288.9818019250233,,,,,,,,,,,,,,,,,,,,,,,,,,,,,,,,,,,,,,,,,,,,,,,,,,,,,,,,,,,,,,,,,,,,,,86542,2022-11-15_14h05.40.266,vts_reward_expectancy_bt_OFFLINE,2022.2.4,59.914083798130804,
0,0,1,0,0,0,0,1,hexagon,star,1,0,1,0,3,0,36,8,,,,,,,,,,,,,,,,,,,,,,,,,,,,,,,,,,,,,,,,289.4824420470104,289.4824420470104,289.4824420470104,289.4824420470104,289.4824420470104,289.4824420470104,289.4824420470104,289.4824420470104,289.4824420470104,289.4824420470104,l,0.15090447099646553,10,544,1,289.6658498040051,291.16753235901706,,,,,,,,,,,,,,,,,,,,,,,,,,,,,,,,,,,,,,,,,,,,,,,,,,,,,,,,,,,,,,,,,,,,,,86542,2022-11-15_14h05.40.266,vts_reward_expectancy_bt_OFFLINE,2022.2.4,59.914083798130804,
1,0,0,0,0,0,1,0,triangle,hexagon,1,0,1,0,3,1,37,1,,,,,,,,,,,,,,,,,,,,,,,,,,,,,,,,,,,,,,,,291.6681491690106,291.6681491690106,291.6681491690106,291.6681491690106,291.6681491690106,291.6681491690106,291.6681491690106,291.6681491690106,291.6681491690106,291.6681491690106,l,0.07934098297846504,10,554,1,291.76819077902474,293.2698598600109,,,,,,,,,,,,,,,,,,,,,,,,,,,,,,,,,,,,,,,,,,,,,,,,,,,,,,,,,,,,,,,,,,,,,,86542,2022-11-15_14h05.40.266,vts_reward_expectancy_bt_OFFLINE,2022.2.4,59.914083798130804,
1,0,0,0,0,0,0,1,triangle,star,1,0,1,0,3,2,38,2,,,,,,,,,,,,,,,,,,,,,,,,,,,,,,,,,,,,,,,,293.77043365401914,293.77043365401914,293.77043365401914,293.77043365401914,293.77043365401914,293.77043365401914,293.77043365401914,293.77043365401914,293.77043365401914,293.77043365401914,a,0.013531967997550964,10,564,1,293.8038801650109,295.3054488830094,,,,,,,,,,,,,,,,,,,,,,,,,,,,,,,,,,,,,,,,,,,,,,,,,,,,,,,,,,,,,,,,,,,,,,86542,2022-11-15_14h05.40.266,vts_reward_expectancy_bt_OFFLINE,2022.2.4,59.914083798130804,
0,0,0,1,0,0,1,0,star,hexagon,1,0,1,0,3,3,39,11,,,,,,,,,,,,,,,,,,,,,,,,,,,,,,,,,,,,,,,,295.80597036800464,295.80597036800464,295.80597036800464,295.80597036800464,295.80597036800464,295.80597036800464,295.80597036800464,295.80597036800464,295.80597036800464,295.80597036800464,l,1.061416004988132,1,565,1,296.89066837501014,298.39221795302,,,,,,,,,,,,,,,,,,,,,,,,,,,,,,,,,,,,,,,,,,,,,,,,,,,,,,,,,,,,,,,,,,,,,,86542,2022-11-15_14h05.40.266,vts_reward_expectancy_bt_OFFLINE,2022.2.4,59.914083798130804,
1,0,0,0,0,1,0,0,triangle,circle,1,0,1,0,3,4,40,0,,,,,,,,,,,,,,,,,,,,,,,,,,,,,,,,,,,,,,,,298.8927076780237,298.8927076780237,298.8927076780237,298.8927076780237,298.8927076780237,298.8927076780237,298.8927076780237,298.8927076780237,298.8927076780237,298.8927076780237,a,0.5390617349767126,10,575,1,299.45997426702525,300.9616537130205,,,,,,,,,,,,,,,,,,,,,,,,,,,,,,,,,,,,,,,,,,,,,,,,,,,,,,,,,,,,,,,,,,,,,,86542,2022-11-15_14h05.40.266,vts_reward_expectancy_bt_OFFLINE,2022.2.4,59.914083798130804,
0,0,0,1,0,1,0,0,star ,circle,1,0,1,0,3,5,41,10,,,,,,,,,,,,,,,,,,,,,,,,,,,,,,,,,,,,,,,,301.4623650390131,301.4623650390131,301.4623650390131,301.4623650390131,301.4623650390131,301.4623650390131,301.4623650390131,301.4623650390131,301.4623650390131,301.4623650390131,a,0.15215195599012077,10,585,1,301.6458736010245,303.1475821080094,,,,,,,,,,,,,,,,,,,,,,,,,,,,,,,,,,,,,,,,,,,,,,,,,,,,,,,,,,,,,,,,,,,,,,86542,2022-11-15_14h05.40.266,vts_reward_expectancy_bt_OFFLINE,2022.2.4,59.914083798130804,
0,0,1,0,1,0,0,0,hexagon,triangle,1,0,1,0,3,6,42,6,,,,,,,,,,,,,,,,,,,,,,,,,,,,,,,,,,,,,,,,303.64803581600427,303.64803581600427,303.64803581600427,303.64803581600427,303.64803581600427,303.64803581600427,303.64803581600427,303.64803581600427,303.64803581600427,303.64803581600427,l,0.3289446140115615,10,595,1,303.9985935720033,305.50023690701346,,,,,,,,,,,,,,,,,,,,,,,,,,,,,,,,,,,,,,,,,,,,,,,,,,,,,,,,,,,,,,,,,,,,,,86542,2022-11-15_14h05.40.266,vts_reward_expectancy_bt_OFFLINE,2022.2.4,59.914083798130804,
0,1,0,0,0,0,0,1,circle,star,1,0,1,0,3,7,43,5,,,,,,,,,,,,,,,,,,,,,,,,,,,,,,,,,,,,,,,,306.00076094901306,306.00076094901306,306.00076094901306,306.00076094901306,306.00076094901306,306.00076094901306,306.00076094901306,306.00076094901306,306.00076094901306,306.00076094901306,a,0.14842779200989753,10,605,1,306.1675022340205,307.66936516200076,,,,,,,,,,,,,,,,,,,,,,,,,,,,,,,,,,,,,,,,,,,,,,,,,,,,,,,,,,,,,,,,,,,,,,86542,2022-11-15_14h05.40.266,vts_reward_expectancy_bt_OFFLINE,2022.2.4,59.914083798130804,
0,1,0,0,1,0,0,0,circle,triangle,1,0,1,0,3,8,44,3,,,,,,,,,,,,,,,,,,,,,,,,,,,,,,,,,,,,,,,,308.1697004529997,308.1697004529997,308.1697004529997,308.1697004529997,308.1697004529997,308.1697004529997,308.1697004529997,308.1697004529997,308.1697004529997,308.1697004529997,l,0.09323882299941033,1,606,1,308.2865920490003,309.7882650240208,,,,,,,,,,,,,,,,,,,,,,,,,,,,,,,,,,,,,,,,,,,,,,,,,,,,,,,,,,,,,,,,,,,,,,86542,2022-11-15_14h05.40.266,vts_reward_expectancy_bt_OFFLINE,2022.2.4,59.914083798130804,
0,1,0,0,0,0,1,0,circle,hexagon,1,0,1,0,3,9,45,4,,,,,,,,,,,,,,,,,,,,,,,,,,,,,,,,,,,,,,,,310.28866193900467,310.28866193900467,310.28866193900467,310.28866193900467,310.28866193900467,310.28866193900467,310.28866193900467,310.28866193900467,310.28866193900467,310.28866193900467,a,0.23604566298308782,1,607,1,310.55580966800335,312.0573386470205,,,,,,,,,,,,,,,,,,,,,,,,,,,,,,,,,,,,,,,,,,,,,,,,,,,,,,,,,,,,,,,,,,,,,,86542,2022-11-15_14h05.40.266,vts_reward_expectancy_bt_OFFLINE,2022.2.4,59.914083798130804,
0,0,1,0,0,1,0,0,hexagon,circle,1,0,1,0,3,10,46,7,,,,,,,,,,,,,,,,,,,,,,,,,,,,,,,,,,,,,,,,312.55784766800934,312.55784766800934,312.55784766800934,312.55784766800934,312.55784766800934,312.55784766800934,312.55784766800934,312.55784766800934,312.55784766800934,312.55784766800934,l,0.11580075399251655,10,617,1,312.69138562702574,314.1930073950207,,,,,,,,,,,,,,,,,,,,,,,,,,,,,,,,,,,,,,,,,,,,,,,,,,,,,,,,,,,,,,,,,,,,,,86542,2022-11-15_14h05.40.266,vts_reward_expectancy_bt_OFFLINE,2022.2.4,59.914083798130804,
0,0,0,1,1,0,0,0,star,triangle,1,0,1,0,3,11,47,9,,,,,,,,,,,,,,,,,,,,,,,,,,,,,,,,,,,,,,,,314.69350725301774,314.69350725301774,314.69350725301774,314.69350725301774,314.69350725301774,314.69350725301774,314.69350725301774,314.69350725301774,314.69350725301774,314.69350725301774,l,0.2739592959987931,1,618,1,314.9939098280156,316.4954820999992,,,,,,,,,,,,,,,,,,,,,,,,,,,,,,,,,,,,,,,,,,,,,,,,,,,,,,,,,,,,,,,,,,,,,,86542,2022-11-15_14h05.40.266,vts_reward_expectancy_bt_OFFLINE,2022.2.4,59.914083798130804,
0,1,0,0,1,0,0,0,circle,triangle,2,0,2,0,0,0,0,3,,,,,,,,,,,,,,,,,,,,,,,,,,,,,,,,,,,,,,,,328.2675220980018,328.2675220980018,328.2675220980018,328.2675220980018,328.2675220980018,328.2675220980018,328.2675220980018,328.2675220980018,328.2675220980018,328.2675220980018,l,0.9326189389976207,10,628,2,329.22588218702003,330.72794710702146,,,,,,,,,,,,,,,,,,,,,,,,,,,,,,,,,,,,,,,,,,,,,,,,,,,,,,,,,,,,,,,,,,,,,,86542,2022-11-15_14h05.40.266,vts_reward_expectancy_bt_OFFLINE,2022.2.4,59.914083798130804,
0,0,1,0,1,0,0,0,hexagon,triangle,2,0,2,0,0,1,1,6,,,,,,,,,,,,,,,,,,,,,,,,,,,,,,,,,,,,,,,,331.22862862300826,331.22862862300826,331.22862862300826,331.22862862300826,331.22862862300826,331.22862862300826,331.22862862300826,331.22862862300826,331.22862862300826,331.22862862300826,l,0.4460042220016476,10,638,2,331.69556797502446,333.1972884720017,,,,,,,,,,,,,,,,,,,,,,,,,,,,,,,,,,,,,,,,,,,,,,,,,,,,,,,,,,,,,,,,,,,,,,86542,2022-11-15_14h05.40.266,vts_reward_expectancy_bt_OFFLINE,2022.2.4,59.914083798130804,
0,0,0,1,1,0,0,0,star,triangle,2,0,2,0,0,2,2,9,,,,,,,,,,,,,,,,,,,,,,,,,,,,,,,,,,,,,,,,333.6978299260081,333.6978299260081,333.6978299260081,333.6978299260081,333.6978299260081,333.6978299260081,333.6978299260081,333.6978299260081,333.6978299260081,333.6978299260081,l,0.03572303999681026,10,648,2,333.7646540370188,335.266386162024,,,,,,,,,,,,,,,,,,,,,,,,,,,,,,,,,,,,,,,,,,,,,,,,,,,,,,,,,,,,,,,,,,,,,,86542,2022-11-15_14h05.40.266,vts_reward_expectancy_bt_OFFLINE,2022.2.4,59.914083798130804,
0,0,0,1,0,1,0,0,star ,circle,2,0,2,0,0,3,3,10,,,,,,,,,,,,,,,,,,,,,,,,,,,,,,,,,,,,,,,,335.76688327401644,335.76688327401644,335.76688327401644,335.76688327401644,335.76688327401644,335.76688327401644,335.76688327401644,335.76688327401644,335.76688327401644,335.76688327401644,l,0.16048668898292817,1,649,2,335.95031784599996,337.45200089900754,,,,,,,,,,,,,,,,,,,,,,,,,,,,,,,,,,,,,,,,,,,,,,,,,,,,,,,,,,,,,,,,,,,,,,86542,2022-11-15_14h05.40.266,vts_reward_expectancy_bt_OFFLINE,2022.2.4,59.914083798130804,
0,1,0,0,0,0,1,0,circle,hexagon,2,0,2,0,0,4,4,4,,,,,,,,,,,,,,,,,,,,,,,,,,,,,,,,,,,,,,,,337.95261669901083,337.95261669901083,337.95261669901083,337.95261669901083,337.95261669901083,337.95261669901083,337.95261669901083,337.95261669901083,337.95261669901083,337.95261669901083,a,0.1578755129885394,1,650,2,338.13532621602644,339.63785034700413,,,,,,,,,,,,,,,,,,,,,,,,,,,,,,,,,,,,,,,,,,,,,,,,,,,,,,,,,,,,,,,,,,,,,,86542,2022-11-15_14h05.40.266,vts_reward_expectancy_bt_OFFLINE,2022.2.4,59.914083798130804,
0,1,0,0,0,0,0,1,circle,star,2,0,2,0,0,5,5,5,,,,,,,,,,,,,,,,,,,,,,,,,,,,,,,,,,,,,,,,340.1382931469998,340.1382931469998,340.1382931469998,340.1382931469998,340.1382931469998,340.1382931469998,340.1382931469998,340.1382931469998,340.1382931469998,340.1382931469998,l,0.05268118099775165,10,660,2,340.2218578630127,341.7233872170036,,,,,,,,,,,,,,,,,,,,,,,,,,,,,,,,,,,,,,,,,,,,,,,,,,,,,,,,,,,,,,,,,,,,,,86542,2022-11-15_14h05.40.266,vts_reward_expectancy_bt_OFFLINE,2022.2.4,59.914083798130804,
0,0,0,1,0,0,1,0,star,hexagon,2,0,2,0,0,6,6,11,,,,,,,,,,,,,,,,,,,,,,,,,,,,,,,,,,,,,,,,342.22400076000486,342.22400076000486,342.22400076000486,342.22400076000486,342.22400076000486,342.22400076000486,342.22400076000486,342.22400076000486,342.22400076000486,342.22400076000486,l,0.16101228099432774,1,661,2,342.4075268160086,343.9091172340268,,,,,,,,,,,,,,,,,,,,,,,,,,,,,,,,,,,,,,,,,,,,,,,,,,,,,,,,,,,,,,,,,,,,,,86542,2022-11-15_14h05.40.266,vts_reward_expectancy_bt_OFFLINE,2022.2.4,59.914083798130804,
0,0,1,0,0,1,0,0,hexagon,circle,2,0,2,0,0,7,7,7,,,,,,,,,,,,,,,,,,,,,,,,,,,,,,,,,,,,,,,,344.4097182730038,344.4097182730038,344.4097182730038,344.4097182730038,344.4097182730038,344.4097182730038,344.4097182730038,344.4097182730038,344.4097182730038,344.4097182730038,a,0.04655956698115915,10,671,2,344.4764294400229,345.9781336800079,,,,,,,,,,,,,,,,,,,,,,,,,,,,,,,,,,,,,,,,,,,,,,,,,,,,,,,,,,,,,,,,,,,,,,86542,2022-11-15_14h05.40.266,vts_reward_expectancy_bt_OFFLINE,2022.2.4,59.914083798130804,
0,0,1,0,0,0,0,1,hexagon,star,2,0,2,0,0,8,8,8,,,,,,,,,,,,,,,,,,,,,,,,,,,,,,,,,,,,,,,,346.47877613900346,346.47877613900346,346.47877613900346,346.47877613900346,346.47877613900346,346.47877613900346,346.47877613900346,346.47877613900346,346.47877613900346,346.47877613900346,a,0.26076741400174797,1,672,2,346.76216527001816,348.2638388790074,,,,,,,,,,,,,,,,,,,,,,,,,,,,,,,,,,,,,,,,,,,,,,,,,,,,,,,,,,,,,,,,,,,,,,86542,2022-11-15_14h05.40.266,vts_reward_expectancy_bt_OFFLINE,2022.2.4,59.914083798130804,
1,0,0,0,0,0,0,1,triangle,star,2,0,2,0,0,9,9,2,,,,,,,,,,,,,,,,,,,,,,,,,,,,,,,,,,,,,,,,348.7644163100049,348.7644163100049,348.7644163100049,348.7644163100049,348.7644163100049,348.7644163100049,348.7644163100049,348.7644163100049,348.7644163100049,348.7644163100049,a,0.40424552001059055,1,673,2,349.19813878901186,350.69984119202127,,,,,,,,,,,,,,,,,,,,,,,,,,,,,,,,,,,,,,,,,,,,,,,,,,,,,,,,,,,,,,,,,,,,,,86542,2022-11-15_14h05.40.266,vts_reward_expectancy_bt_OFFLINE,2022.2.4,59.914083798130804,
1,0,0,0,0,1,0,0,triangle,circle,2,0,2,0,0,10,10,0,,,,,,,,,,,,,,,,,,,,,,,,,,,,,,,,,,,,,,,,351.2003573840193,351.2003573840193,351.2003573840193,351.2003573840193,351.2003573840193,351.2003573840193,351.2003573840193,351.2003573840193,351.2003573840193,351.2003573840193,l,0.3201239719928708,10,683,2,351.55094311002176,353.05253866899875,353.05253866899875,353.55320459100767,,,,,,,,,,,,,,,,,,,,,,,,,,,,,,,,,,,,,,,,,,,,,,,,,,,,,,,,,,,,,,,,,,,,86542,2022-11-15_14h05.40.266,vts_reward_expectancy_bt_OFFLINE,2022.2.4,59.914083798130804,
1,0,0,0,0,0,1,0,triangle,hexagon,2,0,2,0,0,11,11,1,,,,,,,,,,,,,,,,,,,,,,,,,,,,,,,,,,,,,,,,353.55320459100767,353.55320459100767,353.55320459100767,353.55320459100767,353.55320459100767,353.55320459100767,353.55320459100767,353.55320459100767,353.55320459100767,353.55320459100767,a,0.3080396850127727,10,693,2,353.887810647022,355.3884917460091,,,,,,,,,,,,,,,,,,,,,,,,,,,,,,,,,,,,,,,,,,,,,,,,,,,,,,,,,,,,,,,,,,,,,,86542,2022-11-15_14h05.40.266,vts_reward_expectancy_bt_OFFLINE,2022.2.4,59.914083798130804,
1,0,0,0,0,0,1,0,triangle,hexagon,2,0,2,0,1,0,12,1,,,,,,,,,,,,,,,,,,,,,,,,,,,,,,,,,,,,,,,,355.88907758600544,355.88907758600544,355.88907758600544,355.88907758600544,355.88907758600544,355.88907758600544,355.88907758600544,355.88907758600544,355.88907758600544,355.88907758600544,a,0.30056583098485135,10,703,2,356.20665820801514,357.7076340110216,,,,,,,,,,,,,,,,,,,,,,,,,,,,,,,,,,,,,,,,,,,,,,,,,,,,,,,,,,,,,,,,,,,,,,86542,2022-11-15_14h05.40.266,vts_reward_expectancy_bt_OFFLINE,2022.2.4,59.914083798130804,
0,0,0,1,0,1,0,0,star ,circle,2,0,2,0,1,1,13,10,,,,,,,,,,,,,,,,,,,,,,,,,,,,,,,,,,,,,,,,358.20823256400763,358.20823256400763,358.20823256400763,358.20823256400763,358.20823256400763,358.20823256400763,358.20823256400763,358.20823256400763,358.20823256400763,358.20823256400763,l,0.30009145999792963,10,713,2,358.525736547017,360.0268607060134,,,,,,,,,,,,,,,,,,,,,,,,,,,,,,,,,,,,,,,,,,,,,,,,,,,,,,,,,,,,,,,,,,,,,,86542,2022-11-15_14h05.40.266,vts_reward_expectancy_bt_OFFLINE,2022.2.4,59.914083798130804,
0,0,1,0,1,0,0,0,hexagon,triangle,2,0,2,0,1,2,14,6,,,,,,,,,,,,,,,,,,,,,,,,,,,,,,,,,,,,,,,,360.5273117580218,360.5273117580218,360.5273117580218,360.5273117580218,360.5273117580218,360.5273117580218,360.5273117580218,360.5273117580218,360.5273117580218,360.5273117580218,a,0.24152078098268248,10,723,2,360.795448719,362.29600448400015,,,,,,,,,,,,,,,,,,,,,,,,,,,,,,,,,,,,,,,,,,,,,,,,,,,,,,,,,,,,,,,,,,,,,,86542,2022-11-15_14h05.40.266,vts_reward_expectancy_bt_OFFLINE,2022.2.4,59.914083798130804,
0,1,0,0,1,0,0,0,circle,triangle,2,0,2,0,1,3,15,3,,,,,,,,,,,,,,,,,,,,,,,,,,,,,,,,,,,,,,,,362.79653986301855,362.79653986301855,362.79653986301855,362.79653986301855,362.79653986301855,362.79653986301855,362.79653986301855,362.79653986301855,362.79653986301855,362.79653986301855,a,0.24461838998831809,10,733,2,363.06468027899973,364.5651910860033,,,,,,,,,,,,,,,,,,,,,,,,,,,,,,,,,,,,,,,,,,,,,,,,,,,,,,,,,,,,,,,,,,,,,,86542,2022-11-15_14h05.40.266,vts_reward_expectancy_bt_OFFLINE,2022.2.4,59.914083798130804,
0,0,0,1,1,0,0,0,star,triangle,2,0,2,0,1,4,16,9,,,,,,,,,,,,,,,,,,,,,,,,,,,,,,,,,,,,,,,,365.06573175801896,365.06573175801896,365.06573175801896,365.06573175801896,365.06573175801896,365.06573175801896,365.06573175801896,365.06573175801896,365.06573175801896,365.06573175801896,a,0.15793633999419399,1,734,2,365.25209821300814,366.7509006290056,,,,,,,,,,,,,,,,,,,,,,,,,,,,,,,,,,,,,,,,,,,,,,,,,,,,,,,,,,,,,,,,,,,,,,86542,2022-11-15_14h05.40.266,vts_reward_expectancy_bt_OFFLINE,2022.2.4,59.914083798130804,
0,1,0,0,0,0,1,0,circle,hexagon,2,0,2,0,1,5,17,4,,,,,,,,,,,,,,,,,,,,,,,,,,,,,,,,,,,,,,,,367.25150054402184,367.25150054402184,367.25150054402184,367.25150054402184,367.25150054402184,367.25150054402184,367.25150054402184,367.25150054402184,367.25150054402184,367.25150054402184,a,0.2105419889849145,10,744,2,367.4849713870208,368.98667691802257,,,,,,,,,,,,,,,,,,,,,,,,,,,,,,,,,,,,,,,,,,,,,,,,,,,,,,,,,,,,,,,,,,,,,,86542,2022-11-15_14h05.40.266,vts_reward_expectancy_bt_OFFLINE,2022.2.4,59.914083798130804,
1,0,0,0,0,0,0,1,triangle,star,2,0,2,0,1,6,18,2,,,,,,,,,,,,,,,,,,,,,,,,,,,,,,,,,,,,,,,,369.4872521870129,369.4872521870129,369.4872521870129,369.4872521870129,369.4872521870129,369.4872521870129,369.4872521870129,369.4872521870129,369.4872521870129,369.4872521870129,a,0.31636137497844175,1,745,2,369.82102134500747,371.32263630302623,,,,,,,,,,,,,,,,,,,,,,,,,,,,,,,,,,,,,,,,,,,,,,,,,,,,,,,,,,,,,,,,,,,,,,86542,2022-11-15_14h05.40.266,vts_reward_expectancy_bt_OFFLINE,2022.2.4,59.914083798130804,
1,0,0,0,0,1,0,0,triangle,circle,2,0,2,0,1,7,19,0,,,,,,,,,,,,,,,,,,,,,,,,,,,,,,,,,,,,,,,,371.82332397802384,371.82332397802384,371.82332397802384,371.82332397802384,371.82332397802384,371.82332397802384,371.82332397802384,371.82332397802384,371.82332397802384,371.82332397802384,a,0.2964625939785037,1,746,2,372.14040182100143,373.64193967700703,,,,,,,,,,,,,,,,,,,,,,,,,,,,,,,,,,,,,,,,,,,,,,,,,,,,,,,,,,,,,,,,,,,,,,86542,2022-11-15_14h05.40.266,vts_reward_expectancy_bt_OFFLINE,2022.2.4,59.914083798130804,
0,0,1,0,0,1,0,0,hexagon,circle,2,0,2,0,1,8,20,7,,,,,,,,,,,,,,,,,,,,,,,,,,,,,,,,,,,,,,,,374.14239436702337,374.14239436702337,374.14239436702337,374.14239436702337,374.14239436702337,374.14239436702337,374.14239436702337,374.14239436702337,374.14239436702337,374.14239436702337,a,0.2610779359820299,1,747,2,374.4275747400243,375.92773646101705,,,,,,,,,,,,,,,,,,,,,,,,,,,,,,,,,,,,,,,,,,,,,,,,,,,,,,,,,,,,,,,,,,,,,,86542,2022-11-15_14h05.40.266,vts_reward_expectancy_bt_OFFLINE,2022.2.4,59.914083798130804,
0,0,1,0,0,0,0,1,hexagon,star,2,0,2,0,1,9,21,8,,,,,,,,,,,,,,,,,,,,,,,,,,,,,,,,,,,,,,,,376.4283694620244,376.4283694620244,376.4283694620244,376.4283694620244,376.4283694620244,376.4283694620244,376.4283694620244,376.4283694620244,376.4283694620244,376.4283694620244,l,0.3171000439906493,1,748,2,376.7634467090247,378.26366163400235,,,,,,,,,,,,,,,,,,,,,,,,,,,,,,,,,,,,,,,,,,,,,,,,,,,,,,,,,,,,,,,,,,,,,,86542,2022-11-15_14h05.40.266,vts_reward_expectancy_bt_OFFLINE,2022.2.4,59.914083798130804,
0,1,0,0,0,0,0,1,circle,star,2,0,2,0,1,10,22,5,,,,,,,,,,,,,,,,,,,,,,,,,,,,,,,,,,,,,,,,378.7641593890148,378.7641593890148,378.7641593890148,378.7641593890148,378.7641593890148,378.7641593890148,378.7641593890148,378.7641593890148,378.7641593890148,378.7641593890148,l,0.263473223982146,10,758,2,379.0502848730248,380.5495999630075,,,,,,,,,,,,,,,,,,,,,,,,,,,,,,,,,,,,,,,,,,,,,,,,,,,,,,,,,,,,,,,,,,,,,,86542,2022-11-15_14h05.40.266,vts_reward_expectancy_bt_OFFLINE,2022.2.4,59.914083798130804,
0,0,0,1,0,0,1,0,star,hexagon,2,0,2,0,1,11,23,11,,,,,,,,,,,,,,,,,,,,,,,,,,,,,,,,,,,,,,,,381.0502217390167,381.0502217390167,381.0502217390167,381.0502217390167,381.0502217390167,381.0502217390167,381.0502217390167,381.0502217390167,381.0502217390167,381.0502217390167,a,0.2618648539937567,10,768,2,381.33375034300843,382.835453022999,,,,,,,,,,,,,,,,,,,,,,,,,,,,,,,,,,,,,,,,,,,,,,,,,,,,,,,,,,,,,,,,,,,,,,86542,2022-11-15_14h05.40.266,vts_reward_expectancy_bt_OFFLINE,2022.2.4,59.914083798130804,
0,1,0,0,0,0,0,1,circle,star,2,0,2,0,2,0,24,5,,,,,,,,,,,,,,,,,,,,,,,,,,,,,,,,,,,,,,,,383.3358872740064,383.3358872740064,383.3358872740064,383.3358872740064,383.3358872740064,383.3358872740064,383.3358872740064,383.3358872740064,383.3358872740064,383.3358872740064,l,0.2934038629755378,1,769,2,383.6556878830015,385.1546102610009,,,,,,,,,,,,,,,,,,,,,,,,,,,,,,,,,,,,,,,,,,,,,,,,,,,,,,,,,,,,,,,,,,,,,,86542,2022-11-15_14h05.40.266,vts_reward_expectancy_bt_OFFLINE,2022.2.4,59.914083798130804,
0,0,1,0,0,0,0,1,hexagon,star,2,0,2,0,2,1,25,8,,,,,,,,,,,,,,,,,,,,,,,,,,,,,,,,,,,,,,,,385.65515166701516,385.65515166701516,385.65515166701516,385.65515166701516,385.65515166701516,385.65515166701516,385.65515166701516,385.65515166701516,385.65515166701516,385.65515166701516,l,0.49348149698926136,10,779,2,386.17402347401367,387.6742919520184,,,,,,,,,,,,,,,,,,,,,,,,,,,,,,,,,,,,,,,,,,,,,,,,,,,,,,,,,,,,,,,,,,,,,,86542,2022-11-15_14h05.40.266,vts_reward_expectancy_bt_OFFLINE,2022.2.4,59.914083798130804,
1,0,0,0,0,0,0,1,triangle,star,2,0,2,0,2,2,26,2,,,,,,,,,,,,,,,,,,,,,,,,,,,,,,,,,,,,,,,,388.1745946840092,388.1745946840092,388.1745946840092,388.1745946840092,388.1745946840092,388.1745946840092,388.1745946840092,388.1745946840092,388.1745946840092,388.1745946840092,a,0.4505192959913984,10,789,2,388.64189134101616,390.14354993900633,,,,,,,,,,,,,,,,,,,,,,,,,,,,,,,,,,,,,,,,,,,,,,,,,,,,,,,,,,,,,,,,,,,,,,86542,2022-11-15_14h05.40.266,vts_reward_expectancy_bt_OFFLINE,2022.2.4,59.914083798130804,
1,0,0,0,0,1,0,0,triangle,circle,2,0,2,0,2,3,27,0,,,,,,,,,,,,,,,,,,,,,,,,,,,,,,,,,,,,,,,,390.6439612969989,390.6439612969989,390.6439612969989,390.6439612969989,390.6439612969989,390.6439612969989,390.6439612969989,390.6439612969989,390.6439612969989,390.6439612969989,l,0.2750355629832484,10,799,2,390.9451798030059,392.4460237020103,,,,,,,,,,,,,,,,,,,,,,,,,,,,,,,,,,,,,,,,,,,,,,,,,,,,,,,,,,,,,,,,,,,,,,86542,2022-11-15_14h05.40.266,vts_reward_expectancy_bt_OFFLINE,2022.2.4,59.914083798130804,
0,0,1,0,0,1,0,0,hexagon,circle,2,0,2,0,2,4,28,7,,,,,,,,,,,,,,,,,,,,,,,,,,,,,,,,,,,,,,,,392.946570516011,392.946570516011,392.946570516011,392.946570516011,392.946570516011,392.946570516011,392.946570516011,392.946570516011,392.946570516011,392.946570516011,a,0.21110482298536226,1,800,2,393.18260579401976,394.6819818150252,,,,,,,,,,,,,,,,,,,,,,,,,,,,,,,,,,,,,,,,,,,,,,,,,,,,,,,,,,,,,,,,,,,,,,86542,2022-11-15_14h05.40.266,vts_reward_expectancy_bt_OFFLINE,2022.2.4,59.914083798130804,
0,0,0,1,0,0,1,0,star,hexagon,2,0,2,0,2,5,29,11,,,,,,,,,,,,,,,,,,,,,,,,,,,,,,,,,,,,,,,,395.1823605800164,395.1823605800164,395.1823605800164,395.1823605800164,395.1823605800164,395.1823605800164,395.1823605800164,395.1823605800164,395.1823605800164,395.1823605800164,a,0.32786477298941463,1,801,2,395.53436982500716,397.03443901400897,,,,,,,,,,,,,,,,,,,,,,,,,,,,,,,,,,,,,,,,,,,,,,,,,,,,,,,,,,,,,,,,,,,,,,86542,2022-11-15_14h05.40.266,vts_reward_expectancy_bt_OFFLINE,2022.2.4,59.914083798130804,
0,1,0,0,1,0,0,0,circle,triangle,2,0,2,0,2,6,30,3,,,,,,,,,,,,,,,,,,,,,,,,,,,,,,,,,,,,,,,,397.53499161600485,397.53499161600485,397.53499161600485,397.53499161600485,397.53499161600485,397.53499161600485,397.53499161600485,397.53499161600485,397.53499161600485,397.53499161600485,a,0.41692416998557746,10,811,2,397.97176052001305,399.4704570560134,,,,,,,,,,,,,,,,,,,,,,,,,,,,,,,,,,,,,,,,,,,,,,,,,,,,,,,,,,,,,,,,,,,,,,86542,2022-11-15_14h05.40.266,vts_reward_expectancy_bt_OFFLINE,2022.2.4,59.914083798130804,
0,0,0,1,0,1,0,0,star ,circle,2,0,2,0,2,7,31,10,,,,,,,,,,,,,,,,,,,,,,,,,,,,,,,,,,,,,,,,399.97092267201515,399.97092267201515,399.97092267201515,399.97092267201515,399.97092267201515,399.97092267201515,399.97092267201515,399.97092267201515,399.97092267201515,399.97092267201515,a,0.3767791450081859,10,821,2,400.3720858620072,401.87298426401685,,,,,,,,,,,,,,,,,,,,,,,,,,,,,,,,,,,,,,,,,,,,,,,,,,,,,,,,,,,,,,,,,,,,,,86542,2022-11-15_14h05.40.266,vts_reward_expectancy_bt_OFFLINE,2022.2.4,59.914083798130804,
0,1,0,0,0,0,1,0,circle,hexagon,2,0,2,0,2,8,32,4,,,,,,,,,,,,,,,,,,,,,,,,,,,,,,,,,,,,,,,,402.3734766700072,402.3734766700072,402.3734766700072,402.3734766700072,402.3734766700072,402.3734766700072,402.3734766700072,402.3734766700072,402.3734766700072,402.3734766700072,l,0.25709051999729127,1,822,2,402.66114767701947,404.15885851401254,,,,,,,,,,,,,,,,,,,,,,,,,,,,,,,,,,,,,,,,,,,,,,,,,,,,,,,,,,,,,,,,,,,,,,86542,2022-11-15_14h05.40.266,vts_reward_expectancy_bt_OFFLINE,2022.2.4,59.914083798130804,
0,0,0,1,1,0,0,0,star,triangle,2,0,2,0,2,9,33,9,,,,,,,,,,,,,,,,,,,,,,,,,,,,,,,,,,,,,,,,404.6593654520111,404.6593654520111,404.6593654520111,404.6593654520111,404.6593654520111,404.6593654520111,404.6593654520111,404.6593654520111,404.6593654520111,404.6593654520111,a,0.132282191014383,1,823,2,404.8101718160033,406.3112356979982,,,,,,,,,,,,,,,,,,,,,,,,,,,,,,,,,,,,,,,,,,,,,,,,,,,,,,,,,,,,,,,,,,,,,,86542,2022-11-15_14h05.40.266,vts_reward_expectancy_bt_OFFLINE,2022.2.4,59.914083798130804,
1,0,0,0,0,0,1,0,triangle,hexagon,2,0,2,0,2,10,34,1,,,,,,,,,,,,,,,,,,,,,,,,,,,,,,,,,,,,,,,,406.8117793070269,406.8117793070269,406.8117793070269,406.8117793070269,406.8117793070269,406.8117793070269,406.8117793070269,406.8117793070269,406.8117793070269,406.8117793070269,a,0.26269150598091073,10,833,2,407.09559683001135,408.59694259101525,,,,,,,,,,,,,,,,,,,,,,,,,,,,,,,,,,,,,,,,,,,,,,,,,,,,,,,,,,,,,,,,,,,,,,86542,2022-11-15_14h05.40.266,vts_reward_expectancy_bt_OFFLINE,2022.2.4,59.914083798130804,
0,0,1,0,1,0,0,0,hexagon,triangle,2,0,2,0,2,11,35,6,,,,,,,,,,,,,,,,,,,,,,,,,,,,,,,,,,,,,,,,409.0976438280195,409.0976438280195,409.0976438280195,409.0976438280195,409.0976438280195,409.0976438280195,409.0976438280195,409.0976438280195,409.0976438280195,409.0976438280195,l,0.08191292500123382,10,843,2,409.19778449001024,410.69930715102237,,,,,,,,,,,,,,,,,,,,,,,,,,,,,,,,,,,,,,,,,,,,,,,,,,,,,,,,,,,,,,,,,,,,,,86542,2022-11-15_14h05.40.266,vts_reward_expectancy_bt_OFFLINE,2022.2.4,59.914083798130804,
0,0,1,0,1,0,0,0,hexagon,triangle,2,0,2,0,3,0,36,6,,,,,,,,,,,,,,,,,,,,,,,,,,,,,,,,,,,,,,,,411.19982026002253,411.19982026002253,411.19982026002253,411.19982026002253,411.19982026002253,411.19982026002253,411.19982026002253,411.19982026002253,411.19982026002253,411.19982026002253,a,0.2626405550108757,1,844,2,411.48368445099914,412.98532334101037,,,,,,,,,,,,,,,,,,,,,,,,,,,,,,,,,,,,,,,,,,,,,,,,,,,,,,,,,,,,,,,,,,,,,,86542,2022-11-15_14h05.40.266,vts_reward_expectancy_bt_OFFLINE,2022.2.4,59.914083798130804,
0,1,0,0,0,0,1,0,circle,hexagon,2,0,2,0,3,1,37,4,,,,,,,,,,,,,,,,,,,,,,,,,,,,,,,,,,,,,,,,413.4858483100252,413.4858483100252,413.4858483100252,413.4858483100252,413.4858483100252,413.4858483100252,413.4858483100252,413.4858483100252,413.4858483100252,413.4858483100252,l,0.21671134600182995,1,845,2,413.7193879240076,415.2212714860216,,,,,,,,,,,,,,,,,,,,,,,,,,,,,,,,,,,,,,,,,,,,,,,,,,,,,,,,,,,,,,,,,,,,,,86542,2022-11-15_14h05.40.266,vts_reward_expectancy_bt_OFFLINE,2022.2.4,59.914083798130804,
0,0,1,0,0,1,0,0,hexagon,circle,2,0,2,0,3,2,38,7,,,,,,,,,,,,,,,,,,,,,,,,,,,,,,,,,,,,,,,,415.72165085500455,415.72165085500455,415.72165085500455,415.72165085500455,415.72165085500455,415.72165085500455,415.72165085500455,415.72165085500455,415.72165085500455,415.72165085500455,a,0.2967366249940824,1,846,2,416.0387771180249,417.5403459990048,,,,,,,,,,,,,,,,,,,,,,,,,,,,,,,,,,,,,,,,,,,,,,,,,,,,,,,,,,,,,,,,,,,,,,86542,2022-11-15_14h05.40.266,vts_reward_expectancy_bt_OFFLINE,2022.2.4,59.914083798130804,
1,0,0,0,0,0,1,0,triangle,hexagon,2,0,2,0,3,3,39,1,,,,,,,,,,,,,,,,,,,,,,,,,,,,,,,,,,,,,,,,418.04017562101944,418.04017562101944,418.04017562101944,418.04017562101944,418.04017562101944,418.04017562101944,418.04017562101944,418.04017562101944,418.04017562101944,418.04017562101944,l,0.26320265798131004,1,847,2,418.32455955201294,419.82626017800067,,,,,,,,,,,,,,,,,,,,,,,,,,,,,,,,,,,,,,,,,,,,,,,,,,,,,,,,,,,,,,,,,,,,,,86542,2022-11-15_14h05.40.266,vts_reward_expectancy_bt_OFFLINE,2022.2.4,59.914083798130804,
0,0,0,1,0,1,0,0,star ,circle,2,0,2,0,3,4,40,10,,,,,,,,,,,,,,,,,,,,,,,,,,,,,,,,,,,,,,,,420.326814243017,420.326814243017,420.326814243017,420.326814243017,420.326814243017,420.326814243017,420.326814243017,420.326814243017,420.326814243017,420.326814243017,l,0.29398457999923266,1,848,2,420.6439299379999,422.1454974870139,,,,,,,,,,,,,,,,,,,,,,,,,,,,,,,,,,,,,,,,,,,,,,,,,,,,,,,,,,,,,,,,,,,,,,86542,2022-11-15_14h05.40.266,vts_reward_expectancy_bt_OFFLINE,2022.2.4,59.914083798130804,
0,1,0,0,1,0,0,0,circle,triangle,2,0,2,0,3,5,41,3,,,,,,,,,,,,,,,,,,,,,,,,,,,,,,,,,,,,,,,,422.6460078920063,422.6460078920063,422.6460078920063,422.6460078920063,422.6460078920063,422.6460078920063,422.6460078920063,422.6460078920063,422.6460078920063,422.6460078920063,l,0.34916844399413094,1,849,2,423.0142747130012,424.51486773902434,,,,,,,,,,,,,,,,,,,,,,,,,,,,,,,,,,,,,,,,,,,,,,,,,,,,,,,,,,,,,,,,,,,,,,86542,2022-11-15_14h05.40.266,vts_reward_expectancy_bt_OFFLINE,2022.2.4,59.914083798130804,
0,0,0,1,1,0,0,0,star,triangle,2,0,2,0,3,6,42,9,,,,,,,,,,,,,,,,,,,,,,,,,,,,,,,,,,,,,,,,425.015257416002,425.015257416002,425.015257416002,425.015257416002,425.015257416002,425.015257416002,425.015257416002,425.015257416002,425.015257416002,425.015257416002,l,0.22817943399422802,10,859,2,425.2697615820216,426.76720238200505,,,,,,,,,,,,,,,,,,,,,,,,,,,,,,,,,,,,,,,,,,,,,,,,,,,,,,,,,,,,,,,,,,,,,,86542,2022-11-15_14h05.40.266,vts_reward_expectancy_bt_OFFLINE,2022.2.4,59.914083798130804,
0,0,1,0,0,0,0,1,hexagon,star,2,0,2,0,3,7,43,8,,,,,,,,,,,,,,,,,,,,,,,,,,,,,,,,,,,,,,,,427.2676502200193,427.2676502200193,427.2676502200193,427.2676502200193,427.2676502200193,427.2676502200193,427.2676502200193,427.2676502200193,427.2676502200193,427.2676502200193,l,0.2837135979789309,1,860,2,427.56841561201145,429.06975690001855,,,,,,,,,,,,,,,,,,,,,,,,,,,,,,,,,,,,,,,,,,,,,,,,,,,,,,,,,,,,,,,,,,,,,,86542,2022-11-15_14h05.40.266,vts_reward_expectancy_bt_OFFLINE,2022.2.4,59.914083798130804,
1,0,0,0,0,1,0,0,triangle,circle,2,0,2,0,3,8,44,0,,,,,,,,,,,,,,,,,,,,,,,,,,,,,,,,,,,,,,,,429.5702505360241,429.5702505360241,429.5702505360241,429.5702505360241,429.5702505360241,429.5702505360241,429.5702505360241,429.5702505360241,429.5702505360241,429.5702505360241,l,0.34284717196715064,10,870,2,429.9417794740002,431.43912712400197,,,,,,,,,,,,,,,,,,,,,,,,,,,,,,,,,,,,,,,,,,,,,,,,,,,,,,,,,,,,,,,,,,,,,,86542,2022-11-15_14h05.40.266,vts_reward_expectancy_bt_OFFLINE,2022.2.4,59.914083798130804,
0,1,0,0,0,0,0,1,circle,star,2,0,2,0,3,9,45,5,,,,,,,,,,,,,,,,,,,,,,,,,,,,,,,,,,,,,,,,431.9396645000088,431.9396645000088,431.9396645000088,431.9396645000088,431.9396645000088,431.9396645000088,431.9396645000088,431.9396645000088,431.9396645000088,431.9396645000088,l,0.28039732298930176,10,880,2,432.24260902102105,433.74158205100684,,,,,,,,,,,,,,,,,,,,,,,,,,,,,,,,,,,,,,,,,,,,,,,,,,,,,,,,,,,,,,,,,,,,,,86542,2022-11-15_14h05.40.266,vts_reward_expectancy_bt_OFFLINE,2022.2.4,59.914083798130804,
0,0,0,1,0,0,1,0,star,hexagon,2,0,2,0,3,10,46,11,,,,,,,,,,,,,,,,,,,,,,,,,,,,,,,,,,,,,,,,434.2420948310173,434.2420948310173,434.2420948310173,434.2420948310173,434.2420948310173,434.2420948310173,434.2420948310173,434.2420948310173,434.2420948310173,434.2420948310173,a,0.29497817999799736,1,881,2,434.55951830901904,436.06084926699987,,,,,,,,,,,,,,,,,,,,,,,,,,,,,,,,,,,,,,,,,,,,,,,,,,,,,,,,,,,,,,,,,,,,,,86542,2022-11-15_14h05.40.266,vts_reward_expectancy_bt_OFFLINE,2022.2.4,59.914083798130804,
1,0,0,0,0,0,0,1,triangle,star,2,0,2,0,3,11,47,2,,,,,,,,,,,,,,,,,,,,,,,,,,,,,,,,,,,,,,,,436.56146218802314,436.56146218802314,436.56146218802314,436.56146218802314,436.56146218802314,436.56146218802314,436.56146218802314,436.56146218802314,436.56146218802314,436.56146218802314,l,0.1124784609710332,1,882,2,436.69494551201933,438.1964628070127,,,,,,,,,,,,,,,,,,,,,,,,,,,,,,,,,,,,,,,,,,,,,,,,,,,,,,,,,,,,,,,,,,,,,,86542,2022-11-15_14h05.40.266,vts_reward_expectancy_bt_OFFLINE,2022.2.4,59.914083798130804,
,,,,,,,,,,,,,,,,,,0,0,0,0,0,0,0,0,,,,,,,,,,,,,,,,,,,,,,,,,,,,,,,,,,,,,,,,,,,,,,,,479.8591250970203,,,146,Y,circle,0.002033558994298801,475.4010062770103,476.90589518501656,476.90589518501656,476.90589518501656,1,0,d,1.4286855079990346,0,478.36026400502305,,,,,,,,,,,,,,,,,,,,,,,,,,,,,,,,,,,,,,,,,,,,,,,,,,,,,,86542,2022-11-15_14h05.40.266,vts_reward_expectancy_bt_OFFLINE,2022.2.4,59.914083798130804,
,,,,,,,,,,,,,,,,,,0,0,0,0,1,0,1,0,,,,,,,,,,,,,,,,,,,,,,,,,,,,,,,,,,,,,,,,,,,,,,,,485.3818388900254,,,125,U,hexagon,0.0016380769957322627,480.8391258830088,482.3452290370187,482.3452290370187,482.3452290370187,1,0,d,1.5022574329632334,0,483.8802263420075,,,,,,,,,,,,,,,,,,,,,,,,,,,,,,,,,,,,,,,,,,,,,,,,,,,,,,86542,2022-11-15_14h05.40.266,vts_reward_expectancy_bt_OFFLINE,2022.2.4,59.914083798130804,
,,,,,,,,,,,,,,,,,,0,0,0,0,2,0,2,0,,,,,,,,,,,,,,,,,,,,,,,,,,,,,,,,,,,,,,,,,,,,,,,,490.6376228740264,,,160,D,triangle,0.0015894100069999695,486.3633391520125,487.8676650310226,487.8676650310226,487.8676650310226,1,0,f,1.2448124549991917,0,489.1360736780043,,,,,,,,,,,,,,,,,,,,,,,,,,,,,,,,,,,,,,,,,,,,,,,,,,,,,,86542,2022-11-15_14h05.40.266,vts_reward_expectancy_bt_OFFLINE,2022.2.4,59.914083798130804,
,,,,,,,,,,,,,,,,,,0,0,0,0,3,0,3,0,,,,,,,,,,,,,,,,,,,,,,,,,,,,,,,,,,,,,,,,,,,,,,,,495.3095422650222,,,181,F,star,0.0015897639968898147,491.619705805002,493.1237223170174,493.1237223170174,493.1237223170174,1,0,f,0.656985215988243,0,493.80776232102653,,,,,,,,,,,,,,,,,,,,,,,,,,,,,,,,,,,,,,,,,,,,,,,,,,,,,,86542,2022-11-15_14h05.40.266,vts_reward_expectancy_bt_OFFLINE,2022.2.4,59.914083798130804,
,,,,,,,,,,,,,,,,,,0,0,0,0,4,0,4,0,,,,,,,,,,,,,,,,,,,,,,,,,,,,,,,,,,,,,,,,,,,,,,,,500.06466188500053,,,132,H,circle,0.0017313889984507114,496.2917306810268,497.79552917802357,497.79552917802357,497.79552917802357,1,0,d,0.7346316309995018,0,498.5630524610169,,,,,,,,,,,,,,,,,,,,,,,,,,,,,,,,,,,,,,,,,,,,,,,,,,,,,,86542,2022-11-15_14h05.40.266,vts_reward_expectancy_bt_OFFLINE,2022.2.4,59.914083798130804,
,,,,,,,,,,,,,,,,,,0,0,0,0,5,0,5,0,,,,,,,,,,,,,,,,,,,,,,,,,,,,,,,,,,,,,,,,,,,,,,,,504.8699778090231,,,167,S,triangle,0.0017275979917030782,501.0471017200034,502.5507949020248,502.5507949020248,502.5507949020248,1,0,f,0.7937101489806082,0,503.3683179090149,,,,,,,,,,,,,,,,,,,,,,,,,,,,,,,,,,,,,,,,,,,,,,,,,,,,,,86542,2022-11-15_14h05.40.266,vts_reward_expectancy_bt_OFFLINE,2022.2.4,59.914083798130804,
,,,,,,,,,,,,,,,,,,0,0,0,0,6,0,6,0,,,,,,,,,,,,,,,,,,,,,,,,,,,,,,,,,,,,,,,,,,,,,,,,509.54181664501084,,,174,W,star,0.0014076190127525479,505.8494978280214,507.35608161002165,507.35608161002165,507.35608161002165,1,0,f,0.6569057519955095,0,508.0401791110053,,,,,,,,,,,,,,,,,,,,,,,,,,,,,,,,,,,,,,,,,,,,,,,,,,,,,,86542,2022-11-15_14h05.40.266,vts_reward_expectancy_bt_OFFLINE,2022.2.4,59.914083798130804,
,,,,,,,,,,,,,,,,,,0,0,0,0,7,0,7,0,,,,,,,,,,,,,,,,,,,,,,,,,,,,,,,,,,,,,,,,,,,,,,,,514.1136333150207,,,139,B,hexagon,0.0016584370168857276,510.52268835302675,512.0278490610071,512.0278490610071,512.0278490610071,1,0,d,0.5519382189959288,0,512.6119562870008,,,,,,,,,,,,,,,,,,,,,,,,,,,,,,,,,,,,,,,,,,,,,,,,,,,,,,86542,2022-11-15_14h05.40.266,vts_reward_expectancy_bt_OFFLINE,2022.2.4,59.914083798130804,
,,,,,,,,,,,,,,,,,,0,0,0,0,8,0,8,0,,,,,,,,,,,,,,,,,,,,,,,,,,,,,,,,,,,,,,,,,,,,,,,,518.8021517230081,,,146,Y,hexagon,0.0017005809932015836,515.092206958012,516.5998902690189,516.5998902690189,516.5998902690189,1,0,d,0.673246794991428,0,517.3004638420243,,,,,,,,,,,,,,,,,,,,,,,,,,,,,,,,,,,,,,,,,,,,,,,,,,,,,,86542,2022-11-15_14h05.40.266,vts_reward_expectancy_bt_OFFLINE,2022.2.4,59.914083798130804,
,,,,,,,,,,,,,,,,,,0,0,0,0,9,0,9,0,,,,,,,,,,,,,,,,,,,,,,,,,,,,,,,,,,,,,,,,,,,,,,,,523.3570331360097,,,125,U,star,0.0015685809776186943,519.780346028012,521.287958506,521.287958506,521.287958506,1,0,d,0.5401471179793589,0,521.8552920180082,,,,,,,,,,,,,,,,,,,,,,,,,,,,,,,,,,,,,,,,,,,,,,,,,,,,,,86542,2022-11-15_14h05.40.266,vts_reward_expectancy_bt_OFFLINE,2022.2.4,59.914083798130804,
,,,,,,,,,,,,,,,,,,,,,,,,,,0,0,0,0,0,0,0,0,,,,,,,,,,,,,,,,,,,,,,,,,,,,,,,,,,,,,,,,547.4168878410128,,,160,W,hexagon,0.002153101988369599,,,,,1,0,,,1,545.9152166230197,543.5608870820142,545.0641852180124,545.0641852180124,545.0641852180124,k,0.8282977599883452,,,,,,,,,,,,,,,,,,,,,,,,,,,,,,,,,,,,,,,,,,,,,,,,86542,2022-11-15_14h05.40.266,vts_reward_expectancy_bt_OFFLINE,2022.2.4,59.914083798130804,
,,,,,,,,,,,,,,,,,,,,,,,,,,0,0,0,0,1,0,1,0,,,,,,,,,,,,,,,,,,,,,,,,,,,,,,,,,,,,,,,,552.1722441750171,,,174,D,triangle,0.0018104529881384224,,,,,1,0,,,1,550.670563688007,548.3972064850095,549.9029473200208,549.9029473200208,549.9029473200208,j,0.7368005419848487,,,,,,,,,,,,,,,,,,,,,,,,,,,,,,,,,,,,,,,,,,,,,,,,86542,2022-11-15_14h05.40.266,vts_reward_expectancy_bt_OFFLINE,2022.2.4,59.914083798130804,
,,,,,,,,,,,,,,,,,,,,,,,,,,0,0,0,0,2,0,2,0,,,,,,,,,,,,,,,,,,,,,,,,,,,,,,,,,,,,,,,,556.9274223440152,,,132,B,circle,0.0015566569927614182,,,,,1,0,,,1,555.4257321740151,553.1518529430032,554.6582163480052,554.6582163480052,554.6582163480052,j,0.7402622629888356,,,,,,,,,,,,,,,,,,,,,,,,,,,,,,,,,,,,,,,,,,,,,,,,86542,2022-11-15_14h05.40.266,vts_reward_expectancy_bt_OFFLINE,2022.2.4,59.914083798130804,
,,,,,,,,,,,,,,,,,,,,,,,,,,0,0,0,0,3,0,3,0,,,,,,,,,,,,,,,,,,,,,,,,,,,,,,,,,,,,,,,,561.5824999710021,,,139,F,star,0.001446185022359714,,,,,1,0,,,1,560.0807998770033,557.970046195027,559.4134622960119,559.4134622960119,559.4134622960119,j,0.6431189010036178,,,,,,,,,,,,,,,,,,,,,,,,,,,,,,,,,,,,,,,,,,,,,,,,86542,2022-11-15_14h05.40.266,vts_reward_expectancy_bt_OFFLINE,2022.2.4,59.914083798130804,
,,,,,,,,,,,,,,,,,,,,,,,,,,0,0,0,0,4,0,4,0,,,,,,,,,,,,,,,,,,,,,,,,,,,,,,,,,,,,,,,,566.0541732720158,,,146,Y,hexagon,0.001491665025241673,,,,,1,0,,,1,564.5525861339993,562.5618500420242,564.0688491949986,564.0688491949986,564.0688491949986,k,0.4554685059993062,,,,,,,,,,,,,,,,,,,,,,,,,,,,,,,,,,,,,,,,,,,,,,,,86542,2022-11-15_14h05.40.266,vts_reward_expectancy_bt_OFFLINE,2022.2.4,59.914083798130804,
,,,,,,,,,,,,,,,,,,,,,,,,,,0,0,0,0,5,0,5,0,,,,,,,,,,,,,,,,,,,,,,,,,,,,,,,,,,,,,,,,570.8595172550122,,,181,H,star,0.0017430660082027316,,,,,1,0,,,1,569.3577506940055,567.0359327590268,568.5403503710113,568.5403503710113,568.5403503710113,j,0.7992114280059468,,,,,,,,,,,,,,,,,,,,,,,,,,,,,,,,,,,,,,,,,,,,,,,,86542,2022-11-15_14h05.40.266,vts_reward_expectancy_bt_OFFLINE,2022.2.4,59.914083798130804,
,,,,,,,,,,,,,,,,,,,,,,,,,,0,0,0,0,6,0,6,0,,,,,,,,,,,,,,,,,,,,,,,,,,,,,,,,,,,,,,,,575.6980554250185,,,125,S,circle,0.001577943010488525,,,,,1,0,,,1,574.1963868550083,571.8374567120045,573.3454168930184,573.3454168930184,573.3454168930184,k,0.8188480919925496,,,,,,,,,,,,,,,,,,,,,,,,,,,,,,,,,,,,,,,,,,,,,,,,86542,2022-11-15_14h05.40.266,vts_reward_expectancy_bt_OFFLINE,2022.2.4,59.914083798130804,
,,,,,,,,,,,,,,,,,,,,,,,,,,0,0,0,0,7,0,7,0,,,,,,,,,,,,,,,,,,,,,,,,,,,,,,,,,,,,,,,,580.3199374850083,,,167,U,triangle,0.0016454420110676438,,,,,1,0,,,1,578.8182585310133,576.6802201710234,578.1841922560125,578.1841922560125,578.1841922560125,k,0.617012310976861,,,,,,,,,,,,,,,,,,,,,,,,,,,,,,,,,,,,,,,,,,,,,,,,86542,2022-11-15_14h05.40.266,vts_reward_expectancy_bt_OFFLINE,2022.2.4,59.914083798130804,
,,,,,,,,,,,,,,,,,,,,,,,,,,0,0,0,0,8,0,8,0,,,,,,,,,,,,,,,,,,,,,,,,,,,,,,,,,,,,,,,,584.8081657130097,,,160,W,circle,0.00117211599717848,,,,,1,0,,,1,583.3064309160109,581.2983867069997,582.8059408720001,582.8059408720001,582.8059408720001,k,0.48351419798564166,,,,,,,,,,,,,,,,,,,,,,,,,,,,,,,,,,,,,,,,,,,,,,,,86542,2022-11-15_14h05.40.266,vts_reward_expectancy_bt_OFFLINE,2022.2.4,59.914083798130804,
,,,,,,,,,,,,,,,,,,,,,,,,,,0,0,0,0,9,0,9,0,,,,,,,,,,,,,,,,,,,,,,,,,,,,,,,,,,,,,,,,589.4466231080005,,,174,D,star,0.0015524479968007654,,,,,1,0,,,1,587.9449194050103,585.79524562601,587.2943969960033,587.2943969960033,587.2943969960033,j,0.6304007860017009,,,,,,,,,,,,,,,,,,,,,,,,,,,,,,,,,,,,,,,,,,,,,,,,86542,2022-11-15_14h05.40.266,vts_reward_expectancy_bt_OFFLINE,2022.2.4,59.914083798130804,
,,,,,,,,,,,,,,,,,,,,,,,,,,,,,,,,,,0,0,0,0,0,0,0,0,,,,,,,,,,,,,,,,,,,,,,,,,,,,0,882,,,616.9102782640257,,,167,B,triangle,0.002495296997949481,,,,,1,0,,,2,,,,,,,,611.137012199004,611.137012199004,611.137012199004,611.137012199004,612.6387093240046,612.6387093240046,612.6387093240046,612.6387093240046,612.6387093240046,612.6387093240046,612.6387093240046,612.6387093240046,-1,letter,NA,j,2.737330262985779,vtsPrac,615.4085237140243,,,,,,,,,,,,,,,,,,,,,,,,,,,,,86542,2022-11-15_14h05.40.266,vts_reward_expectancy_bt_OFFLINE,2022.2.4,59.914083798130804,
,,,,,,,,,,,,,,,,,,,,,,,,,,,,,,,,,,0,0,0,0,1,0,1,0,,,,,,,,,,,,,,,,,,,,,,,,,,,,0,882,,,622.0159613090218,,,146,Y,circle,0.001665860996581614,,,,,1,0,,,2,,,,,,,,617.8912611130218,617.8912611130218,617.8912611130218,617.8912611130218,619.3965319340059,619.3965319340059,619.3965319340059,619.3965319340059,619.3965319340059,619.3965319340059,619.3965319340059,619.3965319340059,repeat,letter,lettRpt,k,1.0974040550063364,vtsPrac,620.5142876230238,,,,,,,,,,,,,,,,,,,,,,,,,,,,,86542,2022-11-15_14h05.40.266,vts_reward_expectancy_bt_OFFLINE,2022.2.4,59.914083798130804,
,,,,,,,,,,,,,,,,,,,,,,,,,,,,,,,,,,0,0,0,0,2,0,2,0,,,,,,,,,,,,,,,,,,,,,,,,,,,,0,882,,,627.972475846007,,,139,S,triangle,0.0014379459898918867,,,,,1,0,,,2,,,,,,,,622.9974827120022,622.9974827120022,622.9974827120022,622.9974827120022,624.502040782012,624.502040782012,624.502040782012,624.502040782012,624.502040782012,624.502040782012,624.502040782012,624.502040782012,switch,number,numSwt,d,1.9432696909934748,vtsPrac,626.4708840140083,,,,,,,,,,,,,,,,,,,,,,,,,,,,,86542,2022-11-15_14h05.40.266,vts_reward_expectancy_bt_OFFLINE,2022.2.4,59.914083798130804,
,,,,,,,,,,,,,,,,,,,,,,,,,,,,,,,,,,0,0,0,0,3,0,3,0,,,,,,,,,,,,,,,,,,,,,,,,,,,,0,882,,,633.2114229630097,,,125,F,hexagon,0.0016209309978876263,,,,,1,0,,,2,,,,,,,,628.9542145770101,628.9542145770101,628.9542145770101,628.9542145770101,630.4586876560061,630.4586876560061,630.4586876560061,630.4586876560061,630.4586876560061,630.4586876560061,630.4586876560061,630.4586876560061,switch,letter,lettSwt,j,1.2295803219894879,vtsPrac,631.7099185080151,,,,,,,,,,,,,,,,,,,,,,,,,,,,,86542,2022-11-15_14h05.40.266,vts_reward_expectancy_bt_OFFLINE,2022.2.4,59.914083798130804,
,,,,,,,,,,,,,,,,,,,,,,,,,,,,,,,,,,0,0,0,0,4,0,4,0,,,,,,,,,,,,,,,,,,,,,,,,,,,,0,882,,,638.5341013310244,,,167,B,hexagon,0.0016645769937895238,,,,,1,0,,,2,,,,,,,,634.1910554310016,634.1910554310016,634.1910554310016,634.1910554310016,635.6976344030118,635.6976344030118,635.6976344030118,635.6976344030118,635.6976344030118,635.6976344030118,635.6976344030118,635.6976344030118,switch,number,numSwt,f,1.3113026520004496,vtsPrac,637.032362116006,,,,,,,,,,,,,,,,,,,,,,,,,,,,,86542,2022-11-15_14h05.40.266,vts_reward_expectancy_bt_OFFLINE,2022.2.4,59.914083798130804,
,,,,,,,,,,,,,,,,,,,,,,,,,,,,,,,,,,0,0,0,0,5,0,5,0,,,,,,,,,,,,,,,,,,,,,,,,,,,,0,882,,,643.4228012190142,,,146,Y,triangle,0.001597301015863195,,,,,1,0,,,2,,,,,,,,639.5126358749985,639.5126358749985,639.5126358749985,639.5126358749985,641.02011468602,641.02011468602,641.02011468602,641.02011468602,641.02011468602,641.02011468602,641.02011468602,641.02011468602,switch,letter,lettSwt,k,0.872879586997442,vtsPrac,641.9212387470179,,,,,,,,,,,,,,,,,,,,,,,,,,,,,86542,2022-11-15_14h05.40.266,vts_reward_expectancy_bt_OFFLINE,2022.2.4,59.914083798130804,
,,,,,,,,,,,,,,,,,,,,,,,,,,,,,,,,,,0,0,0,0,6,0,6,0,,,,,,,,,,,,,,,,,,,,,,,,,,,,0,882,,,649.3961456460238,,,139,S,triangle,0.0015740550006739795,,,,,1,0,,,2,,,,,,,,644.4019344090193,644.4019344090193,644.4019344090193,644.4019344090193,645.9089268780081,645.9089268780081,645.9089268780081,645.9089268780081,645.9089268780081,645.9089268780081,645.9089268780081,645.9089268780081,switch,number,numSwt,d,1.958246814989252,vtsPrac,647.8946332420164,,,,,,,,,,,,,,,,,,,,,,,,,,,,,86542,2022-11-15_14h05.40.266,vts_reward_expectancy_bt_OFFLINE,2022.2.4,59.914083798130804,
,,,,,,,,,,,,,,,,,,,,,,,,,,,,,,,,,,0,0,0,0,7,0,7,0,,,,,,,,,,,,,,,,,,,,,,,,,,,,0,882,,,655.2525887950032,,,125,F,hexagon,0.0016347269993275404,,,,,1,0,,,2,,,,,,,,650.3758182690071,650.3758182690071,650.3758182690071,650.3758182690071,651.8821859850141,651.8821859850141,651.8821859850141,651.8821859850141,651.8821859850141,651.8821859850141,651.8821859850141,651.8821859850141,repeat,number,numRpt,d,1.8457242679724004,vtsPrac,653.7510498420161,,,,,,,,,,,,,,,,,,,,,,,,,,,,,86542,2022-11-15_14h05.40.266,vts_reward_expectancy_bt_OFFLINE,2022.2.4,59.914083798130804,
,,,,,,,,,,,,,,,,,,,,,,,,,,,,,,,,,,0,0,0,0,8,0,8,0,,,,,,,,,,,,,,,,,,,,,,,,,,,,0,882,,,662.043331658002,,,160,H,triangle,0.001717837993055582,,,,,1,0,,,2,,,,,,,,656.235524867021,656.235524867021,656.235524867021,656.235524867021,657.73863995602,657.73863995602,657.73863995602,657.73863995602,657.73863995602,657.73863995602,657.73863995602,657.73863995602,switch,letter,lettSwt,j,2.77212683900143,vtsPrac,660.5417715870135,,,,,,,,,,,,,,,,,,,,,,,,,,,,,86542,2022-11-15_14h05.40.266,vts_reward_expectancy_bt_OFFLINE,2022.2.4,59.914083798130804,
,,,,,,,,,,,,,,,,,,,,,,,,,,,,,,,,,,0,0,0,0,9,0,9,0,,,,,,,,,,,,,,,,,,,,,,,,,,,,0,882,,,666.9154308060242,,,132,B,hexagon,0.0015581930056214333,,,,,1,0,,,2,,,,,,,,663.0233421060257,663.0233421060257,663.0233421060257,663.0233421060257,664.5294473000104,664.5294473000104,664.5294473000104,664.5294473000104,664.5294473000104,664.5294473000104,664.5294473000104,664.5294473000104,switch,number,numSwt,d,0.8642943349841516,vtsPrac,665.4138559440034,,,,,,,,,,,,,,,,,,,,,,,,,,,,,86542,2022-11-15_14h05.40.266,vts_reward_expectancy_bt_OFFLINE,2022.2.4,59.914083798130804,
,,,,,,,,,,,,,,,,,,,,,,,,,,,,,,,,,,0,0,0,0,10,0,10,0,,,,,,,,,,,,,,,,,,,,,,,,,,,,0,882,,,672.2545820060186,,,174,U,triangle,0.00167352199787274,,,,,1,0,,,2,,,,,,,,667.8950428060198,667.8950428060198,667.8950428060198,667.8950428060198,669.4014924150251,669.4014924150251,669.4014924150251,669.4014924150251,669.4014924150251,669.4014924150251,669.4014924150251,669.4014924150251,switch,letter,lettSwt,k,1.3243671479867771,vtsPrac,670.7530449250189,,,,,,,,,,,,,,,,,,,,,,,,,,,,,86542,2022-11-15_14h05.40.266,vts_reward_expectancy_bt_OFFLINE,2022.2.4,59.914083798130804,
,,,,,,,,,,,,,,,,,,,,,,,,,,,,,,,,,,0,0,0,0,11,0,11,0,,,,,,,,,,,,,,,,,,,,,,,,,,,,0,882,,,677.1099837220099,,,146,W,star,0.0015161219926085323,,,,,1,0,,,2,,,,,,,,673.2369171470054,673.2369171470054,673.2369171470054,673.2369171470054,674.7406963610265,674.7406963610265,674.7406963610265,674.7406963610265,674.7406963610265,674.7406963610265,674.7406963610265,674.7406963610265,switch,number,numSwt,d,0.8458714850130491,vtsPrac,675.6084512720117,,,,,,,,,,,,,,,,,,,,,,,,,,,,,86542,2022-11-15_14h05.40.266,vts_reward_expectancy_bt_OFFLINE,2022.2.4,59.914083798130804,
,,,,,,,,,,,,,,,,,,,,,,,,,,,,,,,,,,0,0,0,0,12,0,12,0,,,,,,,,,,,,,,,,,,,,,,,,,,,,0,882,,,682.7995460760139,,,160,S,star,0.0015107590006664395,,,,,1,0,,,2,,,,,,,,678.0914996460197,678.0914996460197,678.0914996460197,678.0914996460197,679.5960368500091,679.5960368500091,679.5960368500091,679.5960368500091,679.5960368500091,679.5960368500091,679.5960368500091,679.5960368500091,repeat,number,numRpt,f,1.671452534967102,vtsPrac,681.2979479540081,,,,,,,,,,,,,,,,,,,,,,,,,,,,,86542,2022-11-15_14h05.40.266,vts_reward_expectancy_bt_OFFLINE,2022.2.4,59.914083798130804,
,,,,,,,,,,,,,,,,,,,,,,,,,,,,,,,,,,0,0,0,0,13,0,13,0,,,,,,,,,,,,,,,,,,,,,,,,,,,,0,882,,,687.7050676850195,,,139,F,triangle,0.0015759380185045302,,,,,1,0,,,2,,,,,,,,683.780907473003,683.780907473003,683.780907473003,683.780907473003,685.2856274140067,685.2856274140067,685.2856274140067,685.2856274140067,685.2856274140067,685.2856274140067,685.2856274140067,685.2856274140067,switch,letter,lettSwt,j,0.888131933985278,vtsPrac,686.2033108900068,,,,,,,,,,,,,,,,,,,,,,,,,,,,,86542,2022-11-15_14h05.40.266,vts_reward_expectancy_bt_OFFLINE,2022.2.4,59.914083798130804,
,,,,,,,,,,,,,,,,,,,,,,,,,,,,,,,,,,0,0,0,0,14,0,14,0,,,,,,,,,,,,,,,,,,,,,,,,,,,,0,882,,,693.1109730880125,,,132,Y,star,0.00154651899356395,,,,,1,0,,,2,,,,,,,,688.6838675080216,688.6838675080216,688.6838675080216,688.6838675080216,690.191046892025,690.191046892025,690.191046892025,690.191046892025,690.191046892025,690.191046892025,690.191046892025,690.191046892025,switch,number,numSwt,d,1.3932784129865468,vtsPrac,691.6092433050217,,,,,,,,,,,,,,,,,,,,,,,,,,,,,86542,2022-11-15_14h05.40.266,vts_reward_expectancy_bt_OFFLINE,2022.2.4,59.914083798130804,
,,,,,,,,,,,,,,,,,,,,,,,,,,,,,,,,,,0,0,0,0,15,0,15,0,,,,,,,,,,,,,,,,,,,,,,,,,,,,0,882,,,698.4167378530256,,,181,H,triangle,0.0017528309836052358,,,,,1,0,,,2,,,,,,,,694.0927857840143,694.0927857840143,694.0927857840143,694.0927857840143,695.5970255510183,695.5970255510183,695.5970255510183,695.5970255510183,695.5970255510183,695.5970255510183,695.5970255510183,695.5970255510183,repeat,number,numRpt,f,1.2974336769839283,vtsPrac,696.9151683230011,,,,,,,,,,,,,,,,,,,,,,,,,,,,,86542,2022-11-15_14h05.40.266,vts_reward_expectancy_bt_OFFLINE,2022.2.4,59.914083798130804,
,,,,,,,,,,,,,,,,,,,,,,,,,,,,,,,,,,0,0,0,0,16,0,16,0,,,,,,,,,,,,,,,,,,,,,,,,,,,,0,882,,,703.7059695040225,,,160,F,hexagon,0.0016223159909714013,,,,,1,0,,,2,,,,,,,,699.394952306,699.394952306,699.394952306,699.394952306,700.9028536530095,700.9028536530095,700.9028536530095,700.9028536530095,700.9028536530095,700.9028536530095,700.9028536530095,700.9028536530095,switch,letter,lettSwt,j,1.280216548970202,vtsPrac,702.2044274570071,,,,,,,,,,,,,,,,,,,,,,,,,,,,,86542,2022-11-15_14h05.40.266,vts_reward_expectancy_bt_OFFLINE,2022.2.4,59.914083798130804,
,,,,,,,,,,,,,,,,,,,,,,,,,,,,,,,,,,0,0,0,0,17,0,17,0,,,,,,,,,,,,,,,,,,,,,,,,,,,,0,882,,,708.494513720012,,,181,W,star,0.0017684359918348491,,,,,1,0,,,2,,,,,,,,704.6847022520087,704.6847022520087,704.6847022520087,704.6847022520087,706.1913106720021,706.1913106720021,706.1913106720021,706.1913106720021,706.1913106720021,706.1913106720021,706.1913106720021,706.1913106720021,switch,number,numSwt,f,0.7831451909733005,vtsPrac,706.9924072290014,,,,,,,,,,,,,,,,,,,,,,,,,,,,,86542,2022-11-15_14h05.40.266,vts_reward_expectancy_bt_OFFLINE,2022.2.4,59.914083798130804,
,,,,,,,,,,,,,,,,,,,,,,,,,,,,,,,,,,0,0,0,0,18,0,18,0,,,,,,,,,,,,,,,,,,,,,,,,,,,,0,882,,,714.1340626450256,,,174,Y,hexagon,0.0021431439963635057,,,,,1,0,,,2,,,,,,,,709.4729665720079,709.4729665720079,709.4729665720079,709.4729665720079,710.9805036410107,710.9805036410107,710.9805036410107,710.9805036410107,710.9805036410107,710.9805036410107,710.9805036410107,710.9805036410107,repeat,number,numRpt,f,1.6197544609894976,vtsPrac,712.6324097610195,,,,,,,,,,,,,,,,,,,,,,,,,,,,,86542,2022-11-15_14h05.40.266,vts_reward_expectancy_bt_OFFLINE,2022.2.4,59.914083798130804,
,,,,,,,,,,,,,,,,,,,,,,,,,,,,,,,,,,0,0,0,0,19,0,19,0,,,,,,,,,,,,,,,,,,,,,,,,,,,,0,882,,,719.1229460050236,,,139,U,star,0.0015628279943484813,,,,,1,0,,,2,,,,,,,,715.1123074089992,715.1123074089992,715.1123074089992,715.1123074089992,716.6201288120064,716.6201288120064,716.6201288120064,716.6201288120064,716.6201288120064,716.6201288120064,716.6201288120064,716.6201288120064,switch,letter,lettSwt,k,0.9758966570079792,vtsPrac,717.6213999559986,,,,,,,,,,,,,,,,,,,,,,,,,,,,,86542,2022-11-15_14h05.40.266,vts_reward_expectancy_bt_OFFLINE,2022.2.4,59.914083798130804,
,,,,,,,,,,,,,,,,,,,,,,,,,,,,,,,,,,0,0,0,0,20,0,20,0,,,,,,,,,,,,,,,,,,,,,,,,,,,,0,882,,,725.3798630600213,,,139,U,hexagon,0.0016853900160640478,,,,,1,0,,,2,,,,,,,,720.1099589870137,720.1099589870137,720.1099589870137,720.1099589870137,721.609094280022,721.609094280022,721.609094280022,721.609094280022,721.609094280022,721.609094280022,721.609094280022,721.609094280022,switch,number,numSwt,d,2.2420392539934255,vtsPrac,723.8781633150065,,,,,,,,,,,,,,,,,,,,,,,,,,,,,86542,2022-11-15_14h05.40.266,vts_reward_expectancy_bt_OFFLINE,2022.2.4,59.914083798130804,
,,,,,,,,,,,,,,,,,,,,,,,,,,,,,,,,,,0,0,0,0,21,0,21,0,,,,,,,,,,,,,,,,,,,,,,,,,,,,0,882,,,730.1350302860083,,,167,W,circle,0.0018704179965425283,,,,,1,0,,,2,,,,,,,,726.359131432022,726.359131432022,726.359131432022,726.359131432022,727.8660624760087,727.8660624760087,727.8660624760087,727.8660624760087,727.8660624760087,727.8660624760087,727.8660624760087,727.8660624760087,repeat,number,numRpt,f,0.7434508039732464,vtsPrac,728.6333708560269,,,,,,,,,,,,,,,,,,,,,,,,,,,,,86542,2022-11-15_14h05.40.266,vts_reward_expectancy_bt_OFFLINE,2022.2.4,59.914083798130804,
,,,,,,,,,,,,,,,,,,,,,,,,,,,,,,,,,,0,0,0,0,22,0,22,0,,,,,,,,,,,,,,,,,,,,,,,,,,,,0,882,,,735.8414137780201,,,174,Y,star,0.0016322419978678226,,,,,1,0,,,2,,,,,,,,731.114671193005,731.114671193005,731.114671193005,731.114671193005,732.6213373880018,732.6213373880018,732.6213373880018,732.6213373880018,732.6213373880018,732.6213373880018,732.6213373880018,732.6213373880018,repeat,number,numRpt,f,1.6915439860022161,vtsPrac,734.3398209960142,,,,,,,,,,,,,,,,,,,,,,,,,,,,,86542,2022-11-15_14h05.40.266,vts_reward_expectancy_bt_OFFLINE,2022.2.4,59.914083798130804,
,,,,,,,,,,,,,,,,,,,,,,,,,,,,,,,,,,0,0,0,0,23,0,23,0,,,,,,,,,,,,,,,,,,,,,,,,,,,,0,882,,,741.5978596490168,,,125,F,hexagon,0.0014234179980121553,,,,,1,0,,,2,,,,,,,,736.8201801570249,736.8201801570249,736.8201801570249,736.8201801570249,738.3275783540157,738.3275783540157,738.3275783540157,738.3275783540157,738.3275783540157,738.3275783540157,738.3275783540157,738.3275783540157,repeat,number,numRpt,d,1.746336281998083,vtsPrac,740.0962684500264,,,,,,,,,,,,,,,,,,,,,,,,,,,,,86542,2022-11-15_14h05.40.266,vts_reward_expectancy_bt_OFFLINE,2022.2.4,59.914083798130804,
,,,,,,,,,,,,,,,,,,,,,,,,,,,,,,,,,,0,0,0,0,24,0,24,0,,,,,,,,,,,,,,,,,,,,,,,,,,,,0,882,,,746.6201363450091,,,125,D,star,0.0014895319764036685,,,,,1,0,,,2,,,,,,,,742.5795816960162,742.5795816960162,742.5795816960162,742.5795816960162,744.0840833340189,744.0840833340189,744.0840833340189,744.0840833340189,744.0840833340189,744.0840833340189,744.0840833340189,744.0840833340189,switch,letter,lettSwt,j,1.006964855012484,vtsPrac,745.1184487660066,,,,,,,,,,,,,,,,,,,,,,,,,,,,,86542,2022-11-15_14h05.40.266,vts_reward_expectancy_bt_OFFLINE,2022.2.4,59.914083798130804,
,,,,,,,,,,,,,,,,,,,,,,,,,,,,,,,,,,0,0,0,0,25,0,25,0,,,,,,,,,,,,,,,,,,,,,,,,,,,,0,882,,,751.6088119600026,,752.1093836900254,160,B,hexagon,0.0014355239982251078,,,,,1,0,,,2,,,,,,,,747.5996062510239,747.5996062510239,747.5996062510239,747.5996062510239,749.1060468330106,749.1060468330106,749.1060468330106,749.1060468330106,749.1060468330106,749.1060468330106,749.1060468330106,749.1060468330106,repeat,letter,lettRpt,j,0.9690628639946226,vtsPrac,750.1071522240236,751.6088119600026,,,,,,,,,,,,,,,,,,,,,,,,,,,,86542,2022-11-15_14h05.40.266,vts_reward_expectancy_bt_OFFLINE,2022.2.4,59.914083798130804,
,,,,,,,,,,,,,,,,,,,,,,,,,,,,,,,,,,0,0,0,0,26,0,26,0,,,,,,,,,,,,,,,,,,,,,,,,,,,,0,882,,,757.3486649200204,,,139,W,circle,4.86350036226213e-05,,,,,1,0,,,2,,,,,,,,752.5903340320219,752.5903340320219,752.5903340320219,752.5903340320219,754.0949212420091,754.0949212420091,754.0949212420091,754.0949212420091,754.0949212420091,754.0949212420091,754.0949212420091,754.0949212420091,switch,number,numSwt,d,1.728926854004385,vtsPrac,755.8469613199995,,,,,,,,,,,,,,,,,,,,,,,,,,,,,86542,2022-11-15_14h05.40.266,vts_reward_expectancy_bt_OFFLINE,2022.2.4,59.914083798130804,
,,,,,,,,,,,,,,,,,,,,,,,,,,,,,,,,,,0,0,0,0,27,0,27,0,,,,,,,,,,,,,,,,,,,,,,,,,,,,0,882,,,762.3874023570097,,,174,Y,hexagon,0.0014424750115722418,,,,,1,0,,,2,,,,,,,,758.3285237960226,758.3285237960226,758.3285237960226,758.3285237960226,759.8346410620143,759.8346410620143,759.8346410620143,759.8346410620143,759.8346410620143,759.8346410620143,759.8346410620143,759.8346410620143,switch,letter,lettSwt,k,1.019175263994839,vtsPrac,760.8858977210184,,,,,,,,,,,,,,,,,,,,,,,,,,,,,86542,2022-11-15_14h05.40.266,vts_reward_expectancy_bt_OFFLINE,2022.2.4,59.914083798130804,
,,,,,,,,,,,,,,,,,,,,,,,,,,,,,,,,,,0,0,0,0,28,0,28,0,,,,,,,,,,,,,,,,,,,,,,,,,,,,0,882,,,768.3774449620105,,,139,W,circle,0.0015222840011119843,,,,,1,0,,,2,,,,,,,,763.3671587250137,763.3671587250137,763.3671587250137,763.3671587250137,764.8735106540262,764.8735106540262,764.8735106540262,764.8735106540262,764.8735106540262,764.8735106540262,764.8735106540262,764.8735106540262,repeat,letter,lettRpt,k,1.9750791879778262,vtsPrac,766.8758345050155,768.3774449620105,,,,,,,,,,,,,,,,,,,,,,,,,,,,86542,2022-11-15_14h05.40.266,vts_reward_expectancy_bt_OFFLINE,2022.2.4,59.914083798130804,
,,,,,,,,,,,,,,,,,,,,,,,,,,,,,,,,,,0,0,0,0,29,0,29,0,,,,,,,,,,,,,,,,,,,,,,,,,,,,0,882,,,774.8345681280189,,,132,D,star,0.0015221060020849109,,,,,1,0,,,2,,,,,,,,769.3565657110012,769.3565657110012,769.3565657110012,769.3565657110012,770.863449328026,770.863449328026,770.863449328026,770.863449328026,770.863449328026,770.863449328026,770.863449328026,770.863449328026,repeat,letter,lettRpt,j,2.4434259599947836,vtsPrac,773.3328594780178,,,,,,,,,,,,,,,,,,,,,,,,,,,,,86542,2022-11-15_14h05.40.266,vts_reward_expectancy_bt_OFFLINE,2022.2.4,59.914083798130804,
