LTriangleOpac,LCircleOpac,LHexagonOpac,LStarOpac,RTriangleOpac,RCircleOpac,RHexagonOpac,RStarOpac,LShape_ID,RShape_ID,training_blocks.thisRepN,training_blocks.thisTrialN,training_blocks.thisN,training_blocks.thisIndex,training.thisRepN,training.thisTrialN,training.thisN,training.thisIndex,task1_prac_redo.thisRepN,task1_prac_redo.thisTrialN,task1_prac_redo.thisN,task1_prac_redo.thisIndex,task1_prac_trials.thisRepN,task1_prac_trials.thisTrialN,task1_prac_trials.thisN,task1_prac_trials.thisIndex,task2_prac_redo.thisRepN,task2_prac_redo.thisTrialN,task2_prac_redo.thisN,task2_prac_redo.thisIndex,task2_praac_trials.thisRepN,task2_praac_trials.thisTrialN,task2_praac_trials.thisN,task2_praac_trials.thisIndex,vts_prac_redo.thisRepN,vts_prac_redo.thisTrialN,vts_prac_redo.thisN,vts_prac_redo.thisIndex,vts_practice_trials.thisRepN,vts_practice_trials.thisTrialN,vts_practice_trials.thisN,vts_practice_trials.thisIndex,trials_norew.thisRepN,trials_norew.thisTrialN,trials_norew.thisN,trials_norew.thisIndex,block.thisRepN,block.thisTrialN,block.thisN,block.thisIndex,trials_rew.thisRepN,trials_rew.thisTrialN,trials_rew.thisN,trials_rew.thisIndex,key_resp.started,key_resp.keys,key_resp.rt,left_circle.started,right_circle.started,left_triangle.started,right_triangle.started,left_star.started,right_star.started,left_hexagon.started,right_hexagon.started,training_fix.started,training_resp.started,training_resp.keys,training_resp.rt,points_trial,points_cumul,trainBlock,training_feedback_txt.started,fix.started,training_feedback_txt.stopped,curr_topStim,curr_bottStim,curr_shape,ISI.started,tgt_fix_prac1.started,top_target_prac1.started,bott_target_prac1.started,target_resp_prac1.started,top_target_prac1.stopped,tgt_fix_prac1.stopped,bott_target_prac1.stopped,target_resp_prac1.stopped,acc,E1,target_resp_prac1.keys,pracBlock,prac_fback_text.started,prac_fback_text.stopped,fix.stopped,target_resp_prac1.rt,tgt_fix_prac2.started,top_target_prac2.started,bott_target_prac2.started,target_resp_prac2.started,target_resp_prac2.keys,target_resp_prac2.rt,star.started,hegagon.started,triangle.started,circle.started,star.stopped,hegagon.stopped,triangle.stopped,circle.stopped,top_target.started,tgt_fix.started,bot_target.started,target_resp.started,alt,task,condition,target_resp.keys,target_resp.rt,rewCond,vts_fback.started,blockNum,norew_fback.started,norew_fback.stopped,key_resp_2.keys,key_resp_2.rt,rewExpectancy,feedbk_text.started,feedbk_text.stopped,text_3.started,text_3.stopped,button.started,debrief.index,debrief.itemText,debrief.type,debrief.granularity,debrief.font,debrief.markerColor,debrief.response,debrief.rt,button.numClicks,button.timesOn,button.timesOff,participant,date,expName,psychopyVersion,frameRate,
,,,,,,,,,,,,,,,,,,,,,,,,,,,,,,,,,,,,,,,,,,,,,,,,,,,,,,959.9223012339935,space,47.788681471996824,,,,,,,,,,,,,,,,,,,,,,,,,,,,,,,,,,,,,,,,,,,,,,,,,,,,,,,,,,,,,,,,,,,,,,,,,,,,,,,,,,,,,,90200,2022-10-28_14h56.09.170,vts_reward_expectancy_bt_OFFLINE,2022.2.4,59.94487158089674,
0,0,0,1,0,1,0,0,star ,circle,0,0,0,0,0,0,0,10,,,,,,,,,,,,,,,,,,,,,,,,,,,,,,,,,,,,,,,,1039.9397068919934,1039.9397068919934,1039.9397068919934,1039.9397068919934,1039.9397068919934,1039.9397068919934,1039.9397068919934,1039.9397068919934,1039.9397068919934,1039.9397068919934,l,2.867703600000823,1,1,0,1042.8387991639902,1044.3401628010033,,,,,,,,,,,,,,,,,,,,,,,,,,,,,,,,,,,,,,,,,,,,,,,,,,,,,,,,,,,,,,,,,,,,,90200,2022-10-28_14h56.09.170,vts_reward_expectancy_bt_OFFLINE,2022.2.4,59.94487158089674,
0,0,0,1,0,0,1,0,star,hexagon,0,0,0,0,0,1,1,11,,,,,,,,,,,,,,,,,,,,,,,,,,,,,,,,,,,,,,,,1044.8407315910008,1044.8407315910008,1044.8407315910008,1044.8407315910008,1044.8407315910008,1044.8407315910008,1044.8407315910008,1044.8407315910008,1044.8407315910008,1044.8407315910008,a,1.0868883420043858,1,2,0,1045.958405354002,1047.4602672799956,,,,,,,,,,,,,,,,,,,,,,,,,,,,,,,,,,,,,,,,,,,,,,,,,,,,,,,,,,,,,,,,,,,,,90200,2022-10-28_14h56.09.170,vts_reward_expectancy_bt_OFFLINE,2022.2.4,59.94487158089674,
1,0,0,0,0,1,0,0,triangle,circle,0,0,0,0,0,2,2,0,,,,,,,,,,,,,,,,,,,,,,,,,,,,,,,,,,,,,,,,1047.9607561619923,1047.9607561619923,1047.9607561619923,1047.9607561619923,1047.9607561619923,1047.9607561619923,1047.9607561619923,1047.9607561619923,1047.9607561619923,1047.9607561619923,a,1.8793393069936428,1,3,0,1049.8628346309997,1051.3643580490025,,,,,,,,,,,,,,,,,,,,,,,,,,,,,,,,,,,,,,,,,,,,,,,,,,,,,,,,,,,,,,,,,,,,,90200,2022-10-28_14h56.09.170,vts_reward_expectancy_bt_OFFLINE,2022.2.4,59.94487158089674,
0,1,0,0,1,0,0,0,circle,triangle,0,0,0,0,0,3,3,3,,,,,,,,,,,,,,,,,,,,,,,,,,,,,,,,,,,,,,,,1051.8650319070002,1051.8650319070002,1051.8650319070002,1051.8650319070002,1051.8650319070002,1051.8650319070002,1051.8650319070002,1051.8650319070002,1051.8650319070002,1051.8650319070002,a,4.487026258997503,1,4,0,1056.370121711996,1057.8719529079972,,,,,,,,,,,,,,,,,,,,,,,,,,,,,,,,,,,,,,,,,,,,,,,,,,,,,,,,,,,,,,,,,,,,,90200,2022-10-28_14h56.09.170,vts_reward_expectancy_bt_OFFLINE,2022.2.4,59.94487158089674,
0,1,0,0,0,0,0,1,circle,star,0,0,0,0,0,4,4,5,,,,,,,,,,,,,,,,,,,,,,,,,,,,,,,,,,,,,,,,1058.3722118669975,1058.3722118669975,1058.3722118669975,1058.3722118669975,1058.3722118669975,1058.3722118669975,1058.3722118669975,1058.3722118669975,1058.3722118669975,1058.3722118669975,l,3.020835535993683,10,14,0,1061.4259709570033,1062.9274976089946,,,,,,,,,,,,,,,,,,,,,,,,,,,,,,,,,,,,,,,,,,,,,,,,,,,,,,,,,,,,,,,,,,,,,90200,2022-10-28_14h56.09.170,vts_reward_expectancy_bt_OFFLINE,2022.2.4,59.94487158089674,
1,0,0,0,0,0,0,1,triangle,star,0,0,0,0,0,5,5,2,,,,,,,,,,,,,,,,,,,,,,,,,,,,,,,,,,,,,,,,1063.4279351939913,1063.4279351939913,1063.4279351939913,1063.4279351939913,1063.4279351939913,1063.4279351939913,1063.4279351939913,1063.4279351939913,1063.4279351939913,1063.4279351939913,a,2.059278375993017,10,24,0,1065.5138473569968,1067.01515495099,,,,,,,,,,,,,,,,,,,,,,,,,,,,,,,,,,,,,,,,,,,,,,,,,,,,,,,,,,,,,,,,,,,,,90200,2022-10-28_14h56.09.170,vts_reward_expectancy_bt_OFFLINE,2022.2.4,59.94487158089674,
0,0,0,1,1,0,0,0,star,triangle,0,0,0,0,0,6,6,9,,,,,,,,,,,,,,,,,,,,,,,,,,,,,,,,,,,,,,,,1067.5155836740014,1067.5155836740014,1067.5155836740014,1067.5155836740014,1067.5155836740014,1067.5155836740014,1067.5155836740014,1067.5155836740014,1067.5155836740014,1067.5155836740014,l,2.491899090993684,10,34,0,1070.035091725993,1071.5367877419922,,,,,,,,,,,,,,,,,,,,,,,,,,,,,,,,,,,,,,,,,,,,,,,,,,,,,,,,,,,,,,,,,,,,,90200,2022-10-28_14h56.09.170,vts_reward_expectancy_bt_OFFLINE,2022.2.4,59.94487158089674,
0,0,1,0,0,1,0,0,hexagon,circle,0,0,0,0,0,7,7,7,,,,,,,,,,,,,,,,,,,,,,,,,,,,,,,,,,,,,,,,1072.037364674994,1072.037364674994,1072.037364674994,1072.037364674994,1072.037364674994,1072.037364674994,1072.037364674994,1072.037364674994,1072.037364674994,1072.037364674994,a,1.2669526109966682,10,44,0,1073.3223139530019,1074.8236413529958,,,,,,,,,,,,,,,,,,,,,,,,,,,,,,,,,,,,,,,,,,,,,,,,,,,,,,,,,,,,,,,,,,,,,90200,2022-10-28_14h56.09.170,vts_reward_expectancy_bt_OFFLINE,2022.2.4,59.94487158089674,
0,1,0,0,0,0,1,0,circle,hexagon,0,0,0,0,0,8,8,4,,,,,,,,,,,,,,,,,,,,,,,,,,,,,,,,,,,,,,,,1075.3243859670038,1075.3243859670038,1075.3243859670038,1075.3243859670038,1075.3243859670038,1075.3243859670038,1075.3243859670038,1075.3243859670038,1075.3243859670038,1075.3243859670038,a,1.4358843819936737,1,45,0,1076.7926328739995,1078.2941520579916,,,,,,,,,,,,,,,,,,,,,,,,,,,,,,,,,,,,,,,,,,,,,,,,,,,,,,,,,,,,,,,,,,,,,90200,2022-10-28_14h56.09.170,vts_reward_expectancy_bt_OFFLINE,2022.2.4,59.94487158089674,
0,0,1,0,1,0,0,0,hexagon,triangle,0,0,0,0,0,9,9,6,,,,,,,,,,,,,,,,,,,,,,,,,,,,,,,,,,,,,,,,1078.7948402850016,1078.7948402850016,1078.7948402850016,1078.7948402850016,1078.7948402850016,1078.7948402850016,1078.7948402850016,1078.7948402850016,1078.7948402850016,1078.7948402850016,a,3.1097484279889613,10,55,0,1081.9317427969945,1083.4332612129947,,,,,,,,,,,,,,,,,,,,,,,,,,,,,,,,,,,,,,,,,,,,,,,,,,,,,,,,,,,,,,,,,,,,,90200,2022-10-28_14h56.09.170,vts_reward_expectancy_bt_OFFLINE,2022.2.4,59.94487158089674,
1,0,0,0,0,0,1,0,triangle,hexagon,0,0,0,0,0,10,10,1,,,,,,,,,,,,,,,,,,,,,,,,,,,,,,,,,,,,,,,,1083.933895137001,1083.933895137001,1083.933895137001,1083.933895137001,1083.933895137001,1083.933895137001,1083.933895137001,1083.933895137001,1083.933895137001,1083.933895137001,l,6.658497647003969,10,65,0,1090.624450051997,1092.1262287389982,,,,,,,,,,,,,,,,,,,,,,,,,,,,,,,,,,,,,,,,,,,,,,,,,,,,,,,,,,,,,,,,,,,,,90200,2022-10-28_14h56.09.170,vts_reward_expectancy_bt_OFFLINE,2022.2.4,59.94487158089674,
0,0,1,0,0,0,0,1,hexagon,star,0,0,0,0,0,11,11,8,,,,,,,,,,,,,,,,,,,,,,,,,,,,,,,,,,,,,,,,1092.6267173239903,1092.6267173239903,1092.6267173239903,1092.6267173239903,1092.6267173239903,1092.6267173239903,1092.6267173239903,1092.6267173239903,1092.6267173239903,1092.6267173239903,l,3.340969184995629,1,66,0,1095.9970922469947,1097.4987893240032,,,,,,,,,,,,,,,,,,,,,,,,,,,,,,,,,,,,,,,,,,,,,,,,,,,,,,,,,,,,,,,,,,,,,90200,2022-10-28_14h56.09.170,vts_reward_expectancy_bt_OFFLINE,2022.2.4,59.94487158089674,
0,0,0,1,0,1,0,0,star ,circle,0,0,0,0,1,0,12,10,,,,,,,,,,,,,,,,,,,,,,,,,,,,,,,,,,,,,,,,1097.9992425959936,1097.9992425959936,1097.9992425959936,1097.9992425959936,1097.9992425959936,1097.9992425959936,1097.9992425959936,1097.9992425959936,1097.9992425959936,1097.9992425959936,a,1.112820792986895,1,67,0,1099.1337040090002,1100.635660519998,,,,,,,,,,,,,,,,,,,,,,,,,,,,,,,,,,,,,,,,,,,,,,,,,,,,,,,,,,,,,,,,,,,,,90200,2022-10-28_14h56.09.170,vts_reward_expectancy_bt_OFFLINE,2022.2.4,59.94487158089674,
0,0,1,0,1,0,0,0,hexagon,triangle,0,0,0,0,1,1,13,6,,,,,,,,,,,,,,,,,,,,,,,,,,,,,,,,,,,,,,,,1101.1362018439977,1101.1362018439977,1101.1362018439977,1101.1362018439977,1101.1362018439977,1101.1362018439977,1101.1362018439977,1101.1362018439977,1101.1362018439977,1101.1362018439977,a,1.624558581999736,10,77,0,1102.7878805569926,1104.289757778999,,,,,,,,,,,,,,,,,,,,,,,,,,,,,,,,,,,,,,,,,,,,,,,,,,,,,,,,,,,,,,,,,,,,,90200,2022-10-28_14h56.09.170,vts_reward_expectancy_bt_OFFLINE,2022.2.4,59.94487158089674,
0,0,1,0,0,0,0,1,hexagon,star,0,0,0,0,1,2,14,8,,,,,,,,,,,,,,,,,,,,,,,,,,,,,,,,,,,,,,,,1104.790069825991,1104.790069825991,1104.790069825991,1104.790069825991,1104.790069825991,1104.790069825991,1104.790069825991,1104.790069825991,1104.790069825991,1104.790069825991,a,2.3704356730013387,10,87,0,1107.192841547003,1108.6944224929903,,,,,,,,,,,,,,,,,,,,,,,,,,,,,,,,,,,,,,,,,,,,,,,,,,,,,,,,,,,,,,,,,,,,,90200,2022-10-28_14h56.09.170,vts_reward_expectancy_bt_OFFLINE,2022.2.4,59.94487158089674,
0,1,0,0,0,0,0,1,circle,star,0,0,0,0,1,3,15,5,,,,,,,,,,,,,,,,,,,,,,,,,,,,,,,,,,,,,,,,1109.1950493350014,1109.1950493350014,1109.1950493350014,1109.1950493350014,1109.1950493350014,1109.1950493350014,1109.1950493350014,1109.1950493350014,1109.1950493350014,1109.1950493350014,a,4.515800640991074,1,88,0,1113.7334414689976,1115.2350362689904,,,,,,,,,,,,,,,,,,,,,,,,,,,,,,,,,,,,,,,,,,,,,,,,,,,,,,,,,,,,,,,,,,,,,90200,2022-10-28_14h56.09.170,vts_reward_expectancy_bt_OFFLINE,2022.2.4,59.94487158089674,
1,0,0,0,0,0,0,1,triangle,star,0,0,0,0,1,4,16,2,,,,,,,,,,,,,,,,,,,,,,,,,,,,,,,,,,,,,,,,1115.735597974999,1115.735597974999,1115.735597974999,1115.735597974999,1115.735597974999,1115.735597974999,1115.735597974999,1115.735597974999,1115.735597974999,1115.735597974999,l,1.495337180007482,10,98,0,1117.2538756010035,1118.7555510599923,,,,,,,,,,,,,,,,,,,,,,,,,,,,,,,,,,,,,,,,,,,,,,,,,,,,,,,,,,,,,,,,,,,,,90200,2022-10-28_14h56.09.170,vts_reward_expectancy_bt_OFFLINE,2022.2.4,59.94487158089674,
0,1,0,0,1,0,0,0,circle,triangle,0,0,0,0,1,5,17,3,,,,,,,,,,,,,,,,,,,,,,,,,,,,,,,,,,,,,,,,1119.2560629509971,1119.2560629509971,1119.2560629509971,1119.2560629509971,1119.2560629509971,1119.2560629509971,1119.2560629509971,1119.2560629509971,1119.2560629509971,1119.2560629509971,l,1.863791694995598,1,99,0,1121.1415213629953,1122.6430189300008,,,,,,,,,,,,,,,,,,,,,,,,,,,,,,,,,,,,,,,,,,,,,,,,,,,,,,,,,,,,,,,,,,,,,90200,2022-10-28_14h56.09.170,vts_reward_expectancy_bt_OFFLINE,2022.2.4,59.94487158089674,
0,0,0,1,0,0,1,0,star,hexagon,0,0,0,0,1,6,18,11,,,,,,,,,,,,,,,,,,,,,,,,,,,,,,,,,,,,,,,,1123.1435955859924,1123.1435955859924,1123.1435955859924,1123.1435955859924,1123.1435955859924,1123.1435955859924,1123.1435955859924,1123.1435955859924,1123.1435955859924,1123.1435955859924,a,1.2799634099937975,1,100,0,1124.445019174993,1125.9467482369946,,,,,,,,,,,,,,,,,,,,,,,,,,,,,,,,,,,,,,,,,,,,,,,,,,,,,,,,,,,,,,,,,,,,,90200,2022-10-28_14h56.09.170,vts_reward_expectancy_bt_OFFLINE,2022.2.4,59.94487158089674,
1,0,0,0,0,1,0,0,triangle,circle,0,0,0,0,1,7,19,0,,,,,,,,,,,,,,,,,,,,,,,,,,,,,,,,,,,,,,,,1126.4473978140013,1126.4473978140013,1126.4473978140013,1126.4473978140013,1126.4473978140013,1126.4473978140013,1126.4473978140013,1126.4473978140013,1126.4473978140013,1126.4473978140013,a,2.2481303550011944,10,110,0,1128.7166047139908,1130.2181671809958,,,,,,,,,,,,,,,,,,,,,,,,,,,,,,,,,,,,,,,,,,,,,,,,,,,,,,,,,,,,,,,,,,,,,90200,2022-10-28_14h56.09.170,vts_reward_expectancy_bt_OFFLINE,2022.2.4,59.94487158089674,
0,0,1,0,0,1,0,0,hexagon,circle,0,0,0,0,1,8,20,7,,,,,,,,,,,,,,,,,,,,,,,,,,,,,,,,,,,,,,,,1130.7187540070008,1130.7187540070008,1130.7187540070008,1130.7187540070008,1130.7187540070008,1130.7187540070008,1130.7187540070008,1130.7187540070008,1130.7187540070008,1130.7187540070008,a,1.1859548720094608,1,111,0,1131.9369202980015,1133.4383136480028,,,,,,,,,,,,,,,,,,,,,,,,,,,,,,,,,,,,,,,,,,,,,,,,,,,,,,,,,,,,,,,,,,,,,90200,2022-10-28_14h56.09.170,vts_reward_expectancy_bt_OFFLINE,2022.2.4,59.94487158089674,
0,0,0,1,1,0,0,0,star,triangle,0,0,0,0,1,9,21,9,,,,,,,,,,,,,,,,,,,,,,,,,,,,,,,,,,,,,,,,1133.938962426997,1133.938962426997,1133.938962426997,1133.938962426997,1133.938962426997,1133.938962426997,1133.938962426997,1133.938962426997,1133.938962426997,1133.938962426997,l,0.7568526989925886,10,121,0,1134.723109116996,1136.2247042410017,,,,,,,,,,,,,,,,,,,,,,,,,,,,,,,,,,,,,,,,,,,,,,,,,,,,,,,,,,,,,,,,,,,,,90200,2022-10-28_14h56.09.170,vts_reward_expectancy_bt_OFFLINE,2022.2.4,59.94487158089674,
0,1,0,0,0,0,1,0,circle,hexagon,0,0,0,0,1,10,22,4,,,,,,,,,,,,,,,,,,,,,,,,,,,,,,,,,,,,,,,,1136.725332556991,1136.725332556991,1136.725332556991,1136.725332556991,1136.725332556991,1136.725332556991,1136.725332556991,1136.725332556991,1136.725332556991,1136.725332556991,l,1.554174150005565,10,131,0,1138.3104380540026,1139.811897120002,,,,,,,,,,,,,,,,,,,,,,,,,,,,,,,,,,,,,,,,,,,,,,,,,,,,,,,,,,,,,,,,,,,,,90200,2022-10-28_14h56.09.170,vts_reward_expectancy_bt_OFFLINE,2022.2.4,59.94487158089674,
1,0,0,0,0,0,1,0,triangle,hexagon,0,0,0,0,1,11,23,1,,,,,,,,,,,,,,,,,,,,,,,,,,,,,,,,,,,,,,,,1140.312877121003,1140.312877121003,1140.312877121003,1140.312877121003,1140.312877121003,1140.312877121003,1140.312877121003,1140.312877121003,1140.312877121003,1140.312877121003,l,1.9829058769973926,10,141,0,1142.314978659997,1143.8166336229915,,,,,,,,,,,,,,,,,,,,,,,,,,,,,,,,,,,,,,,,,,,,,,,,,,,,,,,,,,,,,,,,,,,,,90200,2022-10-28_14h56.09.170,vts_reward_expectancy_bt_OFFLINE,2022.2.4,59.94487158089674,
0,0,0,1,1,0,0,0,star,triangle,0,0,0,0,2,0,24,9,,,,,,,,,,,,,,,,,,,,,,,,,,,,,,,,,,,,,,,,1144.3170494880032,1144.3170494880032,1144.3170494880032,1144.3170494880032,1144.3170494880032,1144.3170494880032,1144.3170494880032,1144.3170494880032,1144.3170494880032,1144.3170494880032,a,0.9948450959927868,1,142,0,1145.3350057019998,1146.8366416450008,,,,,,,,,,,,,,,,,,,,,,,,,,,,,,,,,,,,,,,,,,,,,,,,,,,,,,,,,,,,,,,,,,,,,90200,2022-10-28_14h56.09.170,vts_reward_expectancy_bt_OFFLINE,2022.2.4,59.94487158089674,
0,1,0,0,1,0,0,0,circle,triangle,0,0,0,0,2,1,25,3,,,,,,,,,,,,,,,,,,,,,,,,,,,,,,,,,,,,,,,,1147.3370132639975,1147.3370132639975,1147.3370132639975,1147.3370132639975,1147.3370132639975,1147.3370132639975,1147.3370132639975,1147.3370132639975,1147.3370132639975,1147.3370132639975,l,1.3420715370011749,1,143,0,1148.7053610430012,1150.207007178993,,,,,,,,,,,,,,,,,,,,,,,,,,,,,,,,,,,,,,,,,,,,,,,,,,,,,,,,,,,,,,,,,,,,,90200,2022-10-28_14h56.09.170,vts_reward_expectancy_bt_OFFLINE,2022.2.4,59.94487158089674,
0,1,0,0,0,0,0,1,circle,star,0,0,0,0,2,2,26,5,,,,,,,,,,,,,,,,,,,,,,,,,,,,,,,,,,,,,,,,1150.7074718520016,1150.7074718520016,1150.7074718520016,1150.7074718520016,1150.7074718520016,1150.7074718520016,1150.7074718520016,1150.7074718520016,1150.7074718520016,1150.7074718520016,l,1.1724165019841166,10,153,0,1151.9089681640035,1153.4104756960005,,,,,,,,,,,,,,,,,,,,,,,,,,,,,,,,,,,,,,,,,,,,,,,,,,,,,,,,,,,,,,,,,,,,,90200,2022-10-28_14h56.09.170,vts_reward_expectancy_bt_OFFLINE,2022.2.4,59.94487158089674,
1,0,0,0,0,0,1,0,triangle,hexagon,0,0,0,0,2,3,27,1,,,,,,,,,,,,,,,,,,,,,,,,,,,,,,,,,,,,,,,,1153.911059502003,1153.911059502003,1153.911059502003,1153.911059502003,1153.911059502003,1153.911059502003,1153.911059502003,1153.911059502003,1153.911059502003,1153.911059502003,l,1.6245906619878951,1,154,0,1155.5629258599947,1157.0642622430023,,,,,,,,,,,,,,,,,,,,,,,,,,,,,,,,,,,,,,,,,,,,,,,,,,,,,,,,,,,,,,,,,,,,,90200,2022-10-28_14h56.09.170,vts_reward_expectancy_bt_OFFLINE,2022.2.4,59.94487158089674,
0,0,1,0,0,1,0,0,hexagon,circle,0,0,0,0,2,4,28,7,,,,,,,,,,,,,,,,,,,,,,,,,,,,,,,,,,,,,,,,1157.5649679429916,1157.5649679429916,1157.5649679429916,1157.5649679429916,1157.5649679429916,1157.5649679429916,1157.5649679429916,1157.5649679429916,1157.5649679429916,1157.5649679429916,a,0.6263152110041119,10,164,0,1158.2156890469923,1159.7174156690016,,,,,,,,,,,,,,,,,,,,,,,,,,,,,,,,,,,,,,,,,,,,,,,,,,,,,,,,,,,,,,,,,,,,,90200,2022-10-28_14h56.09.170,vts_reward_expectancy_bt_OFFLINE,2022.2.4,59.94487158089674,
0,0,1,0,1,0,0,0,hexagon,triangle,0,0,0,0,2,5,29,6,,,,,,,,,,,,,,,,,,,,,,,,,,,,,,,,,,,,,,,,1160.218133692004,1160.218133692004,1160.218133692004,1160.218133692004,1160.218133692004,1160.218133692004,1160.218133692004,1160.218133692004,1160.218133692004,1160.218133692004,a,2.8932851279969327,1,165,0,1163.137803096004,1164.6394740090036,,,,,,,,,,,,,,,,,,,,,,,,,,,,,,,,,,,,,,,,,,,,,,,,,,,,,,,,,,,,,,,,,,,,,90200,2022-10-28_14h56.09.170,vts_reward_expectancy_bt_OFFLINE,2022.2.4,59.94487158089674,
1,0,0,0,0,0,0,1,triangle,star,0,0,0,0,2,6,30,2,,,,,,,,,,,,,,,,,,,,,,,,,,,,,,,,,,,,,,,,1165.1402103589935,1165.1402103589935,1165.1402103589935,1165.1402103589935,1165.1402103589935,1165.1402103589935,1165.1402103589935,1165.1402103589935,1165.1402103589935,1165.1402103589935,l,1.1316610799985938,1,166,0,1166.2913159719901,1167.792948547998,,,,,,,,,,,,,,,,,,,,,,,,,,,,,,,,,,,,,,,,,,,,,,,,,,,,,,,,,,,,,,,,,,,,,90200,2022-10-28_14h56.09.170,vts_reward_expectancy_bt_OFFLINE,2022.2.4,59.94487158089674,
1,0,0,0,0,1,0,0,triangle,circle,0,0,0,0,2,7,31,0,,,,,,,,,,,,,,,,,,,,,,,,,,,,,,,,,,,,,,,,1168.293793069999,1168.293793069999,1168.293793069999,1168.293793069999,1168.293793069999,1168.293793069999,1168.293793069999,1168.293793069999,1168.293793069999,1168.293793069999,l,1.4902133760042489,10,176,0,1169.8118685969966,1171.3134674449975,,,,,,,,,,,,,,,,,,,,,,,,,,,,,,,,,,,,,,,,,,,,,,,,,,,,,,,,,,,,,,,,,,,,,90200,2022-10-28_14h56.09.170,vts_reward_expectancy_bt_OFFLINE,2022.2.4,59.94487158089674,
0,0,1,0,0,0,0,1,hexagon,star,0,0,0,0,2,8,32,8,,,,,,,,,,,,,,,,,,,,,,,,,,,,,,,,,,,,,,,,1171.8139751769922,1171.8139751769922,1171.8139751769922,1171.8139751769922,1171.8139751769922,1171.8139751769922,1171.8139751769922,1171.8139751769922,1171.8139751769922,1171.8139751769922,a,0.9534332229959546,10,186,0,1172.7984046079946,1174.3000778129935,,,,,,,,,,,,,,,,,,,,,,,,,,,,,,,,,,,,,,,,,,,,,,,,,,,,,,,,,,,,,,,,,,,,,90200,2022-10-28_14h56.09.170,vts_reward_expectancy_bt_OFFLINE,2022.2.4,59.94487158089674,
0,1,0,0,0,0,1,0,circle,hexagon,0,0,0,0,2,9,33,4,,,,,,,,,,,,,,,,,,,,,,,,,,,,,,,,,,,,,,,,1174.800788737004,1174.800788737004,1174.800788737004,1174.800788737004,1174.800788737004,1174.800788737004,1174.800788737004,1174.800788737004,1174.800788737004,1174.800788737004,a,1.358943596991594,1,187,0,1176.185551646995,1177.6871444949938,,,,,,,,,,,,,,,,,,,,,,,,,,,,,,,,,,,,,,,,,,,,,,,,,,,,,,,,,,,,,,,,,,,,,90200,2022-10-28_14h56.09.170,vts_reward_expectancy_bt_OFFLINE,2022.2.4,59.94487158089674,
0,0,0,1,0,1,0,0,star ,circle,0,0,0,0,2,10,34,10,,,,,,,,,,,,,,,,,,,,,,,,,,,,,,,,,,,,,,,,1178.1876505260007,1178.1876505260007,1178.1876505260007,1178.1876505260007,1178.1876505260007,1178.1876505260007,1178.1876505260007,1178.1876505260007,1178.1876505260007,1178.1876505260007,l,1.6191966339974897,1,188,0,1179.8396340129984,1181.3413440680015,,,,,,,,,,,,,,,,,,,,,,,,,,,,,,,,,,,,,,,,,,,,,,,,,,,,,,,,,,,,,,,,,,,,,90200,2022-10-28_14h56.09.170,vts_reward_expectancy_bt_OFFLINE,2022.2.4,59.94487158089674,
0,0,0,1,0,0,1,0,star,hexagon,0,0,0,0,2,11,35,11,,,,,,,,,,,,,,,,,,,,,,,,,,,,,,,,,,,,,,,,1181.8419851329963,1181.8419851329963,1181.8419851329963,1181.8419851329963,1181.8419851329963,1181.8419851329963,1181.8419851329963,1181.8419851329963,1181.8419851329963,1181.8419851329963,l,1.7490972279920243,10,198,0,1183.6104364990024,1185.1120865690027,,,,,,,,,,,,,,,,,,,,,,,,,,,,,,,,,,,,,,,,,,,,,,,,,,,,,,,,,,,,,,,,,,,,,90200,2022-10-28_14h56.09.170,vts_reward_expectancy_bt_OFFLINE,2022.2.4,59.94487158089674,
0,0,1,0,1,0,0,0,hexagon,triangle,0,0,0,0,3,0,36,6,,,,,,,,,,,,,,,,,,,,,,,,,,,,,,,,,,,,,,,,1185.612681322993,1185.612681322993,1185.612681322993,1185.612681322993,1185.612681322993,1185.612681322993,1185.612681322993,1185.612681322993,1185.612681322993,1185.612681322993,a,1.3071293319953838,1,199,0,1186.9473212829907,1188.4491696399928,,,,,,,,,,,,,,,,,,,,,,,,,,,,,,,,,,,,,,,,,,,,,,,,,,,,,,,,,,,,,,,,,,,,,90200,2022-10-28_14h56.09.170,vts_reward_expectancy_bt_OFFLINE,2022.2.4,59.94487158089674,
0,0,1,0,0,0,0,1,hexagon,star,0,0,0,0,3,1,37,8,,,,,,,,,,,,,,,,,,,,,,,,,,,,,,,,,,,,,,,,1188.949842971997,1188.949842971997,1188.949842971997,1188.949842971997,1188.949842971997,1188.949842971997,1188.949842971997,1188.949842971997,1188.949842971997,1188.949842971997,a,3.1139612199913245,10,209,0,1192.0864257319918,1193.5883896089945,,,,,,,,,,,,,,,,,,,,,,,,,,,,,,,,,,,,,,,,,,,,,,,,,,,,,,,,,,,,,,,,,,,,,90200,2022-10-28_14h56.09.170,vts_reward_expectancy_bt_OFFLINE,2022.2.4,59.94487158089674,
1,0,0,0,0,0,1,0,triangle,hexagon,0,0,0,0,3,2,38,1,,,,,,,,,,,,,,,,,,,,,,,,,,,,,,,,,,,,,,,,1194.0889553189918,1194.0889553189918,1194.0889553189918,1194.0889553189918,1194.0889553189918,1194.0889553189918,1194.0889553189918,1194.0889553189918,1194.0889553189918,1194.0889553189918,a,1.8073835149989463,1,210,0,1195.923973596,1197.4256156570045,,,,,,,,,,,,,,,,,,,,,,,,,,,,,,,,,,,,,,,,,,,,,,,,,,,,,,,,,,,,,,,,,,,,,90200,2022-10-28_14h56.09.170,vts_reward_expectancy_bt_OFFLINE,2022.2.4,59.94487158089674,
0,0,0,1,0,0,1,0,star,hexagon,0,0,0,0,3,3,39,11,,,,,,,,,,,,,,,,,,,,,,,,,,,,,,,,,,,,,,,,1197.9261443249998,1197.9261443249998,1197.9261443249998,1197.9261443249998,1197.9261443249998,1197.9261443249998,1197.9261443249998,1197.9261443249998,1197.9261443249998,1197.9261443249998,l,1.5529338859923882,10,220,0,1199.5112666499917,1201.0131936489925,,,,,,,,,,,,,,,,,,,,,,,,,,,,,,,,,,,,,,,,,,,,,,,,,,,,,,,,,,,,,,,,,,,,,90200,2022-10-28_14h56.09.170,vts_reward_expectancy_bt_OFFLINE,2022.2.4,59.94487158089674,
1,0,0,0,0,1,0,0,triangle,circle,0,0,0,0,3,4,40,0,,,,,,,,,,,,,,,,,,,,,,,,,,,,,,,,,,,,,,,,1201.5134727440018,1201.5134727440018,1201.5134727440018,1201.5134727440018,1201.5134727440018,1201.5134727440018,1201.5134727440018,1201.5134727440018,1201.5134727440018,1201.5134727440018,l,2.214240230998257,10,230,0,1203.7492548349983,1205.2511995870009,,,,,,,,,,,,,,,,,,,,,,,,,,,,,,,,,,,,,,,,,,,,,,,,,,,,,,,,,,,,,,,,,,,,,90200,2022-10-28_14h56.09.170,vts_reward_expectancy_bt_OFFLINE,2022.2.4,59.94487158089674,
0,0,1,0,0,1,0,0,hexagon,circle,0,0,0,0,3,5,41,7,,,,,,,,,,,,,,,,,,,,,,,,,,,,,,,,,,,,,,,,1205.751762742002,1205.751762742002,1205.751762742002,1205.751762742002,1205.751762742002,1205.751762742002,1205.751762742002,1205.751762742002,1205.751762742002,1205.751762742002,a,0.6170695699838689,10,240,0,1206.385408720991,1207.8872797689983,,,,,,,,,,,,,,,,,,,,,,,,,,,,,,,,,,,,,,,,,,,,,,,,,,,,,,,,,,,,,,,,,,,,,90200,2022-10-28_14h56.09.170,vts_reward_expectancy_bt_OFFLINE,2022.2.4,59.94487158089674,
0,0,0,1,0,1,0,0,star ,circle,0,0,0,0,3,6,42,10,,,,,,,,,,,,,,,,,,,,,,,,,,,,,,,,,,,,,,,,1208.3877527059958,1208.3877527059958,1208.3877527059958,1208.3877527059958,1208.3877527059958,1208.3877527059958,1208.3877527059958,1208.3877527059958,1208.3877527059958,1208.3877527059958,a,1.5161761979979929,10,250,0,1209.9228440540028,1211.4243483019964,,,,,,,,,,,,,,,,,,,,,,,,,,,,,,,,,,,,,,,,,,,,,,,,,,,,,,,,,,,,,,,,,,,,,90200,2022-10-28_14h56.09.170,vts_reward_expectancy_bt_OFFLINE,2022.2.4,59.94487158089674,
0,1,0,0,0,0,0,1,circle,star,0,0,0,0,3,7,43,5,,,,,,,,,,,,,,,,,,,,,,,,,,,,,,,,,,,,,,,,1211.9250269920012,1211.9250269920012,1211.9250269920012,1211.9250269920012,1211.9250269920012,1211.9250269920012,1211.9250269920012,1211.9250269920012,1211.9250269920012,1211.9250269920012,l,2.0672783790068934,10,260,0,1214.0106125649909,1215.512153388001,,,,,,,,,,,,,,,,,,,,,,,,,,,,,,,,,,,,,,,,,,,,,,,,,,,,,,,,,,,,,,,,,,,,,90200,2022-10-28_14h56.09.170,vts_reward_expectancy_bt_OFFLINE,2022.2.4,59.94487158089674,
0,1,0,0,0,0,1,0,circle,hexagon,0,0,0,0,3,8,44,4,,,,,,,,,,,,,,,,,,,,,,,,,,,,,,,,,,,,,,,,1216.0127963209961,1216.0127963209961,1216.0127963209961,1216.0127963209961,1216.0127963209961,1216.0127963209961,1216.0127963209961,1216.0127963209961,1216.0127963209961,1216.0127963209961,l,1.0518008149956586,1,261,0,1217.0972983770043,1218.5989314229955,,,,,,,,,,,,,,,,,,,,,,,,,,,,,,,,,,,,,,,,,,,,,,,,,,,,,,,,,,,,,,,,,,,,,90200,2022-10-28_14h56.09.170,vts_reward_expectancy_bt_OFFLINE,2022.2.4,59.94487158089674,
0,1,0,0,1,0,0,0,circle,triangle,0,0,0,0,3,9,45,3,,,,,,,,,,,,,,,,,,,,,,,,,,,,,,,,,,,,,,,,1219.0995570919913,1219.0995570919913,1219.0995570919913,1219.0995570919913,1219.0995570919913,1219.0995570919913,1219.0995570919913,1219.0995570919913,1219.0995570919913,1219.0995570919913,l,1.4436913079989608,10,271,0,1220.5677411039942,1222.0698417899985,,,,,,,,,,,,,,,,,,,,,,,,,,,,,,,,,,,,,,,,,,,,,,,,,,,,,,,,,,,,,,,,,,,,,90200,2022-10-28_14h56.09.170,vts_reward_expectancy_bt_OFFLINE,2022.2.4,59.94487158089674,
1,0,0,0,0,0,0,1,triangle,star,0,0,0,0,3,10,46,2,,,,,,,,,,,,,,,,,,,,,,,,,,,,,,,,,,,,,,,,1222.5702490660042,1222.5702490660042,1222.5702490660042,1222.5702490660042,1222.5702490660042,1222.5702490660042,1222.5702490660042,1222.5702490660042,1222.5702490660042,1222.5702490660042,a,1.0858613820018945,10,281,0,1223.688081209999,1225.1897119920031,,,,,,,,,,,,,,,,,,,,,,,,,,,,,,,,,,,,,,,,,,,,,,,,,,,,,,,,,,,,,,,,,,,,,90200,2022-10-28_14h56.09.170,vts_reward_expectancy_bt_OFFLINE,2022.2.4,59.94487158089674,
0,0,0,1,1,0,0,0,star,triangle,0,0,0,0,3,11,47,9,,,,,,,,,,,,,,,,,,,,,,,,,,,,,,,,,,,,,,,,1225.6904416409961,1225.6904416409961,1225.6904416409961,1225.6904416409961,1225.6904416409961,1225.6904416409961,1225.6904416409961,1225.6904416409961,1225.6904416409961,1225.6904416409961,l,1.8047551719937474,1,282,0,1227.5255404939962,1229.0271737720032,,,,,,,,,,,,,,,,,,,,,,,,,,,,,,,,,,,,,,,,,,,,,,,,,,,,,,,,,,,,,,,,,,,,,90200,2022-10-28_14h56.09.170,vts_reward_expectancy_bt_OFFLINE,2022.2.4,59.94487158089674,
0,0,1,0,0,1,0,0,hexagon,circle,1,0,1,0,0,0,0,7,,,,,,,,,,,,,,,,,,,,,,,,,,,,,,,,,,,,,,,,1236.5071331039944,1236.5071331039944,1236.5071331039944,1236.5071331039944,1236.5071331039944,1236.5071331039944,1236.5071331039944,1236.5071331039944,1236.5071331039944,1236.5071331039944,a,1.5725744130031671,1,283,1,1238.1039435720013,1239.6054764040018,,,,,,,,,,,,,,,,,,,,,,,,,,,,,,,,,,,,,,,,,,,,,,,,,,,,,,,,,,,,,,,,,,,,,90200,2022-10-28_14h56.09.170,vts_reward_expectancy_bt_OFFLINE,2022.2.4,59.94487158089674,
0,0,0,1,0,0,1,0,star,hexagon,1,0,1,0,0,1,1,11,,,,,,,,,,,,,,,,,,,,,,,,,,,,,,,,,,,,,,,,1240.1061025109957,1240.1061025109957,1240.1061025109957,1240.1061025109957,1240.1061025109957,1240.1061025109957,1240.1061025109957,1240.1061025109957,1240.1061025109957,1240.1061025109957,a,0.9817582700052299,1,284,1,1241.1071988109907,1242.6089356459997,,,,,,,,,,,,,,,,,,,,,,,,,,,,,,,,,,,,,,,,,,,,,,,,,,,,,,,,,,,,,,,,,,,,,90200,2022-10-28_14h56.09.170,vts_reward_expectancy_bt_OFFLINE,2022.2.4,59.94487158089674,
0,1,0,0,0,0,1,0,circle,hexagon,1,0,1,0,0,2,2,4,,,,,,,,,,,,,,,,,,,,,,,,,,,,,,,,,,,,,,,,1243.1093570319936,1243.1093570319936,1243.1093570319936,1243.1093570319936,1243.1093570319936,1243.1093570319936,1243.1093570319936,1243.1093570319936,1243.1093570319936,1243.1093570319936,l,1.0513222080044216,1,285,1,1244.1771532059938,1245.6789335329959,,,,,,,,,,,,,,,,,,,,,,,,,,,,,,,,,,,,,,,,,,,,,,,,,,,,,,,,,,,,,,,,,,,,,90200,2022-10-28_14h56.09.170,vts_reward_expectancy_bt_OFFLINE,2022.2.4,59.94487158089674,
0,0,1,0,1,0,0,0,hexagon,triangle,1,0,1,0,0,3,3,6,,,,,,,,,,,,,,,,,,,,,,,,,,,,,,,,,,,,,,,,1246.1794749389956,1246.1794749389956,1246.1794749389956,1246.1794749389956,1246.1794749389956,1246.1794749389956,1246.1794749389956,1246.1794749389956,1246.1794749389956,1246.1794749389956,a,0.7080899870052235,1,286,1,1246.9135961019929,1248.4152231570042,,,,,,,,,,,,,,,,,,,,,,,,,,,,,,,,,,,,,,,,,,,,,,,,,,,,,,,,,,,,,,,,,,,,,90200,2022-10-28_14h56.09.170,vts_reward_expectancy_bt_OFFLINE,2022.2.4,59.94487158089674,
1,0,0,0,0,1,0,0,triangle,circle,1,0,1,0,0,4,4,0,,,,,,,,,,,,,,,,,,,,,,,,,,,,,,,,,,,,,,,,1248.9158562489902,1248.9158562489902,1248.9158562489902,1248.9158562489902,1248.9158562489902,1248.9158562489902,1248.9158562489902,1248.9158562489902,1248.9158562489902,1248.9158562489902,a,0.9068281950021628,10,296,1,1249.8501759659994,1251.3518493909942,,,,,,,,,,,,,,,,,,,,,,,,,,,,,,,,,,,,,,,,,,,,,,,,,,,,,,,,,,,,,,,,,,,,,90200,2022-10-28_14h56.09.170,vts_reward_expectancy_bt_OFFLINE,2022.2.4,59.94487158089674,
1,0,0,0,0,0,0,1,triangle,star,1,0,1,0,0,5,5,2,,,,,,,,,,,,,,,,,,,,,,,,,,,,,,,,,,,,,,,,1251.8522702820046,1251.8522702820046,1251.8522702820046,1251.8522702820046,1251.8522702820046,1251.8522702820046,1251.8522702820046,1251.8522702820046,1251.8522702820046,1251.8522702820046,a,1.1070266110036755,10,306,1,1252.9869705349993,1254.4885615639942,,,,,,,,,,,,,,,,,,,,,,,,,,,,,,,,,,,,,,,,,,,,,,,,,,,,,,,,,,,,,,,,,,,,,90200,2022-10-28_14h56.09.170,vts_reward_expectancy_bt_OFFLINE,2022.2.4,59.94487158089674,
0,0,0,1,0,1,0,0,star ,circle,1,0,1,0,0,6,6,10,,,,,,,,,,,,,,,,,,,,,,,,,,,,,,,,,,,,,,,,1254.9891320820025,1254.9891320820025,1254.9891320820025,1254.9891320820025,1254.9891320820025,1254.9891320820025,1254.9891320820025,1254.9891320820025,1254.9891320820025,1254.9891320820025,l,1.1467085579934064,10,316,1,1256.157082122998,1257.658751690993,,,,,,,,,,,,,,,,,,,,,,,,,,,,,,,,,,,,,,,,,,,,,,,,,,,,,,,,,,,,,,,,,,,,,90200,2022-10-28_14h56.09.170,vts_reward_expectancy_bt_OFFLINE,2022.2.4,59.94487158089674,
0,0,0,1,1,0,0,0,star,triangle,1,0,1,0,0,7,7,9,,,,,,,,,,,,,,,,,,,,,,,,,,,,,,,,,,,,,,,,1258.1586498559918,1258.1586498559918,1258.1586498559918,1258.1586498559918,1258.1586498559918,1258.1586498559918,1258.1586498559918,1258.1586498559918,1258.1586498559918,1258.1586498559918,a,1.1858803429931868,1,317,1,1259.3606710780005,1260.862333408004,1260.862333408004,,,,,,,,,,,,,,,,,,,,,,,,,,,,,,,,,,,,,,,,,,,,,,,,,,,,,,,,,,,,,,,,,,,,90200,2022-10-28_14h56.09.170,vts_reward_expectancy_bt_OFFLINE,2022.2.4,59.94487158089674,
1,0,0,0,0,0,1,0,triangle,hexagon,1,0,1,0,0,8,8,1,,,,,,,,,,,,,,,,,,,,,,,,,,,,,,,,,,,,,,,,1261.3630271830043,1261.3630271830043,1261.3630271830043,1261.3630271830043,1261.3630271830043,1261.3630271830043,1261.3630271830043,1261.3630271830043,1261.3630271830043,1261.3630271830043,a,0.6679334439977538,1,318,1,1262.0636252219992,1263.5651729459933,,,,,,,,,,,,,,,,,,,,,,,,,,,,,,,,,,,,,,,,,,,,,,,,,,,,,,,,,,,,,,,,,,,,,90200,2022-10-28_14h56.09.170,vts_reward_expectancy_bt_OFFLINE,2022.2.4,59.94487158089674,
0,1,0,0,0,0,0,1,circle,star,1,0,1,0,0,9,9,5,,,,,,,,,,,,,,,,,,,,,,,,,,,,,,,,,,,,,,,,1264.0657638940029,1264.0657638940029,1264.0657638940029,1264.0657638940029,1264.0657638940029,1264.0657638940029,1264.0657638940029,1264.0657638940029,1264.0657638940029,1264.0657638940029,l,2.1091718019888503,1,319,1,1266.2016328019963,1267.7031424899906,,,,,,,,,,,,,,,,,,,,,,,,,,,,,,,,,,,,,,,,,,,,,,,,,,,,,,,,,,,,,,,,,,,,,90200,2022-10-28_14h56.09.170,vts_reward_expectancy_bt_OFFLINE,2022.2.4,59.94487158089674,
0,0,1,0,0,0,0,1,hexagon,star,1,0,1,0,0,10,10,8,,,,,,,,,,,,,,,,,,,,,,,,,,,,,,,,,,,,,,,,1268.203767243991,1268.203767243991,1268.203767243991,1268.203767243991,1268.203767243991,1268.203767243991,1268.203767243991,1268.203767243991,1268.203767243991,1268.203767243991,a,0.9868324370036134,1,320,1,1269.2214210480015,1270.723269078997,,,,,,,,,,,,,,,,,,,,,,,,,,,,,,,,,,,,,,,,,,,,,,,,,,,,,,,,,,,,,,,,,,,,,90200,2022-10-28_14h56.09.170,vts_reward_expectancy_bt_OFFLINE,2022.2.4,59.94487158089674,
0,1,0,0,1,0,0,0,circle,triangle,1,0,1,0,0,11,11,3,,,,,,,,,,,,,,,,,,,,,,,,,,,,,,,,,,,,,,,,1271.2237866060022,1271.2237866060022,1271.2237866060022,1271.2237866060022,1271.2237866060022,1271.2237866060022,1271.2237866060022,1271.2237866060022,1271.2237866060022,1271.2237866060022,a,0.7028319639939582,10,330,1,1271.9578786460042,1273.4594303339982,,,,,,,,,,,,,,,,,,,,,,,,,,,,,,,,,,,,,,,,,,,,,,,,,,,,,,,,,,,,,,,,,,,,,90200,2022-10-28_14h56.09.170,vts_reward_expectancy_bt_OFFLINE,2022.2.4,59.94487158089674,
0,1,0,0,1,0,0,0,circle,triangle,1,0,1,0,1,0,12,3,,,,,,,,,,,,,,,,,,,,,,,,,,,,,,,,,,,,,,,,1273.9600271239906,1273.9600271239906,1273.9600271239906,1273.9600271239906,1273.9600271239906,1273.9600271239906,1273.9600271239906,1273.9600271239906,1273.9600271239906,1273.9600271239906,l,1.5271337669837521,1,331,1,1275.5120000649913,1277.013322985993,,,,,,,,,,,,,,,,,,,,,,,,,,,,,,,,,,,,,,,,,,,,,,,,,,,,,,,,,,,,,,,,,,,,,90200,2022-10-28_14h56.09.170,vts_reward_expectancy_bt_OFFLINE,2022.2.4,59.94487158089674,
0,0,0,1,0,1,0,0,star ,circle,1,0,1,0,1,1,13,10,,,,,,,,,,,,,,,,,,,,,,,,,,,,,,,,,,,,,,,,1277.5140267550014,1277.5140267550014,1277.5140267550014,1277.5140267550014,1277.5140267550014,1277.5140267550014,1277.5140267550014,1277.5140267550014,1277.5140267550014,1277.5140267550014,l,1.9494377490045736,1,332,1,1279.4830668969953,1280.9845017960033,,,,,,,,,,,,,,,,,,,,,,,,,,,,,,,,,,,,,,,,,,,,,,,,,,,,,,,,,,,,,,,,,,,,,90200,2022-10-28_14h56.09.170,vts_reward_expectancy_bt_OFFLINE,2022.2.4,59.94487158089674,
0,1,0,0,0,0,0,1,circle,star,1,0,1,0,1,2,14,5,,,,,,,,,,,,,,,,,,,,,,,,,,,,,,,,,,,,,,,,1281.484986629992,1281.484986629992,1281.484986629992,1281.484986629992,1281.484986629992,1281.484986629992,1281.484986629992,1281.484986629992,1281.484986629992,1281.484986629992,a,2.491440383993904,1,333,1,1284.0043839830032,1285.5060155230021,,,,,,,,,,,,,,,,,,,,,,,,,,,,,,,,,,,,,,,,,,,,,,,,,,,,,,,,,,,,,,,,,,,,,90200,2022-10-28_14h56.09.170,vts_reward_expectancy_bt_OFFLINE,2022.2.4,59.94487158089674,
0,0,1,0,1,0,0,0,hexagon,triangle,1,0,1,0,1,3,15,6,,,,,,,,,,,,,,,,,,,,,,,,,,,,,,,,,,,,,,,,1286.0066526919982,1286.0066526919982,1286.0066526919982,1286.0066526919982,1286.0066526919982,1286.0066526919982,1286.0066526919982,1286.0066526919982,1286.0066526919982,1286.0066526919982,a,0.7520031339954585,10,343,1,1286.7908747129986,1288.2924747100042,,,,,,,,,,,,,,,,,,,,,,,,,,,,,,,,,,,,,,,,,,,,,,,,,,,,,,,,,,,,,,,,,,,,,90200,2022-10-28_14h56.09.170,vts_reward_expectancy_bt_OFFLINE,2022.2.4,59.94487158089674,
1,0,0,0,0,0,0,1,triangle,star,1,0,1,0,1,4,16,2,,,,,,,,,,,,,,,,,,,,,,,,,,,,,,,,,,,,,,,,1288.7931205780042,1288.7931205780042,1288.7931205780042,1288.7931205780042,1288.7931205780042,1288.7931205780042,1288.7931205780042,1288.7931205780042,1288.7931205780042,1288.7931205780042,a,0.6303582639957312,10,353,1,1289.4438118499966,1290.945665584004,,,,,,,,,,,,,,,,,,,,,,,,,,,,,,,,,,,,,,,,,,,,,,,,,,,,,,,,,,,,,,,,,,,,,90200,2022-10-28_14h56.09.170,vts_reward_expectancy_bt_OFFLINE,2022.2.4,59.94487158089674,
1,0,0,0,0,1,0,0,triangle,circle,1,0,1,0,1,5,17,0,,,,,,,,,,,,,,,,,,,,,,,,,,,,,,,,,,,,,,,,1291.446161726999,1291.446161726999,1291.446161726999,1291.446161726999,1291.446161726999,1291.446161726999,1291.446161726999,1291.446161726999,1291.446161726999,1291.446161726999,a,0.8659443899960024,10,363,1,1292.3302403080015,1293.8321949480014,,,,,,,,,,,,,,,,,,,,,,,,,,,,,,,,,,,,,,,,,,,,,,,,,,,,,,,,,,,,,,,,,,,,,90200,2022-10-28_14h56.09.170,vts_reward_expectancy_bt_OFFLINE,2022.2.4,59.94487158089674,
1,0,0,0,0,0,1,0,triangle,hexagon,1,0,1,0,1,6,18,1,,,,,,,,,,,,,,,,,,,,,,,,,,,,,,,,,,,,,,,,1294.332586878998,1294.332586878998,1294.332586878998,1294.332586878998,1294.332586878998,1294.332586878998,1294.332586878998,1294.332586878998,1294.332586878998,1294.332586878998,l,0.9541315699898405,1,364,1,1295.3169917630003,1296.8187165059935,,,,,,,,,,,,,,,,,,,,,,,,,,,,,,,,,,,,,,,,,,,,,,,,,,,,,,,,,,,,,,,,,,,,,90200,2022-10-28_14h56.09.170,vts_reward_expectancy_bt_OFFLINE,2022.2.4,59.94487158089674,
0,0,0,1,1,0,0,0,star,triangle,1,0,1,0,1,7,19,9,,,,,,,,,,,,,,,,,,,,,,,,,,,,,,,,,,,,,,,,1297.3191499469976,1297.3191499469976,1297.3191499469976,1297.3191499469976,1297.3191499469976,1297.3191499469976,1297.3191499469976,1297.3191499469976,1297.3191499469976,1297.3191499469976,a,1.1768805319879903,1,365,1,1298.520754002995,1300.0221390069928,,,,,,,,,,,,,,,,,,,,,,,,,,,,,,,,,,,,,,,,,,,,,,,,,,,,,,,,,,,,,,,,,,,,,90200,2022-10-28_14h56.09.170,vts_reward_expectancy_bt_OFFLINE,2022.2.4,59.94487158089674,
0,0,0,1,0,0,1,0,star,hexagon,1,0,1,0,1,8,20,11,,,,,,,,,,,,,,,,,,,,,,,,,,,,,,,,,,,,,,,,1300.5225700570008,1300.5225700570008,1300.5225700570008,1300.5225700570008,1300.5225700570008,1300.5225700570008,1300.5225700570008,1300.5225700570008,1300.5225700570008,1300.5225700570008,l,1.636821312000393,1,366,1,1302.191169917991,1303.6927162759966,,,,,,,,,,,,,,,,,,,,,,,,,,,,,,,,,,,,,,,,,,,,,,,,,,,,,,,,,,,,,,,,,,,,,90200,2022-10-28_14h56.09.170,vts_reward_expectancy_bt_OFFLINE,2022.2.4,59.94487158089674,
0,0,1,0,0,1,0,0,hexagon,circle,1,0,1,0,1,9,21,7,,,,,,,,,,,,,,,,,,,,,,,,,,,,,,,,,,,,,,,,1304.1935481330001,1304.1935481330001,1304.1935481330001,1304.1935481330001,1304.1935481330001,1304.1935481330001,1304.1935481330001,1304.1935481330001,1304.1935481330001,1304.1935481330001,a,0.5737216029956471,10,376,1,1304.7941174180014,1306.2957998079946,,,,,,,,,,,,,,,,,,,,,,,,,,,,,,,,,,,,,,,,,,,,,,,,,,,,,,,,,,,,,,,,,,,,,90200,2022-10-28_14h56.09.170,vts_reward_expectancy_bt_OFFLINE,2022.2.4,59.94487158089674,
0,0,1,0,0,0,0,1,hexagon,star,1,0,1,0,1,10,22,8,,,,,,,,,,,,,,,,,,,,,,,,,,,,,,,,,,,,,,,,1306.7963634859916,1306.7963634859916,1306.7963634859916,1306.7963634859916,1306.7963634859916,1306.7963634859916,1306.7963634859916,1306.7963634859916,1306.7963634859916,1306.7963634859916,a,0.6681193260010332,1,377,1,1307.4969246480032,1308.9986202,,,,,,,,,,,,,,,,,,,,,,,,,,,,,,,,,,,,,,,,,,,,,,,,,,,,,,,,,,,,,,,,,,,,,90200,2022-10-28_14h56.09.170,vts_reward_expectancy_bt_OFFLINE,2022.2.4,59.94487158089674,
0,1,0,0,0,0,1,0,circle,hexagon,1,0,1,0,1,11,23,4,,,,,,,,,,,,,,,,,,,,,,,,,,,,,,,,,,,,,,,,1309.4994289059978,1309.4994289059978,1309.4994289059978,1309.4994289059978,1309.4994289059978,1309.4994289059978,1309.4994289059978,1309.4994289059978,1309.4994289059978,1309.4994289059978,l,0.7735250599944266,10,387,1,1310.300213082999,1311.8018304500001,,,,,,,,,,,,,,,,,,,,,,,,,,,,,,,,,,,,,,,,,,,,,,,,,,,,,,,,,,,,,,,,,,,,,90200,2022-10-28_14h56.09.170,vts_reward_expectancy_bt_OFFLINE,2022.2.4,59.94487158089674,
0,0,1,0,0,0,0,1,hexagon,star,1,0,1,0,2,0,24,8,,,,,,,,,,,,,,,,,,,,,,,,,,,,,,,,,,,,,,,,1312.3023924799927,1312.3023924799927,1312.3023924799927,1312.3023924799927,1312.3023924799927,1312.3023924799927,1312.3023924799927,1312.3023924799927,1312.3023924799927,1312.3023924799927,a,0.7291421979898587,1,388,1,1313.053353383002,1314.5551002729917,,,,,,,,,,,,,,,,,,,,,,,,,,,,,,,,,,,,,,,,,,,,,,,,,,,,,,,,,,,,,,,,,,,,,90200,2022-10-28_14h56.09.170,vts_reward_expectancy_bt_OFFLINE,2022.2.4,59.94487158089674,
1,0,0,0,0,0,0,1,triangle,star,1,0,1,0,2,1,25,2,,,,,,,,,,,,,,,,,,,,,,,,,,,,,,,,,,,,,,,,1315.0554086240008,1315.0554086240008,1315.0554086240008,1315.0554086240008,1315.0554086240008,1315.0554086240008,1315.0554086240008,1315.0554086240008,1315.0554086240008,1315.0554086240008,a,0.8645377420034492,10,398,1,1315.939840395993,1317.441348006003,,,,,,,,,,,,,,,,,,,,,,,,,,,,,,,,,,,,,,,,,,,,,,,,,,,,,,,,,,,,,,,,,,,,,90200,2022-10-28_14h56.09.170,vts_reward_expectancy_bt_OFFLINE,2022.2.4,59.94487158089674,
0,0,0,1,0,1,0,0,star ,circle,1,0,1,0,2,2,26,10,,,,,,,,,,,,,,,,,,,,,,,,,,,,,,,,,,,,,,,,1317.9421254859917,1317.9421254859917,1317.9421254859917,1317.9421254859917,1317.9421254859917,1317.9421254859917,1317.9421254859917,1317.9421254859917,1317.9421254859917,1317.9421254859917,l,2.129139104989008,1,399,1,1320.0942975759972,1321.5958757089975,,,,,,,,,,,,,,,,,,,,,,,,,,,,,,,,,,,,,,,,,,,,,,,,,,,,,,,,,,,,,,,,,,,,,90200,2022-10-28_14h56.09.170,vts_reward_expectancy_bt_OFFLINE,2022.2.4,59.94487158089674,
0,0,0,1,0,0,1,0,star,hexagon,1,0,1,0,2,3,27,11,,,,,,,,,,,,,,,,,,,,,,,,,,,,,,,,,,,,,,,,1322.0965219810023,1322.0965219810023,1322.0965219810023,1322.0965219810023,1322.0965219810023,1322.0965219810023,1322.0965219810023,1322.0965219810023,1322.0965219810023,1322.0965219810023,l,0.9352547430025879,10,409,1,1323.064260493993,1324.5659604039975,,,,,,,,,,,,,,,,,,,,,,,,,,,,,,,,,,,,,,,,,,,,,,,,,,,,,,,,,,,,,,,,,,,,,90200,2022-10-28_14h56.09.170,vts_reward_expectancy_bt_OFFLINE,2022.2.4,59.94487158089674,
0,1,0,0,0,0,1,0,circle,hexagon,1,0,1,0,2,4,28,4,,,,,,,,,,,,,,,,,,,,,,,,,,,,,,,,,,,,,,,,1325.0665585910028,1325.0665585910028,1325.0665585910028,1325.0665585910028,1325.0665585910028,1325.0665585910028,1325.0665585910028,1325.0665585910028,1325.0665585910028,1325.0665585910028,l,1.4207024329953128,1,410,1,1326.5179818960023,1328.0196608179976,,,,,,,,,,,,,,,,,,,,,,,,,,,,,,,,,,,,,,,,,,,,,,,,,,,,,,,,,,,,,,,,,,,,,90200,2022-10-28_14h56.09.170,vts_reward_expectancy_bt_OFFLINE,2022.2.4,59.94487158089674,
0,1,0,0,0,0,0,1,circle,star,1,0,1,0,2,5,29,5,,,,,,,,,,,,,,,,,,,,,,,,,,,,,,,,,,,,,,,,1328.5204709550017,1328.5204709550017,1328.5204709550017,1328.5204709550017,1328.5204709550017,1328.5204709550017,1328.5204709550017,1328.5204709550017,1328.5204709550017,1328.5204709550017,l,0.9515102629957255,1,411,1,1329.5047032500006,1331.0061837800022,,,,,,,,,,,,,,,,,,,,,,,,,,,,,,,,,,,,,,,,,,,,,,,,,,,,,,,,,,,,,,,,,,,,,90200,2022-10-28_14h56.09.170,vts_reward_expectancy_bt_OFFLINE,2022.2.4,59.94487158089674,
1,0,0,0,0,0,1,0,triangle,hexagon,1,0,1,0,2,6,30,1,,,,,,,,,,,,,,,,,,,,,,,,,,,,,,,,,,,,,,,,1331.5066999209957,1331.5066999209957,1331.5066999209957,1331.5066999209957,1331.5066999209957,1331.5066999209957,1331.5066999209957,1331.5066999209957,1331.5066999209957,1331.5066999209957,l,1.4758652680029627,1,412,1,1333.0069173319935,1334.5095229860017,,,,,,,,,,,,,,,,,,,,,,,,,,,,,,,,,,,,,,,,,,,,,,,,,,,,,,,,,,,,,,,,,,,,,90200,2022-10-28_14h56.09.170,vts_reward_expectancy_bt_OFFLINE,2022.2.4,59.94487158089674,
0,0,0,1,1,0,0,0,star,triangle,1,0,1,0,2,7,31,9,,,,,,,,,,,,,,,,,,,,,,,,,,,,,,,,,,,,,,,,1335.0108657020028,1335.0108657020028,1335.0108657020028,1335.0108657020028,1335.0108657020028,1335.0108657020028,1335.0108657020028,1335.0108657020028,1335.0108657020028,1335.0108657020028,l,1.0763448469951982,10,422,1,1336.1108322039945,1337.6122520299978,,,,,,,,,,,,,,,,,,,,,,,,,,,,,,,,,,,,,,,,,,,,,,,,,,,,,,,,,,,,,,,,,,,,,90200,2022-10-28_14h56.09.170,vts_reward_expectancy_bt_OFFLINE,2022.2.4,59.94487158089674,
0,0,1,0,0,1,0,0,hexagon,circle,1,0,1,0,2,8,32,7,,,,,,,,,,,,,,,,,,,,,,,,,,,,,,,,,,,,,,,,1338.112777147995,1338.112777147995,1338.112777147995,1338.112777147995,1338.112777147995,1338.112777147995,1338.112777147995,1338.112777147995,1338.112777147995,1338.112777147995,a,1.2698533789953217,1,423,1,1339.4143033650034,1340.917333809004,,,,,,,,,,,,,,,,,,,,,,,,,,,,,,,,,,,,,,,,,,,,,,,,,,,,,,,,,,,,,,,,,,,,,90200,2022-10-28_14h56.09.170,vts_reward_expectancy_bt_OFFLINE,2022.2.4,59.94487158089674,
0,0,1,0,1,0,0,0,hexagon,triangle,1,0,1,0,2,9,33,6,,,,,,,,,,,,,,,,,,,,,,,,,,,,,,,,,,,,,,,,1341.4178264490038,1341.4178264490038,1341.4178264490038,1341.4178264490038,1341.4178264490038,1341.4178264490038,1341.4178264490038,1341.4178264490038,1341.4178264490038,1341.4178264490038,l,0.4855832269968232,1,424,1,1341.9350578279991,1343.4367166239972,,,,,,,,,,,,,,,,,,,,,,,,,,,,,,,,,,,,,,,,,,,,,,,,,,,,,,,,,,,,,,,,,,,,,90200,2022-10-28_14h56.09.170,vts_reward_expectancy_bt_OFFLINE,2022.2.4,59.94487158089674,
1,0,0,0,0,1,0,0,triangle,circle,1,0,1,0,2,10,34,0,,,,,,,,,,,,,,,,,,,,,,,,,,,,,,,,,,,,,,,,1343.9372628889978,1343.9372628889978,1343.9372628889978,1343.9372628889978,1343.9372628889978,1343.9372628889978,1343.9372628889978,1343.9372628889978,1343.9372628889978,1343.9372628889978,l,0.4936488880048273,1,425,1,1344.4544521700009,1345.9562664169935,,,,,,,,,,,,,,,,,,,,,,,,,,,,,,,,,,,,,,,,,,,,,,,,,,,,,,,,,,,,,,,,,,,,,90200,2022-10-28_14h56.09.170,vts_reward_expectancy_bt_OFFLINE,2022.2.4,59.94487158089674,
0,1,0,0,1,0,0,0,circle,triangle,1,0,1,0,2,11,35,3,,,,,,,,,,,,,,,,,,,,,,,,,,,,,,,,,,,,,,,,1346.4567623679905,1346.4567623679905,1346.4567623679905,1346.4567623679905,1346.4567623679905,1346.4567623679905,1346.4567623679905,1346.4567623679905,1346.4567623679905,1346.4567623679905,l,0.7591191649989923,10,435,1,1347.2402575720043,1348.7425556300004,,,,,,,,,,,,,,,,,,,,,,,,,,,,,,,,,,,,,,,,,,,,,,,,,,,,,,,,,,,,,,,,,,,,,90200,2022-10-28_14h56.09.170,vts_reward_expectancy_bt_OFFLINE,2022.2.4,59.94487158089674,
0,0,1,0,1,0,0,0,hexagon,triangle,1,0,1,0,3,0,36,6,,,,,,,,,,,,,,,,,,,,,,,,,,,,,,,,,,,,,,,,1349.2434210770007,1349.2434210770007,1349.2434210770007,1349.2434210770007,1349.2434210770007,1349.2434210770007,1349.2434210770007,1349.2434210770007,1349.2434210770007,1349.2434210770007,a,0.8437462269939715,1,436,1,1350.1102253510035,1351.6123974639922,,,,,,,,,,,,,,,,,,,,,,,,,,,,,,,,,,,,,,,,,,,,,,,,,,,,,,,,,,,,,,,,,,,,,90200,2022-10-28_14h56.09.170,vts_reward_expectancy_bt_OFFLINE,2022.2.4,59.94487158089674,
0,0,1,0,0,1,0,0,hexagon,circle,1,0,1,0,3,1,37,7,,,,,,,,,,,,,,,,,,,,,,,,,,,,,,,,,,,,,,,,1352.1128211059986,1352.1128211059986,1352.1128211059986,1352.1128211059986,1352.1128211059986,1352.1128211059986,1352.1128211059986,1352.1128211059986,1352.1128211059986,1352.1128211059986,a,1.719333472996368,10,446,1,1353.8647743299953,1355.3665168909938,,,,,,,,,,,,,,,,,,,,,,,,,,,,,,,,,,,,,,,,,,,,,,,,,,,,,,,,,,,,,,,,,,,,,90200,2022-10-28_14h56.09.170,vts_reward_expectancy_bt_OFFLINE,2022.2.4,59.94487158089674,
1,0,0,0,0,0,1,0,triangle,hexagon,1,0,1,0,3,2,38,1,,,,,,,,,,,,,,,,,,,,,,,,,,,,,,,,,,,,,,,,1355.8672834649915,1355.8672834649915,1355.8672834649915,1355.8672834649915,1355.8672834649915,1355.8672834649915,1355.8672834649915,1355.8672834649915,1355.8672834649915,1355.8672834649915,a,2.7409306059998926,10,456,1,1358.6368157120014,1360.1386779909953,,,,,,,,,,,,,,,,,,,,,,,,,,,,,,,,,,,,,,,,,,,,,,,,,,,,,,,,,,,,,,,,,,,,,90200,2022-10-28_14h56.09.170,vts_reward_expectancy_bt_OFFLINE,2022.2.4,59.94487158089674,
0,0,0,1,0,1,0,0,star ,circle,1,0,1,0,3,3,39,10,,,,,,,,,,,,,,,,,,,,,,,,,,,,,,,,,,,,,,,,1360.6391422710003,1360.6391422710003,1360.6391422710003,1360.6391422710003,1360.6391422710003,1360.6391422710003,1360.6391422710003,1360.6391422710003,1360.6391422710003,1360.6391422710003,a,0.9039556279894896,10,466,1,1361.5733944599924,1363.0750680380006,,,,,,,,,,,,,,,,,,,,,,,,,,,,,,,,,,,,,,,,,,,,,,,,,,,,,,,,,,,,,,,,,,,,,90200,2022-10-28_14h56.09.170,vts_reward_expectancy_bt_OFFLINE,2022.2.4,59.94487158089674,
0,0,1,0,0,0,0,1,hexagon,star,1,0,1,0,3,4,40,8,,,,,,,,,,,,,,,,,,,,,,,,,,,,,,,,,,,,,,,,1363.5755744649941,1363.5755744649941,1363.5755744649941,1363.5755744649941,1363.5755744649941,1363.5755744649941,1363.5755744649941,1363.5755744649941,1363.5755744649941,1363.5755744649941,a,2.0246648949978407,10,476,1,1365.6278892289993,1367.1294346299983,,,,,,,,,,,,,,,,,,,,,,,,,,,,,,,,,,,,,,,,,,,,,,,,,,,,,,,,,,,,,,,,,,,,,90200,2022-10-28_14h56.09.170,vts_reward_expectancy_bt_OFFLINE,2022.2.4,59.94487158089674,
0,0,0,1,1,0,0,0,star,triangle,1,0,1,0,3,5,41,9,,,,,,,,,,,,,,,,,,,,,,,,,,,,,,,,,,,,,,,,1367.6302302949916,1367.6302302949916,1367.6302302949916,1367.6302302949916,1367.6302302949916,1367.6302302949916,1367.6302302949916,1367.6302302949916,1367.6302302949916,1367.6302302949916,l,1.7532518149964744,10,486,1,1369.4153828389972,1370.917087363996,,,,,,,,,,,,,,,,,,,,,,,,,,,,,,,,,,,,,,,,,,,,,,,,,,,,,,,,,,,,,,,,,,,,,90200,2022-10-28_14h56.09.170,vts_reward_expectancy_bt_OFFLINE,2022.2.4,59.94487158089674,
0,1,0,0,0,0,0,1,circle,star,1,0,1,0,3,6,42,5,,,,,,,,,,,,,,,,,,,,,,,,,,,,,,,,,,,,,,,,1371.4176831149962,1371.4176831149962,1371.4176831149962,1371.4176831149962,1371.4176831149962,1371.4176831149962,1371.4176831149962,1371.4176831149962,1371.4176831149962,1371.4176831149962,a,1.1819214830029523,10,496,1,1372.6187672369997,1374.1206214609992,,,,,,,,,,,,,,,,,,,,,,,,,,,,,,,,,,,,,,,,,,,,,,,,,,,,,,,,,,,,,,,,,,,,,90200,2022-10-28_14h56.09.170,vts_reward_expectancy_bt_OFFLINE,2022.2.4,59.94487158089674,
0,0,0,1,0,0,1,0,star,hexagon,1,0,1,0,3,7,43,11,,,,,,,,,,,,,,,,,,,,,,,,,,,,,,,,,,,,,,,,1374.6211244199949,1374.6211244199949,1374.6211244199949,1374.6211244199949,1374.6211244199949,1374.6211244199949,1374.6211244199949,1374.6211244199949,1374.6211244199949,1374.6211244199949,l,3.234295029003988,1,497,1,1377.8748311399977,1379.3763798589935,,,,,,,,,,,,,,,,,,,,,,,,,,,,,,,,,,,,,,,,,,,,,,,,,,,,,,,,,,,,,,,,,,,,,90200,2022-10-28_14h56.09.170,vts_reward_expectancy_bt_OFFLINE,2022.2.4,59.94487158089674,
1,0,0,0,0,0,0,1,triangle,star,1,0,1,0,3,8,44,2,,,,,,,,,,,,,,,,,,,,,,,,,,,,,,,,,,,,,,,,1379.876919353992,1379.876919353992,1379.876919353992,1379.876919353992,1379.876919353992,1379.876919353992,1379.876919353992,1379.876919353992,1379.876919353992,1379.876919353992,a,1.4910749059927184,10,507,1,1381.3951746989915,1382.8969978029927,,,,,,,,,,,,,,,,,,,,,,,,,,,,,,,,,,,,,,,,,,,,,,,,,,,,,,,,,,,,,,,,,,,,,90200,2022-10-28_14h56.09.170,vts_reward_expectancy_bt_OFFLINE,2022.2.4,59.94487158089674,
0,1,0,0,0,0,1,0,circle,hexagon,1,0,1,0,3,9,45,4,,,,,,,,,,,,,,,,,,,,,,,,,,,,,,,,,,,,,,,,1383.3974395989935,1383.3974395989935,1383.3974395989935,1383.3974395989935,1383.3974395989935,1383.3974395989935,1383.3974395989935,1383.3974395989935,1383.3974395989935,1383.3974395989935,a,2.7615413409948815,1,508,1,1386.1839165819983,1387.6855350559927,,,,,,,,,,,,,,,,,,,,,,,,,,,,,,,,,,,,,,,,,,,,,,,,,,,,,,,,,,,,,,,,,,,,,90200,2022-10-28_14h56.09.170,vts_reward_expectancy_bt_OFFLINE,2022.2.4,59.94487158089674,
0,1,0,0,1,0,0,0,circle,triangle,1,0,1,0,3,10,46,3,,,,,,,,,,,,,,,,,,,,,,,,,,,,,,,,,,,,,,,,1388.186098324004,1388.186098324004,1388.186098324004,1388.186098324004,1388.186098324004,1388.186098324004,1388.186098324004,1388.186098324004,1388.186098324004,1388.186098324004,l,1.3970217099849833,10,518,1,1389.6043877929915,1391.1061385319917,,,,,,,,,,,,,,,,,,,,,,,,,,,,,,,,,,,,,,,,,,,,,,,,,,,,,,,,,,,,,,,,,,,,,90200,2022-10-28_14h56.09.170,vts_reward_expectancy_bt_OFFLINE,2022.2.4,59.94487158089674,
1,0,0,0,0,1,0,0,triangle,circle,1,0,1,0,3,11,47,0,,,,,,,,,,,,,,,,,,,,,,,,,,,,,,,,,,,,,,,,1391.606482092,1391.606482092,1391.606482092,1391.606482092,1391.606482092,1391.606482092,1391.606482092,1391.606482092,1391.606482092,1391.606482092,l,2.5206508260016562,10,528,1,1394.1593481220043,1395.6609501950006,,,,,,,,,,,,,,,,,,,,,,,,,,,,,,,,,,,,,,,,,,,,,,,,,,,,,,,,,,,,,,,,,,,,,90200,2022-10-28_14h56.09.170,vts_reward_expectancy_bt_OFFLINE,2022.2.4,59.94487158089674,
0,1,0,0,0,0,1,0,circle,hexagon,2,0,2,0,0,0,0,4,,,,,,,,,,,,,,,,,,,,,,,,,,,,,,,,,,,,,,,,1399.1372046670003,1399.1372046670003,1399.1372046670003,1399.1372046670003,1399.1372046670003,1399.1372046670003,1399.1372046670003,1399.1372046670003,1399.1372046670003,1399.1372046670003,l,1.366521064992412,10,538,2,1400.5315995790006,1402.034732850996,,,,,,,,,,,,,,,,,,,,,,,,,,,,,,,,,,,,,,,,,,,,,,,,,,,,,,,,,,,,,,,,,,,,,90200,2022-10-28_14h56.09.170,vts_reward_expectancy_bt_OFFLINE,2022.2.4,59.94487158089674,
1,0,0,0,0,0,1,0,triangle,hexagon,2,0,2,0,0,1,1,1,,,,,,,,,,,,,,,,,,,,,,,,,,,,,,,,,,,,,,,,1402.5352366860025,1402.5352366860025,1402.5352366860025,1402.5352366860025,1402.5352366860025,1402.5352366860025,1402.5352366860025,1402.5352366860025,1402.5352366860025,1402.5352366860025,a,6.943867932990543,1,539,2,1409.5097625530034,1411.0111927389953,,,,,,,,,,,,,,,,,,,,,,,,,,,,,,,,,,,,,,,,,,,,,,,,,,,,,,,,,,,,,,,,,,,,,90200,2022-10-28_14h56.09.170,vts_reward_expectancy_bt_OFFLINE,2022.2.4,59.94487158089674,
0,0,0,1,0,0,1,0,star,hexagon,2,0,2,0,0,2,2,11,,,,,,,,,,,,,,,,,,,,,,,,,,,,,,,,,,,,,,,,1411.511789408003,1411.511789408003,1411.511789408003,1411.511789408003,1411.511789408003,1411.511789408003,1411.511789408003,1411.511789408003,1411.511789408003,1411.511789408003,a,0.887532024004031,1,540,2,1412.4294647459901,1413.9311044109927,,,,,,,,,,,,,,,,,,,,,,,,,,,,,,,,,,,,,,,,,,,,,,,,,,,,,,,,,,,,,,,,,,,,,90200,2022-10-28_14h56.09.170,vts_reward_expectancy_bt_OFFLINE,2022.2.4,59.94487158089674,
0,1,0,0,1,0,0,0,circle,triangle,2,0,2,0,0,3,3,3,,,,,,,,,,,,,,,,,,,,,,,,,,,,,,,,,,,,,,,,1414.4315708520007,1414.4315708520007,1414.4315708520007,1414.4315708520007,1414.4315708520007,1414.4315708520007,1414.4315708520007,1414.4315708520007,1414.4315708520007,1414.4315708520007,l,1.3915441809949698,10,550,2,1415.849932889003,1417.3516066320008,,,,,,,,,,,,,,,,,,,,,,,,,,,,,,,,,,,,,,,,,,,,,,,,,,,,,,,,,,,,,,,,,,,,,90200,2022-10-28_14h56.09.170,vts_reward_expectancy_bt_OFFLINE,2022.2.4,59.94487158089674,
0,0,1,0,1,0,0,0,hexagon,triangle,2,0,2,0,0,4,4,6,,,,,,,,,,,,,,,,,,,,,,,,,,,,,,,,,,,,,,,,1417.852097349998,1417.852097349998,1417.852097349998,1417.852097349998,1417.852097349998,1417.852097349998,1417.852097349998,1417.852097349998,1417.852097349998,1417.852097349998,a,1.4587926990061533,10,560,2,1419.336958068001,1420.8388209789991,,,,,,,,,,,,,,,,,,,,,,,,,,,,,,,,,,,,,,,,,,,,,,,,,,,,,,,,,,,,,,,,,,,,,90200,2022-10-28_14h56.09.170,vts_reward_expectancy_bt_OFFLINE,2022.2.4,59.94487158089674,
0,0,0,1,1,0,0,0,star,triangle,2,0,2,0,0,5,5,9,,,,,,,,,,,,,,,,,,,,,,,,,,,,,,,,,,,,,,,,1421.3392628229922,1421.3392628229922,1421.3392628229922,1421.3392628229922,1421.3392628229922,1421.3392628229922,1421.3392628229922,1421.3392628229922,1421.3392628229922,1421.3392628229922,a,2.7317333500104723,10,570,2,1424.092335697991,1425.5940080589935,,,,,,,,,,,,,,,,,,,,,,,,,,,,,,,,,,,,,,,,,,,,,,,,,,,,,,,,,,,,,,,,,,,,,90200,2022-10-28_14h56.09.170,vts_reward_expectancy_bt_OFFLINE,2022.2.4,59.94487158089674,
1,0,0,0,0,1,0,0,triangle,circle,2,0,2,0,0,6,6,0,,,,,,,,,,,,,,,,,,,,,,,,,,,,,,,,,,,,,,,,1426.0946040779963,1426.0946040779963,1426.0946040779963,1426.0946040779963,1426.0946040779963,1426.0946040779963,1426.0946040779963,1426.0946040779963,1426.0946040779963,1426.0946040779963,a,1.848665566998534,10,580,2,1427.9632361440017,1429.464902695996,,,,,,,,,,,,,,,,,,,,,,,,,,,,,,,,,,,,,,,,,,,,,,,,,,,,,,,,,,,,,,,,,,,,,90200,2022-10-28_14h56.09.170,vts_reward_expectancy_bt_OFFLINE,2022.2.4,59.94487158089674,
0,1,0,0,0,0,0,1,circle,star,2,0,2,0,0,7,7,5,,,,,,,,,,,,,,,,,,,,,,,,,,,,,,,,,,,,,,,,1429.9655149729952,1429.9655149729952,1429.9655149729952,1429.9655149729952,1429.9655149729952,1429.9655149729952,1429.9655149729952,1429.9655149729952,1429.9655149729952,1429.9655149729952,l,1.9216857930005062,10,590,2,1431.9179123310023,1433.4194436029939,,,,,,,,,,,,,,,,,,,,,,,,,,,,,,,,,,,,,,,,,,,,,,,,,,,,,,,,,,,,,,,,,,,,,90200,2022-10-28_14h56.09.170,vts_reward_expectancy_bt_OFFLINE,2022.2.4,59.94487158089674,
0,0,1,0,0,0,0,1,hexagon,star,2,0,2,0,0,8,8,8,,,,,,,,,,,,,,,,,,,,,,,,,,,,,,,,,,,,,,,,1433.9198502429936,1433.9198502429936,1433.9198502429936,1433.9198502429936,1433.9198502429936,1433.9198502429936,1433.9198502429936,1433.9198502429936,1433.9198502429936,1433.9198502429936,a,2.695446642988827,1,591,2,1436.6393981500005,1438.1411476529902,,,,,,,,,,,,,,,,,,,,,,,,,,,,,,,,,,,,,,,,,,,,,,,,,,,,,,,,,,,,,,,,,,,,,90200,2022-10-28_14h56.09.170,vts_reward_expectancy_bt_OFFLINE,2022.2.4,59.94487158089674,
1,0,0,0,0,0,0,1,triangle,star,2,0,2,0,0,9,9,2,,,,,,,,,,,,,,,,,,,,,,,,,,,,,,,,,,,,,,,,1438.6416534000018,1438.6416534000018,1438.6416534000018,1438.6416534000018,1438.6416534000018,1438.6416534000018,1438.6416534000018,1438.6416534000018,1438.6416534000018,1438.6416534000018,l,0.6143318769900361,1,592,2,1439.2756330150005,1440.7773784409947,,,,,,,,,,,,,,,,,,,,,,,,,,,,,,,,,,,,,,,,,,,,,,,,,,,,,,,,,,,,,,,,,,,,,90200,2022-10-28_14h56.09.170,vts_reward_expectancy_bt_OFFLINE,2022.2.4,59.94487158089674,
0,0,0,1,0,1,0,0,star ,circle,2,0,2,0,0,10,10,10,,,,,,,,,,,,,,,,,,,,,,,,,,,,,,,,,,,,,,,,1441.2779638520005,1441.2779638520005,1441.2779638520005,1441.2779638520005,1441.2779638520005,1441.2779638520005,1441.2779638520005,1441.2779638520005,1441.2779638520005,1441.2779638520005,a,0.618482584002777,1,593,2,1441.928672480004,1443.4302908179961,,,,,,,,,,,,,,,,,,,,,,,,,,,,,,,,,,,,,,,,,,,,,,,,,,,,,,,,,,,,,,,,,,,,,90200,2022-10-28_14h56.09.170,vts_reward_expectancy_bt_OFFLINE,2022.2.4,59.94487158089674,
0,0,1,0,0,1,0,0,hexagon,circle,2,0,2,0,0,11,11,7,,,,,,,,,,,,,,,,,,,,,,,,,,,,,,,,,,,,,,,,1443.9307972329989,1443.9307972329989,1443.9307972329989,1443.9307972329989,1443.9307972329989,1443.9307972329989,1443.9307972329989,1443.9307972329989,1443.9307972329989,1443.9307972329989,a,0.9738066130084917,10,603,2,1444.9319028280006,1446.433507031994,,,,,,,,,,,,,,,,,,,,,,,,,,,,,,,,,,,,,,,,,,,,,,,,,,,,,,,,,,,,,,,,,,,,,90200,2022-10-28_14h56.09.170,vts_reward_expectancy_bt_OFFLINE,2022.2.4,59.94487158089674,
0,0,0,1,1,0,0,0,star,triangle,2,0,2,0,1,0,12,9,,,,,,,,,,,,,,,,,,,,,,,,,,,,,,,,,,,,,,,,1446.9341218719928,1446.9341218719928,1446.9341218719928,1446.9341218719928,1446.9341218719928,1446.9341218719928,1446.9341218719928,1446.9341218719928,1446.9341218719928,1446.9341218719928,l,1.074081536004087,1,604,2,1448.0353565989935,1449.5369729099912,,,,,,,,,,,,,,,,,,,,,,,,,,,,,,,,,,,,,,,,,,,,,,,,,,,,,,,,,,,,,,,,,,,,,90200,2022-10-28_14h56.09.170,vts_reward_expectancy_bt_OFFLINE,2022.2.4,59.94487158089674,
0,1,0,0,1,0,0,0,circle,triangle,2,0,2,0,1,1,13,3,,,,,,,,,,,,,,,,,,,,,,,,,,,,,,,,,,,,,,,,1450.037525006992,1450.037525006992,1450.037525006992,1450.037525006992,1450.037525006992,1450.037525006992,1450.037525006992,1450.037525006992,1450.037525006992,1450.037525006992,a,0.5456652229913743,10,614,2,1450.6049233410013,1452.1065873140033,,,,,,,,,,,,,,,,,,,,,,,,,,,,,,,,,,,,,,,,,,,,,,,,,,,,,,,,,,,,,,,,,,,,,90200,2022-10-28_14h56.09.170,vts_reward_expectancy_bt_OFFLINE,2022.2.4,59.94487158089674,
1,0,0,0,0,0,1,0,triangle,hexagon,2,0,2,0,1,2,14,1,,,,,,,,,,,,,,,,,,,,,,,,,,,,,,,,,,,,,,,,1452.606989754,1452.606989754,1452.606989754,1452.606989754,1452.606989754,1452.606989754,1452.606989754,1452.606989754,1452.606989754,1452.606989754,a,2.153226188995177,10,624,2,1454.7928548219934,1456.2946204549953,,,,,,,,,,,,,,,,,,,,,,,,,,,,,,,,,,,,,,,,,,,,,,,,,,,,,,,,,,,,,,,,,,,,,90200,2022-10-28_14h56.09.170,vts_reward_expectancy_bt_OFFLINE,2022.2.4,59.94487158089674,
0,0,0,1,0,1,0,0,star ,circle,2,0,2,0,1,3,15,10,,,,,,,,,,,,,,,,,,,,,,,,,,,,,,,,,,,,,,,,1456.7953715869953,1456.7953715869953,1456.7953715869953,1456.7953715869953,1456.7953715869953,1456.7953715869953,1456.7953715869953,1456.7953715869953,1456.7953715869953,1456.7953715869953,l,2.2692257879971294,10,634,2,1459.080987288995,1460.5825544109975,,,,,,,,,,,,,,,,,,,,,,,,,,,,,,,,,,,,,,,,,,,,,,,,,,,,,,,,,,,,,,,,,,,,,90200,2022-10-28_14h56.09.170,vts_reward_expectancy_bt_OFFLINE,2022.2.4,59.94487158089674,
1,0,0,0,0,0,0,1,triangle,star,2,0,2,0,1,4,16,2,,,,,,,,,,,,,,,,,,,,,,,,,,,,,,,,,,,,,,,,1461.0831622959959,1461.0831622959959,1461.0831622959959,1461.0831622959959,1461.0831622959959,1461.0831622959959,1461.0831622959959,1461.0831622959959,1461.0831622959959,1461.0831622959959,l,1.8691971929947613,1,635,2,1462.985210571991,1464.4869998520007,,,,,,,,,,,,,,,,,,,,,,,,,,,,,,,,,,,,,,,,,,,,,,,,,,,,,,,,,,,,,,,,,,,,,90200,2022-10-28_14h56.09.170,vts_reward_expectancy_bt_OFFLINE,2022.2.4,59.94487158089674,
0,1,0,0,0,0,1,0,circle,hexagon,2,0,2,0,1,5,17,4,,,,,,,,,,,,,,,,,,,,,,,,,,,,,,,,,,,,,,,,1464.9874112840043,1464.9874112840043,1464.9874112840043,1464.9874112840043,1464.9874112840043,1464.9874112840043,1464.9874112840043,1464.9874112840043,1464.9874112840043,1464.9874112840043,a,0.6116117969941115,10,645,2,1465.6214454930014,1467.1231001409906,,,,,,,,,,,,,,,,,,,,,,,,,,,,,,,,,,,,,,,,,,,,,,,,,,,,,,,,,,,,,,,,,,,,,90200,2022-10-28_14h56.09.170,vts_reward_expectancy_bt_OFFLINE,2022.2.4,59.94487158089674,
0,0,1,0,0,1,0,0,hexagon,circle,2,0,2,0,1,6,18,7,,,,,,,,,,,,,,,,,,,,,,,,,,,,,,,,,,,,,,,,1467.6236446239927,1467.6236446239927,1467.6236446239927,1467.6236446239927,1467.6236446239927,1467.6236446239927,1467.6236446239927,1467.6236446239927,1467.6236446239927,1467.6236446239927,l,1.0405892520066118,10,655,2,1468.6914966439945,1470.1931540779915,,,,,,,,,,,,,,,,,,,,,,,,,,,,,,,,,,,,,,,,,,,,,,,,,,,,,,,,,,,,,,,,,,,,,90200,2022-10-28_14h56.09.170,vts_reward_expectancy_bt_OFFLINE,2022.2.4,59.94487158089674,
0,0,0,1,0,0,1,0,star,hexagon,2,0,2,0,1,7,19,11,,,,,,,,,,,,,,,,,,,,,,,,,,,,,,,,,,,,,,,,1470.693776428001,1470.693776428001,1470.693776428001,1470.693776428001,1470.693776428001,1470.693776428001,1470.693776428001,1470.693776428001,1470.693776428001,1470.693776428001,a,0.6896018429979449,1,656,2,1471.411219578993,1472.9127439229924,,,,,,,,,,,,,,,,,,,,,,,,,,,,,,,,,,,,,,,,,,,,,,,,,,,,,,,,,,,,,,,,,,,,,90200,2022-10-28_14h56.09.170,vts_reward_expectancy_bt_OFFLINE,2022.2.4,59.94487158089674,
0,0,1,0,1,0,0,0,hexagon,triangle,2,0,2,0,1,8,20,6,,,,,,,,,,,,,,,,,,,,,,,,,,,,,,,,,,,,,,,,1473.4134164449933,1473.4134164449933,1473.4134164449933,1473.4134164449933,1473.4134164449933,1473.4134164449933,1473.4134164449933,1473.4134164449933,1473.4134164449933,1473.4134164449933,a,0.8676785150018986,10,666,2,1474.2976199019904,1475.7993816980015,,,,,,,,,,,,,,,,,,,,,,,,,,,,,,,,,,,,,,,,,,,,,,,,,,,,,,,,,,,,,,,,,,,,,90200,2022-10-28_14h56.09.170,vts_reward_expectancy_bt_OFFLINE,2022.2.4,59.94487158089674,
0,1,0,0,0,0,0,1,circle,star,2,0,2,0,1,9,21,5,,,,,,,,,,,,,,,,,,,,,,,,,,,,,,,,,,,,,,,,1476.3000265570008,1476.3000265570008,1476.3000265570008,1476.3000265570008,1476.3000265570008,1476.3000265570008,1476.3000265570008,1476.3000265570008,1476.3000265570008,1476.3000265570008,l,1.8747712489857804,1,667,2,1478.2022054089903,1479.7035794620024,,,,,,,,,,,,,,,,,,,,,,,,,,,,,,,,,,,,,,,,,,,,,,,,,,,,,,,,,,,,,,,,,,,,,90200,2022-10-28_14h56.09.170,vts_reward_expectancy_bt_OFFLINE,2022.2.4,59.94487158089674,
1,0,0,0,0,1,0,0,triangle,circle,2,0,2,0,1,10,22,0,,,,,,,,,,,,,,,,,,,,,,,,,,,,,,,,,,,,,,,,1480.2042402200022,1480.2042402200022,1480.2042402200022,1480.2042402200022,1480.2042402200022,1480.2042402200022,1480.2042402200022,1480.2042402200022,1480.2042402200022,1480.2042402200022,a,1.2519598559883889,10,677,2,1481.4722540369985,1482.9741615169914,,,,,,,,,,,,,,,,,,,,,,,,,,,,,,,,,,,,,,,,,,,,,,,,,,,,,,,,,,,,,,,,,,,,,90200,2022-10-28_14h56.09.170,vts_reward_expectancy_bt_OFFLINE,2022.2.4,59.94487158089674,
0,0,1,0,0,0,0,1,hexagon,star,2,0,2,0,1,11,23,8,,,,,,,,,,,,,,,,,,,,,,,,,,,,,,,,,,,,,,,,1483.47471753,1483.47471753,1483.47471753,1483.47471753,1483.47471753,1483.47471753,1483.47471753,1483.47471753,1483.47471753,1483.47471753,a,1.061153957998613,1,678,2,1484.5592459269974,1486.0607977969921,,,,,,,,,,,,,,,,,,,,,,,,,,,,,,,,,,,,,,,,,,,,,,,,,,,,,,,,,,,,,,,,,,,,,90200,2022-10-28_14h56.09.170,vts_reward_expectancy_bt_OFFLINE,2022.2.4,59.94487158089674,
0,0,1,0,0,1,0,0,hexagon,circle,2,0,2,0,2,0,24,7,,,,,,,,,,,,,,,,,,,,,,,,,,,,,,,,,,,,,,,,1486.561378843995,1486.561378843995,1486.561378843995,1486.561378843995,1486.561378843995,1486.561378843995,1486.561378843995,1486.561378843995,1486.561378843995,1486.561378843995,a,1.0778770890028682,10,688,2,1487.6625708020001,1489.1643732889934,,,,,,,,,,,,,,,,,,,,,,,,,,,,,,,,,,,,,,,,,,,,,,,,,,,,,,,,,,,,,,,,,,,,,90200,2022-10-28_14h56.09.170,vts_reward_expectancy_bt_OFFLINE,2022.2.4,59.94487158089674,
1,0,0,0,0,1,0,0,triangle,circle,2,0,2,0,2,1,25,0,,,,,,,,,,,,,,,,,,,,,,,,,,,,,,,,,,,,,,,,1489.6648306379939,1489.6648306379939,1489.6648306379939,1489.6648306379939,1489.6648306379939,1489.6648306379939,1489.6648306379939,1489.6648306379939,1489.6648306379939,1489.6648306379939,a,2.053786192991538,10,698,2,1491.7505808510032,1493.2519899809995,,,,,,,,,,,,,,,,,,,,,,,,,,,,,,,,,,,,,,,,,,,,,,,,,,,,,,,,,,,,,,,,,,,,,90200,2022-10-28_14h56.09.170,vts_reward_expectancy_bt_OFFLINE,2022.2.4,59.94487158089674,
0,1,0,0,0,0,1,0,circle,hexagon,2,0,2,0,2,2,26,4,,,,,,,,,,,,,,,,,,,,,,,,,,,,,,,,,,,,,,,,1493.7528605749976,1493.7528605749976,1493.7528605749976,1493.7528605749976,1493.7528605749976,1493.7528605749976,1493.7528605749976,1493.7528605749976,1493.7528605749976,1493.7528605749976,l,1.5026306939980714,1,699,2,1495.2875083059917,1496.7891597389971,,,,,,,,,,,,,,,,,,,,,,,,,,,,,,,,,,,,,,,,,,,,,,,,,,,,,,,,,,,,,,,,,,,,,90200,2022-10-28_14h56.09.170,vts_reward_expectancy_bt_OFFLINE,2022.2.4,59.94487158089674,
0,0,0,1,0,1,0,0,star ,circle,2,0,2,0,2,3,27,10,,,,,,,,,,,,,,,,,,,,,,,,,,,,,,,,,,,,,,,,1497.2897287009982,1497.2897287009982,1497.2897287009982,1497.2897287009982,1497.2897287009982,1497.2897287009982,1497.2897287009982,1497.2897287009982,1497.2897287009982,1497.2897287009982,l,1.0070934279938228,1,700,2,1498.3240676069981,1499.8257881079917,,,,,,,,,,,,,,,,,,,,,,,,,,,,,,,,,,,,,,,,,,,,,,,,,,,,,,,,,,,,,,,,,,,,,90200,2022-10-28_14h56.09.170,vts_reward_expectancy_bt_OFFLINE,2022.2.4,59.94487158089674,
0,0,1,0,1,0,0,0,hexagon,triangle,2,0,2,0,2,4,28,6,,,,,,,,,,,,,,,,,,,,,,,,,,,,,,,,,,,,,,,,1500.3262763439998,1500.3262763439998,1500.3262763439998,1500.3262763439998,1500.3262763439998,1500.3262763439998,1500.3262763439998,1500.3262763439998,1500.3262763439998,1500.3262763439998,a,1.1859667109965812,10,710,2,1501.5444315549976,1503.0461057170032,,,,,,,,,,,,,,,,,,,,,,,,,,,,,,,,,,,,,,,,,,,,,,,,,,,,,,,,,,,,,,,,,,,,,90200,2022-10-28_14h56.09.170,vts_reward_expectancy_bt_OFFLINE,2022.2.4,59.94487158089674,
1,0,0,0,0,0,0,1,triangle,star,2,0,2,0,2,5,29,2,,,,,,,,,,,,,,,,,,,,,,,,,,,,,,,,,,,,,,,,1503.5466229070007,1503.5466229070007,1503.5466229070007,1503.5466229070007,1503.5466229070007,1503.5466229070007,1503.5466229070007,1503.5466229070007,1503.5466229070007,1503.5466229070007,l,2.228305784999975,10,720,2,1505.799192869992,1507.3010015949985,,,,,,,,,,,,,,,,,,,,,,,,,,,,,,,,,,,,,,,,,,,,,,,,,,,,,,,,,,,,,,,,,,,,,90200,2022-10-28_14h56.09.170,vts_reward_expectancy_bt_OFFLINE,2022.2.4,59.94487158089674,
0,1,0,0,0,0,0,1,circle,star,2,0,2,0,2,6,30,5,,,,,,,,,,,,,,,,,,,,,,,,,,,,,,,,,,,,,,,,1507.8012800190045,1507.8012800190045,1507.8012800190045,1507.8012800190045,1507.8012800190045,1507.8012800190045,1507.8012800190045,1507.8012800190045,1507.8012800190045,1507.8012800190045,a,0.8946603980002692,1,721,2,1508.7191674880014,1510.2207212329959,,,,,,,,,,,,,,,,,,,,,,,,,,,,,,,,,,,,,,,,,,,,,,,,,,,,,,,,,,,,,,,,,,,,,90200,2022-10-28_14h56.09.170,vts_reward_expectancy_bt_OFFLINE,2022.2.4,59.94487158089674,
1,0,0,0,0,0,1,0,triangle,hexagon,2,0,2,0,2,7,31,1,,,,,,,,,,,,,,,,,,,,,,,,,,,,,,,,,,,,,,,,1510.7208493299986,1510.7208493299986,1510.7208493299986,1510.7208493299986,1510.7208493299986,1510.7208493299986,1510.7208493299986,1510.7208493299986,1510.7208493299986,1510.7208493299986,a,2.559316729006241,1,722,2,1513.307195478992,1514.8089329679933,,,,,,,,,,,,,,,,,,,,,,,,,,,,,,,,,,,,,,,,,,,,,,,,,,,,,,,,,,,,,,,,,,,,,90200,2022-10-28_14h56.09.170,vts_reward_expectancy_bt_OFFLINE,2022.2.4,59.94487158089674,
0,1,0,0,1,0,0,0,circle,triangle,2,0,2,0,2,8,32,3,,,,,,,,,,,,,,,,,,,,,,,,,,,,,,,,,,,,,,,,1515.3095302000002,1515.3095302000002,1515.3095302000002,1515.3095302000002,1515.3095302000002,1515.3095302000002,1515.3095302000002,1515.3095302000002,1515.3095302000002,1515.3095302000002,l,1.2516665879957145,1,723,2,1516.577762514993,1518.0792988680041,,,,,,,,,,,,,,,,,,,,,,,,,,,,,,,,,,,,,,,,,,,,,,,,,,,,,,,,,,,,,,,,,,,,,90200,2022-10-28_14h56.09.170,vts_reward_expectancy_bt_OFFLINE,2022.2.4,59.94487158089674,
0,0,0,1,0,0,1,0,star,hexagon,2,0,2,0,2,9,33,11,,,,,,,,,,,,,,,,,,,,,,,,,,,,,,,,,,,,,,,,1518.5799027799949,1518.5799027799949,1518.5799027799949,1518.5799027799949,1518.5799027799949,1518.5799027799949,1518.5799027799949,1518.5799027799949,1518.5799027799949,1518.5799027799949,l,1.4910424739937298,10,733,2,1520.0980918720015,1521.5998999669973,,,,,,,,,,,,,,,,,,,,,,,,,,,,,,,,,,,,,,,,,,,,,,,,,,,,,,,,,,,,,,,,,,,,,90200,2022-10-28_14h56.09.170,vts_reward_expectancy_bt_OFFLINE,2022.2.4,59.94487158089674,
0,0,0,1,1,0,0,0,star,triangle,2,0,2,0,2,10,34,9,,,,,,,,,,,,,,,,,,,,,,,,,,,,,,,,,,,,,,,,1522.1005035230046,1522.1005035230046,1522.1005035230046,1522.1005035230046,1522.1005035230046,1522.1005035230046,1522.1005035230046,1522.1005035230046,1522.1005035230046,1522.1005035230046,l,1.1313799890049268,10,743,2,1523.2517513499915,1524.753337763992,,,,,,,,,,,,,,,,,,,,,,,,,,,,,,,,,,,,,,,,,,,,,,,,,,,,,,,,,,,,,,,,,,,,,90200,2022-10-28_14h56.09.170,vts_reward_expectancy_bt_OFFLINE,2022.2.4,59.94487158089674,
0,0,1,0,0,0,0,1,hexagon,star,2,0,2,0,2,11,35,8,,,,,,,,,,,,,,,,,,,,,,,,,,,,,,,,,,,,,,,,1525.2541017329931,1525.2541017329931,1525.2541017329931,1525.2541017329931,1525.2541017329931,1525.2541017329931,1525.2541017329931,1525.2541017329931,1525.2541017329931,1525.2541017329931,l,1.5860357659985311,1,744,2,1526.8724550089973,1528.3739828069956,,,,,,,,,,,,,,,,,,,,,,,,,,,,,,,,,,,,,,,,,,,,,,,,,,,,,,,,,,,,,,,,,,,,,90200,2022-10-28_14h56.09.170,vts_reward_expectancy_bt_OFFLINE,2022.2.4,59.94487158089674,
0,0,0,1,0,0,1,0,star,hexagon,2,0,2,0,3,0,36,11,,,,,,,,,,,,,,,,,,,,,,,,,,,,,,,,,,,,,,,,1528.8745282269956,1528.8745282269956,1528.8745282269956,1528.8745282269956,1528.8745282269956,1528.8745282269956,1528.8745282269956,1528.8745282269956,1528.8745282269956,1528.8745282269956,a,1.6614874819933902,1,745,2,1530.559680402992,1532.0614199010015,,,,,,,,,,,,,,,,,,,,,,,,,,,,,,,,,,,,,,,,,,,,,,,,,,,,,,,,,,,,,,,,,,,,,90200,2022-10-28_14h56.09.170,vts_reward_expectancy_bt_OFFLINE,2022.2.4,59.94487158089674,
0,0,1,0,0,0,0,1,hexagon,star,2,0,2,0,3,1,37,8,,,,,,,,,,,,,,,,,,,,,,,,,,,,,,,,,,,,,,,,1532.562172895996,1532.562172895996,1532.562172895996,1532.562172895996,1532.562172895996,1532.562172895996,1532.562172895996,1532.562172895996,1532.562172895996,1532.562172895996,a,0.845061767991865,10,755,2,1533.42947536899,1534.931290307999,,,,,,,,,,,,,,,,,,,,,,,,,,,,,,,,,,,,,,,,,,,,,,,,,,,,,,,,,,,,,,,,,,,,,90200,2022-10-28_14h56.09.170,vts_reward_expectancy_bt_OFFLINE,2022.2.4,59.94487158089674,
0,1,0,0,0,0,0,1,circle,star,2,0,2,0,3,2,38,5,,,,,,,,,,,,,,,,,,,,,,,,,,,,,,,,,,,,,,,,1535.431945927994,1535.431945927994,1535.431945927994,1535.431945927994,1535.431945927994,1535.431945927994,1535.431945927994,1535.431945927994,1535.431945927994,1535.431945927994,l,1.2477390809945064,10,765,2,1536.7001884789934,1538.2016020259907,,,,,,,,,,,,,,,,,,,,,,,,,,,,,,,,,,,,,,,,,,,,,,,,,,,,,,,,,,,,,,,,,,,,,90200,2022-10-28_14h56.09.170,vts_reward_expectancy_bt_OFFLINE,2022.2.4,59.94487158089674,
0,0,1,0,0,1,0,0,hexagon,circle,2,0,2,0,3,3,39,7,,,,,,,,,,,,,,,,,,,,,,,,,,,,,,,,,,,,,,,,1538.7021730559936,1538.7021730559936,1538.7021730559936,1538.7021730559936,1538.7021730559936,1538.7021730559936,1538.7021730559936,1538.7021730559936,1538.7021730559936,1538.7021730559936,a,1.1449498889996903,1,766,2,1539.8701462089957,1541.371646724001,,,,,,,,,,,,,,,,,,,,,,,,,,,,,,,,,,,,,,,,,,,,,,,,,,,,,,,,,,,,,,,,,,,,,90200,2022-10-28_14h56.09.170,vts_reward_expectancy_bt_OFFLINE,2022.2.4,59.94487158089674,
0,1,0,0,0,0,1,0,circle,hexagon,2,0,2,0,3,4,40,4,,,,,,,,,,,,,,,,,,,,,,,,,,,,,,,,,,,,,,,,1541.8724456909986,1541.8724456909986,1541.8724456909986,1541.8724456909986,1541.8724456909986,1541.8724456909986,1541.8724456909986,1541.8724456909986,1541.8724456909986,1541.8724456909986,a,1.223485107999295,10,776,2,1543.1235249110032,1544.625197706002,,,,,,,,,,,,,,,,,,,,,,,,,,,,,,,,,,,,,,,,,,,,,,,,,,,,,,,,,,,,,,,,,,,,,90200,2022-10-28_14h56.09.170,vts_reward_expectancy_bt_OFFLINE,2022.2.4,59.94487158089674,
0,1,0,0,1,0,0,0,circle,triangle,2,0,2,0,3,5,41,3,,,,,,,,,,,,,,,,,,,,,,,,,,,,,,,,,,,,,,,,1545.125815913998,1545.125815913998,1545.125815913998,1545.125815913998,1545.125815913998,1545.125815913998,1545.125815913998,1545.125815913998,1545.125815913998,1545.125815913998,l,1.6911872100026812,1,777,2,1546.8444357019907,1548.3460684719903,,,,,,,,,,,,,,,,,,,,,,,,,,,,,,,,,,,,,,,,,,,,,,,,,,,,,,,,,,,,,,,,,,,,,90200,2022-10-28_14h56.09.170,vts_reward_expectancy_bt_OFFLINE,2022.2.4,59.94487158089674,
0,0,0,1,1,0,0,0,star,triangle,2,0,2,0,3,6,42,9,,,,,,,,,,,,,,,,,,,,,,,,,,,,,,,,,,,,,,,,1548.8466477539914,1548.8466477539914,1548.8466477539914,1548.8466477539914,1548.8466477539914,1548.8466477539914,1548.8466477539914,1548.8466477539914,1548.8466477539914,1548.8466477539914,l,2.601973254000768,1,778,2,1551.4663259989902,1552.9678337679943,,,,,,,,,,,,,,,,,,,,,,,,,,,,,,,,,,,,,,,,,,,,,,,,,,,,,,,,,,,,,,,,,,,,,90200,2022-10-28_14h56.09.170,vts_reward_expectancy_bt_OFFLINE,2022.2.4,59.94487158089674,
1,0,0,0,0,1,0,0,triangle,circle,2,0,2,0,3,7,43,0,,,,,,,,,,,,,,,,,,,,,,,,,,,,,,,,,,,,,,,,1553.4682710369962,1553.4682710369962,1553.4682710369962,1553.4682710369962,1553.4682710369962,1553.4682710369962,1553.4682710369962,1553.4682710369962,1553.4682710369962,1553.4682710369962,a,1.7249197439959971,10,788,2,1555.2202028859901,1556.7219796190038,,,,,,,,,,,,,,,,,,,,,,,,,,,,,,,,,,,,,,,,,,,,,,,,,,,,,,,,,,,,,,,,,,,,,90200,2022-10-28_14h56.09.170,vts_reward_expectancy_bt_OFFLINE,2022.2.4,59.94487158089674,
0,0,0,1,0,1,0,0,star ,circle,2,0,2,0,3,8,44,10,,,,,,,,,,,,,,,,,,,,,,,,,,,,,,,,,,,,,,,,1557.2225098420022,1557.2225098420022,1557.2225098420022,1557.2225098420022,1557.2225098420022,1557.2225098420022,1557.2225098420022,1557.2225098420022,1557.2225098420022,1557.2225098420022,a,0.9765408189850859,10,798,2,1558.2236227279936,1559.7251908100006,,,,,,,,,,,,,,,,,,,,,,,,,,,,,,,,,,,,,,,,,,,,,,,,,,,,,,,,,,,,,,,,,,,,,90200,2022-10-28_14h56.09.170,vts_reward_expectancy_bt_OFFLINE,2022.2.4,59.94487158089674,
0,0,1,0,1,0,0,0,hexagon,triangle,2,0,2,0,3,9,45,6,,,,,,,,,,,,,,,,,,,,,,,,,,,,,,,,,,,,,,,,1560.2258242719981,1560.2258242719981,1560.2258242719981,1560.2258242719981,1560.2258242719981,1560.2258242719981,1560.2258242719981,1560.2258242719981,1560.2258242719981,1560.2258242719981,a,3.3651695439912146,10,808,2,1563.6129723679915,1565.114573696992,,,,,,,,,,,,,,,,,,,,,,,,,,,,,,,,,,,,,,,,,,,,,,,,,,,,,,,,,,,,,,,,,,,,,90200,2022-10-28_14h56.09.170,vts_reward_expectancy_bt_OFFLINE,2022.2.4,59.94487158089674,
1,0,0,0,0,0,1,0,triangle,hexagon,2,0,2,0,3,10,46,1,,,,,,,,,,,,,,,,,,,,,,,,,,,,,,,,,,,,,,,,1565.6153550680028,1565.6153550680028,1565.6153550680028,1565.6153550680028,1565.6153550680028,1565.6153550680028,1565.6153550680028,1565.6153550680028,1565.6153550680028,1565.6153550680028,l,0.9849544250027975,10,818,2,1566.6332159659942,1568.134589895999,,,,,,,,,,,,,,,,,,,,,,,,,,,,,,,,,,,,,,,,,,,,,,,,,,,,,,,,,,,,,,,,,,,,,90200,2022-10-28_14h56.09.170,vts_reward_expectancy_bt_OFFLINE,2022.2.4,59.94487158089674,
1,0,0,0,0,0,0,1,triangle,star,2,0,2,0,3,11,47,2,,,,,,,,,,,,,,,,,,,,,,,,,,,,,,,,,,,,,,,,1568.635293824991,1568.635293824991,1568.635293824991,1568.635293824991,1568.635293824991,1568.635293824991,1568.635293824991,1568.635293824991,1568.635293824991,1568.635293824991,a,1.0354671530076303,10,828,2,1569.7028426299948,1571.204544726992,,,,,,,,,,,,,,,,,,,,,,,,,,,,,,,,,,,,,,,,,,,,,,,,,,,,,,,,,,,,,,,,,,,,,90200,2022-10-28_14h56.09.170,vts_reward_expectancy_bt_OFFLINE,2022.2.4,59.94487158089674,
,,,,,,,,,,,,,,,,,,0,0,0,0,0,0,0,0,,,,,,,,,,,,,,,,,,,,,,,,,,,,,,,,,,,,,,,,,,,,,,,,1610.6149136820022,,W,132,hexagon,0.001844690996222198,1604.6032922809973,1606.1097980149934,1606.1097980149934,1606.1097980149934,1609.1131909399992,1609.1131909399992,1609.1131909399992,1609.1131909399992,0,0,None,0,1609.1131909399992,1610.6149136820022,1611.1153900759964,,,,,,,,,,,,,,,,,,,,,,,,,,,,,,,,,,,,,,,,,,,,,,,,,90200,2022-10-28_14h56.09.170,vts_reward_expectancy_bt_OFFLINE,2022.2.4,59.94487158089674,
,,,,,,,,,,,,,,,,,,0,0,0,0,1,0,1,0,,,,,,,,,,,,,,,,,,,,,,,,,,,,,,,,,,,,,,,,,,,,,,,,1615.7871283249988,,H,125,triangle,0.008980869999504648,1611.6104387759988,1613.1177947620017,1613.1177947620017,1613.1177947620017,,,,,1,1,d,0,1614.2854833769961,,,1.1452949159865966,,,,,,,,,,,,,,,,,,,,,,,,,,,,,,,,,,,,,,,,,,,,,,,,90200,2022-10-28_14h56.09.170,vts_reward_expectancy_bt_OFFLINE,2022.2.4,59.94487158089674,
,,,,,,,,,,,,,,,,,,0,0,0,0,2,0,2,0,,,,,,,,,,,,,,,,,,,,,,,,,,,,,,,,,,,,,,,,,,,,,,,,1620.6591888749972,,F,160,circle,0.0017731270054355264,1616.7664976469969,1618.273210458996,1618.273210458996,1618.273210458996,,,,,1,0,d,0,1619.1578424820036,,,0.8616762500023469,,,,,,,,,,,,,,,,,,,,,,,,,,,,,,,,,,,,,,,,,,,,,,,,90200,2022-10-28_14h56.09.170,vts_reward_expectancy_bt_OFFLINE,2022.2.4,59.94487158089674,
,,,,,,,,,,,,,,,,,,0,0,0,0,3,0,3,0,,,,,,,,,,,,,,,,,,,,,,,,,,,,,,,,,,,,,,,,,,,,,,,,1625.4644620670006,,U,167,star,0.0013987169950269163,1621.6389132859913,1623.1453653019998,1623.1453653019998,1623.1453653019998,,,,,1,0,f,0,1623.9708487689932,,,0.7898059980070684,,,,,,,,,,,,,,,,,,,,,,,,,,,,,,,,,,,,,,,,,,,,,,,,90200,2022-10-28_14h56.09.170,vts_reward_expectancy_bt_OFFLINE,2022.2.4,59.94487158089674,
,,,,,,,,,,,,,,,,,,0,0,0,0,4,0,4,0,,,,,,,,,,,,,,,,,,,,,,,,,,,,,,,,,,,,,,,,,,,,,,,,1630.0528882109938,,B,181,circle,0.0016839820018503815,1626.4437602529943,1627.9504372160009,1627.9504372160009,1627.9504372160009,,,,,1,0,d,0,1628.5512098239997,,,0.5764823250065092,,,,,,,,,,,,,,,,,,,,,,,,,,,,,,,,,,,,,,,,,,,,,,,,90200,2022-10-28_14h56.09.170,vts_reward_expectancy_bt_OFFLINE,2022.2.4,59.94487158089674,
,,,,,,,,,,,,,,,,,,0,0,0,0,5,0,5,0,,,,,,,,,,,,,,,,,,,,,,,,,,,,,,,,,,,,,,,,,,,,,,,,1634.5910986310046,,D,174,star,0.0015207989927148446,1631.0317692889948,1632.5389865479956,1632.5389865479956,1632.5389865479956,,,,,1,0,d,0,1633.0896465209953,,,0.5179938619985478,,,,,,,,,,,,,,,,,,,,,,,,,,,,,,,,,,,,,,,,,,,,,,,,90200,2022-10-28_14h56.09.170,vts_reward_expectancy_bt_OFFLINE,2022.2.4,59.94487158089674,
,,,,,,,,,,,,,,,,,,0,0,0,0,6,0,6,0,,,,,,,,,,,,,,,,,,,,,,,,,,,,,,,,,,,,,,,,,,,,,,,,1639.1461206270033,,Y,139,triangle,0.0015282759995898232,1635.5700207719929,1637.0773162660043,1637.0773162660043,1637.0773162660043,,,,,1,0,f,0,1637.644464914003,,,0.5387865060038166,,,,,,,,,,,,,,,,,,,,,,,,,,,,,,,,,,,,,,,,,,,,,,,,90200,2022-10-28_14h56.09.170,vts_reward_expectancy_bt_OFFLINE,2022.2.4,59.94487158089674,
,,,,,,,,,,,,,,,,,,0,0,0,0,7,0,7,0,,,,,,,,,,,,,,,,,,,,,,,,,,,,,,,,,,,,,,,,,,,,,,,,1643.784619115002,,S,146,hexagon,0.001671050995355472,1640.1238959019975,1641.6323330110026,1641.6323330110026,1641.6323330110026,,,,,1,0,f,0,1642.2828886350035,,,0.6231225299998187,,,,,,,,,,,,,,,,,,,,,,,,,,,,,,,,,,,,,,,,,,,,,,,,90200,2022-10-28_14h56.09.170,vts_reward_expectancy_bt_OFFLINE,2022.2.4,59.94487158089674,
,,,,,,,,,,,,,,,,,,0,0,0,0,8,0,8,0,,,,,,,,,,,,,,,,,,,,,,,,,,,,,,,,,,,,,,,,,,,,,,,,1648.4229933759925,,W,132,hexagon,0.0016453080024803057,1644.7616218990006,1646.2707908599987,1646.2707908599987,1646.2707908599987,,,,,1,0,f,0,1646.9215415749932,,,0.6179147799848579,,,,,,,,,,,,,,,,,,,,,,,,,,,,,,,,,,,,,,,,,,,,,,,,90200,2022-10-28_14h56.09.170,vts_reward_expectancy_bt_OFFLINE,2022.2.4,59.94487158089674,
,,,,,,,,,,,,,,,,,,0,0,0,0,9,0,9,0,,,,,,,,,,,,,,,,,,,,,,,,,,,,,,,,,,,,,,,,,,,,,,,,1652.8779838799965,,H,125,circle,0.001606940000783652,1649.4003188990027,1650.9092924809956,1650.9092924809956,1650.9092924809956,,,,,1,0,d,0,1651.3765137629962,,,0.44230316299945116,,,,,,,,,,,,,,,,,,,,,,,,,,,,,,,,,,,,,,,,,,,,,,,,90200,2022-10-28_14h56.09.170,vts_reward_expectancy_bt_OFFLINE,2022.2.4,59.94487158089674,
,,,,,,,,,,,,,,,,,,,,,,,,,,0,0,0,0,0,0,0,0,,,,,,,,,,,,,,,,,,,,,,,,,,,,,,,,,,,,,,,,1671.565243399993,,S,174,circle,0.0019177030044374987,,,,,,,,,1,0,,1,1670.0635357889987,,,,1667.3212558230007,1668.8289718629967,1668.8289718629967,1668.8289718629967,k,1.2099500129988883,,,,,,,,,,,,,,,,,,,,,,,,,,,,,,,,,,,,,,,,,,90200,2022-10-28_14h56.09.170,vts_reward_expectancy_bt_OFFLINE,2022.2.4,59.94487158089674,
,,,,,,,,,,,,,,,,,,,,,,,,,,0,0,0,0,1,0,1,0,,,,,,,,,,,,,,,,,,,,,,,,,,,,,,,,,,,,,,,,1676.5040901979955,,Y,167,triangle,0.001601240990567021,,,,,,,,,1,0,,1,1675.002435360002,,,,1672.542535872999,1674.0515963310027,1674.0515963310027,1674.0515963310027,k,0.9231815199891571,,,,,,,,,,,,,,,,,,,,,,,,,,,,,,,,,,,,,,,,,,90200,2022-10-28_14h56.09.170,vts_reward_expectancy_bt_OFFLINE,2022.2.4,59.94487158089674,
,,,,,,,,,,,,,,,,,,,,,,,,,,0,0,0,0,2,0,2,0,,,,,,,,,,,,,,,,,,,,,,,,,,,,,,,,,,,,,,,,1681.1925714579993,,W,160,hexagon,0.001363445000606589,,,,,,,,,1,0,,1,1679.6910380219924,,,,1677.4816113760025,1678.9901856069919,1678.9901856069919,1678.9901856069919,k,0.6814390479994472,,,,,,,,,,,,,,,,,,,,,,,,,,,,,,,,,,,,,,,,,,90200,2022-10-28_14h56.09.170,vts_reward_expectancy_bt_OFFLINE,2022.2.4,59.94487158089674,
,,,,,,,,,,,,,,,,,,,,,,,,,,0,0,0,0,3,0,3,0,,,,,,,,,,,,,,,,,,,,,,,,,,,,,,,,,,,,,,,,1685.881050985001,,U,132,star,0.0012601339985849336,,,,,,,,,1,0,,1,1684.3793878799916,,,,1682.1705773879949,1683.6786998269963,1683.6786998269963,1683.6786998269963,j,0.6722725089930464,,,,,,,,,,,,,,,,,,,,,,,,,,,,,,,,,,,,,,,,,,90200,2022-10-28_14h56.09.170,vts_reward_expectancy_bt_OFFLINE,2022.2.4,59.94487158089674,
,,,,,,,,,,,,,,,,,,,,,,,,,,0,0,0,0,4,0,4,0,,,,,,,,,,,,,,,,,,,,,,,,,,,,,,,,,,,,,,,,1690.4862482269964,,B,125,hexagon,0.0016387630021199584,,,,,,,,,1,0,,1,1688.9844668549922,,,,1686.857301416996,1688.3670477709966,1688.3670477709966,1688.3670477709966,j,0.5928155489964411,,,,,,,,,,,,,,,,,,,,,,,,,,,,,,,,,,,,,,,,,,90200,2022-10-28_14h56.09.170,vts_reward_expectancy_bt_OFFLINE,2022.2.4,59.94487158089674,
,,,,,,,,,,,,,,,,,,,,,,,,,,0,0,0,0,5,0,5,0,,,,,,,,,,,,,,,,,,,,,,,,,,,,,,,,,,,,,,,,1695.2915318129963,,H,139,star,0.001771994007867761,,,,,,,,,1,0,,1,1693.7899225069996,,,,1691.4641749339935,1692.972456040996,1692.972456040996,1692.972456040996,j,0.7947213250008645,,,,,,,,,,,,,,,,,,,,,,,,,,,,,,,,,,,,,,,,,,90200,2022-10-28_14h56.09.170,vts_reward_expectancy_bt_OFFLINE,2022.2.4,59.94487158089674,
,,,,,,,,,,,,,,,,,,,,,,,,,,0,0,0,0,6,0,6,0,,,,,,,,,,,,,,,,,,,,,,,,,,,,,,,,,,,,,,,,1700.2301490039972,,D,146,circle,0.0013285750028444454,,,,,,,,,1,0,,1,1698.7285410729964,,,,1696.2687405879988,1697.7775334719918,1697.7775334719918,1697.7775334719918,j,0.9185329449974233,,,,,,,,,,,,,,,,,,,,,,,,,,,,,,,,,,,,,,,,,,90200,2022-10-28_14h56.09.170,vts_reward_expectancy_bt_OFFLINE,2022.2.4,59.94487158089674,
,,,,,,,,,,,,,,,,,,,,,,,,,,0,0,0,0,7,0,7,0,,,,,,,,,,,,,,,,,,,,,,,,,,,,,,,,,,,,,,,,1704.7854172939988,,F,181,triangle,0.0020435119949979708,,,,,,,,,1,0,,1,1703.283945431991,,,,1701.2083269319992,1702.7162934480002,1702.7162934480002,1702.7162934480002,k,0.547315621006419,,,,,,,,,,,,,,,,,,,,,,,,,,,,,,,,,,,,,,,,,,90200,2022-10-28_14h56.09.170,vts_reward_expectancy_bt_OFFLINE,2022.2.4,59.94487158089674,
,,,,,,,,,,,,,,,,,,,,,,,,,,0,0,0,0,8,0,8,0,,,,,,,,,,,,,,,,,,,,,,,,,,,,,,,,,,,,,,,,1709.3901763750036,,S,174,hexagon,0.0014169990026857704,,,,,,,,,1,0,,1,1707.8886128009908,,,,1705.7621449439903,1707.2712188010046,1707.2712188010046,1707.2712188010046,k,0.592167871989659,,,,,,,,,,,,,,,,,,,,,,,,,,,,,,,,,,,,,,,,,,90200,2022-10-28_14h56.09.170,vts_reward_expectancy_bt_OFFLINE,2022.2.4,59.94487158089674,
,,,,,,,,,,,,,,,,,,,,,,,,,,0,0,0,0,9,0,9,0,,,,,,,,,,,,,,,,,,,,,,,,,,,,,,,,,,,,,,,,1714.012185073996,,Y,167,triangle,0.0014907300064805895,,,,,,,,,1,0,,1,1712.5106543220027,,,,1710.367402214004,1711.8765391240013,1711.8765391240013,1711.8765391240013,k,0.610738939998555,,,,,,,,,,,,,,,,,,,,,,,,,,,,,,,,,,,,,,,,,,90200,2022-10-28_14h56.09.170,vts_reward_expectancy_bt_OFFLINE,2022.2.4,59.94487158089674,
,,,,,,,,,,,,,,,,,,,,,,,,,,,,,,,,,,0,0,0,0,0,0,0,0,,,,,,,,,,,,,,,,,,,,,,,,,,,,0,828,,,1779.8180754829955,,F,174,hexagon,0.002210973994806409,,,,,,,,,1,0,,2,,,,,,,,,,,1775.3420537030033,1775.3420537030033,1775.3420537030033,1775.3420537030033,1776.848135288994,1776.848135288994,1776.848135288994,1776.848135288994,1776.848135288994,1776.848135288994,1776.848135288994,1776.848135288994,-1,letter,NA,d,1.4473026650084648,vtsPrac,1778.3165000729932,,,,,,,,,,,,,,,,,,,,,,,90200,2022-10-28_14h56.09.170,vts_reward_expectancy_bt_OFFLINE,2022.2.4,59.94487158089674,
,,,,,,,,,,,,,,,,,,,,,,,,,,,,,,,,,,0,0,0,0,1,0,1,0,,,,,,,,,,,,,,,,,,,,,,,,,,,,0,828,,,1785.7913598509913,,Y,125,triangle,0.0018324580014450476,,,,,,,,,1,0,,2,,,,,,,,,,,1780.7978920149908,1780.7978920149908,1780.7978920149908,1780.7978920149908,1782.3041677449946,1782.3041677449946,1782.3041677449946,1782.3041677449946,1782.3041677449946,1782.3041677449946,1782.3041677449946,1782.3041677449946,switch,number,numSwt,j,1.9527450729947304,vtsPrac,1784.2896481569915,,,,,,,,,,,,,,,,,,,,,,,90200,2022-10-28_14h56.09.170,vts_reward_expectancy_bt_OFFLINE,2022.2.4,59.94487158089674,
,,,,,,,,,,,,,,,,,,,,,,,,,,,,,,,,,,0,0,0,0,2,0,2,0,,,,,,,,,,,,,,,,,,,,,,,,,,,,0,828,,,1790.4799006609974,,D,181,triangle,0.00200608599698171,,,,,,,,,1,0,,2,,,,,,,,,,,1786.7714625099907,1786.7714625099907,1786.7714625099907,1786.7714625099907,1788.2774644829915,1788.2774644829915,1788.2774644829915,1788.2774644829915,1788.2774644829915,1788.2774644829915,1788.2774644829915,1788.2774644829915,switch,letter,lettSwt,d,0.6743578159948811,vtsPrac,1788.9782591749972,,,,,,,,,,,,,,,,,,,,,,,90200,2022-10-28_14h56.09.170,vts_reward_expectancy_bt_OFFLINE,2022.2.4,59.94487158089674,
,,,,,,,,,,,,,,,,,,,,,,,,,,,,,,,,,,0,0,0,0,3,0,3,0,,,,,,,,,,,,,,,,,,,,,,,,,,,,0,828,,,1795.1683359799936,,B,160,hexagon,0.0017908860027091578,,,,,,,,,1,0,,2,,,,,,,,,,,1791.4588223989995,1791.4588223989995,1791.4588223989995,1791.4588223989995,1792.965891713,1792.965891713,1792.965891713,1792.965891713,1792.965891713,1792.965891713,1792.965891713,1792.965891713,repeat,letter,lettRpt,d,0.6728436429984868,vtsPrac,1793.6666116429988,,,,,,,,,,,,,,,,,,,,,,,90200,2022-10-28_14h56.09.170,vts_reward_expectancy_bt_OFFLINE,2022.2.4,59.94487158089674,
,,,,,,,,,,,,,,,,,,,,,,,,,,,,,,,,,,0,0,0,0,4,0,4,0,,,,,,,,,,,,,,,,,,,,,,,,,,,,0,828,,,1799.9903141459945,,F,174,hexagon,0.0019165900012012571,,,,,,,,,1,0,,2,,,,,,,,,,,1796.1460761329945,1796.1460761329945,1796.1460761329945,1796.1460761329945,1797.6545317239943,1797.6545317239943,1797.6545317239943,1797.6545317239943,1797.6545317239943,1797.6545317239943,1797.6545317239943,1797.6545317239943,repeat,letter,lettRpt,d,0.8092392709950218,vtsPrac,1798.4886346269923,,,,,,,,,,,,,,,,,,,,,,,90200,2022-10-28_14h56.09.170,vts_reward_expectancy_bt_OFFLINE,2022.2.4,59.94487158089674,
,,,,,,,,,,,,,,,,,,,,,,,,,,,,,,,,,,0,0,0,0,5,0,5,0,,,,,,,,,,,,,,,,,,,,,,,,,,,,0,828,,,1805.0626247359905,,Y,125,star,0.0014899140078341588,,,,,,,,,1,0,,2,,,,,,,,,,,1800.968617488994,1800.968617488994,1800.968617488994,1800.968617488994,1802.4765967379935,1802.4765967379935,1802.4765967379935,1802.4765967379935,1802.4765967379935,1802.4765967379935,1802.4765967379935,1802.4765967379935,switch,number,numSwt,j,1.0516244820028078,vtsPrac,1803.560856148004,,,,,,,,,,,,,,,,,,,,,,,90200,2022-10-28_14h56.09.170,vts_reward_expectancy_bt_OFFLINE,2022.2.4,59.94487158089674,
,,,,,,,,,,,,,,,,,,,,,,,,,,,,,,,,,,0,0,0,0,6,0,6,0,,,,,,,,,,,,,,,,,,,,,,,,,,,,0,828,,,1809.7510975189944,,D,181,triangle,0.001678978995187208,,,,,,,,,1,0,,2,,,,,,,,,,,1806.0402305509924,1806.0402305509924,1806.0402305509924,1806.0402305509924,1807.5486354629975,1807.5486354629975,1807.5486354629975,1807.5486354629975,1807.5486354629975,1807.5486354629975,1807.5486354629975,1807.5486354629975,switch,letter,lettSwt,d,0.6750439580064267,vtsPrac,1808.2495746939967,,,,,,,,,,,,,,,,,,,,,,,90200,2022-10-28_14h56.09.170,vts_reward_expectancy_bt_OFFLINE,2022.2.4,59.94487158089674,
,,,,,,,,,,,,,,,,,,,,,,,,,,,,,,,,,,0,0,0,0,7,0,7,0,,,,,,,,,,,,,,,,,,,,,,,,,,,,0,828,,,1815.5740751849953,,B,160,hexagon,0.0014961870037950575,,,,,,,,,1,0,,2,,,,,,,,,,,1810.7276705139957,1810.7276705139957,1810.7276705139957,1810.7276705139957,1812.237249450991,1812.237249450991,1812.237249450991,1812.237249450991,1812.237249450991,1812.237249450991,1812.237249450991,1812.237249450991,switch,number,numSwt,k,1.8030432469968218,vtsPrac,1814.0724526900012,,,,,,,,,,,,,,,,,,,,,,,90200,2022-10-28_14h56.09.170,vts_reward_expectancy_bt_OFFLINE,2022.2.4,59.94487158089674,
,,,,,,,,,,,,,,,,,,,,,,,,,,,,,,,,,,0,0,0,0,8,0,8,0,,,,,,,,,,,,,,,,,,,,,,,,,,,,0,828,,,1820.2459424080007,,Y,160,circle,0.0017806799878599122,,,,,,,,,1,0,,2,,,,,,,,,,,1816.5519857619947,1816.5519857619947,1816.5519857619947,1816.5519857619947,1818.0601582759991,1818.0601582759991,1818.0601582759991,1818.0601582759991,1818.0601582759991,1818.0601582759991,1818.0601582759991,1818.0601582759991,repeat,number,numRpt,k,0.6515307020017644,vtsPrac,1818.7443673639937,,,,,,,,,,,,,,,,,,,,,,,90200,2022-10-28_14h56.09.170,vts_reward_expectancy_bt_OFFLINE,2022.2.4,59.94487158089674,
,,,,,,,,,,,,,,,,,,,,,,,,,,,,,,,,,,0,0,0,0,9,0,9,0,,,,,,,,,,,,,,,,,,,,,,,,,,,,0,828,,,1825.0346419859998,,S,132,hexagon,0.0012360820110188797,,,,,,,,,1,0,,2,,,,,,,,,,,1821.2242864129948,1821.2242864129948,1821.2242864129948,1821.2242864129948,1822.732290703003,1822.732290703003,1822.732290703003,1822.732290703003,1822.732290703003,1822.732290703003,1822.732290703003,1822.732290703003,switch,letter,lettSwt,f,0.7795701599970926,vtsPrac,1823.533024613993,,,,,,,,,,,,,,,,,,,,,,,90200,2022-10-28_14h56.09.170,vts_reward_expectancy_bt_OFFLINE,2022.2.4,59.94487158089674,
,,,,,,,,,,,,,,,,,,,,,,,,,,,,,,,,,,0,0,0,0,10,0,10,0,,,,,,,,,,,,,,,,,,,,,,,,,,,,0,828,,,1829.6402385120018,,B,139,star,0.0016583569959038869,,,,,,,,,1,0,,2,,,,,,,,,,,1826.0131472840003,1826.0131472840003,1826.0131472840003,1826.0131472840003,1827.5207991310017,1827.5207991310017,1827.5207991310017,1827.5207991310017,1827.5207991310017,1827.5207991310017,1827.5207991310017,1827.5207991310017,repeat,letter,lettRpt,d,0.6000165259902133,vtsPrac,1828.1380970299942,,,,,,,,,,,,,,,,,,,,,,,90200,2022-10-28_14h56.09.170,vts_reward_expectancy_bt_OFFLINE,2022.2.4,59.94487158089674,
,,,,,,,,,,,,,,,,,,,,,,,,,,,,,,,,,,0,0,0,0,11,0,11,0,,,,,,,,,,,,,,,,,,,,,,,,,,,,0,828,,,1834.2614528580016,,U,174,triangle,0.0007896629977039993,,,,,,,,,1,0,,2,,,,,,,,,,,1830.6172946459992,1830.6172946459992,1830.6172946459992,1830.6172946459992,1832.1257250069903,1832.1257250069903,1832.1257250069903,1832.1257250069903,1832.1257250069903,1832.1257250069903,1832.1257250069903,1832.1257250069903,switch,number,numSwt,k,0.609502908991999,vtsPrac,1832.7597837219946,,,,,,,,,,,,,,,,,,,,,,,90200,2022-10-28_14h56.09.170,vts_reward_expectancy_bt_OFFLINE,2022.2.4,59.94487158089674,
,,,,,,,,,,,,,,,,,,,,,,,,,,,,,,,,,,0,0,0,0,12,0,12,0,,,,,,,,,,,,,,,,,,,,,,,,,,,,0,828,,,1838.966676682001,,S,132,triangle,0.001605268000275828,,,,,,,,,1,0,,2,,,,,,,,,,,1835.239017215994,1835.239017215994,1835.239017215994,1835.239017215994,1836.7476144690008,1836.7476144690008,1836.7476144690008,1836.7476144690008,1836.7476144690008,1836.7476144690008,1836.7476144690008,1836.7476144690008,repeat,number,numRpt,j,0.7010509259998798,vtsPrac,1837.4650844760035,,,,,,,,,,,,,,,,,,,,,,,90200,2022-10-28_14h56.09.170,vts_reward_expectancy_bt_OFFLINE,2022.2.4,59.94487158089674,
,,,,,,,,,,,,,,,,,,,,,,,,,,,,,,,,,,0,0,0,0,13,0,13,0,,,,,,,,,,,,,,,,,,,,,,,,,,,,0,828,,,1843.5717568289983,,D,125,hexagon,0.00108861799526494,,,,,,,,,1,0,,2,,,,,,,,,,,1839.9441633249953,1839.9441633249953,1839.9441633249953,1839.9441633249953,1841.452958865004,1841.452958865004,1841.452958865004,1841.452958865004,1841.452958865004,1841.452958865004,1841.452958865004,1841.452958865004,repeat,number,numRpt,j,0.5948415649909293,vtsPrac,1842.0702318029944,,,,,,,,,,,,,,,,,,,,,,,90200,2022-10-28_14h56.09.170,vts_reward_expectancy_bt_OFFLINE,2022.2.4,59.94487158089674,
,,,,,,,,,,,,,,,,,,,,,,,,,,,,,,,,,,0,0,0,0,14,0,14,0,,,,,,,,,,,,,,,,,,,,,,,,,,,,0,828,,,1848.310337005998,,W,139,triangle,0.0013880210026400164,,,,,,,,,1,0,,2,,,,,,,,,,,1844.5500055220036,1844.5500055220036,1844.5500055220036,1844.5500055220036,1846.0578613499965,1846.0578613499965,1846.0578613499965,1846.0578613499965,1846.0578613499965,1846.0578613499965,1846.0578613499965,1846.0578613499965,switch,letter,lettSwt,f,0.7184376649965998,vtsPrac,1846.808754579004,,,,,,,,,,,,,,,,,,,,,,,90200,2022-10-28_14h56.09.170,vts_reward_expectancy_bt_OFFLINE,2022.2.4,59.94487158089674,
,,,,,,,,,,,,,,,,,,,,,,,,,,,,,,,,,,0,0,0,0,15,0,15,0,,,,,,,,,,,,,,,,,,,,,,,,,,,,0,828,,,1852.9654373499943,,U,174,hexagon,0.00175026900251396,,,,,,,,,1,0,,2,,,,,,,,,,,1849.2886574669974,1849.2886574669974,1849.2886574669974,1849.2886574669974,1850.7964639359998,1850.7964639359998,1850.7964639359998,1850.7964639359998,1850.7964639359998,1850.7964639359998,1850.7964639359998,1850.7964639359998,switch,number,numSwt,k,0.634878569006105,vtsPrac,1851.464026193993,,,,,,,,,,,,,,,,,,,,,,,90200,2022-10-28_14h56.09.170,vts_reward_expectancy_bt_OFFLINE,2022.2.4,59.94487158089674,
,,,,,,,,,,,,,,,,,,,,,,,,,,,,,,,,,,,,,,,,,,0,0,0,0,,,,,,,,,,,,,,,,,,,,,,,,0,828,,,1892.992960812,,D,167,triangle,0.0022189879964571446,,,,,,,,,1,0,,,,,,,,,,,,,1889.1988503320026,1889.1988503320026,1889.1988503320026,1889.1988503320026,1890.7073398159991,1890.7073398159991,1890.7073398159991,1890.7073398159991,1890.7073398159991,1890.7073398159991,1890.7073398159991,1890.7073398159991,switch,letter,lettSwt,d,0.7641674570040777,noRew,,0,1891.4911709720036,,,,,,,,,,,,,,,,,,,,,90200,2022-10-28_14h56.09.170,vts_reward_expectancy_bt_OFFLINE,2022.2.4,59.94487158089674,
,,,,,,,,,,,,,,,,,,,,,,,,,,,,,,,,,,,,,,,,,,1,0,1,0,,,,,,,,,,,,,,,,,,,,,,,,0,828,,,1897.5314647189953,,H,132,circle,0.0012081640015821904,,,,,,,,,1,0,,,,,,,,,,,,,1893.9702637790033,1893.9702637790033,1893.9702637790033,1893.9702637790033,1895.4789112260041,1895.4789112260041,1895.4789112260041,1895.4789112260041,1895.4789112260041,1895.4789112260041,1895.4789112260041,1895.4789112260041,repeat,letter,lettRpt,d,0.5201577929983614,noRew,,0,1896.0296053420025,,,,,,,,,,,,,,,,,,,,,90200,2022-10-28_14h56.09.170,vts_reward_expectancy_bt_OFFLINE,2022.2.4,59.94487158089674,
,,,,,,,,,,,,,,,,,,,,,,,,,,,,,,,,,,,,,,,,,,2,0,2,0,,,,,,,,,,,,,,,,,,,,,,,,0,828,,,1902.069698221996,,B,181,hexagon,0.001428228002623655,,,,,,,,,1,0,,,,,,,,,,,,,1898.5087656319956,1898.5087656319956,1898.5087656319956,1898.5087656319956,1900.0173996189988,1900.0173996189988,1900.0173996189988,1900.0173996189988,1900.0173996189988,1900.0173996189988,1900.0173996189988,1900.0173996189988,repeat,letter,lettRpt,d,0.5178640490048565,noRew,,0,1900.5679322359938,,,,,,,,,,,,,,,,,,,,,90200,2022-10-28_14h56.09.170,vts_reward_expectancy_bt_OFFLINE,2022.2.4,59.94487158089674,
,,,,,,,,,,,,,,,,,,,,,,,,,,,,,,,,,,,,,,,,,,3,0,3,0,,,,,,,,,,,,,,,,,,,,,,,,0,828,,,1907.058413421997,,W,125,circle,0.0015660140052204952,,,,,,,,,1,0,,,,,,,,,,,,,1903.0473520410014,1903.0473520410014,1903.0473520410014,1903.0473520410014,1904.5558210070012,1904.5558210070012,1904.5558210070012,1904.5558210070012,1904.5558210070012,1904.5558210070012,1904.5558210070012,1904.5558210070012,switch,number,numSwt,j,0.9799571279872907,noRew,,0,1905.556850680994,,,,,,,,,,,,,,,,,,,,,90200,2022-10-28_14h56.09.170,vts_reward_expectancy_bt_OFFLINE,2022.2.4,59.94487158089674,
,,,,,,,,,,,,,,,,,,,,,,,,,,,,,,,,,,,,,,,,,,4,0,4,0,,,,,,,,,,,,,,,,,,,,,,,,0,828,,,1911.663342822998,,D,167,triangle,0.0016429130046162754,,,,,,,,,1,0,,,,,,,,,,,,,1908.035952848004,1908.035952848004,1908.035952848004,1908.035952848004,1909.5445158490038,1909.5445158490038,1909.5445158490038,1909.5445158490038,1909.5445158490038,1909.5445158490038,1909.5445158490038,1909.5445158490038,switch,letter,lettSwt,d,0.5915042919950793,noRew,,0,1910.1618288269965,,,,,,,,,,,,,,,,,,,,,90200,2022-10-28_14h56.09.170,vts_reward_expectancy_bt_OFFLINE,2022.2.4,59.94487158089674,
,,,,,,,,,,,,,,,,,,,,,,,,,,,,,,,,,,,,,,,,,,5,0,5,0,,,,,,,,,,,,,,,,,,,,,,,,0,828,,,1916.268527510998,,H,132,hexagon,0.0015120439929887652,,,,,,,,,1,0,,,,,,,,,,,,,1912.6401475070015,1912.6401475070015,1912.6401475070015,1912.6401475070015,1914.1495219770004,1914.1495219770004,1914.1495219770004,1914.1495219770004,1914.1495219770004,1914.1495219770004,1914.1495219770004,1914.1495219770004,switch,number,numSwt,j,0.5933733720012242,noRew,,0,1914.7669026420044,,,,,,,,,,,,,,,,,,,,,90200,2022-10-28_14h56.09.170,vts_reward_expectancy_bt_OFFLINE,2022.2.4,59.94487158089674,
,,,,,,,,,,,,,,,,,,,,,,,,,,,,,,,,,,,,,,,,,,6,0,6,0,,,,,,,,,,,,,,,,,,,,,,,,0,828,,,1920.8403431149927,,B,181,triangle,0.0016743000014685094,,,,,,,,,1,0,,,,,,,,,,,,,1917.246327601999,1917.246327601999,1917.246327601999,1917.246327601999,1918.7549027139903,1918.7549027139903,1918.7549027139903,1918.7549027139903,1918.7549027139903,1918.7549027139903,1918.7549027139903,1918.7549027139903,repeat,number,numRpt,k,0.5569398549996549,noRew,,0,1919.338604110002,1920.8403431149927,,,,,,,,,,,,,,,,,,,,90200,2022-10-28_14h56.09.170,vts_reward_expectancy_bt_OFFLINE,2022.2.4,59.94487158089674,
,,,,,,,,,,,,,,,,,,,,,,,,,,,,,,,,,,,,,,,,,,7,0,7,0,,,,,,,,,,,,,,,,,,,,,,,,0,828,,,1925.6956834459997,,W,125,star,0.0010369429946877062,,,,,,,,,1,0,,,,,,,,,,,,,1921.8178586010035,1921.8178586010035,1921.8178586010035,1921.8178586010035,1923.326308040996,1923.326308040996,1923.326308040996,1923.326308040996,1923.326308040996,1923.326308040996,1923.326308040996,1923.326308040996,repeat,number,numRpt,j,0.8413280519889668,noRew,,0,1924.194001928001,,,,,,,,,,,,,,,,,,,,,90200,2022-10-28_14h56.09.170,vts_reward_expectancy_bt_OFFLINE,2022.2.4,59.94487158089674,
,,,,,,,,,,,,,,,,,,,,,,,,,,,,,,,,,,,,,,,,,,8,0,8,0,,,,,,,,,,,,,,,,,,,,,,,,0,828,,,1930.8179688919918,,F,146,star,0.0015988480008672923,,,,,,,,,1,0,,,,,,,,,,,,,1926.6732745100016,1926.6732745100016,1926.6732745100016,1926.6732745100016,1928.1817681370012,1928.1817681370012,1928.1817681370012,1928.1817681370012,1928.1817681370012,1928.1817681370012,1928.1817681370012,1928.1817681370012,switch,letter,lettSwt,d,1.1135559779941104,noRew,,0,1929.3163088449946,,,,,,,,,,,,,,,,,,,,,90200,2022-10-28_14h56.09.170,vts_reward_expectancy_bt_OFFLINE,2022.2.4,59.94487158089674,
,,,,,,,,,,,,,,,,,,,,,,,,,,,,,,,,,,,,,,,,,,9,0,9,0,,,,,,,,,,,,,,,,,,,,,,,,0,828,,,1935.523088264992,,Y,139,circle,0.0015806199953658506,,,,,,,,,1,0,,,,,,,,,,,,,1931.794780133001,1931.794780133001,1931.794780133001,1931.794780133001,1933.304008084,1933.304008084,1933.304008084,1933.304008084,1933.304008084,1933.304008084,1933.304008084,1933.304008084,switch,number,numSwt,j,0.6876395489962306,noRew,,0,1934.0216544720024,,,,,,,,,,,,,,,,,,,,,90200,2022-10-28_14h56.09.170,vts_reward_expectancy_bt_OFFLINE,2022.2.4,59.94487158089674,
,,,,,,,,,,,,,,,,,,,,,,,,,,,,,,,,,,,,,,,,,,10,0,10,0,,,,,,,,,,,,,,,,,,,,,,,,0,828,,,1940.1283321529918,,U,132,hexagon,0.001530800000182353,,,,,,,,,1,0,,,,,,,,,,,,,1936.5005619629956,1936.5005619629956,1936.5005619629956,1936.5005619629956,1938.0093053409946,1938.0093053409946,1938.0093053409946,1938.0093053409946,1938.0093053409946,1938.0093053409946,1938.0093053409946,1938.0093053409946,repeat,number,numRpt,j,0.589912543000537,noRew,,0,1938.6265501809976,,,,,,,,,,,,,,,,,,,,,90200,2022-10-28_14h56.09.170,vts_reward_expectancy_bt_OFFLINE,2022.2.4,59.94487158089674,
,,,,,,,,,,,,,,,,,,,,,,,,,,,,,,,,,,,,,,,,,,11,0,11,0,,,,,,,,,,,,,,,,,,,,,,,,0,828,,,1944.7332414919947,,B,181,triangle,0.0017797600012272596,,,,,,,,,1,0,,,,,,,,,,,,,1941.1060465079936,1941.1060465079936,1941.1060465079936,1941.1060465079936,1942.6141755069984,1942.6141755069984,1942.6141755069984,1942.6141755069984,1942.6141755069984,1942.6141755069984,1942.6141755069984,1942.6141755069984,switch,letter,lettSwt,d,0.5936443259997759,noRew,,0,1943.2317581529933,,,,,,,,,,,,,,,,,,,,,90200,2022-10-28_14h56.09.170,vts_reward_expectancy_bt_OFFLINE,2022.2.4,59.94487158089674,
,,,,,,,,,,,,,,,,,,,,,,,,,,,,,,,,,,,,,,,,,,12,0,12,0,,,,,,,,,,,,,,,,,,,,,,,,0,828,,,1949.6554059329937,,F,167,triangle,0.00148869700205978,,,,,,,,,1,0,,,,,,,,,,,,,1945.7128924559947,1945.7128924559947,1945.7128924559947,1945.7128924559947,1947.219648254002,1947.219648254002,1947.219648254002,1947.219648254002,1947.219648254002,1947.219648254002,1947.219648254002,1947.219648254002,repeat,letter,lettRpt,d,0.9083562390005682,noRew,,0,1948.153908466993,,,,,,,,,,,,,,,,,,,,,90200,2022-10-28_14h56.09.170,vts_reward_expectancy_bt_OFFLINE,2022.2.4,59.94487158089674,
