LTriangleOpac,LCircleOpac,LHexagonOpac,LStarOpac,RTriangleOpac,RCircleOpac,RHexagonOpac,RStarOpac,LShape_ID,RShape_ID,training_blocks.thisRepN,training_blocks.thisTrialN,training_blocks.thisN,training_blocks.thisIndex,training.thisRepN,training.thisTrialN,training.thisN,training.thisIndex,task1_prac_redo.thisRepN,task1_prac_redo.thisTrialN,task1_prac_redo.thisN,task1_prac_redo.thisIndex,task1_prac_trials.thisRepN,task1_prac_trials.thisTrialN,task1_prac_trials.thisN,task1_prac_trials.thisIndex,task2_prac_redo.thisRepN,task2_prac_redo.thisTrialN,task2_prac_redo.thisN,task2_prac_redo.thisIndex,task2_praac_trials.thisRepN,task2_praac_trials.thisTrialN,task2_praac_trials.thisN,task2_praac_trials.thisIndex,vts_prac_redo.thisRepN,vts_prac_redo.thisTrialN,vts_prac_redo.thisN,vts_prac_redo.thisIndex,vts_practice_trials.thisRepN,vts_practice_trials.thisTrialN,vts_practice_trials.thisN,vts_practice_trials.thisIndex,trials_norew.thisRepN,trials_norew.thisTrialN,trials_norew.thisN,trials_norew.thisIndex,block.thisRepN,block.thisTrialN,block.thisN,block.thisIndex,trials_rew.thisRepN,trials_rew.thisTrialN,trials_rew.thisN,trials_rew.thisIndex,key_resp.started,key_resp.keys,key_resp.rt,left_circle.started,right_circle.started,left_triangle.started,right_triangle.started,left_star.started,right_star.started,left_hexagon.started,right_hexagon.started,training_fix.started,training_resp.started,training_resp.keys,training_resp.rt,points_trial,points_cumul,trainBlock,training_feedback_txt.started,fix.started,curr_topStim,curr_bottStim,curr_shape,ISI.started,tgt_fix_prac1.started,top_target_prac1.started,bott_target_prac1.started,target_resp_prac1.started,top_target_prac1.stopped,tgt_fix_prac1.stopped,bott_target_prac1.stopped,target_resp_prac1.stopped,acc,E1,target_resp_prac1.keys,pracBlock,prac_fback_text.started,prac_fback_text.stopped,fix.stopped,target_resp_prac1.rt,tgt_fix_prac2.started,top_target_prac2.started,bott_target_prac2.started,target_resp_prac2.started,target_resp_prac2.keys,target_resp_prac2.rt,star.started,hegagon.started,triangle.started,circle.started,star.stopped,hegagon.stopped,triangle.stopped,circle.stopped,top_target.started,tgt_fix.started,bot_target.started,target_resp.started,alt,task,condition,target_resp.keys,target_resp.rt,rewCond,vts_fback.started,blockNum,norew_fback.started,key_resp_2.keys,key_resp_2.rt,rewExpectancy,feedbk_text.started,feedbk_text.stopped,text_3.started,text_3.stopped,button.started,debrief.index,debrief.itemText,debrief.type,debrief.granularity,debrief.font,debrief.markerColor,debrief.response,debrief.rt,button.numClicks,button.timesOn,button.timesOff,participant,date,expName,psychopyVersion,frameRate,
,,,,,,,,,,,,,,,,,,,,,,,,,,,,,,,,,,,,,,,,,,,,,,,,,,,,,,21.310034070003894,space,15.308973595005227,,,,,,,,,,,,,,,,,,,,,,,,,,,,,,,,,,,,,,,,,,,,,,,,,,,,,,,,,,,,,,,,,,,,,,,,,,,,,,,,,,,,92584,2022-10-27_13h57.55.785,vts_reward_expectancy_bt_OFFLINE,2022.2.4,60.10451646780016,
1,0,0,0,0,1,0,0,triangle,circle,0,0,0,0,0,0,0,0,,,,,,,,,,,,,,,,,,,,,,,,,,,,,,,,,,,,,,,,67.2098575590062,67.2098575590062,67.2098575590062,67.2098575590062,67.2098575590062,67.2098575590062,67.2098575590062,67.2098575590062,67.2098575590062,67.2098575590062,l,4.2495073930040235,10,10,0,71.49024417200417,72.99169667600654,,,,,,,,,,,,,,,,,,,,,,,,,,,,,,,,,,,,,,,,,,,,,,,,,,,,,,,,,,,,,,,,,,,92584,2022-10-27_13h57.55.785,vts_reward_expectancy_bt_OFFLINE,2022.2.4,60.10451646780016,
0,0,1,0,1,0,0,0,hexagon,triangle,0,0,0,0,0,1,1,6,,,,,,,,,,,,,,,,,,,,,,,,,,,,,,,,,,,,,,,,73.49238782700559,73.49238782700559,73.49238782700559,73.49238782700559,73.49238782700559,73.49238782700559,73.49238782700559,73.49238782700559,73.49238782700559,73.49238782700559,l,1.967793638992589,1,11,0,75.477740524002,76.97952138000983,,,,,,,,,,,,,,,,,,,,,,,,,,,,,,,,,,,,,,,,,,,,,,,,,,,,,,,,,,,,,,,,,,,92584,2022-10-27_13h57.55.785,vts_reward_expectancy_bt_OFFLINE,2022.2.4,60.10451646780016,
0,1,0,0,1,0,0,0,circle,triangle,0,0,0,0,0,2,2,3,,,,,,,,,,,,,,,,,,,,,,,,,,,,,,,,,,,,,,,,77.47968393900373,77.47968393900373,77.47968393900373,77.47968393900373,77.47968393900373,77.47968393900373,77.47968393900373,77.47968393900373,77.47968393900373,77.47968393900373,a,1.1397440680011641,10,21,0,78.64799009100534,80.14970940600324,,,,,,,,,,,,,,,,,,,,,,,,,,,,,,,,,,,,,,,,,,,,,,,,,,,,,,,,,,,,,,,,,,,92584,2022-10-27_13h57.55.785,vts_reward_expectancy_bt_OFFLINE,2022.2.4,60.10451646780016,
0,1,0,0,0,0,0,1,circle,star,0,0,0,0,0,3,3,5,,,,,,,,,,,,,,,,,,,,,,,,,,,,,,,,,,,,,,,,80.65026488600415,80.65026488600415,80.65026488600415,80.65026488600415,80.65026488600415,80.65026488600415,80.65026488600415,80.65026488600415,80.65026488600415,80.65026488600415,a,2.577110983998864,1,22,0,83.25316677900264,84.75470781500917,,,,,,,,,,,,,,,,,,,,,,,,,,,,,,,,,,,,,,,,,,,,,,,,,,,,,,,,,,,,,,,,,,,92584,2022-10-27_13h57.55.785,vts_reward_expectancy_bt_OFFLINE,2022.2.4,60.10451646780016,
0,0,0,1,0,1,0,0,star ,circle,0,0,0,0,0,4,4,10,,,,,,,,,,,,,,,,,,,,,,,,,,,,,,,,,,,,,,,,85.2552364780131,85.2552364780131,85.2552364780131,85.2552364780131,85.2552364780131,85.2552364780131,85.2552364780131,85.2552364780131,85.2552364780131,85.2552364780131,l,1.7476115160097834,1,23,0,87.0237913380115,88.52556922000076,,,,,,,,,,,,,,,,,,,,,,,,,,,,,,,,,,,,,,,,,,,,,,,,,,,,,,,,,,,,,,,,,,,92584,2022-10-27_13h57.55.785,vts_reward_expectancy_bt_OFFLINE,2022.2.4,60.10451646780016,
0,0,0,1,0,0,1,0,star,hexagon,0,0,0,0,0,5,5,11,,,,,,,,,,,,,,,,,,,,,,,,,,,,,,,,,,,,,,,,89.0260804790014,89.0260804790014,89.0260804790014,89.0260804790014,89.0260804790014,89.0260804790014,89.0260804790014,89.0260804790014,89.0260804790014,89.0260804790014,a,1.4413851639983477,10,33,0,90.49435986900062,91.99608720801189,,,,,,,,,,,,,,,,,,,,,,,,,,,,,,,,,,,,,,,,,,,,,,,,,,,,,,,,,,,,,,,,,,,92584,2022-10-27_13h57.55.785,vts_reward_expectancy_bt_OFFLINE,2022.2.4,60.10451646780016,
0,0,0,1,1,0,0,0,star,triangle,0,0,0,0,0,6,6,9,,,,,,,,,,,,,,,,,,,,,,,,,,,,,,,,,,,,,,,,92.49650832400948,92.49650832400948,92.49650832400948,92.49650832400948,92.49650832400948,92.49650832400948,92.49650832400948,92.49650832400948,92.49650832400948,92.49650832400948,l,2.6108344289968954,1,34,0,95.13315999800398,96.63451910900767,,,,,,,,,,,,,,,,,,,,,,,,,,,,,,,,,,,,,,,,,,,,,,,,,,,,,,,,,,,,,,,,,,,92584,2022-10-27_13h57.55.785,vts_reward_expectancy_bt_OFFLINE,2022.2.4,60.10451646780016,
1,0,0,0,0,0,0,1,triangle,star,0,0,0,0,0,7,7,2,,,,,,,,,,,,,,,,,,,,,,,,,,,,,,,,,,,,,,,,97.13504449700122,97.13504449700122,97.13504449700122,97.13504449700122,97.13504449700122,97.13504449700122,97.13504449700122,97.13504449700122,97.13504449700122,97.13504449700122,l,2.669026557006873,10,44,0,99.82129195600282,101.32306832200265,,,,,,,,,,,,,,,,,,,,,,,,,,,,,,,,,,,,,,,,,,,,,,,,,,,,,,,,,,,,,,,,,,,92584,2022-10-27_13h57.55.785,vts_reward_expectancy_bt_OFFLINE,2022.2.4,60.10451646780016,
0,0,1,0,0,0,0,1,hexagon,star,0,0,0,0,0,8,8,8,,,,,,,,,,,,,,,,,,,,,,,,,,,,,,,,,,,,,,,,101.82354350000969,101.82354350000969,101.82354350000969,101.82354350000969,101.82354350000969,101.82354350000969,101.82354350000969,101.82354350000969,101.82354350000969,101.82354350000969,a,1.259227581002051,1,45,0,103.10817306500394,104.6100269210001,,,,,,,,,,,,,,,,,,,,,,,,,,,,,,,,,,,,,,,,,,,,,,,,,,,,,,,,,,,,,,,,,,,92584,2022-10-27_13h57.55.785,vts_reward_expectancy_bt_OFFLINE,2022.2.4,60.10451646780016,
1,0,0,0,0,0,1,0,triangle,hexagon,0,0,0,0,0,9,9,1,,,,,,,,,,,,,,,,,,,,,,,,,,,,,,,,,,,,,,,,105.11054503300693,105.11054503300693,105.11054503300693,105.11054503300693,105.11054503300693,105.11054503300693,105.11054503300693,105.11054503300693,105.11054503300693,105.11054503300693,l,1.5888966669881484,10,55,0,106.72879586501222,108.23036263100221,,,,,,,,,,,,,,,,,,,,,,,,,,,,,,,,,,,,,,,,,,,,,,,,,,,,,,,,,,,,,,,,,,,92584,2022-10-27_13h57.55.785,vts_reward_expectancy_bt_OFFLINE,2022.2.4,60.10451646780016,
0,1,0,0,0,0,1,0,circle,hexagon,0,0,0,0,0,10,10,4,,,,,,,,,,,,,,,,,,,,,,,,,,,,,,,,,,,,,,,,108.73113709800236,108.73113709800236,108.73113709800236,108.73113709800236,108.73113709800236,108.73113709800236,108.73113709800236,108.73113709800236,108.73113709800236,108.73113709800236,l,1.4333428619866027,10,65,0,110.18268505300512,111.68445946900465,,,,,,,,,,,,,,,,,,,,,,,,,,,,,,,,,,,,,,,,,,,,,,,,,,,,,,,,,,,,,,,,,,,92584,2022-10-27_13h57.55.785,vts_reward_expectancy_bt_OFFLINE,2022.2.4,60.10451646780016,
0,0,1,0,0,1,0,0,hexagon,circle,0,0,0,0,0,11,11,7,,,,,,,,,,,,,,,,,,,,,,,,,,,,,,,,,,,,,,,,112.18493429900263,112.18493429900263,112.18493429900263,112.18493429900263,112.18493429900263,112.18493429900263,112.18493429900263,112.18493429900263,112.18493429900263,112.18493429900263,a,0.9696259390038904,1,66,0,113.186005252006,114.68781332801154,,,,,,,,,,,,,,,,,,,,,,,,,,,,,,,,,,,,,,,,,,,,,,,,,,,,,,,,,,,,,,,,,,,92584,2022-10-27_13h57.55.785,vts_reward_expectancy_bt_OFFLINE,2022.2.4,60.10451646780016,
1,0,0,0,0,0,1,0,triangle,hexagon,0,0,0,0,1,0,12,1,,,,,,,,,,,,,,,,,,,,,,,,,,,,,,,,,,,,,,,,115.18825420600479,115.18825420600479,115.18825420600479,115.18825420600479,115.18825420600479,115.18825420600479,115.18825420600479,115.18825420600479,115.18825420600479,115.18825420600479,l,1.2788710199965863,10,76,0,116.48981205900782,117.99137063600938,,,,,,,,,,,,,,,,,,,,,,,,,,,,,,,,,,,,,,,,,,,,,,,,,,,,,,,,,,,,,,,,,,,92584,2022-10-27_13h57.55.785,vts_reward_expectancy_bt_OFFLINE,2022.2.4,60.10451646780016,
0,1,0,0,0,0,1,0,circle,hexagon,0,0,0,0,1,1,13,4,,,,,,,,,,,,,,,,,,,,,,,,,,,,,,,,,,,,,,,,118.49187417101348,118.49187417101348,118.49187417101348,118.49187417101348,118.49187417101348,118.49187417101348,118.49187417101348,118.49187417101348,118.49187417101348,118.49187417101348,a,1.5353962590015726,10,86,0,120.06043329200475,121.56190795500879,,,,,,,,,,,,,,,,,,,,,,,,,,,,,,,,,,,,,,,,,,,,,,,,,,,,,,,,,,,,,,,,,,,92584,2022-10-27_13h57.55.785,vts_reward_expectancy_bt_OFFLINE,2022.2.4,60.10451646780016,
0,0,1,0,0,0,0,1,hexagon,star,0,0,0,0,1,2,14,8,,,,,,,,,,,,,,,,,,,,,,,,,,,,,,,,,,,,,,,,122.06248503101233,122.06248503101233,122.06248503101233,122.06248503101233,122.06248503101233,122.06248503101233,122.06248503101233,122.06248503101233,122.06248503101233,122.06248503101233,a,1.4443428980011959,10,96,0,123.53076855800464,125.03247612300038,,,,,,,,,,,,,,,,,,,,,,,,,,,,,,,,,,,,,,,,,,,,,,,,,,,,,,,,,,,,,,,,,,,92584,2022-10-27_13h57.55.785,vts_reward_expectancy_bt_OFFLINE,2022.2.4,60.10451646780016,
0,0,0,1,1,0,0,0,star,triangle,0,0,0,0,1,3,15,9,,,,,,,,,,,,,,,,,,,,,,,,,,,,,,,,,,,,,,,,125.53295541000261,125.53295541000261,125.53295541000261,125.53295541000261,125.53295541000261,125.53295541000261,125.53295541000261,125.53295541000261,125.53295541000261,125.53295541000261,l,2.4536920910031768,1,97,0,128.019184942008,129.52067409800657,,,,,,,,,,,,,,,,,,,,,,,,,,,,,,,,,,,,,,,,,,,,,,,,,,,,,,,,,,,,,,,,,,,92584,2022-10-27_13h57.55.785,vts_reward_expectancy_bt_OFFLINE,2022.2.4,60.10451646780016,
0,1,0,0,0,0,0,1,circle,star,0,0,0,0,1,4,16,5,,,,,,,,,,,,,,,,,,,,,,,,,,,,,,,,,,,,,,,,130.02133221300028,130.02133221300028,130.02133221300028,130.02133221300028,130.02133221300028,130.02133221300028,130.02133221300028,130.02133221300028,130.02133221300028,130.02133221300028,l,1.9346209600043949,1,98,0,131.97345573900384,133.47513108400744,,,,,,,,,,,,,,,,,,,,,,,,,,,,,,,,,,,,,,,,,,,,,,,,,,,,,,,,,,,,,,,,,,,92584,2022-10-27_13h57.55.785,vts_reward_expectancy_bt_OFFLINE,2022.2.4,60.10451646780016,
1,0,0,0,0,0,0,1,triangle,star,0,0,0,0,1,5,17,2,,,,,,,,,,,,,,,,,,,,,,,,,,,,,,,,,,,,,,,,133.97574002700276,133.97574002700276,133.97574002700276,133.97574002700276,133.97574002700276,133.97574002700276,133.97574002700276,133.97574002700276,133.97574002700276,133.97574002700276,l,1.995859026996186,10,108,0,135.9945459990122,137.4963859420095,,,,,,,,,,,,,,,,,,,,,,,,,,,,,,,,,,,,,,,,,,,,,,,,,,,,,,,,,,,,,,,,,,,92584,2022-10-27_13h57.55.785,vts_reward_expectancy_bt_OFFLINE,2022.2.4,60.10451646780016,
0,0,1,0,0,1,0,0,hexagon,circle,0,0,0,0,1,6,18,7,,,,,,,,,,,,,,,,,,,,,,,,,,,,,,,,,,,,,,,,137.99687743899995,137.99687743899995,137.99687743899995,137.99687743899995,137.99687743899995,137.99687743899995,137.99687743899995,137.99687743899995,137.99687743899995,137.99687743899995,a,1.4220986319996882,1,109,0,139.44832239800598,140.94992404500954,,,,,,,,,,,,,,,,,,,,,,,,,,,,,,,,,,,,,,,,,,,,,,,,,,,,,,,,,,,,,,,,,,,92584,2022-10-27_13h57.55.785,vts_reward_expectancy_bt_OFFLINE,2022.2.4,60.10451646780016,
0,0,1,0,1,0,0,0,hexagon,triangle,0,0,0,0,1,7,19,6,,,,,,,,,,,,,,,,,,,,,,,,,,,,,,,,,,,,,,,,141.4505686580087,141.4505686580087,141.4505686580087,141.4505686580087,141.4505686580087,141.4505686580087,141.4505686580087,141.4505686580087,141.4505686580087,141.4505686580087,a,1.313235102003091,1,110,0,142.7852011280047,144.28690733401163,,,,,,,,,,,,,,,,,,,,,,,,,,,,,,,,,,,,,,,,,,,,,,,,,,,,,,,,,,,,,,,,,,,92584,2022-10-27_13h57.55.785,vts_reward_expectancy_bt_OFFLINE,2022.2.4,60.10451646780016,
0,1,0,0,1,0,0,0,circle,triangle,0,0,0,0,1,8,20,3,,,,,,,,,,,,,,,,,,,,,,,,,,,,,,,,,,,,,,,,144.78756392700598,144.78756392700598,144.78756392700598,144.78756392700598,144.78756392700598,144.78756392700598,144.78756392700598,144.78756392700598,144.78756392700598,144.78756392700598,l,1.0079597009898862,10,120,0,145.82202985500044,147.32369556699996,,,,,,,,,,,,,,,,,,,,,,,,,,,,,,,,,,,,,,,,,,,,,,,,,,,,,,,,,,,,,,,,,,,92584,2022-10-27_13h57.55.785,vts_reward_expectancy_bt_OFFLINE,2022.2.4,60.10451646780016,
0,0,0,1,0,1,0,0,star ,circle,0,0,0,0,1,9,21,10,,,,,,,,,,,,,,,,,,,,,,,,,,,,,,,,,,,,,,,,147.8242042230122,147.8242042230122,147.8242042230122,147.8242042230122,147.8242042230122,147.8242042230122,147.8242042230122,147.8242042230122,147.8242042230122,147.8242042230122,a,1.0347640980035067,10,130,0,148.8920491260069,150.39381458700518,,,,,,,,,,,,,,,,,,,,,,,,,,,,,,,,,,,,,,,,,,,,,,,,,,,,,,,,,,,,,,,,,,,92584,2022-10-27_13h57.55.785,vts_reward_expectancy_bt_OFFLINE,2022.2.4,60.10451646780016,
0,0,0,1,0,0,1,0,star,hexagon,0,0,0,0,1,10,22,11,,,,,,,,,,,,,,,,,,,,,,,,,,,,,,,,,,,,,,,,150.89434398400772,150.89434398400772,150.89434398400772,150.89434398400772,150.89434398400772,150.89434398400772,150.89434398400772,150.89434398400772,150.89434398400772,150.89434398400772,a,0.9652129989990499,1,131,0,151.87867292600276,153.38047737401212,,,,,,,,,,,,,,,,,,,,,,,,,,,,,,,,,,,,,,,,,,,,,,,,,,,,,,,,,,,,,,,,,,,92584,2022-10-27_13h57.55.785,vts_reward_expectancy_bt_OFFLINE,2022.2.4,60.10451646780016,
1,0,0,0,0,1,0,0,triangle,circle,0,0,0,0,1,11,23,0,,,,,,,,,,,,,,,,,,,,,,,,,,,,,,,,,,,,,,,,153.88099135400262,153.88099135400262,153.88099135400262,153.88099135400262,153.88099135400262,153.88099135400262,153.88099135400262,153.88099135400262,153.88099135400262,153.88099135400262,l,6.22604022899759,10,141,0,160.13787830200454,161.63936150200607,,,,,,,,,,,,,,,,,,,,,,,,,,,,,,,,,,,,,,,,,,,,,,,,,,,,,,,,,,,,,,,,,,,92584,2022-10-27_13h57.55.785,vts_reward_expectancy_bt_OFFLINE,2022.2.4,60.10451646780016,
0,0,0,1,0,1,0,0,star ,circle,0,0,0,0,2,0,24,10,,,,,,,,,,,,,,,,,,,,,,,,,,,,,,,,,,,,,,,,162.1401117780042,162.1401117780042,162.1401117780042,162.1401117780042,162.1401117780042,162.1401117780042,162.1401117780042,162.1401117780042,162.1401117780042,162.1401117780042,l,1.2235740779869957,10,151,0,163.39126453301287,164.8930627610098,,,,,,,,,,,,,,,,,,,,,,,,,,,,,,,,,,,,,,,,,,,,,,,,,,,,,,,,,,,,,,,,,,,92584,2022-10-27_13h57.55.785,vts_reward_expectancy_bt_OFFLINE,2022.2.4,60.10451646780016,
0,1,0,0,0,0,1,0,circle,hexagon,0,0,0,0,2,1,25,4,,,,,,,,,,,,,,,,,,,,,,,,,,,,,,,,,,,,,,,,165.39360096400196,165.39360096400196,165.39360096400196,165.39360096400196,165.39360096400196,165.39360096400196,165.39360096400196,165.39360096400196,165.39360096400196,165.39360096400196,a,0.8976707050023833,1,152,0,166.3111839070043,167.81280445000448,,,,,,,,,,,,,,,,,,,,,,,,,,,,,,,,,,,,,,,,,,,,,,,,,,,,,,,,,,,,,,,,,,,92584,2022-10-27_13h57.55.785,vts_reward_expectancy_bt_OFFLINE,2022.2.4,60.10451646780016,
0,0,1,0,0,0,0,1,hexagon,star,0,0,0,0,2,2,26,8,,,,,,,,,,,,,,,,,,,,,,,,,,,,,,,,,,,,,,,,168.31340906000696,168.31340906000696,168.31340906000696,168.31340906000696,168.31340906000696,168.31340906000696,168.31340906000696,168.31340906000696,168.31340906000696,168.31340906000696,a,1.5613162939989707,10,162,0,169.8984849610133,171.40039613300178,,,,,,,,,,,,,,,,,,,,,,,,,,,,,,,,,,,,,,,,,,,,,,,,,,,,,,,,,,,,,,,,,,,92584,2022-10-27_13h57.55.785,vts_reward_expectancy_bt_OFFLINE,2022.2.4,60.10451646780016,
1,0,0,0,0,1,0,0,triangle,circle,0,0,0,0,2,3,27,0,,,,,,,,,,,,,,,,,,,,,,,,,,,,,,,,,,,,,,,,171.9008582940005,171.9008582940005,171.9008582940005,171.9008582940005,171.9008582940005,171.9008582940005,171.9008582940005,171.9008582940005,171.9008582940005,171.9008582940005,l,0.9991397520061582,1,163,0,172.91856983900652,174.42027446501015,,,,,,,,,,,,,,,,,,,,,,,,,,,,,,,,,,,,,,,,,,,,,,,,,,,,,,,,,,,,,,,,,,,92584,2022-10-27_13h57.55.785,vts_reward_expectancy_bt_OFFLINE,2022.2.4,60.10451646780016,
0,1,0,0,0,0,0,1,circle,star,0,0,0,0,2,4,28,5,,,,,,,,,,,,,,,,,,,,,,,,,,,,,,,,,,,,,,,,174.92082415400364,174.92082415400364,174.92082415400364,174.92082415400364,174.92082415400364,174.92082415400364,174.92082415400364,174.92082415400364,174.92082415400364,174.92082415400364,a,0.8271911189949606,1,164,0,175.7716989670007,177.2733968130051,,,,,,,,,,,,,,,,,,,,,,,,,,,,,,,,,,,,,,,,,,,,,,,,,,,,,,,,,,,,,,,,,,,92584,2022-10-27_13h57.55.785,vts_reward_expectancy_bt_OFFLINE,2022.2.4,60.10451646780016,
0,0,1,0,0,1,0,0,hexagon,circle,0,0,0,0,2,5,29,7,,,,,,,,,,,,,,,,,,,,,,,,,,,,,,,,,,,,,,,,177.77393680201203,177.77393680201203,177.77393680201203,177.77393680201203,177.77393680201203,177.77393680201203,177.77393680201203,177.77393680201203,177.77393680201203,177.77393680201203,a,0.6856716229958693,1,165,0,178.49130308200256,179.99301345100685,,,,,,,,,,,,,,,,,,,,,,,,,,,,,,,,,,,,,,,,,,,,,,,,,,,,,,,,,,,,,,,,,,,92584,2022-10-27_13h57.55.785,vts_reward_expectancy_bt_OFFLINE,2022.2.4,60.10451646780016,
1,0,0,0,0,0,1,0,triangle,hexagon,0,0,0,0,2,6,30,1,,,,,,,,,,,,,,,,,,,,,,,,,,,,,,,,,,,,,,,,180.49367131100735,180.49367131100735,180.49367131100735,180.49367131100735,180.49367131100735,180.49367131100735,180.49367131100735,180.49367131100735,180.49367131100735,180.49367131100735,l,1.4049072670022724,10,175,0,181.92857832601294,183.43024957401212,,,,,,,,,,,,,,,,,,,,,,,,,,,,,,,,,,,,,,,,,,,,,,,,,,,,,,,,,,,,,,,,,,,92584,2022-10-27_13h57.55.785,vts_reward_expectancy_bt_OFFLINE,2022.2.4,60.10451646780016,
0,0,1,0,1,0,0,0,hexagon,triangle,0,0,0,0,2,7,31,6,,,,,,,,,,,,,,,,,,,,,,,,,,,,,,,,,,,,,,,,183.93072072201176,183.93072072201176,183.93072072201176,183.93072072201176,183.93072072201176,183.93072072201176,183.93072072201176,183.93072072201176,183.93072072201176,183.93072072201176,l,1.3930637919984292,1,176,0,185.34914713801118,186.85067895401153,,,,,,,,,,,,,,,,,,,,,,,,,,,,,,,,,,,,,,,,,,,,,,,,,,,,,,,,,,,,,,,,,,,92584,2022-10-27_13h57.55.785,vts_reward_expectancy_bt_OFFLINE,2022.2.4,60.10451646780016,
0,1,0,0,1,0,0,0,circle,triangle,0,0,0,0,2,8,32,3,,,,,,,,,,,,,,,,,,,,,,,,,,,,,,,,,,,,,,,,187.35118712601252,187.35118712601252,187.35118712601252,187.35118712601252,187.35118712601252,187.35118712601252,187.35118712601252,187.35118712601252,187.35118712601252,187.35118712601252,l,1.6437041099998169,10,186,0,189.0195658020093,190.52150040700508,,,,,,,,,,,,,,,,,,,,,,,,,,,,,,,,,,,,,,,,,,,,,,,,,,,,,,,,,,,,,,,,,,,92584,2022-10-27_13h57.55.785,vts_reward_expectancy_bt_OFFLINE,2022.2.4,60.10451646780016,
0,0,0,1,1,0,0,0,star,triangle,0,0,0,0,2,9,33,9,,,,,,,,,,,,,,,,,,,,,,,,,,,,,,,,,,,,,,,,191.02193862800777,191.02193862800777,191.02193862800777,191.02193862800777,191.02193862800777,191.02193862800777,191.02193862800777,191.02193862800777,191.02193862800777,191.02193862800777,a,0.32492016900505405,1,187,0,191.3724765770021,192.87399896800343,,,,,,,,,,,,,,,,,,,,,,,,,,,,,,,,,,,,,,,,,,,,,,,,,,,,,,,,,,,,,,,,,,,92584,2022-10-27_13h57.55.785,vts_reward_expectancy_bt_OFFLINE,2022.2.4,60.10451646780016,
0,0,0,1,0,0,1,0,star,hexagon,0,0,0,0,2,10,34,11,,,,,,,,,,,,,,,,,,,,,,,,,,,,,,,,,,,,,,,,193.37450930800696,193.37450930800696,193.37450930800696,193.37450930800696,193.37450930800696,193.37450930800696,193.37450930800696,193.37450930800696,193.37450930800696,193.37450930800696,l,0.6683059250062797,10,197,0,194.07554933300707,195.57697932200972,,,,,,,,,,,,,,,,,,,,,,,,,,,,,,,,,,,,,,,,,,,,,,,,,,,,,,,,,,,,,,,,,,,92584,2022-10-27_13h57.55.785,vts_reward_expectancy_bt_OFFLINE,2022.2.4,60.10451646780016,
1,0,0,0,0,0,0,1,triangle,star,0,0,0,0,2,11,35,2,,,,,,,,,,,,,,,,,,,,,,,,,,,,,,,,,,,,,,,,196.07780357300362,196.07780357300362,196.07780357300362,196.07780357300362,196.07780357300362,196.07780357300362,196.07780357300362,196.07780357300362,196.07780357300362,196.07780357300362,a,0.861764001994743,10,207,0,196.9617101180047,198.4636114830064,,,,,,,,,,,,,,,,,,,,,,,,,,,,,,,,,,,,,,,,,,,,,,,,,,,,,,,,,,,,,,,,,,,92584,2022-10-27_13h57.55.785,vts_reward_expectancy_bt_OFFLINE,2022.2.4,60.10451646780016,
0,0,0,1,1,0,0,0,star,triangle,0,0,0,0,3,0,36,9,,,,,,,,,,,,,,,,,,,,,,,,,,,,,,,,,,,,,,,,198.9640207420016,198.9640207420016,198.9640207420016,198.9640207420016,198.9640207420016,198.9640207420016,198.9640207420016,198.9640207420016,198.9640207420016,198.9640207420016,l,0.4792856900021434,1,208,0,199.46453390200622,200.96606872401026,,,,,,,,,,,,,,,,,,,,,,,,,,,,,,,,,,,,,,,,,,,,,,,,,,,,,,,,,,,,,,,,,,,92584,2022-10-27_13h57.55.785,vts_reward_expectancy_bt_OFFLINE,2022.2.4,60.10451646780016,
0,1,0,0,0,0,1,0,circle,hexagon,0,0,0,0,3,1,37,4,,,,,,,,,,,,,,,,,,,,,,,,,,,,,,,,,,,,,,,,201.46665820899943,201.46665820899943,201.46665820899943,201.46665820899943,201.46665820899943,201.46665820899943,201.46665820899943,201.46665820899943,201.46665820899943,201.46665820899943,a,0.6173699010105338,1,209,0,202.1007212280092,203.60238150300574,,,,,,,,,,,,,,,,,,,,,,,,,,,,,,,,,,,,,,,,,,,,,,,,,,,,,,,,,,,,,,,,,,,92584,2022-10-27_13h57.55.785,vts_reward_expectancy_bt_OFFLINE,2022.2.4,60.10451646780016,
0,1,0,0,1,0,0,0,circle,triangle,0,0,0,0,3,2,38,3,,,,,,,,,,,,,,,,,,,,,,,,,,,,,,,,,,,,,,,,204.10300200000347,204.10300200000347,204.10300200000347,204.10300200000347,204.10300200000347,204.10300200000347,204.10300200000347,204.10300200000347,204.10300200000347,204.10300200000347,l,0.5645902380056214,10,219,0,204.68678947800072,206.18871867700364,,,,,,,,,,,,,,,,,,,,,,,,,,,,,,,,,,,,,,,,,,,,,,,,,,,,,,,,,,,,,,,,,,,92584,2022-10-27_13h57.55.785,vts_reward_expectancy_bt_OFFLINE,2022.2.4,60.10451646780016,
0,0,1,0,1,0,0,0,hexagon,triangle,0,0,0,0,3,3,39,6,,,,,,,,,,,,,,,,,,,,,,,,,,,,,,,,,,,,,,,,206.6891058080073,206.6891058080073,206.6891058080073,206.6891058080073,206.6891058080073,206.6891058080073,206.6891058080073,206.6891058080073,206.6891058080073,206.6891058080073,a,1.0508455649978714,1,220,0,207.75701159900927,209.2587842320063,,,,,,,,,,,,,,,,,,,,,,,,,,,,,,,,,,,,,,,,,,,,,,,,,,,,,,,,,,,,,,,,,,,92584,2022-10-27_13h57.55.785,vts_reward_expectancy_bt_OFFLINE,2022.2.4,60.10451646780016,
0,1,0,0,0,0,0,1,circle,star,0,0,0,0,3,4,40,5,,,,,,,,,,,,,,,,,,,,,,,,,,,,,,,,,,,,,,,,209.75924099300755,209.75924099300755,209.75924099300755,209.75924099300755,209.75924099300755,209.75924099300755,209.75924099300755,209.75924099300755,209.75924099300755,209.75924099300755,l,0.48420094899483956,10,230,0,210.27656287200807,211.77812474001257,,,,,,,,,,,,,,,,,,,,,,,,,,,,,,,,,,,,,,,,,,,,,,,,,,,,,,,,,,,,,,,,,,,92584,2022-10-27_13h57.55.785,vts_reward_expectancy_bt_OFFLINE,2022.2.4,60.10451646780016,
0,0,0,1,0,1,0,0,star ,circle,0,0,0,0,3,5,41,10,,,,,,,,,,,,,,,,,,,,,,,,,,,,,,,,,,,,,,,,212.27877692600305,212.27877692600305,212.27877692600305,212.27877692600305,212.27877692600305,212.27877692600305,212.27877692600305,212.27877692600305,212.27877692600305,212.27877692600305,l,1.8766730290080886,10,240,0,214.18088832200738,215.68242831600946,,,,,,,,,,,,,,,,,,,,,,,,,,,,,,,,,,,,,,,,,,,,,,,,,,,,,,,,,,,,,,,,,,,92584,2022-10-27_13h57.55.785,vts_reward_expectancy_bt_OFFLINE,2022.2.4,60.10451646780016,
1,0,0,0,0,0,0,1,triangle,star,0,0,0,0,3,6,42,2,,,,,,,,,,,,,,,,,,,,,,,,,,,,,,,,,,,,,,,,216.1830749110086,216.1830749110086,216.1830749110086,216.1830749110086,216.1830749110086,216.1830749110086,216.1830749110086,216.1830749110086,216.1830749110086,216.1830749110086,a,4.779814377994626,10,250,0,220.98830952199933,222.48994147400663,,,,,,,,,,,,,,,,,,,,,,,,,,,,,,,,,,,,,,,,,,,,,,,,,,,,,,,,,,,,,,,,,,,92584,2022-10-27_13h57.55.785,vts_reward_expectancy_bt_OFFLINE,2022.2.4,60.10451646780016,
1,0,0,0,0,1,0,0,triangle,circle,0,0,0,0,3,7,43,0,,,,,,,,,,,,,,,,,,,,,,,,,,,,,,,,,,,,,,,,222.9904764439998,222.9904764439998,222.9904764439998,222.9904764439998,222.9904764439998,222.9904764439998,222.9904764439998,222.9904764439998,222.9904764439998,222.9904764439998,a,3.76501621499483,1,251,0,226.77797893701063,228.2796802560042,,,,,,,,,,,,,,,,,,,,,,,,,,,,,,,,,,,,,,,,,,,,,,,,,,,,,,,,,,,,,,,,,,,92584,2022-10-27_13h57.55.785,vts_reward_expectancy_bt_OFFLINE,2022.2.4,60.10451646780016,
0,0,1,0,0,1,0,0,hexagon,circle,0,0,0,0,3,8,44,7,,,,,,,,,,,,,,,,,,,,,,,,,,,,,,,,,,,,,,,,228.7803613920114,228.7803613920114,228.7803613920114,228.7803613920114,228.7803613920114,228.7803613920114,228.7803613920114,228.7803613920114,228.7803613920114,228.7803613920114,a,1.0390981390082743,1,252,0,229.84802072100865,231.34967467001115,,,,,,,,,,,,,,,,,,,,,,,,,,,,,,,,,,,,,,,,,,,,,,,,,,,,,,,,,,,,,,,,,,,92584,2022-10-27_13h57.55.785,vts_reward_expectancy_bt_OFFLINE,2022.2.4,60.10451646780016,
0,0,1,0,0,0,0,1,hexagon,star,0,0,0,0,3,9,45,8,,,,,,,,,,,,,,,,,,,,,,,,,,,,,,,,,,,,,,,,231.8503893550078,231.8503893550078,231.8503893550078,231.8503893550078,231.8503893550078,231.8503893550078,231.8503893550078,231.8503893550078,231.8503893550078,231.8503893550078,l,1.1455855849926593,10,262,0,233.01828146600747,234.51986036100425,,,,,,,,,,,,,,,,,,,,,,,,,,,,,,,,,,,,,,,,,,,,,,,,,,,,,,,,,,,,,,,,,,,92584,2022-10-27_13h57.55.785,vts_reward_expectancy_bt_OFFLINE,2022.2.4,60.10451646780016,
1,0,0,0,0,0,1,0,triangle,hexagon,0,0,0,0,3,10,46,1,,,,,,,,,,,,,,,,,,,,,,,,,,,,,,,,,,,,,,,,235.0205089860101,235.0205089860101,235.0205089860101,235.0205089860101,235.0205089860101,235.0205089860101,235.0205089860101,235.0205089860101,235.0205089860101,235.0205089860101,l,1.335114881003392,10,272,0,236.38880961701216,237.89031639200402,,,,,,,,,,,,,,,,,,,,,,,,,,,,,,,,,,,,,,,,,,,,,,,,,,,,,,,,,,,,,,,,,,,92584,2022-10-27_13h57.55.785,vts_reward_expectancy_bt_OFFLINE,2022.2.4,60.10451646780016,
0,0,0,1,0,0,1,0,star,hexagon,0,0,0,0,3,11,47,11,,,,,,,,,,,,,,,,,,,,,,,,,,,,,,,,,,,,,,,,238.39081065601204,238.39081065601204,238.39081065601204,238.39081065601204,238.39081065601204,238.39081065601204,238.39081065601204,238.39081065601204,238.39081065601204,238.39081065601204,a,1.3960523900022963,10,282,0,239.80904897800065,241.31070873200952,,,,,,,,,,,,,,,,,,,,,,,,,,,,,,,,,,,,,,,,,,,,,,,,,,,,,,,,,,,,,,,,,,,92584,2022-10-27_13h57.55.785,vts_reward_expectancy_bt_OFFLINE,2022.2.4,60.10451646780016,
0,0,0,1,1,0,0,0,star,triangle,1,0,1,0,0,0,0,9,,,,,,,,,,,,,,,,,,,,,,,,,,,,,,,,,,,,,,,,248.4583649920096,248.4583649920096,248.4583649920096,248.4583649920096,248.4583649920096,248.4583649920096,248.4583649920096,248.4583649920096,248.4583649920096,248.4583649920096,a,1.2801782739988994,10,292,1,249.77001859000302,251.2717427710013,,,,,,,,,,,,,,,,,,,,,,,,,,,,,,,,,,,,,,,,,,,,,,,,,,,,,,,,,,,,,,,,,,,92584,2022-10-27_13h57.55.785,vts_reward_expectancy_bt_OFFLINE,2022.2.4,60.10451646780016,
0,0,0,1,0,0,1,0,star,hexagon,1,0,1,0,0,1,1,11,,,,,,,,,,,,,,,,,,,,,,,,,,,,,,,,,,,,,,,,251.7722672450036,251.7722672450036,251.7722672450036,251.7722672450036,251.7722672450036,251.7722672450036,251.7722672450036,251.7722672450036,251.7722672450036,251.7722672450036,a,0.6793717840046156,10,302,1,252.47314634200302,253.97465701799956,,,,,,,,,,,,,,,,,,,,,,,,,,,,,,,,,,,,,,,,,,,,,,,,,,,,,,,,,,,,,,,,,,,92584,2022-10-27_13h57.55.785,vts_reward_expectancy_bt_OFFLINE,2022.2.4,60.10451646780016,
1,0,0,0,0,1,0,0,triangle,circle,1,0,1,0,0,2,2,0,,,,,,,,,,,,,,,,,,,,,,,,,,,,,,,,,,,,,,,,254.47517233600956,254.47517233600956,254.47517233600956,254.47517233600956,254.47517233600956,254.47517233600956,254.47517233600956,254.47517233600956,254.47517233600956,254.47517233600956,l,1.4329949660022976,1,303,1,255.92685055700713,257.428572749006,,,,,,,,,,,,,,,,,,,,,,,,,,,,,,,,,,,,,,,,,,,,,,,,,,,,,,,,,,,,,,,,,,,92584,2022-10-27_13h57.55.785,vts_reward_expectancy_bt_OFFLINE,2022.2.4,60.10451646780016,
0,0,1,0,1,0,0,0,hexagon,triangle,1,0,1,0,0,3,3,6,,,,,,,,,,,,,,,,,,,,,,,,,,,,,,,,,,,,,,,,257.9291895780043,257.9291895780043,257.9291895780043,257.9291895780043,257.9291895780043,257.9291895780043,257.9291895780043,257.9291895780043,257.9291895780043,257.9291895780043,l,1.2095772909960942,1,304,1,259.1638584940083,260.6653829900024,,,,,,,,,,,,,,,,,,,,,,,,,,,,,,,,,,,,,,,,,,,,,,,,,,,,,,,,,,,,,,,,,,,92584,2022-10-27_13h57.55.785,vts_reward_expectancy_bt_OFFLINE,2022.2.4,60.10451646780016,
0,0,0,1,0,1,0,0,star ,circle,1,0,1,0,0,4,4,10,,,,,,,,,,,,,,,,,,,,,,,,,,,,,,,,,,,,,,,,261.1659549390024,261.1659549390024,261.1659549390024,261.1659549390024,261.1659549390024,261.1659549390024,261.1659549390024,261.1659549390024,261.1659549390024,261.1659549390024,a,0.7823261150042526,1,305,1,261.9668034560018,263.46850248400006,,,,,,,,,,,,,,,,,,,,,,,,,,,,,,,,,,,,,,,,,,,,,,,,,,,,,,,,,,,,,,,,,,,92584,2022-10-27_13h57.55.785,vts_reward_expectancy_bt_OFFLINE,2022.2.4,60.10451646780016,
1,0,0,0,0,0,0,1,triangle,star,1,0,1,0,0,5,5,2,,,,,,,,,,,,,,,,,,,,,,,,,,,,,,,,,,,,,,,,263.969186997012,263.969186997012,263.969186997012,263.969186997012,263.969186997012,263.969186997012,263.969186997012,263.969186997012,263.969186997012,263.969186997012,l,0.7626238859957084,10,315,1,264.75341276401014,266.25505756700295,,,,,,,,,,,,,,,,,,,,,,,,,,,,,,,,,,,,,,,,,,,,,,,,,,,,,,,,,,,,,,,,,,,92584,2022-10-27_13h57.55.785,vts_reward_expectancy_bt_OFFLINE,2022.2.4,60.10451646780016,
0,1,0,0,0,0,1,0,circle,hexagon,1,0,1,0,0,6,6,4,,,,,,,,,,,,,,,,,,,,,,,,,,,,,,,,,,,,,,,,266.7554567170009,266.7554567170009,266.7554567170009,266.7554567170009,266.7554567170009,266.7554567170009,266.7554567170009,266.7554567170009,266.7554567170009,266.7554567170009,a,1.4080310829886002,10,325,1,268.19039517499914,269.6917423170089,,,,,,,,,,,,,,,,,,,,,,,,,,,,,,,,,,,,,,,,,,,,,,,,,,,,,,,,,,,,,,,,,,,92584,2022-10-27_13h57.55.785,vts_reward_expectancy_bt_OFFLINE,2022.2.4,60.10451646780016,
0,1,0,0,1,0,0,0,circle,triangle,1,0,1,0,0,7,7,3,,,,,,,,,,,,,,,,,,,,,,,,,,,,,,,,,,,,,,,,270.19264549101354,270.19264549101354,270.19264549101354,270.19264549101354,270.19264549101354,270.19264549101354,270.19264549101354,270.19264549101354,270.19264549101354,270.19264549101354,l,1.0915300460037543,10,335,1,271.31049841501226,272.81220388000656,,,,,,,,,,,,,,,,,,,,,,,,,,,,,,,,,,,,,,,,,,,,,,,,,,,,,,,,,,,,,,,,,,,92584,2022-10-27_13h57.55.785,vts_reward_expectancy_bt_OFFLINE,2022.2.4,60.10451646780016,
1,0,0,0,0,0,1,0,triangle,hexagon,1,0,1,0,0,8,8,1,,,,,,,,,,,,,,,,,,,,,,,,,,,,,,,,,,,,,,,,273.3127926820016,273.3127926820016,273.3127926820016,273.3127926820016,273.3127926820016,273.3127926820016,273.3127926820016,273.3127926820016,273.3127926820016,273.3127926820016,l,1.0347643260029145,10,345,1,274.36383852201106,275.86547029700887,,,,,,,,,,,,,,,,,,,,,,,,,,,,,,,,,,,,,,,,,,,,,,,,,,,,,,,,,,,,,,,,,,,92584,2022-10-27_13h57.55.785,vts_reward_expectancy_bt_OFFLINE,2022.2.4,60.10451646780016,
0,0,1,0,0,0,0,1,hexagon,star,1,0,1,0,0,9,9,8,,,,,,,,,,,,,,,,,,,,,,,,,,,,,,,,,,,,,,,,276.3659343590116,276.3659343590116,276.3659343590116,276.3659343590116,276.3659343590116,276.3659343590116,276.3659343590116,276.3659343590116,276.3659343590116,276.3659343590116,l,1.0455475089984247,10,355,1,277.43387357301253,278.9355943670089,,,,,,,,,,,,,,,,,,,,,,,,,,,,,,,,,,,,,,,,,,,,,,,,,,,,,,,,,,,,,,,,,,,92584,2022-10-27_13h57.55.785,vts_reward_expectancy_bt_OFFLINE,2022.2.4,60.10451646780016,
0,1,0,0,0,0,0,1,circle,star,1,0,1,0,0,10,10,5,,,,,,,,,,,,,,,,,,,,,,,,,,,,,,,,,,,,,,,,279.43616416701116,279.43616416701116,279.43616416701116,279.43616416701116,279.43616416701116,279.43616416701116,279.43616416701116,279.43616416701116,279.43616416701116,279.43616416701116,a,2.184093618998304,10,365,1,281.63867520001077,283.14029602200026,,,,,,,,,,,,,,,,,,,,,,,,,,,,,,,,,,,,,,,,,,,,,,,,,,,,,,,,,,,,,,,,,,,92584,2022-10-27_13h57.55.785,vts_reward_expectancy_bt_OFFLINE,2022.2.4,60.10451646780016,
0,0,1,0,0,1,0,0,hexagon,circle,1,0,1,0,0,11,11,7,,,,,,,,,,,,,,,,,,,,,,,,,,,,,,,,,,,,,,,,283.64071851001063,283.64071851001063,283.64071851001063,283.64071851001063,283.64071851001063,283.64071851001063,283.64071851001063,283.64071851001063,283.64071851001063,283.64071851001063,a,0.8344525290012825,10,375,1,284.4917917470011,285.9932328480063,,,,,,,,,,,,,,,,,,,,,,,,,,,,,,,,,,,,,,,,,,,,,,,,,,,,,,,,,,,,,,,,,,,92584,2022-10-27_13h57.55.785,vts_reward_expectancy_bt_OFFLINE,2022.2.4,60.10451646780016,
0,0,0,1,1,0,0,0,star,triangle,1,0,1,0,1,0,12,9,,,,,,,,,,,,,,,,,,,,,,,,,,,,,,,,,,,,,,,,286.4938891000056,286.4938891000056,286.4938891000056,286.4938891000056,286.4938891000056,286.4938891000056,286.4938891000056,286.4938891000056,286.4938891000056,286.4938891000056,l,1.2290298820007592,10,385,1,287.745295257002,289.24703682500694,,,,,,,,,,,,,,,,,,,,,,,,,,,,,,,,,,,,,,,,,,,,,,,,,,,,,,,,,,,,,,,,,,,92584,2022-10-27_13h57.55.785,vts_reward_expectancy_bt_OFFLINE,2022.2.4,60.10451646780016,
1,0,0,0,0,0,0,1,triangle,star,1,0,1,0,1,1,13,2,,,,,,,,,,,,,,,,,,,,,,,,,,,,,,,,,,,,,,,,289.74757539801067,289.74757539801067,289.74757539801067,289.74757539801067,289.74757539801067,289.74757539801067,289.74757539801067,289.74757539801067,289.74757539801067,289.74757539801067,l,0.8800795919960365,10,395,1,290.6485491180065,292.1500704630016,,,,,,,,,,,,,,,,,,,,,,,,,,,,,,,,,,,,,,,,,,,,,,,,,,,,,,,,,,,,,,,,,,,92584,2022-10-27_13h57.55.785,vts_reward_expectancy_bt_OFFLINE,2022.2.4,60.10451646780016,
0,0,1,0,0,1,0,0,hexagon,circle,1,0,1,0,1,2,14,7,,,,,,,,,,,,,,,,,,,,,,,,,,,,,,,,,,,,,,,,292.6506854160107,292.6506854160107,292.6506854160107,292.6506854160107,292.6506854160107,292.6506854160107,292.6506854160107,292.6506854160107,292.6506854160107,292.6506854160107,l,1.4489156789932167,10,405,1,294.1189239130035,295.6207268110011,,,,,,,,,,,,,,,,,,,,,,,,,,,,,,,,,,,,,,,,,,,,,,,,,,,,,,,,,,,,,,,,,,,92584,2022-10-27_13h57.55.785,vts_reward_expectancy_bt_OFFLINE,2022.2.4,60.10451646780016,
0,1,0,0,1,0,0,0,circle,triangle,1,0,1,0,1,3,15,3,,,,,,,,,,,,,,,,,,,,,,,,,,,,,,,,,,,,,,,,296.121188065008,296.121188065008,296.121188065008,296.121188065008,296.121188065008,296.121188065008,296.121188065008,296.121188065008,296.121188065008,296.121188065008,l,0.8746895740041509,10,415,1,297.0222367610113,298.52382272201066,,,,,,,,,,,,,,,,,,,,,,,,,,,,,,,,,,,,,,,,,,,,,,,,,,,,,,,,,,,,,,,,,,,92584,2022-10-27_13h57.55.785,vts_reward_expectancy_bt_OFFLINE,2022.2.4,60.10451646780016,
0,1,0,0,0,0,1,0,circle,hexagon,1,0,1,0,1,4,16,4,,,,,,,,,,,,,,,,,,,,,,,,,,,,,,,,,,,,,,,,299.02433551099966,299.02433551099966,299.02433551099966,299.02433551099966,299.02433551099966,299.02433551099966,299.02433551099966,299.02433551099966,299.02433551099966,299.02433551099966,l,2.683575400005793,10,425,1,301.72732210700633,303.2289823790052,,,,,,,,,,,,,,,,,,,,,,,,,,,,,,,,,,,,,,,,,,,,,,,,,,,,,,,,,,,,,,,,,,,92584,2022-10-27_13h57.55.785,vts_reward_expectancy_bt_OFFLINE,2022.2.4,60.10451646780016,
0,0,0,1,0,1,0,0,star ,circle,1,0,1,0,1,5,17,10,,,,,,,,,,,,,,,,,,,,,,,,,,,,,,,,,,,,,,,,303.72948129000724,303.72948129000724,303.72948129000724,303.72948129000724,303.72948129000724,303.72948129000724,303.72948129000724,303.72948129000724,303.72948129000724,303.72948129000724,a,1.2819827559869736,10,435,1,305.0310265170119,306.5325872770045,,,,,,,,,,,,,,,,,,,,,,,,,,,,,,,,,,,,,,,,,,,,,,,,,,,,,,,,,,,,,,,,,,,92584,2022-10-27_13h57.55.785,vts_reward_expectancy_bt_OFFLINE,2022.2.4,60.10451646780016,
0,0,0,1,0,0,1,0,star,hexagon,1,0,1,0,1,6,18,11,,,,,,,,,,,,,,,,,,,,,,,,,,,,,,,,,,,,,,,,307.03334062499925,307.03334062499925,307.03334062499925,307.03334062499925,307.03334062499925,307.03334062499925,307.03334062499925,307.03334062499925,307.03334062499925,307.03334062499925,l,0.9136170959973242,10,445,1,307.96758923100424,309.469287363012,,,,,,,,,,,,,,,,,,,,,,,,,,,,,,,,,,,,,,,,,,,,,,,,,,,,,,,,,,,,,,,,,,,92584,2022-10-27_13h57.55.785,vts_reward_expectancy_bt_OFFLINE,2022.2.4,60.10451646780016,
0,0,1,0,0,0,0,1,hexagon,star,1,0,1,0,1,7,19,8,,,,,,,,,,,,,,,,,,,,,,,,,,,,,,,,,,,,,,,,309.96997743900283,309.96997743900283,309.96997743900283,309.96997743900283,309.96997743900283,309.96997743900283,309.96997743900283,309.96997743900283,309.96997743900283,309.96997743900283,l,0.9206186850060476,10,455,1,310.9209626590018,312.4225777410029,,,,,,,,,,,,,,,,,,,,,,,,,,,,,,,,,,,,,,,,,,,,,,,,,,,,,,,,,,,,,,,,,,,92584,2022-10-27_13h57.55.785,vts_reward_expectancy_bt_OFFLINE,2022.2.4,60.10451646780016,
0,0,1,0,1,0,0,0,hexagon,triangle,1,0,1,0,1,8,20,6,,,,,,,,,,,,,,,,,,,,,,,,,,,,,,,,,,,,,,,,312.9231274000049,312.9231274000049,312.9231274000049,312.9231274000049,312.9231274000049,312.9231274000049,312.9231274000049,312.9231274000049,312.9231274000049,312.9231274000049,l,1.0408527219988173,1,456,1,313.99092753601144,315.4925226040068,,,,,,,,,,,,,,,,,,,,,,,,,,,,,,,,,,,,,,,,,,,,,,,,,,,,,,,,,,,,,,,,,,,92584,2022-10-27_13h57.55.785,vts_reward_expectancy_bt_OFFLINE,2022.2.4,60.10451646780016,
0,1,0,0,0,0,0,1,circle,star,1,0,1,0,1,9,21,5,,,,,,,,,,,,,,,,,,,,,,,,,,,,,,,,,,,,,,,,315.99294919001113,315.99294919001113,315.99294919001113,315.99294919001113,315.99294919001113,315.99294919001113,315.99294919001113,315.99294919001113,315.99294919001113,315.99294919001113,a,1.9142925960040884,1,457,1,317.92874485600623,319.4301025830064,,,,,,,,,,,,,,,,,,,,,,,,,,,,,,,,,,,,,,,,,,,,,,,,,,,,,,,,,,,,,,,,,,,92584,2022-10-27_13h57.55.785,vts_reward_expectancy_bt_OFFLINE,2022.2.4,60.10451646780016,
1,0,0,0,0,1,0,0,triangle,circle,1,0,1,0,1,10,22,0,,,,,,,,,,,,,,,,,,,,,,,,,,,,,,,,,,,,,,,,319.93072712101275,319.93072712101275,319.93072712101275,319.93072712101275,319.93072712101275,319.93072712101275,319.93072712101275,319.93072712101275,319.93072712101275,319.93072712101275,l,0.9121588929992868,1,458,1,320.86514269100735,322.36695182901167,,,,,,,,,,,,,,,,,,,,,,,,,,,,,,,,,,,,,,,,,,,,,,,,,,,,,,,,,,,,,,,,,,,92584,2022-10-27_13h57.55.785,vts_reward_expectancy_bt_OFFLINE,2022.2.4,60.10451646780016,
1,0,0,0,0,0,1,0,triangle,hexagon,1,0,1,0,1,11,23,1,,,,,,,,,,,,,,,,,,,,,,,,,,,,,,,,,,,,,,,,322.867408310005,322.867408310005,322.867408310005,322.867408310005,322.867408310005,322.867408310005,322.867408310005,322.867408310005,322.867408310005,322.867408310005,a,1.8560322609992,1,459,1,324.75271837699984,326.2544522340031,,,,,,,,,,,,,,,,,,,,,,,,,,,,,,,,,,,,,,,,,,,,,,,,,,,,,,,,,,,,,,,,,,,92584,2022-10-27_13h57.55.785,vts_reward_expectancy_bt_OFFLINE,2022.2.4,60.10451646780016,
1,0,0,0,0,0,0,1,triangle,star,1,0,1,0,2,0,24,2,,,,,,,,,,,,,,,,,,,,,,,,,,,,,,,,,,,,,,,,326.7550034490123,326.7550034490123,326.7550034490123,326.7550034490123,326.7550034490123,326.7550034490123,326.7550034490123,326.7550034490123,326.7550034490123,326.7550034490123,a,0.8326954380027018,10,469,1,327.60587140900316,329.1075184420042,,,,,,,,,,,,,,,,,,,,,,,,,,,,,,,,,,,,,,,,,,,,,,,,,,,,,,,,,,,,,,,,,,,92584,2022-10-27_13h57.55.785,vts_reward_expectancy_bt_OFFLINE,2022.2.4,60.10451646780016,
0,1,0,0,0,0,1,0,circle,hexagon,1,0,1,0,2,1,25,4,,,,,,,,,,,,,,,,,,,,,,,,,,,,,,,,,,,,,,,,329.60810988000594,329.60810988000594,329.60810988000594,329.60810988000594,329.60810988000594,329.60810988000594,329.60810988000594,329.60810988000594,329.60810988000594,329.60810988000594,l,1.7796632609970402,10,479,1,331.41015406200313,332.9117381810065,,,,,,,,,,,,,,,,,,,,,,,,,,,,,,,,,,,,,,,,,,,,,,,,,,,,,,,,,,,,,,,,,,,92584,2022-10-27_13h57.55.785,vts_reward_expectancy_bt_OFFLINE,2022.2.4,60.10451646780016,
0,0,1,0,0,1,0,0,hexagon,circle,1,0,1,0,2,2,26,7,,,,,,,,,,,,,,,,,,,,,,,,,,,,,,,,,,,,,,,,333.41241465900384,333.41241465900384,333.41241465900384,333.41241465900384,333.41241465900384,333.41241465900384,333.41241465900384,333.41241465900384,333.41241465900384,333.41241465900384,a,1.6795267410052475,10,489,1,335.11436492801295,336.6160487240122,,,,,,,,,,,,,,,,,,,,,,,,,,,,,,,,,,,,,,,,,,,,,,,,,,,,,,,,,,,,,,,,,,,92584,2022-10-27_13h57.55.785,vts_reward_expectancy_bt_OFFLINE,2022.2.4,60.10451646780016,
1,0,0,0,0,1,0,0,triangle,circle,1,0,1,0,2,3,27,0,,,,,,,,,,,,,,,,,,,,,,,,,,,,,,,,,,,,,,,,337.11643444201036,337.11643444201036,337.11643444201036,337.11643444201036,337.11643444201036,337.11643444201036,337.11643444201036,337.11643444201036,337.11643444201036,337.11643444201036,a,0.7514159700076561,1,490,1,337.90059164700506,339.40233926899964,,,,,,,,,,,,,,,,,,,,,,,,,,,,,,,,,,,,,,,,,,,,,,,,,,,,,,,,,,,,,,,,,,,92584,2022-10-27_13h57.55.785,vts_reward_expectancy_bt_OFFLINE,2022.2.4,60.10451646780016,
0,0,0,1,1,0,0,0,star,triangle,1,0,1,0,2,4,28,9,,,,,,,,,,,,,,,,,,,,,,,,,,,,,,,,,,,,,,,,339.90278725301323,339.90278725301323,339.90278725301323,339.90278725301323,339.90278725301323,339.90278725301323,339.90278725301323,339.90278725301323,339.90278725301323,339.90278725301323,l,1.8850262320047477,10,500,1,341.8052492570132,343.3065833120054,,,,,,,,,,,,,,,,,,,,,,,,,,,,,,,,,,,,,,,,,,,,,,,,,,,,,,,,,,,,,,,,,,,92584,2022-10-27_13h57.55.785,vts_reward_expectancy_bt_OFFLINE,2022.2.4,60.10451646780016,
1,0,0,0,0,0,1,0,triangle,hexagon,1,0,1,0,2,5,29,1,,,,,,,,,,,,,,,,,,,,,,,,,,,,,,,,,,,,,,,,343.80724746300257,343.80724746300257,343.80724746300257,343.80724746300257,343.80724746300257,343.80724746300257,343.80724746300257,343.80724746300257,343.80724746300257,343.80724746300257,a,1.2436496810114477,1,501,1,345.0752776510053,346.57693390401255,,,,,,,,,,,,,,,,,,,,,,,,,,,,,,,,,,,,,,,,,,,,,,,,,,,,,,,,,,,,,,,,,,,92584,2022-10-27_13h57.55.785,vts_reward_expectancy_bt_OFFLINE,2022.2.4,60.10451646780016,
0,1,0,0,0,0,0,1,circle,star,1,0,1,0,2,6,30,5,,,,,,,,,,,,,,,,,,,,,,,,,,,,,,,,,,,,,,,,347.0772762580018,347.0772762580018,347.0772762580018,347.0772762580018,347.0772762580018,347.0772762580018,347.0772762580018,347.0772762580018,347.0772762580018,347.0772762580018,l,1.902145058993483,1,502,1,348.9962404149992,350.49782566400245,,,,,,,,,,,,,,,,,,,,,,,,,,,,,,,,,,,,,,,,,,,,,,,,,,,,,,,,,,,,,,,,,,,92584,2022-10-27_13h57.55.785,vts_reward_expectancy_bt_OFFLINE,2022.2.4,60.10451646780016,
0,0,1,0,0,0,0,1,hexagon,star,1,0,1,0,2,7,31,8,,,,,,,,,,,,,,,,,,,,,,,,,,,,,,,,,,,,,,,,350.9984363320109,350.9984363320109,350.9984363320109,350.9984363320109,350.9984363320109,350.9984363320109,350.9984363320109,350.9984363320109,350.9984363320109,350.9984363320109,l,1.6447552110039396,1,503,1,352.6668499540101,354.1685840900027,,,,,,,,,,,,,,,,,,,,,,,,,,,,,,,,,,,,,,,,,,,,,,,,,,,,,,,,,,,,,,,,,,,92584,2022-10-27_13h57.55.785,vts_reward_expectancy_bt_OFFLINE,2022.2.4,60.10451646780016,
0,0,0,1,0,1,0,0,star ,circle,1,0,1,0,2,8,32,10,,,,,,,,,,,,,,,,,,,,,,,,,,,,,,,,,,,,,,,,354.669068800009,354.669068800009,354.669068800009,354.669068800009,354.669068800009,354.669068800009,354.669068800009,354.669068800009,354.669068800009,354.669068800009,a,0.9827411400037818,1,504,1,355.67010418001155,357.17185425999924,,,,,,,,,,,,,,,,,,,,,,,,,,,,,,,,,,,,,,,,,,,,,,,,,,,,,,,,,,,,,,,,,,,92584,2022-10-27_13h57.55.785,vts_reward_expectancy_bt_OFFLINE,2022.2.4,60.10451646780016,
0,0,0,1,0,0,1,0,star,hexagon,1,0,1,0,2,9,33,11,,,,,,,,,,,,,,,,,,,,,,,,,,,,,,,,,,,,,,,,357.6722603260132,357.6722603260132,357.6722603260132,357.6722603260132,357.6722603260132,357.6722603260132,357.6722603260132,357.6722603260132,357.6722603260132,357.6722603260132,a,0.7314128899888601,1,505,1,358.42312775400933,359.9248386820109,,,,,,,,,,,,,,,,,,,,,,,,,,,,,,,,,,,,,,,,,,,,,,,,,,,,,,,,,,,,,,,,,,,92584,2022-10-27_13h57.55.785,vts_reward_expectancy_bt_OFFLINE,2022.2.4,60.10451646780016,
0,1,0,0,1,0,0,0,circle,triangle,1,0,1,0,2,10,34,3,,,,,,,,,,,,,,,,,,,,,,,,,,,,,,,,,,,,,,,,360.4253743260051,360.4253743260051,360.4253743260051,360.4253743260051,360.4253743260051,360.4253743260051,360.4253743260051,360.4253743260051,360.4253743260051,360.4253743260051,l,0.8506985809945036,10,515,1,361.2931939560076,362.7948851980036,,,,,,,,,,,,,,,,,,,,,,,,,,,,,,,,,,,,,,,,,,,,,,,,,,,,,,,,,,,,,,,,,,,92584,2022-10-27_13h57.55.785,vts_reward_expectancy_bt_OFFLINE,2022.2.4,60.10451646780016,
0,0,1,0,1,0,0,0,hexagon,triangle,1,0,1,0,2,11,35,6,,,,,,,,,,,,,,,,,,,,,,,,,,,,,,,,,,,,,,,,363.2952158530097,363.2952158530097,363.2952158530097,363.2952158530097,363.2952158530097,363.2952158530097,363.2952158530097,363.2952158530097,363.2952158530097,363.2952158530097,l,0.7086808459862368,1,516,1,364.0293769460113,365.5309925130132,,,,,,,,,,,,,,,,,,,,,,,,,,,,,,,,,,,,,,,,,,,,,,,,,,,,,,,,,,,,,,,,,,,92584,2022-10-27_13h57.55.785,vts_reward_expectancy_bt_OFFLINE,2022.2.4,60.10451646780016,
0,1,0,0,1,0,0,0,circle,triangle,1,0,1,0,3,0,36,3,,,,,,,,,,,,,,,,,,,,,,,,,,,,,,,,,,,,,,,,366.0316625810083,366.0316625810083,366.0316625810083,366.0316625810083,366.0316625810083,366.0316625810083,366.0316625810083,366.0316625810083,366.0316625810083,366.0316625810083,l,1.5637589639954967,10,526,1,367.61669876400265,369.1185175300052,,,,,,,,,,,,,,,,,,,,,,,,,,,,,,,,,,,,,,,,,,,,,,,,,,,,,,,,,,,,,,,,,,,92584,2022-10-27_13h57.55.785,vts_reward_expectancy_bt_OFFLINE,2022.2.4,60.10451646780016,
0,0,0,1,0,1,0,0,star ,circle,1,0,1,0,3,1,37,10,,,,,,,,,,,,,,,,,,,,,,,,,,,,,,,,,,,,,,,,369.6189168240089,369.6189168240089,369.6189168240089,369.6189168240089,369.6189168240089,369.6189168240089,369.6189168240089,369.6189168240089,369.6189168240089,369.6189168240089,l,1.5527453559916466,1,527,1,371.2040513150132,372.7058680830087,,,,,,,,,,,,,,,,,,,,,,,,,,,,,,,,,,,,,,,,,,,,,,,,,,,,,,,,,,,,,,,,,,,92584,2022-10-27_13h57.55.785,vts_reward_expectancy_bt_OFFLINE,2022.2.4,60.10451646780016,
0,1,0,0,0,0,1,0,circle,hexagon,1,0,1,0,3,2,38,4,,,,,,,,,,,,,,,,,,,,,,,,,,,,,,,,,,,,,,,,373.20615421200637,373.20615421200637,373.20615421200637,373.20615421200637,373.20615421200637,373.20615421200637,373.20615421200637,373.20615421200637,373.20615421200637,373.20615421200637,l,2.181140625005355,10,537,1,375.40883214400674,376.9103192670009,,,,,,,,,,,,,,,,,,,,,,,,,,,,,,,,,,,,,,,,,,,,,,,,,,,,,,,,,,,,,,,,,,,92584,2022-10-27_13h57.55.785,vts_reward_expectancy_bt_OFFLINE,2022.2.4,60.10451646780016,
1,0,0,0,0,0,1,0,triangle,hexagon,1,0,1,0,3,3,39,1,,,,,,,,,,,,,,,,,,,,,,,,,,,,,,,,,,,,,,,,377.410743172004,377.410743172004,377.410743172004,377.410743172004,377.410743172004,377.410743172004,377.410743172004,377.410743172004,377.410743172004,377.410743172004,l,1.4171937609935412,10,547,1,378.8456203550013,380.3473681510077,,,,,,,,,,,,,,,,,,,,,,,,,,,,,,,,,,,,,,,,,,,,,,,,,,,,,,,,,,,,,,,,,,,92584,2022-10-27_13h57.55.785,vts_reward_expectancy_bt_OFFLINE,2022.2.4,60.10451646780016,
0,0,1,0,1,0,0,0,hexagon,triangle,1,0,1,0,3,4,40,6,,,,,,,,,,,,,,,,,,,,,,,,,,,,,,,,,,,,,,,,380.8479521840054,380.8479521840054,380.8479521840054,380.8479521840054,380.8479521840054,380.8479521840054,380.8479521840054,380.8479521840054,380.8479521840054,380.8479521840054,l,0.8186616299935849,10,557,1,381.69890559100895,383.20048931700876,,,,,,,,,,,,,,,,,,,,,,,,,,,,,,,,,,,,,,,,,,,,,,,,,,,,,,,,,,,,,,,,,,,92584,2022-10-27_13h57.55.785,vts_reward_expectancy_bt_OFFLINE,2022.2.4,60.10451646780016,
0,0,1,0,0,0,0,1,hexagon,star,1,0,1,0,3,5,41,8,,,,,,,,,,,,,,,,,,,,,,,,,,,,,,,,,,,,,,,,383.7011155900109,383.7011155900109,383.7011155900109,383.7011155900109,383.7011155900109,383.7011155900109,383.7011155900109,383.7011155900109,383.7011155900109,383.7011155900109,a,1.7668994679988828,10,567,1,385.486235622011,386.9880811070034,,,,,,,,,,,,,,,,,,,,,,,,,,,,,,,,,,,,,,,,,,,,,,,,,,,,,,,,,,,,,,,,,,,92584,2022-10-27_13h57.55.785,vts_reward_expectancy_bt_OFFLINE,2022.2.4,60.10451646780016,
0,0,0,1,0,0,1,0,star,hexagon,1,0,1,0,3,6,42,11,,,,,,,,,,,,,,,,,,,,,,,,,,,,,,,,,,,,,,,,387.4886573380063,387.4886573380063,387.4886573380063,387.4886573380063,387.4886573380063,387.4886573380063,387.4886573380063,387.4886573380063,387.4886573380063,387.4886573380063,a,1.8419858669949463,1,568,1,389.35741741200036,390.858814473002,,,,,,,,,,,,,,,,,,,,,,,,,,,,,,,,,,,,,,,,,,,,,,,,,,,,,,,,,,,,,,,,,,,92584,2022-10-27_13h57.55.785,vts_reward_expectancy_bt_OFFLINE,2022.2.4,60.10451646780016,
0,1,0,0,0,0,0,1,circle,star,1,0,1,0,3,7,43,5,,,,,,,,,,,,,,,,,,,,,,,,,,,,,,,,,,,,,,,,391.3594404570031,391.3594404570031,391.3594404570031,391.3594404570031,391.3594404570031,391.3594404570031,391.3594404570031,391.3594404570031,391.3594404570031,391.3594404570031,a,0.7325605170044582,1,569,1,392.1102321070066,393.6119834090059,,,,,,,,,,,,,,,,,,,,,,,,,,,,,,,,,,,,,,,,,,,,,,,,,,,,,,,,,,,,,,,,,,,92584,2022-10-27_13h57.55.785,vts_reward_expectancy_bt_OFFLINE,2022.2.4,60.10451646780016,
0,0,1,0,0,1,0,0,hexagon,circle,1,0,1,0,3,8,44,7,,,,,,,,,,,,,,,,,,,,,,,,,,,,,,,,,,,,,,,,394.1124511340022,394.1124511340022,394.1124511340022,394.1124511340022,394.1124511340022,394.1124511340022,394.1124511340022,394.1124511340022,394.1124511340022,394.1124511340022,a,0.5950239640078507,10,579,1,394.7297501110006,396.2315781490033,,,,,,,,,,,,,,,,,,,,,,,,,,,,,,,,,,,,,,,,,,,,,,,,,,,,,,,,,,,,,,,,,,,92584,2022-10-27_13h57.55.785,vts_reward_expectancy_bt_OFFLINE,2022.2.4,60.10451646780016,
1,0,0,0,0,0,0,1,triangle,star,1,0,1,0,3,9,45,2,,,,,,,,,,,,,,,,,,,,,,,,,,,,,,,,,,,,,,,,396.7321438910003,396.7321438910003,396.7321438910003,396.7321438910003,396.7321438910003,396.7321438910003,396.7321438910003,396.7321438910003,396.7321438910003,396.7321438910003,l,0.8157175489905057,1,580,1,397.5664197550068,399.0681199780083,,,,,,,,,,,,,,,,,,,,,,,,,,,,,,,,,,,,,,,,,,,,,,,,,,,,,,,,,,,,,,,,,,,92584,2022-10-27_13h57.55.785,vts_reward_expectancy_bt_OFFLINE,2022.2.4,60.10451646780016,
0,0,0,1,1,0,0,0,star,triangle,1,0,1,0,3,10,46,9,,,,,,,,,,,,,,,,,,,,,,,,,,,,,,,,,,,,,,,,399.5686477929994,399.5686477929994,399.5686477929994,399.5686477929994,399.5686477929994,399.5686477929994,399.5686477929994,399.5686477929994,399.5686477929994,399.5686477929994,l,0.68354819000524,1,581,1,400.2694364780036,401.7709940490022,,,,,,,,,,,,,,,,,,,,,,,,,,,,,,,,,,,,,,,,,,,,,,,,,,,,,,,,,,,,,,,,,,,92584,2022-10-27_13h57.55.785,vts_reward_expectancy_bt_OFFLINE,2022.2.4,60.10451646780016,
1,0,0,0,0,1,0,0,triangle,circle,1,0,1,0,3,11,47,0,,,,,,,,,,,,,,,,,,,,,,,,,,,,,,,,,,,,,,,,402.27147618900926,402.27147618900926,402.27147618900926,402.27147618900926,402.27147618900926,402.27147618900926,402.27147618900926,402.27147618900926,402.27147618900926,402.27147618900926,a,0.8116091010015225,10,591,1,403.1060391180072,404.6076143350074,,,,,,,,,,,,,,,,,,,,,,,,,,,,,,,,,,,,,,,,,,,,,,,,,,,,,,,,,,,,,,,,,,,92584,2022-10-27_13h57.55.785,vts_reward_expectancy_bt_OFFLINE,2022.2.4,60.10451646780016,
1,0,0,0,0,0,0,1,triangle,star,2,0,2,0,0,0,0,2,,,,,,,,,,,,,,,,,,,,,,,,,,,,,,,,,,,,,,,,411.42515825301234,411.42515825301234,411.42515825301234,411.42515825301234,411.42515825301234,411.42515825301234,411.42515825301234,411.42515825301234,411.42515825301234,411.42515825301234,l,1.1307071459887084,10,601,2,412.58293758900254,414.0845776040078,,,,,,,,,,,,,,,,,,,,,,,,,,,,,,,,,,,,,,,,,,,,,,,,,,,,,,,,,,,,,,,,,,,92584,2022-10-27_13h57.55.785,vts_reward_expectancy_bt_OFFLINE,2022.2.4,60.10451646780016,
0,0,1,0,1,0,0,0,hexagon,triangle,2,0,2,0,0,1,1,6,,,,,,,,,,,,,,,,,,,,,,,,,,,,,,,,,,,,,,,,414.5852455999993,414.5852455999993,414.5852455999993,414.5852455999993,414.5852455999993,414.5852455999993,414.5852455999993,414.5852455999993,414.5852455999993,414.5852455999993,l,1.921421206992818,10,611,2,416.5372795440053,418.038973851013,,,,,,,,,,,,,,,,,,,,,,,,,,,,,,,,,,,,,,,,,,,,,,,,,,,,,,,,,,,,,,,,,,,92584,2022-10-27_13h57.55.785,vts_reward_expectancy_bt_OFFLINE,2022.2.4,60.10451646780016,
0,0,1,0,0,0,0,1,hexagon,star,2,0,2,0,0,2,2,8,,,,,,,,,,,,,,,,,,,,,,,,,,,,,,,,,,,,,,,,418.5394939760008,418.5394939760008,418.5394939760008,418.5394939760008,418.5394939760008,418.5394939760008,418.5394939760008,418.5394939760008,418.5394939760008,418.5394939760008,l,1.6324802430026466,10,621,2,420.191315079006,421.69305963300576,,,,,,,,,,,,,,,,,,,,,,,,,,,,,,,,,,,,,,,,,,,,,,,,,,,,,,,,,,,,,,,,,,,92584,2022-10-27_13h57.55.785,vts_reward_expectancy_bt_OFFLINE,2022.2.4,60.10451646780016,
1,0,0,0,0,0,1,0,triangle,hexagon,2,0,2,0,0,3,3,1,,,,,,,,,,,,,,,,,,,,,,,,,,,,,,,,,,,,,,,,422.1936748490116,422.1936748490116,422.1936748490116,422.1936748490116,422.1936748490116,422.1936748490116,422.1936748490116,422.1936748490116,422.1936748490116,422.1936748490116,a,0.5694843599922024,1,622,2,422.79432174999965,424.29588127801253,,,,,,,,,,,,,,,,,,,,,,,,,,,,,,,,,,,,,,,,,,,,,,,,,,,,,,,,,,,,,,,,,,,92584,2022-10-27_13h57.55.785,vts_reward_expectancy_bt_OFFLINE,2022.2.4,60.10451646780016,
0,0,1,0,0,1,0,0,hexagon,circle,2,0,2,0,0,4,4,7,,,,,,,,,,,,,,,,,,,,,,,,,,,,,,,,,,,,,,,,424.7965591670072,424.7965591670072,424.7965591670072,424.7965591670072,424.7965591670072,424.7965591670072,424.7965591670072,424.7965591670072,424.7965591670072,424.7965591670072,l,1.4476115859870333,1,623,2,426.26469237900164,427.7664738320018,,,,,,,,,,,,,,,,,,,,,,,,,,,,,,,,,,,,,,,,,,,,,,,,,,,,,,,,,,,,,,,,,,,92584,2022-10-27_13h57.55.785,vts_reward_expectancy_bt_OFFLINE,2022.2.4,60.10451646780016,
0,1,0,0,0,0,1,0,circle,hexagon,2,0,2,0,0,5,5,4,,,,,,,,,,,,,,,,,,,,,,,,,,,,,,,,,,,,,,,,428.2668744690018,428.2668744690018,428.2668744690018,428.2668744690018,428.2668744690018,428.2668744690018,428.2668744690018,428.2668744690018,428.2668744690018,428.2668744690018,l,0.6572304889996303,1,624,2,428.9509945720056,430.4525837330002,,,,,,,,,,,,,,,,,,,,,,,,,,,,,,,,,,,,,,,,,,,,,,,,,,,,,,,,,,,,,,,,,,,92584,2022-10-27_13h57.55.785,vts_reward_expectancy_bt_OFFLINE,2022.2.4,60.10451646780016,
0,1,0,0,1,0,0,0,circle,triangle,2,0,2,0,0,6,6,3,,,,,,,,,,,,,,,,,,,,,,,,,,,,,,,,,,,,,,,,430.95334947601077,430.95334947601077,430.95334947601077,430.95334947601077,430.95334947601077,430.95334947601077,430.95334947601077,430.95334947601077,430.95334947601077,430.95334947601077,a,0.5855271320033353,1,625,2,431.5705788380001,433.0723086200014,,,,,,,,,,,,,,,,,,,,,,,,,,,,,,,,,,,,,,,,,,,,,,,,,,,,,,,,,,,,,,,,,,,92584,2022-10-27_13h57.55.785,vts_reward_expectancy_bt_OFFLINE,2022.2.4,60.10451646780016,
0,0,0,1,0,0,1,0,star,hexagon,2,0,2,0,0,7,7,11,,,,,,,,,,,,,,,,,,,,,,,,,,,,,,,,,,,,,,,,433.57279139700404,433.57279139700404,433.57279139700404,433.57279139700404,433.57279139700404,433.57279139700404,433.57279139700404,433.57279139700404,433.57279139700404,433.57279139700404,l,1.398904058005428,1,626,2,434.9910777930054,436.4926822680136,,,,,,,,,,,,,,,,,,,,,,,,,,,,,,,,,,,,,,,,,,,,,,,,,,,,,,,,,,,,,,,,,,,92584,2022-10-27_13h57.55.785,vts_reward_expectancy_bt_OFFLINE,2022.2.4,60.10451646780016,
0,1,0,0,0,0,0,1,circle,star,2,0,2,0,0,8,8,5,,,,,,,,,,,,,,,,,,,,,,,,,,,,,,,,,,,,,,,,436.9932675870077,436.9932675870077,436.9932675870077,436.9932675870077,436.9932675870077,436.9932675870077,436.9932675870077,436.9932675870077,436.9932675870077,436.9932675870077,a,0.7223965110024437,1,627,2,437.7440667490009,439.24574408899934,,,,,,,,,,,,,,,,,,,,,,,,,,,,,,,,,,,,,,,,,,,,,,,,,,,,,,,,,,,,,,,,,,,92584,2022-10-27_13h57.55.785,vts_reward_expectancy_bt_OFFLINE,2022.2.4,60.10451646780016,
0,0,0,1,1,0,0,0,star,triangle,2,0,2,0,0,9,9,9,,,,,,,,,,,,,,,,,,,,,,,,,,,,,,,,,,,,,,,,439.7463623520016,439.7463623520016,439.7463623520016,439.7463623520016,439.7463623520016,439.7463623520016,439.7463623520016,439.7463623520016,439.7463623520016,439.7463623520016,a,0.7846346899896162,1,628,2,440.563913090009,442.0655941560108,,,,,,,,,,,,,,,,,,,,,,,,,,,,,,,,,,,,,,,,,,,,,,,,,,,,,,,,,,,,,,,,,,,92584,2022-10-27_13h57.55.785,vts_reward_expectancy_bt_OFFLINE,2022.2.4,60.10451646780016,
1,0,0,0,0,1,0,0,triangle,circle,2,0,2,0,0,10,10,0,,,,,,,,,,,,,,,,,,,,,,,,,,,,,,,,,,,,,,,,442.5662004600017,442.5662004600017,442.5662004600017,442.5662004600017,442.5662004600017,442.5662004600017,442.5662004600017,442.5662004600017,442.5662004600017,442.5662004600017,a,1.2368486299965298,1,629,2,443.8340323320008,445.3357690850098,,,,,,,,,,,,,,,,,,,,,,,,,,,,,,,,,,,,,,,,,,,,,,,,,,,,,,,,,,,,,,,,,,,92584,2022-10-27_13h57.55.785,vts_reward_expectancy_bt_OFFLINE,2022.2.4,60.10451646780016,
0,0,0,1,0,1,0,0,star ,circle,2,0,2,0,0,11,11,10,,,,,,,,,,,,,,,,,,,,,,,,,,,,,,,,,,,,,,,,445.8363029930042,445.8363029930042,445.8363029930042,445.8363029930042,445.8363029930042,445.8363029930042,445.8363029930042,445.8363029930042,445.8363029930042,445.8363029930042,l,0.8315137890022015,1,630,2,446.6871870090108,448.188925733004,,,,,,,,,,,,,,,,,,,,,,,,,,,,,,,,,,,,,,,,,,,,,,,,,,,,,,,,,,,,,,,,,,,92584,2022-10-27_13h57.55.785,vts_reward_expectancy_bt_OFFLINE,2022.2.4,60.10451646780016,
0,0,1,0,1,0,0,0,hexagon,triangle,2,0,2,0,1,0,12,6,,,,,,,,,,,,,,,,,,,,,,,,,,,,,,,,,,,,,,,,448.68937053300033,448.68937053300033,448.68937053300033,448.68937053300033,448.68937053300033,448.68937053300033,448.68937053300033,448.68937053300033,448.68937053300033,448.68937053300033,l,0.9621996189962374,1,631,2,449.6738398960006,451.1755419340043,,,,,,,,,,,,,,,,,,,,,,,,,,,,,,,,,,,,,,,,,,,,,,,,,,,,,,,,,,,,,,,,,,,92584,2022-10-27_13h57.55.785,vts_reward_expectancy_bt_OFFLINE,2022.2.4,60.10451646780016,
1,0,0,0,0,1,0,0,triangle,circle,2,0,2,0,1,1,13,0,,,,,,,,,,,,,,,,,,,,,,,,,,,,,,,,,,,,,,,,451.6762140140054,451.6762140140054,451.6762140140054,451.6762140140054,451.6762140140054,451.6762140140054,451.6762140140054,451.6762140140054,451.6762140140054,451.6762140140054,a,0.5114087700058008,1,632,2,452.21005753800273,453.7117200750072,,,,,,,,,,,,,,,,,,,,,,,,,,,,,,,,,,,,,,,,,,,,,,,,,,,,,,,,,,,,,,,,,,,92584,2022-10-27_13h57.55.785,vts_reward_expectancy_bt_OFFLINE,2022.2.4,60.10451646780016,
0,0,1,0,0,0,0,1,hexagon,star,2,0,2,0,1,2,14,8,,,,,,,,,,,,,,,,,,,,,,,,,,,,,,,,,,,,,,,,454.2123019830033,454.2123019830033,454.2123019830033,454.2123019830033,454.2123019830033,454.2123019830033,454.2123019830033,454.2123019830033,454.2123019830033,454.2123019830033,a,0.3754548029974103,1,633,2,454.6128142610105,456.1144058200007,,,,,,,,,,,,,,,,,,,,,,,,,,,,,,,,,,,,,,,,,,,,,,,,,,,,,,,,,,,,,,,,,,,92584,2022-10-27_13h57.55.785,vts_reward_expectancy_bt_OFFLINE,2022.2.4,60.10451646780016,
0,0,0,1,0,1,0,0,star ,circle,2,0,2,0,1,3,15,10,,,,,,,,,,,,,,,,,,,,,,,,,,,,,,,,,,,,,,,,456.61499715500395,456.61499715500395,456.61499715500395,456.61499715500395,456.61499715500395,456.61499715500395,456.61499715500395,456.61499715500395,456.61499715500395,456.61499715500395,a,0.30076909299532417,1,634,2,456.94866726500914,458.4503560960002,,,,,,,,,,,,,,,,,,,,,,,,,,,,,,,,,,,,,,,,,,,,,,,,,,,,,,,,,,,,,,,,,,,92584,2022-10-27_13h57.55.785,vts_reward_expectancy_bt_OFFLINE,2022.2.4,60.10451646780016,
0,1,0,0,0,0,0,1,circle,star,2,0,2,0,1,4,16,5,,,,,,,,,,,,,,,,,,,,,,,,,,,,,,,,,,,,,,,,458.9508836160094,458.9508836160094,458.9508836160094,458.9508836160094,458.9508836160094,458.9508836160094,458.9508836160094,458.9508836160094,458.9508836160094,458.9508836160094,l,0.3493109800037928,10,644,2,459.3180125229992,460.81941516901134,,,,,,,,,,,,,,,,,,,,,,,,,,,,,,,,,,,,,,,,,,,,,,,,,,,,,,,,,,,,,,,,,,,92584,2022-10-27_13h57.55.785,vts_reward_expectancy_bt_OFFLINE,2022.2.4,60.10451646780016,
0,0,0,1,1,0,0,0,star,triangle,2,0,2,0,1,5,17,9,,,,,,,,,,,,,,,,,,,,,,,,,,,,,,,,,,,,,,,,461.31995854600973,461.31995854600973,461.31995854600973,461.31995854600973,461.31995854600973,461.31995854600973,461.31995854600973,461.31995854600973,461.31995854600973,461.31995854600973,a,0.4116289530065842,10,654,2,461.7537514560099,463.2554664370109,,,,,,,,,,,,,,,,,,,,,,,,,,,,,,,,,,,,,,,,,,,,,,,,,,,,,,,,,,,,,,,,,,,92584,2022-10-27_13h57.55.785,vts_reward_expectancy_bt_OFFLINE,2022.2.4,60.10451646780016,
1,0,0,0,0,0,1,0,triangle,hexagon,2,0,2,0,1,6,18,1,,,,,,,,,,,,,,,,,,,,,,,,,,,,,,,,,,,,,,,,463.75598003900086,463.75598003900086,463.75598003900086,463.75598003900086,463.75598003900086,463.75598003900086,463.75598003900086,463.75598003900086,463.75598003900086,463.75598003900086,a,0.38363928999751806,10,664,2,464.1563564340031,465.658121519009,,,,,,,,,,,,,,,,,,,,,,,,,,,,,,,,,,,,,,,,,,,,,,,,,,,,,,,,,,,,,,,,,,,92584,2022-10-27_13h57.55.785,vts_reward_expectancy_bt_OFFLINE,2022.2.4,60.10451646780016,
0,0,1,0,0,1,0,0,hexagon,circle,2,0,2,0,1,7,19,7,,,,,,,,,,,,,,,,,,,,,,,,,,,,,,,,,,,,,,,,466.1587326440058,466.1587326440058,466.1587326440058,466.1587326440058,466.1587326440058,466.1587326440058,466.1587326440058,466.1587326440058,466.1587326440058,466.1587326440058,l,0.3250222759961616,1,665,2,466.50923468801193,468.01072416300303,,,,,,,,,,,,,,,,,,,,,,,,,,,,,,,,,,,,,,,,,,,,,,,,,,,,,,,,,,,,,,,,,,,92584,2022-10-27_13h57.55.785,vts_reward_expectancy_bt_OFFLINE,2022.2.4,60.10451646780016,
0,1,0,0,0,0,1,0,circle,hexagon,2,0,2,0,1,8,20,4,,,,,,,,,,,,,,,,,,,,,,,,,,,,,,,,,,,,,,,,468.51136132401007,468.51136132401007,468.51136132401007,468.51136132401007,468.51136132401007,468.51136132401007,468.51136132401007,468.51136132401007,468.51136132401007,468.51136132401007,a,0.2516188119916478,1,666,2,468.794995993012,470.2966946660017,,,,,,,,,,,,,,,,,,,,,,,,,,,,,,,,,,,,,,,,,,,,,,,,,,,,,,,,,,,,,,,,,,,92584,2022-10-27_13h57.55.785,vts_reward_expectancy_bt_OFFLINE,2022.2.4,60.10451646780016,
0,1,0,0,1,0,0,0,circle,triangle,2,0,2,0,1,9,21,3,,,,,,,,,,,,,,,,,,,,,,,,,,,,,,,,,,,,,,,,470.7971826770081,470.7971826770081,470.7971826770081,470.7971826770081,470.7971826770081,470.7971826770081,470.7971826770081,470.7971826770081,470.7971826770081,470.7971826770081,a,0.2623021919862367,10,676,2,471.0807970360038,472.58265485100856,,,,,,,,,,,,,,,,,,,,,,,,,,,,,,,,,,,,,,,,,,,,,,,,,,,,,,,,,,,,,,,,,,,92584,2022-10-27_13h57.55.785,vts_reward_expectancy_bt_OFFLINE,2022.2.4,60.10451646780016,
1,0,0,0,0,0,0,1,triangle,star,2,0,2,0,1,10,22,2,,,,,,,,,,,,,,,,,,,,,,,,,,,,,,,,,,,,,,,,473.0833180530026,473.0833180530026,473.0833180530026,473.0833180530026,473.0833180530026,473.0833180530026,473.0833180530026,473.0833180530026,473.0833180530026,473.0833180530026,l,0.7362525689968606,1,677,2,473.85055491801177,475.35232320800424,,,,,,,,,,,,,,,,,,,,,,,,,,,,,,,,,,,,,,,,,,,,,,,,,,,,,,,,,,,,,,,,,,,92584,2022-10-27_13h57.55.785,vts_reward_expectancy_bt_OFFLINE,2022.2.4,60.10451646780016,
0,0,0,1,0,0,1,0,star,hexagon,2,0,2,0,1,11,23,11,,,,,,,,,,,,,,,,,,,,,,,,,,,,,,,,,,,,,,,,475.8528690910025,475.8528690910025,475.8528690910025,475.8528690910025,475.8528690910025,475.8528690910025,475.8528690910025,475.8528690910025,475.8528690910025,475.8528690910025,a,0.27804061300412286,10,687,2,476.15304828900844,477.654757634009,,,,,,,,,,,,,,,,,,,,,,,,,,,,,,,,,,,,,,,,,,,,,,,,,,,,,,,,,,,,,,,,,,,92584,2022-10-27_13h57.55.785,vts_reward_expectancy_bt_OFFLINE,2022.2.4,60.10451646780016,
0,0,0,1,1,0,0,0,star,triangle,2,0,2,0,2,0,24,9,,,,,,,,,,,,,,,,,,,,,,,,,,,,,,,,,,,,,,,,478.15529216900177,478.15529216900177,478.15529216900177,478.15529216900177,478.15529216900177,478.15529216900177,478.15529216900177,478.15529216900177,478.15529216900177,478.15529216900177,l,0.7284911780006951,10,697,2,478.90621461700357,480.40771360900544,,,,,,,,,,,,,,,,,,,,,,,,,,,,,,,,,,,,,,,,,,,,,,,,,,,,,,,,,,,,,,,,,,,92584,2022-10-27_13h57.55.785,vts_reward_expectancy_bt_OFFLINE,2022.2.4,60.10451646780016,
0,0,1,0,0,0,0,1,hexagon,star,2,0,2,0,2,1,25,8,,,,,,,,,,,,,,,,,,,,,,,,,,,,,,,,,,,,,,,,480.9084152190044,480.9084152190044,480.9084152190044,480.9084152190044,480.9084152190044,480.9084152190044,480.9084152190044,480.9084152190044,480.9084152190044,480.9084152190044,a,0.9997438459977275,10,707,2,481.92605759100115,483.42781327001285,,,,,,,,,,,,,,,,,,,,,,,,,,,,,,,,,,,,,,,,,,,,,,,,,,,,,,,,,,,,,,,,,,,92584,2022-10-27_13h57.55.785,vts_reward_expectancy_bt_OFFLINE,2022.2.4,60.10451646780016,
0,1,0,0,0,0,1,0,circle,hexagon,2,0,2,0,2,2,26,4,,,,,,,,,,,,,,,,,,,,,,,,,,,,,,,,,,,,,,,,483.928460946001,483.928460946001,483.928460946001,483.928460946001,483.928460946001,483.928460946001,483.928460946001,483.928460946001,483.928460946001,483.928460946001,a,1.4918862120102858,1,708,2,485.4466713030124,486.94835233301274,,,,,,,,,,,,,,,,,,,,,,,,,,,,,,,,,,,,,,,,,,,,,,,,,,,,,,,,,,,,,,,,,,,92584,2022-10-27_13h57.55.785,vts_reward_expectancy_bt_OFFLINE,2022.2.4,60.10451646780016,
0,0,1,0,1,0,0,0,hexagon,triangle,2,0,2,0,2,3,27,6,,,,,,,,,,,,,,,,,,,,,,,,,,,,,,,,,,,,,,,,487.44893986399984,487.44893986399984,487.44893986399984,487.44893986399984,487.44893986399984,487.44893986399984,487.44893986399984,487.44893986399984,487.44893986399984,487.44893986399984,l,1.042931973002851,10,718,2,488.5167442170059,490.0183496540121,,,,,,,,,,,,,,,,,,,,,,,,,,,,,,,,,,,,,,,,,,,,,,,,,,,,,,,,,,,,,,,,,,,92584,2022-10-27_13h57.55.785,vts_reward_expectancy_bt_OFFLINE,2022.2.4,60.10451646780016,
0,0,0,1,0,1,0,0,star ,circle,2,0,2,0,2,4,28,10,,,,,,,,,,,,,,,,,,,,,,,,,,,,,,,,,,,,,,,,490.51894143401296,490.51894143401296,490.51894143401296,490.51894143401296,490.51894143401296,490.51894143401296,490.51894143401296,490.51894143401296,490.51894143401296,490.51894143401296,l,1.2122241969918832,1,719,2,491.7536429580068,493.25525245899917,,,,,,,,,,,,,,,,,,,,,,,,,,,,,,,,,,,,,,,,,,,,,,,,,,,,,,,,,,,,,,,,,,,92584,2022-10-27_13h57.55.785,vts_reward_expectancy_bt_OFFLINE,2022.2.4,60.10451646780016,
0,0,0,1,0,0,1,0,star,hexagon,2,0,2,0,2,5,29,11,,,,,,,,,,,,,,,,,,,,,,,,,,,,,,,,,,,,,,,,493.7558490430092,493.7558490430092,493.7558490430092,493.7558490430092,493.7558490430092,493.7558490430092,493.7558490430092,493.7558490430092,493.7558490430092,493.7558490430092,a,0.4797988580103265,1,720,2,494.2564863610023,495.75821376100066,,,,,,,,,,,,,,,,,,,,,,,,,,,,,,,,,,,,,,,,,,,,,,,,,,,,,,,,,,,,,,,,,,,92584,2022-10-27_13h57.55.785,vts_reward_expectancy_bt_OFFLINE,2022.2.4,60.10451646780016,
0,0,1,0,0,1,0,0,hexagon,circle,2,0,2,0,2,6,30,7,,,,,,,,,,,,,,,,,,,,,,,,,,,,,,,,,,,,,,,,496.25862726299965,496.25862726299965,496.25862726299965,496.25862726299965,496.25862726299965,496.25862726299965,496.25862726299965,496.25862726299965,496.25862726299965,496.25862726299965,l,1.0412979289976647,10,730,2,497.3264083440008,498.82823970200843,,,,,,,,,,,,,,,,,,,,,,,,,,,,,,,,,,,,,,,,,,,,,,,,,,,,,,,,,,,,,,,,,,,92584,2022-10-27_13h57.55.785,vts_reward_expectancy_bt_OFFLINE,2022.2.4,60.10451646780016,
1,0,0,0,0,0,1,0,triangle,hexagon,2,0,2,0,2,7,31,1,,,,,,,,,,,,,,,,,,,,,,,,,,,,,,,,,,,,,,,,499.3287841720012,499.3287841720012,499.3287841720012,499.3287841720012,499.3287841720012,499.3287841720012,499.3287841720012,499.3287841720012,499.3287841720012,499.3287841720012,a,0.9379220300033921,1,731,2,500.2963363220042,501.7981748900056,,,,,,,,,,,,,,,,,,,,,,,,,,,,,,,,,,,,,,,,,,,,,,,,,,,,,,,,,,,,,,,,,,,92584,2022-10-27_13h57.55.785,vts_reward_expectancy_bt_OFFLINE,2022.2.4,60.10451646780016,
0,1,0,0,1,0,0,0,circle,triangle,2,0,2,0,2,8,32,3,,,,,,,,,,,,,,,,,,,,,,,,,,,,,,,,,,,,,,,,502.2986237820005,502.2986237820005,502.2986237820005,502.2986237820005,502.2986237820005,502.2986237820005,502.2986237820005,502.2986237820005,502.2986237820005,502.2986237820005,a,0.6402873089973582,10,741,2,502.9660372350045,504.4677595610119,,,,,,,,,,,,,,,,,,,,,,,,,,,,,,,,,,,,,,,,,,,,,,,,,,,,,,,,,,,,,,,,,,,92584,2022-10-27_13h57.55.785,vts_reward_expectancy_bt_OFFLINE,2022.2.4,60.10451646780016,
0,1,0,0,0,0,0,1,circle,star,2,0,2,0,2,9,33,5,,,,,,,,,,,,,,,,,,,,,,,,,,,,,,,,,,,,,,,,504.9682434920105,504.9682434920105,504.9682434920105,504.9682434920105,504.9682434920105,504.9682434920105,504.9682434920105,504.9682434920105,504.9682434920105,504.9682434920105,a,1.0676933350041509,1,742,2,506.0526923460129,507.55435051101085,,,,,,,,,,,,,,,,,,,,,,,,,,,,,,,,,,,,,,,,,,,,,,,,,,,,,,,,,,,,,,,,,,,92584,2022-10-27_13h57.55.785,vts_reward_expectancy_bt_OFFLINE,2022.2.4,60.10451646780016,
1,0,0,0,0,0,0,1,triangle,star,2,0,2,0,2,10,34,2,,,,,,,,,,,,,,,,,,,,,,,,,,,,,,,,,,,,,,,,508.05502374400385,508.05502374400385,508.05502374400385,508.05502374400385,508.05502374400385,508.05502374400385,508.05502374400385,508.05502374400385,508.05502374400385,508.05502374400385,a,1.6201446529885288,10,752,2,509.7068677680072,511.2085516770021,,,,,,,,,,,,,,,,,,,,,,,,,,,,,,,,,,,,,,,,,,,,,,,,,,,,,,,,,,,,,,,,,,,92584,2022-10-27_13h57.55.785,vts_reward_expectancy_bt_OFFLINE,2022.2.4,60.10451646780016,
1,0,0,0,0,1,0,0,triangle,circle,2,0,2,0,2,11,35,0,,,,,,,,,,,,,,,,,,,,,,,,,,,,,,,,,,,,,,,,511.708990981002,511.708990981002,511.708990981002,511.708990981002,511.708990981002,511.708990981002,511.708990981002,511.708990981002,511.708990981002,511.708990981002,a,1.3345484169985866,1,753,2,513.0604841300083,514.5621764670068,,,,,,,,,,,,,,,,,,,,,,,,,,,,,,,,,,,,,,,,,,,,,,,,,,,,,,,,,,,,,,,,,,,92584,2022-10-27_13h57.55.785,vts_reward_expectancy_bt_OFFLINE,2022.2.4,60.10451646780016,
1,0,0,0,0,1,0,0,triangle,circle,2,0,2,0,3,0,36,0,,,,,,,,,,,,,,,,,,,,,,,,,,,,,,,,,,,,,,,,515.0626777220023,515.0626777220023,515.0626777220023,515.0626777220023,515.0626777220023,515.0626777220023,515.0626777220023,515.0626777220023,515.0626777220023,515.0626777220023,l,0.7802623150055297,1,754,2,515.86359192901,517.3652229360014,,,,,,,,,,,,,,,,,,,,,,,,,,,,,,,,,,,,,,,,,,,,,,,,,,,,,,,,,,,,,,,,,,,92584,2022-10-27_13h57.55.785,vts_reward_expectancy_bt_OFFLINE,2022.2.4,60.10451646780016,
0,0,1,0,0,0,0,1,hexagon,star,2,0,2,0,3,1,37,8,,,,,,,,,,,,,,,,,,,,,,,,,,,,,,,,,,,,,,,,517.8658256280032,517.8658256280032,517.8658256280032,517.8658256280032,517.8658256280032,517.8658256280032,517.8658256280032,517.8658256280032,517.8658256280032,517.8658256280032,l,1.5614697049895767,1,755,2,519.4508540100069,520.952574578012,,,,,,,,,,,,,,,,,,,,,,,,,,,,,,,,,,,,,,,,,,,,,,,,,,,,,,,,,,,,,,,,,,,92584,2022-10-27_13h57.55.785,vts_reward_expectancy_bt_OFFLINE,2022.2.4,60.10451646780016,
1,0,0,0,0,0,1,0,triangle,hexagon,2,0,2,0,3,2,38,1,,,,,,,,,,,,,,,,,,,,,,,,,,,,,,,,,,,,,,,,521.453140979007,521.453140979007,521.453140979007,521.453140979007,521.453140979007,521.453140979007,521.453140979007,521.453140979007,521.453140979007,521.453140979007,a,1.966968890003045,1,756,2,523.4385800920136,524.9402840540133,,,,,,,,,,,,,,,,,,,,,,,,,,,,,,,,,,,,,,,,,,,,,,,,,,,,,,,,,,,,,,,,,,,92584,2022-10-27_13h57.55.785,vts_reward_expectancy_bt_OFFLINE,2022.2.4,60.10451646780016,
0,0,0,1,1,0,0,0,star,triangle,2,0,2,0,3,3,39,9,,,,,,,,,,,,,,,,,,,,,,,,,,,,,,,,,,,,,,,,525.4408124610054,525.4408124610054,525.4408124610054,525.4408124610054,525.4408124610054,525.4408124610054,525.4408124610054,525.4408124610054,525.4408124610054,525.4408124610054,l,0.7468657309946138,10,766,2,526.2084367290081,527.7099671590113,,,,,,,,,,,,,,,,,,,,,,,,,,,,,,,,,,,,,,,,,,,,,,,,,,,,,,,,,,,,,,,,,,,92584,2022-10-27_13h57.55.785,vts_reward_expectancy_bt_OFFLINE,2022.2.4,60.10451646780016,
0,0,0,1,0,0,1,0,star,hexagon,2,0,2,0,3,4,40,11,,,,,,,,,,,,,,,,,,,,,,,,,,,,,,,,,,,,,,,,528.2107343070093,528.2107343070093,528.2107343070093,528.2107343070093,528.2107343070093,528.2107343070093,528.2107343070093,528.2107343070093,528.2107343070093,528.2107343070093,a,2.193072045003646,10,776,2,530.429606471007,531.9315171950002,,,,,,,,,,,,,,,,,,,,,,,,,,,,,,,,,,,,,,,,,,,,,,,,,,,,,,,,,,,,,,,,,,,92584,2022-10-27_13h57.55.785,vts_reward_expectancy_bt_OFFLINE,2022.2.4,60.10451646780016,
0,0,1,0,1,0,0,0,hexagon,triangle,2,0,2,0,3,5,41,6,,,,,,,,,,,,,,,,,,,,,,,,,,,,,,,,,,,,,,,,532.4318616540113,532.4318616540113,532.4318616540113,532.4318616540113,532.4318616540113,532.4318616540113,532.4318616540113,532.4318616540113,532.4318616540113,532.4318616540113,l,1.21955388400238,1,777,2,533.6832748680026,535.1848743850132,,,,,,,,,,,,,,,,,,,,,,,,,,,,,,,,,,,,,,,,,,,,,,,,,,,,,,,,,,,,,,,,,,,92584,2022-10-27_13h57.55.785,vts_reward_expectancy_bt_OFFLINE,2022.2.4,60.10451646780016,
0,1,0,0,1,0,0,0,circle,triangle,2,0,2,0,3,6,42,3,,,,,,,,,,,,,,,,,,,,,,,,,,,,,,,,,,,,,,,,535.6854165410041,535.6854165410041,535.6854165410041,535.6854165410041,535.6854165410041,535.6854165410041,535.6854165410041,535.6854165410041,535.6854165410041,535.6854165410041,l,1.7100678629940376,1,778,2,537.4208841479995,538.9222560400085,,,,,,,,,,,,,,,,,,,,,,,,,,,,,,,,,,,,,,,,,,,,,,,,,,,,,,,,,,,,,,,,,,,92584,2022-10-27_13h57.55.785,vts_reward_expectancy_bt_OFFLINE,2022.2.4,60.10451646780016,
0,1,0,0,0,0,1,0,circle,hexagon,2,0,2,0,3,7,43,4,,,,,,,,,,,,,,,,,,,,,,,,,,,,,,,,,,,,,,,,539.4228857430135,539.4228857430135,539.4228857430135,539.4228857430135,539.4228857430135,539.4228857430135,539.4228857430135,539.4228857430135,539.4228857430135,539.4228857430135,a,0.6046762979967752,1,779,2,540.0569985340117,541.5587538149994,,,,,,,,,,,,,,,,,,,,,,,,,,,,,,,,,,,,,,,,,,,,,,,,,,,,,,,,,,,,,,,,,,,92584,2022-10-27_13h57.55.785,vts_reward_expectancy_bt_OFFLINE,2022.2.4,60.10451646780016,
1,0,0,0,0,0,0,1,triangle,star,2,0,2,0,3,8,44,2,,,,,,,,,,,,,,,,,,,,,,,,,,,,,,,,,,,,,,,,542.059210863008,542.059210863008,542.059210863008,542.059210863008,542.059210863008,542.059210863008,542.059210863008,542.059210863008,542.059210863008,542.059210863008,l,0.9119292019895511,10,789,2,542.9936225720012,544.495139591003,,,,,,,,,,,,,,,,,,,,,,,,,,,,,,,,,,,,,,,,,,,,,,,,,,,,,,,,,,,,,,,,,,,92584,2022-10-27_13h57.55.785,vts_reward_expectancy_bt_OFFLINE,2022.2.4,60.10451646780016,
0,0,0,1,0,1,0,0,star ,circle,2,0,2,0,3,9,45,10,,,,,,,,,,,,,,,,,,,,,,,,,,,,,,,,,,,,,,,,544.9957706480054,544.9957706480054,544.9957706480054,544.9957706480054,544.9957706480054,544.9957706480054,544.9957706480054,544.9957706480054,544.9957706480054,544.9957706480054,l,3.9440706379973562,10,799,2,548.9666960480099,550.4683721070032,,,,,,,,,,,,,,,,,,,,,,,,,,,,,,,,,,,,,,,,,,,,,,,,,,,,,,,,,,,,,,,,,,,92584,2022-10-27_13h57.55.785,vts_reward_expectancy_bt_OFFLINE,2022.2.4,60.10451646780016,
0,1,0,0,0,0,0,1,circle,star,2,0,2,0,3,10,46,5,,,,,,,,,,,,,,,,,,,,,,,,,,,,,,,,,,,,,,,,550.9691664130078,550.9691664130078,550.9691664130078,550.9691664130078,550.9691664130078,550.9691664130078,550.9691664130078,550.9691664130078,550.9691664130078,550.9691664130078,l,0.9860449689876987,1,800,2,551.9869214490027,553.4885418880003,,,,,,,,,,,,,,,,,,,,,,,,,,,,,,,,,,,,,,,,,,,,,,,,,,,,,,,,,,,,,,,,,,,92584,2022-10-27_13h57.55.785,vts_reward_expectancy_bt_OFFLINE,2022.2.4,60.10451646780016,
0,0,1,0,0,1,0,0,hexagon,circle,2,0,2,0,3,11,47,7,,,,,,,,,,,,,,,,,,,,,,,,,,,,,,,,,,,,,,,,553.9889529150096,553.9889529150096,553.9889529150096,553.9889529150096,553.9889529150096,553.9889529150096,553.9889529150096,553.9889529150096,553.9889529150096,553.9889529150096,a,3.197948561006342,1,801,2,557.2091265440104,558.7108375650132,,,,,,,,,,,,,,,,,,,,,,,,,,,,,,,,,,,,,,,,,,,,,,,,,,,,,,,,,,,,,,,,,,,92584,2022-10-27_13h57.55.785,vts_reward_expectancy_bt_OFFLINE,2022.2.4,60.10451646780016,
,,,,,,,,,,,,,,,,,,0,0,0,0,0,0,0,0,,,,,,,,,,,,,,,,,,,,,,,,,,,,,,,,,,,,,,,,,,,,,,,,597.2199357520003,H,132,circle,0.002056580997304991,591.210313529009,592.7151889980014,592.7151889980014,592.7151889980014,595.7183545170119,595.7183545170119,595.7183545170119,595.7183545170119,0,0,None,0,595.7183545170119,597.2199357520003,597.7203969030088,,,,,,,,,,,,,,,,,,,,,,,,,,,,,,,,,,,,,,,,,,,,,,,,92584,2022-10-27_13h57.55.785,vts_reward_expectancy_bt_OFFLINE,2022.2.4,60.10451646780016,
,,,,,,,,,,,,,,,,,,0,0,0,0,1,0,1,0,,,,,,,,,,,,,,,,,,,,,,,,,,,,,,,,,,,,,,,,,,,,,,,,601.8580206200131,B,125,hexagon,0.009093419997952878,598.2184563680057,599.722638762003,599.722638762003,599.722638762003,,,,,1,1,d,0,600.3573077740002,,,0.6175142859865446,,,,,,,,,,,,,,,,,,,,,,,,,,,,,,,,,,,,,,,,,,,,,,,92584,2022-10-27_13h57.55.785,vts_reward_expectancy_bt_OFFLINE,2022.2.4,60.10451646780016,
,,,,,,,,,,,,,,,,,,0,0,0,0,2,0,2,0,,,,,,,,,,,,,,,,,,,,,,,,,,,,,,,,,,,,,,,,,,,,,,,,606.6303824160132,D,181,star,0.0013335889962036163,602.8396080830134,604.3444183700049,604.3444183700049,604.3444183700049,,,,,1,0,d,0,605.1286708280095,,,0.7550373819976812,,,,,,,,,,,,,,,,,,,,,,,,,,,,,,,,,,,,,,,,,,,,,,,92584,2022-10-27_13h57.55.785,vts_reward_expectancy_bt_OFFLINE,2022.2.4,60.10451646780016,
,,,,,,,,,,,,,,,,,,0,0,0,0,3,0,3,0,,,,,,,,,,,,,,,,,,,,,,,,,,,,,,,,,,,,,,,,,,,,,,,,611.4357764300075,U,139,triangle,0.0015270889998646453,607.6123558700056,609.1163164169993,609.1163164169993,609.1163164169993,,,,,1,0,f,0,609.9339352390089,,,0.7994684119912563,,,,,,,,,,,,,,,,,,,,,,,,,,,,,,,,,,,,,,,,,,,,,,,92584,2022-10-27_13h57.55.785,vts_reward_expectancy_bt_OFFLINE,2022.2.4,60.10451646780016,
,,,,,,,,,,,,,,,,,,0,0,0,0,4,0,4,0,,,,,,,,,,,,,,,,,,,,,,,,,,,,,,,,,,,,,,,,,,,,,,,,616.1910608250037,W,174,circle,0.0012522190081654117,612.4176832939993,613.9218068780028,613.9218068780028,613.9218068780028,,,,,1,0,f,0,614.6891497860051,,,0.7459909820026951,,,,,,,,,,,,,,,,,,,,,,,,,,,,,,,,,,,,,,,,,,,,,,,92584,2022-10-27_13h57.55.785,vts_reward_expectancy_bt_OFFLINE,2022.2.4,60.10451646780016,
,,,,,,,,,,,,,,,,,,0,0,0,0,5,0,5,0,,,,,,,,,,,,,,,,,,,,,,,,,,,,,,,,,,,,,,,,,,,,,,,,621.363289343004,Y,146,triangle,0.0018732010066742077,617.1727275880112,618.677036240013,618.677036240013,618.677036240013,,,,,1,0,f,0,619.8618472480011,,,1.167313532991102,,,,,,,,,,,,,,,,,,,,,,,,,,,,,,,,,,,,,,,,,,,,,,,92584,2022-10-27_13h57.55.785,vts_reward_expectancy_bt_OFFLINE,2022.2.4,60.10451646780016,
,,,,,,,,,,,,,,,,,,0,0,0,0,6,0,6,0,,,,,,,,,,,,,,,,,,,,,,,,,,,,,,,,,,,,,,,,,,,,,,,,626.4189602440019,S,160,star,0.0012096959981136024,622.3421020640089,623.8493572209991,623.8493572209991,623.8493572209991,,,,,1,0,f,0,624.9173810600041,,,1.0506701120029902,,,,,,,,,,,,,,,,,,,,,,,,,,,,,,,,,,,,,,,,,,,,,,,92584,2022-10-27_13h57.55.785,vts_reward_expectancy_bt_OFFLINE,2022.2.4,60.10451646780016,
,,,,,,,,,,,,,,,,,,0,0,0,0,7,0,7,0,,,,,,,,,,,,,,,,,,,,,,,,,,,,,,,,,,,,,,,,,,,,,,,,630.9907735990128,F,167,hexagon,0.0014157599944155663,627.3971851030074,628.9049804990063,628.9049804990063,628.9049804990063,,,,,1,0,d,0,629.488750457007,,,0.5626018670009216,,,,,,,,,,,,,,,,,,,,,,,,,,,,,,,,,,,,,,,,,,,,,,,92584,2022-10-27_13h57.55.785,vts_reward_expectancy_bt_OFFLINE,2022.2.4,60.10451646780016,
,,,,,,,,,,,,,,,,,,0,0,0,0,8,0,8,0,,,,,,,,,,,,,,,,,,,,,,,,,,,,,,,,,,,,,,,,,,,,,,,,635.7458779800072,H,132,hexagon,0.0018300070078112185,631.9703219840012,633.4766189690126,633.4766189690126,633.4766189690126,,,,,1,0,d,0,634.2442841380107,,,0.7354175450018374,,,,,,,,,,,,,,,,,,,,,,,,,,,,,,,,,,,,,,,,,,,,,,,92584,2022-10-27_13h57.55.785,vts_reward_expectancy_bt_OFFLINE,2022.2.4,60.10451646780016,
,,,,,,,,,,,,,,,,,,0,0,0,0,9,0,9,0,,,,,,,,,,,,,,,,,,,,,,,,,,,,,,,,,,,,,,,,,,,,,,,,640.3342174740101,B,125,triangle,0.0016420510073658079,636.7247232850059,638.2319513450057,638.2319513450057,638.2319513450057,,,,,1,0,d,0,638.8326106440072,,,0.5715142140106764,,,,,,,,,,,,,,,,,,,,,,,,,,,,,,,,,,,,,,,,,,,,,,,92584,2022-10-27_13h57.55.785,vts_reward_expectancy_bt_OFFLINE,2022.2.4,60.10451646780016,
,,,,,,,,,,,,,,,,,,,,,,,,,,0,0,0,0,0,0,0,0,,,,,,,,,,,,,,,,,,,,,,,,,,,,,,,,,,,,,,,,658.8212797060114,B,160,triangle,0.002319686987902969,,,,,,,,,1,0,,1,657.31963025601,,,,654.4478609680082,655.9513995720044,655.9513995720044,655.9513995720044,k,1.3484482209896669,,,,,,,,,,,,,,,,,,,,,,,,,,,,,,,,,,,,,,,,,92584,2022-10-27_13h57.55.785,vts_reward_expectancy_bt_OFFLINE,2022.2.4,60.10451646780016,
,,,,,,,,,,,,,,,,,,,,,,,,,,0,0,0,0,1,0,1,0,,,,,,,,,,,,,,,,,,,,,,,,,,,,,,,,,,,,,,,,664.7275927930023,F,146,star,0.0013743419985985383,,,,,,,,,1,0,,1,663.2260999700084,,,,659.8002291230077,661.3072187850048,661.3072187850048,661.3072187850048,j,1.8956716359971324,,,,,,,,,,,,,,,,,,,,,,,,,,,,,,,,,,,,,,,,,92584,2022-10-27_13h57.55.785,vts_reward_expectancy_bt_OFFLINE,2022.2.4,60.10451646780016,
,,,,,,,,,,,,,,,,,,,,,,,,,,0,0,0,0,2,0,2,0,,,,,,,,,,,,,,,,,,,,,,,,,,,,,,,,,,,,,,,,669.4162800780032,D,125,hexagon,0.0015678519994253293,,,,,,,,,1,0,,1,667.9145688170101,,,,665.7089061340084,667.2139895670116,667.2139895670116,667.2139895670116,j,0.6780415859975619,,,,,,,,,,,,,,,,,,,,,,,,,,,,,,,,,,,,,,,,,92584,2022-10-27_13h57.55.785,vts_reward_expectancy_bt_OFFLINE,2022.2.4,60.10451646780016,
,,,,,,,,,,,,,,,,,,,,,,,,,,0,0,0,0,3,0,3,0,,,,,,,,,,,,,,,,,,,,,,,,,,,,,,,,,,,,,,,,674.0381854920124,U,139,circle,0.0016928540135268122,,,,,,,,,1,0,,1,672.5364624890062,,,,670.397785580004,671.9023380040016,671.9023380040016,671.9023380040016,j,0.613291254005162,,,,,,,,,,,,,,,,,,,,,,,,,,,,,,,,,,,,,,,,,92584,2022-10-27_13h57.55.785,vts_reward_expectancy_bt_OFFLINE,2022.2.4,60.10451646780016,
,,,,,,,,,,,,,,,,,,,,,,,,,,0,0,0,0,4,0,4,0,,,,,,,,,,,,,,,,,,,,,,,,,,,,,,,,,,,,,,,,678.9601762689999,S,132,circle,0.0014510890032397583,,,,,,,,,1,0,,1,677.4585565410089,,,,675.0164317430026,676.5243379770109,676.5243379770109,676.5243379770109,j,0.9031606119970093,,,,,,,,,,,,,,,,,,,,,,,,,,,,,,,,,,,,,,,,,92584,2022-10-27_13h57.55.785,vts_reward_expectancy_bt_OFFLINE,2022.2.4,60.10451646780016,
,,,,,,,,,,,,,,,,,,,,,,,,,,0,0,0,0,5,0,5,0,,,,,,,,,,,,,,,,,,,,,,,,,,,,,,,,,,,,,,,,683.9656119710125,W,167,triangle,0.0019339709979249164,,,,,,,,,1,0,,1,682.4639675200015,,,,679.9420289950067,681.4462752890104,681.4462752890104,681.4462752890104,k,0.9976922779896995,,,,,,,,,,,,,,,,,,,,,,,,,,,,,,,,,,,,,,,,,92584,2022-10-27_13h57.55.785,vts_reward_expectancy_bt_OFFLINE,2022.2.4,60.10451646780016,
,,,,,,,,,,,,,,,,,,,,,,,,,,0,0,0,0,6,0,6,0,,,,,,,,,,,,,,,,,,,,,,,,,,,,,,,,,,,,,,,,690.3560622600053,H,174,star,0.0015781759866513312,,,,,,,,,1,0,,1,688.8543729060038,,,,684.9441846219997,686.4516004030011,686.4516004030011,686.4516004030011,k,2.375804926996352,,,,,,,,,,,,,,,,,,,,,,,,,,,,,,,,,,,,,,,,,92584,2022-10-27_13h57.55.785,vts_reward_expectancy_bt_OFFLINE,2022.2.4,60.10451646780016,
,,,,,,,,,,,,,,,,,,,,,,,,,,0,0,0,0,7,0,7,0,,,,,,,,,,,,,,,,,,,,,,,,,,,,,,,,,,,,,,,,694.9778921070101,Y,181,hexagon,0.0016743460000725463,,,,,,,,,1,0,,1,693.47615743801,,,,691.3352620500082,692.8420925550017,692.8420925550017,692.8420925550017,k,0.6097752310015494,,,,,,,,,,,,,,,,,,,,,,,,,,,,,,,,,,,,,,,,,92584,2022-10-27_13h57.55.785,vts_reward_expectancy_bt_OFFLINE,2022.2.4,60.10451646780016,
,,,,,,,,,,,,,,,,,,,,,,,,,,0,0,0,0,8,0,8,0,,,,,,,,,,,,,,,,,,,,,,,,,,,,,,,,,,,,,,,,700.750782862,B,160,triangle,0.0015341889957198873,,,,,,,,,1,0,,1,699.249366434,,,,695.9574156529998,697.4637967010058,697.4637967010058,697.4637967010058,k,1.7551021570106968,,,,,,,,,,,,,,,,,,,,,,,,,,,,,,,,,,,,,,,,,92584,2022-10-27_13h57.55.785,vts_reward_expectancy_bt_OFFLINE,2022.2.4,60.10451646780016,
,,,,,,,,,,,,,,,,,,,,,,,,,,0,0,0,0,9,0,9,0,,,,,,,,,,,,,,,,,,,,,,,,,,,,,,,,,,,,,,,,705.4727409879997,F,146,circle,0.0018084229959640652,,,,,,,,,1,0,,1,703.9710728400096,705.4727409879997,705.9734036230075,,701.7290672920062,703.2369168840087,703.2369168840087,703.2369168840087,j,0.701885055997991,,,,,,,,,,,,,,,,,,,,,,,,,,,,,,,,,,,,,,,,,92584,2022-10-27_13h57.55.785,vts_reward_expectancy_bt_OFFLINE,2022.2.4,60.10451646780016,
,,,,,,,,,,,,,,,,,,,,,,,,,,,,,,,,,,0,0,0,0,0,0,0,0,,,,,,,,,,,,,,,,,,,,,,,,,,,,0,801,,,753.442196035001,D,181,star,0.002203121010097675,,,,,,,,,1,0,,2,,,,,,,,,,,748.9516946160002,748.9516946160002,748.9516946160002,748.9516946160002,750.4555544620089,750.4555544620089,750.4555544620089,750.4555544620089,750.4555544620089,750.4555544620089,750.4555544620089,750.4555544620089,-1,letter,NA,d,1.468338987993775,vtsPrac,751.9420701840136,,,,,,,,,,,,,,,,,,,,,,92584,2022-10-27_13h57.55.785,vts_reward_expectancy_bt_OFFLINE,2022.2.4,60.10451646780016,
,,,,,,,,,,,,,,,,,,,,,,,,,,,,,,,,,,0,0,0,0,1,0,1,0,,,,,,,,,,,,,,,,,,,,,,,,,,,,0,801,,,758.3145414050086,W,132,hexagon,0.0012925719929626212,,,,,,,,,1,0,,2,,,,,,,,,,,754.4244531130098,754.4244531130098,754.4244531130098,754.4244531130098,755.9282833820034,755.9282833820034,755.9282833820034,755.9282833820034,755.9282833820034,755.9282833820034,755.9282833820034,755.9282833820034,switch,number,numSwt,j,0.8678794849984115,vtsPrac,756.8126952820021,,,,,,,,,,,,,,,,,,,,,,92584,2022-10-27_13h57.55.785,vts_reward_expectancy_bt_OFFLINE,2022.2.4,60.10451646780016,
,,,,,,,,,,,,,,,,,,,,,,,,,,,,,,,,,,0,0,0,0,2,0,2,0,,,,,,,,,,,,,,,,,,,,,,,,,,,,0,801,,,764.3542183910031,S,167,triangle,0.001377998007228598,,,,,,,,,1,0,,2,,,,,,,,,,,759.2979587430018,759.2979587430018,759.2979587430018,759.2979587430018,760.8003623250115,760.8003623250115,760.8003623250115,760.8003623250115,760.8003623250115,760.8003623250115,760.8003623250115,760.8003623250115,switch,letter,lettSwt,f,2.0355912069935584,vtsPrac,762.8525057670049,,,,,,,,,,,,,,,,,,,,,,92584,2022-10-27_13h57.55.785,vts_reward_expectancy_bt_OFFLINE,2022.2.4,60.10451646780016,
,,,,,,,,,,,,,,,,,,,,,,,,,,,,,,,,,,0,0,0,0,3,0,3,0,,,,,,,,,,,,,,,,,,,,,,,,,,,,0,801,,,769.1262577270099,Y,125,hexagon,0.0011618439893936738,,,,,,,,,1,0,,2,,,,,,,,,,,765.3366710060072,765.3366710060072,765.3366710060072,765.3366710060072,766.8403909960034,766.8403909960034,766.8403909960034,766.8403909960034,766.8403909960034,766.8403909960034,766.8403909960034,766.8403909960034,switch,number,numSwt,j,0.7551675970025826,vtsPrac,767.6248042160005,,,,,,,,,,,,,,,,,,,,,,92584,2022-10-27_13h57.55.785,vts_reward_expectancy_bt_OFFLINE,2022.2.4,60.10451646780016,
,,,,,,,,,,,,,,,,,,,,,,,,,,,,,,,,,,0,0,0,0,4,0,4,0,,,,,,,,,,,,,,,,,,,,,,,,,,,,0,801,,,774.0817905740114,D,181,triangle,0.0014992229989729822,,,,,,,,,1,0,,2,,,,,,,,,,,770.1076906390081,770.1076906390081,770.1076906390081,770.1076906390081,771.6123121810087,771.6123121810087,771.6123121810087,771.6123121810087,771.6123121810087,771.6123121810087,771.6123121810087,771.6123121810087,repeat,number,numRpt,k,0.934768224004074,vtsPrac,772.580104986002,,,,,,,,,,,,,,,,,,,,,,92584,2022-10-27_13h57.55.785,vts_reward_expectancy_bt_OFFLINE,2022.2.4,60.10451646780016,
,,,,,,,,,,,,,,,,,,,,,,,,,,,,,,,,,,0,0,0,0,5,0,5,0,,,,,,,,,,,,,,,,,,,,,,,,,,,,0,801,,,779.5710862929991,W,132,circle,0.0017125029989983886,,,,,,,,,1,0,,2,,,,,,,,,,,775.063080322012,775.063080322012,775.063080322012,775.063080322012,776.5679935160006,776.5679935160006,776.5679935160006,776.5679935160006,776.5679935160006,776.5679935160006,776.5679935160006,776.5679935160006,repeat,number,numRpt,j,1.4837094389949925,vtsPrac,778.0695096770069,,,,,,,,,,,,,,,,,,,,,,92584,2022-10-27_13h57.55.785,vts_reward_expectancy_bt_OFFLINE,2022.2.4,60.10451646780016,
,,,,,,,,,,,,,,,,,,,,,,,,,,,,,,,,,,0,0,0,0,6,0,6,0,,,,,,,,,,,,,,,,,,,,,,,,,,,,0,801,,,784.3932466050028,S,167,circle,0.0013475909945555031,,,,,,,,,1,0,,2,,,,,,,,,,,780.5504700930032,780.5504700930032,780.5504700930032,780.5504700930032,782.0570594000019,782.0570594000019,782.0570594000019,782.0570594000019,782.0570594000019,782.0570594000019,782.0570594000019,782.0570594000019,switch,letter,lettSwt,f,0.8020322209922597,vtsPrac,782.8913960150094,,,,,,,,,,,,,,,,,,,,,,92584,2022-10-27_13h57.55.785,vts_reward_expectancy_bt_OFFLINE,2022.2.4,60.10451646780016,
,,,,,,,,,,,,,,,,,,,,,,,,,,,,,,,,,,0,0,0,0,7,0,7,0,,,,,,,,,,,,,,,,,,,,,,,,,,,,0,801,,,789.9660065170028,Y,125,star,0.0011844340042443946,,,,,,,,,1,0,,2,,,,,,,,,,,785.374569342006,785.374569342006,785.374569342006,785.374569342006,786.8791917400085,786.8791917400085,786.8791917400085,786.8791917400085,786.8791917400085,786.8791917400085,786.8791917400085,786.8791917400085,repeat,letter,lettRpt,f,1.564151219004998,vtsPrac,788.4642316050013,,,,,,,,,,,,,,,,,,,,,,92584,2022-10-27_13h57.55.785,vts_reward_expectancy_bt_OFFLINE,2022.2.4,60.10451646780016,
,,,,,,,,,,,,,,,,,,,,,,,,,,,,,,,,,,0,0,0,0,8,0,8,0,,,,,,,,,,,,,,,,,,,,,,,,,,,,0,801,,,794.6377324200002,D,181,triangle,0.0016107709961943328,,,,,,,,,1,0,,2,,,,,,,,,,,790.9451787660073,790.9451787660073,790.9451787660073,790.9451787660073,792.4520492280135,792.4520492280135,792.4520492280135,792.4520492280135,792.4520492280135,792.4520492280135,792.4520492280135,792.4520492280135,switch,number,numSwt,k,0.6636274759948719,vtsPrac,793.1360177530005,,,,,,,,,,,,,,,,,,,,,,92584,2022-10-27_13h57.55.785,vts_reward_expectancy_bt_OFFLINE,2022.2.4,60.10451646780016,
,,,,,,,,,,,,,,,,,,,,,,,,,,,,,,,,,,0,0,0,0,9,0,9,0,,,,,,,,,,,,,,,,,,,,,,,,,,,,0,801,,,799.6265157720045,U,174,circle,0.001412508005159907,,,,,,,,,1,0,,2,,,,,,,,,,,795.6206139460119,795.6206139460119,795.6206139460119,795.6206139460119,797.1237464090082,797.1237464090082,797.1237464090082,797.1237464090082,797.1237464090082,797.1237464090082,797.1237464090082,797.1237464090082,switch,letter,lettSwt,f,0.9837783249968197,vtsPrac,798.1245898540074,,,,,,,,,,,,,,,,,,,,,,92584,2022-10-27_13h57.55.785,vts_reward_expectancy_bt_OFFLINE,2022.2.4,60.10451646780016,
,,,,,,,,,,,,,,,,,,,,,,,,,,,,,,,,,,0,0,0,0,10,0,10,0,,,,,,,,,,,,,,,,,,,,,,,,,,,,0,801,,,804.6821285070037,H,125,triangle,0.0015819100080989301,,,,,,,,,1,0,,2,,,,,,,,,,,800.6064555000048,800.6064555000048,800.6064555000048,800.6064555000048,802.1127680930076,802.1127680930076,802.1127680930076,802.1127680930076,802.1127680930076,802.1127680930076,802.1127680930076,802.1127680930076,repeat,letter,lettRpt,d,1.0429992629942717,vtsPrac,803.1805454550049,,,,,,,,,,,,,,,,,,,,,,92584,2022-10-27_13h57.55.785,vts_reward_expectancy_bt_OFFLINE,2022.2.4,60.10451646780016,
,,,,,,,,,,,,,,,,,,,,,,,,,,,,,,,,,,0,0,0,0,11,0,11,0,,,,,,,,,,,,,,,,,,,,,,,,,,,,0,801,,,809.3539662010007,B,146,circle,0.0017502940027043223,,,,,,,,,1,0,,2,,,,,,,,,,,805.6621037350124,805.6621037350124,805.6621037350124,805.6621037350124,807.1683965620032,807.1683965620032,807.1683965620032,807.1683965620032,807.1683965620032,807.1683965620032,807.1683965620032,807.1683965620032,switch,number,numSwt,j,0.6516483449959196,vtsPrac,807.8524848450033,,,,,,,,,,,,,,,,,,,,,,92584,2022-10-27_13h57.55.785,vts_reward_expectancy_bt_OFFLINE,2022.2.4,60.10451646780016,
,,,,,,,,,,,,,,,,,,,,,,,,,,,,,,,,,,0,0,0,0,12,0,12,0,,,,,,,,,,,,,,,,,,,,,,,,,,,,0,801,,,814.2092679210036,H,146,circle,0.0017014010081766173,,,,,,,,,1,0,,2,,,,,,,,,,,810.3330533810076,810.3330533810076,810.3330533810076,810.3330533810076,811.8400715460011,811.8400715460011,811.8400715460011,811.8400715460011,811.8400715460011,811.8400715460011,811.8400715460011,811.8400715460011,switch,letter,lettSwt,d,0.8438109160051681,vtsPrac,812.7078847840021,,,,,,,,,,,,,,,,,,,,,,92584,2022-10-27_13h57.55.785,vts_reward_expectancy_bt_OFFLINE,2022.2.4,60.10451646780016,
,,,,,,,,,,,,,,,,,,,,,,,,,,,,,,,,,,0,0,0,0,13,0,13,0,,,,,,,,,,,,,,,,,,,,,,,,,,,,0,801,,,818.8645719699998,U,139,star,0.0017271010001422837,,,,,,,,,1,0,,2,,,,,,,,,,,815.1886072600028,815.1886072600028,815.1886072600028,815.1886072600028,816.6954911979992,816.6954911979992,816.6954911979992,816.6954911979992,816.6954911979992,816.6954911979992,816.6954911979992,816.6954911979992,switch,number,numSwt,j,0.6351889759971527,vtsPrac,817.3628660190006,,,,,,,,,,,,,,,,,,,,,,92584,2022-10-27_13h57.55.785,vts_reward_expectancy_bt_OFFLINE,2022.2.4,60.10451646780016,
,,,,,,,,,,,,,,,,,,,,,,,,,,,,,,,,,,0,0,0,0,14,0,14,0,,,,,,,,,,,,,,,,,,,,,,,,,,,,0,801,,,823.4361999480025,D,181,circle,0.001446940004825592,,,,,,,,,1,0,,2,,,,,,,,,,,819.8440344070113,819.8440344070113,819.8440344070113,819.8440344070113,821.3505878290016,821.3505878290016,821.3505878290016,821.3505878290016,821.3505878290016,821.3505878290016,821.3505878290016,821.3505878290016,switch,letter,lettSwt,d,0.5652452149952296,vtsPrac,821.9344805040018,,,,,,,,,,,,,,,,,,,,,,92584,2022-10-27_13h57.55.785,vts_reward_expectancy_bt_OFFLINE,2022.2.4,60.10451646780016,
,,,,,,,,,,,,,,,,,,,,,,,,,,,,,,,,,,0,0,0,0,15,0,15,0,,,,,,,,,,,,,,,,,,,,,,,,,,,,0,801,,,827.9911318750092,W,167,star,0.0016821040044305846,,,,,,,,,1,0,,2,,,,,,,,,,,824.4157482190058,824.4157482190058,824.4157482190058,824.4157482190058,825.9222570040001,825.9222570040001,825.9222570040001,825.9222570040001,825.9222570040001,825.9222570040001,825.9222570040001,825.9222570040001,switch,number,numSwt,k,0.5366268600046169,vtsPrac,826.4894168900064,,,,,,,,,,,,,,,,,,,,,,92584,2022-10-27_13h57.55.785,vts_reward_expectancy_bt_OFFLINE,2022.2.4,60.10451646780016,
,,,,,,,,,,,,,,,,,,,,,,,,,,,,,,,,,,,,,,,,,,0,0,0,0,,,,,,,,,,,,,,,,,,,,,,,,0,801,,,865.0987580040091,S,139,circle,0.0023868660064181313,,,,,,,,,1,0,,,,,,,,,,,,,860.1067527760024,860.1067527760024,860.1067527760024,860.1067527760024,861.6117194670078,861.6117194670078,861.6117194670078,861.6117194670078,861.6117194670078,861.6117194670078,861.6117194670078,861.6117194670078,repeat,number,numRpt,j,1.967850474989973,noRew,,0,863.5973429420119,,,,,,,,,,,,,,,,,,,,92584,2022-10-27_13h57.55.785,vts_reward_expectancy_bt_OFFLINE,2022.2.4,60.10451646780016,
,,,,,,,,,,,,,,,,,,,,,,,,,,,,,,,,,,,,,,,,,,1,0,1,0,,,,,,,,,,,,,,,,,,,,,,,,0,801,,,869.8876261469995,D,160,star,0.0011304679937893525,,,,,,,,,1,0,,,,,,,,,,,,,866.0780142520089,866.0780142520089,866.0780142520089,866.0780142520089,867.5848941510048,867.5848941510048,867.5848941510048,867.5848941510048,867.5848941510048,867.5848941510048,867.5848941510048,867.5848941510048,switch,letter,lettSwt,d,0.7700771660020109,noRew,,0,868.3856589630013,,,,,,,,,,,,,,,,,,,,92584,2022-10-27_13h57.55.785,vts_reward_expectancy_bt_OFFLINE,2022.2.4,60.10451646780016,
,,,,,,,,,,,,,,,,,,,,,,,,,,,,,,,,,,,,,,,,,,2,0,2,0,,,,,,,,,,,,,,,,,,,,,,,,0,801,,,874.7092215430021,W,181,star,0.0014768879918847233,,,,,,,,,1,0,,,,,,,,,,,,,870.8655319200043,870.8655319200043,870.8655319200043,870.8655319200043,872.3733518030058,872.3733518030058,872.3733518030058,872.3733518030058,872.3733518030058,872.3733518030058,872.3733518030058,872.3733518030058,repeat,letter,lettRpt,f,0.8143149779934902,noRew,,0,873.2077710320009,,,,,,,,,,,,,,,,,,,,92584,2022-10-27_13h57.55.785,vts_reward_expectancy_bt_OFFLINE,2022.2.4,60.10451646780016,
,,,,,,,,,,,,,,,,,,,,,,,,,,,,,,,,,,,,,,,,,,3,0,3,0,,,,,,,,,,,,,,,,,,,,,,,,0,801,,,879.8817194950097,H,146,circle,0.0014635609986726195,,,,,,,,,1,0,,,,,,,,,,,,,875.6906140210049,875.6906140210049,875.6906140210049,875.6906140210049,877.1955151380098,877.1955151380098,877.1955151380098,877.1955151380098,877.1955151380098,877.1955151380098,877.1955151380098,877.1955151380098,switch,number,numSwt,j,1.1596886790066492,noRew,,0,878.3791498100036,,,,,,,,,,,,,,,,,,,,92584,2022-10-27_13h57.55.785,vts_reward_expectancy_bt_OFFLINE,2022.2.4,60.10451646780016,
,,,,,,,,,,,,,,,,,,,,,,,,,,,,,,,,,,,,,,,,,,4,0,4,0,,,,,,,,,,,,,,,,,,,,,,,,0,801,,,884.803960973004,S,139,circle,0.0015883629966992885,,,,,,,,,1,0,,,,,,,,,,,,,880.8616196580115,880.8616196580115,880.8616196580115,880.8616196580115,882.3678992200003,882.3678992200003,882.3678992200003,882.3678992200003,882.3678992200003,882.3678992200003,882.3678992200003,882.3678992200003,switch,letter,lettSwt,f,0.9076871449942701,noRew,,0,883.3021563580114,,,,,,,,,,,,,,,,,,,,92584,2022-10-27_13h57.55.785,vts_reward_expectancy_bt_OFFLINE,2022.2.4,60.10451646780016,
,,,,,,,,,,,,,,,,,,,,,,,,,,,,,,,,,,,,,,,,,,5,0,5,0,,,,,,,,,,,,,,,,,,,,,,,,0,801,,,889.9263580760016,D,160,hexagon,0.0016638530069030821,,,,,,,,,1,0,,,,,,,,,,,,,885.7829934940091,885.7829934940091,885.7829934940091,885.7829934940091,887.2901185619994,887.2901185619994,887.2901185619994,887.2901185619994,887.2901185619994,887.2901185619994,887.2901185619994,887.2901185619994,switch,number,numSwt,k,1.113810023991391,noRew,,0,888.4246401270066,,,,,,,,,,,,,,,,,,,,92584,2022-10-27_13h57.55.785,vts_reward_expectancy_bt_OFFLINE,2022.2.4,60.10451646780016,
,,,,,,,,,,,,,,,,,,,,,,,,,,,,,,,,,,,,,,,,,,6,0,6,0,,,,,,,,,,,,,,,,,,,,,,,,0,801,,,895.0820372440066,W,181,circle,0.0013589110021712258,,,,,,,,,1,0,,,,,,,,,,,,,890.9054672820057,890.9054672820057,890.9054672820057,890.9054672820057,892.4122504510015,892.4122504510015,892.4122504510015,892.4122504510015,892.4122504510015,892.4122504510015,892.4122504510015,892.4122504510015,repeat,number,numRpt,k,1.135092276002979,noRew,,0,893.5802572810062,,,,,,,,,,,,,,,,,,,,92584,2022-10-27_13h57.55.785,vts_reward_expectancy_bt_OFFLINE,2022.2.4,60.10451646780016,
,,,,,,,,,,,,,,,,,,,,,,,,,,,,,,,,,,,,,,,,,,7,0,7,0,,,,,,,,,,,,,,,,,,,,,,,,0,801,,,899.9371852410113,H,146,star,0.0015343019913416356,,,,,,,,,1,0,,,,,,,,,,,,,896.0601736940007,896.0601736940007,896.0601736940007,896.0601736940007,897.5678560980014,897.5678560980014,897.5678560980014,897.5678560980014,897.5678560980014,897.5678560980014,897.5678560980014,897.5678560980014,switch,letter,lettSwt,d,0.8351566710043699,noRew,,0,898.4354406330094,,,,,,,,,,,,,,,,,,,,92584,2022-10-27_13h57.55.785,vts_reward_expectancy_bt_OFFLINE,2022.2.4,60.10451646780016,
,,,,,,,,,,,,,,,,,,,,,,,,,,,,,,,,,,,,,,,,,,8,0,8,0,,,,,,,,,,,,,,,,,,,,,,,,0,801,,,904.5924231900135,W,125,triangle,0.0015542379987891763,,,,,,,,,1,0,,,,,,,,,,,,,900.9184128500056,900.9184128500056,900.9184128500056,900.9184128500056,902.4234187750117,902.4234187750117,902.4234187750117,902.4234187750117,902.4234187750117,902.4234187750117,902.4234187750117,902.4234187750117,switch,number,numSwt,j,0.6361706489988137,noRew,,0,903.0905771399994,,,,,,,,,,,,,,,,,,,,92584,2022-10-27_13h57.55.785,vts_reward_expectancy_bt_OFFLINE,2022.2.4,60.10451646780016,
,,,,,,,,,,,,,,,,,,,,,,,,,,,,,,,,,,,,,,,,,,9,0,9,0,,,,,,,,,,,,,,,,,,,,,,,,0,801,,,909.4812186830095,F,146,hexagon,0.0016578460054006428,,,,,,,,,0,0,,,,,,,,,,,,,905.5723965830111,905.5723965830111,905.5723965830111,905.5723965830111,907.0785760819999,907.0785760819999,907.0785760819999,907.0785760819999,907.0785760819999,907.0785760819999,907.0785760819999,907.0785760819999,switch,letter,NA,f,0.8688207419909304,noRew,,0,907.9793878830096,,,,,,,,,,,,,,,,,,,,92584,2022-10-27_13h57.55.785,vts_reward_expectancy_bt_OFFLINE,2022.2.4,60.10451646780016,
,,,,,,,,,,,,,,,,,,,,,,,,,,,,,,,,,,,,,,,,,,10,0,10,0,,,,,,,,,,,,,,,,,,,,,,,,0,801,,,914.4200414770021,U,139,hexagon,0.0014350069977808744,,,,,,,,,1,1,,,,,,,,,,,,,910.4602231669996,910.4602231669996,910.4602231669996,910.4602231669996,911.9672010420036,911.9672010420036,911.9672010420036,911.9672010420036,911.9672010420036,911.9672010420036,911.9672010420036,911.9672010420036,repeat,letter,lettRpt,f,0.9327762290049577,noRew,,0,912.9184458680102,,,,,,,,,,,,,,,,,,,,92584,2022-10-27_13h57.55.785,vts_reward_expectancy_bt_OFFLINE,2022.2.4,60.10451646780016,
,,,,,,,,,,,,,,,,,,,,,,,,,,,,,,,,,,,,,,,,,,11,0,11,0,,,,,,,,,,,,,,,,,,,,,,,,0,801,,,919.7757590840047,S,167,circle,0.0015357049996964633,,,,,,,,,1,0,,,,,,,,,,,,,915.4001930869999,915.4001930869999,915.4001930869999,915.4001930869999,916.9059715090116,916.9059715090116,916.9059715090116,916.9059715090116,916.9059715090116,916.9059715090116,916.9059715090116,916.9059715090116,repeat,letter,lettRpt,f,1.337472590006655,noRew,,0,918.2740229740011,,,,,,,,,,,,,,,,,,,,92584,2022-10-27_13h57.55.785,vts_reward_expectancy_bt_OFFLINE,2022.2.4,60.10451646780016,
,,,,,,,,,,,,,,,,,,,,,,,,,,,,,,,,,,,,,,,,,,12,0,12,0,,,,,,,,,,,,,,,,,,,,,,,,0,801,,,925.3487740220007,W,160,hexagon,0.0016296499961754307,,,,,,,,,1,0,,,,,,,,,,,,,920.7548555160029,920.7548555160029,920.7548555160029,920.7548555160029,922.2618832810113,922.2618832810113,922.2618832810113,922.2618832810113,922.2618832810113,922.2618832810113,922.2618832810113,922.2618832810113,switch,number,numSwt,k,1.5571552089968463,noRew,,0,923.8468745310092,,,,,,,,,,,,,,,,,,,,92584,2022-10-27_13h57.55.785,vts_reward_expectancy_bt_OFFLINE,2022.2.4,60.10451646780016,
,,,,,,,,,,,,,,,,,,,,,,,,,,,,,,,,,,,,,,,,,,13,0,13,0,,,,,,,,,,,,,,,,,,,,,,,,0,801,,,930.4541720700072,D,181,circle,0.0015939650038490072,,,,,,,,,1,0,,,,,,,,,,,,,926.327823923013,926.327823923013,926.327823923013,926.327823923013,927.8345124250045,927.8345124250045,927.8345124250045,927.8345124250045,927.8345124250045,927.8345124250045,927.8345124250045,927.8345124250045,repeat,number,numRpt,k,1.0970673300034832,noRew,,0,928.9524923130084,,,,,,,,,,,,,,,,,,,,92584,2022-10-27_13h57.55.785,vts_reward_expectancy_bt_OFFLINE,2022.2.4,60.10451646780016,
,,,,,,,,,,,,,,,,,,,,,,,,,,,,,,,,,,,,,,,,,,14,0,14,0,,,,,,,,,,,,,,,,,,,,,,,,0,801,,,935.5765759600035,S,174,triangle,0.0016603500116616488,,,,,,,,,1,0,,,,,,,,,,,,,931.4354120070057,931.4354120070057,931.4354120070057,931.4354120070057,932.9404115790094,932.9404115790094,932.9404115790094,932.9404115790094,932.9404115790094,932.9404115790094,932.9404115790094,932.9404115790094,switch,letter,lettSwt,f,1.1027604109985987,noRew,,0,934.0748921540071,,,,,,,,,,,,,,,,,,,,92584,2022-10-27_13h57.55.785,vts_reward_expectancy_bt_OFFLINE,2022.2.4,60.10451646780016,
,,,,,,,,,,,,,,,,,,,,,,,,,,,,,,,,,,,,,,,,,,15,0,15,0,,,,,,,,,,,,,,,,,,,,,,,,0,801,,,941.0327156690037,H,132,star,0.0012959320010850206,,,,,,,,,1,0,,,,,,,,,,,,,936.5579948200029,936.5579948200029,936.5579948200029,936.5579948200029,938.0626509850117,938.0626509850117,938.0626509850117,938.0626509850117,938.0626509850117,938.0626509850117,938.0626509850117,938.0626509850117,repeat,letter,lettRpt,d,1.4367609260079917,noRew,,0,939.5309695890028,,,,,,,,,,,,,,,,,,,,92584,2022-10-27_13h57.55.785,vts_reward_expectancy_bt_OFFLINE,2022.2.4,60.10451646780016,
