LTriangleOpac,LCircleOpac,LHexagonOpac,LStarOpac,RTriangleOpac,RCircleOpac,RHexagonOpac,RStarOpac,LShape_ID,RShape_ID,training_blocks.thisRepN,training_blocks.thisTrialN,training_blocks.thisN,training_blocks.thisIndex,training.thisRepN,training.thisTrialN,training.thisN,training.thisIndex,task1_prac_redo.thisRepN,task1_prac_redo.thisTrialN,task1_prac_redo.thisN,task1_prac_redo.thisIndex,task1_prac_trials.thisRepN,task1_prac_trials.thisTrialN,task1_prac_trials.thisN,task1_prac_trials.thisIndex,task2_prac_redo.thisRepN,task2_prac_redo.thisTrialN,task2_prac_redo.thisN,task2_prac_redo.thisIndex,task2_praac_trials.thisRepN,task2_praac_trials.thisTrialN,task2_praac_trials.thisN,task2_praac_trials.thisIndex,vts_prac_redo.thisRepN,vts_prac_redo.thisTrialN,vts_prac_redo.thisN,vts_prac_redo.thisIndex,vts_practice_trials.thisRepN,vts_practice_trials.thisTrialN,vts_practice_trials.thisN,vts_practice_trials.thisIndex,trials_norew.thisRepN,trials_norew.thisTrialN,trials_norew.thisN,trials_norew.thisIndex,block.thisRepN,block.thisTrialN,block.thisN,block.thisIndex,trials_rew.thisRepN,trials_rew.thisTrialN,trials_rew.thisN,trials_rew.thisIndex,key_resp.started,key_resp.keys,key_resp.rt,left_circle.started,right_circle.started,left_triangle.started,right_triangle.started,left_star.started,right_star.started,left_hexagon.started,right_hexagon.started,training_fix.started,training_resp.started,training_resp.keys,training_resp.rt,points_trial,points_cumul,trainBlock,training_feedback_txt.started,fix.started,training_feedback_txt.stopped,fix.stopped,curr_topStim,curr_bottStim,curr_shape,ISI.started,tgt_fix_prac1.started,top_target_prac1.started,bott_target_prac1.started,target_resp_prac1.started,top_target_prac1.stopped,tgt_fix_prac1.stopped,bott_target_prac1.stopped,target_resp_prac1.stopped,acc,E1,target_resp_prac1.keys,pracBlock,prac_fback_text.started,prac_fback_text.stopped,target_resp_prac1.rt,tgt_fix_prac2.started,top_target_prac2.started,bott_target_prac2.started,target_resp_prac2.started,target_resp_prac2.keys,target_resp_prac2.rt,star.started,hegagon.started,triangle.started,circle.started,star.stopped,hegagon.stopped,triangle.stopped,circle.stopped,top_target.started,tgt_fix.started,bot_target.started,target_resp.started,alt,task,condition,target_resp.keys,target_resp.rt,rewCond,vts_fback.started,blockNum,norew_fback.started,norew_fback.stopped,top_target.stopped,tgt_fix.stopped,bot_target.stopped,target_resp.stopped,key_resp_2.keys,key_resp_2.rt,rewExpectancy,feedbk_text.started,feedbk_text.stopped,text_3.started,debrief.started,text_3.stopped,button.started,debrief.index,debrief.itemText,debrief.type,debrief.granularity,debrief.font,debrief.markerColor,debrief.response,debrief.rt,button.numClicks,button.timesOn,button.timesOff,participant,date,expName,psychopyVersion,frameRate,
,,,,,,,,,,,,,,,,,,,,,,,,,,,,,,,,,,,,,,,,,,,,,,,,,,,,,,234.9138378960197,space,14.9498828209762,,,,,,,,,,,,,,,,,,,,,,,,,,,,,,,,,,,,,,,,,,,,,,,,,,,,,,,,,,,,,,,,,,,,,,,,,,,,,,,,,,,,,,,,,,,95243,2022-11-17_08h05.55.763,vts_reward_expectancy_bt_OFFLINE,2022.2.4,59.93543862033485,
0,0,0,1,0,0,1,0,star,hexagon,0,0,0,0,0,0,0,11,,,,,,,,,,,,,,,,,,,,,,,,,,,,,,,,,,,,,,,,274.55292028101394,274.55292028101394,274.55292028101394,274.55292028101394,274.55292028101394,274.55292028101394,274.55292028101394,274.55292028101394,274.55292028101394,274.55292028101394,a,1.0615695089800283,1,1,0,275.63378953002393,277.1356092840142,,,,,,,,,,,,,,,,,,,,,,,,,,,,,,,,,,,,,,,,,,,,,,,,,,,,,,,,,,,,,,,,,,,,,,,,,,95243,2022-11-17_08h05.55.763,vts_reward_expectancy_bt_OFFLINE,2022.2.4,59.93543862033485,
0,1,0,0,0,0,0,1,circle,star,0,0,0,0,0,1,1,5,,,,,,,,,,,,,,,,,,,,,,,,,,,,,,,,,,,,,,,,277.63621433702065,277.63621433702065,277.63621433702065,277.63621433702065,277.63621433702065,277.63621433702065,277.63621433702065,277.63621433702065,277.63621433702065,277.63621433702065,l,0.870058878994314,1,2,0,278.537349257007,280.0388721730269,,,,,,,,,,,,,,,,,,,,,,,,,,,,,,,,,,,,,,,,,,,,,,,,,,,,,,,,,,,,,,,,,,,,,,,,,,95243,2022-11-17_08h05.55.763,vts_reward_expectancy_bt_OFFLINE,2022.2.4,59.93543862033485,
0,0,0,1,0,1,0,0,star ,circle,0,0,0,0,0,2,2,10,,,,,,,,,,,,,,,,,,,,,,,,,,,,,,,,,,,,,,,,280.5392815100204,280.5392815100204,280.5392815100204,280.5392815100204,280.5392815100204,280.5392815100204,280.5392815100204,280.5392815100204,280.5392815100204,280.5392815100204,a,0.7454112060077023,1,3,0,281.3070152980217,282.8085952720139,,,,,,,,,,,,,,,,,,,,,,,,,,,,,,,,,,,,,,,,,,,,,,,,,,,,,,,,,,,,,,,,,,,,,,,,,,95243,2022-11-17_08h05.55.763,vts_reward_expectancy_bt_OFFLINE,2022.2.4,59.93543862033485,
1,0,0,0,0,0,1,0,triangle,hexagon,0,0,0,0,0,3,3,1,,,,,,,,,,,,,,,,,,,,,,,,,,,,,,,,,,,,,,,,283.3089725060272,283.3089725060272,283.3089725060272,283.3089725060272,283.3089725060272,283.3089725060272,283.3089725060272,283.3089725060272,283.3089725060272,283.3089725060272,l,0.8360545329924207,10,13,0,284.1768561130157,285.6783033980173,,,,,,,,,,,,,,,,,,,,,,,,,,,,,,,,,,,,,,,,,,,,,,,,,,,,,,,,,,,,,,,,,,,,,,,,,,95243,2022-11-17_08h05.55.763,vts_reward_expectancy_bt_OFFLINE,2022.2.4,59.93543862033485,
0,0,1,0,1,0,0,0,hexagon,triangle,0,0,0,0,0,4,4,6,,,,,,,,,,,,,,,,,,,,,,,,,,,,,,,,,,,,,,,,286.17886376800016,286.17886376800016,286.17886376800016,286.17886376800016,286.17886376800016,286.17886376800016,286.17886376800016,286.17886376800016,286.17886376800016,286.17886376800016,a,0.4731223169947043,1,14,0,286.67961529802415,288.1811131470022,,,,,,,,,,,,,,,,,,,,,,,,,,,,,,,,,,,,,,,,,,,,,,,,,,,,,,,,,,,,,,,,,,,,,,,,,,95243,2022-11-17_08h05.55.763,vts_reward_expectancy_bt_OFFLINE,2022.2.4,59.93543862033485,
0,1,0,0,1,0,0,0,circle,triangle,0,0,0,0,0,5,5,3,,,,,,,,,,,,,,,,,,,,,,,,,,,,,,,,,,,,,,,,288.68161172702094,288.68161172702094,288.68161172702094,288.68161172702094,288.68161172702094,288.68161172702094,288.68161172702094,288.68161172702094,288.68161172702094,288.68161172702094,l,0.4455879970046226,10,24,0,289.1492479040171,290.65056811101385,,,,,,,,,,,,,,,,,,,,,,,,,,,,,,,,,,,,,,,,,,,,,,,,,,,,,,,,,,,,,,,,,,,,,,,,,,95243,2022-11-17_08h05.55.763,vts_reward_expectancy_bt_OFFLINE,2022.2.4,59.93543862033485,
0,1,0,0,0,0,1,0,circle,hexagon,0,0,0,0,0,6,6,4,,,,,,,,,,,,,,,,,,,,,,,,,,,,,,,,,,,,,,,,291.15125585801434,291.15125585801434,291.15125585801434,291.15125585801434,291.15125585801434,291.15125585801434,291.15125585801434,291.15125585801434,291.15125585801434,291.15125585801434,l,0.40680099398014136,1,25,0,291.58477942302125,293.08656604000134,,,,,,,,,,,,,,,,,,,,,,,,,,,,,,,,,,,,,,,,,,,,,,,,,,,,,,,,,,,,,,,,,,,,,,,,,,95243,2022-11-17_08h05.55.763,vts_reward_expectancy_bt_OFFLINE,2022.2.4,59.93543862033485,
0,0,1,0,0,1,0,0,hexagon,circle,0,0,0,0,0,7,7,7,,,,,,,,,,,,,,,,,,,,,,,,,,,,,,,,,,,,,,,,293.58700975001557,293.58700975001557,293.58700975001557,293.58700975001557,293.58700975001557,293.58700975001557,293.58700975001557,293.58700975001557,293.58700975001557,293.58700975001557,a,0.333297324978048,10,35,0,293.93783091101795,295.4391179770173,295.4391179770173,,,,,,,,,,,,,,,,,,,,,,,,,,,,,,,,,,,,,,,,,,,,,,,,,,,,,,,,,,,,,,,,,,,,,,,,,95243,2022-11-17_08h05.55.763,vts_reward_expectancy_bt_OFFLINE,2022.2.4,59.93543862033485,
1,0,0,0,0,1,0,0,triangle,circle,0,0,0,0,0,8,8,0,,,,,,,,,,,,,,,,,,,,,,,,,,,,,,,,,,,,,,,,295.9397492540011,295.9397492540011,295.9397492540011,295.9397492540011,295.9397492540011,295.9397492540011,295.9397492540011,295.9397492540011,295.9397492540011,295.9397492540011,l,1.207816128997365,10,45,0,297.17432825200376,298.6760913540202,,,,,,,,,,,,,,,,,,,,,,,,,,,,,,,,,,,,,,,,,,,,,,,,,,,,,,,,,,,,,,,,,,,,,,,,,,95243,2022-11-17_08h05.55.763,vts_reward_expectancy_bt_OFFLINE,2022.2.4,59.93543862033485,
1,0,0,0,0,0,0,1,triangle,star,0,0,0,0,0,9,9,2,,,,,,,,,,,,,,,,,,,,,,,,,,,,,,,,,,,,,,,,299.1765992490109,299.1765992490109,299.1765992490109,299.1765992490109,299.1765992490109,299.1765992490109,299.1765992490109,299.1765992490109,299.1765992490109,299.1765992490109,a,1.3692513150162995,10,55,0,300.5780567000038,302.0797621780075,,,,,,,,,,,,,,,,,,,,,,,,,,,,,,,,,,,,,,,,,,,,,,,,,,,,,,,,,,,,,,,,,,,,,,,,,,95243,2022-11-17_08h05.55.763,vts_reward_expectancy_bt_OFFLINE,2022.2.4,59.93543862033485,
0,0,1,0,0,0,0,1,hexagon,star,0,0,0,0,0,10,10,8,,,,,,,,,,,,,,,,,,,,,,,,,,,,,,,,,,,,,,,,302.58034940902144,302.58034940902144,302.58034940902144,302.58034940902144,302.58034940902144,302.58034940902144,302.58034940902144,302.58034940902144,302.58034940902144,302.58034940902144,l,0.7549196409818251,1,56,0,303.3646696100186,304.8662141110108,,,,,,,,,,,,,,,,,,,,,,,,,,,,,,,,,,,,,,,,,,,,,,,,,,,,,,,,,,,,,,,,,,,,,,,,,,95243,2022-11-17_08h05.55.763,vts_reward_expectancy_bt_OFFLINE,2022.2.4,59.93543862033485,
0,0,0,1,1,0,0,0,star,triangle,0,0,0,0,0,11,11,9,,,,,,,,,,,,,,,,,,,,,,,,,,,,,,,,,,,,,,,,305.36662155602244,305.36662155602244,305.36662155602244,305.36662155602244,305.36662155602244,305.36662155602244,305.36662155602244,305.36662155602244,305.36662155602244,305.36662155602244,l,1.0290574180253316,1,57,0,306.417842010007,307.919788935018,,,,,,,,,,,,,,,,,,,,,,,,,,,,,,,,,,,,,,,,,,,,,,,,,,,,,,,,,,,,,,,,,,,,,,,,,,95243,2022-11-17_08h05.55.763,vts_reward_expectancy_bt_OFFLINE,2022.2.4,59.93543862033485,
0,0,1,0,0,0,0,1,hexagon,star,0,0,0,0,1,0,12,8,,,,,,,,,,,,,,,,,,,,,,,,,,,,,,,,,,,,,,,,308.42018033200293,308.42018033200293,308.42018033200293,308.42018033200293,308.42018033200293,308.42018033200293,308.42018033200293,308.42018033200293,308.42018033200293,308.42018033200293,a,0.27114982999046333,1,58,0,308.7204476610059,310.22198723000474,,,,,,,,,,,,,,,,,,,,,,,,,,,,,,,,,,,,,,,,,,,,,,,,,,,,,,,,,,,,,,,,,,,,,,,,,,95243,2022-11-17_08h05.55.763,vts_reward_expectancy_bt_OFFLINE,2022.2.4,59.93543862033485,
0,0,0,1,1,0,0,0,star,triangle,0,0,0,0,1,1,13,9,,,,,,,,,,,,,,,,,,,,,,,,,,,,,,,,,,,,,,,,310.7227411100175,310.7227411100175,310.7227411100175,310.7227411100175,310.7227411100175,310.7227411100175,310.7227411100175,310.7227411100175,310.7227411100175,310.7227411100175,l,0.37513423000928015,10,68,0,311.1232396060077,312.62475150701357,,,,,,,,,,,,,,,,,,,,,,,,,,,,,,,,,,,,,,,,,,,,,,,,,,,,,,,,,,,,,,,,,,,,,,,,,,95243,2022-11-17_08h05.55.763,vts_reward_expectancy_bt_OFFLINE,2022.2.4,59.93543862033485,
1,0,0,0,0,1,0,0,triangle,circle,0,0,0,0,1,2,14,0,,,,,,,,,,,,,,,,,,,,,,,,,,,,,,,,,,,,,,,,313.12524391899933,313.12524391899933,313.12524391899933,313.12524391899933,313.12524391899933,313.12524391899933,313.12524391899933,313.12524391899933,313.12524391899933,313.12524391899933,l,0.4033390929980669,10,78,0,313.5591697350028,315.0607757830003,,,,,,,,,,,,,,,,,,,,,,,,,,,,,,,,,,,,,,,,,,,,,,,,,,,,,,,,,,,,,,,,,,,,,,,,,,95243,2022-11-17_08h05.55.763,vts_reward_expectancy_bt_OFFLINE,2022.2.4,59.93543862033485,
0,0,0,1,0,0,1,0,star,hexagon,0,0,0,0,1,3,15,11,,,,,,,,,,,,,,,,,,,,,,,,,,,,,,,,,,,,,,,,315.56123006902635,315.56123006902635,315.56123006902635,315.56123006902635,315.56123006902635,315.56123006902635,315.56123006902635,315.56123006902635,315.56123006902635,315.56123006902635,l,0.39904973199008964,1,79,0,315.97833029401954,317.4800984559988,,,,,,,,,,,,,,,,,,,,,,,,,,,,,,,,,,,,,,,,,,,,,,,,,,,,,,,,,,,,,,,,,,,,,,,,,,95243,2022-11-17_08h05.55.763,vts_reward_expectancy_bt_OFFLINE,2022.2.4,59.93543862033485,
1,0,0,0,0,0,1,0,triangle,hexagon,0,0,0,0,1,4,16,1,,,,,,,,,,,,,,,,,,,,,,,,,,,,,,,,,,,,,,,,317.9807891410019,317.9807891410019,317.9807891410019,317.9807891410019,317.9807891410019,317.9807891410019,317.9807891410019,317.9807891410019,317.9807891410019,317.9807891410019,a,0.39634711400140077,10,89,0,318.39768485102104,319.89940033701714,,,,,,,,,,,,,,,,,,,,,,,,,,,,,,,,,,,,,,,,,,,,,,,,,,,,,,,,,,,,,,,,,,,,,,,,,,95243,2022-11-17_08h05.55.763,vts_reward_expectancy_bt_OFFLINE,2022.2.4,59.93543862033485,
0,1,0,0,0,0,0,1,circle,star,0,0,0,0,1,5,17,5,,,,,,,,,,,,,,,,,,,,,,,,,,,,,,,,,,,,,,,,320.3999602140102,320.3999602140102,320.3999602140102,320.3999602140102,320.3999602140102,320.3999602140102,320.3999602140102,320.3999602140102,320.3999602140102,320.3999602140102,l,0.30629741700249724,10,99,0,320.73377167101717,322.2354749990045,,,,,,,,,,,,,,,,,,,,,,,,,,,,,,,,,,,,,,,,,,,,,,,,,,,,,,,,,,,,,,,,,,,,,,,,,,95243,2022-11-17_08h05.55.763,vts_reward_expectancy_bt_OFFLINE,2022.2.4,59.93543862033485,
0,1,0,0,0,0,1,0,circle,hexagon,0,0,0,0,1,6,18,4,,,,,,,,,,,,,,,,,,,,,,,,,,,,,,,,,,,,,,,,322.736148704018,322.736148704018,322.736148704018,322.736148704018,322.736148704018,322.736148704018,322.736148704018,322.736148704018,322.736148704018,322.736148704018,l,0.2762687719950918,1,100,0,323.0363824640226,324.5377635830082,,,,,,,,,,,,,,,,,,,,,,,,,,,,,,,,,,,,,,,,,,,,,,,,,,,,,,,,,,,,,,,,,,,,,,,,,,95243,2022-11-17_08h05.55.763,vts_reward_expectancy_bt_OFFLINE,2022.2.4,59.93543862033485,
1,0,0,0,0,0,0,1,triangle,star,0,0,0,0,1,7,19,2,,,,,,,,,,,,,,,,,,,,,,,,,,,,,,,,,,,,,,,,325.03832359900116,325.03832359900116,325.03832359900116,325.03832359900116,325.03832359900116,325.03832359900116,325.03832359900116,325.03832359900116,325.03832359900116,325.03832359900116,l,0.18976969600771554,10,110,0,325.2554267650121,326.75701842299895,,,,,,,,,,,,,,,,,,,,,,,,,,,,,,,,,,,,,,,,,,,,,,,,,,,,,,,,,,,,,,,,,,,,,,,,,,95243,2022-11-17_08h05.55.763,vts_reward_expectancy_bt_OFFLINE,2022.2.4,59.93543862033485,
0,0,0,1,0,1,0,0,star ,circle,0,0,0,0,1,8,20,10,,,,,,,,,,,,,,,,,,,,,,,,,,,,,,,,,,,,,,,,327.25767153600464,327.25767153600464,327.25767153600464,327.25767153600464,327.25767153600464,327.25767153600464,327.25767153600464,327.25767153600464,327.25767153600464,327.25767153600464,l,0.2559711539943237,10,120,0,327.5414246940054,329.0427206210152,,,,,,,,,,,,,,,,,,,,,,,,,,,,,,,,,,,,,,,,,,,,,,,,,,,,,,,,,,,,,,,,,,,,,,,,,,95243,2022-11-17_08h05.55.763,vts_reward_expectancy_bt_OFFLINE,2022.2.4,59.93543862033485,
0,0,1,0,1,0,0,0,hexagon,triangle,0,0,0,0,1,9,21,6,,,,,,,,,,,,,,,,,,,,,,,,,,,,,,,,,,,,,,,,329.54320828901837,329.54320828901837,329.54320828901837,329.54320828901837,329.54320828901837,329.54320828901837,329.54320828901837,329.54320828901837,329.54320828901837,329.54320828901837,l,0.2645590630127117,10,130,0,329.8270016030001,331.3285204700078,,,,,,,,,,,,,,,,,,,,,,,,,,,,,,,,,,,,,,,,,,,,,,,,,,,,,,,,,,,,,,,,,,,,,,,,,,95243,2022-11-17_08h05.55.763,vts_reward_expectancy_bt_OFFLINE,2022.2.4,59.93543862033485,
0,0,1,0,0,1,0,0,hexagon,circle,0,0,0,0,1,10,22,7,,,,,,,,,,,,,,,,,,,,,,,,,,,,,,,,,,,,,,,,331.8291202590044,331.8291202590044,331.8291202590044,331.8291202590044,331.8291202590044,331.8291202590044,331.8291202590044,331.8291202590044,331.8291202590044,331.8291202590044,a,0.3980675039929338,1,131,0,332.24612187599996,333.7481586600188,,,,,,,,,,,,,,,,,,,,,,,,,,,,,,,,,,,,,,,,,,,,,,,,,,,,,,,,,,,,,,,,,,,,,,,,,,95243,2022-11-17_08h05.55.763,vts_reward_expectancy_bt_OFFLINE,2022.2.4,59.93543862033485,
0,1,0,0,1,0,0,0,circle,triangle,0,0,0,0,1,11,23,3,,,,,,,,,,,,,,,,,,,,,,,,,,,,,,,,,,,,,,,,334.2485784669989,334.2485784669989,334.2485784669989,334.2485784669989,334.2485784669989,334.2485784669989,334.2485784669989,334.2485784669989,334.2485784669989,334.2485784669989,l,0.3184765769983642,10,141,0,334.59891493001487,336.1006135250209,,,,,,,,,,,,,,,,,,,,,,,,,,,,,,,,,,,,,,,,,,,,,,,,,,,,,,,,,,,,,,,,,,,,,,,,,,95243,2022-11-17_08h05.55.763,vts_reward_expectancy_bt_OFFLINE,2022.2.4,59.93543862033485,
0,0,1,0,0,0,0,1,hexagon,star,0,0,0,0,2,0,24,8,,,,,,,,,,,,,,,,,,,,,,,,,,,,,,,,,,,,,,,,336.60140029902686,336.60140029902686,336.60140029902686,336.60140029902686,336.60140029902686,336.60140029902686,336.60140029902686,336.60140029902686,336.60140029902686,336.60140029902686,l,0.23794049100251868,1,142,0,336.86836168001173,338.3697477130045,,,,,,,,,,,,,,,,,,,,,,,,,,,,,,,,,,,,,,,,,,,,,,,,,,,,,,,,,,,,,,,,,,,,,,,,,,95243,2022-11-17_08h05.55.763,vts_reward_expectancy_bt_OFFLINE,2022.2.4,59.93543862033485,
1,0,0,0,0,0,1,0,triangle,hexagon,0,0,0,0,2,1,25,1,,,,,,,,,,,,,,,,,,,,,,,,,,,,,,,,,,,,,,,,338.8704568660178,338.8704568660178,338.8704568660178,338.8704568660178,338.8704568660178,338.8704568660178,338.8704568660178,338.8704568660178,338.8704568660178,338.8704568660178,l,0.18470106599852443,1,143,0,339.0873909840011,340.58889162901323,,,,,,,,,,,,,,,,,,,,,,,,,,,,,,,,,,,,,,,,,,,,,,,,,,,,,,,,,,,,,,,,,,,,,,,,,,95243,2022-11-17_08h05.55.763,vts_reward_expectancy_bt_OFFLINE,2022.2.4,59.93543862033485,
0,1,0,0,0,0,0,1,circle,star,0,0,0,0,2,2,26,5,,,,,,,,,,,,,,,,,,,,,,,,,,,,,,,,,,,,,,,,341.0894173470151,341.0894173470151,341.0894173470151,341.0894173470151,341.0894173470151,341.0894173470151,341.0894173470151,341.0894173470151,341.0894173470151,341.0894173470151,a,0.03541597499861382,1,144,0,341.1561930020107,342.65779899799963,,,,,,,,,,,,,,,,,,,,,,,,,,,,,,,,,,,,,,,,,,,,,,,,,,,,,,,,,,,,,,,,,,,,,,,,,,95243,2022-11-17_08h05.55.763,vts_reward_expectancy_bt_OFFLINE,2022.2.4,59.93543862033485,
0,0,0,1,1,0,0,0,star,triangle,0,0,0,0,2,3,27,9,,,,,,,,,,,,,,,,,,,,,,,,,,,,,,,,,,,,,,,,343.1584791460191,343.1584791460191,343.1584791460191,343.1584791460191,343.1584791460191,343.1584791460191,343.1584791460191,343.1584791460191,343.1584791460191,343.1584791460191,l,0.2401181230088696,10,154,0,343.4255465180031,344.92700839802274,,,,,,,,,,,,,,,,,,,,,,,,,,,,,,,,,,,,,,,,,,,,,,,,,,,,,,,,,,,,,,,,,,,,,,,,,,95243,2022-11-17_08h05.55.763,vts_reward_expectancy_bt_OFFLINE,2022.2.4,59.93543862033485,
0,0,0,1,0,0,1,0,star,hexagon,0,0,0,0,2,4,28,11,,,,,,,,,,,,,,,,,,,,,,,,,,,,,,,,,,,,,,,,345.4276270060218,345.4276270060218,345.4276270060218,345.4276270060218,345.4276270060218,345.4276270060218,345.4276270060218,345.4276270060218,345.4276270060218,345.4276270060218,l,0.2432841779955197,1,155,0,345.69453818601323,347.1963639750029,,,,,,,,,,,,,,,,,,,,,,,,,,,,,,,,,,,,,,,,,,,,,,,,,,,,,,,,,,,,,,,,,,,,,,,,,,95243,2022-11-17_08h05.55.763,vts_reward_expectancy_bt_OFFLINE,2022.2.4,59.93543862033485,
0,1,0,0,0,0,1,0,circle,hexagon,0,0,0,0,2,5,29,4,,,,,,,,,,,,,,,,,,,,,,,,,,,,,,,,,,,,,,,,347.69682808200014,347.69682808200014,347.69682808200014,347.69682808200014,347.69682808200014,347.69682808200014,347.69682808200014,347.69682808200014,347.69682808200014,347.69682808200014,l,0.25827403500443324,1,156,0,347.9803763840173,349.48196361301234,,,,,,,,,,,,,,,,,,,,,,,,,,,,,,,,,,,,,,,,,,,,,,,,,,,,,,,,,,,,,,,,,,,,,,,,,,95243,2022-11-17_08h05.55.763,vts_reward_expectancy_bt_OFFLINE,2022.2.4,59.93543862033485,
0,1,0,0,1,0,0,0,circle,triangle,0,0,0,0,2,6,30,3,,,,,,,,,,,,,,,,,,,,,,,,,,,,,,,,,,,,,,,,349.9826003810158,349.9826003810158,349.9826003810158,349.9826003810158,349.9826003810158,349.9826003810158,349.9826003810158,349.9826003810158,349.9826003810158,349.9826003810158,a,0.2896873580175452,10,166,0,350.29948363802396,351.8012364330061,351.8012364330061,352.30181319100666,,,,,,,,,,,,,,,,,,,,,,,,,,,,,,,,,,,,,,,,,,,,,,,,,,,,,,,,,,,,,,,,,,,,,,,,95243,2022-11-17_08h05.55.763,vts_reward_expectancy_bt_OFFLINE,2022.2.4,59.93543862033485,
0,0,1,0,1,0,0,0,hexagon,triangle,0,0,0,0,2,7,31,6,,,,,,,,,,,,,,,,,,,,,,,,,,,,,,,,,,,,,,,,352.30181319100666,352.30181319100666,352.30181319100666,352.30181319100666,352.30181319100666,352.30181319100666,352.30181319100666,352.30181319100666,352.30181319100666,352.30181319100666,l,0.30995179299497977,10,176,0,352.6354658190103,354.1371378250187,,,,,,,,,,,,,,,,,,,,,,,,,,,,,,,,,,,,,,,,,,,,,,,,,,,,,,,,,,,,,,,,,,,,,,,,,,95243,2022-11-17_08h05.55.763,vts_reward_expectancy_bt_OFFLINE,2022.2.4,59.93543862033485,
1,0,0,0,0,0,0,1,triangle,star,0,0,0,0,2,8,32,2,,,,,,,,,,,,,,,,,,,,,,,,,,,,,,,,,,,,,,,,354.637825480022,354.637825480022,354.637825480022,354.637825480022,354.637825480022,354.637825480022,354.637825480022,354.637825480022,354.637825480022,354.637825480022,a,0.269656614982523,10,186,0,354.93823893301305,356.4397027369996,,,,,,,,,,,,,,,,,,,,,,,,,,,,,,,,,,,,,,,,,,,,,,,,,,,,,,,,,,,,,,,,,,,,,,,,,,95243,2022-11-17_08h05.55.763,vts_reward_expectancy_bt_OFFLINE,2022.2.4,59.93543862033485,
0,0,1,0,0,1,0,0,hexagon,circle,0,0,0,0,2,9,33,7,,,,,,,,,,,,,,,,,,,,,,,,,,,,,,,,,,,,,,,,356.9403594790201,356.9403594790201,356.9403594790201,356.9403594790201,356.9403594790201,356.9403594790201,356.9403594790201,356.9403594790201,356.9403594790201,356.9403594790201,a,0.28485521802213043,1,187,0,357.2574345690082,358.75895782600855,,,,,,,,,,,,,,,,,,,,,,,,,,,,,,,,,,,,,,,,,,,,,,,,,,,,,,,,,,,,,,,,,,,,,,,,,,95243,2022-11-17_08h05.55.763,vts_reward_expectancy_bt_OFFLINE,2022.2.4,59.93543862033485,
1,0,0,0,0,1,0,0,triangle,circle,0,0,0,0,2,10,34,0,,,,,,,,,,,,,,,,,,,,,,,,,,,,,,,,,,,,,,,,359.25972446100786,359.25972446100786,359.25972446100786,359.25972446100786,359.25972446100786,359.25972446100786,359.25972446100786,359.25972446100786,359.25972446100786,359.25972446100786,l,0.2269348429981619,1,188,0,359.50973122700816,361.01164793700445,,,,,,,,,,,,,,,,,,,,,,,,,,,,,,,,,,,,,,,,,,,,,,,,,,,,,,,,,,,,,,,,,,,,,,,,,,95243,2022-11-17_08h05.55.763,vts_reward_expectancy_bt_OFFLINE,2022.2.4,59.93543862033485,
0,0,0,1,0,1,0,0,star ,circle,0,0,0,0,2,11,35,10,,,,,,,,,,,,,,,,,,,,,,,,,,,,,,,,,,,,,,,,361.5119783800037,361.5119783800037,361.5119783800037,361.5119783800037,361.5119783800037,361.5119783800037,361.5119783800037,361.5119783800037,361.5119783800037,361.5119783800037,a,0.32582452599308454,1,189,0,361.862504454999,363.363942750002,,,,,,,,,,,,,,,,,,,,,,,,,,,,,,,,,,,,,,,,,,,,,,,,,,,,,,,,,,,,,,,,,,,,,,,,,,95243,2022-11-17_08h05.55.763,vts_reward_expectancy_bt_OFFLINE,2022.2.4,59.93543862033485,
0,0,0,1,1,0,0,0,star,triangle,0,0,0,0,3,0,36,9,,,,,,,,,,,,,,,,,,,,,,,,,,,,,,,,,,,,,,,,363.86471454802086,363.86471454802086,363.86471454802086,363.86471454802086,363.86471454802086,363.86471454802086,363.86471454802086,363.86471454802086,363.86471454802086,363.86471454802086,l,0.2117820059938822,10,199,0,364.0983536270214,365.59979319301783,,,,,,,,,,,,,,,,,,,,,,,,,,,,,,,,,,,,,,,,,,,,,,,,,,,,,,,,,,,,,,,,,,,,,,,,,,95243,2022-11-17_08h05.55.763,vts_reward_expectancy_bt_OFFLINE,2022.2.4,59.93543862033485,
0,1,0,0,0,0,1,0,circle,hexagon,0,0,0,0,3,1,37,4,,,,,,,,,,,,,,,,,,,,,,,,,,,,,,,,,,,,,,,,366.10030675001326,366.10030675001326,366.10030675001326,366.10030675001326,366.10030675001326,366.10030675001326,366.10030675001326,366.10030675001326,366.10030675001326,366.10030675001326,l,0.2256195719819516,1,200,0,366.350710927014,367.852281022002,,,,,,,,,,,,,,,,,,,,,,,,,,,,,,,,,,,,,,,,,,,,,,,,,,,,,,,,,,,,,,,,,,,,,,,,,,95243,2022-11-17_08h05.55.763,vts_reward_expectancy_bt_OFFLINE,2022.2.4,59.93543862033485,
0,0,0,1,0,0,1,0,star,hexagon,0,0,0,0,3,2,38,11,,,,,,,,,,,,,,,,,,,,,,,,,,,,,,,,,,,,,,,,368.35301098501077,368.35301098501077,368.35301098501077,368.35301098501077,368.35301098501077,368.35301098501077,368.35301098501077,368.35301098501077,368.35301098501077,368.35301098501077,a,0.4025083999731578,1,201,0,368.7868690780015,370.28836374901584,,,,,,,,,,,,,,,,,,,,,,,,,,,,,,,,,,,,,,,,,,,,,,,,,,,,,,,,,,,,,,,,,,,,,,,,,,95243,2022-11-17_08h05.55.763,vts_reward_expectancy_bt_OFFLINE,2022.2.4,59.93543862033485,
0,0,1,0,0,1,0,0,hexagon,circle,0,0,0,0,3,3,39,7,,,,,,,,,,,,,,,,,,,,,,,,,,,,,,,,,,,,,,,,370.7890201600094,370.7890201600094,370.7890201600094,370.7890201600094,370.7890201600094,370.7890201600094,370.7890201600094,370.7890201600094,370.7890201600094,370.7890201600094,l,0.23972450901055709,10,211,0,371.055768870021,372.5574179550167,,,,,,,,,,,,,,,,,,,,,,,,,,,,,,,,,,,,,,,,,,,,,,,,,,,,,,,,,,,,,,,,,,,,,,,,,,95243,2022-11-17_08h05.55.763,vts_reward_expectancy_bt_OFFLINE,2022.2.4,59.93543862033485,
1,0,0,0,0,0,1,0,triangle,hexagon,0,0,0,0,3,4,40,1,,,,,,,,,,,,,,,,,,,,,,,,,,,,,,,,,,,,,,,,373.05812276300276,373.05812276300276,373.05812276300276,373.05812276300276,373.05812276300276,373.05812276300276,373.05812276300276,373.05812276300276,373.05812276300276,373.05812276300276,l,0.2681518470053561,1,212,0,373.3586994270154,374.8600606880209,374.8600606880209,,,,,,,,,,,,,,,,,,,,,,,,,,,,,,,,,,,,,,,,,,,,,,,,,,,,,,,,,,,,,,,,,,,,,,,,,95243,2022-11-17_08h05.55.763,vts_reward_expectancy_bt_OFFLINE,2022.2.4,59.93543862033485,
1,0,0,0,0,1,0,0,triangle,circle,0,0,0,0,3,5,41,0,,,,,,,,,,,,,,,,,,,,,,,,,,,,,,,,,,,,,,,,375.3606310830219,375.3606310830219,375.3606310830219,375.3606310830219,375.3606310830219,375.3606310830219,375.3606310830219,375.3606310830219,375.3606310830219,375.3606310830219,a,0.24810221698135138,10,222,0,375.62763379502576,377.1292142390157,,,,,,,,,,,,,,,,,,,,,,,,,,,,,,,,,,,,,,,,,,,,,,,,,,,,,,,,,,,,,,,,,,,,,,,,,,95243,2022-11-17_08h05.55.763,vts_reward_expectancy_bt_OFFLINE,2022.2.4,59.93543862033485,
1,0,0,0,0,0,0,1,triangle,star,0,0,0,0,3,6,42,2,,,,,,,,,,,,,,,,,,,,,,,,,,,,,,,,,,,,,,,,377.63011242900393,377.63011242900393,377.63011242900393,377.63011242900393,377.63011242900393,377.63011242900393,377.63011242900393,377.63011242900393,377.63011242900393,377.63011242900393,a,2.9505940130038653,10,232,0,380.5999893070257,382.1014165750239,,,,,,,,,,,,,,,,,,,,,,,,,,,,,,,,,,,,,,,,,,,,,,,,,,,,,,,,,,,,,,,,,,,,,,,,,,95243,2022-11-17_08h05.55.763,vts_reward_expectancy_bt_OFFLINE,2022.2.4,59.93543862033485,
0,0,1,0,1,0,0,0,hexagon,triangle,0,0,0,0,3,7,43,6,,,,,,,,,,,,,,,,,,,,,,,,,,,,,,,,,,,,,,,,382.60220767502324,382.60220767502324,382.60220767502324,382.60220767502324,382.60220767502324,382.60220767502324,382.60220767502324,382.60220767502324,382.60220767502324,382.60220767502324,a,0.2724716009979602,1,233,0,382.9024285560008,384.40390120100346,,,,,,,,,,,,,,,,,,,,,,,,,,,,,,,,,,,,,,,,,,,,,,,,,,,,,,,,,,,,,,,,,,,,,,,,,,95243,2022-11-17_08h05.55.763,vts_reward_expectancy_bt_OFFLINE,2022.2.4,59.93543862033485,
0,0,1,0,0,0,0,1,hexagon,star,0,0,0,0,3,8,44,8,,,,,,,,,,,,,,,,,,,,,,,,,,,,,,,,,,,,,,,,384.9044358340034,384.9044358340034,384.9044358340034,384.9044358340034,384.9044358340034,384.9044358340034,384.9044358340034,384.9044358340034,384.9044358340034,384.9044358340034,l,0.3566229559946805,1,234,0,385.28814255300676,386.79009707301157,,,,,,,,,,,,,,,,,,,,,,,,,,,,,,,,,,,,,,,,,,,,,,,,,,,,,,,,,,,,,,,,,,,,,,,,,,95243,2022-11-17_08h05.55.763,vts_reward_expectancy_bt_OFFLINE,2022.2.4,59.93543862033485,
0,1,0,0,0,0,0,1,circle,star,0,0,0,0,3,9,45,5,,,,,,,,,,,,,,,,,,,,,,,,,,,,,,,,,,,,,,,,387.290293366008,387.290293366008,387.290293366008,387.290293366008,387.290293366008,387.290293366008,387.290293366008,387.290293366008,387.290293366008,387.290293366008,a,0.5463040350005031,10,244,0,387.8579453130078,389.359291788016,,,,,,,,,,,,,,,,,,,,,,,,,,,,,,,,,,,,,,,,,,,,,,,,,,,,,,,,,,,,,,,,,,,,,,,,,,95243,2022-11-17_08h05.55.763,vts_reward_expectancy_bt_OFFLINE,2022.2.4,59.93543862033485,
0,0,0,1,0,1,0,0,star ,circle,0,0,0,0,3,10,46,10,,,,,,,,,,,,,,,,,,,,,,,,,,,,,,,,,,,,,,,,389.85985804500524,389.85985804500524,389.85985804500524,389.85985804500524,389.85985804500524,389.85985804500524,389.85985804500524,389.85985804500524,389.85985804500524,389.85985804500524,l,0.2510258910187986,10,254,0,390.14358965400606,391.6451446440187,,,,,,,,,,,,,,,,,,,,,,,,,,,,,,,,,,,,,,,,,,,,,,,,,,,,,,,,,,,,,,,,,,,,,,,,,,95243,2022-11-17_08h05.55.763,vts_reward_expectancy_bt_OFFLINE,2022.2.4,59.93543862033485,
0,1,0,0,1,0,0,0,circle,triangle,0,0,0,0,3,11,47,3,,,,,,,,,,,,,,,,,,,,,,,,,,,,,,,,,,,,,,,,392.14571988701937,392.14571988701937,392.14571988701937,392.14571988701937,392.14571988701937,392.14571988701937,392.14571988701937,392.14571988701937,392.14571988701937,392.14571988701937,a,0.281040613015648,10,264,0,392.4460551710217,393.9479308000009,,,,,,,,,,,,,,,,,,,,,,,,,,,,,,,,,,,,,,,,,,,,,,,,,,,,,,,,,,,,,,,,,,,,,,,,,,95243,2022-11-17_08h05.55.763,vts_reward_expectancy_bt_OFFLINE,2022.2.4,59.93543862033485,
1,0,0,0,0,0,0,1,triangle,star,1,0,1,0,0,0,0,2,,,,,,,,,,,,,,,,,,,,,,,,,,,,,,,,,,,,,,,,403.4132782460074,403.4132782460074,403.4132782460074,403.4132782460074,403.4132782460074,403.4132782460074,403.4132782460074,403.4132782460074,403.4132782460074,403.4132782460074,l,0.6800067249860149,1,265,1,404.12561104699853,405.62732709001284,,,,,,,,,,,,,,,,,,,,,,,,,,,,,,,,,,,,,,,,,,,,,,,,,,,,,,,,,,,,,,,,,,,,,,,,,,95243,2022-11-17_08h05.55.763,vts_reward_expectancy_bt_OFFLINE,2022.2.4,59.93543862033485,
1,0,0,0,0,0,1,0,triangle,hexagon,1,0,1,0,0,1,1,1,,,,,,,,,,,,,,,,,,,,,,,,,,,,,,,,,,,,,,,,406.1278895410069,406.1278895410069,406.1278895410069,406.1278895410069,406.1278895410069,406.1278895410069,406.1278895410069,406.1278895410069,406.1278895410069,406.1278895410069,a,0.2843611010175664,10,275,1,406.4450061620155,407.94652646101895,,,,,,,,,,,,,,,,,,,,,,,,,,,,,,,,,,,,,,,,,,,,,,,,,,,,,,,,,,,,,,,,,,,,,,,,,,95243,2022-11-17_08h05.55.763,vts_reward_expectancy_bt_OFFLINE,2022.2.4,59.93543862033485,
0,0,0,1,1,0,0,0,star,triangle,1,0,1,0,0,2,2,9,,,,,,,,,,,,,,,,,,,,,,,,,,,,,,,,,,,,,,,,408.4471639730036,408.4471639730036,408.4471639730036,408.4471639730036,408.4471639730036,408.4471639730036,408.4471639730036,408.4471639730036,408.4471639730036,408.4471639730036,a,0.40662525800871663,1,276,1,408.88103956601117,410.38243206002517,,,,,,,,,,,,,,,,,,,,,,,,,,,,,,,,,,,,,,,,,,,,,,,,,,,,,,,,,,,,,,,,,,,,,,,,,,95243,2022-11-17_08h05.55.763,vts_reward_expectancy_bt_OFFLINE,2022.2.4,59.93543862033485,
0,0,1,0,1,0,0,0,hexagon,triangle,1,0,1,0,0,3,3,6,,,,,,,,,,,,,,,,,,,,,,,,,,,,,,,,,,,,,,,,410.88298962902627,410.88298962902627,410.88298962902627,410.88298962902627,410.88298962902627,410.88298962902627,410.88298962902627,410.88298962902627,410.88298962902627,410.88298962902627,l,0.286291035998147,10,286,1,411.20003411502694,412.7016792510112,,,,,,,,,,,,,,,,,,,,,,,,,,,,,,,,,,,,,,,,,,,,,,,,,,,,,,,,,,,,,,,,,,,,,,,,,,95243,2022-11-17_08h05.55.763,vts_reward_expectancy_bt_OFFLINE,2022.2.4,59.93543862033485,
0,0,1,0,0,0,0,1,hexagon,star,1,0,1,0,0,4,4,8,,,,,,,,,,,,,,,,,,,,,,,,,,,,,,,,,,,,,,,,413.20247359600035,413.20247359600035,413.20247359600035,413.20247359600035,413.20247359600035,413.20247359600035,413.20247359600035,413.20247359600035,413.20247359600035,413.20247359600035,l,0.3189836449746508,1,287,1,413.5526200600143,415.05442013102584,,,,,,,,,,,,,,,,,,,,,,,,,,,,,,,,,,,,,,,,,,,,,,,,,,,,,,,,,,,,,,,,,,,,,,,,,,95243,2022-11-17_08h05.55.763,vts_reward_expectancy_bt_OFFLINE,2022.2.4,59.93543862033485,
0,1,0,0,0,0,0,1,circle,star,1,0,1,0,0,5,5,5,,,,,,,,,,,,,,,,,,,,,,,,,,,,,,,,,,,,,,,,415.55505795401405,415.55505795401405,415.55505795401405,415.55505795401405,415.55505795401405,415.55505795401405,415.55505795401405,415.55505795401405,415.55505795401405,415.55505795401405,a,0.2844678989786189,10,297,1,415.87192168901674,417.3735764270241,,,,,,,,,,,,,,,,,,,,,,,,,,,,,,,,,,,,,,,,,,,,,,,,,,,,,,,,,,,,,,,,,,,,,,,,,,95243,2022-11-17_08h05.55.763,vts_reward_expectancy_bt_OFFLINE,2022.2.4,59.93543862033485,
0,0,0,1,0,0,1,0,star,hexagon,1,0,1,0,0,6,6,11,,,,,,,,,,,,,,,,,,,,,,,,,,,,,,,,,,,,,,,,417.87415162601974,417.87415162601974,417.87415162601974,417.87415162601974,417.87415162601974,417.87415162601974,417.87415162601974,417.87415162601974,417.87415162601974,417.87415162601974,l,0.802090266981395,1,298,1,418.7084663429996,420.2099944280053,,,,,,,,,,,,,,,,,,,,,,,,,,,,,,,,,,,,,,,,,,,,,,,,,,,,,,,,,,,,,,,,,,,,,,,,,,95243,2022-11-17_08h05.55.763,vts_reward_expectancy_bt_OFFLINE,2022.2.4,59.93543862033485,
1,0,0,0,0,1,0,0,triangle,circle,1,0,1,0,0,7,7,0,,,,,,,,,,,,,,,,,,,,,,,,,,,,,,,,,,,,,,,,420.71046423501684,420.71046423501684,420.71046423501684,420.71046423501684,420.71046423501684,420.71046423501684,420.71046423501684,420.71046423501684,420.71046423501684,420.71046423501684,a,0.31606636397191323,10,308,1,421.04425249501946,422.5458617710101,422.5458617710101,,,,,,,,,,,,,,,,,,,,,,,,,,,,,,,,,,,,,,,,,,,,,,,,,,,,,,,,,,,,,,,,,,,,,,,,,95243,2022-11-17_08h05.55.763,vts_reward_expectancy_bt_OFFLINE,2022.2.4,59.93543862033485,
0,0,1,0,0,1,0,0,hexagon,circle,1,0,1,0,0,8,8,7,,,,,,,,,,,,,,,,,,,,,,,,,,,,,,,,,,,,,,,,423.0465148370131,423.0465148370131,423.0465148370131,423.0465148370131,423.0465148370131,423.0465148370131,423.0465148370131,423.0465148370131,423.0465148370131,423.0465148370131,l,0.27340487198671326,10,318,1,423.3467681800248,424.8486056480033,,,,,,,,,,,,,,,,,,,,,,,,,,,,,,,,,,,,,,,,,,,,,,,,,,,,,,,,,,,,,,,,,,,,,,,,,,95243,2022-11-17_08h05.55.763,vts_reward_expectancy_bt_OFFLINE,2022.2.4,59.93543862033485,
0,1,0,0,0,0,1,0,circle,hexagon,1,0,1,0,0,9,9,4,,,,,,,,,,,,,,,,,,,,,,,,,,,,,,,,,,,,,,,,425.3492021470156,425.3492021470156,425.3492021470156,425.3492021470156,425.3492021470156,425.3492021470156,425.3492021470156,425.3492021470156,425.3492021470156,425.3492021470156,l,0.4907713370048441,1,319,1,425.86633519802126,427.3679840560071,,,,,,,,,,,,,,,,,,,,,,,,,,,,,,,,,,,,,,,,,,,,,,,,,,,,,,,,,,,,,,,,,,,,,,,,,,95243,2022-11-17_08h05.55.763,vts_reward_expectancy_bt_OFFLINE,2022.2.4,59.93543862033485,
0,0,0,1,0,1,0,0,star ,circle,1,0,1,0,0,10,10,10,,,,,,,,,,,,,,,,,,,,,,,,,,,,,,,,,,,,,,,,427.8686115780147,427.8686115780147,427.8686115780147,427.8686115780147,427.8686115780147,427.8686115780147,427.8686115780147,427.8686115780147,427.8686115780147,427.8686115780147,a,0.30144050999660976,1,320,1,428.20217781700194,429.70372279401636,,,,,,,,,,,,,,,,,,,,,,,,,,,,,,,,,,,,,,,,,,,,,,,,,,,,,,,,,,,,,,,,,,,,,,,,,,95243,2022-11-17_08h05.55.763,vts_reward_expectancy_bt_OFFLINE,2022.2.4,59.93543862033485,
0,1,0,0,1,0,0,0,circle,triangle,1,0,1,0,0,11,11,3,,,,,,,,,,,,,,,,,,,,,,,,,,,,,,,,,,,,,,,,430.2045597390097,430.2045597390097,430.2045597390097,430.2045597390097,430.2045597390097,430.2045597390097,430.2045597390097,430.2045597390097,430.2045597390097,430.2045597390097,l,0.27094549298635684,10,330,1,430.5047471639991,432.0065477240132,,,,,,,,,,,,,,,,,,,,,,,,,,,,,,,,,,,,,,,,,,,,,,,,,,,,,,,,,,,,,,,,,,,,,,,,,,95243,2022-11-17_08h05.55.763,vts_reward_expectancy_bt_OFFLINE,2022.2.4,59.93543862033485,
0,0,0,1,0,1,0,0,star ,circle,1,0,1,0,1,0,12,10,,,,,,,,,,,,,,,,,,,,,,,,,,,,,,,,,,,,,,,,432.5071454580175,432.5071454580175,432.5071454580175,432.5071454580175,432.5071454580175,432.5071454580175,432.5071454580175,432.5071454580175,432.5071454580175,432.5071454580175,a,0.2641631839796901,10,340,1,432.7906303089985,434.292540844006,,,,,,,,,,,,,,,,,,,,,,,,,,,,,,,,,,,,,,,,,,,,,,,,,,,,,,,,,,,,,,,,,,,,,,,,,,95243,2022-11-17_08h05.55.763,vts_reward_expectancy_bt_OFFLINE,2022.2.4,59.93543862033485,
0,0,0,1,1,0,0,0,star,triangle,1,0,1,0,1,1,13,9,,,,,,,,,,,,,,,,,,,,,,,,,,,,,,,,,,,,,,,,434.7927591110056,434.7927591110056,434.7927591110056,434.7927591110056,434.7927591110056,434.7927591110056,434.7927591110056,434.7927591110056,434.7927591110056,434.7927591110056,l,0.26213387498864904,10,350,1,435.07670482600224,436.578075508005,,,,,,,,,,,,,,,,,,,,,,,,,,,,,,,,,,,,,,,,,,,,,,,,,,,,,,,,,,,,,,,,,,,,,,,,,,95243,2022-11-17_08h05.55.763,vts_reward_expectancy_bt_OFFLINE,2022.2.4,59.93543862033485,
0,0,1,0,0,1,0,0,hexagon,circle,1,0,1,0,1,2,14,7,,,,,,,,,,,,,,,,,,,,,,,,,,,,,,,,,,,,,,,,437.0787697250198,437.0787697250198,437.0787697250198,437.0787697250198,437.0787697250198,437.0787697250198,437.0787697250198,437.0787697250198,437.0787697250198,437.0787697250198,a,0.28419639900675975,1,351,1,437.37902112002485,438.8806603690027,438.8806603690027,,,,,,,,,,,,,,,,,,,,,,,,,,,,,,,,,,,,,,,,,,,,,,,,,,,,,,,,,,,,,,,,,,,,,,,,,95243,2022-11-17_08h05.55.763,vts_reward_expectancy_bt_OFFLINE,2022.2.4,59.93543862033485,
0,0,0,1,0,0,1,0,star,hexagon,1,0,1,0,1,3,15,11,,,,,,,,,,,,,,,,,,,,,,,,,,,,,,,,,,,,,,,,439.3810857050121,439.3810857050121,439.3810857050121,439.3810857050121,439.3810857050121,439.3810857050121,439.3810857050121,439.3810857050121,439.3810857050121,439.3810857050121,l,0.28637512898421846,10,361,1,439.6983331940137,441.1998641840182,,,,,,,,,,,,,,,,,,,,,,,,,,,,,,,,,,,,,,,,,,,,,,,,,,,,,,,,,,,,,,,,,,,,,,,,,,95243,2022-11-17_08h05.55.763,vts_reward_expectancy_bt_OFFLINE,2022.2.4,59.93543862033485,
1,0,0,0,0,1,0,0,triangle,circle,1,0,1,0,1,4,16,0,,,,,,,,,,,,,,,,,,,,,,,,,,,,,,,,,,,,,,,,441.700621401018,441.700621401018,441.700621401018,441.700621401018,441.700621401018,441.700621401018,441.700621401018,441.700621401018,441.700621401018,441.700621401018,a,0.2515733389882371,10,371,1,441.98406535500544,443.485703828017,,,,,,,,,,,,,,,,,,,,,,,,,,,,,,,,,,,,,,,,,,,,,,,,,,,,,,,,,,,,,,,,,,,,,,,,,,95243,2022-11-17_08h05.55.763,vts_reward_expectancy_bt_OFFLINE,2022.2.4,59.93543862033485,
1,0,0,0,0,0,0,1,triangle,star,1,0,1,0,1,5,17,2,,,,,,,,,,,,,,,,,,,,,,,,,,,,,,,,,,,,,,,,443.98619115701877,443.98619115701877,443.98619115701877,443.98619115701877,443.98619115701877,443.98619115701877,443.98619115701877,443.98619115701877,443.98619115701877,443.98619115701877,l,0.2595539540052414,1,372,1,444.2699122110207,445.77159234602004,,,,,,,,,,,,,,,,,,,,,,,,,,,,,,,,,,,,,,,,,,,,,,,,,,,,,,,,,,,,,,,,,,,,,,,,,,95243,2022-11-17_08h05.55.763,vts_reward_expectancy_bt_OFFLINE,2022.2.4,59.93543862033485,
0,1,0,0,0,0,0,1,circle,star,1,0,1,0,1,6,18,5,,,,,,,,,,,,,,,,,,,,,,,,,,,,,,,,,,,,,,,,446.2719757750165,446.2719757750165,446.2719757750165,446.2719757750165,446.2719757750165,446.2719757750165,446.2719757750165,446.2719757750165,446.2719757750165,446.2719757750165,a,0.24760694298311137,1,373,1,446.5391052800114,448.0408066570235,,,,,,,,,,,,,,,,,,,,,,,,,,,,,,,,,,,,,,,,,,,,,,,,,,,,,,,,,,,,,,,,,,,,,,,,,,95243,2022-11-17_08h05.55.763,vts_reward_expectancy_bt_OFFLINE,2022.2.4,59.93543862033485,
1,0,0,0,0,0,1,0,triangle,hexagon,1,0,1,0,1,7,19,1,,,,,,,,,,,,,,,,,,,,,,,,,,,,,,,,,,,,,,,,448.54123512402293,448.54123512402293,448.54123512402293,448.54123512402293,448.54123512402293,448.54123512402293,448.54123512402293,448.54123512402293,448.54123512402293,448.54123512402293,l,0.18459910398814827,10,383,1,448.75811696701567,450.2598186880059,,,,,,,,,,,,,,,,,,,,,,,,,,,,,,,,,,,,,,,,,,,,,,,,,,,,,,,,,,,,,,,,,,,,,,,,,,95243,2022-11-17_08h05.55.763,vts_reward_expectancy_bt_OFFLINE,2022.2.4,59.93543862033485,
0,1,0,0,0,0,1,0,circle,hexagon,1,0,1,0,1,8,20,4,,,,,,,,,,,,,,,,,,,,,,,,,,,,,,,,,,,,,,,,450.7604316120269,450.7604316120269,450.7604316120269,450.7604316120269,450.7604316120269,450.7604316120269,450.7604316120269,450.7604316120269,450.7604316120269,450.7604316120269,l,0.2579193229903467,1,384,1,451.04414982002345,452.54570027801674,,,,,,,,,,,,,,,,,,,,,,,,,,,,,,,,,,,,,,,,,,,,,,,,,,,,,,,,,,,,,,,,,,,,,,,,,,95243,2022-11-17_08h05.55.763,vts_reward_expectancy_bt_OFFLINE,2022.2.4,59.93543862033485,
0,0,1,0,0,0,0,1,hexagon,star,1,0,1,0,1,9,21,8,,,,,,,,,,,,,,,,,,,,,,,,,,,,,,,,,,,,,,,,453.04617430001963,453.04617430001963,453.04617430001963,453.04617430001963,453.04617430001963,453.04617430001963,453.04617430001963,453.04617430001963,453.04617430001963,453.04617430001963,a,0.5149697519955225,1,385,1,453.58032287700917,455.08192699501524,455.08192699501524,,,,,,,,,,,,,,,,,,,,,,,,,,,,,,,,,,,,,,,,,,,,,,,,,,,,,,,,,,,,,,,,,,,,,,,,,95243,2022-11-17_08h05.55.763,vts_reward_expectancy_bt_OFFLINE,2022.2.4,59.93543862033485,
0,1,0,0,1,0,0,0,circle,triangle,1,0,1,0,1,10,22,3,,,,,,,,,,,,,,,,,,,,,,,,,,,,,,,,,,,,,,,,455.5823712210113,455.5823712210113,455.5823712210113,455.5823712210113,455.5823712210113,455.5823712210113,455.5823712210113,455.5823712210113,455.5823712210113,455.5823712210113,l,0.2404517579707317,10,395,1,455.8492591670074,457.3510566930054,,,,,,,,,,,,,,,,,,,,,,,,,,,,,,,,,,,,,,,,,,,,,,,,,,,,,,,,,,,,,,,,,,,,,,,,,,95243,2022-11-17_08h05.55.763,vts_reward_expectancy_bt_OFFLINE,2022.2.4,59.93543862033485,
0,0,1,0,1,0,0,0,hexagon,triangle,1,0,1,0,1,11,23,6,,,,,,,,,,,,,,,,,,,,,,,,,,,,,,,,,,,,,,,,457.85159183401265,457.85159183401265,457.85159183401265,457.85159183401265,457.85159183401265,457.85159183401265,457.85159183401265,457.85159183401265,457.85159183401265,457.85159183401265,l,0.26764952699886635,10,405,1,458.1518505720014,459.65352528801304,,,,,,,,,,,,,,,,,,,,,,,,,,,,,,,,,,,,,,,,,,,,,,,,,,,,,,,,,,,,,,,,,,,,,,,,,,95243,2022-11-17_08h05.55.763,vts_reward_expectancy_bt_OFFLINE,2022.2.4,59.93543862033485,
0,0,1,0,0,0,0,1,hexagon,star,1,0,1,0,2,0,24,8,,,,,,,,,,,,,,,,,,,,,,,,,,,,,,,,,,,,,,,,460.1543641760072,460.1543641760072,460.1543641760072,460.1543641760072,460.1543641760072,460.1543641760072,460.1543641760072,460.1543641760072,460.1543641760072,460.1543641760072,l,0.30279339000117034,1,406,1,460.488001471007,461.9895080430142,,,,,,,,,,,,,,,,,,,,,,,,,,,,,,,,,,,,,,,,,,,,,,,,,,,,,,,,,,,,,,,,,,,,,,,,,,95243,2022-11-17_08h05.55.763,vts_reward_expectancy_bt_OFFLINE,2022.2.4,59.93543862033485,
0,0,1,0,0,1,0,0,hexagon,circle,1,0,1,0,2,1,25,7,,,,,,,,,,,,,,,,,,,,,,,,,,,,,,,,,,,,,,,,462.4902303450217,462.4902303450217,462.4902303450217,462.4902303450217,462.4902303450217,462.4902303450217,462.4902303450217,462.4902303450217,462.4902303450217,462.4902303450217,l,0.25142288199276663,10,416,1,462.77375018701423,464.2753287470259,,,,,,,,,,,,,,,,,,,,,,,,,,,,,,,,,,,,,,,,,,,,,,,,,,,,,,,,,,,,,,,,,,,,,,,,,,95243,2022-11-17_08h05.55.763,vts_reward_expectancy_bt_OFFLINE,2022.2.4,59.93543862033485,
0,1,0,0,0,0,0,1,circle,star,1,0,1,0,2,2,26,5,,,,,,,,,,,,,,,,,,,,,,,,,,,,,,,,,,,,,,,,464.7757239010243,464.7757239010243,464.7757239010243,464.7757239010243,464.7757239010243,464.7757239010243,464.7757239010243,464.7757239010243,464.7757239010243,464.7757239010243,l,0.21759361200383864,1,417,1,465.0093811600236,466.51088504400104,466.51088504400104,,,,,,,,,,,,,,,,,,,,,,,,,,,,,,,,,,,,,,,,,,,,,,,,,,,,,,,,,,,,,,,,,,,,,,,,,95243,2022-11-17_08h05.55.763,vts_reward_expectancy_bt_OFFLINE,2022.2.4,59.93543862033485,
0,0,0,1,1,0,0,0,star,triangle,1,0,1,0,2,3,27,9,,,,,,,,,,,,,,,,,,,,,,,,,,,,,,,,,,,,,,,,467.0117022940249,467.0117022940249,467.0117022940249,467.0117022940249,467.0117022940249,467.0117022940249,467.0117022940249,467.0117022940249,467.0117022940249,467.0117022940249,a,0.27565752499504015,1,418,1,467.3117862060026,468.8135468290129,,,,,,,,,,,,,,,,,,,,,,,,,,,,,,,,,,,,,,,,,,,,,,,,,,,,,,,,,,,,,,,,,,,,,,,,,,95243,2022-11-17_08h05.55.763,vts_reward_expectancy_bt_OFFLINE,2022.2.4,59.93543862033485,
1,0,0,0,0,0,0,1,triangle,star,1,0,1,0,2,4,28,2,,,,,,,,,,,,,,,,,,,,,,,,,,,,,,,,,,,,,,,,469.3141526710242,469.3141526710242,469.3141526710242,469.3141526710242,469.3141526710242,469.3141526710242,469.3141526710242,469.3141526710242,469.3141526710242,469.3141526710242,l,0.24539930300670676,1,419,1,469.58123672401416,471.0828081840009,,,,,,,,,,,,,,,,,,,,,,,,,,,,,,,,,,,,,,,,,,,,,,,,,,,,,,,,,,,,,,,,,,,,,,,,,,95243,2022-11-17_08h05.55.763,vts_reward_expectancy_bt_OFFLINE,2022.2.4,59.93543862033485,
1,0,0,0,0,1,0,0,triangle,circle,1,0,1,0,2,5,29,0,,,,,,,,,,,,,,,,,,,,,,,,,,,,,,,,,,,,,,,,471.58344476899947,471.58344476899947,471.58344476899947,471.58344476899947,471.58344476899947,471.58344476899947,471.58344476899947,471.58344476899947,471.58344476899947,471.58344476899947,a,0.2844285619794391,10,429,1,471.90032112400513,473.4019601830223,,,,,,,,,,,,,,,,,,,,,,,,,,,,,,,,,,,,,,,,,,,,,,,,,,,,,,,,,,,,,,,,,,,,,,,,,,95243,2022-11-17_08h05.55.763,vts_reward_expectancy_bt_OFFLINE,2022.2.4,59.93543862033485,
0,1,0,0,1,0,0,0,circle,triangle,1,0,1,0,2,6,30,3,,,,,,,,,,,,,,,,,,,,,,,,,,,,,,,,,,,,,,,,473.90272616702714,473.90272616702714,473.90272616702714,473.90272616702714,473.90272616702714,473.90272616702714,473.90272616702714,473.90272616702714,473.90272616702714,473.90272616702714,l,0.34883102599997073,10,439,1,474.26985592601704,475.771401644015,475.771401644015,,,,,,,,,,,,,,,,,,,,,,,,,,,,,,,,,,,,,,,,,,,,,,,,,,,,,,,,,,,,,,,,,,,,,,,,,95243,2022-11-17_08h05.55.763,vts_reward_expectancy_bt_OFFLINE,2022.2.4,59.93543862033485,
0,0,0,1,0,1,0,0,star ,circle,1,0,1,0,2,7,31,10,,,,,,,,,,,,,,,,,,,,,,,,,,,,,,,,,,,,,,,,476.27185390502564,476.27185390502564,476.27185390502564,476.27185390502564,476.27185390502564,476.27185390502564,476.27185390502564,476.27185390502564,476.27185390502564,476.27185390502564,a,0.25168767099967226,10,449,1,476.5557376750221,478.0571893590095,,,,,,,,,,,,,,,,,,,,,,,,,,,,,,,,,,,,,,,,,,,,,,,,,,,,,,,,,,,,,,,,,,,,,,,,,,95243,2022-11-17_08h05.55.763,vts_reward_expectancy_bt_OFFLINE,2022.2.4,59.93543862033485,
0,0,1,0,1,0,0,0,hexagon,triangle,1,0,1,0,2,8,32,6,,,,,,,,,,,,,,,,,,,,,,,,,,,,,,,,,,,,,,,,478.55822482402436,478.55822482402436,478.55822482402436,478.55822482402436,478.55822482402436,478.55822482402436,478.55822482402436,478.55822482402436,478.55822482402436,478.55822482402436,l,0.06840114199439995,10,459,1,478.65783529900364,480.1594265140011,,,,,,,,,,,,,,,,,,,,,,,,,,,,,,,,,,,,,,,,,,,,,,,,,,,,,,,,,,,,,,,,,,,,,,,,,,95243,2022-11-17_08h05.55.763,vts_reward_expectancy_bt_OFFLINE,2022.2.4,59.93543862033485,
1,0,0,0,0,0,1,0,triangle,hexagon,1,0,1,0,2,9,33,1,,,,,,,,,,,,,,,,,,,,,,,,,,,,,,,,,,,,,,,,480.66000449602143,480.66000449602143,480.66000449602143,480.66000449602143,480.66000449602143,480.66000449602143,480.66000449602143,480.66000449602143,480.66000449602143,480.66000449602143,a,0.31915931598632596,10,469,1,481.010322119022,482.5120821330056,,,,,,,,,,,,,,,,,,,,,,,,,,,,,,,,,,,,,,,,,,,,,,,,,,,,,,,,,,,,,,,,,,,,,,,,,,95243,2022-11-17_08h05.55.763,vts_reward_expectancy_bt_OFFLINE,2022.2.4,59.93543862033485,
0,1,0,0,0,0,1,0,circle,hexagon,1,0,1,0,2,10,34,4,,,,,,,,,,,,,,,,,,,,,,,,,,,,,,,,,,,,,,,,483.0127620980202,483.0127620980202,483.0127620980202,483.0127620980202,483.0127620980202,483.0127620980202,483.0127620980202,483.0127620980202,483.0127620980202,483.0127620980202,l,0.02450996800325811,1,470,1,483.0627262760245,484.56460820202483,,,,,,,,,,,,,,,,,,,,,,,,,,,,,,,,,,,,,,,,,,,,,,,,,,,,,,,,,,,,,,,,,,,,,,,,,,95243,2022-11-17_08h05.55.763,vts_reward_expectancy_bt_OFFLINE,2022.2.4,59.93543862033485,
0,0,0,1,0,0,1,0,star,hexagon,1,0,1,0,2,11,35,11,,,,,,,,,,,,,,,,,,,,,,,,,,,,,,,,,,,,,,,,485.06491887100856,485.06491887100856,485.06491887100856,485.06491887100856,485.06491887100856,485.06491887100856,485.06491887100856,485.06491887100856,485.06491887100856,485.06491887100856,a,0.2682059849903453,10,480,1,485.3652431780065,486.86689576800563,,487.3660613770189,,,,,,,,,,,,,,,,,,,,,,,,,,,,,,,,,,,,,,,,,,,,,,,,,,,,,,,,,,,,,,,,,,,,,,,,95243,2022-11-17_08h05.55.763,vts_reward_expectancy_bt_OFFLINE,2022.2.4,59.93543862033485,
0,0,0,1,1,0,0,0,star,triangle,1,0,1,0,3,0,36,9,,,,,,,,,,,,,,,,,,,,,,,,,,,,,,,,,,,,,,,,487.3660613770189,487.3660613770189,487.3660613770189,487.3660613770189,487.3660613770189,487.3660613770189,487.3660613770189,487.3660613770189,487.3660613770189,487.3660613770189,l,0.2384276530065108,10,490,1,487.63298530501197,489.13637985801324,,,,,,,,,,,,,,,,,,,,,,,,,,,,,,,,,,,,,,,,,,,,,,,,,,,,,,,,,,,,,,,,,,,,,,,,,,95243,2022-11-17_08h05.55.763,vts_reward_expectancy_bt_OFFLINE,2022.2.4,59.93543862033485,
1,0,0,0,0,1,0,0,triangle,circle,1,0,1,0,3,1,37,0,,,,,,,,,,,,,,,,,,,,,,,,,,,,,,,,,,,,,,,,489.6366729680158,489.6366729680158,489.6366729680158,489.6366729680158,489.6366729680158,489.6366729680158,489.6366729680158,489.6366729680158,489.6366729680158,489.6366729680158,a,0.4888744449999649,10,500,1,490.1540239130263,491.65561051800614,,,,,,,,,,,,,,,,,,,,,,,,,,,,,,,,,,,,,,,,,,,,,,,,,,,,,,,,,,,,,,,,,,,,,,,,,,95243,2022-11-17_08h05.55.763,vts_reward_expectancy_bt_OFFLINE,2022.2.4,59.93543862033485,
0,0,1,0,0,1,0,0,hexagon,circle,1,0,1,0,3,2,38,7,,,,,,,,,,,,,,,,,,,,,,,,,,,,,,,,,,,,,,,,492.1561398040212,492.1561398040212,492.1561398040212,492.1561398040212,492.1561398040212,492.1561398040212,492.1561398040212,492.1561398040212,492.1561398040212,492.1561398040212,l,1.0194594850181602,10,510,1,493.20714906801004,494.7089708970161,,,,,,,,,,,,,,,,,,,,,,,,,,,,,,,,,,,,,,,,,,,,,,,,,,,,,,,,,,,,,,,,,,,,,,,,,,95243,2022-11-17_08h05.55.763,vts_reward_expectancy_bt_OFFLINE,2022.2.4,59.93543862033485,
0,0,1,0,0,0,0,1,hexagon,star,1,0,1,0,3,3,39,8,,,,,,,,,,,,,,,,,,,,,,,,,,,,,,,,,,,,,,,,495.20945357801975,495.20945357801975,495.20945357801975,495.20945357801975,495.20945357801975,495.20945357801975,495.20945357801975,495.20945357801975,495.20945357801975,495.20945357801975,a,0.22578646300826222,10,520,1,495.4599564440141,496.9613508930197,,,,,,,,,,,,,,,,,,,,,,,,,,,,,,,,,,,,,,,,,,,,,,,,,,,,,,,,,,,,,,,,,,,,,,,,,,95243,2022-11-17_08h05.55.763,vts_reward_expectancy_bt_OFFLINE,2022.2.4,59.93543862033485,
0,1,0,0,1,0,0,0,circle,triangle,1,0,1,0,3,4,40,3,,,,,,,,,,,,,,,,,,,,,,,,,,,,,,,,,,,,,,,,497.4620707310096,497.4620707310096,497.4620707310096,497.4620707310096,497.4620707310096,497.4620707310096,497.4620707310096,497.4620707310096,497.4620707310096,497.4620707310096,a,0.26870269898790866,1,521,1,497.76233215801767,499.26380295402487,,,,,,,,,,,,,,,,,,,,,,,,,,,,,,,,,,,,,,,,,,,,,,,,,,,,,,,,,,,,,,,,,,,,,,,,,,95243,2022-11-17_08h05.55.763,vts_reward_expectancy_bt_OFFLINE,2022.2.4,59.93543862033485,
0,0,1,0,1,0,0,0,hexagon,triangle,1,0,1,0,3,5,41,6,,,,,,,,,,,,,,,,,,,,,,,,,,,,,,,,,,,,,,,,499.764358386019,499.764358386019,499.764358386019,499.764358386019,499.764358386019,499.764358386019,499.764358386019,499.764358386019,499.764358386019,499.764358386019,l,0.33985336098703556,10,531,1,500.13154115501675,501.6332362660032,,,,,,,,,,,,,,,,,,,,,,,,,,,,,,,,,,,,,,,,,,,,,,,,,,,,,,,,,,,,,,,,,,,,,,,,,,95243,2022-11-17_08h05.55.763,vts_reward_expectancy_bt_OFFLINE,2022.2.4,59.93543862033485,
1,0,0,0,0,0,0,1,triangle,star,1,0,1,0,3,6,42,2,,,,,,,,,,,,,,,,,,,,,,,,,,,,,,,,,,,,,,,,502.1338056200184,502.1338056200184,502.1338056200184,502.1338056200184,502.1338056200184,502.1338056200184,502.1338056200184,502.1338056200184,502.1338056200184,502.1338056200184,l,0.288389540015487,1,532,1,502.4506544190226,503.9525125560176,,,,,,,,,,,,,,,,,,,,,,,,,,,,,,,,,,,,,,,,,,,,,,,,,,,,,,,,,,,,,,,,,,,,,,,,,,95243,2022-11-17_08h05.55.763,vts_reward_expectancy_bt_OFFLINE,2022.2.4,59.93543862033485,
1,0,0,0,0,0,1,0,triangle,hexagon,1,0,1,0,3,7,43,1,,,,,,,,,,,,,,,,,,,,,,,,,,,,,,,,,,,,,,,,504.4528793300269,504.4528793300269,504.4528793300269,504.4528793300269,504.4528793300269,504.4528793300269,504.4528793300269,504.4528793300269,504.4528793300269,504.4528793300269,a,0.43484555699978955,10,542,1,504.9202198910061,506.4218389810121,,,,,,,,,,,,,,,,,,,,,,,,,,,,,,,,,,,,,,,,,,,,,,,,,,,,,,,,,,,,,,,,,,,,,,,,,,95243,2022-11-17_08h05.55.763,vts_reward_expectancy_bt_OFFLINE,2022.2.4,59.93543862033485,
0,1,0,0,0,0,1,0,circle,hexagon,1,0,1,0,3,8,44,4,,,,,,,,,,,,,,,,,,,,,,,,,,,,,,,,,,,,,,,,506.92232037801296,506.92232037801296,506.92232037801296,506.92232037801296,506.92232037801296,506.92232037801296,506.92232037801296,506.92232037801296,506.92232037801296,506.92232037801296,l,0.6626313269953243,1,543,1,507.60674463401665,509.10806104101357,,,,,,,,,,,,,,,,,,,,,,,,,,,,,,,,,,,,,,,,,,,,,,,,,,,,,,,,,,,,,,,,,,,,,,,,,,95243,2022-11-17_08h05.55.763,vts_reward_expectancy_bt_OFFLINE,2022.2.4,59.93543862033485,
0,0,0,1,0,1,0,0,star ,circle,1,0,1,0,3,9,45,10,,,,,,,,,,,,,,,,,,,,,,,,,,,,,,,,,,,,,,,,509.60865022300277,509.60865022300277,509.60865022300277,509.60865022300277,509.60865022300277,509.60865022300277,509.60865022300277,509.60865022300277,509.60865022300277,509.60865022300277,a,0.28441272900090553,1,544,1,509.92587676801486,511.42738979001297,,,,,,,,,,,,,,,,,,,,,,,,,,,,,,,,,,,,,,,,,,,,,,,,,,,,,,,,,,,,,,,,,,,,,,,,,,95243,2022-11-17_08h05.55.763,vts_reward_expectancy_bt_OFFLINE,2022.2.4,59.93543862033485,
0,0,0,1,0,0,1,0,star,hexagon,1,0,1,0,3,10,46,11,,,,,,,,,,,,,,,,,,,,,,,,,,,,,,,,,,,,,,,,511.9282174660184,511.9282174660184,511.9282174660184,511.9282174660184,511.9282174660184,511.9282174660184,511.9282174660184,511.9282174660184,511.9282174660184,511.9282174660184,l,0.37241714700940065,10,554,1,512.3282955480099,513.830059527012,,,,,,,,,,,,,,,,,,,,,,,,,,,,,,,,,,,,,,,,,,,,,,,,,,,,,,,,,,,,,,,,,,,,,,,,,,95243,2022-11-17_08h05.55.763,vts_reward_expectancy_bt_OFFLINE,2022.2.4,59.93543862033485,
0,1,0,0,0,0,0,1,circle,star,1,0,1,0,3,11,47,5,,,,,,,,,,,,,,,,,,,,,,,,,,,,,,,,,,,,,,,,514.3305386160209,514.3305386160209,514.3305386160209,514.3305386160209,514.3305386160209,514.3305386160209,514.3305386160209,514.3305386160209,514.3305386160209,514.3305386160209,a,0.4896183159726206,1,555,1,514.8478553180175,516.3495139430161,,,,,,,,,,,,,,,,,,,,,,,,,,,,,,,,,,,,,,,,,,,,,,,,,,,,,,,,,,,,,,,,,,,,,,,,,,95243,2022-11-17_08h05.55.763,vts_reward_expectancy_bt_OFFLINE,2022.2.4,59.93543862033485,
1,0,0,0,0,0,0,1,triangle,star,2,0,2,0,0,0,0,2,,,,,,,,,,,,,,,,,,,,,,,,,,,,,,,,,,,,,,,,518.8744981220225,518.8744981220225,518.8744981220225,518.8744981220225,518.8744981220225,518.8744981220225,518.8744981220225,518.8744981220225,518.8744981220225,518.8744981220225,l,0.4125958590011578,1,556,2,519.3198880840209,520.82109154301,,,,,,,,,,,,,,,,,,,,,,,,,,,,,,,,,,,,,,,,,,,,,,,,,,,,,,,,,,,,,,,,,,,,,,,,,,95243,2022-11-17_08h05.55.763,vts_reward_expectancy_bt_OFFLINE,2022.2.4,59.93543862033485,
0,1,0,0,0,0,1,0,circle,hexagon,2,0,2,0,0,1,1,4,,,,,,,,,,,,,,,,,,,,,,,,,,,,,,,,,,,,,,,,521.3216713590082,521.3216713590082,521.3216713590082,521.3216713590082,521.3216713590082,521.3216713590082,521.3216713590082,521.3216713590082,521.3216713590082,521.3216713590082,a,0.13538158498704433,10,566,2,521.488366206002,522.9900928840216,,,,,,,,,,,,,,,,,,,,,,,,,,,,,,,,,,,,,,,,,,,,,,,,,,,,,,,,,,,,,,,,,,,,,,,,,,95243,2022-11-17_08h05.55.763,vts_reward_expectancy_bt_OFFLINE,2022.2.4,59.93543862033485,
0,1,0,0,1,0,0,0,circle,triangle,2,0,2,0,0,2,2,3,,,,,,,,,,,,,,,,,,,,,,,,,,,,,,,,,,,,,,,,523.4905783980212,523.4905783980212,523.4905783980212,523.4905783980212,523.4905783980212,523.4905783980212,523.4905783980212,523.4905783980212,523.4905783980212,523.4905783980212,l,0.1843225449847523,10,576,2,523.7075653340144,525.2090775390097,,,,,,,,,,,,,,,,,,,,,,,,,,,,,,,,,,,,,,,,,,,,,,,,,,,,,,,,,,,,,,,,,,,,,,,,,,95243,2022-11-17_08h05.55.763,vts_reward_expectancy_bt_OFFLINE,2022.2.4,59.93543862033485,
0,0,0,1,1,0,0,0,star,triangle,2,0,2,0,0,3,3,9,,,,,,,,,,,,,,,,,,,,,,,,,,,,,,,,,,,,,,,,525.709647353011,525.709647353011,525.709647353011,525.709647353011,525.709647353011,525.709647353011,525.709647353011,525.709647353011,525.709647353011,525.709647353011,l,0.24804913898697123,10,586,2,525.9766901330149,527.4782217780012,,,,,,,,,,,,,,,,,,,,,,,,,,,,,,,,,,,,,,,,,,,,,,,,,,,,,,,,,,,,,,,,,,,,,,,,,,95243,2022-11-17_08h05.55.763,vts_reward_expectancy_bt_OFFLINE,2022.2.4,59.93543862033485,
0,0,1,0,0,0,0,1,hexagon,star,2,0,2,0,0,4,4,8,,,,,,,,,,,,,,,,,,,,,,,,,,,,,,,,,,,,,,,,527.9788630660041,527.9788630660041,527.9788630660041,527.9788630660041,527.9788630660041,527.9788630660041,527.9788630660041,527.9788630660041,527.9788630660041,527.9788630660041,l,0.2524015000090003,10,596,2,528.2625763530086,529.764628658013,,,,,,,,,,,,,,,,,,,,,,,,,,,,,,,,,,,,,,,,,,,,,,,,,,,,,,,,,,,,,,,,,,,,,,,,,,95243,2022-11-17_08h05.55.763,vts_reward_expectancy_bt_OFFLINE,2022.2.4,59.93543862033485,
1,0,0,0,0,1,0,0,triangle,circle,2,0,2,0,0,5,5,0,,,,,,,,,,,,,,,,,,,,,,,,,,,,,,,,,,,,,,,,530.2648818599992,530.2648818599992,530.2648818599992,530.2648818599992,530.2648818599992,530.2648818599992,530.2648818599992,530.2648818599992,530.2648818599992,530.2648818599992,l,0.3609259859949816,10,606,2,530.6487274940009,532.1502382650215,,,,,,,,,,,,,,,,,,,,,,,,,,,,,,,,,,,,,,,,,,,,,,,,,,,,,,,,,,,,,,,,,,,,,,,,,,95243,2022-11-17_08h05.55.763,vts_reward_expectancy_bt_OFFLINE,2022.2.4,59.93543862033485,
0,0,0,1,0,0,1,0,star,hexagon,2,0,2,0,0,6,6,11,,,,,,,,,,,,,,,,,,,,,,,,,,,,,,,,,,,,,,,,532.6500527099997,532.6500527099997,532.6500527099997,532.6500527099997,532.6500527099997,532.6500527099997,532.6500527099997,532.6500527099997,532.6500527099997,532.6500527099997,l,0.24849398600053973,10,616,2,532.9180766490172,534.4182262580143,534.4182262580143,,,,,,,,,,,,,,,,,,,,,,,,,,,,,,,,,,,,,,,,,,,,,,,,,,,,,,,,,,,,,,,,,,,,,,,,,95243,2022-11-17_08h05.55.763,vts_reward_expectancy_bt_OFFLINE,2022.2.4,59.93543862033485,
1,0,0,0,0,0,1,0,triangle,hexagon,2,0,2,0,0,7,7,1,,,,,,,,,,,,,,,,,,,,,,,,,,,,,,,,,,,,,,,,534.920087150007,534.920087150007,534.920087150007,534.920087150007,534.920087150007,534.920087150007,534.920087150007,534.920087150007,534.920087150007,534.920087150007,l,0.23970014200313017,1,617,2,535.186944147019,536.688640050008,,,,,,,,,,,,,,,,,,,,,,,,,,,,,,,,,,,,,,,,,,,,,,,,,,,,,,,,,,,,,,,,,,,,,,,,,,95243,2022-11-17_08h05.55.763,vts_reward_expectancy_bt_OFFLINE,2022.2.4,59.93543862033485,
0,0,0,1,0,1,0,0,star ,circle,2,0,2,0,0,8,8,10,,,,,,,,,,,,,,,,,,,,,,,,,,,,,,,,,,,,,,,,537.1891333770182,537.1891333770182,537.1891333770182,537.1891333770182,537.1891333770182,537.1891333770182,537.1891333770182,537.1891333770182,537.1891333770182,537.1891333770182,a,0.41262490398366936,1,618,2,537.6229199110239,539.1245887560071,,,,,,,,,,,,,,,,,,,,,,,,,,,,,,,,,,,,,,,,,,,,,,,,,,,,,,,,,,,,,,,,,,,,,,,,,,95243,2022-11-17_08h05.55.763,vts_reward_expectancy_bt_OFFLINE,2022.2.4,59.93543862033485,
0,0,1,0,0,1,0,0,hexagon,circle,2,0,2,0,0,9,9,7,,,,,,,,,,,,,,,,,,,,,,,,,,,,,,,,,,,,,,,,539.6251701400033,539.6251701400033,539.6251701400033,539.6251701400033,539.6251701400033,539.6251701400033,539.6251701400033,539.6251701400033,539.6251701400033,539.6251701400033,a,0.0010170890018343925,1,619,2,539.6583568830101,541.1601031220052,,,,,,,,,,,,,,,,,,,,,,,,,,,,,,,,,,,,,,,,,,,,,,,,,,,,,,,,,,,,,,,,,,,,,,,,,,95243,2022-11-17_08h05.55.763,vts_reward_expectancy_bt_OFFLINE,2022.2.4,59.93543862033485,
0,1,0,0,0,0,0,1,circle,star,2,0,2,0,0,10,10,5,,,,,,,,,,,,,,,,,,,,,,,,,,,,,,,,,,,,,,,,541.6607124520233,541.6607124520233,541.6607124520233,541.6607124520233,541.6607124520233,541.6607124520233,541.6607124520233,541.6607124520233,541.6607124520233,541.6607124520233,a,0.6091325020242948,1,620,2,542.2947070090158,543.7962290970027,,,,,,,,,,,,,,,,,,,,,,,,,,,,,,,,,,,,,,,,,,,,,,,,,,,,,,,,,,,,,,,,,,,,,,,,,,95243,2022-11-17_08h05.55.763,vts_reward_expectancy_bt_OFFLINE,2022.2.4,59.93543862033485,
0,0,1,0,1,0,0,0,hexagon,triangle,2,0,2,0,0,11,11,6,,,,,,,,,,,,,,,,,,,,,,,,,,,,,,,,,,,,,,,,544.2970343820052,544.2970343820052,544.2970343820052,544.2970343820052,544.2970343820052,544.2970343820052,544.2970343820052,544.2970343820052,544.2970343820052,544.2970343820052,a,0.3016792419948615,1,621,2,544.6305825980089,546.1323368500161,,,,,,,,,,,,,,,,,,,,,,,,,,,,,,,,,,,,,,,,,,,,,,,,,,,,,,,,,,,,,,,,,,,,,,,,,,95243,2022-11-17_08h05.55.763,vts_reward_expectancy_bt_OFFLINE,2022.2.4,59.93543862033485,
0,1,0,0,0,0,1,0,circle,hexagon,2,0,2,0,1,0,12,4,,,,,,,,,,,,,,,,,,,,,,,,,,,,,,,,,,,,,,,,546.6330089080147,546.6330089080147,546.6330089080147,546.6330089080147,546.6330089080147,546.6330089080147,546.6330089080147,546.6330089080147,546.6330089080147,546.6330089080147,a,0.29566887201508507,10,631,2,546.9499975050276,548.4514759090089,,,,,,,,,,,,,,,,,,,,,,,,,,,,,,,,,,,,,,,,,,,,,,,,,,,,,,,,,,,,,,,,,,,,,,,,,,95243,2022-11-17_08h05.55.763,vts_reward_expectancy_bt_OFFLINE,2022.2.4,59.93543862033485,
0,0,0,1,0,1,0,0,star ,circle,2,0,2,0,1,1,13,10,,,,,,,,,,,,,,,,,,,,,,,,,,,,,,,,,,,,,,,,548.9522053600231,548.9522053600231,548.9522053600231,548.9522053600231,548.9522053600231,548.9522053600231,548.9522053600231,548.9522053600231,548.9522053600231,548.9522053600231,a,0.15764686799957417,10,641,2,549.1354421990109,550.6372486780165,,,,,,,,,,,,,,,,,,,,,,,,,,,,,,,,,,,,,,,,,,,,,,,,,,,,,,,,,,,,,,,,,,,,,,,,,,95243,2022-11-17_08h05.55.763,vts_reward_expectancy_bt_OFFLINE,2022.2.4,59.93543862033485,
1,0,0,0,0,0,0,1,triangle,star,2,0,2,0,1,2,14,2,,,,,,,,,,,,,,,,,,,,,,,,,,,,,,,,,,,,,,,,551.137741891027,551.137741891027,551.137741891027,551.137741891027,551.137741891027,551.137741891027,551.137741891027,551.137741891027,551.137741891027,551.137741891027,a,0.42552567398524843,10,651,2,551.5885490040237,553.0899578190001,,,,,,,,,,,,,,,,,,,,,,,,,,,,,,,,,,,,,,,,,,,,,,,,,,,,,,,,,,,,,,,,,,,,,,,,,,95243,2022-11-17_08h05.55.763,vts_reward_expectancy_bt_OFFLINE,2022.2.4,59.93543862033485,
0,1,0,0,1,0,0,0,circle,triangle,2,0,2,0,1,3,15,3,,,,,,,,,,,,,,,,,,,,,,,,,,,,,,,,,,,,,,,,553.5905971330067,553.5905971330067,553.5905971330067,553.5905971330067,553.5905971330067,553.5905971330067,553.5905971330067,553.5905971330067,553.5905971330067,553.5905971330067,a,0.14334604199393652,10,661,2,553.7574376100092,555.2588439579995,,,,,,,,,,,,,,,,,,,,,,,,,,,,,,,,,,,,,,,,,,,,,,,,,,,,,,,,,,,,,,,,,,,,,,,,,,95243,2022-11-17_08h05.55.763,vts_reward_expectancy_bt_OFFLINE,2022.2.4,59.93543862033485,
0,1,0,0,0,0,0,1,circle,star,2,0,2,0,1,4,16,5,,,,,,,,,,,,,,,,,,,,,,,,,,,,,,,,,,,,,,,,555.7596559880185,555.7596559880185,555.7596559880185,555.7596559880185,555.7596559880185,555.7596559880185,555.7596559880185,555.7596559880185,555.7596559880185,555.7596559880185,l,0.2019672149908729,1,662,2,555.9931831069989,557.4949703460152,,,,,,,,,,,,,,,,,,,,,,,,,,,,,,,,,,,,,,,,,,,,,,,,,,,,,,,,,,,,,,,,,,,,,,,,,,95243,2022-11-17_08h05.55.763,vts_reward_expectancy_bt_OFFLINE,2022.2.4,59.93543862033485,
0,0,1,0,0,1,0,0,hexagon,circle,2,0,2,0,1,5,17,7,,,,,,,,,,,,,,,,,,,,,,,,,,,,,,,,,,,,,,,,557.9953320930072,557.9953320930072,557.9953320930072,557.9953320930072,557.9953320930072,557.9953320930072,557.9953320930072,557.9953320930072,557.9953320930072,557.9953320930072,l,0.5197543260001112,1,663,2,558.545959414012,560.0475790050114,,,,,,,,,,,,,,,,,,,,,,,,,,,,,,,,,,,,,,,,,,,,,,,,,,,,,,,,,,,,,,,,,,,,,,,,,,95243,2022-11-17_08h05.55.763,vts_reward_expectancy_bt_OFFLINE,2022.2.4,59.93543862033485,
1,0,0,0,0,0,1,0,triangle,hexagon,2,0,2,0,1,6,18,1,,,,,,,,,,,,,,,,,,,,,,,,,,,,,,,,,,,,,,,,560.5481232090096,560.5481232090096,560.5481232090096,560.5481232090096,560.5481232090096,560.5481232090096,560.5481232090096,560.5481232090096,560.5481232090096,560.5481232090096,a,0.735274306993233,10,673,2,561.3156492810231,562.8173092870275,,,,,,,,,,,,,,,,,,,,,,,,,,,,,,,,,,,,,,,,,,,,,,,,,,,,,,,,,,,,,,,,,,,,,,,,,,95243,2022-11-17_08h05.55.763,vts_reward_expectancy_bt_OFFLINE,2022.2.4,59.93543862033485,
0,0,0,1,0,0,1,0,star,hexagon,2,0,2,0,1,7,19,11,,,,,,,,,,,,,,,,,,,,,,,,,,,,,,,,,,,,,,,,563.3178769180086,563.3178769180086,563.3178769180086,563.3178769180086,563.3178769180086,563.3178769180086,563.3178769180086,563.3178769180086,563.3178769180086,563.3178769180086,a,0.31804068200290203,1,674,2,563.668202166009,565.1698087760014,,,,,,,,,,,,,,,,,,,,,,,,,,,,,,,,,,,,,,,,,,,,,,,,,,,,,,,,,,,,,,,,,,,,,,,,,,95243,2022-11-17_08h05.55.763,vts_reward_expectancy_bt_OFFLINE,2022.2.4,59.93543862033485,
0,0,0,1,1,0,0,0,star,triangle,2,0,2,0,1,8,20,9,,,,,,,,,,,,,,,,,,,,,,,,,,,,,,,,,,,,,,,,565.6704918920004,565.6704918920004,565.6704918920004,565.6704918920004,565.6704918920004,565.6704918920004,565.6704918920004,565.6704918920004,565.6704918920004,565.6704918920004,l,0.11277219399926253,10,684,2,565.80391560102,567.3056224500178,,,,,,,,,,,,,,,,,,,,,,,,,,,,,,,,,,,,,,,,,,,,,,,,,,,,,,,,,,,,,,,,,,,,,,,,,,95243,2022-11-17_08h05.55.763,vts_reward_expectancy_bt_OFFLINE,2022.2.4,59.93543862033485,
0,0,1,0,1,0,0,0,hexagon,triangle,2,0,2,0,1,9,21,6,,,,,,,,,,,,,,,,,,,,,,,,,,,,,,,,,,,,,,,,567.8060338040232,567.8060338040232,567.8060338040232,567.8060338040232,567.8060338040232,567.8060338040232,567.8060338040232,567.8060338040232,567.8060338040232,567.8060338040232,l,0.5196166609821375,10,694,2,568.3566407110193,569.858532060025,,,,,,,,,,,,,,,,,,,,,,,,,,,,,,,,,,,,,,,,,,,,,,,,,,,,,,,,,,,,,,,,,,,,,,,,,,95243,2022-11-17_08h05.55.763,vts_reward_expectancy_bt_OFFLINE,2022.2.4,59.93543862033485,
1,0,0,0,0,1,0,0,triangle,circle,2,0,2,0,1,10,22,0,,,,,,,,,,,,,,,,,,,,,,,,,,,,,,,,,,,,,,,,570.3590508830093,570.3590508830093,570.3590508830093,570.3590508830093,570.3590508830093,570.3590508830093,570.3590508830093,570.3590508830093,570.3590508830093,570.3590508830093,l,0.31869477999862283,10,704,2,570.7093382739986,572.211033568019,,,,,,,,,,,,,,,,,,,,,,,,,,,,,,,,,,,,,,,,,,,,,,,,,,,,,,,,,,,,,,,,,,,,,,,,,,95243,2022-11-17_08h05.55.763,vts_reward_expectancy_bt_OFFLINE,2022.2.4,59.93543862033485,
0,0,1,0,0,0,0,1,hexagon,star,2,0,2,0,1,11,23,8,,,,,,,,,,,,,,,,,,,,,,,,,,,,,,,,,,,,,,,,572.7116754570161,572.7116754570161,572.7116754570161,572.7116754570161,572.7116754570161,572.7116754570161,572.7116754570161,572.7116754570161,572.7116754570161,572.7116754570161,l,0.3513028869929258,1,705,2,573.0955406220164,574.5971340930264,,,,,,,,,,,,,,,,,,,,,,,,,,,,,,,,,,,,,,,,,,,,,,,,,,,,,,,,,,,,,,,,,,,,,,,,,,95243,2022-11-17_08h05.55.763,vts_reward_expectancy_bt_OFFLINE,2022.2.4,59.93543862033485,
0,0,0,1,0,1,0,0,star ,circle,2,0,2,0,2,0,24,10,,,,,,,,,,,,,,,,,,,,,,,,,,,,,,,,,,,,,,,,575.0975801970053,575.0975801970053,575.0975801970053,575.0975801970053,575.0975801970053,575.0975801970053,575.0975801970053,575.0975801970053,575.0975801970053,575.0975801970053,a,0.02276289797737263,1,706,2,575.1475592670031,576.6492217190098,,,,,,,,,,,,,,,,,,,,,,,,,,,,,,,,,,,,,,,,,,,,,,,,,,,,,,,,,,,,,,,,,,,,,,,,,,95243,2022-11-17_08h05.55.763,vts_reward_expectancy_bt_OFFLINE,2022.2.4,59.93543862033485,
0,0,1,0,0,0,0,1,hexagon,star,2,0,2,0,2,1,25,8,,,,,,,,,,,,,,,,,,,,,,,,,,,,,,,,,,,,,,,,577.1498004560126,577.1498004560126,577.1498004560126,577.1498004560126,577.1498004560126,577.1498004560126,577.1498004560126,577.1498004560126,577.1498004560126,577.1498004560126,l,0.14240065499325283,1,707,2,577.3166229610215,578.8184382260079,,,,,,,,,,,,,,,,,,,,,,,,,,,,,,,,,,,,,,,,,,,,,,,,,,,,,,,,,,,,,,,,,,,,,,,,,,95243,2022-11-17_08h05.55.763,vts_reward_expectancy_bt_OFFLINE,2022.2.4,59.93543862033485,
0,0,0,1,0,0,1,0,star,hexagon,2,0,2,0,2,2,26,11,,,,,,,,,,,,,,,,,,,,,,,,,,,,,,,,,,,,,,,,579.3195086680062,579.3195086680062,579.3195086680062,579.3195086680062,579.3195086680062,579.3195086680062,579.3195086680062,579.3195086680062,579.3195086680062,579.3195086680062,l,0.3469379750022199,10,717,2,579.6859745760157,581.1877055170189,,,,,,,,,,,,,,,,,,,,,,,,,,,,,,,,,,,,,,,,,,,,,,,,,,,,,,,,,,,,,,,,,,,,,,,,,,95243,2022-11-17_08h05.55.763,vts_reward_expectancy_bt_OFFLINE,2022.2.4,59.93543862033485,
0,0,1,0,0,1,0,0,hexagon,circle,2,0,2,0,2,3,27,7,,,,,,,,,,,,,,,,,,,,,,,,,,,,,,,,,,,,,,,,581.6881320970133,581.6881320970133,581.6881320970133,581.6881320970133,581.6881320970133,581.6881320970133,581.6881320970133,581.6881320970133,581.6881320970133,581.6881320970133,l,0.3854306139983237,10,727,2,582.1054238680226,583.6068981440039,,,,,,,,,,,,,,,,,,,,,,,,,,,,,,,,,,,,,,,,,,,,,,,,,,,,,,,,,,,,,,,,,,,,,,,,,,95243,2022-11-17_08h05.55.763,vts_reward_expectancy_bt_OFFLINE,2022.2.4,59.93543862033485,
1,0,0,0,0,0,0,1,triangle,star,2,0,2,0,2,4,28,2,,,,,,,,,,,,,,,,,,,,,,,,,,,,,,,,,,,,,,,,584.1075188630202,584.1075188630202,584.1075188630202,584.1075188630202,584.1075188630202,584.1075188630202,584.1075188630202,584.1075188630202,584.1075188630202,584.1075188630202,l,0.41871534098754637,1,728,2,584.5580486770195,586.059960315004,,,,,,,,,,,,,,,,,,,,,,,,,,,,,,,,,,,,,,,,,,,,,,,,,,,,,,,,,,,,,,,,,,,,,,,,,,95243,2022-11-17_08h05.55.763,vts_reward_expectancy_bt_OFFLINE,2022.2.4,59.93543862033485,
0,1,0,0,0,0,1,0,circle,hexagon,2,0,2,0,2,5,29,4,,,,,,,,,,,,,,,,,,,,,,,,,,,,,,,,,,,,,,,,586.5603847120074,586.5603847120074,586.5603847120074,586.5603847120074,586.5603847120074,586.5603847120074,586.5603847120074,586.5603847120074,586.5603847120074,586.5603847120074,a,0.7354390929976944,10,738,2,587.3278295100026,588.8294402360043,,,,,,,,,,,,,,,,,,,,,,,,,,,,,,,,,,,,,,,,,,,,,,,,,,,,,,,,,,,,,,,,,,,,,,,,,,95243,2022-11-17_08h05.55.763,vts_reward_expectancy_bt_OFFLINE,2022.2.4,59.93543862033485,
0,0,1,0,1,0,0,0,hexagon,triangle,2,0,2,0,2,6,30,6,,,,,,,,,,,,,,,,,,,,,,,,,,,,,,,,,,,,,,,,589.3299629370158,589.3299629370158,589.3299629370158,589.3299629370158,589.3299629370158,589.3299629370158,589.3299629370158,589.3299629370158,589.3299629370158,589.3299629370158,a,1.0358060069847852,1,739,2,590.3982031190244,591.8995277270151,,,,,,,,,,,,,,,,,,,,,,,,,,,,,,,,,,,,,,,,,,,,,,,,,,,,,,,,,,,,,,,,,,,,,,,,,,95243,2022-11-17_08h05.55.763,vts_reward_expectancy_bt_OFFLINE,2022.2.4,59.93543862033485,
0,1,0,0,0,0,0,1,circle,star,2,0,2,0,2,7,31,5,,,,,,,,,,,,,,,,,,,,,,,,,,,,,,,,,,,,,,,,592.4006264630007,592.4006264630007,592.4006264630007,592.4006264630007,592.4006264630007,592.4006264630007,592.4006264630007,592.4006264630007,592.4006264630007,592.4006264630007,a,0.38443947001360357,10,749,2,592.8174675710034,594.3187249840121,,,,,,,,,,,,,,,,,,,,,,,,,,,,,,,,,,,,,,,,,,,,,,,,,,,,,,,,,,,,,,,,,,,,,,,,,,95243,2022-11-17_08h05.55.763,vts_reward_expectancy_bt_OFFLINE,2022.2.4,59.93543862033485,
1,0,0,0,0,1,0,0,triangle,circle,2,0,2,0,2,8,32,0,,,,,,,,,,,,,,,,,,,,,,,,,,,,,,,,,,,,,,,,594.8193611410097,594.8193611410097,594.8193611410097,594.8193611410097,594.8193611410097,594.8193611410097,594.8193611410097,594.8193611410097,594.8193611410097,594.8193611410097,l,0.8109358070068993,10,759,2,595.6534426890139,597.155294353026,,,,,,,,,,,,,,,,,,,,,,,,,,,,,,,,,,,,,,,,,,,,,,,,,,,,,,,,,,,,,,,,,,,,,,,,,,95243,2022-11-17_08h05.55.763,vts_reward_expectancy_bt_OFFLINE,2022.2.4,59.93543862033485,
0,0,0,1,1,0,0,0,star,triangle,2,0,2,0,2,9,33,9,,,,,,,,,,,,,,,,,,,,,,,,,,,,,,,,,,,,,,,,597.6559406330052,597.6559406330052,597.6559406330052,597.6559406330052,597.6559406330052,597.6559406330052,597.6559406330052,597.6559406330052,597.6559406330052,597.6559406330052,a,1.1481442969816271,1,760,2,598.8236931520223,600.32529143602,,,,,,,,,,,,,,,,,,,,,,,,,,,,,,,,,,,,,,,,,,,,,,,,,,,,,,,,,,,,,,,,,,,,,,,,,,95243,2022-11-17_08h05.55.763,vts_reward_expectancy_bt_OFFLINE,2022.2.4,59.93543862033485,
1,0,0,0,0,0,1,0,triangle,hexagon,2,0,2,0,2,10,34,1,,,,,,,,,,,,,,,,,,,,,,,,,,,,,,,,,,,,,,,,600.8259550500079,600.8259550500079,600.8259550500079,600.8259550500079,600.8259550500079,600.8259550500079,600.8259550500079,600.8259550500079,600.8259550500079,600.8259550500079,a,1.4313225410005543,1,761,2,602.277876674023,603.7791768090101,,,,,,,,,,,,,,,,,,,,,,,,,,,,,,,,,,,,,,,,,,,,,,,,,,,,,,,,,,,,,,,,,,,,,,,,,,95243,2022-11-17_08h05.55.763,vts_reward_expectancy_bt_OFFLINE,2022.2.4,59.93543862033485,
0,1,0,0,1,0,0,0,circle,triangle,2,0,2,0,2,11,35,3,,,,,,,,,,,,,,,,,,,,,,,,,,,,,,,,,,,,,,,,604.2800975230057,604.2800975230057,604.2800975230057,604.2800975230057,604.2800975230057,604.2800975230057,604.2800975230057,604.2800975230057,604.2800975230057,604.2800975230057,a,1.0819822210178245,10,771,2,605.3811651590222,606.8828024470131,606.8828024470131,,,,,,,,,,,,,,,,,,,,,,,,,,,,,,,,,,,,,,,,,,,,,,,,,,,,,,,,,,,,,,,,,,,,,,,,,95243,2022-11-17_08h05.55.763,vts_reward_expectancy_bt_OFFLINE,2022.2.4,59.93543862033485,
0,1,0,0,1,0,0,0,circle,triangle,2,0,2,0,3,0,36,3,,,,,,,,,,,,,,,,,,,,,,,,,,,,,,,,,,,,,,,,607.3832491089997,607.3832491089997,607.3832491089997,607.3832491089997,607.3832491089997,607.3832491089997,607.3832491089997,607.3832491089997,607.3832491089997,607.3832491089997,a,0.9707459139754064,10,781,2,608.3843634510122,609.8859668160148,,,,,,,,,,,,,,,,,,,,,,,,,,,,,,,,,,,,,,,,,,,,,,,,,,,,,,,,,,,,,,,,,,,,,,,,,,95243,2022-11-17_08h05.55.763,vts_reward_expectancy_bt_OFFLINE,2022.2.4,59.93543862033485,
0,0,1,0,0,1,0,0,hexagon,circle,2,0,2,0,3,1,37,7,,,,,,,,,,,,,,,,,,,,,,,,,,,,,,,,,,,,,,,,610.3864864550123,610.3864864550123,610.3864864550123,610.3864864550123,610.3864864550123,610.3864864550123,610.3864864550123,610.3864864550123,610.3864864550123,610.3864864550123,l,1.7704744810180273,10,791,2,612.1885578040092,613.6901713020052,,,,,,,,,,,,,,,,,,,,,,,,,,,,,,,,,,,,,,,,,,,,,,,,,,,,,,,,,,,,,,,,,,,,,,,,,,95243,2022-11-17_08h05.55.763,vts_reward_expectancy_bt_OFFLINE,2022.2.4,59.93543862033485,
0,0,1,0,0,0,0,1,hexagon,star,2,0,2,0,3,2,38,8,,,,,,,,,,,,,,,,,,,,,,,,,,,,,,,,,,,,,,,,614.1905985650083,614.1905985650083,614.1905985650083,614.1905985650083,614.1905985650083,614.1905985650083,614.1905985650083,614.1905985650083,614.1905985650083,614.1905985650083,a,1.4326703010010533,10,801,2,615.6423417910119,617.1439118720009,,,,,,,,,,,,,,,,,,,,,,,,,,,,,,,,,,,,,,,,,,,,,,,,,,,,,,,,,,,,,,,,,,,,,,,,,,95243,2022-11-17_08h05.55.763,vts_reward_expectancy_bt_OFFLINE,2022.2.4,59.93543862033485,
1,0,0,0,0,1,0,0,triangle,circle,2,0,2,0,3,3,39,0,,,,,,,,,,,,,,,,,,,,,,,,,,,,,,,,,,,,,,,,617.6444841890188,617.6444841890188,617.6444841890188,617.6444841890188,617.6444841890188,617.6444841890188,617.6444841890188,617.6444841890188,617.6444841890188,617.6444841890188,l,0.4986084279953502,10,811,2,618.161869655014,619.6633460599987,619.6633460599987,,,,,,,,,,,,,,,,,,,,,,,,,,,,,,,,,,,,,,,,,,,,,,,,,,,,,,,,,,,,,,,,,,,,,,,,,95243,2022-11-17_08h05.55.763,vts_reward_expectancy_bt_OFFLINE,2022.2.4,59.93543862033485,
0,0,1,0,1,0,0,0,hexagon,triangle,2,0,2,0,3,4,40,6,,,,,,,,,,,,,,,,,,,,,,,,,,,,,,,,,,,,,,,,620.163975204021,620.163975204021,620.163975204021,620.163975204021,620.163975204021,620.163975204021,620.163975204021,620.163975204021,620.163975204021,620.163975204021,a,0.6445732610009145,1,812,2,620.8311808040016,622.3330715210177,,,,,,,,,,,,,,,,,,,,,,,,,,,,,,,,,,,,,,,,,,,,,,,,,,,,,,,,,,,,,,,,,,,,,,,,,,95243,2022-11-17_08h05.55.763,vts_reward_expectancy_bt_OFFLINE,2022.2.4,59.93543862033485,
0,0,0,1,0,1,0,0,star ,circle,2,0,2,0,3,5,41,10,,,,,,,,,,,,,,,,,,,,,,,,,,,,,,,,,,,,,,,,622.8334157000063,622.8334157000063,622.8334157000063,622.8334157000063,622.8334157000063,622.8334157000063,622.8334157000063,622.8334157000063,622.8334157000063,622.8334157000063,l,0.40692987898364663,1,813,2,623.2672548070259,624.7689185990021,,,,,,,,,,,,,,,,,,,,,,,,,,,,,,,,,,,,,,,,,,,,,,,,,,,,,,,,,,,,,,,,,,,,,,,,,,95243,2022-11-17_08h05.55.763,vts_reward_expectancy_bt_OFFLINE,2022.2.4,59.93543862033485,
0,1,0,0,0,0,0,1,circle,star,2,0,2,0,3,6,42,5,,,,,,,,,,,,,,,,,,,,,,,,,,,,,,,,,,,,,,,,625.2694963640242,625.2694963640242,625.2694963640242,625.2694963640242,625.2694963640242,625.2694963640242,625.2694963640242,625.2694963640242,625.2694963640242,625.2694963640242,a,0.4113608600164298,10,823,2,625.7034085560008,627.20501676001,,,,,,,,,,,,,,,,,,,,,,,,,,,,,,,,,,,,,,,,,,,,,,,,,,,,,,,,,,,,,,,,,,,,,,,,,,95243,2022-11-17_08h05.55.763,vts_reward_expectancy_bt_OFFLINE,2022.2.4,59.93543862033485,
1,0,0,0,0,0,0,1,triangle,star,2,0,2,0,3,7,43,2,,,,,,,,,,,,,,,,,,,,,,,,,,,,,,,,,,,,,,,,627.7056122670183,627.7056122670183,627.7056122670183,627.7056122670183,627.7056122670183,627.7056122670183,627.7056122670183,627.7056122670183,627.7056122670183,627.7056122670183,l,0.4399604439968243,1,824,2,628.1727016880177,629.6747005850193,,,,,,,,,,,,,,,,,,,,,,,,,,,,,,,,,,,,,,,,,,,,,,,,,,,,,,,,,,,,,,,,,,,,,,,,,,95243,2022-11-17_08h05.55.763,vts_reward_expectancy_bt_OFFLINE,2022.2.4,59.93543862033485,
0,0,0,1,1,0,0,0,star,triangle,2,0,2,0,3,8,44,9,,,,,,,,,,,,,,,,,,,,,,,,,,,,,,,,,,,,,,,,630.174924328021,630.174924328021,630.174924328021,630.174924328021,630.174924328021,630.174924328021,630.174924328021,630.174924328021,630.174924328021,630.174924328021,a,0.3879145790124312,1,825,2,630.5924688590167,632.0938184780243,,,,,,,,,,,,,,,,,,,,,,,,,,,,,,,,,,,,,,,,,,,,,,,,,,,,,,,,,,,,,,,,,,,,,,,,,,95243,2022-11-17_08h05.55.763,vts_reward_expectancy_bt_OFFLINE,2022.2.4,59.93543862033485,
0,0,0,1,0,0,1,0,star,hexagon,2,0,2,0,3,9,45,11,,,,,,,,,,,,,,,,,,,,,,,,,,,,,,,,,,,,,,,,632.5944472640113,632.5944472640113,632.5944472640113,632.5944472640113,632.5944472640113,632.5944472640113,632.5944472640113,632.5944472640113,632.5944472640113,632.5944472640113,l,0.31928291800431907,1,826,2,632.9447350460105,634.4463974880055,,,,,,,,,,,,,,,,,,,,,,,,,,,,,,,,,,,,,,,,,,,,,,,,,,,,,,,,,,,,,,,,,,,,,,,,,,95243,2022-11-17_08h05.55.763,vts_reward_expectancy_bt_OFFLINE,2022.2.4,59.93543862033485,
1,0,0,0,0,0,1,0,triangle,hexagon,2,0,2,0,3,10,46,1,,,,,,,,,,,,,,,,,,,,,,,,,,,,,,,,,,,,,,,,634.9468664320011,634.9468664320011,634.9468664320011,634.9468664320011,634.9468664320011,634.9468664320011,634.9468664320011,634.9468664320011,634.9468664320011,634.9468664320011,a,0.33027152600698173,10,836,2,635.2973428110126,636.7988772940007,,,,,,,,,,,,,,,,,,,,,,,,,,,,,,,,,,,,,,,,,,,,,,,,,,,,,,,,,,,,,,,,,,,,,,,,,,95243,2022-11-17_08h05.55.763,vts_reward_expectancy_bt_OFFLINE,2022.2.4,59.93543862033485,
0,1,0,0,0,0,1,0,circle,hexagon,2,0,2,0,3,11,47,4,,,,,,,,,,,,,,,,,,,,,,,,,,,,,,,,,,,,,,,,637.2995267570077,637.2995267570077,637.2995267570077,637.2995267570077,637.2995267570077,637.2995267570077,637.2995267570077,637.2995267570077,637.2995267570077,637.2995267570077,l,0.3734132109966595,1,837,2,637.699819549016,639.2016364550218,,,,,,,,,,,,,,,,,,,,,,,,,,,,,,,,,,,,,,,,,,,,,,,,,,,,,,,,,,,,,,,,,,,,,,,,,,95243,2022-11-17_08h05.55.763,vts_reward_expectancy_bt_OFFLINE,2022.2.4,59.93543862033485,
,,,,,,,,,,,,,,,,,,0,0,0,0,0,0,0,0,,,,,,,,,,,,,,,,,,,,,,,,,,,,,,,,,,,,,,,,,,,,,,,,675.3914917950169,,675.8921733330062,Y,146,triangle,0.0016579320072196424,669.3794011470163,670.8866005650198,670.8866005650198,670.8866005650198,673.8901152920153,673.8901152920153,673.8901152920153,673.8901152920153,0,0,None,0,673.8901152920153,675.3914917950169,,,,,,,,,,,,,,,,,,,,,,,,,,,,,,,,,,,,,,,,,,,,,,,,,,,,,,95243,2022-11-17_08h05.55.763,vts_reward_expectancy_bt_OFFLINE,2022.2.4,59.93543862033485,
,,,,,,,,,,,,,,,,,,0,0,0,0,1,0,1,0,,,,,,,,,,,,,,,,,,,,,,,,,,,,,,,,,,,,,,,,,,,,,,,,680.8808593880094,,,F,167,hexagon,0.00887415700708516,676.3866006740136,677.8942892610212,677.8942892610212,677.8942892610212,,,,,0,1,f,0,679.3792466330051,,1.4618889370176475,,,,,,,,,,,,,,,,,,,,,,,,,,,,,,,,,,,,,,,,,,,,,,,,,,,,,95243,2022-11-17_08h05.55.763,vts_reward_expectancy_bt_OFFLINE,2022.2.4,59.93543862033485,
,,,,,,,,,,,,,,,,,,0,0,0,0,2,0,2,0,,,,,,,,,,,,,,,,,,,,,,,,,,,,,,,,,,,,,,,,,,,,,,,,685.2856241950067,,,D,181,circle,0.0015572760021314025,681.8592389410187,683.366877523018,683.366877523018,683.366877523018,,,,,1,1,d,0,683.7841146120045,,0.3885432179959025,,,,,,,,,,,,,,,,,,,,,,,,,,,,,,,,,,,,,,,,,,,,,,,,,,,,,95243,2022-11-17_08h05.55.763,vts_reward_expectancy_bt_OFFLINE,2022.2.4,59.93543862033485,
,,,,,,,,,,,,,,,,,,0,0,0,0,3,0,3,0,,,,,,,,,,,,,,,,,,,,,,,,,,,,,,,,,,,,,,,,,,,,,,,,690.508053846017,,,W,132,star,0.0014132159994915128,686.2647013310052,687.7717752450262,687.7717752450262,687.7717752450262,,,,,1,0,f,0,689.0069712700206,,1.202922964002937,,,,,,,,,,,,,,,,,,,,,,,,,,,,,,,,,,,,,,,,,,,,,,,,,,,,,95243,2022-11-17_08h05.55.763,vts_reward_expectancy_bt_OFFLINE,2022.2.4,59.93543862033485,
,,,,,,,,,,,,,,,,,,0,0,0,0,4,0,4,0,,,,,,,,,,,,,,,,,,,,,,,,,,,,,,,,,,,,,,,,,,,,,,,,695.6638119840063,,,H,160,triangle,0.0012039190041832626,691.5515176620102,692.99424568002,692.99424568002,692.99424568002,,,,,0,0,f,0,694.1623115830007,,1.1352950569998939,,,,,,,,,,,,,,,,,,,,,,,,,,,,,,,,,,,,,,,,,,,,,,,,,,,,,95243,2022-11-17_08h05.55.763,vts_reward_expectancy_bt_OFFLINE,2022.2.4,59.93543862033485,
,,,,,,,,,,,,,,,,,,0,0,0,0,5,0,5,0,,,,,,,,,,,,,,,,,,,,,,,,,,,,,,,,,,,,,,,,,,,,,,,,700.902979652019,,,U,125,hexagon,0.0015821429842617363,696.6435005690146,698.1499037760077,698.1499037760077,698.1499037760077,,,,,1,1,f,0,699.4012497660005,,1.2201608669711277,,,,,,,,,,,,,,,,,,,,,,,,,,,,,,,,,,,,,,,,,,,,,,,,,,,,,95243,2022-11-17_08h05.55.763,vts_reward_expectancy_bt_OFFLINE,2022.2.4,59.93543862033485,
,,,,,,,,,,,,,,,,,,0,0,0,0,6,0,6,0,,,,,,,,,,,,,,,,,,,,,,,,,,,,,,,,,,,,,,,,,,,,,,,,705.5915666350047,,,B,139,star,0.0014236170100048184,701.8830809700012,703.3892477730114,703.3892477730114,703.3892477730114,,,,,1,0,d,0,704.0898262850242,,0.6729299919970799,,,,,,,,,,,,,,,,,,,,,,,,,,,,,,,,,,,,,,,,,,,,,,,,,,,,,95243,2022-11-17_08h05.55.763,vts_reward_expectancy_bt_OFFLINE,2022.2.4,59.93543862033485,
,,,,,,,,,,,,,,,,,,0,0,0,0,7,0,7,0,,,,,,,,,,,,,,,,,,,,,,,,,,,,,,,,,,,,,,,,,,,,,,,,711.0307304220041,,,S,174,circle,0.001669290999416262,706.5700217810227,708.0778749210003,708.0778749210003,708.0778749210003,,,,,1,0,f,0,709.5293353410088,,1.419143448001705,,,,,,,,,,,,,,,,,,,,,,,,,,,,,,,,,,,,,,,,,,,,,,,,,,,,,95243,2022-11-17_08h05.55.763,vts_reward_expectancy_bt_OFFLINE,2022.2.4,59.93543862033485,
,,,,,,,,,,,,,,,,,,0,0,0,0,8,0,8,0,,,,,,,,,,,,,,,,,,,,,,,,,,,,,,,,,,,,,,,,,,,,,,,,716.2364291289996,,,Y,146,circle,0.001596993999555707,712.008241271018,713.5169578230125,713.5169578230125,713.5169578230125,,,,,1,0,f,0,714.7348319330194,,1.198781475017313,,,,,,,,,,,,,,,,,,,,,,,,,,,,,,,,,,,,,,,,,,,,,,,,,,,,,95243,2022-11-17_08h05.55.763,vts_reward_expectancy_bt_OFFLINE,2022.2.4,59.93543862033485,
,,,,,,,,,,,,,,,,,,0,0,0,0,9,0,9,0,,,,,,,,,,,,,,,,,,,,,,,,,,,,,,,,,,,,,,,,,,,,,,,,721.4256344489986,,,F,167,triangle,0.00108471600105986,717.2126038200222,718.7227630560228,718.7227630560228,718.7227630560228,,,,,1,0,d,0,719.9240411010105,,1.1788825960247777,,,,,,,,,,,,,,,,,,,,,,,,,,,,,,,,,,,,,,,,,,,,,,,,,,,,,95243,2022-11-17_08h05.55.763,vts_reward_expectancy_bt_OFFLINE,2022.2.4,59.93543862033485,
,,,,,,,,,,,,,,,,,,1,0,1,0,0,0,0,0,,,,,,,,,,,,,,,,,,,,,,,,,,,,,,,,,,,,,,,,,,,,,,,,734.8574361540086,,,H,139,circle,0.001960736990440637,730.2968605010246,731.8039591280103,731.8039591280103,731.8039591280103,,,,,1,0,d,1,733.3549726210185,,1.5188520049850922,,,,,,,,,,,,,,,,,,,,,,,,,,,,,,,,,,,,,,,,,,,,,,,,,,,,,95243,2022-11-17_08h05.55.763,vts_reward_expectancy_bt_OFFLINE,2022.2.4,59.93543862033485,
,,,,,,,,,,,,,,,,,,1,0,1,0,1,0,1,0,,,,,,,,,,,,,,,,,,,,,,,,,,,,,,,,,,,,,,,,,,,,,,,,740.5968522910262,,,W,181,triangle,0.002297225990332663,735.8348371460161,737.3432328400086,737.3432328400086,737.3432328400086,,,,,1,0,f,1,739.0952410150203,,1.7297773839964066,,,,,,,,,,,,,,,,,,,,,,,,,,,,,,,,,,,,,,,,,,,,,,,,,,,,,95243,2022-11-17_08h05.55.763,vts_reward_expectancy_bt_OFFLINE,2022.2.4,59.93543862033485,
,,,,,,,,,,,,,,,,,,1,0,1,0,2,0,2,0,,,,,,,,,,,,,,,,,,,,,,,,,,,,,,,,,,,,,,,,,,,,,,,,745.2851571850188,,,D,146,star,0.0016173809999600053,741.5747519540018,743.0829776460014,743.0829776460014,743.0829776460014,,,,,1,0,d,1,743.7841624810244,,0.6813798770017456,,,,,,,,,,,,,,,,,,,,,,,,,,,,,,,,,,,,,,,,,,,,,,,,,,,,,95243,2022-11-17_08h05.55.763,vts_reward_expectancy_bt_OFFLINE,2022.2.4,59.93543862033485,
,,,,,,,,,,,,,,,,,,1,0,1,0,3,0,3,0,,,,,,,,,,,,,,,,,,,,,,,,,,,,,,,,,,,,,,,,,,,,,,,,750.2241001940274,,,F,132,hexagon,0.0008612879901193082,746.2638778030232,747.7714068920177,747.7714068920177,747.7714068920177,,,,,1,0,d,1,748.7223494940263,,0.9318555550125893,,,,,,,,,,,,,,,,,,,,,,,,,,,,,,,,,,,,,,,,,,,,,,,,,,,,,95243,2022-11-17_08h05.55.763,vts_reward_expectancy_bt_OFFLINE,2022.2.4,59.93543862033485,
,,,,,,,,,,,,,,,,,,1,0,1,0,4,0,4,0,,,,,,,,,,,,,,,,,,,,,,,,,,,,,,,,,,,,,,,,,,,,,,,,755.4800824660051,,,S,125,star,0.001352282997686416,751.2015025650035,752.710065354011,752.710065354011,752.710065354011,,,,,1,0,f,1,753.9781706940266,,1.2367814340104815,,,,,,,,,,,,,,,,,,,,,,,,,,,,,,,,,,,,,,,,,,,,,,,,,,,,,95243,2022-11-17_08h05.55.763,vts_reward_expectancy_bt_OFFLINE,2022.2.4,59.93543862033485,
,,,,,,,,,,,,,,,,,,1,0,1,0,5,0,5,0,,,,,,,,,,,,,,,,,,,,,,,,,,,,,,,,,,,,,,,,,,,,,,,,760.118446899025,,,Y,174,hexagon,0.0018093870021402836,756.457783550024,757.9660016430134,757.9660016430134,757.9660016430134,,,,,1,0,f,1,758.6166485210124,,0.6254724120080937,,,,,,,,,,,,,,,,,,,,,,,,,,,,,,,,,,,,,,,,,,,,,,,,,,,,,95243,2022-11-17_08h05.55.763,vts_reward_expectancy_bt_OFFLINE,2022.2.4,59.93543862033485,
,,,,,,,,,,,,,,,,,,1,0,1,0,6,0,6,0,,,,,,,,,,,,,,,,,,,,,,,,,,,,,,,,,,,,,,,,,,,,,,,,764.7567633480066,,,B,167,triangle,0.001694005011813715,761.0954854700249,762.6044093660021,762.6044093660021,762.6044093660021,,,,,1,0,d,1,763.2550579310046,,0.6227389429986943,,,,,,,,,,,,,,,,,,,,,,,,,,,,,,,,,,,,,,,,,,,,,,,,,,,,,95243,2022-11-17_08h05.55.763,vts_reward_expectancy_bt_OFFLINE,2022.2.4,59.93543862033485,
,,,,,,,,,,,,,,,,,,1,0,1,0,7,0,7,0,,,,,,,,,,,,,,,,,,,,,,,,,,,,,,,,,,,,,,,,,,,,,,,,769.8790186770202,,,U,160,circle,0.001938025001436472,765.7351470430149,767.2429346050194,767.2429346050194,767.2429346050194,,,,,1,0,f,1,768.3774739760265,,1.114652591990307,,,,,,,,,,,,,,,,,,,,,,,,,,,,,,,,,,,,,,,,,,,,,,,,,,,,,95243,2022-11-17_08h05.55.763,vts_reward_expectancy_bt_OFFLINE,2022.2.4,59.93543862033485,
,,,,,,,,,,,,,,,,,,1,0,1,0,8,0,8,0,,,,,,,,,,,,,,,,,,,,,,,,,,,,,,,,,,,,,,,,,,,,,,,,774.9512523090234,,,H,139,triangle,0.0016278029943350703,770.8552615110239,772.3650699290156,772.3650699290156,772.3650699290156,,,,,1,0,d,1,773.4497082630114,,1.0657836059981491,,,,,,,,,,,,,,,,,,,,,,,,,,,,,,,,,,,,,,,,,,,,,,,,,,,,,95243,2022-11-17_08h05.55.763,vts_reward_expectancy_bt_OFFLINE,2022.2.4,59.93543862033485,
,,,,,,,,,,,,,,,,,,1,0,1,0,9,0,9,0,,,,,,,,,,,,,,,,,,,,,,,,,,,,,,,,,,,,,,,,,,,,,,,,779.9901865000138,,,W,181,circle,0.0011080809927079827,775.9285154880199,777.4371457180241,777.4371457180241,777.4371457180241,,,,,1,0,f,1,778.4885505620041,,1.024164724018192,,,,,,,,,,,,,,,,,,,,,,,,,,,,,,,,,,,,,,,,,,,,,,,,,,,,,95243,2022-11-17_08h05.55.763,vts_reward_expectancy_bt_OFFLINE,2022.2.4,59.93543862033485,
,,,,,,,,,,,,,,,,,,,,,,,,,,0,0,0,0,0,0,0,0,,,,,,,,,,,,,,,,,,,,,,,,,,,,,,,,,,,,,,,,804.8344588870241,,,D,167,circle,0.001548382977489382,,,,,,,,,1,0,,2,803.3330323950213,,,799.9389474190248,801.4473141730123,801.4473141730123,801.4473141730123,k,1.8638878740021028,,,,,,,,,,,,,,,,,,,,,,,,,,,,,,,,,,,,,,,,,,,,,,,95243,2022-11-17_08h05.55.763,vts_reward_expectancy_bt_OFFLINE,2022.2.4,59.93543862033485,
,,,,,,,,,,,,,,,,,,,,,,,,,,0,0,0,0,1,0,1,0,,,,,,,,,,,,,,,,,,,,,,,,,,,,,,,,,,,,,,,,809.9405921800062,,,Y,160,star,0.0013238020183052868,,,,,,,,,1,0,,2,808.4383964670124,,,805.8109615380235,807.3206460360088,807.3206460360088,807.3206460360088,k,1.0984785410109907,,,,,,,,,,,,,,,,,,,,,,,,,,,,,,,,,,,,,,,,,,,,,,,95243,2022-11-17_08h05.55.763,vts_reward_expectancy_bt_OFFLINE,2022.2.4,59.93543862033485,
,,,,,,,,,,,,,,,,,,,,,,,,,,0,0,0,0,2,0,2,0,,,,,,,,,,,,,,,,,,,,,,,,,,,,,,,,,,,,,,,,814.8452505030145,,,S,125,hexagon,0.016168277012184262,,,,,,,,,1,0,,2,813.3439346759988,,,810.9318292810058,812.4261772400059,812.4261772400059,812.4261772400059,j,0.8864296860119794,,,,,,,,,,,,,,,,,,,,,,,,,,,,,,,,,,,,,,,,,,,,,,,95243,2022-11-17_08h05.55.763,vts_reward_expectancy_bt_OFFLINE,2022.2.4,59.93543862033485,
,,,,,,,,,,,,,,,,,,,,,,,,,,0,0,0,0,3,0,3,0,,,,,,,,,,,,,,,,,,,,,,,,,,,,,,,,,,,,,,,,820.1681326280232,,,W,174,triangle,0.0012188139953650534,,,,,,,,,1,0,,2,818.6662345060031,,,815.8223767190066,817.331329069013,817.331329069013,817.331329069013,k,1.303385001985589,,,,,,,,,,,,,,,,,,,,,,,,,,,,,,,,,,,,,,,,,,,,,,,95243,2022-11-17_08h05.55.763,vts_reward_expectancy_bt_OFFLINE,2022.2.4,59.93543862033485,
,,,,,,,,,,,,,,,,,,,,,,,,,,0,0,0,0,4,0,4,0,,,,,,,,,,,,,,,,,,,,,,,,,,,,,,,,,,,,,,,,825.4903865640226,,,U,139,star,0.0017498439992778003,,,,,,,,,1,0,,2,823.9887054670253,,,821.144576524006,822.6539504850225,822.6539504850225,822.6539504850225,j,1.3028249070048332,,,,,,,,,,,,,,,,,,,,,,,,,,,,,,,,,,,,,,,,,,,,,,,95243,2022-11-17_08h05.55.763,vts_reward_expectancy_bt_OFFLINE,2022.2.4,59.93543862033485,
,,,,,,,,,,,,,,,,,,,,,,,,,,0,0,0,0,5,0,5,0,,,,,,,,,,,,,,,,,,,,,,,,,,,,,,,,,,,,,,,,831.1799461080227,,,F,146,hexagon,0.0015599940088577569,,,,,,,,,1,0,,2,829.6782695650181,,,826.4669721620157,827.9765064050152,827.9765064050152,827.9765064050152,j,1.6854686870065052,,,,,,,,,,,,,,,,,,,,,,,,,,,,,,,,,,,,,,,,,,,,,,,95243,2022-11-17_08h05.55.763,vts_reward_expectancy_bt_OFFLINE,2022.2.4,59.93543862033485,
,,,,,,,,,,,,,,,,,,,,,,,,,,0,0,0,0,6,0,6,0,,,,,,,,,,,,,,,,,,,,,,,,,,,,,,,,,,,,,,,,837.1365728860255,,,H,132,circle,0.0009122759802266955,,,,,,,,,1,0,,2,835.6349604290153,,,832.1563673010096,833.6660687150143,833.6660687150143,833.6660687150143,j,1.9365111860097386,,,,,,,,,,,,,,,,,,,,,,,,,,,,,,,,,,,,,,,,,,,,,,,95243,2022-11-17_08h05.55.763,vts_reward_expectancy_bt_OFFLINE,2022.2.4,59.93543862033485,
,,,,,,,,,,,,,,,,,,,,,,,,,,0,0,0,0,7,0,7,0,,,,,,,,,,,,,,,,,,,,,,,,,,,,,,,,,,,,,,,,842.1090127520147,,,B,181,triangle,0.001792524999473244,,,,,,,,,1,0,,2,840.6072337750229,,,838.1139735220058,839.6230498010118,839.6230498010118,839.6230498010118,k,0.9617674489854835,,,,,,,,,,,,,,,,,,,,,,,,,,,,,,,,,,,,,,,,,,,,,,,95243,2022-11-17_08h05.55.763,vts_reward_expectancy_bt_OFFLINE,2022.2.4,59.93543862033485,
,,,,,,,,,,,,,,,,,,,,,,,,,,0,0,0,0,8,0,8,0,,,,,,,,,,,,,,,,,,,,,,,,,,,,,,,,,,,,,,,,847.4813003820018,,,D,167,circle,0.0015106880164239556,,,,,,,,,1,0,,2,845.9796708460199,,,843.0854799980007,844.5948790230032,844.5948790230032,844.5948790230032,k,1.3573776059783995,,,,,,,,,,,,,,,,,,,,,,,,,,,,,,,,,,,,,,,,,,,,,,,95243,2022-11-17_08h05.55.763,vts_reward_expectancy_bt_OFFLINE,2022.2.4,59.93543862033485,
,,,,,,,,,,,,,,,,,,,,,,,,,,0,0,0,0,9,0,9,0,,,,,,,,,,,,,,,,,,,,,,,,,,,,,,,,,,,,,,,,852.2201295880077,,,Y,160,hexagon,0.0015762340044602752,,,,,,,,,1,0,,2,850.7183025859995,,,848.4589589630195,849.9674547130126,849.9674547130126,849.9674547130126,k,0.7316144150099717,,,,,,,,,,,,,,,,,,,,,,,,,,,,,,,,,,,,,,,,,,,,,,,95243,2022-11-17_08h05.55.763,vts_reward_expectancy_bt_OFFLINE,2022.2.4,59.93543862033485,
,,,,,,,,,,,,,,,,,,,,,,,,,,,,,,,,,,0,0,0,0,0,0,0,0,,,,,,,,,,,,,,,,,,,,,,,,,,,,0,837,,,893.632349958003,,,U,181,star,0.0022036480077076703,,,,,,,,,0,0,,3,,,,,,,,,,888.4560558450175,888.4560558450175,888.4560558450175,888.4560558450175,889.9615223850124,889.9615223850124,889.9615223850124,889.9615223850124,889.9615223850124,889.9615223850124,889.9615223850124,889.9615223850124,-1,number,NA,j,2.149658254988026,vtsPrac,892.1306081960211,,,,,,,,,,,,,,,,,,,,,,,,,,,,95243,2022-11-17_08h05.55.763,vts_reward_expectancy_bt_OFFLINE,2022.2.4,59.93543862033485,
,,,,,,,,,,,,,,,,,,,,,,,,,,,,,,,,,,0,0,0,0,1,0,1,0,,,,,,,,,,,,,,,,,,,,,,,,,,,,0,837,,,898.5710750630242,,,H,132,hexagon,0.0012075560225639492,,,,,,,,,0,1,,3,,,,,,,,,,894.611712663027,894.611712663027,894.611712663027,894.611712663027,896.1183021650068,896.1183021650068,896.1183021650068,896.1183021650068,896.1183021650068,896.1183021650068,896.1183021650068,896.1183021650068,repeat,number,NA,k,0.9315602779970504,vtsPrac,897.0693041650229,,,,,,,,,,,,,,,,,,,,,,,,,,,,95243,2022-11-17_08h05.55.763,vts_reward_expectancy_bt_OFFLINE,2022.2.4,59.93543862033485,
,,,,,,,,,,,,,,,,,,,,,,,,,,,,,,,,,,0,0,0,0,2,0,2,0,,,,,,,,,,,,,,,,,,,,,,,,,,,,0,837,,,903.9268647740246,,,B,139,star,0.0013777599961031228,,,,,,,,,1,1,,3,,,,,,,,,,899.5510475880001,899.5510475880001,899.5510475880001,899.5510475880001,901.0571104900155,901.0571104900155,901.0571104900155,901.0571104900155,901.0571104900155,901.0571104900155,901.0571104900155,901.0571104900155,repeat,number,numRpt,j,1.3475679570110515,vtsPrac,902.4253577540221,,,,,,,,,,,,,,,,,,,,,,,,,,,,95243,2022-11-17_08h05.55.763,vts_reward_expectancy_bt_OFFLINE,2022.2.4,59.93543862033485,
,,,,,,,,,,,,,,,,,,,,,,,,,,,,,,,,,,0,0,0,0,3,0,3,0,,,,,,,,,,,,,,,,,,,,,,,,,,,,0,837,,,909.1661238790257,,,D,125,circle,0.0016648379969410598,,,,,,,,,1,0,,3,,,,,,,,,,904.9060946110112,904.9060946110112,904.9060946110112,904.9060946110112,906.4129233990097,906.4129233990097,906.4129233990097,906.4129233990097,906.4129233990097,906.4129233990097,906.4129233990097,906.4129233990097,repeat,number,numRpt,j,1.2234101009962615,vtsPrac,907.6643864370126,,,,,,,,,,,,,,,,,,,,,,,,,,,,95243,2022-11-17_08h05.55.763,vts_reward_expectancy_bt_OFFLINE,2022.2.4,59.93543862033485,
,,,,,,,,,,,,,,,,,,,,,,,,,,,,,,,,,,0,0,0,0,4,0,4,0,,,,,,,,,,,,,,,,,,,,,,,,,,,,0,837,,,914.1550335790089,,,U,181,triangle,0.0017003829998429865,,,,,,,,,1,0,,3,,,,,,,,,,910.1435804390057,910.1435804390057,910.1435804390057,910.1435804390057,911.6523067509988,911.6523067509988,911.6523067509988,911.6523067509988,911.6523067509988,911.6523067509988,911.6523067509988,911.6523067509988,repeat,number,numRpt,k,0.9685774260142352,vtsPrac,912.6532889320224,,,,,,,,,,,,,,,,,,,,,,,,,,,,95243,2022-11-17_08h05.55.763,vts_reward_expectancy_bt_OFFLINE,2022.2.4,59.93543862033485,
,,,,,,,,,,,,,,,,,,,,,,,,,,,,,,,,,,0,0,0,0,5,0,5,0,,,,,,,,,,,,,,,,,,,,,,,,,,,,0,837,,,918.976968855015,,,H,132,star,0.0014729289978276938,,,,,,,,,1,0,,3,,,,,,,,,,915.1322484630218,915.1322484630218,915.1322484630218,915.1322484630218,916.6410638960078,916.6410638960078,916.6410638960078,916.6410638960078,916.6410638960078,916.6410638960078,916.6410638960078,916.6410638960078,repeat,number,numRpt,j,0.8065669070056174,vtsPrac,917.4751850900066,,,,,,,,,,,,,,,,,,,,,,,,,,,,95243,2022-11-17_08h05.55.763,vts_reward_expectancy_bt_OFFLINE,2022.2.4,59.93543862033485,
,,,,,,,,,,,,,,,,,,,,,,,,,,,,,,,,,,0,0,0,0,6,0,6,0,,,,,,,,,,,,,,,,,,,,,,,,,,,,0,837,,,924.6999346920056,,,B,139,circle,0.0016666169976815581,,,,,,,,,1,0,,3,,,,,,,,,,919.953868207027,919.953868207027,919.953868207027,919.953868207027,921.4629944540211,921.4629944540211,921.4629944540211,921.4629944540211,921.4629944540211,921.4629944540211,921.4629944540211,921.4629944540211,repeat,number,numRpt,j,1.7103804689832032,vtsPrac,923.1981232430262,,,,,,,,,,,,,,,,,,,,,,,,,,,,95243,2022-11-17_08h05.55.763,vts_reward_expectancy_bt_OFFLINE,2022.2.4,59.93543862033485,
,,,,,,,,,,,,,,,,,,,,,,,,,,,,,,,,,,0,0,0,0,7,0,7,0,,,,,,,,,,,,,,,,,,,,,,,,,,,,0,837,,,930.8732688470045,,,D,125,star,0.0015967100043781102,,,,,,,,,1,0,,3,,,,,,,,,,925.6774634660105,925.6774634660105,925.6774634660105,925.6774634660105,927.185909679014,927.185909679014,927.185909679014,927.185909679014,927.185909679014,927.185909679014,927.185909679014,927.185909679014,repeat,number,numRpt,j,2.163746487989556,vtsPrac,929.3715717670275,,,,,,,,,,,,,,,,,,,,,,,,,,,,95243,2022-11-17_08h05.55.763,vts_reward_expectancy_bt_OFFLINE,2022.2.4,59.93543862033485,
,,,,,,,,,,,,,,,,,,,,,,,,,,,,,,,,,,0,0,0,0,8,0,8,0,,,,,,,,,,,,,,,,,,,,,,,,,,,,0,837,,,937.1469611240027,,,U,181,triangle,0.0016298159898724407,,,,,,,,,1,0,,3,,,,,,,,,,931.8518080600188,931.8518080600188,931.8518080600188,931.8518080600188,933.3593865210132,933.3593865210132,933.3593865210132,933.3593865210132,933.3593865210132,933.3593865210132,933.3593865210132,933.3593865210132,repeat,number,numRpt,k,2.2571834579866845,vtsPrac,935.6452946210047,,,,,,,,,,,,,,,,,,,,,,,,,,,,95243,2022-11-17_08h05.55.763,vts_reward_expectancy_bt_OFFLINE,2022.2.4,59.93543862033485,
,,,,,,,,,,,,,,,,,,,,,,,,,,,,,,,,,,0,0,0,0,9,0,9,0,,,,,,,,,,,,,,,,,,,,,,,,,,,,0,837,,,942.3695380370191,,,S,174,circle,0.0014601940056309104,,,,,,,,,1,0,,3,,,,,,,,,,938.1263858790044,938.1263858790044,938.1263858790044,938.1263858790044,939.6330029840174,939.6330029840174,939.6330029840174,939.6330029840174,939.6330029840174,939.6330029840174,939.6330029840174,939.6330029840174,repeat,number,numRpt,k,1.202521886996692,vtsPrac,940.8678976590163,,,,,,,,,,,,,,,,,,,,,,,,,,,,95243,2022-11-17_08h05.55.763,vts_reward_expectancy_bt_OFFLINE,2022.2.4,59.93543862033485,
,,,,,,,,,,,,,,,,,,,,,,,,,,,,,,,,,,0,0,0,0,10,0,10,0,,,,,,,,,,,,,,,,,,,,,,,,,,,,0,837,,,947.3417700130085,,,B,139,hexagon,0.0018117420258931816,,,,,,,,,1,0,,3,,,,,,,,,,943.3462718140217,943.3462718140217,943.3462718140217,943.3462718140217,944.8554738580133,944.8554738580133,944.8554738580133,944.8554738580133,944.8554738580133,944.8554738580133,944.8554738580133,944.8554738580133,repeat,number,numRpt,j,0.9637518609815743,vtsPrac,945.8398292980273,,,,,,,,,,,,,,,,,,,,,,,,,,,,95243,2022-11-17_08h05.55.763,vts_reward_expectancy_bt_OFFLINE,2022.2.4,59.93543862033485,
,,,,,,,,,,,,,,,,,,,,,,,,,,,,,,,,,,0,0,0,0,11,0,11,0,,,,,,,,,,,,,,,,,,,,,,,,,,,,0,837,,,952.1800220959994,,,Y,160,star,0.0014181930164340883,,,,,,,,,1,0,,3,,,,,,,,,,948.3197921210085,948.3197921210085,948.3197921210085,948.3197921210085,949.827628169005,949.827628169005,949.827628169005,949.827628169005,949.827628169005,949.827628169005,949.827628169005,949.827628169005,repeat,number,numRpt,k,0.8294169660075568,vtsPrac,950.6785188350186,,,,,,,,,,,,,,,,,,,,,,,,,,,,95243,2022-11-17_08h05.55.763,vts_reward_expectancy_bt_OFFLINE,2022.2.4,59.93543862033485,
,,,,,,,,,,,,,,,,,,,,,,,,,,,,,,,,,,0,0,0,0,12,0,12,0,,,,,,,,,,,,,,,,,,,,,,,,,,,,0,837,,,957.5861299110111,,,Y,167,hexagon,0.0016219069948419929,,,,,,,,,1,0,,3,,,,,,,,,,953.1566572700103,953.1566572700103,953.1566572700103,953.1566572700103,954.6660975310078,954.6660975310078,954.6660975310078,954.6660975310078,954.6660975310078,954.6660975310078,954.6660975310078,954.6660975310078,switch,letter,lettSwt,f,1.3911610750074033,vtsPrac,956.0844052260218,,,,,,,,,,,,,,,,,,,,,,,,,,,,95243,2022-11-17_08h05.55.763,vts_reward_expectancy_bt_OFFLINE,2022.2.4,59.93543862033485,
,,,,,,,,,,,,,,,,,,,,,,,,,,,,,,,,,,0,0,0,0,13,0,13,0,,,,,,,,,,,,,,,,,,,,,,,,,,,,0,837,,,963.0255102990195,,,S,125,triangle,0.0016056740132626146,,,,,,,,,1,0,,3,,,,,,,,,,958.5638207900047,958.5638207900047,958.5638207900047,958.5638207900047,960.0722279070178,960.0722279070178,960.0722279070178,960.0722279070178,960.0722279070178,960.0722279070178,960.0722279070178,960.0722279070178,repeat,letter,lettRpt,f,1.4193750350095797,vtsPrac,961.5240815290017,,,,,,,,,,,,,,,,,,,,,,,,,,,,95243,2022-11-17_08h05.55.763,vts_reward_expectancy_bt_OFFLINE,2022.2.4,59.93543862033485,
,,,,,,,,,,,,,,,,,,,,,,,,,,,,,,,,,,0,0,0,0,14,0,14,0,,,,,,,,,,,,,,,,,,,,,,,,,,,,0,837,,,967.5137553970271,,,B,174,circle,0.001581607008120045,,,,,,,,,1,0,,3,,,,,,,,,,964.003127760021,964.003127760021,964.003127760021,964.003127760021,965.5115462890244,965.5115462890244,965.5115462890244,965.5115462890244,965.5115462890244,965.5115462890244,965.5115462890244,965.5115462890244,repeat,letter,lettRpt,d,0.47951997999916784,vtsPrac,966.012145176006,,,,,,,,,,,,,,,,,,,,,,,,,,,,95243,2022-11-17_08h05.55.763,vts_reward_expectancy_bt_OFFLINE,2022.2.4,59.93543862033485,
,,,,,,,,,,,,,,,,,,,,,,,,,,,,,,,,,,0,0,0,0,15,0,15,0,,,,,,,,,,,,,,,,,,,,,,,,,,,,0,837,,,973.3034144930134,,,H,139,hexagon,0.001687270007096231,,,,,,,,,1,0,,3,,,,,,,,,,968.4914485910267,968.4914485910267,968.4914485910267,968.4914485910267,969.9997109940159,969.9997109940159,969.9997109940159,969.9997109940159,969.9997109940159,969.9997109940159,969.9997109940159,969.9997109940159,repeat,letter,lettRpt,d,1.7738304550002795,vtsPrac,971.8017760900257,,,,,,,,,,,,,,,,,,,,,,,,,,,,95243,2022-11-17_08h05.55.763,vts_reward_expectancy_bt_OFFLINE,2022.2.4,59.93543862033485,
,,,,,,,,,,,,,,,,,,,,,,,,,,,,,,,,,,0,0,0,0,16,0,16,0,,,,,,,,,,,,,,,,,,,,,,,,,,,,0,837,,,978.2256471080182,,,U,132,triangle,0.0016899899928830564,,,,,,,,,1,0,,3,,,,,,,,,,974.2803560870234,974.2803560870234,974.2803560870234,974.2803560870234,975.7897133190127,975.7897133190127,975.7897133190127,975.7897133190127,975.7897133190127,975.7897133190127,975.7897133190127,975.7897133190127,repeat,letter,lettRpt,f,0.9118061930057593,vtsPrac,976.7239511530206,,,,,,,,,,,,,,,,,,,,,,,,,,,,95243,2022-11-17_08h05.55.763,vts_reward_expectancy_bt_OFFLINE,2022.2.4,59.93543862033485,
,,,,,,,,,,,,,,,,,,,,,,,,,,,,,,,,,,0,0,0,0,17,0,17,0,,,,,,,,,,,,,,,,,,,,,,,,,,,,0,837,,,983.3979612399999,,,F,167,star,0.0016313069791067392,,,,,,,,,1,0,,3,,,,,,,,,,979.2040478550189,979.2040478550189,979.2040478550189,979.2040478550189,980.7121818030137,980.7121818030137,980.7121818030137,980.7121818030137,980.7121818030137,980.7121818030137,980.7121818030137,980.7121818030137,repeat,letter,lettRpt,d,1.1655797709827311,vtsPrac,981.896415561001,,,,,,,,,,,,,,,,,,,,,,,,,,,,95243,2022-11-17_08h05.55.763,vts_reward_expectancy_bt_OFFLINE,2022.2.4,59.93543862033485,
,,,,,,,,,,,,,,,,,,,,,,,,,,,,,,,,,,0,0,0,0,18,0,18,0,,,,,,,,,,,,,,,,,,,,,,,,,,,,0,837,,,988.2031517380092,,,B,174,hexagon,0.0010359250009059906,,,,,,,,,1,0,,3,,,,,,,,,,984.3758994780073,984.3758994780073,984.3758994780073,984.3758994780073,985.8841627830116,985.8841627830116,985.8841627830116,985.8841627830116,985.8841627830116,985.8841627830116,985.8841627830116,985.8841627830116,repeat,letter,lettRpt,d,0.7852402770076878,vtsPrac,986.7015980530123,,,,,,,,,,,,,,,,,,,,,,,,,,,,95243,2022-11-17_08h05.55.763,vts_reward_expectancy_bt_OFFLINE,2022.2.4,59.93543862033485,
,,,,,,,,,,,,,,,,,,,,,,,,,,,,,,,,,,0,0,0,0,19,0,19,0,,,,,,,,,,,,,,,,,,,,,,,,,,,,0,837,,,993.0418719540176,,,W,146,star,0.0016640780086163431,,,,,,,,,1,0,,3,,,,,,,,,,989.1822280420165,989.1822280420165,989.1822280420165,989.1822280420165,990.6893321830139,990.6893321830139,990.6893321830139,990.6893321830139,990.6893321830139,990.6893321830139,990.6893321830139,990.6893321830139,repeat,letter,lettRpt,f,0.8292725229985081,vtsPrac,991.5402107430273,,,,,,,,,,,,,,,,,,,,,,,,,,,,95243,2022-11-17_08h05.55.763,vts_reward_expectancy_bt_OFFLINE,2022.2.4,59.93543862033485,
,,,,,,,,,,,,,,,,,,,,,,,,,,,,,,,,,,0,0,0,0,20,0,20,0,,,,,,,,,,,,,,,,,,,,,,,,,,,,0,837,,,999.5490306440042,,,H,146,triangle,0.00127161800628528,,,,,,,,,1,0,,3,,,,,,,,,,994.01959661601,994.01959661601,994.01959661601,994.01959661601,995.5281609800004,995.5281609800004,995.5281609800004,995.5281609800004,995.5281609800004,995.5281609800004,995.5281609800004,995.5281609800004,switch,number,numSwt,j,2.4927728610055055,vtsPrac,998.0473056290066,,,,,,,,,,,,,,,,,,,,,,,,,,,,95243,2022-11-17_08h05.55.763,vts_reward_expectancy_bt_OFFLINE,2022.2.4,59.93543862033485,
,,,,,,,,,,,,,,,,,,,,,,,,,,,,,,,,,,0,0,0,0,21,0,21,0,,,,,,,,,,,,,,,,,,,,,,,,,,,,0,837,,,1005.1051963610225,,,W,160,circle,0.0016218789969570935,,,,,,,,,1,0,,3,,,,,,,,,,1000.5267811730155,1000.5267811730155,1000.5267811730155,1000.5267811730155,1002.0351614830142,1002.0351614830142,1002.0351614830142,1002.0351614830142,1002.0351614830142,1002.0351614830142,1002.0351614830142,1002.0351614830142,switch,letter,lettSwt,f,1.5433078269998077,vtsPrac,1003.6035350570164,,,,,,,,,,,,,,,,,,,,,,,,,,,,95243,2022-11-17_08h05.55.763,vts_reward_expectancy_bt_OFFLINE,2022.2.4,59.93543862033485,
