LTriangleOpac,LCircleOpac,LHexagonOpac,LStarOpac,RTriangleOpac,RCircleOpac,RHexagonOpac,RStarOpac,LShape_ID,RShape_ID,training_blocks.thisRepN,training_blocks.thisTrialN,training_blocks.thisN,training_blocks.thisIndex,training.thisRepN,training.thisTrialN,training.thisN,training.thisIndex,task1_prac_redo.thisRepN,task1_prac_redo.thisTrialN,task1_prac_redo.thisN,task1_prac_redo.thisIndex,task1_prac_trials.thisRepN,task1_prac_trials.thisTrialN,task1_prac_trials.thisN,task1_prac_trials.thisIndex,task2_prac_redo.thisRepN,task2_prac_redo.thisTrialN,task2_prac_redo.thisN,task2_prac_redo.thisIndex,task2_praac_trials.thisRepN,task2_praac_trials.thisTrialN,task2_praac_trials.thisN,task2_praac_trials.thisIndex,vts_prac_redo.thisRepN,vts_prac_redo.thisTrialN,vts_prac_redo.thisN,vts_prac_redo.thisIndex,vts_practice_trials.thisRepN,vts_practice_trials.thisTrialN,vts_practice_trials.thisN,vts_practice_trials.thisIndex,trials_norew.thisRepN,trials_norew.thisTrialN,trials_norew.thisN,trials_norew.thisIndex,block.thisRepN,block.thisTrialN,block.thisN,block.thisIndex,trials_rew.thisRepN,trials_rew.thisTrialN,trials_rew.thisN,trials_rew.thisIndex,key_resp.started,key_resp.keys,key_resp.rt,left_circle.started,right_circle.started,left_triangle.started,right_triangle.started,left_star.started,right_star.started,left_hexagon.started,right_hexagon.started,training_fix.started,training_resp.started,training_resp.keys,training_resp.rt,points_trial,points_cumul,trainBlock,training_feedback_txt.started,training_feedback_txt.stopped,fix.started,fix.stopped,curr_topStim,curr_bottStim,curr_shape,ISI.started,tgt_fix_prac1.started,top_target_prac1.started,bott_target_prac1.started,target_resp_prac1.started,top_target_prac1.stopped,bott_target_prac1.stopped,target_resp_prac1.stopped,acc,E1,target_resp_prac1.keys,pracBlock,prac_fback_text.started,target_resp_prac1.rt,prac_fback_text.stopped,tgt_fix_prac2.started,top_target_prac2.started,bott_target_prac2.started,target_resp_prac2.started,target_resp_prac2.keys,target_resp_prac2.rt,star.started,hegagon.started,triangle.started,circle.started,top_target.started,tgt_fix.started,bot_target.started,target_resp.started,star.stopped,hegagon.stopped,triangle.stopped,circle.stopped,alt,task,condition,target_resp.keys,target_resp.rt,rewCond,vts_fback.started,vts_fback.stopped,blockNum,norew_fback.started,norew_fback.stopped,key_resp_2.keys,key_resp_2.rt,rewExpectancy,feedbk_text.started,feedbk_text.stopped,text_3.started,text_3.stopped,button.started,debrief.index,debrief.itemText,debrief.type,debrief.granularity,debrief.font,debrief.markerColor,debrief.response,debrief.rt,button.numClicks,button.timesOn,button.timesOff,participant,date,expName,psychopyVersion,frameRate,
,,,,,,,,,,,,,,,,,,,,,,,,,,,,,,,,,,,,,,,,,,,,,,,,,,,,,,1321.3237576730025,space,13.684884792019147,,,,,,,,,,,,,,,,,,,,,,,,,,,,,,,,,,,,,,,,,,,,,,,,,,,,,,,,,,,,,,,,,,,,,,,,,,,,,,,,,,,,,,95450,2022-10-28_15h01.34.934,vts_reward_expectancy_bt_OFFLINE,2022.2.4,59.91780583007271,
0,0,0,1,1,0,0,0,star,triangle,0,0,0,0,0,0,0,9,,,,,,,,,,,,,,,,,,,,,,,,,,,,,,,,,,,,,,,,1348.7458544659894,1348.7458544659894,1348.7458544659894,1348.7458544659894,1348.7458544659894,1348.7458544659894,1348.7458544659894,1348.7458544659894,1348.7458544659894,1348.7458544659894,a,2.2873577360005584,10,10,0,1351.0555367670022,1352.5544660410087,1352.5544660410087,1353.0543692889914,,,,,,,,,,,,,,,,,,,,,,,,,,,,,,,,,,,,,,,,,,,,,,,,,,,,,,,,,,,,,,,,,,,95450,2022-10-28_15h01.34.934,vts_reward_expectancy_bt_OFFLINE,2022.2.4,59.91780583007271,
1,0,0,0,0,0,1,0,triangle,hexagon,0,0,0,0,0,1,1,1,,,,,,,,,,,,,,,,,,,,,,,,,,,,,,,,,,,,,,,,1353.0543692889914,1353.0543692889914,1353.0543692889914,1353.0543692889914,1353.0543692889914,1353.0543692889914,1353.0543692889914,1353.0543692889914,1353.0543692889914,1353.0543692889914,l,1.1148598110012244,10,20,0,1354.1896569399978,,1355.6908417230006,,,,,,,,,,,,,,,,,,,,,,,,,,,,,,,,,,,,,,,,,,,,,,,,,,,,,,,,,,,,,,,,,,,,95450,2022-10-28_15h01.34.934,vts_reward_expectancy_bt_OFFLINE,2022.2.4,59.91780583007271,
0,0,0,1,0,0,1,0,star,hexagon,0,0,0,0,0,2,2,11,,,,,,,,,,,,,,,,,,,,,,,,,,,,,,,,,,,,,,,,1356.1908721069922,1356.1908721069922,1356.1908721069922,1356.1908721069922,1356.1908721069922,1356.1908721069922,1356.1908721069922,1356.1908721069922,1356.1908721069922,1356.1908721069922,a,1.1543006869906094,1,21,0,1357.375594498997,1358.8751042349904,1358.8751042349904,1359.3754327390052,,,,,,,,,,,,,,,,,,,,,,,,,,,,,,,,,,,,,,,,,,,,,,,,,,,,,,,,,,,,,,,,,,,95450,2022-10-28_15h01.34.934,vts_reward_expectancy_bt_OFFLINE,2022.2.4,59.91780583007271,
0,1,0,0,0,0,0,1,circle,star,0,0,0,0,0,3,3,5,,,,,,,,,,,,,,,,,,,,,,,,,,,,,,,,,,,,,,,,1359.3754327390052,1359.3754327390052,1359.3754327390052,1359.3754327390052,1359.3754327390052,1359.3754327390052,1359.3754327390052,1359.3754327390052,1359.3754327390052,1359.3754327390052,a,1.1695139140065294,1,22,0,1360.573662261013,,1362.078453819995,,,,,,,,,,,,,,,,,,,,,,,,,,,,,,,,,,,,,,,,,,,,,,,,,,,,,,,,,,,,,,,,,,,,95450,2022-10-28_15h01.34.934,vts_reward_expectancy_bt_OFFLINE,2022.2.4,59.91780583007271,
0,0,0,1,0,1,0,0,star ,circle,0,0,0,0,0,4,4,10,,,,,,,,,,,,,,,,,,,,,,,,,,,,,,,,,,,,,,,,1362.5785700510023,1362.5785700510023,1362.5785700510023,1362.5785700510023,1362.5785700510023,1362.5785700510023,1362.5785700510023,1362.5785700510023,1362.5785700510023,1362.5785700510023,a,0.9816877629782539,1,23,0,1363.5788448129897,1365.0793369240128,1365.0793369240128,1365.5773314760008,,,,,,,,,,,,,,,,,,,,,,,,,,,,,,,,,,,,,,,,,,,,,,,,,,,,,,,,,,,,,,,,,,,95450,2022-10-28_15h01.34.934,vts_reward_expectancy_bt_OFFLINE,2022.2.4,59.91780583007271,
0,0,1,0,0,1,0,0,hexagon,circle,0,0,0,0,0,5,5,7,,,,,,,,,,,,,,,,,,,,,,,,,,,,,,,,,,,,,,,,1365.5773314760008,1365.5773314760008,1365.5773314760008,1365.5773314760008,1365.5773314760008,1365.5773314760008,1365.5773314760008,1365.5773314760008,1365.5773314760008,1365.5773314760008,a,0.9118944150104653,1,24,0,1366.5149737989996,1368.0157843439956,1368.0157843439956,1368.515807621996,,,,,,,,,,,,,,,,,,,,,,,,,,,,,,,,,,,,,,,,,,,,,,,,,,,,,,,,,,,,,,,,,,,95450,2022-10-28_15h01.34.934,vts_reward_expectancy_bt_OFFLINE,2022.2.4,59.91780583007271,
1,0,0,0,0,1,0,0,triangle,circle,0,0,0,0,0,6,6,0,,,,,,,,,,,,,,,,,,,,,,,,,,,,,,,,,,,,,,,,1368.515807621996,1368.515807621996,1368.515807621996,1368.515807621996,1368.515807621996,1368.515807621996,1368.515807621996,1368.515807621996,1368.515807621996,1368.515807621996,l,0.9093433730013203,10,34,0,1369.4502006669936,,1370.9516381419962,,,,,,,,,,,,,,,,,,,,,,,,,,,,,,,,,,,,,,,,,,,,,,,,,,,,,,,,,,,,,,,,,,,,95450,2022-10-28_15h01.34.934,vts_reward_expectancy_bt_OFFLINE,2022.2.4,59.91780583007271,
0,0,1,0,1,0,0,0,hexagon,triangle,0,0,0,0,0,7,7,6,,,,,,,,,,,,,,,,,,,,,,,,,,,,,,,,,,,,,,,,1371.4519341659907,1371.4519341659907,1371.4519341659907,1371.4519341659907,1371.4519341659907,1371.4519341659907,1371.4519341659907,1371.4519341659907,1371.4519341659907,1371.4519341659907,l,1.0688320939952973,10,44,0,1372.5524617019983,1374.052755259996,1374.052755259996,1374.5533273449983,,,,,,,,,,,,,,,,,,,,,,,,,,,,,,,,,,,,,,,,,,,,,,,,,,,,,,,,,,,,,,,,,,,95450,2022-10-28_15h01.34.934,vts_reward_expectancy_bt_OFFLINE,2022.2.4,59.91780583007271,
0,0,1,0,0,0,0,1,hexagon,star,0,0,0,0,0,8,8,8,,,,,,,,,,,,,,,,,,,,,,,,,,,,,,,,,,,,,,,,1374.5533273449983,1374.5533273449983,1374.5533273449983,1374.5533273449983,1374.5533273449983,1374.5533273449983,1374.5533273449983,1374.5533273449983,1374.5533273449983,1374.5533273449983,l,1.031461145990761,1,45,0,1375.6119518099877,,1377.1227342649945,,,,,,,,,,,,,,,,,,,,,,,,,,,,,,,,,,,,,,,,,,,,,,,,,,,,,,,,,,,,,,,,,,,,95450,2022-10-28_15h01.34.934,vts_reward_expectancy_bt_OFFLINE,2022.2.4,59.91780583007271,
0,1,0,0,1,0,0,0,circle,triangle,0,0,0,0,0,9,9,3,,,,,,,,,,,,,,,,,,,,,,,,,,,,,,,,,,,,,,,,1377.6226274209912,1377.6226274209912,1377.6226274209912,1377.6226274209912,1377.6226274209912,1377.6226274209912,1377.6226274209912,1377.6226274209912,1377.6226274209912,1377.6226274209912,a,1.1467137720028404,1,46,0,1378.7894863399852,1380.2902938580082,1380.2902938580082,,,,,,,,,,,,,,,,,,,,,,,,,,,,,,,,,,,,,,,,,,,,,,,,,,,,,,,,,,,,,,,,,,,,95450,2022-10-28_15h01.34.934,vts_reward_expectancy_bt_OFFLINE,2022.2.4,59.91780583007271,
0,1,0,0,0,0,1,0,circle,hexagon,0,0,0,0,0,10,10,4,,,,,,,,,,,,,,,,,,,,,,,,,,,,,,,,,,,,,,,,1380.7924012879957,1380.7924012879957,1380.7924012879957,1380.7924012879957,1380.7924012879957,1380.7924012879957,1380.7924012879957,1380.7924012879957,1380.7924012879957,1380.7924012879957,a,1.193163865013048,10,56,0,1382.010192324,1383.5100986369944,1383.5100986369944,1384.010145601991,,,,,,,,,,,,,,,,,,,,,,,,,,,,,,,,,,,,,,,,,,,,,,,,,,,,,,,,,,,,,,,,,,,95450,2022-10-28_15h01.34.934,vts_reward_expectancy_bt_OFFLINE,2022.2.4,59.91780583007271,
1,0,0,0,0,0,0,1,triangle,star,0,0,0,0,0,11,11,2,,,,,,,,,,,,,,,,,,,,,,,,,,,,,,,,,,,,,,,,1384.010145601991,1384.010145601991,1384.010145601991,1384.010145601991,1384.010145601991,1384.010145601991,1384.010145601991,1384.010145601991,1384.010145601991,1384.010145601991,a,1.1902625219954643,10,66,0,1385.226800444012,,1386.7295995700115,,,,,,,,,,,,,,,,,,,,,,,,,,,,,,,,,,,,,,,,,,,,,,,,,,,,,,,,,,,,,,,,,,,,95450,2022-10-28_15h01.34.934,vts_reward_expectancy_bt_OFFLINE,2022.2.4,59.91780583007271,
0,1,0,0,1,0,0,0,circle,triangle,0,0,0,0,1,0,12,3,,,,,,,,,,,,,,,,,,,,,,,,,,,,,,,,,,,,,,,,1387.2299772140104,1387.2299772140104,1387.2299772140104,1387.2299772140104,1387.2299772140104,1387.2299772140104,1387.2299772140104,1387.2299772140104,1387.2299772140104,1387.2299772140104,l,1.0183048140024766,10,76,0,1388.2801394170092,1389.7805531790073,1389.7805531790073,1390.2808201010048,,,,,,,,,,,,,,,,,,,,,,,,,,,,,,,,,,,,,,,,,,,,,,,,,,,,,,,,,,,,,,,,,,,95450,2022-10-28_15h01.34.934,vts_reward_expectancy_bt_OFFLINE,2022.2.4,59.91780583007271,
1,0,0,0,0,1,0,0,triangle,circle,0,0,0,0,1,1,13,0,,,,,,,,,,,,,,,,,,,,,,,,,,,,,,,,,,,,,,,,1390.2808201010048,1390.2808201010048,1390.2808201010048,1390.2808201010048,1390.2808201010048,1390.2808201010048,1390.2808201010048,1390.2808201010048,1390.2808201010048,1390.2808201010048,a,0.9357380669971462,1,77,0,1391.2497186750115,1392.750513201987,1392.750513201987,1393.25060657601,,,,,,,,,,,,,,,,,,,,,,,,,,,,,,,,,,,,,,,,,,,,,,,,,,,,,,,,,,,,,,,,,,,95450,2022-10-28_15h01.34.934,vts_reward_expectancy_bt_OFFLINE,2022.2.4,59.91780583007271,
0,0,0,1,0,0,1,0,star,hexagon,0,0,0,0,1,2,14,11,,,,,,,,,,,,,,,,,,,,,,,,,,,,,,,,,,,,,,,,1393.25060657601,1393.25060657601,1393.25060657601,1393.25060657601,1393.25060657601,1393.25060657601,1393.25060657601,1393.25060657601,1393.25060657601,1393.25060657601,l,0.9825301730015781,1,78,0,1394.2507896340103,,1395.7534057660087,,,,,,,,,,,,,,,,,,,,,,,,,,,,,,,,,,,,,,,,,,,,,,,,,,,,,,,,,,,,,,,,,,,,95450,2022-10-28_15h01.34.934,vts_reward_expectancy_bt_OFFLINE,2022.2.4,59.91780583007271,
0,1,0,0,0,0,1,0,circle,hexagon,0,0,0,0,1,3,15,4,,,,,,,,,,,,,,,,,,,,,,,,,,,,,,,,,,,,,,,,1396.2538685770123,1396.2538685770123,1396.2538685770123,1396.2538685770123,1396.2538685770123,1396.2538685770123,1396.2538685770123,1396.2538685770123,1396.2538685770123,1396.2538685770123,a,1.4505978009838145,10,88,0,1397.7368831089989,1399.2376125559967,1399.2376125559967,1399.7379836619948,,,,,,,,,,,,,,,,,,,,,,,,,,,,,,,,,,,,,,,,,,,,,,,,,,,,,,,,,,,,,,,,,,,95450,2022-10-28_15h01.34.934,vts_reward_expectancy_bt_OFFLINE,2022.2.4,59.91780583007271,
0,0,1,0,1,0,0,0,hexagon,triangle,0,0,0,0,1,4,16,6,,,,,,,,,,,,,,,,,,,,,,,,,,,,,,,,,,,,,,,,1399.7379836619948,1399.7379836619948,1399.7379836619948,1399.7379836619948,1399.7379836619948,1399.7379836619948,1399.7379836619948,1399.7379836619948,1399.7379836619948,1399.7379836619948,l,1.279210625012638,10,98,0,1401.0400422439852,,1402.5406584620068,1403.0408100349887,,,,,,,,,,,,,,,,,,,,,,,,,,,,,,,,,,,,,,,,,,,,,,,,,,,,,,,,,,,,,,,,,,,95450,2022-10-28_15h01.34.934,vts_reward_expectancy_bt_OFFLINE,2022.2.4,59.91780583007271,
1,0,0,0,0,0,1,0,triangle,hexagon,0,0,0,0,1,5,17,1,,,,,,,,,,,,,,,,,,,,,,,,,,,,,,,,,,,,,,,,1403.0408100349887,1403.0408100349887,1403.0408100349887,1403.0408100349887,1403.0408100349887,1403.0408100349887,1403.0408100349887,1403.0408100349887,1403.0408100349887,1403.0408100349887,a,1.1277120419836137,1,99,0,1404.192177379009,,1405.6934960339859,,,,,,,,,,,,,,,,,,,,,,,,,,,,,,,,,,,,,,,,,,,,,,,,,,,,,,,,,,,,,,,,,,,,95450,2022-10-28_15h01.34.934,vts_reward_expectancy_bt_OFFLINE,2022.2.4,59.91780583007271,
0,1,0,0,0,0,0,1,circle,star,0,0,0,0,1,6,18,5,,,,,,,,,,,,,,,,,,,,,,,,,,,,,,,,,,,,,,,,1406.1936594670115,1406.1936594670115,1406.1936594670115,1406.1936594670115,1406.1936594670115,1406.1936594670115,1406.1936594670115,1406.1936594670115,1406.1936594670115,1406.1936594670115,a,1.2158773749833927,1,100,0,1407.4278528369905,1408.928303866007,1408.928303866007,,,,,,,,,,,,,,,,,,,,,,,,,,,,,,,,,,,,,,,,,,,,,,,,,,,,,,,,,,,,,,,,,,,,95450,2022-10-28_15h01.34.934,vts_reward_expectancy_bt_OFFLINE,2022.2.4,59.91780583007271,
1,0,0,0,0,0,0,1,triangle,star,0,0,0,0,1,7,19,2,,,,,,,,,,,,,,,,,,,,,,,,,,,,,,,,,,,,,,,,1409.428722392011,1409.428722392011,1409.428722392011,1409.428722392011,1409.428722392011,1409.428722392011,1409.428722392011,1409.428722392011,1409.428722392011,1409.428722392011,l,0.8207006500160787,1,101,0,1410.2787775500037,,1411.7812190749974,,,,,,,,,,,,,,,,,,,,,,,,,,,,,,,,,,,,,,,,,,,,,,,,,,,,,,,,,,,,,,,,,,,,95450,2022-10-28_15h01.34.934,vts_reward_expectancy_bt_OFFLINE,2022.2.4,59.91780583007271,
0,0,1,0,0,1,0,0,hexagon,circle,0,0,0,0,1,8,20,7,,,,,,,,,,,,,,,,,,,,,,,,,,,,,,,,,,,,,,,,1412.281649638986,1412.281649638986,1412.281649638986,1412.281649638986,1412.281649638986,1412.281649638986,1412.281649638986,1412.281649638986,1412.281649638986,1412.281649638986,l,1.5186136359989177,10,111,0,1413.832072632009,1415.3327133920102,1415.3327133920102,,,,,,,,,,,,,,,,,,,,,,,,,,,,,,,,,,,,,,,,,,,,,,,,,,,,,,,,,,,,,,,,,,,,95450,2022-10-28_15h01.34.934,vts_reward_expectancy_bt_OFFLINE,2022.2.4,59.91780583007271,
0,0,1,0,0,0,0,1,hexagon,star,0,0,0,0,1,9,21,8,,,,,,,,,,,,,,,,,,,,,,,,,,,,,,,,,,,,,,,,1415.8344140209956,1415.8344140209956,1415.8344140209956,1415.8344140209956,1415.8344140209956,1415.8344140209956,1415.8344140209956,1415.8344140209956,1415.8344140209956,1415.8344140209956,l,1.6390693149878643,1,112,0,1417.502517277986,1419.002114953997,1419.002114953997,1419.502231002989,,,,,,,,,,,,,,,,,,,,,,,,,,,,,,,,,,,,,,,,,,,,,,,,,,,,,,,,,,,,,,,,,,,95450,2022-10-28_15h01.34.934,vts_reward_expectancy_bt_OFFLINE,2022.2.4,59.91780583007271,
0,0,0,1,0,1,0,0,star ,circle,0,0,0,0,1,10,22,10,,,,,,,,,,,,,,,,,,,,,,,,,,,,,,,,,,,,,,,,1419.502231002989,1419.502231002989,1419.502231002989,1419.502231002989,1419.502231002989,1419.502231002989,1419.502231002989,1419.502231002989,1419.502231002989,1419.502231002989,l,1.1629477289970964,1,113,0,1420.688117691985,1422.1886992960062,1422.1886992960062,,,,,,,,,,,,,,,,,,,,,,,,,,,,,,,,,,,,,,,,,,,,,,,,,,,,,,,,,,,,,,,,,,,,95450,2022-10-28_15h01.34.934,vts_reward_expectancy_bt_OFFLINE,2022.2.4,59.91780583007271,
0,0,0,1,1,0,0,0,star,triangle,0,0,0,0,1,11,23,9,,,,,,,,,,,,,,,,,,,,,,,,,,,,,,,,,,,,,,,,1422.688748251996,1422.688748251996,1422.688748251996,1422.688748251996,1422.688748251996,1422.688748251996,1422.688748251996,1422.688748251996,1422.688748251996,1422.688748251996,l,1.127801876020385,1,114,0,1423.8390331419942,1425.3397916760005,1425.3397916760005,,,,,,,,,,,,,,,,,,,,,,,,,,,,,,,,,,,,,,,,,,,,,,,,,,,,,,,,,,,,,,,,,,,,95450,2022-10-28_15h01.34.934,vts_reward_expectancy_bt_OFFLINE,2022.2.4,59.91780583007271,
0,1,0,0,0,0,0,1,circle,star,0,0,0,0,2,0,24,5,,,,,,,,,,,,,,,,,,,,,,,,,,,,,,,,,,,,,,,,1425.8419704560074,1425.8419704560074,1425.8419704560074,1425.8419704560074,1425.8419704560074,1425.8419704560074,1425.8419704560074,1425.8419704560074,1425.8419704560074,1425.8419704560074,a,1.950655292981537,1,115,0,1427.8090452220058,1429.309652705997,1429.309652705997,1429.809335152997,,,,,,,,,,,,,,,,,,,,,,,,,,,,,,,,,,,,,,,,,,,,,,,,,,,,,,,,,,,,,,,,,,,95450,2022-10-28_15h01.34.934,vts_reward_expectancy_bt_OFFLINE,2022.2.4,59.91780583007271,
1,0,0,0,0,0,0,1,triangle,star,0,0,0,0,2,1,25,2,,,,,,,,,,,,,,,,,,,,,,,,,,,,,,,,,,,,,,,,1429.809335152997,1429.809335152997,1429.809335152997,1429.809335152997,1429.809335152997,1429.809335152997,1429.809335152997,1429.809335152997,1429.809335152997,1429.809335152997,a,0.9994636150076985,1,116,0,1430.828740772995,1432.3295269290102,1432.3295269290102,1432.829539266997,,,,,,,,,,,,,,,,,,,,,,,,,,,,,,,,,,,,,,,,,,,,,,,,,,,,,,,,,,,,,,,,,,,95450,2022-10-28_15h01.34.934,vts_reward_expectancy_bt_OFFLINE,2022.2.4,59.91780583007271,
0,0,1,0,0,1,0,0,hexagon,circle,0,0,0,0,2,2,26,7,,,,,,,,,,,,,,,,,,,,,,,,,,,,,,,,,,,,,,,,1432.829539266997,1432.829539266997,1432.829539266997,1432.829539266997,1432.829539266997,1432.829539266997,1432.829539266997,1432.829539266997,1432.829539266997,1432.829539266997,l,1.1952600800141227,1,117,0,1434.0464614660013,1435.5470855919993,1435.5470855919993,,,,,,,,,,,,,,,,,,,,,,,,,,,,,,,,,,,,,,,,,,,,,,,,,,,,,,,,,,,,,,,,,,,,95450,2022-10-28_15h01.34.934,vts_reward_expectancy_bt_OFFLINE,2022.2.4,59.91780583007271,
1,0,0,0,0,1,0,0,triangle,circle,0,0,0,0,2,3,27,0,,,,,,,,,,,,,,,,,,,,,,,,,,,,,,,,,,,,,,,,1436.0491191750043,1436.0491191750043,1436.0491191750043,1436.0491191750043,1436.0491191750043,1436.0491191750043,1436.0491191750043,1436.0491191750043,1436.0491191750043,1436.0491191750043,l,1.1432616979873274,10,127,0,1437.2171408139984,1438.7166550300026,1438.7166550300026,1439.2168548349873,,,,,,,,,,,,,,,,,,,,,,,,,,,,,,,,,,,,,,,,,,,,,,,,,,,,,,,,,,,,,,,,,,,95450,2022-10-28_15h01.34.934,vts_reward_expectancy_bt_OFFLINE,2022.2.4,59.91780583007271,
0,0,0,1,1,0,0,0,star,triangle,0,0,0,0,2,4,28,9,,,,,,,,,,,,,,,,,,,,,,,,,,,,,,,,,,,,,,,,1439.2168548349873,1439.2168548349873,1439.2168548349873,1439.2168548349873,1439.2168548349873,1439.2168548349873,1439.2168548349873,1439.2168548349873,1439.2168548349873,1439.2168548349873,l,1.9278123510011937,1,128,0,1441.1704003560008,1442.6700610390108,1442.6700610390108,1443.169857527013,,,,,,,,,,,,,,,,,,,,,,,,,,,,,,,,,,,,,,,,,,,,,,,,,,,,,,,,,,,,,,,,,,,95450,2022-10-28_15h01.34.934,vts_reward_expectancy_bt_OFFLINE,2022.2.4,59.91780583007271,
0,1,0,0,0,0,1,0,circle,hexagon,0,0,0,0,2,5,29,4,,,,,,,,,,,,,,,,,,,,,,,,,,,,,,,,,,,,,,,,1443.169857527013,1443.169857527013,1443.169857527013,1443.169857527013,1443.169857527013,1443.169857527013,1443.169857527013,1443.169857527013,1443.169857527013,1443.169857527013,a,1.2703400339814834,10,138,0,1444.4716463460063,,1445.9728185429994,,,,,,,,,,,,,,,,,,,,,,,,,,,,,,,,,,,,,,,,,,,,,,,,,,,,,,,,,,,,,,,,,,,,95450,2022-10-28_15h01.34.934,vts_reward_expectancy_bt_OFFLINE,2022.2.4,59.91780583007271,
1,0,0,0,0,0,1,0,triangle,hexagon,0,0,0,0,2,6,30,1,,,,,,,,,,,,,,,,,,,,,,,,,,,,,,,,,,,,,,,,1446.472953982011,1446.472953982011,1446.472953982011,1446.472953982011,1446.472953982011,1446.472953982011,1446.472953982011,1446.472953982011,1446.472953982011,1446.472953982011,a,1.239370780007448,1,139,0,1447.7411340810067,1449.2410966219904,1449.2410966219904,1449.741402284999,,,,,,,,,,,,,,,,,,,,,,,,,,,,,,,,,,,,,,,,,,,,,,,,,,,,,,,,,,,,,,,,,,,95450,2022-10-28_15h01.34.934,vts_reward_expectancy_bt_OFFLINE,2022.2.4,59.91780583007271,
0,0,0,1,0,1,0,0,star ,circle,0,0,0,0,2,7,31,10,,,,,,,,,,,,,,,,,,,,,,,,,,,,,,,,,,,,,,,,1449.741402284999,1449.741402284999,1449.741402284999,1449.741402284999,1449.741402284999,1449.741402284999,1449.741402284999,1449.741402284999,1449.741402284999,1449.741402284999,l,1.2352466479933355,10,149,0,1450.9947487660102,1452.4941549159994,1452.4941549159994,1452.9940200829878,,,,,,,,,,,,,,,,,,,,,,,,,,,,,,,,,,,,,,,,,,,,,,,,,,,,,,,,,,,,,,,,,,,95450,2022-10-28_15h01.34.934,vts_reward_expectancy_bt_OFFLINE,2022.2.4,59.91780583007271,
0,0,0,1,0,0,1,0,star,hexagon,0,0,0,0,2,8,32,11,,,,,,,,,,,,,,,,,,,,,,,,,,,,,,,,,,,,,,,,1452.9940200829878,1452.9940200829878,1452.9940200829878,1452.9940200829878,1452.9940200829878,1452.9940200829878,1452.9940200829878,1452.9940200829878,1452.9940200829878,1452.9940200829878,a,1.3752781069779303,1,150,0,1454.3952509640076,,1455.896985149011,,,,,,,,,,,,,,,,,,,,,,,,,,,,,,,,,,,,,,,,,,,,,,,,,,,,,,,,,,,,,,,,,,,,95450,2022-10-28_15h01.34.934,vts_reward_expectancy_bt_OFFLINE,2022.2.4,59.91780583007271,
0,0,1,0,0,0,0,1,hexagon,star,0,0,0,0,2,9,33,8,,,,,,,,,,,,,,,,,,,,,,,,,,,,,,,,,,,,,,,,1456.397133652994,1456.397133652994,1456.397133652994,1456.397133652994,1456.397133652994,1456.397133652994,1456.397133652994,1456.397133652994,1456.397133652994,1456.397133652994,a,1.2523792969877832,1,151,0,1457.6808026549988,1459.1812680730072,1459.1812680730072,1459.6816737120098,,,,,,,,,,,,,,,,,,,,,,,,,,,,,,,,,,,,,,,,,,,,,,,,,,,,,,,,,,,,,,,,,,,95450,2022-10-28_15h01.34.934,vts_reward_expectancy_bt_OFFLINE,2022.2.4,59.91780583007271,
0,1,0,0,1,0,0,0,circle,triangle,0,0,0,0,2,10,34,3,,,,,,,,,,,,,,,,,,,,,,,,,,,,,,,,,,,,,,,,1459.6816737120098,1459.6816737120098,1459.6816737120098,1459.6816737120098,1459.6816737120098,1459.6816737120098,1459.6816737120098,1459.6816737120098,1459.6816737120098,1459.6816737120098,a,1.199171922984533,1,152,0,1460.9006610549986,1462.4010628550022,1462.4010628550022,,,,,,,,,,,,,,,,,,,,,,,,,,,,,,,,,,,,,,,,,,,,,,,,,,,,,,,,,,,,,,,,,,,,95450,2022-10-28_15h01.34.934,vts_reward_expectancy_bt_OFFLINE,2022.2.4,59.91780583007271,
0,0,1,0,1,0,0,0,hexagon,triangle,0,0,0,0,2,11,35,6,,,,,,,,,,,,,,,,,,,,,,,,,,,,,,,,,,,,,,,,1462.9015014700126,1462.9015014700126,1462.9015014700126,1462.9015014700126,1462.9015014700126,1462.9015014700126,1462.9015014700126,1462.9015014700126,1462.9015014700126,1462.9015014700126,l,1.035737518017413,1,153,0,1463.968410447007,1465.4689416649926,1465.4689416649926,,,,,,,,,,,,,,,,,,,,,,,,,,,,,,,,,,,,,,,,,,,,,,,,,,,,,,,,,,,,,,,,,,,,95450,2022-10-28_15h01.34.934,vts_reward_expectancy_bt_OFFLINE,2022.2.4,59.91780583007271,
1,0,0,0,0,0,0,1,triangle,star,0,0,0,0,3,0,36,2,,,,,,,,,,,,,,,,,,,,,,,,,,,,,,,,,,,,,,,,1465.970951182011,1465.970951182011,1465.970951182011,1465.970951182011,1465.970951182011,1465.970951182011,1465.970951182011,1465.970951182011,1465.970951182011,1465.970951182011,l,1.9743045140057802,1,154,0,1467.971911990986,1469.4724090780073,1469.4724090780073,1469.972394076991,,,,,,,,,,,,,,,,,,,,,,,,,,,,,,,,,,,,,,,,,,,,,,,,,,,,,,,,,,,,,,,,,,,95450,2022-10-28_15h01.34.934,vts_reward_expectancy_bt_OFFLINE,2022.2.4,59.91780583007271,
0,1,0,0,1,0,0,0,circle,triangle,0,0,0,0,3,1,37,3,,,,,,,,,,,,,,,,,,,,,,,,,,,,,,,,,,,,,,,,1469.972394076991,1469.972394076991,1469.972394076991,1469.972394076991,1469.972394076991,1469.972394076991,1469.972394076991,1469.972394076991,1469.972394076991,1469.972394076991,a,0.8686496810114477,1,155,0,1470.8578924770118,1472.3586874869943,1472.3586874869943,1472.8586605819874,,,,,,,,,,,,,,,,,,,,,,,,,,,,,,,,,,,,,,,,,,,,,,,,,,,,,,,,,,,,,,,,,,,95450,2022-10-28_15h01.34.934,vts_reward_expectancy_bt_OFFLINE,2022.2.4,59.91780583007271,
1,0,0,0,0,1,0,0,triangle,circle,0,0,0,0,3,2,38,0,,,,,,,,,,,,,,,,,,,,,,,,,,,,,,,,,,,,,,,,1472.8586605819874,1472.8586605819874,1472.8586605819874,1472.8586605819874,1472.8586605819874,1472.8586605819874,1472.8586605819874,1472.8586605819874,1472.8586605819874,1472.8586605819874,l,0.7423350610188209,10,165,0,1473.6266021720076,1475.1260107629932,1475.1260107629932,1475.625991554989,,,,,,,,,,,,,,,,,,,,,,,,,,,,,,,,,,,,,,,,,,,,,,,,,,,,,,,,,,,,,,,,,,,95450,2022-10-28_15h01.34.934,vts_reward_expectancy_bt_OFFLINE,2022.2.4,59.91780583007271,
0,0,0,1,0,0,1,0,star,hexagon,0,0,0,0,3,3,39,11,,,,,,,,,,,,,,,,,,,,,,,,,,,,,,,,,,,,,,,,1475.625991554989,1475.625991554989,1475.625991554989,1475.625991554989,1475.625991554989,1475.625991554989,1475.625991554989,1475.625991554989,1475.625991554989,1475.625991554989,l,1.2309501260169782,10,175,0,1476.8784792569932,1478.3792566939956,1478.3792566939956,1478.8791929240106,,,,,,,,,,,,,,,,,,,,,,,,,,,,,,,,,,,,,,,,,,,,,,,,,,,,,,,,,,,,,,,,,,,95450,2022-10-28_15h01.34.934,vts_reward_expectancy_bt_OFFLINE,2022.2.4,59.91780583007271,
1,0,0,0,0,0,1,0,triangle,hexagon,0,0,0,0,3,4,40,1,,,,,,,,,,,,,,,,,,,,,,,,,,,,,,,,,,,,,,,,1478.8791929240106,1478.8791929240106,1478.8791929240106,1478.8791929240106,1478.8791929240106,1478.8791929240106,1478.8791929240106,1478.8791929240106,1478.8791929240106,1478.8791929240106,a,1.3300677660154179,1,176,0,1480.2310034109978,,1481.7320608219889,,,,,,,,,,,,,,,,,,,,,,,,,,,,,,,,,,,,,,,,,,,,,,,,,,,,,,,,,,,,,,,,,,,,95450,2022-10-28_15h01.34.934,vts_reward_expectancy_bt_OFFLINE,2022.2.4,59.91780583007271,
0,0,1,0,1,0,0,0,hexagon,triangle,0,0,0,0,3,5,41,6,,,,,,,,,,,,,,,,,,,,,,,,,,,,,,,,,,,,,,,,1482.2322921550076,1482.2322921550076,1482.2322921550076,1482.2322921550076,1482.2322921550076,1482.2322921550076,1482.2322921550076,1482.2322921550076,1482.2322921550076,1482.2322921550076,l,1.0646980189776514,1,177,0,1483.316030026006,1484.8164847920125,1484.8164847920125,1485.3167488590116,,,,,,,,,,,,,,,,,,,,,,,,,,,,,,,,,,,,,,,,,,,,,,,,,,,,,,,,,,,,,,,,,,,95450,2022-10-28_15h01.34.934,vts_reward_expectancy_bt_OFFLINE,2022.2.4,59.91780583007271,
0,0,0,1,0,1,0,0,star ,circle,0,0,0,0,3,6,42,10,,,,,,,,,,,,,,,,,,,,,,,,,,,,,,,,,,,,,,,,1485.3167488590116,1485.3167488590116,1485.3167488590116,1485.3167488590116,1485.3167488590116,1485.3167488590116,1485.3167488590116,1485.3167488590116,1485.3167488590116,1485.3167488590116,l,0.9806947420001961,1,178,0,1486.318897774996,1487.8195742309908,1487.8195742309908,1488.3197799540067,,,,,,,,,,,,,,,,,,,,,,,,,,,,,,,,,,,,,,,,,,,,,,,,,,,,,,,,,,,,,,,,,,,95450,2022-10-28_15h01.34.934,vts_reward_expectancy_bt_OFFLINE,2022.2.4,59.91780583007271,
0,0,1,0,0,1,0,0,hexagon,circle,0,0,0,0,3,7,43,7,,,,,,,,,,,,,,,,,,,,,,,,,,,,,,,,,,,,,,,,1488.3197799540067,1488.3197799540067,1488.3197799540067,1488.3197799540067,1488.3197799540067,1488.3197799540067,1488.3197799540067,1488.3197799540067,1488.3197799540067,1488.3197799540067,l,0.8410827440093271,1,179,0,1489.1866510210093,,1490.6920622010075,,,,,,,,,,,,,,,,,,,,,,,,,,,,,,,,,,,,,,,,,,,,,,,,,,,,,,,,,,,,,,,,,,,,95450,2022-10-28_15h01.34.934,vts_reward_expectancy_bt_OFFLINE,2022.2.4,59.91780583007271,
0,1,0,0,0,0,0,1,circle,star,0,0,0,0,3,8,44,5,,,,,,,,,,,,,,,,,,,,,,,,,,,,,,,,,,,,,,,,1491.188979538012,1491.188979538012,1491.188979538012,1491.188979538012,1491.188979538012,1491.188979538012,1491.188979538012,1491.188979538012,1491.188979538012,1491.188979538012,a,0.8113333779911045,10,189,0,1492.0232790639857,1493.523299960012,1493.523299960012,,,,,,,,,,,,,,,,,,,,,,,,,,,,,,,,,,,,,,,,,,,,,,,,,,,,,,,,,,,,,,,,,,,,95450,2022-10-28_15h01.34.934,vts_reward_expectancy_bt_OFFLINE,2022.2.4,59.91780583007271,
0,0,1,0,0,0,0,1,hexagon,star,0,0,0,0,3,9,45,8,,,,,,,,,,,,,,,,,,,,,,,,,,,,,,,,,,,,,,,,1494.0233820499852,1494.0233820499852,1494.0233820499852,1494.0233820499852,1494.0233820499852,1494.0233820499852,1494.0233820499852,1494.0233820499852,1494.0233820499852,1494.0233820499852,l,1.4262734180083498,10,199,0,1495.4741138700047,,1496.9764134559955,,,,,,,,,,,,,,,,,,,,,,,,,,,,,,,,,,,,,,,,,,,,,,,,,,,,,,,,,,,,,,,,,,,,95450,2022-10-28_15h01.34.934,vts_reward_expectancy_bt_OFFLINE,2022.2.4,59.91780583007271,
0,0,0,1,1,0,0,0,star,triangle,0,0,0,0,3,10,46,9,,,,,,,,,,,,,,,,,,,,,,,,,,,,,,,,,,,,,,,,1497.476788444008,1497.476788444008,1497.476788444008,1497.476788444008,1497.476788444008,1497.476788444008,1497.476788444008,1497.476788444008,1497.476788444008,1497.476788444008,l,1.2360272769874427,1,200,0,1498.744976787013,1500.2442776619864,1500.2442776619864,,,,,,,,,,,,,,,,,,,,,,,,,,,,,,,,,,,,,,,,,,,,,,,,,,,,,,,,,,,,,,,,,,,,95450,2022-10-28_15h01.34.934,vts_reward_expectancy_bt_OFFLINE,2022.2.4,59.91780583007271,
0,1,0,0,0,0,1,0,circle,hexagon,0,0,0,0,3,11,47,4,,,,,,,,,,,,,,,,,,,,,,,,,,,,,,,,,,,,,,,,1500.7464103910024,1500.7464103910024,1500.7464103910024,1500.7464103910024,1500.7464103910024,1500.7464103910024,1500.7464103910024,1500.7464103910024,1500.7464103910024,1500.7464103910024,a,1.190390806994401,1,201,0,1501.9634423170064,1503.46347796201,1503.46347796201,1503.9694279349933,,,,,,,,,,,,,,,,,,,,,,,,,,,,,,,,,,,,,,,,,,,,,,,,,,,,,,,,,,,,,,,,,,,95450,2022-10-28_15h01.34.934,vts_reward_expectancy_bt_OFFLINE,2022.2.4,59.91780583007271,
0,0,0,1,0,0,1,0,star,hexagon,1,0,1,0,0,0,0,11,,,,,,,,,,,,,,,,,,,,,,,,,,,,,,,,,,,,,,,,1517.3518231239868,1517.3518231239868,1517.3518231239868,1517.3518231239868,1517.3518231239868,1517.3518231239868,1517.3518231239868,1517.3518231239868,1517.3518231239868,1517.3518231239868,a,1.4405762050009798,10,211,1,1518.825213670003,1520.3254131840076,1520.3254131840076,,,,,,,,,,,,,,,,,,,,,,,,,,,,,,,,,,,,,,,,,,,,,,,,,,,,,,,,,,,,,,,,,,,,95450,2022-10-28_15h01.34.934,vts_reward_expectancy_bt_OFFLINE,2022.2.4,59.91780583007271,
1,0,0,0,0,0,1,0,triangle,hexagon,1,0,1,0,0,1,1,1,,,,,,,,,,,,,,,,,,,,,,,,,,,,,,,,,,,,,,,,1520.8276065939863,1520.8276065939863,1520.8276065939863,1520.8276065939863,1520.8276065939863,1520.8276065939863,1520.8276065939863,1520.8276065939863,1520.8276065939863,1520.8276065939863,a,1.7647721740067936,10,221,1,1522.6113393960113,1524.1121065949847,1524.1121065949847,1524.6124253380112,,,,,,,,,,,,,,,,,,,,,,,,,,,,,,,,,,,,,,,,,,,,,,,,,,,,,,,,,,,,,,,,,,,95450,2022-10-28_15h01.34.934,vts_reward_expectancy_bt_OFFLINE,2022.2.4,59.91780583007271,
0,0,1,0,0,1,0,0,hexagon,circle,1,0,1,0,0,2,2,7,,,,,,,,,,,,,,,,,,,,,,,,,,,,,,,,,,,,,,,,1524.6124253380112,1524.6124253380112,1524.6124253380112,1524.6124253380112,1524.6124253380112,1524.6124253380112,1524.6124253380112,1524.6124253380112,1524.6124253380112,1524.6124253380112,l,0.9399542409810238,10,231,1,1525.5792307549855,,1527.0816392640118,,,,,,,,,,,,,,,,,,,,,,,,,,,,,,,,,,,,,,,,,,,,,,,,,,,,,,,,,,,,,,,,,,,,95450,2022-10-28_15h01.34.934,vts_reward_expectancy_bt_OFFLINE,2022.2.4,59.91780583007271,
0,0,0,1,0,1,0,0,star ,circle,1,0,1,0,0,3,3,10,,,,,,,,,,,,,,,,,,,,,,,,,,,,,,,,,,,,,,,,1527.5817650640092,1527.5817650640092,1527.5817650640092,1527.5817650640092,1527.5817650640092,1527.5817650640092,1527.5817650640092,1527.5817650640092,1527.5817650640092,1527.5817650640092,l,0.8671252049971372,10,241,1,1528.465797732002,1529.9659700290067,1529.9659700290067,1530.4661702690064,,,,,,,,,,,,,,,,,,,,,,,,,,,,,,,,,,,,,,,,,,,,,,,,,,,,,,,,,,,,,,,,,,,95450,2022-10-28_15h01.34.934,vts_reward_expectancy_bt_OFFLINE,2022.2.4,59.91780583007271,
0,1,0,0,1,0,0,0,circle,triangle,1,0,1,0,0,4,4,3,,,,,,,,,,,,,,,,,,,,,,,,,,,,,,,,,,,,,,,,1530.4661702690064,1530.4661702690064,1530.4661702690064,1530.4661702690064,1530.4661702690064,1530.4661702690064,1530.4661702690064,1530.4661702690064,1530.4661702690064,1530.4661702690064,a,0.7184061640000436,1,242,1,1531.2025684649998,1532.7024694700085,1532.7024694700085,1533.2022774420038,,,,,,,,,,,,,,,,,,,,,,,,,,,,,,,,,,,,,,,,,,,,,,,,,,,,,,,,,,,,,,,,,,,95450,2022-10-28_15h01.34.934,vts_reward_expectancy_bt_OFFLINE,2022.2.4,59.91780583007271,
0,0,1,0,1,0,0,0,hexagon,triangle,1,0,1,0,0,5,5,6,,,,,,,,,,,,,,,,,,,,,,,,,,,,,,,,,,,,,,,,1533.2022774420038,1533.2022774420038,1533.2022774420038,1533.2022774420038,1533.2022774420038,1533.2022774420038,1533.2022774420038,1533.2022774420038,1533.2022774420038,1533.2022774420038,l,1.1901959819952026,10,252,1,1534.4205774969887,,1535.9218828910089,,,,,,,,,,,,,,,,,,,,,,,,,,,,,,,,,,,,,,,,,,,,,,,,,,,,,,,,,,,,,,,,,,,,95450,2022-10-28_15h01.34.934,vts_reward_expectancy_bt_OFFLINE,2022.2.4,59.91780583007271,
0,0,0,1,1,0,0,0,star,triangle,1,0,1,0,0,6,6,9,,,,,,,,,,,,,,,,,,,,,,,,,,,,,,,,,,,,,,,,1536.4221652449924,1536.4221652449924,1536.4221652449924,1536.4221652449924,1536.4221652449924,1536.4221652449924,1536.4221652449924,1536.4221652449924,1536.4221652449924,1536.4221652449924,a,1.3467544699960854,1,253,1,1537.7904655110033,1539.2894849859877,1539.2894849859877,1539.789722193993,,,,,,,,,,,,,,,,,,,,,,,,,,,,,,,,,,,,,,,,,,,,,,,,,,,,,,,,,,,,,,,,,,,95450,2022-10-28_15h01.34.934,vts_reward_expectancy_bt_OFFLINE,2022.2.4,59.91780583007271,
0,1,0,0,0,0,0,1,circle,star,1,0,1,0,0,7,7,5,,,,,,,,,,,,,,,,,,,,,,,,,,,,,,,,,,,,,,,,1539.789722193993,1539.789722193993,1539.789722193993,1539.789722193993,1539.789722193993,1539.789722193993,1539.789722193993,1539.789722193993,1539.789722193993,1539.789722193993,a,0.9465660839923657,10,263,1,1540.7617336649855,,1542.2757580670004,,,,,,,,,,,,,,,,,,,,,,,,,,,,,,,,,,,,,,,,,,,,,,,,,,,,,,,,,,,,,,,,,,,,95450,2022-10-28_15h01.34.934,vts_reward_expectancy_bt_OFFLINE,2022.2.4,59.91780583007271,
0,0,1,0,0,0,0,1,hexagon,star,1,0,1,0,0,8,8,8,,,,,,,,,,,,,,,,,,,,,,,,,,,,,,,,,,,,,,,,1542.7762034359912,1542.7762034359912,1542.7762034359912,1542.7762034359912,1542.7762034359912,1542.7762034359912,1542.7762034359912,1542.7762034359912,1542.7762034359912,1542.7762034359912,l,1.0244883089908399,10,273,1,1543.8266145279922,1545.3270384320058,1545.3270384320058,,,,,,,,,,,,,,,,,,,,,,,,,,,,,,,,,,,,,,,,,,,,,,,,,,,,,,,,,,,,,,,,,,,,95450,2022-10-28_15h01.34.934,vts_reward_expectancy_bt_OFFLINE,2022.2.4,59.91780583007271,
1,0,0,0,0,1,0,0,triangle,circle,1,0,1,0,0,9,9,0,,,,,,,,,,,,,,,,,,,,,,,,,,,,,,,,,,,,,,,,1545.8291388709913,1545.8291388709913,1545.8291388709913,1545.8291388709913,1545.8291388709913,1545.8291388709913,1545.8291388709913,1545.8291388709913,1545.8291388709913,1545.8291388709913,l,0.7956973509863019,10,283,1,1546.6459523630037,1548.1463033480104,1548.1463033480104,1548.6464968830114,,,,,,,,,,,,,,,,,,,,,,,,,,,,,,,,,,,,,,,,,,,,,,,,,,,,,,,,,,,,,,,,,,,95450,2022-10-28_15h01.34.934,vts_reward_expectancy_bt_OFFLINE,2022.2.4,59.91780583007271,
0,1,0,0,0,0,1,0,circle,hexagon,1,0,1,0,0,10,10,4,,,,,,,,,,,,,,,,,,,,,,,,,,,,,,,,,,,,,,,,1548.6464968830114,1548.6464968830114,1548.6464968830114,1548.6464968830114,1548.6464968830114,1548.6464968830114,1548.6464968830114,1548.6464968830114,1548.6464968830114,1548.6464968830114,a,0.5618977400008589,10,293,1,1549.2302765669883,,1550.735697630007,,,,,,,,,,,,,,,,,,,,,,,,,,,,,,,,,,,,,,,,,,,,,,,,,,,,,,,,,,,,,,,,,,,,95450,2022-10-28_15h01.34.934,vts_reward_expectancy_bt_OFFLINE,2022.2.4,59.91780583007271,
1,0,0,0,0,0,0,1,triangle,star,1,0,1,0,0,11,11,2,,,,,,,,,,,,,,,,,,,,,,,,,,,,,,,,,,,,,,,,1551.2329464149952,1551.2329464149952,1551.2329464149952,1551.2329464149952,1551.2329464149952,1551.2329464149952,1551.2329464149952,1551.2329464149952,1551.2329464149952,1551.2329464149952,a,0.6076686790038366,10,303,1,1551.8662099810026,,1553.3670328909939,,,,,,,,,,,,,,,,,,,,,,,,,,,,,,,,,,,,,,,,,,,,,,,,,,,,,,,,,,,,,,,,,,,,95450,2022-10-28_15h01.34.934,vts_reward_expectancy_bt_OFFLINE,2022.2.4,59.91780583007271,
0,1,0,0,1,0,0,0,circle,triangle,1,0,1,0,1,0,12,3,,,,,,,,,,,,,,,,,,,,,,,,,,,,,,,,,,,,,,,,1553.867163679999,1553.867163679999,1553.867163679999,1553.867163679999,1553.867163679999,1553.867163679999,1553.867163679999,1553.867163679999,1553.867163679999,1553.867163679999,l,0.5731774519954342,1,304,1,1554.4684791319887,,1555.969748050993,,,,,,,,,,,,,,,,,,,,,,,,,,,,,,,,,,,,,,,,,,,,,,,,,,,,,,,,,,,,,,,,,,,,95450,2022-10-28_15h01.34.934,vts_reward_expectancy_bt_OFFLINE,2022.2.4,59.91780583007271,
0,0,0,1,0,0,1,0,star,hexagon,1,0,1,0,1,1,13,11,,,,,,,,,,,,,,,,,,,,,,,,,,,,,,,,,,,,,,,,1556.469933646993,1556.469933646993,1556.469933646993,1556.469933646993,1556.469933646993,1556.469933646993,1556.469933646993,1556.469933646993,1556.469933646993,1556.469933646993,a,0.9389158639824018,1,305,1,1557.4369759779947,1558.9376591200125,1558.9376591200125,1559.4376126709976,,,,,,,,,,,,,,,,,,,,,,,,,,,,,,,,,,,,,,,,,,,,,,,,,,,,,,,,,,,,,,,,,,,95450,2022-10-28_15h01.34.934,vts_reward_expectancy_bt_OFFLINE,2022.2.4,59.91780583007271,
1,0,0,0,0,0,0,1,triangle,star,1,0,1,0,1,2,14,2,,,,,,,,,,,,,,,,,,,,,,,,,,,,,,,,,,,,,,,,1559.4376126709976,1559.4376126709976,1559.4376126709976,1559.4376126709976,1559.4376126709976,1559.4376126709976,1559.4376126709976,1559.4376126709976,1559.4376126709976,1559.4376126709976,a,0.5954089459846728,1,306,1,1560.0542374629877,,1561.556791081006,,,,,,,,,,,,,,,,,,,,,,,,,,,,,,,,,,,,,,,,,,,,,,,,,,,,,,,,,,,,,,,,,,,,95450,2022-10-28_15h01.34.934,vts_reward_expectancy_bt_OFFLINE,2022.2.4,59.91780583007271,
0,0,1,0,1,0,0,0,hexagon,triangle,1,0,1,0,1,3,15,6,,,,,,,,,,,,,,,,,,,,,,,,,,,,,,,,,,,,,,,,1562.0570816929976,1562.0570816929976,1562.0570816929976,1562.0570816929976,1562.0570816929976,1562.0570816929976,1562.0570816929976,1562.0570816929976,1562.0570816929976,1562.0570816929976,l,1.1764871919876896,1,307,1,1563.257392739004,1564.7578826709941,1564.7578826709941,1565.2581715499982,,,,,,,,,,,,,,,,,,,,,,,,,,,,,,,,,,,,,,,,,,,,,,,,,,,,,,,,,,,,,,,,,,,95450,2022-10-28_15h01.34.934,vts_reward_expectancy_bt_OFFLINE,2022.2.4,59.91780583007271,
1,0,0,0,0,1,0,0,triangle,circle,1,0,1,0,1,4,16,0,,,,,,,,,,,,,,,,,,,,,,,,,,,,,,,,,,,,,,,,1565.2581715499982,1565.2581715499982,1565.2581715499982,1565.2581715499982,1565.2581715499982,1565.2581715499982,1565.2581715499982,1565.2581715499982,1565.2581715499982,1565.2581715499982,l,0.7987011450168211,10,317,1,1566.0782780069858,1567.5776274839882,1567.5776274839882,,,,,,,,,,,,,,,,,,,,,,,,,,,,,,,,,,,,,,,,,,,,,,,,,,,,,,,,,,,,,,,,,,,,95450,2022-10-28_15h01.34.934,vts_reward_expectancy_bt_OFFLINE,2022.2.4,59.91780583007271,
0,0,0,1,0,1,0,0,star ,circle,1,0,1,0,1,5,17,10,,,,,,,,,,,,,,,,,,,,,,,,,,,,,,,,,,,,,,,,1568.0780523949943,1568.0780523949943,1568.0780523949943,1568.0780523949943,1568.0780523949943,1568.0780523949943,1568.0780523949943,1568.0780523949943,1568.0780523949943,1568.0780523949943,l,1.1141965379938483,1,318,1,1569.2126638279879,1570.7119682740013,1570.7119682740013,,,,,,,,,,,,,,,,,,,,,,,,,,,,,,,,,,,,,,,,,,,,,,,,,,,,,,,,,,,,,,,,,,,,95450,2022-10-28_15h01.34.934,vts_reward_expectancy_bt_OFFLINE,2022.2.4,59.91780583007271,
0,1,0,0,0,0,1,0,circle,hexagon,1,0,1,0,1,6,18,4,,,,,,,,,,,,,,,,,,,,,,,,,,,,,,,,,,,,,,,,1571.2140466810088,1571.2140466810088,1571.2140466810088,1571.2140466810088,1571.2140466810088,1571.2140466810088,1571.2140466810088,1571.2140466810088,1571.2140466810088,1571.2140466810088,a,0.7467776899866294,10,328,1,1571.98224368901,1573.481401669007,1573.481401669007,1573.9815313660074,,,,,,,,,,,,,,,,,,,,,,,,,,,,,,,,,,,,,,,,,,,,,,,,,,,,,,,,,,,,,,,,,,,95450,2022-10-28_15h01.34.934,vts_reward_expectancy_bt_OFFLINE,2022.2.4,59.91780583007271,
0,0,1,0,0,0,0,1,hexagon,star,1,0,1,0,1,7,19,8,,,,,,,,,,,,,,,,,,,,,,,,,,,,,,,,,,,,,,,,1573.9815313660074,1573.9815313660074,1573.9815313660074,1573.9815313660074,1573.9815313660074,1573.9815313660074,1573.9815313660074,1573.9815313660074,1573.9815313660074,1573.9815313660074,l,1.0598261620034464,10,338,1,1575.0652143080079,,1576.567771667993,,,,,,,,,,,,,,,,,,,,,,,,,,,,,,,,,,,,,,,,,,,,,,,,,,,,,,,,,,,,,,,,,,,,95450,2022-10-28_15h01.34.934,vts_reward_expectancy_bt_OFFLINE,2022.2.4,59.91780583007271,
0,1,0,0,0,0,0,1,circle,star,1,0,1,0,1,8,20,5,,,,,,,,,,,,,,,,,,,,,,,,,,,,,,,,,,,,,,,,1577.0677723539993,1577.0677723539993,1577.0677723539993,1577.0677723539993,1577.0677723539993,1577.0677723539993,1577.0677723539993,1577.0677723539993,1577.0677723539993,1577.0677723539993,a,0.8135680629929993,10,348,1,1577.9016229439876,1579.4021257740096,1579.4021257740096,1579.902329628996,,,,,,,,,,,,,,,,,,,,,,,,,,,,,,,,,,,,,,,,,,,,,,,,,,,,,,,,,,,,,,,,,,,95450,2022-10-28_15h01.34.934,vts_reward_expectancy_bt_OFFLINE,2022.2.4,59.91780583007271,
1,0,0,0,0,0,1,0,triangle,hexagon,1,0,1,0,1,9,21,1,,,,,,,,,,,,,,,,,,,,,,,,,,,,,,,,,,,,,,,,1579.902329628996,1579.902329628996,1579.902329628996,1579.902329628996,1579.902329628996,1579.902329628996,1579.902329628996,1579.902329628996,1579.902329628996,1579.902329628996,l,1.514929281984223,10,358,1,1581.4380460240063,1582.938631781988,1582.938631781988,,,,,,,,,,,,,,,,,,,,,,,,,,,,,,,,,,,,,,,,,,,,,,,,,,,,,,,,,,,,,,,,,,,,95450,2022-10-28_15h01.34.934,vts_reward_expectancy_bt_OFFLINE,2022.2.4,59.91780583007271,
0,0,1,0,0,1,0,0,hexagon,circle,1,0,1,0,1,10,22,7,,,,,,,,,,,,,,,,,,,,,,,,,,,,,,,,,,,,,,,,1583.4387824430014,1583.4387824430014,1583.4387824430014,1583.4387824430014,1583.4387824430014,1583.4387824430014,1583.4387824430014,1583.4387824430014,1583.4387824430014,1583.4387824430014,l,1.3704832269868348,10,368,1,1584.8391975080012,,1586.341811575985,,,,,,,,,,,,,,,,,,,,,,,,,,,,,,,,,,,,,,,,,,,,,,,,,,,,,,,,,,,,,,,,,,,,95450,2022-10-28_15h01.34.934,vts_reward_expectancy_bt_OFFLINE,2022.2.4,59.91780583007271,
0,0,0,1,1,0,0,0,star,triangle,1,0,1,0,1,11,23,9,,,,,,,,,,,,,,,,,,,,,,,,,,,,,,,,,,,,,,,,1586.841966742999,1586.841966742999,1586.841966742999,1586.841966742999,1586.841966742999,1586.841966742999,1586.841966742999,1586.841966742999,1586.841966742999,1586.841966742999,a,1.3913415129936766,10,378,1,1588.2592111649865,1589.759638190997,1589.759638190997,1590.2597507869941,,,,,,,,,,,,,,,,,,,,,,,,,,,,,,,,,,,,,,,,,,,,,,,,,,,,,,,,,,,,,,,,,,,95450,2022-10-28_15h01.34.934,vts_reward_expectancy_bt_OFFLINE,2022.2.4,59.91780583007271,
1,0,0,0,0,0,0,1,triangle,star,1,0,1,0,2,0,24,2,,,,,,,,,,,,,,,,,,,,,,,,,,,,,,,,,,,,,,,,1590.2597507869941,1590.2597507869941,1590.2597507869941,1590.2597507869941,1590.2597507869941,1590.2597507869941,1590.2597507869941,1590.2597507869941,1590.2597507869941,1590.2597507869941,l,2.141133021999849,1,379,1,1592.4304087320052,1593.9294069489988,1593.9294069489988,1594.4296789979853,,,,,,,,,,,,,,,,,,,,,,,,,,,,,,,,,,,,,,,,,,,,,,,,,,,,,,,,,,,,,,,,,,,95450,2022-10-28_15h01.34.934,vts_reward_expectancy_bt_OFFLINE,2022.2.4,59.91780583007271,
0,0,1,0,0,1,0,0,hexagon,circle,1,0,1,0,2,1,25,7,,,,,,,,,,,,,,,,,,,,,,,,,,,,,,,,,,,,,,,,1594.4296789979853,1594.4296789979853,1594.4296789979853,1594.4296789979853,1594.4296789979853,1594.4296789979853,1594.4296789979853,1594.4296789979853,1594.4296789979853,1594.4296789979853,l,0.9237731790053658,10,389,1,1595.3814730379963,,1596.8824640699895,,,,,,,,,,,,,,,,,,,,,,,,,,,,,,,,,,,,,,,,,,,,,,,,,,,,,,,,,,,,,,,,,,,,95450,2022-10-28_15h01.34.934,vts_reward_expectancy_bt_OFFLINE,2022.2.4,59.91780583007271,
0,0,0,1,0,0,1,0,star,hexagon,1,0,1,0,2,2,26,11,,,,,,,,,,,,,,,,,,,,,,,,,,,,,,,,,,,,,,,,1597.3826176600123,1597.3826176600123,1597.3826176600123,1597.3826176600123,1597.3826176600123,1597.3826176600123,1597.3826176600123,1597.3826176600123,1597.3826176600123,1597.3826176600123,a,2.31379953600117,10,399,1,1599.7169412820076,,1601.219125025993,,,,,,,,,,,,,,,,,,,,,,,,,,,,,,,,,,,,,,,,,,,,,,,,,,,,,,,,,,,,,,,,,,,,95450,2022-10-28_15h01.34.934,vts_reward_expectancy_bt_OFFLINE,2022.2.4,59.91780583007271,
0,0,1,0,1,0,0,0,hexagon,triangle,1,0,1,0,2,3,27,6,,,,,,,,,,,,,,,,,,,,,,,,,,,,,,,,,,,,,,,,1601.7194333850057,1601.7194333850057,1601.7194333850057,1601.7194333850057,1601.7194333850057,1601.7194333850057,1601.7194333850057,1601.7194333850057,1601.7194333850057,1601.7194333850057,a,1.4257892569876276,1,400,1,1603.1717186390015,,1604.6871748550038,,,,,,,,,,,,,,,,,,,,,,,,,,,,,,,,,,,,,,,,,,,,,,,,,,,,,,,,,,,,,,,,,,,,95450,2022-10-28_15h01.34.934,vts_reward_expectancy_bt_OFFLINE,2022.2.4,59.91780583007271,
0,0,0,1,1,0,0,0,star,triangle,1,0,1,0,2,4,28,9,,,,,,,,,,,,,,,,,,,,,,,,,,,,,,,,,,,,,,,,1605.187212363002,1605.187212363002,1605.187212363002,1605.187212363002,1605.187212363002,1605.187212363002,1605.187212363002,1605.187212363002,1605.187212363002,1605.187212363002,a,1.1021208959864452,10,410,1,1606.3080520909862,,1607.8235095379932,,,,,,,,,,,,,,,,,,,,,,,,,,,,,,,,,,,,,,,,,,,,,,,,,,,,,,,,,,,,,,,,,,,,95450,2022-10-28_15h01.34.934,vts_reward_expectancy_bt_OFFLINE,2022.2.4,59.91780583007271,
0,0,0,1,0,1,0,0,star ,circle,1,0,1,0,2,5,29,10,,,,,,,,,,,,,,,,,,,,,,,,,,,,,,,,,,,,,,,,1608.3236993030005,1608.3236993030005,1608.3236993030005,1608.3236993030005,1608.3236993030005,1608.3236993030005,1608.3236993030005,1608.3236993030005,1608.3236993030005,1608.3236993030005,l,0.6128228870220482,1,411,1,1608.9584857989976,1610.4580186439853,1610.4580186439853,,,,,,,,,,,,,,,,,,,,,,,,,,,,,,,,,,,,,,,,,,,,,,,,,,,,,,,,,,,,,,,,,,,,95450,2022-10-28_15h01.34.934,vts_reward_expectancy_bt_OFFLINE,2022.2.4,59.91780583007271,
0,1,0,0,0,0,0,1,circle,star,1,0,1,0,2,6,30,5,,,,,,,,,,,,,,,,,,,,,,,,,,,,,,,,,,,,,,,,1610.9597858049965,1610.9597858049965,1610.9597858049965,1610.9597858049965,1610.9597858049965,1610.9597858049965,1610.9597858049965,1610.9597858049965,1610.9597858049965,1610.9597858049965,l,0.8568544180016033,10,421,1,1611.845605745999,,1613.3605871580075,,,,,,,,,,,,,,,,,,,,,,,,,,,,,,,,,,,,,,,,,,,,,,,,,,,,,,,,,,,,,,,,,,,,95450,2022-10-28_15h01.34.934,vts_reward_expectancy_bt_OFFLINE,2022.2.4,59.91780583007271,
1,0,0,0,0,1,0,0,triangle,circle,1,0,1,0,2,7,31,0,,,,,,,,,,,,,,,,,,,,,,,,,,,,,,,,,,,,,,,,1613.8607382680057,1613.8607382680057,1613.8607382680057,1613.8607382680057,1613.8607382680057,1613.8607382680057,1613.8607382680057,1613.8607382680057,1613.8607382680057,1613.8607382680057,l,0.8356346689979546,10,431,1,1614.727953233989,,1616.2299622079881,,,,,,,,,,,,,,,,,,,,,,,,,,,,,,,,,,,,,,,,,,,,,,,,,,,,,,,,,,,,,,,,,,,,95450,2022-10-28_15h01.34.934,vts_reward_expectancy_bt_OFFLINE,2022.2.4,59.91780583007271,
0,1,0,0,0,0,1,0,circle,hexagon,1,0,1,0,2,8,32,4,,,,,,,,,,,,,,,,,,,,,,,,,,,,,,,,,,,,,,,,1616.730525023013,1616.730525023013,1616.730525023013,1616.730525023013,1616.730525023013,1616.730525023013,1616.730525023013,1616.730525023013,1616.730525023013,1616.730525023013,a,0.9262040110188536,10,441,1,1617.6806544449937,1619.1813269759878,1619.1813269759878,1619.6814632590103,,,,,,,,,,,,,,,,,,,,,,,,,,,,,,,,,,,,,,,,,,,,,,,,,,,,,,,,,,,,,,,,,,,95450,2022-10-28_15h01.34.934,vts_reward_expectancy_bt_OFFLINE,2022.2.4,59.91780583007271,
1,0,0,0,0,0,1,0,triangle,hexagon,1,0,1,0,2,9,33,1,,,,,,,,,,,,,,,,,,,,,,,,,,,,,,,,,,,,,,,,1619.6814632590103,1619.6814632590103,1619.6814632590103,1619.6814632590103,1619.6814632590103,1619.6814632590103,1619.6814632590103,1619.6814632590103,1619.6814632590103,1619.6814632590103,l,1.9284195990185253,10,451,1,1621.6338964820025,1623.1345968630048,1623.1345968630048,1623.6348222740053,,,,,,,,,,,,,,,,,,,,,,,,,,,,,,,,,,,,,,,,,,,,,,,,,,,,,,,,,,,,,,,,,,,95450,2022-10-28_15h01.34.934,vts_reward_expectancy_bt_OFFLINE,2022.2.4,59.91780583007271,
0,1,0,0,1,0,0,0,circle,triangle,1,0,1,0,2,10,34,3,,,,,,,,,,,,,,,,,,,,,,,,,,,,,,,,,,,,,,,,1623.6348222740053,1623.6348222740053,1623.6348222740053,1623.6348222740053,1623.6348222740053,1623.6348222740053,1623.6348222740053,1623.6348222740053,1623.6348222740053,1623.6348222740053,a,0.9014233890047763,10,461,1,1624.5683424650051,,1626.0708725060103,,,,,,,,,,,,,,,,,,,,,,,,,,,,,,,,,,,,,,,,,,,,,,,,,,,,,,,,,,,,,,,,,,,,95450,2022-10-28_15h01.34.934,vts_reward_expectancy_bt_OFFLINE,2022.2.4,59.91780583007271,
0,0,1,0,0,0,0,1,hexagon,star,1,0,1,0,2,11,35,8,,,,,,,,,,,,,,,,,,,,,,,,,,,,,,,,,,,,,,,,1626.570865910995,1626.570865910995,1626.570865910995,1626.570865910995,1626.570865910995,1626.570865910995,1626.570865910995,1626.570865910995,1626.570865910995,1626.570865910995,l,1.1340841439960059,1,462,1,1627.7381487989915,1629.2384775379905,1629.2384775379905,1629.7386604599888,,,,,,,,,,,,,,,,,,,,,,,,,,,,,,,,,,,,,,,,,,,,,,,,,,,,,,,,,,,,,,,,,,,95450,2022-10-28_15h01.34.934,vts_reward_expectancy_bt_OFFLINE,2022.2.4,59.91780583007271,
1,0,0,0,0,0,0,1,triangle,star,1,0,1,0,3,0,36,2,,,,,,,,,,,,,,,,,,,,,,,,,,,,,,,,,,,,,,,,1629.7386604599888,1629.7386604599888,1629.7386604599888,1629.7386604599888,1629.7386604599888,1629.7386604599888,1629.7386604599888,1629.7386604599888,1629.7386604599888,1629.7386604599888,l,1.334347716998309,10,472,1,1631.0930391199945,,1632.6080565240118,,,,,,,,,,,,,,,,,,,,,,,,,,,,,,,,,,,,,,,,,,,,,,,,,,,,,,,,,,,,,,,,,,,,95450,2022-10-28_15h01.34.934,vts_reward_expectancy_bt_OFFLINE,2022.2.4,59.91780583007271,
0,1,0,0,0,0,0,1,circle,star,1,0,1,0,3,1,37,5,,,,,,,,,,,,,,,,,,,,,,,,,,,,,,,,,,,,,,,,1633.1082051389967,1633.1082051389967,1633.1082051389967,1633.1082051389967,1633.1082051389967,1633.1082051389967,1633.1082051389967,1633.1082051389967,1633.1082051389967,1633.1082051389967,a,0.8851765690196771,10,482,1,1634.0254699120123,1635.526166836993,1635.526166836993,,,,,,,,,,,,,,,,,,,,,,,,,,,,,,,,,,,,,,,,,,,,,,,,,,,,,,,,,,,,,,,,,,,,95450,2022-10-28_15h01.34.934,vts_reward_expectancy_bt_OFFLINE,2022.2.4,59.91780583007271,
0,0,0,1,0,0,1,0,star,hexagon,1,0,1,0,3,2,38,11,,,,,,,,,,,,,,,,,,,,,,,,,,,,,,,,,,,,,,,,1636.027987214009,1636.027987214009,1636.027987214009,1636.027987214009,1636.027987214009,1636.027987214009,1636.027987214009,1636.027987214009,1636.027987214009,1636.027987214009,a,1.0443316669843625,10,492,1,1637.0951909330033,1638.5956354769878,1638.5956354769878,1639.095644118992,,,,,,,,,,,,,,,,,,,,,,,,,,,,,,,,,,,,,,,,,,,,,,,,,,,,,,,,,,,,,,,,,,,95450,2022-10-28_15h01.34.934,vts_reward_expectancy_bt_OFFLINE,2022.2.4,59.91780583007271,
1,0,0,0,0,0,1,0,triangle,hexagon,1,0,1,0,3,3,39,1,,,,,,,,,,,,,,,,,,,,,,,,,,,,,,,,,,,,,,,,1639.095644118992,1639.095644118992,1639.095644118992,1639.095644118992,1639.095644118992,1639.095644118992,1639.095644118992,1639.095644118992,1639.095644118992,1639.095644118992,l,0.9937481810047757,1,493,1,1640.1142230879923,,1641.61461494799,,,,,,,,,,,,,,,,,,,,,,,,,,,,,,,,,,,,,,,,,,,,,,,,,,,,,,,,,,,,,,,,,,,,95450,2022-10-28_15h01.34.934,vts_reward_expectancy_bt_OFFLINE,2022.2.4,59.91780583007271,
0,1,0,0,0,0,1,0,circle,hexagon,1,0,1,0,3,4,40,4,,,,,,,,,,,,,,,,,,,,,,,,,,,,,,,,,,,,,,,,1642.1151718740002,1642.1151718740002,1642.1151718740002,1642.1151718740002,1642.1151718740002,1642.1151718740002,1642.1151718740002,1642.1151718740002,1642.1151718740002,1642.1151718740002,a,0.7336388339754194,10,503,1,1642.8673771760077,,1644.3828615859966,,,,,,,,,,,,,,,,,,,,,,,,,,,,,,,,,,,,,,,,,,,,,,,,,,,,,,,,,,,,,,,,,,,,95450,2022-10-28_15h01.34.934,vts_reward_expectancy_bt_OFFLINE,2022.2.4,59.91780583007271,
0,0,1,0,1,0,0,0,hexagon,triangle,1,0,1,0,3,5,41,6,,,,,,,,,,,,,,,,,,,,,,,,,,,,,,,,,,,,,,,,1644.8830075809965,1644.8830075809965,1644.8830075809965,1644.8830075809965,1644.8830075809965,1644.8830075809965,1644.8830075809965,1644.8830075809965,1644.8830075809965,1644.8830075809965,l,0.9740723949798848,10,513,1,1645.8852973729954,1647.385682688997,1647.385682688997,1647.8861377050052,,,,,,,,,,,,,,,,,,,,,,,,,,,,,,,,,,,,,,,,,,,,,,,,,,,,,,,,,,,,,,,,,,,95450,2022-10-28_15h01.34.934,vts_reward_expectancy_bt_OFFLINE,2022.2.4,59.91780583007271,
0,0,1,0,0,0,0,1,hexagon,star,1,0,1,0,3,6,42,8,,,,,,,,,,,,,,,,,,,,,,,,,,,,,,,,,,,,,,,,1647.8861377050052,1647.8861377050052,1647.8861377050052,1647.8861377050052,1647.8861377050052,1647.8861377050052,1647.8861377050052,1647.8861377050052,1647.8861377050052,1647.8861377050052,l,1.0662200600199867,10,523,1,1648.9693366890133,1650.4699613930134,1650.4699613930134,,,,,,,,,,,,,,,,,,,,,,,,,,,,,,,,,,,,,,,,,,,,,,,,,,,,,,,,,,,,,,,,,,,,95450,2022-10-28_15h01.34.934,vts_reward_expectancy_bt_OFFLINE,2022.2.4,59.91780583007271,
1,0,0,0,0,1,0,0,triangle,circle,1,0,1,0,3,7,43,0,,,,,,,,,,,,,,,,,,,,,,,,,,,,,,,,,,,,,,,,1650.9721520640014,1650.9721520640014,1650.9721520640014,1650.9721520640014,1650.9721520640014,1650.9721520640014,1650.9721520640014,1650.9721520640014,1650.9721520640014,1650.9721520640014,l,0.6688090209790971,10,533,1,1651.6722415219992,1653.1729619599937,1653.1729619599937,1653.6729320889863,,,,,,,,,,,,,,,,,,,,,,,,,,,,,,,,,,,,,,,,,,,,,,,,,,,,,,,,,,,,,,,,,,,95450,2022-10-28_15h01.34.934,vts_reward_expectancy_bt_OFFLINE,2022.2.4,59.91780583007271,
0,0,0,1,0,1,0,0,star ,circle,1,0,1,0,3,8,44,10,,,,,,,,,,,,,,,,,,,,,,,,,,,,,,,,,,,,,,,,1653.6729320889863,1653.6729320889863,1653.6729320889863,1653.6729320889863,1653.6729320889863,1653.6729320889863,1653.6729320889863,1653.6729320889863,1653.6729320889863,1653.6729320889863,l,0.7918294949922711,1,534,1,1654.4917587680102,,1655.9925955169892,,,,,,,,,,,,,,,,,,,,,,,,,,,,,,,,,,,,,,,,,,,,,,,,,,,,,,,,,,,,,,,,,,,,95450,2022-10-28_15h01.34.934,vts_reward_expectancy_bt_OFFLINE,2022.2.4,59.91780583007271,
0,0,1,0,0,1,0,0,hexagon,circle,1,0,1,0,3,9,45,7,,,,,,,,,,,,,,,,,,,,,,,,,,,,,,,,,,,,,,,,1656.4926042319858,1656.4926042319858,1656.4926042319858,1656.4926042319858,1656.4926042319858,1656.4926042319858,1656.4926042319858,1656.4926042319858,1656.4926042319858,1656.4926042319858,l,0.9646362450148445,10,544,1,1657.4780230959877,,1658.993619359011,,,,,,,,,,,,,,,,,,,,,,,,,,,,,,,,,,,,,,,,,,,,,,,,,,,,,,,,,,,,,,,,,,,,95450,2022-10-28_15h01.34.934,vts_reward_expectancy_bt_OFFLINE,2022.2.4,59.91780583007271,
0,1,0,0,1,0,0,0,circle,triangle,1,0,1,0,3,10,46,3,,,,,,,,,,,,,,,,,,,,,,,,,,,,,,,,,,,,,,,,1659.4938942290028,1659.4938942290028,1659.4938942290028,1659.4938942290028,1659.4938942290028,1659.4938942290028,1659.4938942290028,1659.4938942290028,1659.4938942290028,1659.4938942290028,a,1.83492746000411,1,545,1,1661.3478923189978,,1662.8466727930063,1663.3472267799953,,,,,,,,,,,,,,,,,,,,,,,,,,,,,,,,,,,,,,,,,,,,,,,,,,,,,,,,,,,,,,,,,,,95450,2022-10-28_15h01.34.934,vts_reward_expectancy_bt_OFFLINE,2022.2.4,59.91780583007271,
0,0,0,1,1,0,0,0,star,triangle,1,0,1,0,3,11,47,9,,,,,,,,,,,,,,,,,,,,,,,,,,,,,,,,,,,,,,,,1663.3472267799953,1663.3472267799953,1663.3472267799953,1663.3472267799953,1663.3472267799953,1663.3472267799953,1663.3472267799953,1663.3472267799953,1663.3472267799953,1663.3472267799953,a,1.3416210460127331,1,546,1,1664.7142424249905,,1666.2163669999863,,,,,,,,,,,,,,,,,,,,,,,,,,,,,,,,,,,,,,,,,,,,,,,,,,,,,,,,,,,,,,,,,,,,95450,2022-10-28_15h01.34.934,vts_reward_expectancy_bt_OFFLINE,2022.2.4,59.91780583007271,
0,1,0,0,1,0,0,0,circle,triangle,2,0,2,0,0,0,0,3,,,,,,,,,,,,,,,,,,,,,,,,,,,,,,,,,,,,,,,,1674.215577977011,1674.215577977011,1674.215577977011,1674.215577977011,1674.215577977011,1674.215577977011,1674.215577977011,1674.215577977011,1674.215577977011,1674.215577977011,a,0.9612578180094715,10,556,2,1675.2071340949915,,1676.7071202739899,,,,,,,,,,,,,,,,,,,,,,,,,,,,,,,,,,,,,,,,,,,,,,,,,,,,,,,,,,,,,,,,,,,,95450,2022-10-28_15h01.34.934,vts_reward_expectancy_bt_OFFLINE,2022.2.4,59.91780583007271,
0,0,1,0,0,0,0,1,hexagon,star,2,0,2,0,0,1,1,8,,,,,,,,,,,,,,,,,,,,,,,,,,,,,,,,,,,,,,,,1677.207635792991,1677.207635792991,1677.207635792991,1677.207635792991,1677.207635792991,1677.207635792991,1677.207635792991,1677.207635792991,1677.207635792991,1677.207635792991,l,0.7526868099812418,1,557,2,1677.992775769002,,1679.5085056819953,,,,,,,,,,,,,,,,,,,,,,,,,,,,,,,,,,,,,,,,,,,,,,,,,,,,,,,,,,,,,,,,,,,,95450,2022-10-28_15h01.34.934,vts_reward_expectancy_bt_OFFLINE,2022.2.4,59.91780583007271,
0,1,0,0,0,0,0,1,circle,star,2,0,2,0,0,2,2,5,,,,,,,,,,,,,,,,,,,,,,,,,,,,,,,,,,,,,,,,1680.0084769940004,1680.0084769940004,1680.0084769940004,1680.0084769940004,1680.0084769940004,1680.0084769940004,1680.0084769940004,1680.0084769940004,1680.0084769940004,1680.0084769940004,a,0.9127154939924367,1,558,2,1680.943792956008,1682.444346594013,1682.444346594013,1682.9446159650106,,,,,,,,,,,,,,,,,,,,,,,,,,,,,,,,,,,,,,,,,,,,,,,,,,,,,,,,,,,,,,,,,,,95450,2022-10-28_15h01.34.934,vts_reward_expectancy_bt_OFFLINE,2022.2.4,59.91780583007271,
0,1,0,0,0,0,1,0,circle,hexagon,2,0,2,0,0,3,3,4,,,,,,,,,,,,,,,,,,,,,,,,,,,,,,,,,,,,,,,,1682.9446159650106,1682.9446159650106,1682.9446159650106,1682.9446159650106,1682.9446159650106,1682.9446159650106,1682.9446159650106,1682.9446159650106,1682.9446159650106,1682.9446159650106,a,0.8645201880135573,10,568,2,1683.8302278390038,,1685.3453932070115,,,,,,,,,,,,,,,,,,,,,,,,,,,,,,,,,,,,,,,,,,,,,,,,,,,,,,,,,,,,,,,,,,,,95450,2022-10-28_15h01.34.934,vts_reward_expectancy_bt_OFFLINE,2022.2.4,59.91780583007271,
0,0,0,1,1,0,0,0,star,triangle,2,0,2,0,0,4,4,9,,,,,,,,,,,,,,,,,,,,,,,,,,,,,,,,,,,,,,,,1685.834617616987,1685.834617616987,1685.834617616987,1685.834617616987,1685.834617616987,1685.834617616987,1685.834617616987,1685.834617616987,1685.834617616987,1685.834617616987,a,1.0543212610064074,10,578,2,1686.9146307590127,1688.4151687939884,1688.4151687939884,1688.9153747700038,,,,,,,,,,,,,,,,,,,,,,,,,,,,,,,,,,,,,,,,,,,,,,,,,,,,,,,,,,,,,,,,,,,95450,2022-10-28_15h01.34.934,vts_reward_expectancy_bt_OFFLINE,2022.2.4,59.91780583007271,
0,0,1,0,1,0,0,0,hexagon,triangle,2,0,2,0,0,5,5,6,,,,,,,,,,,,,,,,,,,,,,,,,,,,,,,,,,,,,,,,1688.9153747700038,1688.9153747700038,1688.9153747700038,1688.9153747700038,1688.9153747700038,1688.9153747700038,1688.9153747700038,1688.9153747700038,1688.9153747700038,1688.9153747700038,l,0.8696195410157088,10,588,2,1689.815899401001,,1691.3182346079848,,,,,,,,,,,,,,,,,,,,,,,,,,,,,,,,,,,,,,,,,,,,,,,,,,,,,,,,,,,,,,,,,,,,95450,2022-10-28_15h01.34.934,vts_reward_expectancy_bt_OFFLINE,2022.2.4,59.91780583007271,
1,0,0,0,0,0,1,0,triangle,hexagon,2,0,2,0,0,6,6,1,,,,,,,,,,,,,,,,,,,,,,,,,,,,,,,,,,,,,,,,1691.8183083980111,1691.8183083980111,1691.8183083980111,1691.8183083980111,1691.8183083980111,1691.8183083980111,1691.8183083980111,1691.8183083980111,1691.8183083980111,1691.8183083980111,a,0.918275044998154,10,598,2,1692.7685678059934,1694.2690457100107,1694.2690457100107,1694.769377154007,,,,,,,,,,,,,,,,,,,,,,,,,,,,,,,,,,,,,,,,,,,,,,,,,,,,,,,,,,,,,,,,,,,95450,2022-10-28_15h01.34.934,vts_reward_expectancy_bt_OFFLINE,2022.2.4,59.91780583007271,
0,0,0,1,0,0,1,0,star,hexagon,2,0,2,0,0,7,7,11,,,,,,,,,,,,,,,,,,,,,,,,,,,,,,,,,,,,,,,,1694.769377154007,1694.769377154007,1694.769377154007,1694.769377154007,1694.769377154007,1694.769377154007,1694.769377154007,1694.769377154007,1694.769377154007,1694.769377154007,a,1.0149190150259528,1,599,2,1695.8043449810066,,1697.305336646008,,,,,,,,,,,,,,,,,,,,,,,,,,,,,,,,,,,,,,,,,,,,,,,,,,,,,,,,,,,,,,,,,,,,95450,2022-10-28_15h01.34.934,vts_reward_expectancy_bt_OFFLINE,2022.2.4,59.91780583007271,
0,0,1,0,0,1,0,0,hexagon,circle,2,0,2,0,0,8,8,7,,,,,,,,,,,,,,,,,,,,,,,,,,,,,,,,,,,,,,,,1697.8053932990006,1697.8053932990006,1697.8053932990006,1697.8053932990006,1697.8053932990006,1697.8053932990006,1697.8053932990006,1697.8053932990006,1697.8053932990006,1697.8053932990006,l,0.6671259069989901,10,609,2,1698.4916132999933,,1700.0062041599886,,,,,,,,,,,,,,,,,,,,,,,,,,,,,,,,,,,,,,,,,,,,,,,,,,,,,,,,,,,,,,,,,,,,95450,2022-10-28_15h01.34.934,vts_reward_expectancy_bt_OFFLINE,2022.2.4,59.91780583007271,
1,0,0,0,0,1,0,0,triangle,circle,2,0,2,0,0,9,9,0,,,,,,,,,,,,,,,,,,,,,,,,,,,,,,,,,,,,,,,,1700.506206652004,1700.506206652004,1700.506206652004,1700.506206652004,1700.506206652004,1700.506206652004,1700.506206652004,1700.506206652004,1700.506206652004,1700.506206652004,l,0.662780382001074,10,619,2,1701.191701720003,1702.6925195399963,1702.6925195399963,,,,,,,,,,,,,,,,,,,,,,,,,,,,,,,,,,,,,,,,,,,,,,,,,,,,,,,,,,,,,,,,,,,,95450,2022-10-28_15h01.34.934,vts_reward_expectancy_bt_OFFLINE,2022.2.4,59.91780583007271,
0,0,0,1,0,1,0,0,star ,circle,2,0,2,0,0,10,10,10,,,,,,,,,,,,,,,,,,,,,,,,,,,,,,,,,,,,,,,,1703.1925289270002,1703.1925289270002,1703.1925289270002,1703.1925289270002,1703.1925289270002,1703.1925289270002,1703.1925289270002,1703.1925289270002,1703.1925289270002,1703.1925289270002,l,0.8557884299953002,1,620,2,1704.0785617690126,,1705.593394378986,,,,,,,,,,,,,,,,,,,,,,,,,,,,,,,,,,,,,,,,,,,,,,,,,,,,,,,,,,,,,,,,,,,,95450,2022-10-28_15h01.34.934,vts_reward_expectancy_bt_OFFLINE,2022.2.4,59.91780583007271,
1,0,0,0,0,0,0,1,triangle,star,2,0,2,0,0,11,11,2,,,,,,,,,,,,,,,,,,,,,,,,,,,,,,,,,,,,,,,,1706.078809292987,1706.078809292987,1706.078809292987,1706.078809292987,1706.078809292987,1706.078809292987,1706.078809292987,1706.078809292987,1706.078809292987,1706.078809292987,l,0.7695496240048669,1,621,2,1706.8792725139938,1708.3797661449935,1708.3797661449935,1708.8798321440117,,,,,,,,,,,,,,,,,,,,,,,,,,,,,,,,,,,,,,,,,,,,,,,,,,,,,,,,,,,,,,,,,,,95450,2022-10-28_15h01.34.934,vts_reward_expectancy_bt_OFFLINE,2022.2.4,59.91780583007271,
0,1,0,0,0,0,1,0,circle,hexagon,2,0,2,0,1,0,12,4,,,,,,,,,,,,,,,,,,,,,,,,,,,,,,,,,,,,,,,,1708.8798321440117,1708.8798321440117,1708.8798321440117,1708.8798321440117,1708.8798321440117,1708.8798321440117,1708.8798321440117,1708.8798321440117,1708.8798321440117,1708.8798321440117,a,0.5848569259978831,10,631,2,1709.4972718450008,,1710.9992480549845,,,,,,,,,,,,,,,,,,,,,,,,,,,,,,,,,,,,,,,,,,,,,,,,,,,,,,,,,,,,,,,,,,,,95450,2022-10-28_15h01.34.934,vts_reward_expectancy_bt_OFFLINE,2022.2.4,59.91780583007271,
1,0,0,0,0,0,0,1,triangle,star,2,0,2,0,1,1,13,2,,,,,,,,,,,,,,,,,,,,,,,,,,,,,,,,,,,,,,,,1711.499470501003,1711.499470501003,1711.499470501003,1711.499470501003,1711.499470501003,1711.499470501003,1711.499470501003,1711.499470501003,1711.499470501003,1711.499470501003,l,0.7811725290084723,10,641,2,1712.2997713449877,1713.800228846987,1713.800228846987,1714.300381465,,,,,,,,,,,,,,,,,,,,,,,,,,,,,,,,,,,,,,,,,,,,,,,,,,,,,,,,,,,,,,,,,,,95450,2022-10-28_15h01.34.934,vts_reward_expectancy_bt_OFFLINE,2022.2.4,59.91780583007271,
1,0,0,0,0,0,1,0,triangle,hexagon,2,0,2,0,1,2,14,1,,,,,,,,,,,,,,,,,,,,,,,,,,,,,,,,,,,,,,,,1714.300381465,1714.300381465,1714.300381465,1714.300381465,1714.300381465,1714.300381465,1714.300381465,1714.300381465,1714.300381465,1714.300381465,l,1.5404296640190296,1,642,2,1715.8606893329998,,1717.3699541270034,,,,,,,,,,,,,,,,,,,,,,,,,,,,,,,,,,,,,,,,,,,,,,,,,,,,,,,,,,,,,,,,,,,,95450,2022-10-28_15h01.34.934,vts_reward_expectancy_bt_OFFLINE,2022.2.4,59.91780583007271,
0,0,0,1,1,0,0,0,star,triangle,2,0,2,0,1,3,15,9,,,,,,,,,,,,,,,,,,,,,,,,,,,,,,,,,,,,,,,,1717.870184430998,1717.870184430998,1717.870184430998,1717.870184430998,1717.870184430998,1717.870184430998,1717.870184430998,1717.870184430998,1717.870184430998,1717.870184430998,a,0.8504478200047743,10,652,2,1718.7400742190075,,1720.2543892000103,,,,,,,,,,,,,,,,,,,,,,,,,,,,,,,,,,,,,,,,,,,,,,,,,,,,,,,,,,,,,,,,,,,,95450,2022-10-28_15h01.34.934,vts_reward_expectancy_bt_OFFLINE,2022.2.4,59.91780583007271,
0,0,1,0,0,1,0,0,hexagon,circle,2,0,2,0,1,4,16,7,,,,,,,,,,,,,,,,,,,,,,,,,,,,,,,,,,,,,,,,1720.7542119270074,1720.7542119270074,1720.7542119270074,1720.7542119270074,1720.7542119270074,1720.7542119270074,1720.7542119270074,1720.7542119270074,1720.7542119270074,1720.7542119270074,l,0.7660598040092736,1,653,2,1721.5416677120083,,1723.0570508629899,,,,,,,,,,,,,,,,,,,,,,,,,,,,,,,,,,,,,,,,,,,,,,,,,,,,,,,,,,,,,,,,,,,,95450,2022-10-28_15h01.34.934,vts_reward_expectancy_bt_OFFLINE,2022.2.4,59.91780583007271,
0,0,1,0,0,0,0,1,hexagon,star,2,0,2,0,1,5,17,8,,,,,,,,,,,,,,,,,,,,,,,,,,,,,,,,,,,,,,,,1723.557591891993,1723.557591891993,1723.557591891993,1723.557591891993,1723.557591891993,1723.557591891993,1723.557591891993,1723.557591891993,1723.557591891993,1723.557591891993,l,1.1312174210033845,1,654,2,1724.708068353997,,1726.2101490669884,,,,,,,,,,,,,,,,,,,,,,,,,,,,,,,,,,,,,,,,,,,,,,,,,,,,,,,,,,,,,,,,,,,,95450,2022-10-28_15h01.34.934,vts_reward_expectancy_bt_OFFLINE,2022.2.4,59.91780583007271,
0,1,0,0,1,0,0,0,circle,triangle,2,0,2,0,1,6,18,3,,,,,,,,,,,,,,,,,,,,,,,,,,,,,,,,,,,,,,,,1726.7102651759924,1726.7102651759924,1726.7102651759924,1726.7102651759924,1726.7102651759924,1726.7102651759924,1726.7102651759924,1726.7102651759924,1726.7102651759924,1726.7102651759924,a,0.5948453930031974,10,664,2,1727.3295100549876,,1728.8443980739976,,,,,,,,,,,,,,,,,,,,,,,,,,,,,,,,,,,,,,,,,,,,,,,,,,,,,,,,,,,,,,,,,,,,95450,2022-10-28_15h01.34.934,vts_reward_expectancy_bt_OFFLINE,2022.2.4,59.91780583007271,
1,0,0,0,0,1,0,0,triangle,circle,2,0,2,0,1,7,19,0,,,,,,,,,,,,,,,,,,,,,,,,,,,,,,,,,,,,,,,,1729.344583736005,1729.344583736005,1729.344583736005,1729.344583736005,1729.344583736005,1729.344583736005,1729.344583736005,1729.344583736005,1729.344583736005,1729.344583736005,l,0.7516276959795505,10,674,2,1730.128168338997,1731.630198511004,1731.630198511004,,,,,,,,,,,,,,,,,,,,,,,,,,,,,,,,,,,,,,,,,,,,,,,,,,,,,,,,,,,,,,,,,,,,95450,2022-10-28_15h01.34.934,vts_reward_expectancy_bt_OFFLINE,2022.2.4,59.91780583007271,
0,1,0,0,0,0,0,1,circle,star,2,0,2,0,1,8,20,5,,,,,,,,,,,,,,,,,,,,,,,,,,,,,,,,,,,,,,,,1732.130404986994,1732.130404986994,1732.130404986994,1732.130404986994,1732.130404986994,1732.130404986994,1732.130404986994,1732.130404986994,1732.130404986994,1732.130404986994,l,1.3665207219892181,10,684,2,1733.515050321992,1735.0152965089947,1735.0152965089947,1735.5152635510021,,,,,,,,,,,,,,,,,,,,,,,,,,,,,,,,,,,,,,,,,,,,,,,,,,,,,,,,,,,,,,,,,,,95450,2022-10-28_15h01.34.934,vts_reward_expectancy_bt_OFFLINE,2022.2.4,59.91780583007271,
0,0,0,1,0,0,1,0,star,hexagon,2,0,2,0,1,9,21,11,,,,,,,,,,,,,,,,,,,,,,,,,,,,,,,,,,,,,,,,1735.5152635510021,1735.5152635510021,1735.5152635510021,1735.5152635510021,1735.5152635510021,1735.5152635510021,1735.5152635510021,1735.5152635510021,1735.5152635510021,1735.5152635510021,a,0.7731083329999819,1,685,2,1736.3193157399946,,1737.8341510169848,,,,,,,,,,,,,,,,,,,,,,,,,,,,,,,,,,,,,,,,,,,,,,,,,,,,,,,,,,,,,,,,,,,,95450,2022-10-28_15h01.34.934,vts_reward_expectancy_bt_OFFLINE,2022.2.4,59.91780583007271,
0,0,1,0,1,0,0,0,hexagon,triangle,2,0,2,0,1,10,22,6,,,,,,,,,,,,,,,,,,,,,,,,,,,,,,,,,,,,,,,,1738.3347841940122,1738.3347841940122,1738.3347841940122,1738.3347841940122,1738.3347841940122,1738.3347841940122,1738.3347841940122,1738.3347841940122,1738.3347841940122,1738.3347841940122,a,1.1699352180003189,1,686,2,1739.5354793920123,,1741.037451785989,,,,,,,,,,,,,,,,,,,,,,,,,,,,,,,,,,,,,,,,,,,,,,,,,,,,,,,,,,,,,,,,,,,,95450,2022-10-28_15h01.34.934,vts_reward_expectancy_bt_OFFLINE,2022.2.4,59.91780583007271,
0,0,0,1,0,1,0,0,star ,circle,2,0,2,0,1,11,23,10,,,,,,,,,,,,,,,,,,,,,,,,,,,,,,,,,,,,,,,,1741.5375296179845,1741.5375296179845,1741.5375296179845,1741.5375296179845,1741.5375296179845,1741.5375296179845,1741.5375296179845,1741.5375296179845,1741.5375296179845,1741.5375296179845,l,0.5196822530124336,1,687,2,1742.087756257999,1743.588186197012,1743.588186197012,1744.0883825010096,,,,,,,,,,,,,,,,,,,,,,,,,,,,,,,,,,,,,,,,,,,,,,,,,,,,,,,,,,,,,,,,,,,95450,2022-10-28_15h01.34.934,vts_reward_expectancy_bt_OFFLINE,2022.2.4,59.91780583007271,
0,1,0,0,1,0,0,0,circle,triangle,2,0,2,0,2,0,24,3,,,,,,,,,,,,,,,,,,,,,,,,,,,,,,,,,,,,,,,,1744.0883825010096,1744.0883825010096,1744.0883825010096,1744.0883825010096,1744.0883825010096,1744.0883825010096,1744.0883825010096,1744.0883825010096,1744.0883825010096,1744.0883825010096,a,0.7840228719869629,10,697,2,1744.8917752109992,,1746.3910054879962,,,,,,,,,,,,,,,,,,,,,,,,,,,,,,,,,,,,,,,,,,,,,,,,,,,,,,,,,,,,,,,,,,,,95450,2022-10-28_15h01.34.934,vts_reward_expectancy_bt_OFFLINE,2022.2.4,59.91780583007271,
1,0,0,0,0,0,1,0,triangle,hexagon,2,0,2,0,2,1,25,1,,,,,,,,,,,,,,,,,,,,,,,,,,,,,,,,,,,,,,,,1746.8914006880077,1746.8914006880077,1746.8914006880077,1746.8914006880077,1746.8914006880077,1746.8914006880077,1746.8914006880077,1746.8914006880077,1746.8914006880077,1746.8914006880077,l,1.0293855009949766,1,698,2,1747.9440639870008,,1749.4590341959847,,,,,,,,,,,,,,,,,,,,,,,,,,,,,,,,,,,,,,,,,,,,,,,,,,,,,,,,,,,,,,,,,,,,95450,2022-10-28_15h01.34.934,vts_reward_expectancy_bt_OFFLINE,2022.2.4,59.91780583007271,
0,0,1,0,0,0,0,1,hexagon,star,2,0,2,0,2,2,26,8,,,,,,,,,,,,,,,,,,,,,,,,,,,,,,,,,,,,,,,,1749.959372776997,1749.959372776997,1749.959372776997,1749.959372776997,1749.959372776997,1749.959372776997,1749.959372776997,1749.959372776997,1749.959372776997,1749.959372776997,l,0.9770697220228612,10,708,2,1750.964741859003,,1752.4785122239846,,,,,,,,,,,,,,,,,,,,,,,,,,,,,,,,,,,,,,,,,,,,,,,,,,,,,,,,,,,,,,,,,,,,95450,2022-10-28_15h01.34.934,vts_reward_expectancy_bt_OFFLINE,2022.2.4,59.91780583007271,
0,0,1,0,0,1,0,0,hexagon,circle,2,0,2,0,2,3,27,7,,,,,,,,,,,,,,,,,,,,,,,,,,,,,,,,,,,,,,,,1752.9787453419995,1752.9787453419995,1752.9787453419995,1752.9787453419995,1752.9787453419995,1752.9787453419995,1752.9787453419995,1752.9787453419995,1752.9787453419995,1752.9787453419995,l,1.37382049599546,10,718,2,1754.3794627180032,,1755.884672737011,,,,,,,,,,,,,,,,,,,,,,,,,,,,,,,,,,,,,,,,,,,,,,,,,,,,,,,,,,,,,,,,,,,,95450,2022-10-28_15h01.34.934,vts_reward_expectancy_bt_OFFLINE,2022.2.4,59.91780583007271,
0,0,1,0,1,0,0,0,hexagon,triangle,2,0,2,0,2,4,28,6,,,,,,,,,,,,,,,,,,,,,,,,,,,,,,,,,,,,,,,,1756.381844952004,1756.381844952004,1756.381844952004,1756.381844952004,1756.381844952004,1756.381844952004,1756.381844952004,1756.381844952004,1756.381844952004,1756.381844952004,a,1.3549871089926455,1,719,2,1757.7683770500007,,1759.2830970610084,,,,,,,,,,,,,,,,,,,,,,,,,,,,,,,,,,,,,,,,,,,,,,,,,,,,,,,,,,,,,,,,,,,,95450,2022-10-28_15h01.34.934,vts_reward_expectancy_bt_OFFLINE,2022.2.4,59.91780583007271,
0,0,0,1,1,0,0,0,star,triangle,2,0,2,0,2,5,29,9,,,,,,,,,,,,,,,,,,,,,,,,,,,,,,,,,,,,,,,,1759.7831090939872,1759.7831090939872,1759.7831090939872,1759.7831090939872,1759.7831090939872,1759.7831090939872,1759.7831090939872,1759.7831090939872,1759.7831090939872,1759.7831090939872,a,1.0172598189965356,10,729,2,1760.819678275002,,1762.319597291993,,,,,,,,,,,,,,,,,,,,,,,,,,,,,,,,,,,,,,,,,,,,,,,,,,,,,,,,,,,,,,,,,,,,95450,2022-10-28_15h01.34.934,vts_reward_expectancy_bt_OFFLINE,2022.2.4,59.91780583007271,
0,1,0,0,0,0,0,1,circle,star,2,0,2,0,2,6,30,5,,,,,,,,,,,,,,,,,,,,,,,,,,,,,,,,,,,,,,,,1762.8195920249855,1762.8195920249855,1762.8195920249855,1762.8195920249855,1762.8195920249855,1762.8195920249855,1762.8195920249855,1762.8195920249855,1762.8195920249855,1762.8195920249855,l,1.1093998870055657,10,739,2,1763.9534625670058,1765.453662890999,1765.453662890999,,,,,,,,,,,,,,,,,,,,,,,,,,,,,,,,,,,,,,,,,,,,,,,,,,,,,,,,,,,,,,,,,,,,95450,2022-10-28_15h01.34.934,vts_reward_expectancy_bt_OFFLINE,2022.2.4,59.91780583007271,
0,0,0,1,0,1,0,0,star ,circle,2,0,2,0,2,7,31,10,,,,,,,,,,,,,,,,,,,,,,,,,,,,,,,,,,,,,,,,1765.9557707789936,1765.9557707789936,1765.9557707789936,1765.9557707789936,1765.9557707789936,1765.9557707789936,1765.9557707789936,1765.9557707789936,1765.9557707789936,1765.9557707789936,a,1.1005097439920064,10,749,2,1767.073820449994,1768.5731976320094,1768.5731976320094,1769.0736345780024,,,,,,,,,,,,,,,,,,,,,,,,,,,,,,,,,,,,,,,,,,,,,,,,,,,,,,,,,,,,,,,,,,,95450,2022-10-28_15h01.34.934,vts_reward_expectancy_bt_OFFLINE,2022.2.4,59.91780583007271,
1,0,0,0,0,1,0,0,triangle,circle,2,0,2,0,2,8,32,0,,,,,,,,,,,,,,,,,,,,,,,,,,,,,,,,,,,,,,,,1769.0736345780024,1769.0736345780024,1769.0736345780024,1769.0736345780024,1769.0736345780024,1769.0736345780024,1769.0736345780024,1769.0736345780024,1769.0736345780024,1769.0736345780024,l,1.4878349069913384,10,759,2,1770.591025294998,,1772.0931998619926,,,,,,,,,,,,,,,,,,,,,,,,,,,,,,,,,,,,,,,,,,,,,,,,,,,,,,,,,,,,,,,,,,,,95450,2022-10-28_15h01.34.934,vts_reward_expectancy_bt_OFFLINE,2022.2.4,59.91780583007271,
0,0,0,1,0,0,1,0,star,hexagon,2,0,2,0,2,9,33,11,,,,,,,,,,,,,,,,,,,,,,,,,,,,,,,,,,,,,,,,1772.5934092499956,1772.5934092499956,1772.5934092499956,1772.5934092499956,1772.5934092499956,1772.5934092499956,1772.5934092499956,1772.5934092499956,1772.5934092499956,1772.5934092499956,a,1.3593094469979405,1,760,2,1773.9796958779916,,1775.4942963320063,,,,,,,,,,,,,,,,,,,,,,,,,,,,,,,,,,,,,,,,,,,,,,,,,,,,,,,,,,,,,,,,,,,,95450,2022-10-28_15h01.34.934,vts_reward_expectancy_bt_OFFLINE,2022.2.4,59.91780583007271,
0,1,0,0,0,0,1,0,circle,hexagon,2,0,2,0,2,10,34,4,,,,,,,,,,,,,,,,,,,,,,,,,,,,,,,,,,,,,,,,1775.9798308419995,1775.9798308419995,1775.9798308419995,1775.9798308419995,1775.9798308419995,1775.9798308419995,1775.9798308419995,1775.9798308419995,1775.9798308419995,1775.9798308419995,a,1.229021956998622,10,770,2,1777.2326022310008,,1778.747646917007,,,,,,,,,,,,,,,,,,,,,,,,,,,,,,,,,,,,,,,,,,,,,,,,,,,,,,,,,,,,,,,,,,,,95450,2022-10-28_15h01.34.934,vts_reward_expectancy_bt_OFFLINE,2022.2.4,59.91780583007271,
1,0,0,0,0,0,0,1,triangle,star,2,0,2,0,2,11,35,2,,,,,,,,,,,,,,,,,,,,,,,,,,,,,,,,,,,,,,,,1779.2476486689993,1779.2476486689993,1779.2476486689993,1779.2476486689993,1779.2476486689993,1779.2476486689993,1779.2476486689993,1779.2476486689993,1779.2476486689993,1779.2476486689993,l,1.040682677004952,10,780,2,1780.3149160399917,,1781.8164077450056,,,,,,,,,,,,,,,,,,,,,,,,,,,,,,,,,,,,,,,,,,,,,,,,,,,,,,,,,,,,,,,,,,,,95450,2022-10-28_15h01.34.934,vts_reward_expectancy_bt_OFFLINE,2022.2.4,59.91780583007271,
0,1,0,0,0,0,0,1,circle,star,2,0,2,0,3,0,36,5,,,,,,,,,,,,,,,,,,,,,,,,,,,,,,,,,,,,,,,,1782.317134337005,1782.317134337005,1782.317134337005,1782.317134337005,1782.317134337005,1782.317134337005,1782.317134337005,1782.317134337005,1782.317134337005,1782.317134337005,l,1.2601112599950284,10,790,2,1783.6012835940055,,1785.101597700006,,,,,,,,,,,,,,,,,,,,,,,,,,,,,,,,,,,,,,,,,,,,,,,,,,,,,,,,,,,,,,,,,,,,95450,2022-10-28_15h01.34.934,vts_reward_expectancy_bt_OFFLINE,2022.2.4,59.91780583007271,
1,0,0,0,0,0,1,0,triangle,hexagon,2,0,2,0,3,1,37,1,,,,,,,,,,,,,,,,,,,,,,,,,,,,,,,,,,,,,,,,1785.6017613949953,1785.6017613949953,1785.6017613949953,1785.6017613949953,1785.6017613949953,1785.6017613949953,1785.6017613949953,1785.6017613949953,1785.6017613949953,1785.6017613949953,l,0.9916491890035104,1,791,2,1786.6230614469969,,1788.1374965379946,,,,,,,,,,,,,,,,,,,,,,,,,,,,,,,,,,,,,,,,,,,,,,,,,,,,,,,,,,,,,,,,,,,,95450,2022-10-28_15h01.34.934,vts_reward_expectancy_bt_OFFLINE,2022.2.4,59.91780583007271,
0,1,0,0,0,0,1,0,circle,hexagon,2,0,2,0,3,2,38,4,,,,,,,,,,,,,,,,,,,,,,,,,,,,,,,,,,,,,,,,1788.637801105011,1788.637801105011,1788.637801105011,1788.637801105011,1788.637801105011,1788.637801105011,1788.637801105011,1788.637801105011,1788.637801105011,1788.637801105011,a,1.2588364749972243,1,792,2,1789.9226942750101,,1791.4241083470115,,,,,,,,,,,,,,,,,,,,,,,,,,,,,,,,,,,,,,,,,,,,,,,,,,,,,,,,,,,,,,,,,,,,95450,2022-10-28_15h01.34.934,vts_reward_expectancy_bt_OFFLINE,2022.2.4,59.91780583007271,
0,0,0,1,1,0,0,0,star,triangle,2,0,2,0,3,3,39,9,,,,,,,,,,,,,,,,,,,,,,,,,,,,,,,,,,,,,,,,1791.9240749919845,1791.9240749919845,1791.9240749919845,1791.9240749919845,1791.9240749919845,1791.9240749919845,1791.9240749919845,1791.9240749919845,1791.9240749919845,1791.9240749919845,a,0.9005412069964223,10,802,2,1792.8583508679876,1794.3586574269866,1794.3586574269866,1794.8587695170136,,,,,,,,,,,,,,,,,,,,,,,,,,,,,,,,,,,,,,,,,,,,,,,,,,,,,,,,,,,,,,,,,,,95450,2022-10-28_15h01.34.934,vts_reward_expectancy_bt_OFFLINE,2022.2.4,59.91780583007271,
0,0,1,0,0,1,0,0,hexagon,circle,2,0,2,0,3,4,40,7,,,,,,,,,,,,,,,,,,,,,,,,,,,,,,,,,,,,,,,,1794.8587695170136,1794.8587695170136,1794.8587695170136,1794.8587695170136,1794.8587695170136,1794.8587695170136,1794.8587695170136,1794.8587695170136,1794.8587695170136,1794.8587695170136,l,0.7581653379893396,10,812,2,1795.6426570019976,,1797.144840427005,,,,,,,,,,,,,,,,,,,,,,,,,,,,,,,,,,,,,,,,,,,,,,,,,,,,,,,,,,,,,,,,,,,,95450,2022-10-28_15h01.34.934,vts_reward_expectancy_bt_OFFLINE,2022.2.4,59.91780583007271,
1,0,0,0,0,1,0,0,triangle,circle,2,0,2,0,3,5,41,0,,,,,,,,,,,,,,,,,,,,,,,,,,,,,,,,,,,,,,,,1797.6450574570044,1797.6450574570044,1797.6450574570044,1797.6450574570044,1797.6450574570044,1797.6450574570044,1797.6450574570044,1797.6450574570044,1797.6450574570044,1797.6450574570044,l,0.9962875370110851,10,822,2,1798.6625569270109,1800.1626108390046,1800.1626108390046,1800.6626899109979,,,,,,,,,,,,,,,,,,,,,,,,,,,,,,,,,,,,,,,,,,,,,,,,,,,,,,,,,,,,,,,,,,,95450,2022-10-28_15h01.34.934,vts_reward_expectancy_bt_OFFLINE,2022.2.4,59.91780583007271,
0,0,1,0,0,0,0,1,hexagon,star,2,0,2,0,3,6,42,8,,,,,,,,,,,,,,,,,,,,,,,,,,,,,,,,,,,,,,,,1800.6626899109979,1800.6626899109979,1800.6626899109979,1800.6626899109979,1800.6626899109979,1800.6626899109979,1800.6626899109979,1800.6626899109979,1800.6626899109979,1800.6626899109979,a,1.249642731010681,10,832,2,1801.9319621160103,1803.432038761006,1803.432038761006,1803.9319675320003,,,,,,,,,,,,,,,,,,,,,,,,,,,,,,,,,,,,,,,,,,,,,,,,,,,,,,,,,,,,,,,,,,,95450,2022-10-28_15h01.34.934,vts_reward_expectancy_bt_OFFLINE,2022.2.4,59.91780583007271,
0,0,0,1,0,0,1,0,star,hexagon,2,0,2,0,3,7,43,11,,,,,,,,,,,,,,,,,,,,,,,,,,,,,,,,,,,,,,,,1803.9319675320003,1803.9319675320003,1803.9319675320003,1803.9319675320003,1803.9319675320003,1803.9319675320003,1803.9319675320003,1803.9319675320003,1803.9319675320003,1803.9319675320003,a,1.3728365679853596,10,842,2,1805.3335031479946,,1806.8351854019857,,,,,,,,,,,,,,,,,,,,,,,,,,,,,,,,,,,,,,,,,,,,,,,,,,,,,,,,,,,,,,,,,,,,95450,2022-10-28_15h01.34.934,vts_reward_expectancy_bt_OFFLINE,2022.2.4,59.91780583007271,
0,1,0,0,1,0,0,0,circle,triangle,2,0,2,0,3,8,44,3,,,,,,,,,,,,,,,,,,,,,,,,,,,,,,,,,,,,,,,,1807.3353021549992,1807.3353021549992,1807.3353021549992,1807.3353021549992,1807.3353021549992,1807.3353021549992,1807.3353021549992,1807.3353021549992,1807.3353021549992,1807.3353021549992,a,1.1850708970159758,10,852,2,1808.552574219997,1810.052929233003,1810.052929233003,1810.5533103980124,,,,,,,,,,,,,,,,,,,,,,,,,,,,,,,,,,,,,,,,,,,,,,,,,,,,,,,,,,,,,,,,,,,95450,2022-10-28_15h01.34.934,vts_reward_expectancy_bt_OFFLINE,2022.2.4,59.91780583007271,
0,0,1,0,1,0,0,0,hexagon,triangle,2,0,2,0,3,9,45,6,,,,,,,,,,,,,,,,,,,,,,,,,,,,,,,,,,,,,,,,1810.5533103980124,1810.5533103980124,1810.5533103980124,1810.5533103980124,1810.5533103980124,1810.5533103980124,1810.5533103980124,1810.5533103980124,1810.5533103980124,1810.5533103980124,l,1.1831156549742445,10,862,2,1811.7556661170092,1813.2559866720112,1813.2559866720112,,,,,,,,,,,,,,,,,,,,,,,,,,,,,,,,,,,,,,,,,,,,,,,,,,,,,,,,,,,,,,,,,,,,95450,2022-10-28_15h01.34.934,vts_reward_expectancy_bt_OFFLINE,2022.2.4,59.91780583007271,
1,0,0,0,0,0,0,1,triangle,star,2,0,2,0,3,10,46,2,,,,,,,,,,,,,,,,,,,,,,,,,,,,,,,,,,,,,,,,1813.7563940490072,1813.7563940490072,1813.7563940490072,1813.7563940490072,1813.7563940490072,1813.7563940490072,1813.7563940490072,1813.7563940490072,1813.7563940490072,1813.7563940490072,l,0.9799590019974858,10,872,2,1814.7570567920047,,1816.258878010005,,,,,,,,,,,,,,,,,,,,,,,,,,,,,,,,,,,,,,,,,,,,,,,,,,,,,,,,,,,,,,,,,,,,95450,2022-10-28_15h01.34.934,vts_reward_expectancy_bt_OFFLINE,2022.2.4,59.91780583007271,
0,0,0,1,0,1,0,0,star ,circle,2,0,2,0,3,11,47,10,,,,,,,,,,,,,,,,,,,,,,,,,,,,,,,,,,,,,,,,1816.7590914870088,1816.7590914870088,1816.7590914870088,1816.7590914870088,1816.7590914870088,1816.7590914870088,1816.7590914870088,1816.7590914870088,1816.7590914870088,1816.7590914870088,a,1.1462459199829027,10,882,2,1817.9264923050068,,1819.426771206985,,,,,,,,,,,,,,,,,,,,,,,,,,,,,,,,,,,,,,,,,,,,,,,,,,,,,,,,,,,,,,,,,,,,95450,2022-10-28_15h01.34.934,vts_reward_expectancy_bt_OFFLINE,2022.2.4,59.91780583007271,
,,,,,,,,,,,,,,,,,,0,0,0,0,0,0,0,0,,,,,,,,,,,,,,,,,,,,,,,,,,,,,,,,,,,,,,,,,,,,,,,,,1863.9426438930095,,H,174,hexagon,0.0025735739909578115,1857.934698491008,1859.4222070680116,1859.4222070680116,1859.4222070680116,1862.4252990410023,1862.4252990410023,1862.4252990410023,0,0,None,0,1862.4421716679935,,,,,,,,,,,,,,,,,,,,,,,,,,,,,,,,,,,,,,,,,,,,,,,,,,,95450,2022-10-28_15h01.34.934,vts_reward_expectancy_bt_OFFLINE,2022.2.4,59.91780583007271,
,,,,,,,,,,,,,,,,,,0,0,0,0,1,0,1,0,,,,,,,,,,,,,,,,,,,,,,,,,,,,,,,,,,,,,,,,,,,,,,,,,1869.8297435530112,,S,146,star,0.006387672998243943,1864.9389020430099,1866.4284700049902,1866.4284700049902,1866.4284700049902,,,,2,1,j,0,1868.3167821769894,1.8609269839944318,,,,,,,,,,,,,,,,,,,,,,,,,,,,,,,,,,,,,,,,,,,,,,,,,,95450,2022-10-28_15h01.34.934,vts_reward_expectancy_bt_OFFLINE,2022.2.4,59.91780583007271,
,,,,,,,,,,,,,,,,,,0,0,0,0,2,0,2,0,,,,,,,,,,,,,,,,,,,,,,,,,,,,,,,,,,,,,,,,,,,,,,,,,1875.383682812011,,Y,139,triangle,0.016414049023296684,1870.826294769009,1872.2994659839896,1872.2994659839896,1872.2994659839896,,,,2,0,j,0,1873.8699477470072,1.5493867709883489,,,,,,,,,,,,,,,,,,,,,,,,,,,,,,,,,,,,,,,,,,,,,,,,,,95450,2022-10-28_15h01.34.934,vts_reward_expectancy_bt_OFFLINE,2022.2.4,59.91780583007271,
,,,,,,,,,,,,,,,,,,0,0,0,0,3,0,3,0,,,,,,,,,,,,,,,,,,,,,,,,,,,,,,,,,,,,,,,,,,,,,,,,,1880.4038122910133,1880.9041893999965,W,181,circle,0.01669800400850363,1876.3800485160027,1877.8526980479946,1877.8526980479946,1877.8526980479946,,,,2,0,k,0,1878.904333404993,1.0198961129935924,1880.4038122910133,,,,,,,,,,,,,,,,,,,,,,,,,,,,,,,,,,,,,,,,,,,,,,,,,95450,2022-10-28_15h01.34.934,vts_reward_expectancy_bt_OFFLINE,2022.2.4,59.91780583007271,
,,,,,,,,,,,,,,,,,,0,0,0,0,4,0,4,0,,,,,,,,,,,,,,,,,,,,,,,,,,,,,,,,,,,,,,,,,,,,,,,,,1887.4100255579979,,F,125,hexagon,0.0003511039831209928,1881.400519999006,1882.8902007249999,1882.8902007249999,1882.8902007249999,1885.8914533469942,1885.8914533469942,1885.8914533469942,0,0,None,0,1885.907807554002,,,,,,,,,,,,,,,,,,,,,,,,,,,,,,,,,,,,,,,,,,,,,,,,,,,95450,2022-10-28_15h01.34.934,vts_reward_expectancy_bt_OFFLINE,2022.2.4,59.91780583007271,
,,,,,,,,,,,,,,,,,,0,0,0,0,5,0,5,0,,,,,,,,,,,,,,,,,,,,,,,,,,,,,,,,,,,,,,,,,,,,,,,,,1892.3472582839895,,B,167,star,0.005902732984395698,1888.4057252740022,1889.894296398008,1889.894296398008,1889.894296398008,,,,1,1,d,0,1890.8478616820066,0.9225772920181043,,,,,,,,,,,,,,,,,,,,,,,,,,,,,,,,,,,,,,,,,,,,,,,,,,95450,2022-10-28_15h01.34.934,vts_reward_expectancy_bt_OFFLINE,2022.2.4,59.91780583007271,
,,,,,,,,,,,,,,,,,,0,0,0,0,6,0,6,0,,,,,,,,,,,,,,,,,,,,,,,,,,,,,,,,,,,,,,,,,,,,,,,,,1897.500809369987,,D,132,circle,0.0020548739994410425,1893.343023464986,1894.8312512169941,1894.8312512169941,1894.8312512169941,,,,1,0,d,0,1895.9901038290118,1.1382428820070345,,,,,,,,,,,,,,,,,,,,,,,,,,,,,,,,,,,,,,,,,,,,,,,,,,95450,2022-10-28_15h01.34.934,vts_reward_expectancy_bt_OFFLINE,2022.2.4,59.91780583007271,
,,,,,,,,,,,,,,,,,,0,0,0,0,7,0,7,0,,,,,,,,,,,,,,,,,,,,,,,,,,,,,,,,,,,,,,,,,,,,,,,,,1902.970979803009,,U,160,triangle,0.00966556798084639,1898.49689493599,1899.9849386749847,1899.9849386749847,1899.9849386749847,,,,2,0,j,0,1901.4575160960085,1.4474418309982866,,,,,,,,,,,,,,,,,,,,,,,,,,,,,,,,,,,,,,,,,,,,,,,,,,95450,2022-10-28_15h01.34.934,vts_reward_expectancy_bt_OFFLINE,2022.2.4,59.91780583007271,
,,,,,,,,,,,,,,,,,,0,0,0,0,8,0,8,0,,,,,,,,,,,,,,,,,,,,,,,,,,,,,,,,,,,,,,,,,,,,,,,,,1908.391759399994,,H,174,triangle,0.00033347500720992684,1903.9503264029918,1905.4384221580112,1905.4384221580112,1905.4384221580112,,,,1,0,d,0,1906.877624388988,1.4183484120003413,,,,,,,,,,,,,,,,,,,,,,,,,,,,,,,,,,,,,,,,,,,,,,,,,,95450,2022-10-28_15h01.34.934,vts_reward_expectancy_bt_OFFLINE,2022.2.4,59.91780583007271,
,,,,,,,,,,,,,,,,,,0,0,0,0,9,0,9,0,,,,,,,,,,,,,,,,,,,,,,,,,,,,,,,,,,,,,,,,,,,,,,,,,1915.3796342269925,,S,146,hexagon,0.017157796013634652,1909.387660531007,1910.8593663620122,1910.8593663620122,1910.8593663620122,1913.8620615089894,1913.8620615089894,1913.8620615089894,0,0,None,0,1913.8790185030084,,,,,,,,,,,,,,,,,,,,,,,,,,,,,,,,,,,,,,,,,,,,,,,,,,,95450,2022-10-28_15h01.34.934,vts_reward_expectancy_bt_OFFLINE,2022.2.4,59.91780583007271,
,,,,,,,,,,,,,,,,,,1,0,1,0,0,0,0,0,,,,,,,,,,,,,,,,,,,,,,,,,,,,,,,,,,,,,,,,,,,,,,,,,1932.2759583290026,,Y,174,circle,0.0017313570133410394,1928.2361444820126,1929.7234235510114,1929.7234235510114,1929.7234235510114,,,,1,1,f,1,1930.7786523489922,1.0299080190015957,,,,,,,,,,,,,,,,,,,,,,,,,,,,,,,,,,,,,,,,,,,,,,,,,,95450,2022-10-28_15h01.34.934,vts_reward_expectancy_bt_OFFLINE,2022.2.4,59.91780583007271,
,,,,,,,,,,,,,,,,,,1,0,1,0,1,0,1,0,,,,,,,,,,,,,,,,,,,,,,,,,,,,,,,,,,,,,,,,,,,,,,,,,1937.063037474989,,W,160,star,0.0017681809840723872,1933.2718277139938,1934.759948360006,1934.759948360006,1934.759948360006,,,,1,0,f,1,1935.5606367010041,0.7686783719982486,,,,,,,,,,,,,,,,,,,,,,,,,,,,,,,,,,,,,,,,,,,,,,,,,,95450,2022-10-28_15h01.34.934,vts_reward_expectancy_bt_OFFLINE,2022.2.4,59.91780583007271,
,,,,,,,,,,,,,,,,,,1,0,1,0,2,0,2,0,,,,,,,,,,,,,,,,,,,,,,,,,,,,,,,,,,,,,,,,,,,,,,,,,1941.7664894489862,,B,125,hexagon,0.0007147339929360896,1938.059111045004,1939.5471858090023,1939.5471858090023,1939.5471858090023,,,,1,0,d,1,1940.264870145009,0.6941117039823439,,,,,,,,,,,,,,,,,,,,,,,,,,,,,,,,,,,,,,,,,,,,,,,,,,95450,2022-10-28_15h01.34.934,vts_reward_expectancy_bt_OFFLINE,2022.2.4,59.91780583007271,
,,,,,,,,,,,,,,,,,,1,0,1,0,3,0,3,0,,,,,,,,,,,,,,,,,,,,,,,,,,,,,,,,,,,,,,,,,,,,,,,,,1946.4866287650075,,H,139,triangle,0.0020146080059930682,1942.7621733789856,1944.250908936985,1944.250908936985,1944.250908936985,,,,1,0,d,1,1944.985611298005,0.7018885549914557,,,,,,,,,,,,,,,,,,,,,,,,,,,,,,,,,,,,,,,,,,,,,,,,,,95450,2022-10-28_15h01.34.934,vts_reward_expectancy_bt_OFFLINE,2022.2.4,59.91780583007271,
,,,,,,,,,,,,,,,,,,1,0,1,0,4,0,4,0,,,,,,,,,,,,,,,,,,,,,,,,,,,,,,,,,,,,,,,,,,,,,,,,,1951.4735756230075,,S,132,circle,0.0020303709898144007,1947.4826040999906,1948.9709372929938,1948.9709372929938,1948.9709372929938,,,,1,0,f,1,1949.971773798985,0.9818982120195869,,,,,,,,,,,,,,,,,,,,,,,,,,,,,,,,,,,,,,,,,,,,,,,,,,95450,2022-10-28_15h01.34.934,vts_reward_expectancy_bt_OFFLINE,2022.2.4,59.91780583007271,
,,,,,,,,,,,,,,,,,,1,0,1,0,5,0,5,0,,,,,,,,,,,,,,,,,,,,,,,,,,,,,,,,,,,,,,,,,,,,,,,,,1956.1106454939872,,F,167,triangle,0.0020418929925654083,1952.4692880169896,1953.9579575439857,1953.9579575439857,1953.9579575439857,,,,1,0,d,1,1954.608944851003,0.6193477209890261,,,,,,,,,,,,,,,,,,,,,,,,,,,,,,,,,,,,,,,,,,,,,,,,,,95450,2022-10-28_15h01.34.934,vts_reward_expectancy_bt_OFFLINE,2022.2.4,59.91780583007271,
,,,,,,,,,,,,,,,,,,1,0,1,0,6,0,6,0,,,,,,,,,,,,,,,,,,,,,,,,,,,,,,,,,,,,,,,,,,,,,,,,,1960.5287907139864,,U,146,star,0.001774149015545845,1957.105964847986,1958.5947661559912,1958.5947661559912,1958.5947661559912,,,,1,0,f,1,1959.029482435988,0.41447927299304865,1960.5287907139864,,,,,,,,,,,,,,,,,,,,,,,,,,,,,,,,,,,,,,,,,,,,,,,,,95450,2022-10-28_15h01.34.934,vts_reward_expectancy_bt_OFFLINE,2022.2.4,59.91780583007271,
,,,,,,,,,,,,,,,,,,1,0,1,0,7,0,7,0,,,,,,,,,,,,,,,,,,,,,,,,,,,,,,,,,,,,,,,,,,,,,,,,,1965.2653585679946,1965.7655353120063,D,181,hexagon,0.009492713987128809,1961.5286772199906,1963.0150392990035,1963.0150392990035,1963.0150392990035,,,,1,0,d,1,1963.7661601330037,0.7217670259997249,1965.2653585679946,,,,,,,,,,,,,,,,,,,,,,,,,,,,,,,,,,,,,,,,,,,,,,,,,95450,2022-10-28_15h01.34.934,vts_reward_expectancy_bt_OFFLINE,2022.2.4,59.91780583007271,
,,,,,,,,,,,,,,,,,,1,0,1,0,8,0,8,0,,,,,,,,,,,,,,,,,,,,,,,,,,,,,,,,,,,,,,,,,,,,,,,,,1969.9192948449927,1970.413442338002,Y,174,hexagon,0.00034125702222809196,1966.2734534399933,1967.7520480259845,1967.7520480259845,1967.7520480259845,,,,1,0,f,1,1968.4196639019938,0.6409302790125366,,,,,,,,,,,,,,,,,,,,,,,,,,,,,,,,,,,,,,,,,,,,,,,,,,95450,2022-10-28_15h01.34.934,vts_reward_expectancy_bt_OFFLINE,2022.2.4,59.91780583007271,
,,,,,,,,,,,,,,,,,,1,0,1,0,9,0,9,0,,,,,,,,,,,,,,,,,,,,,,,,,,,,,,,,,,,,,,,,,,,,,,,,,1975.2897859450022,1975.7964597920072,W,160,star,-0.00025924999499693513,1970.925611579005,1972.4051824719936,1972.4051824719936,1972.4051824719936,,,,1,0,f,1,1973.790192585002,1.3637607969867531,1975.2897859450022,,,,,,,,,,,,,,,,,,,,,,,,,,,,,,,,,,,,,,,,,,,,,,,,,95450,2022-10-28_15h01.34.934,vts_reward_expectancy_bt_OFFLINE,2022.2.4,59.91780583007271,
,,,,,,,,,,,,,,,,,,,,,,,,,,0,0,0,0,0,0,0,0,,,,,,,,,,,,,,,,,,,,,,,,,,,,,,,,,,,,,,,,,1998.923671386001,1999.4239706080116,U,146,circle,0.00015884198364801705,,,,,,,,1,0,,2,1997.4247207379958,,1998.923671386001,1994.4607465880108,1995.9375658229983,1995.9375658229983,1995.9375658229983,j,1.4554669369827025,,,,,,,,,,,,,,,,,,,,,,,,,,,,,,,,,,,,,,,,,,,95450,2022-10-28_15h01.34.934,vts_reward_expectancy_bt_OFFLINE,2022.2.4,59.91780583007271,
,,,,,,,,,,,,,,,,,,,,,,,,,,0,0,0,0,1,0,1,0,,,,,,,,,,,,,,,,,,,,,,,,,,,,,,,,,,,,,,,,,2003.4776779790118,2003.9772922479897,D,167,hexagon,0.0002303200017195195,,,,,,,,1,0,,2,2001.976835059002,,2003.4776779790118,1999.93177890699,2001.4102379929973,2001.4102379929973,2001.4102379929973,k,0.5345495259971358,,,,,,,,,,,,,,,,,,,,,,,,,,,,,,,,,,,,,,,,,,,95450,2022-10-28_15h01.34.934,vts_reward_expectancy_bt_OFFLINE,2022.2.4,59.91780583007271,
,,,,,,,,,,,,,,,,,,,,,,,,,,0,0,0,0,2,0,2,0,,,,,,,,,,,,,,,,,,,,,,,,,,,,,,,,,,,,,,,,,2008.314590304013,2008.814884728985,F,132,triangle,-0.0009374840010423213,,,,,,,,1,0,,2,2006.8151531789917,,2008.314590304013,2004.4844361300056,2005.9615233959921,2005.9615233959921,2005.9615233959921,j,0.8227631170011591,,,,,,,,,,,,,,,,,,,,,,,,,,,,,,,,,,,,,,,,,,,95450,2022-10-28_15h01.34.934,vts_reward_expectancy_bt_OFFLINE,2022.2.4,59.91780583007271,
,,,,,,,,,,,,,,,,,,,,,,,,,,0,0,0,0,3,0,3,0,,,,,,,,,,,,,,,,,,,,,,,,,,,,,,,,,,,,,,,,,2012.7843644199893,2013.2844697819964,W,181,star,0.00046805100282654166,,,,,,,,1,0,,2,2011.2851547340106,,2012.7843644199893,2009.3103219759942,2010.7985916410107,2010.7985916410107,2010.7985916410107,k,0.45772663698880933,,,,,,,,,,,,,,,,,,,,,,,,,,,,,,,,,,,,,,,,,,,95450,2022-10-28_15h01.34.934,vts_reward_expectancy_bt_OFFLINE,2022.2.4,59.91780583007271,
,,,,,,,,,,,,,,,,,,,,,,,,,,0,0,0,0,4,0,4,0,,,,,,,,,,,,,,,,,,,,,,,,,,,,,,,,,,,,,,,,,2017.6714082669932,2018.1719489280076,H,125,triangle,0.00017955599469132721,,,,,,,,1,0,,2,2016.1724167049979,,2017.6714082669932,2013.7802274000132,2015.2684205780097,2015.2684205780097,2015.2684205780097,j,0.8770344779768493,,,,,,,,,,,,,,,,,,,,,,,,,,,,,,,,,,,,,,,,,,,95450,2022-10-28_15h01.34.934,vts_reward_expectancy_bt_OFFLINE,2022.2.4,59.91780583007271,
,,,,,,,,,,,,,,,,,,,,,,,,,,0,0,0,0,5,0,5,0,,,,,,,,,,,,,,,,,,,,,,,,,,,,,,,,,,,,,,,,,2022.7752840709873,,Y,160,star,0.00039352200110442936,,,,,,,,1,0,,2,2021.2595162809885,,,2018.6673024169868,2020.1556515780103,2020.1556515780103,2020.1556515780103,k,1.0847931430034805,,,,,,,,,,,,,,,,,,,,,,,,,,,,,,,,,,,,,,,,,,,95450,2022-10-28_15h01.34.934,vts_reward_expectancy_bt_OFFLINE,2022.2.4,59.91780583007271,
,,,,,,,,,,,,,,,,,,,,,,,,,,0,0,0,0,6,0,6,0,,,,,,,,,,,,,,,,,,,,,,,,,,,,,,,,,,,,,,,,,2027.6122685279988,2028.1121992690023,S,174,circle,0.01691393001237884,,,,,,,,1,0,,2,2026.1125069519912,,2027.6122685279988,2023.7709386239876,2025.242871777009,2025.242871777009,2025.242871777009,k,0.8460125489800703,,,,,,,,,,,,,,,,,,,,,,,,,,,,,,,,,,,,,,,,,,,95450,2022-10-28_15h01.34.934,vts_reward_expectancy_bt_OFFLINE,2022.2.4,59.91780583007271,
,,,,,,,,,,,,,,,,,,,,,,,,,,0,0,0,0,7,0,7,0,,,,,,,,,,,,,,,,,,,,,,,,,,,,,,,,,,,,,,,,,2032.515663928003,,B,139,hexagon,0.00044824599171988666,,,,,,,,1,0,,2,2031.0144357639947,,,2028.6078306919953,2030.0963951819867,2030.0963951819867,2030.0963951819867,j,0.8889065990224481,,,,,,,,,,,,,,,,,,,,,,,,,,,,,,,,,,,,,,,,,,,95450,2022-10-28_15h01.34.934,vts_reward_expectancy_bt_OFFLINE,2022.2.4,59.91780583007271,
,,,,,,,,,,,,,,,,,,,,,,,,,,0,0,0,0,8,0,8,0,,,,,,,,,,,,,,,,,,,,,,,,,,,,,,,,,,,,,,,,,2037.2021201160096,,U,146,circle,0.0018982900073751807,,,,,,,,1,0,,2,2035.7015315520111,,,2033.511110891006,2034.9998871000134,2034.9998871000134,2034.9998871000134,j,0.6813135629927274,,,,,,,,,,,,,,,,,,,,,,,,,,,,,,,,,,,,,,,,,,,95450,2022-10-28_15h01.34.934,vts_reward_expectancy_bt_OFFLINE,2022.2.4,59.91780583007271,
,,,,,,,,,,,,,,,,,,,,,,,,,,0,0,0,0,9,0,9,0,,,,,,,,,,,,,,,,,,,,,,,,,,,,,,,,,,,,,,,,,2042.1560078870098,,D,167,star,0.0017480340029578656,,,,,,,,1,0,,2,2040.654651932011,,,2038.1982742410037,2039.6865919340053,2039.6865919340053,2039.6865919340053,k,0.9377875200007111,,,,,,,,,,,,,,,,,,,,,,,,,,,,,,,,,,,,,,,,,,,95450,2022-10-28_15h01.34.934,vts_reward_expectancy_bt_OFFLINE,2022.2.4,59.91780583007271,
,,,,,,,,,,,,,,,,,,,,,,,,,,,,,,,,,,0,0,0,0,0,0,0,0,,,,,,,,,,,,,,,,,,,,,,,,,,,,0,882,,,,2069.791950209008,,S,139,triangle,0.017803814000217244,,,,,,,,1,0,,3,,,,,,,,,,2065.402505239006,2065.402505239006,2065.402505239006,2065.402505239006,2066.8739736269927,2066.8739736269927,2066.8739736269927,2066.8739736269927,2066.907602137013,2066.907602137013,2066.907602137013,2066.907602137013,-1,letter,NA,f,1.383001225971384,vtsPrac,2068.278788319003,,,,,,,,,,,,,,,,,,,,,,,,95450,2022-10-28_15h01.34.934,vts_reward_expectancy_bt_OFFLINE,2022.2.4,59.91780583007271,
,,,,,,,,,,,,,,,,,,,,,,,,,,,,,,,,,,0,0,0,0,1,0,1,0,,,,,,,,,,,,,,,,,,,,,,,,,,,,0,882,,,,2075.2458316099946,2075.7458038589975,W,132,circle,0.016615901986369863,,,,,,,,1,0,,3,,,,,,,,,,2070.7892055239936,2070.7892055239936,2070.7892055239936,2070.7892055239936,2072.2614036329906,2072.2614036329906,2072.2614036329906,2072.2614036329906,2072.2946682370093,2072.2946682370093,2072.2946682370093,2072.2946682370093,switch,number,numSwt,j,1.451709185988875,vtsPrac,2073.7452413749998,2075.2458316099946,,,,,,,,,,,,,,,,,,,,,,,95450,2022-10-28_15h01.34.934,vts_reward_expectancy_bt_OFFLINE,2022.2.4,59.91780583007271,
,,,,,,,,,,,,,,,,,,,,,,,,,,,,,,,,,,0,0,0,0,2,0,2,0,,,,,,,,,,,,,,,,,,,,,,,,,,,,0,882,,,,2079.9659990500077,,D,160,star,-0.0008602540183346719,,,,,,,,0,0,,3,,,,,,,,,,2076.2540908849915,2076.2540908849915,2076.2540908849915,2076.2540908849915,2077.7316508860094,2077.7316508860094,2077.7316508860094,2077.7316508860094,2077.76514135499,2077.76514135499,2077.76514135499,2077.76514135499,switch,letter,NA,f,0.6927270470187068,vtsPrac,2078.452316949988,,,,,,,,,,,,,,,,,,,,,,,,95450,2022-10-28_15h01.34.934,vts_reward_expectancy_bt_OFFLINE,2022.2.4,59.91780583007271,
,,,,,,,,,,,,,,,,,,,,,,,,,,,,,,,,,,0,0,0,0,3,0,3,0,,,,,,,,,,,,,,,,,,,,,,,,,,,,0,882,,,,2085.6198503859923,,F,125,circle,0.017043849016772583,,,,,,,,1,1,,3,,,,,,,,,,2080.962580272986,2080.962580272986,2080.962580272986,2080.962580272986,2082.4353693840094,2082.4353693840094,2082.4353693840094,2082.4353693840094,2082.4688061279885,2082.4688061279885,2082.4688061279885,2082.4688061279885,switch,number,numSwt,j,1.6454944669967517,vtsPrac,2084.105795584008,,,,,,,,,,,,,,,,,,,,,,,,95450,2022-10-28_15h01.34.934,vts_reward_expectancy_bt_OFFLINE,2022.2.4,59.91780583007271,
,,,,,,,,,,,,,,,,,,,,,,,,,,,,,,,,,,0,0,0,0,4,0,4,0,,,,,,,,,,,,,,,,,,,,,,,,,,,,0,882,,,,2090.456853638985,,S,139,star,0.014800829987507313,,,,,,,,1,0,,3,,,,,,,,,,2086.6147827710083,2086.6147827710083,2086.6147827710083,2086.6147827710083,2088.089190558996,2088.089190558996,2088.089190558996,2088.089190558996,2088.1225752499886,2088.1225752499886,2088.1225752499886,2088.1225752499886,repeat,number,numRpt,j,0.8399973149935249,vtsPrac,2088.9571895510016,2090.456853638985,,,,,,,,,,,,,,,,,,,,,,,95450,2022-10-28_15h01.34.934,vts_reward_expectancy_bt_OFFLINE,2022.2.4,59.91780583007271,
,,,,,,,,,,,,,,,,,,,,,,,,,,,,,,,,,,0,0,0,0,5,0,5,0,,,,,,,,,,,,,,,,,,,,,,,,,,,,0,882,,,,2095.877063274005,,W,132,triangle,0.00039156698039732873,,,,,,,,1,0,,3,,,,,,,,,,2091.4531394869846,2091.4531394869846,2091.4531394869846,2091.4531394869846,2092.942608977988,2092.942608977988,2092.942608977988,2092.942608977988,2092.9596727209864,2092.9596727209864,2092.9596727209864,2092.9596727209864,switch,letter,lettSwt,f,1.4106883380154613,vtsPrac,2094.3778018709854,2095.877063274005,,,,,,,,,,,,,,,,,,,,,,,95450,2022-10-28_15h01.34.934,vts_reward_expectancy_bt_OFFLINE,2022.2.4,59.91780583007271,
,,,,,,,,,,,,,,,,,,,,,,,,,,,,,,,,,,0,0,0,0,6,0,6,0,,,,,,,,,,,,,,,,,,,,,,,,,,,,0,882,,,,2100.981092561997,,D,160,circle,0.0019140600052196532,,,,,,,,1,0,,3,,,,,,,,,,2096.873900981009,2096.873900981009,2096.873900981009,2096.873900981009,2098.3632065450074,2098.3632065450074,2098.3632065450074,2098.3632065450074,2098.3801032610063,2098.3801032610063,2098.3801032610063,2098.3801032610063,switch,number,numSwt,k,1.085074816015549,vtsPrac,2099.4805381819897,2100.981092561997,,,,,,,,,,,,,,,,,,,,,,,95450,2022-10-28_15h01.34.934,vts_reward_expectancy_bt_OFFLINE,2022.2.4,59.91780583007271,
,,,,,,,,,,,,,,,,,,,,,,,,,,,,,,,,,,0,0,0,0,7,0,7,0,,,,,,,,,,,,,,,,,,,,,,,,,,,,0,882,,,,2105.601052421989,,F,125,triangle,0.0011693109991028905,,,,,,,,1,0,,3,,,,,,,,,,2101.978413726989,2101.978413726989,2101.978413726989,2101.978413726989,2103.4667246770114,2103.4667246770114,2103.4667246770114,2103.4667246770114,2103.4836431170115,2103.4836431170115,2103.4836431170115,2103.4836431170115,switch,letter,lettSwt,d,0.5905384829966351,vtsPrac,2104.085102459998,,,,,,,,,,,,,,,,,,,,,,,,95450,2022-10-28_15h01.34.934,vts_reward_expectancy_bt_OFFLINE,2022.2.4,59.91780583007271,
,,,,,,,,,,,,,,,,,,,,,,,,,,,,,,,,,,0,0,0,0,8,0,8,0,,,,,,,,,,,,,,,,,,,,,,,,,,,,0,882,,,,2110.587968623993,,D,174,circle,0.016859416995430365,,,,,,,,1,0,,3,,,,,,,,,,2106.5979761400085,2106.5979761400085,2106.5979761400085,2106.5979761400085,2108.070660647005,2108.070660647005,2108.070660647005,2108.070660647005,2108.103769181005,2108.103769181005,2108.103769181005,2108.103769181005,switch,number,numSwt,k,0.9944472369970754,vtsPrac,2109.0882608669926,2110.587968623993,,,,,,,,,,,,,,,,,,,,,,,95450,2022-10-28_15h01.34.934,vts_reward_expectancy_bt_OFFLINE,2022.2.4,59.91780583007271,
,,,,,,,,,,,,,,,,,,,,,,,,,,,,,,,,,,0,0,0,0,9,0,9,0,,,,,,,,,,,,,,,,,,,,,,,,,,,,0,882,,,,2115.925017778005,,F,125,hexagon,0.00044167498708702624,,,,,,,,1,0,,3,,,,,,,,,,2111.5843082939973,2111.5843082939973,2111.5843082939973,2111.5843082939973,2113.0736706639873,2113.0736706639873,2113.0736706639873,2113.0736706639873,2113.09077280201,2113.09077280201,2113.09077280201,2113.09077280201,repeat,number,numRpt,j,1.3273826710064895,vtsPrac,2114.425510661007,,,,,,,,,,,,,,,,,,,,,,,,95450,2022-10-28_15h01.34.934,vts_reward_expectancy_bt_OFFLINE,2022.2.4,59.91780583007271,
,,,,,,,,,,,,,,,,,,,,,,,,,,,,,,,,,,0,0,0,0,10,0,10,0,,,,,,,,,,,,,,,,,,,,,,,,,,,,0,882,,,,2120.945409228996,,Y,132,hexagon,0.002084348991047591,,,,,,,,1,0,,3,,,,,,,,,,2116.9222440450103,2116.9222440450103,2116.9222440450103,2116.9222440450103,2118.410950440011,2118.410950440011,2118.410950440011,2118.410950440011,2118.4281559970113,2118.4281559970113,2118.4281559970113,2118.4281559970113,repeat,number,numRpt,j,1.0141914749983698,vtsPrac,2119.446248133987,2120.945409228996,,,,,,,,,,,,,,,,,,,,,,,95450,2022-10-28_15h01.34.934,vts_reward_expectancy_bt_OFFLINE,2022.2.4,59.91780583007271,
,,,,,,,,,,,,,,,,,,,,,,,,,,,,,,,,,,0,0,0,0,11,0,11,0,,,,,,,,,,,,,,,,,,,,,,,,,,,,0,882,,,,2125.9319815899944,,H,160,circle,0.002091272996040061,,,,,,,,0,0,,3,,,,,,,,,,2121.9431490259885,2121.9431490259885,2121.9431490259885,2121.9431490259885,2123.431188646995,2123.431188646995,2123.431188646995,2123.431188646995,2123.4482558470045,2123.4482558470045,2123.4482558470045,2123.4482558470045,repeat,number,NA,j,0.9531817379756831,vtsPrac,2124.418287820008,,,,,,,,,,,,,,,,,,,,,,,,95450,2022-10-28_15h01.34.934,vts_reward_expectancy_bt_OFFLINE,2022.2.4,59.91780583007271,
,,,,,,,,,,,,,,,,,,,,,,,,,,,,,,,,,,0,0,0,0,12,0,12,0,,,,,,,,,,,,,,,,,,,,,,,,,,,,0,882,,,,2130.652222606004,,W,167,triangle,0.001902377000078559,,,,,,,,1,1,,3,,,,,,,,,,2126.9130883670005,2126.9130883670005,2126.9130883670005,2126.9130883670005,2128.4016633149877,2128.4016633149877,2128.4016633149877,2128.4016633149877,2128.418518677994,2128.418518677994,2128.418518677994,2128.418518677994,switch,letter,lettSwt,f,0.7119831000163686,vtsPrac,2129.1387502480065,,,,,,,,,,,,,,,,,,,,,,,,95450,2022-10-28_15h01.34.934,vts_reward_expectancy_bt_OFFLINE,2022.2.4,59.91780583007271,
,,,,,,,,,,,,,,,,,,,,,,,,,,,,,,,,,,0,0,0,0,13,0,13,0,,,,,,,,,,,,,,,,,,,,,,,,,,,,0,882,,,,2135.5726700779924,2136.0726923480106,D,132,hexagon,0.01430359497317113,,,,,,,,1,0,,3,,,,,,,,,,2131.6476456880046,2131.6476456880046,2131.6476456880046,2131.6476456880046,2133.1216514820117,2133.1216514820117,2133.1216514820117,2133.1216514820117,2133.155224554008,2133.155224554008,2133.155224554008,2133.155224554008,repeat,letter,lettRpt,d,0.9276239559985697,vtsPrac,2134.073300026008,2135.5726700779924,,,,,,,,,,,,,,,,,,,,,,,95450,2022-10-28_15h01.34.934,vts_reward_expectancy_bt_OFFLINE,2022.2.4,59.91780583007271,
,,,,,,,,,,,,,,,,,,,,,,,,,,,,,,,,,,0,0,0,0,14,0,14,0,,,,,,,,,,,,,,,,,,,,,,,,,,,,0,882,,,,2140.8264945519913,,H,146,star,0.0004325629852246493,,,,,,,,1,0,,3,,,,,,,,,,2136.5689889650093,2136.5689889650093,2136.5689889650093,2136.5689889650093,2138.0589594760095,2138.0589594760095,2138.0589594760095,2138.0589594760095,2138.0756733430026,2138.0756733430026,2138.0756733430026,2138.0756733430026,switch,number,numSwt,j,1.2374904659809545,vtsPrac,2139.3268504379957,2140.8264945519913,,,,,,,,,,,,,,,,,,,,,,,95450,2022-10-28_15h01.34.934,vts_reward_expectancy_bt_OFFLINE,2022.2.4,59.91780583007271,
,,,,,,,,,,,,,,,,,,,,,,,,,,,,,,,,,,0,0,0,0,15,0,15,0,,,,,,,,,,,,,,,,,,,,,,,,,,,,0,882,,,,2145.2966829139914,2145.8073687269934,S,181,triangle,0.0021327709837350994,,,,,,,,1,0,,3,,,,,,,,,,2141.8238128490048,2141.8238128490048,2141.8238128490048,2141.8238128490048,2143.312563004991,2143.312563004991,2143.312563004991,2143.312563004991,2143.329390160012,2143.329390160012,2143.329390160012,2143.329390160012,repeat,number,numRpt,k,0.4564991150109563,vtsPrac,2143.797281817009,2145.2966829139914,,,,,,,,,,,,,,,,,,,,,,,95450,2022-10-28_15h01.34.934,vts_reward_expectancy_bt_OFFLINE,2022.2.4,59.91780583007271,
,,,,,,,,,,,,,,,,,,,,,,,,,,,,,,,,,,,,,,,,,,0,0,0,0,,,,,,,,,,,,,,,,,,,,,,,,0,882,,,,2162.160147521994,,H,181,star,0.002391938993241638,,,,,,,,1,0,,,,,,,,,,,,2157.2685167430027,2157.2685167430027,2157.2685167430027,2157.2685167430027,2158.756674422999,2158.756674422999,2158.756674422999,2158.756674422999,2158.773767459992,2158.773767459992,2158.773767459992,2158.773767459992,switch,letter,lettSwt,d,1.8837849019910209,noRew,,,0,2160.6607358219917,,,,,,,,,,,,,,,,,,,,,95450,2022-10-28_15h01.34.934,vts_reward_expectancy_bt_OFFLINE,2022.2.4,59.91780583007271,
