LTriangleOpac,LCircleOpac,LHexagonOpac,LStarOpac,RTriangleOpac,RCircleOpac,RHexagonOpac,RStarOpac,LShape_ID,RShape_ID,training_blocks.thisRepN,training_blocks.thisTrialN,training_blocks.thisN,training_blocks.thisIndex,training.thisRepN,training.thisTrialN,training.thisN,training.thisIndex,task1_prac_redo.thisRepN,task1_prac_redo.thisTrialN,task1_prac_redo.thisN,task1_prac_redo.thisIndex,task1_prac_trials.thisRepN,task1_prac_trials.thisTrialN,task1_prac_trials.thisN,task1_prac_trials.thisIndex,task2_prac_redo.thisRepN,task2_prac_redo.thisTrialN,task2_prac_redo.thisN,task2_prac_redo.thisIndex,task2_praac_trials.thisRepN,task2_praac_trials.thisTrialN,task2_praac_trials.thisN,task2_praac_trials.thisIndex,vts_prac_redo.thisRepN,vts_prac_redo.thisTrialN,vts_prac_redo.thisN,vts_prac_redo.thisIndex,vts_practice_trials.thisRepN,vts_practice_trials.thisTrialN,vts_practice_trials.thisN,vts_practice_trials.thisIndex,trials_norew.thisRepN,trials_norew.thisTrialN,trials_norew.thisN,trials_norew.thisIndex,block.thisRepN,block.thisTrialN,block.thisN,block.thisIndex,trials_rew.thisRepN,trials_rew.thisTrialN,trials_rew.thisN,trials_rew.thisIndex,key_resp.started,key_resp.keys,key_resp.rt,left_circle.started,right_circle.started,left_triangle.started,right_triangle.started,left_star.started,right_star.started,left_hexagon.started,right_hexagon.started,training_fix.started,training_resp.started,training_resp.keys,training_resp.rt,points_trial,points_cumul,trainBlock,training_feedback_txt.started,fix.started,training_feedback_txt.stopped,fix.stopped,curr_topStim,curr_bottStim,curr_shape,ISI.started,tgt_fix_prac1.started,top_target_prac1.started,bott_target_prac1.started,target_resp_prac1.started,acc,E1,target_resp_prac1.keys,target_resp_prac1.rt,pracBlock,prac_fback_text.started,prac_fback_text.stopped,tgt_fix_prac2.started,top_target_prac2.started,bott_target_prac2.started,target_resp_prac2.started,target_resp_prac2.keys,target_resp_prac2.rt,star.started,hegagon.started,triangle.started,circle.started,top_target.started,tgt_fix.started,bot_target.started,target_resp.started,star.stopped,hegagon.stopped,triangle.stopped,circle.stopped,top_target.stopped,tgt_fix.stopped,bot_target.stopped,target_resp.stopped,alt,task,condition,target_resp.keys,rewCond,vts_fback.started,target_resp.rt,vts_fback.stopped,blockNum,norew_fback.started,norew_fback.stopped,key_resp_2.keys,key_resp_2.rt,rewExpectancy,feedbk_text.started,feedbk_text.stopped,text_3.started,debrief.started,text_3.stopped,button.started,debrief.index,debrief.itemText,debrief.type,debrief.granularity,debrief.font,debrief.markerColor,debrief.response,debrief.rt,button.numClicks,button.timesOn,button.timesOff,participant,date,expName,psychopyVersion,frameRate,
,,,,,,,,,,,,,,,,,,,,,,,,,,,,,,,,,,,,,,,,,,,,,,,,,,,,,,234.59877749485895,space,17.017182538984343,,,,,,,,,,,,,,,,,,,,,,,,,,,,,,,,,,,,,,,,,,,,,,,,,,,,,,,,,,,,,,,,,,,,,,,,,,,,,,,,,,,,,,,,95949,2022-11-16_14h31.02.361,vts_reward_expectancy_bt_OFFLINE,2022.2.4,60.095062409638274,
1,0,0,0,0,1,0,0,triangle,circle,0,0,0,0,0,0,0,0,,,,,,,,,,,,,,,,,,,,,,,,,,,,,,,,,,,,,,,,273.9588619619608,273.9588619619608,273.9588619619608,273.9588619619608,273.9588619619608,273.9588619619608,273.9588619619608,273.9588619619608,273.9588619619608,273.9588619619608,a,1.2369102481752634,10,10,0,275.2269972609356,276.7287314508576,,,,,,,,,,,,,,,,,,,,,,,,,,,,,,,,,,,,,,,,,,,,,,,,,,,,,,,,,,,,,,,,,,,,,,,95949,2022-11-16_14h31.02.361,vts_reward_expectancy_bt_OFFLINE,2022.2.4,60.095062409638274,
1,0,0,0,0,0,1,0,triangle,hexagon,0,0,0,0,0,1,1,1,,,,,,,,,,,,,,,,,,,,,,,,,,,,,,,,,,,,,,,,277.22910322481766,277.22910322481766,277.22910322481766,277.22910322481766,277.22910322481766,277.22910322481766,277.22910322481766,277.22910322481766,277.22910322481766,277.22910322481766,a,0.8484038340393454,10,20,0,278.09699011198245,279.5983100938611,,,,,,,,,,,,,,,,,,,,,,,,,,,,,,,,,,,,,,,,,,,,,,,,,,,,,,,,,,,,,,,,,,,,,,,95949,2022-11-16_14h31.02.361,vts_reward_expectancy_bt_OFFLINE,2022.2.4,60.095062409638274,
0,0,1,0,0,0,0,1,hexagon,star,0,0,0,0,0,2,2,8,,,,,,,,,,,,,,,,,,,,,,,,,,,,,,,,,,,,,,,,280.09905627393164,280.09905627393164,280.09905627393164,280.09905627393164,280.09905627393164,280.09905627393164,280.09905627393164,280.09905627393164,280.09905627393164,280.09905627393164,a,1.5684267689939588,10,30,0,281.68396101985127,283.1856425369624,283.1856425369624,,,,,,,,,,,,,,,,,,,,,,,,,,,,,,,,,,,,,,,,,,,,,,,,,,,,,,,,,,,,,,,,,,,,,,95949,2022-11-16_14h31.02.361,vts_reward_expectancy_bt_OFFLINE,2022.2.4,60.095062409638274,
0,0,0,1,1,0,0,0,star,triangle,0,0,0,0,0,3,3,9,,,,,,,,,,,,,,,,,,,,,,,,,,,,,,,,,,,,,,,,283.68637535185553,283.68637535185553,283.68637535185553,283.68637535185553,283.68637535185553,283.68637535185553,283.68637535185553,283.68637535185553,283.68637535185553,283.68637535185553,l,0.6016076679807156,10,40,0,284.3201374600176,285.82194926496595,,,,,,,,,,,,,,,,,,,,,,,,,,,,,,,,,,,,,,,,,,,,,,,,,,,,,,,,,,,,,,,,,,,,,,,95949,2022-11-16_14h31.02.361,vts_reward_expectancy_bt_OFFLINE,2022.2.4,60.095062409638274,
0,1,0,0,0,0,1,0,circle,hexagon,0,0,0,0,0,4,4,4,,,,,,,,,,,,,,,,,,,,,,,,,,,,,,,,,,,,,,,,286.32245068391785,286.32245068391785,286.32245068391785,286.32245068391785,286.32245068391785,286.32245068391785,286.32245068391785,286.32245068391785,286.32245068391785,286.32245068391785,l,0.8684021572116762,10,50,0,287.2236040569842,288.72504853084683,,,,,,,,,,,,,,,,,,,,,,,,,,,,,,,,,,,,,,,,,,,,,,,,,,,,,,,,,,,,,,,,,,,,,,,95949,2022-11-16_14h31.02.361,vts_reward_expectancy_bt_OFFLINE,2022.2.4,60.095062409638274,
0,1,0,0,0,0,0,1,circle,star,0,0,0,0,0,5,5,5,,,,,,,,,,,,,,,,,,,,,,,,,,,,,,,,,,,,,,,,289.22582482895814,289.22582482895814,289.22582482895814,289.22582482895814,289.22582482895814,289.22582482895814,289.22582482895814,289.22582482895814,289.22582482895814,289.22582482895814,l,1.3953759821597487,10,60,0,290.64413510402665,292.14556015189737,,,,,,,,,,,,,,,,,,,,,,,,,,,,,,,,,,,,,,,,,,,,,,,,,,,,,,,,,,,,,,,,,,,,,,,95949,2022-11-16_14h31.02.361,vts_reward_expectancy_bt_OFFLINE,2022.2.4,60.095062409638274,
0,1,0,0,1,0,0,0,circle,triangle,0,0,0,0,0,6,6,3,,,,,,,,,,,,,,,,,,,,,,,,,,,,,,,,,,,,,,,,292.64617628394626,292.64617628394626,292.64617628394626,292.64617628394626,292.64617628394626,292.64617628394626,292.64617628394626,292.64617628394626,292.64617628394626,292.64617628394626,l,0.6860828849021345,10,70,0,293.3637427589856,294.86537350085564,294.86537350085564,,,,,,,,,,,,,,,,,,,,,,,,,,,,,,,,,,,,,,,,,,,,,,,,,,,,,,,,,,,,,,,,,,,,,,95949,2022-11-16_14h31.02.361,vts_reward_expectancy_bt_OFFLINE,2022.2.4,60.095062409638274,
0,0,1,0,0,1,0,0,hexagon,circle,0,0,0,0,0,7,7,7,,,,,,,,,,,,,,,,,,,,,,,,,,,,,,,,,,,,,,,,295.3657138450071,295.3657138450071,295.3657138450071,295.3657138450071,295.3657138450071,295.3657138450071,295.3657138450071,295.3657138450071,295.3657138450071,295.3657138450071,a,0.7019178930204362,1,71,0,296.09995582001284,297.6016828469001,,,,,,,,,,,,,,,,,,,,,,,,,,,,,,,,,,,,,,,,,,,,,,,,,,,,,,,,,,,,,,,,,,,,,,,95949,2022-11-16_14h31.02.361,vts_reward_expectancy_bt_OFFLINE,2022.2.4,60.095062409638274,
0,0,1,0,1,0,0,0,hexagon,triangle,0,0,0,0,0,8,8,6,,,,,,,,,,,,,,,,,,,,,,,,,,,,,,,,,,,,,,,,298.10186709999107,298.10186709999107,298.10186709999107,298.10186709999107,298.10186709999107,298.10186709999107,298.10186709999107,298.10186709999107,298.10186709999107,298.10186709999107,l,1.7010831942316145,1,72,0,299.82083151489496,301.3222783799283,301.3222783799283,,,,,,,,,,,,,,,,,,,,,,,,,,,,,,,,,,,,,,,,,,,,,,,,,,,,,,,,,,,,,,,,,,,,,,95949,2022-11-16_14h31.02.361,vts_reward_expectancy_bt_OFFLINE,2022.2.4,60.095062409638274,
0,0,0,1,0,1,0,0,star ,circle,0,0,0,0,0,9,9,10,,,,,,,,,,,,,,,,,,,,,,,,,,,,,,,,,,,,,,,,301.82281242101453,301.82281242101453,301.82281242101453,301.82281242101453,301.82281242101453,301.82281242101453,301.82281242101453,301.82281242101453,301.82281242101453,301.82281242101453,a,1.15234095021151,1,73,0,303.0075794949662,304.509110189043,,,,,,,,,,,,,,,,,,,,,,,,,,,,,,,,,,,,,,,,,,,,,,,,,,,,,,,,,,,,,,,,,,,,,,,95949,2022-11-16_14h31.02.361,vts_reward_expectancy_bt_OFFLINE,2022.2.4,60.095062409638274,
1,0,0,0,0,0,0,1,triangle,star,0,0,0,0,0,10,10,2,,,,,,,,,,,,,,,,,,,,,,,,,,,,,,,,,,,,,,,,305.009667663835,305.009667663835,305.009667663835,305.009667663835,305.009667663835,305.009667663835,305.009667663835,305.009667663835,305.009667663835,305.009667663835,a,0.8228259151801467,10,83,0,305.86079286504537,307.36253502382897,,,,,,,,,,,,,,,,,,,,,,,,,,,,,,,,,,,,,,,,,,,,,,,,,,,,,,,,,,,,,,,,,,,,,,,95949,2022-11-16_14h31.02.361,vts_reward_expectancy_bt_OFFLINE,2022.2.4,60.095062409638274,
0,0,0,1,0,0,1,0,star,hexagon,0,0,0,0,0,11,11,11,,,,,,,,,,,,,,,,,,,,,,,,,,,,,,,,,,,,,,,,307.86305507598445,307.86305507598445,307.86305507598445,307.86305507598445,307.86305507598445,307.86305507598445,307.86305507598445,307.86305507598445,307.86305507598445,307.86305507598445,l,1.4693957280833274,1,84,0,309.36476564081386,310.86619156994857,,,,,,,,,,,,,,,,,,,,,,,,,,,,,,,,,,,,,,,,,,,,,,,,,,,,,,,,,,,,,,,,,,,,,,,95949,2022-11-16_14h31.02.361,vts_reward_expectancy_bt_OFFLINE,2022.2.4,60.095062409638274,
0,1,0,0,0,0,1,0,circle,hexagon,0,0,0,0,1,0,12,4,,,,,,,,,,,,,,,,,,,,,,,,,,,,,,,,,,,,,,,,311.36689919186756,311.36689919186756,311.36689919186756,311.36689919186756,311.36689919186756,311.36689919186756,311.36689919186756,311.36689919186756,311.36689919186756,311.36689919186756,l,1.2603669920936227,10,94,0,312.65150469588116,314.1534103688318,,,,,,,,,,,,,,,,,,,,,,,,,,,,,,,,,,,,,,,,,,,,,,,,,,,,,,,,,,,,,,,,,,,,,,,95949,2022-11-16_14h31.02.361,vts_reward_expectancy_bt_OFFLINE,2022.2.4,60.095062409638274,
0,1,0,0,0,0,0,1,circle,star,0,0,0,0,1,1,13,5,,,,,,,,,,,,,,,,,,,,,,,,,,,,,,,,,,,,,,,,314.65385284181684,314.65385284181684,314.65385284181684,314.65385284181684,314.65385284181684,314.65385284181684,314.65385284181684,314.65385284181684,314.65385284181684,314.65385284181684,a,0.7758754470851272,1,95,0,315.4546573709231,316.95617032889277,,,,,,,,,,,,,,,,,,,,,,,,,,,,,,,,,,,,,,,,,,,,,,,,,,,,,,,,,,,,,,,,,,,,,,,95949,2022-11-16_14h31.02.361,vts_reward_expectancy_bt_OFFLINE,2022.2.4,60.095062409638274,
0,0,1,0,1,0,0,0,hexagon,triangle,0,0,0,0,1,2,14,6,,,,,,,,,,,,,,,,,,,,,,,,,,,,,,,,,,,,,,,,317.4570296839811,317.4570296839811,317.4570296839811,317.4570296839811,317.4570296839811,317.4570296839811,317.4570296839811,317.4570296839811,317.4570296839811,317.4570296839811,a,1.0777353849262,1,96,0,318.5581137898844,320.0598309088964,,,,,,,,,,,,,,,,,,,,,,,,,,,,,,,,,,,,,,,,,,,,,,,,,,,,,,,,,,,,,,,,,,,,,,,95949,2022-11-16_14h31.02.361,vts_reward_expectancy_bt_OFFLINE,2022.2.4,60.095062409638274,
1,0,0,0,0,1,0,0,triangle,circle,0,0,0,0,1,3,15,0,,,,,,,,,,,,,,,,,,,,,,,,,,,,,,,,,,,,,,,,320.56042075995356,320.56042075995356,320.56042075995356,320.56042075995356,320.56042075995356,320.56042075995356,320.56042075995356,320.56042075995356,320.56042075995356,320.56042075995356,a,0.5181949550751597,10,106,0,321.1109332619235,322.6124983159825,,,,,,,,,,,,,,,,,,,,,,,,,,,,,,,,,,,,,,,,,,,,,,,,,,,,,,,,,,,,,,,,,,,,,,,95949,2022-11-16_14h31.02.361,vts_reward_expectancy_bt_OFFLINE,2022.2.4,60.095062409638274,
1,0,0,0,0,0,1,0,triangle,hexagon,0,0,0,0,1,4,16,1,,,,,,,,,,,,,,,,,,,,,,,,,,,,,,,,,,,,,,,,323.11331188399345,323.11331188399345,323.11331188399345,323.11331188399345,323.11331188399345,323.11331188399345,323.11331188399345,323.11331188399345,323.11331188399345,323.11331188399345,a,0.5293639181181788,10,116,0,323.66391723183915,325.16546062892303,,,,,,,,,,,,,,,,,,,,,,,,,,,,,,,,,,,,,,,,,,,,,,,,,,,,,,,,,,,,,,,,,,,,,,,95949,2022-11-16_14h31.02.361,vts_reward_expectancy_bt_OFFLINE,2022.2.4,60.095062409638274,
0,0,0,1,0,0,1,0,star,hexagon,0,0,0,0,1,5,17,11,,,,,,,,,,,,,,,,,,,,,,,,,,,,,,,,,,,,,,,,325.6659792268183,325.6659792268183,325.6659792268183,325.6659792268183,325.6659792268183,325.6659792268183,325.6659792268183,325.6659792268183,325.6659792268183,325.6659792268183,l,0.969366709003225,1,117,0,326.66701027401723,328.1687661809847,,,,,,,,,,,,,,,,,,,,,,,,,,,,,,,,,,,,,,,,,,,,,,,,,,,,,,,,,,,,,,,,,,,,,,,95949,2022-11-16_14h31.02.361,vts_reward_expectancy_bt_OFFLINE,2022.2.4,60.095062409638274,
0,0,1,0,0,0,0,1,hexagon,star,0,0,0,0,1,6,18,8,,,,,,,,,,,,,,,,,,,,,,,,,,,,,,,,,,,,,,,,328.6691809289623,328.6691809289623,328.6691809289623,328.6691809289623,328.6691809289623,328.6691809289623,328.6691809289623,328.6691809289623,328.6691809289623,328.6691809289623,l,0.8017927252221853,10,127,0,329.5034291460179,331.0050518019125,,,,,,,,,,,,,,,,,,,,,,,,,,,,,,,,,,,,,,,,,,,,,,,,,,,,,,,,,,,,,,,,,,,,,,,95949,2022-11-16_14h31.02.361,vts_reward_expectancy_bt_OFFLINE,2022.2.4,60.095062409638274,
0,1,0,0,1,0,0,0,circle,triangle,0,0,0,0,1,7,19,3,,,,,,,,,,,,,,,,,,,,,,,,,,,,,,,,,,,,,,,,331.50561543088406,331.50561543088406,331.50561543088406,331.50561543088406,331.50561543088406,331.50561543088406,331.50561543088406,331.50561543088406,331.50561543088406,331.50561543088406,a,1.789699420100078,1,128,0,333.32430523098446,334.8260230459273,,,,,,,,,,,,,,,,,,,,,,,,,,,,,,,,,,,,,,,,,,,,,,,,,,,,,,,,,,,,,,,,,,,,,,,95949,2022-11-16_14h31.02.361,vts_reward_expectancy_bt_OFFLINE,2022.2.4,60.095062409638274,
0,0,0,1,1,0,0,0,star,triangle,0,0,0,0,1,8,20,9,,,,,,,,,,,,,,,,,,,,,,,,,,,,,,,,,,,,,,,,335.3266856148839,335.3266856148839,335.3266856148839,335.3266856148839,335.3266856148839,335.3266856148839,335.3266856148839,335.3266856148839,335.3266856148839,335.3266856148839,l,0.8035974681843072,1,129,0,336.16086480394006,337.6625158840325,,,,,,,,,,,,,,,,,,,,,,,,,,,,,,,,,,,,,,,,,,,,,,,,,,,,,,,,,,,,,,,,,,,,,,,95949,2022-11-16_14h31.02.361,vts_reward_expectancy_bt_OFFLINE,2022.2.4,60.095062409638274,
1,0,0,0,0,0,0,1,triangle,star,0,0,0,0,1,9,21,2,,,,,,,,,,,,,,,,,,,,,,,,,,,,,,,,,,,,,,,,338.1632663188502,338.1632663188502,338.1632663188502,338.1632663188502,338.1632663188502,338.1632663188502,338.1632663188502,338.1632663188502,338.1632663188502,338.1632663188502,a,0.7795921519864351,10,139,0,338.9639119009953,340.4654479259625,,,,,,,,,,,,,,,,,,,,,,,,,,,,,,,,,,,,,,,,,,,,,,,,,,,,,,,,,,,,,,,,,,,,,,,95949,2022-11-16_14h31.02.361,vts_reward_expectancy_bt_OFFLINE,2022.2.4,60.095062409638274,
0,0,0,1,0,1,0,0,star ,circle,0,0,0,0,1,10,22,10,,,,,,,,,,,,,,,,,,,,,,,,,,,,,,,,,,,,,,,,340.96612950693816,340.96612950693816,340.96612950693816,340.96612950693816,340.96612950693816,340.96612950693816,340.96612950693816,340.96612950693816,340.96612950693816,340.96612950693816,l,1.5678825459908694,10,149,0,342.55128585593775,344.0528710389044,,,,,,,,,,,,,,,,,,,,,,,,,,,,,,,,,,,,,,,,,,,,,,,,,,,,,,,,,,,,,,,,,,,,,,,95949,2022-11-16_14h31.02.361,vts_reward_expectancy_bt_OFFLINE,2022.2.4,60.095062409638274,
0,0,1,0,0,1,0,0,hexagon,circle,0,0,0,0,1,11,23,7,,,,,,,,,,,,,,,,,,,,,,,,,,,,,,,,,,,,,,,,344.55343248089775,344.55343248089775,344.55343248089775,344.55343248089775,344.55343248089775,344.55343248089775,344.55343248089775,344.55343248089775,344.55343248089775,344.55343248089775,a,0.8822911321185529,10,159,0,345.45452081086114,346.956028806977,,,,,,,,,,,,,,,,,,,,,,,,,,,,,,,,,,,,,,,,,,,,,,,,,,,,,,,,,,,,,,,,,,,,,,,95949,2022-11-16_14h31.02.361,vts_reward_expectancy_bt_OFFLINE,2022.2.4,60.095062409638274,
0,0,0,1,0,0,1,0,star,hexagon,0,0,0,0,2,0,24,11,,,,,,,,,,,,,,,,,,,,,,,,,,,,,,,,,,,,,,,,347.45673055085354,347.45673055085354,347.45673055085354,347.45673055085354,347.45673055085354,347.45673055085354,347.45673055085354,347.45673055085354,347.45673055085354,347.45673055085354,l,1.1190203879959881,10,169,0,348.6078646699898,350.10944839194417,,,,,,,,,,,,,,,,,,,,,,,,,,,,,,,,,,,,,,,,,,,,,,,,,,,,,,,,,,,,,,,,,,,,,,,95949,2022-11-16_14h31.02.361,vts_reward_expectancy_bt_OFFLINE,2022.2.4,60.095062409638274,
0,0,0,1,0,1,0,0,star ,circle,0,0,0,0,2,1,25,10,,,,,,,,,,,,,,,,,,,,,,,,,,,,,,,,,,,,,,,,350.6101762240287,350.6101762240287,350.6101762240287,350.6101762240287,350.6101762240287,350.6101762240287,350.6101762240287,350.6101762240287,350.6101762240287,350.6101762240287,a,0.9685185360722244,10,179,0,351.6112919258885,353.1129370138515,,,,,,,,,,,,,,,,,,,,,,,,,,,,,,,,,,,,,,,,,,,,,,,,,,,,,,,,,,,,,,,,,,,,,,,95949,2022-11-16_14h31.02.361,vts_reward_expectancy_bt_OFFLINE,2022.2.4,60.095062409638274,
1,0,0,0,0,0,1,0,triangle,hexagon,0,0,0,0,2,2,26,1,,,,,,,,,,,,,,,,,,,,,,,,,,,,,,,,,,,,,,,,353.6134389739018,353.6134389739018,353.6134389739018,353.6134389739018,353.6134389739018,353.6134389739018,353.6134389739018,353.6134389739018,353.6134389739018,353.6134389739018,a,1.0694533730857074,1,180,0,354.71460510394536,356.21620593988337,,,,,,,,,,,,,,,,,,,,,,,,,,,,,,,,,,,,,,,,,,,,,,,,,,,,,,,,,,,,,,,,,,,,,,,95949,2022-11-16_14h31.02.361,vts_reward_expectancy_bt_OFFLINE,2022.2.4,60.095062409638274,
0,0,0,1,1,0,0,0,star,triangle,0,0,0,0,2,3,27,9,,,,,,,,,,,,,,,,,,,,,,,,,,,,,,,,,,,,,,,,356.7167724589817,356.7167724589817,356.7167724589817,356.7167724589817,356.7167724589817,356.7167724589817,356.7167724589817,356.7167724589817,356.7167724589817,356.7167724589817,l,2.162610075203702,10,190,0,358.90247243689373,360.40432595903985,,,,,,,,,,,,,,,,,,,,,,,,,,,,,,,,,,,,,,,,,,,,,,,,,,,,,,,,,,,,,,,,,,,,,,,95949,2022-11-16_14h31.02.361,vts_reward_expectancy_bt_OFFLINE,2022.2.4,60.095062409638274,
0,0,1,0,1,0,0,0,hexagon,triangle,0,0,0,0,2,4,28,6,,,,,,,,,,,,,,,,,,,,,,,,,,,,,,,,,,,,,,,,360.9047821559943,360.9047821559943,360.9047821559943,360.9047821559943,360.9047821559943,360.9047821559943,360.9047821559943,360.9047821559943,360.9047821559943,360.9047821559943,a,1.2849298440851271,1,191,0,362.20625532092527,363.70803285203874,363.70803285203874,,,,,,,,,,,,,,,,,,,,,,,,,,,,,,,,,,,,,,,,,,,,,,,,,,,,,,,,,,,,,,,,,,,,,,95949,2022-11-16_14h31.02.361,vts_reward_expectancy_bt_OFFLINE,2022.2.4,60.095062409638274,
1,0,0,0,0,0,0,1,triangle,star,0,0,0,0,2,5,29,2,,,,,,,,,,,,,,,,,,,,,,,,,,,,,,,,,,,,,,,,364.208603448933,364.208603448933,364.208603448933,364.208603448933,364.208603448933,364.208603448933,364.208603448933,364.208603448933,364.208603448933,364.208603448933,a,0.7351151818875223,1,192,0,364.9759267568588,366.4775425789412,,,,,,,,,,,,,,,,,,,,,,,,,,,,,,,,,,,,,,,,,,,,,,,,,,,,,,,,,,,,,,,,,,,,,,,95949,2022-11-16_14h31.02.361,vts_reward_expectancy_bt_OFFLINE,2022.2.4,60.095062409638274,
0,0,1,0,0,0,0,1,hexagon,star,0,0,0,0,2,6,30,8,,,,,,,,,,,,,,,,,,,,,,,,,,,,,,,,,,,,,,,,366.9783504200168,366.9783504200168,366.9783504200168,366.9783504200168,366.9783504200168,366.9783504200168,366.9783504200168,366.9783504200168,366.9783504200168,366.9783504200168,a,1.1612378251738846,1,193,0,368.16283267899416,369.6644955538213,369.6644955538213,,,,,,,,,,,,,,,,,,,,,,,,,,,,,,,,,,,,,,,,,,,,,,,,,,,,,,,,,,,,,,,,,,,,,,95949,2022-11-16_14h31.02.361,vts_reward_expectancy_bt_OFFLINE,2022.2.4,60.095062409638274,
0,1,0,0,0,0,0,1,circle,star,0,0,0,0,2,7,31,5,,,,,,,,,,,,,,,,,,,,,,,,,,,,,,,,,,,,,,,,370.16512556001544,370.16512556001544,370.16512556001544,370.16512556001544,370.16512556001544,370.16512556001544,370.16512556001544,370.16512556001544,370.16512556001544,370.16512556001544,a,0.5185092540923506,1,194,0,370.7155950719025,372.21725062886253,,,,,,,,,,,,,,,,,,,,,,,,,,,,,,,,,,,,,,,,,,,,,,,,,,,,,,,,,,,,,,,,,,,,,,,95949,2022-11-16_14h31.02.361,vts_reward_expectancy_bt_OFFLINE,2022.2.4,60.095062409638274,
1,0,0,0,0,1,0,0,triangle,circle,0,0,0,0,2,8,32,0,,,,,,,,,,,,,,,,,,,,,,,,,,,,,,,,,,,,,,,,372.71787920896895,372.71787920896895,372.71787920896895,372.71787920896895,372.71787920896895,372.71787920896895,372.71787920896895,372.71787920896895,372.71787920896895,372.71787920896895,a,1.32871399121359,10,204,0,374.0693725259043,375.5710383139085,,,,,,,,,,,,,,,,,,,,,,,,,,,,,,,,,,,,,,,,,,,,,,,,,,,,,,,,,,,,,,,,,,,,,,,95949,2022-11-16_14h31.02.361,vts_reward_expectancy_bt_OFFLINE,2022.2.4,60.095062409638274,
0,0,1,0,0,1,0,0,hexagon,circle,0,0,0,0,2,9,33,7,,,,,,,,,,,,,,,,,,,,,,,,,,,,,,,,,,,,,,,,376.0714671020396,376.0714671020396,376.0714671020396,376.0714671020396,376.0714671020396,376.0714671020396,376.0714671020396,376.0714671020396,376.0714671020396,376.0714671020396,a,1.259526122128591,1,205,0,377.3563039158471,378.85780510189943,,,,,,,,,,,,,,,,,,,,,,,,,,,,,,,,,,,,,,,,,,,,,,,,,,,,,,,,,,,,,,,,,,,,,,,95949,2022-11-16_14h31.02.361,vts_reward_expectancy_bt_OFFLINE,2022.2.4,60.095062409638274,
0,1,0,0,1,0,0,0,circle,triangle,0,0,0,0,2,10,34,3,,,,,,,,,,,,,,,,,,,,,,,,,,,,,,,,,,,,,,,,379.35851133498363,379.35851133498363,379.35851133498363,379.35851133498363,379.35851133498363,379.35851133498363,379.35851133498363,379.35851133498363,379.35851133498363,379.35851133498363,l,0.7292728810571134,10,215,0,380.1094047939405,381.61105135199614,,,,,,,,,,,,,,,,,,,,,,,,,,,,,,,,,,,,,,,,,,,,,,,,,,,,,,,,,,,,,,,,,,,,,,,95949,2022-11-16_14h31.02.361,vts_reward_expectancy_bt_OFFLINE,2022.2.4,60.095062409638274,
0,1,0,0,0,0,1,0,circle,hexagon,0,0,0,0,2,11,35,4,,,,,,,,,,,,,,,,,,,,,,,,,,,,,,,,,,,,,,,,382.1116071739234,382.1116071739234,382.1116071739234,382.1116071739234,382.1116071739234,382.1116071739234,382.1116071739234,382.1116071739234,382.1116071739234,382.1116071739234,l,1.4193965820595622,1,216,0,383.5632943508681,385.0647276099771,,,,,,,,,,,,,,,,,,,,,,,,,,,,,,,,,,,,,,,,,,,,,,,,,,,,,,,,,,,,,,,,,,,,,,,95949,2022-11-16_14h31.02.361,vts_reward_expectancy_bt_OFFLINE,2022.2.4,60.095062409638274,
0,0,0,1,0,0,1,0,star,hexagon,0,0,0,0,3,0,36,11,,,,,,,,,,,,,,,,,,,,,,,,,,,,,,,,,,,,,,,,385.5654383539222,385.5654383539222,385.5654383539222,385.5654383539222,385.5654383539222,385.5654383539222,385.5654383539222,385.5654383539222,385.5654383539222,385.5654383539222,l,1.0588608640246093,1,217,0,386.64987523597665,388.151462060865,,,,,,,,,,,,,,,,,,,,,,,,,,,,,,,,,,,,,,,,,,,,,,,,,,,,,,,,,,,,,,,,,,,,,,,95949,2022-11-16_14h31.02.361,vts_reward_expectancy_bt_OFFLINE,2022.2.4,60.095062409638274,
0,0,1,0,0,1,0,0,hexagon,circle,0,0,0,0,3,1,37,7,,,,,,,,,,,,,,,,,,,,,,,,,,,,,,,,,,,,,,,,388.65221349382773,388.65221349382773,388.65221349382773,388.65221349382773,388.65221349382773,388.65221349382773,388.65221349382773,388.65221349382773,388.65221349382773,388.65221349382773,a,0.5507178229745477,1,218,0,389.219351088861,390.7210502009839,390.7210502009839,391.22151323384605,,,,,,,,,,,,,,,,,,,,,,,,,,,,,,,,,,,,,,,,,,,,,,,,,,,,,,,,,,,,,,,,,,,,,95949,2022-11-16_14h31.02.361,vts_reward_expectancy_bt_OFFLINE,2022.2.4,60.095062409638274,
1,0,0,0,0,0,0,1,triangle,star,0,0,0,0,3,2,38,2,,,,,,,,,,,,,,,,,,,,,,,,,,,,,,,,,,,,,,,,391.22151323384605,391.22151323384605,391.22151323384605,391.22151323384605,391.22151323384605,391.22151323384605,391.22151323384605,391.22151323384605,391.22151323384605,391.22151323384605,a,0.4886464080773294,10,228,0,391.7389464338776,393.2403174438514,,,,,,,,,,,,,,,,,,,,,,,,,,,,,,,,,,,,,,,,,,,,,,,,,,,,,,,,,,,,,,,,,,,,,,,95949,2022-11-16_14h31.02.361,vts_reward_expectancy_bt_OFFLINE,2022.2.4,60.095062409638274,
1,0,0,0,0,0,1,0,triangle,hexagon,0,0,0,0,3,3,39,1,,,,,,,,,,,,,,,,,,,,,,,,,,,,,,,,,,,,,,,,393.7409119058866,393.7409119058866,393.7409119058866,393.7409119058866,393.7409119058866,393.7409119058866,393.7409119058866,393.7409119058866,393.7409119058866,393.7409119058866,l,5.4164450981188565,10,238,0,399.18054178589955,400.68208220694214,,,,,,,,,,,,,,,,,,,,,,,,,,,,,,,,,,,,,,,,,,,,,,,,,,,,,,,,,,,,,,,,,,,,,,,95949,2022-11-16_14h31.02.361,vts_reward_expectancy_bt_OFFLINE,2022.2.4,60.095062409638274,
0,0,0,1,1,0,0,0,star,triangle,0,0,0,0,3,4,40,9,,,,,,,,,,,,,,,,,,,,,,,,,,,,,,,,,,,,,,,,401.1824158858508,401.1824158858508,401.1824158858508,401.1824158858508,401.1824158858508,401.1824158858508,401.1824158858508,401.1824158858508,401.1824158858508,401.1824158858508,l,0.7325343191623688,10,248,0,401.9333724009339,403.4349757009186,403.4349757009186,,,,,,,,,,,,,,,,,,,,,,,,,,,,,,,,,,,,,,,,,,,,,,,,,,,,,,,,,,,,,,,,,,,,,,95949,2022-11-16_14h31.02.361,vts_reward_expectancy_bt_OFFLINE,2022.2.4,60.095062409638274,
0,1,0,0,0,0,0,1,circle,star,0,0,0,0,3,5,41,5,,,,,,,,,,,,,,,,,,,,,,,,,,,,,,,,,,,,,,,,403.9356971299276,403.9356971299276,403.9356971299276,403.9356971299276,403.9356971299276,403.9356971299276,403.9356971299276,403.9356971299276,403.9356971299276,403.9356971299276,a,2.614272652193904,1,249,0,406.571848297026,408.07342131086625,,,,,,,,,,,,,,,,,,,,,,,,,,,,,,,,,,,,,,,,,,,,,,,,,,,,,,,,,,,,,,,,,,,,,,,95949,2022-11-16_14h31.02.361,vts_reward_expectancy_bt_OFFLINE,2022.2.4,60.095062409638274,
1,0,0,0,0,1,0,0,triangle,circle,0,0,0,0,3,6,42,0,,,,,,,,,,,,,,,,,,,,,,,,,,,,,,,,,,,,,,,,408.5740235899575,408.5740235899575,408.5740235899575,408.5740235899575,408.5740235899575,408.5740235899575,408.5740235899575,408.5740235899575,408.5740235899575,408.5740235899575,l,0.5635337340645492,1,250,0,409.1578478140291,410.65984596684575,,,,,,,,,,,,,,,,,,,,,,,,,,,,,,,,,,,,,,,,,,,,,,,,,,,,,,,,,,,,,,,,,,,,,,,95949,2022-11-16_14h31.02.361,vts_reward_expectancy_bt_OFFLINE,2022.2.4,60.095062409638274,
0,0,0,1,0,1,0,0,star ,circle,0,0,0,0,3,7,43,10,,,,,,,,,,,,,,,,,,,,,,,,,,,,,,,,,,,,,,,,411.16027099685743,411.16027099685743,411.16027099685743,411.16027099685743,411.16027099685743,411.16027099685743,411.16027099685743,411.16027099685743,411.16027099685743,411.16027099685743,a,1.0261916432064027,1,251,0,412.2113180248998,413.71316919196397,,,,,,,,,,,,,,,,,,,,,,,,,,,,,,,,,,,,,,,,,,,,,,,,,,,,,,,,,,,,,,,,,,,,,,,95949,2022-11-16_14h31.02.361,vts_reward_expectancy_bt_OFFLINE,2022.2.4,60.095062409638274,
0,1,0,0,1,0,0,0,circle,triangle,0,0,0,0,3,8,44,3,,,,,,,,,,,,,,,,,,,,,,,,,,,,,,,,,,,,,,,,414.2135921360459,414.2135921360459,414.2135921360459,414.2135921360459,414.2135921360459,414.2135921360459,414.2135921360459,414.2135921360459,414.2135921360459,414.2135921360459,l,0.5715938482899219,10,261,0,414.8140985618811,416.3160319570452,,,,,,,,,,,,,,,,,,,,,,,,,,,,,,,,,,,,,,,,,,,,,,,,,,,,,,,,,,,,,,,,,,,,,,,95949,2022-11-16_14h31.02.361,vts_reward_expectancy_bt_OFFLINE,2022.2.4,60.095062409638274,
0,0,1,0,1,0,0,0,hexagon,triangle,0,0,0,0,3,9,45,6,,,,,,,,,,,,,,,,,,,,,,,,,,,,,,,,,,,,,,,,416.8164234359283,416.8164234359283,416.8164234359283,416.8164234359283,416.8164234359283,416.8164234359283,416.8164234359283,416.8164234359283,416.8164234359283,416.8164234359283,l,0.918273557908833,1,262,0,417.7676963720005,419.269117743941,,,,,,,,,,,,,,,,,,,,,,,,,,,,,,,,,,,,,,,,,,,,,,,,,,,,,,,,,,,,,,,,,,,,,,,95949,2022-11-16_14h31.02.361,vts_reward_expectancy_bt_OFFLINE,2022.2.4,60.095062409638274,
0,0,1,0,0,0,0,1,hexagon,star,0,0,0,0,3,10,46,8,,,,,,,,,,,,,,,,,,,,,,,,,,,,,,,,,,,,,,,,419.7697773058899,419.7697773058899,419.7697773058899,419.7697773058899,419.7697773058899,419.7697773058899,419.7697773058899,419.7697773058899,419.7697773058899,419.7697773058899,a,0.5742526091635227,1,263,0,420.3703379558865,421.8720480168704,,,,,,,,,,,,,,,,,,,,,,,,,,,,,,,,,,,,,,,,,,,,,,,,,,,,,,,,,,,,,,,,,,,,,,,95949,2022-11-16_14h31.02.361,vts_reward_expectancy_bt_OFFLINE,2022.2.4,60.095062409638274,
0,1,0,0,0,0,1,0,circle,hexagon,0,0,0,0,3,11,47,4,,,,,,,,,,,,,,,,,,,,,,,,,,,,,,,,,,,,,,,,422.37245960184373,422.37245960184373,422.37245960184373,422.37245960184373,422.37245960184373,422.37245960184373,422.37245960184373,422.37245960184373,422.37245960184373,422.37245960184373,l,0.6702500272076577,1,264,0,423.07322970591486,424.57490306696855,,,,,,,,,,,,,,,,,,,,,,,,,,,,,,,,,,,,,,,,,,,,,,,,,,,,,,,,,,,,,,,,,,,,,,,95949,2022-11-16_14h31.02.361,vts_reward_expectancy_bt_OFFLINE,2022.2.4,60.095062409638274,
0,0,0,1,0,1,0,0,star ,circle,1,0,1,0,0,0,0,10,,,,,,,,,,,,,,,,,,,,,,,,,,,,,,,,,,,,,,,,429.7642827918753,429.7642827918753,429.7642827918753,429.7642827918753,429.7642827918753,429.7642827918753,429.7642827918753,429.7642827918753,429.7642827918753,429.7642827918753,a,0.8514909490477294,1,265,1,430.6483948188834,432.1503082709387,,,,,,,,,,,,,,,,,,,,,,,,,,,,,,,,,,,,,,,,,,,,,,,,,,,,,,,,,,,,,,,,,,,,,,,95949,2022-11-16_14h31.02.361,vts_reward_expectancy_bt_OFFLINE,2022.2.4,60.095062409638274,
0,1,0,0,1,0,0,0,circle,triangle,1,0,1,0,0,1,1,3,,,,,,,,,,,,,,,,,,,,,,,,,,,,,,,,,,,,,,,,432.6505782138556,432.6505782138556,432.6505782138556,432.6505782138556,432.6505782138556,432.6505782138556,432.6505782138556,432.6505782138556,432.6505782138556,432.6505782138556,l,0.5517920309212059,10,275,1,433.2346057998948,434.73630990996026,,,,,,,,,,,,,,,,,,,,,,,,,,,,,,,,,,,,,,,,,,,,,,,,,,,,,,,,,,,,,,,,,,,,,,,95949,2022-11-16_14h31.02.361,vts_reward_expectancy_bt_OFFLINE,2022.2.4,60.095062409638274,
1,0,0,0,0,0,1,0,triangle,hexagon,1,0,1,0,0,2,2,1,,,,,,,,,,,,,,,,,,,,,,,,,,,,,,,,,,,,,,,,435.23700922494754,435.23700922494754,435.23700922494754,435.23700922494754,435.23700922494754,435.23700922494754,435.23700922494754,435.23700922494754,435.23700922494754,435.23700922494754,a,0.5995575468987226,1,276,1,435.8541719040368,437.3558671399951,437.3558671399951,,,,,,,,,,,,,,,,,,,,,,,,,,,,,,,,,,,,,,,,,,,,,,,,,,,,,,,,,,,,,,,,,,,,,,95949,2022-11-16_14h31.02.361,vts_reward_expectancy_bt_OFFLINE,2022.2.4,60.095062409638274,
0,0,1,0,0,0,0,1,hexagon,star,1,0,1,0,0,3,3,8,,,,,,,,,,,,,,,,,,,,,,,,,,,,,,,,,,,,,,,,437.85652755992487,437.85652755992487,437.85652755992487,437.85652755992487,437.85652755992487,437.85652755992487,437.85652755992487,437.85652755992487,437.85652755992487,437.85652755992487,a,2.300015640212223,1,277,1,440.1758672068827,441.67742440500297,,,,,,,,,,,,,,,,,,,,,,,,,,,,,,,,,,,,,,,,,,,,,,,,,,,,,,,,,,,,,,,,,,,,,,,95949,2022-11-16_14h31.02.361,vts_reward_expectancy_bt_OFFLINE,2022.2.4,60.095062409638274,
0,1,0,0,0,0,0,1,circle,star,1,0,1,0,0,4,4,5,,,,,,,,,,,,,,,,,,,,,,,,,,,,,,,,,,,,,,,,442.1778190769255,442.1778190769255,442.1778190769255,442.1778190769255,442.1778190769255,442.1778190769255,442.1778190769255,442.1778190769255,442.1778190769255,442.1778190769255,l,1.7800537012517452,10,287,1,443.9799801749177,445.4813374299556,,,,,,,,,,,,,,,,,,,,,,,,,,,,,,,,,,,,,,,,,,,,,,,,,,,,,,,,,,,,,,,,,,,,,,,95949,2022-11-16_14h31.02.361,vts_reward_expectancy_bt_OFFLINE,2022.2.4,60.095062409638274,
1,0,0,0,0,1,0,0,triangle,circle,1,0,1,0,0,5,5,0,,,,,,,,,,,,,,,,,,,,,,,,,,,,,,,,,,,,,,,,445.9819571599364,445.9819571599364,445.9819571599364,445.9819571599364,445.9819571599364,445.9819571599364,445.9819571599364,445.9819571599364,445.9819571599364,445.9819571599364,a,0.40768619417212903,10,297,1,446.4159646688495,447.9175920798443,,,,,,,,,,,,,,,,,,,,,,,,,,,,,,,,,,,,,,,,,,,,,,,,,,,,,,,,,,,,,,,,,,,,,,,95949,2022-11-16_14h31.02.361,vts_reward_expectancy_bt_OFFLINE,2022.2.4,60.095062409638274,
0,0,1,0,0,1,0,0,hexagon,circle,1,0,1,0,0,6,6,7,,,,,,,,,,,,,,,,,,,,,,,,,,,,,,,,,,,,,,,,448.4179896309506,448.4179896309506,448.4179896309506,448.4179896309506,448.4179896309506,448.4179896309506,448.4179896309506,448.4179896309506,448.4179896309506,448.4179896309506,l,1.7192847430706024,10,307,1,450.17001038696617,451.67155750095844,,,,,,,,,,,,,,,,,,,,,,,,,,,,,,,,,,,,,,,,,,,,,,,,,,,,,,,,,,,,,,,,,,,,,,,95949,2022-11-16_14h31.02.361,vts_reward_expectancy_bt_OFFLINE,2022.2.4,60.095062409638274,
0,1,0,0,0,0,1,0,circle,hexagon,1,0,1,0,0,7,7,4,,,,,,,,,,,,,,,,,,,,,,,,,,,,,,,,,,,,,,,,452.17239880701527,452.17239880701527,452.17239880701527,452.17239880701527,452.17239880701527,452.17239880701527,452.17239880701527,452.17239880701527,452.17239880701527,452.17239880701527,a,1.0346634320449084,10,317,1,453.2234085309319,454.7250268799253,454.7250268799253,,,,,,,,,,,,,,,,,,,,,,,,,,,,,,,,,,,,,,,,,,,,,,,,,,,,,,,,,,,,,,,,,,,,,,95949,2022-11-16_14h31.02.361,vts_reward_expectancy_bt_OFFLINE,2022.2.4,60.095062409638274,
0,0,0,1,1,0,0,0,star,triangle,1,0,1,0,0,8,8,9,,,,,,,,,,,,,,,,,,,,,,,,,,,,,,,,,,,,,,,,455.2256806259975,455.2256806259975,455.2256806259975,455.2256806259975,455.2256806259975,455.2256806259975,455.2256806259975,455.2256806259975,455.2256806259975,455.2256806259975,a,2.39276807801798,10,327,1,457.64479184686206,459.1463302609045,,,,,,,,,,,,,,,,,,,,,,,,,,,,,,,,,,,,,,,,,,,,,,,,,,,,,,,,,,,,,,,,,,,,,,,95949,2022-11-16_14h31.02.361,vts_reward_expectancy_bt_OFFLINE,2022.2.4,60.095062409638274,
0,0,0,1,0,0,1,0,star,hexagon,1,0,1,0,0,9,9,11,,,,,,,,,,,,,,,,,,,,,,,,,,,,,,,,,,,,,,,,459.6471254248172,459.6471254248172,459.6471254248172,459.6471254248172,459.6471254248172,459.6471254248172,459.6471254248172,459.6471254248172,459.6471254248172,459.6471254248172,l,1.0980904051102698,10,337,1,460.7648427640088,462.2667371199932,,,,,,,,,,,,,,,,,,,,,,,,,,,,,,,,,,,,,,,,,,,,,,,,,,,,,,,,,,,,,,,,,,,,,,,95949,2022-11-16_14h31.02.361,vts_reward_expectancy_bt_OFFLINE,2022.2.4,60.095062409638274,
0,0,1,0,1,0,0,0,hexagon,triangle,1,0,1,0,0,10,10,6,,,,,,,,,,,,,,,,,,,,,,,,,,,,,,,,,,,,,,,,462.76708535081707,462.76708535081707,462.76708535081707,462.76708535081707,462.76708535081707,462.76708535081707,462.76708535081707,462.76708535081707,462.76708535081707,462.76708535081707,l,1.6692504042293876,10,347,1,464.4691640690435,465.9709139310289,,,,,,,,,,,,,,,,,,,,,,,,,,,,,,,,,,,,,,,,,,,,,,,,,,,,,,,,,,,,,,,,,,,,,,,95949,2022-11-16_14h31.02.361,vts_reward_expectancy_bt_OFFLINE,2022.2.4,60.095062409638274,
1,0,0,0,0,0,0,1,triangle,star,1,0,1,0,0,11,11,2,,,,,,,,,,,,,,,,,,,,,,,,,,,,,,,,,,,,,,,,466.4712367588654,466.4712367588654,466.4712367588654,466.4712367588654,466.4712367588654,466.4712367588654,466.4712367588654,466.4712367588654,466.4712367588654,466.4712367588654,l,1.552752667106688,10,357,1,468.0562687769998,469.55798139004037,,,,,,,,,,,,,,,,,,,,,,,,,,,,,,,,,,,,,,,,,,,,,,,,,,,,,,,,,,,,,,,,,,,,,,,95949,2022-11-16_14h31.02.361,vts_reward_expectancy_bt_OFFLINE,2022.2.4,60.095062409638274,
0,0,0,1,0,1,0,0,star ,circle,1,0,1,0,1,0,12,10,,,,,,,,,,,,,,,,,,,,,,,,,,,,,,,,,,,,,,,,470.0585034049582,470.0585034049582,470.0585034049582,470.0585034049582,470.0585034049582,470.0585034049582,470.0585034049582,470.0585034049582,470.0585034049582,470.0585034049582,l,1.4764404890593141,10,367,1,471.56018765084445,473.06188806402497,,,,,,,,,,,,,,,,,,,,,,,,,,,,,,,,,,,,,,,,,,,,,,,,,,,,,,,,,,,,,,,,,,,,,,,95949,2022-11-16_14h31.02.361,vts_reward_expectancy_bt_OFFLINE,2022.2.4,60.095062409638274,
0,0,1,0,0,1,0,0,hexagon,circle,1,0,1,0,1,1,13,7,,,,,,,,,,,,,,,,,,,,,,,,,,,,,,,,,,,,,,,,473.562318343902,473.562318343902,473.562318343902,473.562318343902,473.562318343902,473.562318343902,473.562318343902,473.562318343902,473.562318343902,473.562318343902,l,2.63001033407636,1,368,1,476.21539020491764,477.7171698338352,477.7171698338352,,,,,,,,,,,,,,,,,,,,,,,,,,,,,,,,,,,,,,,,,,,,,,,,,,,,,,,,,,,,,,,,,,,,,,95949,2022-11-16_14h31.02.361,vts_reward_expectancy_bt_OFFLINE,2022.2.4,60.095062409638274,
0,1,0,0,0,0,1,0,circle,hexagon,1,0,1,0,1,2,14,4,,,,,,,,,,,,,,,,,,,,,,,,,,,,,,,,,,,,,,,,478.21759891090915,478.21759891090915,478.21759891090915,478.21759891090915,478.21759891090915,478.21759891090915,478.21759891090915,478.21759891090915,478.21759891090915,478.21759891090915,l,1.2832295519765466,10,378,1,479.51914674881846,481.0205569239333,,,,,,,,,,,,,,,,,,,,,,,,,,,,,,,,,,,,,,,,,,,,,,,,,,,,,,,,,,,,,,,,,,,,,,,95949,2022-11-16_14h31.02.361,vts_reward_expectancy_bt_OFFLINE,2022.2.4,60.095062409638274,
1,0,0,0,0,0,0,1,triangle,star,1,0,1,0,1,3,15,2,,,,,,,,,,,,,,,,,,,,,,,,,,,,,,,,,,,,,,,,481.5212147219572,481.5212147219572,481.5212147219572,481.5212147219572,481.5212147219572,481.5212147219572,481.5212147219572,481.5212147219572,481.5212147219572,481.5212147219572,a,2.0194489960558712,10,388,1,483.57333283196203,485.07496734382585,,,,,,,,,,,,,,,,,,,,,,,,,,,,,,,,,,,,,,,,,,,,,,,,,,,,,,,,,,,,,,,,,,,,,,,95949,2022-11-16_14h31.02.361,vts_reward_expectancy_bt_OFFLINE,2022.2.4,60.095062409638274,
0,1,0,0,1,0,0,0,circle,triangle,1,0,1,0,1,4,16,3,,,,,,,,,,,,,,,,,,,,,,,,,,,,,,,,,,,,,,,,485.57586853485554,485.57586853485554,485.57586853485554,485.57586853485554,485.57586853485554,485.57586853485554,485.57586853485554,485.57586853485554,485.57586853485554,485.57586853485554,l,0.9348433651030064,10,398,1,486.5433430520352,488.0450794948265,,,,,,,,,,,,,,,,,,,,,,,,,,,,,,,,,,,,,,,,,,,,,,,,,,,,,,,,,,,,,,,,,,,,,,,95949,2022-11-16_14h31.02.361,vts_reward_expectancy_bt_OFFLINE,2022.2.4,60.095062409638274,
0,1,0,0,0,0,0,1,circle,star,1,0,1,0,1,5,17,5,,,,,,,,,,,,,,,,,,,,,,,,,,,,,,,,,,,,,,,,488.54546505585313,488.54546505585313,488.54546505585313,488.54546505585313,488.54546505585313,488.54546505585313,488.54546505585313,488.54546505585313,488.54546505585313,488.54546505585313,l,0.9351078181061894,1,399,1,489.5133759218734,491.0149017968215,,,,,,,,,,,,,,,,,,,,,,,,,,,,,,,,,,,,,,,,,,,,,,,,,,,,,,,,,,,,,,,,,,,,,,,95949,2022-11-16_14h31.02.361,vts_reward_expectancy_bt_OFFLINE,2022.2.4,60.095062409638274,
0,0,1,0,0,0,0,1,hexagon,star,1,0,1,0,1,6,18,8,,,,,,,,,,,,,,,,,,,,,,,,,,,,,,,,,,,,,,,,491.5154905808158,491.5154905808158,491.5154905808158,491.5154905808158,491.5154905808158,491.5154905808158,491.5154905808158,491.5154905808158,491.5154905808158,491.5154905808158,l,1.0357443550601602,10,409,1,492.58342309994623,494.08487480902113,,,,,,,,,,,,,,,,,,,,,,,,,,,,,,,,,,,,,,,,,,,,,,,,,,,,,,,,,,,,,,,,,,,,,,,95949,2022-11-16_14h31.02.361,vts_reward_expectancy_bt_OFFLINE,2022.2.4,60.095062409638274,
0,0,1,0,1,0,0,0,hexagon,triangle,1,0,1,0,1,7,19,6,,,,,,,,,,,,,,,,,,,,,,,,,,,,,,,,,,,,,,,,494.5855099398177,494.5855099398177,494.5855099398177,494.5855099398177,494.5855099398177,494.5855099398177,494.5855099398177,494.5855099398177,494.5855099398177,494.5855099398177,l,0.7011507900897413,10,419,1,495.30306563689373,496.8046648518648,496.8046648518648,,,,,,,,,,,,,,,,,,,,,,,,,,,,,,,,,,,,,,,,,,,,,,,,,,,,,,,,,,,,,,,,,,,,,,95949,2022-11-16_14h31.02.361,vts_reward_expectancy_bt_OFFLINE,2022.2.4,60.095062409638274,
0,0,0,1,0,0,1,0,star,hexagon,1,0,1,0,1,8,20,11,,,,,,,,,,,,,,,,,,,,,,,,,,,,,,,,,,,,,,,,497.3052111270372,497.3052111270372,497.3052111270372,497.3052111270372,497.3052111270372,497.3052111270372,497.3052111270372,497.3052111270372,497.3052111270372,497.3052111270372,l,1.3673084462061524,1,420,1,498.6900840308517,500.19172051083297,500.19172051083297,,,,,,,,,,,,,,,,,,,,,,,,,,,,,,,,,,,,,,,,,,,,,,,,,,,,,,,,,,,,,,,,,,,,,,95949,2022-11-16_14h31.02.361,vts_reward_expectancy_bt_OFFLINE,2022.2.4,60.095062409638274,
1,0,0,0,0,1,0,0,triangle,circle,1,0,1,0,1,9,21,0,,,,,,,,,,,,,,,,,,,,,,,,,,,,,,,,,,,,,,,,500.69214198482223,500.69214198482223,500.69214198482223,500.69214198482223,500.69214198482223,500.69214198482223,500.69214198482223,500.69214198482223,500.69214198482223,500.69214198482223,a,0.6588312550447881,10,430,1,501.37651422200724,502.87825848092325,,,,,,,,,,,,,,,,,,,,,,,,,,,,,,,,,,,,,,,,,,,,,,,,,,,,,,,,,,,,,,,,,,,,,,,95949,2022-11-16_14h31.02.361,vts_reward_expectancy_bt_OFFLINE,2022.2.4,60.095062409638274,
0,0,0,1,1,0,0,0,star,triangle,1,0,1,0,1,10,22,9,,,,,,,,,,,,,,,,,,,,,,,,,,,,,,,,,,,,,,,,503.3785969458986,503.3785969458986,503.3785969458986,503.3785969458986,503.3785969458986,503.3785969458986,503.3785969458986,503.3785969458986,503.3785969458986,503.3785969458986,a,0.8612598301842809,10,440,1,504.26286436989903,505.76457720901817,,,,,,,,,,,,,,,,,,,,,,,,,,,,,,,,,,,,,,,,,,,,,,,,,,,,,,,,,,,,,,,,,,,,,,,95949,2022-11-16_14h31.02.361,vts_reward_expectancy_bt_OFFLINE,2022.2.4,60.095062409638274,
1,0,0,0,0,0,1,0,triangle,hexagon,1,0,1,0,1,11,23,1,,,,,,,,,,,,,,,,,,,,,,,,,,,,,,,,,,,,,,,,506.2652259620372,506.2652259620372,506.2652259620372,506.2652259620372,506.2652259620372,506.2652259620372,506.2652259620372,506.2652259620372,506.2652259620372,506.2652259620372,a,1.0586861921474338,1,441,1,507.34985262481496,508.85137736890465,508.85137736890465,,,,,,,,,,,,,,,,,,,,,,,,,,,,,,,,,,,,,,,,,,,,,,,,,,,,,,,,,,,,,,,,,,,,,,95949,2022-11-16_14h31.02.361,vts_reward_expectancy_bt_OFFLINE,2022.2.4,60.095062409638274,
1,0,0,0,0,1,0,0,triangle,circle,1,0,1,0,2,0,24,0,,,,,,,,,,,,,,,,,,,,,,,,,,,,,,,,,,,,,,,,509.3520746799186,509.3520746799186,509.3520746799186,509.3520746799186,509.3520746799186,509.3520746799186,509.3520746799186,509.3520746799186,509.3520746799186,509.3520746799186,a,0.8519168370403349,10,451,1,510.2362058919389,511.737740353914,511.737740353914,,,,,,,,,,,,,,,,,,,,,,,,,,,,,,,,,,,,,,,,,,,,,,,,,,,,,,,,,,,,,,,,,,,,,,95949,2022-11-16_14h31.02.361,vts_reward_expectancy_bt_OFFLINE,2022.2.4,60.095062409638274,
0,1,0,0,0,0,1,0,circle,hexagon,1,0,1,0,2,1,25,4,,,,,,,,,,,,,,,,,,,,,,,,,,,,,,,,,,,,,,,,512.2385740738828,512.2385740738828,512.2385740738828,512.2385740738828,512.2385740738828,512.2385740738828,512.2385740738828,512.2385740738828,512.2385740738828,512.2385740738828,l,1.4303360590711236,1,452,1,513.6900909389369,515.1917012138292,,,,,,,,,,,,,,,,,,,,,,,,,,,,,,,,,,,,,,,,,,,,,,,,,,,,,,,,,,,,,,,,,,,,,,,95949,2022-11-16_14h31.02.361,vts_reward_expectancy_bt_OFFLINE,2022.2.4,60.095062409638274,
0,0,1,0,0,1,0,0,hexagon,circle,1,0,1,0,2,2,26,7,,,,,,,,,,,,,,,,,,,,,,,,,,,,,,,,,,,,,,,,515.692266226979,515.692266226979,515.692266226979,515.692266226979,515.692266226979,515.692266226979,515.692266226979,515.692266226979,515.692266226979,515.692266226979,l,0.5649809672031552,10,462,1,516.2761206568684,517.7778266398236,,,,,,,,,,,,,,,,,,,,,,,,,,,,,,,,,,,,,,,,,,,,,,,,,,,,,,,,,,,,,,,,,,,,,,,95949,2022-11-16_14h31.02.361,vts_reward_expectancy_bt_OFFLINE,2022.2.4,60.095062409638274,
0,0,1,0,1,0,0,0,hexagon,triangle,1,0,1,0,2,3,27,6,,,,,,,,,,,,,,,,,,,,,,,,,,,,,,,,,,,,,,,,518.2786320210434,518.2786320210434,518.2786320210434,518.2786320210434,518.2786320210434,518.2786320210434,518.2786320210434,518.2786320210434,518.2786320210434,518.2786320210434,l,1.453593677142635,1,463,1,519.7633375090081,521.2651227498427,,,,,,,,,,,,,,,,,,,,,,,,,,,,,,,,,,,,,,,,,,,,,,,,,,,,,,,,,,,,,,,,,,,,,,,95949,2022-11-16_14h31.02.361,vts_reward_expectancy_bt_OFFLINE,2022.2.4,60.095062409638274,
1,0,0,0,0,0,0,1,triangle,star,1,0,1,0,2,4,28,2,,,,,,,,,,,,,,,,,,,,,,,,,,,,,,,,,,,,,,,,521.7658157839905,521.7658157839905,521.7658157839905,521.7658157839905,521.7658157839905,521.7658157839905,521.7658157839905,521.7658157839905,521.7658157839905,521.7658157839905,a,0.4527580870781094,10,473,1,522.2494480910245,523.7512639788911,,,,,,,,,,,,,,,,,,,,,,,,,,,,,,,,,,,,,,,,,,,,,,,,,,,,,,,,,,,,,,,,,,,,,,,95949,2022-11-16_14h31.02.361,vts_reward_expectancy_bt_OFFLINE,2022.2.4,60.095062409638274,
0,0,0,1,1,0,0,0,star,triangle,1,0,1,0,2,5,29,9,,,,,,,,,,,,,,,,,,,,,,,,,,,,,,,,,,,,,,,,524.2517573919613,524.2517573919613,524.2517573919613,524.2517573919613,524.2517573919613,524.2517573919613,524.2517573919613,524.2517573919613,524.2517573919613,524.2517573919613,l,0.9267519430723041,1,474,1,525.2027407439891,526.7043124239426,526.7043124239426,,,,,,,,,,,,,,,,,,,,,,,,,,,,,,,,,,,,,,,,,,,,,,,,,,,,,,,,,,,,,,,,,,,,,,95949,2022-11-16_14h31.02.361,vts_reward_expectancy_bt_OFFLINE,2022.2.4,60.095062409638274,
1,0,0,0,0,0,1,0,triangle,hexagon,1,0,1,0,2,6,30,1,,,,,,,,,,,,,,,,,,,,,,,,,,,,,,,,,,,,,,,,527.2048914218321,527.2048914218321,527.2048914218321,527.2048914218321,527.2048914218321,527.2048914218321,527.2048914218321,527.2048914218321,527.2048914218321,527.2048914218321,a,0.7631286161486059,10,484,1,527.9889186918736,529.490844961023,,,,,,,,,,,,,,,,,,,,,,,,,,,,,,,,,,,,,,,,,,,,,,,,,,,,,,,,,,,,,,,,,,,,,,,95949,2022-11-16_14h31.02.361,vts_reward_expectancy_bt_OFFLINE,2022.2.4,60.095062409638274,
0,0,0,1,0,0,1,0,star,hexagon,1,0,1,0,2,7,31,11,,,,,,,,,,,,,,,,,,,,,,,,,,,,,,,,,,,,,,,,529.9912954908796,529.9912954908796,529.9912954908796,529.9912954908796,529.9912954908796,529.9912954908796,529.9912954908796,529.9912954908796,529.9912954908796,529.9912954908796,l,0.969654459040612,10,494,1,530.9923777419608,532.4942268298473,,,,,,,,,,,,,,,,,,,,,,,,,,,,,,,,,,,,,,,,,,,,,,,,,,,,,,,,,,,,,,,,,,,,,,,95949,2022-11-16_14h31.02.361,vts_reward_expectancy_bt_OFFLINE,2022.2.4,60.095062409638274,
0,1,0,0,1,0,0,0,circle,triangle,1,0,1,0,2,8,32,3,,,,,,,,,,,,,,,,,,,,,,,,,,,,,,,,,,,,,,,,532.9947301140055,532.9947301140055,532.9947301140055,532.9947301140055,532.9947301140055,532.9947301140055,532.9947301140055,532.9947301140055,532.9947301140055,532.9947301140055,l,0.5765540532302111,10,504,1,533.5954949068837,535.0969045469537,,,,,,,,,,,,,,,,,,,,,,,,,,,,,,,,,,,,,,,,,,,,,,,,,,,,,,,,,,,,,,,,,,,,,,,95949,2022-11-16_14h31.02.361,vts_reward_expectancy_bt_OFFLINE,2022.2.4,60.095062409638274,
0,1,0,0,0,0,0,1,circle,star,1,0,1,0,2,9,33,5,,,,,,,,,,,,,,,,,,,,,,,,,,,,,,,,,,,,,,,,535.5976616358384,535.5976616358384,535.5976616358384,535.5976616358384,535.5976616358384,535.5976616358384,535.5976616358384,535.5976616358384,535.5976616358384,535.5976616358384,a,0.5850066673010588,1,505,1,536.2147139748558,537.7166178650223,537.7166178650223,538.2173029920086,,,,,,,,,,,,,,,,,,,,,,,,,,,,,,,,,,,,,,,,,,,,,,,,,,,,,,,,,,,,,,,,,,,,,95949,2022-11-16_14h31.02.361,vts_reward_expectancy_bt_OFFLINE,2022.2.4,60.095062409638274,
0,0,0,1,0,1,0,0,star ,circle,1,0,1,0,2,10,34,10,,,,,,,,,,,,,,,,,,,,,,,,,,,,,,,,,,,,,,,,538.2173029920086,538.2173029920086,538.2173029920086,538.2173029920086,538.2173029920086,538.2173029920086,538.2173029920086,538.2173029920086,538.2173029920086,538.2173029920086,l,0.7432256110478193,1,506,1,538.9845443139784,540.4863011469133,,,,,,,,,,,,,,,,,,,,,,,,,,,,,,,,,,,,,,,,,,,,,,,,,,,,,,,,,,,,,,,,,,,,,,,95949,2022-11-16_14h31.02.361,vts_reward_expectancy_bt_OFFLINE,2022.2.4,60.095062409638274,
0,0,1,0,0,0,0,1,hexagon,star,1,0,1,0,2,11,35,8,,,,,,,,,,,,,,,,,,,,,,,,,,,,,,,,,,,,,,,,540.9867630498484,540.9867630498484,540.9867630498484,540.9867630498484,540.9867630498484,540.9867630498484,540.9867630498484,540.9867630498484,540.9867630498484,540.9867630498484,a,0.7750998102128506,1,507,1,541.7876560208388,543.289407195989,,,,,,,,,,,,,,,,,,,,,,,,,,,,,,,,,,,,,,,,,,,,,,,,,,,,,,,,,,,,,,,,,,,,,,,95949,2022-11-16_14h31.02.361,vts_reward_expectancy_bt_OFFLINE,2022.2.4,60.095062409638274,
0,0,0,1,0,0,1,0,star,hexagon,1,0,1,0,3,0,36,11,,,,,,,,,,,,,,,,,,,,,,,,,,,,,,,,,,,,,,,,543.7898780140094,543.7898780140094,543.7898780140094,543.7898780140094,543.7898780140094,543.7898780140094,543.7898780140094,543.7898780140094,543.7898780140094,543.7898780140094,l,0.4246221981011331,10,517,1,544.2402671868913,545.7420447689947,,,,,,,,,,,,,,,,,,,,,,,,,,,,,,,,,,,,,,,,,,,,,,,,,,,,,,,,,,,,,,,,,,,,,,,95949,2022-11-16_14h31.02.361,vts_reward_expectancy_bt_OFFLINE,2022.2.4,60.095062409638274,
0,0,1,0,0,1,0,0,hexagon,circle,1,0,1,0,3,1,37,7,,,,,,,,,,,,,,,,,,,,,,,,,,,,,,,,,,,,,,,,546.2424596960191,546.2424596960191,546.2424596960191,546.2424596960191,546.2424596960191,546.2424596960191,546.2424596960191,546.2424596960191,546.2424596960191,546.2424596960191,a,0.6181340641342103,10,527,1,546.8932410089765,548.3948971789796,,,,,,,,,,,,,,,,,,,,,,,,,,,,,,,,,,,,,,,,,,,,,,,,,,,,,,,,,,,,,,,,,,,,,,,95949,2022-11-16_14h31.02.361,vts_reward_expectancy_bt_OFFLINE,2022.2.4,60.095062409638274,
0,0,0,1,0,1,0,0,star ,circle,1,0,1,0,3,2,38,10,,,,,,,,,,,,,,,,,,,,,,,,,,,,,,,,,,,,,,,,548.895379044814,548.895379044814,548.895379044814,548.895379044814,548.895379044814,548.895379044814,548.895379044814,548.895379044814,548.895379044814,548.895379044814,l,1.0687558660283685,10,537,1,549.9968412700109,551.4984429809265,,,,,,,,,,,,,,,,,,,,,,,,,,,,,,,,,,,,,,,,,,,,,,,,,,,,,,,,,,,,,,,,,,,,,,,95949,2022-11-16_14h31.02.361,vts_reward_expectancy_bt_OFFLINE,2022.2.4,60.095062409638274,
0,1,0,0,0,0,1,0,circle,hexagon,1,0,1,0,3,3,39,4,,,,,,,,,,,,,,,,,,,,,,,,,,,,,,,,,,,,,,,,551.9990483890288,551.9990483890288,551.9990483890288,551.9990483890288,551.9990483890288,551.9990483890288,551.9990483890288,551.9990483890288,551.9990483890288,551.9990483890288,a,0.608601083047688,1,538,1,552.6331207950134,554.1345325338189,,,,,,,,,,,,,,,,,,,,,,,,,,,,,,,,,,,,,,,,,,,,,,,,,,,,,,,,,,,,,,,,,,,,,,,95949,2022-11-16_14h31.02.361,vts_reward_expectancy_bt_OFFLINE,2022.2.4,60.095062409638274,
0,0,0,1,1,0,0,0,star,triangle,1,0,1,0,3,4,40,9,,,,,,,,,,,,,,,,,,,,,,,,,,,,,,,,,,,,,,,,554.6351923518814,554.6351923518814,554.6351923518814,554.6351923518814,554.6351923518814,554.6351923518814,554.6351923518814,554.6351923518814,554.6351923518814,554.6351923518814,l,0.4250212840270251,10,548,1,555.085543846013,556.587370130932,,,,,,,,,,,,,,,,,,,,,,,,,,,,,,,,,,,,,,,,,,,,,,,,,,,,,,,,,,,,,,,,,,,,,,,95949,2022-11-16_14h31.02.361,vts_reward_expectancy_bt_OFFLINE,2022.2.4,60.095062409638274,
0,0,1,0,0,0,0,1,hexagon,star,1,0,1,0,3,5,41,8,,,,,,,,,,,,,,,,,,,,,,,,,,,,,,,,,,,,,,,,557.0878527059685,557.0878527059685,557.0878527059685,557.0878527059685,557.0878527059685,557.0878527059685,557.0878527059685,557.0878527059685,557.0878527059685,557.0878527059685,a,0.6852714840788394,1,549,1,557.8053359319456,559.3069669199176,,,,,,,,,,,,,,,,,,,,,,,,,,,,,,,,,,,,,,,,,,,,,,,,,,,,,,,,,,,,,,,,,,,,,,,95949,2022-11-16_14h31.02.361,vts_reward_expectancy_bt_OFFLINE,2022.2.4,60.095062409638274,
0,1,0,0,0,0,0,1,circle,star,1,0,1,0,3,6,42,5,,,,,,,,,,,,,,,,,,,,,,,,,,,,,,,,,,,,,,,,559.8078049470205,559.8078049470205,559.8078049470205,559.8078049470205,559.8078049470205,559.8078049470205,559.8078049470205,559.8078049470205,559.8078049470205,559.8078049470205,a,0.709507904946804,1,550,1,560.5417588700075,562.0432823309675,,,,,,,,,,,,,,,,,,,,,,,,,,,,,,,,,,,,,,,,,,,,,,,,,,,,,,,,,,,,,,,,,,,,,,,95949,2022-11-16_14h31.02.361,vts_reward_expectancy_bt_OFFLINE,2022.2.4,60.095062409638274,
1,0,0,0,0,0,1,0,triangle,hexagon,1,0,1,0,3,7,43,1,,,,,,,,,,,,,,,,,,,,,,,,,,,,,,,,,,,,,,,,562.5438636739273,562.5438636739273,562.5438636739273,562.5438636739273,562.5438636739273,562.5438636739273,562.5438636739273,562.5438636739273,562.5438636739273,562.5438636739273,a,0.6180238460656255,10,560,1,563.1944205169566,564.6961708900053,,,,,,,,,,,,,,,,,,,,,,,,,,,,,,,,,,,,,,,,,,,,,,,,,,,,,,,,,,,,,,,,,,,,,,,95949,2022-11-16_14h31.02.361,vts_reward_expectancy_bt_OFFLINE,2022.2.4,60.095062409638274,
0,0,1,0,1,0,0,0,hexagon,triangle,1,0,1,0,3,8,44,6,,,,,,,,,,,,,,,,,,,,,,,,,,,,,,,,,,,,,,,,565.1966642369516,565.1966642369516,565.1966642369516,565.1966642369516,565.1966642369516,565.1966642369516,565.1966642369516,565.1966642369516,565.1966642369516,565.1966642369516,l,0.8111223371233791,1,561,1,566.0312249260023,567.5327610189561,,,,,,,,,,,,,,,,,,,,,,,,,,,,,,,,,,,,,,,,,,,,,,,,,,,,,,,,,,,,,,,,,,,,,,,95949,2022-11-16_14h31.02.361,vts_reward_expectancy_bt_OFFLINE,2022.2.4,60.095062409638274,
1,0,0,0,0,1,0,0,triangle,circle,1,0,1,0,3,9,45,0,,,,,,,,,,,,,,,,,,,,,,,,,,,,,,,,,,,,,,,,568.033247750951,568.033247750951,568.033247750951,568.033247750951,568.033247750951,568.033247750951,568.033247750951,568.033247750951,568.033247750951,568.033247750951,a,0.4605831759981811,10,571,1,568.517225490883,570.0187482389156,,,,,,,,,,,,,,,,,,,,,,,,,,,,,,,,,,,,,,,,,,,,,,,,,,,,,,,,,,,,,,,,,,,,,,,95949,2022-11-16_14h31.02.361,vts_reward_expectancy_bt_OFFLINE,2022.2.4,60.095062409638274,
1,0,0,0,0,0,0,1,triangle,star,1,0,1,0,3,10,46,2,,,,,,,,,,,,,,,,,,,,,,,,,,,,,,,,,,,,,,,,570.5194243618753,570.5194243618753,570.5194243618753,570.5194243618753,570.5194243618753,570.5194243618753,570.5194243618753,570.5194243618753,570.5194243618753,570.5194243618753,a,0.7652480250690132,10,581,1,571.3035225910135,572.8051548469812,,,,,,,,,,,,,,,,,,,,,,,,,,,,,,,,,,,,,,,,,,,,,,,,,,,,,,,,,,,,,,,,,,,,,,,95949,2022-11-16_14h31.02.361,vts_reward_expectancy_bt_OFFLINE,2022.2.4,60.095062409638274,
0,1,0,0,1,0,0,0,circle,triangle,1,0,1,0,3,11,47,3,,,,,,,,,,,,,,,,,,,,,,,,,,,,,,,,,,,,,,,,573.305788863916,573.305788863916,573.305788863916,573.305788863916,573.305788863916,573.305788863916,573.305788863916,573.305788863916,573.305788863916,573.305788863916,l,0.7459461481776088,10,591,1,574.0731384598184,575.5747947718482,,,,,,,,,,,,,,,,,,,,,,,,,,,,,,,,,,,,,,,,,,,,,,,,,,,,,,,,,,,,,,,,,,,,,,,95949,2022-11-16_14h31.02.361,vts_reward_expectancy_bt_OFFLINE,2022.2.4,60.095062409638274,
0,0,1,0,0,0,0,1,hexagon,star,2,0,2,0,0,0,0,8,,,,,,,,,,,,,,,,,,,,,,,,,,,,,,,,,,,,,,,,579.1629945419263,579.1629945419263,579.1629945419263,579.1629945419263,579.1629945419263,579.1629945419263,579.1629945419263,579.1629945419263,579.1629945419263,579.1629945419263,a,0.7744297310709953,1,592,2,579.9631477668881,581.4646868319251,,,,,,,,,,,,,,,,,,,,,,,,,,,,,,,,,,,,,,,,,,,,,,,,,,,,,,,,,,,,,,,,,,,,,,,95949,2022-11-16_14h31.02.361,vts_reward_expectancy_bt_OFFLINE,2022.2.4,60.095062409638274,
1,0,0,0,0,1,0,0,triangle,circle,2,0,2,0,0,1,1,0,,,,,,,,,,,,,,,,,,,,,,,,,,,,,,,,,,,,,,,,581.9652148918249,581.9652148918249,581.9652148918249,581.9652148918249,581.9652148918249,581.9652148918249,581.9652148918249,581.9652148918249,581.9652148918249,581.9652148918249,a,2.954273479990661,10,602,2,584.9520273199305,586.4536360639613,,,,,,,,,,,,,,,,,,,,,,,,,,,,,,,,,,,,,,,,,,,,,,,,,,,,,,,,,,,,,,,,,,,,,,,95949,2022-11-16_14h31.02.361,vts_reward_expectancy_bt_OFFLINE,2022.2.4,60.095062409638274,
0,0,1,0,1,0,0,0,hexagon,triangle,2,0,2,0,0,2,2,6,,,,,,,,,,,,,,,,,,,,,,,,,,,,,,,,,,,,,,,,586.9540710670408,586.9540710670408,586.9540710670408,586.9540710670408,586.9540710670408,586.9540710670408,586.9540710670408,586.9540710670408,586.9540710670408,586.9540710670408,l,0.5999227699358016,10,612,2,587.571420803899,589.0731295959558,589.0731295959558,,,,,,,,,,,,,,,,,,,,,,,,,,,,,,,,,,,,,,,,,,,,,,,,,,,,,,,,,,,,,,,,,,,,,,95949,2022-11-16_14h31.02.361,vts_reward_expectancy_bt_OFFLINE,2022.2.4,60.095062409638274,
0,0,0,1,1,0,0,0,star,triangle,2,0,2,0,0,3,3,9,,,,,,,,,,,,,,,,,,,,,,,,,,,,,,,,,,,,,,,,589.5737201420125,589.5737201420125,589.5737201420125,589.5737201420125,589.5737201420125,589.5737201420125,589.5737201420125,589.5737201420125,589.5737201420125,589.5737201420125,a,0.6682293112389743,10,622,2,590.2746795108542,591.7763164648786,,,,,,,,,,,,,,,,,,,,,,,,,,,,,,,,,,,,,,,,,,,,,,,,,,,,,,,,,,,,,,,,,,,,,,,95949,2022-11-16_14h31.02.361,vts_reward_expectancy_bt_OFFLINE,2022.2.4,60.095062409638274,
0,0,1,0,0,1,0,0,hexagon,circle,2,0,2,0,0,4,4,7,,,,,,,,,,,,,,,,,,,,,,,,,,,,,,,,,,,,,,,,592.2768575588707,592.2768575588707,592.2768575588707,592.2768575588707,592.2768575588707,592.2768575588707,592.2768575588707,592.2768575588707,592.2768575588707,592.2768575588707,l,1.2616480041760951,1,623,2,593.5614704699256,595.0630364159588,,,,,,,,,,,,,,,,,,,,,,,,,,,,,,,,,,,,,,,,,,,,,,,,,,,,,,,,,,,,,,,,,,,,,,,95949,2022-11-16_14h31.02.361,vts_reward_expectancy_bt_OFFLINE,2022.2.4,60.095062409638274,
1,0,0,0,0,0,1,0,triangle,hexagon,2,0,2,0,0,5,5,1,,,,,,,,,,,,,,,,,,,,,,,,,,,,,,,,,,,,,,,,595.5638386458158,595.5638386458158,595.5638386458158,595.5638386458158,595.5638386458158,595.5638386458158,595.5638386458158,595.5638386458158,595.5638386458158,595.5638386458158,l,0.6077188581693918,1,624,2,596.1979533019476,597.6993848099373,,,,,,,,,,,,,,,,,,,,,,,,,,,,,,,,,,,,,,,,,,,,,,,,,,,,,,,,,,,,,,,,,,,,,,,95949,2022-11-16_14h31.02.361,vts_reward_expectancy_bt_OFFLINE,2022.2.4,60.095062409638274,
0,0,0,1,0,0,1,0,star,hexagon,2,0,2,0,0,6,6,11,,,,,,,,,,,,,,,,,,,,,,,,,,,,,,,,,,,,,,,,598.1999078339431,598.1999078339431,598.1999078339431,598.1999078339431,598.1999078339431,598.1999078339431,598.1999078339431,598.1999078339431,598.1999078339431,598.1999078339431,a,0.7965284080710262,1,625,2,599.0176869488787,600.5191463599913,600.5191463599913,,,,,,,,,,,,,,,,,,,,,,,,,,,,,,,,,,,,,,,,,,,,,,,,,,,,,,,,,,,,,,,,,,,,,,95949,2022-11-16_14h31.02.361,vts_reward_expectancy_bt_OFFLINE,2022.2.4,60.095062409638274,
0,1,0,0,0,0,0,1,circle,star,2,0,2,0,0,7,7,5,,,,,,,,,,,,,,,,,,,,,,,,,,,,,,,,,,,,,,,,601.0197358969599,601.0197358969599,601.0197358969599,601.0197358969599,601.0197358969599,601.0197358969599,601.0197358969599,601.0197358969599,601.0197358969599,601.0197358969599,a,0.28368825907818973,10,635,2,601.3366093740333,602.8382894739043,,,,,,,,,,,,,,,,,,,,,,,,,,,,,,,,,,,,,,,,,,,,,,,,,,,,,,,,,,,,,,,,,,,,,,,95949,2022-11-16_14h31.02.361,vts_reward_expectancy_bt_OFFLINE,2022.2.4,60.095062409638274,
0,0,0,1,0,1,0,0,star ,circle,2,0,2,0,0,8,8,10,,,,,,,,,,,,,,,,,,,,,,,,,,,,,,,,,,,,,,,,603.3221243738662,603.3221243738662,603.3221243738662,603.3221243738662,603.3221243738662,603.3221243738662,603.3221243738662,603.3221243738662,603.3221243738662,603.3221243738662,a,1.1297382491175085,10,645,2,604.4734271948691,605.9752867759671,,,,,,,,,,,,,,,,,,,,,,,,,,,,,,,,,,,,,,,,,,,,,,,,,,,,,,,,,,,,,,,,,,,,,,,95949,2022-11-16_14h31.02.361,vts_reward_expectancy_bt_OFFLINE,2022.2.4,60.095062409638274,
1,0,0,0,0,0,0,1,triangle,star,2,0,2,0,0,9,9,2,,,,,,,,,,,,,,,,,,,,,,,,,,,,,,,,,,,,,,,,606.4757869618479,606.4757869618479,606.4757869618479,606.4757869618479,606.4757869618479,606.4757869618479,606.4757869618479,606.4757869618479,606.4757869618479,606.4757869618479,a,0.7346688869874924,1,646,2,607.2431638799608,608.7448486059438,,,,,,,,,,,,,,,,,,,,,,,,,,,,,,,,,,,,,,,,,,,,,,,,,,,,,,,,,,,,,,,,,,,,,,,95949,2022-11-16_14h31.02.361,vts_reward_expectancy_bt_OFFLINE,2022.2.4,60.095062409638274,
0,1,0,0,1,0,0,0,circle,triangle,2,0,2,0,0,10,10,3,,,,,,,,,,,,,,,,,,,,,,,,,,,,,,,,,,,,,,,,609.2453468388412,609.2453468388412,609.2453468388412,609.2453468388412,609.2453468388412,609.2453468388412,609.2453468388412,609.2453468388412,609.2453468388412,609.2453468388412,l,0.8541701552458107,10,656,2,610.1297952239402,611.6314967859071,,,,,,,,,,,,,,,,,,,,,,,,,,,,,,,,,,,,,,,,,,,,,,,,,,,,,,,,,,,,,,,,,,,,,,,95949,2022-11-16_14h31.02.361,vts_reward_expectancy_bt_OFFLINE,2022.2.4,60.095062409638274,
0,1,0,0,0,0,1,0,circle,hexagon,2,0,2,0,0,11,11,4,,,,,,,,,,,,,,,,,,,,,,,,,,,,,,,,,,,,,,,,612.1319712819532,612.1319712819532,612.1319712819532,612.1319712819532,612.1319712819532,612.1319712819532,612.1319712819532,612.1319712819532,612.1319712819532,612.1319712819532,a,1.5802237980533391,10,666,2,613.7336542408448,615.235237380024,,,,,,,,,,,,,,,,,,,,,,,,,,,,,,,,,,,,,,,,,,,,,,,,,,,,,,,,,,,,,,,,,,,,,,,95949,2022-11-16_14h31.02.361,vts_reward_expectancy_bt_OFFLINE,2022.2.4,60.095062409638274,
0,0,0,1,1,0,0,0,star,triangle,2,0,2,0,1,0,12,9,,,,,,,,,,,,,,,,,,,,,,,,,,,,,,,,,,,,,,,,615.7359905499034,615.7359905499034,615.7359905499034,615.7359905499034,615.7359905499034,615.7359905499034,615.7359905499034,615.7359905499034,615.7359905499034,615.7359905499034,a,0.5182160742115229,10,676,2,616.2864712399896,617.7882443568669,,,,,,,,,,,,,,,,,,,,,,,,,,,,,,,,,,,,,,,,,,,,,,,,,,,,,,,,,,,,,,,,,,,,,,,95949,2022-11-16_14h31.02.361,vts_reward_expectancy_bt_OFFLINE,2022.2.4,60.095062409638274,
0,1,0,0,0,0,0,1,circle,star,2,0,2,0,1,1,13,5,,,,,,,,,,,,,,,,,,,,,,,,,,,,,,,,,,,,,,,,618.2888527289033,618.2888527289033,618.2888527289033,618.2888527289033,618.2888527289033,618.2888527289033,618.2888527289033,618.2888527289033,618.2888527289033,618.2888527289033,l,0.4961192081682384,10,686,2,618.8059772918932,620.3076014369726,,,,,,,,,,,,,,,,,,,,,,,,,,,,,,,,,,,,,,,,,,,,,,,,,,,,,,,,,,,,,,,,,,,,,,,95949,2022-11-16_14h31.02.361,vts_reward_expectancy_bt_OFFLINE,2022.2.4,60.095062409638274,
0,0,0,1,0,1,0,0,star ,circle,2,0,2,0,1,2,14,10,,,,,,,,,,,,,,,,,,,,,,,,,,,,,,,,,,,,,,,,620.8081335488241,620.8081335488241,620.8081335488241,620.8081335488241,620.8081335488241,620.8081335488241,620.8081335488241,620.8081335488241,620.8081335488241,620.8081335488241,l,0.5654269130900502,1,687,2,621.4088616590016,622.8940077009611,,,,,,,,,,,,,,,,,,,,,,,,,,,,,,,,,,,,,,,,,,,,,,,,,,,,,,,,,,,,,,,,,,,,,,,95949,2022-11-16_14h31.02.361,vts_reward_expectancy_bt_OFFLINE,2022.2.4,60.095062409638274,
0,0,1,0,0,0,0,1,hexagon,star,2,0,2,0,1,3,15,8,,,,,,,,,,,,,,,,,,,,,,,,,,,,,,,,,,,,,,,,623.3945085818414,623.3945085818414,623.3945085818414,623.3945085818414,623.3945085818414,623.3945085818414,623.3945085818414,623.3945085818414,623.3945085818414,623.3945085818414,a,0.576934068929404,1,688,2,623.9949873699807,625.4965384108946,625.4965384108946,,,,,,,,,,,,,,,,,,,,,,,,,,,,,,,,,,,,,,,,,,,,,,,,,,,,,,,,,,,,,,,,,,,,,,95949,2022-11-16_14h31.02.361,vts_reward_expectancy_bt_OFFLINE,2022.2.4,60.095062409638274,
0,0,0,1,0,0,1,0,star,hexagon,2,0,2,0,1,4,16,11,,,,,,,,,,,,,,,,,,,,,,,,,,,,,,,,,,,,,,,,625.9973596888594,625.9973596888594,625.9973596888594,625.9973596888594,625.9973596888594,625.9973596888594,625.9973596888594,625.9973596888594,625.9973596888594,625.9973596888594,l,0.40373606514185667,1,689,2,626.4311041049659,627.9326002218295,627.9326002218295,628.4331689858809,,,,,,,,,,,,,,,,,,,,,,,,,,,,,,,,,,,,,,,,,,,,,,,,,,,,,,,,,,,,,,,,,,,,,95949,2022-11-16_14h31.02.361,vts_reward_expectancy_bt_OFFLINE,2022.2.4,60.095062409638274,
1,0,0,0,0,1,0,0,triangle,circle,2,0,2,0,1,5,17,0,,,,,,,,,,,,,,,,,,,,,,,,,,,,,,,,,,,,,,,,628.4331689858809,628.4331689858809,628.4331689858809,628.4331689858809,628.4331689858809,628.4331689858809,628.4331689858809,628.4331689858809,628.4331689858809,628.4331689858809,l,0.7251728281844407,1,690,2,629.2009842400439,630.6856906798203,,,,,,,,,,,,,,,,,,,,,,,,,,,,,,,,,,,,,,,,,,,,,,,,,,,,,,,,,,,,,,,,,,,,,,,95949,2022-11-16_14h31.02.361,vts_reward_expectancy_bt_OFFLINE,2022.2.4,60.095062409638274,
0,1,0,0,0,0,1,0,circle,hexagon,2,0,2,0,1,6,18,4,,,,,,,,,,,,,,,,,,,,,,,,,,,,,,,,,,,,,,,,631.1864838558249,631.1864838558249,631.1864838558249,631.1864838558249,631.1864838558249,631.1864838558249,631.1864838558249,631.1864838558249,631.1864838558249,631.1864838558249,l,0.6948237200267613,1,691,2,631.9038150990382,633.405410964042,,,,,,,,,,,,,,,,,,,,,,,,,,,,,,,,,,,,,,,,,,,,,,,,,,,,,,,,,,,,,,,,,,,,,,,95949,2022-11-16_14h31.02.361,vts_reward_expectancy_bt_OFFLINE,2022.2.4,60.095062409638274,
1,0,0,0,0,0,1,0,triangle,hexagon,2,0,2,0,1,7,19,1,,,,,,,,,,,,,,,,,,,,,,,,,,,,,,,,,,,,,,,,633.9060799840372,633.9060799840372,633.9060799840372,633.9060799840372,633.9060799840372,633.9060799840372,633.9060799840372,633.9060799840372,633.9060799840372,633.9060799840372,l,0.47251494601368904,1,692,2,634.4233386788983,635.925025556935,,,,,,,,,,,,,,,,,,,,,,,,,,,,,,,,,,,,,,,,,,,,,,,,,,,,,,,,,,,,,,,,,,,,,,,95949,2022-11-16_14h31.02.361,vts_reward_expectancy_bt_OFFLINE,2022.2.4,60.095062409638274,
0,1,0,0,1,0,0,0,circle,triangle,2,0,2,0,1,8,20,3,,,,,,,,,,,,,,,,,,,,,,,,,,,,,,,,,,,,,,,,636.4088903118391,636.4088903118391,636.4088903118391,636.4088903118391,636.4088903118391,636.4088903118391,636.4088903118391,636.4088903118391,636.4088903118391,636.4088903118391,l,0.4788488650228828,10,702,2,636.9095754039008,638.4109406038187,,,,,,,,,,,,,,,,,,,,,,,,,,,,,,,,,,,,,,,,,,,,,,,,,,,,,,,,,,,,,,,,,,,,,,,95949,2022-11-16_14h31.02.361,vts_reward_expectancy_bt_OFFLINE,2022.2.4,60.095062409638274,
0,0,1,0,1,0,0,0,hexagon,triangle,2,0,2,0,1,9,21,6,,,,,,,,,,,,,,,,,,,,,,,,,,,,,,,,,,,,,,,,638.911500124028,638.911500124028,638.911500124028,638.911500124028,638.911500124028,638.911500124028,638.911500124028,638.911500124028,638.911500124028,638.911500124028,a,0.8224145562853664,10,712,2,639.7625767090358,641.2642076909542,,,,,,,,,,,,,,,,,,,,,,,,,,,,,,,,,,,,,,,,,,,,,,,,,,,,,,,,,,,,,,,,,,,,,,,95949,2022-11-16_14h31.02.361,vts_reward_expectancy_bt_OFFLINE,2022.2.4,60.095062409638274,
1,0,0,0,0,0,0,1,triangle,star,2,0,2,0,1,10,22,2,,,,,,,,,,,,,,,,,,,,,,,,,,,,,,,,,,,,,,,,641.764598157024,641.764598157024,641.764598157024,641.764598157024,641.764598157024,641.764598157024,641.764598157024,641.764598157024,641.764598157024,641.764598157024,a,0.5452357372269034,10,722,2,642.33204126684,643.8335504198913,,,,,,,,,,,,,,,,,,,,,,,,,,,,,,,,,,,,,,,,,,,,,,,,,,,,,,,,,,,,,,,,,,,,,,,95949,2022-11-16_14h31.02.361,vts_reward_expectancy_bt_OFFLINE,2022.2.4,60.095062409638274,
0,0,1,0,0,1,0,0,hexagon,circle,2,0,2,0,1,11,23,7,,,,,,,,,,,,,,,,,,,,,,,,,,,,,,,,,,,,,,,,644.3339992370456,644.3339992370456,644.3339992370456,644.3339992370456,644.3339992370456,644.3339992370456,644.3339992370456,644.3339992370456,644.3339992370456,644.3339992370456,a,0.6428174062166363,1,723,2,645.0017381990328,646.5031370199285,,,,,,,,,,,,,,,,,,,,,,,,,,,,,,,,,,,,,,,,,,,,,,,,,,,,,,,,,,,,,,,,,,,,,,,95949,2022-11-16_14h31.02.361,vts_reward_expectancy_bt_OFFLINE,2022.2.4,60.095062409638274,
0,1,0,0,0,0,0,1,circle,star,2,0,2,0,2,0,24,5,,,,,,,,,,,,,,,,,,,,,,,,,,,,,,,,,,,,,,,,647.0039031240158,647.0039031240158,647.0039031240158,647.0039031240158,647.0039031240158,647.0039031240158,647.0039031240158,647.0039031240158,647.0039031240158,647.0039031240158,l,0.8195916472468525,10,733,2,647.8547714848537,649.3564920909703,,,,,,,,,,,,,,,,,,,,,,,,,,,,,,,,,,,,,,,,,,,,,,,,,,,,,,,,,,,,,,,,,,,,,,,95949,2022-11-16_14h31.02.361,vts_reward_expectancy_bt_OFFLINE,2022.2.4,60.095062409638274,
0,1,0,0,0,0,1,0,circle,hexagon,2,0,2,0,2,1,25,4,,,,,,,,,,,,,,,,,,,,,,,,,,,,,,,,,,,,,,,,649.8567839609459,649.8567839609459,649.8567839609459,649.8567839609459,649.8567839609459,649.8567839609459,649.8567839609459,649.8567839609459,649.8567839609459,649.8567839609459,l,0.2953157990705222,1,734,2,650.190524549922,651.6756129208952,,,,,,,,,,,,,,,,,,,,,,,,,,,,,,,,,,,,,,,,,,,,,,,,,,,,,,,,,,,,,,,,,,,,,,,95949,2022-11-16_14h31.02.361,vts_reward_expectancy_bt_OFFLINE,2022.2.4,60.095062409638274,
1,0,0,0,0,0,1,0,triangle,hexagon,2,0,2,0,2,2,26,1,,,,,,,,,,,,,,,,,,,,,,,,,,,,,,,,,,,,,,,,652.1759060448967,652.1759060448967,652.1759060448967,652.1759060448967,652.1759060448967,652.1759060448967,652.1759060448967,652.1759060448967,652.1759060448967,652.1759060448967,l,0.2601814130321145,1,735,2,652.476496418938,653.9613966939505,,,,,,,,,,,,,,,,,,,,,,,,,,,,,,,,,,,,,,,,,,,,,,,,,,,,,,,,,,,,,,,,,,,,,,,95949,2022-11-16_14h31.02.361,vts_reward_expectancy_bt_OFFLINE,2022.2.4,60.095062409638274,
0,0,0,1,0,1,0,0,star ,circle,2,0,2,0,2,3,27,10,,,,,,,,,,,,,,,,,,,,,,,,,,,,,,,,,,,,,,,,654.4619215638377,654.4619215638377,654.4619215638377,654.4619215638377,654.4619215638377,654.4619215638377,654.4619215638377,654.4619215638377,654.4619215638377,654.4619215638377,l,0.3596350811421871,1,736,2,654.845786830876,656.3475908988621,,,,,,,,,,,,,,,,,,,,,,,,,,,,,,,,,,,,,,,,,,,,,,,,,,,,,,,,,,,,,,,,,,,,,,,95949,2022-11-16_14h31.02.361,vts_reward_expectancy_bt_OFFLINE,2022.2.4,60.095062409638274,
0,0,1,0,0,0,0,1,hexagon,star,2,0,2,0,2,4,28,8,,,,,,,,,,,,,,,,,,,,,,,,,,,,,,,,,,,,,,,,656.8481038250029,656.8481038250029,656.8481038250029,656.8481038250029,656.8481038250029,656.8481038250029,656.8481038250029,656.8481038250029,656.8481038250029,656.8481038250029,l,0.22418476804159582,1,737,2,657.1149320970289,658.6166527350433,,,,,,,,,,,,,,,,,,,,,,,,,,,,,,,,,,,,,,,,,,,,,,,,,,,,,,,,,,,,,,,,,,,,,,,95949,2022-11-16_14h31.02.361,vts_reward_expectancy_bt_OFFLINE,2022.2.4,60.095062409638274,
1,0,0,0,0,0,0,1,triangle,star,2,0,2,0,2,5,29,2,,,,,,,,,,,,,,,,,,,,,,,,,,,,,,,,,,,,,,,,659.1173494269606,659.1173494269606,659.1173494269606,659.1173494269606,659.1173494269606,659.1173494269606,659.1173494269606,659.1173494269606,659.1173494269606,659.1173494269606,a,0.25051070214249194,10,747,2,659.4010666520335,660.9024186518509,,,,,,,,,,,,,,,,,,,,,,,,,,,,,,,,,,,,,,,,,,,,,,,,,,,,,,,,,,,,,,,,,,,,,,,95949,2022-11-16_14h31.02.361,vts_reward_expectancy_bt_OFFLINE,2022.2.4,60.095062409638274,
1,0,0,0,0,1,0,0,triangle,circle,2,0,2,0,2,6,30,0,,,,,,,,,,,,,,,,,,,,,,,,,,,,,,,,,,,,,,,,661.4030411259737,661.4030411259737,661.4030411259737,661.4030411259737,661.4030411259737,661.4030411259737,661.4030411259737,661.4030411259737,661.4030411259737,661.4030411259737,a,0.6302393572404981,10,757,2,662.0537647188175,663.5552905048244,,,,,,,,,,,,,,,,,,,,,,,,,,,,,,,,,,,,,,,,,,,,,,,,,,,,,,,,,,,,,,,,,,,,,,,95949,2022-11-16_14h31.02.361,vts_reward_expectancy_bt_OFFLINE,2022.2.4,60.095062409638274,
0,1,0,0,1,0,0,0,circle,triangle,2,0,2,0,2,7,31,3,,,,,,,,,,,,,,,,,,,,,,,,,,,,,,,,,,,,,,,,664.0559331148397,664.0559331148397,664.0559331148397,664.0559331148397,664.0559331148397,664.0559331148397,664.0559331148397,664.0559331148397,664.0559331148397,664.0559331148397,l,0.7912820251658559,10,767,2,664.8736403938383,666.3752234519925,,,,,,,,,,,,,,,,,,,,,,,,,,,,,,,,,,,,,,,,,,,,,,,,,,,,,,,,,,,,,,,,,,,,,,,95949,2022-11-16_14h31.02.361,vts_reward_expectancy_bt_OFFLINE,2022.2.4,60.095062409638274,
0,0,0,1,1,0,0,0,star,triangle,2,0,2,0,2,8,32,9,,,,,,,,,,,,,,,,,,,,,,,,,,,,,,,,,,,,,,,,666.8758253438864,666.8758253438864,666.8758253438864,666.8758253438864,666.8758253438864,666.8758253438864,666.8758253438864,666.8758253438864,666.8758253438864,666.8758253438864,l,0.6928771000821143,10,777,2,667.5930289458483,669.0947418238502,,,,,,,,,,,,,,,,,,,,,,,,,,,,,,,,,,,,,,,,,,,,,,,,,,,,,,,,,,,,,,,,,,,,,,,95949,2022-11-16_14h31.02.361,vts_reward_expectancy_bt_OFFLINE,2022.2.4,60.095062409638274,
0,0,1,0,0,1,0,0,hexagon,circle,2,0,2,0,2,9,33,7,,,,,,,,,,,,,,,,,,,,,,,,,,,,,,,,,,,,,,,,669.5955518798437,669.5955518798437,669.5955518798437,669.5955518798437,669.5955518798437,669.5955518798437,669.5955518798437,669.5955518798437,669.5955518798437,669.5955518798437,a,0.7415462932549417,1,778,2,670.3633065389004,671.8643435239792,,,,,,,,,,,,,,,,,,,,,,,,,,,,,,,,,,,,,,,,,,,,,,,,,,,,,,,,,,,,,,,,,,,,,,,95949,2022-11-16_14h31.02.361,vts_reward_expectancy_bt_OFFLINE,2022.2.4,60.095062409638274,
0,0,1,0,1,0,0,0,hexagon,triangle,2,0,2,0,2,10,34,6,,,,,,,,,,,,,,,,,,,,,,,,,,,,,,,,,,,,,,,,672.3648915670346,672.3648915670346,672.3648915670346,672.3648915670346,672.3648915670346,672.3648915670346,672.3648915670346,672.3648915670346,672.3648915670346,672.3648915670346,l,0.6944485681597143,10,788,2,673.0832177449483,674.584068223834,,,,,,,,,,,,,,,,,,,,,,,,,,,,,,,,,,,,,,,,,,,,,,,,,,,,,,,,,,,,,,,,,,,,,,,95949,2022-11-16_14h31.02.361,vts_reward_expectancy_bt_OFFLINE,2022.2.4,60.095062409638274,
0,0,0,1,0,0,1,0,star,hexagon,2,0,2,0,2,11,35,11,,,,,,,,,,,,,,,,,,,,,,,,,,,,,,,,,,,,,,,,675.0847056619823,675.0847056619823,675.0847056619823,675.0847056619823,675.0847056619823,675.0847056619823,675.0847056619823,675.0847056619823,675.0847056619823,675.0847056619823,a,0.7985093439929187,10,798,2,675.9023558148183,677.4038706950378,,,,,,,,,,,,,,,,,,,,,,,,,,,,,,,,,,,,,,,,,,,,,,,,,,,,,,,,,,,,,,,,,,,,,,,95949,2022-11-16_14h31.02.361,vts_reward_expectancy_bt_OFFLINE,2022.2.4,60.095062409638274,
1,0,0,0,0,1,0,0,triangle,circle,2,0,2,0,3,0,36,0,,,,,,,,,,,,,,,,,,,,,,,,,,,,,,,,,,,,,,,,677.9047097549774,677.9047097549774,677.9047097549774,677.9047097549774,677.9047097549774,677.9047097549774,677.9047097549774,677.9047097549774,677.9047097549774,677.9047097549774,a,0.5678228330798447,10,808,2,678.5051223740447,680.0068701468408,,,,,,,,,,,,,,,,,,,,,,,,,,,,,,,,,,,,,,,,,,,,,,,,,,,,,,,,,,,,,,,,,,,,,,,95949,2022-11-16_14h31.02.361,vts_reward_expectancy_bt_OFFLINE,2022.2.4,60.095062409638274,
1,0,0,0,0,0,1,0,triangle,hexagon,2,0,2,0,3,1,37,1,,,,,,,,,,,,,,,,,,,,,,,,,,,,,,,,,,,,,,,,680.507355166832,680.507355166832,680.507355166832,680.507355166832,680.507355166832,680.507355166832,680.507355166832,680.507355166832,680.507355166832,680.507355166832,a,1.259363894117996,10,818,2,681.7921018570196,683.2938415920362,,,,,,,,,,,,,,,,,,,,,,,,,,,,,,,,,,,,,,,,,,,,,,,,,,,,,,,,,,,,,,,,,,,,,,,95949,2022-11-16_14h31.02.361,vts_reward_expectancy_bt_OFFLINE,2022.2.4,60.095062409638274,
0,0,1,0,0,1,0,0,hexagon,circle,2,0,2,0,3,2,38,7,,,,,,,,,,,,,,,,,,,,,,,,,,,,,,,,,,,,,,,,683.7942776510026,683.7942776510026,683.7942776510026,683.7942776510026,683.7942776510026,683.7942776510026,683.7942776510026,683.7942776510026,683.7942776510026,683.7942776510026,a,0.6620953250676394,1,819,2,684.4789266870357,685.9800394088961,,,,,,,,,,,,,,,,,,,,,,,,,,,,,,,,,,,,,,,,,,,,,,,,,,,,,,,,,,,,,,,,,,,,,,,95949,2022-11-16_14h31.02.361,vts_reward_expectancy_bt_OFFLINE,2022.2.4,60.095062409638274,
0,1,0,0,0,0,1,0,circle,hexagon,2,0,2,0,3,3,39,4,,,,,,,,,,,,,,,,,,,,,,,,,,,,,,,,,,,,,,,,686.4805715258699,686.4805715258699,686.4805715258699,686.4805715258699,686.4805715258699,686.4805715258699,686.4805715258699,686.4805715258699,686.4805715258699,686.4805715258699,l,0.7676871081348509,1,820,2,687.2648041239008,688.7666724619921,688.7666724619921,,,,,,,,,,,,,,,,,,,,,,,,,,,,,,,,,,,,,,,,,,,,,,,,,,,,,,,,,,,,,,,,,,,,,,95949,2022-11-16_14h31.02.361,vts_reward_expectancy_bt_OFFLINE,2022.2.4,60.095062409638274,
0,1,0,0,1,0,0,0,circle,triangle,2,0,2,0,3,4,40,3,,,,,,,,,,,,,,,,,,,,,,,,,,,,,,,,,,,,,,,,689.2669766519684,689.2669766519684,689.2669766519684,689.2669766519684,689.2669766519684,689.2669766519684,689.2669766519684,689.2669766519684,689.2669766519684,689.2669766519684,a,0.5017850250005722,1,821,2,689.8010418938939,691.3025313010439,,,,,,,,,,,,,,,,,,,,,,,,,,,,,,,,,,,,,,,,,,,,,,,,,,,,,,,,,,,,,,,,,,,,,,,95949,2022-11-16_14h31.02.361,vts_reward_expectancy_bt_OFFLINE,2022.2.4,60.095062409638274,
1,0,0,0,0,0,0,1,triangle,star,2,0,2,0,3,5,41,2,,,,,,,,,,,,,,,,,,,,,,,,,,,,,,,,,,,,,,,,691.8031857968308,691.8031857968308,691.8031857968308,691.8031857968308,691.8031857968308,691.8031857968308,691.8031857968308,691.8031857968308,691.8031857968308,691.8031857968308,l,1.4192734039388597,10,831,2,693.2547983890399,694.7564529308584,,,,,,,,,,,,,,,,,,,,,,,,,,,,,,,,,,,,,,,,,,,,,,,,,,,,,,,,,,,,,,,,,,,,,,,95949,2022-11-16_14h31.02.361,vts_reward_expectancy_bt_OFFLINE,2022.2.4,60.095062409638274,
0,0,0,1,0,0,1,0,star,hexagon,2,0,2,0,3,6,42,11,,,,,,,,,,,,,,,,,,,,,,,,,,,,,,,,,,,,,,,,695.2568212070037,695.2568212070037,695.2568212070037,695.2568212070037,695.2568212070037,695.2568212070037,695.2568212070037,695.2568212070037,695.2568212070037,695.2568212070037,a,1.0251728889998049,10,841,2,696.3082914589904,697.8100146199577,,,,,,,,,,,,,,,,,,,,,,,,,,,,,,,,,,,,,,,,,,,,,,,,,,,,,,,,,,,,,,,,,,,,,,,95949,2022-11-16_14h31.02.361,vts_reward_expectancy_bt_OFFLINE,2022.2.4,60.095062409638274,
0,0,0,1,0,1,0,0,star ,circle,2,0,2,0,3,7,43,10,,,,,,,,,,,,,,,,,,,,,,,,,,,,,,,,,,,,,,,,698.3104521799833,698.3104521799833,698.3104521799833,698.3104521799833,698.3104521799833,698.3104521799833,698.3104521799833,698.3104521799833,698.3104521799833,698.3104521799833,a,1.1327240192331374,10,851,2,699.4616362918168,700.9633609289303,,,,,,,,,,,,,,,,,,,,,,,,,,,,,,,,,,,,,,,,,,,,,,,,,,,,,,,,,,,,,,,,,,,,,,,95949,2022-11-16_14h31.02.361,vts_reward_expectancy_bt_OFFLINE,2022.2.4,60.095062409638274,
0,0,1,0,1,0,0,0,hexagon,triangle,2,0,2,0,3,8,44,6,,,,,,,,,,,,,,,,,,,,,,,,,,,,,,,,,,,,,,,,701.4639578638598,701.4639578638598,701.4639578638598,701.4639578638598,701.4639578638598,701.4639578638598,701.4639578638598,701.4639578638598,701.4639578638598,701.4639578638598,l,0.9595475711394101,10,861,2,702.4482885848265,703.9500579808373,,,,,,,,,,,,,,,,,,,,,,,,,,,,,,,,,,,,,,,,,,,,,,,,,,,,,,,,,,,,,,,,,,,,,,,95949,2022-11-16_14h31.02.361,vts_reward_expectancy_bt_OFFLINE,2022.2.4,60.095062409638274,
0,0,0,1,1,0,0,0,star,triangle,2,0,2,0,3,9,45,9,,,,,,,,,,,,,,,,,,,,,,,,,,,,,,,,,,,,,,,,704.4505038668867,704.4505038668867,704.4505038668867,704.4505038668867,704.4505038668867,704.4505038668867,704.4505038668867,704.4505038668867,704.4505038668867,704.4505038668867,l,0.7081156831700355,10,871,2,705.184490935877,706.6862314369064,,,,,,,,,,,,,,,,,,,,,,,,,,,,,,,,,,,,,,,,,,,,,,,,,,,,,,,,,,,,,,,,,,,,,,,95949,2022-11-16_14h31.02.361,vts_reward_expectancy_bt_OFFLINE,2022.2.4,60.095062409638274,
0,0,1,0,0,0,0,1,hexagon,star,2,0,2,0,3,10,46,8,,,,,,,,,,,,,,,,,,,,,,,,,,,,,,,,,,,,,,,,707.1870722270105,707.1870722270105,707.1870722270105,707.1870722270105,707.1870722270105,707.1870722270105,707.1870722270105,707.1870722270105,707.1870722270105,707.1870722270105,l,0.7843029091600329,10,881,2,707.9878175309859,709.4892863209825,709.4892863209825,,,,,,,,,,,,,,,,,,,,,,,,,,,,,,,,,,,,,,,,,,,,,,,,,,,,,,,,,,,,,,,,,,,,,,95949,2022-11-16_14h31.02.361,vts_reward_expectancy_bt_OFFLINE,2022.2.4,60.095062409638274,
0,1,0,0,0,0,0,1,circle,star,2,0,2,0,3,11,47,5,,,,,,,,,,,,,,,,,,,,,,,,,,,,,,,,,,,,,,,,709.9898621959146,709.9898621959146,709.9898621959146,709.9898621959146,709.9898621959146,709.9898621959146,709.9898621959146,709.9898621959146,709.9898621959146,709.9898621959146,l,1.6595707561355084,10,891,2,711.6750494639855,713.176786850905,,,,,,,,,,,,,,,,,,,,,,,,,,,,,,,,,,,,,,,,,,,,,,,,,,,,,,,,,,,,,,,,,,,,,,,95949,2022-11-16_14h31.02.361,vts_reward_expectancy_bt_OFFLINE,2022.2.4,60.095062409638274,
,,,,,,,,,,,,,,,,,,0,0,0,0,0,0,0,0,,,,,,,,,,,,,,,,,,,,,,,,,,,,,,,,,,,,,,,,,,,,,,,,749.1665476020426,,,F,132,triangle,0.0019905699882656336,744.545947231818,746.0463219319936,746.0463219319936,746.0463219319936,0,0,f,1.5938616511411965,0,747.6814486349467,,,,,,,,,,,,,,,,,,,,,,,,,,,,,,,,,,,,,,,,,,,,,,,,,,,,,,,95949,2022-11-16_14h31.02.361,vts_reward_expectancy_bt_OFFLINE,2022.2.4,60.095062409638274,
,,,,,,,,,,,,,,,,,,0,0,0,0,1,0,1,0,,,,,,,,,,,,,,,,,,,,,,,,,,,,,,,,,,,,,,,,,,,,,,,,754.3887142459862,,,W,146,hexagon,0.0012186719104647636,750.151789868949,751.6524814970326,751.6524814970326,751.6524814970326,1,1,f,1.208416096167639,0,752.903854111908,,,,,,,,,,,,,,,,,,,,,,,,,,,,,,,,,,,,,,,,,,,,,,,,,,,,,,,95949,2022-11-16_14h31.02.361,vts_reward_expectancy_bt_OFFLINE,2022.2.4,60.095062409638274,
,,,,,,,,,,,,,,,,,,0,0,0,0,2,0,2,0,,,,,,,,,,,,,,,,,,,,,,,,,,,,,,,,,,,,,,,,,,,,,,,,759.2774020668585,,,S,160,circle,0.0012946100905537605,755.3732955339365,756.8749010069296,756.8749010069296,756.8749010069296,1,0,f,0.8686436179559678,0,757.7756955840159,,,,,,,,,,,,,,,,,,,,,,,,,,,,,,,,,,,,,,,,,,,,,,,,,,,,,,,95949,2022-11-16_14h31.02.361,vts_reward_expectancy_bt_OFFLINE,2022.2.4,60.095062409638274,
,,,,,,,,,,,,,,,,,,0,0,0,0,3,0,3,0,,,,,,,,,,,,,,,,,,,,,,,,,,,,,,,,,,,,,,,,,,,,,,,,764.2830538938288,,,B,181,star,0.0012708341237157583,760.2619285648689,761.7637301690411,761.7637301690411,761.7637301690411,1,0,d,0.9976376891136169,0,762.7815112739336,764.2830538938288,,,,,,,,,,,,,,,,,,,,,,,,,,,,,,,,,,,,,,,,,,,,,,,,,,,,,,95949,2022-11-16_14h31.02.361,vts_reward_expectancy_bt_OFFLINE,2022.2.4,60.095062409638274,
,,,,,,,,,,,,,,,,,,0,0,0,0,4,0,4,0,,,,,,,,,,,,,,,,,,,,,,,,,,,,,,,,,,,,,,,,,,,,,,,,768.7715200800449,,,D,139,hexagon,0.0009314401540905237,765.267603226006,766.7693492190447,766.7693492190447,766.7693492190447,1,0,d,0.47038383525796235,0,767.269834660925,,,,,,,,,,,,,,,,,,,,,,,,,,,,,,,,,,,,,,,,,,,,,,,,,,,,,,,95949,2022-11-16_14h31.02.361,vts_reward_expectancy_bt_OFFLINE,2022.2.4,60.095062409638274,
,,,,,,,,,,,,,,,,,,0,0,0,0,5,0,5,0,,,,,,,,,,,,,,,,,,,,,,,,,,,,,,,,,,,,,,,,,,,,,,,,773.4434026589151,,,Y,125,circle,0.0012248349376022816,769.7560523019638,771.2574503759388,771.2574503759388,771.2574503759388,1,0,f,0.6517844600602984,0,771.941579957027,,,,,,,,,,,,,,,,,,,,,,,,,,,,,,,,,,,,,,,,,,,,,,,,,,,,,,,95949,2022-11-16_14h31.02.361,vts_reward_expectancy_bt_OFFLINE,2022.2.4,60.095062409638274,
,,,,,,,,,,,,,,,,,,0,0,0,0,6,0,6,0,,,,,,,,,,,,,,,,,,,,,,,,,,,,,,,,,,,,,,,,,,,,,,,,780.36749331397,,,U,174,star,0.0014825549442321062,774.4284225588199,775.929447648814,775.929447648814,775.929447648814,1,0,f,2.910174841992557,0,778.8660099939443,,,,,,,,,,,,,,,,,,,,,,,,,,,,,,,,,,,,,,,,,,,,,,,,,,,,,,,95949,2022-11-16_14h31.02.361,vts_reward_expectancy_bt_OFFLINE,2022.2.4,60.095062409638274,
,,,,,,,,,,,,,,,,,,0,0,0,0,7,0,7,0,,,,,,,,,,,,,,,,,,,,,,,,,,,,,,,,,,,,,,,,,,,,,,,,785.4898383708205,,,H,167,triangle,0.0014636870473623276,781.3522969849873,782.85375074693,782.85375074693,782.85375074693,1,0,d,1.1039217251818627,0,783.9882004240062,,,,,,,,,,,,,,,,,,,,,,,,,,,,,,,,,,,,,,,,,,,,,,,,,,,,,,,95949,2022-11-16_14h31.02.361,vts_reward_expectancy_bt_OFFLINE,2022.2.4,60.095062409638274,
,,,,,,,,,,,,,,,,,,0,0,0,0,8,0,8,0,,,,,,,,,,,,,,,,,,,,,,,,,,,,,,,,,,,,,,,,,,,,,,,,790.8456466898788,,,F,132,circle,0.001129145035520196,786.4742452439386,787.9758779748809,787.9758779748809,787.9758779748809,1,0,d,1.3374809389933944,0,789.3440338019282,790.8456466898788,,,,,,,,,,,,,,,,,,,,,,,,,,,,,,,,,,,,,,,,,,,,,,,,,,,,,,95949,2022-11-16_14h31.02.361,vts_reward_expectancy_bt_OFFLINE,2022.2.4,60.095062409638274,
,,,,,,,,,,,,,,,,,,0,0,0,0,9,0,9,0,,,,,,,,,,,,,,,,,,,,,,,,,,,,,,,,,,,,,,,,,,,,,,,,795.5844142939895,,,W,146,triangle,0.0010229640174657106,791.8302105849143,793.3318248838186,793.3318248838186,793.3318248838186,1,0,f,0.729515525046736,0,794.0826227599755,,,,,,,,,,,,,,,,,,,,,,,,,,,,,,,,,,,,,,,,,,,,,,,,,,,,,,,95949,2022-11-16_14h31.02.361,vts_reward_expectancy_bt_OFFLINE,2022.2.4,60.095062409638274,
,,,,,,,,,,,,,,,,,,,,,,,,,,0,0,0,0,0,0,0,0,,,,,,,,,,,,,,,,,,,,,,,,,,,,,,,,,,,,,,,,816.757696183864,,,Y,174,hexagon,0.0021293440368026495,,,,,1,0,,,1,815.256132670911,,812.436521329917,813.9378606388345,813.9378606388345,813.9378606388345,k,1.28607530426234,,,,,,,,,,,,,,,,,,,,,,,,,,,,,,,,,,,,,,,,,,,,,,,,95949,2022-11-16_14h31.02.361,vts_reward_expectancy_bt_OFFLINE,2022.2.4,60.095062409638274,
,,,,,,,,,,,,,,,,,,,,,,,,,,0,0,0,0,1,0,1,0,,,,,,,,,,,,,,,,,,,,,,,,,,,,,,,,,,,,,,,,821.1959360470064,,,U,125,circle,0.0009099249728024006,,,,,1,0,,,1,819.6944582420401,,817.7422190869693,819.2437252069358,819.2437252069358,819.2437252069358,j,0.4246524260379374,,,,,,,,,,,,,,,,,,,,,,,,,,,,,,,,,,,,,,,,,,,,,,,,95949,2022-11-16_14h31.02.361,vts_reward_expectancy_bt_OFFLINE,2022.2.4,60.095062409638274,
,,,,,,,,,,,,,,,,,,,,,,,,,,0,0,0,0,2,0,2,0,,,,,,,,,,,,,,,,,,,,,,,,,,,,,,,,,,,,,,,,825.6841977338772,,,B,181,star,0.0010046011302620173,,,,,1,0,,,1,824.1826226708945,,822.1803655889817,823.6820526099764,823.6820526099764,823.6820526099764,k,0.47486727917566895,,,,,,,,,,,,,,,,,,,,,,,,,,,,,,,,,,,,,,,,,,,,,,,,95949,2022-11-16_14h31.02.361,vts_reward_expectancy_bt_OFFLINE,2022.2.4,60.095062409638274,
,,,,,,,,,,,,,,,,,,,,,,,,,,0,0,0,0,3,0,3,0,,,,,,,,,,,,,,,,,,,,,,,,,,,,,,,,,,,,,,,,830.6732371109538,,,W,132,triangle,0.001239812932908535,,,,,1,0,,,1,829.1714948208537,,826.6688397659454,828.170416038949,828.170416038949,828.170416038949,j,0.9715924609918147,,,,,,,,,,,,,,,,,,,,,,,,,,,,,,,,,,,,,,,,,,,,,,,,95949,2022-11-16_14h31.02.361,vts_reward_expectancy_bt_OFFLINE,2022.2.4,60.095062409638274,
,,,,,,,,,,,,,,,,,,,,,,,,,,0,0,0,0,4,0,4,0,,,,,,,,,,,,,,,,,,,,,,,,,,,,,,,,,,,,,,,,835.6619299398735,,,H,146,circle,0.0012669621501117945,,,,,1,0,,,1,834.1603495699819,,831.6576818670146,833.1590343639255,833.1590343639255,833.1590343639255,j,0.9776057992130518,,,,,,,,,,,,,,,,,,,,,,,,,,,,,,,,,,,,,,,,,,,,,,,,95949,2022-11-16_14h31.02.361,vts_reward_expectancy_bt_OFFLINE,2022.2.4,60.095062409638274,
,,,,,,,,,,,,,,,,,,,,,,,,,,0,0,0,0,5,0,5,0,,,,,,,,,,,,,,,,,,,,,,,,,,,,,,,,,,,,,,,,841.1681854049675,,,S,160,triangle,0.0012956839054822922,,,,,1,0,,,1,839.66625732393,,836.6462368660141,838.1480419388972,838.1480419388972,838.1480419388972,k,1.4914785660803318,,,,,,,,,,,,,,,,,,,,,,,,,,,,,,,,,,,,,,,,,,,,,,,,95949,2022-11-16_14h31.02.361,vts_reward_expectancy_bt_OFFLINE,2022.2.4,60.095062409638274,
,,,,,,,,,,,,,,,,,,,,,,,,,,0,0,0,0,6,0,6,0,,,,,,,,,,,,,,,,,,,,,,,,,,,,,,,,,,,,,,,,847.7587269758806,,,F,167,hexagon,0.0013568520080298185,,,,,1,0,,,1,846.2568946199026,,842.1523514490109,843.6538852020167,843.6538852020167,843.6538852020167,k,2.5782067691907287,,,,,,,,,,,,,,,,,,,,,,,,,,,,,,,,,,,,,,,,,,,,,,,,95949,2022-11-16_14h31.02.361,vts_reward_expectancy_bt_OFFLINE,2022.2.4,60.095062409638274,
,,,,,,,,,,,,,,,,,,,,,,,,,,0,0,0,0,7,0,7,0,,,,,,,,,,,,,,,,,,,,,,,,,,,,,,,,,,,,,,,,853.6319014788605,,,D,139,star,0.0013086660765111446,,,,,1,0,,,1,852.1299599469639,,848.7428693899419,850.2448431188241,850.2448431188241,850.2448431188241,j,1.8590242159552872,,,,,,,,,,,,,,,,,,,,,,,,,,,,,,,,,,,,,,,,,,,,,,,,95949,2022-11-16_14h31.02.361,vts_reward_expectancy_bt_OFFLINE,2022.2.4,60.095062409638274,
,,,,,,,,,,,,,,,,,,,,,,,,,,0,0,0,0,8,0,8,0,,,,,,,,,,,,,,,,,,,,,,,,,,,,,,,,,,,,,,,,859.4215598148294,,,Y,174,triangle,0.0015037939883768559,,,,,1,0,,,1,857.9196912159678,,854.6160668260418,856.1177020168398,856.1177020168398,856.1177020168398,k,1.7699911440722644,,,,,,,,,,,,,,,,,,,,,,,,,,,,,,,,,,,,,,,,,,,,,,,,95949,2022-11-16_14h31.02.361,vts_reward_expectancy_bt_OFFLINE,2022.2.4,60.095062409638274,
,,,,,,,,,,,,,,,,,,,,,,,,,,0,0,0,0,9,0,9,0,,,,,,,,,,,,,,,,,,,,,,,,,,,,,,,,,,,,,,,,864.3936535760295,,,U,125,star,0.0012709449511021376,,,,,1,0,,,1,862.8918226859532,,860.406103458954,861.907432443928,861.907432443928,861.907432443928,j,0.9523611180484295,,,,,,,,,,,,,,,,,,,,,,,,,,,,,,,,,,,,,,,,,,,,,,,,95949,2022-11-16_14h31.02.361,vts_reward_expectancy_bt_OFFLINE,2022.2.4,60.095062409638274,
,,,,,,,,,,,,,,,,,,,,,,,,,,,,,,,,,,0,0,0,0,0,0,0,0,,,,,,,,,,,,,,,,,,,,,,,,,,,,0,891,,,877.2411845589522,,,D,139,triangle,0.0020737522281706333,,,,,-1,0,,,2,,,,,,,,,871.2345204039011,871.2345204039011,871.2345204039011,871.2345204039011,872.7194839748554,872.7194839748554,872.7194839748554,872.7194839748554,872.7362365159206,872.7362365159206,872.7362365159206,872.7362365159206,875.7394224219024,875.7394224219024,875.7394224219024,875.7394224219024,-1,no_choice,NA,None,vtsPrac,875.7394224219024,,,,,,,,,,,,,,,,,,,,,,,,,,95949,2022-11-16_14h31.02.361,vts_reward_expectancy_bt_OFFLINE,2022.2.4,60.095062409638274,
,,,,,,,,,,,,,,,,,,,,,,,,,,,,,,,,,,0,0,0,0,1,0,1,0,,,,,,,,,,,,,,,,,,,,,,,,,,,,0,891,,,882.9476028319914,,,W,132,star,0.009688063059002161,,,,,1,0,,,2,,,,,,,,,878.2420977118891,878.2420977118891,878.2420977118891,878.2420977118891,879.7271702119615,879.7271702119615,879.7271702119615,879.7271702119615,879.7438143589534,879.7438143589534,879.7438143589534,879.7438143589534,,,,,switch,letter,lettSwt,f,vtsPrac,881.4457263369113,1.68661278905347,882.9476028319914,,,,,,,,,,,,,,,,,,,,,,,,95949,2022-11-16_14h31.02.361,vts_reward_expectancy_bt_OFFLINE,2022.2.4,60.095062409638274,
,,,,,,,,,,,,,,,,,,,,,,,,,,,,,,,,,,0,0,0,0,2,0,2,0,,,,,,,,,,,,,,,,,,,,,,,,,,,,0,891,,,889.1708684908226,,,S,181,circle,0.0011872670147567987,,,,,0,0,,,2,,,,,,,,,883.9317509948742,883.9317509948742,883.9317509948742,883.9317509948742,885.4334629108198,885.4334629108198,885.4334629108198,885.4334629108198,885.4334629108198,885.4334629108198,885.4334629108198,885.4334629108198,,,,,repeat,letter,NA,d,vtsPrac,887.6859236289747,2.2117848570924252,,,,,,,,,,,,,,,,,,,,,,,,,95949,2022-11-16_14h31.02.361,vts_reward_expectancy_bt_OFFLINE,2022.2.4,60.095062409638274,
,,,,,,,,,,,,,,,,,,,,,,,,,,,,,,,,,,0,0,0,0,3,0,3,0,,,,,,,,,,,,,,,,,,,,,,,,,,,,0,891,,,894.2097201850265,,,B,125,hexagon,0.0014657832216471434,,,,,1,1,,,2,,,,,,,,,890.1557229820173,890.1557229820173,890.1557229820173,890.1557229820173,891.6569553818554,891.6569553818554,891.6569553818554,891.6569553818554,891.6569553818554,891.6569553818554,891.6569553818554,891.6569553818554,,,,,repeat,letter,lettRpt,d,vtsPrac,892.7099858550355,1.0284927431493998,894.2097201850265,,,,,,,,,,,,,,,,,,,,,,,,95949,2022-11-16_14h31.02.361,vts_reward_expectancy_bt_OFFLINE,2022.2.4,60.095062409638274,
,,,,,,,,,,,,,,,,,,,,,,,,,,,,,,,,,,0,0,0,0,4,0,4,0,,,,,,,,,,,,,,,,,,,,,,,,,,,,0,891,,,899.2487143150065,,,D,139,hexagon,0.001321063144132495,,,,,1,0,,,2,,,,,,,,,895.1942026859615,895.1942026859615,895.1942026859615,895.1942026859615,896.6959232019726,896.6959232019726,896.6959232019726,896.6959232019726,896.6959232019726,896.6959232019726,896.6959232019726,896.6959232019726,,,,,repeat,letter,lettRpt,d,vtsPrac,897.7471207999624,1.0188566292636096,899.2487143150065,,,,,,,,,,,,,,,,,,,,,,,,95949,2022-11-16_14h31.02.361,vts_reward_expectancy_bt_OFFLINE,2022.2.4,60.095062409638274,
,,,,,,,,,,,,,,,,,,,,,,,,,,,,,,,,,,0,0,0,0,5,0,5,0,,,,,,,,,,,,,,,,,,,,,,,,,,,,0,891,,,904.4043626450002,,,W,132,triangle,0.0010619319509714842,,,,,1,0,,,2,,,,,,,,,900.2334504539613,900.2334504539613,900.2334504539613,900.2334504539613,901.7349802048411,901.7349802048411,901.7349802048411,901.7349802048411,901.7349802048411,901.7349802048411,901.7349802048411,901.7349802048411,,,,,repeat,letter,lettRpt,f,vtsPrac,902.902846419951,1.1215650350786746,,,,,,,,,,,,,,,,,,,,,,,,,95949,2022-11-16_14h31.02.361,vts_reward_expectancy_bt_OFFLINE,2022.2.4,60.095062409638274,
,,,,,,,,,,,,,,,,,,,,,,,,,,,,,,,,,,0,0,0,0,6,0,6,0,,,,,,,,,,,,,,,,,,,,,,,,,,,,0,891,,,909.5434502400458,,,S,181,circle,0.017327853944152594,,,,,1,0,,,2,,,,,,,,,905.3890413858462,905.3890413858462,905.3890413858462,905.3890413858462,906.873911843868,906.873911843868,906.873911843868,906.873911843868,906.8904347398784,906.8904347398784,906.8904347398784,906.8904347398784,,,,,switch,number,numSwt,k,vtsPrac,908.0420112598222,1.1245875100139529,,,,,,,,,,,,,,,,,,,,,,,,,95949,2022-11-16_14h31.02.361,vts_reward_expectancy_bt_OFFLINE,2022.2.4,60.095062409638274,
,,,,,,,,,,,,,,,,,,,,,,,,,,,,,,,,,,0,0,0,0,7,0,7,0,,,,,,,,,,,,,,,,,,,,,,,,,,,,0,891,,,914.3821776448749,,,B,125,hexagon,0.0006230759900063276,,,,,1,0,,,2,,,,,,,,,910.5112935919315,910.5112935919315,910.5112935919315,910.5112935919315,912.0128324020188,912.0128324020188,912.0128324020188,912.0128324020188,912.0128324020188,912.0128324020188,912.0128324020188,912.0128324020188,,,,,repeat,number,numRpt,j,vtsPrac,912.8971816319972,0.8459876461420208,,,,,,,,,,,,,,,,,,,,,,,,,95949,2022-11-16_14h31.02.361,vts_reward_expectancy_bt_OFFLINE,2022.2.4,60.095062409638274,
,,,,,,,,,,,,,,,,,,,,,,,,,,,,,,,,,,0,0,0,0,8,0,8,0,,,,,,,,,,,,,,,,,,,,,,,,,,,,0,891,,,919.4041182999499,,,W,160,star,0.0011206890922039747,,,,,1,0,,,2,,,,,,,,,915.3665004209615,915.3665004209615,915.3665004209615,915.3665004209615,916.8680446108337,916.8680446108337,916.8680446108337,916.8680446108337,916.8680446108337,916.8680446108337,916.8680446108337,916.8680446108337,,,,,switch,letter,lettSwt,f,vtsPrac,917.9026779888663,1.0099371392279863,,,,,,,,,,,,,,,,,,,,,,,,,95949,2022-11-16_14h31.02.361,vts_reward_expectancy_bt_OFFLINE,2022.2.4,60.095062409638274,
,,,,,,,,,,,,,,,,,,,,,,,,,,,,,,,,,,0,0,0,0,9,0,9,0,,,,,,,,,,,,,,,,,,,,,,,,,,,,0,891,,,924.0259449549485,,,S,139,hexagon,0.0013856159057468176,,,,,1,0,,,2,,,,,,,,,920.388551523909,920.388551523909,920.388551523909,920.388551523909,921.8902274188586,921.8902274188586,921.8902274188586,921.8902274188586,921.8902274188586,921.8902274188586,921.8902274188586,921.8902274188586,,,,,switch,number,numSwt,j,vtsPrac,922.5242622499354,0.60140321101062,,,,,,,,,,,,,,,,,,,,,,,,,95949,2022-11-16_14h31.02.361,vts_reward_expectancy_bt_OFFLINE,2022.2.4,60.095062409638274,
,,,,,,,,,,,,,,,,,,,,,,,,,,,,,,,,,,0,0,0,0,10,0,10,0,,,,,,,,,,,,,,,,,,,,,,,,,,,,0,891,,,928.814687120961,,,H,146,star,0.0011680598836392164,,,,,1,0,,,2,,,,,,,,,925.0104722250253,925.0104722250253,925.0104722250253,925.0104722250253,926.5122851638589,926.5122851638589,926.5122851638589,926.5122851638589,926.5122851638589,926.5122851638589,926.5122851638589,926.5122851638589,,,,,repeat,number,numRpt,j,vtsPrac,927.3129837689921,0.7822446199133992,,,,,,,,,,,,,,,,,,,,,,,,,95949,2022-11-16_14h31.02.361,vts_reward_expectancy_bt_OFFLINE,2022.2.4,60.095062409638274,
,,,,,,,,,,,,,,,,,,,,,,,,,,,,,,,,,,0,0,0,0,11,0,11,0,,,,,,,,,,,,,,,,,,,,,,,,,,,,0,891,,,933.4866228599567,,,Y,125,hexagon,0.0011097299866378307,,,,,1,0,,,2,,,,,,,,,929.7990208538249,929.7990208538249,929.7990208538249,929.7990208538249,931.3007996450178,931.3007996450178,931.3007996450178,931.3007996450178,931.3007996450178,931.3007996450178,931.3007996450178,931.3007996450178,,,,,repeat,number,numRpt,j,vtsPrac,931.9848178790417,0.6619333859998733,933.4866228599567,,,,,,,,,,,,,,,,,,,,,,,,95949,2022-11-16_14h31.02.361,vts_reward_expectancy_bt_OFFLINE,2022.2.4,60.095062409638274,
,,,,,,,,,,,,,,,,,,,,,,,,,,,,,,,,,,0,0,0,0,12,0,12,0,,,,,,,,,,,,,,,,,,,,,,,,,,,,0,891,,,937.9748919389676,,,D,167,circle,0.0010151499882340431,,,,,1,0,,,2,,,,,,,,,934.4708798220381,934.4708798220381,934.4708798220381,934.4708798220381,935.972597515909,935.972597515909,935.972597515909,935.972597515909,935.972597515909,935.972597515909,935.972597515909,935.972597515909,,,,,repeat,number,numRpt,k,vtsPrac,936.4730682489462,0.47958275000564754,,,,,,,,,,,,,,,,,,,,,,,,,95949,2022-11-16_14h31.02.361,vts_reward_expectancy_bt_OFFLINE,2022.2.4,60.095062409638274,
,,,,,,,,,,,,,,,,,,,,,,,,,,,,,,,,,,0,0,0,0,13,0,13,0,,,,,,,,,,,,,,,,,,,,,,,,,,,,0,891,,,942.4629827258177,,,S,174,star,0.0010442519560456276,,,,,1,0,,,2,,,,,,,,,938.9593842120375,938.9593842120375,938.9593842120375,938.9593842120375,940.4609386459924,940.4609386459924,940.4609386459924,940.4609386459924,940.4609386459924,940.4609386459924,940.4609386459924,940.4609386459924,,,,,repeat,number,numRpt,k,vtsPrac,940.9613607048523,0.46838313806802034,,,,,,,,,,,,,,,,,,,,,,,,,95949,2022-11-16_14h31.02.361,vts_reward_expectancy_bt_OFFLINE,2022.2.4,60.095062409638274,
,,,,,,,,,,,,,,,,,,,,,,,,,,,,,,,,,,0,0,0,0,14,0,14,0,,,,,,,,,,,,,,,,,,,,,,,,,,,,0,891,,,946.9014405170456,,,W,139,triangle,0.0009140500333160162,,,,,1,0,,,2,,,,,,,,,943.4475747139659,943.4475747139659,943.4475747139659,943.4475747139659,944.9489802289754,944.9489802289754,944.9489802289754,944.9489802289754,944.9489802289754,944.9489802289754,944.9489802289754,944.9489802289754,,,,,repeat,number,numRpt,j,vtsPrac,945.3995501368772,0.424716223962605,,,,,,,,,,,,,,,,,,,,,,,,,95949,2022-11-16_14h31.02.361,vts_reward_expectancy_bt_OFFLINE,2022.2.4,60.095062409638274,
,,,,,,,,,,,,,,,,,,,,,,,,,,,,,,,,,,0,0,0,0,15,0,15,0,,,,,,,,,,,,,,,,,,,,,,,,,,,,0,891,,,951.589831431862,,,Y,132,star,0.0012013721279799938,,,,,1,0,,,2,,,,,,,,,947.8858906859532,947.8858906859532,947.8858906859532,947.8858906859532,949.3873264540453,949.3873264540453,949.3873264540453,949.3873264540453,949.3873264540453,949.3873264540453,949.3873264540453,949.3873264540453,,,,,repeat,number,numRpt,j,vtsPrac,950.0880620819516,0.6773942459840328,951.589831431862,,,,,,,,,,,,,,,,,,,,,,,,95949,2022-11-16_14h31.02.361,vts_reward_expectancy_bt_OFFLINE,2022.2.4,60.095062409638274,
,,,,,,,,,,,,,,,,,,,,,,,,,,,,,,,,,,0,0,0,0,16,0,16,0,,,,,,,,,,,,,,,,,,,,,,,,,,,,0,891,,,956.6287801258732,,,W,139,hexagon,0.0010688330512493849,,,,,1,0,,,2,,,,,,,,,952.5742819060106,952.5742819060106,952.5742819060106,952.5742819060106,954.0758858788759,954.0758858788759,954.0758858788759,954.0758858788759,954.0758858788759,954.0758858788759,954.0758858788759,954.0758858788759,,,,,repeat,number,numRpt,j,vtsPrac,955.1270191168878,1.0290968080516905,,,,,,,,,,,,,,,,,,,,,,,,,95949,2022-11-16_14h31.02.361,vts_reward_expectancy_bt_OFFLINE,2022.2.4,60.095062409638274,
,,,,,,,,,,,,,,,,,,,,,,,,,,,,,,,,,,0,0,0,0,17,0,17,0,,,,,,,,,,,,,,,,,,,,,,,,,,,,0,891,,,961.8343719299883,,,F,167,triangle,0.0014124240260571241,,,,,1,0,,,2,,,,,,,,,957.6130755208433,957.6130755208433,957.6130755208433,957.6130755208433,959.1147556989454,959.1147556989454,959.1147556989454,959.1147556989454,959.1147556989454,959.1147556989454,959.1147556989454,959.1147556989454,,,,,repeat,number,numRpt,k,vtsPrac,960.3326660019811,1.188452938105911,,,,,,,,,,,,,,,,,,,,,,,,,95949,2022-11-16_14h31.02.361,vts_reward_expectancy_bt_OFFLINE,2022.2.4,60.095062409638274,
,,,,,,,,,,,,,,,,,,,,,,,,,,,,,,,,,,0,0,0,0,18,0,18,0,,,,,,,,,,,,,,,,,,,,,,,,,,,,0,891,,,966.5395501959138,,,S,174,hexagon,0.0014054349157959223,,,,,1,0,,,2,,,,,,,,,962.8188960158732,962.8188960158732,962.8188960158732,962.8188960158732,964.3205581300426,964.3205581300426,964.3205581300426,964.3205581300426,964.3205581300426,964.3205581300426,964.3205581300426,964.3205581300426,,,,,repeat,number,numRpt,k,vtsPrac,965.0381175968796,0.6853907611221075,,,,,,,,,,,,,,,,,,,,,,,,,95949,2022-11-16_14h31.02.361,vts_reward_expectancy_bt_OFFLINE,2022.2.4,60.095062409638274,
,,,,,,,,,,,,,,,,,,,,,,,,,,,,,,,,,,0,0,0,0,19,0,19,0,,,,,,,,,,,,,,,,,,,,,,,,,,,,0,891,,,971.1278621759266,,,B,125,circle,0.0009969400707632303,,,,,1,0,,,2,,,,,,,,,967.5242447538767,967.5242447538767,967.5242447538767,967.5242447538767,969.0257238638587,969.0257238638587,969.0257238638587,969.0257238638587,969.0257238638587,969.0257238638587,969.0257238638587,969.0257238638587,,,,,repeat,number,numRpt,j,vtsPrac,969.6269493538421,0.5840723561123013,971.1278621759266,,,,,,,,,,,,,,,,,,,,,,,,95949,2022-11-16_14h31.02.361,vts_reward_expectancy_bt_OFFLINE,2022.2.4,60.095062409638274,
,,,,,,,,,,,,,,,,,,,,,,,,,,,,,,,,,,0,0,0,0,20,0,20,0,,,,,,,,,,,,,,,,,,,,,,,,,,,,0,891,,,975.8667392488569,,,S,139,star,0.0006008059717714787,,,,,1,0,,,2,,,,,,,,,972.1123654160183,972.1123654160183,972.1123654160183,972.1123654160183,973.6141722749453,973.6141722749453,973.6141722749453,973.6141722749453,973.6141722749453,973.6141722749453,973.6141722749453,973.6141722749453,,,,,repeat,number,numRpt,j,vtsPrac,974.3648540438153,0.7299682970624417,,,,,,,,,,,,,,,,,,,,,,,,,95949,2022-11-16_14h31.02.361,vts_reward_expectancy_bt_OFFLINE,2022.2.4,60.095062409638274,
,,,,,,,,,,,,,,,,,,,,,,,,,,,,,,,,,,0,0,0,0,21,0,21,0,,,,,,,,,,,,,,,,,,,,,,,,,,,,0,891,,,980.5884109868202,,,W,160,triangle,0.0013858519960194826,,,,,1,0,,,2,,,,,,,,,976.8508572520223,976.8508572520223,976.8508572520223,976.8508572520223,978.3525623369496,978.3525623369496,978.3525623369496,978.3525623369496,978.3525623369496,978.3525623369496,978.3525623369496,978.3525623369496,,,,,repeat,number,numRpt,k,vtsPrac,979.0868190519977,0.7073840131051838,,,,,,,,,,,,,,,,,,,,,,,,,95949,2022-11-16_14h31.02.361,vts_reward_expectancy_bt_OFFLINE,2022.2.4,60.095062409638274,
,,,,,,,,,,,,,,,,,,,,,,,,,,,,,,,,,,0,0,0,0,22,0,22,0,,,,,,,,,,,,,,,,,,,,,,,,,,,,0,891,,,985.1768058168236,,,F,167,triangle,0.0012700469233095646,,,,,1,0,,,2,,,,,,,,,981.573057304835,981.573057304835,981.573057304835,981.573057304835,983.0745058669709,983.0745058669709,983.0745058669709,983.0745058669709,983.0745058669709,983.0745058669709,983.0745058669709,983.0745058669709,,,,,repeat,number,numRpt,k,vtsPrac,983.6750501289498,0.5740832420997322,,,,,,,,,,,,,,,,,,,,,,,,,95949,2022-11-16_14h31.02.361,vts_reward_expectancy_bt_OFFLINE,2022.2.4,60.095062409638274,
,,,,,,,,,,,,,,,,,,,,,,,,,,,,,,,,,,0,0,0,0,23,0,23,0,,,,,,,,,,,,,,,,,,,,,,,,,,,,0,891,,,989.7819461249746,,,Y,181,hexagon,0.0011362461373209953,,,,,1,0,,,2,,,,,,,,,986.1613045248669,986.1613045248669,986.1613045248669,986.1613045248669,987.6627262169495,987.6627262169495,987.6627262169495,987.6627262169495,987.6627262169495,987.6627262169495,987.6627262169495,987.6627262169495,,,,,repeat,number,numRpt,k,vtsPrac,988.2803385339212,0.587765108095482,,,,,,,,,,,,,,,,,,,,,,,,,95949,2022-11-16_14h31.02.361,vts_reward_expectancy_bt_OFFLINE,2022.2.4,60.095062409638274,
,,,,,,,,,,,,,,,,,,,,,,,,,,,,,,,,,,0,0,0,0,24,0,24,0,,,,,,,,,,,,,,,,,,,,,,,,,,,,0,891,,,994.2868695689831,,,W,167,hexagon,0.001202492043375969,,,,,1,0,,,2,,,,,,,,,990.7662433239166,990.7662433239166,990.7662433239166,990.7662433239166,992.2679205508903,992.2679205508903,992.2679205508903,992.2679205508903,992.2679205508903,992.2679205508903,992.2679205508903,992.2679205508903,,,,,repeat,number,numRpt,k,vtsPrac,992.7853285248857,0.4939549493137747,,,,,,,,,,,,,,,,,,,,,,,,,95949,2022-11-16_14h31.02.361,vts_reward_expectancy_bt_OFFLINE,2022.2.4,60.095062409638274,
,,,,,,,,,,,,,,,,,,,,,,,,,,,,,,,,,,0,0,0,0,25,0,25,0,,,,,,,,,,,,,,,,,,,,,,,,,,,,0,891,,,999.0087205169257,,,D,139,circle,0.0011314570438116789,,,,,1,0,,,2,,,,,,,,,995.2712796488777,995.2712796488777,995.2712796488777,995.2712796488777,996.7730389139615,996.7730389139615,996.7730389139615,996.7730389139615,996.7730389139615,996.7730389139615,996.7730389139615,996.7730389139615,,,,,repeat,number,numRpt,j,vtsPrac,997.5071445249487,0.7029777320567518,999.0087205169257,,,,,,,,,,,,,,,,,,,,,,,,95949,2022-11-16_14h31.02.361,vts_reward_expectancy_bt_OFFLINE,2022.2.4,60.095062409638274,
,,,,,,,,,,,,,,,,,,,,,,,,,,,,,,,,,,0,0,0,0,26,0,26,0,,,,,,,,,,,,,,,,,,,,,,,,,,,,0,891,,,1003.613929180894,,,Y,125,star,0.000612687086686492,,,,,1,0,,,2,,,,,,,,,999.9933324868325,999.9933324868325,999.9933324868325,999.9933324868325,1001.4951173998415,1001.4951173998415,1001.4951173998415,1001.4951173998415,1001.4951173998415,1001.4951173998415,1001.4951173998415,1001.4951173998415,,,,,repeat,number,numRpt,j,vtsPrac,1002.1122719519772,0.5938636441715062,,,,,,,,,,,,,,,,,,,,,,,,,95949,2022-11-16_14h31.02.361,vts_reward_expectancy_bt_OFFLINE,2022.2.4,60.095062409638274,
,,,,,,,,,,,,,,,,,,,,,,,,,,,,,,,,,,0,0,0,0,27,0,27,0,,,,,,,,,,,,,,,,,,,,,,,,,,,,0,891,,,1008.1857422618195,,,F,132,triangle,0.0011933809146285057,,,,,1,0,,,2,,,,,,,,,1004.5982991219498,1004.5982991219498,1004.5982991219498,1004.5982991219498,1006.1000274498947,1006.1000274498947,1006.1000274498947,1006.1000274498947,1006.1000274498947,1006.1000274498947,1006.1000274498947,1006.1000274498947,,,,,repeat,number,numRpt,j,vtsPrac,1006.6837575868703,0.5573135421145707,,,,,,,,,,,,,,,,,,,,,,,,,95949,2022-11-16_14h31.02.361,vts_reward_expectancy_bt_OFFLINE,2022.2.4,60.095062409638274,
,,,,,,,,,,,,,,,,,,,,,,,,,,,,,,,,,,0,0,0,0,28,0,28,0,,,,,,,,,,,,,,,,,,,,,,,,,,,,0,891,,,1012.8239134449977,,,D,125,star,0.0012886968906968832,,,,,1,0,,,2,,,,,,,,,1009.1701970298309,1009.1701970298309,1009.1701970298309,1009.1701970298309,1010.6716573168524,1010.6716573168524,1010.6716573168524,1010.6716573168524,1010.6716573168524,1010.6716573168524,1010.6716573168524,1010.6716573168524,,,,,repeat,number,numRpt,j,vtsPrac,1011.3223842449952,0.6204308429732919,1012.8239134449977,,,,,,,,,,,,,,,,,,,,,,,,95949,2022-11-16_14h31.02.361,vts_reward_expectancy_bt_OFFLINE,2022.2.4,60.095062409638274,
