LTriangleOpac,LCircleOpac,LHexagonOpac,LStarOpac,RTriangleOpac,RCircleOpac,RHexagonOpac,RStarOpac,LShape_ID,RShape_ID,training_blocks.thisRepN,training_blocks.thisTrialN,training_blocks.thisN,training_blocks.thisIndex,training.thisRepN,training.thisTrialN,training.thisN,training.thisIndex,task1_prac_redo.thisRepN,task1_prac_redo.thisTrialN,task1_prac_redo.thisN,task1_prac_redo.thisIndex,task1_prac_trials.thisRepN,task1_prac_trials.thisTrialN,task1_prac_trials.thisN,task1_prac_trials.thisIndex,task2_prac_redo.thisRepN,task2_prac_redo.thisTrialN,task2_prac_redo.thisN,task2_prac_redo.thisIndex,task2_praac_trials.thisRepN,task2_praac_trials.thisTrialN,task2_praac_trials.thisN,task2_praac_trials.thisIndex,vts_prac_redo.thisRepN,vts_prac_redo.thisTrialN,vts_prac_redo.thisN,vts_prac_redo.thisIndex,vts_practice_trials.thisRepN,vts_practice_trials.thisTrialN,vts_practice_trials.thisN,vts_practice_trials.thisIndex,trials_norew.thisRepN,trials_norew.thisTrialN,trials_norew.thisN,trials_norew.thisIndex,block.thisRepN,block.thisTrialN,block.thisN,block.thisIndex,trials_rew.thisRepN,trials_rew.thisTrialN,trials_rew.thisN,trials_rew.thisIndex,key_resp.started,key_resp.keys,key_resp.rt,left_circle.started,right_circle.started,left_triangle.started,right_triangle.started,left_star.started,right_star.started,left_hexagon.started,right_hexagon.started,training_fix.started,training_resp.started,training_resp.keys,training_resp.rt,points_trial,points_cumul,trainBlock,training_feedback_txt.started,fix.started,training_feedback_txt.stopped,fix.stopped,curr_topStim,curr_bottStim,curr_shape,ISI.started,tgt_fix_prac1.started,top_target_prac1.started,bott_target_prac1.started,target_resp_prac1.started,acc,E1,target_resp_prac1.keys,target_resp_prac1.rt,pracBlock,prac_fback_text.started,prac_fback_text.stopped,tgt_fix_prac2.started,top_target_prac2.started,bott_target_prac2.started,target_resp_prac2.started,target_resp_prac2.keys,target_resp_prac2.rt,star.started,hegagon.started,triangle.started,circle.started,top_target.started,tgt_fix.started,bot_target.started,target_resp.started,star.stopped,hegagon.stopped,triangle.stopped,circle.stopped,alt,task,condition,target_resp.keys,target_resp.rt,rewCond,vts_fback.started,vts_fback.stopped,blockNum,norew_fback.started,norew_fback.stopped,key_resp_2.keys,key_resp_2.rt,rewExpectancy,feedbk_text.started,feedbk_text.stopped,top_target.stopped,tgt_fix.stopped,bot_target.stopped,target_resp.stopped,text_3.started,text_3.stopped,button.started,debrief.index,debrief.itemText,debrief.type,debrief.granularity,debrief.font,debrief.markerColor,debrief.response,debrief.rt,button.numClicks,button.timesOn,button.timesOff,participant,date,expName,psychopyVersion,frameRate,
,,,,,,,,,,,,,,,,,,,,,,,,,,,,,,,,,,,,,,,,,,,,,,,,,,,,,,309.117227263996,space,17.658100541011663,,,,,,,,,,,,,,,,,,,,,,,,,,,,,,,,,,,,,,,,,,,,,,,,,,,,,,,,,,,,,,,,,,,,,,,,,,,,,,,,,,,,,,,96919,2022-10-26_14h33.13.032,vts_reward_expectancy_bt_OFFLINE,2022.2.4,59.741760980456945,
0,0,1,0,0,1,0,0,hexagon,circle,0,0,0,0,0,0,0,7,,,,,,,,,,,,,,,,,,,,,,,,,,,,,,,,,,,,,,,,352.64200662399526,352.64200662399526,352.64200662399526,352.64200662399526,352.64200662399526,352.64200662399526,352.64200662399526,352.64200662399526,352.64200662399526,352.64200662399526,l,1.6536976000061259,1,1,0,354.31438365399663,355.8291135909967,,,,,,,,,,,,,,,,,,,,,,,,,,,,,,,,,,,,,,,,,,,,,,,,,,,,,,,,,,,,,,,,,,,,,,96919,2022-10-26_14h33.13.032,vts_reward_expectancy_bt_OFFLINE,2022.2.4,59.741760980456945,
0,1,0,0,1,0,0,0,circle,triangle,0,0,0,0,0,1,1,3,,,,,,,,,,,,,,,,,,,,,,,,,,,,,,,,,,,,,,,,356.3290743999969,356.3290743999969,356.3290743999969,356.3290743999969,356.3290743999969,356.3290743999969,356.3290743999969,356.3290743999969,356.3290743999969,356.3290743999969,a,1.5825395810097689,1,2,0,357.9317501819896,359.4322488549951,359.4322488549951,,,,,,,,,,,,,,,,,,,,,,,,,,,,,,,,,,,,,,,,,,,,,,,,,,,,,,,,,,,,,,,,,,,,,96919,2022-10-26_14h33.13.032,vts_reward_expectancy_bt_OFFLINE,2022.2.4,59.741760980456945,
0,1,0,0,0,0,0,1,circle,star,0,0,0,0,0,2,2,5,,,,,,,,,,,,,,,,,,,,,,,,,,,,,,,,,,,,,,,,359.9327613179921,359.9327613179921,359.9327613179921,359.9327613179921,359.9327613179921,359.9327613179921,359.9327613179921,359.9327613179921,359.9327613179921,359.9327613179921,a,0.899063313001534,1,3,0,360.8493690309988,362.3528272239928,,,,,,,,,,,,,,,,,,,,,,,,,,,,,,,,,,,,,,,,,,,,,,,,,,,,,,,,,,,,,,,,,,,,,,96919,2022-10-26_14h33.13.032,vts_reward_expectancy_bt_OFFLINE,2022.2.4,59.741760980456945,
0,0,0,1,1,0,0,0,star,triangle,0,0,0,0,0,3,3,9,,,,,,,,,,,,,,,,,,,,,,,,,,,,,,,,,,,,,,,,362.85289413698774,362.85289413698774,362.85289413698774,362.85289413698774,362.85289413698774,362.85289413698774,362.85289413698774,362.85289413698774,362.85289413698774,362.85289413698774,l,1.20243002200732,10,13,0,364.0861488149967,365.58640229499724,365.58640229499724,366.08650478199706,,,,,,,,,,,,,,,,,,,,,,,,,,,,,,,,,,,,,,,,,,,,,,,,,,,,,,,,,,,,,,,,,,,,96919,2022-10-26_14h33.13.032,vts_reward_expectancy_bt_OFFLINE,2022.2.4,59.741760980456945,
1,0,0,0,0,1,0,0,triangle,circle,0,0,0,0,0,4,4,0,,,,,,,,,,,,,,,,,,,,,,,,,,,,,,,,,,,,,,,,366.08650478199706,366.08650478199706,366.08650478199706,366.08650478199706,366.08650478199706,366.08650478199706,366.08650478199706,366.08650478199706,366.08650478199706,366.08650478199706,l,0.7054319810122252,1,14,0,366.82138597899757,368.322850956989,,,,,,,,,,,,,,,,,,,,,,,,,,,,,,,,,,,,,,,,,,,,,,,,,,,,,,,,,,,,,,,,,,,,,,96919,2022-10-26_14h33.13.032,vts_reward_expectancy_bt_OFFLINE,2022.2.4,59.741760980456945,
0,1,0,0,0,0,1,0,circle,hexagon,0,0,0,0,0,5,5,4,,,,,,,,,,,,,,,,,,,,,,,,,,,,,,,,,,,,,,,,368.8233075199969,368.8233075199969,368.8233075199969,368.8233075199969,368.8233075199969,368.8233075199969,368.8233075199969,368.8233075199969,368.8233075199969,368.8233075199969,l,0.767664697006694,10,24,0,369.6234488719929,371.1241113219876,371.1241113219876,371.62421512498986,,,,,,,,,,,,,,,,,,,,,,,,,,,,,,,,,,,,,,,,,,,,,,,,,,,,,,,,,,,,,,,,,,,,96919,2022-10-26_14h33.13.032,vts_reward_expectancy_bt_OFFLINE,2022.2.4,59.741760980456945,
1,0,0,0,0,0,0,1,triangle,star,0,0,0,0,0,6,6,2,,,,,,,,,,,,,,,,,,,,,,,,,,,,,,,,,,,,,,,,371.62421512498986,371.62421512498986,371.62421512498986,371.62421512498986,371.62421512498986,371.62421512498986,371.62421512498986,371.62421512498986,371.62421512498986,371.62421512498986,l,1.0075494839984458,1,25,0,372.6607539999968,374.16080412099836,374.16080412099836,374.6609726079914,,,,,,,,,,,,,,,,,,,,,,,,,,,,,,,,,,,,,,,,,,,,,,,,,,,,,,,,,,,,,,,,,,,,96919,2022-10-26_14h33.13.032,vts_reward_expectancy_bt_OFFLINE,2022.2.4,59.741760980456945,
0,0,1,0,0,0,0,1,hexagon,star,0,0,0,0,0,7,7,8,,,,,,,,,,,,,,,,,,,,,,,,,,,,,,,,,,,,,,,,374.6609726079914,374.6609726079914,374.6609726079914,374.6609726079914,374.6609726079914,374.6609726079914,374.6609726079914,374.6609726079914,374.6609726079914,374.6609726079914,a,1.7707798600022215,10,35,0,376.4624669539917,377.96275117399637,,,,,,,,,,,,,,,,,,,,,,,,,,,,,,,,,,,,,,,,,,,,,,,,,,,,,,,,,,,,,,,,,,,,,,96919,2022-10-26_14h33.13.032,vts_reward_expectancy_bt_OFFLINE,2022.2.4,59.741760980456945,
0,0,0,1,0,1,0,0,star ,circle,0,0,0,0,0,8,8,10,,,,,,,,,,,,,,,,,,,,,,,,,,,,,,,,,,,,,,,,378.4630672939966,378.4630672939966,378.4630672939966,378.4630672939966,378.4630672939966,378.4630672939966,378.4630672939966,378.4630672939966,378.4630672939966,378.4630672939966,a,0.9607518510165391,10,45,0,379.44718759699026,380.9475704859942,380.9475704859942,381.4475303079962,,,,,,,,,,,,,,,,,,,,,,,,,,,,,,,,,,,,,,,,,,,,,,,,,,,,,,,,,,,,,,,,,,,,96919,2022-10-26_14h33.13.032,vts_reward_expectancy_bt_OFFLINE,2022.2.4,59.741760980456945,
0,0,0,1,0,0,1,0,star,hexagon,0,0,0,0,0,9,9,11,,,,,,,,,,,,,,,,,,,,,,,,,,,,,,,,,,,,,,,,381.4475303079962,381.4475303079962,381.4475303079962,381.4475303079962,381.4475303079962,381.4475303079962,381.4475303079962,381.4475303079962,381.4475303079962,381.4475303079962,l,1.4479556230071466,10,55,0,382.91744006599765,384.41811978699116,384.41811978699116,,,,,,,,,,,,,,,,,,,,,,,,,,,,,,,,,,,,,,,,,,,,,,,,,,,,,,,,,,,,,,,,,,,,,96919,2022-10-26_14h33.13.032,vts_reward_expectancy_bt_OFFLINE,2022.2.4,59.741760980456945,
0,0,1,0,1,0,0,0,hexagon,triangle,0,0,0,0,0,10,10,6,,,,,,,,,,,,,,,,,,,,,,,,,,,,,,,,,,,,,,,,384.9183484929963,384.9183484929963,384.9183484929963,384.9183484929963,384.9183484929963,384.9183484929963,384.9183484929963,384.9183484929963,384.9183484929963,384.9183484929963,l,1.7611040910123847,1,56,0,386.70132396499685,388.2039881269884,,,,,,,,,,,,,,,,,,,,,,,,,,,,,,,,,,,,,,,,,,,,,,,,,,,,,,,,,,,,,,,,,,,,,,96919,2022-10-26_14h33.13.032,vts_reward_expectancy_bt_OFFLINE,2022.2.4,59.741760980456945,
1,0,0,0,0,0,1,0,triangle,hexagon,0,0,0,0,0,11,11,1,,,,,,,,,,,,,,,,,,,,,,,,,,,,,,,,,,,,,,,,388.70414721498673,388.70414721498673,388.70414721498673,388.70414721498673,388.70414721498673,388.70414721498673,388.70414721498673,388.70414721498673,388.70414721498673,388.70414721498673,a,0.5115998110122746,10,66,0,389.23877545198775,390.7384430969978,390.7384430969978,391.2386107889906,,,,,,,,,,,,,,,,,,,,,,,,,,,,,,,,,,,,,,,,,,,,,,,,,,,,,,,,,,,,,,,,,,,,96919,2022-10-26_14h33.13.032,vts_reward_expectancy_bt_OFFLINE,2022.2.4,59.741760980456945,
1,0,0,0,0,0,0,1,triangle,star,0,0,0,0,1,0,12,2,,,,,,,,,,,,,,,,,,,,,,,,,,,,,,,,,,,,,,,,391.2386107889906,391.2386107889906,391.2386107889906,391.2386107889906,391.2386107889906,391.2386107889906,391.2386107889906,391.2386107889906,391.2386107889906,391.2386107889906,a,0.328968868998345,10,76,0,391.5888272769953,393.0900984519976,,,,,,,,,,,,,,,,,,,,,,,,,,,,,,,,,,,,,,,,,,,,,,,,,,,,,,,,,,,,,,,,,,,,,,96919,2022-10-26_14h33.13.032,vts_reward_expectancy_bt_OFFLINE,2022.2.4,59.741760980456945,
1,0,0,0,0,1,0,0,triangle,circle,0,0,0,0,1,1,13,0,,,,,,,,,,,,,,,,,,,,,,,,,,,,,,,,,,,,,,,,393.5903891499911,393.5903891499911,393.5903891499911,393.5903891499911,393.5903891499911,393.5903891499911,393.5903891499911,393.5903891499911,393.5903891499911,393.5903891499911,l,1.2808589070045855,10,86,0,394.8907545039983,396.39138121799624,396.39138121799624,396.8916276799864,,,,,,,,,,,,,,,,,,,,,,,,,,,,,,,,,,,,,,,,,,,,,,,,,,,,,,,,,,,,,,,,,,,,96919,2022-10-26_14h33.13.032,vts_reward_expectancy_bt_OFFLINE,2022.2.4,59.741760980456945,
0,0,1,0,1,0,0,0,hexagon,triangle,0,0,0,0,1,2,14,6,,,,,,,,,,,,,,,,,,,,,,,,,,,,,,,,,,,,,,,,396.8916276799864,396.8916276799864,396.8916276799864,396.8916276799864,396.8916276799864,396.8916276799864,396.8916276799864,396.8916276799864,396.8916276799864,396.8916276799864,a,0.9234502670151414,10,96,0,397.8447810779908,399.34498721099226,399.34498721099226,399.84533991898934,,,,,,,,,,,,,,,,,,,,,,,,,,,,,,,,,,,,,,,,,,,,,,,,,,,,,,,,,,,,,,,,,,,,96919,2022-10-26_14h33.13.032,vts_reward_expectancy_bt_OFFLINE,2022.2.4,59.741760980456945,
0,0,1,0,0,1,0,0,hexagon,circle,0,0,0,0,1,3,15,7,,,,,,,,,,,,,,,,,,,,,,,,,,,,,,,,,,,,,,,,399.84533991898934,399.84533991898934,399.84533991898934,399.84533991898934,399.84533991898934,399.84533991898934,399.84533991898934,399.84533991898934,399.84533991898934,399.84533991898934,a,0.7624664690083591,10,106,0,400.6283072899969,402.1351035609987,,,,,,,,,,,,,,,,,,,,,,,,,,,,,,,,,,,,,,,,,,,,,,,,,,,,,,,,,,,,,,,,,,,,,,96919,2022-10-26_14h33.13.032,vts_reward_expectancy_bt_OFFLINE,2022.2.4,59.741760980456945,
0,0,0,1,0,0,1,0,star,hexagon,0,0,0,0,1,4,16,11,,,,,,,,,,,,,,,,,,,,,,,,,,,,,,,,,,,,,,,,402.63188968299073,402.63188968299073,402.63188968299073,402.63188968299073,402.63188968299073,402.63188968299073,402.63188968299073,402.63188968299073,402.63188968299073,402.63188968299073,l,0.97551123201265,10,116,0,403.632431015998,405.1327966869867,405.1327966869867,405.6330034519924,,,,,,,,,,,,,,,,,,,,,,,,,,,,,,,,,,,,,,,,,,,,,,,,,,,,,,,,,,,,,,,,,,,,96919,2022-10-26_14h33.13.032,vts_reward_expectancy_bt_OFFLINE,2022.2.4,59.741760980456945,
0,0,0,1,0,1,0,0,star ,circle,0,0,0,0,1,5,17,10,,,,,,,,,,,,,,,,,,,,,,,,,,,,,,,,,,,,,,,,405.6330034519924,405.6330034519924,405.6330034519924,405.6330034519924,405.6330034519924,405.6330034519924,405.6330034519924,405.6330034519924,405.6330034519924,405.6330034519924,l,0.5339876400103094,10,126,0,406.1987288459932,407.7016714659985,,,,,,,,,,,,,,,,,,,,,,,,,,,,,,,,,,,,,,,,,,,,,,,,,,,,,,,,,,,,,,,,,,,,,,96919,2022-10-26_14h33.13.032,vts_reward_expectancy_bt_OFFLINE,2022.2.4,59.741760980456945,
0,0,0,1,1,0,0,0,star,triangle,0,0,0,0,1,6,18,9,,,,,,,,,,,,,,,,,,,,,,,,,,,,,,,,,,,,,,,,408.20191288199567,408.20191288199567,408.20191288199567,408.20191288199567,408.20191288199567,408.20191288199567,408.20191288199567,408.20191288199567,408.20191288199567,408.20191288199567,a,0.909110173015506,1,127,0,409.13623981499404,410.6357119989989,410.6357119989989,411.1360005479946,,,,,,,,,,,,,,,,,,,,,,,,,,,,,,,,,,,,,,,,,,,,,,,,,,,,,,,,,,,,,,,,,,,,96919,2022-10-26_14h33.13.032,vts_reward_expectancy_bt_OFFLINE,2022.2.4,59.741760980456945,
0,1,0,0,0,0,1,0,circle,hexagon,0,0,0,0,1,7,19,4,,,,,,,,,,,,,,,,,,,,,,,,,,,,,,,,,,,,,,,,411.1360005479946,411.1360005479946,411.1360005479946,411.1360005479946,411.1360005479946,411.1360005479946,411.1360005479946,411.1360005479946,411.1360005479946,411.1360005479946,a,0.8470560740097426,1,128,0,412.00311236598645,413.50483468399034,,,,,,,,,,,,,,,,,,,,,,,,,,,,,,,,,,,,,,,,,,,,,,,,,,,,,,,,,,,,,,,,,,,,,,96919,2022-10-26_14h33.13.032,vts_reward_expectancy_bt_OFFLINE,2022.2.4,59.741760980456945,
0,1,0,0,0,0,0,1,circle,star,0,0,0,0,1,8,20,5,,,,,,,,,,,,,,,,,,,,,,,,,,,,,,,,,,,,,,,,414.00510174699593,414.00510174699593,414.00510174699593,414.00510174699593,414.00510174699593,414.00510174699593,414.00510174699593,414.00510174699593,414.00510174699593,414.00510174699593,l,0.9059429070039187,1,129,0,414.9397552799928,416.44082510098815,416.44082510098815,416.94071040599374,,,,,,,,,,,,,,,,,,,,,,,,,,,,,,,,,,,,,,,,,,,,,,,,,,,,,,,,,,,,,,,,,,,,96919,2022-10-26_14h33.13.032,vts_reward_expectancy_bt_OFFLINE,2022.2.4,59.741760980456945,
0,0,1,0,0,0,0,1,hexagon,star,0,0,0,0,1,9,21,8,,,,,,,,,,,,,,,,,,,,,,,,,,,,,,,,,,,,,,,,416.94071040599374,416.94071040599374,416.94071040599374,416.94071040599374,416.94071040599374,416.94071040599374,416.94071040599374,416.94071040599374,416.94071040599374,416.94071040599374,a,0.5545480680011678,10,139,0,417.52699618598854,419.02600414998597,419.02600414998597,419.52626626098936,,,,,,,,,,,,,,,,,,,,,,,,,,,,,,,,,,,,,,,,,,,,,,,,,,,,,,,,,,,,,,,,,,,,96919,2022-10-26_14h33.13.032,vts_reward_expectancy_bt_OFFLINE,2022.2.4,59.741760980456945,
1,0,0,0,0,0,1,0,triangle,hexagon,0,0,0,0,1,10,22,1,,,,,,,,,,,,,,,,,,,,,,,,,,,,,,,,,,,,,,,,419.52626626098936,419.52626626098936,419.52626626098936,419.52626626098936,419.52626626098936,419.52626626098936,419.52626626098936,419.52626626098936,419.52626626098936,419.52626626098936,a,0.545663761018659,10,149,0,420.0928760599927,421.59352409899293,421.59352409899293,422.0935003289924,,,,,,,,,,,,,,,,,,,,,,,,,,,,,,,,,,,,,,,,,,,,,,,,,,,,,,,,,,,,,,,,,,,,96919,2022-10-26_14h33.13.032,vts_reward_expectancy_bt_OFFLINE,2022.2.4,59.741760980456945,
0,1,0,0,1,0,0,0,circle,triangle,0,0,0,0,1,11,23,3,,,,,,,,,,,,,,,,,,,,,,,,,,,,,,,,,,,,,,,,422.0935003289924,422.0935003289924,422.0935003289924,422.0935003289924,422.0935003289924,422.0935003289924,422.0935003289924,422.0935003289924,422.0935003289924,422.0935003289924,a,0.5695020800048951,1,150,0,422.69669011399674,424.1973650199943,,,,,,,,,,,,,,,,,,,,,,,,,,,,,,,,,,,,,,,,,,,,,,,,,,,,,,,,,,,,,,,,,,,,,,96919,2022-10-26_14h33.13.032,vts_reward_expectancy_bt_OFFLINE,2022.2.4,59.741760980456945,
0,1,0,0,1,0,0,0,circle,triangle,0,0,0,0,2,0,24,3,,,,,,,,,,,,,,,,,,,,,,,,,,,,,,,,,,,,,,,,424.7125298139872,424.7125298139872,424.7125298139872,424.7125298139872,424.7125298139872,424.7125298139872,424.7125298139872,424.7125298139872,424.7125298139872,424.7125298139872,l,0.6393477890087524,10,160,0,425.38032383300015,426.88049117999617,,,,,,,,,,,,,,,,,,,,,,,,,,,,,,,,,,,,,,,,,,,,,,,,,,,,,,,,,,,,,,,,,,,,,,96919,2022-10-26_14h33.13.032,vts_reward_expectancy_bt_OFFLINE,2022.2.4,59.741760980456945,
0,1,0,0,0,0,1,0,circle,hexagon,0,0,0,0,2,1,25,4,,,,,,,,,,,,,,,,,,,,,,,,,,,,,,,,,,,,,,,,427.38271247799275,427.38271247799275,427.38271247799275,427.38271247799275,427.38271247799275,427.38271247799275,427.38271247799275,427.38271247799275,427.38271247799275,427.38271247799275,a,0.5776808980008354,1,161,0,427.98459728799935,429.4835191319871,429.4835191319871,429.9835130569991,,,,,,,,,,,,,,,,,,,,,,,,,,,,,,,,,,,,,,,,,,,,,,,,,,,,,,,,,,,,,,,,,,,,96919,2022-10-26_14h33.13.032,vts_reward_expectancy_bt_OFFLINE,2022.2.4,59.741760980456945,
1,0,0,0,0,0,0,1,triangle,star,0,0,0,0,2,2,26,2,,,,,,,,,,,,,,,,,,,,,,,,,,,,,,,,,,,,,,,,429.9835130569991,429.9835130569991,429.9835130569991,429.9835130569991,429.9835130569991,429.9835130569991,429.9835130569991,429.9835130569991,429.9835130569991,429.9835130569991,l,0.6160100480046822,1,162,0,430.6173100039887,432.11819929099875,432.11819929099875,,,,,,,,,,,,,,,,,,,,,,,,,,,,,,,,,,,,,,,,,,,,,,,,,,,,,,,,,,,,,,,,,,,,,96919,2022-10-26_14h33.13.032,vts_reward_expectancy_bt_OFFLINE,2022.2.4,59.741760980456945,
0,0,0,1,0,1,0,0,star ,circle,0,0,0,0,2,3,27,10,,,,,,,,,,,,,,,,,,,,,,,,,,,,,,,,,,,,,,,,432.61889983799483,432.61889983799483,432.61889983799483,432.61889983799483,432.61889983799483,432.61889983799483,432.61889983799483,432.61889983799483,432.61889983799483,432.61889983799483,l,0.7489815710141556,1,163,0,433.386623880986,434.88711169399903,434.88711169399903,435.38711730799696,,,,,,,,,,,,,,,,,,,,,,,,,,,,,,,,,,,,,,,,,,,,,,,,,,,,,,,,,,,,,,,,,,,,96919,2022-10-26_14h33.13.032,vts_reward_expectancy_bt_OFFLINE,2022.2.4,59.741760980456945,
0,0,1,0,1,0,0,0,hexagon,triangle,0,0,0,0,2,4,28,6,,,,,,,,,,,,,,,,,,,,,,,,,,,,,,,,,,,,,,,,435.38711730799696,435.38711730799696,435.38711730799696,435.38711730799696,435.38711730799696,435.38711730799696,435.38711730799696,435.38711730799696,435.38711730799696,435.38711730799696,a,2.0210912700131303,10,173,0,437.44017397299467,438.9406062449998,438.9406062449998,439.44048243999714,,,,,,,,,,,,,,,,,,,,,,,,,,,,,,,,,,,,,,,,,,,,,,,,,,,,,,,,,,,,,,,,,,,,96919,2022-10-26_14h33.13.032,vts_reward_expectancy_bt_OFFLINE,2022.2.4,59.741760980456945,
0,0,1,0,0,1,0,0,hexagon,circle,0,0,0,0,2,5,29,7,,,,,,,,,,,,,,,,,,,,,,,,,,,,,,,,,,,,,,,,439.44048243999714,439.44048243999714,439.44048243999714,439.44048243999714,439.44048243999714,439.44048243999714,439.44048243999714,439.44048243999714,439.44048243999714,439.44048243999714,l,0.5667913710058201,10,183,0,440.0332539230003,441.54169599499437,,,,,,,,,,,,,,,,,,,,,,,,,,,,,,,,,,,,,,,,,,,,,,,,,,,,,,,,,,,,,,,,,,,,,,96919,2022-10-26_14h33.13.032,vts_reward_expectancy_bt_OFFLINE,2022.2.4,59.741760980456945,
1,0,0,0,0,0,1,0,triangle,hexagon,0,0,0,0,2,6,30,1,,,,,,,,,,,,,,,,,,,,,,,,,,,,,,,,,,,,,,,,442.04185461299494,442.04185461299494,442.04185461299494,442.04185461299494,442.04185461299494,442.04185461299494,442.04185461299494,442.04185461299494,442.04185461299494,442.04185461299494,a,0.5336633810075,10,193,0,442.5933872519963,444.094063298995,444.094063298995,444.59429765898676,,,,,,,,,,,,,,,,,,,,,,,,,,,,,,,,,,,,,,,,,,,,,,,,,,,,,,,,,,,,,,,,,,,,96919,2022-10-26_14h33.13.032,vts_reward_expectancy_bt_OFFLINE,2022.2.4,59.741760980456945,
1,0,0,0,0,1,0,0,triangle,circle,0,0,0,0,2,7,31,0,,,,,,,,,,,,,,,,,,,,,,,,,,,,,,,,,,,,,,,,444.59429765898676,444.59429765898676,444.59429765898676,444.59429765898676,444.59429765898676,444.59429765898676,444.59429765898676,444.59429765898676,444.59429765898676,444.59429765898676,l,0.5488124530093046,1,194,0,445.16300386798684,446.67782576598984,,,,,,,,,,,,,,,,,,,,,,,,,,,,,,,,,,,,,,,,,,,,,,,,,,,,,,,,,,,,,,,,,,,,,,96919,2022-10-26_14h33.13.032,vts_reward_expectancy_bt_OFFLINE,2022.2.4,59.741760980456945,
0,0,0,1,1,0,0,0,star,triangle,0,0,0,0,2,8,32,9,,,,,,,,,,,,,,,,,,,,,,,,,,,,,,,,,,,,,,,,447.16815081499226,447.16815081499226,447.16815081499226,447.16815081499226,447.16815081499226,447.16815081499226,447.16815081499226,447.16815081499226,447.16815081499226,447.16815081499226,l,0.6073936300090281,1,195,0,447.7974140669976,449.29807371099014,449.29807371099014,449.79832802499004,,,,,,,,,,,,,,,,,,,,,,,,,,,,,,,,,,,,,,,,,,,,,,,,,,,,,,,,,,,,,,,,,,,,96919,2022-10-26_14h33.13.032,vts_reward_expectancy_bt_OFFLINE,2022.2.4,59.741760980456945,
0,0,1,0,0,0,0,1,hexagon,star,0,0,0,0,2,9,33,8,,,,,,,,,,,,,,,,,,,,,,,,,,,,,,,,,,,,,,,,449.79832802499004,449.79832802499004,449.79832802499004,449.79832802499004,449.79832802499004,449.79832802499004,449.79832802499004,449.79832802499004,449.79832802499004,449.79832802499004,a,0.569310362014221,10,205,0,450.39990056199895,451.8986349039915,451.8986349039915,,,,,,,,,,,,,,,,,,,,,,,,,,,,,,,,,,,,,,,,,,,,,,,,,,,,,,,,,,,,,,,,,,,,,96919,2022-10-26_14h33.13.032,vts_reward_expectancy_bt_OFFLINE,2022.2.4,59.741760980456945,
0,0,0,1,0,0,1,0,star,hexagon,0,0,0,0,2,10,34,11,,,,,,,,,,,,,,,,,,,,,,,,,,,,,,,,,,,,,,,,452.4009425289987,452.4009425289987,452.4009425289987,452.4009425289987,452.4009425289987,452.4009425289987,452.4009425289987,452.4009425289987,452.4009425289987,452.4009425289987,l,0.5992212160053896,10,215,0,453.01845600699016,454.5192793449969,454.5192793449969,455.01911683299113,,,,,,,,,,,,,,,,,,,,,,,,,,,,,,,,,,,,,,,,,,,,,,,,,,,,,,,,,,,,,,,,,,,,96919,2022-10-26_14h33.13.032,vts_reward_expectancy_bt_OFFLINE,2022.2.4,59.741760980456945,
0,1,0,0,0,0,0,1,circle,star,0,0,0,0,2,11,35,5,,,,,,,,,,,,,,,,,,,,,,,,,,,,,,,,,,,,,,,,455.01911683299113,455.01911683299113,455.01911683299113,455.01911683299113,455.01911683299113,455.01911683299113,455.01911683299113,455.01911683299113,455.01911683299113,455.01911683299113,a,0.40475795000384096,10,225,0,455.45167492399924,456.95255602798716,456.95255602798716,,,,,,,,,,,,,,,,,,,,,,,,,,,,,,,,,,,,,,,,,,,,,,,,,,,,,,,,,,,,,,,,,,,,,96919,2022-10-26_14h33.13.032,vts_reward_expectancy_bt_OFFLINE,2022.2.4,59.741760980456945,
0,1,0,0,1,0,0,0,circle,triangle,0,0,0,0,3,0,36,3,,,,,,,,,,,,,,,,,,,,,,,,,,,,,,,,,,,,,,,,457.45426323098945,457.45426323098945,457.45426323098945,457.45426323098945,457.45426323098945,457.45426323098945,457.45426323098945,457.45426323098945,457.45426323098945,457.45426323098945,a,0.5133109430025797,10,235,0,457.98834559899115,459.48887718499464,459.48887718499464,459.98884397798975,,,,,,,,,,,,,,,,,,,,,,,,,,,,,,,,,,,,,,,,,,,,,,,,,,,,,,,,,,,,,,,,,,,,96919,2022-10-26_14h33.13.032,vts_reward_expectancy_bt_OFFLINE,2022.2.4,59.741760980456945,
1,0,0,0,0,0,0,1,triangle,star,0,0,0,0,3,1,37,2,,,,,,,,,,,,,,,,,,,,,,,,,,,,,,,,,,,,,,,,459.98884397798975,459.98884397798975,459.98884397798975,459.98884397798975,459.98884397798975,459.98884397798975,459.98884397798975,459.98884397798975,459.98884397798975,459.98884397798975,a,0.4593362320010783,10,245,0,460.472112501986,461.97262282299926,461.97262282299926,,,,,,,,,,,,,,,,,,,,,,,,,,,,,,,,,,,,,,,,,,,,,,,,,,,,,,,,,,,,,,,,,,,,,96919,2022-10-26_14h33.13.032,vts_reward_expectancy_bt_OFFLINE,2022.2.4,59.741760980456945,
0,1,0,0,0,0,1,0,circle,hexagon,0,0,0,0,3,2,38,4,,,,,,,,,,,,,,,,,,,,,,,,,,,,,,,,,,,,,,,,462.47550305999175,462.47550305999175,462.47550305999175,462.47550305999175,462.47550305999175,462.47550305999175,462.47550305999175,462.47550305999175,462.47550305999175,462.47550305999175,a,0.4206708860147046,1,246,0,462.9267664759973,464.44165615299426,,,,,,,,,,,,,,,,,,,,,,,,,,,,,,,,,,,,,,,,,,,,,,,,,,,,,,,,,,,,,,,,,,,,,,96919,2022-10-26_14h33.13.032,vts_reward_expectancy_bt_OFFLINE,2022.2.4,59.741760980456945,
0,0,0,1,1,0,0,0,star,triangle,0,0,0,0,3,3,39,9,,,,,,,,,,,,,,,,,,,,,,,,,,,,,,,,,,,,,,,,464.9418314809882,464.9418314809882,464.9418314809882,464.9418314809882,464.9418314809882,464.9418314809882,464.9418314809882,464.9418314809882,464.9418314809882,464.9418314809882,l,0.36986781102314126,10,256,0,465.3444431159878,466.842769742987,466.842769742987,,,,,,,,,,,,,,,,,,,,,,,,,,,,,,,,,,,,,,,,,,,,,,,,,,,,,,,,,,,,,,,,,,,,,96919,2022-10-26_14h33.13.032,vts_reward_expectancy_bt_OFFLINE,2022.2.4,59.741760980456945,
1,0,0,0,0,1,0,0,triangle,circle,0,0,0,0,3,4,40,0,,,,,,,,,,,,,,,,,,,,,,,,,,,,,,,,,,,,,,,,467.3456548679969,467.3456548679969,467.3456548679969,467.3456548679969,467.3456548679969,467.3456548679969,467.3456548679969,467.3456548679969,467.3456548679969,467.3456548679969,l,0.5498125070153037,1,257,0,467.9139179809863,469.41278305699234,469.41278305699234,469.91270658400026,,,,,,,,,,,,,,,,,,,,,,,,,,,,,,,,,,,,,,,,,,,,,,,,,,,,,,,,,,,,,,,,,,,,96919,2022-10-26_14h33.13.032,vts_reward_expectancy_bt_OFFLINE,2022.2.4,59.741760980456945,
0,0,0,1,0,1,0,0,star ,circle,0,0,0,0,3,5,41,10,,,,,,,,,,,,,,,,,,,,,,,,,,,,,,,,,,,,,,,,469.91270658400026,469.91270658400026,469.91270658400026,469.91270658400026,469.91270658400026,469.91270658400026,469.91270658400026,469.91270658400026,469.91270658400026,469.91270658400026,l,0.4388410660030786,1,258,0,470.379342396991,471.8796648379939,471.8796648379939,,,,,,,,,,,,,,,,,,,,,,,,,,,,,,,,,,,,,,,,,,,,,,,,,,,,,,,,,,,,,,,,,,,,,96919,2022-10-26_14h33.13.032,vts_reward_expectancy_bt_OFFLINE,2022.2.4,59.741760980456945,
0,0,1,0,0,1,0,0,hexagon,circle,0,0,0,0,3,6,42,7,,,,,,,,,,,,,,,,,,,,,,,,,,,,,,,,,,,,,,,,472.3829771249875,472.3829771249875,472.3829771249875,472.3829771249875,472.3829771249875,472.3829771249875,472.3829771249875,472.3829771249875,472.3829771249875,472.3829771249875,a,0.9364867770054843,10,268,0,473.35047134698834,474.84895950899227,474.84895950899227,,,,,,,,,,,,,,,,,,,,,,,,,,,,,,,,,,,,,,,,,,,,,,,,,,,,,,,,,,,,,,,,,,,,,96919,2022-10-26_14h33.13.032,vts_reward_expectancy_bt_OFFLINE,2022.2.4,59.741760980456945,
0,0,1,0,1,0,0,0,hexagon,triangle,0,0,0,0,3,7,43,6,,,,,,,,,,,,,,,,,,,,,,,,,,,,,,,,,,,,,,,,475.3491716219869,475.3491716219869,475.3491716219869,475.3491716219869,475.3491716219869,475.3491716219869,475.3491716219869,475.3491716219869,475.3491716219869,475.3491716219869,a,1.2339492020109901,10,278,0,476.5997376939922,478.1029351229954,,,,,,,,,,,,,,,,,,,,,,,,,,,,,,,,,,,,,,,,,,,,,,,,,,,,,,,,,,,,,,,,,,,,,,96919,2022-10-26_14h33.13.032,vts_reward_expectancy_bt_OFFLINE,2022.2.4,59.741760980456945,
0,0,0,1,0,0,1,0,star,hexagon,0,0,0,0,3,8,44,11,,,,,,,,,,,,,,,,,,,,,,,,,,,,,,,,,,,,,,,,478.60319806599,478.60319806599,478.60319806599,478.60319806599,478.60319806599,478.60319806599,478.60319806599,478.60319806599,478.60319806599,478.60319806599,l,0.5326173750072485,10,288,0,479.1532813879894,480.6539129099983,480.6539129099983,481.15391641399765,,,,,,,,,,,,,,,,,,,,,,,,,,,,,,,,,,,,,,,,,,,,,,,,,,,,,,,,,,,,,,,,,,,,96919,2022-10-26_14h33.13.032,vts_reward_expectancy_bt_OFFLINE,2022.2.4,59.741760980456945,
0,1,0,0,0,0,0,1,circle,star,0,0,0,0,3,9,45,5,,,,,,,,,,,,,,,,,,,,,,,,,,,,,,,,,,,,,,,,481.15391641399765,481.15391641399765,481.15391641399765,481.15391641399765,481.15391641399765,481.15391641399765,481.15391641399765,481.15391641399765,481.15391641399765,481.15391641399765,a,0.3579523250082275,1,289,0,481.5383876209962,483.04004361099214,,,,,,,,,,,,,,,,,,,,,,,,,,,,,,,,,,,,,,,,,,,,,,,,,,,,,,,,,,,,,,,,,,,,,,96919,2022-10-26_14h33.13.032,vts_reward_expectancy_bt_OFFLINE,2022.2.4,59.741760980456945,
0,0,1,0,0,0,0,1,hexagon,star,0,0,0,0,3,10,46,8,,,,,,,,,,,,,,,,,,,,,,,,,,,,,,,,,,,,,,,,483.54055992199574,483.54055992199574,483.54055992199574,483.54055992199574,483.54055992199574,483.54055992199574,483.54055992199574,483.54055992199574,483.54055992199574,483.54055992199574,l,0.7630775830039056,10,299,0,484.32381129699934,485.8237861089874,485.8237861089874,486.3239987889974,,,,,,,,,,,,,,,,,,,,,,,,,,,,,,,,,,,,,,,,,,,,,,,,,,,,,,,,,,,,,,,,,,,,96919,2022-10-26_14h33.13.032,vts_reward_expectancy_bt_OFFLINE,2022.2.4,59.741760980456945,
1,0,0,0,0,0,1,0,triangle,hexagon,0,0,0,0,3,11,47,1,,,,,,,,,,,,,,,,,,,,,,,,,,,,,,,,,,,,,,,,486.3239987889974,486.3239987889974,486.3239987889974,486.3239987889974,486.3239987889974,486.3239987889974,486.3239987889974,486.3239987889974,486.3239987889974,486.3239987889974,l,0.8117994040076155,10,309,0,487.1574734379974,488.6605675799947,,,,,,,,,,,,,,,,,,,,,,,,,,,,,,,,,,,,,,,,,,,,,,,,,,,,,,,,,,,,,,,,,,,,,,96919,2022-10-26_14h33.13.032,vts_reward_expectancy_bt_OFFLINE,2022.2.4,59.741760980456945,
0,0,0,1,0,0,1,0,star,hexagon,1,0,1,0,0,0,0,11,,,,,,,,,,,,,,,,,,,,,,,,,,,,,,,,,,,,,,,,493.7073987509939,493.7073987509939,493.7073987509939,493.7073987509939,493.7073987509939,493.7073987509939,493.7073987509939,493.7073987509939,493.7073987509939,493.7073987509939,l,0.8283675050188322,10,319,1,494.5644691130001,496.0647708049946,496.0647708049946,496.5646397549863,,,,,,,,,,,,,,,,,,,,,,,,,,,,,,,,,,,,,,,,,,,,,,,,,,,,,,,,,,,,,,,,,,,,96919,2022-10-26_14h33.13.032,vts_reward_expectancy_bt_OFFLINE,2022.2.4,59.741760980456945,
0,1,0,0,0,0,1,0,circle,hexagon,1,0,1,0,0,1,1,4,,,,,,,,,,,,,,,,,,,,,,,,,,,,,,,,,,,,,,,,496.5646397549863,496.5646397549863,496.5646397549863,496.5646397549863,496.5646397549863,496.5646397549863,496.5646397549863,496.5646397549863,496.5646397549863,496.5646397549863,l,0.8992640630167443,10,329,1,497.4834307709971,498.9842587919993,498.9842587919993,,,,,,,,,,,,,,,,,,,,,,,,,,,,,,,,,,,,,,,,,,,,,,,,,,,,,,,,,,,,,,,,,,,,,96919,2022-10-26_14h33.13.032,vts_reward_expectancy_bt_OFFLINE,2022.2.4,59.741760980456945,
1,0,0,0,0,0,1,0,triangle,hexagon,1,0,1,0,0,2,2,1,,,,,,,,,,,,,,,,,,,,,,,,,,,,,,,,,,,,,,,,499.4844954789878,499.4844954789878,499.4844954789878,499.4844954789878,499.4844954789878,499.4844954789878,499.4844954789878,499.4844954789878,499.4844954789878,499.4844954789878,l,0.5795487970026443,10,339,1,500.0846032929985,501.5850827959948,501.5850827959948,502.08529428798647,,,,,,,,,,,,,,,,,,,,,,,,,,,,,,,,,,,,,,,,,,,,,,,,,,,,,,,,,,,,,,,,,,,,96919,2022-10-26_14h33.13.032,vts_reward_expectancy_bt_OFFLINE,2022.2.4,59.741760980456945,
0,0,0,1,0,1,0,0,star ,circle,1,0,1,0,0,3,3,10,,,,,,,,,,,,,,,,,,,,,,,,,,,,,,,,,,,,,,,,502.08529428798647,502.08529428798647,502.08529428798647,502.08529428798647,502.08529428798647,502.08529428798647,502.08529428798647,502.08529428798647,502.08529428798647,502.08529428798647,l,0.4183280070137698,1,340,1,502.5220623409987,504.0204454069899,504.0204454069899,,,,,,,,,,,,,,,,,,,,,,,,,,,,,,,,,,,,,,,,,,,,,,,,,,,,,,,,,,,,,,,,,,,,,96919,2022-10-26_14h33.13.032,vts_reward_expectancy_bt_OFFLINE,2022.2.4,59.741760980456945,
1,0,0,0,0,1,0,0,triangle,circle,1,0,1,0,0,4,4,0,,,,,,,,,,,,,,,,,,,,,,,,,,,,,,,,,,,,,,,,504.5206652709894,504.5206652709894,504.5206652709894,504.5206652709894,504.5206652709894,504.5206652709894,504.5206652709894,504.5206652709894,504.5206652709894,504.5206652709894,a,1.0871114110050257,10,350,1,505.63824288999604,507.1388345479936,507.1388345479936,,,,,,,,,,,,,,,,,,,,,,,,,,,,,,,,,,,,,,,,,,,,,,,,,,,,,,,,,,,,,,,,,,,,,96919,2022-10-26_14h33.13.032,vts_reward_expectancy_bt_OFFLINE,2022.2.4,59.741760980456945,
0,0,1,0,0,1,0,0,hexagon,circle,1,0,1,0,0,5,5,7,,,,,,,,,,,,,,,,,,,,,,,,,,,,,,,,,,,,,,,,507.6409311199968,507.6409311199968,507.6409311199968,507.6409311199968,507.6409311199968,507.6409311199968,507.6409311199968,507.6409311199968,507.6409311199968,507.6409311199968,l,0.3101316770189442,1,351,1,507.97582519099524,509.47549799099215,509.47549799099215,,,,,,,,,,,,,,,,,,,,,,,,,,,,,,,,,,,,,,,,,,,,,,,,,,,,,,,,,,,,,,,,,,,,,96919,2022-10-26_14h33.13.032,vts_reward_expectancy_bt_OFFLINE,2022.2.4,59.741760980456945,
0,1,0,0,0,0,0,1,circle,star,1,0,1,0,0,6,6,5,,,,,,,,,,,,,,,,,,,,,,,,,,,,,,,,,,,,,,,,509.98135602999537,509.98135602999537,509.98135602999537,509.98135602999537,509.98135602999537,509.98135602999537,509.98135602999537,509.98135602999537,509.98135602999537,509.98135602999537,a,0.3617338460026076,1,352,1,510.3737250599952,511.8768717979983,,,,,,,,,,,,,,,,,,,,,,,,,,,,,,,,,,,,,,,,,,,,,,,,,,,,,,,,,,,,,,,,,,,,,,96919,2022-10-26_14h33.13.032,vts_reward_expectancy_bt_OFFLINE,2022.2.4,59.741760980456945,
0,0,1,0,1,0,0,0,hexagon,triangle,1,0,1,0,0,7,7,6,,,,,,,,,,,,,,,,,,,,,,,,,,,,,,,,,,,,,,,,512.3772930289997,512.3772930289997,512.3772930289997,512.3772930289997,512.3772930289997,512.3772930289997,512.3772930289997,512.3772930289997,512.3772930289997,512.3772930289997,l,0.5103446030116174,10,362,1,512.9137835779984,514.4281725799956,,,,,,,,,,,,,,,,,,,,,,,,,,,,,,,,,,,,,,,,,,,,,,,,,,,,,,,,,,,,,,,,,,,,,,96919,2022-10-26_14h33.13.032,vts_reward_expectancy_bt_OFFLINE,2022.2.4,59.741760980456945,
1,0,0,0,0,0,0,1,triangle,star,1,0,1,0,0,8,8,2,,,,,,,,,,,,,,,,,,,,,,,,,,,,,,,,,,,,,,,,514.9279397270002,514.9279397270002,514.9279397270002,514.9279397270002,514.9279397270002,514.9279397270002,514.9279397270002,514.9279397270002,514.9279397270002,514.9279397270002,a,0.5913128130196128,10,372,1,515.5455075789941,517.0460431249958,517.0460431249958,,,,,,,,,,,,,,,,,,,,,,,,,,,,,,,,,,,,,,,,,,,,,,,,,,,,,,,,,,,,,,,,,,,,,96919,2022-10-26_14h33.13.032,vts_reward_expectancy_bt_OFFLINE,2022.2.4,59.741760980456945,
0,1,0,0,1,0,0,0,circle,triangle,1,0,1,0,0,9,9,3,,,,,,,,,,,,,,,,,,,,,,,,,,,,,,,,,,,,,,,,517.5479972429894,517.5479972429894,517.5479972429894,517.5479972429894,517.5479972429894,517.5479972429894,517.5479972429894,517.5479972429894,517.5479972429894,517.5479972429894,l,0.7391592420171946,10,382,1,518.3149688829872,519.8152627439995,519.8152627439995,520.315542308992,,,,,,,,,,,,,,,,,,,,,,,,,,,,,,,,,,,,,,,,,,,,,,,,,,,,,,,,,,,,,,,,,,,,96919,2022-10-26_14h33.13.032,vts_reward_expectancy_bt_OFFLINE,2022.2.4,59.741760980456945,
0,0,1,0,0,0,0,1,hexagon,star,1,0,1,0,0,10,10,8,,,,,,,,,,,,,,,,,,,,,,,,,,,,,,,,,,,,,,,,520.315542308992,520.315542308992,520.315542308992,520.315542308992,520.315542308992,520.315542308992,520.315542308992,520.315542308992,520.315542308992,520.315542308992,l,0.8518366940115811,10,392,1,521.1996164429875,522.7018040529947,522.7018040529947,523.2018950739875,,,,,,,,,,,,,,,,,,,,,,,,,,,,,,,,,,,,,,,,,,,,,,,,,,,,,,,,,,,,,,,,,,,,96919,2022-10-26_14h33.13.032,vts_reward_expectancy_bt_OFFLINE,2022.2.4,59.741760980456945,
0,0,0,1,1,0,0,0,star,triangle,1,0,1,0,0,11,11,9,,,,,,,,,,,,,,,,,,,,,,,,,,,,,,,,,,,,,,,,523.2018950739875,523.2018950739875,523.2018950739875,523.2018950739875,523.2018950739875,523.2018950739875,523.2018950739875,523.2018950739875,523.2018950739875,523.2018950739875,a,1.149148648008122,1,393,1,524.3712536969979,525.8857174399891,,,,,,,,,,,,,,,,,,,,,,,,,,,,,,,,,,,,,,,,,,,,,,,,,,,,,,,,,,,,,,,,,,,,,,96919,2022-10-26_14h33.13.032,vts_reward_expectancy_bt_OFFLINE,2022.2.4,59.741760980456945,
1,0,0,0,0,1,0,0,triangle,circle,1,0,1,0,1,0,12,0,,,,,,,,,,,,,,,,,,,,,,,,,,,,,,,,,,,,,,,,526.3707885969925,526.3707885969925,526.3707885969925,526.3707885969925,526.3707885969925,526.3707885969925,526.3707885969925,526.3707885969925,526.3707885969925,526.3707885969925,l,0.46925799100426957,1,394,1,526.8708390259999,528.3721119759866,,,,,,,,,,,,,,,,,,,,,,,,,,,,,,,,,,,,,,,,,,,,,,,,,,,,,,,,,,,,,,,,,,,,,,96919,2022-10-26_14h33.13.032,vts_reward_expectancy_bt_OFFLINE,2022.2.4,59.741760980456945,
0,0,0,1,1,0,0,0,star,triangle,1,0,1,0,1,1,13,9,,,,,,,,,,,,,,,,,,,,,,,,,,,,,,,,,,,,,,,,528.8723882209888,528.8723882209888,528.8723882209888,528.8723882209888,528.8723882209888,528.8723882209888,528.8723882209888,528.8723882209888,528.8723882209888,528.8723882209888,a,1.3671418450103374,1,395,1,530.2566591109935,531.7569870599982,531.7569870599982,,,,,,,,,,,,,,,,,,,,,,,,,,,,,,,,,,,,,,,,,,,,,,,,,,,,,,,,,,,,,,,,,,,,,96919,2022-10-26_14h33.13.032,vts_reward_expectancy_bt_OFFLINE,2022.2.4,59.741760980456945,
0,0,0,1,0,0,1,0,star,hexagon,1,0,1,0,1,2,14,11,,,,,,,,,,,,,,,,,,,,,,,,,,,,,,,,,,,,,,,,532.258988304995,532.258988304995,532.258988304995,532.258988304995,532.258988304995,532.258988304995,532.258988304995,532.258988304995,532.258988304995,532.258988304995,l,0.372561697018682,10,405,1,532.6600734419917,534.1597817519942,534.1597817519942,,,,,,,,,,,,,,,,,,,,,,,,,,,,,,,,,,,,,,,,,,,,,,,,,,,,,,,,,,,,,,,,,,,,,96919,2022-10-26_14h33.13.032,vts_reward_expectancy_bt_OFFLINE,2022.2.4,59.741760980456945,
1,0,0,0,0,0,1,0,triangle,hexagon,1,0,1,0,1,3,15,1,,,,,,,,,,,,,,,,,,,,,,,,,,,,,,,,,,,,,,,,534.6597961069929,534.6597961069929,534.6597961069929,534.6597961069929,534.6597961069929,534.6597961069929,534.6597961069929,534.6597961069929,534.6597961069929,534.6597961069929,l,0.9953020800166996,1,406,1,535.6791139019915,537.1935307739914,,,,,,,,,,,,,,,,,,,,,,,,,,,,,,,,,,,,,,,,,,,,,,,,,,,,,,,,,,,,,,,,,,,,,,96919,2022-10-26_14h33.13.032,vts_reward_expectancy_bt_OFFLINE,2022.2.4,59.741760980456945,
0,1,0,0,1,0,0,0,circle,triangle,1,0,1,0,1,4,16,3,,,,,,,,,,,,,,,,,,,,,,,,,,,,,,,,,,,,,,,,537.678856827988,537.678856827988,537.678856827988,537.678856827988,537.678856827988,537.678856827988,537.678856827988,537.678856827988,537.678856827988,537.678856827988,a,0.3288426640065154,1,407,1,538.0293253809941,539.5299861839885,539.5299861839885,540.0300998149905,,,,,,,,,,,,,,,,,,,,,,,,,,,,,,,,,,,,,,,,,,,,,,,,,,,,,,,,,,,,,,,,,,,,96919,2022-10-26_14h33.13.032,vts_reward_expectancy_bt_OFFLINE,2022.2.4,59.741760980456945,
0,0,1,0,1,0,0,0,hexagon,triangle,1,0,1,0,1,5,17,6,,,,,,,,,,,,,,,,,,,,,,,,,,,,,,,,,,,,,,,,540.0300998149905,540.0300998149905,540.0300998149905,540.0300998149905,540.0300998149905,540.0300998149905,540.0300998149905,540.0300998149905,540.0300998149905,540.0300998149905,l,0.2969123260118067,10,417,1,540.3485692939867,541.8643860399898,,,,,,,,,,,,,,,,,,,,,,,,,,,,,,,,,,,,,,,,,,,,,,,,,,,,,,,,,,,,,,,,,,,,,,96919,2022-10-26_14h33.13.032,vts_reward_expectancy_bt_OFFLINE,2022.2.4,59.741760980456945,
0,1,0,0,0,0,1,0,circle,hexagon,1,0,1,0,1,6,18,4,,,,,,,,,,,,,,,,,,,,,,,,,,,,,,,,,,,,,,,,542.349370328986,542.349370328986,542.349370328986,542.349370328986,542.349370328986,542.349370328986,542.349370328986,542.349370328986,542.349370328986,542.349370328986,l,0.6104716240079142,10,427,1,542.9833378059993,544.4839000349893,544.4839000349893,544.9840489049966,,,,,,,,,,,,,,,,,,,,,,,,,,,,,,,,,,,,,,,,,,,,,,,,,,,,,,,,,,,,,,,,,,,,96919,2022-10-26_14h33.13.032,vts_reward_expectancy_bt_OFFLINE,2022.2.4,59.741760980456945,
0,1,0,0,0,0,0,1,circle,star,1,0,1,0,1,7,19,5,,,,,,,,,,,,,,,,,,,,,,,,,,,,,,,,,,,,,,,,544.9840489049966,544.9840489049966,544.9840489049966,544.9840489049966,544.9840489049966,544.9840489049966,544.9840489049966,544.9840489049966,544.9840489049966,544.9840489049966,l,0.7116904040012741,10,437,1,545.7177753999858,547.2151131179999,547.2151131179999,,,,,,,,,,,,,,,,,,,,,,,,,,,,,,,,,,,,,,,,,,,,,,,,,,,,,,,,,,,,,,,,,,,,,96919,2022-10-26_14h33.13.032,vts_reward_expectancy_bt_OFFLINE,2022.2.4,59.741760980456945,
0,0,0,1,0,1,0,0,star ,circle,1,0,1,0,1,8,20,10,,,,,,,,,,,,,,,,,,,,,,,,,,,,,,,,,,,,,,,,547.7199065399909,547.7199065399909,547.7199065399909,547.7199065399909,547.7199065399909,547.7199065399909,547.7199065399909,547.7199065399909,547.7199065399909,547.7199065399909,l,0.49516333900101017,1,438,1,548.2392500569986,549.753638559996,,,,,,,,,,,,,,,,,,,,,,,,,,,,,,,,,,,,,,,,,,,,,,,,,,,,,,,,,,,,,,,,,,,,,,96919,2022-10-26_14h33.13.032,vts_reward_expectancy_bt_OFFLINE,2022.2.4,59.741760980456945,
0,0,1,0,0,0,0,1,hexagon,star,1,0,1,0,1,9,21,8,,,,,,,,,,,,,,,,,,,,,,,,,,,,,,,,,,,,,,,,550.2384940909978,550.2384940909978,550.2384940909978,550.2384940909978,550.2384940909978,550.2384940909978,550.2384940909978,550.2384940909978,550.2384940909978,550.2384940909978,a,0.3528662250173511,10,448,1,550.6220813079999,552.1215451499884,552.1215451499884,,,,,,,,,,,,,,,,,,,,,,,,,,,,,,,,,,,,,,,,,,,,,,,,,,,,,,,,,,,,,,,,,,,,,96919,2022-10-26_14h33.13.032,vts_reward_expectancy_bt_OFFLINE,2022.2.4,59.741760980456945,
0,0,1,0,0,1,0,0,hexagon,circle,1,0,1,0,1,10,22,7,,,,,,,,,,,,,,,,,,,,,,,,,,,,,,,,,,,,,,,,552.6235922569904,552.6235922569904,552.6235922569904,552.6235922569904,552.6235922569904,552.6235922569904,552.6235922569904,552.6235922569904,552.6235922569904,552.6235922569904,l,0.5121246460039401,1,449,1,553.1587891249947,554.6745702629996,,,,,,,,,,,,,,,,,,,,,,,,,,,,,,,,,,,,,,,,,,,,,,,,,,,,,,,,,,,,,,,,,,,,,,96919,2022-10-26_14h33.13.032,vts_reward_expectancy_bt_OFFLINE,2022.2.4,59.741760980456945,
1,0,0,0,0,0,0,1,triangle,star,1,0,1,0,1,11,23,2,,,,,,,,,,,,,,,,,,,,,,,,,,,,,,,,,,,,,,,,555.1746513919934,555.1746513919934,555.1746513919934,555.1746513919934,555.1746513919934,555.1746513919934,555.1746513919934,555.1746513919934,555.1746513919934,555.1746513919934,a,0.31271876402024645,10,459,1,555.5097610419907,557.025369488998,,,,,,,,,,,,,,,,,,,,,,,,,,,,,,,,,,,,,,,,,,,,,,,,,,,,,,,,,,,,,,,,,,,,,,96919,2022-10-26_14h33.13.032,vts_reward_expectancy_bt_OFFLINE,2022.2.4,59.741760980456945,
1,0,0,0,0,0,0,1,triangle,star,1,0,1,0,2,0,24,2,,,,,,,,,,,,,,,,,,,,,,,,,,,,,,,,,,,,,,,,557.5099698220001,557.5099698220001,557.5099698220001,557.5099698220001,557.5099698220001,557.5099698220001,557.5099698220001,557.5099698220001,557.5099698220001,557.5099698220001,a,0.6583304590021726,10,469,1,558.1949859289889,559.6955313309882,,,,,,,,,,,,,,,,,,,,,,,,,,,,,,,,,,,,,,,,,,,,,,,,,,,,,,,,,,,,,,,,,,,,,,96919,2022-10-26_14h33.13.032,vts_reward_expectancy_bt_OFFLINE,2022.2.4,59.741760980456945,
0,1,0,0,0,0,0,1,circle,star,1,0,1,0,2,1,25,5,,,,,,,,,,,,,,,,,,,,,,,,,,,,,,,,,,,,,,,,560.1958736300003,560.1958736300003,560.1958736300003,560.1958736300003,560.1958736300003,560.1958736300003,560.1958736300003,560.1958736300003,560.1958736300003,560.1958736300003,l,0.2992466130090179,1,470,1,560.5139245159953,562.0117885729996,562.0117885729996,,,,,,,,,,,,,,,,,,,,,,,,,,,,,,,,,,,,,,,,,,,,,,,,,,,,,,,,,,,,,,,,,,,,,96919,2022-10-26_14h33.13.032,vts_reward_expectancy_bt_OFFLINE,2022.2.4,59.741760980456945,
1,0,0,0,0,0,1,0,triangle,hexagon,1,0,1,0,2,2,26,1,,,,,,,,,,,,,,,,,,,,,,,,,,,,,,,,,,,,,,,,562.5146601019951,562.5146601019951,562.5146601019951,562.5146601019951,562.5146601019951,562.5146601019951,562.5146601019951,562.5146601019951,562.5146601019951,562.5146601019951,a,0.30127112701302394,1,471,1,562.8473521759879,564.3481075499876,564.3481075499876,564.8481080239872,,,,,,,,,,,,,,,,,,,,,,,,,,,,,,,,,,,,,,,,,,,,,,,,,,,,,,,,,,,,,,,,,,,,96919,2022-10-26_14h33.13.032,vts_reward_expectancy_bt_OFFLINE,2022.2.4,59.741760980456945,
0,0,0,1,0,1,0,0,star ,circle,1,0,1,0,2,3,27,10,,,,,,,,,,,,,,,,,,,,,,,,,,,,,,,,,,,,,,,,564.8481080239872,564.8481080239872,564.8481080239872,564.8481080239872,564.8481080239872,564.8481080239872,564.8481080239872,564.8481080239872,564.8481080239872,564.8481080239872,l,0.3677254110079957,1,472,1,565.2324281289912,566.7323520349892,566.7323520349892,567.2301208499994,,,,,,,,,,,,,,,,,,,,,,,,,,,,,,,,,,,,,,,,,,,,,,,,,,,,,,,,,,,,,,,,,,,,96919,2022-10-26_14h33.13.032,vts_reward_expectancy_bt_OFFLINE,2022.2.4,59.741760980456945,
0,0,1,0,0,1,0,0,hexagon,circle,1,0,1,0,2,4,28,7,,,,,,,,,,,,,,,,,,,,,,,,,,,,,,,,,,,,,,,,567.2301208499994,567.2301208499994,567.2301208499994,567.2301208499994,567.2301208499994,567.2301208499994,567.2301208499994,567.2301208499994,567.2301208499994,567.2301208499994,a,0.265459793023183,10,482,1,567.5198789399874,569.0179122749978,569.0179122749978,569.5180807109864,,,,,,,,,,,,,,,,,,,,,,,,,,,,,,,,,,,,,,,,,,,,,,,,,,,,,,,,,,,,,,,,,,,,96919,2022-10-26_14h33.13.032,vts_reward_expectancy_bt_OFFLINE,2022.2.4,59.741760980456945,
1,0,0,0,0,1,0,0,triangle,circle,1,0,1,0,2,5,29,0,,,,,,,,,,,,,,,,,,,,,,,,,,,,,,,,,,,,,,,,569.5180807109864,569.5180807109864,569.5180807109864,569.5180807109864,569.5180807109864,569.5180807109864,569.5180807109864,569.5180807109864,569.5180807109864,569.5180807109864,l,1.441827191010816,1,483,1,570.9867690760002,572.4880962769967,,,,,,,,,,,,,,,,,,,,,,,,,,,,,,,,,,,,,,,,,,,,,,,,,,,,,,,,,,,,,,,,,,,,,,96919,2022-10-26_14h33.13.032,vts_reward_expectancy_bt_OFFLINE,2022.2.4,59.741760980456945,
0,1,0,0,0,0,1,0,circle,hexagon,1,0,1,0,2,6,30,4,,,,,,,,,,,,,,,,,,,,,,,,,,,,,,,,,,,,,,,,572.9883515579859,572.9883515579859,572.9883515579859,572.9883515579859,572.9883515579859,572.9883515579859,572.9883515579859,572.9883515579859,572.9883515579859,572.9883515579859,a,0.4826711190107744,1,484,1,573.4885918559885,574.9891096809879,574.9891096809879,575.4893033119879,,,,,,,,,,,,,,,,,,,,,,,,,,,,,,,,,,,,,,,,,,,,,,,,,,,,,,,,,,,,,,,,,,,,96919,2022-10-26_14h33.13.032,vts_reward_expectancy_bt_OFFLINE,2022.2.4,59.741760980456945,
0,0,0,1,1,0,0,0,star,triangle,1,0,1,0,2,7,31,9,,,,,,,,,,,,,,,,,,,,,,,,,,,,,,,,,,,,,,,,575.4893033119879,575.4893033119879,575.4893033119879,575.4893033119879,575.4893033119879,575.4893033119879,575.4893033119879,575.4893033119879,575.4893033119879,575.4893033119879,l,0.4457264509983361,10,494,1,575.9576730029949,577.4590803189931,,,,,,,,,,,,,,,,,,,,,,,,,,,,,,,,,,,,,,,,,,,,,,,,,,,,,,,,,,,,,,,,,,,,,,96919,2022-10-26_14h33.13.032,vts_reward_expectancy_bt_OFFLINE,2022.2.4,59.741760980456945,
0,0,1,0,1,0,0,0,hexagon,triangle,1,0,1,0,2,8,32,6,,,,,,,,,,,,,,,,,,,,,,,,,,,,,,,,,,,,,,,,577.9594069229934,577.9594069229934,577.9594069229934,577.9594069229934,577.9594069229934,577.9594069229934,577.9594069229934,577.9594069229934,577.9594069229934,577.9594069229934,l,0.40852033300325274,1,495,1,578.393426243987,579.9100581599923,,,,,,,,,,,,,,,,,,,,,,,,,,,,,,,,,,,,,,,,,,,,,,,,,,,,,,,,,,,,,,,,,,,,,,96919,2022-10-26_14h33.13.032,vts_reward_expectancy_bt_OFFLINE,2022.2.4,59.741760980456945,
0,0,1,0,0,0,0,1,hexagon,star,1,0,1,0,2,9,33,8,,,,,,,,,,,,,,,,,,,,,,,,,,,,,,,,,,,,,,,,580.4103950189892,580.4103950189892,580.4103950189892,580.4103950189892,580.4103950189892,580.4103950189892,580.4103950189892,580.4103950189892,580.4103950189892,580.4103950189892,a,0.39699905800807755,10,505,1,580.8283099479886,582.3289219079888,,,,,,,,,,,,,,,,,,,,,,,,,,,,,,,,,,,,,,,,,,,,,,,,,,,,,,,,,,,,,,,,,,,,,,96919,2022-10-26_14h33.13.032,vts_reward_expectancy_bt_OFFLINE,2022.2.4,59.741760980456945,
0,0,0,1,0,0,1,0,star,hexagon,1,0,1,0,2,10,34,11,,,,,,,,,,,,,,,,,,,,,,,,,,,,,,,,,,,,,,,,582.8291737759864,582.8291737759864,582.8291737759864,582.8291737759864,582.8291737759864,582.8291737759864,582.8291737759864,582.8291737759864,582.8291737759864,582.8291737759864,a,0.6503548840119038,10,515,1,583.496661511992,584.9965050059982,584.9965050059982,585.4964963299863,,,,,,,,,,,,,,,,,,,,,,,,,,,,,,,,,,,,,,,,,,,,,,,,,,,,,,,,,,,,,,,,,,,,96919,2022-10-26_14h33.13.032,vts_reward_expectancy_bt_OFFLINE,2022.2.4,59.741760980456945,
0,1,0,0,1,0,0,0,circle,triangle,1,0,1,0,2,11,35,3,,,,,,,,,,,,,,,,,,,,,,,,,,,,,,,,,,,,,,,,585.4964963299863,585.4964963299863,585.4964963299863,585.4964963299863,585.4964963299863,585.4964963299863,585.4964963299863,585.4964963299863,585.4964963299863,585.4964963299863,l,0.559753522000392,10,525,1,586.0804058619979,587.5819943399983,,,,,,,,,,,,,,,,,,,,,,,,,,,,,,,,,,,,,,,,,,,,,,,,,,,,,,,,,,,,,,,,,,,,,,96919,2022-10-26_14h33.13.032,vts_reward_expectancy_bt_OFFLINE,2022.2.4,59.741760980456945,
0,1,0,0,0,0,0,1,circle,star,1,0,1,0,3,0,36,5,,,,,,,,,,,,,,,,,,,,,,,,,,,,,,,,,,,,,,,,588.08204768,588.08204768,588.08204768,588.08204768,588.08204768,588.08204768,588.08204768,588.08204768,588.08204768,588.08204768,a,0.677270390020567,1,526,1,588.7849011599901,590.2828543879878,590.2828543879878,590.7833574399992,,,,,,,,,,,,,,,,,,,,,,,,,,,,,,,,,,,,,,,,,,,,,,,,,,,,,,,,,,,,,,,,,,,,96919,2022-10-26_14h33.13.032,vts_reward_expectancy_bt_OFFLINE,2022.2.4,59.741760980456945,
0,1,0,0,1,0,0,0,circle,triangle,1,0,1,0,3,1,37,3,,,,,,,,,,,,,,,,,,,,,,,,,,,,,,,,,,,,,,,,590.7833574399992,590.7833574399992,590.7833574399992,590.7833574399992,590.7833574399992,590.7833574399992,590.7833574399992,590.7833574399992,590.7833574399992,590.7833574399992,l,0.40826820001529995,10,536,1,591.2194552099972,592.719047888997,,,,,,,,,,,,,,,,,,,,,,,,,,,,,,,,,,,,,,,,,,,,,,,,,,,,,,,,,,,,,,,,,,,,,,96919,2022-10-26_14h33.13.032,vts_reward_expectancy_bt_OFFLINE,2022.2.4,59.741760980456945,
1,0,0,0,0,0,1,0,triangle,hexagon,1,0,1,0,3,2,38,1,,,,,,,,,,,,,,,,,,,,,,,,,,,,,,,,,,,,,,,,593.2193204099895,593.2193204099895,593.2193204099895,593.2193204099895,593.2193204099895,593.2193204099895,593.2193204099895,593.2193204099895,593.2193204099895,593.2193204099895,a,0.2997358100110432,10,546,1,593.5369197039981,595.0371893179981,595.0371893179981,595.5374846299965,,,,,,,,,,,,,,,,,,,,,,,,,,,,,,,,,,,,,,,,,,,,,,,,,,,,,,,,,,,,,,,,,,,,96919,2022-10-26_14h33.13.032,vts_reward_expectancy_bt_OFFLINE,2022.2.4,59.741760980456945,
0,0,0,1,0,0,1,0,star,hexagon,1,0,1,0,3,3,39,11,,,,,,,,,,,,,,,,,,,,,,,,,,,,,,,,,,,,,,,,595.5374846299965,595.5374846299965,595.5374846299965,595.5374846299965,595.5374846299965,595.5374846299965,595.5374846299965,595.5374846299965,595.5374846299965,595.5374846299965,l,0.3179460800020024,10,556,1,595.8875619159953,597.388984085992,,,,,,,,,,,,,,,,,,,,,,,,,,,,,,,,,,,,,,,,,,,,,,,,,,,,,,,,,,,,,,,,,,,,,,96919,2022-10-26_14h33.13.032,vts_reward_expectancy_bt_OFFLINE,2022.2.4,59.741760980456945,
0,1,0,0,0,0,1,0,circle,hexagon,1,0,1,0,3,4,40,4,,,,,,,,,,,,,,,,,,,,,,,,,,,,,,,,,,,,,,,,597.8891619269998,597.8891619269998,597.8891619269998,597.8891619269998,597.8891619269998,597.8891619269998,597.8891619269998,597.8891619269998,597.8891619269998,597.8891619269998,a,0.31047100901196245,1,557,1,598.225508819989,599.7399495099962,,,,,,,,,,,,,,,,,,,,,,,,,,,,,,,,,,,,,,,,,,,,,,,,,,,,,,,,,,,,,,,,,,,,,,96919,2022-10-26_14h33.13.032,vts_reward_expectancy_bt_OFFLINE,2022.2.4,59.741760980456945,
1,0,0,0,0,0,0,1,triangle,star,1,0,1,0,3,5,41,2,,,,,,,,,,,,,,,,,,,,,,,,,,,,,,,,,,,,,,,,600.2240087909886,600.2240087909886,600.2240087909886,600.2240087909886,600.2240087909886,600.2240087909886,600.2240087909886,600.2240087909886,600.2240087909886,600.2240087909886,l,0.3436968240130227,10,567,1,600.5923527529958,602.0909297619946,602.0909297619946,,,,,,,,,,,,,,,,,,,,,,,,,,,,,,,,,,,,,,,,,,,,,,,,,,,,,,,,,,,,,,,,,,,,,96919,2022-10-26_14h33.13.032,vts_reward_expectancy_bt_OFFLINE,2022.2.4,59.741760980456945,
0,0,1,0,1,0,0,0,hexagon,triangle,1,0,1,0,3,6,42,6,,,,,,,,,,,,,,,,,,,,,,,,,,,,,,,,,,,,,,,,602.5927470099996,602.5927470099996,602.5927470099996,602.5927470099996,602.5927470099996,602.5927470099996,602.5927470099996,602.5927470099996,602.5927470099996,602.5927470099996,a,0.3425376130180666,10,577,1,602.9601203599887,604.460671791996,604.460671791996,,,,,,,,,,,,,,,,,,,,,,,,,,,,,,,,,,,,,,,,,,,,,,,,,,,,,,,,,,,,,,,,,,,,,96919,2022-10-26_14h33.13.032,vts_reward_expectancy_bt_OFFLINE,2022.2.4,59.741760980456945,
1,0,0,0,0,1,0,0,triangle,circle,1,0,1,0,3,7,43,0,,,,,,,,,,,,,,,,,,,,,,,,,,,,,,,,,,,,,,,,604.9609791389958,604.9609791389958,604.9609791389958,604.9609791389958,604.9609791389958,604.9609791389958,604.9609791389958,604.9609791389958,604.9609791389958,604.9609791389958,l,0.3752034030039795,1,578,1,605.362801264986,606.879036251994,,,,,,,,,,,,,,,,,,,,,,,,,,,,,,,,,,,,,,,,,,,,,,,,,,,,,,,,,,,,,,,,,,,,,,96919,2022-10-26_14h33.13.032,vts_reward_expectancy_bt_OFFLINE,2022.2.4,59.741760980456945,
0,0,1,0,0,1,0,0,hexagon,circle,1,0,1,0,3,8,44,7,,,,,,,,,,,,,,,,,,,,,,,,,,,,,,,,,,,,,,,,607.3635572450003,607.3635572450003,607.3635572450003,607.3635572450003,607.3635572450003,607.3635572450003,607.3635572450003,607.3635572450003,607.3635572450003,607.3635572450003,a,0.3002537720021792,10,588,1,607.6822497869871,609.1981220789894,,,,,,,,,,,,,,,,,,,,,,,,,,,,,,,,,,,,,,,,,,,,,,,,,,,,,,,,,,,,,,,,,,,,,,96919,2022-10-26_14h33.13.032,vts_reward_expectancy_bt_OFFLINE,2022.2.4,59.741760980456945,
0,0,0,1,0,1,0,0,star ,circle,1,0,1,0,3,9,45,10,,,,,,,,,,,,,,,,,,,,,,,,,,,,,,,,,,,,,,,,609.6981465559948,609.6981465559948,609.6981465559948,609.6981465559948,609.6981465559948,609.6981465559948,609.6981465559948,609.6981465559948,609.6981465559948,609.6981465559948,l,0.3496963980142027,1,589,1,610.0669969399896,611.5814798129868,,,,,,,,,,,,,,,,,,,,,,,,,,,,,,,,,,,,,,,,,,,,,,,,,,,,,,,,,,,,,,,,,,,,,,96919,2022-10-26_14h33.13.032,vts_reward_expectancy_bt_OFFLINE,2022.2.4,59.741760980456945,
0,0,0,1,1,0,0,0,star,triangle,1,0,1,0,3,10,46,9,,,,,,,,,,,,,,,,,,,,,,,,,,,,,,,,,,,,,,,,612.0817913689971,612.0817913689971,612.0817913689971,612.0817913689971,612.0817913689971,612.0817913689971,612.0817913689971,612.0817913689971,612.0817913689971,612.0817913689971,a,0.28528741501213517,1,590,1,612.3851005909964,613.8851920649904,613.8851920649904,614.3854738459922,,,,,,,,,,,,,,,,,,,,,,,,,,,,,,,,,,,,,,,,,,,,,,,,,,,,,,,,,,,,,,,,,,,,96919,2022-10-26_14h33.13.032,vts_reward_expectancy_bt_OFFLINE,2022.2.4,59.741760980456945,
0,0,1,0,0,0,0,1,hexagon,star,1,0,1,0,3,11,47,8,,,,,,,,,,,,,,,,,,,,,,,,,,,,,,,,,,,,,,,,614.3854738459922,614.3854738459922,614.3854738459922,614.3854738459922,614.3854738459922,614.3854738459922,614.3854738459922,614.3854738459922,614.3854738459922,614.3854738459922,l,0.2621938070078613,10,600,1,614.669799462994,616.1863950499974,,,,,,,,,,,,,,,,,,,,,,,,,,,,,,,,,,,,,,,,,,,,,,,,,,,,,,,,,,,,,,,,,,,,,,96919,2022-10-26_14h33.13.032,vts_reward_expectancy_bt_OFFLINE,2022.2.4,59.741760980456945,
0,0,0,1,1,0,0,0,star,triangle,2,0,2,0,0,0,0,9,,,,,,,,,,,,,,,,,,,,,,,,,,,,,,,,,,,,,,,,618.933037964991,618.933037964991,618.933037964991,618.933037964991,618.933037964991,618.933037964991,618.933037964991,618.933037964991,618.933037964991,618.933037964991,l,1.5705336530081695,10,610,2,620.5223233139986,622.0227192289894,622.0227192289894,,,,,,,,,,,,,,,,,,,,,,,,,,,,,,,,,,,,,,,,,,,,,,,,,,,,,,,,,,,,,,,,,,,,,96919,2022-10-26_14h33.13.032,vts_reward_expectancy_bt_OFFLINE,2022.2.4,59.741760980456945,
0,1,0,0,0,0,1,0,circle,hexagon,2,0,2,0,0,1,1,4,,,,,,,,,,,,,,,,,,,,,,,,,,,,,,,,,,,,,,,,622.5244581019942,622.5244581019942,622.5244581019942,622.5244581019942,622.5244581019942,622.5244581019942,622.5244581019942,622.5244581019942,622.5244581019942,622.5244581019942,l,0.3227733340172563,10,620,2,622.8747023499891,624.3751663249859,624.3751663249859,,,,,,,,,,,,,,,,,,,,,,,,,,,,,,,,,,,,,,,,,,,,,,,,,,,,,,,,,,,,,,,,,,,,,96919,2022-10-26_14h33.13.032,vts_reward_expectancy_bt_OFFLINE,2022.2.4,59.741760980456945,
0,0,0,1,0,1,0,0,star ,circle,2,0,2,0,0,2,2,10,,,,,,,,,,,,,,,,,,,,,,,,,,,,,,,,,,,,,,,,624.8755194429978,624.8755194429978,624.8755194429978,624.8755194429978,624.8755194429978,624.8755194429978,624.8755194429978,624.8755194429978,624.8755194429978,624.8755194429978,l,0.32384708400059026,1,621,2,625.2265633079951,626.7437617449905,,,,,,,,,,,,,,,,,,,,,,,,,,,,,,,,,,,,,,,,,,,,,,,,,,,,,,,,,,,,,,,,,,,,,,96919,2022-10-26_14h33.13.032,vts_reward_expectancy_bt_OFFLINE,2022.2.4,59.741760980456945,
0,0,1,0,0,0,0,1,hexagon,star,2,0,2,0,0,3,3,8,,,,,,,,,,,,,,,,,,,,,,,,,,,,,,,,,,,,,,,,627.2260714479926,627.2260714479926,627.2260714479926,627.2260714479926,627.2260714479926,627.2260714479926,627.2260714479926,627.2260714479926,627.2260714479926,627.2260714479926,a,0.6849999149999348,10,631,2,627.9308226499998,629.4454866199958,,,,,,,,,,,,,,,,,,,,,,,,,,,,,,,,,,,,,,,,,,,,,,,,,,,,,,,,,,,,,,,,,,,,,,96919,2022-10-26_14h33.13.032,vts_reward_expectancy_bt_OFFLINE,2022.2.4,59.741760980456945,
1,0,0,0,0,0,0,1,triangle,star,2,0,2,0,0,4,4,2,,,,,,,,,,,,,,,,,,,,,,,,,,,,,,,,,,,,,,,,629.9453842589865,629.9453842589865,629.9453842589865,629.9453842589865,629.9453842589865,629.9453842589865,629.9453842589865,629.9453842589865,629.9453842589865,629.9453842589865,l,0.933836735013756,1,632,2,630.897694194995,632.3992730649916,,,,,,,,,,,,,,,,,,,,,,,,,,,,,,,,,,,,,,,,,,,,,,,,,,,,,,,,,,,,,,,,,,,,,,96919,2022-10-26_14h33.13.032,vts_reward_expectancy_bt_OFFLINE,2022.2.4,59.741760980456945,
0,0,0,1,0,0,1,0,star,hexagon,2,0,2,0,0,5,5,11,,,,,,,,,,,,,,,,,,,,,,,,,,,,,,,,,,,,,,,,632.899467582989,632.899467582989,632.899467582989,632.899467582989,632.899467582989,632.899467582989,632.899467582989,632.899467582989,632.899467582989,632.899467582989,l,0.8515931529982481,10,642,2,633.7827444539871,635.2826130619942,635.2826130619942,635.7829952749889,,,,,,,,,,,,,,,,,,,,,,,,,,,,,,,,,,,,,,,,,,,,,,,,,,,,,,,,,,,,,,,,,,,,96919,2022-10-26_14h33.13.032,vts_reward_expectancy_bt_OFFLINE,2022.2.4,59.741760980456945,
1,0,0,0,0,1,0,0,triangle,circle,2,0,2,0,0,6,6,0,,,,,,,,,,,,,,,,,,,,,,,,,,,,,,,,,,,,,,,,635.7829952749889,635.7829952749889,635.7829952749889,635.7829952749889,635.7829952749889,635.7829952749889,635.7829952749889,635.7829952749889,635.7829952749889,635.7829952749889,a,0.8405679620045703,1,643,2,636.6525784889964,638.1520251559996,,,,,,,,,,,,,,,,,,,,,,,,,,,,,,,,,,,,,,,,,,,,,,,,,,,,,,,,,,,,,,,,,,,,,,96919,2022-10-26_14h33.13.032,vts_reward_expectancy_bt_OFFLINE,2022.2.4,59.741760980456945,
0,1,0,0,1,0,0,0,circle,triangle,2,0,2,0,0,7,7,3,,,,,,,,,,,,,,,,,,,,,,,,,,,,,,,,,,,,,,,,638.6523859559966,638.6523859559966,638.6523859559966,638.6523859559966,638.6523859559966,638.6523859559966,638.6523859559966,638.6523859559966,638.6523859559966,638.6523859559966,a,1.1786765890137758,1,644,2,639.8528846009867,641.3534861119988,641.3534861119988,641.8531772719871,,,,,,,,,,,,,,,,,,,,,,,,,,,,,,,,,,,,,,,,,,,,,,,,,,,,,,,,,,,,,,,,,,,,96919,2022-10-26_14h33.13.032,vts_reward_expectancy_bt_OFFLINE,2022.2.4,59.741760980456945,
0,0,1,0,1,0,0,0,hexagon,triangle,2,0,2,0,0,8,8,6,,,,,,,,,,,,,,,,,,,,,,,,,,,,,,,,,,,,,,,,641.8531772719871,641.8531772719871,641.8531772719871,641.8531772719871,641.8531772719871,641.8531772719871,641.8531772719871,641.8531772719871,641.8531772719871,641.8531772719871,l,0.6183270230103517,10,654,2,642.4902866789926,644.0072025589907,,,,,,,,,,,,,,,,,,,,,,,,,,,,,,,,,,,,,,,,,,,,,,,,,,,,,,,,,,,,,,,,,,,,,,96919,2022-10-26_14h33.13.032,vts_reward_expectancy_bt_OFFLINE,2022.2.4,59.741760980456945,
0,1,0,0,0,0,0,1,circle,star,2,0,2,0,0,9,9,5,,,,,,,,,,,,,,,,,,,,,,,,,,,,,,,,,,,,,,,,644.4895930019993,644.4895930019993,644.4895930019993,644.4895930019993,644.4895930019993,644.4895930019993,644.4895930019993,644.4895930019993,644.4895930019993,644.4895930019993,l,1.1178831650031498,1,655,2,645.6257248909969,647.1235702099948,647.1235702099948,,,,,,,,,,,,,,,,,,,,,,,,,,,,,,,,,,,,,,,,,,,,,,,,,,,,,,,,,,,,,,,,,,,,,96919,2022-10-26_14h33.13.032,vts_reward_expectancy_bt_OFFLINE,2022.2.4,59.741760980456945,
1,0,0,0,0,0,1,0,triangle,hexagon,2,0,2,0,0,10,10,1,,,,,,,,,,,,,,,,,,,,,,,,,,,,,,,,,,,,,,,,647.6263858179882,647.6263858179882,647.6263858179882,647.6263858179882,647.6263858179882,647.6263858179882,647.6263858179882,647.6263858179882,647.6263858179882,647.6263858179882,a,0.8771910370123805,10,665,2,648.5284992439992,650.0436277449917,,,,,,,,,,,,,,,,,,,,,,,,,,,,,,,,,,,,,,,,,,,,,,,,,,,,,,,,,,,,,,,,,,,,,,96919,2022-10-26_14h33.13.032,vts_reward_expectancy_bt_OFFLINE,2022.2.4,59.741760980456945,
0,0,1,0,0,1,0,0,hexagon,circle,2,0,2,0,0,11,11,7,,,,,,,,,,,,,,,,,,,,,,,,,,,,,,,,,,,,,,,,650.5439401479962,650.5439401479962,650.5439401479962,650.5439401479962,650.5439401479962,650.5439401479962,650.5439401479962,650.5439401479962,650.5439401479962,650.5439401479962,l,0.7519784250034718,10,675,2,651.3276595439966,652.8291424529889,,,,,,,,,,,,,,,,,,,,,,,,,,,,,,,,,,,,,,,,,,,,,,,,,,,,,,,,,,,,,,,,,,,,,,96919,2022-10-26_14h33.13.032,vts_reward_expectancy_bt_OFFLINE,2022.2.4,59.741760980456945,
1,0,0,0,0,1,0,0,triangle,circle,2,0,2,0,1,0,12,0,,,,,,,,,,,,,,,,,,,,,,,,,,,,,,,,,,,,,,,,653.3294021889888,653.3294021889888,653.3294021889888,653.3294021889888,653.3294021889888,653.3294021889888,653.3294021889888,653.3294021889888,653.3294021889888,653.3294021889888,a,0.7338590650033439,10,685,2,654.0808223789936,655.5801764009957,655.5801764009957,656.0803005339985,,,,,,,,,,,,,,,,,,,,,,,,,,,,,,,,,,,,,,,,,,,,,,,,,,,,,,,,,,,,,,,,,,,,96919,2022-10-26_14h33.13.032,vts_reward_expectancy_bt_OFFLINE,2022.2.4,59.741760980456945,
0,0,0,1,0,1,0,0,star ,circle,2,0,2,0,1,1,13,10,,,,,,,,,,,,,,,,,,,,,,,,,,,,,,,,,,,,,,,,656.0803005339985,656.0803005339985,656.0803005339985,656.0803005339985,656.0803005339985,656.0803005339985,656.0803005339985,656.0803005339985,656.0803005339985,656.0803005339985,a,1.0468298400082858,10,695,2,657.1479027169989,658.6504910369986,,,,,,,,,,,,,,,,,,,,,,,,,,,,,,,,,,,,,,,,,,,,,,,,,,,,,,,,,,,,,,,,,,,,,,96919,2022-10-26_14h33.13.032,vts_reward_expectancy_bt_OFFLINE,2022.2.4,59.741760980456945,
0,0,1,0,0,1,0,0,hexagon,circle,2,0,2,0,1,2,14,7,,,,,,,,,,,,,,,,,,,,,,,,,,,,,,,,,,,,,,,,659.1504969449888,659.1504969449888,659.1504969449888,659.1504969449888,659.1504969449888,659.1504969449888,659.1504969449888,659.1504969449888,659.1504969449888,659.1504969449888,l,1.0087183460127562,10,705,2,660.1846323869977,661.6852646219922,661.6852646219922,662.1852888739959,,,,,,,,,,,,,,,,,,,,,,,,,,,,,,,,,,,,,,,,,,,,,,,,,,,,,,,,,,,,,,,,,,,,96919,2022-10-26_14h33.13.032,vts_reward_expectancy_bt_OFFLINE,2022.2.4,59.741760980456945,
0,0,0,1,0,0,1,0,star,hexagon,2,0,2,0,1,3,15,11,,,,,,,,,,,,,,,,,,,,,,,,,,,,,,,,,,,,,,,,662.1852888739959,662.1852888739959,662.1852888739959,662.1852888739959,662.1852888739959,662.1852888739959,662.1852888739959,662.1852888739959,662.1852888739959,662.1852888739959,a,1.1022889480082085,1,706,2,663.3214888999937,664.8221453839942,664.8221453839942,665.3221239409904,,,,,,,,,,,,,,,,,,,,,,,,,,,,,,,,,,,,,,,,,,,,,,,,,,,,,,,,,,,,,,,,,,,,96919,2022-10-26_14h33.13.032,vts_reward_expectancy_bt_OFFLINE,2022.2.4,59.741760980456945,
1,0,0,0,0,0,0,1,triangle,star,2,0,2,0,1,4,16,2,,,,,,,,,,,,,,,,,,,,,,,,,,,,,,,,,,,,,,,,665.3221239409904,665.3221239409904,665.3221239409904,665.3221239409904,665.3221239409904,665.3221239409904,665.3221239409904,665.3221239409904,665.3221239409904,665.3221239409904,l,1.3089784830081044,1,707,2,666.6550428639894,668.1574831559992,,,,,,,,,,,,,,,,,,,,,,,,,,,,,,,,,,,,,,,,,,,,,,,,,,,,,,,,,,,,,,,,,,,,,,96919,2022-10-26_14h33.13.032,vts_reward_expectancy_bt_OFFLINE,2022.2.4,59.741760980456945,
0,0,0,1,1,0,0,0,star,triangle,2,0,2,0,1,5,17,9,,,,,,,,,,,,,,,,,,,,,,,,,,,,,,,,,,,,,,,,668.6579436189932,668.6579436189932,668.6579436189932,668.6579436189932,668.6579436189932,668.6579436189932,668.6579436189932,668.6579436189932,668.6579436189932,668.6579436189932,a,0.949155337002594,1,708,2,669.6248592099873,671.1248718259885,671.1248718259885,671.6250016949925,,,,,,,,,,,,,,,,,,,,,,,,,,,,,,,,,,,,,,,,,,,,,,,,,,,,,,,,,,,,,,,,,,,,96919,2022-10-26_14h33.13.032,vts_reward_expectancy_bt_OFFLINE,2022.2.4,59.741760980456945,
0,1,0,0,0,0,1,0,circle,hexagon,2,0,2,0,1,6,18,4,,,,,,,,,,,,,,,,,,,,,,,,,,,,,,,,,,,,,,,,671.6250016949925,671.6250016949925,671.6250016949925,671.6250016949925,671.6250016949925,671.6250016949925,671.6250016949925,671.6250016949925,671.6250016949925,671.6250016949925,a,0.990233951000846,1,709,2,672.6450482849905,674.1443202859955,674.1443202859955,674.6444374860002,,,,,,,,,,,,,,,,,,,,,,,,,,,,,,,,,,,,,,,,,,,,,,,,,,,,,,,,,,,,,,,,,,,,96919,2022-10-26_14h33.13.032,vts_reward_expectancy_bt_OFFLINE,2022.2.4,59.741760980456945,
1,0,0,0,0,0,1,0,triangle,hexagon,2,0,2,0,1,7,19,1,,,,,,,,,,,,,,,,,,,,,,,,,,,,,,,,,,,,,,,,674.6444374860002,674.6444374860002,674.6444374860002,674.6444374860002,674.6444374860002,674.6444374860002,674.6444374860002,674.6444374860002,674.6444374860002,674.6444374860002,l,0.9312553880154155,10,719,2,675.5981294099911,677.1129247539939,,,,,,,,,,,,,,,,,,,,,,,,,,,,,,,,,,,,,,,,,,,,,,,,,,,,,,,,,,,,,,,,,,,,,,96919,2022-10-26_14h33.13.032,vts_reward_expectancy_bt_OFFLINE,2022.2.4,59.741760980456945,
0,0,1,0,1,0,0,0,hexagon,triangle,2,0,2,0,1,8,20,6,,,,,,,,,,,,,,,,,,,,,,,,,,,,,,,,,,,,,,,,677.5973174569954,677.5973174569954,677.5973174569954,677.5973174569954,677.5973174569954,677.5973174569954,677.5973174569954,677.5973174569954,677.5973174569954,677.5973174569954,l,1.7946578250121092,1,720,2,679.4171197989926,680.9333553799952,,,,,,,,,,,,,,,,,,,,,,,,,,,,,,,,,,,,,,,,,,,,,,,,,,,,,,,,,,,,,,,,,,,,,,96919,2022-10-26_14h33.13.032,vts_reward_expectancy_bt_OFFLINE,2022.2.4,59.741760980456945,
0,1,0,0,1,0,0,0,circle,triangle,2,0,2,0,1,9,21,3,,,,,,,,,,,,,,,,,,,,,,,,,,,,,,,,,,,,,,,,681.4334038759989,681.4334038759989,681.4334038759989,681.4334038759989,681.4334038759989,681.4334038759989,681.4334038759989,681.4334038759989,681.4334038759989,681.4334038759989,a,0.5504757900052937,1,721,2,682.0003154239967,683.5022699539986,,,,,,,,,,,,,,,,,,,,,,,,,,,,,,,,,,,,,,,,,,,,,,,,,,,,,,,,,,,,,,,,,,,,,,96919,2022-10-26_14h33.13.032,vts_reward_expectancy_bt_OFFLINE,2022.2.4,59.741760980456945,
0,0,1,0,0,0,0,1,hexagon,star,2,0,2,0,1,10,22,8,,,,,,,,,,,,,,,,,,,,,,,,,,,,,,,,,,,,,,,,684.0024902239966,684.0024902239966,684.0024902239966,684.0024902239966,684.0024902239966,684.0024902239966,684.0024902239966,684.0024902239966,684.0024902239966,684.0024902239966,l,0.605565721009043,10,731,2,684.6376316119859,686.1529570659914,,,,,,,,,,,,,,,,,,,,,,,,,,,,,,,,,,,,,,,,,,,,,,,,,,,,,,,,,,,,,,,,,,,,,,96919,2022-10-26_14h33.13.032,vts_reward_expectancy_bt_OFFLINE,2022.2.4,59.741760980456945,
0,1,0,0,0,0,0,1,circle,star,2,0,2,0,1,11,23,5,,,,,,,,,,,,,,,,,,,,,,,,,,,,,,,,,,,,,,,,686.6534087879991,686.6534087879991,686.6534087879991,686.6534087879991,686.6534087879991,686.6534087879991,686.6534087879991,686.6534087879991,686.6534087879991,686.6534087879991,l,0.48267780800233595,1,732,2,687.1557837869914,688.6550005569879,,,,,,,,,,,,,,,,,,,,,,,,,,,,,,,,,,,,,,,,,,,,,,,,,,,,,,,,,,,,,,,,,,,,,,96919,2022-10-26_14h33.13.032,vts_reward_expectancy_bt_OFFLINE,2022.2.4,59.741760980456945,
0,1,0,0,0,0,1,0,circle,hexagon,2,0,2,0,2,0,24,4,,,,,,,,,,,,,,,,,,,,,,,,,,,,,,,,,,,,,,,,689.1551701919961,689.1551701919961,689.1551701919961,689.1551701919961,689.1551701919961,689.1551701919961,689.1551701919961,689.1551701919961,689.1551701919961,689.1551701919961,a,0.31641952601785306,10,742,2,689.4924597879872,691.005835923992,,,,,,,,,,,,,,,,,,,,,,,,,,,,,,,,,,,,,,,,,,,,,,,,,,,,,,,,,,,,,,,,,,,,,,96919,2022-10-26_14h33.13.032,vts_reward_expectancy_bt_OFFLINE,2022.2.4,59.741760980456945,
0,0,0,1,1,0,0,0,star,triangle,2,0,2,0,2,1,25,9,,,,,,,,,,,,,,,,,,,,,,,,,,,,,,,,,,,,,,,,691.4907927569875,691.4907927569875,691.4907927569875,691.4907927569875,691.4907927569875,691.4907927569875,691.4907927569875,691.4907927569875,691.4907927569875,691.4907927569875,a,1.788894106997759,10,752,2,693.3095541239891,694.8099137889949,694.8099137889949,,,,,,,,,,,,,,,,,,,,,,,,,,,,,,,,,,,,,,,,,,,,,,,,,,,,,,,,,,,,,,,,,,,,,96919,2022-10-26_14h33.13.032,vts_reward_expectancy_bt_OFFLINE,2022.2.4,59.741760980456945,
1,0,0,0,0,0,0,1,triangle,star,2,0,2,0,2,2,26,2,,,,,,,,,,,,,,,,,,,,,,,,,,,,,,,,,,,,,,,,695.3100998029986,695.3100998029986,695.3100998029986,695.3100998029986,695.3100998029986,695.3100998029986,695.3100998029986,695.3100998029986,695.3100998029986,695.3100998029986,l,0.952952018022188,1,753,2,696.2955001609953,697.7965069309867,,,,,,,,,,,,,,,,,,,,,,,,,,,,,,,,,,,,,,,,,,,,,,,,,,,,,,,,,,,,,,,,,,,,,,96919,2022-10-26_14h33.13.032,vts_reward_expectancy_bt_OFFLINE,2022.2.4,59.741760980456945,
0,1,0,0,1,0,0,0,circle,triangle,2,0,2,0,2,3,27,3,,,,,,,,,,,,,,,,,,,,,,,,,,,,,,,,,,,,,,,,698.2968322050001,698.2968322050001,698.2968322050001,698.2968322050001,698.2968322050001,698.2968322050001,698.2968322050001,698.2968322050001,698.2968322050001,698.2968322050001,a,0.3586882610106841,1,754,2,698.679564015998,700.1799477339955,700.1799477339955,,,,,,,,,,,,,,,,,,,,,,,,,,,,,,,,,,,,,,,,,,,,,,,,,,,,,,,,,,,,,,,,,,,,,96919,2022-10-26_14h33.13.032,vts_reward_expectancy_bt_OFFLINE,2022.2.4,59.741760980456945,
1,0,0,0,0,0,1,0,triangle,hexagon,2,0,2,0,2,4,28,1,,,,,,,,,,,,,,,,,,,,,,,,,,,,,,,,,,,,,,,,700.6802386599884,700.6802386599884,700.6802386599884,700.6802386599884,700.6802386599884,700.6802386599884,700.6802386599884,700.6802386599884,700.6802386599884,700.6802386599884,l,0.2317387720104307,10,764,2,700.9320981039928,702.432823154988,,,,,,,,,,,,,,,,,,,,,,,,,,,,,,,,,,,,,,,,,,,,,,,,,,,,,,,,,,,,,,,,,,,,,,96919,2022-10-26_14h33.13.032,vts_reward_expectancy_bt_OFFLINE,2022.2.4,59.741760980456945,
0,0,1,0,0,0,0,1,hexagon,star,2,0,2,0,2,5,29,8,,,,,,,,,,,,,,,,,,,,,,,,,,,,,,,,,,,,,,,,702.9328830389859,702.9328830389859,702.9328830389859,702.9328830389859,702.9328830389859,702.9328830389859,702.9328830389859,702.9328830389859,702.9328830389859,702.9328830389859,l,0.9626388590113493,10,774,2,703.9174941279925,705.417468656,705.417468656,705.9176926479995,,,,,,,,,,,,,,,,,,,,,,,,,,,,,,,,,,,,,,,,,,,,,,,,,,,,,,,,,,,,,,,,,,,,96919,2022-10-26_14h33.13.032,vts_reward_expectancy_bt_OFFLINE,2022.2.4,59.741760980456945,
1,0,0,0,0,1,0,0,triangle,circle,2,0,2,0,2,6,30,0,,,,,,,,,,,,,,,,,,,,,,,,,,,,,,,,,,,,,,,,705.9176926479995,705.9176926479995,705.9176926479995,705.9176926479995,705.9176926479995,705.9176926479995,705.9176926479995,705.9176926479995,705.9176926479995,705.9176926479995,l,1.1933990350080421,10,784,2,707.1352479319903,708.6369484519964,,,,,,,,,,,,,,,,,,,,,,,,,,,,,,,,,,,,,,,,,,,,,,,,,,,,,,,,,,,,,,,,,,,,,,96919,2022-10-26_14h33.13.032,vts_reward_expectancy_bt_OFFLINE,2022.2.4,59.741760980456945,
0,0,0,1,0,0,1,0,star,hexagon,2,0,2,0,2,7,31,11,,,,,,,,,,,,,,,,,,,,,,,,,,,,,,,,,,,,,,,,709.137075969993,709.137075969993,709.137075969993,709.137075969993,709.137075969993,709.137075969993,709.137075969993,709.137075969993,709.137075969993,709.137075969993,l,0.7589727980084717,10,794,2,709.9214173419896,711.420574097996,711.420574097996,711.9204765449977,,,,,,,,,,,,,,,,,,,,,,,,,,,,,,,,,,,,,,,,,,,,,,,,,,,,,,,,,,,,,,,,,,,,96919,2022-10-26_14h33.13.032,vts_reward_expectancy_bt_OFFLINE,2022.2.4,59.741760980456945,
0,1,0,0,0,0,0,1,circle,star,2,0,2,0,2,8,32,5,,,,,,,,,,,,,,,,,,,,,,,,,,,,,,,,,,,,,,,,711.9204765449977,711.9204765449977,711.9204765449977,711.9204765449977,711.9204765449977,711.9204765449977,711.9204765449977,711.9204765449977,711.9204765449977,711.9204765449977,l,1.1507208510156488,1,795,2,713.0928897839913,714.6073547349952,,,,,,,,,,,,,,,,,,,,,,,,,,,,,,,,,,,,,,,,,,,,,,,,,,,,,,,,,,,,,,,,,,,,,,96919,2022-10-26_14h33.13.032,vts_reward_expectancy_bt_OFFLINE,2022.2.4,59.741760980456945,
0,0,1,0,1,0,0,0,hexagon,triangle,2,0,2,0,2,9,33,6,,,,,,,,,,,,,,,,,,,,,,,,,,,,,,,,,,,,,,,,715.1073631939944,715.1073631939944,715.1073631939944,715.1073631939944,715.1073631939944,715.1073631939944,715.1073631939944,715.1073631939944,715.1073631939944,715.1073631939944,a,0.33168780301639345,10,805,2,715.4601104399917,716.9753314629925,,,,,,,,,,,,,,,,,,,,,,,,,,,,,,,,,,,,,,,,,,,,,,,,,,,,,,,,,,,,,,,,,,,,,,96919,2022-10-26_14h33.13.032,vts_reward_expectancy_bt_OFFLINE,2022.2.4,59.741760980456945,
0,0,1,0,0,1,0,0,hexagon,circle,2,0,2,0,2,10,34,7,,,,,,,,,,,,,,,,,,,,,,,,,,,,,,,,,,,,,,,,717.4612925639958,717.4612925639958,717.4612925639958,717.4612925639958,717.4612925639958,717.4612925639958,717.4612925639958,717.4612925639958,717.4612925639958,717.4612925639958,a,0.2750887750153197,10,815,2,717.7618389119889,719.2618736519944,719.2618736519944,719.7616656789905,,,,,,,,,,,,,,,,,,,,,,,,,,,,,,,,,,,,,,,,,,,,,,,,,,,,,,,,,,,,,,,,,,,,96919,2022-10-26_14h33.13.032,vts_reward_expectancy_bt_OFFLINE,2022.2.4,59.741760980456945,
0,0,0,1,0,1,0,0,star ,circle,2,0,2,0,2,11,35,10,,,,,,,,,,,,,,,,,,,,,,,,,,,,,,,,,,,,,,,,719.7616656789905,719.7616656789905,719.7616656789905,719.7616656789905,719.7616656789905,719.7616656789905,719.7616656789905,719.7616656789905,719.7616656789905,719.7616656789905,a,0.31787978700594977,10,825,2,720.1123961639969,721.6125500719936,721.6125500719936,722.1126612659864,,,,,,,,,,,,,,,,,,,,,,,,,,,,,,,,,,,,,,,,,,,,,,,,,,,,,,,,,,,,,,,,,,,,96919,2022-10-26_14h33.13.032,vts_reward_expectancy_bt_OFFLINE,2022.2.4,59.741760980456945,
0,1,0,0,0,0,0,1,circle,star,2,0,2,0,3,0,36,5,,,,,,,,,,,,,,,,,,,,,,,,,,,,,,,,,,,,,,,,722.1126612659864,722.1126612659864,722.1126612659864,722.1126612659864,722.1126612659864,722.1126612659864,722.1126612659864,722.1126612659864,722.1126612659864,722.1126612659864,a,0.3510142260201974,10,835,2,722.481562571993,723.9811180199904,723.9811180199904,724.4814478989865,,,,,,,,,,,,,,,,,,,,,,,,,,,,,,,,,,,,,,,,,,,,,,,,,,,,,,,,,,,,,,,,,,,,96919,2022-10-26_14h33.13.032,vts_reward_expectancy_bt_OFFLINE,2022.2.4,59.741760980456945,
0,0,1,0,1,0,0,0,hexagon,triangle,2,0,2,0,3,1,37,6,,,,,,,,,,,,,,,,,,,,,,,,,,,,,,,,,,,,,,,,724.4814478989865,724.4814478989865,724.4814478989865,724.4814478989865,724.4814478989865,724.4814478989865,724.4814478989865,724.4814478989865,724.4814478989865,724.4814478989865,a,0.26152126101078466,10,845,2,724.7650054729893,726.2651130799932,726.2651130799932,726.7651718339912,,,,,,,,,,,,,,,,,,,,,,,,,,,,,,,,,,,,,,,,,,,,,,,,,,,,,,,,,,,,,,,,,,,,96919,2022-10-26_14h33.13.032,vts_reward_expectancy_bt_OFFLINE,2022.2.4,59.741760980456945,
0,1,0,0,1,0,0,0,circle,triangle,2,0,2,0,3,2,38,3,,,,,,,,,,,,,,,,,,,,,,,,,,,,,,,,,,,,,,,,726.7651718339912,726.7651718339912,726.7651718339912,726.7651718339912,726.7651718339912,726.7651718339912,726.7651718339912,726.7651718339912,726.7651718339912,726.7651718339912,a,0.28275056202255655,1,846,2,727.0679354369931,728.5687987860001,,,,,,,,,,,,,,,,,,,,,,,,,,,,,,,,,,,,,,,,,,,,,,,,,,,,,,,,,,,,,,,,,,,,,,96919,2022-10-26_14h33.13.032,vts_reward_expectancy_bt_OFFLINE,2022.2.4,59.741760980456945,
1,0,0,0,0,1,0,0,triangle,circle,2,0,2,0,3,3,39,0,,,,,,,,,,,,,,,,,,,,,,,,,,,,,,,,,,,,,,,,729.0690164059924,729.0690164059924,729.0690164059924,729.0690164059924,729.0690164059924,729.0690164059924,729.0690164059924,729.0690164059924,729.0690164059924,729.0690164059924,l,0.28997958201216534,1,847,2,729.3857799749967,730.8850410039886,730.8850410039886,731.3849800179887,,,,,,,,,,,,,,,,,,,,,,,,,,,,,,,,,,,,,,,,,,,,,,,,,,,,,,,,,,,,,,,,,,,,96919,2022-10-26_14h33.13.032,vts_reward_expectancy_bt_OFFLINE,2022.2.4,59.741760980456945,
0,1,0,0,0,0,1,0,circle,hexagon,2,0,2,0,3,4,40,4,,,,,,,,,,,,,,,,,,,,,,,,,,,,,,,,,,,,,,,,731.3849800179887,731.3849800179887,731.3849800179887,731.3849800179887,731.3849800179887,731.3849800179887,731.3849800179887,731.3849800179887,731.3849800179887,731.3849800179887,a,0.39121548501134384,1,848,2,731.8024228369904,733.3049997849885,,,,,,,,,,,,,,,,,,,,,,,,,,,,,,,,,,,,,,,,,,,,,,,,,,,,,,,,,,,,,,,,,,,,,,96919,2022-10-26_14h33.13.032,vts_reward_expectancy_bt_OFFLINE,2022.2.4,59.741760980456945,
1,0,0,0,0,0,0,1,triangle,star,2,0,2,0,3,5,41,2,,,,,,,,,,,,,,,,,,,,,,,,,,,,,,,,,,,,,,,,733.8052185519919,733.8052185519919,733.8052185519919,733.8052185519919,733.8052185519919,733.8052185519919,733.8052185519919,733.8052185519919,733.8052185519919,733.8052185519919,a,0.24995401600608602,1,849,2,734.0725348709966,735.571831985988,735.571831985988,736.0721114560001,,,,,,,,,,,,,,,,,,,,,,,,,,,,,,,,,,,,,,,,,,,,,,,,,,,,,,,,,,,,,,,,,,,,96919,2022-10-26_14h33.13.032,vts_reward_expectancy_bt_OFFLINE,2022.2.4,59.741760980456945,
0,0,0,1,0,1,0,0,star ,circle,2,0,2,0,3,6,42,10,,,,,,,,,,,,,,,,,,,,,,,,,,,,,,,,,,,,,,,,736.0721114560001,736.0721114560001,736.0721114560001,736.0721114560001,736.0721114560001,736.0721114560001,736.0721114560001,736.0721114560001,736.0721114560001,736.0721114560001,l,0.2868340200075181,10,859,2,736.3920444809919,737.8910670019977,,,,,,,,,,,,,,,,,,,,,,,,,,,,,,,,,,,,,,,,,,,,,,,,,,,,,,,,,,,,,,,,,,,,,,96919,2022-10-26_14h33.13.032,vts_reward_expectancy_bt_OFFLINE,2022.2.4,59.741760980456945,
0,0,1,0,0,1,0,0,hexagon,circle,2,0,2,0,3,7,43,7,,,,,,,,,,,,,,,,,,,,,,,,,,,,,,,,,,,,,,,,738.3912003049918,738.3912003049918,738.3912003049918,738.3912003049918,738.3912003049918,738.3912003049918,738.3912003049918,738.3912003049918,738.3912003049918,738.3912003049918,l,0.2650409300113097,1,860,2,738.6786531019898,740.1919153709896,,,,,,,,,,,,,,,,,,,,,,,,,,,,,,,,,,,,,,,,,,,,,,,,,,,,,,,,,,,,,,,,,,,,,,96919,2022-10-26_14h33.13.032,vts_reward_expectancy_bt_OFFLINE,2022.2.4,59.741760980456945,
0,0,0,1,0,0,1,0,star,hexagon,2,0,2,0,3,8,44,11,,,,,,,,,,,,,,,,,,,,,,,,,,,,,,,,,,,,,,,,740.6920112519874,740.6920112519874,740.6920112519874,740.6920112519874,740.6920112519874,740.6920112519874,740.6920112519874,740.6920112519874,740.6920112519874,740.6920112519874,a,0.3711238260148093,1,861,2,741.0936970409966,742.5955266089877,,,,,,,,,,,,,,,,,,,,,,,,,,,,,,,,,,,,,,,,,,,,,,,,,,,,,,,,,,,,,,,,,,,,,,96919,2022-10-26_14h33.13.032,vts_reward_expectancy_bt_OFFLINE,2022.2.4,59.741760980456945,
1,0,0,0,0,0,1,0,triangle,hexagon,2,0,2,0,3,9,45,1,,,,,,,,,,,,,,,,,,,,,,,,,,,,,,,,,,,,,,,,743.0957874739979,743.0957874739979,743.0957874739979,743.0957874739979,743.0957874739979,743.0957874739979,743.0957874739979,743.0957874739979,743.0957874739979,743.0957874739979,l,0.19235527999990154,10,871,2,743.3150636819919,744.8304272359965,,,,,,,,,,,,,,,,,,,,,,,,,,,,,,,,,,,,,,,,,,,,,,,,,,,,,,,,,,,,,,,,,,,,,,96919,2022-10-26_14h33.13.032,vts_reward_expectancy_bt_OFFLINE,2022.2.4,59.741760980456945,
0,0,1,0,0,0,0,1,hexagon,star,2,0,2,0,3,10,46,8,,,,,,,,,,,,,,,,,,,,,,,,,,,,,,,,,,,,,,,,745.330354922,745.330354922,745.330354922,745.330354922,745.330354922,745.330354922,745.330354922,745.330354922,745.330354922,745.330354922,a,0.24515628600784112,10,881,2,745.5972492529982,747.0962358299876,747.0962358299876,,,,,,,,,,,,,,,,,,,,,,,,,,,,,,,,,,,,,,,,,,,,,,,,,,,,,,,,,,,,,,,,,,,,,96919,2022-10-26_14h33.13.032,vts_reward_expectancy_bt_OFFLINE,2022.2.4,59.741760980456945,
0,0,0,1,1,0,0,0,star,triangle,2,0,2,0,3,11,47,9,,,,,,,,,,,,,,,,,,,,,,,,,,,,,,,,,,,,,,,,747.5992588809895,747.5992588809895,747.5992588809895,747.5992588809895,747.5992588809895,747.5992588809895,747.5992588809895,747.5992588809895,747.5992588809895,747.5992588809895,a,0.04853336101223249,1,882,2,747.6806714009872,749.165608100986,,,,,,,,,,,,,,,,,,,,,,,,,,,,,,,,,,,,,,,,,,,,,,,,,,,,,,,,,,,,,,,,,,,,,,96919,2022-10-26_14h33.13.032,vts_reward_expectancy_bt_OFFLINE,2022.2.4,59.741760980456945,
,,,,,,,,,,,,,,,,,,0,0,0,0,0,0,0,0,,,,,,,,,,,,,,,,,,,,,,,,,,,,,,,,,,,,,,,,,,,,,,,,789.7795097279886,,,174,B,hexagon,0.0014904830022715032,784.4873415079928,785.9748414969945,785.9748414969945,785.9748414969945,0,0,d,2.265235840008245,0,788.2644527629891,,,,,,,,,,,,,,,,,,,,,,,,,,,,,,,,,,,,,,,,,,,,,,,,,,,,,,96919,2022-10-26_14h33.13.032,vts_reward_expectancy_bt_OFFLINE,2022.2.4,59.741760980456945,
,,,,,,,,,,,,,,,,,,0,0,0,0,1,0,1,0,,,,,,,,,,,,,,,,,,,,,,,,,,,,,,,,,,,,,,,,,,,,,,,,795.8988360129879,,,139,D,triangle,0.016664554001181386,790.7745618089975,792.2459559749987,792.2459559749987,792.2459559749987,1,1,d,2.1132114920037566,0,794.38644514099,,,,,,,,,,,,,,,,,,,,,,,,,,,,,,,,,,,,,,,,,,,,,,,,,,,,,,96919,2022-10-26_14h33.13.032,vts_reward_expectancy_bt_OFFLINE,2022.2.4,59.741760980456945,
,,,,,,,,,,,,,,,,,,0,0,0,0,2,0,2,0,,,,,,,,,,,,,,,,,,,,,,,,,,,,,,,,,,,,,,,,,,,,,,,,801.053505259988,,,132,Y,star,0.017853541008662432,796.8962577859929,798.3696491619921,798.3696491619921,798.3696491619921,0,0,f,1.1420022750098724,0,799.5387749479996,,,,,,,,,,,,,,,,,,,,,,,,,,,,,,,,,,,,,,,,,,,,,,,,,,,,,,96919,2022-10-26_14h33.13.032,vts_reward_expectancy_bt_OFFLINE,2022.2.4,59.741760980456945,
,,,,,,,,,,,,,,,,,,0,0,0,0,3,0,3,0,,,,,,,,,,,,,,,,,,,,,,,,,,,,,,,,,,,,,,,,,,,,,,,,807.5756179739983,,,167,F,circle,0.015200284993625246,802.0485480899952,803.5233341849962,803.5233341849962,803.5233341849962,1,1,f,2.5245085080096032,0,806.0772432649974,,,,,,,,,,,,,,,,,,,,,,,,,,,,,,,,,,,,,,,,,,,,,,,,,,,,,,96919,2022-10-26_14h33.13.032,vts_reward_expectancy_bt_OFFLINE,2022.2.4,59.741760980456945,
,,,,,,,,,,,,,,,,,,0,0,0,0,4,0,4,0,,,,,,,,,,,,,,,,,,,,,,,,,,,,,,,,,,,,,,,,,,,,,,,,813.1457249009982,,,125,U,star,0.0022814569965703413,808.571496272998,810.0595671889896,810.0595671889896,810.0595671889896,1,0,d,1.5636189340002602,0,811.6452042009914,,,,,,,,,,,,,,,,,,,,,,,,,,,,,,,,,,,,,,,,,,,,,,,,,,,,,,96919,2022-10-26_14h33.13.032,vts_reward_expectancy_bt_OFFLINE,2022.2.4,59.741760980456945,
,,,,,,,,,,,,,,,,,,0,0,0,0,5,0,5,0,,,,,,,,,,,,,,,,,,,,,,,,,,,,,,,,,,,,,,,,,,,,,,,,819.8349117289908,,,146,H,circle,0.0027731580048566684,814.1419411009992,815.6307860859961,815.6307860859961,815.6307860859961,0,0,f,2.66516869100451,0,818.3193142620003,,,,,,,,,,,,,,,,,,,,,,,,,,,,,,,,,,,,,,,,,,,,,,,,,,,,,,96919,2022-10-26_14h33.13.032,vts_reward_expectancy_bt_OFFLINE,2022.2.4,59.741760980456945,
,,,,,,,,,,,,,,,,,,0,0,0,0,6,0,6,0,,,,,,,,,,,,,,,,,,,,,,,,,,,,,,,,,,,,,,,,,,,,,,,,824.9711793809984,,,181,W,triangle,0.016859241004567593,820.8299026569875,822.3014306259865,822.3014306259865,822.3014306259865,1,1,f,1.1304323290096363,0,823.4568521689944,,,,,,,,,,,,,,,,,,,,,,,,,,,,,,,,,,,,,,,,,,,,,,,,,,,,,,96919,2022-10-26_14h33.13.032,vts_reward_expectancy_bt_OFFLINE,2022.2.4,59.741760980456945,
,,,,,,,,,,,,,,,,,,0,0,0,0,7,0,7,0,,,,,,,,,,,,,,,,,,,,,,,,,,,,,,,,,,,,,,,,,,,,,,,,831.6253857470001,,,160,S,hexagon,0.01563656701182481,825.9665784079989,827.4439448129997,827.4439448129997,827.4439448129997,1,0,f,2.643065521013341,0,830.1249818029901,,,,,,,,,,,,,,,,,,,,,,,,,,,,,,,,,,,,,,,,,,,,,,,,,,,,,,96919,2022-10-26_14h33.13.032,vts_reward_expectancy_bt_OFFLINE,2022.2.4,59.741760980456945,
,,,,,,,,,,,,,,,,,,0,0,0,0,8,0,8,0,,,,,,,,,,,,,,,,,,,,,,,,,,,,,,,,,,,,,,,,,,,,,,,,836.7624803079962,,837.262427344991,174,B,triangle,0.001442567998310551,832.6208832559932,834.1113701939903,834.1113701939903,834.1113701939903,1,0,f,1.1276372320135124,0,835.2627531639882,836.7624803079962,,,,,,,,,,,,,,,,,,,,,,,,,,,,,,,,,,,,,,,,,,,,,,,,,,,,,96919,2022-10-26_14h33.13.032,vts_reward_expectancy_bt_OFFLINE,2022.2.4,59.741760980456945,
,,,,,,,,,,,,,,,,,,0,0,0,0,9,0,9,0,,,,,,,,,,,,,,,,,,,,,,,,,,,,,,,,,,,,,,,,,,,,,,,,841.3822148119943,,,139,D,star,0.0004463799996301532,837.7577188329888,839.248328384987,839.248328384987,839.248328384987,1,0,d,0.6075735640188213,0,839.8824562399968,,,,,,,,,,,,,,,,,,,,,,,,,,,,,,,,,,,,,,,,,,,,,,,,,,,,,,96919,2022-10-26_14h33.13.032,vts_reward_expectancy_bt_OFFLINE,2022.2.4,59.741760980456945,
,,,,,,,,,,,,,,,,,,1,0,1,0,0,0,0,0,,,,,,,,,,,,,,,,,,,,,,,,,,,,,,,,,,,,,,,,,,,,,,,,854.0922785169969,,854.5922703409888,174,B,star,0.0006648010021308437,850.252070972987,851.7400955419871,851.7400955419871,851.7400955419871,1,0,f,0.8279204420105089,1,852.5923651719932,854.0922785169969,,,,,,,,,,,,,,,,,,,,,,,,,,,,,,,,,,,,,,,,,,,,,,,,,,,,,96919,2022-10-26_14h33.13.032,vts_reward_expectancy_bt_OFFLINE,2022.2.4,59.741760980456945,
,,,,,,,,,,,,,,,,,,1,0,1,0,1,0,1,0,,,,,,,,,,,,,,,,,,,,,,,,,,,,,,,,,,,,,,,,,,,,,,,,859.7127478369948,,860.2128168519994,146,F,hexagon,0.00033783999970182776,855.087751797997,856.5765086009924,856.5765086009924,856.5765086009924,1,0,d,1.6147025810059858,1,858.2132646589889,859.7127478369948,,,,,,,,,,,,,,,,,,,,,,,,,,,,,,,,,,,,,,,,,,,,,,,,,,,,,96919,2022-10-26_14h33.13.032,vts_reward_expectancy_bt_OFFLINE,2022.2.4,59.741760980456945,
,,,,,,,,,,,,,,,,,,1,0,1,0,2,0,2,0,,,,,,,,,,,,,,,,,,,,,,,,,,,,,,,,,,,,,,,,,,,,,,,,864.7327726349904,,,181,U,circle,0.00021591399854514748,860.7092564649938,862.1966047129972,862.1966047129972,862.1966047129972,1,0,f,0.9947250360128237,1,863.2177117149986,,,,,,,,,,,,,,,,,,,,,,,,,,,,,,,,,,,,,,,,,,,,,,,,,,,,,,96919,2022-10-26_14h33.13.032,vts_reward_expectancy_bt_OFFLINE,2022.2.4,59.741760980456945,
,,,,,,,,,,,,,,,,,,1,0,1,0,3,0,3,0,,,,,,,,,,,,,,,,,,,,,,,,,,,,,,,,,,,,,,,,,,,,,,,,870.0372782249906,,,167,W,triangle,0.01780549499380868,865.7296890359867,867.2005840229976,867.2005840229976,867.2005840229976,1,0,f,1.3027612940059043,1,868.5212814029946,,,,,,,,,,,,,,,,,,,,,,,,,,,,,,,,,,,,,,,,,,,,,,,,,,,,,,96919,2022-10-26_14h33.13.032,vts_reward_expectancy_bt_OFFLINE,2022.2.4,59.741760980456945,
,,,,,,,,,,,,,,,,,,1,0,1,0,4,0,4,0,,,,,,,,,,,,,,,,,,,,,,,,,,,,,,,,,,,,,,,,,,,,,,,,874.8407823869929,,875.3409436609945,132,S,star,0.015908757006400265,871.0324990279914,872.5065071199933,872.5065071199933,872.5065071199933,1,0,d,0.813371411015396,1,873.3411740679876,874.8407823869929,,,,,,,,,,,,,,,,,,,,,,,,,,,,,,,,,,,,,,,,,,,,,,,,,,,,,96919,2022-10-26_14h33.13.032,vts_reward_expectancy_bt_OFFLINE,2022.2.4,59.741760980456945,
,,,,,,,,,,,,,,,,,,1,0,1,0,5,0,5,0,,,,,,,,,,,,,,,,,,,,,,,,,,,,,,,,,,,,,,,,,,,,,,,,879.6770734649908,,880.1774627849954,125,H,triangle,0.00048665699432604015,875.8361356299865,877.325175312988,877.325175312988,877.325175312988,1,0,d,0.8263191050064052,1,878.1778626659943,879.6770734649908,,,,,,,,,,,,,,,,,,,,,,,,,,,,,,,,,,,,,,,,,,,,,,,,,,,,,96919,2022-10-26_14h33.13.032,vts_reward_expectancy_bt_OFFLINE,2022.2.4,59.741760980456945,
,,,,,,,,,,,,,,,,,,1,0,1,0,6,0,6,0,,,,,,,,,,,,,,,,,,,,,,,,,,,,,,,,,,,,,,,,,,,,,,,,886.547815820988,,,160,D,circle,0.0002083189901895821,880.6732024739904,882.160984393995,882.160984393995,882.160984393995,1,0,f,2.838215174007928,1,885.0329993529886,,,,,,,,,,,,,,,,,,,,,,,,,,,,,,,,,,,,,,,,,,,,,,,,,,,,,,96919,2022-10-26_14h33.13.032,vts_reward_expectancy_bt_OFFLINE,2022.2.4,59.741760980456945,
,,,,,,,,,,,,,,,,,,1,0,1,0,7,0,7,0,,,,,,,,,,,,,,,,,,,,,,,,,,,,,,,,,,,,,,,,,,,,,,,,891.5187373299996,,892.0187862879975,139,Y,hexagon,0.017432050008210354,887.5450858279946,889.0176790859987,889.0176790859987,889.0176790859987,1,0,d,0.9812991140061058,1,890.0188911179866,891.5187373299996,,,,,,,,,,,,,,,,,,,,,,,,,,,,,,,,,,,,,,,,,,,,,,,,,,,,,96919,2022-10-26_14h33.13.032,vts_reward_expectancy_bt_OFFLINE,2022.2.4,59.741760980456945,
,,,,,,,,,,,,,,,,,,1,0,1,0,8,0,8,0,,,,,,,,,,,,,,,,,,,,,,,,,,,,,,,,,,,,,,,,,,,,,,,,897.0896726549981,,,174,B,triangle,0.0006101270118961111,892.5144824619929,894.0049577359896,894.0049577359896,894.0049577359896,1,0,f,1.5544006180134602,1,895.5898150899884,897.0896726549981,,,,,,,,,,,,,,,,,,,,,,,,,,,,,,,,,,,,,,,,,,,,,,,,,,,,,96919,2022-10-26_14h33.13.032,vts_reward_expectancy_bt_OFFLINE,2022.2.4,59.741760980456945,
,,,,,,,,,,,,,,,,,,1,0,1,0,9,0,9,0,,,,,,,,,,,,,,,,,,,,,,,,,,,,,,,,,,,,,,,,,,,,,,,,902.5113642269862,,,146,F,star,0.0023496290086768568,898.0862715599942,899.574695059986,899.574695059986,899.574695059986,1,0,d,1.416387620018213,1,901.0106812960003,,,,,,,,,,,,,,,,,,,,,,,,,,,,,,,,,,,,,,,,,,,,,,,,,,,,,,96919,2022-10-26_14h33.13.032,vts_reward_expectancy_bt_OFFLINE,2022.2.4,59.741760980456945,
,,,,,,,,,,,,,,,,,,,,,,,,,,0,0,0,0,0,0,0,0,,,,,,,,,,,,,,,,,,,,,,,,,,,,,,,,,,,,,,,,928.9306583639991,,,181,S,triangle,0.0032671829976607114,,,,,1,0,,,2,927.4293573679897,,923.6718288470001,925.160795438991,925.160795438991,925.160795438991,k,2.246944598009577,,,,,,,,,,,,,,,,,,,,,,,,,,,,,,,,,,,,,,,,,,,,,,,96919,2022-10-26_14h33.13.032,vts_reward_expectancy_bt_OFFLINE,2022.2.4,59.741760980456945,
,,,,,,,,,,,,,,,,,,,,,,,,,,0,0,0,0,1,0,1,0,,,,,,,,,,,,,,,,,,,,,,,,,,,,,,,,,,,,,,,,934.4672121099866,,934.967383020994,174,D,circle,0.0013848419912392274,,,,,1,0,,,2,932.9666986089869,934.4672121099866,929.9254585210001,931.4148404109874,931.4148404109874,931.4148404109874,j,1.5205455370014533,,,,,,,,,,,,,,,,,,,,,,,,,,,,,,,,,,,,,,,,,,,,,,,96919,2022-10-26_14h33.13.032,vts_reward_expectancy_bt_OFFLINE,2022.2.4,59.741760980456945,
,,,,,,,,,,,,,,,,,,,,,,,,,,0,0,0,0,2,0,2,0,,,,,,,,,,,,,,,,,,,,,,,,,,,,,,,,,,,,,,,,939.7546205149993,,940.2548132369993,132,H,hexagon,0.014295030006906018,,,,,1,0,,,2,938.2551186929923,,935.4791160189925,936.9687045169994,936.9687045169994,936.9687045169994,j,1.2623540110216709,,,,,,,,,,,,,,,,,,,,,,,,,,,,,,,,,,,,,,,,,,,,,,,96919,2022-10-26_14h33.13.032,vts_reward_expectancy_bt_OFFLINE,2022.2.4,59.741760980456945,
,,,,,,,,,,,,,,,,,,,,,,,,,,0,0,0,0,3,0,3,0,,,,,,,,,,,,,,,,,,,,,,,,,,,,,,,,,,,,,,,,944.5405991309963,,,160,U,star,0.0005658230074914172,,,,,1,0,,,2,943.026185455994,,940.7504895629972,942.2389496279939,942.2389496279939,942.2389496279939,k,0.7682415220187977,,,,,,,,,,,,,,,,,,,,,,,,,,,,,,,,,,,,,,,,,,,,,,,96919,2022-10-26_14h33.13.032,vts_reward_expectancy_bt_OFFLINE,2022.2.4,59.741760980456945,
,,,,,,,,,,,,,,,,,,,,,,,,,,0,0,0,0,4,0,4,0,,,,,,,,,,,,,,,,,,,,,,,,,,,,,,,,,,,,,,,,949.2779434459953,,,139,Y,circle,0.017642078004428186,,,,,1,0,,,2,947.7630026409897,,945.5370868989994,947.0088880969997,947.0088880969997,947.0088880969997,k,0.7264265330159105,,,,,,,,,,,,,,,,,,,,,,,,,,,,,,,,,,,,,,,,,,,,,,,96919,2022-10-26_14h33.13.032,vts_reward_expectancy_bt_OFFLINE,2022.2.4,59.741760980456945,
,,,,,,,,,,,,,,,,,,,,,,,,,,0,0,0,0,5,0,5,0,,,,,,,,,,,,,,,,,,,,,,,,,,,,,,,,,,,,,,,,954.5980552439869,,,125,F,hexagon,0.016329438993125223,,,,,1,0,,,2,953.0839910129871,,950.27377780799,951.7463358399982,951.7463358399982,951.7463358399982,j,1.3087540730048204,,,,,,,,,,,,,,,,,,,,,,,,,,,,,,,,,,,,,,,,,,,,,,,96919,2022-10-26_14h33.13.032,vts_reward_expectancy_bt_OFFLINE,2022.2.4,59.741760980456945,
,,,,,,,,,,,,,,,,,,,,,,,,,,0,0,0,0,6,0,6,0,,,,,,,,,,,,,,,,,,,,,,,,,,,,,,,,,,,,,,,,959.4352974359936,,,146,W,triangle,0.01744252399657853,,,,,1,0,,,2,957.9359241509956,959.4352974359936,955.5946119989967,957.0660848859989,957.0660848859989,957.0660848859989,k,0.8377968110144138,,,,,,,,,,,,,,,,,,,,,,,,,,,,,,,,,,,,,,,,,,,,,,,96919,2022-10-26_14h33.13.032,vts_reward_expectancy_bt_OFFLINE,2022.2.4,59.741760980456945,
,,,,,,,,,,,,,,,,,,,,,,,,,,0,0,0,0,7,0,7,0,,,,,,,,,,,,,,,,,,,,,,,,,,,,,,,,,,,,,,,,964.1223504589871,,964.6224615689862,167,B,star,0.0004771060048369691,,,,,1,0,,,2,962.622385278999,964.1223504589871,960.4311073419958,961.919079438987,961.919079438987,961.919079438987,j,0.6723348680097843,,,,,,,,,,,,,,,,,,,,,,,,,,,,,,,,,,,,,,,,,,,,,,,96919,2022-10-26_14h33.13.032,vts_reward_expectancy_bt_OFFLINE,2022.2.4,59.741760980456945,
,,,,,,,,,,,,,,,,,,,,,,,,,,0,0,0,0,8,0,8,0,,,,,,,,,,,,,,,,,,,,,,,,,,,,,,,,,,,,,,,,969.9090590729902,,,181,S,hexagon,0.0003733360063051805,,,,,1,0,,,2,968.3943711959873,,965.1174083639926,966.6075526209897,966.6075526209897,966.6075526209897,k,1.767440527008148,,,,,,,,,,,,,,,,,,,,,,,,,,,,,,,,,,,,,,,,,,,,,,,96919,2022-10-26_14h33.13.032,vts_reward_expectancy_bt_OFFLINE,2022.2.4,59.741760980456945,
,,,,,,,,,,,,,,,,,,,,,,,,,,0,0,0,0,9,0,9,0,,,,,,,,,,,,,,,,,,,,,,,,,,,,,,,,,,,,,,,,974.8463711439981,,975.3485695739946,174,D,circle,0.01754730800166726,,,,,1,0,,,2,973.3470730499976,974.8463711439981,970.9052401869994,972.3769988159911,972.3769988159911,972.3769988159911,j,0.9423628430085955,,,,,,,,,,,,,,,,,,,,,,,,,,,,,,,,,,,,,,,,,,,,,,,96919,2022-10-26_14h33.13.032,vts_reward_expectancy_bt_OFFLINE,2022.2.4,59.741760980456945,
,,,,,,,,,,,,,,,,,,,,,,,,,,,,,,,,,,0,0,0,0,0,0,0,0,,,,,,,,,,,,,,,,,,,,,,,,,,,,0,882,,,1014.2917835809931,,,132,S,triangle,0.0022316339891403913,,,,,1,0,,,3,,,,,,,,,1008.7183648849896,1008.7183648849896,1008.7183648849896,1008.7183648849896,1010.2056981839996,1010.2056981839996,1010.2056981839996,1010.2056981839996,1010.2223293409916,1010.2223293409916,1010.2223293409916,1010.2223293409916,-1,number,NA,d,2.5453956400160678,vtsPrac,1012.7789236229873,,,,,,,,,,,,,,,,,,,,,,,,,,,,96919,2022-10-26_14h33.13.032,vts_reward_expectancy_bt_OFFLINE,2022.2.4,59.741760980456945,
,,,,,,,,,,,,,,,,,,,,,,,,,,,,,,,,,,0,0,0,0,1,0,1,0,,,,,,,,,,,,,,,,,,,,,,,,,,,,0,882,,,1019.9129493539949,,1020.4126518959965,146,U,hexagon,0.01789032301167026,,,,,1,0,,,3,,,,,,,,,1015.28899850999,1015.28899850999,1015.28899850999,1015.28899850999,1016.7595478419971,1016.7595478419971,1016.7595478419971,1016.7595478419971,1016.7934044629947,1016.7934044629947,1016.7934044629947,1016.7934044629947,switch,letter,lettSwt,k,1.6242835790035315,vtsPrac,1018.4140311869996,1019.9129493539949,,,,,,,,,,,,,,,,,,,,,,,,,,,96919,2022-10-26_14h33.13.032,vts_reward_expectancy_bt_OFFLINE,2022.2.4,59.741760980456945,
,,,,,,,,,,,,,,,,,,,,,,,,,,,,,,,,,,0,0,0,0,2,0,2,0,,,,,,,,,,,,,,,,,,,,,,,,,,,,0,882,,,1024.5989548269863,,,125,F,triangle,0.0005914810026297346,,,,,1,0,,,3,,,,,,,,,1020.9092571849906,1020.9092571849906,1020.9092571849906,1020.9092571849906,1022.3971259559912,1022.3971259559912,1022.3971259559912,1022.3971259559912,1022.4136623539962,1022.4136623539962,1022.4136623539962,1022.4136623539962,switch,number,numSwt,d,0.6746778420056216,vtsPrac,1023.1007101419964,1024.5989548269863,,,,,,,,,,,,,,,,,,,,,,,,,,,96919,2022-10-26_14h33.13.032,vts_reward_expectancy_bt_OFFLINE,2022.2.4,59.741760980456945,
,,,,,,,,,,,,,,,,,,,,,,,,,,,,,,,,,,0,0,0,0,3,0,3,0,,,,,,,,,,,,,,,,,,,,,,,,,,,,0,882,,,1029.7201156329975,,1030.2201402089995,181,Y,star,0.0004012730059912428,,,,,1,0,,,3,,,,,,,,,1025.5960882149957,1025.5960882149957,1025.5960882149957,1025.5960882149957,1027.084062154987,1027.084062154987,1027.084062154987,1027.084062154987,1027.1005797479884,1027.1005797479884,1027.1005797479884,1027.1005797479884,repeat,number,numRpt,f,1.1074872970057186,vtsPrac,1028.2209742269915,1029.7201156329975,,,,,,,,,,,,,,,,,,,,,,,,,,,96919,2022-10-26_14h33.13.032,vts_reward_expectancy_bt_OFFLINE,2022.2.4,59.741760980456945,
,,,,,,,,,,,,,,,,,,,,,,,,,,,,,,,,,,0,0,0,0,4,0,4,0,,,,,,,,,,,,,,,,,,,,,,,,,,,,0,882,,,1034.756474209993,,,132,S,star,0.0006016629922669381,,,,,1,0,,,3,,,,,,,,,1030.71562437799,1030.71562437799,1030.71562437799,1030.71562437799,1032.2043546109926,1032.2043546109926,1032.2043546109926,1032.2043546109926,1032.2207947989955,1032.2207947989955,1032.2207947989955,1032.2207947989955,repeat,number,numRpt,d,1.0270116420142585,vtsPrac,1033.2580379969877,1034.756474209993,,,,,,,,,,,,,,,,,,,,,,,,,,,96919,2022-10-26_14h33.13.032,vts_reward_expectancy_bt_OFFLINE,2022.2.4,59.741760980456945,
,,,,,,,,,,,,,,,,,,,,,,,,,,,,,,,,,,0,0,0,0,5,0,5,0,,,,,,,,,,,,,,,,,,,,,,,,,,,,0,882,,,1039.6437589299894,,1040.1435300039884,146,U,circle,0.0004958429926773533,,,,,1,0,,,3,,,,,,,,,1035.7529850899882,1035.7529850899882,1035.7529850899882,1035.7529850899882,1037.2413758689945,1037.2413758689945,1037.2413758689945,1037.2413758689945,1037.2578534519998,1037.2578534519998,1037.2578534519998,1037.2578534519998,switch,letter,lettSwt,k,0.8786521419970086,vtsPrac,1038.1446980509936,1039.6437589299894,,,,,,,,,,,,,,,,,,,,,,,,,,,96919,2022-10-26_14h33.13.032,vts_reward_expectancy_bt_OFFLINE,2022.2.4,59.741760980456945,
,,,,,,,,,,,,,,,,,,,,,,,,,,,,,,,,,,0,0,0,0,6,0,6,0,,,,,,,,,,,,,,,,,,,,,,,,,,,,0,882,,,1044.6807379579986,,1045.1806332939886,125,F,circle,0.00037384599272627383,,,,,1,0,,,3,,,,,,,,,1040.6398156149953,1040.6398156149953,1040.6398156149953,1040.6398156149953,1042.1272725359886,1042.1272725359886,1042.1272725359886,1042.1272725359886,1042.1445660149911,1042.1445660149911,1042.1445660149911,1042.1445660149911,switch,number,numSwt,d,1.031700797000667,vtsPrac,1043.1806705789932,1044.6807379579986,,,,,,,,,,,,,,,,,,,,,,,,,,,96919,2022-10-26_14h33.13.032,vts_reward_expectancy_bt_OFFLINE,2022.2.4,59.741760980456945,
,,,,,,,,,,,,,,,,,,,,,,,,,,,,,,,,,,0,0,0,0,7,0,7,0,,,,,,,,,,,,,,,,,,,,,,,,,,,,0,882,,,1050.2509149169928,,1050.7510070259887,181,Y,triangle,0.0005006650026189163,,,,,1,0,,,3,,,,,,,,,1045.676627689987,1045.676627689987,1045.676627689987,1045.676627689987,1047.164237858,1047.164237858,1047.164237858,1047.164237858,1047.181733999998,1047.181733999998,1047.181733999998,1047.181733999998,switch,letter,lettSwt,k,1.5638928270200267,vtsPrac,1048.7519998839998,1050.2509149169928,,,,,,,,,,,,,,,,,,,,,,,,,,,96919,2022-10-26_14h33.13.032,vts_reward_expectancy_bt_OFFLINE,2022.2.4,59.741760980456945,
,,,,,,,,,,,,,,,,,,,,,,,,,,,,,,,,,,0,0,0,0,8,0,8,0,,,,,,,,,,,,,,,,,,,,,,,,,,,,0,882,,,1055.4709302079864,,,174,B,star,0.00042479501280467957,,,,,1,0,,,3,,,,,,,,,1051.247961355999,1051.247961355999,1051.247961355999,1051.247961355999,1052.7373608380003,1052.7373608380003,1052.7373608380003,1052.7373608380003,1052.754824737989,1052.754824737989,1052.754824737989,1052.754824737989,switch,number,numSwt,f,1.1981680960016092,vtsPrac,1053.9562580849888,,,,,,,,,,,,,,,,,,,,,,,,,,,,96919,2022-10-26_14h33.13.032,vts_reward_expectancy_bt_OFFLINE,2022.2.4,59.741760980456945,
,,,,,,,,,,,,,,,,,,,,,,,,,,,,,,,,,,0,0,0,0,9,0,9,0,,,,,,,,,,,,,,,,,,,,,,,,,,,,0,882,,,1060.6252712999994,,,160,Y,hexagon,0.017822634006734006,,,,,1,0,,,3,,,,,,,,,1056.4682776369882,1056.4682776369882,1056.4682776369882,1056.4682776369882,1057.9410967939912,1057.9410967939912,1057.9410967939912,1057.9410967939912,1057.9747203369916,1057.9747203369916,1057.9747203369916,1057.9747203369916,switch,letter,lettSwt,k,1.1547175910091028,vtsPrac,1059.12618998799,,,,,,,,,,,,,,,,,,,,,,,,,,,,96919,2022-10-26_14h33.13.032,vts_reward_expectancy_bt_OFFLINE,2022.2.4,59.741760980456945,
,,,,,,,,,,,,,,,,,,,,,,,,,,,,,,,,,,0,0,0,0,10,0,10,0,,,,,,,,,,,,,,,,,,,,,,,,,,,,0,882,,,1065.4620032649982,,,181,H,circle,0.0004988060100004077,,,,,1,0,,,3,,,,,,,,,1061.6214613639895,1061.6214613639895,1061.6214613639895,1061.6214613639895,1063.1111128589982,1063.1111128589982,1063.1111128589982,1063.1111128589982,1063.1284106879903,1063.1284106879903,1063.1284106879903,1063.1284106879903,switch,number,numSwt,f,0.8168757270032074,vtsPrac,1063.947158867988,,,,,,,,,,,,,,,,,,,,,,,,,,,,96919,2022-10-26_14h33.13.032,vts_reward_expectancy_bt_OFFLINE,2022.2.4,59.741760980456945,
,,,,,,,,,,,,,,,,,,,,,,,,,,,,,,,,,,0,0,0,0,11,0,11,0,,,,,,,,,,,,,,,,,,,,,,,,,,,,0,882,,,1070.3818597499921,,,125,W,triangle,0.016570453997701406,,,,,1,0,,,3,,,,,,,,,1066.4585799459892,1066.4585799459892,1066.4585799459892,1066.4585799459892,1067.9310393009946,1067.9310393009946,1067.9310393009946,1067.9310393009946,1067.9657898519945,1067.9657898519945,1067.9657898519945,1067.9657898519945,repeat,number,numRpt,d,0.9170537870086264,vtsPrac,1068.8676565039932,,,,,,,,,,,,,,,,,,,,,,,,,,,,96919,2022-10-26_14h33.13.032,vts_reward_expectancy_bt_OFFLINE,2022.2.4,59.741760980456945,
,,,,,,,,,,,,,,,,,,,,,,,,,,,,,,,,,,0,0,0,0,12,0,12,0,,,,,,,,,,,,,,,,,,,,,,,,,,,,0,882,,,1076.0694531560002,,,132,S,hexagon,0.017839281994383782,,,,,1,0,,,3,,,,,,,,,1071.378898400988,1071.378898400988,1071.378898400988,1071.378898400988,1072.8520239999925,1072.8520239999925,1072.8520239999925,1072.8520239999925,1072.8853816089977,1072.8853816089977,1072.8853816089977,1072.8853816089977,repeat,number,numRpt,d,1.6910740040038945,vtsPrac,1074.5702051299886,1076.0694531560002,,,,,,,,,,,,,,,,,,,,,,,,,,,96919,2022-10-26_14h33.13.032,vts_reward_expectancy_bt_OFFLINE,2022.2.4,59.741760980456945,
,,,,,,,,,,,,,,,,,,,,,,,,,,,,,,,,,,0,0,0,0,13,0,13,0,,,,,,,,,,,,,,,,,,,,,,,,,,,,0,882,,,1082.3898325569899,,,146,H,star,0.00034725099976640195,,,,,1,0,,,3,,,,,,,,,1077.0656533989968,1077.0656533989968,1077.0656533989968,1077.0656533989968,1078.5555620199884,1078.5555620199884,1078.5555620199884,1078.5555620199884,1078.5731148499908,1078.5731148499908,1078.5731148499908,1078.5731148499908,switch,letter,lettSwt,j,2.2915659400023287,vtsPrac,1080.875533784987,,,,,,,,,,,,,,,,,,,,,,,,,,,,96919,2022-10-26_14h33.13.032,vts_reward_expectancy_bt_OFFLINE,2022.2.4,59.741760980456945,
,,,,,,,,,,,,,,,,,,,,,,,,,,,,,,,,,,0,0,0,0,14,0,14,0,,,,,,,,,,,,,,,,,,,,,,,,,,,,0,882,,,1087.5602755339933,,,174,B,hexagon,0.001922110008308664,,,,,1,0,,,3,,,,,,,,,1083.3707557669986,1083.3707557669986,1083.3707557669986,1083.3707557669986,1084.859318885996,1084.859318885996,1084.859318885996,1084.859318885996,1084.8763643719867,1084.8763643719867,1084.8763643719867,1084.8763643719867,repeat,letter,lettRpt,j,1.163892965996638,vtsPrac,1086.0459104599868,,,,,,,,,,,,,,,,,,,,,,,,,,,,96919,2022-10-26_14h33.13.032,vts_reward_expectancy_bt_OFFLINE,2022.2.4,59.741760980456945,
,,,,,,,,,,,,,,,,,,,,,,,,,,,,,,,,,,0,0,0,0,15,0,15,0,,,,,,,,,,,,,,,,,,,,,,,,,,,,0,882,,,1093.0827345159923,,,125,Y,star,0.0025995589967351407,,,,,1,0,,,3,,,,,,,,,1088.5412201,1088.5412201,1088.5412201,1088.5412201,1090.0306698289933,1090.0306698289933,1090.0306698289933,1090.0306698289933,1090.0471148829965,1090.0471148829965,1090.0471148829965,1090.0471148829965,repeat,letter,lettRpt,k,1.520946479999111,vtsPrac,1091.5829301299964,,,,,,,,,,,,,,,,,,,,,,,,,,,,96919,2022-10-26_14h33.13.032,vts_reward_expectancy_bt_OFFLINE,2022.2.4,59.741760980456945,
,,,,,,,,,,,,,,,,,,,,,,,,,,,,,,,,,,,,,,,,,,0,0,0,0,,,,,,,,,,,,,,,,,,,,,,,,0,882,,,1132.227271854994,,,125,W,circle,0.016495315998326987,,,,,1,0,,,,,,,,,,,,1127.9861009499873,1127.9861009499873,1127.9861009499873,1127.9861009499873,1129.458996587986,1129.458996587986,1129.458996587986,1129.458996587986,1129.4927540079952,1129.4927540079952,1129.4927540079952,1129.4927540079952,switch,number,numSwt,d,1.2290510270104278,noRew,,,0,1130.7126065109915,,,,,,,,,,,,,,,,,,,,,,,,,96919,2022-10-26_14h33.13.032,vts_reward_expectancy_bt_OFFLINE,2022.2.4,59.741760980456945,
,,,,,,,,,,,,,,,,,,,,,,,,,,,,,,,,,,,,,,,,,,1,0,1,0,,,,,,,,,,,,,,,,,,,,,,,,0,882,,,1137.0138464849879,,,181,Y,star,0.0015218620101222768,,,,,1,0,,,,,,,,,,,,1133.2071420209977,1133.2071420209977,1133.2071420209977,1133.2071420209977,1134.6965956729982,1134.6965956729982,1134.6965956729982,1134.6965956729982,1134.712955843992,1134.712955843992,1134.712955843992,1134.712955843992,repeat,number,numRpt,f,0.7758819300070172,noRew,,,0,1135.498044684995,,,,,,,,,,,,,,,,,,,,,,,,,96919,2022-10-26_14h33.13.032,vts_reward_expectancy_bt_OFFLINE,2022.2.4,59.741760980456945,
,,,,,,,,,,,,,,,,,,,,,,,,,,,,,,,,,,,,,,,,,,2,0,2,0,,,,,,,,,,,,,,,,,,,,,,,,0,882,,,1142.6733808829886,,,160,U,triangle,0.01757126100710593,,,,,1,0,,,,,,,,,,,,1138.0102210919868,1138.0102210919868,1138.0102210919868,1138.0102210919868,1139.4828489789943,1139.4828489789943,1139.4828489789943,1139.4828489789943,1139.5163712819922,1139.5163712819922,1139.5163712819922,1139.5163712819922,switch,letter,lettSwt,k,1.6611147330113454,noRew,,,0,1141.1689495119936,,,,,,,,,,,,,,,,,,,,,,,,,96919,2022-10-26_14h33.13.032,vts_reward_expectancy_bt_OFFLINE,2022.2.4,59.741760980456945,
