LTriangleOpac,LCircleOpac,LHexagonOpac,LStarOpac,RTriangleOpac,RCircleOpac,RHexagonOpac,RStarOpac,LShape_ID,RShape_ID,training_blocks.thisRepN,training_blocks.thisTrialN,training_blocks.thisN,training_blocks.thisIndex,training.thisRepN,training.thisTrialN,training.thisN,training.thisIndex,task1_prac_redo.thisRepN,task1_prac_redo.thisTrialN,task1_prac_redo.thisN,task1_prac_redo.thisIndex,task1_prac_trials.thisRepN,task1_prac_trials.thisTrialN,task1_prac_trials.thisN,task1_prac_trials.thisIndex,task2_prac_redo.thisRepN,task2_prac_redo.thisTrialN,task2_prac_redo.thisN,task2_prac_redo.thisIndex,task2_praac_trials.thisRepN,task2_praac_trials.thisTrialN,task2_praac_trials.thisN,task2_praac_trials.thisIndex,vts_prac_redo.thisRepN,vts_prac_redo.thisTrialN,vts_prac_redo.thisN,vts_prac_redo.thisIndex,vts_practice_trials.thisRepN,vts_practice_trials.thisTrialN,vts_practice_trials.thisN,vts_practice_trials.thisIndex,trials_norew.thisRepN,trials_norew.thisTrialN,trials_norew.thisN,trials_norew.thisIndex,block.thisRepN,block.thisTrialN,block.thisN,block.thisIndex,trials_rew.thisRepN,trials_rew.thisTrialN,trials_rew.thisN,trials_rew.thisIndex,key_resp.started,key_resp.keys,key_resp.rt,left_circle.started,right_circle.started,left_triangle.started,right_triangle.started,left_star.started,right_star.started,left_hexagon.started,right_hexagon.started,training_fix.started,training_resp.started,training_resp.keys,training_resp.rt,points_trial,points_cumul,trainBlock,training_feedback_txt.started,training_feedback_txt.stopped,fix.started,fix.stopped,curr_topStim,curr_bottStim,curr_shape,ISI.started,tgt_fix_prac1.started,top_target_prac1.started,bott_target_prac1.started,target_resp_prac1.started,top_target_prac1.stopped,bott_target_prac1.stopped,target_resp_prac1.stopped,acc,E1,target_resp_prac1.keys,pracBlock,prac_fback_text.started,target_resp_prac1.rt,prac_fback_text.stopped,tgt_fix_prac2.started,top_target_prac2.started,bott_target_prac2.started,target_resp_prac2.started,target_resp_prac2.keys,target_resp_prac2.rt,star.started,hegagon.started,triangle.started,circle.started,top_target.started,tgt_fix.started,bot_target.started,target_resp.started,star.stopped,hegagon.stopped,triangle.stopped,circle.stopped,alt,task,condition,target_resp.keys,target_resp.rt,rewCond,vts_fback.started,vts_fback.stopped,blockNum,norew_fback.started,norew_fback.stopped,key_resp_2.keys,key_resp_2.rt,rewExpectancy,feedbk_text.started,feedbk_text.stopped,text_3.started,debrief.started,text_3.stopped,button.started,debrief.index,debrief.itemText,debrief.type,debrief.granularity,debrief.font,debrief.markerColor,debrief.response,debrief.rt,button.numClicks,button.timesOn,button.timesOff,participant,date,expName,psychopyVersion,frameRate,
,,,,,,,,,,,,,,,,,,,,,,,,,,,,,,,,,,,,,,,,,,,,,,,,,,,,,,1053.2711216830648,space,18.56886062398553,,,,,,,,,,,,,,,,,,,,,,,,,,,,,,,,,,,,,,,,,,,,,,,,,,,,,,,,,,,,,,,,,,,,,,,,,,,,,,,,,,,,,,,97511,2022-12-01_11h17.46.624,vts_reward_expectancy_bt_OFFLINE,2022.2.4,59.960681687696386,
0,1,0,0,1,0,0,0,circle,triangle,0,0,0,0,0,0,0,3,,,,,,,,,,,,,,,,,,,,,,,,,,,,,,,,,,,,,,,,1099.8467070851475,1099.8467070851475,1099.8467070851475,1099.8467070851475,1099.8467070851475,1099.8467070851475,1099.8467070851475,1099.8467070851475,1099.8467070851475,1099.8467070851475,a,1.9540983829647303,1,1,0,1101.8341245362535,1103.3339853729121,1103.3339853729121,1103.834070151206,,,,,,,,,,,,,,,,,,,,,,,,,,,,,,,,,,,,,,,,,,,,,,,,,,,,,,,,,,,,,,,,,,,,97511,2022-12-01_11h17.46.624,vts_reward_expectancy_bt_OFFLINE,2022.2.4,59.960681687696386,
0,0,0,1,0,1,0,0,star ,circle,0,0,0,0,0,1,1,10,,,,,,,,,,,,,,,,,,,,,,,,,,,,,,,,,,,,,,,,1103.834070151206,1103.834070151206,1103.834070151206,1103.834070151206,1103.834070151206,1103.834070151206,1103.834070151206,1103.834070151206,1103.834070151206,1103.834070151206,a,1.5112792127765715,1,2,0,1105.3694576881826,1106.8702181419358,1106.8702181419358,1107.3703352562152,,,,,,,,,,,,,,,,,,,,,,,,,,,,,,,,,,,,,,,,,,,,,,,,,,,,,,,,,,,,,,,,,,,,97511,2022-12-01_11h17.46.624,vts_reward_expectancy_bt_OFFLINE,2022.2.4,59.960681687696386,
0,1,0,0,0,0,1,0,circle,hexagon,0,0,0,0,0,2,2,4,,,,,,,,,,,,,,,,,,,,,,,,,,,,,,,,,,,,,,,,1107.3703352562152,1107.3703352562152,1107.3703352562152,1107.3703352562152,1107.3703352562152,1107.3703352562152,1107.3703352562152,1107.3703352562152,1107.3703352562152,1107.3703352562152,l,1.6302270498126745,10,12,0,1109.022727936972,,1110.5234725391492,,,,,,,,,,,,,,,,,,,,,,,,,,,,,,,,,,,,,,,,,,,,,,,,,,,,,,,,,,,,,,,,,,,,,97511,2022-12-01_11h17.46.624,vts_reward_expectancy_bt_OFFLINE,2022.2.4,59.960681687696386,
1,0,0,0,0,0,1,0,triangle,hexagon,0,0,0,0,0,3,3,1,,,,,,,,,,,,,,,,,,,,,,,,,,,,,,,,,,,,,,,,1111.023741539102,1111.023741539102,1111.023741539102,1111.023741539102,1111.023741539102,1111.023741539102,1111.023741539102,1111.023741539102,1111.023741539102,1111.023741539102,a,1.9823328610509634,1,13,0,1113.0263459999114,,1114.5413942430168,,,,,,,,,,,,,,,,,,,,,,,,,,,,,,,,,,,,,,,,,,,,,,,,,,,,,,,,,,,,,,,,,,,,,97511,2022-12-01_11h17.46.624,vts_reward_expectancy_bt_OFFLINE,2022.2.4,59.960681687696386,
0,0,0,1,0,0,1,0,star,hexagon,0,0,0,0,0,4,4,11,,,,,,,,,,,,,,,,,,,,,,,,,,,,,,,,,,,,,,,,1115.0264773848467,1115.0264773848467,1115.0264773848467,1115.0264773848467,1115.0264773848467,1115.0264773848467,1115.0264773848467,1115.0264773848467,1115.0264773848467,1115.0264773848467,l,0.769747800193727,10,23,0,1115.8275496331044,1117.3275741850957,1117.3275741850957,1117.8277500262484,,,,,,,,,,,,,,,,,,,,,,,,,,,,,,,,,,,,,,,,,,,,,,,,,,,,,,,,,,,,,,,,,,,,97511,2022-12-01_11h17.46.624,vts_reward_expectancy_bt_OFFLINE,2022.2.4,59.960681687696386,
1,0,0,0,0,0,0,1,triangle,star,0,0,0,0,0,5,5,2,,,,,,,,,,,,,,,,,,,,,,,,,,,,,,,,,,,,,,,,1117.8277500262484,1117.8277500262484,1117.8277500262484,1117.8277500262484,1117.8277500262484,1117.8277500262484,1117.8277500262484,1117.8277500262484,1117.8277500262484,1117.8277500262484,a,1.7148504457436502,1,24,0,1119.5636729011312,,1121.0644287932664,,,,,,,,,,,,,,,,,,,,,,,,,,,,,,,,,,,,,,,,,,,,,,,,,,,,,,,,,,,,,,,,,,,,,97511,2022-12-01_11h17.46.624,vts_reward_expectancy_bt_OFFLINE,2022.2.4,59.960681687696386,
0,0,0,1,1,0,0,0,star,triangle,0,0,0,0,0,6,6,9,,,,,,,,,,,,,,,,,,,,,,,,,,,,,,,,,,,,,,,,1121.5647809519432,1121.5647809519432,1121.5647809519432,1121.5647809519432,1121.5647809519432,1121.5647809519432,1121.5647809519432,1121.5647809519432,1121.5647809519432,1121.5647809519432,l,0.7114393701776862,1,25,0,1122.297949734144,1123.7984611601569,1123.7984611601569,1124.298396660015,,,,,,,,,,,,,,,,,,,,,,,,,,,,,,,,,,,,,,,,,,,,,,,,,,,,,,,,,,,,,,,,,,,,97511,2022-12-01_11h17.46.624,vts_reward_expectancy_bt_OFFLINE,2022.2.4,59.960681687696386,
0,1,0,0,0,0,0,1,circle,star,0,0,0,0,0,7,7,5,,,,,,,,,,,,,,,,,,,,,,,,,,,,,,,,,,,,,,,,1124.298396660015,1124.298396660015,1124.298396660015,1124.298396660015,1124.298396660015,1124.298396660015,1124.298396660015,1124.298396660015,1124.298396660015,1124.298396660015,l,1.1166863818652928,10,35,0,1125.4351621042006,,1126.934440643061,,,,,,,,,,,,,,,,,,,,,,,,,,,,,,,,,,,,,,,,,,,,,,,,,,,,,,,,,,,,,,,,,,,,,97511,2022-12-01_11h17.46.624,vts_reward_expectancy_bt_OFFLINE,2022.2.4,59.960681687696386,
1,0,0,0,0,1,0,0,triangle,circle,0,0,0,0,0,8,8,0,,,,,,,,,,,,,,,,,,,,,,,,,,,,,,,,,,,,,,,,1127.4348389022052,1127.4348389022052,1127.4348389022052,1127.4348389022052,1127.4348389022052,1127.4348389022052,1127.4348389022052,1127.4348389022052,1127.4348389022052,1127.4348389022052,l,2.1430374309420586,1,36,0,1129.603557066992,,1131.1048374311067,,,,,,,,,,,,,,,,,,,,,,,,,,,,,,,,,,,,,,,,,,,,,,,,,,,,,,,,,,,,,,,,,,,,,97511,2022-12-01_11h17.46.624,vts_reward_expectancy_bt_OFFLINE,2022.2.4,59.960681687696386,
0,0,1,0,1,0,0,0,hexagon,triangle,0,0,0,0,0,9,9,6,,,,,,,,,,,,,,,,,,,,,,,,,,,,,,,,,,,,,,,,1131.6045607770793,1131.6045607770793,1131.6045607770793,1131.6045607770793,1131.6045607770793,1131.6045607770793,1131.6045607770793,1131.6045607770793,1131.6045607770793,1131.6045607770793,a,1.2135095209814608,10,46,0,1132.8408329850063,1134.3395061348565,1134.3395061348565,,,,,,,,,,,,,,,,,,,,,,,,,,,,,,,,,,,,,,,,,,,,,,,,,,,,,,,,,,,,,,,,,,,,,97511,2022-12-01_11h17.46.624,vts_reward_expectancy_bt_OFFLINE,2022.2.4,59.960681687696386,
0,0,1,0,0,0,0,1,hexagon,star,0,0,0,0,0,10,10,8,,,,,,,,,,,,,,,,,,,,,,,,,,,,,,,,,,,,,,,,1134.8413185751997,1134.8413185751997,1134.8413185751997,1134.8413185751997,1134.8413185751997,1134.8413185751997,1134.8413185751997,1134.8413185751997,1134.8413185751997,1134.8413185751997,a,1.014473560731858,1,47,0,1135.8762969570234,1137.3760192822665,1137.3760192822665,1137.8758287560195,,,,,,,,,,,,,,,,,,,,,,,,,,,,,,,,,,,,,,,,,,,,,,,,,,,,,,,,,,,,,,,,,,,,97511,2022-12-01_11h17.46.624,vts_reward_expectancy_bt_OFFLINE,2022.2.4,59.960681687696386,
0,0,1,0,0,1,0,0,hexagon,circle,0,0,0,0,0,11,11,7,,,,,,,,,,,,,,,,,,,,,,,,,,,,,,,,,,,,,,,,1137.8758287560195,1137.8758287560195,1137.8758287560195,1137.8758287560195,1137.8758287560195,1137.8758287560195,1137.8758287560195,1137.8758287560195,1137.8758287560195,1137.8758287560195,a,1.0516648180782795,10,57,0,1138.9597943061963,,1140.4614892038517,,,,,,,,,,,,,,,,,,,,,,,,,,,,,,,,,,,,,,,,,,,,,,,,,,,,,,,,,,,,,,,,,,,,,97511,2022-12-01_11h17.46.624,vts_reward_expectancy_bt_OFFLINE,2022.2.4,59.960681687696386,
0,1,0,0,0,0,1,0,circle,hexagon,0,0,0,0,1,0,12,4,,,,,,,,,,,,,,,,,,,,,,,,,,,,,,,,,,,,,,,,1140.9620263059624,1140.9620263059624,1140.9620263059624,1140.9620263059624,1140.9620263059624,1140.9620263059624,1140.9620263059624,1140.9620263059624,1140.9620263059624,1140.9620263059624,l,1.1155238817445934,10,67,0,1142.0959766819142,1143.596435470041,1143.596435470041,,,,,,,,,,,,,,,,,,,,,,,,,,,,,,,,,,,,,,,,,,,,,,,,,,,,,,,,,,,,,,,,,,,,,97511,2022-12-01_11h17.46.624,vts_reward_expectancy_bt_OFFLINE,2022.2.4,59.960681687696386,
0,0,0,1,1,0,0,0,star,triangle,0,0,0,0,1,1,13,9,,,,,,,,,,,,,,,,,,,,,,,,,,,,,,,,,,,,,,,,1144.0964847779833,1144.0964847779833,1144.0964847779833,1144.0964847779833,1144.0964847779833,1144.0964847779833,1144.0964847779833,1144.0964847779833,1144.0964847779833,1144.0964847779833,a,2.199964638799429,10,77,0,1146.3160983012058,1147.8166481601074,1147.8166481601074,1148.316919837147,,,,,,,,,,,,,,,,,,,,,,,,,,,,,,,,,,,,,,,,,,,,,,,,,,,,,,,,,,,,,,,,,,,,97511,2022-12-01_11h17.46.624,vts_reward_expectancy_bt_OFFLINE,2022.2.4,59.960681687696386,
1,0,0,0,0,0,0,1,triangle,star,0,0,0,0,1,2,14,2,,,,,,,,,,,,,,,,,,,,,,,,,,,,,,,,,,,,,,,,1148.316919837147,1148.316919837147,1148.316919837147,1148.316919837147,1148.316919837147,1148.316919837147,1148.316919837147,1148.316919837147,1148.316919837147,1148.316919837147,a,1.6133670937269926,1,78,0,1149.9543400579132,,1151.4694370059296,,,,,,,,,,,,,,,,,,,,,,,,,,,,,,,,,,,,,,,,,,,,,,,,,,,,,,,,,,,,,,,,,,,,,97511,2022-12-01_11h17.46.624,vts_reward_expectancy_bt_OFFLINE,2022.2.4,59.960681687696386,
0,1,0,0,1,0,0,0,circle,triangle,0,0,0,0,1,3,15,3,,,,,,,,,,,,,,,,,,,,,,,,,,,,,,,,,,,,,,,,1151.9694556342438,1151.9694556342438,1151.9694556342438,1151.9694556342438,1151.9694556342438,1151.9694556342438,1151.9694556342438,1151.9694556342438,1151.9694556342438,1151.9694556342438,l,1.1456718873232603,1,79,0,1153.1371310940012,1154.6344796200283,1154.6344796200283,,,,,,,,,,,,,,,,,,,,,,,,,,,,,,,,,,,,,,,,,,,,,,,,,,,,,,,,,,,,,,,,,,,,,97511,2022-12-01_11h17.46.624,vts_reward_expectancy_bt_OFFLINE,2022.2.4,59.960681687696386,
0,1,0,0,0,0,0,1,circle,star,0,0,0,0,1,4,16,5,,,,,,,,,,,,,,,,,,,,,,,,,,,,,,,,,,,,,,,,1155.139591997955,1155.139591997955,1155.139591997955,1155.139591997955,1155.139591997955,1155.139591997955,1155.139591997955,1155.139591997955,1155.139591997955,1155.139591997955,l,1.0924200979061425,10,89,0,1156.2577153421007,1157.756709922105,1157.756709922105,1158.257055948954,,,,,,,,,,,,,,,,,,,,,,,,,,,,,,,,,,,,,,,,,,,,,,,,,,,,,,,,,,,,,,,,,,,,97511,2022-12-01_11h17.46.624,vts_reward_expectancy_bt_OFFLINE,2022.2.4,59.960681687696386,
0,0,1,0,0,0,0,1,hexagon,star,0,0,0,0,1,5,17,8,,,,,,,,,,,,,,,,,,,,,,,,,,,,,,,,,,,,,,,,1158.257055948954,1158.257055948954,1158.257055948954,1158.257055948954,1158.257055948954,1158.257055948954,1158.257055948954,1158.257055948954,1158.257055948954,1158.257055948954,a,1.0451738550327718,10,99,0,1159.3243814250454,,1160.826470903121,,,,,,,,,,,,,,,,,,,,,,,,,,,,,,,,,,,,,,,,,,,,,,,,,,,,,,,,,,,,,,,,,,,,,97511,2022-12-01_11h17.46.624,vts_reward_expectancy_bt_OFFLINE,2022.2.4,59.960681687696386,
1,0,0,0,0,1,0,0,triangle,circle,0,0,0,0,1,6,18,0,,,,,,,,,,,,,,,,,,,,,,,,,,,,,,,,,,,,,,,,1161.3267214181833,1161.3267214181833,1161.3267214181833,1161.3267214181833,1161.3267214181833,1161.3267214181833,1161.3267214181833,1161.3267214181833,1161.3267214181833,1161.3267214181833,l,0.6416918048635125,1,100,0,1161.9951819148846,1163.4945855322294,1163.4945855322294,1163.9944720822386,,,,,,,,,,,,,,,,,,,,,,,,,,,,,,,,,,,,,,,,,,,,,,,,,,,,,,,,,,,,,,,,,,,,97511,2022-12-01_11h17.46.624,vts_reward_expectancy_bt_OFFLINE,2022.2.4,59.960681687696386,
0,0,1,0,1,0,0,0,hexagon,triangle,0,0,0,0,1,7,19,6,,,,,,,,,,,,,,,,,,,,,,,,,,,,,,,,,,,,,,,,1163.9944720822386,1163.9944720822386,1163.9944720822386,1163.9944720822386,1163.9944720822386,1163.9944720822386,1163.9944720822386,1163.9944720822386,1163.9944720822386,1163.9944720822386,a,0.8097943481989205,10,110,0,1164.8311637160368,1166.3304524361156,1166.3304524361156,1166.831218557898,,,,,,,,,,,,,,,,,,,,,,,,,,,,,,,,,,,,,,,,,,,,,,,,,,,,,,,,,,,,,,,,,,,,97511,2022-12-01_11h17.46.624,vts_reward_expectancy_bt_OFFLINE,2022.2.4,59.960681687696386,
0,0,1,0,0,1,0,0,hexagon,circle,0,0,0,0,1,8,20,7,,,,,,,,,,,,,,,,,,,,,,,,,,,,,,,,,,,,,,,,1166.831218557898,1166.831218557898,1166.831218557898,1166.831218557898,1166.831218557898,1166.831218557898,1166.831218557898,1166.831218557898,1166.831218557898,1166.831218557898,l,1.5048517719842494,1,111,0,1168.3657348118722,,1169.8669383008964,,,,,,,,,,,,,,,,,,,,,,,,,,,,,,,,,,,,,,,,,,,,,,,,,,,,,,,,,,,,,,,,,,,,,97511,2022-12-01_11h17.46.624,vts_reward_expectancy_bt_OFFLINE,2022.2.4,59.960681687696386,
0,0,0,1,0,1,0,0,star ,circle,0,0,0,0,1,9,21,10,,,,,,,,,,,,,,,,,,,,,,,,,,,,,,,,,,,,,,,,1170.3671199460514,1170.3671199460514,1170.3671199460514,1170.3671199460514,1170.3671199460514,1170.3671199460514,1170.3671199460514,1170.3671199460514,1170.3671199460514,1170.3671199460514,a,0.6579638798721135,1,112,0,1171.0510130892508,1172.5516615388915,1172.5516615388915,1173.0515465252101,,,,,,,,,,,,,,,,,,,,,,,,,,,,,,,,,,,,,,,,,,,,,,,,,,,,,,,,,,,,,,,,,,,,97511,2022-12-01_11h17.46.624,vts_reward_expectancy_bt_OFFLINE,2022.2.4,59.960681687696386,
0,0,0,1,0,0,1,0,star,hexagon,0,0,0,0,1,10,22,11,,,,,,,,,,,,,,,,,,,,,,,,,,,,,,,,,,,,,,,,1173.0515465252101,1173.0515465252101,1173.0515465252101,1173.0515465252101,1173.0515465252101,1173.0515465252101,1173.0515465252101,1173.0515465252101,1173.0515465252101,1173.0515465252101,l,1.3825360098853707,1,113,0,1174.452015397139,,1175.954246463254,,,,,,,,,,,,,,,,,,,,,,,,,,,,,,,,,,,,,,,,,,,,,,,,,,,,,,,,,,,,,,,,,,,,,97511,2022-12-01_11h17.46.624,vts_reward_expectancy_bt_OFFLINE,2022.2.4,59.960681687696386,
1,0,0,0,0,0,1,0,triangle,hexagon,0,0,0,0,1,11,23,1,,,,,,,,,,,,,,,,,,,,,,,,,,,,,,,,,,,,,,,,1176.4544556271285,1176.4544556271285,1176.4544556271285,1176.4544556271285,1176.4544556271285,1176.4544556271285,1176.4544556271285,1176.4544556271285,1176.4544556271285,1176.4544556271285,l,0.9282641517929733,10,123,0,1177.4063963992521,1178.9054276230745,1178.9054276230745,,,,,,,,,,,,,,,,,,,,,,,,,,,,,,,,,,,,,,,,,,,,,,,,,,,,,,,,,,,,,,,,,,,,,97511,2022-12-01_11h17.46.624,vts_reward_expectancy_bt_OFFLINE,2022.2.4,59.960681687696386,
1,0,0,0,0,0,1,0,triangle,hexagon,0,0,0,0,2,0,24,1,,,,,,,,,,,,,,,,,,,,,,,,,,,,,,,,,,,,,,,,1179.4054826111533,1179.4054826111533,1179.4054826111533,1179.4054826111533,1179.4054826111533,1179.4054826111533,1179.4054826111533,1179.4054826111533,1179.4054826111533,1179.4054826111533,a,0.8900995459407568,1,124,0,1180.3257527998649,1181.8251067930833,1181.8251067930833,,,,,,,,,,,,,,,,,,,,,,,,,,,,,,,,,,,,,,,,,,,,,,,,,,,,,,,,,,,,,,,,,,,,,97511,2022-12-01_11h17.46.624,vts_reward_expectancy_bt_OFFLINE,2022.2.4,59.960681687696386,
0,1,0,0,0,0,1,0,circle,hexagon,0,0,0,0,2,1,25,4,,,,,,,,,,,,,,,,,,,,,,,,,,,,,,,,,,,,,,,,1182.3251012251712,1182.3251012251712,1182.3251012251712,1182.3251012251712,1182.3251012251712,1182.3251012251712,1182.3251012251712,1182.3251012251712,1182.3251012251712,1182.3251012251712,l,0.7606386062689126,10,134,0,1183.1099600209855,1184.6094025350176,1184.6094025350176,,,,,,,,,,,,,,,,,,,,,,,,,,,,,,,,,,,,,,,,,,,,,,,,,,,,,,,,,,,,,,,,,,,,,97511,2022-12-01_11h17.46.624,vts_reward_expectancy_bt_OFFLINE,2022.2.4,59.960681687696386,
0,0,0,1,0,0,1,0,star,hexagon,0,0,0,0,2,2,26,11,,,,,,,,,,,,,,,,,,,,,,,,,,,,,,,,,,,,,,,,1185.1113947378471,1185.1113947378471,1185.1113947378471,1185.1113947378471,1185.1113947378471,1185.1113947378471,1185.1113947378471,1185.1113947378471,1185.1113947378471,1185.1113947378471,l,1.2030198290012777,10,144,0,1186.3454005490057,1187.8456982020289,1187.8456982020289,1188.3462271960452,,,,,,,,,,,,,,,,,,,,,,,,,,,,,,,,,,,,,,,,,,,,,,,,,,,,,,,,,,,,,,,,,,,,97511,2022-12-01_11h17.46.624,vts_reward_expectancy_bt_OFFLINE,2022.2.4,59.960681687696386,
0,0,1,0,0,1,0,0,hexagon,circle,0,0,0,0,2,3,27,7,,,,,,,,,,,,,,,,,,,,,,,,,,,,,,,,,,,,,,,,1188.3462271960452,1188.3462271960452,1188.3462271960452,1188.3462271960452,1188.3462271960452,1188.3462271960452,1188.3462271960452,1188.3462271960452,1188.3462271960452,1188.3462271960452,a,1.7147131031379104,1,145,0,1190.0832753651775,,1191.5986760789528,,,,,,,,,,,,,,,,,,,,,,,,,,,,,,,,,,,,,,,,,,,,,,,,,,,,,,,,,,,,,,,,,,,,,97511,2022-12-01_11h17.46.624,vts_reward_expectancy_bt_OFFLINE,2022.2.4,59.960681687696386,
0,0,1,0,1,0,0,0,hexagon,triangle,0,0,0,0,2,4,28,6,,,,,,,,,,,,,,,,,,,,,,,,,,,,,,,,,,,,,,,,1192.0823151739314,1192.0823151739314,1192.0823151739314,1192.0823151739314,1192.0823151739314,1192.0823151739314,1192.0823151739314,1192.0823151739314,1192.0823151739314,1192.0823151739314,a,0.7589658037759364,10,155,0,1192.8672929680906,,1194.3832349418662,,,,,,,,,,,,,,,,,,,,,,,,,,,,,,,,,,,,,,,,,,,,,,,,,,,,,,,,,,,,,,,,,,,,,97511,2022-12-01_11h17.46.624,vts_reward_expectancy_bt_OFFLINE,2022.2.4,59.960681687696386,
0,0,0,1,1,0,0,0,star,triangle,0,0,0,0,2,5,29,9,,,,,,,,,,,,,,,,,,,,,,,,,,,,,,,,,,,,,,,,1194.8684921571985,1194.8684921571985,1194.8684921571985,1194.8684921571985,1194.8684921571985,1194.8684921571985,1194.8684921571985,1194.8684921571985,1194.8684921571985,1194.8684921571985,l,1.4145455616526306,1,156,0,1196.3040511910804,,1197.8195025562309,,,,,,,,,,,,,,,,,,,,,,,,,,,,,,,,,,,,,,,,,,,,,,,,,,,,,,,,,,,,,,,,,,,,,97511,2022-12-01_11h17.46.624,vts_reward_expectancy_bt_OFFLINE,2022.2.4,59.960681687696386,
1,0,0,0,0,1,0,0,triangle,circle,0,0,0,0,2,6,30,0,,,,,,,,,,,,,,,,,,,,,,,,,,,,,,,,,,,,,,,,1198.3198394882493,1198.3198394882493,1198.3198394882493,1198.3198394882493,1198.3198394882493,1198.3198394882493,1198.3198394882493,1198.3198394882493,1198.3198394882493,1198.3198394882493,a,1.1691248291172087,1,157,0,1199.5203475519083,,1201.0228414898738,,,,,,,,,,,,,,,,,,,,,,,,,,,,,,,,,,,,,,,,,,,,,,,,,,,,,,,,,,,,,,,,,,,,,97511,2022-12-01_11h17.46.624,vts_reward_expectancy_bt_OFFLINE,2022.2.4,59.960681687696386,
0,1,0,0,1,0,0,0,circle,triangle,0,0,0,0,2,7,31,3,,,,,,,,,,,,,,,,,,,,,,,,,,,,,,,,,,,,,,,,1201.5229270369746,1201.5229270369746,1201.5229270369746,1201.5229270369746,1201.5229270369746,1201.5229270369746,1201.5229270369746,1201.5229270369746,1201.5229270369746,1201.5229270369746,a,1.465216969139874,1,158,0,1203.0063613029197,1204.5068470449187,1204.5068470449187,,,,,,,,,,,,,,,,,,,,,,,,,,,,,,,,,,,,,,,,,,,,,,,,,,,,,,,,,,,,,,,,,,,,,97511,2022-12-01_11h17.46.624,vts_reward_expectancy_bt_OFFLINE,2022.2.4,59.960681687696386,
1,0,0,0,0,0,0,1,triangle,star,0,0,0,0,2,8,32,2,,,,,,,,,,,,,,,,,,,,,,,,,,,,,,,,,,,,,,,,1205.009231171105,1205.009231171105,1205.009231171105,1205.009231171105,1205.009231171105,1205.009231171105,1205.009231171105,1205.009231171105,1205.009231171105,1205.009231171105,l,0.8822013791650534,1,159,0,1205.909754686989,1207.40999109298,1207.40999109298,1207.9102649432607,,,,,,,,,,,,,,,,,,,,,,,,,,,,,,,,,,,,,,,,,,,,,,,,,,,,,,,,,,,,,,,,,,,,97511,2022-12-01_11h17.46.624,vts_reward_expectancy_bt_OFFLINE,2022.2.4,59.960681687696386,
0,0,1,0,0,0,0,1,hexagon,star,0,0,0,0,2,9,33,8,,,,,,,,,,,,,,,,,,,,,,,,,,,,,,,,,,,,,,,,1207.9102649432607,1207.9102649432607,1207.9102649432607,1207.9102649432607,1207.9102649432607,1207.9102649432607,1207.9102649432607,1207.9102649432607,1207.9102649432607,1207.9102649432607,a,0.669364333152771,10,169,0,1208.6113467779942,,1210.1126626608893,,,,,,,,,,,,,,,,,,,,,,,,,,,,,,,,,,,,,,,,,,,,,,,,,,,,,,,,,,,,,,,,,,,,,97511,2022-12-01_11h17.46.624,vts_reward_expectancy_bt_OFFLINE,2022.2.4,59.960681687696386,
0,0,0,1,0,1,0,0,star ,circle,0,0,0,0,2,10,34,10,,,,,,,,,,,,,,,,,,,,,,,,,,,,,,,,,,,,,,,,1210.612541149836,1210.612541149836,1210.612541149836,1210.612541149836,1210.612541149836,1210.612541149836,1210.612541149836,1210.612541149836,1210.612541149836,1210.612541149836,l,1.0056030969135463,1,170,0,1211.6486267410219,,1213.163541690912,,,,,,,,,,,,,,,,,,,,,,,,,,,,,,,,,,,,,,,,,,,,,,,,,,,,,,,,,,,,,,,,,,,,,97511,2022-12-01_11h17.46.624,vts_reward_expectancy_bt_OFFLINE,2022.2.4,59.960681687696386,
0,1,0,0,0,0,0,1,circle,star,0,0,0,0,2,11,35,5,,,,,,,,,,,,,,,,,,,,,,,,,,,,,,,,,,,,,,,,1213.6637132908218,1213.6637132908218,1213.6637132908218,1213.6637132908218,1213.6637132908218,1213.6637132908218,1213.6637132908218,1213.6637132908218,1213.6637132908218,1213.6637132908218,l,0.744051864836365,10,180,0,1214.4329422800802,,1215.933472870849,,,,,,,,,,,,,,,,,,,,,,,,,,,,,,,,,,,,,,,,,,,,,,,,,,,,,,,,,,,,,,,,,,,,,97511,2022-12-01_11h17.46.624,vts_reward_expectancy_bt_OFFLINE,2022.2.4,59.960681687696386,
1,0,0,0,0,0,0,1,triangle,star,0,0,0,0,3,0,36,2,,,,,,,,,,,,,,,,,,,,,,,,,,,,,,,,,,,,,,,,1216.4334083702415,1216.4334083702415,1216.4334083702415,1216.4334083702415,1216.4334083702415,1216.4334083702415,1216.4334083702415,1216.4334083702415,1216.4334083702415,1216.4334083702415,a,1.000420968979597,10,190,0,1217.450411517173,1218.950919718016,1218.950919718016,1219.4508761512116,,,,,,,,,,,,,,,,,,,,,,,,,,,,,,,,,,,,,,,,,,,,,,,,,,,,,,,,,,,,,,,,,,,,97511,2022-12-01_11h17.46.624,vts_reward_expectancy_bt_OFFLINE,2022.2.4,59.960681687696386,
0,0,0,1,0,1,0,0,star ,circle,0,0,0,0,3,1,37,10,,,,,,,,,,,,,,,,,,,,,,,,,,,,,,,,,,,,,,,,1219.4508761512116,1219.4508761512116,1219.4508761512116,1219.4508761512116,1219.4508761512116,1219.4508761512116,1219.4508761512116,1219.4508761512116,1219.4508761512116,1219.4508761512116,l,1.2117117182351649,1,191,0,1220.688711938914,,1222.204108285252,,,,,,,,,,,,,,,,,,,,,,,,,,,,,,,,,,,,,,,,,,,,,,,,,,,,,,,,,,,,,,,,,,,,,97511,2022-12-01_11h17.46.624,vts_reward_expectancy_bt_OFFLINE,2022.2.4,59.960681687696386,
0,1,0,0,1,0,0,0,circle,triangle,0,0,0,0,3,2,38,3,,,,,,,,,,,,,,,,,,,,,,,,,,,,,,,,,,,,,,,,1222.704179413151,1222.704179413151,1222.704179413151,1222.704179413151,1222.704179413151,1222.704179413151,1222.704179413151,1222.704179413151,1222.704179413151,1222.704179413151,a,0.6822972455993295,1,192,0,1223.4048264748417,,1224.9067279160954,,,,,,,,,,,,,,,,,,,,,,,,,,,,,,,,,,,,,,,,,,,,,,,,,,,,,,,,,,,,,,,,,,,,,97511,2022-12-01_11h17.46.624,vts_reward_expectancy_bt_OFFLINE,2022.2.4,59.960681687696386,
0,1,0,0,0,0,0,1,circle,star,0,0,0,0,3,3,39,5,,,,,,,,,,,,,,,,,,,,,,,,,,,,,,,,,,,,,,,,1225.4066183408722,1225.4066183408722,1225.4066183408722,1225.4066183408722,1225.4066183408722,1225.4066183408722,1225.4066183408722,1225.4066183408722,1225.4066183408722,1225.4066183408722,l,0.543800531886518,10,202,0,1225.9752425402403,1227.4746810579672,1227.4746810579672,1227.9750247811899,,,,,,,,,,,,,,,,,,,,,,,,,,,,,,,,,,,,,,,,,,,,,,,,,,,,,,,,,,,,,,,,,,,,97511,2022-12-01_11h17.46.624,vts_reward_expectancy_bt_OFFLINE,2022.2.4,59.960681687696386,
0,1,0,0,0,0,1,0,circle,hexagon,0,0,0,0,3,4,40,4,,,,,,,,,,,,,,,,,,,,,,,,,,,,,,,,,,,,,,,,1227.9750247811899,1227.9750247811899,1227.9750247811899,1227.9750247811899,1227.9750247811899,1227.9750247811899,1227.9750247811899,1227.9750247811899,1227.9750247811899,1227.9750247811899,l,0.8330151508562267,10,212,0,1228.8250418030657,,1230.3270263080485,,,,,,,,,,,,,,,,,,,,,,,,,,,,,,,,,,,,,,,,,,,,,,,,,,,,,,,,,,,,,,,,,,,,,97511,2022-12-01_11h17.46.624,vts_reward_expectancy_bt_OFFLINE,2022.2.4,59.960681687696386,
0,0,1,0,1,0,0,0,hexagon,triangle,0,0,0,0,3,5,41,6,,,,,,,,,,,,,,,,,,,,,,,,,,,,,,,,,,,,,,,,1230.8273039059713,1230.8273039059713,1230.8273039059713,1230.8273039059713,1230.8273039059713,1230.8273039059713,1230.8273039059713,1230.8273039059713,1230.8273039059713,1230.8273039059713,a,1.5596403060480952,10,222,0,1232.4114264501259,1233.9121060399339,1233.9121060399339,1234.412208945956,,,,,,,,,,,,,,,,,,,,,,,,,,,,,,,,,,,,,,,,,,,,,,,,,,,,,,,,,,,,,,,,,,,,97511,2022-12-01_11h17.46.624,vts_reward_expectancy_bt_OFFLINE,2022.2.4,59.960681687696386,
0,0,0,1,0,0,1,0,star,hexagon,0,0,0,0,3,6,42,11,,,,,,,,,,,,,,,,,,,,,,,,,,,,,,,,,,,,,,,,1234.412208945956,1234.412208945956,1234.412208945956,1234.412208945956,1234.412208945956,1234.412208945956,1234.412208945956,1234.412208945956,1234.412208945956,1234.412208945956,l,1.135180653538555,10,232,0,1235.564111766871,1237.0647957511246,1237.0647957511246,1237.56504167011,,,,,,,,,,,,,,,,,,,,,,,,,,,,,,,,,,,,,,,,,,,,,,,,,,,,,,,,,,,,,,,,,,,,97511,2022-12-01_11h17.46.624,vts_reward_expectancy_bt_OFFLINE,2022.2.4,59.960681687696386,
0,0,1,0,0,1,0,0,hexagon,circle,0,0,0,0,3,7,43,7,,,,,,,,,,,,,,,,,,,,,,,,,,,,,,,,,,,,,,,,1237.56504167011,1237.56504167011,1237.56504167011,1237.56504167011,1237.56504167011,1237.56504167011,1237.56504167011,1237.56504167011,1237.56504167011,1237.56504167011,a,0.6833829171955585,10,242,0,1238.2651290539652,,1239.7675460190512,,,,,,,,,,,,,,,,,,,,,,,,,,,,,,,,,,,,,,,,,,,,,,,,,,,,,,,,,,,,,,,,,,,,,97511,2022-12-01_11h17.46.624,vts_reward_expectancy_bt_OFFLINE,2022.2.4,59.960681687696386,
1,0,0,0,0,0,1,0,triangle,hexagon,0,0,0,0,3,8,44,1,,,,,,,,,,,,,,,,,,,,,,,,,,,,,,,,,,,,,,,,1240.267845525872,1240.267845525872,1240.267845525872,1240.267845525872,1240.267845525872,1240.267845525872,1240.267845525872,1240.267845525872,1240.267845525872,1240.267845525872,l,0.6580653195269406,10,252,0,1240.9516700571403,1242.4521528952755,1242.4521528952755,1242.9523283829913,,,,,,,,,,,,,,,,,,,,,,,,,,,,,,,,,,,,,,,,,,,,,,,,,,,,,,,,,,,,,,,,,,,,97511,2022-12-01_11h17.46.624,vts_reward_expectancy_bt_OFFLINE,2022.2.4,59.960681687696386,
0,0,1,0,0,0,0,1,hexagon,star,0,0,0,0,3,9,45,8,,,,,,,,,,,,,,,,,,,,,,,,,,,,,,,,,,,,,,,,1242.9523283829913,1242.9523283829913,1242.9523283829913,1242.9523283829913,1242.9523283829913,1242.9523283829913,1242.9523283829913,1242.9523283829913,1242.9523283829913,1242.9523283829913,a,0.7062749122269452,10,262,0,1243.685672241263,,1245.1884696260095,,,,,,,,,,,,,,,,,,,,,,,,,,,,,,,,,,,,,,,,,,,,,,,,,,,,,,,,,,,,,,,,,,,,,97511,2022-12-01_11h17.46.624,vts_reward_expectancy_bt_OFFLINE,2022.2.4,59.960681687696386,
1,0,0,0,0,1,0,0,triangle,circle,0,0,0,0,3,10,46,0,,,,,,,,,,,,,,,,,,,,,,,,,,,,,,,,,,,,,,,,1245.6887403768487,1245.6887403768487,1245.6887403768487,1245.6887403768487,1245.6887403768487,1245.6887403768487,1245.6887403768487,1245.6887403768487,1245.6887403768487,1245.6887403768487,l,1.8411966529674828,1,263,0,1247.5574345421046,,1249.0727304751053,,,,,,,,,,,,,,,,,,,,,,,,,,,,,,,,,,,,,,,,,,,,,,,,,,,,,,,,,,,,,,,,,,,,,97511,2022-12-01_11h17.46.624,vts_reward_expectancy_bt_OFFLINE,2022.2.4,59.960681687696386,
0,0,0,1,1,0,0,0,star,triangle,0,0,0,0,3,11,47,9,,,,,,,,,,,,,,,,,,,,,,,,,,,,,,,,,,,,,,,,1249.5725230909884,1249.5725230909884,1249.5725230909884,1249.5725230909884,1249.5725230909884,1249.5725230909884,1249.5725230909884,1249.5725230909884,1249.5725230909884,1249.5725230909884,a,0.6677413708530366,10,273,0,1250.2599449171685,1251.7593476651236,1251.7593476651236,1252.2651367140934,,,,,,,,,,,,,,,,,,,,,,,,,,,,,,,,,,,,,,,,,,,,,,,,,,,,,,,,,,,,,,,,,,,,97511,2022-12-01_11h17.46.624,vts_reward_expectancy_bt_OFFLINE,2022.2.4,59.960681687696386,
0,0,1,0,0,1,0,0,hexagon,circle,1,0,1,0,0,0,0,7,,,,,,,,,,,,,,,,,,,,,,,,,,,,,,,,,,,,,,,,1257.6404142030515,1257.6404142030515,1257.6404142030515,1257.6404142030515,1257.6404142030515,1257.6404142030515,1257.6404142030515,1257.6404142030515,1257.6404142030515,1257.6404142030515,a,1.522330891340971,10,283,1,1259.1799399121664,,1260.6829438842833,,,,,,,,,,,,,,,,,,,,,,,,,,,,,,,,,,,,,,,,,,,,,,,,,,,,,,,,,,,,,,,,,,,,,97511,2022-12-01_11h17.46.624,vts_reward_expectancy_bt_OFFLINE,2022.2.4,59.960681687696386,
1,0,0,0,0,0,0,1,triangle,star,1,0,1,0,0,1,1,2,,,,,,,,,,,,,,,,,,,,,,,,,,,,,,,,,,,,,,,,1261.1829925612547,1261.1829925612547,1261.1829925612547,1261.1829925612547,1261.1829925612547,1261.1829925612547,1261.1829925612547,1261.1829925612547,1261.1829925612547,1261.1829925612547,l,0.9155225739814341,1,284,1,1262.1184642938897,,1263.6338453418575,,,,,,,,,,,,,,,,,,,,,,,,,,,,,,,,,,,,,,,,,,,,,,,,,,,,,,,,,,,,,,,,,,,,,97511,2022-12-01_11h17.46.624,vts_reward_expectancy_bt_OFFLINE,2022.2.4,59.960681687696386,
0,0,1,0,1,0,0,0,hexagon,triangle,1,0,1,0,0,2,2,6,,,,,,,,,,,,,,,,,,,,,,,,,,,,,,,,,,,,,,,,1264.1338572571985,1264.1338572571985,1264.1338572571985,1264.1338572571985,1264.1338572571985,1264.1338572571985,1264.1338572571985,1264.1338572571985,1264.1338572571985,1264.1338572571985,a,0.6431951569393277,10,294,1,1264.8047231161036,,1266.320031019859,,,,,,,,,,,,,,,,,,,,,,,,,,,,,,,,,,,,,,,,,,,,,,,,,,,,,,,,,,,,,,,,,,,,,97511,2022-12-01_11h17.46.624,vts_reward_expectancy_bt_OFFLINE,2022.2.4,59.960681687696386,
1,0,0,0,0,1,0,0,triangle,circle,1,0,1,0,0,3,3,0,,,,,,,,,,,,,,,,,,,,,,,,,,,,,,,,,,,,,,,,1266.820113427937,1266.820113427937,1266.820113427937,1266.820113427937,1266.820113427937,1266.820113427937,1266.820113427937,1266.820113427937,1266.820113427937,1266.820113427937,l,0.9262681626714766,1,295,1,1267.7728563519195,,1269.287612712942,,,,,,,,,,,,,,,,,,,,,,,,,,,,,,,,,,,,,,,,,,,,,,,,,,,,,,,,,,,,,,,,,,,,,97511,2022-12-01_11h17.46.624,vts_reward_expectancy_bt_OFFLINE,2022.2.4,59.960681687696386,
0,0,0,1,1,0,0,0,star,triangle,1,0,1,0,0,4,4,9,,,,,,,,,,,,,,,,,,,,,,,,,,,,,,,,,,,,,,,,1269.773234364111,1269.773234364111,1269.773234364111,1269.773234364111,1269.773234364111,1269.773234364111,1269.773234364111,1269.773234364111,1269.773234364111,1269.773234364111,a,0.6510447072796524,1,296,1,1270.456277814228,1271.9571169391274,1271.9571169391274,1272.4570888751186,,,,,,,,,,,,,,,,,,,,,,,,,,,,,,,,,,,,,,,,,,,,,,,,,,,,,,,,,,,,,,,,,,,,97511,2022-12-01_11h17.46.624,vts_reward_expectancy_bt_OFFLINE,2022.2.4,59.960681687696386,
0,1,0,0,0,0,0,1,circle,star,1,0,1,0,0,5,5,5,,,,,,,,,,,,,,,,,,,,,,,,,,,,,,,,,,,,,,,,1272.4570888751186,1272.4570888751186,1272.4570888751186,1272.4570888751186,1272.4570888751186,1272.4570888751186,1272.4570888751186,1272.4570888751186,1272.4570888751186,1272.4570888751186,l,0.6786260311491787,10,306,1,1273.1591648529284,,1274.674627384171,,,,,,,,,,,,,,,,,,,,,,,,,,,,,,,,,,,,,,,,,,,,,,,,,,,,,,,,,,,,,,,,,,,,,97511,2022-12-01_11h17.46.624,vts_reward_expectancy_bt_OFFLINE,2022.2.4,59.960681687696386,
0,0,0,1,0,0,1,0,star,hexagon,1,0,1,0,0,6,6,11,,,,,,,,,,,,,,,,,,,,,,,,,,,,,,,,,,,,,,,,1275.1603195290081,1275.1603195290081,1275.1603195290081,1275.1603195290081,1275.1603195290081,1275.1603195290081,1275.1603195290081,1275.1603195290081,1275.1603195290081,1275.1603195290081,l,1.2384224398992956,10,316,1,1276.4273086260073,1277.9278679010458,1277.9278679010458,1278.427968707867,,,,,,,,,,,,,,,,,,,,,,,,,,,,,,,,,,,,,,,,,,,,,,,,,,,,,,,,,,,,,,,,,,,,97511,2022-12-01_11h17.46.624,vts_reward_expectancy_bt_OFFLINE,2022.2.4,59.960681687696386,
1,0,0,0,0,0,1,0,triangle,hexagon,1,0,1,0,0,7,7,1,,,,,,,,,,,,,,,,,,,,,,,,,,,,,,,,,,,,,,,,1278.427968707867,1278.427968707867,1278.427968707867,1278.427968707867,1278.427968707867,1278.427968707867,1278.427968707867,1278.427968707867,1278.427968707867,1278.427968707867,l,0.760068753734231,1,317,1,1279.2134659499861,,1280.713552332949,,,,,,,,,,,,,,,,,,,,,,,,,,,,,,,,,,,,,,,,,,,,,,,,,,,,,,,,,,,,,,,,,,,,,97511,2022-12-01_11h17.46.624,vts_reward_expectancy_bt_OFFLINE,2022.2.4,59.960681687696386,
0,0,1,0,0,0,0,1,hexagon,star,1,0,1,0,0,8,8,8,,,,,,,,,,,,,,,,,,,,,,,,,,,,,,,,,,,,,,,,1281.2139487201348,1281.2139487201348,1281.2139487201348,1281.2139487201348,1281.2139487201348,1281.2139487201348,1281.2139487201348,1281.2139487201348,1281.2139487201348,1281.2139487201348,l,0.6968101309612393,10,327,1,1281.9331771689467,,1283.4482310549356,,,,,,,,,,,,,,,,,,,,,,,,,,,,,,,,,,,,,,,,,,,,,,,,,,,,,,,,,,,,,,,,,,,,,97511,2022-12-01_11h17.46.624,vts_reward_expectancy_bt_OFFLINE,2022.2.4,59.960681687696386,
0,1,0,0,0,0,1,0,circle,hexagon,1,0,1,0,0,9,9,4,,,,,,,,,,,,,,,,,,,,,,,,,,,,,,,,,,,,,,,,1283.948410604149,1283.948410604149,1283.948410604149,1283.948410604149,1283.948410604149,1283.948410604149,1283.948410604149,1283.948410604149,1283.948410604149,1283.948410604149,l,0.7527121021412313,10,337,1,1284.7288890480995,,1286.2343398379162,,,,,,,,,,,,,,,,,,,,,,,,,,,,,,,,,,,,,,,,,,,,,,,,,,,,,,,,,,,,,,,,,,,,,97511,2022-12-01_11h17.46.624,vts_reward_expectancy_bt_OFFLINE,2022.2.4,59.960681687696386,
0,0,0,1,0,1,0,0,star ,circle,1,0,1,0,0,10,10,10,,,,,,,,,,,,,,,,,,,,,,,,,,,,,,,,,,,,,,,,1286.734469700139,1286.734469700139,1286.734469700139,1286.734469700139,1286.734469700139,1286.734469700139,1286.734469700139,1286.734469700139,1286.734469700139,1286.734469700139,a,0.7348710689693689,10,347,1,1287.5012056701817,1289.0018445770256,1289.0018445770256,1289.5019145039842,,,,,,,,,,,,,,,,,,,,,,,,,,,,,,,,,,,,,,,,,,,,,,,,,,,,,,,,,,,,,,,,,,,,97511,2022-12-01_11h17.46.624,vts_reward_expectancy_bt_OFFLINE,2022.2.4,59.960681687696386,
0,1,0,0,1,0,0,0,circle,triangle,1,0,1,0,0,11,11,3,,,,,,,,,,,,,,,,,,,,,,,,,,,,,,,,,,,,,,,,1289.5019145039842,1289.5019145039842,1289.5019145039842,1289.5019145039842,1289.5019145039842,1289.5019145039842,1289.5019145039842,1289.5019145039842,1289.5019145039842,1289.5019145039842,l,0.6779193528927863,1,348,1,1290.2065606750548,,1291.7213545199484,,,,,,,,,,,,,,,,,,,,,,,,,,,,,,,,,,,,,,,,,,,,,,,,,,,,,,,,,,,,,,,,,,,,,97511,2022-12-01_11h17.46.624,vts_reward_expectancy_bt_OFFLINE,2022.2.4,59.960681687696386,
0,1,0,0,0,0,0,1,circle,star,1,0,1,0,1,0,12,5,,,,,,,,,,,,,,,,,,,,,,,,,,,,,,,,,,,,,,,,1292.2213938171044,1292.2213938171044,1292.2213938171044,1292.2213938171044,1292.2213938171044,1292.2213938171044,1292.2213938171044,1292.2213938171044,1292.2213938171044,1292.2213938171044,l,0.4907532441429794,1,349,1,1292.738666497171,1294.2394800130278,1294.2394800130278,1294.7363435560837,,,,,,,,,,,,,,,,,,,,,,,,,,,,,,,,,,,,,,,,,,,,,,,,,,,,,,,,,,,,,,,,,,,,97511,2022-12-01_11h17.46.624,vts_reward_expectancy_bt_OFFLINE,2022.2.4,59.960681687696386,
0,0,0,1,1,0,0,0,star,triangle,1,0,1,0,1,1,13,9,,,,,,,,,,,,,,,,,,,,,,,,,,,,,,,,,,,,,,,,1294.7363435560837,1294.7363435560837,1294.7363435560837,1294.7363435560837,1294.7363435560837,1294.7363435560837,1294.7363435560837,1294.7363435560837,1294.7363435560837,1294.7363435560837,a,0.5405484759248793,10,359,1,1295.309261904098,1296.8082755440846,1296.8082755440846,1297.3083926131949,,,,,,,,,,,,,,,,,,,,,,,,,,,,,,,,,,,,,,,,,,,,,,,,,,,,,,,,,,,,,,,,,,,,97511,2022-12-01_11h17.46.624,vts_reward_expectancy_bt_OFFLINE,2022.2.4,59.960681687696386,
0,1,0,0,1,0,0,0,circle,triangle,1,0,1,0,1,2,14,3,,,,,,,,,,,,,,,,,,,,,,,,,,,,,,,,,,,,,,,,1297.3083926131949,1297.3083926131949,1297.3083926131949,1297.3083926131949,1297.3083926131949,1297.3083926131949,1297.3083926131949,1297.3083926131949,1297.3083926131949,1297.3083926131949,a,0.7131506325677037,1,360,1,1298.0443567861803,,1299.5592867662199,,,,,,,,,,,,,,,,,,,,,,,,,,,,,,,,,,,,,,,,,,,,,,,,,,,,,,,,,,,,,,,,,,,,,97511,2022-12-01_11h17.46.624,vts_reward_expectancy_bt_OFFLINE,2022.2.4,59.960681687696386,
1,0,0,0,0,1,0,0,triangle,circle,1,0,1,0,1,3,15,0,,,,,,,,,,,,,,,,,,,,,,,,,,,,,,,,,,,,,,,,1300.0450080861337,1300.0450080861337,1300.0450080861337,1300.0450080861337,1300.0450080861337,1300.0450080861337,1300.0450080861337,1300.0450080861337,1300.0450080861337,1300.0450080861337,a,0.8232475398108363,1,361,1,1300.8953297780827,1302.3957856958732,1302.3957856958732,1302.8960569961928,,,,,,,,,,,,,,,,,,,,,,,,,,,,,,,,,,,,,,,,,,,,,,,,,,,,,,,,,,,,,,,,,,,,97511,2022-12-01_11h17.46.624,vts_reward_expectancy_bt_OFFLINE,2022.2.4,59.960681687696386,
0,0,1,0,1,0,0,0,hexagon,triangle,1,0,1,0,1,4,16,6,,,,,,,,,,,,,,,,,,,,,,,,,,,,,,,,,,,,,,,,1302.8960569961928,1302.8960569961928,1302.8960569961928,1302.8960569961928,1302.8960569961928,1302.8960569961928,1302.8960569961928,1302.8960569961928,1302.8960569961928,1302.8960569961928,a,0.6948616490699351,10,371,1,1303.61503954418,,1305.1148855360225,,,,,,,,,,,,,,,,,,,,,,,,,,,,,,,,,,,,,,,,,,,,,,,,,,,,,,,,,,,,,,,,,,,,,97511,2022-12-01_11h17.46.624,vts_reward_expectancy_bt_OFFLINE,2022.2.4,59.960681687696386,
0,1,0,0,0,0,1,0,circle,hexagon,1,0,1,0,1,5,17,4,,,,,,,,,,,,,,,,,,,,,,,,,,,,,,,,,,,,,,,,1305.6150857452303,1305.6150857452303,1305.6150857452303,1305.6150857452303,1305.6150857452303,1305.6150857452303,1305.6150857452303,1305.6150857452303,1305.6150857452303,1305.6150857452303,l,0.5864929370582104,10,381,1,1306.2326209531166,1307.7330766692758,1307.7330766692758,1308.2331652198918,,,,,,,,,,,,,,,,,,,,,,,,,,,,,,,,,,,,,,,,,,,,,,,,,,,,,,,,,,,,,,,,,,,,97511,2022-12-01_11h17.46.624,vts_reward_expectancy_bt_OFFLINE,2022.2.4,59.960681687696386,
1,0,0,0,0,0,0,1,triangle,star,1,0,1,0,1,6,18,2,,,,,,,,,,,,,,,,,,,,,,,,,,,,,,,,,,,,,,,,1308.2331652198918,1308.2331652198918,1308.2331652198918,1308.2331652198918,1308.2331652198918,1308.2331652198918,1308.2331652198918,1308.2331652198918,1308.2331652198918,1308.2331652198918,l,0.6450448972173035,1,382,1,1308.9022617051378,,1310.4024777370505,,,,,,,,,,,,,,,,,,,,,,,,,,,,,,,,,,,,,,,,,,,,,,,,,,,,,,,,,,,,,,,,,,,,,97511,2022-12-01_11h17.46.624,vts_reward_expectancy_bt_OFFLINE,2022.2.4,59.960681687696386,
0,0,0,1,0,1,0,0,star ,circle,1,0,1,0,1,7,19,10,,,,,,,,,,,,,,,,,,,,,,,,,,,,,,,,,,,,,,,,1310.9026753301732,1310.9026753301732,1310.9026753301732,1310.9026753301732,1310.9026753301732,1310.9026753301732,1310.9026753301732,1310.9026753301732,1310.9026753301732,1310.9026753301732,a,0.6091761011630297,1,383,1,1311.5361099280417,1313.0363219361752,1313.0363219361752,1313.5364743289538,,,,,,,,,,,,,,,,,,,,,,,,,,,,,,,,,,,,,,,,,,,,,,,,,,,,,,,,,,,,,,,,,,,,97511,2022-12-01_11h17.46.624,vts_reward_expectancy_bt_OFFLINE,2022.2.4,59.960681687696386,
0,0,0,1,0,0,1,0,star,hexagon,1,0,1,0,1,8,20,11,,,,,,,,,,,,,,,,,,,,,,,,,,,,,,,,,,,,,,,,1313.5364743289538,1313.5364743289538,1313.5364743289538,1313.5364743289538,1313.5364743289538,1313.5364743289538,1313.5364743289538,1313.5364743289538,1313.5364743289538,1313.5364743289538,a,0.573512245900929,10,393,1,1314.138688527979,,1315.639595106244,,,,,,,,,,,,,,,,,,,,,,,,,,,,,,,,,,,,,,,,,,,,,,,,,,,,,,,,,,,,,,,,,,,,,97511,2022-12-01_11h17.46.624,vts_reward_expectancy_bt_OFFLINE,2022.2.4,59.960681687696386,
0,0,1,0,0,1,0,0,hexagon,circle,1,0,1,0,1,9,21,7,,,,,,,,,,,,,,,,,,,,,,,,,,,,,,,,,,,,,,,,1316.1396638061851,1316.1396638061851,1316.1396638061851,1316.1396638061851,1316.1396638061851,1316.1396638061851,1316.1396638061851,1316.1396638061851,1316.1396638061851,1316.1396638061851,a,0.6591515955515206,1,394,1,1316.82494491525,,1318.340354528278,,,,,,,,,,,,,,,,,,,,,,,,,,,,,,,,,,,,,,,,,,,,,,,,,,,,,,,,,,,,,,,,,,,,,97511,2022-12-01_11h17.46.624,vts_reward_expectancy_bt_OFFLINE,2022.2.4,59.960681687696386,
0,0,1,0,0,0,0,1,hexagon,star,1,0,1,0,1,10,22,8,,,,,,,,,,,,,,,,,,,,,,,,,,,,,,,,,,,,,,,,1318.840694194194,1318.840694194194,1318.840694194194,1318.840694194194,1318.840694194194,1318.840694194194,1318.840694194194,1318.840694194194,1318.840694194194,1318.840694194194,l,0.5232635671272874,10,404,1,1319.3928396222182,,1320.8927317541093,,,,,,,,,,,,,,,,,,,,,,,,,,,,,,,,,,,,,,,,,,,,,,,,,,,,,,,,,,,,,,,,,,,,,97511,2022-12-01_11h17.46.624,vts_reward_expectancy_bt_OFFLINE,2022.2.4,59.960681687696386,
1,0,0,0,0,0,1,0,triangle,hexagon,1,0,1,0,1,11,23,1,,,,,,,,,,,,,,,,,,,,,,,,,,,,,,,,,,,,,,,,1321.3930234322324,1321.3930234322324,1321.3930234322324,1321.3930234322324,1321.3930234322324,1321.3930234322324,1321.3930234322324,1321.3930234322324,1321.3930234322324,1321.3930234322324,l,0.6038873689249158,10,414,1,1322.0274709989317,1323.5273149930872,1323.5273149930872,1324.0276607880369,,,,,,,,,,,,,,,,,,,,,,,,,,,,,,,,,,,,,,,,,,,,,,,,,,,,,,,,,,,,,,,,,,,,97511,2022-12-01_11h17.46.624,vts_reward_expectancy_bt_OFFLINE,2022.2.4,59.960681687696386,
0,0,1,0,1,0,0,0,hexagon,triangle,1,0,1,0,2,0,24,6,,,,,,,,,,,,,,,,,,,,,,,,,,,,,,,,,,,,,,,,1324.0276607880369,1324.0276607880369,1324.0276607880369,1324.0276607880369,1324.0276607880369,1324.0276607880369,1324.0276607880369,1324.0276607880369,1324.0276607880369,1324.0276607880369,a,0.7146899048238993,10,424,1,1324.7581930258311,,1326.2633964731358,,,,,,,,,,,,,,,,,,,,,,,,,,,,,,,,,,,,,,,,,,,,,,,,,,,,,,,,,,,,,,,,,,,,,97511,2022-12-01_11h17.46.624,vts_reward_expectancy_bt_OFFLINE,2022.2.4,59.960681687696386,
0,1,0,0,0,0,1,0,circle,hexagon,1,0,1,0,2,1,25,4,,,,,,,,,,,,,,,,,,,,,,,,,,,,,,,,,,,,,,,,1326.7636415949091,1326.7636415949091,1326.7636415949091,1326.7636415949091,1326.7636415949091,1326.7636415949091,1326.7636415949091,1326.7636415949091,1326.7636415949091,1326.7636415949091,l,0.5097925048321486,10,434,1,1327.2973642190918,1328.797939170152,1328.797939170152,1329.2979316110723,,,,,,,,,,,,,,,,,,,,,,,,,,,,,,,,,,,,,,,,,,,,,,,,,,,,,,,,,,,,,,,,,,,,97511,2022-12-01_11h17.46.624,vts_reward_expectancy_bt_OFFLINE,2022.2.4,59.960681687696386,
1,0,0,0,0,0,0,1,triangle,star,1,0,1,0,2,2,26,2,,,,,,,,,,,,,,,,,,,,,,,,,,,,,,,,,,,,,,,,1329.2979316110723,1329.2979316110723,1329.2979316110723,1329.2979316110723,1329.2979316110723,1329.2979316110723,1329.2979316110723,1329.2979316110723,1329.2979316110723,1329.2979316110723,l,1.2149560395628214,1,435,1,1330.5355877461843,,1332.0504717691801,,,,,,,,,,,,,,,,,,,,,,,,,,,,,,,,,,,,,,,,,,,,,,,,,,,,,,,,,,,,,,,,,,,,,97511,2022-12-01_11h17.46.624,vts_reward_expectancy_bt_OFFLINE,2022.2.4,59.960681687696386,
1,0,0,0,0,0,1,0,triangle,hexagon,1,0,1,0,2,3,27,1,,,,,,,,,,,,,,,,,,,,,,,,,,,,,,,,,,,,,,,,1332.5506477858871,1332.5506477858871,1332.5506477858871,1332.5506477858871,1332.5506477858871,1332.5506477858871,1332.5506477858871,1332.5506477858871,1332.5506477858871,1332.5506477858871,l,0.5273584211245179,10,445,1,1333.103234227281,,1334.6184691358358,,,,,,,,,,,,,,,,,,,,,,,,,,,,,,,,,,,,,,,,,,,,,,,,,,,,,,,,,,,,,,,,,,,,,97511,2022-12-01_11h17.46.624,vts_reward_expectancy_bt_OFFLINE,2022.2.4,59.960681687696386,
0,1,0,0,0,0,0,1,circle,star,1,0,1,0,2,4,28,5,,,,,,,,,,,,,,,,,,,,,,,,,,,,,,,,,,,,,,,,1335.1038584611379,1335.1038584611379,1335.1038584611379,1335.1038584611379,1335.1038584611379,1335.1038584611379,1335.1038584611379,1335.1038584611379,1335.1038584611379,1335.1038584611379,l,1.2589298193342984,10,455,1,1336.3875802741386,1337.8877407060936,1337.8877407060936,1338.3880392252468,,,,,,,,,,,,,,,,,,,,,,,,,,,,,,,,,,,,,,,,,,,,,,,,,,,,,,,,,,,,,,,,,,,,97511,2022-12-01_11h17.46.624,vts_reward_expectancy_bt_OFFLINE,2022.2.4,59.960681687696386,
1,0,0,0,0,1,0,0,triangle,circle,1,0,1,0,2,5,29,0,,,,,,,,,,,,,,,,,,,,,,,,,,,,,,,,,,,,,,,,1338.3880392252468,1338.3880392252468,1338.3880392252468,1338.3880392252468,1338.3880392252468,1338.3880392252468,1338.3880392252468,1338.3880392252468,1338.3880392252468,1338.3880392252468,a,0.7311777011491358,1,456,1,1339.1401553712785,,1340.6411423282698,,,,,,,,,,,,,,,,,,,,,,,,,,,,,,,,,,,,,,,,,,,,,,,,,,,,,,,,,,,,,,,,,,,,,97511,2022-12-01_11h17.46.624,vts_reward_expectancy_bt_OFFLINE,2022.2.4,59.960681687696386,
0,1,0,0,1,0,0,0,circle,triangle,1,0,1,0,2,6,30,3,,,,,,,,,,,,,,,,,,,,,,,,,,,,,,,,,,,,,,,,1341.1412880588323,1341.1412880588323,1341.1412880588323,1341.1412880588323,1341.1412880588323,1341.1412880588323,1341.1412880588323,1341.1412880588323,1341.1412880588323,1341.1412880588323,l,0.5547581422142684,1,457,1,1341.7247949461453,1343.2254359270446,1343.2254359270446,1343.7253162949346,,,,,,,,,,,,,,,,,,,,,,,,,,,,,,,,,,,,,,,,,,,,,,,,,,,,,,,,,,,,,,,,,,,,97511,2022-12-01_11h17.46.624,vts_reward_expectancy_bt_OFFLINE,2022.2.4,59.960681687696386,
0,0,0,1,1,0,0,0,star,triangle,1,0,1,0,2,7,31,9,,,,,,,,,,,,,,,,,,,,,,,,,,,,,,,,,,,,,,,,1343.7253162949346,1343.7253162949346,1343.7253162949346,1343.7253162949346,1343.7253162949346,1343.7253162949346,1343.7253162949346,1343.7253162949346,1343.7253162949346,1343.7253162949346,a,0.9515601489692926,1,458,1,1344.7087087179534,1346.2116689081304,1346.2116689081304,,,,,,,,,,,,,,,,,,,,,,,,,,,,,,,,,,,,,,,,,,,,,,,,,,,,,,,,,,,,,,,,,,,,,97511,2022-12-01_11h17.46.624,vts_reward_expectancy_bt_OFFLINE,2022.2.4,59.960681687696386,
0,0,0,1,0,1,0,0,star ,circle,1,0,1,0,2,8,32,10,,,,,,,,,,,,,,,,,,,,,,,,,,,,,,,,,,,,,,,,1346.711865270976,1346.711865270976,1346.711865270976,1346.711865270976,1346.711865270976,1346.711865270976,1346.711865270976,1346.711865270976,1346.711865270976,1346.711865270976,a,1.542790088802576,1,459,1,1348.2793755442835,1349.7762933941558,1349.7762933941558,,,,,,,,,,,,,,,,,,,,,,,,,,,,,,,,,,,,,,,,,,,,,,,,,,,,,,,,,,,,,,,,,,,,,97511,2022-12-01_11h17.46.624,vts_reward_expectancy_bt_OFFLINE,2022.2.4,59.960681687696386,
0,0,1,0,0,0,0,1,hexagon,star,1,0,1,0,2,9,33,8,,,,,,,,,,,,,,,,,,,,,,,,,,,,,,,,,,,,,,,,1350.2814707229845,1350.2814707229845,1350.2814707229845,1350.2814707229845,1350.2814707229845,1350.2814707229845,1350.2814707229845,1350.2814707229845,1350.2814707229845,1350.2814707229845,l,0.8307499503716826,1,460,1,1351.1318003078923,1352.632353946101,1352.632353946101,1353.132560547907,,,,,,,,,,,,,,,,,,,,,,,,,,,,,,,,,,,,,,,,,,,,,,,,,,,,,,,,,,,,,,,,,,,,97511,2022-12-01_11h17.46.624,vts_reward_expectancy_bt_OFFLINE,2022.2.4,59.960681687696386,
0,0,1,0,0,1,0,0,hexagon,circle,1,0,1,0,2,10,34,7,,,,,,,,,,,,,,,,,,,,,,,,,,,,,,,,,,,,,,,,1353.132560547907,1353.132560547907,1353.132560547907,1353.132560547907,1353.132560547907,1353.132560547907,1353.132560547907,1353.132560547907,1353.132560547907,1353.132560547907,a,0.6120918379165232,10,470,1,1353.76828596415,,1355.2683274452575,,,,,,,,,,,,,,,,,,,,,,,,,,,,,,,,,,,,,,,,,,,,,,,,,,,,,,,,,,,,,,,,,,,,,97511,2022-12-01_11h17.46.624,vts_reward_expectancy_bt_OFFLINE,2022.2.4,59.960681687696386,
0,0,0,1,0,0,1,0,star,hexagon,1,0,1,0,2,11,35,11,,,,,,,,,,,,,,,,,,,,,,,,,,,,,,,,,,,,,,,,1355.7686339919455,1355.7686339919455,1355.7686339919455,1355.7686339919455,1355.7686339919455,1355.7686339919455,1355.7686339919455,1355.7686339919455,1355.7686339919455,1355.7686339919455,l,0.8004784979857504,10,480,1,1356.5865767141804,1358.0862079132348,1358.0862079132348,1358.5862850979902,,,,,,,,,,,,,,,,,,,,,,,,,,,,,,,,,,,,,,,,,,,,,,,,,,,,,,,,,,,,,,,,,,,,97511,2022-12-01_11h17.46.624,vts_reward_expectancy_bt_OFFLINE,2022.2.4,59.960681687696386,
1,0,0,0,0,1,0,0,triangle,circle,1,0,1,0,3,0,36,0,,,,,,,,,,,,,,,,,,,,,,,,,,,,,,,,,,,,,,,,1358.5862850979902,1358.5862850979902,1358.5862850979902,1358.5862850979902,1358.5862850979902,1358.5862850979902,1358.5862850979902,1358.5862850979902,1358.5862850979902,1358.5862850979902,a,0.5920385280624032,1,481,1,1359.2046662122011,,1360.7054013139568,,,,,,,,,,,,,,,,,,,,,,,,,,,,,,,,,,,,,,,,,,,,,,,,,,,,,,,,,,,,,,,,,,,,,97511,2022-12-01_11h17.46.624,vts_reward_expectancy_bt_OFFLINE,2022.2.4,59.960681687696386,
0,1,0,0,1,0,0,0,circle,triangle,1,0,1,0,3,1,37,3,,,,,,,,,,,,,,,,,,,,,,,,,,,,,,,,,,,,,,,,1361.205756150186,1361.205756150186,1361.205756150186,1361.205756150186,1361.205756150186,1361.205756150186,1361.205756150186,1361.205756150186,1361.205756150186,1361.205756150186,l,0.8753834720700979,1,482,1,1362.1067040241323,1363.606463958975,1363.606463958975,1364.1066162111238,,,,,,,,,,,,,,,,,,,,,,,,,,,,,,,,,,,,,,,,,,,,,,,,,,,,,,,,,,,,,,,,,,,,97511,2022-12-01_11h17.46.624,vts_reward_expectancy_bt_OFFLINE,2022.2.4,59.960681687696386,
0,0,0,1,0,0,1,0,star,hexagon,1,0,1,0,3,2,38,11,,,,,,,,,,,,,,,,,,,,,,,,,,,,,,,,,,,,,,,,1364.1066162111238,1364.1066162111238,1364.1066162111238,1364.1066162111238,1364.1066162111238,1364.1066162111238,1364.1066162111238,1364.1066162111238,1364.1066162111238,1364.1066162111238,l,0.7426731307059526,10,492,1,1364.877777911257,,1366.3925305232406,,,,,,,,,,,,,,,,,,,,,,,,,,,,,,,,,,,,,,,,,,,,,,,,,,,,,,,,,,,,,,,,,,,,,97511,2022-12-01_11h17.46.624,vts_reward_expectancy_bt_OFFLINE,2022.2.4,59.960681687696386,
0,0,1,0,1,0,0,0,hexagon,triangle,1,0,1,0,3,3,39,6,,,,,,,,,,,,,,,,,,,,,,,,,,,,,,,,,,,,,,,,1366.876353353262,1366.876353353262,1366.876353353262,1366.876353353262,1366.876353353262,1366.876353353262,1366.876353353262,1366.876353353262,1366.876353353262,1366.876353353262,a,0.717829514760524,10,502,1,1367.6266183420084,1369.1272198278457,1369.1272198278457,1369.6271059950814,,,,,,,,,,,,,,,,,,,,,,,,,,,,,,,,,,,,,,,,,,,,,,,,,,,,,,,,,,,,,,,,,,,,97511,2022-12-01_11h17.46.624,vts_reward_expectancy_bt_OFFLINE,2022.2.4,59.960681687696386,
0,0,1,0,0,0,0,1,hexagon,star,1,0,1,0,3,4,40,8,,,,,,,,,,,,,,,,,,,,,,,,,,,,,,,,,,,,,,,,1369.6271059950814,1369.6271059950814,1369.6271059950814,1369.6271059950814,1369.6271059950814,1369.6271059950814,1369.6271059950814,1369.6271059950814,1369.6271059950814,1369.6271059950814,l,1.50048570567742,10,512,1,1371.1465175421908,1372.6465536421165,1372.6465536421165,1373.1472476031631,,,,,,,,,,,,,,,,,,,,,,,,,,,,,,,,,,,,,,,,,,,,,,,,,,,,,,,,,,,,,,,,,,,,97511,2022-12-01_11h17.46.624,vts_reward_expectancy_bt_OFFLINE,2022.2.4,59.960681687696386,
0,0,0,1,1,0,0,0,star,triangle,1,0,1,0,3,5,41,9,,,,,,,,,,,,,,,,,,,,,,,,,,,,,,,,,,,,,,,,1373.1472476031631,1373.1472476031631,1373.1472476031631,1373.1472476031631,1373.1472476031631,1373.1472476031631,1373.1472476031631,1373.1472476031631,1373.1472476031631,1373.1472476031631,a,0.6681037470698357,10,522,1,1373.8471930469386,,1375.3494177320972,,,,,,,,,,,,,,,,,,,,,,,,,,,,,,,,,,,,,,,,,,,,,,,,,,,,,,,,,,,,,,,,,,,,,97511,2022-12-01_11h17.46.624,vts_reward_expectancy_bt_OFFLINE,2022.2.4,59.960681687696386,
0,1,0,0,0,0,1,0,circle,hexagon,1,0,1,0,3,6,42,4,,,,,,,,,,,,,,,,,,,,,,,,,,,,,,,,,,,,,,,,1375.8496545981616,1375.8496545981616,1375.8496545981616,1375.8496545981616,1375.8496545981616,1375.8496545981616,1375.8496545981616,1375.8496545981616,1375.8496545981616,1375.8496545981616,l,0.7220084015280008,10,532,1,1376.6009131958708,1378.100544448942,1378.100544448942,1378.6007738760673,,,,,,,,,,,,,,,,,,,,,,,,,,,,,,,,,,,,,,,,,,,,,,,,,,,,,,,,,,,,,,,,,,,,97511,2022-12-01_11h17.46.624,vts_reward_expectancy_bt_OFFLINE,2022.2.4,59.960681687696386,
1,0,0,0,0,0,1,0,triangle,hexagon,1,0,1,0,3,7,43,1,,,,,,,,,,,,,,,,,,,,,,,,,,,,,,,,,,,,,,,,1378.6007738760673,1378.6007738760673,1378.6007738760673,1378.6007738760673,1378.6007738760673,1378.6007738760673,1378.6007738760673,1378.6007738760673,1378.6007738760673,1378.6007738760673,l,0.6486207176931202,10,542,1,1379.2677037720568,,1380.7699559871107,,,,,,,,,,,,,,,,,,,,,,,,,,,,,,,,,,,,,,,,,,,,,,,,,,,,,,,,,,,,,,,,,,,,,97511,2022-12-01_11h17.46.624,vts_reward_expectancy_bt_OFFLINE,2022.2.4,59.960681687696386,
0,1,0,0,0,0,0,1,circle,star,1,0,1,0,3,8,44,5,,,,,,,,,,,,,,,,,,,,,,,,,,,,,,,,,,,,,,,,1381.2701609330252,1381.2701609330252,1381.2701609330252,1381.2701609330252,1381.2701609330252,1381.2701609330252,1381.2701609330252,1381.2701609330252,1381.2701609330252,1381.2701609330252,l,0.9718525060452521,10,552,1,1382.2714438401163,1383.7712681870908,1383.7712681870908,1384.271145996172,,,,,,,,,,,,,,,,,,,,,,,,,,,,,,,,,,,,,,,,,,,,,,,,,,,,,,,,,,,,,,,,,,,,97511,2022-12-01_11h17.46.624,vts_reward_expectancy_bt_OFFLINE,2022.2.4,59.960681687696386,
0,0,1,0,0,1,0,0,hexagon,circle,1,0,1,0,3,9,45,7,,,,,,,,,,,,,,,,,,,,,,,,,,,,,,,,,,,,,,,,1384.271145996172,1384.271145996172,1384.271145996172,1384.271145996172,1384.271145996172,1384.271145996172,1384.271145996172,1384.271145996172,1384.271145996172,1384.271145996172,a,1.2559727388434112,1,553,1,1385.5595797151327,,1387.0737963099964,,,,,,,,,,,,,,,,,,,,,,,,,,,,,,,,,,,,,,,,,,,,,,,,,,,,,,,,,,,,,,,,,,,,,97511,2022-12-01_11h17.46.624,vts_reward_expectancy_bt_OFFLINE,2022.2.4,59.960681687696386,
0,0,0,1,0,1,0,0,star ,circle,1,0,1,0,3,10,46,10,,,,,,,,,,,,,,,,,,,,,,,,,,,,,,,,,,,,,,,,1387.5738392099738,1387.5738392099738,1387.5738392099738,1387.5738392099738,1387.5738392099738,1387.5738392099738,1387.5738392099738,1387.5738392099738,1387.5738392099738,1387.5738392099738,a,0.935408934019506,1,554,1,1388.5412966180593,1390.0432290080935,1390.0432290080935,,,,,,,,,,,,,,,,,,,,,,,,,,,,,,,,,,,,,,,,,,,,,,,,,,,,,,,,,,,,,,,,,,,,,97511,2022-12-01_11h17.46.624,vts_reward_expectancy_bt_OFFLINE,2022.2.4,59.960681687696386,
1,0,0,0,0,0,0,1,triangle,star,1,0,1,0,3,11,47,2,,,,,,,,,,,,,,,,,,,,,,,,,,,,,,,,,,,,,,,,1390.5435712360777,1390.5435712360777,1390.5435712360777,1390.5435712360777,1390.5435712360777,1390.5435712360777,1390.5435712360777,1390.5435712360777,1390.5435712360777,1390.5435712360777,l,0.6542391357943416,10,564,1,1391.2303813891485,,1392.74427525606,,,,,,,,,,,,,,,,,,,,,,,,,,,,,,,,,,,,,,,,,,,,,,,,,,,,,,,,,,,,,,,,,,,,,97511,2022-12-01_11h17.46.624,vts_reward_expectancy_bt_OFFLINE,2022.2.4,59.960681687696386,
0,0,1,0,0,0,0,1,hexagon,star,2,0,2,0,0,0,0,8,,,,,,,,,,,,,,,,,,,,,,,,,,,,,,,,,,,,,,,,1398.8098428421654,1398.8098428421654,1398.8098428421654,1398.8098428421654,1398.8098428421654,1398.8098428421654,1398.8098428421654,1398.8098428421654,1398.8098428421654,1398.8098428421654,a,1.7257633819244802,10,574,2,1400.5679885922,1402.0686051761732,1402.0686051761732,1402.5686789322644,,,,,,,,,,,,,,,,,,,,,,,,,,,,,,,,,,,,,,,,,,,,,,,,,,,,,,,,,,,,,,,,,,,,97511,2022-12-01_11h17.46.624,vts_reward_expectancy_bt_OFFLINE,2022.2.4,59.960681687696386,
1,0,0,0,0,0,1,0,triangle,hexagon,2,0,2,0,0,1,1,1,,,,,,,,,,,,,,,,,,,,,,,,,,,,,,,,,,,,,,,,1402.5686789322644,1402.5686789322644,1402.5686789322644,1402.5686789322644,1402.5686789322644,1402.5686789322644,1402.5686789322644,1402.5686789322644,1402.5686789322644,1402.5686789322644,l,0.587956708855927,1,575,2,1403.1876561539248,,1404.6859042611904,,,,,,,,,,,,,,,,,,,,,,,,,,,,,,,,,,,,,,,,,,,,,,,,,,,,,,,,,,,,,,,,,,,,,97511,2022-12-01_11h17.46.624,vts_reward_expectancy_bt_OFFLINE,2022.2.4,59.960681687696386,
0,0,0,1,0,1,0,0,star ,circle,2,0,2,0,0,2,2,10,,,,,,,,,,,,,,,,,,,,,,,,,,,,,,,,,,,,,,,,1405.1875543268397,1405.1875543268397,1405.1875543268397,1405.1875543268397,1405.1875543268397,1405.1875543268397,1405.1875543268397,1405.1875543268397,1405.1875543268397,1405.1875543268397,a,0.7029211176559329,1,576,2,1405.9214445678517,1407.4224150902592,1407.4224150902592,1407.9220796939917,,,,,,,,,,,,,,,,,,,,,,,,,,,,,,,,,,,,,,,,,,,,,,,,,,,,,,,,,,,,,,,,,,,,97511,2022-12-01_11h17.46.624,vts_reward_expectancy_bt_OFFLINE,2022.2.4,59.960681687696386,
0,1,0,0,0,0,1,0,circle,hexagon,2,0,2,0,0,3,3,4,,,,,,,,,,,,,,,,,,,,,,,,,,,,,,,,,,,,,,,,1407.9220796939917,1407.9220796939917,1407.9220796939917,1407.9220796939917,1407.9220796939917,1407.9220796939917,1407.9220796939917,1407.9220796939917,1407.9220796939917,1407.9220796939917,l,0.6014564298093319,1,577,2,1408.5557858990505,,1410.0579550629482,,,,,,,,,,,,,,,,,,,,,,,,,,,,,,,,,,,,,,,,,,,,,,,,,,,,,,,,,,,,,,,,,,,,,97511,2022-12-01_11h17.46.624,vts_reward_expectancy_bt_OFFLINE,2022.2.4,59.960681687696386,
1,0,0,0,0,1,0,0,triangle,circle,2,0,2,0,0,4,4,0,,,,,,,,,,,,,,,,,,,,,,,,,,,,,,,,,,,,,,,,1410.5579437501729,1410.5579437501729,1410.5579437501729,1410.5579437501729,1410.5579437501729,1410.5579437501729,1410.5579437501729,1410.5579437501729,1410.5579437501729,1410.5579437501729,l,1.0477700363844633,1,578,2,1411.6264891810715,1413.1260510631837,1413.1260510631837,1413.6264684740454,,,,,,,,,,,,,,,,,,,,,,,,,,,,,,,,,,,,,,,,,,,,,,,,,,,,,,,,,,,,,,,,,,,,97511,2022-12-01_11h17.46.624,vts_reward_expectancy_bt_OFFLINE,2022.2.4,59.960681687696386,
0,1,0,0,0,0,0,1,circle,star,2,0,2,0,0,5,5,5,,,,,,,,,,,,,,,,,,,,,,,,,,,,,,,,,,,,,,,,1413.6264684740454,1413.6264684740454,1413.6264684740454,1413.6264684740454,1413.6264684740454,1413.6264684740454,1413.6264684740454,1413.6264684740454,1413.6264684740454,1413.6264684740454,l,0.6011139592155814,10,588,2,1414.2611434520222,1415.7617479222827,1415.7617479222827,1416.2619554852135,,,,,,,,,,,,,,,,,,,,,,,,,,,,,,,,,,,,,,,,,,,,,,,,,,,,,,,,,,,,,,,,,,,,97511,2022-12-01_11h17.46.624,vts_reward_expectancy_bt_OFFLINE,2022.2.4,59.960681687696386,
1,0,0,0,0,0,0,1,triangle,star,2,0,2,0,0,6,6,2,,,,,,,,,,,,,,,,,,,,,,,,,,,,,,,,,,,,,,,,1416.2619554852135,1416.2619554852135,1416.2619554852135,1416.2619554852135,1416.2619554852135,1416.2619554852135,1416.2619554852135,1416.2619554852135,1416.2619554852135,1416.2619554852135,l,0.6989410747773945,10,598,2,1416.9799462361261,1418.4798439992592,1418.4798439992592,1418.97984946426,,,,,,,,,,,,,,,,,,,,,,,,,,,,,,,,,,,,,,,,,,,,,,,,,,,,,,,,,,,,,,,,,,,,97511,2022-12-01_11h17.46.624,vts_reward_expectancy_bt_OFFLINE,2022.2.4,59.960681687696386,
0,0,1,0,1,0,0,0,hexagon,triangle,2,0,2,0,0,7,7,6,,,,,,,,,,,,,,,,,,,,,,,,,,,,,,,,,,,,,,,,1418.97984946426,1418.97984946426,1418.97984946426,1418.97984946426,1418.97984946426,1418.97984946426,1418.97984946426,1418.97984946426,1418.97984946426,1418.97984946426,a,0.7271941658109426,10,608,2,1419.731039732229,,1421.2323583262041,,,,,,,,,,,,,,,,,,,,,,,,,,,,,,,,,,,,,,,,,,,,,,,,,,,,,,,,,,,,,,,,,,,,,97511,2022-12-01_11h17.46.624,vts_reward_expectancy_bt_OFFLINE,2022.2.4,59.960681687696386,
0,0,0,1,1,0,0,0,star,triangle,2,0,2,0,0,8,8,9,,,,,,,,,,,,,,,,,,,,,,,,,,,,,,,,,,,,,,,,1421.7327825110406,1421.7327825110406,1421.7327825110406,1421.7327825110406,1421.7327825110406,1421.7327825110406,1421.7327825110406,1421.7327825110406,1421.7327825110406,1421.7327825110406,a,1.314430811908096,10,618,2,1423.067160408944,1424.5674703740515,1424.5674703740515,,,,,,,,,,,,,,,,,,,,,,,,,,,,,,,,,,,,,,,,,,,,,,,,,,,,,,,,,,,,,,,,,,,,,97511,2022-12-01_11h17.46.624,vts_reward_expectancy_bt_OFFLINE,2022.2.4,59.960681687696386,
0,0,0,1,0,0,1,0,star,hexagon,2,0,2,0,0,9,9,11,,,,,,,,,,,,,,,,,,,,,,,,,,,,,,,,,,,,,,,,1425.0687711159699,1425.0687711159699,1425.0687711159699,1425.0687711159699,1425.0687711159699,1425.0687711159699,1425.0687711159699,1425.0687711159699,1425.0687711159699,1425.0687711159699,l,0.9043527226895094,10,628,2,1426.0037340270355,1427.503281394951,1427.503281394951,1428.003696504049,,,,,,,,,,,,,,,,,,,,,,,,,,,,,,,,,,,,,,,,,,,,,,,,,,,,,,,,,,,,,,,,,,,,97511,2022-12-01_11h17.46.624,vts_reward_expectancy_bt_OFFLINE,2022.2.4,59.960681687696386,
0,1,0,0,1,0,0,0,circle,triangle,2,0,2,0,0,10,10,3,,,,,,,,,,,,,,,,,,,,,,,,,,,,,,,,,,,,,,,,1428.003696504049,1428.003696504049,1428.003696504049,1428.003696504049,1428.003696504049,1428.003696504049,1428.003696504049,1428.003696504049,1428.003696504049,1428.003696504049,a,1.9970684368163347,1,629,2,1430.02502959501,,1431.5399671322666,,,,,,,,,,,,,,,,,,,,,,,,,,,,,,,,,,,,,,,,,,,,,,,,,,,,,,,,,,,,,,,,,,,,,97511,2022-12-01_11h17.46.624,vts_reward_expectancy_bt_OFFLINE,2022.2.4,59.960681687696386,
0,0,1,0,0,1,0,0,hexagon,circle,2,0,2,0,0,11,11,7,,,,,,,,,,,,,,,,,,,,,,,,,,,,,,,,,,,,,,,,1432.0399871328846,1432.0399871328846,1432.0399871328846,1432.0399871328846,1432.0399871328846,1432.0399871328846,1432.0399871328846,1432.0399871328846,1432.0399871328846,1432.0399871328846,a,0.6489898711442947,10,639,2,1432.7094877669588,,1434.2245733900927,,,,,,,,,,,,,,,,,,,,,,,,,,,,,,,,,,,,,,,,,,,,,,,,,,,,,,,,,,,,,,,,,,,,,97511,2022-12-01_11h17.46.624,vts_reward_expectancy_bt_OFFLINE,2022.2.4,59.960681687696386,
0,0,0,1,1,0,0,0,star,triangle,2,0,2,0,1,0,12,9,,,,,,,,,,,,,,,,,,,,,,,,,,,,,,,,,,,,,,,,1434.7073907009326,1434.7073907009326,1434.7073907009326,1434.7073907009326,1434.7073907009326,1434.7073907009326,1434.7073907009326,1434.7073907009326,1434.7073907009326,1434.7073907009326,a,0.7048495449125767,10,649,2,1435.4432906499133,1436.9440582268871,1436.9440582268871,1437.444346126169,,,,,,,,,,,,,,,,,,,,,,,,,,,,,,,,,,,,,,,,,,,,,,,,,,,,,,,,,,,,,,,,,,,,97511,2022-12-01_11h17.46.624,vts_reward_expectancy_bt_OFFLINE,2022.2.4,59.960681687696386,
1,0,0,0,0,0,1,0,triangle,hexagon,2,0,2,0,1,1,13,1,,,,,,,,,,,,,,,,,,,,,,,,,,,,,,,,,,,,,,,,1437.444346126169,1437.444346126169,1437.444346126169,1437.444346126169,1437.444346126169,1437.444346126169,1437.444346126169,1437.444346126169,1437.444346126169,1437.444346126169,l,0.589062811806798,10,659,2,1438.0616315151565,1439.5611293548718,1439.5611293548718,,,,,,,,,,,,,,,,,,,,,,,,,,,,,,,,,,,,,,,,,,,,,,,,,,,,,,,,,,,,,,,,,,,,,97511,2022-12-01_11h17.46.624,vts_reward_expectancy_bt_OFFLINE,2022.2.4,59.960681687696386,
1,0,0,0,0,0,0,1,triangle,star,2,0,2,0,1,2,14,2,,,,,,,,,,,,,,,,,,,,,,,,,,,,,,,,,,,,,,,,1440.0631266012788,1440.0631266012788,1440.0631266012788,1440.0631266012788,1440.0631266012788,1440.0631266012788,1440.0631266012788,1440.0631266012788,1440.0631266012788,1440.0631266012788,l,1.1878264010883868,10,669,2,1441.281172273215,1442.7812575842254,1442.7812575842254,1443.2811405952089,,,,,,,,,,,,,,,,,,,,,,,,,,,,,,,,,,,,,,,,,,,,,,,,,,,,,,,,,,,,,,,,,,,,97511,2022-12-01_11h17.46.624,vts_reward_expectancy_bt_OFFLINE,2022.2.4,59.960681687696386,
0,1,0,0,0,0,0,1,circle,star,2,0,2,0,1,3,15,5,,,,,,,,,,,,,,,,,,,,,,,,,,,,,,,,,,,,,,,,1443.2811405952089,1443.2811405952089,1443.2811405952089,1443.2811405952089,1443.2811405952089,1443.2811405952089,1443.2811405952089,1443.2811405952089,1443.2811405952089,1443.2811405952089,l,1.1081815608777106,10,679,2,1444.4156604190357,,1445.917323956266,,,,,,,,,,,,,,,,,,,,,,,,,,,,,,,,,,,,,,,,,,,,,,,,,,,,,,,,,,,,,,,,,,,,,97511,2022-12-01_11h17.46.624,vts_reward_expectancy_bt_OFFLINE,2022.2.4,59.960681687696386,
0,0,1,0,0,0,0,1,hexagon,star,2,0,2,0,1,4,16,8,,,,,,,,,,,,,,,,,,,,,,,,,,,,,,,,,,,,,,,,1446.4175247079693,1446.4175247079693,1446.4175247079693,1446.4175247079693,1446.4175247079693,1446.4175247079693,1446.4175247079693,1446.4175247079693,1446.4175247079693,1446.4175247079693,a,0.9989084298722446,10,689,2,1447.4348592432216,1448.9347515329719,1448.9347515329719,1449.4346308889799,,,,,,,,,,,,,,,,,,,,,,,,,,,,,,,,,,,,,,,,,,,,,,,,,,,,,,,,,,,,,,,,,,,,97511,2022-12-01_11h17.46.624,vts_reward_expectancy_bt_OFFLINE,2022.2.4,59.960681687696386,
0,0,1,0,0,1,0,0,hexagon,circle,2,0,2,0,1,5,17,7,,,,,,,,,,,,,,,,,,,,,,,,,,,,,,,,,,,,,,,,1449.4346308889799,1449.4346308889799,1449.4346308889799,1449.4346308889799,1449.4346308889799,1449.4346308889799,1449.4346308889799,1449.4346308889799,1449.4346308889799,1449.4346308889799,a,0.9407946770079434,10,699,2,1450.4055487192236,1451.904647700023,1451.904647700023,1452.405007475987,,,,,,,,,,,,,,,,,,,,,,,,,,,,,,,,,,,,,,,,,,,,,,,,,,,,,,,,,,,,,,,,,,,,97511,2022-12-01_11h17.46.624,vts_reward_expectancy_bt_OFFLINE,2022.2.4,59.960681687696386,
1,0,0,0,0,1,0,0,triangle,circle,2,0,2,0,1,6,18,0,,,,,,,,,,,,,,,,,,,,,,,,,,,,,,,,,,,,,,,,1452.405007475987,1452.405007475987,1452.405007475987,1452.405007475987,1452.405007475987,1452.405007475987,1452.405007475987,1452.405007475987,1452.405007475987,1452.405007475987,a,1.379698199685663,10,709,2,1453.8061811858788,,1455.3078691530973,,,,,,,,,,,,,,,,,,,,,,,,,,,,,,,,,,,,,,,,,,,,,,,,,,,,,,,,,,,,,,,,,,,,,97511,2022-12-01_11h17.46.624,vts_reward_expectancy_bt_OFFLINE,2022.2.4,59.960681687696386,
0,0,1,0,1,0,0,0,hexagon,triangle,2,0,2,0,1,7,19,6,,,,,,,,,,,,,,,,,,,,,,,,,,,,,,,,,,,,,,,,1455.808115198277,1455.808115198277,1455.808115198277,1455.808115198277,1455.808115198277,1455.808115198277,1455.808115198277,1455.808115198277,1455.808115198277,1455.808115198277,a,1.677507213782519,10,719,2,1457.509067520965,1459.0092154098675,1459.0092154098675,1459.509223727975,,,,,,,,,,,,,,,,,,,,,,,,,,,,,,,,,,,,,,,,,,,,,,,,,,,,,,,,,,,,,,,,,,,,97511,2022-12-01_11h17.46.624,vts_reward_expectancy_bt_OFFLINE,2022.2.4,59.960681687696386,
0,0,0,1,0,0,1,0,star,hexagon,2,0,2,0,1,8,20,11,,,,,,,,,,,,,,,,,,,,,,,,,,,,,,,,,,,,,,,,1459.509223727975,1459.509223727975,1459.509223727975,1459.509223727975,1459.509223727975,1459.509223727975,1459.509223727975,1459.509223727975,1459.509223727975,1459.509223727975,l,0.9466589870862663,10,729,2,1460.4784690970555,1461.9785107360221,1461.9785107360221,,,,,,,,,,,,,,,,,,,,,,,,,,,,,,,,,,,,,,,,,,,,,,,,,,,,,,,,,,,,,,,,,,,,,97511,2022-12-01_11h17.46.624,vts_reward_expectancy_bt_OFFLINE,2022.2.4,59.960681687696386,
0,1,0,0,1,0,0,0,circle,triangle,2,0,2,0,1,9,21,3,,,,,,,,,,,,,,,,,,,,,,,,,,,,,,,,,,,,,,,,1462.4784411061555,1462.4784411061555,1462.4784411061555,1462.4784411061555,1462.4784411061555,1462.4784411061555,1462.4784411061555,1462.4784411061555,1462.4784411061555,1462.4784411061555,a,0.7443057410418987,1,730,2,1463.2485119211487,,1464.7630471251905,,,,,,,,,,,,,,,,,,,,,,,,,,,,,,,,,,,,,,,,,,,,,,,,,,,,,,,,,,,,,,,,,,,,,97511,2022-12-01_11h17.46.624,vts_reward_expectancy_bt_OFFLINE,2022.2.4,59.960681687696386,
0,1,0,0,0,0,1,0,circle,hexagon,2,0,2,0,1,10,22,4,,,,,,,,,,,,,,,,,,,,,,,,,,,,,,,,,,,,,,,,1465.2481358428486,1465.2481358428486,1465.2481358428486,1465.2481358428486,1465.2481358428486,1465.2481358428486,1465.2481358428486,1465.2481358428486,1465.2481358428486,1465.2481358428486,l,0.6298720450140536,10,740,2,1465.900860125199,,1467.398700163234,1467.8989223549142,,,,,,,,,,,,,,,,,,,,,,,,,,,,,,,,,,,,,,,,,,,,,,,,,,,,,,,,,,,,,,,,,,,,97511,2022-12-01_11h17.46.624,vts_reward_expectancy_bt_OFFLINE,2022.2.4,59.960681687696386,
0,0,0,1,0,1,0,0,star ,circle,2,0,2,0,1,11,23,10,,,,,,,,,,,,,,,,,,,,,,,,,,,,,,,,,,,,,,,,1467.8989223549142,1467.8989223549142,1467.8989223549142,1467.8989223549142,1467.8989223549142,1467.8989223549142,1467.8989223549142,1467.8989223549142,1467.8989223549142,1467.8989223549142,a,0.7700007581152022,10,750,2,1468.6993426010013,1470.202277097851,1470.202277097851,1470.7022688728757,,,,,,,,,,,,,,,,,,,,,,,,,,,,,,,,,,,,,,,,,,,,,,,,,,,,,,,,,,,,,,,,,,,,97511,2022-12-01_11h17.46.624,vts_reward_expectancy_bt_OFFLINE,2022.2.4,59.960681687696386,
0,0,0,1,0,1,0,0,star ,circle,2,0,2,0,2,0,24,10,,,,,,,,,,,,,,,,,,,,,,,,,,,,,,,,,,,,,,,,1470.7022688728757,1470.7022688728757,1470.7022688728757,1470.7022688728757,1470.7022688728757,1470.7022688728757,1470.7022688728757,1470.7022688728757,1470.7022688728757,1470.7022688728757,a,0.8805803889408708,10,760,2,1471.6031655678526,1473.1030871840194,1473.1030871840194,1473.603136382997,,,,,,,,,,,,,,,,,,,,,,,,,,,,,,,,,,,,,,,,,,,,,,,,,,,,,,,,,,,,,,,,,,,,97511,2022-12-01_11h17.46.624,vts_reward_expectancy_bt_OFFLINE,2022.2.4,59.960681687696386,
0,1,0,0,0,0,0,1,circle,star,2,0,2,0,2,1,25,5,,,,,,,,,,,,,,,,,,,,,,,,,,,,,,,,,,,,,,,,1473.603136382997,1473.603136382997,1473.603136382997,1473.603136382997,1473.603136382997,1473.603136382997,1473.603136382997,1473.603136382997,1473.603136382997,1473.603136382997,l,0.8256972837261856,10,770,2,1474.4543124530464,,1475.9554802039638,,,,,,,,,,,,,,,,,,,,,,,,,,,,,,,,,,,,,,,,,,,,,,,,,,,,,,,,,,,,,,,,,,,,,97511,2022-12-01_11h17.46.624,vts_reward_expectancy_bt_OFFLINE,2022.2.4,59.960681687696386,
0,0,1,0,0,0,0,1,hexagon,star,2,0,2,0,2,2,26,8,,,,,,,,,,,,,,,,,,,,,,,,,,,,,,,,,,,,,,,,1476.4559153071605,1476.4559153071605,1476.4559153071605,1476.4559153071605,1476.4559153071605,1476.4559153071605,1476.4559153071605,1476.4559153071605,1476.4559153071605,1476.4559153071605,a,0.8976776739582419,1,771,2,1477.3753790459596,,1478.8902118140832,,,,,,,,,,,,,,,,,,,,,,,,,,,,,,,,,,,,,,,,,,,,,,,,,,,,,,,,,,,,,,,,,,,,,97511,2022-12-01_11h17.46.624,vts_reward_expectancy_bt_OFFLINE,2022.2.4,59.960681687696386,
0,1,0,0,0,0,1,0,circle,hexagon,2,0,2,0,2,3,27,4,,,,,,,,,,,,,,,,,,,,,,,,,,,,,,,,,,,,,,,,1479.3901721672155,1479.3901721672155,1479.3901721672155,1479.3901721672155,1479.3901721672155,1479.3901721672155,1479.3901721672155,1479.3901721672155,1479.3901721672155,1479.3901721672155,l,0.7085517309606075,10,781,2,1480.1400159080513,,1481.64274742594,,,,,,,,,,,,,,,,,,,,,,,,,,,,,,,,,,,,,,,,,,,,,,,,,,,,,,,,,,,,,,,,,,,,,97511,2022-12-01_11h17.46.624,vts_reward_expectancy_bt_OFFLINE,2022.2.4,59.960681687696386,
1,0,0,0,0,1,0,0,triangle,circle,2,0,2,0,2,4,28,0,,,,,,,,,,,,,,,,,,,,,,,,,,,,,,,,,,,,,,,,1482.1433018110693,1482.1433018110693,1482.1433018110693,1482.1433018110693,1482.1433018110693,1482.1433018110693,1482.1433018110693,1482.1433018110693,1482.1433018110693,1482.1433018110693,a,0.9930500686168671,1,782,2,1483.1626732819714,,1484.677364428062,,,,,,,,,,,,,,,,,,,,,,,,,,,,,,,,,,,,,,,,,,,,,,,,,,,,,,,,,,,,,,,,,,,,,97511,2022-12-01_11h17.46.624,vts_reward_expectancy_bt_OFFLINE,2022.2.4,59.960681687696386,
0,0,0,1,0,0,1,0,star,hexagon,2,0,2,0,2,5,29,11,,,,,,,,,,,,,,,,,,,,,,,,,,,,,,,,,,,,,,,,1485.1630911021493,1485.1630911021493,1485.1630911021493,1485.1630911021493,1485.1630911021493,1485.1630911021493,1485.1630911021493,1485.1630911021493,1485.1630911021493,1485.1630911021493,l,1.2922596270218492,10,792,2,1486.4827415701002,,1487.9965418009087,,,,,,,,,,,,,,,,,,,,,,,,,,,,,,,,,,,,,,,,,,,,,,,,,,,,,,,,,,,,,,,,,,,,,97511,2022-12-01_11h17.46.624,vts_reward_expectancy_bt_OFFLINE,2022.2.4,59.960681687696386,
0,0,1,0,1,0,0,0,hexagon,triangle,2,0,2,0,2,6,30,6,,,,,,,,,,,,,,,,,,,,,,,,,,,,,,,,,,,,,,,,1488.4972599511966,1488.4972599511966,1488.4972599511966,1488.4972599511966,1488.4972599511966,1488.4972599511966,1488.4972599511966,1488.4972599511966,1488.4972599511966,1488.4972599511966,a,0.9396412926726043,10,802,2,1489.4649566458538,,1490.966268079821,,,,,,,,,,,,,,,,,,,,,,,,,,,,,,,,,,,,,,,,,,,,,,,,,,,,,,,,,,,,,,,,,,,,,97511,2022-12-01_11h17.46.624,vts_reward_expectancy_bt_OFFLINE,2022.2.4,59.960681687696386,
0,0,0,1,1,0,0,0,star,triangle,2,0,2,0,2,7,31,9,,,,,,,,,,,,,,,,,,,,,,,,,,,,,,,,,,,,,,,,1491.4664773908444,1491.4664773908444,1491.4664773908444,1491.4664773908444,1491.4664773908444,1491.4664773908444,1491.4664773908444,1491.4664773908444,1491.4664773908444,1491.4664773908444,a,0.7611444881185889,10,812,2,1492.251677728258,1493.7509627770633,1493.7509627770633,,,,,,,,,,,,,,,,,,,,,,,,,,,,,,,,,,,,,,,,,,,,,,,,,,,,,,,,,,,,,,,,,,,,,97511,2022-12-01_11h17.46.624,vts_reward_expectancy_bt_OFFLINE,2022.2.4,59.960681687696386,
0,1,0,0,1,0,0,0,circle,triangle,2,0,2,0,2,8,32,3,,,,,,,,,,,,,,,,,,,,,,,,,,,,,,,,,,,,,,,,1494.251480791252,1494.251480791252,1494.251480791252,1494.251480791252,1494.251480791252,1494.251480791252,1494.251480791252,1494.251480791252,1494.251480791252,1494.251480791252,l,0.8673007329925895,1,813,2,1495.1401555459015,,1496.6536972480826,,,,,,,,,,,,,,,,,,,,,,,,,,,,,,,,,,,,,,,,,,,,,,,,,,,,,,,,,,,,,,,,,,,,,97511,2022-12-01_11h17.46.624,vts_reward_expectancy_bt_OFFLINE,2022.2.4,59.960681687696386,
1,0,0,0,0,0,0,1,triangle,star,2,0,2,0,2,9,33,2,,,,,,,,,,,,,,,,,,,,,,,,,,,,,,,,,,,,,,,,1497.153857395053,1497.153857395053,1497.153857395053,1497.153857395053,1497.153857395053,1497.153857395053,1497.153857395053,1497.153857395053,1497.153857395053,1497.153857395053,l,0.5186185617931187,10,823,2,1497.706484970171,,1499.2219131519087,,,,,,,,,,,,,,,,,,,,,,,,,,,,,,,,,,,,,,,,,,,,,,,,,,,,,,,,,,,,,,,,,,,,,97511,2022-12-01_11h17.46.624,vts_reward_expectancy_bt_OFFLINE,2022.2.4,59.960681687696386,
1,0,0,0,0,0,1,0,triangle,hexagon,2,0,2,0,2,10,34,1,,,,,,,,,,,,,,,,,,,,,,,,,,,,,,,,,,,,,,,,1499.7220225459896,1499.7220225459896,1499.7220225459896,1499.7220225459896,1499.7220225459896,1499.7220225459896,1499.7220225459896,1499.7220225459896,1499.7220225459896,1499.7220225459896,l,0.8300858242437243,10,833,2,1500.5744859292172,1502.074152125977,1502.074152125977,1502.574269715231,,,,,,,,,,,,,,,,,,,,,,,,,,,,,,,,,,,,,,,,,,,,,,,,,,,,,,,,,,,,,,,,,,,,97511,2022-12-01_11h17.46.624,vts_reward_expectancy_bt_OFFLINE,2022.2.4,59.960681687696386,
0,0,1,0,0,1,0,0,hexagon,circle,2,0,2,0,2,11,35,7,,,,,,,,,,,,,,,,,,,,,,,,,,,,,,,,,,,,,,,,1502.574269715231,1502.574269715231,1502.574269715231,1502.574269715231,1502.574269715231,1502.574269715231,1502.574269715231,1502.574269715231,1502.574269715231,1502.574269715231,a,1.2526240670122206,10,843,2,1503.858137293253,1505.3604643181898,1505.3604643181898,,,,,,,,,,,,,,,,,,,,,,,,,,,,,,,,,,,,,,,,,,,,,,,,,,,,,,,,,,,,,,,,,,,,,97511,2022-12-01_11h17.46.624,vts_reward_expectancy_bt_OFFLINE,2022.2.4,59.960681687696386,
0,1,0,0,0,0,0,1,circle,star,2,0,2,0,3,0,36,5,,,,,,,,,,,,,,,,,,,,,,,,,,,,,,,,,,,,,,,,1505.8606379008852,1505.8606379008852,1505.8606379008852,1505.8606379008852,1505.8606379008852,1505.8606379008852,1505.8606379008852,1505.8606379008852,1505.8606379008852,1505.8606379008852,l,0.6093211006373167,1,844,2,1506.4976310119964,,1508.0114417029545,,,,,,,,,,,,,,,,,,,,,,,,,,,,,,,,,,,,,,,,,,,,,,,,,,,,,,,,,,,,,,,,,,,,,97511,2022-12-01_11h17.46.624,vts_reward_expectancy_bt_OFFLINE,2022.2.4,59.960681687696386,
0,0,0,1,0,1,0,0,star ,circle,2,0,2,0,3,1,37,10,,,,,,,,,,,,,,,,,,,,,,,,,,,,,,,,,,,,,,,,1508.511334973853,1508.511334973853,1508.511334973853,1508.511334973853,1508.511334973853,1508.511334973853,1508.511334973853,1508.511334973853,1508.511334973853,1508.511334973853,a,0.6364206317812204,1,845,2,1509.179022278171,1510.6807296988554,1510.6807296988554,1511.181096054148,,,,,,,,,,,,,,,,,,,,,,,,,,,,,,,,,,,,,,,,,,,,,,,,,,,,,,,,,,,,,,,,,,,,97511,2022-12-01_11h17.46.624,vts_reward_expectancy_bt_OFFLINE,2022.2.4,59.960681687696386,
0,0,1,0,1,0,0,0,hexagon,triangle,2,0,2,0,3,2,38,6,,,,,,,,,,,,,,,,,,,,,,,,,,,,,,,,,,,,,,,,1511.181096054148,1511.181096054148,1511.181096054148,1511.181096054148,1511.181096054148,1511.181096054148,1511.181096054148,1511.181096054148,1511.181096054148,1511.181096054148,a,0.6220738948322833,1,846,2,1511.832185328938,1513.3315539238974,1513.3315539238974,,,,,,,,,,,,,,,,,,,,,,,,,,,,,,,,,,,,,,,,,,,,,,,,,,,,,,,,,,,,,,,,,,,,,97511,2022-12-01_11h17.46.624,vts_reward_expectancy_bt_OFFLINE,2022.2.4,59.960681687696386,
0,0,1,0,0,1,0,0,hexagon,circle,2,0,2,0,3,3,39,7,,,,,,,,,,,,,,,,,,,,,,,,,,,,,,,,,,,,,,,,1513.8319550370798,1513.8319550370798,1513.8319550370798,1513.8319550370798,1513.8319550370798,1513.8319550370798,1513.8319550370798,1513.8319550370798,1513.8319550370798,1513.8319550370798,a,0.7840793998911977,1,847,2,1514.6492171841674,,1516.1513558379374,,,,,,,,,,,,,,,,,,,,,,,,,,,,,,,,,,,,,,,,,,,,,,,,,,,,,,,,,,,,,,,,,,,,,97511,2022-12-01_11h17.46.624,vts_reward_expectancy_bt_OFFLINE,2022.2.4,59.960681687696386,
1,0,0,0,0,0,1,0,triangle,hexagon,2,0,2,0,3,4,40,1,,,,,,,,,,,,,,,,,,,,,,,,,,,,,,,,,,,,,,,,1516.6517804409377,1516.6517804409377,1516.6517804409377,1516.6517804409377,1516.6517804409377,1516.6517804409377,1516.6517804409377,1516.6517804409377,1516.6517804409377,1516.6517804409377,l,0.46146809170022607,1,848,2,1517.1359458812512,1518.6360494252294,1518.6360494252294,,,,,,,,,,,,,,,,,,,,,,,,,,,,,,,,,,,,,,,,,,,,,,,,,,,,,,,,,,,,,,,,,,,,,97511,2022-12-01_11h17.46.624,vts_reward_expectancy_bt_OFFLINE,2022.2.4,59.960681687696386,
0,1,0,0,0,0,1,0,circle,hexagon,2,0,2,0,3,5,41,4,,,,,,,,,,,,,,,,,,,,,,,,,,,,,,,,,,,,,,,,1519.136351085268,1519.136351085268,1519.136351085268,1519.136351085268,1519.136351085268,1519.136351085268,1519.136351085268,1519.136351085268,1519.136351085268,1519.136351085268,l,0.7897207695059478,10,858,2,1519.9579765559174,,1521.4718250222504,,,,,,,,,,,,,,,,,,,,,,,,,,,,,,,,,,,,,,,,,,,,,,,,,,,,,,,,,,,,,,,,,,,,,97511,2022-12-01_11h17.46.624,vts_reward_expectancy_bt_OFFLINE,2022.2.4,59.960681687696386,
0,0,0,1,0,0,1,0,star,hexagon,2,0,2,0,3,6,42,11,,,,,,,,,,,,,,,,,,,,,,,,,,,,,,,,,,,,,,,,1521.9719143812545,1521.9719143812545,1521.9719143812545,1521.9719143812545,1521.9719143812545,1521.9719143812545,1521.9719143812545,1521.9719143812545,1521.9719143812545,1521.9719143812545,l,0.5864245891571045,10,868,2,1522.5895578311756,1524.0897419569083,1524.0897419569083,1524.589955969248,,,,,,,,,,,,,,,,,,,,,,,,,,,,,,,,,,,,,,,,,,,,,,,,,,,,,,,,,,,,,,,,,,,,97511,2022-12-01_11h17.46.624,vts_reward_expectancy_bt_OFFLINE,2022.2.4,59.960681687696386,
0,0,0,1,1,0,0,0,star,triangle,2,0,2,0,3,7,43,9,,,,,,,,,,,,,,,,,,,,,,,,,,,,,,,,,,,,,,,,1524.589955969248,1524.589955969248,1524.589955969248,1524.589955969248,1524.589955969248,1524.589955969248,1524.589955969248,1524.589955969248,1524.589955969248,1524.589955969248,a,0.646851351018995,10,878,2,1525.2592748892494,1526.7593381078914,1526.7593381078914,,,,,,,,,,,,,,,,,,,,,,,,,,,,,,,,,,,,,,,,,,,,,,,,,,,,,,,,,,,,,,,,,,,,,97511,2022-12-01_11h17.46.624,vts_reward_expectancy_bt_OFFLINE,2022.2.4,59.960681687696386,
1,0,0,0,0,1,0,0,triangle,circle,2,0,2,0,3,8,44,0,,,,,,,,,,,,,,,,,,,,,,,,,,,,,,,,,,,,,,,,1527.2594856652431,1527.2594856652431,1527.2594856652431,1527.2594856652431,1527.2594856652431,1527.2594856652431,1527.2594856652431,1527.2594856652431,1527.2594856652431,1527.2594856652431,l,0.913979222998023,1,879,2,1528.2073491849005,,1529.7097767721862,,,,,,,,,,,,,,,,,,,,,,,,,,,,,,,,,,,,,,,,,,,,,,,,,,,,,,,,,,,,,,,,,,,,,97511,2022-12-01_11h17.46.624,vts_reward_expectancy_bt_OFFLINE,2022.2.4,59.960681687696386,
0,0,1,0,0,0,0,1,hexagon,star,2,0,2,0,3,9,45,8,,,,,,,,,,,,,,,,,,,,,,,,,,,,,,,,,,,,,,,,1530.1957035008818,1530.1957035008818,1530.1957035008818,1530.1957035008818,1530.1957035008818,1530.1957035008818,1530.1957035008818,1530.1957035008818,1530.1957035008818,1530.1957035008818,l,0.5652785021811724,10,889,2,1530.7821376421489,,1532.279468594119,1532.7794331442565,,,,,,,,,,,,,,,,,,,,,,,,,,,,,,,,,,,,,,,,,,,,,,,,,,,,,,,,,,,,,,,,,,,,97511,2022-12-01_11h17.46.624,vts_reward_expectancy_bt_OFFLINE,2022.2.4,59.960681687696386,
1,0,0,0,0,0,0,1,triangle,star,2,0,2,0,3,10,46,2,,,,,,,,,,,,,,,,,,,,,,,,,,,,,,,,,,,,,,,,1532.7794331442565,1532.7794331442565,1532.7794331442565,1532.7794331442565,1532.7794331442565,1532.7794331442565,1532.7794331442565,1532.7794331442565,1532.7794331442565,1532.7794331442565,l,0.7707840148359537,10,899,2,1533.5817692629062,,1535.0820406689309,,,,,,,,,,,,,,,,,,,,,,,,,,,,,,,,,,,,,,,,,,,,,,,,,,,,,,,,,,,,,,,,,,,,,97511,2022-12-01_11h17.46.624,vts_reward_expectancy_bt_OFFLINE,2022.2.4,59.960681687696386,
0,1,0,0,1,0,0,0,circle,triangle,2,0,2,0,3,11,47,3,,,,,,,,,,,,,,,,,,,,,,,,,,,,,,,,,,,,,,,,1535.5822822479531,1535.5822822479531,1535.5822822479531,1535.5822822479531,1535.5822822479531,1535.5822822479531,1535.5822822479531,1535.5822822479531,1535.5822822479531,1535.5822822479531,a,1.1968472418375313,1,900,2,1536.8023947910406,,1538.3001302620396,,,,,,,,,,,,,,,,,,,,,,,,,,,,,,,,,,,,,,,,,,,,,,,,,,,,,,,,,,,,,,,,,,,,,97511,2022-12-01_11h17.46.624,vts_reward_expectancy_bt_OFFLINE,2022.2.4,59.960681687696386,
,,,,,,,,,,,,,,,,,,0,0,0,0,0,0,0,0,,,,,,,,,,,,,,,,,,,,,,,,,,,,,,,,,,,,,,,,,,,,,,,,,1573.325269359164,,181,F,triangle,0.0022187791764736176,1567.3173389672302,1568.8054213221185,1568.8054213221185,1568.8054213221185,1571.8084558672272,1571.8084558672272,1571.8084558672272,0,0,None,0,1571.8253406421281,,,,,,,,,,,,,,,,,,,,,,,,,,,,,,,,,,,,,,,,,,,,,,,,,,,,97511,2022-12-01_11h17.46.624,vts_reward_expectancy_bt_OFFLINE,2022.2.4,59.960681687696386,
,,,,,,,,,,,,,,,,,,0,0,0,0,1,0,1,0,,,,,,,,,,,,,,,,,,,,,,,,,,,,,,,,,,,,,,,,,,,,,,,,,1577.9960064962506,,160,Y,star,0.0066779362969100475,1574.3215900561772,1575.8116913852282,1575.8116913852282,1575.8116913852282,,,,1,1,f,0,1576.4816164341755,0.6492631295695901,,,,,,,,,,,,,,,,,,,,,,,,,,,,,,,,,,,,,,,,,,,,,,,,,,,97511,2022-12-01_11h17.46.624,vts_reward_expectancy_bt_OFFLINE,2022.2.4,59.960681687696386,
,,,,,,,,,,,,,,,,,,0,0,0,0,2,0,2,0,,,,,,,,,,,,,,,,,,,,,,,,,,,,,,,,,,,,,,,,,,,,,,,,,1582.6156974788755,,125,U,hexagon,0.016344479750841856,1578.9920503352769,1580.4648724170402,1580.4648724170402,1580.4648724170402,,,,1,0,d,0,1581.1008730689064,0.6090028169564903,,,,,,,,,,,,,,,,,,,,,,,,,,,,,,,,,,,,,,,,,,,,,,,,,,,97511,2022-12-01_11h17.46.624,vts_reward_expectancy_bt_OFFLINE,2022.2.4,59.960681687696386,
,,,,,,,,,,,,,,,,,,0,0,0,0,3,0,3,0,,,,,,,,,,,,,,,,,,,,,,,,,,,,,,,,,,,,,,,,,,,,,,,,,1587.419449958019,1587.9194554141723,174,S,circle,0.016420959029346704,1583.6117216232233,1585.085563656874,1585.085563656874,1585.085563656874,,,,1,0,f,0,1585.9200169481337,0.8141946205869317,1587.419449958019,,,,,,,,,,,,,,,,,,,,,,,,,,,,,,,,,,,,,,,,,,,,,,,,,,97511,2022-12-01_11h17.46.624,vts_reward_expectancy_bt_OFFLINE,2022.2.4,59.960681687696386,
,,,,,,,,,,,,,,,,,,0,0,0,0,4,0,4,0,,,,,,,,,,,,,,,,,,,,,,,,,,,,,,,,,,,,,,,,,,,,,,,,,1592.1230304031633,,167,D,star,0.0005228398367762566,1588.4153525531292,1589.9034816059284,1589.9034816059284,1589.9034816059284,,,,1,0,f,0,1590.6233611279167,0.6985358628444374,1592.1230304031633,,,,,,,,,,,,,,,,,,,,,,,,,,,,,,,,,,,,,,,,,,,,,,,,,,97511,2022-12-01_11h17.46.624,vts_reward_expectancy_bt_OFFLINE,2022.2.4,59.960681687696386,
,,,,,,,,,,,,,,,,,,0,0,0,0,5,0,5,0,,,,,,,,,,,,,,,,,,,,,,,,,,,,,,,,,,,,,,,,,,,,,,,,,1597.4604783901013,1597.9603109289892,132,W,hexagon,0.0004981188103556633,1593.1191147048958,1594.6071869479492,1594.6071869479492,1594.6071869479492,,,,1,0,d,0,1595.961488652043,1.3278455948457122,1597.4604783901013,,,,,,,,,,,,,,,,,,,,,,,,,,,,,,,,,,,,,,,,,,,,,,,,,,97511,2022-12-01_11h17.46.624,vts_reward_expectancy_bt_OFFLINE,2022.2.4,59.960681687696386,
,,,,,,,,,,,,,,,,,,0,0,0,0,6,0,6,0,,,,,,,,,,,,,,,,,,,,,,,,,,,,,,,,,,,,,,,,,,,,,,,,,1602.4806970809586,1602.9807895352133,146,H,circle,0.0002814098261296749,1598.4563708831556,1599.9446896240115,1599.9446896240115,1599.9446896240115,,,,1,0,d,0,1600.9814530191943,1.0079757529310882,1602.4806970809586,,,,,,,,,,,,,,,,,,,,,,,,,,,,,,,,,,,,,,,,,,,,,,,,,,97511,2022-12-01_11h17.46.624,vts_reward_expectancy_bt_OFFLINE,2022.2.4,59.960681687696386,
,,,,,,,,,,,,,,,,,,0,0,0,0,7,0,7,0,,,,,,,,,,,,,,,,,,,,,,,,,,,,,,,,,,,,,,,,,,,,,,,,,1607.0672303880565,1607.5677894260734,139,B,triangle,0.0006516617722809315,1603.4769032001495,1604.9618372619152,1604.9618372619152,1604.9618372619152,,,,1,0,d,0,1605.5684689278714,0.5816326620988548,1607.0672303880565,,,,,,,,,,,,,,,,,,,,,,,,,,,,,,,,,,,,,,,,,,,,,,,,,,97511,2022-12-01_11h17.46.624,vts_reward_expectancy_bt_OFFLINE,2022.2.4,59.960681687696386,
,,,,,,,,,,,,,,,,,,0,0,0,0,8,0,8,0,,,,,,,,,,,,,,,,,,,,,,,,,,,,,,,,,,,,,,,,,,,,,,,,,1611.8540523601696,1612.3543500918895,181,F,hexagon,0.00040101585909724236,1608.0625166650862,1609.5520458528772,1609.5520458528772,1609.5520458528772,,,,1,0,f,0,1610.3548518489115,0.7723444332368672,1611.8540523601696,,,,,,,,,,,,,,,,,,,,,,,,,,,,,,,,,,,,,,,,,,,,,,,,,,97511,2022-12-01_11h17.46.624,vts_reward_expectancy_bt_OFFLINE,2022.2.4,59.960681687696386,
,,,,,,,,,,,,,,,,,,0,0,0,0,9,0,9,0,,,,,,,,,,,,,,,,,,,,,,,,,,,,,,,,,,,,,,,,,,,,,,,,,1616.8577260989696,,160,Y,star,0.00045211566612124443,1612.8494981862605,1614.3379642232321,1614.3379642232321,1614.3379642232321,,,,1,0,f,0,1615.3585543348454,0.9935556198470294,1616.8577260989696,,,,,,,,,,,,,,,,,,,,,,,,,,,,,,,,,,,,,,,,,,,,,,,,,,97511,2022-12-01_11h17.46.624,vts_reward_expectancy_bt_OFFLINE,2022.2.4,59.960681687696386,
,,,,,,,,,,,,,,,,,,,,,,,,,,0,0,0,0,0,0,0,0,,,,,,,,,,,,,,,,,,,,,,,,,,,,,,,,,,,,,,,,,1645.078679339029,,125,H,triangle,0.0008537070825695992,,,,,,,,1,0,,1,1643.5783446552232,,,1640.3367216042243,1641.8262929199263,1641.8262929199263,1641.8262929199263,j,1.7324200375005603,,,,,,,,,,,,,,,,,,,,,,,,,,,,,,,,,,,,,,,,,,,,97511,2022-12-01_11h17.46.624,vts_reward_expectancy_bt_OFFLINE,2022.2.4,59.960681687696386,
,,,,,,,,,,,,,,,,,,,,,,,,,,0,0,0,0,1,0,1,0,,,,,,,,,,,,,,,,,,,,,,,,,,,,,,,,,,,,,,,,,1650.4496089410968,1650.9498576242477,160,Y,circle,0.001684810034930706,,,,,,,,1,0,,1,1648.946948905941,,1650.4496089410968,1646.073996247258,1647.5629280819558,1647.5629280819558,1647.5629280819558,k,1.3509421925991774,,,,,,,,,,,,,,,,,,,,,,,,,,,,,,,,,,,,,,,,,,,,97511,2022-12-01_11h17.46.624,vts_reward_expectancy_bt_OFFLINE,2022.2.4,59.960681687696386,
,,,,,,,,,,,,,,,,,,,,,,,,,,0,0,0,0,2,0,2,0,,,,,,,,,,,,,,,,,,,,,,,,,,,,,,,,,,,,,,,,,1655.2193581578322,,139,B,star,0.0005606249906122684,,,,,,,,1,0,,1,1653.7172806491144,,,1651.4449515859596,1652.9332889728248,1652.9332889728248,1652.9332889728248,j,0.7517410558648407,,,,,,,,,,,,,,,,,,,,,,,,,,,,,,,,,,,,,,,,,,,,97511,2022-12-01_11h17.46.624,vts_reward_expectancy_bt_OFFLINE,2022.2.4,59.960681687696386,
,,,,,,,,,,,,,,,,,,,,,,,,,,0,0,0,0,3,0,3,0,,,,,,,,,,,,,,,,,,,,,,,,,,,,,,,,,,,,,,,,,1659.8211336592212,,174,U,hexagon,0.0007397439330816269,,,,,,,,1,0,,1,1658.3219226151705,,1659.8211336592212,1656.2152859312482,1657.7037655282766,1657.7037655282766,1657.7037655282766,k,0.593603684566915,,,,,,,,,,,,,,,,,,,,,,,,,,,,,,,,,,,,,,,,,,,,97511,2022-12-01_11h17.46.624,vts_reward_expectancy_bt_OFFLINE,2022.2.4,59.960681687696386,
,,,,,,,,,,,,,,,,,,,,,,,,,,0,0,0,0,4,0,4,0,,,,,,,,,,,,,,,,,,,,,,,,,,,,,,,,,,,,,,,,,1664.675285458099,,146,D,hexagon,0.0024821911938488483,,,,,,,,1,0,,1,1663.1757416101173,,1664.675285458099,1660.8183289468288,1662.3073370791972,1662.3073370791972,1662.3073370791972,j,0.8496870319359004,,,,,,,,,,,,,,,,,,,,,,,,,,,,,,,,,,,,,,,,,,,,97511,2022-12-01_11h17.46.624,vts_reward_expectancy_bt_OFFLINE,2022.2.4,59.960681687696386,
,,,,,,,,,,,,,,,,,,,,,,,,,,0,0,0,0,5,0,5,0,,,,,,,,,,,,,,,,,,,,,,,,,,,,,,,,,,,,,,,,,1669.911585087888,,132,S,triangle,0.0021947179920971394,,,,,,,,1,0,,1,1668.3967195539735,,,1665.6711791362613,1667.160635162145,1667.160635162145,1667.160635162145,k,1.2054228470660746,,,,,,,,,,,,,,,,,,,,,,,,,,,,,,,,,,,,,,,,,,,,97511,2022-12-01_11h17.46.624,vts_reward_expectancy_bt_OFFLINE,2022.2.4,59.960681687696386,
,,,,,,,,,,,,,,,,,,,,,,,,,,0,0,0,0,6,0,6,0,,,,,,,,,,,,,,,,,,,,,,,,,,,,,,,,,,,,,,,,,1674.632020269055,,181,W,star,0.0014135930687189102,,,,,,,,1,0,,1,1673.1326643768698,,1674.632020269055,1670.891866300255,1672.3811507071368,1672.3811507071368,1672.3811507071368,k,0.722132429946214,,,,,,,,,,,,,,,,,,,,,,,,,,,,,,,,,,,,,,,,,,,,97511,2022-12-01_11h17.46.624,vts_reward_expectancy_bt_OFFLINE,2022.2.4,59.960681687696386,
,,,,,,,,,,,,,,,,,,,,,,,,,,0,0,0,0,7,0,7,0,,,,,,,,,,,,,,,,,,,,,,,,,,,,,,,,,,,,,,,,,1679.4522326472215,,167,F,circle,0.002406299114227295,,,,,,,,1,0,,1,1677.9374677408487,,,1675.6290270788595,1677.1184716592543,1677.1184716592543,1677.1184716592543,j,0.800247288774699,,,,,,,,,,,,,,,,,,,,,,,,,,,,,,,,,,,,,,,,,,,,97511,2022-12-01_11h17.46.624,vts_reward_expectancy_bt_OFFLINE,2022.2.4,59.960681687696386,
,,,,,,,,,,,,,,,,,,,,,,,,,,0,0,0,0,8,0,8,0,,,,,,,,,,,,,,,,,,,,,,,,,,,,,,,,,,,,,,,,,1684.9063208978623,,125,H,triangle,0.016333789099007845,,,,,,,,0,0,,1,1683.3917962522246,,,1680.4481988260522,1681.9217000552453,1681.9217000552453,1681.9217000552453,k,1.442771377041936,,,,,,,,,,,,,,,,,,,,,,,,,,,,,,,,,,,,,,,,,,,,97511,2022-12-01_11h17.46.624,vts_reward_expectancy_bt_OFFLINE,2022.2.4,59.960681687696386,
,,,,,,,,,,,,,,,,,,,,,,,,,,0,0,0,0,9,0,9,0,,,,,,,,,,,,,,,,,,,,,,,,,,,,,,,,,,,,,,,,,1689.5594451581128,,160,Y,star,0.0021130573004484177,,,,,,,,1,1,,1,1688.0461432472803,,,1685.886358289048,1687.3757528560236,1687.3757528560236,1687.3757528560236,k,0.6450760960578918,,,,,,,,,,,,,,,,,,,,,,,,,,,,,,,,,,,,,,,,,,,,97511,2022-12-01_11h17.46.624,vts_reward_expectancy_bt_OFFLINE,2022.2.4,59.960681687696386,
,,,,,,,,,,,,,,,,,,,,,,,,,,,,,,,,,,0,0,0,0,0,0,0,0,,,,,,,,,,,,,,,,,,,,,,,,,,,,0,900,,,,1722.5347761972807,,160,W,hexagon,0.0011645089834928513,,,,,,,,1,0,,2,,,,,,,,,,1718.6114914640784,1718.6114914640784,1718.6114914640784,1718.6114914640784,1720.1005018702708,1720.1005018702708,1720.1005018702708,1720.1005018702708,1720.116729710251,1720.116729710251,1720.116729710251,1720.116729710251,-1,number,NA,f,0.8958361288532615,vtsPrac,1721.020668469835,,,,,,,,,,,,,,,,,,,,,,,,,97511,2022-12-01_11h17.46.624,vts_reward_expectancy_bt_OFFLINE,2022.2.4,59.960681687696386,
,,,,,,,,,,,,,,,,,,,,,,,,,,,,,,,,,,0,0,0,0,1,0,1,0,,,,,,,,,,,,,,,,,,,,,,,,,,,,0,900,,,,1727.47157176584,,167,S,circle,0.017338904086500406,,,,,,,,1,0,,2,,,,,,,,,,1723.5308584640734,1723.5308584640734,1723.5308584640734,1723.5308584640734,1725.0018956600688,1725.0018956600688,1725.0018956600688,1725.0018956600688,1725.0355575759895,1725.0355575759895,1725.0355575759895,1725.0355575759895,repeat,number,numRpt,f,0.922846119850874,vtsPrac,1725.9561159359291,,,,,,,,,,,,,,,,,,,,,,,,,97511,2022-12-01_11h17.46.624,vts_reward_expectancy_bt_OFFLINE,2022.2.4,59.960681687696386,
,,,,,,,,,,,,,,,,,,,,,,,,,,,,,,,,,,0,0,0,0,2,0,2,0,,,,,,,,,,,,,,,,,,,,,,,,,,,,0,900,,,,1732.474984715227,,139,U,circle,0.017236171290278435,,,,,,,,1,0,,2,,,,,,,,,,1728.4682564558461,1728.4682564558461,1728.4682564558461,1728.4682564558461,1729.9386839661747,1729.9386839661747,1729.9386839661747,1729.9386839661747,1729.9723445521668,1729.9723445521668,1729.9723445521668,1729.9723445521668,repeat,number,numRpt,d,0.9921597288921475,vtsPrac,1730.9599958430044,,,,,,,,,,,,,,,,,,,,,,,,,97511,2022-12-01_11h17.46.624,vts_reward_expectancy_bt_OFFLINE,2022.2.4,59.960681687696386,
,,,,,,,,,,,,,,,,,,,,,,,,,,,,,,,,,,0,0,0,0,3,0,3,0,,,,,,,,,,,,,,,,,,,,,,,,,,,,0,900,,,,1737.5121704060584,,181,F,hexagon,0.01675176713615656,,,,,,,,1,0,,2,,,,,,,,,,1733.4714552261867,1733.4714552261867,1733.4714552261867,1733.4714552261867,1734.9425391410477,1734.9425391410477,1734.9425391410477,1734.9425391410477,1734.9761358322576,1734.9761358322576,1734.9761358322576,1734.9761358322576,repeat,number,numRpt,f,1.0289956168271601,vtsPrac,1735.9964514030144,,,,,,,,,,,,,,,,,,,,,,,,,97511,2022-12-01_11h17.46.624,vts_reward_expectancy_bt_OFFLINE,2022.2.4,59.960681687696386,
,,,,,,,,,,,,,,,,,,,,,,,,,,,,,,,,,,0,0,0,0,4,0,4,0,,,,,,,,,,,,,,,,,,,,,,,,,,,,0,900,,,,1742.3322799052112,1742.832733831834,160,W,star,0.01720986608415842,,,,,,,,1,0,,2,,,,,,,,,,1738.5079663940705,1738.5079663940705,1738.5079663940705,1738.5079663940705,1739.9792207898572,1739.9792207898572,1739.9792207898572,1739.9792207898572,1740.012768710032,1740.012768710032,1740.012768710032,1740.012768710032,repeat,number,numRpt,f,0.81919523794204,vtsPrac,1740.831850423012,1742.3322799052112,,,,,,,,,,,,,,,,,,,,,,,,97511,2022-12-01_11h17.46.624,vts_reward_expectancy_bt_OFFLINE,2022.2.4,59.960681687696386,
,,,,,,,,,,,,,,,,,,,,,,,,,,,,,,,,,,0,0,0,0,5,0,5,0,,,,,,,,,,,,,,,,,,,,,,,,,,,,0,900,,,,1747.0692658391781,,167,S,circle,-0.0009714947082102299,,,,,,,,1,0,,2,,,,,,,,,,1743.3397257900797,1743.3397257900797,1743.3397257900797,1743.3397257900797,1744.8328237459064,1744.8328237459064,1744.8328237459064,1744.8328237459064,1744.8495013541542,1744.8495013541542,1744.8495013541542,1744.8495013541542,repeat,number,numRpt,f,0.6910599418915808,vtsPrac,1745.5536944088526,,,,,,,,,,,,,,,,,,,,,,,,,97511,2022-12-01_11h17.46.624,vts_reward_expectancy_bt_OFFLINE,2022.2.4,59.960681687696386,
,,,,,,,,,,,,,,,,,,,,,,,,,,,,,,,,,,0,0,0,0,6,0,6,0,,,,,,,,,,,,,,,,,,,,,,,,,,,,0,900,,,,1751.7728238422424,,139,U,triangle,0.017254242207854986,,,,,,,,1,0,,2,,,,,,,,,,1748.0650788950734,1748.0650788950734,1748.0650788950734,1748.0650788950734,1749.5366784948856,1749.5366784948856,1749.5366784948856,1749.5366784948856,1749.5704744961113,1749.5704744961113,1749.5704744961113,1749.5704744961113,repeat,number,numRpt,d,0.688905063085258,vtsPrac,1750.2573341438547,,,,,,,,,,,,,,,,,,,,,,,,,97511,2022-12-01_11h17.46.624,vts_reward_expectancy_bt_OFFLINE,2022.2.4,59.960681687696386,
,,,,,,,,,,,,,,,,,,,,,,,,,,,,,,,,,,0,0,0,0,7,0,7,0,,,,,,,,,,,,,,,,,,,,,,,,,,,,0,900,,,,1756.8261743299663,,181,F,hexagon,0.01650584489107132,,,,,,,,1,0,,2,,,,,,,,,,1752.7685047229752,1752.7685047229752,1752.7685047229752,1752.7685047229752,1754.2403571242467,1754.2403571242467,1754.2403571242467,1754.2403571242467,1754.2737536798231,1754.2737536798231,1754.2737536798231,1754.2737536798231,repeat,number,numRpt,f,1.0478444499894977,vtsPrac,1755.3105939282104,,,,,,,,,,,,,,,,,,,,,,,,,97511,2022-12-01_11h17.46.624,vts_reward_expectancy_bt_OFFLINE,2022.2.4,59.960681687696386,
,,,,,,,,,,,,,,,,,,,,,,,,,,,,,,,,,,0,0,0,0,8,0,8,0,,,,,,,,,,,,,,,,,,,,,,,,,,,,0,900,,,,1761.5129228960723,,181,B,hexagon,0.01767260581254959,,,,,,,,1,0,,2,,,,,,,,,,1757.822197237052,1757.822197237052,1757.822197237052,1757.822197237052,1759.2934708120301,1759.2934708120301,1759.2934708120301,1759.2934708120301,1759.3273359192535,1759.3273359192535,1759.3273359192535,1759.3273359192535,repeat,number,numRpt,f,0.6975488578900695,vtsPrac,1760.012445313856,,,,,,,,,,,,,,,,,,,,,,,,,97511,2022-12-01_11h17.46.624,vts_reward_expectancy_bt_OFFLINE,2022.2.4,59.960681687696386,
,,,,,,,,,,,,,,,,,,,,,,,,,,,,,,,,,,0,0,0,0,9,0,9,0,,,,,,,,,,,,,,,,,,,,,,,,,,,,0,900,,,,1766.3665590132587,,167,W,star,0.002151679713279009,,,,,,,,1,0,,2,,,,,,,,,,1762.5087559749372,1762.5087559749372,1762.5087559749372,1762.5087559749372,1763.9972162749618,1763.9972162749618,1763.9972162749618,1763.9972162749618,1764.0142063610256,1764.0142063610256,1764.0142063610256,1764.0142063610256,repeat,number,numRpt,f,0.8433366399258375,vtsPrac,1764.8661301382817,,,,,,,,,,,,,,,,,,,,,,,,,97511,2022-12-01_11h17.46.624,vts_reward_expectancy_bt_OFFLINE,2022.2.4,59.960681687696386,
,,,,,,,,,,,,,,,,,,,,,,,,,,,,,,,,,,0,0,0,0,10,0,10,0,,,,,,,,,,,,,,,,,,,,,,,,,,,,0,900,,,,1771.2039184840396,,174,S,circle,0.002387076150625944,,,,,,,,1,0,,2,,,,,,,,,,1767.3624725081027,1767.3624725081027,1767.3624725081027,1767.3624725081027,1768.8508652448654,1768.8508652448654,1768.8508652448654,1768.8508652448654,1768.8679749518633,1768.8679749518633,1768.8679749518633,1768.8679749518633,repeat,number,numRpt,f,0.8269301652908325,vtsPrac,1769.703104400076,,,,,,,,,,,,,,,,,,,,,,,,,97511,2022-12-01_11h17.46.624,vts_reward_expectancy_bt_OFFLINE,2022.2.4,59.960681687696386,
,,,,,,,,,,,,,,,,,,,,,,,,,,,,,,,,,,0,0,0,0,11,0,11,0,,,,,,,,,,,,,,,,,,,,,,,,,,,,0,900,,,,1775.95683475025,,125,Y,hexagon,0.001954060047864914,,,,,,,,1,0,,2,,,,,,,,,,1772.200042322278,1772.200042322278,1772.200042322278,1772.200042322278,1773.687978258822,1773.687978258822,1773.687978258822,1773.687978258822,1773.7044427329674,1773.7044427329674,1773.7044427329674,1773.7044427329674,repeat,number,numRpt,d,0.7382123447023332,vtsPrac,1774.4568841359578,,,,,,,,,,,,,,,,,,,,,,,,,97511,2022-12-01_11h17.46.624,vts_reward_expectancy_bt_OFFLINE,2022.2.4,59.960681687696386,
,,,,,,,,,,,,,,,,,,,,,,,,,,,,,,,,,,0,0,0,0,12,0,12,0,,,,,,,,,,,,,,,,,,,,,,,,,,,,0,900,,,,1780.627537773922,,174,S,circle,0.001717529259622097,,,,,,,,1,0,,2,,,,,,,,,,1776.9525864729658,1776.9525864729658,1776.9525864729658,1776.9525864729658,1778.4412268381566,1778.4412268381566,1778.4412268381566,1778.4412268381566,1778.458104470279,1778.458104470279,1778.458104470279,1778.458104470279,repeat,number,numRpt,f,0.6531374081969261,vtsPrac,1779.1271287458949,,,,,,,,,,,,,,,,,,,,,,,,,97511,2022-12-01_11h17.46.624,vts_reward_expectancy_bt_OFFLINE,2022.2.4,59.960681687696386,
,,,,,,,,,,,,,,,,,,,,,,,,,,,,,,,,,,0,0,0,0,13,0,13,0,,,,,,,,,,,,,,,,,,,,,,,,,,,,0,900,,,,1785.230740642175,1785.7306944662705,125,F,triangle,0.0016716551035642624,,,,,,,,1,0,,2,,,,,,,,,,1781.6227370360866,1781.6227370360866,1781.6227370360866,1781.6227370360866,1783.1113568050787,1783.1113568050787,1783.1113568050787,1783.1113568050787,1783.1286637489684,1783.1286637489684,1783.1286637489684,1783.1286637489684,repeat,number,numRpt,d,0.5848436062224209,vtsPrac,1783.7285618600436,1785.230740642175,,,,,,,,,,,,,,,,,,,,,,,,97511,2022-12-01_11h17.46.624,vts_reward_expectancy_bt_OFFLINE,2022.2.4,59.960681687696386,
,,,,,,,,,,,,,,,,,,,,,,,,,,,,,,,,,,0,0,0,0,14,0,14,0,,,,,,,,,,,,,,,,,,,,,,,,,,,,0,900,,,,1790.1841329229064,,181,U,triangle,0.0003264108672738075,,,,,,,,1,0,,2,,,,,,,,,,1786.2262048502453,1786.2262048502453,1786.2262048502453,1786.2262048502453,1787.714844387956,1787.714844387956,1787.714844387956,1787.714844387956,1787.7320047752,1787.7320047752,1787.7320047752,1787.7320047752,repeat,number,numRpt,f,0.9430080610327423,vtsPrac,1788.6838571070693,,,,,,,,,,,,,,,,,,,,,,,,,97511,2022-12-01_11h17.46.624,vts_reward_expectancy_bt_OFFLINE,2022.2.4,59.960681687696386,
,,,,,,,,,,,,,,,,,,,,,,,,,,,,,,,,,,0,0,0,0,15,0,15,0,,,,,,,,,,,,,,,,,,,,,,,,,,,,0,900,,,,1794.96933936188,,139,D,star,0.002218852750957012,,,,,,,,1,0,,2,,,,,,,,,,1791.1800840208307,1791.1800840208307,1791.1800840208307,1791.1800840208307,1792.66856451286,1792.66856451286,1792.66856451286,1792.66856451286,1792.685635427013,1792.685635427013,1792.685635427013,1792.685635427013,repeat,number,numRpt,d,0.7827104558236897,vtsPrac,1793.4702913011424,1794.96933936188,,,,,,,,,,,,,,,,,,,,,,,,97511,2022-12-01_11h17.46.624,vts_reward_expectancy_bt_OFFLINE,2022.2.4,59.960681687696386,
,,,,,,,,,,,,,,,,,,,,,,,,,,,,,,,,,,0,0,0,0,16,0,16,0,,,,,,,,,,,,,,,,,,,,,,,,,,,,0,900,,,,1799.9898580652662,1800.4920278959908,125,Y,star,0.002371686976402998,,,,,,,,1,0,,2,,,,,,,,,,1795.966773794964,1795.966773794964,1795.966773794964,1795.966773794964,1797.4558332441375,1797.4558332441375,1797.4558332441375,1797.4558332441375,1797.4723548539914,1797.4723548539914,1797.4723548539914,1797.4723548539914,repeat,number,numRpt,d,1.001000152900815,vtsPrac,1798.4892934481613,1799.9898580652662,,,,,,,,,,,,,,,,,,,,,,,,97511,2022-12-01_11h17.46.624,vts_reward_expectancy_bt_OFFLINE,2022.2.4,59.960681687696386,
,,,,,,,,,,,,,,,,,,,,,,,,,,,,,,,,,,0,0,0,0,17,0,17,0,,,,,,,,,,,,,,,,,,,,,,,,,,,,0,900,,,,1805.3788555101492,,181,W,hexagon,-5.4916832596063614e-05,,,,,,,,1,0,,2,,,,,,,,,,1800.9869611812755,1800.9869611812755,1800.9869611812755,1800.9869611812755,1802.4756558891386,1802.4756558891386,1802.4756558891386,1802.4756558891386,1802.4928108039312,1802.4928108039312,1802.4928108039312,1802.4928108039312,repeat,number,numRpt,f,1.3814420136623085,vtsPrac,1803.8782591922209,,,,,,,,,,,,,,,,,,,,,,,,,97511,2022-12-01_11h17.46.624,vts_reward_expectancy_bt_OFFLINE,2022.2.4,59.960681687696386,
,,,,,,,,,,,,,,,,,,,,,,,,,,,,,,,,,,0,0,0,0,18,0,18,0,,,,,,,,,,,,,,,,,,,,,,,,,,,,0,900,,,,1810.1820824020542,,174,B,hexagon,0.002124341204762459,,,,,,,,1,0,,2,,,,,,,,,,1806.3743041800335,1806.3743041800335,1806.3743041800335,1806.3743041800335,1807.8632161612622,1807.8632161612622,1807.8632161612622,1807.8632161612622,1807.8795384978876,1807.8795384978876,1807.8795384978876,1807.8795384978876,repeat,number,numRpt,f,0.7870617629960179,vtsPrac,1808.682019640226,,,,,,,,,,,,,,,,,,,,,,,,,97511,2022-12-01_11h17.46.624,vts_reward_expectancy_bt_OFFLINE,2022.2.4,59.960681687696386,
,,,,,,,,,,,,,,,,,,,,,,,,,,,,,,,,,,0,0,0,0,19,0,19,0,,,,,,,,,,,,,,,,,,,,,,,,,,,,0,900,,,,1815.084131969139,,167,H,triangle,0.001626413781195879,,,,,,,,1,0,,2,,,,,,,,,,1811.1774390041828,1811.1774390041828,1811.1774390041828,1811.1774390041828,1812.6662847548723,1812.6662847548723,1812.6662847548723,1812.6662847548723,1812.6835640692152,1812.6835640692152,1812.6835640692152,1812.6835640692152,repeat,number,numRpt,f,0.8774649570696056,vtsPrac,1813.5687836389989,,,,,,,,,,,,,,,,,,,,,,,,,97511,2022-12-01_11h17.46.624,vts_reward_expectancy_bt_OFFLINE,2022.2.4,59.960681687696386,
,,,,,,,,,,,,,,,,,,,,,,,,,,,,,,,,,,0,0,0,0,20,0,20,0,,,,,,,,,,,,,,,,,,,,,,,,,,,,0,900,,,,1819.8373518218286,,167,F,hexagon,0.0018870681524276733,,,,,,,,1,0,,2,,,,,,,,,,1816.064615137875,1816.064615137875,1816.064615137875,1816.064615137875,1817.553722314071,1817.553722314071,1817.553722314071,1817.553722314071,1817.5700576682575,1817.5700576682575,1817.5700576682575,1817.5700576682575,repeat,number,numRpt,f,0.749099403154105,vtsPrac,1818.323029993102,,,,,,,,,,,,,,,,,,,,,,,,,97511,2022-12-01_11h17.46.624,vts_reward_expectancy_bt_OFFLINE,2022.2.4,59.960681687696386,
,,,,,,,,,,,,,,,,,,,,,,,,,,,,,,,,,,0,0,0,0,21,0,21,0,,,,,,,,,,,,,,,,,,,,,,,,,,,,0,900,,,,1825.0246482971124,,139,W,circle,0.001425767783075571,,,,,,,,1,0,,2,,,,,,,,,,1820.8178343060426,1820.8178343060426,1820.8178343060426,1820.8178343060426,1822.3068136642687,1822.3068136642687,1822.3068136642687,1822.3068136642687,1822.3237792681903,1822.3237792681903,1822.3237792681903,1822.3237792681903,repeat,number,numRpt,d,1.1836959877982736,vtsPrac,1823.509114780929,,,,,,,,,,,,,,,,,,,,,,,,,97511,2022-12-01_11h17.46.624,vts_reward_expectancy_bt_OFFLINE,2022.2.4,59.960681687696386,
,,,,,,,,,,,,,,,,,,,,,,,,,,,,,,,,,,0,0,0,0,22,0,22,0,,,,,,,,,,,,,,,,,,,,,,,,,,,,0,900,,,,1830.1370163471438,,146,D,star,0.0016137110069394112,,,,,,,,1,0,,2,,,,,,,,,,1826.0052697700448,1826.0052697700448,1826.0052697700448,1826.0052697700448,1827.493796247989,1827.493796247989,1827.493796247989,1827.493796247989,1827.5109583782032,1827.5109583782032,1827.5109583782032,1827.5109583782032,repeat,number,numRpt,d,1.114702912978828,vtsPrac,1828.62988083018,,,,,,,,,,,,,,,,,,,,,,,,,97511,2022-12-01_11h17.46.624,vts_reward_expectancy_bt_OFFLINE,2022.2.4,59.960681687696386,
,,,,,,,,,,,,,,,,,,,,,,,,,,,,,,,,,,0,0,0,0,23,0,23,0,,,,,,,,,,,,,,,,,,,,,,,,,,,,0,900,,,,1834.948732519988,,125,S,circle,0.0017304038628935814,,,,,,,,1,0,,2,,,,,,,,,,1831.1254224688746,1831.1254224688746,1831.1254224688746,1831.1254224688746,1832.6141812731512,1832.6141812731512,1832.6141812731512,1832.6141812731512,1832.63142707292,1832.63142707292,1832.63142707292,1832.63142707292,repeat,number,numRpt,d,0.7879031170159578,vtsPrac,1833.4333185232244,,,,,,,,,,,,,,,,,,,,,,,,,97511,2022-12-01_11h17.46.624,vts_reward_expectancy_bt_OFFLINE,2022.2.4,59.960681687696386,
