LTriangleOpac,LCircleOpac,LHexagonOpac,LStarOpac,RTriangleOpac,RCircleOpac,RHexagonOpac,RStarOpac,LShape_ID,RShape_ID,training_blocks.thisRepN,training_blocks.thisTrialN,training_blocks.thisN,training_blocks.thisIndex,training.thisRepN,training.thisTrialN,training.thisN,training.thisIndex,task1_prac_redo.thisRepN,task1_prac_redo.thisTrialN,task1_prac_redo.thisN,task1_prac_redo.thisIndex,task1_prac_trials.thisRepN,task1_prac_trials.thisTrialN,task1_prac_trials.thisN,task1_prac_trials.thisIndex,task2_prac_redo.thisRepN,task2_prac_redo.thisTrialN,task2_prac_redo.thisN,task2_prac_redo.thisIndex,task2_praac_trials.thisRepN,task2_praac_trials.thisTrialN,task2_praac_trials.thisN,task2_praac_trials.thisIndex,vts_prac_redo.thisRepN,vts_prac_redo.thisTrialN,vts_prac_redo.thisN,vts_prac_redo.thisIndex,vts_practice_trials.thisRepN,vts_practice_trials.thisTrialN,vts_practice_trials.thisN,vts_practice_trials.thisIndex,trials_norew.thisRepN,trials_norew.thisTrialN,trials_norew.thisN,trials_norew.thisIndex,block.thisRepN,block.thisTrialN,block.thisN,block.thisIndex,trials_rew.thisRepN,trials_rew.thisTrialN,trials_rew.thisN,trials_rew.thisIndex,key_resp.started,key_resp.keys,key_resp.rt,left_circle.started,right_circle.started,left_triangle.started,right_triangle.started,left_star.started,right_star.started,left_hexagon.started,right_hexagon.started,training_fix.started,training_resp.started,training_resp.keys,training_resp.rt,points_trial,points_cumul,trainBlock,training_feedback_txt.started,training_feedback_txt.stopped,fix.started,fix.stopped,curr_topStim,curr_bottStim,curr_shape,ISI.started,tgt_fix_prac1.started,top_target_prac1.started,bott_target_prac1.started,target_resp_prac1.started,acc,E1,target_resp_prac1.keys,target_resp_prac1.rt,pracBlock,prac_fback_text.started,prac_fback_text.stopped,tgt_fix_prac2.started,top_target_prac2.started,bott_target_prac2.started,target_resp_prac2.started,target_resp_prac2.keys,target_resp_prac2.rt,star.started,hegagon.started,triangle.started,circle.started,top_target.started,tgt_fix.started,bot_target.started,target_resp.started,star.stopped,hegagon.stopped,triangle.stopped,circle.stopped,alt,task,condition,target_resp.keys,target_resp.rt,rewCond,vts_fback.started,vts_fback.stopped,blockNum,norew_fback.started,norew_fback.stopped,key_resp_2.keys,key_resp_2.rt,rewExpectancy,feedbk_text.started,feedbk_text.stopped,top_target.stopped,tgt_fix.stopped,bot_target.stopped,target_resp.stopped,text_3.started,debrief.started,text_3.stopped,button.started,debrief.index,debrief.itemText,debrief.type,debrief.granularity,debrief.font,debrief.markerColor,debrief.response,debrief.rt,button.numClicks,button.timesOn,button.timesOff,participant,date,expName,psychopyVersion,frameRate,
,,,,,,,,,,,,,,,,,,,,,,,,,,,,,,,,,,,,,,,,,,,,,,,,,,,,,,17.600639232987305,space,21.88730967103038,,,,,,,,,,,,,,,,,,,,,,,,,,,,,,,,,,,,,,,,,,,,,,,,,,,,,,,,,,,,,,,,,,,,,,,,,,,,,,,,,,,,,,,,98110,2022-11-21_14h08.02.994,vts_reward_expectancy_bt_OFFLINE,2022.2.4,59.90733772441504,
0,1,0,0,0,0,0,1,circle,star,0,0,0,0,0,0,0,5,,,,,,,,,,,,,,,,,,,,,,,,,,,,,,,,,,,,,,,,64.81790016999003,64.81790016999003,64.81790016999003,64.81790016999003,64.81790016999003,64.81790016999003,64.81790016999003,64.81790016999003,64.81790016999003,64.81790016999003,a,1.7848623790196143,10,10,0,66.6197203329939,68.12091029598378,68.12091029598378,68.6216261810041,,,,,,,,,,,,,,,,,,,,,,,,,,,,,,,,,,,,,,,,,,,,,,,,,,,,,,,,,,,,,,,,,,,,,98110,2022-11-21_14h08.02.994,vts_reward_expectancy_bt_OFFLINE,2022.2.4,59.90733772441504,
0,0,1,0,1,0,0,0,hexagon,triangle,0,0,0,0,0,1,1,6,,,,,,,,,,,,,,,,,,,,,,,,,,,,,,,,,,,,,,,,68.6216261810041,68.6216261810041,68.6216261810041,68.6216261810041,68.6216261810041,68.6216261810041,68.6216261810041,68.6216261810041,68.6216261810041,68.6216261810041,a,2.12014734101831,10,20,0,70.77419619099237,72.27576902398141,72.27576902398141,,,,,,,,,,,,,,,,,,,,,,,,,,,,,,,,,,,,,,,,,,,,,,,,,,,,,,,,,,,,,,,,,,,,,,98110,2022-11-21_14h08.02.994,vts_reward_expectancy_bt_OFFLINE,2022.2.4,59.90733772441504,
0,0,1,0,0,1,0,0,hexagon,circle,0,0,0,0,0,2,2,7,,,,,,,,,,,,,,,,,,,,,,,,,,,,,,,,,,,,,,,,72.77639008799451,72.77639008799451,72.77639008799451,72.77639008799451,72.77639008799451,72.77639008799451,72.77639008799451,72.77639008799451,72.77639008799451,72.77639008799451,a,1.2518279350188095,10,30,0,74.0609295250033,,75.56284539098851,,,,,,,,,,,,,,,,,,,,,,,,,,,,,,,,,,,,,,,,,,,,,,,,,,,,,,,,,,,,,,,,,,,,,,98110,2022-11-21_14h08.02.994,vts_reward_expectancy_bt_OFFLINE,2022.2.4,59.90733772441504,
0,1,0,0,1,0,0,0,circle,triangle,0,0,0,0,0,3,3,3,,,,,,,,,,,,,,,,,,,,,,,,,,,,,,,,,,,,,,,,76.06326100599836,76.06326100599836,76.06326100599836,76.06326100599836,76.06326100599836,76.06326100599836,76.06326100599836,76.06326100599836,76.06326100599836,76.06326100599836,a,1.3523323960253038,1,31,0,77.44796548600425,,78.94981132500106,,,,,,,,,,,,,,,,,,,,,,,,,,,,,,,,,,,,,,,,,,,,,,,,,,,,,,,,,,,,,,,,,,,,,,98110,2022-11-21_14h08.02.994,vts_reward_expectancy_bt_OFFLINE,2022.2.4,59.90733772441504,
0,1,0,0,0,0,1,0,circle,hexagon,0,0,0,0,0,4,4,4,,,,,,,,,,,,,,,,,,,,,,,,,,,,,,,,,,,,,,,,79.45005691799452,79.45005691799452,79.45005691799452,79.45005691799452,79.45005691799452,79.45005691799452,79.45005691799452,79.45005691799452,79.45005691799452,79.45005691799452,l,0.8683305210142862,1,32,0,80.351096407976,,81.85274949899758,,,,,,,,,,,,,,,,,,,,,,,,,,,,,,,,,,,,,,,,,,,,,,,,,,,,,,,,,,,,,,,,,,,,,,98110,2022-11-21_14h08.02.994,vts_reward_expectancy_bt_OFFLINE,2022.2.4,59.90733772441504,
1,0,0,0,0,1,0,0,triangle,circle,0,0,0,0,0,5,5,0,,,,,,,,,,,,,,,,,,,,,,,,,,,,,,,,,,,,,,,,82.35332554898923,82.35332554898923,82.35332554898923,82.35332554898923,82.35332554898923,82.35332554898923,82.35332554898923,82.35332554898923,82.35332554898923,82.35332554898923,a,1.4051504230010323,10,42,0,83.78818975397735,,85.29028166100034,,,,,,,,,,,,,,,,,,,,,,,,,,,,,,,,,,,,,,,,,,,,,,,,,,,,,,,,,,,,,,,,,,,,,,98110,2022-11-21_14h08.02.994,vts_reward_expectancy_bt_OFFLINE,2022.2.4,59.90733772441504,
0,0,0,1,0,0,1,0,star,hexagon,0,0,0,0,0,6,6,11,,,,,,,,,,,,,,,,,,,,,,,,,,,,,,,,,,,,,,,,85.79053424097947,85.79053424097947,85.79053424097947,85.79053424097947,85.79053424097947,85.79053424097947,85.79053424097947,85.79053424097947,85.79053424097947,85.79053424097947,a,1.2650389689952135,10,52,0,87.07540538298781,,88.57703251898056,,,,,,,,,,,,,,,,,,,,,,,,,,,,,,,,,,,,,,,,,,,,,,,,,,,,,,,,,,,,,,,,,,,,,,98110,2022-11-21_14h08.02.994,vts_reward_expectancy_bt_OFFLINE,2022.2.4,59.90733772441504,
0,0,0,1,1,0,0,0,star,triangle,0,0,0,0,0,7,7,9,,,,,,,,,,,,,,,,,,,,,,,,,,,,,,,,,,,,,,,,89.07745289997547,89.07745289997547,89.07745289997547,89.07745289997547,89.07745289997547,89.07745289997547,89.07745289997547,89.07745289997547,89.07745289997547,89.07745289997547,a,0.9361153450154234,1,53,0,90.04521935799858,,91.54692505000276,,,,,,,,,,,,,,,,,,,,,,,,,,,,,,,,,,,,,,,,,,,,,,,,,,,,,,,,,,,,,,,,,,,,,,98110,2022-11-21_14h08.02.994,vts_reward_expectancy_bt_OFFLINE,2022.2.4,59.90733772441504,
0,0,0,1,0,1,0,0,star ,circle,0,0,0,0,0,8,8,10,,,,,,,,,,,,,,,,,,,,,,,,,,,,,,,,,,,,,,,,92.047693289991,92.047693289991,92.047693289991,92.047693289991,92.047693289991,92.047693289991,92.047693289991,92.047693289991,92.047693289991,92.047693289991,a,1.1850530020019505,1,54,0,93.26549927599262,94.7670411989966,94.7670411989966,,,,,,,,,,,,,,,,,,,,,,,,,,,,,,,,,,,,,,,,,,,,,,,,,,,,,,,,,,,,,,,,,,,,,,98110,2022-11-21_14h08.02.994,vts_reward_expectancy_bt_OFFLINE,2022.2.4,59.90733772441504,
1,0,0,0,0,0,1,0,triangle,hexagon,0,0,0,0,0,9,9,1,,,,,,,,,,,,,,,,,,,,,,,,,,,,,,,,,,,,,,,,95.26773670100374,95.26773670100374,95.26773670100374,95.26773670100374,95.26773670100374,95.26773670100374,95.26773670100374,95.26773670100374,95.26773670100374,95.26773670100374,l,1.6773377490171697,1,55,0,96.9695328239759,,98.47122604999458,,,,,,,,,,,,,,,,,,,,,,,,,,,,,,,,,,,,,,,,,,,,,,,,,,,,,,,,,,,,,,,,,,,,,,98110,2022-11-21_14h08.02.994,vts_reward_expectancy_bt_OFFLINE,2022.2.4,59.90733772441504,
1,0,0,0,0,0,0,1,triangle,star,0,0,0,0,0,10,10,2,,,,,,,,,,,,,,,,,,,,,,,,,,,,,,,,,,,,,,,,98.97159858999657,98.97159858999657,98.97159858999657,98.97159858999657,98.97159858999657,98.97159858999657,98.97159858999657,98.97159858999657,98.97159858999657,98.97159858999657,l,1.629009196010884,1,56,0,100.62341528898105,,102.1251588529849,,,,,,,,,,,,,,,,,,,,,,,,,,,,,,,,,,,,,,,,,,,,,,,,,,,,,,,,,,,,,,,,,,,,,,98110,2022-11-21_14h08.02.994,vts_reward_expectancy_bt_OFFLINE,2022.2.4,59.90733772441504,
0,0,1,0,0,0,0,1,hexagon,star,0,0,0,0,0,11,11,8,,,,,,,,,,,,,,,,,,,,,,,,,,,,,,,,,,,,,,,,102.62580334799713,102.62580334799713,102.62580334799713,102.62580334799713,102.62580334799713,102.62580334799713,102.62580334799713,102.62580334799713,102.62580334799713,102.62580334799713,a,1.1368899480148684,10,66,0,103.79369872898678,,105.29527860999224,,,,,,,,,,,,,,,,,,,,,,,,,,,,,,,,,,,,,,,,,,,,,,,,,,,,,,,,,,,,,,,,,,,,,,98110,2022-11-21_14h08.02.994,vts_reward_expectancy_bt_OFFLINE,2022.2.4,59.90733772441504,
0,1,0,0,0,0,0,1,circle,star,0,0,0,0,1,0,12,5,,,,,,,,,,,,,,,,,,,,,,,,,,,,,,,,,,,,,,,,105.79578778598807,105.79578778598807,105.79578778598807,105.79578778598807,105.79578778598807,105.79578778598807,105.79578778598807,105.79578778598807,105.79578778598807,105.79578778598807,a,1.8487487630045507,1,67,0,107.66459246099112,,109.1662281829922,,,,,,,,,,,,,,,,,,,,,,,,,,,,,,,,,,,,,,,,,,,,,,,,,,,,,,,,,,,,,,,,,,,,,,98110,2022-11-21_14h08.02.994,vts_reward_expectancy_bt_OFFLINE,2022.2.4,59.90733772441504,
0,0,1,0,1,0,0,0,hexagon,triangle,0,0,0,0,1,1,13,6,,,,,,,,,,,,,,,,,,,,,,,,,,,,,,,,,,,,,,,,109.66691280098166,109.66691280098166,109.66691280098166,109.66691280098166,109.66691280098166,109.66691280098166,109.66691280098166,109.66691280098166,109.66691280098166,109.66691280098166,l,1.1048740890109912,10,77,0,110.80136807099916,,112.30315609299578,,,,,,,,,,,,,,,,,,,,,,,,,,,,,,,,,,,,,,,,,,,,,,,,,,,,,,,,,,,,,,,,,,,,,,98110,2022-11-21_14h08.02.994,vts_reward_expectancy_bt_OFFLINE,2022.2.4,59.90733772441504,
0,0,0,1,1,0,0,0,star,triangle,0,0,0,0,1,2,14,9,,,,,,,,,,,,,,,,,,,,,,,,,,,,,,,,,,,,,,,,112.80360749998363,112.80360749998363,112.80360749998363,112.80360749998363,112.80360749998363,112.80360749998363,112.80360749998363,112.80360749998363,112.80360749998363,112.80360749998363,a,0.8599203790072352,1,78,0,113.68805030398653,,115.18960148398764,,,,,,,,,,,,,,,,,,,,,,,,,,,,,,,,,,,,,,,,,,,,,,,,,,,,,,,,,,,,,,,,,,,,,,98110,2022-11-21_14h08.02.994,vts_reward_expectancy_bt_OFFLINE,2022.2.4,59.90733772441504,
1,0,0,0,0,1,0,0,triangle,circle,0,0,0,0,1,3,15,0,,,,,,,,,,,,,,,,,,,,,,,,,,,,,,,,,,,,,,,,115.69027398497565,115.69027398497565,115.69027398497565,115.69027398497565,115.69027398497565,115.69027398497565,115.69027398497565,115.69027398497565,115.69027398497565,115.69027398497565,l,1.3368514710164163,10,88,0,117.05845376098296,,118.55992512599914,,,,,,,,,,,,,,,,,,,,,,,,,,,,,,,,,,,,,,,,,,,,,,,,,,,,,,,,,,,,,,,,,,,,,,98110,2022-11-21_14h08.02.994,vts_reward_expectancy_bt_OFFLINE,2022.2.4,59.90733772441504,
0,1,0,0,1,0,0,0,circle,triangle,0,0,0,0,1,4,16,3,,,,,,,,,,,,,,,,,,,,,,,,,,,,,,,,,,,,,,,,119.06045263598207,119.06045263598207,119.06045263598207,119.06045263598207,119.06045263598207,119.06045263598207,119.06045263598207,119.06045263598207,119.06045263598207,119.06045263598207,a,0.9032718840171583,1,89,0,119.99488797498634,,121.49667547497666,,,,,,,,,,,,,,,,,,,,,,,,,,,,,,,,,,,,,,,,,,,,,,,,,,,,,,,,,,,,,,,,,,,,,,98110,2022-11-21_14h08.02.994,vts_reward_expectancy_bt_OFFLINE,2022.2.4,59.90733772441504,
0,1,0,0,0,0,1,0,circle,hexagon,0,0,0,0,1,5,17,4,,,,,,,,,,,,,,,,,,,,,,,,,,,,,,,,,,,,,,,,121.99710508598946,121.99710508598946,121.99710508598946,121.99710508598946,121.99710508598946,121.99710508598946,121.99710508598946,121.99710508598946,121.99710508598946,121.99710508598946,l,0.8472955760080367,10,99,0,122.8647297739808,,124.36617766498239,,,,,,,,,,,,,,,,,,,,,,,,,,,,,,,,,,,,,,,,,,,,,,,,,,,,,,,,,,,,,,,,,,,,,,98110,2022-11-21_14h08.02.994,vts_reward_expectancy_bt_OFFLINE,2022.2.4,59.90733772441504,
1,0,0,0,0,0,1,0,triangle,hexagon,0,0,0,0,1,6,18,1,,,,,,,,,,,,,,,,,,,,,,,,,,,,,,,,,,,,,,,,124.8667581199843,124.8667581199843,124.8667581199843,124.8667581199843,124.8667581199843,124.8667581199843,124.8667581199843,124.8667581199843,124.8667581199843,124.8667581199843,a,1.275506870006211,10,109,0,126.16838856099639,,127.66995154100005,,,,,,,,,,,,,,,,,,,,,,,,,,,,,,,,,,,,,,,,,,,,,,,,,,,,,,,,,,,,,,,,,,,,,,98110,2022-11-21_14h08.02.994,vts_reward_expectancy_bt_OFFLINE,2022.2.4,59.90733772441504,
1,0,0,0,0,0,0,1,triangle,star,0,0,0,0,1,7,19,2,,,,,,,,,,,,,,,,,,,,,,,,,,,,,,,,,,,,,,,,128.17062114999862,128.17062114999862,128.17062114999862,128.17062114999862,128.17062114999862,128.17062114999862,128.17062114999862,128.17062114999862,128.17062114999862,128.17062114999862,l,1.8530737140099518,10,119,0,130.05600759998197,,131.557753829984,,,,,,,,,,,,,,,,,,,,,,,,,,,,,,,,,,,,,,,,,,,,,,,,,,,,,,,,,,,,,,,,,,,,,,98110,2022-11-21_14h08.02.994,vts_reward_expectancy_bt_OFFLINE,2022.2.4,59.90733772441504,
0,0,1,0,0,1,0,0,hexagon,circle,0,0,0,0,1,8,20,7,,,,,,,,,,,,,,,,,,,,,,,,,,,,,,,,,,,,,,,,132.05820540999412,132.05820540999412,132.05820540999412,132.05820540999412,132.05820540999412,132.05820540999412,132.05820540999412,132.05820540999412,132.05820540999412,132.05820540999412,a,1.2169506390055176,1,120,0,133.29285961098503,,134.79455233298359,,,,,,,,,,,,,,,,,,,,,,,,,,,,,,,,,,,,,,,,,,,,,,,,,,,,,,,,,,,,,,,,,,,,,,98110,2022-11-21_14h08.02.994,vts_reward_expectancy_bt_OFFLINE,2022.2.4,59.90733772441504,
0,0,0,1,0,0,1,0,star,hexagon,0,0,0,0,1,9,21,11,,,,,,,,,,,,,,,,,,,,,,,,,,,,,,,,,,,,,,,,135.29517588898307,135.29517588898307,135.29517588898307,135.29517588898307,135.29517588898307,135.29517588898307,135.29517588898307,135.29517588898307,135.29517588898307,135.29517588898307,l,0.7581120380200446,10,130,0,136.07931926398305,,137.58098876397707,,,,,,,,,,,,,,,,,,,,,,,,,,,,,,,,,,,,,,,,,,,,,,,,,,,,,,,,,,,,,,,,,,,,,,98110,2022-11-21_14h08.02.994,vts_reward_expectancy_bt_OFFLINE,2022.2.4,59.90733772441504,
0,0,0,1,0,1,0,0,star ,circle,0,0,0,0,1,10,22,10,,,,,,,,,,,,,,,,,,,,,,,,,,,,,,,,,,,,,,,,138.08154865098186,138.08154865098186,138.08154865098186,138.08154865098186,138.08154865098186,138.08154865098186,138.08154865098186,138.08154865098186,138.08154865098186,138.08154865098186,l,0.8065276400302537,10,140,0,138.91595557998517,,140.41745926300064,,,,,,,,,,,,,,,,,,,,,,,,,,,,,,,,,,,,,,,,,,,,,,,,,,,,,,,,,,,,,,,,,,,,,,98110,2022-11-21_14h08.02.994,vts_reward_expectancy_bt_OFFLINE,2022.2.4,59.90733772441504,
0,0,1,0,0,0,0,1,hexagon,star,0,0,0,0,1,11,23,8,,,,,,,,,,,,,,,,,,,,,,,,,,,,,,,,,,,,,,,,140.9180390079855,140.9180390079855,140.9180390079855,140.9180390079855,140.9180390079855,140.9180390079855,140.9180390079855,140.9180390079855,140.9180390079855,140.9180390079855,a,0.2866649750212673,1,141,0,141.2351338279841,,142.7368327639997,,,,,,,,,,,,,,,,,,,,,,,,,,,,,,,,,,,,,,,,,,,,,,,,,,,,,,,,,,,,,,,,,,,,,,98110,2022-11-21_14h08.02.994,vts_reward_expectancy_bt_OFFLINE,2022.2.4,59.90733772441504,
0,1,0,0,0,0,0,1,circle,star,0,0,0,0,2,0,24,5,,,,,,,,,,,,,,,,,,,,,,,,,,,,,,,,,,,,,,,,143.23730847600382,143.23730847600382,143.23730847600382,143.23730847600382,143.23730847600382,143.23730847600382,143.23730847600382,143.23730847600382,143.23730847600382,143.23730847600382,a,0.6456490990240127,10,151,0,143.90470938399085,,145.4064640759898,,,,,,,,,,,,,,,,,,,,,,,,,,,,,,,,,,,,,,,,,,,,,,,,,,,,,,,,,,,,,,,,,,,,,,98110,2022-11-21_14h08.02.994,vts_reward_expectancy_bt_OFFLINE,2022.2.4,59.90733772441504,
0,1,0,0,1,0,0,0,circle,triangle,0,0,0,0,2,1,25,3,,,,,,,,,,,,,,,,,,,,,,,,,,,,,,,,,,,,,,,,145.90679484498105,145.90679484498105,145.90679484498105,145.90679484498105,145.90679484498105,145.90679484498105,145.90679484498105,145.90679484498105,145.90679484498105,145.90679484498105,l,0.6871859280217905,10,161,0,146.62448628997663,,148.125937609002,,,,,,,,,,,,,,,,,,,,,,,,,,,,,,,,,,,,,,,,,,,,,,,,,,,,,,,,,,,,,,,,,,,,,,98110,2022-11-21_14h08.02.994,vts_reward_expectancy_bt_OFFLINE,2022.2.4,59.90733772441504,
0,1,0,0,0,0,1,0,circle,hexagon,0,0,0,0,2,2,26,4,,,,,,,,,,,,,,,,,,,,,,,,,,,,,,,,,,,,,,,,148.626496708981,148.626496708981,148.626496708981,148.626496708981,148.626496708981,148.626496708981,148.626496708981,148.626496708981,148.626496708981,148.626496708981,a,0.4339364530169405,1,162,0,149.0770789559756,150.57867195899598,150.57867195899598,,,,,,,,,,,,,,,,,,,,,,,,,,,,,,,,,,,,,,,,,,,,,,,,,,,,,,,,,,,,,,,,,,,,,,98110,2022-11-21_14h08.02.994,vts_reward_expectancy_bt_OFFLINE,2022.2.4,59.90733772441504,
1,0,0,0,0,0,0,1,triangle,star,0,0,0,0,2,3,27,2,,,,,,,,,,,,,,,,,,,,,,,,,,,,,,,,,,,,,,,,151.0793973899854,151.0793973899854,151.0793973899854,151.0793973899854,151.0793973899854,151.0793973899854,151.0793973899854,151.0793973899854,151.0793973899854,151.0793973899854,l,0.8487438050215133,10,172,0,151.94696567498613,,153.44852648797678,,,,,,,,,,,,,,,,,,,,,,,,,,,,,,,,,,,,,,,,,,,,,,,,,,,,,,,,,,,,,,,,,,,,,,98110,2022-11-21_14h08.02.994,vts_reward_expectancy_bt_OFFLINE,2022.2.4,59.90733772441504,
0,0,1,0,1,0,0,0,hexagon,triangle,0,0,0,0,2,4,28,6,,,,,,,,,,,,,,,,,,,,,,,,,,,,,,,,,,,,,,,,153.94900259599672,153.94900259599672,153.94900259599672,153.94900259599672,153.94900259599672,153.94900259599672,153.94900259599672,153.94900259599672,153.94900259599672,153.94900259599672,l,0.8138553340104409,1,173,0,154.78324208298,,156.2850251189957,,,,,,,,,,,,,,,,,,,,,,,,,,,,,,,,,,,,,,,,,,,,,,,,,,,,,,,,,,,,,,,,,,,,,,98110,2022-11-21_14h08.02.994,vts_reward_expectancy_bt_OFFLINE,2022.2.4,59.90733772441504,
1,0,0,0,0,1,0,0,triangle,circle,0,0,0,0,2,5,29,0,,,,,,,,,,,,,,,,,,,,,,,,,,,,,,,,,,,,,,,,156.78546260797884,156.78546260797884,156.78546260797884,156.78546260797884,156.78546260797884,156.78546260797884,156.78546260797884,156.78546260797884,156.78546260797884,156.78546260797884,a,0.6431210080045275,10,183,0,157.45310909298132,,158.95469597098418,,,,,,,,,,,,,,,,,,,,,,,,,,,,,,,,,,,,,,,,,,,,,,,,,,,,,,,,,,,,,,,,,,,,,,98110,2022-11-21_14h08.02.994,vts_reward_expectancy_bt_OFFLINE,2022.2.4,59.90733772441504,
1,0,0,0,0,0,1,0,triangle,hexagon,0,0,0,0,2,6,30,1,,,,,,,,,,,,,,,,,,,,,,,,,,,,,,,,,,,,,,,,159.45513968900195,159.45513968900195,159.45513968900195,159.45513968900195,159.45513968900195,159.45513968900195,159.45513968900195,159.45513968900195,159.45513968900195,159.45513968900195,a,0.7083277460187674,10,193,0,160.1892461979878,,161.69093514798442,,,,,,,,,,,,,,,,,,,,,,,,,,,,,,,,,,,,,,,,,,,,,,,,,,,,,,,,,,,,,,,,,,,,,,98110,2022-11-21_14h08.02.994,vts_reward_expectancy_bt_OFFLINE,2022.2.4,59.90733772441504,
0,0,0,1,0,0,1,0,star,hexagon,0,0,0,0,2,7,31,11,,,,,,,,,,,,,,,,,,,,,,,,,,,,,,,,,,,,,,,,162.1914370979939,162.1914370979939,162.1914370979939,162.1914370979939,162.1914370979939,162.1914370979939,162.1914370979939,162.1914370979939,162.1914370979939,162.1914370979939,l,0.7740171590121463,10,203,0,162.9923916949774,,164.49413728597574,,,,,,,,,,,,,,,,,,,,,,,,,,,,,,,,,,,,,,,,,,,,,,,,,,,,,,,,,,,,,,,,,,,,,,98110,2022-11-21_14h08.02.994,vts_reward_expectancy_bt_OFFLINE,2022.2.4,59.90733772441504,
0,0,1,0,0,1,0,0,hexagon,circle,0,0,0,0,2,8,32,7,,,,,,,,,,,,,,,,,,,,,,,,,,,,,,,,,,,,,,,,164.99472569097998,164.99472569097998,164.99472569097998,164.99472569097998,164.99472569097998,164.99472569097998,164.99472569097998,164.99472569097998,164.99472569097998,164.99472569097998,a,0.6484795180149376,10,213,0,165.66211184498388,,167.16372851998312,,,,,,,,,,,,,,,,,,,,,,,,,,,,,,,,,,,,,,,,,,,,,,,,,,,,,,,,,,,,,,,,,,,,,,98110,2022-11-21_14h08.02.994,vts_reward_expectancy_bt_OFFLINE,2022.2.4,59.90733772441504,
0,0,1,0,0,0,0,1,hexagon,star,0,0,0,0,2,9,33,8,,,,,,,,,,,,,,,,,,,,,,,,,,,,,,,,,,,,,,,,167.6643555079936,167.6643555079936,167.6643555079936,167.6643555079936,167.6643555079936,167.6643555079936,167.6643555079936,167.6643555079936,167.6643555079936,167.6643555079936,a,0.779711306997342,1,214,0,168.4652762459882,,169.9668489159958,,,,,,,,,,,,,,,,,,,,,,,,,,,,,,,,,,,,,,,,,,,,,,,,,,,,,,,,,,,,,,,,,,,,,,98110,2022-11-21_14h08.02.994,vts_reward_expectancy_bt_OFFLINE,2022.2.4,59.90733772441504,
0,0,0,1,0,1,0,0,star ,circle,0,0,0,0,2,10,34,10,,,,,,,,,,,,,,,,,,,,,,,,,,,,,,,,,,,,,,,,170.46720076797646,170.46720076797646,170.46720076797646,170.46720076797646,170.46720076797646,170.46720076797646,170.46720076797646,170.46720076797646,170.46720076797646,170.46720076797646,l,1.4863457510073204,10,224,0,171.98551663398393,,173.48752377799246,,,,,,,,,,,,,,,,,,,,,,,,,,,,,,,,,,,,,,,,,,,,,,,,,,,,,,,,,,,,,,,,,,,,,,98110,2022-11-21_14h08.02.994,vts_reward_expectancy_bt_OFFLINE,2022.2.4,59.90733772441504,
0,0,0,1,1,0,0,0,star,triangle,0,0,0,0,2,11,35,9,,,,,,,,,,,,,,,,,,,,,,,,,,,,,,,,,,,,,,,,173.98779100898537,173.98779100898537,173.98779100898537,173.98779100898537,173.98779100898537,173.98779100898537,173.98779100898537,173.98779100898537,173.98779100898537,173.98779100898537,a,1.1271554160048254,10,234,0,175.13911303397617,,176.64076213000226,,,,,,,,,,,,,,,,,,,,,,,,,,,,,,,,,,,,,,,,,,,,,,,,,,,,,,,,,,,,,,,,,,,,,,98110,2022-11-21_14h08.02.994,vts_reward_expectancy_bt_OFFLINE,2022.2.4,59.90733772441504,
0,1,0,0,1,0,0,0,circle,triangle,0,0,0,0,3,0,36,3,,,,,,,,,,,,,,,,,,,,,,,,,,,,,,,,,,,,,,,,177.14130563399522,177.14130563399522,177.14130563399522,177.14130563399522,177.14130563399522,177.14130563399522,177.14130563399522,177.14130563399522,177.14130563399522,177.14130563399522,l,1.1023665110114962,10,244,0,178.27586306398734,,179.7775780200027,,,,,,,,,,,,,,,,,,,,,,,,,,,,,,,,,,,,,,,,,,,,,,,,,,,,,,,,,,,,,,,,,,,,,,98110,2022-11-21_14h08.02.994,vts_reward_expectancy_bt_OFFLINE,2022.2.4,59.90733772441504,
0,0,1,0,0,1,0,0,hexagon,circle,0,0,0,0,3,1,37,7,,,,,,,,,,,,,,,,,,,,,,,,,,,,,,,,,,,,,,,,180.27814722098992,180.27814722098992,180.27814722098992,180.27814722098992,180.27814722098992,180.27814722098992,180.27814722098992,180.27814722098992,180.27814722098992,180.27814722098992,l,1.409495511004934,1,245,0,181.71298897400266,,183.21484015797614,,,,,,,,,,,,,,,,,,,,,,,,,,,,,,,,,,,,,,,,,,,,,,,,,,,,,,,,,,,,,,,,,,,,,,98110,2022-11-21_14h08.02.994,vts_reward_expectancy_bt_OFFLINE,2022.2.4,59.90733772441504,
1,0,0,0,0,0,0,1,triangle,star,0,0,0,0,3,2,38,2,,,,,,,,,,,,,,,,,,,,,,,,,,,,,,,,,,,,,,,,183.71523281798,183.71523281798,183.71523281798,183.71523281798,183.71523281798,183.71523281798,183.71523281798,183.71523281798,183.71523281798,183.71523281798,l,1.4807031899981666,10,255,0,185.2168680439936,,186.71860049598035,,,,,,,,,,,,,,,,,,,,,,,,,,,,,,,,,,,,,,,,,,,,,,,,,,,,,,,,,,,,,,,,,,,,,,98110,2022-11-21_14h08.02.994,vts_reward_expectancy_bt_OFFLINE,2022.2.4,59.90733772441504,
0,1,0,0,0,0,1,0,circle,hexagon,0,0,0,0,3,3,39,4,,,,,,,,,,,,,,,,,,,,,,,,,,,,,,,,,,,,,,,,187.21915283598355,187.21915283598355,187.21915283598355,187.21915283598355,187.21915283598355,187.21915283598355,187.21915283598355,187.21915283598355,187.21915283598355,187.21915283598355,a,0.9924450190155767,1,256,0,188.2368371959892,,189.73872509397916,,,,,,,,,,,,,,,,,,,,,,,,,,,,,,,,,,,,,,,,,,,,,,,,,,,,,,,,,,,,,,,,,,,,,,98110,2022-11-21_14h08.02.994,vts_reward_expectancy_bt_OFFLINE,2022.2.4,59.90733772441504,
0,1,0,0,0,0,0,1,circle,star,0,0,0,0,3,4,40,5,,,,,,,,,,,,,,,,,,,,,,,,,,,,,,,,,,,,,,,,190.23930713397567,190.23930713397567,190.23930713397567,190.23930713397567,190.23930713397567,190.23930713397567,190.23930713397567,190.23930713397567,190.23930713397567,190.23930713397567,l,0.7289585410035215,1,257,0,190.99001698597567,,192.49156637498527,,,,,,,,,,,,,,,,,,,,,,,,,,,,,,,,,,,,,,,,,,,,,,,,,,,,,,,,,,,,,,,,,,,,,,98110,2022-11-21_14h08.02.994,vts_reward_expectancy_bt_OFFLINE,2022.2.4,59.90733772441504,
0,0,0,1,0,0,1,0,star,hexagon,0,0,0,0,3,5,41,11,,,,,,,,,,,,,,,,,,,,,,,,,,,,,,,,,,,,,,,,192.99216994998278,192.99216994998278,192.99216994998278,192.99216994998278,192.99216994998278,192.99216994998278,192.99216994998278,192.99216994998278,192.99216994998278,192.99216994998278,a,0.7201305630151182,1,258,0,193.74290350900264,,195.24447058999795,,,,,,,,,,,,,,,,,,,,,,,,,,,,,,,,,,,,,,,,,,,,,,,,,,,,,,,,,,,,,,,,,,,,,,98110,2022-11-21_14h08.02.994,vts_reward_expectancy_bt_OFFLINE,2022.2.4,59.90733772441504,
1,0,0,0,0,1,0,0,triangle,circle,0,0,0,0,3,6,42,0,,,,,,,,,,,,,,,,,,,,,,,,,,,,,,,,,,,,,,,,195.74535601498792,195.74535601498792,195.74535601498792,195.74535601498792,195.74535601498792,195.74535601498792,195.74535601498792,195.74535601498792,195.74535601498792,195.74535601498792,a,0.6242968180158641,1,259,0,196.39587464398937,,197.8976891739876,,,,,,,,,,,,,,,,,,,,,,,,,,,,,,,,,,,,,,,,,,,,,,,,,,,,,,,,,,,,,,,,,,,,,,98110,2022-11-21_14h08.02.994,vts_reward_expectancy_bt_OFFLINE,2022.2.4,59.90733772441504,
0,0,1,0,0,0,0,1,hexagon,star,0,0,0,0,3,7,43,8,,,,,,,,,,,,,,,,,,,,,,,,,,,,,,,,,,,,,,,,198.39824840298388,198.39824840298388,198.39824840298388,198.39824840298388,198.39824840298388,198.39824840298388,198.39824840298388,198.39824840298388,198.39824840298388,198.39824840298388,a,0.8512746840133332,10,269,0,199.26578750598128,200.7675406249764,200.7675406249764,201.26791211898671,,,,,,,,,,,,,,,,,,,,,,,,,,,,,,,,,,,,,,,,,,,,,,,,,,,,,,,,,,,,,,,,,,,,,98110,2022-11-21_14h08.02.994,vts_reward_expectancy_bt_OFFLINE,2022.2.4,59.90733772441504,
1,0,0,0,0,0,1,0,triangle,hexagon,0,0,0,0,3,8,44,1,,,,,,,,,,,,,,,,,,,,,,,,,,,,,,,,,,,,,,,,201.26791211898671,201.26791211898671,201.26791211898671,201.26791211898671,201.26791211898671,201.26791211898671,201.26791211898671,201.26791211898671,201.26791211898671,201.26791211898671,l,1.08560331503395,10,279,0,202.38571453100303,,203.88754582797992,,,,,,,,,,,,,,,,,,,,,,,,,,,,,,,,,,,,,,,,,,,,,,,,,,,,,,,,,,,,,,,,,,,,,,98110,2022-11-21_14h08.02.994,vts_reward_expectancy_bt_OFFLINE,2022.2.4,59.90733772441504,
0,0,1,0,1,0,0,0,hexagon,triangle,0,0,0,0,3,9,45,6,,,,,,,,,,,,,,,,,,,,,,,,,,,,,,,,,,,,,,,,204.38817616397864,204.38817616397864,204.38817616397864,204.38817616397864,204.38817616397864,204.38817616397864,204.38817616397864,204.38817616397864,204.38817616397864,204.38817616397864,a,2.105493157025194,10,289,0,206.5236982339993,,208.02532918998622,,,,,,,,,,,,,,,,,,,,,,,,,,,,,,,,,,,,,,,,,,,,,,,,,,,,,,,,,,,,,,,,,,,,,,98110,2022-11-21_14h08.02.994,vts_reward_expectancy_bt_OFFLINE,2022.2.4,59.90733772441504,
0,0,0,1,0,1,0,0,star ,circle,0,0,0,0,3,10,46,10,,,,,,,,,,,,,,,,,,,,,,,,,,,,,,,,,,,,,,,,208.5261461129994,208.5261461129994,208.5261461129994,208.5261461129994,208.5261461129994,208.5261461129994,208.5261461129994,208.5261461129994,208.5261461129994,208.5261461129994,a,2.109143959998619,10,299,0,210.6617062939913,,212.16342427997733,,,,,,,,,,,,,,,,,,,,,,,,,,,,,,,,,,,,,,,,,,,,,,,,,,,,,,,,,,,,,,,,,,,,,,98110,2022-11-21_14h08.02.994,vts_reward_expectancy_bt_OFFLINE,2022.2.4,59.90733772441504,
0,0,0,1,1,0,0,0,star,triangle,0,0,0,0,3,11,47,9,,,,,,,,,,,,,,,,,,,,,,,,,,,,,,,,,,,,,,,,212.66372397498344,212.66372397498344,212.66372397498344,212.66372397498344,212.66372397498344,212.66372397498344,212.66372397498344,212.66372397498344,212.66372397498344,212.66372397498344,l,1.2784851700125728,10,309,0,213.96509979097755,,215.46685088297818,,,,,,,,,,,,,,,,,,,,,,,,,,,,,,,,,,,,,,,,,,,,,,,,,,,,,,,,,,,,,,,,,,,,,,98110,2022-11-21_14h08.02.994,vts_reward_expectancy_bt_OFFLINE,2022.2.4,59.90733772441504,
0,0,0,1,0,1,0,0,star ,circle,1,0,1,0,0,0,0,10,,,,,,,,,,,,,,,,,,,,,,,,,,,,,,,,,,,,,,,,221.99083098999108,221.99083098999108,221.99083098999108,221.99083098999108,221.99083098999108,221.99083098999108,221.99083098999108,221.99083098999108,221.99083098999108,221.99083098999108,l,0.9183898610062897,1,310,1,222.9418733889761,,224.4436899049906,,,,,,,,,,,,,,,,,,,,,,,,,,,,,,,,,,,,,,,,,,,,,,,,,,,,,,,,,,,,,,,,,,,,,,98110,2022-11-21_14h08.02.994,vts_reward_expectancy_bt_OFFLINE,2022.2.4,59.90733772441504,
1,0,0,0,0,1,0,0,triangle,circle,1,0,1,0,0,1,1,0,,,,,,,,,,,,,,,,,,,,,,,,,,,,,,,,,,,,,,,,224.9441114149813,224.9441114149813,224.9441114149813,224.9441114149813,224.9441114149813,224.9441114149813,224.9441114149813,224.9441114149813,224.9441114149813,224.9441114149813,a,0.6997443640138954,1,311,1,225.6614493090019,,227.16309798098519,,,,,,,,,,,,,,,,,,,,,,,,,,,,,,,,,,,,,,,,,,,,,,,,,,,,,,,,,,,,,,,,,,,,,,98110,2022-11-21_14h08.02.994,vts_reward_expectancy_bt_OFFLINE,2022.2.4,59.90733772441504,
0,1,0,0,1,0,0,0,circle,triangle,1,0,1,0,0,2,2,3,,,,,,,,,,,,,,,,,,,,,,,,,,,,,,,,,,,,,,,,227.66375089797657,227.66375089797657,227.66375089797657,227.66375089797657,227.66375089797657,227.66375089797657,227.66375089797657,227.66375089797657,227.66375089797657,227.66375089797657,a,0.6461064229952171,10,321,1,228.3310805639776,,229.83300711298943,,,,,,,,,,,,,,,,,,,,,,,,,,,,,,,,,,,,,,,,,,,,,,,,,,,,,,,,,,,,,,,,,,,,,,98110,2022-11-21_14h08.02.994,vts_reward_expectancy_bt_OFFLINE,2022.2.4,59.90733772441504,
0,0,0,1,0,0,1,0,star,hexagon,1,0,1,0,0,3,3,11,,,,,,,,,,,,,,,,,,,,,,,,,,,,,,,,,,,,,,,,230.33355081800255,230.33355081800255,230.33355081800255,230.33355081800255,230.33355081800255,230.33355081800255,230.33355081800255,230.33355081800255,230.33355081800255,230.33355081800255,l,1.170427720004227,1,322,1,231.53477489299257,,233.03641174000222,,,,,,,,,,,,,,,,,,,,,,,,,,,,,,,,,,,,,,,,,,,,,,,,,,,,,,,,,,,,,,,,,,,,,,98110,2022-11-21_14h08.02.994,vts_reward_expectancy_bt_OFFLINE,2022.2.4,59.90733772441504,
1,0,0,0,0,0,0,1,triangle,star,1,0,1,0,0,4,4,2,,,,,,,,,,,,,,,,,,,,,,,,,,,,,,,,,,,,,,,,233.53674487999524,233.53674487999524,233.53674487999524,233.53674487999524,233.53674487999524,233.53674487999524,233.53674487999524,233.53674487999524,233.53674487999524,233.53674487999524,a,0.6578933320124634,1,323,1,234.22111789797782,,235.72292178097996,,,,,,,,,,,,,,,,,,,,,,,,,,,,,,,,,,,,,,,,,,,,,,,,,,,,,,,,,,,,,,,,,,,,,,98110,2022-11-21_14h08.02.994,vts_reward_expectancy_bt_OFFLINE,2022.2.4,59.90733772441504,
0,0,1,0,1,0,0,0,hexagon,triangle,1,0,1,0,0,5,5,6,,,,,,,,,,,,,,,,,,,,,,,,,,,,,,,,,,,,,,,,236.2233348459995,236.2233348459995,236.2233348459995,236.2233348459995,236.2233348459995,236.2233348459995,236.2233348459995,236.2233348459995,236.2233348459995,236.2233348459995,a,0.6253845460014418,10,333,1,236.87393586497637,,238.37558287399588,,,,,,,,,,,,,,,,,,,,,,,,,,,,,,,,,,,,,,,,,,,,,,,,,,,,,,,,,,,,,,,,,,,,,,98110,2022-11-21_14h08.02.994,vts_reward_expectancy_bt_OFFLINE,2022.2.4,59.90733772441504,
0,0,0,1,1,0,0,0,star,triangle,1,0,1,0,0,6,6,9,,,,,,,,,,,,,,,,,,,,,,,,,,,,,,,,,,,,,,,,238.87631485497695,238.87631485497695,238.87631485497695,238.87631485497695,238.87631485497695,238.87631485497695,238.87631485497695,238.87631485497695,238.87631485497695,238.87631485497695,l,0.5504650420043617,1,334,1,239.44348326598993,240.94522404798772,240.94522404798772,,,,,,,,,,,,,,,,,,,,,,,,,,,,,,,,,,,,,,,,,,,,,,,,,,,,,,,,,,,,,,,,,,,,,,98110,2022-11-21_14h08.02.994,vts_reward_expectancy_bt_OFFLINE,2022.2.4,59.90733772441504,
1,0,0,0,0,0,1,0,triangle,hexagon,1,0,1,0,0,7,7,1,,,,,,,,,,,,,,,,,,,,,,,,,,,,,,,,,,,,,,,,241.44555628899252,241.44555628899252,241.44555628899252,241.44555628899252,241.44555628899252,241.44555628899252,241.44555628899252,241.44555628899252,241.44555628899252,241.44555628899252,a,0.6348202970111743,1,335,1,242.11302664299728,,243.6147251589864,,,,,,,,,,,,,,,,,,,,,,,,,,,,,,,,,,,,,,,,,,,,,,,,,,,,,,,,,,,,,,,,,,,,,,98110,2022-11-21_14h08.02.994,vts_reward_expectancy_bt_OFFLINE,2022.2.4,59.90733772441504,
0,0,1,0,0,0,0,1,hexagon,star,1,0,1,0,0,8,8,8,,,,,,,,,,,,,,,,,,,,,,,,,,,,,,,,,,,,,,,,244.1151155589905,244.1151155589905,244.1151155589905,244.1151155589905,244.1151155589905,244.1151155589905,244.1151155589905,244.1151155589905,244.1151155589905,244.1151155589905,a,0.5414827610075008,1,336,1,244.68249398999615,,246.18437364397687,,,,,,,,,,,,,,,,,,,,,,,,,,,,,,,,,,,,,,,,,,,,,,,,,,,,,,,,,,,,,,,,,,,,,,98110,2022-11-21_14h08.02.994,vts_reward_expectancy_bt_OFFLINE,2022.2.4,59.90733772441504,
0,0,1,0,0,1,0,0,hexagon,circle,1,0,1,0,0,9,9,7,,,,,,,,,,,,,,,,,,,,,,,,,,,,,,,,,,,,,,,,246.6848798150022,246.6848798150022,246.6848798150022,246.6848798150022,246.6848798150022,246.6848798150022,246.6848798150022,246.6848798150022,246.6848798150022,246.6848798150022,a,0.7625954849936534,10,346,1,247.46887795298244,,248.97063367499504,,,,,,,,,,,,,,,,,,,,,,,,,,,,,,,,,,,,,,,,,,,,,,,,,,,,,,,,,,,,,,,,,,,,,,98110,2022-11-21_14h08.02.994,vts_reward_expectancy_bt_OFFLINE,2022.2.4,59.90733772441504,
0,1,0,0,0,0,1,0,circle,hexagon,1,0,1,0,0,10,10,4,,,,,,,,,,,,,,,,,,,,,,,,,,,,,,,,,,,,,,,,249.47117464599432,249.47117464599432,249.47117464599432,249.47117464599432,249.47117464599432,249.47117464599432,249.47117464599432,249.47117464599432,249.47117464599432,249.47117464599432,l,0.40680762502597645,10,356,1,249.90498956598458,,251.40668836398982,,,,,,,,,,,,,,,,,,,,,,,,,,,,,,,,,,,,,,,,,,,,,,,,,,,,,,,,,,,,,,,,,,,,,,98110,2022-11-21_14h08.02.994,vts_reward_expectancy_bt_OFFLINE,2022.2.4,59.90733772441504,
0,1,0,0,0,0,0,1,circle,star,1,0,1,0,0,11,11,5,,,,,,,,,,,,,,,,,,,,,,,,,,,,,,,,,,,,,,,,251.90707563399337,251.90707563399337,251.90707563399337,251.90707563399337,251.90707563399337,251.90707563399337,251.90707563399337,251.90707563399337,251.90707563399337,251.90707563399337,a,1.1757747550145723,10,366,1,253.10862143497798,,254.6100986439851,,,,,,,,,,,,,,,,,,,,,,,,,,,,,,,,,,,,,,,,,,,,,,,,,,,,,,,,,,,,,,,,,,,,,,98110,2022-11-21_14h08.02.994,vts_reward_expectancy_bt_OFFLINE,2022.2.4,59.90733772441504,
0,0,1,0,1,0,0,0,hexagon,triangle,1,0,1,0,1,0,12,6,,,,,,,,,,,,,,,,,,,,,,,,,,,,,,,,,,,,,,,,255.11069957798463,255.11069957798463,255.11069957798463,255.11069957798463,255.11069957798463,255.11069957798463,255.11069957798463,255.11069957798463,255.11069957798463,255.11069957798463,a,0.651485965034226,10,376,1,255.7948242329876,,257.2963619589864,,,,,,,,,,,,,,,,,,,,,,,,,,,,,,,,,,,,,,,,,,,,,,,,,,,,,,,,,,,,,,,,,,,,,,98110,2022-11-21_14h08.02.994,vts_reward_expectancy_bt_OFFLINE,2022.2.4,59.90733772441504,
0,1,0,0,0,0,0,1,circle,star,1,0,1,0,1,1,13,5,,,,,,,,,,,,,,,,,,,,,,,,,,,,,,,,,,,,,,,,257.79704418597976,257.79704418597976,257.79704418597976,257.79704418597976,257.79704418597976,257.79704418597976,257.79704418597976,257.79704418597976,257.79704418597976,257.79704418597976,l,0.5182465520338155,10,386,1,258.3474973809789,,259.8491881089867,,,,,,,,,,,,,,,,,,,,,,,,,,,,,,,,,,,,,,,,,,,,,,,,,,,,,,,,,,,,,,,,,,,,,,98110,2022-11-21_14h08.02.994,vts_reward_expectancy_bt_OFFLINE,2022.2.4,59.90733772441504,
1,0,0,0,0,1,0,0,triangle,circle,1,0,1,0,1,2,14,0,,,,,,,,,,,,,,,,,,,,,,,,,,,,,,,,,,,,,,,,260.34969653599546,260.34969653599546,260.34969653599546,260.34969653599546,260.34969653599546,260.34969653599546,260.34969653599546,260.34969653599546,260.34969653599546,260.34969653599546,a,0.6878620139905252,1,387,1,261.06748363398947,,262.5689468829951,,,,,,,,,,,,,,,,,,,,,,,,,,,,,,,,,,,,,,,,,,,,,,,,,,,,,,,,,,,,,,,,,,,,,,98110,2022-11-21_14h08.02.994,vts_reward_expectancy_bt_OFFLINE,2022.2.4,59.90733772441504,
0,0,1,0,0,1,0,0,hexagon,circle,1,0,1,0,1,3,15,7,,,,,,,,,,,,,,,,,,,,,,,,,,,,,,,,,,,,,,,,263.06947933798074,263.06947933798074,263.06947933798074,263.06947933798074,263.06947933798074,263.06947933798074,263.06947933798074,263.06947933798074,263.06947933798074,263.06947933798074,a,0.7137015399930533,10,397,1,263.80368556900066,,265.3051888530026,,,,,,,,,,,,,,,,,,,,,,,,,,,,,,,,,,,,,,,,,,,,,,,,,,,,,,,,,,,,,,,,,,,,,,98110,2022-11-21_14h08.02.994,vts_reward_expectancy_bt_OFFLINE,2022.2.4,59.90733772441504,
0,1,0,0,1,0,0,0,circle,triangle,1,0,1,0,1,4,16,3,,,,,,,,,,,,,,,,,,,,,,,,,,,,,,,,,,,,,,,,265.8057100790029,265.8057100790029,265.8057100790029,265.8057100790029,265.8057100790029,265.8057100790029,265.8057100790029,265.8057100790029,265.8057100790029,265.8057100790029,l,0.8249980880063958,1,398,1,266.65677219899953,,268.1583648310043,,,,,,,,,,,,,,,,,,,,,,,,,,,,,,,,,,,,,,,,,,,,,,,,,,,,,,,,,,,,,,,,,,,,,,98110,2022-11-21_14h08.02.994,vts_reward_expectancy_bt_OFFLINE,2022.2.4,59.90733772441504,
0,0,1,0,0,0,0,1,hexagon,star,1,0,1,0,1,5,17,8,,,,,,,,,,,,,,,,,,,,,,,,,,,,,,,,,,,,,,,,268.65894239998306,268.65894239998306,268.65894239998306,268.65894239998306,268.65894239998306,268.65894239998306,268.65894239998306,268.65894239998306,268.65894239998306,268.65894239998306,a,0.5464047430141363,10,408,1,269.2262269539933,,270.72797332998016,,,,,,,,,,,,,,,,,,,,,,,,,,,,,,,,,,,,,,,,,,,,,,,,,,,,,,,,,,,,,,,,,,,,,,98110,2022-11-21_14h08.02.994,vts_reward_expectancy_bt_OFFLINE,2022.2.4,59.90733772441504,
1,0,0,0,0,0,0,1,triangle,star,1,0,1,0,1,6,18,2,,,,,,,,,,,,,,,,,,,,,,,,,,,,,,,,,,,,,,,,271.2284512609767,271.2284512609767,271.2284512609767,271.2284512609767,271.2284512609767,271.2284512609767,271.2284512609767,271.2284512609767,271.2284512609767,271.2284512609767,a,0.5427419900079258,10,418,1,271.7956967939972,,273.29726063099224,,,,,,,,,,,,,,,,,,,,,,,,,,,,,,,,,,,,,,,,,,,,,,,,,,,,,,,,,,,,,,,,,,,,,,98110,2022-11-21_14h08.02.994,vts_reward_expectancy_bt_OFFLINE,2022.2.4,59.90733772441504,
0,0,0,1,0,1,0,0,star ,circle,1,0,1,0,1,7,19,10,,,,,,,,,,,,,,,,,,,,,,,,,,,,,,,,,,,,,,,,273.7981158210023,273.7981158210023,273.7981158210023,273.7981158210023,273.7981158210023,273.7981158210023,273.7981158210023,273.7981158210023,273.7981158210023,273.7981158210023,l,0.4705083940352779,1,419,1,274.2984899059811,,275.80011277098674,,,,,,,,,,,,,,,,,,,,,,,,,,,,,,,,,,,,,,,,,,,,,,,,,,,,,,,,,,,,,,,,,,,,,,98110,2022-11-21_14h08.02.994,vts_reward_expectancy_bt_OFFLINE,2022.2.4,59.90733772441504,
0,0,0,1,0,0,1,0,star,hexagon,1,0,1,0,1,8,20,11,,,,,,,,,,,,,,,,,,,,,,,,,,,,,,,,,,,,,,,,276.30061373498756,276.30061373498756,276.30061373498756,276.30061373498756,276.30061373498756,276.30061373498756,276.30061373498756,276.30061373498756,276.30061373498756,276.30061373498756,a,0.8601951430318877,10,429,1,277.185007373977,,278.686617312982,,,,,,,,,,,,,,,,,,,,,,,,,,,,,,,,,,,,,,,,,,,,,,,,,,,,,,,,,,,,,,,,,,,,,,98110,2022-11-21_14h08.02.994,vts_reward_expectancy_bt_OFFLINE,2022.2.4,59.90733772441504,
1,0,0,0,0,0,1,0,triangle,hexagon,1,0,1,0,1,9,21,1,,,,,,,,,,,,,,,,,,,,,,,,,,,,,,,,,,,,,,,,279.1870990280004,279.1870990280004,279.1870990280004,279.1870990280004,279.1870990280004,279.1870990280004,279.1870990280004,279.1870990280004,279.1870990280004,279.1870990280004,l,0.6965944950061385,10,439,1,279.90485916798934,,281.40649063998717,,,,,,,,,,,,,,,,,,,,,,,,,,,,,,,,,,,,,,,,,,,,,,,,,,,,,,,,,,,,,,,,,,,,,,98110,2022-11-21_14h08.02.994,vts_reward_expectancy_bt_OFFLINE,2022.2.4,59.90733772441504,
0,1,0,0,0,0,1,0,circle,hexagon,1,0,1,0,1,10,22,4,,,,,,,,,,,,,,,,,,,,,,,,,,,,,,,,,,,,,,,,281.9068452139909,281.9068452139909,281.9068452139909,281.9068452139909,281.9068452139909,281.9068452139909,281.9068452139909,281.9068452139909,281.9068452139909,281.9068452139909,a,0.6325104680145159,10,449,1,282.55783602799056,,284.0591936909768,,,,,,,,,,,,,,,,,,,,,,,,,,,,,,,,,,,,,,,,,,,,,,,,,,,,,,,,,,,,,,,,,,,,,,98110,2022-11-21_14h08.02.994,vts_reward_expectancy_bt_OFFLINE,2022.2.4,59.90733772441504,
0,0,0,1,1,0,0,0,star,triangle,1,0,1,0,1,11,23,9,,,,,,,,,,,,,,,,,,,,,,,,,,,,,,,,,,,,,,,,284.5598396389978,284.5598396389978,284.5598396389978,284.5598396389978,284.5598396389978,284.5598396389978,284.5598396389978,284.5598396389978,284.5598396389978,284.5598396389978,l,0.5337475170090329,10,459,1,285.1104597809899,286.6122908849793,286.6122908849793,,,,,,,,,,,,,,,,,,,,,,,,,,,,,,,,,,,,,,,,,,,,,,,,,,,,,,,,,,,,,,,,,,,,,,98110,2022-11-21_14h08.02.994,vts_reward_expectancy_bt_OFFLINE,2022.2.4,59.90733772441504,
0,0,1,0,1,0,0,0,hexagon,triangle,1,0,1,0,2,0,24,6,,,,,,,,,,,,,,,,,,,,,,,,,,,,,,,,,,,,,,,,287.1126874649781,287.1126874649781,287.1126874649781,287.1126874649781,287.1126874649781,287.1126874649781,287.1126874649781,287.1126874649781,287.1126874649781,287.1126874649781,l,0.44345200003590435,10,469,1,287.5797611849848,,289.08157248498173,,,,,,,,,,,,,,,,,,,,,,,,,,,,,,,,,,,,,,,,,,,,,,,,,,,,,,,,,,,,,,,,,,,,,,98110,2022-11-21_14h08.02.994,vts_reward_expectancy_bt_OFFLINE,2022.2.4,59.90733772441504,
0,0,0,1,0,0,1,0,star,hexagon,1,0,1,0,2,1,25,11,,,,,,,,,,,,,,,,,,,,,,,,,,,,,,,,,,,,,,,,289.5818369999761,289.5818369999761,289.5818369999761,289.5818369999761,289.5818369999761,289.5818369999761,289.5818369999761,289.5818369999761,289.5818369999761,289.5818369999761,a,0.3596814290212933,1,470,1,289.96599347598385,,291.4675580429903,,,,,,,,,,,,,,,,,,,,,,,,,,,,,,,,,,,,,,,,,,,,,,,,,,,,,,,,,,,,,,,,,,,,,,98110,2022-11-21_14h08.02.994,vts_reward_expectancy_bt_OFFLINE,2022.2.4,59.90733772441504,
0,0,1,0,0,0,0,1,hexagon,star,1,0,1,0,2,2,26,8,,,,,,,,,,,,,,,,,,,,,,,,,,,,,,,,,,,,,,,,291.9680225009797,291.9680225009797,291.9680225009797,291.9680225009797,291.9680225009797,291.9680225009797,291.9680225009797,291.9680225009797,291.9680225009797,291.9680225009797,a,0.5611990030156448,10,480,1,292.55189068298205,,294.0537190839823,,,,,,,,,,,,,,,,,,,,,,,,,,,,,,,,,,,,,,,,,,,,,,,,,,,,,,,,,,,,,,,,,,,,,,98110,2022-11-21_14h08.02.994,vts_reward_expectancy_bt_OFFLINE,2022.2.4,59.90733772441504,
0,1,0,0,1,0,0,0,circle,triangle,1,0,1,0,2,3,27,3,,,,,,,,,,,,,,,,,,,,,,,,,,,,,,,,,,,,,,,,294.55439763798495,294.55439763798495,294.55439763798495,294.55439763798495,294.55439763798495,294.55439763798495,294.55439763798495,294.55439763798495,294.55439763798495,294.55439763798495,a,0.32561087000067346,10,490,1,294.9046738399775,,296.4062507489871,,,,,,,,,,,,,,,,,,,,,,,,,,,,,,,,,,,,,,,,,,,,,,,,,,,,,,,,,,,,,,,,,,,,,,98110,2022-11-21_14h08.02.994,vts_reward_expectancy_bt_OFFLINE,2022.2.4,59.90733772441504,
1,0,0,0,0,0,0,1,triangle,star,1,0,1,0,2,4,28,2,,,,,,,,,,,,,,,,,,,,,,,,,,,,,,,,,,,,,,,,296.9069937529857,296.9069937529857,296.9069937529857,296.9069937529857,296.9069937529857,296.9069937529857,296.9069937529857,296.9069937529857,296.9069937529857,296.9069937529857,a,0.40287792700110003,1,491,1,297.34075854500406,,298.84242693398846,,,,,,,,,,,,,,,,,,,,,,,,,,,,,,,,,,,,,,,,,,,,,,,,,,,,,,,,,,,,,,,,,,,,,,98110,2022-11-21_14h08.02.994,vts_reward_expectancy_bt_OFFLINE,2022.2.4,59.90733772441504,
0,0,0,1,0,1,0,0,star ,circle,1,0,1,0,2,5,29,10,,,,,,,,,,,,,,,,,,,,,,,,,,,,,,,,,,,,,,,,299.34283677398344,299.34283677398344,299.34283677398344,299.34283677398344,299.34283677398344,299.34283677398344,299.34283677398344,299.34283677398344,299.34283677398344,299.34283677398344,a,0.6792071350209881,1,492,1,300.0435795779922,,301.5451221379917,,,,,,,,,,,,,,,,,,,,,,,,,,,,,,,,,,,,,,,,,,,,,,,,,,,,,,,,,,,,,,,,,,,,,,98110,2022-11-21_14h08.02.994,vts_reward_expectancy_bt_OFFLINE,2022.2.4,59.90733772441504,
0,1,0,0,0,0,1,0,circle,hexagon,1,0,1,0,2,6,30,4,,,,,,,,,,,,,,,,,,,,,,,,,,,,,,,,,,,,,,,,302.0457033229759,302.0457033229759,302.0457033229759,302.0457033229759,302.0457033229759,302.0457033229759,302.0457033229759,302.0457033229759,302.0457033229759,302.0457033229759,a,0.5859618190152105,1,493,1,302.6630905799975,,304.1646807609941,,,,,,,,,,,,,,,,,,,,,,,,,,,,,,,,,,,,,,,,,,,,,,,,,,,,,,,,,,,,,,,,,,,,,,98110,2022-11-21_14h08.02.994,vts_reward_expectancy_bt_OFFLINE,2022.2.4,59.90733772441504,
0,1,0,0,0,0,0,1,circle,star,1,0,1,0,2,7,31,5,,,,,,,,,,,,,,,,,,,,,,,,,,,,,,,,,,,,,,,,304.6652965800022,304.6652965800022,304.6652965800022,304.6652965800022,304.6652965800022,304.6652965800022,304.6652965800022,304.6652965800022,304.6652965800022,304.6652965800022,a,0.6009536190249491,10,503,1,305.2826685239852,306.7842767940019,306.7842767940019,,,,,,,,,,,,,,,,,,,,,,,,,,,,,,,,,,,,,,,,,,,,,,,,,,,,,,,,,,,,,,,,,,,,,,98110,2022-11-21_14h08.02.994,vts_reward_expectancy_bt_OFFLINE,2022.2.4,59.90733772441504,
1,0,0,0,0,1,0,0,triangle,circle,1,0,1,0,2,8,32,0,,,,,,,,,,,,,,,,,,,,,,,,,,,,,,,,,,,,,,,,307.2848193359969,307.2848193359969,307.2848193359969,307.2848193359969,307.2848193359969,307.2848193359969,307.2848193359969,307.2848193359969,307.2848193359969,307.2848193359969,l,0.3092669820180163,1,504,1,307.61869797098916,,309.12024023898994,,,,,,,,,,,,,,,,,,,,,,,,,,,,,,,,,,,,,,,,,,,,,,,,,,,,,,,,,,,,,,,,,,,,,,98110,2022-11-21_14h08.02.994,vts_reward_expectancy_bt_OFFLINE,2022.2.4,59.90733772441504,
0,0,0,1,1,0,0,0,star,triangle,1,0,1,0,2,9,33,9,,,,,,,,,,,,,,,,,,,,,,,,,,,,,,,,,,,,,,,,309.62095134999254,309.62095134999254,309.62095134999254,309.62095134999254,309.62095134999254,309.62095134999254,309.62095134999254,309.62095134999254,309.62095134999254,309.62095134999254,l,0.6513306139968336,10,514,1,310.30483375900076,311.80644227398443,311.80644227398443,,,,,,,,,,,,,,,,,,,,,,,,,,,,,,,,,,,,,,,,,,,,,,,,,,,,,,,,,,,,,,,,,,,,,,98110,2022-11-21_14h08.02.994,vts_reward_expectancy_bt_OFFLINE,2022.2.4,59.90733772441504,
0,0,1,0,0,1,0,0,hexagon,circle,1,0,1,0,2,10,34,7,,,,,,,,,,,,,,,,,,,,,,,,,,,,,,,,,,,,,,,,312.30715216498356,312.30715216498356,312.30715216498356,312.30715216498356,312.30715216498356,312.30715216498356,312.30715216498356,312.30715216498356,312.30715216498356,312.30715216498356,l,0.8105744270142168,10,524,1,313.14143350499216,314.642735025991,314.642735025991,,,,,,,,,,,,,,,,,,,,,,,,,,,,,,,,,,,,,,,,,,,,,,,,,,,,,,,,,,,,,,,,,,,,,,98110,2022-11-21_14h08.02.994,vts_reward_expectancy_bt_OFFLINE,2022.2.4,59.90733772441504,
1,0,0,0,0,0,1,0,triangle,hexagon,1,0,1,0,2,11,35,1,,,,,,,,,,,,,,,,,,,,,,,,,,,,,,,,,,,,,,,,315.14308529900154,315.14308529900154,315.14308529900154,315.14308529900154,315.14308529900154,315.14308529900154,315.14308529900154,315.14308529900154,315.14308529900154,315.14308529900154,l,0.9687334120098967,10,534,1,316.14481184098986,,317.6461885710014,,,,,,,,,,,,,,,,,,,,,,,,,,,,,,,,,,,,,,,,,,,,,,,,,,,,,,,,,,,,,,,,,,,,,,98110,2022-11-21_14h08.02.994,vts_reward_expectancy_bt_OFFLINE,2022.2.4,59.90733772441504,
1,0,0,0,0,1,0,0,triangle,circle,1,0,1,0,3,0,36,0,,,,,,,,,,,,,,,,,,,,,,,,,,,,,,,,,,,,,,,,318.14687423899886,318.14687423899886,318.14687423899886,318.14687423899886,318.14687423899886,318.14687423899886,318.14687423899886,318.14687423899886,318.14687423899886,318.14687423899886,a,1.5641547680133954,10,544,1,319.731968520995,,321.23375881498214,,,,,,,,,,,,,,,,,,,,,,,,,,,,,,,,,,,,,,,,,,,,,,,,,,,,,,,,,,,,,,,,,,,,,,98110,2022-11-21_14h08.02.994,vts_reward_expectancy_bt_OFFLINE,2022.2.4,59.90733772441504,
0,0,0,1,0,0,1,0,star,hexagon,1,0,1,0,3,1,37,11,,,,,,,,,,,,,,,,,,,,,,,,,,,,,,,,,,,,,,,,321.7343897539831,321.7343897539831,321.7343897539831,321.7343897539831,321.7343897539831,321.7343897539831,321.7343897539831,321.7343897539831,321.7343897539831,321.7343897539831,a,0.9252609250252135,1,545,1,322.68515114998445,,324.187048872991,,,,,,,,,,,,,,,,,,,,,,,,,,,,,,,,,,,,,,,,,,,,,,,,,,,,,,,,,,,,,,,,,,,,,,98110,2022-11-21_14h08.02.994,vts_reward_expectancy_bt_OFFLINE,2022.2.4,59.90733772441504,
0,1,0,0,0,0,1,0,circle,hexagon,1,0,1,0,3,2,38,4,,,,,,,,,,,,,,,,,,,,,,,,,,,,,,,,,,,,,,,,324.68745440099156,324.68745440099156,324.68745440099156,324.68745440099156,324.68745440099156,324.68745440099156,324.68745440099156,324.68745440099156,324.68745440099156,324.68745440099156,a,0.9187657950096764,10,555,1,325.63877133099595,,327.14010584997595,,,,,,,,,,,,,,,,,,,,,,,,,,,,,,,,,,,,,,,,,,,,,,,,,,,,,,,,,,,,,,,,,,,,,,98110,2022-11-21_14h08.02.994,vts_reward_expectancy_bt_OFFLINE,2022.2.4,59.90733772441504,
0,1,0,0,1,0,0,0,circle,triangle,1,0,1,0,3,3,39,3,,,,,,,,,,,,,,,,,,,,,,,,,,,,,,,,,,,,,,,,327.6408846989798,327.6408846989798,327.6408846989798,327.6408846989798,327.6408846989798,327.6408846989798,327.6408846989798,327.6408846989798,327.6408846989798,327.6408846989798,l,0.7348217490070965,10,565,1,328.4083844559791,,329.91000107099535,,,,,,,,,,,,,,,,,,,,,,,,,,,,,,,,,,,,,,,,,,,,,,,,,,,,,,,,,,,,,,,,,,,,,,98110,2022-11-21_14h08.02.994,vts_reward_expectancy_bt_OFFLINE,2022.2.4,59.90733772441504,
0,0,1,0,0,1,0,0,hexagon,circle,1,0,1,0,3,4,40,7,,,,,,,,,,,,,,,,,,,,,,,,,,,,,,,,,,,,,,,,330.4106661959959,330.4106661959959,330.4106661959959,330.4106661959959,330.4106661959959,330.4106661959959,330.4106661959959,330.4106661959959,330.4106661959959,330.4106661959959,l,0.8778789300122298,1,566,1,331.3115770150034,332.8131755979848,332.8131755979848,,,,,,,,,,,,,,,,,,,,,,,,,,,,,,,,,,,,,,,,,,,,,,,,,,,,,,,,,,,,,,,,,,,,,,98110,2022-11-21_14h08.02.994,vts_reward_expectancy_bt_OFFLINE,2022.2.4,59.90733772441504,
0,1,0,0,0,0,0,1,circle,star,1,0,1,0,3,5,41,5,,,,,,,,,,,,,,,,,,,,,,,,,,,,,,,,,,,,,,,,333.31378917899565,333.31378917899565,333.31378917899565,333.31378917899565,333.31378917899565,333.31378917899565,333.31378917899565,333.31378917899565,333.31378917899565,333.31378917899565,a,0.6411404730170034,10,576,1,333.9810627439874,,335.48267805899377,,,,,,,,,,,,,,,,,,,,,,,,,,,,,,,,,,,,,,,,,,,,,,,,,,,,,,,,,,,,,,,,,,,,,,98110,2022-11-21_14h08.02.994,vts_reward_expectancy_bt_OFFLINE,2022.2.4,59.90733772441504,
0,0,1,0,1,0,0,0,hexagon,triangle,1,0,1,0,3,6,42,6,,,,,,,,,,,,,,,,,,,,,,,,,,,,,,,,,,,,,,,,335.98318917598226,335.98318917598226,335.98318917598226,335.98318917598226,335.98318917598226,335.98318917598226,335.98318917598226,335.98318917598226,335.98318917598226,335.98318917598226,a,1.1781933270103764,10,586,1,337.184472605004,,338.6862018359825,,,,,,,,,,,,,,,,,,,,,,,,,,,,,,,,,,,,,,,,,,,,,,,,,,,,,,,,,,,,,,,,,,,,,,98110,2022-11-21_14h08.02.994,vts_reward_expectancy_bt_OFFLINE,2022.2.4,59.90733772441504,
1,0,0,0,0,0,0,1,triangle,star,1,0,1,0,3,7,43,2,,,,,,,,,,,,,,,,,,,,,,,,,,,,,,,,,,,,,,,,339.18688255499,339.18688255499,339.18688255499,339.18688255499,339.18688255499,339.18688255499,339.18688255499,339.18688255499,339.18688255499,339.18688255499,l,1.462362459016731,1,587,1,340.67163377598627,,342.1733094060037,,,,,,,,,,,,,,,,,,,,,,,,,,,,,,,,,,,,,,,,,,,,,,,,,,,,,,,,,,,,,,,,,,,,,,98110,2022-11-21_14h08.02.994,vts_reward_expectancy_bt_OFFLINE,2022.2.4,59.90733772441504,
1,0,0,0,0,0,1,0,triangle,hexagon,1,0,1,0,3,8,44,1,,,,,,,,,,,,,,,,,,,,,,,,,,,,,,,,,,,,,,,,342.6738563760009,342.6738563760009,342.6738563760009,342.6738563760009,342.6738563760009,342.6738563760009,342.6738563760009,342.6738563760009,342.6738563760009,342.6738563760009,l,1.0119900160061661,10,597,1,343.7084217009833,,345.2101939790009,,,,,,,,,,,,,,,,,,,,,,,,,,,,,,,,,,,,,,,,,,,,,,,,,,,,,,,,,,,,,,,,,,,,,,98110,2022-11-21_14h08.02.994,vts_reward_expectancy_bt_OFFLINE,2022.2.4,59.90733772441504,
0,0,0,1,1,0,0,0,star,triangle,1,0,1,0,3,9,45,9,,,,,,,,,,,,,,,,,,,,,,,,,,,,,,,,,,,,,,,,345.71061482900404,345.71061482900404,345.71061482900404,345.71061482900404,345.71061482900404,345.71061482900404,345.71061482900404,345.71061482900404,345.71061482900404,345.71061482900404,l,1.3054280480137095,10,607,1,347.04566304999753,,348.5471957709815,,,,,,,,,,,,,,,,,,,,,,,,,,,,,,,,,,,,,,,,,,,,,,,,,,,,,,,,,,,,,,,,,,,,,,98110,2022-11-21_14h08.02.994,vts_reward_expectancy_bt_OFFLINE,2022.2.4,59.90733772441504,
0,0,0,1,0,1,0,0,star ,circle,1,0,1,0,3,10,46,10,,,,,,,,,,,,,,,,,,,,,,,,,,,,,,,,,,,,,,,,349.0475195449835,349.0475195449835,349.0475195449835,349.0475195449835,349.0475195449835,349.0475195449835,349.0475195449835,349.0475195449835,349.0475195449835,349.0475195449835,l,0.6814959680195898,1,608,1,349.74844061298063,,351.2502239859896,,,,,,,,,,,,,,,,,,,,,,,,,,,,,,,,,,,,,,,,,,,,,,,,,,,,,,,,,,,,,,,,,,,,,,98110,2022-11-21_14h08.02.994,vts_reward_expectancy_bt_OFFLINE,2022.2.4,59.90733772441504,
0,0,1,0,0,0,0,1,hexagon,star,1,0,1,0,3,11,47,8,,,,,,,,,,,,,,,,,,,,,,,,,,,,,,,,,,,,,,,,351.75071598400245,351.75071598400245,351.75071598400245,351.75071598400245,351.75071598400245,351.75071598400245,351.75071598400245,351.75071598400245,351.75071598400245,351.75071598400245,a,1.352694914006861,1,609,1,353.1354038999998,,354.6370938530017,,,,,,,,,,,,,,,,,,,,,,,,,,,,,,,,,,,,,,,,,,,,,,,,,,,,,,,,,,,,,,,,,,,,,,98110,2022-11-21_14h08.02.994,vts_reward_expectancy_bt_OFFLINE,2022.2.4,59.90733772441504,
1,0,0,0,0,1,0,0,triangle,circle,2,0,2,0,0,0,0,0,,,,,,,,,,,,,,,,,,,,,,,,,,,,,,,,,,,,,,,,357.23990548797883,357.23990548797883,357.23990548797883,357.23990548797883,357.23990548797883,357.23990548797883,357.23990548797883,357.23990548797883,357.23990548797883,357.23990548797883,l,0.9160023720178287,10,619,2,358.17436950298725,,359.67588507497567,,,,,,,,,,,,,,,,,,,,,,,,,,,,,,,,,,,,,,,,,,,,,,,,,,,,,,,,,,,,,,,,,,,,,,98110,2022-11-21_14h08.02.994,vts_reward_expectancy_bt_OFFLINE,2022.2.4,59.90733772441504,
0,0,0,1,1,0,0,0,star,triangle,2,0,2,0,0,1,1,9,,,,,,,,,,,,,,,,,,,,,,,,,,,,,,,,,,,,,,,,360.17665248099365,360.17665248099365,360.17665248099365,360.17665248099365,360.17665248099365,360.17665248099365,360.17665248099365,360.17665248099365,360.17665248099365,360.17665248099365,l,1.4211064870178234,1,620,2,361.6282624939922,,363.12979130999884,,,,,,,,,,,,,,,,,,,,,,,,,,,,,,,,,,,,,,,,,,,,,,,,,,,,,,,,,,,,,,,,,,,,,,98110,2022-11-21_14h08.02.994,vts_reward_expectancy_bt_OFFLINE,2022.2.4,59.90733772441504,
0,0,1,0,0,1,0,0,hexagon,circle,2,0,2,0,0,2,2,7,,,,,,,,,,,,,,,,,,,,,,,,,,,,,,,,,,,,,,,,363.6303020079795,363.6303020079795,363.6303020079795,363.6303020079795,363.6303020079795,363.6303020079795,363.6303020079795,363.6303020079795,363.6303020079795,363.6303020079795,a,0.9158699770050589,1,621,2,364.5646343549888,,366.0664461659908,,,,,,,,,,,,,,,,,,,,,,,,,,,,,,,,,,,,,,,,,,,,,,,,,,,,,,,,,,,,,,,,,,,,,,98110,2022-11-21_14h08.02.994,vts_reward_expectancy_bt_OFFLINE,2022.2.4,59.90733772441504,
1,0,0,0,0,0,1,0,triangle,hexagon,2,0,2,0,0,3,3,1,,,,,,,,,,,,,,,,,,,,,,,,,,,,,,,,,,,,,,,,366.56703934798134,366.56703934798134,366.56703934798134,366.56703934798134,366.56703934798134,366.56703934798134,366.56703934798134,366.56703934798134,366.56703934798134,366.56703934798134,l,1.4005090529972222,1,622,2,367.98512146799476,,369.4867759689805,,,,,,,,,,,,,,,,,,,,,,,,,,,,,,,,,,,,,,,,,,,,,,,,,,,,,,,,,,,,,,,,,,,,,,98110,2022-11-21_14h08.02.994,vts_reward_expectancy_bt_OFFLINE,2022.2.4,59.90733772441504,
0,0,1,0,1,0,0,0,hexagon,triangle,2,0,2,0,0,4,4,6,,,,,,,,,,,,,,,,,,,,,,,,,,,,,,,,,,,,,,,,369.987386400986,369.987386400986,369.987386400986,369.987386400986,369.987386400986,369.987386400986,369.987386400986,369.987386400986,369.987386400986,369.987386400986,a,0.6677760370075703,1,623,2,370.6716011289973,372.1731110549881,372.1731110549881,372.6736841429956,,,,,,,,,,,,,,,,,,,,,,,,,,,,,,,,,,,,,,,,,,,,,,,,,,,,,,,,,,,,,,,,,,,,,98110,2022-11-21_14h08.02.994,vts_reward_expectancy_bt_OFFLINE,2022.2.4,59.90733772441504,
0,1,0,0,0,0,1,0,circle,hexagon,2,0,2,0,0,5,5,4,,,,,,,,,,,,,,,,,,,,,,,,,,,,,,,,,,,,,,,,372.6736841429956,372.6736841429956,372.6736841429956,372.6736841429956,372.6736841429956,372.6736841429956,372.6736841429956,372.6736841429956,372.6736841429956,372.6736841429956,a,0.5684314669924788,10,633,2,373.27445062599145,,374.7759349109838,,,,,,,,,,,,,,,,,,,,,,,,,,,,,,,,,,,,,,,,,,,,,,,,,,,,,,,,,,,,,,,,,,,,,,98110,2022-11-21_14h08.02.994,vts_reward_expectancy_bt_OFFLINE,2022.2.4,59.90733772441504,
0,0,0,1,0,1,0,0,star ,circle,2,0,2,0,0,6,6,10,,,,,,,,,,,,,,,,,,,,,,,,,,,,,,,,,,,,,,,,375.2764555600006,375.2764555600006,375.2764555600006,375.2764555600006,375.2764555600006,375.2764555600006,375.2764555600006,375.2764555600006,375.2764555600006,375.2764555600006,l,0.5529517650138587,1,634,2,375.8605247249943,,377.3621879699931,,,,,,,,,,,,,,,,,,,,,,,,,,,,,,,,,,,,,,,,,,,,,,,,,,,,,,,,,,,,,,,,,,,,,,98110,2022-11-21_14h08.02.994,vts_reward_expectancy_bt_OFFLINE,2022.2.4,59.90733772441504,
0,0,0,1,0,0,1,0,star,hexagon,2,0,2,0,0,7,7,11,,,,,,,,,,,,,,,,,,,,,,,,,,,,,,,,,,,,,,,,377.86265731599997,377.86265731599997,377.86265731599997,377.86265731599997,377.86265731599997,377.86265731599997,377.86265731599997,377.86265731599997,377.86265731599997,377.86265731599997,l,0.701673171017319,10,644,2,378.59708709298866,,380.0986262380029,,,,,,,,,,,,,,,,,,,,,,,,,,,,,,,,,,,,,,,,,,,,,,,,,,,,,,,,,,,,,,,,,,,,,,98110,2022-11-21_14h08.02.994,vts_reward_expectancy_bt_OFFLINE,2022.2.4,59.90733772441504,
0,0,1,0,0,0,0,1,hexagon,star,2,0,2,0,0,8,8,8,,,,,,,,,,,,,,,,,,,,,,,,,,,,,,,,,,,,,,,,380.5990507029928,380.5990507029928,380.5990507029928,380.5990507029928,380.5990507029928,380.5990507029928,380.5990507029928,380.5990507029928,380.5990507029928,380.5990507029928,l,0.7096849220106378,10,654,2,381.33318895997945,,382.8349554000015,,,,,,,,,,,,,,,,,,,,,,,,,,,,,,,,,,,,,,,,,,,,,,,,,,,,,,,,,,,,,,,,,,,,,,98110,2022-11-21_14h08.02.994,vts_reward_expectancy_bt_OFFLINE,2022.2.4,59.90733772441504,
1,0,0,0,0,0,0,1,triangle,star,2,0,2,0,0,9,9,2,,,,,,,,,,,,,,,,,,,,,,,,,,,,,,,,,,,,,,,,383.3354099429853,383.3354099429853,383.3354099429853,383.3354099429853,383.3354099429853,383.3354099429853,383.3354099429853,383.3354099429853,383.3354099429853,383.3354099429853,a,0.9781080190150533,10,664,2,384.3365274499811,,385.8383098799968,,,,,,,,,,,,,,,,,,,,,,,,,,,,,,,,,,,,,,,,,,,,,,,,,,,,,,,,,,,,,,,,,,,,,,98110,2022-11-21_14h08.02.994,vts_reward_expectancy_bt_OFFLINE,2022.2.4,59.90733772441504,
0,1,0,0,1,0,0,0,circle,triangle,2,0,2,0,0,10,10,3,,,,,,,,,,,,,,,,,,,,,,,,,,,,,,,,,,,,,,,,386.33869692398,386.33869692398,386.33869692398,386.33869692398,386.33869692398,386.33869692398,386.33869692398,386.33869692398,386.33869692398,386.33869692398,l,0.9778903549886309,10,674,2,387.3397761579836,388.84148416898097,388.84148416898097,,,,,,,,,,,,,,,,,,,,,,,,,,,,,,,,,,,,,,,,,,,,,,,,,,,,,,,,,,,,,,,,,,,,,,98110,2022-11-21_14h08.02.994,vts_reward_expectancy_bt_OFFLINE,2022.2.4,59.90733772441504,
0,1,0,0,0,0,0,1,circle,star,2,0,2,0,0,11,11,5,,,,,,,,,,,,,,,,,,,,,,,,,,,,,,,,,,,,,,,,389.34222545998637,389.34222545998637,389.34222545998637,389.34222545998637,389.34222545998637,389.34222545998637,389.34222545998637,389.34222545998637,389.34222545998637,389.34222545998637,a,1.4963667360134423,10,684,2,390.8606801889837,,392.362295783998,,,,,,,,,,,,,,,,,,,,,,,,,,,,,,,,,,,,,,,,,,,,,,,,,,,,,,,,,,,,,,,,,,,,,,98110,2022-11-21_14h08.02.994,vts_reward_expectancy_bt_OFFLINE,2022.2.4,59.90733772441504,
0,1,0,0,0,0,1,0,circle,hexagon,2,0,2,0,1,0,12,4,,,,,,,,,,,,,,,,,,,,,,,,,,,,,,,,,,,,,,,,392.86262739798985,392.86262739798985,392.86262739798985,392.86262739798985,392.86262739798985,392.86262739798985,392.86262739798985,392.86262739798985,392.86262739798985,392.86262739798985,l,1.4632435210223775,10,694,2,394.34772056899965,,395.8491405939858,,,,,,,,,,,,,,,,,,,,,,,,,,,,,,,,,,,,,,,,,,,,,,,,,,,,,,,,,,,,,,,,,,,,,,98110,2022-11-21_14h08.02.994,vts_reward_expectancy_bt_OFFLINE,2022.2.4,59.90733772441504,
1,0,0,0,0,0,1,0,triangle,hexagon,2,0,2,0,1,1,13,1,,,,,,,,,,,,,,,,,,,,,,,,,,,,,,,,,,,,,,,,396.34987353900215,396.34987353900215,396.34987353900215,396.34987353900215,396.34987353900215,396.34987353900215,396.34987353900215,396.34987353900215,396.34987353900215,396.34987353900215,l,0.7678956460149493,10,704,2,397.1339268339798,398.63579353599926,398.63579353599926,,,,,,,,,,,,,,,,,,,,,,,,,,,,,,,,,,,,,,,,,,,,,,,,,,,,,,,,,,,,,,,,,,,,,,98110,2022-11-21_14h08.02.994,vts_reward_expectancy_bt_OFFLINE,2022.2.4,59.90733772441504,
0,0,1,0,0,1,0,0,hexagon,circle,2,0,2,0,1,2,14,7,,,,,,,,,,,,,,,,,,,,,,,,,,,,,,,,,,,,,,,,399.13621191997663,399.13621191997663,399.13621191997663,399.13621191997663,399.13621191997663,399.13621191997663,399.13621191997663,399.13621191997663,399.13621191997663,399.13621191997663,l,0.952157857012935,1,705,2,400.1206577179837,,401.6222898050037,,,,,,,,,,,,,,,,,,,,,,,,,,,,,,,,,,,,,,,,,,,,,,,,,,,,,,,,,,,,,,,,,,,,,,98110,2022-11-21_14h08.02.994,vts_reward_expectancy_bt_OFFLINE,2022.2.4,59.90733772441504,
0,0,1,0,1,0,0,0,hexagon,triangle,2,0,2,0,1,3,15,6,,,,,,,,,,,,,,,,,,,,,,,,,,,,,,,,,,,,,,,,402.12287311800173,402.12287311800173,402.12287311800173,402.12287311800173,402.12287311800173,402.12287311800173,402.12287311800173,402.12287311800173,402.12287311800173,402.12287311800173,a,1.2034753579937387,10,715,2,403.3577521589759,,404.8592305560014,,,,,,,,,,,,,,,,,,,,,,,,,,,,,,,,,,,,,,,,,,,,,,,,,,,,,,,,,,,,,,,,,,,,,,98110,2022-11-21_14h08.02.994,vts_reward_expectancy_bt_OFFLINE,2022.2.4,59.90733772441504,
0,0,1,0,0,0,0,1,hexagon,star,2,0,2,0,1,4,16,8,,,,,,,,,,,,,,,,,,,,,,,,,,,,,,,,,,,,,,,,405.3598545229761,405.3598545229761,405.3598545229761,405.3598545229761,405.3598545229761,405.3598545229761,405.3598545229761,405.3598545229761,405.3598545229761,405.3598545229761,a,0.5207923100097105,10,725,2,405.9103263709985,,407.4120689559786,,,,,,,,,,,,,,,,,,,,,,,,,,,,,,,,,,,,,,,,,,,,,,,,,,,,,,,,,,,,,,,,,,,,,,98110,2022-11-21_14h08.02.994,vts_reward_expectancy_bt_OFFLINE,2022.2.4,59.90733772441504,
1,0,0,0,0,1,0,0,triangle,circle,2,0,2,0,1,5,17,0,,,,,,,,,,,,,,,,,,,,,,,,,,,,,,,,,,,,,,,,407.91259636500035,407.91259636500035,407.91259636500035,407.91259636500035,407.91259636500035,407.91259636500035,407.91259636500035,407.91259636500035,407.91259636500035,407.91259636500035,a,1.3098962660005782,10,735,2,409.2475217729807,,410.7490961589792,,,,,,,,,,,,,,,,,,,,,,,,,,,,,,,,,,,,,,,,,,,,,,,,,,,,,,,,,,,,,,,,,,,,,,98110,2022-11-21_14h08.02.994,vts_reward_expectancy_bt_OFFLINE,2022.2.4,59.90733772441504,
0,1,0,0,1,0,0,0,circle,triangle,2,0,2,0,1,6,18,3,,,,,,,,,,,,,,,,,,,,,,,,,,,,,,,,,,,,,,,,411.24968702098704,411.24968702098704,411.24968702098704,411.24968702098704,411.24968702098704,411.24968702098704,411.24968702098704,411.24968702098704,411.24968702098704,411.24968702098704,a,1.2128172190277837,1,736,2,412.4843767579878,,413.9859767239832,,,,,,,,,,,,,,,,,,,,,,,,,,,,,,,,,,,,,,,,,,,,,,,,,,,,,,,,,,,,,,,,,,,,,,98110,2022-11-21_14h08.02.994,vts_reward_expectancy_bt_OFFLINE,2022.2.4,59.90733772441504,
0,0,0,1,1,0,0,0,star,triangle,2,0,2,0,1,7,19,9,,,,,,,,,,,,,,,,,,,,,,,,,,,,,,,,,,,,,,,,414.4863446749805,414.4863446749805,414.4863446749805,414.4863446749805,414.4863446749805,414.4863446749805,414.4863446749805,414.4863446749805,414.4863446749805,414.4863446749805,a,1.0923432840208989,1,737,2,415.60420956800226,,417.10609092298546,,,,,,,,,,,,,,,,,,,,,,,,,,,,,,,,,,,,,,,,,,,,,,,,,,,,,,,,,,,,,,,,,,,,,,98110,2022-11-21_14h08.02.994,vts_reward_expectancy_bt_OFFLINE,2022.2.4,59.90733772441504,
0,0,0,1,0,1,0,0,star ,circle,2,0,2,0,1,8,20,10,,,,,,,,,,,,,,,,,,,,,,,,,,,,,,,,,,,,,,,,417.60644144998514,417.60644144998514,417.60644144998514,417.60644144998514,417.60644144998514,417.60644144998514,417.60644144998514,417.60644144998514,417.60644144998514,417.60644144998514,l,1.0353723390144296,10,747,2,418.67429105300107,,420.1760027339915,,,,,,,,,,,,,,,,,,,,,,,,,,,,,,,,,,,,,,,,,,,,,,,,,,,,,,,,,,,,,,,,,,,,,,98110,2022-11-21_14h08.02.994,vts_reward_expectancy_bt_OFFLINE,2022.2.4,59.90733772441504,
1,0,0,0,0,0,0,1,triangle,star,2,0,2,0,1,9,21,2,,,,,,,,,,,,,,,,,,,,,,,,,,,,,,,,,,,,,,,,420.676704700978,420.676704700978,420.676704700978,420.676704700978,420.676704700978,420.676704700978,420.676704700978,420.676704700978,420.676704700978,420.676704700978,l,1.2478076750121545,10,757,2,421.9448066210025,,423.4463036789966,,,,,,,,,,,,,,,,,,,,,,,,,,,,,,,,,,,,,,,,,,,,,,,,,,,,,,,,,,,,,,,,,,,,,,98110,2022-11-21_14h08.02.994,vts_reward_expectancy_bt_OFFLINE,2022.2.4,59.90733772441504,
0,1,0,0,0,0,0,1,circle,star,2,0,2,0,1,10,22,5,,,,,,,,,,,,,,,,,,,,,,,,,,,,,,,,,,,,,,,,423.94707566598663,423.94707566598663,423.94707566598663,423.94707566598663,423.94707566598663,423.94707566598663,423.94707566598663,423.94707566598663,423.94707566598663,423.94707566598663,l,1.0036555360129569,1,758,2,424.98146049299976,,426.4830795149901,,,,,,,,,,,,,,,,,,,,,,,,,,,,,,,,,,,,,,,,,,,,,,,,,,,,,,,,,,,,,,,,,,,,,,98110,2022-11-21_14h08.02.994,vts_reward_expectancy_bt_OFFLINE,2022.2.4,59.90733772441504,
0,0,0,1,0,0,1,0,star,hexagon,2,0,2,0,1,11,23,11,,,,,,,,,,,,,,,,,,,,,,,,,,,,,,,,,,,,,,,,426.98362357498263,426.98362357498263,426.98362357498263,426.98362357498263,426.98362357498263,426.98362357498263,426.98362357498263,426.98362357498263,426.98362357498263,426.98362357498263,l,0.9375827170151751,10,768,2,427.9514634049847,,429.4530318629986,,,,,,,,,,,,,,,,,,,,,,,,,,,,,,,,,,,,,,,,,,,,,,,,,,,,,,,,,,,,,,,,,,,,,,98110,2022-11-21_14h08.02.994,vts_reward_expectancy_bt_OFFLINE,2022.2.4,59.90733772441504,
1,0,0,0,0,0,1,0,triangle,hexagon,2,0,2,0,2,0,24,1,,,,,,,,,,,,,,,,,,,,,,,,,,,,,,,,,,,,,,,,429.9535837849835,429.9535837849835,429.9535837849835,429.9535837849835,429.9535837849835,429.9535837849835,429.9535837849835,429.9535837849835,429.9535837849835,429.9535837849835,l,0.9267731770232785,10,778,2,430.90457309398334,432.40624857798684,432.40624857798684,,,,,,,,,,,,,,,,,,,,,,,,,,,,,,,,,,,,,,,,,,,,,,,,,,,,,,,,,,,,,,,,,,,,,,98110,2022-11-21_14h08.02.994,vts_reward_expectancy_bt_OFFLINE,2022.2.4,59.90733772441504,
0,0,1,0,0,0,0,1,hexagon,star,2,0,2,0,2,1,25,8,,,,,,,,,,,,,,,,,,,,,,,,,,,,,,,,,,,,,,,,432.9070112409827,432.9070112409827,432.9070112409827,432.9070112409827,432.9070112409827,432.9070112409827,432.9070112409827,432.9070112409827,432.9070112409827,432.9070112409827,a,0.909108574007405,10,788,2,433.8412674299907,,435.3428618439939,,,,,,,,,,,,,,,,,,,,,,,,,,,,,,,,,,,,,,,,,,,,,,,,,,,,,,,,,,,,,,,,,,,,,,98110,2022-11-21_14h08.02.994,vts_reward_expectancy_bt_OFFLINE,2022.2.4,59.90733772441504,
1,0,0,0,0,1,0,0,triangle,circle,2,0,2,0,2,2,26,0,,,,,,,,,,,,,,,,,,,,,,,,,,,,,,,,,,,,,,,,435.8433700129972,435.8433700129972,435.8433700129972,435.8433700129972,435.8433700129972,435.8433700129972,435.8433700129972,435.8433700129972,435.8433700129972,435.8433700129972,a,0.8996772039972711,10,798,2,436.7611781009764,438.2625938129786,438.2625938129786,,,,,,,,,,,,,,,,,,,,,,,,,,,,,,,,,,,,,,,,,,,,,,,,,,,,,,,,,,,,,,,,,,,,,,98110,2022-11-21_14h08.02.994,vts_reward_expectancy_bt_OFFLINE,2022.2.4,59.90733772441504,
1,0,0,0,0,0,0,1,triangle,star,2,0,2,0,2,3,27,2,,,,,,,,,,,,,,,,,,,,,,,,,,,,,,,,,,,,,,,,438.7634565899789,438.7634565899789,438.7634565899789,438.7634565899789,438.7634565899789,438.7634565899789,438.7634565899789,438.7634565899789,438.7634565899789,438.7634565899789,l,1.152334750018781,1,799,2,439.9479705989943,,441.44966488998034,,,,,,,,,,,,,,,,,,,,,,,,,,,,,,,,,,,,,,,,,,,,,,,,,,,,,,,,,,,,,,,,,,,,,,98110,2022-11-21_14h08.02.994,vts_reward_expectancy_bt_OFFLINE,2022.2.4,59.90733772441504,
0,0,0,1,0,1,0,0,star ,circle,2,0,2,0,2,4,28,10,,,,,,,,,,,,,,,,,,,,,,,,,,,,,,,,,,,,,,,,441.95007143498515,441.95007143498515,441.95007143498515,441.95007143498515,441.95007143498515,441.95007143498515,441.95007143498515,441.95007143498515,441.95007143498515,441.95007143498515,l,1.1159168450103607,1,800,2,443.08487662798143,,444.5862938950013,,,,,,,,,,,,,,,,,,,,,,,,,,,,,,,,,,,,,,,,,,,,,,,,,,,,,,,,,,,,,,,,,,,,,,98110,2022-11-21_14h08.02.994,vts_reward_expectancy_bt_OFFLINE,2022.2.4,59.90733772441504,
0,0,1,0,1,0,0,0,hexagon,triangle,2,0,2,0,2,5,29,6,,,,,,,,,,,,,,,,,,,,,,,,,,,,,,,,,,,,,,,,445.08680586799164,445.08680586799164,445.08680586799164,445.08680586799164,445.08680586799164,445.08680586799164,445.08680586799164,445.08680586799164,445.08680586799164,445.08680586799164,a,1.2631314110185485,10,810,2,446.37161963098333,,447.8731709639833,,,,,,,,,,,,,,,,,,,,,,,,,,,,,,,,,,,,,,,,,,,,,,,,,,,,,,,,,,,,,,,,,,,,,,98110,2022-11-21_14h08.02.994,vts_reward_expectancy_bt_OFFLINE,2022.2.4,59.90733772441504,
0,1,0,0,1,0,0,0,circle,triangle,2,0,2,0,2,6,30,3,,,,,,,,,,,,,,,,,,,,,,,,,,,,,,,,,,,,,,,,448.3737652699929,448.3737652699929,448.3737652699929,448.3737652699929,448.3737652699929,448.3737652699929,448.3737652699929,448.3737652699929,448.3737652699929,448.3737652699929,l,1.554214824020164,1,811,2,449.9590325009776,,451.4605730159965,,,,,,,,,,,,,,,,,,,,,,,,,,,,,,,,,,,,,,,,,,,,,,,,,,,,,,,,,,,,,,,,,,,,,,98110,2022-11-21_14h08.02.994,vts_reward_expectancy_bt_OFFLINE,2022.2.4,59.90733772441504,
0,0,0,1,1,0,0,0,star,triangle,2,0,2,0,2,7,31,9,,,,,,,,,,,,,,,,,,,,,,,,,,,,,,,,,,,,,,,,451.96104582899716,451.96104582899716,451.96104582899716,451.96104582899716,451.96104582899716,451.96104582899716,451.96104582899716,451.96104582899716,451.96104582899716,451.96104582899716,a,0.7921841210045386,10,821,2,452.7788157989853,,454.28036258998327,,,,,,,,,,,,,,,,,,,,,,,,,,,,,,,,,,,,,,,,,,,,,,,,,,,,,,,,,,,,,,,,,,,,,,98110,2022-11-21_14h08.02.994,vts_reward_expectancy_bt_OFFLINE,2022.2.4,59.90733772441504,
0,0,0,1,0,0,1,0,star,hexagon,2,0,2,0,2,8,32,11,,,,,,,,,,,,,,,,,,,,,,,,,,,,,,,,,,,,,,,,454.7808962609852,454.7808962609852,454.7808962609852,454.7808962609852,454.7808962609852,454.7808962609852,454.7808962609852,454.7808962609852,454.7808962609852,454.7808962609852,l,0.5354985820013098,10,831,2,455.34842401900096,,456.85004609898897,,,,,,,,,,,,,,,,,,,,,,,,,,,,,,,,,,,,,,,,,,,,,,,,,,,,,,,,,,,,,,,,,,,,,,98110,2022-11-21_14h08.02.994,vts_reward_expectancy_bt_OFFLINE,2022.2.4,59.90733772441504,
0,0,1,0,0,1,0,0,hexagon,circle,2,0,2,0,2,9,33,7,,,,,,,,,,,,,,,,,,,,,,,,,,,,,,,,,,,,,,,,457.35044556399225,457.35044556399225,457.35044556399225,457.35044556399225,457.35044556399225,457.35044556399225,457.35044556399225,457.35044556399225,457.35044556399225,457.35044556399225,a,0.7243876050051767,10,841,2,458.10117739098496,,459.60306095299893,,,,,,,,,,,,,,,,,,,,,,,,,,,,,,,,,,,,,,,,,,,,,,,,,,,,,,,,,,,,,,,,,,,,,,98110,2022-11-21_14h08.02.994,vts_reward_expectancy_bt_OFFLINE,2022.2.4,59.90733772441504,
0,1,0,0,0,0,0,1,circle,star,2,0,2,0,2,10,34,5,,,,,,,,,,,,,,,,,,,,,,,,,,,,,,,,,,,,,,,,460.1034489989979,460.1034489989979,460.1034489989979,460.1034489989979,460.1034489989979,460.1034489989979,460.1034489989979,460.1034489989979,460.1034489989979,460.1034489989979,l,1.2002078460063785,10,851,2,461.32138256399776,,462.82313272097963,,,,,,,,,,,,,,,,,,,,,,,,,,,,,,,,,,,,,,,,,,,,,,,,,,,,,,,,,,,,,,,,,,,,,,98110,2022-11-21_14h08.02.994,vts_reward_expectancy_bt_OFFLINE,2022.2.4,59.90733772441504,
0,1,0,0,0,0,1,0,circle,hexagon,2,0,2,0,2,11,35,4,,,,,,,,,,,,,,,,,,,,,,,,,,,,,,,,,,,,,,,,463.3236341159791,463.3236341159791,463.3236341159791,463.3236341159791,463.3236341159791,463.3236341159791,463.3236341159791,463.3236341159791,463.3236341159791,463.3236341159791,a,1.4892350420122966,1,852,2,464.8423632789927,,466.343668468995,,,,,,,,,,,,,,,,,,,,,,,,,,,,,,,,,,,,,,,,,,,,,,,,,,,,,,,,,,,,,,,,,,,,,,98110,2022-11-21_14h08.02.994,vts_reward_expectancy_bt_OFFLINE,2022.2.4,59.90733772441504,
0,0,0,1,1,0,0,0,star,triangle,2,0,2,0,3,0,36,9,,,,,,,,,,,,,,,,,,,,,,,,,,,,,,,,,,,,,,,,466.8442584229924,466.8442584229924,466.8442584229924,466.8442584229924,466.8442584229924,466.8442584229924,466.8442584229924,466.8442584229924,466.8442584229924,466.8442584229924,l,0.9727254130120855,1,853,2,467.84528743999545,,469.34693023297586,,,,,,,,,,,,,,,,,,,,,,,,,,,,,,,,,,,,,,,,,,,,,,,,,,,,,,,,,,,,,,,,,,,,,,98110,2022-11-21_14h08.02.994,vts_reward_expectancy_bt_OFFLINE,2022.2.4,59.90733772441504,
0,1,0,0,0,0,0,1,circle,star,2,0,2,0,3,1,37,5,,,,,,,,,,,,,,,,,,,,,,,,,,,,,,,,,,,,,,,,469.84751383800176,469.84751383800176,469.84751383800176,469.84751383800176,469.84751383800176,469.84751383800176,469.84751383800176,469.84751383800176,469.84751383800176,469.84751383800176,a,1.17560279101599,10,863,2,471.0491153749754,,472.5504161279823,,,,,,,,,,,,,,,,,,,,,,,,,,,,,,,,,,,,,,,,,,,,,,,,,,,,,,,,,,,,,,,,,,,,,,98110,2022-11-21_14h08.02.994,vts_reward_expectancy_bt_OFFLINE,2022.2.4,59.90733772441504,
1,0,0,0,0,0,0,1,triangle,star,2,0,2,0,3,2,38,2,,,,,,,,,,,,,,,,,,,,,,,,,,,,,,,,,,,,,,,,473.051156934991,473.051156934991,473.051156934991,473.051156934991,473.051156934991,473.051156934991,473.051156934991,473.051156934991,473.051156934991,473.051156934991,a,1.1557257400127128,1,864,2,474.2361221879837,,475.73748680000426,,,,,,,,,,,,,,,,,,,,,,,,,,,,,,,,,,,,,,,,,,,,,,,,,,,,,,,,,,,,,,,,,,,,,,98110,2022-11-21_14h08.02.994,vts_reward_expectancy_bt_OFFLINE,2022.2.4,59.90733772441504,
0,0,0,1,0,1,0,0,star ,circle,2,0,2,0,3,3,39,10,,,,,,,,,,,,,,,,,,,,,,,,,,,,,,,,,,,,,,,,476.23794155498035,476.23794155498035,476.23794155498035,476.23794155498035,476.23794155498035,476.23794155498035,476.23794155498035,476.23794155498035,476.23794155498035,476.23794155498035,l,0.7250482740346342,10,874,2,476.989180760982,,478.49056587400264,,,,,,,,,,,,,,,,,,,,,,,,,,,,,,,,,,,,,,,,,,,,,,,,,,,,,,,,,,,,,,,,,,,,,,98110,2022-11-21_14h08.02.994,vts_reward_expectancy_bt_OFFLINE,2022.2.4,59.90733772441504,
0,0,1,0,0,1,0,0,hexagon,circle,2,0,2,0,3,4,40,7,,,,,,,,,,,,,,,,,,,,,,,,,,,,,,,,,,,,,,,,478.9910287379753,478.9910287379753,478.9910287379753,478.9910287379753,478.9910287379753,478.9910287379753,478.9910287379753,478.9910287379753,478.9910287379753,478.9910287379753,l,0.7853297649999149,1,875,2,479.8084863679833,,481.31016352400184,,,,,,,,,,,,,,,,,,,,,,,,,,,,,,,,,,,,,,,,,,,,,,,,,,,,,,,,,,,,,,,,,,,,,,98110,2022-11-21_14h08.02.994,vts_reward_expectancy_bt_OFFLINE,2022.2.4,59.90733772441504,
1,0,0,0,0,0,1,0,triangle,hexagon,2,0,2,0,3,5,41,1,,,,,,,,,,,,,,,,,,,,,,,,,,,,,,,,,,,,,,,,481.8107019359886,481.8107019359886,481.8107019359886,481.8107019359886,481.8107019359886,481.8107019359886,481.8107019359886,481.8107019359886,481.8107019359886,481.8107019359886,l,1.1040418260090519,1,876,2,482.94529962798697,,484.44687342399266,,,,,,,,,,,,,,,,,,,,,,,,,,,,,,,,,,,,,,,,,,,,,,,,,,,,,,,,,,,,,,,,,,,,,,98110,2022-11-21_14h08.02.994,vts_reward_expectancy_bt_OFFLINE,2022.2.4,59.90733772441504,
0,0,0,1,0,0,1,0,star,hexagon,2,0,2,0,3,6,42,11,,,,,,,,,,,,,,,,,,,,,,,,,,,,,,,,,,,,,,,,484.9477263459994,484.9477263459994,484.9477263459994,484.9477263459994,484.9477263459994,484.9477263459994,484.9477263459994,484.9477263459994,484.9477263459994,484.9477263459994,a,0.791559571021935,1,877,2,485.765261499997,,487.26686755000264,,,,,,,,,,,,,,,,,,,,,,,,,,,,,,,,,,,,,,,,,,,,,,,,,,,,,,,,,,,,,,,,,,,,,,98110,2022-11-21_14h08.02.994,vts_reward_expectancy_bt_OFFLINE,2022.2.4,59.90733772441504,
0,0,1,0,1,0,0,0,hexagon,triangle,2,0,2,0,3,7,43,6,,,,,,,,,,,,,,,,,,,,,,,,,,,,,,,,,,,,,,,,487.76725105399964,487.76725105399964,487.76725105399964,487.76725105399964,487.76725105399964,487.76725105399964,487.76725105399964,487.76725105399964,487.76725105399964,487.76725105399964,a,0.6044280470232479,10,887,2,488.4015203710005,,489.90323850399,,,,,,,,,,,,,,,,,,,,,,,,,,,,,,,,,,,,,,,,,,,,,,,,,,,,,,,,,,,,,,,,,,,,,,98110,2022-11-21_14h08.02.994,vts_reward_expectancy_bt_OFFLINE,2022.2.4,59.90733772441504,
0,1,0,0,1,0,0,0,circle,triangle,2,0,2,0,3,8,44,3,,,,,,,,,,,,,,,,,,,,,,,,,,,,,,,,,,,,,,,,490.4035890609957,490.4035890609957,490.4035890609957,490.4035890609957,490.4035890609957,490.4035890609957,490.4035890609957,490.4035890609957,490.4035890609957,490.4035890609957,l,0.8598552630282938,10,897,2,491.2879855099891,,492.7895662599767,,,,,,,,,,,,,,,,,,,,,,,,,,,,,,,,,,,,,,,,,,,,,,,,,,,,,,,,,,,,,,,,,,,,,,98110,2022-11-21_14h08.02.994,vts_reward_expectancy_bt_OFFLINE,2022.2.4,59.90733772441504,
0,0,1,0,0,0,0,1,hexagon,star,2,0,2,0,3,9,45,8,,,,,,,,,,,,,,,,,,,,,,,,,,,,,,,,,,,,,,,,493.28996944997925,493.28996944997925,493.28996944997925,493.28996944997925,493.28996944997925,493.28996944997925,493.28996944997925,493.28996944997925,493.28996944997925,493.28996944997925,a,0.6852889379952103,1,898,2,494.00761455099564,,495.5091333879973,,,,,,,,,,,,,,,,,,,,,,,,,,,,,,,,,,,,,,,,,,,,,,,,,,,,,,,,,,,,,,,,,,,,,,98110,2022-11-21_14h08.02.994,vts_reward_expectancy_bt_OFFLINE,2022.2.4,59.90733772441504,
0,1,0,0,0,0,1,0,circle,hexagon,2,0,2,0,3,10,46,4,,,,,,,,,,,,,,,,,,,,,,,,,,,,,,,,,,,,,,,,496.00982138799736,496.00982138799736,496.00982138799736,496.00982138799736,496.00982138799736,496.00982138799736,496.00982138799736,496.00982138799736,496.00982138799736,496.00982138799736,a,0.6533819950127508,1,899,2,496.6938944599824,,498.1955357529805,,,,,,,,,,,,,,,,,,,,,,,,,,,,,,,,,,,,,,,,,,,,,,,,,,,,,,,,,,,,,,,,,,,,,,98110,2022-11-21_14h08.02.994,vts_reward_expectancy_bt_OFFLINE,2022.2.4,59.90733772441504,
1,0,0,0,0,1,0,0,triangle,circle,2,0,2,0,3,11,47,0,,,,,,,,,,,,,,,,,,,,,,,,,,,,,,,,,,,,,,,,498.6960281159845,498.6960281159845,498.6960281159845,498.6960281159845,498.6960281159845,498.6960281159845,498.6960281159845,498.6960281159845,498.6960281159845,498.6960281159845,l,0.836512476002099,1,900,2,499.5635980379884,,501.06528713498847,,,,,,,,,,,,,,,,,,,,,,,,,,,,,,,,,,,,,,,,,,,,,,,,,,,,,,,,,,,,,,,,,,,,,,98110,2022-11-21_14h08.02.994,vts_reward_expectancy_bt_OFFLINE,2022.2.4,59.90733772441504,
,,,,,,,,,,,,,,,,,,0,0,0,0,0,0,0,0,,,,,,,,,,,,,,,,,,,,,,,,,,,,,,,,,,,,,,,,,,,,,,,,,545.9481144209858,,B,132,circle,0.0021591520053334534,540.5756985259941,542.0605559279793,542.0605559279793,542.0605559279793,1,0,d,2.352920044999337,0,544.4466447839804,,,,,,,,,,,,,,,,,,,,,,,,,,,,,,,,,,,,,,,,,,,,,,,,,,,,,,,98110,2022-11-21_14h08.02.994,vts_reward_expectancy_bt_OFFLINE,2022.2.4,59.90733772441504,
,,,,,,,,,,,,,,,,,,0,0,0,0,1,0,1,0,,,,,,,,,,,,,,,,,,,,,,,,,,,,,,,,,,,,,,,,,,,,,,,,,551.0873206910037,,H,167,triangle,0.017184788011945784,546.9330513339955,548.4175349059806,548.4175349059806,548.4175349059806,1,0,d,1.1485755990142934,0,549.5855087439995,,,,,,,,,,,,,,,,,,,,,,,,,,,,,,,,,,,,,,,,,,,,,,,,,,,,,,,98110,2022-11-21_14h08.02.994,vts_reward_expectancy_bt_OFFLINE,2022.2.4,59.90733772441504,
,,,,,,,,,,,,,,,,,,0,0,0,0,2,0,2,0,,,,,,,,,,,,,,,,,,,,,,,,,,,,,,,,,,,,,,,,,,,,,,,,,555.7423955739941,,W,139,hexagon,0.0014122999855317175,552.0718241839786,553.5733865529764,553.5733865529764,553.5733865529764,1,0,f,0.6508194310299587,0,554.2406563289987,555.7423955739941,,,,,,,,,,,,,,,,,,,,,,,,,,,,,,,,,,,,,,,,,,,,,,,,,,,,,,98110,2022-11-21_14h08.02.994,vts_reward_expectancy_bt_OFFLINE,2022.2.4,59.90733772441504,
,,,,,,,,,,,,,,,,,,0,0,0,0,3,0,3,0,,,,,,,,,,,,,,,,,,,,,,,,,,,,,,,,,,,,,,,,,,,,,,,,,560.4307657759928,,Y,174,star,0.0006956389988772571,556.7267194759916,558.2282899749989,558.2282899749989,558.2282899749989,1,0,f,0.6744563550164457,0,558.9290958239872,,,,,,,,,,,,,,,,,,,,,,,,,,,,,,,,,,,,,,,,,,,,,,,,,,,,,,,98110,2022-11-21_14h08.02.994,vts_reward_expectancy_bt_OFFLINE,2022.2.4,59.90733772441504,
,,,,,,,,,,,,,,,,,,0,0,0,0,4,0,4,0,,,,,,,,,,,,,,,,,,,,,,,,,,,,,,,,,,,,,,,,,,,,,,,,,565.0360835639876,,D,160,star,0.0011730080004781485,561.4152288399928,562.9170176439802,562.9170176439802,562.9170176439802,1,0,d,0.6002018910076004,0,563.5341987029824,,,,,,,,,,,,,,,,,,,,,,,,,,,,,,,,,,,,,,,,,,,,,,,,,,,,,,,98110,2022-11-21_14h08.02.994,vts_reward_expectancy_bt_OFFLINE,2022.2.4,59.90733772441504,
,,,,,,,,,,,,,,,,,,0,0,0,0,5,0,5,0,,,,,,,,,,,,,,,,,,,,,,,,,,,,,,,,,,,,,,,,,,,,,,,,,569.640973378002,,U,146,circle,0.001006441016215831,566.0203120459919,567.5222263189789,567.5222263189789,567.5222263189789,1,0,f,0.5849247140286025,0,568.1392923480016,,,,,,,,,,,,,,,,,,,,,,,,,,,,,,,,,,,,,,,,,,,,,,,,,,,,,,,98110,2022-11-21_14h08.02.994,vts_reward_expectancy_bt_OFFLINE,2022.2.4,59.90733772441504,
,,,,,,,,,,,,,,,,,,0,0,0,0,6,0,6,0,,,,,,,,,,,,,,,,,,,,,,,,,,,,,,,,,,,,,,,,,,,,,,,,,574.2293702129973,,S,181,hexagon,0.0014311989943962544,570.6255851049791,572.1272682239942,572.1272682239942,572.1272682239942,1,0,f,0.569494104012847,0,572.7276904140017,,,,,,,,,,,,,,,,,,,,,,,,,,,,,,,,,,,,,,,,,,,,,,,,,,,,,,,98110,2022-11-21_14h08.02.994,vts_reward_expectancy_bt_OFFLINE,2022.2.4,59.90733772441504,
,,,,,,,,,,,,,,,,,,0,0,0,0,7,0,7,0,,,,,,,,,,,,,,,,,,,,,,,,,,,,,,,,,,,,,,,,,,,,,,,,,578.8678375890013,,F,125,triangle,0.001381432026391849,575.2141737649799,576.71549679499,576.71549679499,576.71549679499,1,0,d,0.6277745660045184,0,577.3663146189938,,,,,,,,,,,,,,,,,,,,,,,,,,,,,,,,,,,,,,,,,,,,,,,,,,,,,,,98110,2022-11-21_14h08.02.994,vts_reward_expectancy_bt_OFFLINE,2022.2.4,59.90733772441504,
,,,,,,,,,,,,,,,,,,0,0,0,0,8,0,8,0,,,,,,,,,,,,,,,,,,,,,,,,,,,,,,,,,,,,,,,,,,,,,,,,,583.7397746539791,,B,132,circle,0.0014262449985835701,579.8523744760023,581.3538510579965,581.3538510579965,581.3538510579965,1,0,d,0.8615202050132211,0,582.2381121699873,,,,,,,,,,,,,,,,,,,,,,,,,,,,,,,,,,,,,,,,,,,,,,,,,,,,,,,98110,2022-11-21_14h08.02.994,vts_reward_expectancy_bt_OFFLINE,2022.2.4,59.90733772441504,
,,,,,,,,,,,,,,,,,,0,0,0,0,9,0,9,0,,,,,,,,,,,,,,,,,,,,,,,,,,,,,,,,,,,,,,,,,,,,,,,,,588.4784718259762,,H,167,star,0.0014154359814710915,584.724443440995,586.2260769879795,586.2260769879795,586.2260769879795,1,0,d,0.7257379490183666,0,586.9768450029951,,,,,,,,,,,,,,,,,,,,,,,,,,,,,,,,,,,,,,,,,,,,,,,,,,,,,,,98110,2022-11-21_14h08.02.994,vts_reward_expectancy_bt_OFFLINE,2022.2.4,59.90733772441504,
,,,,,,,,,,,,,,,,,,,,,,,,,,0,0,0,0,0,0,0,0,,,,,,,,,,,,,,,,,,,,,,,,,,,,,,,,,,,,,,,,,614.774059155985,,S,132,star,0.0019011549884453416,,,,,1,0,,,1,613.2725638329866,,611.0033750279981,612.5050241900026,612.5050241900026,612.5050241900026,j,0.7406174940115307,,,,,,,,,,,,,,,,,,,,,,,,,,,,,,,,,,,,,,,,,,,,,,,,98110,2022-11-21_14h08.02.994,vts_reward_expectancy_bt_OFFLINE,2022.2.4,59.90733772441504,
,,,,,,,,,,,,,,,,,,,,,,,,,,0,0,0,0,1,0,1,0,,,,,,,,,,,,,,,,,,,,,,,,,,,,,,,,,,,,,,,,,619.395908343984,,F,174,hexagon,0.0014380200009327382,,,,,1,0,,,1,617.8943599509948,,615.7585963729944,617.2604008199996,617.2604008199996,617.2604008199996,k,0.608110896020662,,,,,,,,,,,,,,,,,,,,,,,,,,,,,,,,,,,,,,,,,,,,,,,,98110,2022-11-21_14h08.02.994,vts_reward_expectancy_bt_OFFLINE,2022.2.4,59.90733772441504,
,,,,,,,,,,,,,,,,,,,,,,,,,,0,0,0,0,2,0,2,0,,,,,,,,,,,,,,,,,,,,,,,,,,,,,,,,,,,,,,,,,624.184564575,,D,160,triangle,0.0013718169939238578,,,,,1,0,,,1,622.6828739689954,,620.3803430989792,621.8819518979872,621.8819518979872,621.8819518979872,k,0.7686196590075269,,,,,,,,,,,,,,,,,,,,,,,,,,,,,,,,,,,,,,,,,,,,,,,,98110,2022-11-21_14h08.02.994,vts_reward_expectancy_bt_OFFLINE,2022.2.4,59.90733772441504,
,,,,,,,,,,,,,,,,,,,,,,,,,,0,0,0,0,3,0,3,0,,,,,,,,,,,,,,,,,,,,,,,,,,,,,,,,,,,,,,,,,628.9396950329829,,H,139,circle,0.0012819569965358824,,,,,1,0,,,1,627.4388313849922,628.9396950329829,625.1704348299827,626.6705428150017,626.6705428150017,626.6705428150017,j,0.7404130540089682,,,,,,,,,,,,,,,,,,,,,,,,,,,,,,,,,,,,,,,,,,,,,,,,98110,2022-11-21_14h08.02.994,vts_reward_expectancy_bt_OFFLINE,2022.2.4,59.90733772441504,
,,,,,,,,,,,,,,,,,,,,,,,,,,0,0,0,0,4,0,4,0,,,,,,,,,,,,,,,,,,,,,,,,,,,,,,,,,,,,,,,,,633.6281276399968,,B,146,circle,0.0006310550088528544,,,,,1,0,,,1,632.1265205309901,,629.9241745329928,631.4258804289857,631.4258804289857,631.4258804289857,j,0.6755912390071899,,,,,,,,,,,,,,,,,,,,,,,,,,,,,,,,,,,,,,,,,,,,,,,,98110,2022-11-21_14h08.02.994,vts_reward_expectancy_bt_OFFLINE,2022.2.4,59.90733772441504,
,,,,,,,,,,,,,,,,,,,,,,,,,,0,0,0,0,5,0,5,0,,,,,,,,,,,,,,,,,,,,,,,,,,,,,,,,,,,,,,,,,638.316686960985,,Y,167,hexagon,0.001423535984940827,,,,,1,0,,,1,636.8152841049887,,634.6126552479982,636.114221189986,636.114221189986,636.114221189986,k,0.6779350440192502,,,,,,,,,,,,,,,,,,,,,,,,,,,,,,,,,,,,,,,,,,,,,,,,98110,2022-11-21_14h08.02.994,vts_reward_expectancy_bt_OFFLINE,2022.2.4,59.90733772441504,
,,,,,,,,,,,,,,,,,,,,,,,,,,0,0,0,0,6,0,6,0,,,,,,,,,,,,,,,,,,,,,,,,,,,,,,,,,,,,,,,,,642.9386418399808,,U,181,star,0.0009163920185528696,,,,,1,0,,,1,641.4370000679919,,639.3013716689893,640.8029307809775,640.8029307809775,640.8029307809775,k,0.6030506000097375,,,,,,,,,,,,,,,,,,,,,,,,,,,,,,,,,,,,,,,,,,,,,,,,98110,2022-11-21_14h08.02.994,vts_reward_expectancy_bt_OFFLINE,2022.2.4,59.90733772441504,
,,,,,,,,,,,,,,,,,,,,,,,,,,0,0,0,0,7,0,7,0,,,,,,,,,,,,,,,,,,,,,,,,,,,,,,,,,,,,,,,,,647.526834742981,,W,125,triangle,0.0012826909951400012,,,,,1,0,,,1,646.025209554995,,643.9231945359788,645.4246376989759,645.4246376989759,645.4246376989759,j,0.5713728660193738,,,,,,,,,,,,,,,,,,,,,,,,,,,,,,,,,,,,,,,,,,,,,,,,98110,2022-11-21_14h08.02.994,vts_reward_expectancy_bt_OFFLINE,2022.2.4,59.90733772441504,
,,,,,,,,,,,,,,,,,,,,,,,,,,0,0,0,0,8,0,8,0,,,,,,,,,,,,,,,,,,,,,,,,,,,,,,,,,,,,,,,,,651.9985714689828,,S,132,triangle,0.0012153070128988475,,,,,1,0,,,1,650.4967478390026,,648.5114404699998,650.0131621679757,650.0131621679757,650.0131621679757,j,0.46115324302809313,,,,,,,,,,,,,,,,,,,,,,,,,,,,,,,,,,,,,,,,,,,,,,,,98110,2022-11-21_14h08.02.994,vts_reward_expectancy_bt_OFFLINE,2022.2.4,59.90733772441504,
,,,,,,,,,,,,,,,,,,,,,,,,,,0,0,0,0,9,0,9,0,,,,,,,,,,,,,,,,,,,,,,,,,,,,,,,,,,,,,,,,,656.72042697898,,F,174,hexagon,0.0010840579925570637,,,,,1,0,,,1,655.2188940240012,,652.982925689983,654.4846041539859,654.4846041539859,654.4846041539859,k,0.7151492750272155,,,,,,,,,,,,,,,,,,,,,,,,,,,,,,,,,,,,,,,,,,,,,,,,98110,2022-11-21_14h08.02.994,vts_reward_expectancy_bt_OFFLINE,2022.2.4,59.90733772441504,
,,,,,,,,,,,,,,,,,,,,,,,,,,,,,,,,,,0,0,0,0,0,0,0,0,,,,,,,,,,,,,,,,,,,,,,,,,,,,0,900,,,,687.1374039849907,,F,174,triangle,0.0020607089973054826,,,,,1,0,,,2,,,,,,,,,683.0659608129936,683.0659608129936,683.0659608129936,683.0659608129936,684.5510514729831,684.5510514729831,684.5510514729831,684.5510514729831,684.5677181560022,684.5677181560022,684.5677181560022,684.5677181560022,-1,number,NA,k,1.0478877870191354,vtsPrac,685.6356175179826,,,,,,,,,,,,,,,,,,,,,,,,,,,,,98110,2022-11-21_14h08.02.994,vts_reward_expectancy_bt_OFFLINE,2022.2.4,59.90733772441504,
,,,,,,,,,,,,,,,,,,,,,,,,,,,,,,,,,,0,0,0,0,1,0,1,0,,,,,,,,,,,,,,,,,,,,,,,,,,,,0,900,,,,692.0428572849778,,H,181,circle,0.0007952099840622395,,,,,1,0,,,2,,,,,,,,,688.1053083139996,688.1053083139996,688.1053083139996,688.1053083139996,689.6065733389987,689.6065733389987,689.6065733389987,689.6065733389987,689.6065733389987,689.6065733389987,689.6065733389987,689.6065733389987,repeat,number,numRpt,k,0.9089308890106622,vtsPrac,690.5412793399883,,,,,,,,,,,,,,,,,,,,,,,,,,,,,98110,2022-11-21_14h08.02.994,vts_reward_expectancy_bt_OFFLINE,2022.2.4,59.90733772441504,
,,,,,,,,,,,,,,,,,,,,,,,,,,,,,,,,,,0,0,0,0,2,0,2,0,,,,,,,,,,,,,,,,,,,,,,,,,,,,0,900,,,,697.4988909329986,,U,139,hexagon,0.001307413971517235,,,,,1,0,,,2,,,,,,,,,693.0279694339843,693.0279694339843,693.0279694339843,693.0279694339843,694.5286757189897,694.5286757189897,694.5286757189897,694.5286757189897,694.5286757189897,694.5286757189897,694.5286757189897,694.5286757189897,switch,letter,lettSwt,f,1.4432827190030366,vtsPrac,695.9971120959963,697.4988909329986,,,,,,,,,,,,,,,,,,,,,,,,,,,,98110,2022-11-21_14h08.02.994,vts_reward_expectancy_bt_OFFLINE,2022.2.4,59.90733772441504,
,,,,,,,,,,,,,,,,,,,,,,,,,,,,,,,,,,0,0,0,0,3,0,3,0,,,,,,,,,,,,,,,,,,,,,,,,,,,,0,900,,,,702.8213417399966,,B,125,circle,0.0012901010049972683,,,,,1,0,,,2,,,,,,,,,698.4843553029932,698.4843553029932,698.4843553029932,698.4843553029932,699.9846977629932,699.9846977629932,699.9846977629932,699.9846977629932,699.9846977629932,699.9846977629932,699.9846977629932,699.9846977629932,switch,number,numSwt,j,1.3084284260112327,vtsPrac,701.3194772339775,,,,,,,,,,,,,,,,,,,,,,,,,,,,,98110,2022-11-21_14h08.02.994,vts_reward_expectancy_bt_OFFLINE,2022.2.4,59.90733772441504,
,,,,,,,,,,,,,,,,,,,,,,,,,,,,,,,,,,0,0,0,0,4,0,4,0,,,,,,,,,,,,,,,,,,,,,,,,,,,,0,900,,,,708.2939767279895,,F,174,hexagon,0.0012206390092615038,,,,,1,0,,,2,,,,,,,,,703.8055654639902,703.8055654639902,703.8055654639902,703.8055654639902,705.3074475629837,705.3074475629837,705.3074475629837,705.3074475629837,705.3074475629837,705.3074475629837,705.3074475629837,705.3074475629837,switch,letter,lettSwt,d,1.4540464819874614,vtsPrac,706.7923591599974,708.2939767279895,,,,,,,,,,,,,,,,,,,,,,,,,,,,98110,2022-11-21_14h08.02.994,vts_reward_expectancy_bt_OFFLINE,2022.2.4,59.90733772441504,
,,,,,,,,,,,,,,,,,,,,,,,,,,,,,,,,,,0,0,0,0,5,0,5,0,,,,,,,,,,,,,,,,,,,,,,,,,,,,0,900,,,,713.4831229729753,,H,181,star,0.001242508995346725,,,,,1,0,,,2,,,,,,,,,709.2786580279935,709.2786580279935,709.2786580279935,709.2786580279935,710.7801550099975,710.7801550099975,710.7801550099975,710.7801550099975,710.7801550099975,710.7801550099975,710.7801550099975,710.7801550099975,repeat,letter,lettRpt,d,1.169103503023507,vtsPrac,711.9814617099764,,,,,,,,,,,,,,,,,,,,,,,,,,,,,98110,2022-11-21_14h08.02.994,vts_reward_expectancy_bt_OFFLINE,2022.2.4,59.90733772441504,
,,,,,,,,,,,,,,,,,,,,,,,,,,,,,,,,,,0,0,0,0,6,0,6,0,,,,,,,,,,,,,,,,,,,,,,,,,,,,0,900,,,,718.1716262059927,,U,139,hexagon,0.0011896550131496042,,,,,1,0,,,2,,,,,,,,,714.4677202079911,714.4677202079911,714.4677202079911,714.4677202079911,715.9690814279893,715.9690814279893,715.9690814279893,715.9690814279893,715.9690814279893,715.9690814279893,715.9690814279893,715.9690814279893,repeat,letter,lettRpt,f,0.6707029220124241,vtsPrac,716.6699863399845,,,,,,,,,,,,,,,,,,,,,,,,,,,,,98110,2022-11-21_14h08.02.994,vts_reward_expectancy_bt_OFFLINE,2022.2.4,59.90733772441504,
,,,,,,,,,,,,,,,,,,,,,,,,,,,,,,,,,,0,0,0,0,7,0,7,0,,,,,,,,,,,,,,,,,,,,,,,,,,,,0,900,,,,723.1268753100012,,B,125,star,0.0012124159839004278,,,,,1,0,,,2,,,,,,,,,719.1557318609848,719.1557318609848,719.1557318609848,719.1557318609848,720.657465258002,720.657465258002,720.657465258002,720.657465258002,720.657465258002,720.657465258002,720.657465258002,720.657465258002,repeat,letter,lettRpt,d,0.9441251590033062,vtsPrac,721.6253117379965,,,,,,,,,,,,,,,,,,,,,,,,,,,,,98110,2022-11-21_14h08.02.994,vts_reward_expectancy_bt_OFFLINE,2022.2.4,59.90733772441504,
,,,,,,,,,,,,,,,,,,,,,,,,,,,,,,,,,,0,0,0,0,8,0,8,0,,,,,,,,,,,,,,,,,,,,,,,,,,,,0,900,,,,728.1827222759894,,D,167,hexagon,0.0013006530061829835,,,,,1,0,,,2,,,,,,,,,724.1119109150022,724.1119109150022,724.1119109150022,724.1119109150022,725.6130669559934,725.6130669559934,725.6130669559934,725.6130669559934,725.6130669559934,725.6130669559934,725.6130669559934,725.6130669559934,switch,number,numSwt,k,1.0414648420119192,vtsPrac,726.6810443339928,,,,,,,,,,,,,,,,,,,,,,,,,,,,,98110,2022-11-21_14h08.02.994,vts_reward_expectancy_bt_OFFLINE,2022.2.4,59.90733772441504,
,,,,,,,,,,,,,,,,,,,,,,,,,,,,,,,,,,0,0,0,0,9,0,9,0,,,,,,,,,,,,,,,,,,,,,,,,,,,,0,900,,,,732.8044578199915,,H,181,star,0.0011531960044521838,,,,,1,0,,,2,,,,,,,,,729.1672709909908,729.1672709909908,729.1672709909908,729.1672709909908,730.6686588930024,730.6686588930024,730.6686588930024,730.6686588930024,730.6686588930024,730.6686588930024,730.6686588930024,730.6686588930024,repeat,number,numRpt,k,0.6083277450234164,vtsPrac,731.3026454209758,732.8044578199915,,,,,,,,,,,,,,,,,,,,,,,,,,,,98110,2022-11-21_14h08.02.994,vts_reward_expectancy_bt_OFFLINE,2022.2.4,59.90733772441504,
,,,,,,,,,,,,,,,,,,,,,,,,,,,,,,,,,,0,0,0,0,10,0,10,0,,,,,,,,,,,,,,,,,,,,,,,,,,,,0,900,,,,738.2771591449855,,W,125,circle,0.0014093650097493082,,,,,1,0,,,2,,,,,,,,,733.7887440259801,733.7887440259801,733.7887440259801,733.7887440259801,735.29039151498,735.29039151498,735.29039151498,735.29039151498,735.29039151498,735.29039151498,735.29039151498,735.29039151498,switch,letter,lettSwt,f,1.454040052019991,vtsPrac,736.7753356109897,738.2771591449855,,,,,,,,,,,,,,,,,,,,,,,,,,,,98110,2022-11-21_14h08.02.994,vts_reward_expectancy_bt_OFFLINE,2022.2.4,59.90733772441504,
,,,,,,,,,,,,,,,,,,,,,,,,,,,,,,,,,,0,0,0,0,11,0,11,0,,,,,,,,,,,,,,,,,,,,,,,,,,,,0,900,,,,743.1322928829759,,S,174,hexagon,0.0009280649828724563,,,,,1,0,,,2,,,,,,,,,739.2617174059851,739.2617174059851,739.2617174059851,739.2617174059851,740.7630453110032,740.7630453110032,740.7630453110032,740.7630453110032,740.7630453110032,740.7630453110032,740.7630453110032,740.7630453110032,repeat,letter,lettRpt,f,0.8420310560031794,vtsPrac,741.6308333030029,,,,,,,,,,,,,,,,,,,,,,,,,,,,,98110,2022-11-21_14h08.02.994,vts_reward_expectancy_bt_OFFLINE,2022.2.4,59.90733772441504,
,,,,,,,,,,,,,,,,,,,,,,,,,,,,,,,,,,0,0,0,0,12,0,12,0,,,,,,,,,,,,,,,,,,,,,,,,,,,,0,900,,,,747.8543181809946,,B,174,circle,0.001357600005576387,,,,,1,0,,,2,,,,,,,,,744.1169787659892,744.1169787659892,744.1169787659892,744.1169787659892,745.6185401739785,745.6185401739785,745.6185401739785,745.6185401739785,745.6185401739785,745.6185401739785,745.6185401739785,745.6185401739785,switch,number,numSwt,k,0.7121800640015863,vtsPrac,746.3526139909809,,,,,,,,,,,,,,,,,,,,,,,,,,,,,98110,2022-11-21_14h08.02.994,vts_reward_expectancy_bt_OFFLINE,2022.2.4,59.90733772441504,
,,,,,,,,,,,,,,,,,,,,,,,,,,,,,,,,,,0,0,0,0,13,0,13,0,,,,,,,,,,,,,,,,,,,,,,,,,,,,0,900,,,,752.7598295490025,,H,125,hexagon,0.0013009679969400167,,,,,1,0,,,2,,,,,,,,,748.8386988309794,748.8386988309794,748.8386988309794,748.8386988309794,750.3404998999904,750.3404998999904,750.3404998999904,750.3404998999904,750.3404998999904,750.3404998999904,750.3404998999904,750.3404998999904,switch,letter,lettSwt,d,0.8853574359964114,vtsPrac,751.2580237959919,,,,,,,,,,,,,,,,,,,,,,,,,,,,,98110,2022-11-21_14h08.02.994,vts_reward_expectancy_bt_OFFLINE,2022.2.4,59.90733772441504,
,,,,,,,,,,,,,,,,,,,,,,,,,,,,,,,,,,0,0,0,0,14,0,14,0,,,,,,,,,,,,,,,,,,,,,,,,,,,,0,900,,,,758.2324074779754,,D,167,hexagon,0.0012577190063893795,,,,,1,0,,,2,,,,,,,,,753.7442735029908,753.7442735029908,753.7442735029908,753.7442735029908,755.2457727959845,755.2457727959845,755.2457727959845,755.2457727959845,755.2457727959845,755.2457727959845,755.2457727959845,755.2457727959845,repeat,letter,lettRpt,d,1.458702333009569,vtsPrac,756.730873552995,,,,,,,,,,,,,,,,,,,,,,,,,,,,,98110,2022-11-21_14h08.02.994,vts_reward_expectancy_bt_OFFLINE,2022.2.4,59.90733772441504,
,,,,,,,,,,,,,,,,,,,,,,,,,,,,,,,,,,0,0,0,0,15,0,15,0,,,,,,,,,,,,,,,,,,,,,,,,,,,,0,900,,,,763.9219223909895,,S,160,triangle,0.0013941889919806272,,,,,1,0,,,2,,,,,,,,,759.2168979900016,759.2168979900016,759.2168979900016,759.2168979900016,760.7184711139998,760.7184711139998,760.7184711139998,760.7184711139998,760.7184711139998,760.7184711139998,760.7184711139998,760.7184711139998,switch,number,numSwt,k,1.6785043900017627,vtsPrac,762.4204219439998,763.9219223909895,,,,,,,,,,,,,,,,,,,,,,,,,,,,98110,2022-11-21_14h08.02.994,vts_reward_expectancy_bt_OFFLINE,2022.2.4,59.90733772441504,
,,,,,,,,,,,,,,,,,,,,,,,,,,,,,,,,,,0,0,0,0,16,0,16,0,,,,,,,,,,,,,,,,,,,,,,,,,,,,0,900,,,,769.194373292994,,S,160,triangle,0.0011543500004336238,,,,,1,0,,,2,,,,,,,,,764.9064160999842,764.9064160999842,764.9064160999842,764.9064160999842,766.4081088450039,766.4081088450039,766.4081088450039,766.4081088450039,766.4081088450039,766.4081088450039,766.4081088450039,766.4081088450039,switch,letter,lettSwt,f,1.2672276070225053,vtsPrac,767.6928577639919,,,,,,,,,,,,,,,,,,,,,,,,,,,,,98110,2022-11-21_14h08.02.994,vts_reward_expectancy_bt_OFFLINE,2022.2.4,59.90733772441504,
,,,,,,,,,,,,,,,,,,,,,,,,,,,,,,,,,,0,0,0,0,17,0,17,0,,,,,,,,,,,,,,,,,,,,,,,,,,,,0,900,,,,774.0498769809783,,B,174,circle,0.0010668299801182002,,,,,1,0,,,2,,,,,,,,,770.17897403799,770.17897403799,770.17897403799,770.17897403799,771.680540034984,771.680540034984,771.680540034984,771.680540034984,771.680540034984,771.680540034984,771.680540034984,771.680540034984,switch,number,numSwt,k,0.8414611700281966,vtsPrac,772.5483385779953,,,,,,,,,,,,,,,,,,,,,,,,,,,,,98110,2022-11-21_14h08.02.994,vts_reward_expectancy_bt_OFFLINE,2022.2.4,59.90733772441504,
,,,,,,,,,,,,,,,,,,,,,,,,,,,,,,,,,,0,0,0,0,18,0,18,0,,,,,,,,,,,,,,,,,,,,,,,,,,,,0,900,,,,779.8563432539813,,U,146,hexagon,0.0012314250052440912,,,,,1,0,,,2,,,,,,,,,775.0343615549791,775.0343615549791,775.0343615549791,775.0343615549791,776.5359668379824,776.5359668379824,776.5359668379824,776.5359668379824,776.5359668379824,776.5359668379824,776.5359668379824,776.5359668379824,repeat,number,numRpt,j,1.7927281020092778,vtsPrac,778.3546186249878,779.8563432539813,,,,,,,,,,,,,,,,,,,,,,,,,,,,98110,2022-11-21_14h08.02.994,vts_reward_expectancy_bt_OFFLINE,2022.2.4,59.90733772441504,
,,,,,,,,,,,,,,,,,,,,,,,,,,,,,,,,,,0,0,0,0,19,0,19,0,,,,,,,,,,,,,,,,,,,,,,,,,,,,0,900,,,,784.6784285909962,,D,132,circle,0.0010746280022431165,,,,,1,0,,,2,,,,,,,,,780.8408340929891,780.8408340929891,780.8408340929891,780.8408340929891,782.3425660389767,782.3425660389767,782.3425660389767,782.3425660389767,782.3425660389767,782.3425660389767,782.3425660389767,782.3425660389767,switch,letter,lettSwt,d,0.8014599390153307,vtsPrac,783.1766450789873,,,,,,,,,,,,,,,,,,,,,,,,,,,,,98110,2022-11-21_14h08.02.994,vts_reward_expectancy_bt_OFFLINE,2022.2.4,59.90733772441504,
,,,,,,,,,,,,,,,,,,,,,,,,,,,,,,,,,,0,0,0,0,20,0,20,0,,,,,,,,,,,,,,,,,,,,,,,,,,,,0,900,,,,789.567210979003,,B,160,hexagon,0.0013935050228610635,,,,,1,0,,,2,,,,,,,,,785.6627771380008,785.6627771380008,785.6627771380008,785.6627771380008,787.1642318090016,787.1642318090016,787.1642318090016,787.1642318090016,787.1642318090016,787.1642318090016,787.1642318090016,787.1642318090016,repeat,letter,lettRpt,d,0.8740262590290513,vtsPrac,788.0653148510028,,,,,,,,,,,,,,,,,,,,,,,,,,,,,98110,2022-11-21_14h08.02.994,vts_reward_expectancy_bt_OFFLINE,2022.2.4,59.90733772441504,
,,,,,,,,,,,,,,,,,,,,,,,,,,,,,,,,,,0,0,0,0,21,0,21,0,,,,,,,,,,,,,,,,,,,,,,,,,,,,0,900,,,,794.4558138389839,,W,125,circle,0.0013887940149288625,,,,,1,0,,,2,,,,,,,,,790.5518764109875,790.5518764109875,790.5518764109875,790.5518764109875,792.053179925977,792.053179925977,792.053179925977,792.053179925977,792.053179925977,792.053179925977,792.053179925977,792.053179925977,switch,number,numSwt,j,0.8684802790230606,vtsPrac,792.9540577009902,794.4558138389839,,,,,,,,,,,,,,,,,,,,,,,,,,,,98110,2022-11-21_14h08.02.994,vts_reward_expectancy_bt_OFFLINE,2022.2.4,59.90733772441504,
,,,,,,,,,,,,,,,,,,,,,,,,,,,,,,,,,,0,0,0,0,22,0,22,0,,,,,,,,,,,,,,,,,,,,,,,,,,,,0,900,,,,799.8115097609989,,H,174,triangle,0.0010991650051437318,,,,,1,0,,,2,,,,,,,,,795.4401806499809,795.4401806499809,795.4401806499809,795.4401806499809,796.9417354500038,796.9417354500038,796.9417354500038,796.9417354500038,796.9417354500038,796.9417354500038,796.9417354500038,796.9417354500038,repeat,number,numRpt,k,1.3452449470059946,vtsPrac,798.3100136659923,799.8115097609989,,,,,,,,,,,,,,,,,,,,,,,,,,,,98110,2022-11-21_14h08.02.994,vts_reward_expectancy_bt_OFFLINE,2022.2.4,59.90733772441504,
,,,,,,,,,,,,,,,,,,,,,,,,,,,,,,,,,,0,0,0,0,23,0,23,0,,,,,,,,,,,,,,,,,,,,,,,,,,,,0,900,,,,805.1508165599953,,U,167,star,0.0010040850029326975,,,,,1,0,,,2,,,,,,,,,800.7961234659888,800.7961234659888,800.7961234659888,800.7961234659888,802.2976078359934,802.2976078359934,802.2976078359934,802.2976078359934,802.2976078359934,802.2976078359934,802.2976078359934,802.2976078359934,repeat,number,numRpt,k,1.3352417820133269,vtsPrac,803.6490871539863,805.1508165599953,,,,,,,,,,,,,,,,,,,,,,,,,,,,98110,2022-11-21_14h08.02.994,vts_reward_expectancy_bt_OFFLINE,2022.2.4,59.90733772441504,
,,,,,,,,,,,,,,,,,,,,,,,,,,,,,,,,,,0,0,0,0,24,0,24,0,,,,,,,,,,,,,,,,,,,,,,,,,,,,0,900,,,,810.3398146449763,,W,160,circle,0.0005890520114917308,,,,,0,0,,,2,,,,,,,,,806.1352099590003,806.1352099590003,806.1352099590003,806.1352099590003,807.6369068310014,807.6369068310014,807.6369068310014,807.6369068310014,807.6369068310014,807.6369068310014,807.6369068310014,807.6369068310014,switch,letter,NA,d,1.1691837590187788,vtsPrac,808.8384204879985,,,,,,,,,,,,,,,,,,,,,,,,,,,,,98110,2022-11-21_14h08.02.994,vts_reward_expectancy_bt_OFFLINE,2022.2.4,59.90733772441504,
,,,,,,,,,,,,,,,,,,,,,,,,,,,,,,,,,,0,0,0,0,25,0,25,0,,,,,,,,,,,,,,,,,,,,,,,,,,,,0,900,,,,815.2454495609854,,D,139,hexagon,0.001234624010976404,,,,,1,1,,,2,,,,,,,,,811.3243115389778,811.3243115389778,811.3243115389778,811.3243115389778,812.826112693001,812.826112693001,812.826112693001,812.826112693001,812.826112693001,812.826112693001,812.826112693001,812.826112693001,repeat,letter,lettRpt,d,0.8852270460338332,vtsPrac,813.743659202999,,,,,,,,,,,,,,,,,,,,,,,,,,,,,98110,2022-11-21_14h08.02.994,vts_reward_expectancy_bt_OFFLINE,2022.2.4,59.90733772441504,
,,,,,,,,,,,,,,,,,,,,,,,,,,,,,,,,,,0,0,0,0,26,0,26,0,,,,,,,,,,,,,,,,,,,,,,,,,,,,0,900,,,,820.5345666729845,,U,132,triangle,0.0011519450054038316,,,,,1,0,,,2,,,,,,,,,816.2297830379975,816.2297830379975,816.2297830379975,816.2297830379975,817.7314844539796,817.7314844539796,817.7314844539796,817.7314844539796,817.7314844539796,817.7314844539796,817.7314844539796,817.7314844539796,repeat,letter,lettRpt,f,1.2796765940147452,vtsPrac,819.0327904579754,,,,,,,,,,,,,,,,,,,,,,,,,,,,,98110,2022-11-21_14h08.02.994,vts_reward_expectancy_bt_OFFLINE,2022.2.4,59.90733772441504,
,,,,,,,,,,,,,,,,,,,,,,,,,,,,,,,,,,0,0,0,0,27,0,27,0,,,,,,,,,,,,,,,,,,,,,,,,,,,,0,900,,,,825.4399418859975,,Y,181,star,0.001233621995197609,,,,,1,0,,,2,,,,,,,,,821.5188305689953,821.5188305689953,821.5188305689953,821.5188305689953,823.0206795079866,823.0206795079866,823.0206795079866,823.0206795079866,823.0206795079866,823.0206795079866,823.0206795079866,823.0206795079866,repeat,letter,lettRpt,f,0.8950777330028359,vtsPrac,823.9381921780005,,,,,,,,,,,,,,,,,,,,,,,,,,,,,98110,2022-11-21_14h08.02.994,vts_reward_expectancy_bt_OFFLINE,2022.2.4,59.90733772441504,
,,,,,,,,,,,,,,,,,,,,,,,,,,,,,,,,,,0,0,0,0,28,0,28,0,,,,,,,,,,,,,,,,,,,,,,,,,,,,0,900,,,,830.912431779987,,W,160,star,0.0012722910032607615,,,,,1,0,,,2,,,,,,,,,826.424216799991,826.424216799991,826.424216799991,826.424216799991,827.9260661899752,827.9260661899752,827.9260661899752,827.9260661899752,827.9260661899752,827.9260661899752,827.9260661899752,827.9260661899752,switch,number,numSwt,k,1.4588063940173015,vtsPrac,829.4107657799905,,,,,,,,,,,,,,,,,,,,,,,,,,,,,98110,2022-11-21_14h08.02.994,vts_reward_expectancy_bt_OFFLINE,2022.2.4,59.90733772441504,
