LTriangleOpac,LCircleOpac,LHexagonOpac,LStarOpac,RTriangleOpac,RCircleOpac,RHexagonOpac,RStarOpac,LShape_ID,RShape_ID,training_blocks.thisRepN,training_blocks.thisTrialN,training_blocks.thisN,training_blocks.thisIndex,training.thisRepN,training.thisTrialN,training.thisN,training.thisIndex,task1_prac_redo.thisRepN,task1_prac_redo.thisTrialN,task1_prac_redo.thisN,task1_prac_redo.thisIndex,task1_prac_trials.thisRepN,task1_prac_trials.thisTrialN,task1_prac_trials.thisN,task1_prac_trials.thisIndex,task2_prac_redo.thisRepN,task2_prac_redo.thisTrialN,task2_prac_redo.thisN,task2_prac_redo.thisIndex,task2_praac_trials.thisRepN,task2_praac_trials.thisTrialN,task2_praac_trials.thisN,task2_praac_trials.thisIndex,vts_prac_redo.thisRepN,vts_prac_redo.thisTrialN,vts_prac_redo.thisN,vts_prac_redo.thisIndex,vts_practice_trials.thisRepN,vts_practice_trials.thisTrialN,vts_practice_trials.thisN,vts_practice_trials.thisIndex,trials_norew.thisRepN,trials_norew.thisTrialN,trials_norew.thisN,trials_norew.thisIndex,block.thisRepN,block.thisTrialN,block.thisN,block.thisIndex,trials_rew.thisRepN,trials_rew.thisTrialN,trials_rew.thisN,trials_rew.thisIndex,key_resp.started,key_resp.keys,key_resp.rt,left_circle.started,right_circle.started,left_triangle.started,right_triangle.started,left_star.started,right_star.started,left_hexagon.started,right_hexagon.started,training_fix.started,training_resp.started,training_resp.keys,training_resp.rt,points_trial,points_cumul,trainBlock,training_feedback_txt.started,fix.started,training_feedback_txt.stopped,fix.stopped,curr_topStim,curr_bottStim,curr_shape,ISI.started,tgt_fix_prac1.started,top_target_prac1.started,bott_target_prac1.started,target_resp_prac1.started,acc,E1,target_resp_prac1.keys,target_resp_prac1.rt,pracBlock,prac_fback_text.started,prac_fback_text.stopped,tgt_fix_prac2.started,top_target_prac2.started,bott_target_prac2.started,target_resp_prac2.started,target_resp_prac2.keys,target_resp_prac2.rt,star.started,hegagon.started,triangle.started,circle.started,top_target.started,tgt_fix.started,bot_target.started,target_resp.started,star.stopped,hegagon.stopped,triangle.stopped,circle.stopped,alt,task,condition,target_resp.keys,target_resp.rt,rewCond,vts_fback.started,vts_fback.stopped,top_target.stopped,tgt_fix.stopped,bot_target.stopped,target_resp.stopped,blockNum,norew_fback.started,norew_fback.stopped,key_resp_2.keys,key_resp_2.rt,rewExpectancy,feedbk_text.started,feedbk_text.stopped,text_3.started,debrief.started,text_3.stopped,button.started,participant,date,expName,psychopyVersion,frameRate,
,,,,,,,,,,,,,,,,,,,,,,,,,,,,,,,,,,,,,,,,,,,,,,,,,,,,,,17.179927778895944,space,26.169066566042602,,,,,,,,,,,,,,,,,,,,,,,,,,,,,,,,,,,,,,,,,,,,,,,,,,,,,,,,,,,,,,,,,,,,,,,,,,,,,98412,2022-11-28_13h58.19.191,vts_reward_expectancy_bt_OFFLINE,2022.2.4,60.05075682412279,
0,0,0,1,0,0,1,0,star,hexagon,0,0,0,0,0,0,0,11,,,,,,,,,,,,,,,,,,,,,,,,,,,,,,,,,,,,,,,,78.32621231814846,78.32621231814846,78.32621231814846,78.32621231814846,78.32621231814846,78.32621231814846,78.32621231814846,78.32621231814846,78.32621231814846,78.32621231814846,a,2.352201654575765,10,10,0,80.7090908898972,82.2242702068761,,,,,,,,,,,,,,,,,,,,,,,,,,,,,,,,,,,,,,,,,,,,,,,,,,,,,,,,,,,,98412,2022-11-28_13h58.19.191,vts_reward_expectancy_bt_OFFLINE,2022.2.4,60.05075682412279,
0,1,0,0,0,0,1,0,circle,hexagon,0,0,0,0,0,1,1,4,,,,,,,,,,,,,,,,,,,,,,,,,,,,,,,,,,,,,,,,82.7241464201361,82.7241464201361,82.7241464201361,82.7241464201361,82.7241464201361,82.7241464201361,82.7241464201361,82.7241464201361,82.7241464201361,82.7241464201361,l,1.9367283880710602,10,20,0,84.6916889809072,86.19387301802635,,,,,,,,,,,,,,,,,,,,,,,,,,,,,,,,,,,,,,,,,,,,,,,,,,,,,,,,,,,,98412,2022-11-28_13h58.19.191,vts_reward_expectancy_bt_OFFLINE,2022.2.4,60.05075682412279,
1,0,0,0,0,1,0,0,triangle,circle,0,0,0,0,0,2,2,0,,,,,,,,,,,,,,,,,,,,,,,,,,,,,,,,,,,,,,,,86.69435776816681,86.69435776816681,86.69435776816681,86.69435776816681,86.69435776816681,86.69435776816681,86.69435776816681,86.69435776816681,86.69435776816681,86.69435776816681,a,1.005389962811023,1,21,0,87.72896443726495,89.22837166301906,89.22837166301906,89.72853438928723,,,,,,,,,,,,,,,,,,,,,,,,,,,,,,,,,,,,,,,,,,,,,,,,,,,,,,,,,,98412,2022-11-28_13h58.19.191,vts_reward_expectancy_bt_OFFLINE,2022.2.4,60.05075682412279,
0,0,1,0,1,0,0,0,hexagon,triangle,0,0,0,0,0,3,3,6,,,,,,,,,,,,,,,,,,,,,,,,,,,,,,,,,,,,,,,,89.72853438928723,89.72853438928723,89.72853438928723,89.72853438928723,89.72853438928723,89.72853438928723,89.72853438928723,89.72853438928723,89.72853438928723,89.72853438928723,a,1.8178211273625493,10,31,0,91.56525314506143,93.06521712196991,93.06521712196991,93.56519078928977,,,,,,,,,,,,,,,,,,,,,,,,,,,,,,,,,,,,,,,,,,,,,,,,,,,,,,,,,,98412,2022-11-28_13h58.19.191,vts_reward_expectancy_bt_OFFLINE,2022.2.4,60.05075682412279,
1,0,0,0,0,0,1,0,triangle,hexagon,0,0,0,0,0,4,4,1,,,,,,,,,,,,,,,,,,,,,,,,,,,,,,,,,,,,,,,,93.56519078928977,93.56519078928977,93.56519078928977,93.56519078928977,93.56519078928977,93.56519078928977,93.56519078928977,93.56519078928977,93.56519078928977,93.56519078928977,l,1.7274581110104918,10,41,0,95.31571482401341,96.81814951309934,,,,,,,,,,,,,,,,,,,,,,,,,,,,,,,,,,,,,,,,,,,,,,,,,,,,,,,,,,,,98412,2022-11-28_13h58.19.191,vts_reward_expectancy_bt_OFFLINE,2022.2.4,60.05075682412279,
0,1,0,0,0,0,0,1,circle,star,0,0,0,0,0,5,5,5,,,,,,,,,,,,,,,,,,,,,,,,,,,,,,,,,,,,,,,,97.31858489429578,97.31858489429578,97.31858489429578,97.31858489429578,97.31858489429578,97.31858489429578,97.31858489429578,97.31858489429578,97.31858489429578,97.31858489429578,l,1.2040203628130257,10,51,0,98.5521424910985,100.05274070007727,100.05274070007727,100.55272696726024,,,,,,,,,,,,,,,,,,,,,,,,,,,,,,,,,,,,,,,,,,,,,,,,,,,,,,,,,,98412,2022-11-28_13h58.19.191,vts_reward_expectancy_bt_OFFLINE,2022.2.4,60.05075682412279,
0,1,0,0,1,0,0,0,circle,triangle,0,0,0,0,0,6,6,3,,,,,,,,,,,,,,,,,,,,,,,,,,,,,,,,,,,,,,,,100.55272696726024,100.55272696726024,100.55272696726024,100.55272696726024,100.55272696726024,100.55272696726024,100.55272696726024,100.55272696726024,100.55272696726024,100.55272696726024,a,0.9726000218652189,1,52,0,101.5558922290802,103.05572334025055,103.05572334025055,103.55590578028932,,,,,,,,,,,,,,,,,,,,,,,,,,,,,,,,,,,,,,,,,,,,,,,,,,,,,,,,,,98412,2022-11-28_13h58.19.191,vts_reward_expectancy_bt_OFFLINE,2022.2.4,60.05075682412279,
0,0,1,0,0,1,0,0,hexagon,circle,0,0,0,0,0,7,7,7,,,,,,,,,,,,,,,,,,,,,,,,,,,,,,,,,,,,,,,,103.55590578028932,103.55590578028932,103.55590578028932,103.55590578028932,103.55590578028932,103.55590578028932,103.55590578028932,103.55590578028932,103.55590578028932,103.55590578028932,a,1.4685169709846377,1,53,0,105.05635766824707,106.55855598906055,,,,,,,,,,,,,,,,,,,,,,,,,,,,,,,,,,,,,,,,,,,,,,,,,,,,,,,,,,,,98412,2022-11-28_13h58.19.191,vts_reward_expectancy_bt_OFFLINE,2022.2.4,60.05075682412279,
0,0,0,1,0,1,0,0,star ,circle,0,0,0,0,0,8,8,10,,,,,,,,,,,,,,,,,,,,,,,,,,,,,,,,,,,,,,,,107.05889135412872,107.05889135412872,107.05889135412872,107.05889135412872,107.05889135412872,107.05889135412872,107.05889135412872,107.05889135412872,107.05889135412872,107.05889135412872,a,1.1943415375426412,1,54,0,108.27571318019181,109.77659251401201,109.77659251401201,110.2769411872141,,,,,,,,,,,,,,,,,,,,,,,,,,,,,,,,,,,,,,,,,,,,,,,,,,,,,,,,,,98412,2022-11-28_13h58.19.191,vts_reward_expectancy_bt_OFFLINE,2022.2.4,60.05075682412279,
0,0,0,1,1,0,0,0,star,triangle,0,0,0,0,0,9,9,9,,,,,,,,,,,,,,,,,,,,,,,,,,,,,,,,,,,,,,,,110.2769411872141,110.2769411872141,110.2769411872141,110.2769411872141,110.2769411872141,110.2769411872141,110.2769411872141,110.2769411872141,110.2769411872141,110.2769411872141,a,1.9368423777632415,10,64,0,112.24614354409277,113.74659862322733,113.74659862322733,114.24668646091595,,,,,,,,,,,,,,,,,,,,,,,,,,,,,,,,,,,,,,,,,,,,,,,,,,,,,,,,,,98412,2022-11-28_13h58.19.191,vts_reward_expectancy_bt_OFFLINE,2022.2.4,60.05075682412279,
0,0,1,0,0,0,0,1,hexagon,star,0,0,0,0,0,10,10,8,,,,,,,,,,,,,,,,,,,,,,,,,,,,,,,,,,,,,,,,114.24668646091595,114.24668646091595,114.24668646091595,114.24668646091595,114.24668646091595,114.24668646091595,114.24668646091595,114.24668646091595,114.24668646091595,114.24668646091595,l,1.1849844576790929,10,74,0,115.46379487589002,116.96631427295506,,,,,,,,,,,,,,,,,,,,,,,,,,,,,,,,,,,,,,,,,,,,,,,,,,,,,,,,,,,,98412,2022-11-28_13h58.19.191,vts_reward_expectancy_bt_OFFLINE,2022.2.4,60.05075682412279,
1,0,0,0,0,0,0,1,triangle,star,0,0,0,0,0,11,11,2,,,,,,,,,,,,,,,,,,,,,,,,,,,,,,,,,,,,,,,,117.46634367620572,117.46634367620572,117.46634367620572,117.46634367620572,117.46634367620572,117.46634367620572,117.46634367620572,117.46634367620572,117.46634367620572,117.46634367620572,l,0.8004701407626271,1,75,0,118.28471137909219,119.7840392398648,119.7840392398648,120.28392196120694,,,,,,,,,,,,,,,,,,,,,,,,,,,,,,,,,,,,,,,,,,,,,,,,,,,,,,,,,,98412,2022-11-28_13h58.19.191,vts_reward_expectancy_bt_OFFLINE,2022.2.4,60.05075682412279,
0,0,1,0,0,1,0,0,hexagon,circle,0,0,0,0,1,0,12,7,,,,,,,,,,,,,,,,,,,,,,,,,,,,,,,,,,,,,,,,120.28392196120694,120.28392196120694,120.28392196120694,120.28392196120694,120.28392196120694,120.28392196120694,120.28392196120694,120.28392196120694,120.28392196120694,120.28392196120694,a,0.9750738679431379,1,76,0,121.28618456888944,122.78699340810999,122.78699340810999,,,,,,,,,,,,,,,,,,,,,,,,,,,,,,,,,,,,,,,,,,,,,,,,,,,,,,,,,,,98412,2022-11-28_13h58.19.191,vts_reward_expectancy_bt_OFFLINE,2022.2.4,60.05075682412279,
0,1,0,0,0,0,1,0,circle,hexagon,0,0,0,0,1,1,13,4,,,,,,,,,,,,,,,,,,,,,,,,,,,,,,,,,,,,,,,,123.2868653149344,123.2868653149344,123.2868653149344,123.2868653149344,123.2868653149344,123.2868653149344,123.2868653149344,123.2868653149344,123.2868653149344,123.2868653149344,l,1.3584866058081388,10,86,0,124.67196795297787,126.1732141142711,,,,,,,,,,,,,,,,,,,,,,,,,,,,,,,,,,,,,,,,,,,,,,,,,,,,,,,,,,,,98412,2022-11-28_13h58.19.191,vts_reward_expectancy_bt_OFFLINE,2022.2.4,60.05075682412279,
1,0,0,0,0,0,0,1,triangle,star,0,0,0,0,1,2,14,2,,,,,,,,,,,,,,,,,,,,,,,,,,,,,,,,,,,,,,,,126.67352794809267,126.67352794809267,126.67352794809267,126.67352794809267,126.67352794809267,126.67352794809267,126.67352794809267,126.67352794809267,126.67352794809267,126.67352794809267,l,1.2348719155415893,1,87,0,127.94068078696728,129.44096868811175,129.44096868811175,129.94109002919868,,,,,,,,,,,,,,,,,,,,,,,,,,,,,,,,,,,,,,,,,,,,,,,,,,,,,,,,,,98412,2022-11-28_13h58.19.191,vts_reward_expectancy_bt_OFFLINE,2022.2.4,60.05075682412279,
0,0,0,1,0,1,0,0,star ,circle,0,0,0,0,1,3,15,10,,,,,,,,,,,,,,,,,,,,,,,,,,,,,,,,,,,,,,,,129.94109002919868,129.94109002919868,129.94109002919868,129.94109002919868,129.94109002919868,129.94109002919868,129.94109002919868,129.94109002919868,129.94109002919868,129.94109002919868,l,1.4450922906398773,10,97,0,131.41153697296977,132.9108620272018,132.9108620272018,133.4108112002723,,,,,,,,,,,,,,,,,,,,,,,,,,,,,,,,,,,,,,,,,,,,,,,,,,,,,,,,,,98412,2022-11-28_13h58.19.191,vts_reward_expectancy_bt_OFFLINE,2022.2.4,60.05075682412279,
0,1,0,0,0,0,0,1,circle,star,0,0,0,0,1,4,16,5,,,,,,,,,,,,,,,,,,,,,,,,,,,,,,,,,,,,,,,,133.4108112002723,133.4108112002723,133.4108112002723,133.4108112002723,133.4108112002723,133.4108112002723,133.4108112002723,133.4108112002723,133.4108112002723,133.4108112002723,l,1.3150698035024107,1,98,0,134.74653223529458,136.24701552418992,,,,,,,,,,,,,,,,,,,,,,,,,,,,,,,,,,,,,,,,,,,,,,,,,,,,,,,,,,,,98412,2022-11-28_13h58.19.191,vts_reward_expectancy_bt_OFFLINE,2022.2.4,60.05075682412279,
0,0,0,1,1,0,0,0,star,triangle,0,0,0,0,1,5,17,9,,,,,,,,,,,,,,,,,,,,,,,,,,,,,,,,,,,,,,,,136.74730422301218,136.74730422301218,136.74730422301218,136.74730422301218,136.74730422301218,136.74730422301218,136.74730422301218,136.74730422301218,136.74730422301218,136.74730422301218,l,3.907490654848516,1,99,0,140.67226377408952,142.18468132987618,,,,,,,,,,,,,,,,,,,,,,,,,,,,,,,,,,,,,,,,,,,,,,,,,,,,,,,,,,,,98412,2022-11-28_13h58.19.191,vts_reward_expectancy_bt_OFFLINE,2022.2.4,60.05075682412279,
1,0,0,0,0,1,0,0,triangle,circle,0,0,0,0,1,6,18,0,,,,,,,,,,,,,,,,,,,,,,,,,,,,,,,,,,,,,,,,142.68474521907046,142.68474521907046,142.68474521907046,142.68474521907046,142.68474521907046,142.68474521907046,142.68474521907046,142.68474521907046,142.68474521907046,142.68474521907046,l,2.560871995985508,10,109,0,145.26987131219357,146.77147744223475,,,,,,,,,,,,,,,,,,,,,,,,,,,,,,,,,,,,,,,,,,,,,,,,,,,,,,,,,,,,98412,2022-11-28_13h58.19.191,vts_reward_expectancy_bt_OFFLINE,2022.2.4,60.05075682412279,
0,0,1,0,0,0,0,1,hexagon,star,0,0,0,0,1,7,19,8,,,,,,,,,,,,,,,,,,,,,,,,,,,,,,,,,,,,,,,,147.27158194826916,147.27158194826916,147.27158194826916,147.27158194826916,147.27158194826916,147.27158194826916,147.27158194826916,147.27158194826916,147.27158194826916,147.27158194826916,l,1.2927746758796275,1,110,0,148.58975660707802,150.08912583393976,150.08912583393976,150.58924405509606,,,,,,,,,,,,,,,,,,,,,,,,,,,,,,,,,,,,,,,,,,,,,,,,,,,,,,,,,,98412,2022-11-28_13h58.19.191,vts_reward_expectancy_bt_OFFLINE,2022.2.4,60.05075682412279,
0,1,0,0,1,0,0,0,circle,triangle,0,0,0,0,1,8,20,3,,,,,,,,,,,,,,,,,,,,,,,,,,,,,,,,,,,,,,,,150.58924405509606,150.58924405509606,150.58924405509606,150.58924405509606,150.58924405509606,150.58924405509606,150.58924405509606,150.58924405509606,150.58924405509606,150.58924405509606,a,2.5209497585892677,10,120,0,153.14204647298902,154.64266983792186,154.64266983792186,155.14245043229312,,,,,,,,,,,,,,,,,,,,,,,,,,,,,,,,,,,,,,,,,,,,,,,,,,,,,,,,,,98412,2022-11-28_13h58.19.191,vts_reward_expectancy_bt_OFFLINE,2022.2.4,60.05075682412279,
0,0,1,0,1,0,0,0,hexagon,triangle,0,0,0,0,1,9,21,6,,,,,,,,,,,,,,,,,,,,,,,,,,,,,,,,,,,,,,,,155.14245043229312,155.14245043229312,155.14245043229312,155.14245043229312,155.14245043229312,155.14245043229312,155.14245043229312,155.14245043229312,155.14245043229312,155.14245043229312,a,1.0381640186533332,10,130,0,156.2115484061651,157.71206644224003,,,,,,,,,,,,,,,,,,,,,,,,,,,,,,,,,,,,,,,,,,,,,,,,,,,,,,,,,,,,98412,2022-11-28_13h58.19.191,vts_reward_expectancy_bt_OFFLINE,2022.2.4,60.05075682412279,
0,0,0,1,0,0,1,0,star,hexagon,0,0,0,0,1,10,22,11,,,,,,,,,,,,,,,,,,,,,,,,,,,,,,,,,,,,,,,,158.21242660004646,158.21242660004646,158.21242660004646,158.21242660004646,158.21242660004646,158.21242660004646,158.21242660004646,158.21242660004646,158.21242660004646,158.21242660004646,a,1.5805363836698234,1,131,0,159.81410329416394,161.31519129686058,,,,,,,,,,,,,,,,,,,,,,,,,,,,,,,,,,,,,,,,,,,,,,,,,,,,,,,,,,,,98412,2022-11-28_13h58.19.191,vts_reward_expectancy_bt_OFFLINE,2022.2.4,60.05075682412279,
1,0,0,0,0,0,1,0,triangle,hexagon,0,0,0,0,1,11,23,1,,,,,,,,,,,,,,,,,,,,,,,,,,,,,,,,,,,,,,,,161.8155370890163,161.8155370890163,161.8155370890163,161.8155370890163,161.8155370890163,161.8155370890163,161.8155370890163,161.8155370890163,161.8155370890163,161.8155370890163,l,1.3631789716891944,10,141,0,163.20042065205052,164.70005221804604,164.70005221804604,165.20005108928308,,,,,,,,,,,,,,,,,,,,,,,,,,,,,,,,,,,,,,,,,,,,,,,,,,,,,,,,,,98412,2022-11-28_13h58.19.191,vts_reward_expectancy_bt_OFFLINE,2022.2.4,60.05075682412279,
0,1,0,0,0,0,1,0,circle,hexagon,0,0,0,0,2,0,24,4,,,,,,,,,,,,,,,,,,,,,,,,,,,,,,,,,,,,,,,,165.20005108928308,165.20005108928308,165.20005108928308,165.20005108928308,165.20005108928308,165.20005108928308,165.20005108928308,165.20005108928308,165.20005108928308,165.20005108928308,l,0.893211614806205,1,142,0,166.1200951570645,167.61928081326187,167.61928081326187,168.11978689115494,,,,,,,,,,,,,,,,,,,,,,,,,,,,,,,,,,,,,,,,,,,,,,,,,,,,,,,,,,98412,2022-11-28_13h58.19.191,vts_reward_expectancy_bt_OFFLINE,2022.2.4,60.05075682412279,
1,0,0,0,0,1,0,0,triangle,circle,0,0,0,0,2,1,25,0,,,,,,,,,,,,,,,,,,,,,,,,,,,,,,,,,,,,,,,,168.11978689115494,168.11978689115494,168.11978689115494,168.11978689115494,168.11978689115494,168.11978689115494,168.11978689115494,168.11978689115494,168.11978689115494,168.11978689115494,l,2.720542021561414,10,152,0,170.87237141514197,172.3731729350984,172.3731729350984,172.8732874970883,,,,,,,,,,,,,,,,,,,,,,,,,,,,,,,,,,,,,,,,,,,,,,,,,,,,,,,,,,98412,2022-11-28_13h58.19.191,vts_reward_expectancy_bt_OFFLINE,2022.2.4,60.05075682412279,
1,0,0,0,0,0,1,0,triangle,hexagon,0,0,0,0,2,2,26,1,,,,,,,,,,,,,,,,,,,,,,,,,,,,,,,,,,,,,,,,172.8732874970883,172.8732874970883,172.8732874970883,172.8732874970883,172.8732874970883,172.8732874970883,172.8732874970883,172.8732874970883,172.8732874970883,172.8732874970883,l,2.2983475564979017,1,153,0,175.19189843395725,176.69261989416555,,,,,,,,,,,,,,,,,,,,,,,,,,,,,,,,,,,,,,,,,,,,,,,,,,,,,,,,,,,,98412,2022-11-28_13h58.19.191,vts_reward_expectancy_bt_OFFLINE,2022.2.4,60.05075682412279,
0,0,1,0,0,0,0,1,hexagon,star,0,0,0,0,2,3,27,8,,,,,,,,,,,,,,,,,,,,,,,,,,,,,,,,,,,,,,,,177.1933424412273,177.1933424412273,177.1933424412273,177.1933424412273,177.1933424412273,177.1933424412273,177.1933424412273,177.1933424412273,177.1933424412273,177.1933424412273,l,1.0383514454588294,10,163,0,178.26142542110756,179.76066871220246,,,,,,,,,,,,,,,,,,,,,,,,,,,,,,,,,,,,,,,,,,,,,,,,,,,,,,,,,,,,98412,2022-11-28_13h58.19.191,vts_reward_expectancy_bt_OFFLINE,2022.2.4,60.05075682412279,
0,0,0,1,0,0,1,0,star,hexagon,0,0,0,0,2,4,28,11,,,,,,,,,,,,,,,,,,,,,,,,,,,,,,,,,,,,,,,,180.26097704516724,180.26097704516724,180.26097704516724,180.26097704516724,180.26097704516724,180.26097704516724,180.26097704516724,180.26097704516724,180.26097704516724,180.26097704516724,l,1.8411173266358674,1,164,0,182.13140871888027,183.63057249598205,183.63057249598205,184.13071517227218,,,,,,,,,,,,,,,,,,,,,,,,,,,,,,,,,,,,,,,,,,,,,,,,,,,,,,,,,,98412,2022-11-28_13h58.19.191,vts_reward_expectancy_bt_OFFLINE,2022.2.4,60.05075682412279,
0,1,0,0,0,0,0,1,circle,star,0,0,0,0,2,5,29,5,,,,,,,,,,,,,,,,,,,,,,,,,,,,,,,,,,,,,,,,184.13071517227218,184.13071517227218,184.13071517227218,184.13071517227218,184.13071517227218,184.13071517227218,184.13071517227218,184.13071517227218,184.13071517227218,184.13071517227218,a,1.8422089698724449,10,174,0,186.00123342312872,187.50054166605696,187.50054166605696,188.00100139621645,,,,,,,,,,,,,,,,,,,,,,,,,,,,,,,,,,,,,,,,,,,,,,,,,,,,,,,,,,98412,2022-11-28_13h58.19.191,vts_reward_expectancy_bt_OFFLINE,2022.2.4,60.05075682412279,
0,1,0,0,1,0,0,0,circle,triangle,0,0,0,0,2,6,30,3,,,,,,,,,,,,,,,,,,,,,,,,,,,,,,,,,,,,,,,,188.00100139621645,188.00100139621645,188.00100139621645,188.00100139621645,188.00100139621645,188.00100139621645,188.00100139621645,188.00100139621645,188.00100139621645,188.00100139621645,a,1.4825147935189307,10,184,0,189.50121915293857,191.0036924239248,,,,,,,,,,,,,,,,,,,,,,,,,,,,,,,,,,,,,,,,,,,,,,,,,,,,,,,,,,,,98412,2022-11-28_13h58.19.191,vts_reward_expectancy_bt_OFFLINE,2022.2.4,60.05075682412279,
0,0,0,1,1,0,0,0,star,triangle,0,0,0,0,2,7,31,9,,,,,,,,,,,,,,,,,,,,,,,,,,,,,,,,,,,,,,,,191.50396158685908,191.50396158685908,191.50396158685908,191.50396158685908,191.50396158685908,191.50396158685908,191.50396158685908,191.50396158685908,191.50396158685908,191.50396158685908,l,1.2981960088945925,1,185,0,192.82242274284363,194.32153330603614,194.32153330603614,194.821480485145,,,,,,,,,,,,,,,,,,,,,,,,,,,,,,,,,,,,,,,,,,,,,,,,,,,,,,,,,,98412,2022-11-28_13h58.19.191,vts_reward_expectancy_bt_OFFLINE,2022.2.4,60.05075682412279,
0,0,1,0,0,1,0,0,hexagon,circle,0,0,0,0,2,8,32,7,,,,,,,,,,,,,,,,,,,,,,,,,,,,,,,,,,,,,,,,194.821480485145,194.821480485145,194.821480485145,194.821480485145,194.821480485145,194.821480485145,194.821480485145,194.821480485145,194.821480485145,194.821480485145,a,0.6016001938842237,10,195,0,195.45525926491246,196.95752997789532,,,,,,,,,,,,,,,,,,,,,,,,,,,,,,,,,,,,,,,,,,,,,,,,,,,,,,,,,,,,98412,2022-11-28_13h58.19.191,vts_reward_expectancy_bt_OFFLINE,2022.2.4,60.05075682412279,
0,0,0,1,0,1,0,0,star ,circle,0,0,0,0,2,9,33,10,,,,,,,,,,,,,,,,,,,,,,,,,,,,,,,,,,,,,,,,197.45780283492059,197.45780283492059,197.45780283492059,197.45780283492059,197.45780283492059,197.45780283492059,197.45780283492059,197.45780283492059,197.45780283492059,197.45780283492059,a,0.47365827206522226,10,205,0,197.95813715085387,199.45868309028447,199.45868309028447,,,,,,,,,,,,,,,,,,,,,,,,,,,,,,,,,,,,,,,,,,,,,,,,,,,,,,,,,,,98412,2022-11-28_13h58.19.191,vts_reward_expectancy_bt_OFFLINE,2022.2.4,60.05075682412279,
0,0,1,0,1,0,0,0,hexagon,triangle,0,0,0,0,2,10,34,6,,,,,,,,,,,,,,,,,,,,,,,,,,,,,,,,,,,,,,,,199.9586822022684,199.9586822022684,199.9586822022684,199.9586822022684,199.9586822022684,199.9586822022684,199.9586822022684,199.9586822022684,199.9586822022684,199.9586822022684,a,1.4831990841776133,1,206,0,201.4621426910162,202.96180365188047,202.96180365188047,,,,,,,,,,,,,,,,,,,,,,,,,,,,,,,,,,,,,,,,,,,,,,,,,,,,,,,,,,,98412,2022-11-28_13h58.19.191,vts_reward_expectancy_bt_OFFLINE,2022.2.4,60.05075682412279,
1,0,0,0,0,0,0,1,triangle,star,0,0,0,0,2,11,35,2,,,,,,,,,,,,,,,,,,,,,,,,,,,,,,,,,,,,,,,,203.46165549987927,203.46165549987927,203.46165549987927,203.46165549987927,203.46165549987927,203.46165549987927,203.46165549987927,203.46165549987927,203.46165549987927,203.46165549987927,l,0.8725016447715461,1,207,0,204.3621864351444,205.86452460987493,,,,,,,,,,,,,,,,,,,,,,,,,,,,,,,,,,,,,,,,,,,,,,,,,,,,,,,,,,,,98412,2022-11-28_13h58.19.191,vts_reward_expectancy_bt_OFFLINE,2022.2.4,60.05075682412279,
1,0,0,0,0,1,0,0,triangle,circle,0,0,0,0,3,0,36,0,,,,,,,,,,,,,,,,,,,,,,,,,,,,,,,,,,,,,,,,206.36480240616947,206.36480240616947,206.36480240616947,206.36480240616947,206.36480240616947,206.36480240616947,206.36480240616947,206.36480240616947,206.36480240616947,206.36480240616947,l,1.096105206757784,10,217,0,207.48286426393315,208.98227904830128,208.98227904830128,209.48239825526252,,,,,,,,,,,,,,,,,,,,,,,,,,,,,,,,,,,,,,,,,,,,,,,,,,,,,,,,,,98412,2022-11-28_13h58.19.191,vts_reward_expectancy_bt_OFFLINE,2022.2.4,60.05075682412279,
0,0,1,0,0,1,0,0,hexagon,circle,0,0,0,0,3,1,37,7,,,,,,,,,,,,,,,,,,,,,,,,,,,,,,,,,,,,,,,,209.48239825526252,209.48239825526252,209.48239825526252,209.48239825526252,209.48239825526252,209.48239825526252,209.48239825526252,209.48239825526252,209.48239825526252,209.48239825526252,a,0.982326767873019,10,227,0,210.48263170430437,211.9851327710785,,,,,,,,,,,,,,,,,,,,,,,,,,,,,,,,,,,,,,,,,,,,,,,,,,,,,,,,,,,,98412,2022-11-28_13h58.19.191,vts_reward_expectancy_bt_OFFLINE,2022.2.4,60.05075682412279,
0,0,1,0,1,0,0,0,hexagon,triangle,0,0,0,0,3,2,38,6,,,,,,,,,,,,,,,,,,,,,,,,,,,,,,,,,,,,,,,,212.4855436119251,212.4855436119251,212.4855436119251,212.4855436119251,212.4855436119251,212.4855436119251,212.4855436119251,212.4855436119251,212.4855436119251,212.4855436119251,a,0.9604114326648414,1,228,0,213.4701285851188,214.96961394930258,214.96961394930258,,,,,,,,,,,,,,,,,,,,,,,,,,,,,,,,,,,,,,,,,,,,,,,,,,,,,,,,,,,98412,2022-11-28_13h58.19.191,vts_reward_expectancy_bt_OFFLINE,2022.2.4,60.05075682412279,
0,1,0,0,0,0,0,1,circle,star,0,0,0,0,3,3,39,5,,,,,,,,,,,,,,,,,,,,,,,,,,,,,,,,,,,,,,,,215.4698460418731,215.4698460418731,215.4698460418731,215.4698460418731,215.4698460418731,215.4698460418731,215.4698460418731,215.4698460418731,215.4698460418731,215.4698460418731,l,1.3858301867730916,1,229,0,216.87228998029605,218.3728024768643,218.3728024768643,218.8729358902201,,,,,,,,,,,,,,,,,,,,,,,,,,,,,,,,,,,,,,,,,,,,,,,,,,,,,,,,,,98412,2022-11-28_13h58.19.191,vts_reward_expectancy_bt_OFFLINE,2022.2.4,60.05075682412279,
1,0,0,0,0,0,1,0,triangle,hexagon,0,0,0,0,3,4,40,1,,,,,,,,,,,,,,,,,,,,,,,,,,,,,,,,,,,,,,,,218.8729358902201,218.8729358902201,218.8729358902201,218.8729358902201,218.8729358902201,218.8729358902201,218.8729358902201,218.8729358902201,218.8729358902201,218.8729358902201,l,2.1672941287979484,1,230,0,221.05885568493977,222.55938638700172,222.55938638700172,223.05942084500566,,,,,,,,,,,,,,,,,,,,,,,,,,,,,,,,,,,,,,,,,,,,,,,,,,,,,,,,,,98412,2022-11-28_13h58.19.191,vts_reward_expectancy_bt_OFFLINE,2022.2.4,60.05075682412279,
0,1,0,0,0,0,1,0,circle,hexagon,0,0,0,0,3,5,41,4,,,,,,,,,,,,,,,,,,,,,,,,,,,,,,,,,,,,,,,,223.05942084500566,223.05942084500566,223.05942084500566,223.05942084500566,223.05942084500566,223.05942084500566,223.05942084500566,223.05942084500566,223.05942084500566,223.05942084500566,l,1.3339381250552833,10,240,0,224.41153702000156,225.91253373911604,,,,,,,,,,,,,,,,,,,,,,,,,,,,,,,,,,,,,,,,,,,,,,,,,,,,,,,,,,,,98412,2022-11-28_13h58.19.191,vts_reward_expectancy_bt_OFFLINE,2022.2.4,60.05075682412279,
1,0,0,0,0,0,0,1,triangle,star,0,0,0,0,3,6,42,2,,,,,,,,,,,,,,,,,,,,,,,,,,,,,,,,,,,,,,,,226.41255682799965,226.41255682799965,226.41255682799965,226.41255682799965,226.41255682799965,226.41255682799965,226.41255682799965,226.41255682799965,226.41255682799965,226.41255682799965,a,2.5704201059415936,1,241,0,229.01509759528562,230.53062413819134,,,,,,,,,,,,,,,,,,,,,,,,,,,,,,,,,,,,,,,,,,,,,,,,,,,,,,,,,,,,98412,2022-11-28_13h58.19.191,vts_reward_expectancy_bt_OFFLINE,2022.2.4,60.05075682412279,
0,0,0,1,0,0,1,0,star,hexagon,0,0,0,0,3,7,43,11,,,,,,,,,,,,,,,,,,,,,,,,,,,,,,,,,,,,,,,,231.01618435885757,231.01618435885757,231.01618435885757,231.01618435885757,231.01618435885757,231.01618435885757,231.01618435885757,231.01618435885757,231.01618435885757,231.01618435885757,a,1.2184145357459784,1,242,0,232.26664482802153,233.76733740093186,233.76733740093186,234.26709161419421,,,,,,,,,,,,,,,,,,,,,,,,,,,,,,,,,,,,,,,,,,,,,,,,,,,,,,,,,,98412,2022-11-28_13h58.19.191,vts_reward_expectancy_bt_OFFLINE,2022.2.4,60.05075682412279,
0,0,1,0,0,0,0,1,hexagon,star,0,0,0,0,3,8,44,8,,,,,,,,,,,,,,,,,,,,,,,,,,,,,,,,,,,,,,,,234.26709161419421,234.26709161419421,234.26709161419421,234.26709161419421,234.26709161419421,234.26709161419421,234.26709161419421,234.26709161419421,234.26709161419421,234.26709161419421,l,0.5888991327956319,10,252,0,234.8853131039068,236.3865255652927,,,,,,,,,,,,,,,,,,,,,,,,,,,,,,,,,,,,,,,,,,,,,,,,,,,,,,,,,,,,98412,2022-11-28_13h58.19.191,vts_reward_expectancy_bt_OFFLINE,2022.2.4,60.05075682412279,
0,1,0,0,1,0,0,0,circle,triangle,0,0,0,0,3,9,45,3,,,,,,,,,,,,,,,,,,,,,,,,,,,,,,,,,,,,,,,,236.88670180225745,236.88670180225745,236.88670180225745,236.88670180225745,236.88670180225745,236.88670180225745,236.88670180225745,236.88670180225745,236.88670180225745,236.88670180225745,l,0.6595371197909117,1,253,0,237.57197014102712,239.07072000205517,239.07072000205517,239.5710151810199,,,,,,,,,,,,,,,,,,,,,,,,,,,,,,,,,,,,,,,,,,,,,,,,,,,,,,,,,,98412,2022-11-28_13h58.19.191,vts_reward_expectancy_bt_OFFLINE,2022.2.4,60.05075682412279,
0,0,0,1,1,0,0,0,star,triangle,0,0,0,0,3,10,46,9,,,,,,,,,,,,,,,,,,,,,,,,,,,,,,,,,,,,,,,,239.5710151810199,239.5710151810199,239.5710151810199,239.5710151810199,239.5710151810199,239.5710151810199,239.5710151810199,239.5710151810199,239.5710151810199,239.5710151810199,a,0.7640741369687021,10,263,0,240.35559875098988,241.85691799595952,,,,,,,,,,,,,,,,,,,,,,,,,,,,,,,,,,,,,,,,,,,,,,,,,,,,,,,,,,,,98412,2022-11-28_13h58.19.191,vts_reward_expectancy_bt_OFFLINE,2022.2.4,60.05075682412279,
0,0,0,1,0,1,0,0,star ,circle,0,0,0,0,3,11,47,10,,,,,,,,,,,,,,,,,,,,,,,,,,,,,,,,,,,,,,,,242.35728882998228,242.35728882998228,242.35728882998228,242.35728882998228,242.35728882998228,242.35728882998228,242.35728882998228,242.35728882998228,242.35728882998228,242.35728882998228,l,1.2966161756776273,1,264,0,243.67567732185125,245.17506997287273,245.17506997287273,245.68228432396427,,,,,,,,,,,,,,,,,,,,,,,,,,,,,,,,,,,,,,,,,,,,,,,,,,,,,,,,,,98412,2022-11-28_13h58.19.191,vts_reward_expectancy_bt_OFFLINE,2022.2.4,60.05075682412279,
1,0,0,0,0,0,1,0,triangle,hexagon,1,0,1,0,0,0,0,1,,,,,,,,,,,,,,,,,,,,,,,,,,,,,,,,,,,,,,,,251.6249393792823,251.6249393792823,251.6249393792823,251.6249393792823,251.6249393792823,251.6249393792823,251.6249393792823,251.6249393792823,251.6249393792823,251.6249393792823,a,2.2904003458097577,10,274,1,253.93375746207312,255.4489133269526,,,,,,,,,,,,,,,,,,,,,,,,,,,,,,,,,,,,,,,,,,,,,,,,,,,,,,,,,,,,98412,2022-11-28_13h58.19.191,vts_reward_expectancy_bt_OFFLINE,2022.2.4,60.05075682412279,
0,0,0,1,0,0,1,0,star,hexagon,1,0,1,0,0,1,1,11,,,,,,,,,,,,,,,,,,,,,,,,,,,,,,,,,,,,,,,,255.93430309928954,255.93430309928954,255.93430309928954,255.93430309928954,255.93430309928954,255.93430309928954,255.93430309928954,255.93430309928954,255.93430309928954,255.93430309928954,l,1.0414089830592275,10,284,1,257.00138430297375,258.50168228009716,258.50168228009716,259.00204670708627,,,,,,,,,,,,,,,,,,,,,,,,,,,,,,,,,,,,,,,,,,,,,,,,,,,,,,,,,,98412,2022-11-28_13h58.19.191,vts_reward_expectancy_bt_OFFLINE,2022.2.4,60.05075682412279,
0,0,0,1,1,0,0,0,star,triangle,1,0,1,0,0,2,2,9,,,,,,,,,,,,,,,,,,,,,,,,,,,,,,,,,,,,,,,,259.00204670708627,259.00204670708627,259.00204670708627,259.00204670708627,259.00204670708627,259.00204670708627,259.00204670708627,259.00204670708627,259.00204670708627,259.00204670708627,l,0.7516710939817131,10,294,1,259.7855995320715,261.28805083828047,,,,,,,,,,,,,,,,,,,,,,,,,,,,,,,,,,,,,,,,,,,,,,,,,,,,,,,,,,,,98412,2022-11-28_13h58.19.191,vts_reward_expectancy_bt_OFFLINE,2022.2.4,60.05075682412279,
0,0,1,0,0,0,0,1,hexagon,star,1,0,1,0,0,3,3,8,,,,,,,,,,,,,,,,,,,,,,,,,,,,,,,,,,,,,,,,261.78830559225753,261.78830559225753,261.78830559225753,261.78830559225753,261.78830559225753,261.78830559225753,261.78830559225753,261.78830559225753,261.78830559225753,261.78830559225753,a,0.9361858135089278,10,304,1,262.7553714578971,264.25591310998425,264.25591310998425,264.755993551109,,,,,,,,,,,,,,,,,,,,,,,,,,,,,,,,,,,,,,,,,,,,,,,,,,,,,,,,,,98412,2022-11-28_13h58.19.191,vts_reward_expectancy_bt_OFFLINE,2022.2.4,60.05075682412279,
0,0,1,0,0,1,0,0,hexagon,circle,1,0,1,0,0,4,4,7,,,,,,,,,,,,,,,,,,,,,,,,,,,,,,,,,,,,,,,,264.755993551109,264.755993551109,264.755993551109,264.755993551109,264.755993551109,264.755993551109,264.755993551109,264.755993551109,264.755993551109,264.755993551109,a,1.3999429987743497,10,314,1,266.17529357317835,267.67520918603987,267.67520918603987,,,,,,,,,,,,,,,,,,,,,,,,,,,,,,,,,,,,,,,,,,,,,,,,,,,,,,,,,,,98412,2022-11-28_13h58.19.191,vts_reward_expectancy_bt_OFFLINE,2022.2.4,60.05075682412279,
0,0,0,1,0,1,0,0,star ,circle,1,0,1,0,0,5,5,10,,,,,,,,,,,,,,,,,,,,,,,,,,,,,,,,,,,,,,,,268.17555470904335,268.17555470904335,268.17555470904335,268.17555470904335,268.17555470904335,268.17555470904335,268.17555470904335,268.17555470904335,268.17555470904335,268.17555470904335,l,1.681711791548878,10,324,1,269.87629438284785,271.37870842497796,,,,,,,,,,,,,,,,,,,,,,,,,,,,,,,,,,,,,,,,,,,,,,,,,,,,,,,,,,,,98412,2022-11-28_13h58.19.191,vts_reward_expectancy_bt_OFFLINE,2022.2.4,60.05075682412279,
0,1,0,0,1,0,0,0,circle,triangle,1,0,1,0,0,6,6,3,,,,,,,,,,,,,,,,,,,,,,,,,,,,,,,,,,,,,,,,271.8790274662897,271.8790274662897,271.8790274662897,271.8790274662897,271.8790274662897,271.8790274662897,271.8790274662897,271.8790274662897,271.8790274662897,271.8790274662897,a,1.8480990761891007,1,325,1,273.74783679889515,275.26352513814345,,,,,,,,,,,,,,,,,,,,,,,,,,,,,,,,,,,,,,,,,,,,,,,,,,,,,,,,,,,,98412,2022-11-28_13h58.19.191,vts_reward_expectancy_bt_OFFLINE,2022.2.4,60.05075682412279,
1,0,0,0,0,0,0,1,triangle,star,1,0,1,0,0,7,7,2,,,,,,,,,,,,,,,,,,,,,,,,,,,,,,,,,,,,,,,,275.7573169572279,275.7573169572279,275.7573169572279,275.7573169572279,275.7573169572279,275.7573169572279,275.7573169572279,275.7573169572279,275.7573169572279,275.7573169572279,l,2.020398093853146,10,335,1,277.801231700927,279.31662469916046,,,,,,,,,,,,,,,,,,,,,,,,,,,,,,,,,,,,,,,,,,,,,,,,,,,,,,,,,,,,98412,2022-11-28_13h58.19.191,vts_reward_expectancy_bt_OFFLINE,2022.2.4,60.05075682412279,
0,1,0,0,0,0,1,0,circle,hexagon,1,0,1,0,0,8,8,4,,,,,,,,,,,,,,,,,,,,,,,,,,,,,,,,,,,,,,,,279.8170224749483,279.8170224749483,279.8170224749483,279.8170224749483,279.8170224749483,279.8170224749483,279.8170224749483,279.8170224749483,279.8170224749483,279.8170224749483,l,1.571256599854678,10,345,1,281.41940407594666,282.91986876307055,282.91986876307055,283.4199106581509,,,,,,,,,,,,,,,,,,,,,,,,,,,,,,,,,,,,,,,,,,,,,,,,,,,,,,,,,,98412,2022-11-28_13h58.19.191,vts_reward_expectancy_bt_OFFLINE,2022.2.4,60.05075682412279,
1,0,0,0,0,1,0,0,triangle,circle,1,0,1,0,0,9,9,0,,,,,,,,,,,,,,,,,,,,,,,,,,,,,,,,,,,,,,,,283.4199106581509,283.4199106581509,283.4199106581509,283.4199106581509,283.4199106581509,283.4199106581509,283.4199106581509,283.4199106581509,283.4199106581509,283.4199106581509,a,2.3458335949108005,1,346,1,285.7933222549036,287.30672939121723,,,,,,,,,,,,,,,,,,,,,,,,,,,,,,,,,,,,,,,,,,,,,,,,,,,,,,,,,,,,98412,2022-11-28_13h58.19.191,vts_reward_expectancy_bt_OFFLINE,2022.2.4,60.05075682412279,
0,1,0,0,0,0,0,1,circle,star,1,0,1,0,0,10,10,5,,,,,,,,,,,,,,,,,,,,,,,,,,,,,,,,,,,,,,,,287.8067843769677,287.8067843769677,287.8067843769677,287.8067843769677,287.8067843769677,287.8067843769677,287.8067843769677,287.8067843769677,287.8067843769677,287.8067843769677,a,4.449710019864142,1,347,1,292.27697519911453,293.7772541078739,293.7772541078739,294.2775397179648,,,,,,,,,,,,,,,,,,,,,,,,,,,,,,,,,,,,,,,,,,,,,,,,,,,,,,,,,,98412,2022-11-28_13h58.19.191,vts_reward_expectancy_bt_OFFLINE,2022.2.4,60.05075682412279,
0,0,1,0,1,0,0,0,hexagon,triangle,1,0,1,0,0,11,11,6,,,,,,,,,,,,,,,,,,,,,,,,,,,,,,,,,,,,,,,,294.2775397179648,294.2775397179648,294.2775397179648,294.2775397179648,294.2775397179648,294.2775397179648,294.2775397179648,294.2775397179648,294.2775397179648,294.2775397179648,a,2.0517823775298893,10,357,1,296.3491860581562,297.8642268059775,,,,,,,,,,,,,,,,,,,,,,,,,,,,,,,,,,,,,,,,,,,,,,,,,,,,,,,,,,,,98412,2022-11-28_13h58.19.191,vts_reward_expectancy_bt_OFFLINE,2022.2.4,60.05075682412279,
1,0,0,0,0,0,0,1,triangle,star,1,0,1,0,1,0,12,2,,,,,,,,,,,,,,,,,,,,,,,,,,,,,,,,,,,,,,,,298.36426964821294,298.36426964821294,298.36426964821294,298.36426964821294,298.36426964821294,298.36426964821294,298.36426964821294,298.36426964821294,298.36426964821294,298.36426964821294,l,0.5975015126168728,1,358,1,298.98234781390056,300.4818927538581,300.4818927538581,,,,,,,,,,,,,,,,,,,,,,,,,,,,,,,,,,,,,,,,,,,,,,,,,,,,,,,,,,,98412,2022-11-28_13h58.19.191,vts_reward_expectancy_bt_OFFLINE,2022.2.4,60.05075682412279,
1,0,0,0,0,0,1,0,triangle,hexagon,1,0,1,0,1,1,13,1,,,,,,,,,,,,,,,,,,,,,,,,,,,,,,,,,,,,,,,,300.98353441013023,300.98353441013023,300.98353441013023,300.98353441013023,300.98353441013023,300.98353441013023,300.98353441013023,300.98353441013023,300.98353441013023,300.98353441013023,a,0.5323351537808776,10,368,1,301.53539819596335,303.03460608189926,303.03460608189926,303.5343907061033,,,,,,,,,,,,,,,,,,,,,,,,,,,,,,,,,,,,,,,,,,,,,,,,,,,,,,,,,,98412,2022-11-28_13h58.19.191,vts_reward_expectancy_bt_OFFLINE,2022.2.4,60.05075682412279,
0,0,1,0,0,1,0,0,hexagon,circle,1,0,1,0,1,2,14,7,,,,,,,,,,,,,,,,,,,,,,,,,,,,,,,,,,,,,,,,303.5343907061033,303.5343907061033,303.5343907061033,303.5343907061033,303.5343907061033,303.5343907061033,303.5343907061033,303.5343907061033,303.5343907061033,303.5343907061033,a,0.917756465729326,10,378,1,304.4849757719785,305.98724538693205,,,,,,,,,,,,,,,,,,,,,,,,,,,,,,,,,,,,,,,,,,,,,,,,,,,,,,,,,,,,98412,2022-11-28_13h58.19.191,vts_reward_expectancy_bt_OFFLINE,2022.2.4,60.05075682412279,
0,0,1,0,1,0,0,0,hexagon,triangle,1,0,1,0,1,3,15,6,,,,,,,,,,,,,,,,,,,,,,,,,,,,,,,,,,,,,,,,306.48745697317645,306.48745697317645,306.48745697317645,306.48745697317645,306.48745697317645,306.48745697317645,306.48745697317645,306.48745697317645,306.48745697317645,306.48745697317645,a,3.7140297638252378,10,388,1,310.2220870149322,311.72453635325655,,,,,,,,,,,,,,,,,,,,,,,,,,,,,,,,,,,,,,,,,,,,,,,,,,,,,,,,,,,,98412,2022-11-28_13h58.19.191,vts_reward_expectancy_bt_OFFLINE,2022.2.4,60.05075682412279,
0,1,0,0,1,0,0,0,circle,triangle,1,0,1,0,1,4,16,3,,,,,,,,,,,,,,,,,,,,,,,,,,,,,,,,,,,,,,,,312.22478555794805,312.22478555794805,312.22478555794805,312.22478555794805,312.22478555794805,312.22478555794805,312.22478555794805,312.22478555794805,312.22478555794805,312.22478555794805,l,0.8344635446555912,1,389,1,313.09162438707426,314.5923929940909,314.5923929940909,315.092343011871,,,,,,,,,,,,,,,,,,,,,,,,,,,,,,,,,,,,,,,,,,,,,,,,,,,,,,,,,,98412,2022-11-28_13h58.19.191,vts_reward_expectancy_bt_OFFLINE,2022.2.4,60.05075682412279,
0,0,0,1,0,1,0,0,star ,circle,1,0,1,0,1,5,17,10,,,,,,,,,,,,,,,,,,,,,,,,,,,,,,,,,,,,,,,,315.092343011871,315.092343011871,315.092343011871,315.092343011871,315.092343011871,315.092343011871,315.092343011871,315.092343011871,315.092343011871,315.092343011871,a,0.7688647955656052,1,390,1,315.87790547823533,317.3784150122665,317.3784150122665,317.87846546201035,,,,,,,,,,,,,,,,,,,,,,,,,,,,,,,,,,,,,,,,,,,,,,,,,,,,,,,,,,98412,2022-11-28_13h58.19.191,vts_reward_expectancy_bt_OFFLINE,2022.2.4,60.05075682412279,
0,1,0,0,0,0,1,0,circle,hexagon,1,0,1,0,1,6,18,4,,,,,,,,,,,,,,,,,,,,,,,,,,,,,,,,,,,,,,,,317.87846546201035,317.87846546201035,317.87846546201035,317.87846546201035,317.87846546201035,317.87846546201035,317.87846546201035,317.87846546201035,317.87846546201035,317.87846546201035,l,1.0531895123422146,10,400,1,318.9638086068444,320.46310274116695,320.46310274116695,,,,,,,,,,,,,,,,,,,,,,,,,,,,,,,,,,,,,,,,,,,,,,,,,,,,,,,,,,,98412,2022-11-28_13h58.19.191,vts_reward_expectancy_bt_OFFLINE,2022.2.4,60.05075682412279,
0,0,0,1,1,0,0,0,star,triangle,1,0,1,0,1,7,19,9,,,,,,,,,,,,,,,,,,,,,,,,,,,,,,,,,,,,,,,,320.9650453343056,320.9650453343056,320.9650453343056,320.9650453343056,320.9650453343056,320.9650453343056,320.9650453343056,320.9650453343056,320.9650453343056,320.9650453343056,a,1.016551407519728,1,401,1,322.0002742302604,323.5160198318772,,,,,,,,,,,,,,,,,,,,,,,,,,,,,,,,,,,,,,,,,,,,,,,,,,,,,,,,,,,,98412,2022-11-28_13h58.19.191,vts_reward_expectancy_bt_OFFLINE,2022.2.4,60.05075682412279,
0,1,0,0,0,0,0,1,circle,star,1,0,1,0,1,8,20,5,,,,,,,,,,,,,,,,,,,,,,,,,,,,,,,,,,,,,,,,324.0159273361787,324.0159273361787,324.0159273361787,324.0159273361787,324.0159273361787,324.0159273361787,324.0159273361787,324.0159273361787,324.0159273361787,324.0159273361787,l,0.43985740467906,10,411,1,324.4844180899672,325.9852514802478,,,,,,,,,,,,,,,,,,,,,,,,,,,,,,,,,,,,,,,,,,,,,,,,,,,,,,,,,,,,98412,2022-11-28_13h58.19.191,vts_reward_expectancy_bt_OFFLINE,2022.2.4,60.05075682412279,
1,0,0,0,0,1,0,0,triangle,circle,1,0,1,0,1,9,21,0,,,,,,,,,,,,,,,,,,,,,,,,,,,,,,,,,,,,,,,,326.4852371690795,326.4852371690795,326.4852371690795,326.4852371690795,326.4852371690795,326.4852371690795,326.4852371690795,326.4852371690795,326.4852371690795,326.4852371690795,l,0.6479811617173254,10,421,1,327.15253655426204,328.65284447930753,328.65284447930753,329.15310438210145,,,,,,,,,,,,,,,,,,,,,,,,,,,,,,,,,,,,,,,,,,,,,,,,,,,,,,,,,,98412,2022-11-28_13h58.19.191,vts_reward_expectancy_bt_OFFLINE,2022.2.4,60.05075682412279,
0,0,0,1,0,0,1,0,star,hexagon,1,0,1,0,1,10,22,11,,,,,,,,,,,,,,,,,,,,,,,,,,,,,,,,,,,,,,,,329.15310438210145,329.15310438210145,329.15310438210145,329.15310438210145,329.15310438210145,329.15310438210145,329.15310438210145,329.15310438210145,329.15310438210145,329.15310438210145,a,0.4000812880694866,1,422,1,329.5719345919788,331.07234154315665,,,,,,,,,,,,,,,,,,,,,,,,,,,,,,,,,,,,,,,,,,,,,,,,,,,,,,,,,,,,98412,2022-11-28_13h58.19.191,vts_reward_expectancy_bt_OFFLINE,2022.2.4,60.05075682412279,
0,0,1,0,0,0,0,1,hexagon,star,1,0,1,0,1,11,23,8,,,,,,,,,,,,,,,,,,,,,,,,,,,,,,,,,,,,,,,,331.572327088099,331.572327088099,331.572327088099,331.572327088099,331.572327088099,331.572327088099,331.572327088099,331.572327088099,331.572327088099,331.572327088099,a,0.938832332380116,1,423,1,332.5394099242985,334.03984950715676,334.03984950715676,334.5400621308945,,,,,,,,,,,,,,,,,,,,,,,,,,,,,,,,,,,,,,,,,,,,,,,,,,,,,,,,,,98412,2022-11-28_13h58.19.191,vts_reward_expectancy_bt_OFFLINE,2022.2.4,60.05075682412279,
0,1,0,0,0,0,0,1,circle,star,1,0,1,0,2,0,24,5,,,,,,,,,,,,,,,,,,,,,,,,,,,,,,,,,,,,,,,,334.5400621308945,334.5400621308945,334.5400621308945,334.5400621308945,334.5400621308945,334.5400621308945,334.5400621308945,334.5400621308945,334.5400621308945,334.5400621308945,l,2.0668173478916287,1,424,1,336.6260234080255,338.12669374095276,338.12669374095276,338.62691956711933,,,,,,,,,,,,,,,,,,,,,,,,,,,,,,,,,,,,,,,,,,,,,,,,,,,,,,,,,,98412,2022-11-28_13h58.19.191,vts_reward_expectancy_bt_OFFLINE,2022.2.4,60.05075682412279,
0,0,1,0,1,0,0,0,hexagon,triangle,1,0,1,0,2,1,25,6,,,,,,,,,,,,,,,,,,,,,,,,,,,,,,,,,,,,,,,,338.62691956711933,338.62691956711933,338.62691956711933,338.62691956711933,338.62691956711933,338.62691956711933,338.62691956711933,338.62691956711933,338.62691956711933,338.62691956711933,a,1.1979730427265167,10,434,1,339.84562721289694,341.3462559701875,,,,,,,,,,,,,,,,,,,,,,,,,,,,,,,,,,,,,,,,,,,,,,,,,,,,,,,,,,,,98412,2022-11-28_13h58.19.191,vts_reward_expectancy_bt_OFFLINE,2022.2.4,60.05075682412279,
0,0,0,1,1,0,0,0,star,triangle,1,0,1,0,2,2,26,9,,,,,,,,,,,,,,,,,,,,,,,,,,,,,,,,,,,,,,,,341.84639493515715,341.84639493515715,341.84639493515715,341.84639493515715,341.84639493515715,341.84639493515715,341.84639493515715,341.84639493515715,341.84639493515715,341.84639493515715,a,0.5772825330495834,10,444,1,342.4466998730786,343.9472546451725,343.9472546451725,344.4474155539647,,,,,,,,,,,,,,,,,,,,,,,,,,,,,,,,,,,,,,,,,,,,,,,,,,,,,,,,,,98412,2022-11-28_13h58.19.191,vts_reward_expectancy_bt_OFFLINE,2022.2.4,60.05075682412279,
1,0,0,0,0,0,0,1,triangle,star,1,0,1,0,2,3,27,2,,,,,,,,,,,,,,,,,,,,,,,,,,,,,,,,,,,,,,,,344.4474155539647,344.4474155539647,344.4474155539647,344.4474155539647,344.4474155539647,344.4474155539647,344.4474155539647,344.4474155539647,344.4474155539647,344.4474155539647,a,1.1936445361934602,1,445,1,345.66617425205186,347.1669217408635,,,,,,,,,,,,,,,,,,,,,,,,,,,,,,,,,,,,,,,,,,,,,,,,,,,,,,,,,,,,98412,2022-11-28_13h58.19.191,vts_reward_expectancy_bt_OFFLINE,2022.2.4,60.05075682412279,
0,0,0,1,0,1,0,0,star ,circle,1,0,1,0,2,4,28,10,,,,,,,,,,,,,,,,,,,,,,,,,,,,,,,,,,,,,,,,347.66725605819374,347.66725605819374,347.66725605819374,347.66725605819374,347.66725605819374,347.66725605819374,347.66725605819374,347.66725605819374,347.66725605819374,347.66725605819374,l,5.567486789543182,1,446,1,353.2546049919911,354.75473866797984,354.75473866797984,355.25489086518064,,,,,,,,,,,,,,,,,,,,,,,,,,,,,,,,,,,,,,,,,,,,,,,,,,,,,,,,,,98412,2022-11-28_13h58.19.191,vts_reward_expectancy_bt_OFFLINE,2022.2.4,60.05075682412279,
0,1,0,0,0,0,1,0,circle,hexagon,1,0,1,0,2,5,29,4,,,,,,,,,,,,,,,,,,,,,,,,,,,,,,,,,,,,,,,,355.25489086518064,355.25489086518064,355.25489086518064,355.25489086518064,355.25489086518064,355.25489086518064,355.25489086518064,355.25489086518064,355.25489086518064,355.25489086518064,l,0.7137507479637861,1,447,1,355.9905347148888,357.4908990790136,357.4908990790136,357.99094542022794,,,,,,,,,,,,,,,,,,,,,,,,,,,,,,,,,,,,,,,,,,,,,,,,,,,,,,,,,,98412,2022-11-28_13h58.19.191,vts_reward_expectancy_bt_OFFLINE,2022.2.4,60.05075682412279,
0,0,1,0,0,0,0,1,hexagon,star,1,0,1,0,2,6,30,8,,,,,,,,,,,,,,,,,,,,,,,,,,,,,,,,,,,,,,,,357.99094542022794,357.99094542022794,357.99094542022794,357.99094542022794,357.99094542022794,357.99094542022794,357.99094542022794,357.99094542022794,357.99094542022794,357.99094542022794,l,0.8350890758447349,10,457,1,358.8584789200686,360.35871925298125,360.35871925298125,,,,,,,,,,,,,,,,,,,,,,,,,,,,,,,,,,,,,,,,,,,,,,,,,,,,,,,,,,,98412,2022-11-28_13h58.19.191,vts_reward_expectancy_bt_OFFLINE,2022.2.4,60.05075682412279,
1,0,0,0,0,0,1,0,triangle,hexagon,1,0,1,0,2,7,31,1,,,,,,,,,,,,,,,,,,,,,,,,,,,,,,,,,,,,,,,,360.86044298298657,360.86044298298657,360.86044298298657,360.86044298298657,360.86044298298657,360.86044298298657,360.86044298298657,360.86044298298657,360.86044298298657,360.86044298298657,l,0.9479311066679657,10,467,1,361.82751161186025,363.327923159115,363.327923159115,,,,,,,,,,,,,,,,,,,,,,,,,,,,,,,,,,,,,,,,,,,,,,,,,,,,,,,,,,,98412,2022-11-28_13h58.19.191,vts_reward_expectancy_bt_OFFLINE,2022.2.4,60.05075682412279,
0,0,0,1,0,0,1,0,star,hexagon,1,0,1,0,2,8,32,11,,,,,,,,,,,,,,,,,,,,,,,,,,,,,,,,,,,,,,,,363.82843513228,363.82843513228,363.82843513228,363.82843513228,363.82843513228,363.82843513228,363.82843513228,363.82843513228,363.82843513228,363.82843513228,a,0.8029933949001133,10,477,1,364.66204829420894,366.1643910179846,,,,,,,,,,,,,,,,,,,,,,,,,,,,,,,,,,,,,,,,,,,,,,,,,,,,,,,,,,,,98412,2022-11-28_13h58.19.191,vts_reward_expectancy_bt_OFFLINE,2022.2.4,60.05075682412279,
0,1,0,0,1,0,0,0,circle,triangle,1,0,1,0,2,9,33,3,,,,,,,,,,,,,,,,,,,,,,,,,,,,,,,,,,,,,,,,366.66462477389723,366.66462477389723,366.66462477389723,366.66462477389723,366.66462477389723,366.66462477389723,366.66462477389723,366.66462477389723,366.66462477389723,366.66462477389723,l,1.6455948720686138,1,478,1,368.33378213085234,369.849012688268,,,,,,,,,,,,,,,,,,,,,,,,,,,,,,,,,,,,,,,,,,,,,,,,,,,,,,,,,,,,98412,2022-11-28_13h58.19.191,vts_reward_expectancy_bt_OFFLINE,2022.2.4,60.05075682412279,
0,0,1,0,0,1,0,0,hexagon,circle,1,0,1,0,2,10,34,7,,,,,,,,,,,,,,,,,,,,,,,,,,,,,,,,,,,,,,,,370.3490408780053,370.3490408780053,370.3490408780053,370.3490408780053,370.3490408780053,370.3490408780053,370.3490408780053,370.3490408780053,370.3490408780053,370.3490408780053,a,1.9338557100854814,1,479,1,372.3019398660399,373.80241529410705,373.80241529410705,374.30243067024276,,,,,,,,,,,,,,,,,,,,,,,,,,,,,,,,,,,,,,,,,,,,,,,,,,,,,,,,,,98412,2022-11-28_13h58.19.191,vts_reward_expectancy_bt_OFFLINE,2022.2.4,60.05075682412279,
1,0,0,0,0,1,0,0,triangle,circle,1,0,1,0,2,11,35,0,,,,,,,,,,,,,,,,,,,,,,,,,,,,,,,,,,,,,,,,374.30243067024276,374.30243067024276,374.30243067024276,374.30243067024276,374.30243067024276,374.30243067024276,374.30243067024276,374.30243067024276,374.30243067024276,374.30243067024276,l,2.1766601246781647,1,480,1,376.50493459403515,378.00550617603585,378.00550617603585,378.5060146069154,,,,,,,,,,,,,,,,,,,,,,,,,,,,,,,,,,,,,,,,,,,,,,,,,,,,,,,,,,98412,2022-11-28_13h58.19.191,vts_reward_expectancy_bt_OFFLINE,2022.2.4,60.05075682412279,
0,0,1,0,0,1,0,0,hexagon,circle,1,0,1,0,3,0,36,7,,,,,,,,,,,,,,,,,,,,,,,,,,,,,,,,,,,,,,,,378.5060146069154,378.5060146069154,378.5060146069154,378.5060146069154,378.5060146069154,378.5060146069154,378.5060146069154,378.5060146069154,378.5060146069154,378.5060146069154,a,0.7629542164504528,10,490,1,379.29150483291596,380.80659611010924,,,,,,,,,,,,,,,,,,,,,,,,,,,,,,,,,,,,,,,,,,,,,,,,,,,,,,,,,,,,98412,2022-11-28_13h58.19.191,vts_reward_expectancy_bt_OFFLINE,2022.2.4,60.05075682412279,
1,0,0,0,0,0,0,1,triangle,star,1,0,1,0,3,1,37,2,,,,,,,,,,,,,,,,,,,,,,,,,,,,,,,,,,,,,,,,381.291872092057,381.291872092057,381.291872092057,381.291872092057,381.291872092057,381.291872092057,381.291872092057,381.291872092057,381.291872092057,381.291872092057,l,0.8118759044446051,1,491,1,382.1275276429951,383.642891488038,,,,,,,,,,,,,,,,,,,,,,,,,,,,,,,,,,,,,,,,,,,,,,,,,,,,,,,,,,,,98412,2022-11-28_13h58.19.191,vts_reward_expectancy_bt_OFFLINE,2022.2.4,60.05075682412279,
0,1,0,0,0,0,1,0,circle,hexagon,1,0,1,0,3,2,38,4,,,,,,,,,,,,,,,,,,,,,,,,,,,,,,,,,,,,,,,,384.14279814297333,384.14279814297333,384.14279814297333,384.14279814297333,384.14279814297333,384.14279814297333,384.14279814297333,384.14279814297333,384.14279814297333,384.14279814297333,l,0.8863432221114635,10,501,1,385.0605139271356,386.5621780259535,,,,,,,,,,,,,,,,,,,,,,,,,,,,,,,,,,,,,,,,,,,,,,,,,,,,,,,,,,,,98412,2022-11-28_13h58.19.191,vts_reward_expectancy_bt_OFFLINE,2022.2.4,60.05075682412279,
0,0,0,1,0,0,1,0,star,hexagon,1,0,1,0,3,3,39,11,,,,,,,,,,,,,,,,,,,,,,,,,,,,,,,,,,,,,,,,387.0627149268985,387.0627149268985,387.0627149268985,387.0627149268985,387.0627149268985,387.0627149268985,387.0627149268985,387.0627149268985,387.0627149268985,387.0627149268985,l,2.3198909098282456,10,511,1,389.41342279687524,390.9158812579699,,,,,,,,,,,,,,,,,,,,,,,,,,,,,,,,,,,,,,,,,,,,,,,,,,,,,,,,,,,,98412,2022-11-28_13h58.19.191,vts_reward_expectancy_bt_OFFLINE,2022.2.4,60.05075682412279,
0,0,0,1,1,0,0,0,star,triangle,1,0,1,0,3,4,40,9,,,,,,,,,,,,,,,,,,,,,,,,,,,,,,,,,,,,,,,,391.41579245217144,391.41579245217144,391.41579245217144,391.41579245217144,391.41579245217144,391.41579245217144,391.41579245217144,391.41579245217144,391.41579245217144,391.41579245217144,a,2.3667177739553154,10,521,1,393.80032770428807,395.30070299701765,395.30070299701765,395.8008186160587,,,,,,,,,,,,,,,,,,,,,,,,,,,,,,,,,,,,,,,,,,,,,,,,,,,,,,,,,,98412,2022-11-28_13h58.19.191,vts_reward_expectancy_bt_OFFLINE,2022.2.4,60.05075682412279,
0,0,1,0,1,0,0,0,hexagon,triangle,1,0,1,0,3,5,41,6,,,,,,,,,,,,,,,,,,,,,,,,,,,,,,,,,,,,,,,,395.8008186160587,395.8008186160587,395.8008186160587,395.8008186160587,395.8008186160587,395.8008186160587,395.8008186160587,395.8008186160587,395.8008186160587,395.8008186160587,l,0.5355697753839195,1,522,1,396.3552026259713,397.8700919901021,,,,,,,,,,,,,,,,,,,,,,,,,,,,,,,,,,,,,,,,,,,,,,,,,,,,,,,,,,,,98412,2022-11-28_13h58.19.191,vts_reward_expectancy_bt_OFFLINE,2022.2.4,60.05075682412279,
0,0,1,0,0,0,0,1,hexagon,star,1,0,1,0,3,6,42,8,,,,,,,,,,,,,,,,,,,,,,,,,,,,,,,,,,,,,,,,398.370420594234,398.370420594234,398.370420594234,398.370420594234,398.370420594234,398.370420594234,398.370420594234,398.370420594234,398.370420594234,398.370420594234,l,0.6323630926199257,1,523,1,399.0204243483022,400.5214157518931,400.5214157518931,,,,,,,,,,,,,,,,,,,,,,,,,,,,,,,,,,,,,,,,,,,,,,,,,,,,,,,,,,,98412,2022-11-28_13h58.19.191,vts_reward_expectancy_bt_OFFLINE,2022.2.4,60.05075682412279,
0,1,0,0,0,0,0,1,circle,star,1,0,1,0,3,7,43,5,,,,,,,,,,,,,,,,,,,,,,,,,,,,,,,,,,,,,,,,401.02332596387714,401.02332596387714,401.02332596387714,401.02332596387714,401.02332596387714,401.02332596387714,401.02332596387714,401.02332596387714,401.02332596387714,401.02332596387714,l,0.5448597907088697,1,524,1,401.5898900809698,403.0904000890441,403.0904000890441,,,,,,,,,,,,,,,,,,,,,,,,,,,,,,,,,,,,,,,,,,,,,,,,,,,,,,,,,,,98412,2022-11-28_13h58.19.191,vts_reward_expectancy_bt_OFFLINE,2022.2.4,60.05075682412279,
1,0,0,0,0,0,1,0,triangle,hexagon,1,0,1,0,3,8,44,1,,,,,,,,,,,,,,,,,,,,,,,,,,,,,,,,,,,,,,,,403.59054383123294,403.59054383123294,403.59054383123294,403.59054383123294,403.59054383123294,403.59054383123294,403.59054383123294,403.59054383123294,403.59054383123294,403.59054383123294,l,0.9250456099398434,1,525,1,404.5410600332543,406.0432128738612,,,,,,,,,,,,,,,,,,,,,,,,,,,,,,,,,,,,,,,,,,,,,,,,,,,,,,,,,,,,98412,2022-11-28_13h58.19.191,vts_reward_expectancy_bt_OFFLINE,2022.2.4,60.05075682412279,
0,0,0,1,0,1,0,0,star ,circle,1,0,1,0,3,9,45,10,,,,,,,,,,,,,,,,,,,,,,,,,,,,,,,,,,,,,,,,406.54353056196123,406.54353056196123,406.54353056196123,406.54353056196123,406.54353056196123,406.54353056196123,406.54353056196123,406.54353056196123,406.54353056196123,406.54353056196123,a,1.0208945367485285,1,526,1,407.5939948842861,409.0943672969006,409.0943672969006,,,,,,,,,,,,,,,,,,,,,,,,,,,,,,,,,,,,,,,,,,,,,,,,,,,,,,,,,,,98412,2022-11-28_13h58.19.191,vts_reward_expectancy_bt_OFFLINE,2022.2.4,60.05075682412279,
0,1,0,0,1,0,0,0,circle,triangle,1,0,1,0,3,10,46,3,,,,,,,,,,,,,,,,,,,,,,,,,,,,,,,,,,,,,,,,409.59464973118156,409.59464973118156,409.59464973118156,409.59464973118156,409.59464973118156,409.59464973118156,409.59464973118156,409.59464973118156,409.59464973118156,409.59464973118156,l,0.8836657055653632,10,536,1,410.49713572021574,411.9974328628741,,,,,,,,,,,,,,,,,,,,,,,,,,,,,,,,,,,,,,,,,,,,,,,,,,,,,,,,,,,,98412,2022-11-28_13h58.19.191,vts_reward_expectancy_bt_OFFLINE,2022.2.4,60.05075682412279,
1,0,0,0,0,1,0,0,triangle,circle,1,0,1,0,3,11,47,0,,,,,,,,,,,,,,,,,,,,,,,,,,,,,,,,,,,,,,,,412.4976436900906,412.4976436900906,412.4976436900906,412.4976436900906,412.4976436900906,412.4976436900906,412.4976436900906,412.4976436900906,412.4976436900906,412.4976436900906,l,1.3775618528015912,10,546,1,413.89827427919954,415.3986446559429,415.3986446559429,,,,,,,,,,,,,,,,,,,,,,,,,,,,,,,,,,,,,,,,,,,,,,,,,,,,,,,,,,,98412,2022-11-28_13h58.19.191,vts_reward_expectancy_bt_OFFLINE,2022.2.4,60.05075682412279,
0,0,0,1,0,1,0,0,star ,circle,2,0,2,0,0,0,0,10,,,,,,,,,,,,,,,,,,,,,,,,,,,,,,,,,,,,,,,,419.69836133206263,419.69836133206263,419.69836133206263,419.69836133206263,419.69836133206263,419.69836133206263,419.69836133206263,419.69836133206263,419.69836133206263,419.69836133206263,a,0.8485501105897129,10,556,2,420.56916345702484,422.07144602993503,,,,,,,,,,,,,,,,,,,,,,,,,,,,,,,,,,,,,,,,,,,,,,,,,,,,,,,,,,,,98412,2022-11-28_13h58.19.191,vts_reward_expectancy_bt_OFFLINE,2022.2.4,60.05075682412279,
0,1,0,0,1,0,0,0,circle,triangle,2,0,2,0,0,1,1,3,,,,,,,,,,,,,,,,,,,,,,,,,,,,,,,,,,,,,,,,422.5714356470853,422.5714356470853,422.5714356470853,422.5714356470853,422.5714356470853,422.5714356470853,422.5714356470853,422.5714356470853,422.5714356470853,422.5714356470853,l,0.9005354074761271,1,557,2,423.490832017269,425.00591539312154,,,,,,,,,,,,,,,,,,,,,,,,,,,,,,,,,,,,,,,,,,,,,,,,,,,,,,,,,,,,98412,2022-11-28_13h58.19.191,vts_reward_expectancy_bt_OFFLINE,2022.2.4,60.05075682412279,
0,1,0,0,0,0,1,0,circle,hexagon,2,0,2,0,0,2,2,4,,,,,,,,,,,,,,,,,,,,,,,,,,,,,,,,,,,,,,,,425.50593209592625,425.50593209592625,425.50593209592625,425.50593209592625,425.50593209592625,425.50593209592625,425.50593209592625,425.50593209592625,425.50593209592625,425.50593209592625,l,5.290995241608471,10,567,2,430.8284239829518,432.32874773908406,,,,,,,,,,,,,,,,,,,,,,,,,,,,,,,,,,,,,,,,,,,,,,,,,,,,,,,,,,,,98412,2022-11-28_13h58.19.191,vts_reward_expectancy_bt_OFFLINE,2022.2.4,60.05075682412279,
1,0,0,0,0,1,0,0,triangle,circle,2,0,2,0,0,3,3,0,,,,,,,,,,,,,,,,,,,,,,,,,,,,,,,,,,,,,,,,432.8290902408771,432.8290902408771,432.8290902408771,432.8290902408771,432.8290902408771,432.8290902408771,432.8290902408771,432.8290902408771,432.8290902408771,432.8290902408771,a,5.707301353570074,1,568,2,438.56790440389886,440.0832424550317,,,,,,,,,,,,,,,,,,,,,,,,,,,,,,,,,,,,,,,,,,,,,,,,,,,,,,,,,,,,98412,2022-11-28_13h58.19.191,vts_reward_expectancy_bt_OFFLINE,2022.2.4,60.05075682412279,
0,0,0,1,1,0,0,0,star,triangle,2,0,2,0,0,4,4,9,,,,,,,,,,,,,,,,,,,,,,,,,,,,,,,,,,,,,,,,440.58347378904,440.58347378904,440.58347378904,440.58347378904,440.58347378904,440.58347378904,440.58347378904,440.58347378904,440.58347378904,440.58347378904,l,1.1830666377209127,10,578,2,441.7876749741845,443.30314972111955,,,,,,,,,,,,,,,,,,,,,,,,,,,,,,,,,,,,,,,,,,,,,,,,,,,,,,,,,,,,98412,2022-11-28_13h58.19.191,vts_reward_expectancy_bt_OFFLINE,2022.2.4,60.05075682412279,
1,0,0,0,0,0,0,1,triangle,star,2,0,2,0,0,5,5,2,,,,,,,,,,,,,,,,,,,,,,,,,,,,,,,,,,,,,,,,443.80310461111367,443.80310461111367,443.80310461111367,443.80310461111367,443.80310461111367,443.80310461111367,443.80310461111367,443.80310461111367,443.80310461111367,443.80310461111367,l,1.4734762436710298,1,579,2,445.30601487727836,446.80627350509167,,,,,,,,,,,,,,,,,,,,,,,,,,,,,,,,,,,,,,,,,,,,,,,,,,,,,,,,,,,,98412,2022-11-28_13h58.19.191,vts_reward_expectancy_bt_OFFLINE,2022.2.4,60.05075682412279,
0,1,0,0,0,0,0,1,circle,star,2,0,2,0,0,6,6,5,,,,,,,,,,,,,,,,,,,,,,,,,,,,,,,,,,,,,,,,447.3063557110727,447.3063557110727,447.3063557110727,447.3063557110727,447.3063557110727,447.3063557110727,447.3063557110727,447.3063557110727,447.3063557110727,447.3063557110727,l,1.6482486999593675,1,580,2,448.9735282198526,450.47411962784827,450.47411962784827,,,,,,,,,,,,,,,,,,,,,,,,,,,,,,,,,,,,,,,,,,,,,,,,,,,,,,,,,,,98412,2022-11-28_13h58.19.191,vts_reward_expectancy_bt_OFFLINE,2022.2.4,60.05075682412279,
0,0,1,0,0,0,0,1,hexagon,star,2,0,2,0,0,7,7,8,,,,,,,,,,,,,,,,,,,,,,,,,,,,,,,,,,,,,,,,450.97610914707184,450.97610914707184,450.97610914707184,450.97610914707184,450.97610914707184,450.97610914707184,450.97610914707184,450.97610914707184,450.97610914707184,450.97610914707184,l,1.2429828359745443,1,581,2,452.24338217685,453.7436033352278,453.7436033352278,454.24391953414306,,,,,,,,,,,,,,,,,,,,,,,,,,,,,,,,,,,,,,,,,,,,,,,,,,,,,,,,,,98412,2022-11-28_13h58.19.191,vts_reward_expectancy_bt_OFFLINE,2022.2.4,60.05075682412279,
0,0,0,1,0,0,1,0,star,hexagon,2,0,2,0,0,8,8,11,,,,,,,,,,,,,,,,,,,,,,,,,,,,,,,,,,,,,,,,454.24391953414306,454.24391953414306,454.24391953414306,454.24391953414306,454.24391953414306,454.24391953414306,454.24391953414306,454.24391953414306,454.24391953414306,454.24391953414306,l,0.8196322405710816,1,582,2,455.09417745424435,456.59651943994686,,,,,,,,,,,,,,,,,,,,,,,,,,,,,,,,,,,,,,,,,,,,,,,,,,,,,,,,,,,,98412,2022-11-28_13h58.19.191,vts_reward_expectancy_bt_OFFLINE,2022.2.4,60.05075682412279,
0,0,1,0,0,1,0,0,hexagon,circle,2,0,2,0,0,9,9,7,,,,,,,,,,,,,,,,,,,,,,,,,,,,,,,,,,,,,,,,457.0970598650165,457.0970598650165,457.0970598650165,457.0970598650165,457.0970598650165,457.0970598650165,457.0970598650165,457.0970598650165,457.0970598650165,457.0970598650165,l,1.0729585578665137,1,583,2,458.19784756889567,459.6979463798925,459.6979463798925,460.19778534024954,,,,,,,,,,,,,,,,,,,,,,,,,,,,,,,,,,,,,,,,,,,,,,,,,,,,,,,,,,98412,2022-11-28_13h58.19.191,vts_reward_expectancy_bt_OFFLINE,2022.2.4,60.05075682412279,
1,0,0,0,0,0,1,0,triangle,hexagon,2,0,2,0,0,10,10,1,,,,,,,,,,,,,,,,,,,,,,,,,,,,,,,,,,,,,,,,460.19778534024954,460.19778534024954,460.19778534024954,460.19778534024954,460.19778534024954,460.19778534024954,460.19778534024954,460.19778534024954,460.19778534024954,460.19778534024954,l,0.8293398097157478,10,593,2,461.05198337323964,462.5672678812407,,,,,,,,,,,,,,,,,,,,,,,,,,,,,,,,,,,,,,,,,,,,,,,,,,,,,,,,,,,,98412,2022-11-28_13h58.19.191,vts_reward_expectancy_bt_OFFLINE,2022.2.4,60.05075682412279,
0,0,1,0,1,0,0,0,hexagon,triangle,2,0,2,0,0,11,11,6,,,,,,,,,,,,,,,,,,,,,,,,,,,,,,,,,,,,,,,,463.05052916612476,463.05052916612476,463.05052916612476,463.05052916612476,463.05052916612476,463.05052916612476,463.05052916612476,463.05052916612476,463.05052916612476,463.05052916612476,a,0.8788856803439558,10,603,2,463.9512828271836,465.4514922462404,465.4514922462404,,,,,,,,,,,,,,,,,,,,,,,,,,,,,,,,,,,,,,,,,,,,,,,,,,,,,,,,,,,98412,2022-11-28_13h58.19.191,vts_reward_expectancy_bt_OFFLINE,2022.2.4,60.05075682412279,
0,0,1,0,0,0,0,1,hexagon,star,2,0,2,0,1,0,12,8,,,,,,,,,,,,,,,,,,,,,,,,,,,,,,,,,,,,,,,,465.95382441207767,465.95382441207767,465.95382441207767,465.95382441207767,465.95382441207767,465.95382441207767,465.95382441207767,465.95382441207767,465.95382441207767,465.95382441207767,l,0.5633806455880404,10,613,2,466.5373325869441,468.0378286228515,468.0378286228515,,,,,,,,,,,,,,,,,,,,,,,,,,,,,,,,,,,,,,,,,,,,,,,,,,,,,,,,,,,98412,2022-11-28_13h58.19.191,vts_reward_expectancy_bt_OFFLINE,2022.2.4,60.05075682412279,
0,0,0,1,1,0,0,0,star,triangle,2,0,2,0,1,1,13,9,,,,,,,,,,,,,,,,,,,,,,,,,,,,,,,,,,,,,,,,468.5378907872364,468.5378907872364,468.5378907872364,468.5378907872364,468.5378907872364,468.5378907872364,468.5378907872364,468.5378907872364,468.5378907872364,468.5378907872364,a,0.679720486048609,10,623,2,469.23858912521973,470.7388021792285,470.7388021792285,,,,,,,,,,,,,,,,,,,,,,,,,,,,,,,,,,,,,,,,,,,,,,,,,,,,,,,,,,,98412,2022-11-28_13h58.19.191,vts_reward_expectancy_bt_OFFLINE,2022.2.4,60.05075682412279,
0,0,1,0,0,1,0,0,hexagon,circle,2,0,2,0,1,2,14,7,,,,,,,,,,,,,,,,,,,,,,,,,,,,,,,,,,,,,,,,471.2409136858769,471.2409136858769,471.2409136858769,471.2409136858769,471.2409136858769,471.2409136858769,471.2409136858769,471.2409136858769,471.2409136858769,471.2409136858769,a,0.6870971494354308,1,624,2,471.9601938012056,473.47489199694246,,,,,,,,,,,,,,,,,,,,,,,,,,,,,,,,,,,,,,,,,,,,,,,,,,,,,,,,,,,,98412,2022-11-28_13h58.19.191,vts_reward_expectancy_bt_OFFLINE,2022.2.4,60.05075682412279,
1,0,0,0,0,0,0,1,triangle,star,2,0,2,0,1,3,15,2,,,,,,,,,,,,,,,,,,,,,,,,,,,,,,,,,,,,,,,,473.9749702401459,473.9749702401459,473.9749702401459,473.9749702401459,473.9749702401459,473.9749702401459,473.9749702401459,473.9749702401459,473.9749702401459,473.9749702401459,l,1.159451770130545,10,634,2,475.161202122923,476.66094708815217,,,,,,,,,,,,,,,,,,,,,,,,,,,,,,,,,,,,,,,,,,,,,,,,,,,,,,,,,,,,98412,2022-11-28_13h58.19.191,vts_reward_expectancy_bt_OFFLINE,2022.2.4,60.05075682412279,
1,0,0,0,0,0,1,0,triangle,hexagon,2,0,2,0,1,4,16,1,,,,,,,,,,,,,,,,,,,,,,,,,,,,,,,,,,,,,,,,477.1614216272719,477.1614216272719,477.1614216272719,477.1614216272719,477.1614216272719,477.1614216272719,477.1614216272719,477.1614216272719,477.1614216272719,477.1614216272719,l,0.9219747479073703,10,644,2,478.1118906061165,479.6123093459755,479.6123093459755,480.11238632630557,,,,,,,,,,,,,,,,,,,,,,,,,,,,,,,,,,,,,,,,,,,,,,,,,,,,,,,,,,98412,2022-11-28_13h58.19.191,vts_reward_expectancy_bt_OFFLINE,2022.2.4,60.05075682412279,
0,1,0,0,0,0,0,1,circle,star,2,0,2,0,1,5,17,5,,,,,,,,,,,,,,,,,,,,,,,,,,,,,,,,,,,,,,,,480.11238632630557,480.11238632630557,480.11238632630557,480.11238632630557,480.11238632630557,480.11238632630557,480.11238632630557,480.11238632630557,480.11238632630557,480.11238632630557,l,0.8502464066259563,1,645,2,480.996370553039,482.49868569895625,,,,,,,,,,,,,,,,,,,,,,,,,,,,,,,,,,,,,,,,,,,,,,,,,,,,,,,,,,,,98412,2022-11-28_13h58.19.191,vts_reward_expectancy_bt_OFFLINE,2022.2.4,60.05075682412279,
0,0,0,1,0,1,0,0,star ,circle,2,0,2,0,1,6,18,10,,,,,,,,,,,,,,,,,,,,,,,,,,,,,,,,,,,,,,,,482.99866325827315,482.99866325827315,482.99866325827315,482.99866325827315,482.99866325827315,482.99866325827315,482.99866325827315,482.99866325827315,482.99866325827315,482.99866325827315,a,1.6774740256369114,1,646,2,484.69945665309206,486.201435781084,,,,,,,,,,,,,,,,,,,,,,,,,,,,,,,,,,,,,,,,,,,,,,,,,,,,,,,,,,,,98412,2022-11-28_13h58.19.191,vts_reward_expectancy_bt_OFFLINE,2022.2.4,60.05075682412279,
0,0,0,1,0,0,1,0,star,hexagon,2,0,2,0,1,7,19,11,,,,,,,,,,,,,,,,,,,,,,,,,,,,,,,,,,,,,,,,486.70170381013304,486.70170381013304,486.70170381013304,486.70170381013304,486.70170381013304,486.70170381013304,486.70170381013304,486.70170381013304,486.70170381013304,486.70170381013304,a,4.2187055186368525,1,647,2,490.941531076096,492.4558365261182,,,,,,,,,,,,,,,,,,,,,,,,,,,,,,,,,,,,,,,,,,,,,,,,,,,,,,,,,,,,98412,2022-11-28_13h58.19.191,vts_reward_expectancy_bt_OFFLINE,2022.2.4,60.05075682412279,
1,0,0,0,0,1,0,0,triangle,circle,2,0,2,0,1,8,20,0,,,,,,,,,,,,,,,,,,,,,,,,,,,,,,,,,,,,,,,,492.9559000222944,492.9559000222944,492.9559000222944,492.9559000222944,492.9559000222944,492.9559000222944,492.9559000222944,492.9559000222944,492.9559000222944,492.9559000222944,l,1.5980994417332113,10,657,2,494.5753709822893,496.07553341286257,,,,,,,,,,,,,,,,,,,,,,,,,,,,,,,,,,,,,,,,,,,,,,,,,,,,,,,,,,,,98412,2022-11-28_13h58.19.191,vts_reward_expectancy_bt_OFFLINE,2022.2.4,60.05075682412279,
0,1,0,0,1,0,0,0,circle,triangle,2,0,2,0,1,9,21,3,,,,,,,,,,,,,,,,,,,,,,,,,,,,,,,,,,,,,,,,496.5756069929339,496.5756069929339,496.5756069929339,496.5756069929339,496.5756069929339,496.5756069929339,496.5756069929339,496.5756069929339,496.5756069929339,496.5756069929339,l,0.9477535164915025,1,658,2,497.54522674996406,499.05978187406436,,,,,,,,,,,,,,,,,,,,,,,,,,,,,,,,,,,,,,,,,,,,,,,,,,,,,,,,,,,,98412,2022-11-28_13h58.19.191,vts_reward_expectancy_bt_OFFLINE,2022.2.4,60.05075682412279,
0,1,0,0,0,0,1,0,circle,hexagon,2,0,2,0,1,10,22,4,,,,,,,,,,,,,,,,,,,,,,,,,,,,,,,,,,,,,,,,499.5599179188721,499.5599179188721,499.5599179188721,499.5599179188721,499.5599179188721,499.5599179188721,499.5599179188721,499.5599179188721,499.5599179188721,499.5599179188721,l,1.3161549414508045,10,668,2,500.8964269119315,502.3963826550171,,,,,,,,,,,,,,,,,,,,,,,,,,,,,,,,,,,,,,,,,,,,,,,,,,,,,,,,,,,,98412,2022-11-28_13h58.19.191,vts_reward_expectancy_bt_OFFLINE,2022.2.4,60.05075682412279,
0,0,1,0,1,0,0,0,hexagon,triangle,2,0,2,0,1,11,23,6,,,,,,,,,,,,,,,,,,,,,,,,,,,,,,,,,,,,,,,,502.8965147328563,502.8965147328563,502.8965147328563,502.8965147328563,502.8965147328563,502.8965147328563,502.8965147328563,502.8965147328563,502.8965147328563,502.8965147328563,a,1.4558291053399444,1,669,2,504.38302115025,505.8976400522515,,,,,,,,,,,,,,,,,,,,,,,,,,,,,,,,,,,,,,,,,,,,,,,,,,,,,,,,,,,,98412,2022-11-28_13h58.19.191,vts_reward_expectancy_bt_OFFLINE,2022.2.4,60.05075682412279,
0,0,1,0,0,1,0,0,hexagon,circle,2,0,2,0,2,0,24,7,,,,,,,,,,,,,,,,,,,,,,,,,,,,,,,,,,,,,,,,506.3831062489189,506.3831062489189,506.3831062489189,506.3831062489189,506.3831062489189,506.3831062489189,506.3831062489189,506.3831062489189,506.3831062489189,506.3831062489189,l,2.3686965010128915,1,670,2,508.78353972826153,510.2844402482733,510.2844402482733,510.7842893600464,,,,,,,,,,,,,,,,,,,,,,,,,,,,,,,,,,,,,,,,,,,,,,,,,,,,,,,,,,98412,2022-11-28_13h58.19.191,vts_reward_expectancy_bt_OFFLINE,2022.2.4,60.05075682412279,
1,0,0,0,0,0,1,0,triangle,hexagon,2,0,2,0,2,1,25,1,,,,,,,,,,,,,,,,,,,,,,,,,,,,,,,,,,,,,,,,510.7842893600464,510.7842893600464,510.7842893600464,510.7842893600464,510.7842893600464,510.7842893600464,510.7842893600464,510.7842893600464,510.7842893600464,510.7842893600464,l,0.8702699695713818,10,680,2,511.6877807849087,513.1874025752768,513.1874025752768,513.6874834480695,,,,,,,,,,,,,,,,,,,,,,,,,,,,,,,,,,,,,,,,,,,,,,,,,,,,,,,,,,98412,2022-11-28_13h58.19.191,vts_reward_expectancy_bt_OFFLINE,2022.2.4,60.05075682412279,
0,0,0,1,0,0,1,0,star,hexagon,2,0,2,0,2,2,26,11,,,,,,,,,,,,,,,,,,,,,,,,,,,,,,,,,,,,,,,,513.6874834480695,513.6874834480695,513.6874834480695,513.6874834480695,513.6874834480695,513.6874834480695,513.6874834480695,513.6874834480695,513.6874834480695,513.6874834480695,l,1.690547893755138,10,690,2,515.4050608370453,516.9070745031349,,,,,,,,,,,,,,,,,,,,,,,,,,,,,,,,,,,,,,,,,,,,,,,,,,,,,,,,,,,,98412,2022-11-28_13h58.19.191,vts_reward_expectancy_bt_OFFLINE,2022.2.4,60.05075682412279,
1,0,0,0,0,1,0,0,triangle,circle,2,0,2,0,2,3,27,0,,,,,,,,,,,,,,,,,,,,,,,,,,,,,,,,,,,,,,,,517.4071951811202,517.4071951811202,517.4071951811202,517.4071951811202,517.4071951811202,517.4071951811202,517.4071951811202,517.4071951811202,517.4071951811202,517.4071951811202,a,1.4264412787742913,1,691,2,518.8603075700812,520.3747319933027,,,,,,,,,,,,,,,,,,,,,,,,,,,,,,,,,,,,,,,,,,,,,,,,,,,,,,,,,,,,98412,2022-11-28_13h58.19.191,vts_reward_expectancy_bt_OFFLINE,2022.2.4,60.05075682412279,
0,0,1,0,1,0,0,0,hexagon,triangle,2,0,2,0,2,4,28,6,,,,,,,,,,,,,,,,,,,,,,,,,,,,,,,,,,,,,,,,520.8585191871971,520.8585191871971,520.8585191871971,520.8585191871971,520.8585191871971,520.8585191871971,520.8585191871971,520.8585191871971,520.8585191871971,520.8585191871971,a,2.935052588582039,10,701,2,523.8141854838468,525.328688853886,,,,,,,,,,,,,,,,,,,,,,,,,,,,,,,,,,,,,,,,,,,,,,,,,,,,,,,,,,,,98412,2022-11-28_13h58.19.191,vts_reward_expectancy_bt_OFFLINE,2022.2.4,60.05075682412279,
0,0,0,1,1,0,0,0,star,triangle,2,0,2,0,2,5,29,9,,,,,,,,,,,,,,,,,,,,,,,,,,,,,,,,,,,,,,,,525.8287082361057,525.8287082361057,525.8287082361057,525.8287082361057,525.8287082361057,525.8287082361057,525.8287082361057,525.8287082361057,525.8287082361057,525.8287082361057,l,1.35108198877424,10,711,2,527.1980897393078,528.6982980160974,528.6982980160974,529.1985982232727,,,,,,,,,,,,,,,,,,,,,,,,,,,,,,,,,,,,,,,,,,,,,,,,,,,,,,,,,,98412,2022-11-28_13h58.19.191,vts_reward_expectancy_bt_OFFLINE,2022.2.4,60.05075682412279,
0,1,0,0,0,0,1,0,circle,hexagon,2,0,2,0,2,6,30,4,,,,,,,,,,,,,,,,,,,,,,,,,,,,,,,,,,,,,,,,529.1985982232727,529.1985982232727,529.1985982232727,529.1985982232727,529.1985982232727,529.1985982232727,529.1985982232727,529.1985982232727,529.1985982232727,529.1985982232727,l,2.201214742846787,10,721,2,531.4182731509209,532.9182375362143,532.9182375362143,,,,,,,,,,,,,,,,,,,,,,,,,,,,,,,,,,,,,,,,,,,,,,,,,,,,,,,,,,,98412,2022-11-28_13h58.19.191,vts_reward_expectancy_bt_OFFLINE,2022.2.4,60.05075682412279,
0,1,0,0,1,0,0,0,circle,triangle,2,0,2,0,2,7,31,3,,,,,,,,,,,,,,,,,,,,,,,,,,,,,,,,,,,,,,,,533.4184279711917,533.4184279711917,533.4184279711917,533.4184279711917,533.4184279711917,533.4184279711917,533.4184279711917,533.4184279711917,533.4184279711917,533.4184279711917,l,2.470136848744005,10,731,2,535.9190878989175,537.4220107882284,,,,,,,,,,,,,,,,,,,,,,,,,,,,,,,,,,,,,,,,,,,,,,,,,,,,,,,,,,,,98412,2022-11-28_13h58.19.191,vts_reward_expectancy_bt_OFFLINE,2022.2.4,60.05075682412279,
0,0,0,1,0,1,0,0,star ,circle,2,0,2,0,2,8,32,10,,,,,,,,,,,,,,,,,,,,,,,,,,,,,,,,,,,,,,,,537.9221259402111,537.9221259402111,537.9221259402111,537.9221259402111,537.9221259402111,537.9221259402111,537.9221259402111,537.9221259402111,537.9221259402111,537.9221259402111,a,0.9924713666550815,10,741,2,538.9393793609925,540.4395357500762,540.4395357500762,540.9370395359583,,,,,,,,,,,,,,,,,,,,,,,,,,,,,,,,,,,,,,,,,,,,,,,,,,,,,,,,,,98412,2022-11-28_13h58.19.191,vts_reward_expectancy_bt_OFFLINE,2022.2.4,60.05075682412279,
0,0,1,0,0,0,0,1,hexagon,star,2,0,2,0,2,9,33,8,,,,,,,,,,,,,,,,,,,,,,,,,,,,,,,,,,,,,,,,540.9370395359583,540.9370395359583,540.9370395359583,540.9370395359583,540.9370395359583,540.9370395359583,540.9370395359583,540.9370395359583,540.9370395359583,540.9370395359583,l,0.902335680089891,1,742,2,541.8610355099663,543.3757699350826,,,,,,,,,,,,,,,,,,,,,,,,,,,,,,,,,,,,,,,,,,,,,,,,,,,,,,,,,,,,98412,2022-11-28_13h58.19.191,vts_reward_expectancy_bt_OFFLINE,2022.2.4,60.05075682412279,
1,0,0,0,0,0,0,1,triangle,star,2,0,2,0,2,10,34,2,,,,,,,,,,,,,,,,,,,,,,,,,,,,,,,,,,,,,,,,543.8757696379907,543.8757696379907,543.8757696379907,543.8757696379907,543.8757696379907,543.8757696379907,543.8757696379907,543.8757696379907,543.8757696379907,543.8757696379907,a,1.6430445164442062,1,743,2,545.543768464122,547.0455455072224,,,,,,,,,,,,,,,,,,,,,,,,,,,,,,,,,,,,,,,,,,,,,,,,,,,,,,,,,,,,98412,2022-11-28_13h58.19.191,vts_reward_expectancy_bt_OFFLINE,2022.2.4,60.05075682412279,
0,1,0,0,0,0,0,1,circle,star,2,0,2,0,2,11,35,5,,,,,,,,,,,,,,,,,,,,,,,,,,,,,,,,,,,,,,,,547.5457836869173,547.5457836869173,547.5457836869173,547.5457836869173,547.5457836869173,547.5457836869173,547.5457836869173,547.5457836869173,547.5457836869173,547.5457836869173,l,0.5262683457694948,1,744,2,548.097087835893,549.5965281771496,549.5965281771496,550.0967887481675,,,,,,,,,,,,,,,,,,,,,,,,,,,,,,,,,,,,,,,,,,,,,,,,,,,,,,,,,,98412,2022-11-28_13h58.19.191,vts_reward_expectancy_bt_OFFLINE,2022.2.4,60.05075682412279,
0,0,0,1,0,0,1,0,star,hexagon,2,0,2,0,3,0,36,11,,,,,,,,,,,,,,,,,,,,,,,,,,,,,,,,,,,,,,,,550.0967887481675,550.0967887481675,550.0967887481675,550.0967887481675,550.0967887481675,550.0967887481675,550.0967887481675,550.0967887481675,550.0967887481675,550.0967887481675,l,0.46286860993131995,10,754,2,550.5828322130255,552.0827805479057,,,,,,,,,,,,,,,,,,,,,,,,,,,,,,,,,,,,,,,,,,,,,,,,,,,,,,,,,,,,98412,2022-11-28_13h58.19.191,vts_reward_expectancy_bt_OFFLINE,2022.2.4,60.05075682412279,
1,0,0,0,0,0,1,0,triangle,hexagon,2,0,2,0,3,1,37,1,,,,,,,,,,,,,,,,,,,,,,,,,,,,,,,,,,,,,,,,552.5828007282689,552.5828007282689,552.5828007282689,552.5828007282689,552.5828007282689,552.5828007282689,552.5828007282689,552.5828007282689,552.5828007282689,552.5828007282689,l,0.6429162197746336,10,764,2,553.2504215179943,554.750234011095,554.750234011095,555.2501622019336,,,,,,,,,,,,,,,,,,,,,,,,,,,,,,,,,,,,,,,,,,,,,,,,,,,,,,,,,,98412,2022-11-28_13h58.19.191,vts_reward_expectancy_bt_OFFLINE,2022.2.4,60.05075682412279,
0,0,1,0,0,0,0,1,hexagon,star,2,0,2,0,3,2,38,8,,,,,,,,,,,,,,,,,,,,,,,,,,,,,,,,,,,,,,,,555.2501622019336,555.2501622019336,555.2501622019336,555.2501622019336,555.2501622019336,555.2501622019336,555.2501622019336,555.2501622019336,555.2501622019336,555.2501622019336,a,0.3489450546912849,1,765,2,555.6197115201503,557.1194123779424,,,,,,,,,,,,,,,,,,,,,,,,,,,,,,,,,,,,,,,,,,,,,,,,,,,,,,,,,,,,98412,2022-11-28_13h58.19.191,vts_reward_expectancy_bt_OFFLINE,2022.2.4,60.05075682412279,
1,0,0,0,0,1,0,0,triangle,circle,2,0,2,0,3,3,39,0,,,,,,,,,,,,,,,,,,,,,,,,,,,,,,,,,,,,,,,,557.6197862611152,557.6197862611152,557.6197862611152,557.6197862611152,557.6197862611152,557.6197862611152,557.6197862611152,557.6197862611152,557.6197862611152,557.6197862611152,l,0.8929772437550128,10,775,2,558.5389786129817,560.0541958268732,,,,,,,,,,,,,,,,,,,,,,,,,,,,,,,,,,,,,,,,,,,,,,,,,,,,,,,,,,,,98412,2022-11-28_13h58.19.191,vts_reward_expectancy_bt_OFFLINE,2022.2.4,60.05075682412279,
0,1,0,0,1,0,0,0,circle,triangle,2,0,2,0,3,4,40,3,,,,,,,,,,,,,,,,,,,,,,,,,,,,,,,,,,,,,,,,560.554371075239,560.554371075239,560.554371075239,560.554371075239,560.554371075239,560.554371075239,560.554371075239,560.554371075239,560.554371075239,560.554371075239,l,0.3665733188390732,1,776,2,560.9408448040485,562.4399382472038,,,,,,,,,,,,,,,,,,,,,,,,,,,,,,,,,,,,,,,,,,,,,,,,,,,,,,,,,,,,98412,2022-11-28_13h58.19.191,vts_reward_expectancy_bt_OFFLINE,2022.2.4,60.05075682412279,
1,0,0,0,0,0,0,1,triangle,star,2,0,2,0,3,5,41,2,,,,,,,,,,,,,,,,,,,,,,,,,,,,,,,,,,,,,,,,562.9400970069692,562.9400970069692,562.9400970069692,562.9400970069692,562.9400970069692,562.9400970069692,562.9400970069692,562.9400970069692,562.9400970069692,562.9400970069692,l,1.1527355588041246,10,786,2,564.1251670271158,565.6243223831989,565.6243223831989,566.1267851032317,,,,,,,,,,,,,,,,,,,,,,,,,,,,,,,,,,,,,,,,,,,,,,,,,,,,,,,,,,98412,2022-11-28_13h58.19.191,vts_reward_expectancy_bt_OFFLINE,2022.2.4,60.05075682412279,
0,1,0,0,0,0,1,0,circle,hexagon,2,0,2,0,3,6,42,4,,,,,,,,,,,,,,,,,,,,,,,,,,,,,,,,,,,,,,,,566.1267851032317,566.1267851032317,566.1267851032317,566.1267851032317,566.1267851032317,566.1267851032317,566.1267851032317,566.1267851032317,566.1267851032317,566.1267851032317,a,1.1168107916601002,1,787,2,567.2634236081503,568.7774340170436,,,,,,,,,,,,,,,,,,,,,,,,,,,,,,,,,,,,,,,,,,,,,,,,,,,,,,,,,,,,98412,2022-11-28_13h58.19.191,vts_reward_expectancy_bt_OFFLINE,2022.2.4,60.05075682412279,
0,0,0,1,1,0,0,0,star,triangle,2,0,2,0,3,7,43,9,,,,,,,,,,,,,,,,,,,,,,,,,,,,,,,,,,,,,,,,569.2775252652355,569.2775252652355,569.2775252652355,569.2775252652355,569.2775252652355,569.2775252652355,569.2775252652355,569.2775252652355,569.2775252652355,569.2775252652355,l,1.0491148177534342,10,797,2,570.3473075660877,571.8468868578784,,,,,,,,,,,,,,,,,,,,,,,,,,,,,,,,,,,,,,,,,,,,,,,,,,,,,,,,,,,,98412,2022-11-28_13h58.19.191,vts_reward_expectancy_bt_OFFLINE,2022.2.4,60.05075682412279,
0,0,1,0,1,0,0,0,hexagon,triangle,2,0,2,0,3,8,44,6,,,,,,,,,,,,,,,,,,,,,,,,,,,,,,,,,,,,,,,,572.3470525662415,572.3470525662415,572.3470525662415,572.3470525662415,572.3470525662415,572.3470525662415,572.3470525662415,572.3470525662415,572.3470525662415,572.3470525662415,a,1.2197290118783712,1,798,2,573.5992676480673,575.0982293430716,575.0982293430716,575.5983731150627,,,,,,,,,,,,,,,,,,,,,,,,,,,,,,,,,,,,,,,,,,,,,,,,,,,,,,,,,,98412,2022-11-28_13h58.19.191,vts_reward_expectancy_bt_OFFLINE,2022.2.4,60.05075682412279,
0,0,0,1,0,1,0,0,star ,circle,2,0,2,0,3,9,45,10,,,,,,,,,,,,,,,,,,,,,,,,,,,,,,,,,,,,,,,,575.5983731150627,575.5983731150627,575.5983731150627,575.5983731150627,575.5983731150627,575.5983731150627,575.5983731150627,575.5983731150627,575.5983731150627,575.5983731150627,l,2.086201212834567,10,808,2,577.7043730830774,579.2183510181494,,,,,,,,,,,,,,,,,,,,,,,,,,,,,,,,,,,,,,,,,,,,,,,,,,,,,,,,,,,,98412,2022-11-28_13h58.19.191,vts_reward_expectancy_bt_OFFLINE,2022.2.4,60.05075682412279,
0,0,1,0,0,1,0,0,hexagon,circle,2,0,2,0,3,10,46,7,,,,,,,,,,,,,,,,,,,,,,,,,,,,,,,,,,,,,,,,579.7183978399262,579.7183978399262,579.7183978399262,579.7183978399262,579.7183978399262,579.7183978399262,579.7183978399262,579.7183978399262,579.7183978399262,579.7183978399262,l,1.1604876895435154,10,818,2,580.9028851240873,582.4043700681068,,,,,,,,,,,,,,,,,,,,,,,,,,,,,,,,,,,,,,,,,,,,,,,,,,,,,,,,,,,,98412,2022-11-28_13h58.19.191,vts_reward_expectancy_bt_OFFLINE,2022.2.4,60.05075682412279,
0,1,0,0,0,0,0,1,circle,star,2,0,2,0,3,11,47,5,,,,,,,,,,,,,,,,,,,,,,,,,,,,,,,,,,,,,,,,582.9047821182758,582.9047821182758,582.9047821182758,582.9047821182758,582.9047821182758,582.9047821182758,582.9047821182758,582.9047821182758,582.9047821182758,582.9047821182758,a,1.8556084027513862,10,828,2,584.7892486802302,586.2910424759611,,,,,,,,,,,,,,,,,,,,,,,,,,,,,,,,,,,,,,,,,,,,,,,,,,,,,,,,,,,,98412,2022-11-28_13h58.19.191,vts_reward_expectancy_bt_OFFLINE,2022.2.4,60.05075682412279,
,,,,,,,,,,,,,,,,,,0,0,0,0,0,0,0,0,,,,,,,,,,,,,,,,,,,,,,,,,,,,,,,,,,,,,,,,,,,,,,,,619.5140951010399,,,146,B,star,0.0009584361687302589,614.8404318778776,616.3297451781109,616.3297451781109,616.3297451781109,1,0,d,1.6431458829902112,0,618.0002999342978,,,,,,,,,,,,,,,,,,,,,,,,,,,,,,,,,,,,,,,,,,,,98412,2022-11-28_13h58.19.191,vts_reward_expectancy_bt_OFFLINE,2022.2.4,60.05075682412279,
,,,,,,,,,,,,,,,,,,0,0,0,0,1,0,1,0,,,,,,,,,,,,,,,,,,,,,,,,,,,,,,,,,,,,,,,,,,,,,,,,624.1843706429936,,,174,U,triangle,0.016758835408836603,620.5109028052539,621.9835323300213,621.9835323300213,621.9835323300213,1,0,f,0.6809373497962952,0,622.6844563432969,624.1843706429936,,,,,,,,,,,,,,,,,,,,,,,,,,,,,,,,,,,,,,,,,,,98412,2022-11-28_13h58.19.191,vts_reward_expectancy_bt_OFFLINE,2022.2.4,60.05075682412279,
,,,,,,,,,,,,,,,,,,0,0,0,0,2,0,2,0,,,,,,,,,,,,,,,,,,,,,,,,,,,,,,,,,,,,,,,,,,,,,,,,628.8043334009126,,629.3046389222145,181,D,circle,0.0005932040512561798,625.1807970930822,626.6699326750822,626.6699326750822,626.6699326750822,1,0,f,0.6070248098112643,0,627.3049047579989,628.8043334009126,,,,,,,,,,,,,,,,,,,,,,,,,,,,,,,,,,,,,,,,,,,98412,2022-11-28_13h58.19.191,vts_reward_expectancy_bt_OFFLINE,2022.2.4,60.05075682412279,
,,,,,,,,,,,,,,,,,,0,0,0,0,3,0,3,0,,,,,,,,,,,,,,,,,,,,,,,,,,,,,,,,,,,,,,,,,,,,,,,,633.4913709992543,,,167,Y,hexagon,0.0004158192314207554,629.8006344242021,631.2904668720439,631.2904668720439,631.2904668720439,1,0,f,0.6773142809979618,0,631.9915673309006,633.4913709992543,,,,,,,,,,,,,,,,,,,,,,,,,,,,,,,,,,,,,,,,,,,98412,2022-11-28_13h58.19.191,vts_reward_expectancy_bt_OFFLINE,2022.2.4,60.05075682412279,
,,,,,,,,,,,,,,,,,,0,0,0,0,4,0,4,0,,,,,,,,,,,,,,,,,,,,,,,,,,,,,,,,,,,,,,,,,,,,,,,,638.1114458660595,,,125,H,star,0.00038631539791822433,634.4878653129563,635.9754059552215,635.9754059552215,635.9754059552215,1,0,d,0.5947035397402942,0,636.5957981031388,,,,,,,,,,,,,,,,,,,,,,,,,,,,,,,,,,,,,,,,,,,,98412,2022-11-28_13h58.19.191,vts_reward_expectancy_bt_OFFLINE,2022.2.4,60.05075682412279,
,,,,,,,,,,,,,,,,,,0,0,0,0,5,0,5,0,,,,,,,,,,,,,,,,,,,,,,,,,,,,,,,,,,,,,,,,,,,,,,,,642.7480874098837,,,132,W,hexagon,0.01640964625403285,639.1073066568933,640.5791207882576,640.5791207882576,640.5791207882576,1,0,d,0.6478862487711012,0,641.2486790311523,642.7480874098837,,,,,,,,,,,,,,,,,,,,,,,,,,,,,,,,,,,,,,,,,,,98412,2022-11-28_13h58.19.191,vts_reward_expectancy_bt_OFFLINE,2022.2.4,60.05075682412279,
,,,,,,,,,,,,,,,,,,0,0,0,0,6,0,6,0,,,,,,,,,,,,,,,,,,,,,,,,,,,,,,,,,,,,,,,,,,,,,,,,647.4683596491814,,,139,F,triangle,0.00036130379885435104,643.744481198024,645.2324608638883,645.2324608638883,645.2324608638883,1,0,d,0.7083959761075675,0,645.9674356351607,,,,,,,,,,,,,,,,,,,,,,,,,,,,,,,,,,,,,,,,,,,,98412,2022-11-28_13h58.19.191,vts_reward_expectancy_bt_OFFLINE,2022.2.4,60.05075682412279,
,,,,,,,,,,,,,,,,,,0,0,0,0,7,0,7,0,,,,,,,,,,,,,,,,,,,,,,,,,,,,,,,,,,,,,,,,,,,,,,,,652.0051843510009,,,160,S,circle,0.001957280095666647,648.4642332331277,649.952541643288,649.952541643288,649.952541643288,1,0,f,0.5337341846898198,0,650.504117440898,,,,,,,,,,,,,,,,,,,,,,,,,,,,,,,,,,,,,,,,,,,,98412,2022-11-28_13h58.19.191,vts_reward_expectancy_bt_OFFLINE,2022.2.4,60.05075682412279,
,,,,,,,,,,,,,,,,,,0,0,0,0,8,0,8,0,,,,,,,,,,,,,,,,,,,,,,,,,,,,,,,,,,,,,,,,,,,,,,,,657.3758285101503,,,146,B,hexagon,0.0017023389227688313,653.000825129915,654.48941887822,654.48941887822,654.48941887822,1,0,d,1.3633584044873714,0,655.8740795371123,,,,,,,,,,,,,,,,,,,,,,,,,,,,,,,,,,,,,,,,,,,,98412,2022-11-28_13h58.19.191,vts_reward_expectancy_bt_OFFLINE,2022.2.4,60.05075682412279,
,,,,,,,,,,,,,,,,,,0,0,0,0,9,0,9,0,,,,,,,,,,,,,,,,,,,,,,,,,,,,,,,,,,,,,,,,,,,,,,,,661.9624547590502,,,174,U,star,0.0019529708661139011,658.3712880052626,659.8600436709821,659.8600436709821,659.8600436709821,1,0,f,0.5718957018107176,0,660.4609285891056,,,,,,,,,,,,,,,,,,,,,,,,,,,,,,,,,,,,,,,,,,,,98412,2022-11-28_13h58.19.191,vts_reward_expectancy_bt_OFFLINE,2022.2.4,60.05075682412279,
,,,,,,,,,,,,,,,,,,,,,,,,,,0,0,0,0,0,0,0,0,,,,,,,,,,,,,,,,,,,,,,,,,,,,,,,,,,,,,,,,691.2841377751902,,,125,F,star,0.017574908211827278,,,,,1,0,,,1,689.782534532249,,686.5089402669109,687.9811921599321,687.9811921599321,687.9811921599321,j,1.7812510719522834,,,,,,,,,,,,,,,,,,,,,,,,,,,,,,,,,,,,,98412,2022-11-28_13h58.19.191,vts_reward_expectancy_bt_OFFLINE,2022.2.4,60.05075682412279,
,,,,,,,,,,,,,,,,,,,,,,,,,,0,0,0,0,1,0,1,0,,,,,,,,,,,,,,,,,,,,,,,,,,,,,,,,,,,,,,,,696.0499278572388,,,146,W,triangle,0.0020336839370429516,,,,,1,0,,,1,694.552749928087,696.0499278572388,692.2799640432931,693.7682739989832,693.7682739989832,693.7682739989832,k,0.7642939300276339,,,,,,,,,,,,,,,,,,,,,,,,,,,,,,,,,,,,,98412,2022-11-28_13h58.19.191,vts_reward_expectancy_bt_OFFLINE,2022.2.4,60.05075682412279,
,,,,,,,,,,,,,,,,,,,,,,,,,,0,0,0,0,2,0,2,0,,,,,,,,,,,,,,,,,,,,,,,,,,,,,,,,,,,,,,,,701.2747195791453,,,160,S,circle,0.001961495727300644,,,,,1,0,,,1,699.7732644919306,,697.0497940271161,698.5387131199241,698.5387131199241,698.5387131199241,k,1.2027828665450215,,,,,,,,,,,,,,,,,,,,,,,,,,,,,,,,,,,,,98412,2022-11-28_13h58.19.191,vts_reward_expectancy_bt_OFFLINE,2022.2.4,60.05075682412279,
,,,,,,,,,,,,,,,,,,,,,,,,,,0,0,0,0,3,0,3,0,,,,,,,,,,,,,,,,,,,,,,,,,,,,,,,,,,,,,,,,706.1117114662193,,,139,Y,hexagon,0.002021213062107563,,,,,1,0,,,1,704.6099969171919,,702.2705560182221,703.7588474070653,703.7588474070653,703.7588474070653,k,0.8326698788441718,,,,,,,,,,,,,,,,,,,,,,,,,,,,,,,,,,,,,98412,2022-11-28_13h58.19.191,vts_reward_expectancy_bt_OFFLINE,2022.2.4,60.05075682412279,
,,,,,,,,,,,,,,,,,,,,,,,,,,0,0,0,0,4,0,4,0,,,,,,,,,,,,,,,,,,,,,,,,,,,,,,,,,,,,,,,,710.896755148191,,,181,U,star,0.0018434422090649605,,,,,1,0,,,1,709.3970336490311,710.896755148191,707.1070077391341,708.595992167946,708.595992167946,708.595992167946,k,0.7763576456345618,,,,,,,,,,,,,,,,,,,,,,,,,,,,,,,,,,,,,98412,2022-11-28_13h58.19.191,vts_reward_expectancy_bt_OFFLINE,2022.2.4,60.05075682412279,
,,,,,,,,,,,,,,,,,,,,,,,,,,0,0,0,0,5,0,5,0,,,,,,,,,,,,,,,,,,,,,,,,,,,,,,,,,,,,,,,,715.4169284552336,,715.9169752220623,174,D,circle,0.0020651952363550663,,,,,1,0,,,1,713.9161115172319,715.4169284552336,711.8941705781035,713.3826691079885,713.3826691079885,713.3826691079885,j,0.500650898553431,,,,,,,,,,,,,,,,,,,,,,,,,,,,,,,,,,,,,98412,2022-11-28_13h58.19.191,vts_reward_expectancy_bt_OFFLINE,2022.2.4,60.05075682412279,
,,,,,,,,,,,,,,,,,,,,,,,,,,0,0,0,0,6,0,6,0,,,,,,,,,,,,,,,,,,,,,,,,,,,,,,,,,,,,,,,,719.970342292916,,720.4704242451116,132,B,triangle,-0.0006266641430556774,,,,,1,0,,,1,718.470750242006,719.970342292916,716.4133894699626,717.9028035239317,717.9028035239317,717.9028035239317,j,0.5490904618054628,,,,,,,,,,,,,,,,,,,,,,,,,,,,,,,,,,,,,98412,2022-11-28_13h58.19.191,vts_reward_expectancy_bt_OFFLINE,2022.2.4,60.05075682412279,
,,,,,,,,,,,,,,,,,,,,,,,,,,0,0,0,0,7,0,7,0,,,,,,,,,,,,,,,,,,,,,,,,,,,,,,,,,,,,,,,,724.5403701239266,,725.0406359699555,167,H,hexagon,0.0005202186293900013,,,,,1,0,,,1,723.0408456041478,724.5403701239266,720.966905455105,722.4565333952196,722.4565333952196,722.4565333952196,j,0.5627973964437842,,,,,,,,,,,,,,,,,,,,,,,,,,,,,,,,,,,,,98412,2022-11-28_13h58.19.191,vts_reward_expectancy_bt_OFFLINE,2022.2.4,60.05075682412279,
,,,,,,,,,,,,,,,,,,,,,,,,,,0,0,0,0,8,0,8,0,,,,,,,,,,,,,,,,,,,,,,,,,,,,,,,,,,,,,,,,729.394065333996,,729.8942708298564,125,F,circle,0.00033124862238764763,,,,,1,0,,,1,727.8946011131629,729.394065333996,725.5366466119885,727.0264142318629,727.0264142318629,727.0264142318629,j,0.8426565965637565,,,,,,,,,,,,,,,,,,,,,,,,,,,,,,,,,,,,,98412,2022-11-28_13h58.19.191,vts_reward_expectancy_bt_OFFLINE,2022.2.4,60.05075682412279,
,,,,,,,,,,,,,,,,,,,,,,,,,,0,0,0,0,9,0,9,0,,,,,,,,,,,,,,,,,,,,,,,,,,,,,,,,,,,,,,,,734.1141869621351,,734.617869684007,146,W,triangle,0.0006068949587643147,,,,,1,0,,,1,732.614873283077,734.1141869621351,730.3900873120874,731.879770765081,731.879770765081,731.879770765081,k,0.7133494596928358,,,,,,,,,,,,,,,,,,,,,,,,,,,,,,,,,,,,,98412,2022-11-28_13h58.19.191,vts_reward_expectancy_bt_OFFLINE,2022.2.4,60.05075682412279,
,,,,,,,,,,,,,,,,,,,,,,,,,,,,,,,,,,0,0,0,0,0,0,0,0,,,,,,,,,,,,,,,,,,,,,,,,,,,,0,828,,,789.5043352888897,,,139,Y,star,0.01710257912054658,,,,,1,0,,,2,,,,,,,,,784.5140262842178,784.5140262842178,784.5140262842178,784.5140262842178,785.9845443270169,785.9845443270169,785.9845443270169,785.9845443270169,786.0178867280483,786.0178867280483,786.0178867280483,786.0178867280483,-1,number,NA,d,1.9845948028378189,vtsPrac,787.9907565908507,,,,,,,,,,,,,,,,,,98412,2022-11-28_13h58.19.191,vts_reward_expectancy_bt_OFFLINE,2022.2.4,60.05075682412279,
,,,,,,,,,,,,,,,,,,,,,,,,,,,,,,,,,,0,0,0,0,1,0,1,0,,,,,,,,,,,,,,,,,,,,,,,,,,,,0,828,,,794.3246640190482,,794.8245393899269,181,U,triangle,0.017000718973577023,,,,,1,0,,,2,,,,,,,,,790.5011800979264,790.5011800979264,790.5011800979264,790.5011800979264,791.9735451638699,791.9735451638699,791.9735451638699,791.9735451638699,792.0071182418615,792.0071182418615,792.0071182418615,792.0071182418615,repeat,number,numRpt,f,0.822330818977207,vtsPrac,792.8252957519144,794.3246640190482,,,,,,,,,,,,,,,,,98412,2022-11-28_13h58.19.191,vts_reward_expectancy_bt_OFFLINE,2022.2.4,60.05075682412279,
,,,,,,,,,,,,,,,,,,,,,,,,,,,,,,,,,,0,0,0,0,2,0,2,0,,,,,,,,,,,,,,,,,,,,,,,,,,,,0,828,,,799.2280320962891,,799.7283275593072,167,S,star,0.0003549181856215,,,,,1,0,,,2,,,,,,,,,795.3217644849792,795.3217644849792,795.3217644849792,795.3217644849792,796.8105366621166,796.8105366621166,796.8105366621166,796.8105366621166,796.8272304581478,796.8272304581478,796.8272304581478,796.8272304581478,repeat,number,numRpt,f,0.8900604555383325,vtsPrac,797.7286915560253,799.2280320962891,,,,,,,,,,,,,,,,,98412,2022-11-28_13h58.19.191,vts_reward_expectancy_bt_OFFLINE,2022.2.4,60.05075682412279,
,,,,,,,,,,,,,,,,,,,,,,,,,,,,,,,,,,0,0,0,0,3,0,3,0,,,,,,,,,,,,,,,,,,,,,,,,,,,,0,828,,,805.0823457292281,,805.5824007228948,132,W,circle,0.00033697718754410744,,,,,1,0,,,2,,,,,,,,,800.2246724991128,800.2246724991128,800.2246724991128,800.2246724991128,801.7142459019087,801.7142459019087,801.7142459019087,801.7142459019087,801.7309179971926,801.7309179971926,801.7309179971926,801.7309179971926,repeat,number,numRpt,d,1.8480933555401862,vtsPrac,803.5828305799514,805.0823457292281,,,,,,,,,,,,,,,,,98412,2022-11-28_13h58.19.191,vts_reward_expectancy_bt_OFFLINE,2022.2.4,60.05075682412279,
,,,,,,,,,,,,,,,,,,,,,,,,,,,,,,,,,,0,0,0,0,4,0,4,0,,,,,,,,,,,,,,,,,,,,,,,,,,,,0,828,,,811.0195294730365,,,139,Y,triangle,0.0003172270953655243,,,,,1,0,,,2,,,,,,,,,806.0781660079956,806.0781660079956,806.0781660079956,806.0781660079956,807.5682621202432,807.5682621202432,807.5682621202432,807.5682621202432,807.5849026711658,807.5849026711658,807.5849026711658,807.5849026711658,switch,letter,lettSwt,k,1.9236949710175395,vtsPrac,809.5203391951509,811.0195294730365,,,,,,,,,,,,,,,,,98412,2022-11-28_13h58.19.191,vts_reward_expectancy_bt_OFFLINE,2022.2.4,60.05075682412279,
,,,,,,,,,,,,,,,,,,,,,,,,,,,,,,,,,,0,0,0,0,5,0,5,0,,,,,,,,,,,,,,,,,,,,,,,,,,,,0,828,,,816.1067068930715,,,181,U,hexagon,0.0019523459486663342,,,,,1,0,,,2,,,,,,,,,812.0162431178614,812.0162431178614,812.0162431178614,812.0162431178614,813.5056278500706,813.5056278500706,813.5056278500706,813.5056278500706,813.5222129952163,813.5222129952163,813.5222129952163,813.5222129952163,repeat,letter,lettRpt,k,1.0827035158872604,vtsPrac,814.6072945808992,816.1067068930715,,,,,,,,,,,,,,,,,98412,2022-11-28_13h58.19.191,vts_reward_expectancy_bt_OFFLINE,2022.2.4,60.05075682412279,
,,,,,,,,,,,,,,,,,,,,,,,,,,,,,,,,,,0,0,0,0,6,0,6,0,,,,,,,,,,,,,,,,,,,,,,,,,,,,0,828,,,821.2119787381962,,,167,S,triangle,0.001789512112736702,,,,,1,0,,,2,,,,,,,,,817.103760028258,817.103760028258,817.103760028258,817.103760028258,818.5925413658842,818.5925413658842,818.5925413658842,818.5925413658842,818.6087902882136,818.6087902882136,818.6087902882136,818.6087902882136,switch,number,numSwt,f,1.0927135278470814,vtsPrac,819.7112137931399,,,,,,,,,,,,,,,,,,98412,2022-11-28_13h58.19.191,vts_reward_expectancy_bt_OFFLINE,2022.2.4,60.05075682412279,
,,,,,,,,,,,,,,,,,,,,,,,,,,,,,,,,,,0,0,0,0,7,0,7,0,,,,,,,,,,,,,,,,,,,,,,,,,,,,0,828,,,826.5485272072256,,,132,W,star,0.0014431369490921497,,,,,1,0,,,2,,,,,,,,,822.2074943929911,822.2074943929911,822.2074943929911,822.2074943929911,823.6960905180313,823.6960905180313,823.6960905180313,823.6960905180313,823.7129218271002,823.7129218271002,823.7129218271002,823.7129218271002,switch,letter,lettSwt,k,1.3329022927209735,vtsPrac,825.0481273820624,,,,,,,,,,,,,,,,,,98412,2022-11-28_13h58.19.191,vts_reward_expectancy_bt_OFFLINE,2022.2.4,60.05075682412279,
,,,,,,,,,,,,,,,,,,,,,,,,,,,,,,,,,,0,0,0,0,8,0,8,0,,,,,,,,,,,,,,,,,,,,,,,,,,,,0,828,,,831.4859992722049,,,160,H,circle,0.0016649840399622917,,,,,1,0,,,2,,,,,,,,,827.545286192093,827.545286192093,827.545286192093,827.545286192093,829.0332102430984,829.0332102430984,829.0332102430984,829.0332102430984,829.0499079329893,829.0499079329893,829.0499079329893,829.0499079329893,repeat,letter,lettRpt,j,0.9336797716096044,vtsPrac,829.9853256191127,,,,,,,,,,,,,,,,,,98412,2022-11-28_13h58.19.191,vts_reward_expectancy_bt_OFFLINE,2022.2.4,60.05075682412279,
,,,,,,,,,,,,,,,,,,,,,,,,,,,,,,,,,,0,0,0,0,9,0,9,0,,,,,,,,,,,,,,,,,,,,,,,,,,,,0,828,,,836.3727790471166,,,181,D,hexagon,0.0016645248979330063,,,,,1,0,,,2,,,,,,,,,832.4816813771613,832.4816813771613,832.4816813771613,832.4816813771613,833.970155695919,833.970155695919,833.970155695919,833.970155695919,833.9868608289398,833.9868608289398,833.9868608289398,833.9868608289398,repeat,letter,lettRpt,j,0.8680993560701609,vtsPrac,834.870541010052,,,,,,,,,,,,,,,,,,98412,2022-11-28_13h58.19.191,vts_reward_expectancy_bt_OFFLINE,2022.2.4,60.05075682412279,
,,,,,,,,,,,,,,,,,,,,,,,,,,,,,,,,,,0,0,0,0,10,0,10,0,,,,,,,,,,,,,,,,,,,,,,,,,,,,0,828,,,841.2429904942401,,,132,S,hexagon,0.0005639879964292049,,,,,1,0,,,2,,,,,,,,,837.3678638972342,837.3678638972342,837.3678638972342,837.3678638972342,838.8571581658907,838.8571581658907,838.8571581658907,838.8571581658907,838.8736968799494,838.8736968799494,838.8736968799494,838.8736968799494,repeat,letter,lettRpt,k,0.8641390716657043,vtsPrac,839.7418003291823,,,,,,,,,,,,,,,,,,98412,2022-11-28_13h58.19.191,vts_reward_expectancy_bt_OFFLINE,2022.2.4,60.05075682412279,
,,,,,,,,,,,,,,,,,,,,,,,,,,,,,,,,,,0,0,0,0,11,0,11,0,,,,,,,,,,,,,,,,,,,,,,,,,,,,0,828,,,846.2470818338916,,,174,F,triangle,0.0020836428739130497,,,,,1,0,,,2,,,,,,,,,842.2392183803022,842.2392183803022,842.2392183803022,842.2392183803022,843.7273320192471,843.7273320192471,843.7273320192471,843.7273320192471,843.7443861318752,843.7443861318752,843.7443861318752,843.7443861318752,repeat,letter,lettRpt,j,0.9890872808173299,vtsPrac,844.7460368592292,,,,,,,,,,,,,,,,,,98412,2022-11-28_13h58.19.191,vts_reward_expectancy_bt_OFFLINE,2022.2.4,60.05075682412279,
,,,,,,,,,,,,,,,,,,,,,,,,,,,,,,,,,,0,0,0,0,12,0,12,0,,,,,,,,,,,,,,,,,,,,,,,,,,,,0,828,,,851.7837936962023,,,139,S,hexagon,0.001989122945815325,,,,,1,0,,,2,,,,,,,,,847.2422423711978,847.2422423711978,847.2422423711978,847.2422423711978,848.730926824268,848.730926824268,848.730926824268,848.730926824268,848.7476828172803,848.7476828172803,848.7476828172803,848.7476828172803,repeat,letter,lettRpt,k,1.5208894438110292,vtsPrac,850.2829759712331,,,,,,,,,,,,,,,,,,98412,2022-11-28_13h58.19.191,vts_reward_expectancy_bt_OFFLINE,2022.2.4,60.05075682412279,
,,,,,,,,,,,,,,,,,,,,,,,,,,,,,,,,,,0,0,0,0,13,0,13,0,,,,,,,,,,,,,,,,,,,,,,,,,,,,0,828,,,856.5375166279264,,,181,H,triangle,0.0019636619836091995,,,,,1,0,,,2,,,,,,,,,852.7793798572384,852.7793798572384,852.7793798572384,852.7793798572384,854.2680604378693,854.2680604378693,854.2680604378693,854.2680604378693,854.2848974219523,854.2848974219523,854.2848974219523,854.2848974219523,switch,number,numSwt,f,0.7425827849656343,vtsPrac,855.0368300001137,,,,,,,,,,,,,,,,,,98412,2022-11-28_13h58.19.191,vts_reward_expectancy_bt_OFFLINE,2022.2.4,60.05075682412279,
,,,,,,,,,,,,,,,,,,,,,,,,,,,,,,,,,,0,0,0,0,14,0,14,0,,,,,,,,,,,,,,,,,,,,,,,,,,,,0,828,,,862.8084655408747,,863.3086200580001,160,Y,triangle,0.0017496082000434399,,,,,1,0,,,2,,,,,,,,,857.5331938462332,857.5331938462332,857.5331938462332,857.5331938462332,859.0217996900901,859.0217996900901,859.0217996900901,859.0217996900901,859.0384061262012,859.0384061262012,859.0384061262012,859.0384061262012,repeat,number,numRpt,f,2.2562595517374575,vtsPrac,861.3091951692477,862.8084655408747,,,,,,,,,,,,,,,,,98412,2022-11-28_13h58.19.191,vts_reward_expectancy_bt_OFFLINE,2022.2.4,60.05075682412279,
,,,,,,,,,,,,,,,,,,,,,,,,,,,,,,,,,,0,0,0,0,15,0,15,0,,,,,,,,,,,,,,,,,,,,,,,,,,,,0,828,,,867.9952313220128,,,132,F,star,0.0005972790531814098,,,,,1,0,,,2,,,,,,,,,863.8039399222471,863.8039399222471,863.8039399222471,863.8039399222471,865.2924840669148,865.2924840669148,865.2924840669148,865.2924840669148,865.3091111979447,865.3091111979447,865.3091111979447,865.3091111979447,repeat,number,numRpt,d,1.1613978235982358,vtsPrac,866.4796011382714,,,,,,,,,,,,,,,,,,98412,2022-11-28_13h58.19.191,vts_reward_expectancy_bt_OFFLINE,2022.2.4,60.05075682412279,
,,,,,,,,,,,,,,,,,,,,,,,,,,,,,,,,,,0,0,0,0,16,0,16,0,,,,,,,,,,,,,,,,,,,,,,,,,,,,0,828,,,873.9493727372028,,874.4493369502015,160,H,hexagon,0.016768096014857292,,,,,1,0,,,2,,,,,,,,,868.9911414380185,868.9911414380185,868.9911414380185,868.9911414380185,870.4627799452282,870.4627799452282,870.4627799452282,870.4627799452282,870.4961888398975,870.4961888398975,870.4961888398975,870.4961888398975,repeat,number,numRpt,f,1.964028438553214,vtsPrac,872.4501705602743,873.9493727372028,,,,,,,,,,,,,,,,,98412,2022-11-28_13h58.19.191,vts_reward_expectancy_bt_OFFLINE,2022.2.4,60.05075682412279,
,,,,,,,,,,,,,,,,,,,,,,,,,,,,,,,,,,0,0,0,0,17,0,17,0,,,,,,,,,,,,,,,,,,,,,,,,,,,,0,828,,,878.7029176419601,,879.2029563602991,125,U,triangle,0.0004945970140397549,,,,,1,0,,,2,,,,,,,,,874.9455626378767,874.9455626378767,874.9455626378767,874.9455626378767,876.4353726850823,876.4353726850823,876.4353726850823,876.4353726850823,876.4519286411814,876.4519286411814,876.4519286411814,876.4519286411814,repeat,number,numRpt,d,0.7399855647236109,vtsPrac,877.2038498539478,878.7029176419601,,,,,,,,,,,,,,,,,98412,2022-11-28_13h58.19.191,vts_reward_expectancy_bt_OFFLINE,2022.2.4,60.05075682412279,
,,,,,,,,,,,,,,,,,,,,,,,,,,,,,,,,,,0,0,0,0,18,0,18,0,,,,,,,,,,,,,,,,,,,,,,,,,,,,0,828,,,883.5729942298494,,884.0733018899336,174,Y,star,0.0003899880684912205,,,,,1,0,,,2,,,,,,,,,879.6987297949381,879.6987297949381,879.6987297949381,879.6987297949381,881.1845462312922,881.1845462312922,881.1845462312922,881.1845462312922,881.1962401759811,881.1962401759811,881.1962401759811,881.1962401759811,repeat,number,numRpt,f,0.8612034879624844,vtsPrac,882.0741508658975,883.5729942298494,,,,,,,,,,,,,,,,,98412,2022-11-28_13h58.19.191,vts_reward_expectancy_bt_OFFLINE,2022.2.4,60.05075682412279,
,,,,,,,,,,,,,,,,,,,,,,,,,,,,,,,,,,0,0,0,0,19,0,19,0,,,,,,,,,,,,,,,,,,,,,,,,,,,,0,828,,,888.5433039781637,,889.0435027112253,167,B,hexagon,0.00047999201342463493,,,,,1,0,,,2,,,,,,,,,884.569330487866,884.569330487866,884.569330487866,884.569330487866,886.0573650118895,886.0573650118895,886.0573650118895,886.0573650118895,886.0738789648749,886.0738789648749,886.0738789648749,886.0738789648749,repeat,number,numRpt,f,0.9611056400462985,vtsPrac,887.0444142678753,888.5433039781637,,,,,,,,,,,,,,,,,98412,2022-11-28_13h58.19.191,vts_reward_expectancy_bt_OFFLINE,2022.2.4,60.05075682412279,
,,,,,,,,,,,,,,,,,,,,,,,,,,,,,,,,,,0,0,0,0,20,0,20,0,,,,,,,,,,,,,,,,,,,,,,,,,,,,0,828,,,894.4138618810102,,894.913920163177,125,B,triangle,0.00031494395807385445,,,,,1,0,,,2,,,,,,,,,889.5384240392596,889.5384240392596,889.5384240392596,889.5384240392596,891.0276601482183,891.0276601482183,891.0276601482183,891.0276601482183,891.0443557840772,891.0443557840772,891.0443557840772,891.0443557840772,repeat,number,numRpt,d,1.8639544025063515,vtsPrac,892.9146808530204,894.4138618810102,,,,,,,,,,,,,,,,,98412,2022-11-28_13h58.19.191,vts_reward_expectancy_bt_OFFLINE,2022.2.4,60.05075682412279,
,,,,,,,,,,,,,,,,,,,,,,,,,,,,,,,,,,0,0,0,0,21,0,21,0,,,,,,,,,,,,,,,,,,,,,,,,,,,,0,828,,,899.867840948049,,,167,D,hexagon,0.00044675497338175774,,,,,1,0,,,2,,,,,,,,,895.4099516728893,895.4099516728893,895.4099516728893,895.4099516728893,896.8999180691317,896.8999180691317,896.8999180691317,896.8999180691317,896.916817067191,896.916817067191,896.916817067191,896.916817067191,switch,letter,lettSwt,j,1.4479589289985597,vtsPrac,898.3685348001309,899.867840948049,,,,,,,,,,,,,,,,,98412,2022-11-28_13h58.19.191,vts_reward_expectancy_bt_OFFLINE,2022.2.4,60.05075682412279,
,,,,,,,,,,,,,,,,,,,,,,,,,,,,,,,,,,0,0,0,0,22,0,22,0,,,,,,,,,,,,,,,,,,,,,,,,,,,,0,828,,,904.9547983030789,,,174,H,circle,0.0004978612996637821,,,,,1,0,,,2,,,,,,,,,900.8641194510274,900.8641194510274,900.8641194510274,900.8641194510274,902.3538927310146,902.3538927310146,902.3538927310146,902.3538927310146,902.3707073968835,902.3707073968835,902.3707073968835,902.3707073968835,repeat,letter,lettRpt,j,1.0568003449589014,vtsPrac,903.439243752975,,,,,,,,,,,,,,,,,,98412,2022-11-28_13h58.19.191,vts_reward_expectancy_bt_OFFLINE,2022.2.4,60.05075682412279,
,,,,,,,,,,,,,,,,,,,,,,,,,,,,,,,,,,0,0,0,0,23,0,23,0,,,,,,,,,,,,,,,,,,,,,,,,,,,,0,828,,,911.9442559978925,,,146,W,star,0.016610147431492805,,,,,-1,0,,,2,,,,,,,,,905.9512759922072,905.9512759922072,905.9512759922072,905.9512759922072,907.4241105108522,907.4241105108522,907.4241105108522,907.4241105108522,907.4573977752589,907.4573977752589,907.4573977752589,907.4573977752589,switch,no_choice,NA,None,,vtsPrac,910.428880258929,,910.428880258929,910.428880258929,910.428880258929,910.428880258929,,,,,,,,,,,,,98412,2022-11-28_13h58.19.191,vts_reward_expectancy_bt_OFFLINE,2022.2.4,60.05075682412279,
,,,,,,,,,,,,,,,,,,,,,,,,,,,,,,,,,,0,0,0,0,24,0,24,0,,,,,,,,,,,,,,,,,,,,,,,,,,,,0,828,,,916.9142595599405,,,160,U,hexagon,0.006203932221978903,,,,,1,0,,,2,,,,,,,,,912.9401181302965,912.9401181302965,912.9401181302965,912.9401181302965,914.4284099251963,914.4284099251963,914.4284099251963,914.4284099251963,914.4450779859908,914.4450779859908,914.4450779859908,914.4450779859908,switch,number,numSwt,f,0.9538035788573325,vtsPrac,915.415537528228,,,,,,,,,,,,,,,,,,98412,2022-11-28_13h58.19.191,vts_reward_expectancy_bt_OFFLINE,2022.2.4,60.05075682412279,
,,,,,,,,,,,,,,,,,,,,,,,,,,,,,,,,,,0,0,0,0,25,0,25,0,,,,,,,,,,,,,,,,,,,,,,,,,,,,0,828,,,921.8515348602086,,,139,Y,triangle,0.001574000809341669,,,,,1,0,,,2,,,,,,,,,917.9101801868528,917.9101801868528,917.9101801868528,917.9101801868528,919.3986859181896,919.3986859181896,919.3986859181896,919.3986859181896,919.4153762031347,919.4153762031347,919.4153762031347,919.4153762031347,repeat,number,numRpt,d,0.9226520298980176,vtsPrac,920.3508818051778,,,,,,,,,,,,,,,,,,98412,2022-11-28_13h58.19.191,vts_reward_expectancy_bt_OFFLINE,2022.2.4,60.05075682412279,
,,,,,,,,,,,,,,,,,,,,,,,,,,,,,,,,,,0,0,0,0,26,0,26,0,,,,,,,,,,,,,,,,,,,,,,,,,,,,0,828,,,926.8050795802847,,,167,W,circle,0.0022393008694052696,,,,,1,0,,,2,,,,,,,,,922.8471262431704,922.8471262431704,922.8471262431704,922.8471262431704,924.335571506992,924.335571506992,924.335571506992,924.335571506992,924.3524120072834,924.3524120072834,924.3524120072834,924.3524120072834,switch,letter,lettSwt,k,0.9464497687295079,vtsPrac,925.3047132752836,,,,,,,,,,,,,,,,,,98412,2022-11-28_13h58.19.191,vts_reward_expectancy_bt_OFFLINE,2022.2.4,60.05075682412279,
,,,,,,,,,,,,,,,,,,,,,,,,,,,,,,,,,,0,0,0,0,27,0,27,0,,,,,,,,,,,,,,,,,,,,,,,,,,,,0,828,,,932.0086678541265,,,125,D,hexagon,0.0017802738584578037,,,,,1,0,,,2,,,,,,,,,927.8009567339905,927.8009567339905,927.8009567339905,927.8009567339905,929.2889157258905,929.2889157258905,929.2889157258905,929.2889157258905,929.3060607351363,929.3060607351363,929.3060607351363,929.3060607351363,repeat,letter,lettRpt,j,1.190835035406053,vtsPrac,930.5082716890611,,,,,,,,,,,,,,,,,,98412,2022-11-28_13h58.19.191,vts_reward_expectancy_bt_OFFLINE,2022.2.4,60.05075682412279,
,,,,,,,,,,,,,,,,,,,,,,,,,,,,,,,,,,0,0,0,0,28,0,28,0,,,,,,,,,,,,,,,,,,,,,,,,,,,,0,828,,,936.7457059063017,,,125,D,star,0.0024658171460032463,,,,,1,0,,,2,,,,,,,,,933.004347638227,933.004347638227,933.004347638227,933.004347638227,934.4929931582883,934.4929931582883,934.4929931582883,934.4929931582883,934.5097796381451,934.5097796381451,934.5097796381451,934.5097796381451,repeat,letter,lettRpt,j,0.7232396439649165,vtsPrac,935.2449140730314,,,,,,,,,,,,,,,,,,98412,2022-11-28_13h58.19.191,vts_reward_expectancy_bt_OFFLINE,2022.2.4,60.05075682412279,
,,,,,,,,,,,,,,,,,,,,,,,,,,,,,,,,,,0,0,0,0,29,0,29,0,,,,,,,,,,,,,,,,,,,,,,,,,,,,0,828,,,942.0827751839533,,,181,S,circle,0.0016141929663717747,,,,,1,0,,,2,,,,,,,,,937.741256156005,937.741256156005,937.741256156005,937.741256156005,939.2299244082533,939.2299244082533,939.2299244082533,939.2299244082533,939.2464567222632,939.2464567222632,939.2464567222632,939.2464567222632,switch,number,numSwt,f,1.3197968187741935,vtsPrac,940.5822088341229,,,,,,,,,,,,,,,,,,98412,2022-11-28_13h58.19.191,vts_reward_expectancy_bt_OFFLINE,2022.2.4,60.05075682412279,
