LTriangleOpac,LCircleOpac,LHexagonOpac,LStarOpac,RTriangleOpac,RCircleOpac,RHexagonOpac,RStarOpac,LShape_ID,RShape_ID,training_blocks.thisRepN,training_blocks.thisTrialN,training_blocks.thisN,training_blocks.thisIndex,training.thisRepN,training.thisTrialN,training.thisN,training.thisIndex,task1_prac_redo.thisRepN,task1_prac_redo.thisTrialN,task1_prac_redo.thisN,task1_prac_redo.thisIndex,task1_prac_trials.thisRepN,task1_prac_trials.thisTrialN,task1_prac_trials.thisN,task1_prac_trials.thisIndex,task2_prac_redo.thisRepN,task2_prac_redo.thisTrialN,task2_prac_redo.thisN,task2_prac_redo.thisIndex,task2_praac_trials.thisRepN,task2_praac_trials.thisTrialN,task2_praac_trials.thisN,task2_praac_trials.thisIndex,vts_prac_redo.thisRepN,vts_prac_redo.thisTrialN,vts_prac_redo.thisN,vts_prac_redo.thisIndex,vts_practice_trials.thisRepN,vts_practice_trials.thisTrialN,vts_practice_trials.thisN,vts_practice_trials.thisIndex,trials_norew.thisRepN,trials_norew.thisTrialN,trials_norew.thisN,trials_norew.thisIndex,block.thisRepN,block.thisTrialN,block.thisN,block.thisIndex,trials_rew.thisRepN,trials_rew.thisTrialN,trials_rew.thisN,trials_rew.thisIndex,key_resp.started,key_resp.keys,key_resp.rt,left_circle.started,right_circle.started,left_triangle.started,right_triangle.started,left_star.started,right_star.started,left_hexagon.started,right_hexagon.started,training_fix.started,training_resp.started,training_resp.keys,training_resp.rt,points_trial,points_cumul,trainBlock,training_feedback_txt.started,fix.started,training_feedback_txt.stopped,curr_topStim,curr_bottStim,curr_shape,ISI.started,tgt_fix_prac1.started,top_target_prac1.started,bott_target_prac1.started,target_resp_prac1.started,top_target_prac1.stopped,tgt_fix_prac1.stopped,bott_target_prac1.stopped,target_resp_prac1.stopped,acc,E1,target_resp_prac1.keys,pracBlock,prac_fback_text.started,prac_fback_text.stopped,fix.stopped,target_resp_prac1.rt,tgt_fix_prac2.started,top_target_prac2.started,bott_target_prac2.started,target_resp_prac2.started,target_resp_prac2.keys,target_resp_prac2.rt,star.started,hegagon.started,triangle.started,circle.started,star.stopped,hegagon.stopped,triangle.stopped,circle.stopped,top_target.started,tgt_fix.started,bot_target.started,target_resp.started,alt,task,condition,target_resp.keys,target_resp.rt,rewCond,vts_fback.started,top_target.stopped,tgt_fix.stopped,bot_target.stopped,target_resp.stopped,vts_fback.stopped,blockNum,norew_fback.started,norew_fback.stopped,key_resp_2.keys,key_resp_2.rt,rewExpectancy,feedbk_text.started,feedbk_text.stopped,text_3.started,debrief.started,text_3.stopped,button.started,debrief.index,debrief.itemText,debrief.type,debrief.granularity,debrief.font,debrief.markerColor,debrief.response,debrief.rt,button.numClicks,button.timesOn,button.timesOff,participant,date,expName,psychopyVersion,frameRate
,,,,,,,,,,,,,,,,,,,,,,,,,,,,,,,,,,,,,,,,,,,,,,,,,,,,,,729.9962296,space,21.29075438,,,,,,,,,,,,,,,,,,,,,,,,,,,,,,,,,,,,,,,,,,,,,,,,,,,,,,,,,,,,,,,,,,,,,,,,,,,,,,,,,,,,,,,,,,,,98412_2,2022-11-30_14h29.30.923,vts_reward_expectancy_bt_OFFLINE,2022.2.4,60.11236648
1,0,0,0,0,0,1,0,triangle,hexagon,0,0,0,0,0,0,0,1,,,,,,,,,,,,,,,,,,,,,,,,,,,,,,,,,,,,,,,,781.3165088,781.3165088,781.3165088,781.3165088,781.3165088,781.3165088,781.3165088,781.3165088,781.3165088,781.3165088,a,2.057346281,1,1,0,783.399517,784.9009057,,,,,,,,,,,,,,,,,,,,,,,,,,,,,,,,,,,,,,,,,,,,,,,,,,,,,,,,,,,,,,,,,,,,,,,,,,,98412_2,2022-11-30_14h29.30.923,vts_reward_expectancy_bt_OFFLINE,2022.2.4,60.11236648
0,0,1,0,0,1,0,0,hexagon,circle,0,0,0,0,0,1,1,7,,,,,,,,,,,,,,,,,,,,,,,,,,,,,,,,,,,,,,,,785.4015168,785.4015168,785.4015168,785.4015168,785.4015168,785.4015168,785.4015168,785.4015168,785.4015168,785.4015168,a,1.350049832,10,11,0,786.7697412,788.2714283,,,,,,,,,,,,,,,,,,,,,,,,,,,,,,,,,,,,,,,,,,,,,,,,,,,,,,,,,,,,,,,,,,,,,,,,,,,98412_2,2022-11-30_14h29.30.923,vts_reward_expectancy_bt_OFFLINE,2022.2.4,60.11236648
0,1,0,0,0,0,1,0,circle,hexagon,0,0,0,0,0,2,2,4,,,,,,,,,,,,,,,,,,,,,,,,,,,,,,,,,,,,,,,,788.7718925,788.7718925,788.7718925,788.7718925,788.7718925,788.7718925,788.7718925,788.7718925,788.7718925,788.7718925,a,1.250760784,1,12,0,790.0400807,791.5417294,,,,,,,,,,,,,,,,,,,,,,,,,,,,,,,,,,,,,,,,,,,,,,,,,,,,,,,,,,,,,,,,,,,,,,,,,,,98412_2,2022-11-30_14h29.30.923,vts_reward_expectancy_bt_OFFLINE,2022.2.4,60.11236648
0,1,0,0,1,0,0,0,circle,triangle,0,0,0,0,0,3,3,3,,,,,,,,,,,,,,,,,,,,,,,,,,,,,,,,,,,,,,,,792.0421498,792.0421498,792.0421498,792.0421498,792.0421498,792.0421498,792.0421498,792.0421498,792.0421498,792.0421498,l,0.66836946,10,22,0,792.7429319,794.2445727,,,,,,,,,,,,,,,,,,,,,,,,,,,,,,,,,,,,,,,,,,,,,,,,,,,,,,,,,,,,,,,,,,,,,,,,,,,98412_2,2022-11-30_14h29.30.923,vts_reward_expectancy_bt_OFFLINE,2022.2.4,60.11236648
0,0,0,1,1,0,0,0,star,triangle,0,0,0,0,0,4,4,9,,,,,,,,,,,,,,,,,,,,,,,,,,,,,,,,,,,,,,,,794.745211,794.745211,794.745211,794.745211,794.745211,794.745211,794.745211,794.745211,794.745211,794.745211,a,0.668555469,10,32,0,795.4460566,796.9476424,,,,,,,,,,,,,,,,,,,,,,,,,,,,,,,,,,,,,,,,,,,,,,,,,,,,,,,,,,,,,,,,,,,,,,,,,,,98412_2,2022-11-30_14h29.30.923,vts_reward_expectancy_bt_OFFLINE,2022.2.4,60.11236648
0,0,0,1,0,1,0,0,star ,circle,0,0,0,0,0,5,5,10,,,,,,,,,,,,,,,,,,,,,,,,,,,,,,,,,,,,,,,,797.4482586,797.4482586,797.4482586,797.4482586,797.4482586,797.4482586,797.4482586,797.4482586,797.4482586,797.4482586,l,0.294214877,10,42,0,797.7651807,799.2667535,,,,,,,,,,,,,,,,,,,,,,,,,,,,,,,,,,,,,,,,,,,,,,,,,,,,,,,,,,,,,,,,,,,,,,,,,,,98412_2,2022-11-30_14h29.30.923,vts_reward_expectancy_bt_OFFLINE,2022.2.4,60.11236648
1,0,0,0,0,1,0,0,triangle,circle,0,0,0,0,0,6,6,0,,,,,,,,,,,,,,,,,,,,,,,,,,,,,,,,,,,,,,,,799.7674039,799.7674039,799.7674039,799.7674039,799.7674039,799.7674039,799.7674039,799.7674039,799.7674039,799.7674039,a,0.39025746,10,52,0,800.1846728,801.6862269,,,,,,,,,,,,,,,,,,,,,,,,,,,,,,,,,,,,,,,,,,,,,,,,,,,,,,,,,,,,,,,,,,,,,,,,,,,98412_2,2022-11-30_14h29.30.923,vts_reward_expectancy_bt_OFFLINE,2022.2.4,60.11236648
0,0,0,1,0,0,1,0,star,hexagon,0,0,0,0,0,7,7,11,,,,,,,,,,,,,,,,,,,,,,,,,,,,,,,,,,,,,,,,802.1866512,802.1866512,802.1866512,802.1866512,802.1866512,802.1866512,802.1866512,802.1866512,802.1866512,802.1866512,l,0.387374034,1,53,0,802.6037918,804.1055725,,,,,,,,,,,,,,,,,,,,,,,,,,,,,,,,,,,,,,,,,,,,,,,,,,,,,,,,,,,,,,,,,,,,,,,,,,,98412_2,2022-11-30_14h29.30.923,vts_reward_expectancy_bt_OFFLINE,2022.2.4,60.11236648
0,1,0,0,0,0,0,1,circle,star,0,0,0,0,0,8,8,5,,,,,,,,,,,,,,,,,,,,,,,,,,,,,,,,,,,,,,,,804.6061738,804.6061738,804.6061738,804.6061738,804.6061738,804.6061738,804.6061738,804.6061738,804.6061738,804.6061738,a,0.319739125,10,63,0,804.9565314,806.4580509,,,,,,,,,,,,,,,,,,,,,,,,,,,,,,,,,,,,,,,,,,,,,,,,,,,,,,,,,,,,,,,,,,,,,,,,,,,98412_2,2022-11-30_14h29.30.923,vts_reward_expectancy_bt_OFFLINE,2022.2.4,60.11236648
0,0,1,0,1,0,0,0,hexagon,triangle,0,0,0,0,0,9,9,6,,,,,,,,,,,,,,,,,,,,,,,,,,,,,,,,,,,,,,,,806.958686,806.958686,806.958686,806.958686,806.958686,806.958686,806.958686,806.958686,806.958686,806.958686,l,0.935833975,10,73,0,807.9263017,809.4281354,,,,,,,,,,,,,,,,,,,,,,,,,,,,,,,,,,,,,,,,,,,,,,,,,,,,,,,,,,,,,,,,,,,,,,,,,,,98412_2,2022-11-30_14h29.30.923,vts_reward_expectancy_bt_OFFLINE,2022.2.4,60.11236648
0,0,1,0,0,0,0,1,hexagon,star,0,0,0,0,0,10,10,8,,,,,,,,,,,,,,,,,,,,,,,,,,,,,,,,,,,,,,,,809.9287935,809.9287935,809.9287935,809.9287935,809.9287935,809.9287935,809.9287935,809.9287935,809.9287935,809.9287935,l,0.509169991,1,74,0,810.462541,811.9642014,,,,,,,,,,,,,,,,,,,,,,,,,,,,,,,,,,,,,,,,,,,,,,,,,,,,,,,,,,,,,,,,,,,,,,,,,,,98412_2,2022-11-30_14h29.30.923,vts_reward_expectancy_bt_OFFLINE,2022.2.4,60.11236648
1,0,0,0,0,0,0,1,triangle,star,0,0,0,0,0,11,11,2,,,,,,,,,,,,,,,,,,,,,,,,,,,,,,,,,,,,,,,,812.4647056,812.4647056,812.4647056,812.4647056,812.4647056,812.4647056,812.4647056,812.4647056,812.4647056,812.4647056,l,0.461518936,1,75,0,812.9485742,814.4504151,,,,,,,,,,,,,,,,,,,,,,,,,,,,,,,,,,,,,,,,,,,,,,,,,,,,,,,,,,,,,,,,,,,,,,,,,,,98412_2,2022-11-30_14h29.30.923,vts_reward_expectancy_bt_OFFLINE,2022.2.4,60.11236648
0,0,0,1,0,1,0,0,star ,circle,0,0,0,0,1,0,12,10,,,,,,,,,,,,,,,,,,,,,,,,,,,,,,,,,,,,,,,,814.9511393,814.9511393,814.9511393,814.9511393,814.9511393,814.9511393,814.9511393,814.9511393,814.9511393,814.9511393,a,0.439550509,1,76,0,815.4180336,816.9196629,,,,,,,,,,,,,,,,,,,,,,,,,,,,,,,,,,,,,,,,,,,,,,,,,,,,,,,,,,,,,,,,,,,,,,,,,,,98412_2,2022-11-30_14h29.30.923,vts_reward_expectancy_bt_OFFLINE,2022.2.4,60.11236648
1,0,0,0,0,0,0,1,triangle,star,0,0,0,0,1,1,13,2,,,,,,,,,,,,,,,,,,,,,,,,,,,,,,,,,,,,,,,,817.4202983,817.4202983,817.4202983,817.4202983,817.4202983,817.4202983,817.4202983,817.4202983,817.4202983,817.4202983,l,0.65045043,1,77,0,818.0876094,819.5894487,,,,,,,,,,,,,,,,,,,,,,,,,,,,,,,,,,,,,,,,,,,,,,,,,,,,,,,,,,,,,,,,,,,,,,,,,,,98412_2,2022-11-30_14h29.30.923,vts_reward_expectancy_bt_OFFLINE,2022.2.4,60.11236648
1,0,0,0,0,1,0,0,triangle,circle,0,0,0,0,1,2,14,0,,,,,,,,,,,,,,,,,,,,,,,,,,,,,,,,,,,,,,,,820.089762,820.089762,820.089762,820.089762,820.089762,820.089762,820.089762,820.089762,820.089762,820.089762,a,0.508163201,10,87,0,820.6237932,822.1254753,,,,,,,,,,,,,,,,,,,,,,,,,,,,,,,,,,,,,,,,,,,,,,,,,,,,,,,,,,,,,,,,,,,,,,,,,,,98412_2,2022-11-30_14h29.30.923,vts_reward_expectancy_bt_OFFLINE,2022.2.4,60.11236648
0,1,0,0,0,0,1,0,circle,hexagon,0,0,0,0,1,3,15,4,,,,,,,,,,,,,,,,,,,,,,,,,,,,,,,,,,,,,,,,822.6259897,822.6259897,822.6259897,822.6259897,822.6259897,822.6259897,822.6259897,822.6259897,822.6259897,822.6259897,l,0.708601953,1,88,0,823.3600639,824.8618262,,,,,,,,,,,,,,,,,,,,,,,,,,,,,,,,,,,,,,,,,,,,,,,,,,,,,,,,,,,,,,,,,,,,,,,,,,,98412_2,2022-11-30_14h29.30.923,vts_reward_expectancy_bt_OFFLINE,2022.2.4,60.11236648
0,0,1,0,0,0,0,1,hexagon,star,0,0,0,0,1,4,16,8,,,,,,,,,,,,,,,,,,,,,,,,,,,,,,,,,,,,,,,,825.3625597,825.3625597,825.3625597,825.3625597,825.3625597,825.3625597,825.3625597,825.3625597,825.3625597,825.3625597,a,0.572035483,1,89,0,825.9630664,827.4647025,,,,,,,,,,,,,,,,,,,,,,,,,,,,,,,,,,,,,,,,,,,,,,,,,,,,,,,,,,,,,,,,,,,,,,,,,,,98412_2,2022-11-30_14h29.30.923,vts_reward_expectancy_bt_OFFLINE,2022.2.4,60.11236648
1,0,0,0,0,0,1,0,triangle,hexagon,0,0,0,0,1,5,17,1,,,,,,,,,,,,,,,,,,,,,,,,,,,,,,,,,,,,,,,,827.9651675,827.9651675,827.9651675,827.9651675,827.9651675,827.9651675,827.9651675,827.9651675,827.9651675,827.9651675,a,0.593035269,10,99,0,828.5826431,830.0841295,,,,,,,,,,,,,,,,,,,,,,,,,,,,,,,,,,,,,,,,,,,,,,,,,,,,,,,,,,,,,,,,,,,,,,,,,,,98412_2,2022-11-30_14h29.30.923,vts_reward_expectancy_bt_OFFLINE,2022.2.4,60.11236648
0,1,0,0,0,0,0,1,circle,star,0,0,0,0,1,6,18,5,,,,,,,,,,,,,,,,,,,,,,,,,,,,,,,,,,,,,,,,830.584762,830.584762,830.584762,830.584762,830.584762,830.584762,830.584762,830.584762,830.584762,830.584762,l,0.782159371,1,100,0,831.3855099,832.8874754,,,,,,,,,,,,,,,,,,,,,,,,,,,,,,,,,,,,,,,,,,,,,,,,,,,,,,,,,,,,,,,,,,,,,,,,,,,98412_2,2022-11-30_14h29.30.923,vts_reward_expectancy_bt_OFFLINE,2022.2.4,60.11236648
0,0,0,1,1,0,0,0,star,triangle,0,0,0,0,1,7,19,9,,,,,,,,,,,,,,,,,,,,,,,,,,,,,,,,,,,,,,,,833.3879201,833.3879201,833.3879201,833.3879201,833.3879201,833.3879201,833.3879201,833.3879201,833.3879201,833.3879201,a,0.458343323,1,101,0,833.8717587,835.373443,,,,,,,,,,,,,,,,,,,,,,,,,,,,,,,,,,,,,,,,,,,,,,,,,,,,,,,,,,,,,,,,,,,,,,,,,,,98412_2,2022-11-30_14h29.30.923,vts_reward_expectancy_bt_OFFLINE,2022.2.4,60.11236648
0,0,0,1,0,0,1,0,star,hexagon,0,0,0,0,1,8,20,11,,,,,,,,,,,,,,,,,,,,,,,,,,,,,,,,,,,,,,,,835.8740607,835.8740607,835.8740607,835.8740607,835.8740607,835.8740607,835.8740607,835.8740607,835.8740607,835.8740607,l,0.5003893,1,102,0,836.3910687,837.8930585,,,,,,,,,,,,,,,,,,,,,,,,,,,,,,,,,,,,,,,,,,,,,,,,,,,,,,,,,,,,,,,,,,,,,,,,,,,98412_2,2022-11-30_14h29.30.923,vts_reward_expectancy_bt_OFFLINE,2022.2.4,60.11236648
0,1,0,0,1,0,0,0,circle,triangle,0,0,0,0,1,9,21,3,,,,,,,,,,,,,,,,,,,,,,,,,,,,,,,,,,,,,,,,838.3932095,838.3932095,838.3932095,838.3932095,838.3932095,838.3932095,838.3932095,838.3932095,838.3932095,838.3932095,l,0.412683176,10,112,0,838.8271476,840.3287063,,,,,,,,,,,,,,,,,,,,,,,,,,,,,,,,,,,,,,,,,,,,,,,,,,,,,,,,,,,,,,,,,,,,,,,,,,,98412_2,2022-11-30_14h29.30.923,vts_reward_expectancy_bt_OFFLINE,2022.2.4,60.11236648
0,0,1,0,0,1,0,0,hexagon,circle,0,0,0,0,1,10,22,7,,,,,,,,,,,,,,,,,,,,,,,,,,,,,,,,,,,,,,,,840.8292179,840.8292179,840.8292179,840.8292179,840.8292179,840.8292179,840.8292179,840.8292179,840.8292179,840.8292179,l,0.889787521,1,113,0,841.7468982,843.2485979,,,,,,,,,,,,,,,,,,,,,,,,,,,,,,,,,,,,,,,,,,,,,,,,,,,,,,,,,,,,,,,,,,,,,,,,,,,98412_2,2022-11-30_14h29.30.923,vts_reward_expectancy_bt_OFFLINE,2022.2.4,60.11236648
0,0,1,0,1,0,0,0,hexagon,triangle,0,0,0,0,1,11,23,6,,,,,,,,,,,,,,,,,,,,,,,,,,,,,,,,,,,,,,,,843.7491465,843.7491465,843.7491465,843.7491465,843.7491465,843.7491465,843.7491465,843.7491465,843.7491465,843.7491465,l,0.761789234,1,114,0,844.5333101,846.0351114,,,,,,,,,,,,,,,,,,,,,,,,,,,,,,,,,,,,,,,,,,,,,,,,,,,,,,,,,,,,,,,,,,,,,,,,,,,98412_2,2022-11-30_14h29.30.923,vts_reward_expectancy_bt_OFFLINE,2022.2.4,60.11236648
0,1,0,0,0,0,1,0,circle,hexagon,0,0,0,0,2,0,24,4,,,,,,,,,,,,,,,,,,,,,,,,,,,,,,,,,,,,,,,,846.5356249,846.5356249,846.5356249,846.5356249,846.5356249,846.5356249,846.5356249,846.5356249,846.5356249,846.5356249,a,0.1181844,10,124,0,846.6859069,848.1874627,,,,,,,,,,,,,,,,,,,,,,,,,,,,,,,,,,,,,,,,,,,,,,,,,,,,,,,,,,,,,,,,,,,,,,,,,,,98412_2,2022-11-30_14h29.30.923,vts_reward_expectancy_bt_OFFLINE,2022.2.4,60.11236648
0,0,0,1,0,1,0,0,star ,circle,0,0,0,0,2,1,25,10,,,,,,,,,,,,,,,,,,,,,,,,,,,,,,,,,,,,,,,,848.6880144,848.6880144,848.6880144,848.6880144,848.6880144,848.6880144,848.6880144,848.6880144,848.6880144,848.6880144,a,0.286360134,10,134,0,849.0049932,850.5067042,,,,,,,,,,,,,,,,,,,,,,,,,,,,,,,,,,,,,,,,,,,,,,,,,,,,,,,,,,,,,,,,,,,,,,,,,,,98412_2,2022-11-30_14h29.30.923,vts_reward_expectancy_bt_OFFLINE,2022.2.4,60.11236648
0,0,1,0,0,0,0,1,hexagon,star,0,0,0,0,2,2,26,8,,,,,,,,,,,,,,,,,,,,,,,,,,,,,,,,,,,,,,,,851.0072736,851.0072736,851.0072736,851.0072736,851.0072736,851.0072736,851.0072736,851.0072736,851.0072736,851.0072736,l,0.567694332,1,135,0,851.591458,853.0929288,,,,,,,,,,,,,,,,,,,,,,,,,,,,,,,,,,,,,,,,,,,,,,,,,,,,,,,,,,,,,,,,,,,,,,,,,,,98412_2,2022-11-30_14h29.30.923,vts_reward_expectancy_bt_OFFLINE,2022.2.4,60.11236648
0,0,1,0,0,1,0,0,hexagon,circle,0,0,0,0,2,3,27,7,,,,,,,,,,,,,,,,,,,,,,,,,,,,,,,,,,,,,,,,853.5934291,853.5934291,853.5934291,853.5934291,853.5934291,853.5934291,853.5934291,853.5934291,853.5934291,853.5934291,l,0.436476299,10,145,0,854.0606093,855.5623206,,,,,,,,,,,,,,,,,,,,,,,,,,,,,,,,,,,,,,,,,,,,,,,,,,,,,,,,,,,,,,,,,,,,,,,,,,,98412_2,2022-11-30_14h29.30.923,vts_reward_expectancy_bt_OFFLINE,2022.2.4,60.11236648
0,1,0,0,0,0,0,1,circle,star,0,0,0,0,2,4,28,5,,,,,,,,,,,,,,,,,,,,,,,,,,,,,,,,,,,,,,,,856.0629413,856.0629413,856.0629413,856.0629413,856.0629413,856.0629413,856.0629413,856.0629413,856.0629413,856.0629413,a,0.319299211,10,155,0,856.4134212,857.9149069,,,,,,,,,,,,,,,,,,,,,,,,,,,,,,,,,,,,,,,,,,,,,,,,,,,,,,,,,,,,,,,,,,,,,,,,,,,98412_2,2022-11-30_14h29.30.923,vts_reward_expectancy_bt_OFFLINE,2022.2.4,60.11236648
0,1,0,0,1,0,0,0,circle,triangle,0,0,0,0,2,5,29,3,,,,,,,,,,,,,,,,,,,,,,,,,,,,,,,,,,,,,,,,858.4155836,858.4155836,858.4155836,858.4155836,858.4155836,858.4155836,858.4155836,858.4155836,858.4155836,858.4155836,l,0.310676848,10,165,0,858.7492665,860.2507083,,,,,,,,,,,,,,,,,,,,,,,,,,,,,,,,,,,,,,,,,,,,,,,,,,,,,,,,,,,,,,,,,,,,,,,,,,,98412_2,2022-11-30_14h29.30.923,vts_reward_expectancy_bt_OFFLINE,2022.2.4,60.11236648
1,0,0,0,0,0,1,0,triangle,hexagon,0,0,0,0,2,6,30,1,,,,,,,,,,,,,,,,,,,,,,,,,,,,,,,,,,,,,,,,860.7513963,860.7513963,860.7513963,860.7513963,860.7513963,860.7513963,860.7513963,860.7513963,860.7513963,860.7513963,a,0.30253688,10,175,0,861.0849785,862.5865728,,,,,,,,,,,,,,,,,,,,,,,,,,,,,,,,,,,,,,,,,,,,,,,,,,,,,,,,,,,,,,,,,,,,,,,,,,,98412_2,2022-11-30_14h29.30.923,vts_reward_expectancy_bt_OFFLINE,2022.2.4,60.11236648
0,0,1,0,1,0,0,0,hexagon,triangle,0,0,0,0,2,7,31,6,,,,,,,,,,,,,,,,,,,,,,,,,,,,,,,,,,,,,,,,863.0871556,863.0871556,863.0871556,863.0871556,863.0871556,863.0871556,863.0871556,863.0871556,863.0871556,863.0871556,l,0.239975037,10,185,0,863.3541427,864.8559132,,,,,,,,,,,,,,,,,,,,,,,,,,,,,,,,,,,,,,,,,,,,,,,,,,,,,,,,,,,,,,,,,,,,,,,,,,,98412_2,2022-11-30_14h29.30.923,vts_reward_expectancy_bt_OFFLINE,2022.2.4,60.11236648
1,0,0,0,0,0,0,1,triangle,star,0,0,0,0,2,8,32,2,,,,,,,,,,,,,,,,,,,,,,,,,,,,,,,,,,,,,,,,865.3564841,865.3564841,865.3564841,865.3564841,865.3564841,865.3564841,865.3564841,865.3564841,865.3564841,865.3564841,a,0.474422915,10,195,0,865.8570435,867.3587556,,,,,,,,,,,,,,,,,,,,,,,,,,,,,,,,,,,,,,,,,,,,,,,,,,,,,,,,,,,,,,,,,,,,,,,,,,,98412_2,2022-11-30_14h29.30.923,vts_reward_expectancy_bt_OFFLINE,2022.2.4,60.11236648
1,0,0,0,0,1,0,0,triangle,circle,0,0,0,0,2,9,33,0,,,,,,,,,,,,,,,,,,,,,,,,,,,,,,,,,,,,,,,,867.8591367,867.8591367,867.8591367,867.8591367,867.8591367,867.8591367,867.8591367,867.8591367,867.8591367,867.8591367,l,0.299197722,10,205,0,868.1761934,869.6791861,,,,,,,,,,,,,,,,,,,,,,,,,,,,,,,,,,,,,,,,,,,,,,,,,,,,,,,,,,,,,,,,,,,,,,,,,,,98412_2,2022-11-30_14h29.30.923,vts_reward_expectancy_bt_OFFLINE,2022.2.4,60.11236648
0,0,0,1,1,0,0,0,star,triangle,0,0,0,0,2,10,34,9,,,,,,,,,,,,,,,,,,,,,,,,,,,,,,,,,,,,,,,,870.1783121,870.1783121,870.1783121,870.1783121,870.1783121,870.1783121,870.1783121,870.1783121,870.1783121,870.1783121,a,0.291905438,1,206,0,870.4954615,871.9971105,,,,,,,,,,,,,,,,,,,,,,,,,,,,,,,,,,,,,,,,,,,,,,,,,,,,,,,,,,,,,,,,,,,,,,,,,,,98412_2,2022-11-30_14h29.30.923,vts_reward_expectancy_bt_OFFLINE,2022.2.4,60.11236648
0,0,0,1,0,0,1,0,star,hexagon,0,0,0,0,2,11,35,11,,,,,,,,,,,,,,,,,,,,,,,,,,,,,,,,,,,,,,,,872.4975773,872.4975773,872.4975773,872.4975773,872.4975773,872.4975773,872.4975773,872.4975773,872.4975773,872.4975773,l,0.268456549,1,207,0,872.7981166,874.2995853,,,,,,,,,,,,,,,,,,,,,,,,,,,,,,,,,,,,,,,,,,,,,,,,,,,,,,,,,,,,,,,,,,,,,,,,,,,98412_2,2022-11-30_14h29.30.923,vts_reward_expectancy_bt_OFFLINE,2022.2.4,60.11236648
0,0,0,1,1,0,0,0,star,triangle,0,0,0,0,3,0,36,9,,,,,,,,,,,,,,,,,,,,,,,,,,,,,,,,,,,,,,,,874.8001595,874.8001595,874.8001595,874.8001595,874.8001595,874.8001595,874.8001595,874.8001595,874.8001595,874.8001595,l,0.637932524,10,217,0,875.4672057,876.9692468,,,,,,,,,,,,,,,,,,,,,,,,,,,,,,,,,,,,,,,,,,,,,,,,,,,,,,,,,,,,,,,,,,,,,,,,,,,98412_2,2022-11-30_14h29.30.923,vts_reward_expectancy_bt_OFFLINE,2022.2.4,60.11236648
0,1,0,0,0,0,0,1,circle,star,0,0,0,0,3,1,37,5,,,,,,,,,,,,,,,,,,,,,,,,,,,,,,,,,,,,,,,,877.4696902,877.4696902,877.4696902,877.4696902,877.4696902,877.4696902,877.4696902,877.4696902,877.4696902,877.4696902,a,0.327749911,10,227,0,877.8202375,879.3217787,,,,,,,,,,,,,,,,,,,,,,,,,,,,,,,,,,,,,,,,,,,,,,,,,,,,,,,,,,,,,,,,,,,,,,,,,,,98412_2,2022-11-30_14h29.30.923,vts_reward_expectancy_bt_OFFLINE,2022.2.4,60.11236648
0,0,1,0,0,1,0,0,hexagon,circle,0,0,0,0,3,2,38,7,,,,,,,,,,,,,,,,,,,,,,,,,,,,,,,,,,,,,,,,879.8225289,879.8225289,879.8225289,879.8225289,879.8225289,879.8225289,879.8225289,879.8225289,879.8225289,879.8225289,l,0.302822963,10,237,0,880.1562256,881.6578969,,,,,,,,,,,,,,,,,,,,,,,,,,,,,,,,,,,,,,,,,,,,,,,,,,,,,,,,,,,,,,,,,,,,,,,,,,,98412_2,2022-11-30_14h29.30.923,vts_reward_expectancy_bt_OFFLINE,2022.2.4,60.11236648
0,1,0,0,0,0,1,0,circle,hexagon,0,0,0,0,3,3,39,4,,,,,,,,,,,,,,,,,,,,,,,,,,,,,,,,,,,,,,,,882.1584622,882.1584622,882.1584622,882.1584622,882.1584622,882.1584622,882.1584622,882.1584622,882.1584622,882.1584622,a,0.26387657,10,247,0,882.4420412,883.9437457,,,,,,,,,,,,,,,,,,,,,,,,,,,,,,,,,,,,,,,,,,,,,,,,,,,,,,,,,,,,,,,,,,,,,,,,,,,98412_2,2022-11-30_14h29.30.923,vts_reward_expectancy_bt_OFFLINE,2022.2.4,60.11236648
0,0,1,0,1,0,0,0,hexagon,triangle,0,0,0,0,3,4,40,6,,,,,,,,,,,,,,,,,,,,,,,,,,,,,,,,,,,,,,,,884.4443296,884.4443296,884.4443296,884.4443296,884.4443296,884.4443296,884.4443296,884.4443296,884.4443296,884.4443296,l,0.306359099,10,257,0,884.7780091,886.2793969,,,,,,,,,,,,,,,,,,,,,,,,,,,,,,,,,,,,,,,,,,,,,,,,,,,,,,,,,,,,,,,,,,,,,,,,,,,98412_2,2022-11-30_14h29.30.923,vts_reward_expectancy_bt_OFFLINE,2022.2.4,60.11236648
0,0,0,1,0,1,0,0,star ,circle,0,0,0,0,3,5,41,10,,,,,,,,,,,,,,,,,,,,,,,,,,,,,,,,,,,,,,,,886.7800695,886.7800695,886.7800695,886.7800695,886.7800695,886.7800695,886.7800695,886.7800695,886.7800695,886.7800695,a,0.242521202,10,267,0,887.0471412,888.5486557,,,,,,,,,,,,,,,,,,,,,,,,,,,,,,,,,,,,,,,,,,,,,,,,,,,,,,,,,,,,,,,,,,,,,,,,,,,98412_2,2022-11-30_14h29.30.923,vts_reward_expectancy_bt_OFFLINE,2022.2.4,60.11236648
0,0,1,0,0,0,0,1,hexagon,star,0,0,0,0,3,6,42,8,,,,,,,,,,,,,,,,,,,,,,,,,,,,,,,,,,,,,,,,889.0491596,889.0491596,889.0491596,889.0491596,889.0491596,889.0491596,889.0491596,889.0491596,889.0491596,889.0491596,l,0.261401358,1,268,0,889.3327156,890.8345729,,,,,,,,,,,,,,,,,,,,,,,,,,,,,,,,,,,,,,,,,,,,,,,,,,,,,,,,,,,,,,,,,,,,,,,,,,,98412_2,2022-11-30_14h29.30.923,vts_reward_expectancy_bt_OFFLINE,2022.2.4,60.11236648
1,0,0,0,0,1,0,0,triangle,circle,0,0,0,0,3,7,43,0,,,,,,,,,,,,,,,,,,,,,,,,,,,,,,,,,,,,,,,,891.3351435,891.3351435,891.3351435,891.3351435,891.3351435,891.3351435,891.3351435,891.3351435,891.3351435,891.3351435,l,0.231885448,10,278,0,891.5854663,893.0869522,,,,,,,,,,,,,,,,,,,,,,,,,,,,,,,,,,,,,,,,,,,,,,,,,,,,,,,,,,,,,,,,,,,,,,,,,,,98412_2,2022-11-30_14h29.30.923,vts_reward_expectancy_bt_OFFLINE,2022.2.4,60.11236648
1,0,0,0,0,0,0,1,triangle,star,0,0,0,0,3,8,44,2,,,,,,,,,,,,,,,,,,,,,,,,,,,,,,,,,,,,,,,,893.587594,893.587594,893.587594,893.587594,893.587594,893.587594,893.587594,893.587594,893.587594,893.587594,a,0.20174659,10,288,0,893.8211376,895.3228637,,,,,,,,,,,,,,,,,,,,,,,,,,,,,,,,,,,,,,,,,,,,,,,,,,,,,,,,,,,,,,,,,,,,,,,,,,,98412_2,2022-11-30_14h29.30.923,vts_reward_expectancy_bt_OFFLINE,2022.2.4,60.11236648
0,0,0,1,0,0,1,0,star,hexagon,0,0,0,0,3,9,45,11,,,,,,,,,,,,,,,,,,,,,,,,,,,,,,,,,,,,,,,,895.8233581,895.8233581,895.8233581,895.8233581,895.8233581,895.8233581,895.8233581,895.8233581,895.8233581,895.8233581,l,0.055056855,1,289,0,895.9067468,897.4085427,,,,,,,,,,,,,,,,,,,,,,,,,,,,,,,,,,,,,,,,,,,,,,,,,,,,,,,,,,,,,,,,,,,,,,,,,,,98412_2,2022-11-30_14h29.30.923,vts_reward_expectancy_bt_OFFLINE,2022.2.4,60.11236648
0,1,0,0,1,0,0,0,circle,triangle,0,0,0,0,3,10,46,3,,,,,,,,,,,,,,,,,,,,,,,,,,,,,,,,,,,,,,,,897.9090218,897.9090218,897.9090218,897.9090218,897.9090218,897.9090218,897.9090218,897.9090218,897.9090218,897.9090218,a,0.536378644,10,299,0,898.4763513,899.9779491,,,,,,,,,,,,,,,,,,,,,,,,,,,,,,,,,,,,,,,,,,,,,,,,,,,,,,,,,,,,,,,,,,,,,,,,,,,98412_2,2022-11-30_14h29.30.923,vts_reward_expectancy_bt_OFFLINE,2022.2.4,60.11236648
1,0,0,0,0,0,1,0,triangle,hexagon,0,0,0,0,3,11,47,1,,,,,,,,,,,,,,,,,,,,,,,,,,,,,,,,,,,,,,,,900.4784704,900.4784704,900.4784704,900.4784704,900.4784704,900.4784704,900.4784704,900.4784704,900.4784704,900.4784704,l,0.1598362,10,309,0,900.662055,902.1636483,902.1636483,,,,,,,,,,,,,,,,,,,,,,,,,,,,,,,,,,,,,,,,,,,,,,,,,,,,,,,,,,,,,,,,,,,,,,,,,,98412_2,2022-11-30_14h29.30.923,vts_reward_expectancy_bt_OFFLINE,2022.2.4,60.11236648
0,0,0,1,0,1,0,0,star ,circle,1,0,1,0,0,0,0,10,,,,,,,,,,,,,,,,,,,,,,,,,,,,,,,,,,,,,,,,907.193493,907.193493,907.193493,907.193493,907.193493,907.193493,907.193493,907.193493,907.193493,907.193493,a,0.73338083,10,319,1,907.9533729,909.4551896,,,,,,,,,,,,,,,,,,,,,,,,,,,,,,,,,,,,,,,,,,,,,,,,,,,,,,,,,,,,,,,,,,,,,,,,,,,98412_2,2022-11-30_14h29.30.923,vts_reward_expectancy_bt_OFFLINE,2022.2.4,60.11236648
0,1,0,0,0,0,0,1,circle,star,1,0,1,0,0,1,1,5,,,,,,,,,,,,,,,,,,,,,,,,,,,,,,,,,,,,,,,,909.9557795,909.9557795,909.9557795,909.9557795,909.9557795,909.9557795,909.9557795,909.9557795,909.9557795,909.9557795,l,0.257967381,1,320,1,910.2392994,911.7407771,,,,,,,,,,,,,,,,,,,,,,,,,,,,,,,,,,,,,,,,,,,,,,,,,,,,,,,,,,,,,,,,,,,,,,,,,,,98412_2,2022-11-30_14h29.30.923,vts_reward_expectancy_bt_OFFLINE,2022.2.4,60.11236648
0,0,1,0,1,0,0,0,hexagon,triangle,1,0,1,0,0,2,2,6,,,,,,,,,,,,,,,,,,,,,,,,,,,,,,,,,,,,,,,,912.2413982,912.2413982,912.2413982,912.2413982,912.2413982,912.2413982,912.2413982,912.2413982,912.2413982,912.2413982,l,0.309115208,10,330,1,912.5749993,914.0768296,,,,,,,,,,,,,,,,,,,,,,,,,,,,,,,,,,,,,,,,,,,,,,,,,,,,,,,,,,,,,,,,,,,,,,,,,,,98412_2,2022-11-30_14h29.30.923,vts_reward_expectancy_bt_OFFLINE,2022.2.4,60.11236648
1,0,0,0,0,0,0,1,triangle,star,1,0,1,0,0,3,3,2,,,,,,,,,,,,,,,,,,,,,,,,,,,,,,,,,,,,,,,,914.5773662,914.5773662,914.5773662,914.5773662,914.5773662,914.5773662,914.5773662,914.5773662,914.5773662,914.5773662,a,0.26818258,1,331,1,914.8775646,916.3793024,,,,,,,,,,,,,,,,,,,,,,,,,,,,,,,,,,,,,,,,,,,,,,,,,,,,,,,,,,,,,,,,,,,,,,,,,,,98412_2,2022-11-30_14h29.30.923,vts_reward_expectancy_bt_OFFLINE,2022.2.4,60.11236648
0,0,0,1,0,0,1,0,star,hexagon,1,0,1,0,0,4,4,11,,,,,,,,,,,,,,,,,,,,,,,,,,,,,,,,,,,,,,,,916.8798031,916.8798031,916.8798031,916.8798031,916.8798031,916.8798031,916.8798031,916.8798031,916.8798031,916.8798031,l,0.223114601,1,332,1,917.130142,918.6317866,,,,,,,,,,,,,,,,,,,,,,,,,,,,,,,,,,,,,,,,,,,,,,,,,,,,,,,,,,,,,,,,,,,,,,,,,,,98412_2,2022-11-30_14h29.30.923,vts_reward_expectancy_bt_OFFLINE,2022.2.4,60.11236648
1,0,0,0,0,0,1,0,triangle,hexagon,1,0,1,0,0,5,5,1,,,,,,,,,,,,,,,,,,,,,,,,,,,,,,,,,,,,,,,,919.1324094,919.1324094,919.1324094,919.1324094,919.1324094,919.1324094,919.1324094,919.1324094,919.1324094,919.1324094,l,0.250544677,1,333,1,919.3992645,920.9010671,,,,,,,,,,,,,,,,,,,,,,,,,,,,,,,,,,,,,,,,,,,,,,,,,,,,,,,,,,,,,,,,,,,,,,,,,,,98412_2,2022-11-30_14h29.30.923,vts_reward_expectancy_bt_OFFLINE,2022.2.4,60.11236648
0,0,1,0,0,1,0,0,hexagon,circle,1,0,1,0,0,6,6,7,,,,,,,,,,,,,,,,,,,,,,,,,,,,,,,,,,,,,,,,921.4016428,921.4016428,921.4016428,921.4016428,921.4016428,921.4016428,921.4016428,921.4016428,921.4016428,921.4016428,a,0.284436078,1,334,1,921.7185658,923.2202164,,,,,,,,,,,,,,,,,,,,,,,,,,,,,,,,,,,,,,,,,,,,,,,,,,,,,,,,,,,,,,,,,,,,,,,,,,,98412_2,2022-11-30_14h29.30.923,vts_reward_expectancy_bt_OFFLINE,2022.2.4,60.11236648
0,0,1,0,0,0,0,1,hexagon,star,1,0,1,0,0,7,7,8,,,,,,,,,,,,,,,,,,,,,,,,,,,,,,,,,,,,,,,,923.720896,923.720896,923.720896,923.720896,923.720896,923.720896,923.720896,923.720896,923.720896,923.720896,a,0.198830603,1,335,1,923.9376986,925.4393555,,,,,,,,,,,,,,,,,,,,,,,,,,,,,,,,,,,,,,,,,,,,,,,,,,,,,,,,,,,,,,,,,,,,,,,,,,,98412_2,2022-11-30_14h29.30.923,vts_reward_expectancy_bt_OFFLINE,2022.2.4,60.11236648
1,0,0,0,0,1,0,0,triangle,circle,1,0,1,0,0,8,8,0,,,,,,,,,,,,,,,,,,,,,,,,,,,,,,,,,,,,,,,,925.940027,925.940027,925.940027,925.940027,925.940027,925.940027,925.940027,925.940027,925.940027,925.940027,a,0.31454663,10,345,1,926.2736949,927.7754403,,,,,,,,,,,,,,,,,,,,,,,,,,,,,,,,,,,,,,,,,,,,,,,,,,,,,,,,,,,,,,,,,,,,,,,,,,,98412_2,2022-11-30_14h29.30.923,vts_reward_expectancy_bt_OFFLINE,2022.2.4,60.11236648
0,1,0,0,0,0,1,0,circle,hexagon,1,0,1,0,0,9,9,4,,,,,,,,,,,,,,,,,,,,,,,,,,,,,,,,,,,,,,,,928.275663,928.275663,928.275663,928.275663,928.275663,928.275663,928.275663,928.275663,928.275663,928.275663,l,0.258399901,1,346,1,928.5596217,930.0611089,,,,,,,,,,,,,,,,,,,,,,,,,,,,,,,,,,,,,,,,,,,,,,,,,,,,,,,,,,,,,,,,,,,,,,,,,,,98412_2,2022-11-30_14h29.30.923,vts_reward_expectancy_bt_OFFLINE,2022.2.4,60.11236648
0,0,0,1,1,0,0,0,star,triangle,1,0,1,0,0,10,10,9,,,,,,,,,,,,,,,,,,,,,,,,,,,,,,,,,,,,,,,,930.5616001,930.5616001,930.5616001,930.5616001,930.5616001,930.5616001,930.5616001,930.5616001,930.5616001,930.5616001,a,0.40439194,10,356,1,930.9955201,932.4973613,,,,,,,,,,,,,,,,,,,,,,,,,,,,,,,,,,,,,,,,,,,,,,,,,,,,,,,,,,,,,,,,,,,,,,,,,,,98412_2,2022-11-30_14h29.30.923,vts_reward_expectancy_bt_OFFLINE,2022.2.4,60.11236648
0,1,0,0,1,0,0,0,circle,triangle,1,0,1,0,0,11,11,3,,,,,,,,,,,,,,,,,,,,,,,,,,,,,,,,,,,,,,,,932.9978934,932.9978934,932.9978934,932.9978934,932.9978934,932.9978934,932.9978934,932.9978934,932.9978934,932.9978934,a,0.080856396,10,366,1,933.0979278,934.5995148,,,,,,,,,,,,,,,,,,,,,,,,,,,,,,,,,,,,,,,,,,,,,,,,,,,,,,,,,,,,,,,,,,,,,,,,,,,98412_2,2022-11-30_14h29.30.923,vts_reward_expectancy_bt_OFFLINE,2022.2.4,60.11236648
0,1,0,0,0,0,1,0,circle,hexagon,1,0,1,0,1,0,12,4,,,,,,,,,,,,,,,,,,,,,,,,,,,,,,,,,,,,,,,,935.1001279,935.1001279,935.1001279,935.1001279,935.1001279,935.1001279,935.1001279,935.1001279,935.1001279,935.1001279,a,0.001696081,10,376,1,935.1335349,936.6349919,,,,,,,,,,,,,,,,,,,,,,,,,,,,,,,,,,,,,,,,,,,,,,,,,,,,,,,,,,,,,,,,,,,,,,,,,,,98412_2,2022-11-30_14h29.30.923,vts_reward_expectancy_bt_OFFLINE,2022.2.4,60.11236648
0,0,0,1,0,0,1,0,star,hexagon,1,0,1,0,1,1,13,11,,,,,,,,,,,,,,,,,,,,,,,,,,,,,,,,,,,,,,,,937.1356623,937.1356623,937.1356623,937.1356623,937.1356623,937.1356623,937.1356623,937.1356623,937.1356623,937.1356623,a,0.270808369,1,377,1,937.4360665,938.9375636,,,,,,,,,,,,,,,,,,,,,,,,,,,,,,,,,,,,,,,,,,,,,,,,,,,,,,,,,,,,,,,,,,,,,,,,,,,98412_2,2022-11-30_14h29.30.923,vts_reward_expectancy_bt_OFFLINE,2022.2.4,60.11236648
1,0,0,0,0,1,0,0,triangle,circle,1,0,1,0,1,2,14,0,,,,,,,,,,,,,,,,,,,,,,,,,,,,,,,,,,,,,,,,939.4381354,939.4381354,939.4381354,939.4381354,939.4381354,939.4381354,939.4381354,939.4381354,939.4381354,939.4381354,l,0.408001449,1,378,1,939.8719299,941.3735143,,,,,,,,,,,,,,,,,,,,,,,,,,,,,,,,,,,,,,,,,,,,,,,,,,,,,,,,,,,,,,,,,,,,,,,,,,,98412_2,2022-11-30_14h29.30.923,vts_reward_expectancy_bt_OFFLINE,2022.2.4,60.11236648
0,1,0,0,0,0,0,1,circle,star,1,0,1,0,1,3,15,5,,,,,,,,,,,,,,,,,,,,,,,,,,,,,,,,,,,,,,,,941.8739797,941.8739797,941.8739797,941.8739797,941.8739797,941.8739797,941.8739797,941.8739797,941.8739797,941.8739797,a,0.379530104,10,388,1,942.2745335,943.776309,,,,,,,,,,,,,,,,,,,,,,,,,,,,,,,,,,,,,,,,,,,,,,,,,,,,,,,,,,,,,,,,,,,,,,,,,,,98412_2,2022-11-30_14h29.30.923,vts_reward_expectancy_bt_OFFLINE,2022.2.4,60.11236648
0,0,0,1,1,0,0,0,star,triangle,1,0,1,0,1,4,16,9,,,,,,,,,,,,,,,,,,,,,,,,,,,,,,,,,,,,,,,,944.2767424,944.2767424,944.2767424,944.2767424,944.2767424,944.2767424,944.2767424,944.2767424,944.2767424,944.2767424,a,0.041223066,1,389,1,944.3436343,945.8453647,,,,,,,,,,,,,,,,,,,,,,,,,,,,,,,,,,,,,,,,,,,,,,,,,,,,,,,,,,,,,,,,,,,,,,,,,,,98412_2,2022-11-30_14h29.30.923,vts_reward_expectancy_bt_OFFLINE,2022.2.4,60.11236648
0,0,0,1,0,1,0,0,star ,circle,1,0,1,0,1,5,17,10,,,,,,,,,,,,,,,,,,,,,,,,,,,,,,,,,,,,,,,,946.3460112,946.3460112,946.3460112,946.3460112,946.3460112,946.3460112,946.3460112,946.3460112,946.3460112,946.3460112,a,0.460220862,1,390,1,946.8297545,948.3312507,,,,,,,,,,,,,,,,,,,,,,,,,,,,,,,,,,,,,,,,,,,,,,,,,,,,,,,,,,,,,,,,,,,,,,,,,,,98412_2,2022-11-30_14h29.30.923,vts_reward_expectancy_bt_OFFLINE,2022.2.4,60.11236648
1,0,0,0,0,0,0,1,triangle,star,1,0,1,0,1,6,18,2,,,,,,,,,,,,,,,,,,,,,,,,,,,,,,,,,,,,,,,,948.831919,948.831919,948.831919,948.831919,948.831919,948.831919,948.831919,948.831919,948.831919,948.831919,l,0.32627764,1,391,1,949.1822567,950.6839235,,,,,,,,,,,,,,,,,,,,,,,,,,,,,,,,,,,,,,,,,,,,,,,,,,,,,,,,,,,,,,,,,,,,,,,,,,,98412_2,2022-11-30_14h29.30.923,vts_reward_expectancy_bt_OFFLINE,2022.2.4,60.11236648
1,0,0,0,0,0,1,0,triangle,hexagon,1,0,1,0,1,7,19,1,,,,,,,,,,,,,,,,,,,,,,,,,,,,,,,,,,,,,,,,951.1844768,951.1844768,951.1844768,951.1844768,951.1844768,951.1844768,951.1844768,951.1844768,951.1844768,951.1844768,a,0.269014773,10,401,1,951.4847981,952.9865525,,,,,,,,,,,,,,,,,,,,,,,,,,,,,,,,,,,,,,,,,,,,,,,,,,,,,,,,,,,,,,,,,,,,,,,,,,,98412_2,2022-11-30_14h29.30.923,vts_reward_expectancy_bt_OFFLINE,2022.2.4,60.11236648
0,0,1,0,0,0,0,1,hexagon,star,1,0,1,0,1,8,20,8,,,,,,,,,,,,,,,,,,,,,,,,,,,,,,,,,,,,,,,,953.4869524,953.4869524,953.4869524,953.4869524,953.4869524,953.4869524,953.4869524,953.4869524,953.4869524,953.4869524,l,0.199893592,1,402,1,953.7040007,955.2054898,,,,,,,,,,,,,,,,,,,,,,,,,,,,,,,,,,,,,,,,,,,,,,,,,,,,,,,,,,,,,,,,,,,,,,,,,,,98412_2,2022-11-30_14h29.30.923,vts_reward_expectancy_bt_OFFLINE,2022.2.4,60.11236648
0,1,0,0,1,0,0,0,circle,triangle,1,0,1,0,1,9,21,3,,,,,,,,,,,,,,,,,,,,,,,,,,,,,,,,,,,,,,,,955.7062582,955.7062582,955.7062582,955.7062582,955.7062582,955.7062582,955.7062582,955.7062582,955.7062582,955.7062582,a,0.572224546,1,403,1,956.306841,957.8084863,,,,,,,,,,,,,,,,,,,,,,,,,,,,,,,,,,,,,,,,,,,,,,,,,,,,,,,,,,,,,,,,,,,,,,,,,,,98412_2,2022-11-30_14h29.30.923,vts_reward_expectancy_bt_OFFLINE,2022.2.4,60.11236648
0,0,1,0,1,0,0,0,hexagon,triangle,1,0,1,0,1,10,22,6,,,,,,,,,,,,,,,,,,,,,,,,,,,,,,,,,,,,,,,,958.308863,958.308863,958.308863,958.308863,958.308863,958.308863,958.308863,958.308863,958.308863,958.308863,l,0.282031517,10,413,1,958.6092318,960.1110654,,,,,,,,,,,,,,,,,,,,,,,,,,,,,,,,,,,,,,,,,,,,,,,,,,,,,,,,,,,,,,,,,,,,,,,,,,,98412_2,2022-11-30_14h29.30.923,vts_reward_expectancy_bt_OFFLINE,2022.2.4,60.11236648
0,0,1,0,0,1,0,0,hexagon,circle,1,0,1,0,1,11,23,7,,,,,,,,,,,,,,,,,,,,,,,,,,,,,,,,,,,,,,,,960.611433,960.611433,960.611433,960.611433,960.611433,960.611433,960.611433,960.611433,960.611433,960.611433,a,0.899280028,10,423,1,961.5291646,963.0308004,,,,,,,,,,,,,,,,,,,,,,,,,,,,,,,,,,,,,,,,,,,,,,,,,,,,,,,,,,,,,,,,,,,,,,,,,,,98412_2,2022-11-30_14h29.30.923,vts_reward_expectancy_bt_OFFLINE,2022.2.4,60.11236648
1,0,0,0,0,1,0,0,triangle,circle,1,0,1,0,2,0,24,0,,,,,,,,,,,,,,,,,,,,,,,,,,,,,,,,,,,,,,,,963.5313043,963.5313043,963.5313043,963.5313043,963.5313043,963.5313043,963.5313043,963.5313043,963.5313043,963.5313043,l,0.370856282,1,424,1,963.9318407,965.4334957,,,,,,,,,,,,,,,,,,,,,,,,,,,,,,,,,,,,,,,,,,,,,,,,,,,,,,,,,,,,,,,,,,,,,,,,,,,98412_2,2022-11-30_14h29.30.923,vts_reward_expectancy_bt_OFFLINE,2022.2.4,60.11236648
0,1,0,0,0,0,1,0,circle,hexagon,1,0,1,0,2,1,25,4,,,,,,,,,,,,,,,,,,,,,,,,,,,,,,,,,,,,,,,,965.9342295,965.9342295,965.9342295,965.9342295,965.9342295,965.9342295,965.9342295,965.9342295,965.9342295,965.9342295,a,0.279994155,10,434,1,966.2344631,967.7359617,,,,,,,,,,,,,,,,,,,,,,,,,,,,,,,,,,,,,,,,,,,,,,,,,,,,,,,,,,,,,,,,,,,,,,,,,,,98412_2,2022-11-30_14h29.30.923,vts_reward_expectancy_bt_OFFLINE,2022.2.4,60.11236648
0,0,1,0,0,0,0,1,hexagon,star,1,0,1,0,2,2,26,8,,,,,,,,,,,,,,,,,,,,,,,,,,,,,,,,,,,,,,,,968.2366966,968.2366966,968.2366966,968.2366966,968.2366966,968.2366966,968.2366966,968.2366966,968.2366966,968.2366966,l,0.193809118,1,435,1,968.4535075,969.9550807,,,,,,,,,,,,,,,,,,,,,,,,,,,,,,,,,,,,,,,,,,,,,,,,,,,,,,,,,,,,,,,,,,,,,,,,,,,98412_2,2022-11-30_14h29.30.923,vts_reward_expectancy_bt_OFFLINE,2022.2.4,60.11236648
0,0,1,0,1,0,0,0,hexagon,triangle,1,0,1,0,2,3,27,6,,,,,,,,,,,,,,,,,,,,,,,,,,,,,,,,,,,,,,,,970.4556525,970.4556525,970.4556525,970.4556525,970.4556525,970.4556525,970.4556525,970.4556525,970.4556525,970.4556525,a,0.062652222,1,436,1,970.5391106,972.040795,,,,,,,,,,,,,,,,,,,,,,,,,,,,,,,,,,,,,,,,,,,,,,,,,,,,,,,,,,,,,,,,,,,,,,,,,,,98412_2,2022-11-30_14h29.30.923,vts_reward_expectancy_bt_OFFLINE,2022.2.4,60.11236648
1,0,0,0,0,0,0,1,triangle,star,1,0,1,0,2,4,28,2,,,,,,,,,,,,,,,,,,,,,,,,,,,,,,,,,,,,,,,,972.54125,972.54125,972.54125,972.54125,972.54125,972.54125,972.54125,972.54125,972.54125,972.54125,l,0.320372305,1,437,1,972.8916041,974.3933587,,,,,,,,,,,,,,,,,,,,,,,,,,,,,,,,,,,,,,,,,,,,,,,,,,,,,,,,,,,,,,,,,,,,,,,,,,,98412_2,2022-11-30_14h29.30.923,vts_reward_expectancy_bt_OFFLINE,2022.2.4,60.11236648
0,0,1,0,0,1,0,0,hexagon,circle,1,0,1,0,2,5,29,7,,,,,,,,,,,,,,,,,,,,,,,,,,,,,,,,,,,,,,,,974.8940759,974.8940759,974.8940759,974.8940759,974.8940759,974.8940759,974.8940759,974.8940759,974.8940759,974.8940759,a,0.351711924,1,438,1,975.2775834,976.7792684,,,,,,,,,,,,,,,,,,,,,,,,,,,,,,,,,,,,,,,,,,,,,,,,,,,,,,,,,,,,,,,,,,,,,,,,,,,98412_2,2022-11-30_14h29.30.923,vts_reward_expectancy_bt_OFFLINE,2022.2.4,60.11236648
0,0,0,1,0,0,1,0,star,hexagon,1,0,1,0,2,6,30,11,,,,,,,,,,,,,,,,,,,,,,,,,,,,,,,,,,,,,,,,977.2797717,977.2797717,977.2797717,977.2797717,977.2797717,977.2797717,977.2797717,977.2797717,977.2797717,977.2797717,l,0.230516125,1,439,1,977.5302334,979.0317916,,,,,,,,,,,,,,,,,,,,,,,,,,,,,,,,,,,,,,,,,,,,,,,,,,,,,,,,,,,,,,,,,,,,,,,,,,,98412_2,2022-11-30_14h29.30.923,vts_reward_expectancy_bt_OFFLINE,2022.2.4,60.11236648
0,0,0,1,0,1,0,0,star ,circle,1,0,1,0,2,7,31,10,,,,,,,,,,,,,,,,,,,,,,,,,,,,,,,,,,,,,,,,979.5323482,979.5323482,979.5323482,979.5323482,979.5323482,979.5323482,979.5323482,979.5323482,979.5323482,979.5323482,l,0.266083683,10,449,1,979.815936,981.3176657,,,,,,,,,,,,,,,,,,,,,,,,,,,,,,,,,,,,,,,,,,,,,,,,,,,,,,,,,,,,,,,,,,,,,,,,,,,98412_2,2022-11-30_14h29.30.923,vts_reward_expectancy_bt_OFFLINE,2022.2.4,60.11236648
0,0,0,1,1,0,0,0,star,triangle,1,0,1,0,2,8,32,9,,,,,,,,,,,,,,,,,,,,,,,,,,,,,,,,,,,,,,,,981.8181863,981.8181863,981.8181863,981.8181863,981.8181863,981.8181863,981.8181863,981.8181863,981.8181863,981.8181863,l,0.067560604,10,459,1,981.9184434,983.4199747,,,,,,,,,,,,,,,,,,,,,,,,,,,,,,,,,,,,,,,,,,,,,,,,,,,,,,,,,,,,,,,,,,,,,,,,,,,98412_2,2022-11-30_14h29.30.923,vts_reward_expectancy_bt_OFFLINE,2022.2.4,60.11236648
1,0,0,0,0,0,1,0,triangle,hexagon,1,0,1,0,2,9,33,1,,,,,,,,,,,,,,,,,,,,,,,,,,,,,,,,,,,,,,,,983.9206013,983.9206013,983.9206013,983.9206013,983.9206013,983.9206013,983.9206013,983.9206013,983.9206013,983.9206013,l,0.30163395,1,460,1,984.2543398,985.7559295,,,,,,,,,,,,,,,,,,,,,,,,,,,,,,,,,,,,,,,,,,,,,,,,,,,,,,,,,,,,,,,,,,,,,,,,,,,98412_2,2022-11-30_14h29.30.923,vts_reward_expectancy_bt_OFFLINE,2022.2.4,60.11236648
0,1,0,0,0,0,0,1,circle,star,1,0,1,0,2,10,34,5,,,,,,,,,,,,,,,,,,,,,,,,,,,,,,,,,,,,,,,,986.2564903,986.2564903,986.2564903,986.2564903,986.2564903,986.2564903,986.2564903,986.2564903,986.2564903,986.2564903,a,0.430476962,10,470,1,986.7070273,988.2086138,,,,,,,,,,,,,,,,,,,,,,,,,,,,,,,,,,,,,,,,,,,,,,,,,,,,,,,,,,,,,,,,,,,,,,,,,,,98412_2,2022-11-30_14h29.30.923,vts_reward_expectancy_bt_OFFLINE,2022.2.4,60.11236648
0,1,0,0,1,0,0,0,circle,triangle,1,0,1,0,2,11,35,3,,,,,,,,,,,,,,,,,,,,,,,,,,,,,,,,,,,,,,,,988.7091891,988.7091891,988.7091891,988.7091891,988.7091891,988.7091891,988.7091891,988.7091891,988.7091891,988.7091891,a,0.457443389,10,480,1,989.193268,990.6946856,,,,,,,,,,,,,,,,,,,,,,,,,,,,,,,,,,,,,,,,,,,,,,,,,,,,,,,,,,,,,,,,,,,,,,,,,,,98412_2,2022-11-30_14h29.30.923,vts_reward_expectancy_bt_OFFLINE,2022.2.4,60.11236648
0,0,1,0,0,0,0,1,hexagon,star,1,0,1,0,3,0,36,8,,,,,,,,,,,,,,,,,,,,,,,,,,,,,,,,,,,,,,,,991.1953104,991.1953104,991.1953104,991.1953104,991.1953104,991.1953104,991.1953104,991.1953104,991.1953104,991.1953104,a,0.858579952,1,481,1,992.0797566,993.5812017,,,,,,,,,,,,,,,,,,,,,,,,,,,,,,,,,,,,,,,,,,,,,,,,,,,,,,,,,,,,,,,,,,,,,,,,,,,98412_2,2022-11-30_14h29.30.923,vts_reward_expectancy_bt_OFFLINE,2022.2.4,60.11236648
0,1,0,0,1,0,0,0,circle,triangle,1,0,1,0,3,1,37,3,,,,,,,,,,,,,,,,,,,,,,,,,,,,,,,,,,,,,,,,994.0818914,994.0818914,994.0818914,994.0818914,994.0818914,994.0818914,994.0818914,994.0818914,994.0818914,994.0818914,l,0.267835797,10,491,1,994.3821285,995.8836936,,,,,,,,,,,,,,,,,,,,,,,,,,,,,,,,,,,,,,,,,,,,,,,,,,,,,,,,,,,,,,,,,,,,,,,,,,,98412_2,2022-11-30_14h29.30.923,vts_reward_expectancy_bt_OFFLINE,2022.2.4,60.11236648
0,1,0,0,0,0,1,0,circle,hexagon,1,0,1,0,3,2,38,4,,,,,,,,,,,,,,,,,,,,,,,,,,,,,,,,,,,,,,,,996.3844054,996.3844054,996.3844054,996.3844054,996.3844054,996.3844054,996.3844054,996.3844054,996.3844054,996.3844054,a,0.3013225,10,501,1,996.7178311,998.2197726,,,,,,,,,,,,,,,,,,,,,,,,,,,,,,,,,,,,,,,,,,,,,,,,,,,,,,,,,,,,,,,,,,,,,,,,,,,98412_2,2022-11-30_14h29.30.923,vts_reward_expectancy_bt_OFFLINE,2022.2.4,60.11236648
0,0,0,1,0,0,1,0,star,hexagon,1,0,1,0,3,3,39,11,,,,,,,,,,,,,,,,,,,,,,,,,,,,,,,,,,,,,,,,998.720329,998.720329,998.720329,998.720329,998.720329,998.720329,998.720329,998.720329,998.720329,998.720329,l,0.309085496,1,502,1,999.0540435,1000.555559,,,,,,,,,,,,,,,,,,,,,,,,,,,,,,,,,,,,,,,,,,,,,,,,,,,,,,,,,,,,,,,,,,,,,,,,,,,98412_2,2022-11-30_14h29.30.923,vts_reward_expectancy_bt_OFFLINE,2022.2.4,60.11236648
0,0,0,1,1,0,0,0,star,triangle,1,0,1,0,3,4,40,9,,,,,,,,,,,,,,,,,,,,,,,,,,,,,,,,,,,,,,,,1001.05633,1001.05633,1001.05633,1001.05633,1001.05633,1001.05633,1001.05633,1001.05633,1001.05633,1001.05633,a,0.406344291,1,503,1,1001.489999,1002.991627,,,,,,,,,,,,,,,,,,,,,,,,,,,,,,,,,,,,,,,,,,,,,,,,,,,,,,,,,,,,,,,,,,,,,,,,,,,98412_2,2022-11-30_14h29.30.923,vts_reward_expectancy_bt_OFFLINE,2022.2.4,60.11236648
0,0,0,1,0,1,0,0,star ,circle,1,0,1,0,3,5,41,10,,,,,,,,,,,,,,,,,,,,,,,,,,,,,,,,,,,,,,,,1003.492093,1003.492093,1003.492093,1003.492093,1003.492093,1003.492093,1003.492093,1003.492093,1003.492093,1003.492093,l,0.338033746,1,504,1,1003.859222,1005.360922,,,,,,,,,,,,,,,,,,,,,,,,,,,,,,,,,,,,,,,,,,,,,,,,,,,,,,,,,,,,,,,,,,,,,,,,,,,98412_2,2022-11-30_14h29.30.923,vts_reward_expectancy_bt_OFFLINE,2022.2.4,60.11236648
0,1,0,0,0,0,0,1,circle,star,1,0,1,0,3,6,42,5,,,,,,,,,,,,,,,,,,,,,,,,,,,,,,,,,,,,,,,,1005.861503,1005.861503,1005.861503,1005.861503,1005.861503,1005.861503,1005.861503,1005.861503,1005.861503,1005.861503,a,0.33583446,10,514,1,1006.228478,1007.730175,,,,,,,,,,,,,,,,,,,,,,,,,,,,,,,,,,,,,,,,,,,,,,,,,,,,,,,,,,,,,,,,,,,,,,,,,,,98412_2,2022-11-30_14h29.30.923,vts_reward_expectancy_bt_OFFLINE,2022.2.4,60.11236648
1,0,0,0,0,0,1,0,triangle,hexagon,1,0,1,0,3,7,43,1,,,,,,,,,,,,,,,,,,,,,,,,,,,,,,,,,,,,,,,,1008.230946,1008.230946,1008.230946,1008.230946,1008.230946,1008.230946,1008.230946,1008.230946,1008.230946,1008.230946,a,0.606963556,10,524,1,1008.864902,1010.366403,,,,,,,,,,,,,,,,,,,,,,,,,,,,,,,,,,,,,,,,,,,,,,,,,,,,,,,,,,,,,,,,,,,,,,,,,,,98412_2,2022-11-30_14h29.30.923,vts_reward_expectancy_bt_OFFLINE,2022.2.4,60.11236648
0,0,1,0,0,1,0,0,hexagon,circle,1,0,1,0,3,8,44,7,,,,,,,,,,,,,,,,,,,,,,,,,,,,,,,,,,,,,,,,1010.866967,1010.866967,1010.866967,1010.866967,1010.866967,1010.866967,1010.866967,1010.866967,1010.866967,1010.866967,a,1.146659617,10,534,1,1012.034934,1013.536541,,,,,,,,,,,,,,,,,,,,,,,,,,,,,,,,,,,,,,,,,,,,,,,,,,,,,,,,,,,,,,,,,,,,,,,,,,,98412_2,2022-11-30_14h29.30.923,vts_reward_expectancy_bt_OFFLINE,2022.2.4,60.11236648
1,0,0,0,0,1,0,0,triangle,circle,1,0,1,0,3,9,45,0,,,,,,,,,,,,,,,,,,,,,,,,,,,,,,,,,,,,,,,,1014.037064,1014.037064,1014.037064,1014.037064,1014.037064,1014.037064,1014.037064,1014.037064,1014.037064,1014.037064,a,0.728903709,1,535,1,1014.787901,1016.289557,,,,,,,,,,,,,,,,,,,,,,,,,,,,,,,,,,,,,,,,,,,,,,,,,,,,,,,,,,,,,,,,,,,,,,,,,,,98412_2,2022-11-30_14h29.30.923,vts_reward_expectancy_bt_OFFLINE,2022.2.4,60.11236648
0,0,1,0,1,0,0,0,hexagon,triangle,1,0,1,0,3,10,46,6,,,,,,,,,,,,,,,,,,,,,,,,,,,,,,,,,,,,,,,,1016.79029,1016.79029,1016.79029,1016.79029,1016.79029,1016.79029,1016.79029,1016.79029,1016.79029,1016.79029,l,0.703740662,10,545,1,1017.524192,1019.025917,,,,,,,,,,,,,,,,,,,,,,,,,,,,,,,,,,,,,,,,,,,,,,,,,,,,,,,,,,,,,,,,,,,,,,,,,,,98412_2,2022-11-30_14h29.30.923,vts_reward_expectancy_bt_OFFLINE,2022.2.4,60.11236648
1,0,0,0,0,0,0,1,triangle,star,1,0,1,0,3,11,47,2,,,,,,,,,,,,,,,,,,,,,,,,,,,,,,,,,,,,,,,,1019.526355,1019.526355,1019.526355,1019.526355,1019.526355,1019.526355,1019.526355,1019.526355,1019.526355,1019.526355,a,1.255559672,10,555,1,1020.811123,1022.312783,,,,,,,,,,,,,,,,,,,,,,,,,,,,,,,,,,,,,,,,,,,,,,,,,,,,,,,,,,,,,,,,,,,,,,,,,,,98412_2,2022-11-30_14h29.30.923,vts_reward_expectancy_bt_OFFLINE,2022.2.4,60.11236648
0,1,0,0,1,0,0,0,circle,triangle,2,0,2,0,0,0,0,3,,,,,,,,,,,,,,,,,,,,,,,,,,,,,,,,,,,,,,,,1026.826368,1026.826368,1026.826368,1026.826368,1026.826368,1026.826368,1026.826368,1026.826368,1026.826368,1026.826368,a,0.716500351,10,565,2,1027.568753,1029.070537,,,,,,,,,,,,,,,,,,,,,,,,,,,,,,,,,,,,,,,,,,,,,,,,,,,,,,,,,,,,,,,,,,,,,,,,,,,98412_2,2022-11-30_14h29.30.923,vts_reward_expectancy_bt_OFFLINE,2022.2.4,60.11236648
0,0,1,0,0,1,0,0,hexagon,circle,2,0,2,0,0,1,1,7,,,,,,,,,,,,,,,,,,,,,,,,,,,,,,,,,,,,,,,,1029.570921,1029.570921,1029.570921,1029.570921,1029.570921,1029.570921,1029.570921,1029.570921,1029.570921,1029.570921,l,0.362682661,10,575,2,1029.954637,1031.456319,,,,,,,,,,,,,,,,,,,,,,,,,,,,,,,,,,,,,,,,,,,,,,,,,,,,,,,,,,,,,,,,,,,,,,,,,,,98412_2,2022-11-30_14h29.30.923,vts_reward_expectancy_bt_OFFLINE,2022.2.4,60.11236648
0,0,1,0,1,0,0,0,hexagon,triangle,2,0,2,0,0,2,2,6,,,,,,,,,,,,,,,,,,,,,,,,,,,,,,,,,,,,,,,,1031.956909,1031.956909,1031.956909,1031.956909,1031.956909,1031.956909,1031.956909,1031.956909,1031.956909,1031.956909,a,0.841079203,1,576,2,1032.824473,1034.32615,,,,,,,,,,,,,,,,,,,,,,,,,,,,,,,,,,,,,,,,,,,,,,,,,,,,,,,,,,,,,,,,,,,,,,,,,,,98412_2,2022-11-30_14h29.30.923,vts_reward_expectancy_bt_OFFLINE,2022.2.4,60.11236648
1,0,0,0,0,0,1,0,triangle,hexagon,2,0,2,0,0,3,3,1,,,,,,,,,,,,,,,,,,,,,,,,,,,,,,,,,,,,,,,,1034.826634,1034.826634,1034.826634,1034.826634,1034.826634,1034.826634,1034.826634,1034.826634,1034.826634,1034.826634,a,1.068236991,10,586,2,1035.911237,1037.412798,,,,,,,,,,,,,,,,,,,,,,,,,,,,,,,,,,,,,,,,,,,,,,,,,,,,,,,,,,,,,,,,,,,,,,,,,,,98412_2,2022-11-30_14h29.30.923,vts_reward_expectancy_bt_OFFLINE,2022.2.4,60.11236648
1,0,0,0,0,1,0,0,triangle,circle,2,0,2,0,0,4,4,0,,,,,,,,,,,,,,,,,,,,,,,,,,,,,,,,,,,,,,,,1037.913627,1037.913627,1037.913627,1037.913627,1037.913627,1037.913627,1037.913627,1037.913627,1037.913627,1037.913627,l,0.668241359,10,596,2,1038.614069,1040.115932,,,,,,,,,,,,,,,,,,,,,,,,,,,,,,,,,,,,,,,,,,,,,,,,,,,,,,,,,,,,,,,,,,,,,,,,,,,98412_2,2022-11-30_14h29.30.923,vts_reward_expectancy_bt_OFFLINE,2022.2.4,60.11236648
0,0,0,1,1,0,0,0,star,triangle,2,0,2,0,0,5,5,9,,,,,,,,,,,,,,,,,,,,,,,,,,,,,,,,,,,,,,,,1040.616456,1040.616456,1040.616456,1040.616456,1040.616456,1040.616456,1040.616456,1040.616456,1040.616456,1040.616456,l,1.078293224,1,597,2,1041.717697,1043.219383,,,,,,,,,,,,,,,,,,,,,,,,,,,,,,,,,,,,,,,,,,,,,,,,,,,,,,,,,,,,,,,,,,,,,,,,,,,98412_2,2022-11-30_14h29.30.923,vts_reward_expectancy_bt_OFFLINE,2022.2.4,60.11236648
0,1,0,0,0,0,0,1,circle,star,2,0,2,0,0,6,6,5,,,,,,,,,,,,,,,,,,,,,,,,,,,,,,,,,,,,,,,,1043.719849,1043.719849,1043.719849,1043.719849,1043.719849,1043.719849,1043.719849,1043.719849,1043.719849,1043.719849,a,0.934288064,10,607,2,1044.670913,1046.172652,,,,,,,,,,,,,,,,,,,,,,,,,,,,,,,,,,,,,,,,,,,,,,,,,,,,,,,,,,,,,,,,,,,,,,,,,,,98412_2,2022-11-30_14h29.30.923,vts_reward_expectancy_bt_OFFLINE,2022.2.4,60.11236648
0,0,0,1,0,1,0,0,star ,circle,2,0,2,0,0,7,7,10,,,,,,,,,,,,,,,,,,,,,,,,,,,,,,,,,,,,,,,,1046.673277,1046.673277,1046.673277,1046.673277,1046.673277,1046.673277,1046.673277,1046.673277,1046.673277,1046.673277,l,0.652068242,10,617,2,1047.357287,1048.858919,,,,,,,,,,,,,,,,,,,,,,,,,,,,,,,,,,,,,,,,,,,,,,,,,,,,,,,,,,,,,,,,,,,,,,,,,,,98412_2,2022-11-30_14h29.30.923,vts_reward_expectancy_bt_OFFLINE,2022.2.4,60.11236648
0,0,1,0,0,0,0,1,hexagon,star,2,0,2,0,0,8,8,8,,,,,,,,,,,,,,,,,,,,,,,,,,,,,,,,,,,,,,,,1049.359517,1049.359517,1049.359517,1049.359517,1049.359517,1049.359517,1049.359517,1049.359517,1049.359517,1049.359517,a,1.75888671,1,618,2,1051.144792,1052.646303,,,,,,,,,,,,,,,,,,,,,,,,,,,,,,,,,,,,,,,,,,,,,,,,,,,,,,,,,,,,,,,,,,,,,,,,,,,98412_2,2022-11-30_14h29.30.923,vts_reward_expectancy_bt_OFFLINE,2022.2.4,60.11236648
0,0,0,1,0,0,1,0,star,hexagon,2,0,2,0,0,9,9,11,,,,,,,,,,,,,,,,,,,,,,,,,,,,,,,,,,,,,,,,1053.146968,1053.146968,1053.146968,1053.146968,1053.146968,1053.146968,1053.146968,1053.146968,1053.146968,1053.146968,l,0.843715005,1,619,2,1054.014657,1055.516254,,,,,,,,,,,,,,,,,,,,,,,,,,,,,,,,,,,,,,,,,,,,,,,,,,,,,,,,,,,,,,,,,,,,,,,,,,,98412_2,2022-11-30_14h29.30.923,vts_reward_expectancy_bt_OFFLINE,2022.2.4,60.11236648
0,1,0,0,0,0,1,0,circle,hexagon,2,0,2,0,0,10,10,4,,,,,,,,,,,,,,,,,,,,,,,,,,,,,,,,,,,,,,,,1056.016952,1056.016952,1056.016952,1056.016952,1056.016952,1056.016952,1056.016952,1056.016952,1056.016952,1056.016952,a,0.477965964,10,629,2,1056.517332,1058.019098,,,,,,,,,,,,,,,,,,,,,,,,,,,,,,,,,,,,,,,,,,,,,,,,,,,,,,,,,,,,,,,,,,,,,,,,,,,98412_2,2022-11-30_14h29.30.923,vts_reward_expectancy_bt_OFFLINE,2022.2.4,60.11236648
1,0,0,0,0,0,0,1,triangle,star,2,0,2,0,0,11,11,2,,,,,,,,,,,,,,,,,,,,,,,,,,,,,,,,,,,,,,,,1058.5196,1058.5196,1058.5196,1058.5196,1058.5196,1058.5196,1058.5196,1058.5196,1058.5196,1058.5196,a,0.54211824,10,639,2,1059.086897,1060.58857,,,,,,,,,,,,,,,,,,,,,,,,,,,,,,,,,,,,,,,,,,,,,,,,,,,,,,,,,,,,,,,,,,,,,,,,,,,98412_2,2022-11-30_14h29.30.923,vts_reward_expectancy_bt_OFFLINE,2022.2.4,60.11236648
0,0,0,1,0,0,1,0,star,hexagon,2,0,2,0,1,0,12,11,,,,,,,,,,,,,,,,,,,,,,,,,,,,,,,,,,,,,,,,1061.088998,1061.088998,1061.088998,1061.088998,1061.088998,1061.088998,1061.088998,1061.088998,1061.088998,1061.088998,l,0.397328569,1,640,2,1061.506168,1063.007902,,,,,,,,,,,,,,,,,,,,,,,,,,,,,,,,,,,,,,,,,,,,,,,,,,,,,,,,,,,,,,,,,,,,,,,,,,,98412_2,2022-11-30_14h29.30.923,vts_reward_expectancy_bt_OFFLINE,2022.2.4,60.11236648
0,0,0,1,0,1,0,0,star ,circle,2,0,2,0,1,1,13,10,,,,,,,,,,,,,,,,,,,,,,,,,,,,,,,,,,,,,,,,1063.508423,1063.508423,1063.508423,1063.508423,1063.508423,1063.508423,1063.508423,1063.508423,1063.508423,1063.508423,a,0.225852927,1,641,2,1063.758836,1065.260229,,,,,,,,,,,,,,,,,,,,,,,,,,,,,,,,,,,,,,,,,,,,,,,,,,,,,,,,,,,,,,,,,,,,,,,,,,,98412_2,2022-11-30_14h29.30.923,vts_reward_expectancy_bt_OFFLINE,2022.2.4,60.11236648
0,0,1,0,0,1,0,0,hexagon,circle,2,0,2,0,1,2,14,7,,,,,,,,,,,,,,,,,,,,,,,,,,,,,,,,,,,,,,,,1065.760774,1065.760774,1065.760774,1065.760774,1065.760774,1065.760774,1065.760774,1065.760774,1065.760774,1065.760774,l,0.301411203,10,651,2,1066.094504,1067.596199,,,,,,,,,,,,,,,,,,,,,,,,,,,,,,,,,,,,,,,,,,,,,,,,,,,,,,,,,,,,,,,,,,,,,,,,,,,98412_2,2022-11-30_14h29.30.923,vts_reward_expectancy_bt_OFFLINE,2022.2.4,60.11236648
0,0,1,0,1,0,0,0,hexagon,triangle,2,0,2,0,1,3,15,6,,,,,,,,,,,,,,,,,,,,,,,,,,,,,,,,,,,,,,,,1068.096754,1068.096754,1068.096754,1068.096754,1068.096754,1068.096754,1068.096754,1068.096754,1068.096754,1068.096754,l,0.261342977,10,661,2,1068.380306,1069.881991,,,,,,,,,,,,,,,,,,,,,,,,,,,,,,,,,,,,,,,,,,,,,,,,,,,,,,,,,,,,,,,,,,,,,,,,,,,98412_2,2022-11-30_14h29.30.923,vts_reward_expectancy_bt_OFFLINE,2022.2.4,60.11236648
0,0,1,0,0,0,0,1,hexagon,star,2,0,2,0,1,4,16,8,,,,,,,,,,,,,,,,,,,,,,,,,,,,,,,,,,,,,,,,1070.3826,1070.3826,1070.3826,1070.3826,1070.3826,1070.3826,1070.3826,1070.3826,1070.3826,1070.3826,a,0.20760163,10,671,2,1070.616103,1072.117787,,,,,,,,,,,,,,,,,,,,,,,,,,,,,,,,,,,,,,,,,,,,,,,,,,,,,,,,,,,,,,,,,,,,,,,,,,,98412_2,2022-11-30_14h29.30.923,vts_reward_expectancy_bt_OFFLINE,2022.2.4,60.11236648
0,0,0,1,1,0,0,0,star,triangle,2,0,2,0,1,5,17,9,,,,,,,,,,,,,,,,,,,,,,,,,,,,,,,,,,,,,,,,1072.618435,1072.618435,1072.618435,1072.618435,1072.618435,1072.618435,1072.618435,1072.618435,1072.618435,1072.618435,l,0.035567042,10,681,2,1072.685105,1074.186686,,,,,,,,,,,,,,,,,,,,,,,,,,,,,,,,,,,,,,,,,,,,,,,,,,,,,,,,,,,,,,,,,,,,,,,,,,,98412_2,2022-11-30_14h29.30.923,vts_reward_expectancy_bt_OFFLINE,2022.2.4,60.11236648
0,1,0,0,0,0,1,0,circle,hexagon,2,0,2,0,1,6,18,4,,,,,,,,,,,,,,,,,,,,,,,,,,,,,,,,,,,,,,,,1074.687275,1074.687275,1074.687275,1074.687275,1074.687275,1074.687275,1074.687275,1074.687275,1074.687275,1074.687275,a,0.240094337,10,691,2,1074.954404,1076.456097,,,,,,,,,,,,,,,,,,,,,,,,,,,,,,,,,,,,,,,,,,,,,,,,,,,,,,,,,,,,,,,,,,,,,,,,,,,98412_2,2022-11-30_14h29.30.923,vts_reward_expectancy_bt_OFFLINE,2022.2.4,60.11236648
0,1,0,0,0,0,0,1,circle,star,2,0,2,0,1,7,19,5,,,,,,,,,,,,,,,,,,,,,,,,,,,,,,,,,,,,,,,,1076.956669,1076.956669,1076.956669,1076.956669,1076.956669,1076.956669,1076.956669,1076.956669,1076.956669,1076.956669,l,0.24992854,1,692,2,1077.223463,1078.725212,,,,,,,,,,,,,,,,,,,,,,,,,,,,,,,,,,,,,,,,,,,,,,,,,,,,,,,,,,,,,,,,,,,,,,,,,,,98412_2,2022-11-30_14h29.30.923,vts_reward_expectancy_bt_OFFLINE,2022.2.4,60.11236648
1,0,0,0,0,0,0,1,triangle,star,2,0,2,0,1,8,20,2,,,,,,,,,,,,,,,,,,,,,,,,,,,,,,,,,,,,,,,,1079.225867,1079.225867,1079.225867,1079.225867,1079.225867,1079.225867,1079.225867,1079.225867,1079.225867,1079.225867,l,0.420204717,1,693,2,1079.676194,1081.177091,,,,,,,,,,,,,,,,,,,,,,,,,,,,,,,,,,,,,,,,,,,,,,,,,,,,,,,,,,,,,,,,,,,,,,,,,,,98412_2,2022-11-30_14h29.30.923,vts_reward_expectancy_bt_OFFLINE,2022.2.4,60.11236648
1,0,0,0,0,1,0,0,triangle,circle,2,0,2,0,1,9,21,0,,,,,,,,,,,,,,,,,,,,,,,,,,,,,,,,,,,,,,,,1081.678485,1081.678485,1081.678485,1081.678485,1081.678485,1081.678485,1081.678485,1081.678485,1081.678485,1081.678485,l,0.25645883,10,703,2,1081.962083,1083.46381,,,,,,,,,,,,,,,,,,,,,,,,,,,,,,,,,,,,,,,,,,,,,,,,,,,,,,,,,,,,,,,,,,,,,,,,,,,98412_2,2022-11-30_14h29.30.923,vts_reward_expectancy_bt_OFFLINE,2022.2.4,60.11236648
0,1,0,0,1,0,0,0,circle,triangle,2,0,2,0,1,10,22,3,,,,,,,,,,,,,,,,,,,,,,,,,,,,,,,,,,,,,,,,1083.964239,1083.964239,1083.964239,1083.964239,1083.964239,1083.964239,1083.964239,1083.964239,1083.964239,1083.964239,a,0.226025888,1,704,2,1084.21465,1085.716211,,,,,,,,,,,,,,,,,,,,,,,,,,,,,,,,,,,,,,,,,,,,,,,,,,,,,,,,,,,,,,,,,,,,,,,,,,,98412_2,2022-11-30_14h29.30.923,vts_reward_expectancy_bt_OFFLINE,2022.2.4,60.11236648
1,0,0,0,0,0,1,0,triangle,hexagon,2,0,2,0,1,11,23,1,,,,,,,,,,,,,,,,,,,,,,,,,,,,,,,,,,,,,,,,1086.216813,1086.216813,1086.216813,1086.216813,1086.216813,1086.216813,1086.216813,1086.216813,1086.216813,1086.216813,l,0.333467335,1,705,2,1086.567072,1088.068767,,,,,,,,,,,,,,,,,,,,,,,,,,,,,,,,,,,,,,,,,,,,,,,,,,,,,,,,,,,,,,,,,,,,,,,,,,,98412_2,2022-11-30_14h29.30.923,vts_reward_expectancy_bt_OFFLINE,2022.2.4,60.11236648
0,1,0,0,0,0,0,1,circle,star,2,0,2,0,2,0,24,5,,,,,,,,,,,,,,,,,,,,,,,,,,,,,,,,,,,,,,,,1088.569378,1088.569378,1088.569378,1088.569378,1088.569378,1088.569378,1088.569378,1088.569378,1088.569378,1088.569378,a,0.701518722,1,706,2,1089.303377,1090.805181,,,,,,,,,,,,,,,,,,,,,,,,,,,,,,,,,,,,,,,,,,,,,,,,,,,,,,,,,,,,,,,,,,,,,,,,,,,98412_2,2022-11-30_14h29.30.923,vts_reward_expectancy_bt_OFFLINE,2022.2.4,60.11236648
0,0,1,0,0,1,0,0,hexagon,circle,2,0,2,0,2,1,25,7,,,,,,,,,,,,,,,,,,,,,,,,,,,,,,,,,,,,,,,,1091.305664,1091.305664,1091.305664,1091.305664,1091.305664,1091.305664,1091.305664,1091.305664,1091.305664,1091.305664,l,0.348880684,1,707,2,1091.672636,1093.174483,,,,,,,,,,,,,,,,,,,,,,,,,,,,,,,,,,,,,,,,,,,,,,,,,,,,,,,,,,,,,,,,,,,,,,,,,,,98412_2,2022-11-30_14h29.30.923,vts_reward_expectancy_bt_OFFLINE,2022.2.4,60.11236648
0,1,0,0,0,0,1,0,circle,hexagon,2,0,2,0,2,2,26,4,,,,,,,,,,,,,,,,,,,,,,,,,,,,,,,,,,,,,,,,1093.674901,1093.674901,1093.674901,1093.674901,1093.674901,1093.674901,1093.674901,1093.674901,1093.674901,1093.674901,l,1.123749641,1,708,2,1094.826197,1096.327821,,,,,,,,,,,,,,,,,,,,,,,,,,,,,,,,,,,,,,,,,,,,,,,,,,,,,,,,,,,,,,,,,,,,,,,,,,,98412_2,2022-11-30_14h29.30.923,vts_reward_expectancy_bt_OFFLINE,2022.2.4,60.11236648
0,1,0,0,1,0,0,0,circle,triangle,2,0,2,0,2,3,27,3,,,,,,,,,,,,,,,,,,,,,,,,,,,,,,,,,,,,,,,,1096.828405,1096.828405,1096.828405,1096.828405,1096.828405,1096.828405,1096.828405,1096.828405,1096.828405,1096.828405,a,0.209772259,10,718,2,1097.061984,1098.563681,,,,,,,,,,,,,,,,,,,,,,,,,,,,,,,,,,,,,,,,,,,,,,,,,,,,,,,,,,,,,,,,,,,,,,,,,,,98412_2,2022-11-30_14h29.30.923,vts_reward_expectancy_bt_OFFLINE,2022.2.4,60.11236648
0,0,0,1,0,0,1,0,star,hexagon,2,0,2,0,2,4,28,11,,,,,,,,,,,,,,,,,,,,,,,,,,,,,,,,,,,,,,,,1099.064339,1099.064339,1099.064339,1099.064339,1099.064339,1099.064339,1099.064339,1099.064339,1099.064339,1099.064339,l,0.317756329,1,719,2,1099.414644,1100.916218,,,,,,,,,,,,,,,,,,,,,,,,,,,,,,,,,,,,,,,,,,,,,,,,,,,,,,,,,,,,,,,,,,,,,,,,,,,98412_2,2022-11-30_14h29.30.923,vts_reward_expectancy_bt_OFFLINE,2022.2.4,60.11236648
1,0,0,0,0,0,1,0,triangle,hexagon,2,0,2,0,2,5,29,1,,,,,,,,,,,,,,,,,,,,,,,,,,,,,,,,,,,,,,,,1101.416847,1101.416847,1101.416847,1101.416847,1101.416847,1101.416847,1101.416847,1101.416847,1101.416847,1101.416847,a,0.285114735,1,720,2,1101.733948,1103.235447,,,,,,,,,,,,,,,,,,,,,,,,,,,,,,,,,,,,,,,,,,,,,,,,,,,,,,,,,,,,,,,,,,,,,,,,,,,98412_2,2022-11-30_14h29.30.923,vts_reward_expectancy_bt_OFFLINE,2022.2.4,60.11236648
1,0,0,0,0,0,0,1,triangle,star,2,0,2,0,2,6,30,2,,,,,,,,,,,,,,,,,,,,,,,,,,,,,,,,,,,,,,,,1103.736135,1103.736135,1103.736135,1103.736135,1103.736135,1103.736135,1103.736135,1103.736135,1103.736135,1103.736135,l,0.334391211,1,721,2,1104.10324,1105.60497,,,,,,,,,,,,,,,,,,,,,,,,,,,,,,,,,,,,,,,,,,,,,,,,,,,,,,,,,,,,,,,,,,,,,,,,,,,98412_2,2022-11-30_14h29.30.923,vts_reward_expectancy_bt_OFFLINE,2022.2.4,60.11236648
0,0,1,0,1,0,0,0,hexagon,triangle,2,0,2,0,2,7,31,6,,,,,,,,,,,,,,,,,,,,,,,,,,,,,,,,,,,,,,,,1106.105347,1106.105347,1106.105347,1106.105347,1106.105347,1106.105347,1106.105347,1106.105347,1106.105347,1106.105347,l,0.276240674,10,731,2,1106.405819,1107.907523,,,,,,,,,,,,,,,,,,,,,,,,,,,,,,,,,,,,,,,,,,,,,,,,,,,,,,,,,,,,,,,,,,,,,,,,,,,98412_2,2022-11-30_14h29.30.923,vts_reward_expectancy_bt_OFFLINE,2022.2.4,60.11236648
0,0,0,1,0,1,0,0,star ,circle,2,0,2,0,2,8,32,10,,,,,,,,,,,,,,,,,,,,,,,,,,,,,,,,,,,,,,,,1108.408056,1108.408056,1108.408056,1108.408056,1108.408056,1108.408056,1108.408056,1108.408056,1108.408056,1108.408056,l,0.517745726,10,741,2,1108.958381,1110.460186,,,,,,,,,,,,,,,,,,,,,,,,,,,,,,,,,,,,,,,,,,,,,,,,,,,,,,,,,,,,,,,,,,,,,,,,,,,98412_2,2022-11-30_14h29.30.923,vts_reward_expectancy_bt_OFFLINE,2022.2.4,60.11236648
0,0,0,1,1,0,0,0,star,triangle,2,0,2,0,2,9,33,9,,,,,,,,,,,,,,,,,,,,,,,,,,,,,,,,,,,,,,,,1110.960581,1110.960581,1110.960581,1110.960581,1110.960581,1110.960581,1110.960581,1110.960581,1110.960581,1110.960581,l,0.637719837,1,742,2,1111.628149,1113.129724,,,,,,,,,,,,,,,,,,,,,,,,,,,,,,,,,,,,,,,,,,,,,,,,,,,,,,,,,,,,,,,,,,,,,,,,,,,98412_2,2022-11-30_14h29.30.923,vts_reward_expectancy_bt_OFFLINE,2022.2.4,60.11236648
1,0,0,0,0,1,0,0,triangle,circle,2,0,2,0,2,10,34,0,,,,,,,,,,,,,,,,,,,,,,,,,,,,,,,,,,,,,,,,1113.630409,1113.630409,1113.630409,1113.630409,1113.630409,1113.630409,1113.630409,1113.630409,1113.630409,1113.630409,a,0.864075402,10,752,2,1114.51493,1116.016336,1116.016336,,,,,,,,,,,,,,,,,,,,,,,,,,,,,,,,,,,,,,,,,,,,,,,,,,,,,,,,,,,,,,,,,,,,,,,,,,98412_2,2022-11-30_14h29.30.923,vts_reward_expectancy_bt_OFFLINE,2022.2.4,60.11236648
0,0,1,0,0,0,0,1,hexagon,star,2,0,2,0,2,11,35,8,,,,,,,,,,,,,,,,,,,,,,,,,,,,,,,,,,,,,,,,1116.51687,1116.51687,1116.51687,1116.51687,1116.51687,1116.51687,1116.51687,1116.51687,1116.51687,1116.51687,l,0.336530761,1,753,2,1116.884214,1118.385535,,,,,,,,,,,,,,,,,,,,,,,,,,,,,,,,,,,,,,,,,,,,,,,,,,,,,,,,,,,,,,,,,,,,,,,,,,,98412_2,2022-11-30_14h29.30.923,vts_reward_expectancy_bt_OFFLINE,2022.2.4,60.11236648
1,0,0,0,0,0,1,0,triangle,hexagon,2,0,2,0,3,0,36,1,,,,,,,,,,,,,,,,,,,,,,,,,,,,,,,,,,,,,,,,1118.88621,1118.88621,1118.88621,1118.88621,1118.88621,1118.88621,1118.88621,1118.88621,1118.88621,1118.88621,a,0.224130988,10,763,2,1119.136378,1120.637996,,,,,,,,,,,,,,,,,,,,,,,,,,,,,,,,,,,,,,,,,,,,,,,,,,,,,,,,,,,,,,,,,,,,,,,,,,,98412_2,2022-11-30_14h29.30.923,vts_reward_expectancy_bt_OFFLINE,2022.2.4,60.11236648
0,1,0,0,0,0,0,1,circle,star,2,0,2,0,3,1,37,5,,,,,,,,,,,,,,,,,,,,,,,,,,,,,,,,,,,,,,,,1121.138582,1121.138582,1121.138582,1121.138582,1121.138582,1121.138582,1121.138582,1121.138582,1121.138582,1121.138582,l,0.243129093,1,764,2,1121.405456,1122.907215,,,,,,,,,,,,,,,,,,,,,,,,,,,,,,,,,,,,,,,,,,,,,,,,,,,,,,,,,,,,,,,,,,,,,,,,,,,98412_2,2022-11-30_14h29.30.923,vts_reward_expectancy_bt_OFFLINE,2022.2.4,60.11236648
0,0,0,1,1,0,0,0,star,triangle,2,0,2,0,3,2,38,9,,,,,,,,,,,,,,,,,,,,,,,,,,,,,,,,,,,,,,,,1123.407797,1123.407797,1123.407797,1123.407797,1123.407797,1123.407797,1123.407797,1123.407797,1123.407797,1123.407797,a,0.238605472,1,765,2,1123.674688,1125.176275,,,,,,,,,,,,,,,,,,,,,,,,,,,,,,,,,,,,,,,,,,,,,,,,,,,,,,,,,,,,,,,,,,,,,,,,,,,98412_2,2022-11-30_14h29.30.923,vts_reward_expectancy_bt_OFFLINE,2022.2.4,60.11236648
0,0,1,0,0,1,0,0,hexagon,circle,2,0,2,0,3,3,39,7,,,,,,,,,,,,,,,,,,,,,,,,,,,,,,,,,,,,,,,,1125.676908,1125.676908,1125.676908,1125.676908,1125.676908,1125.676908,1125.676908,1125.676908,1125.676908,1125.676908,l,0.153270422,10,775,2,1125.860459,1127.362203,,,,,,,,,,,,,,,,,,,,,,,,,,,,,,,,,,,,,,,,,,,,,,,,,,,,,,,,,,,,,,,,,,,,,,,,,,,98412_2,2022-11-30_14h29.30.923,vts_reward_expectancy_bt_OFFLINE,2022.2.4,60.11236648
0,0,0,1,0,1,0,0,star ,circle,2,0,2,0,3,4,40,10,,,,,,,,,,,,,,,,,,,,,,,,,,,,,,,,,,,,,,,,1127.862632,1127.862632,1127.862632,1127.862632,1127.862632,1127.862632,1127.862632,1127.862632,1127.862632,1127.862632,a,0.248066531,10,785,2,1128.129574,1129.631242,,,,,,,,,,,,,,,,,,,,,,,,,,,,,,,,,,,,,,,,,,,,,,,,,,,,,,,,,,,,,,,,,,,,,,,,,,,98412_2,2022-11-30_14h29.30.923,vts_reward_expectancy_bt_OFFLINE,2022.2.4,60.11236648
1,0,0,0,0,0,0,1,triangle,star,2,0,2,0,3,5,41,2,,,,,,,,,,,,,,,,,,,,,,,,,,,,,,,,,,,,,,,,1130.13191,1130.13191,1130.13191,1130.13191,1130.13191,1130.13191,1130.13191,1130.13191,1130.13191,1130.13191,l,0.323290365,1,786,2,1130.482338,1131.983879,,,,,,,,,,,,,,,,,,,,,,,,,,,,,,,,,,,,,,,,,,,,,,,,,,,,,,,,,,,,,,,,,,,,,,,,,,,98412_2,2022-11-30_14h29.30.923,vts_reward_expectancy_bt_OFFLINE,2022.2.4,60.11236648
0,0,0,1,0,0,1,0,star,hexagon,2,0,2,0,3,6,42,11,,,,,,,,,,,,,,,,,,,,,,,,,,,,,,,,,,,,,,,,1132.484551,1132.484551,1132.484551,1132.484551,1132.484551,1132.484551,1132.484551,1132.484551,1132.484551,1132.484551,l,0.266116626,1,787,2,1132.768302,1134.269867,,,,,,,,,,,,,,,,,,,,,,,,,,,,,,,,,,,,,,,,,,,,,,,,,,,,,,,,,,,,,,,,,,,,,,,,,,,98412_2,2022-11-30_14h29.30.923,vts_reward_expectancy_bt_OFFLINE,2022.2.4,60.11236648
0,1,0,0,1,0,0,0,circle,triangle,2,0,2,0,3,7,43,3,,,,,,,,,,,,,,,,,,,,,,,,,,,,,,,,,,,,,,,,1134.770292,1134.770292,1134.770292,1134.770292,1134.770292,1134.770292,1134.770292,1134.770292,1134.770292,1134.770292,l,0.300577286,10,797,2,1135.087288,1136.588981,,,,,,,,,,,,,,,,,,,,,,,,,,,,,,,,,,,,,,,,,,,,,,,,,,,,,,,,,,,,,,,,,,,,,,,,,,,98412_2,2022-11-30_14h29.30.923,vts_reward_expectancy_bt_OFFLINE,2022.2.4,60.11236648
1,0,0,0,0,1,0,0,triangle,circle,2,0,2,0,3,8,44,0,,,,,,,,,,,,,,,,,,,,,,,,,,,,,,,,,,,,,,,,1137.089427,1137.089427,1137.089427,1137.089427,1137.089427,1137.089427,1137.089427,1137.089427,1137.089427,1137.089427,a,0.349796636,10,807,2,1137.456721,1138.958259,,,,,,,,,,,,,,,,,,,,,,,,,,,,,,,,,,,,,,,,,,,,,,,,,,,,,,,,,,,,,,,,,,,,,,,,,,,98412_2,2022-11-30_14h29.30.923,vts_reward_expectancy_bt_OFFLINE,2022.2.4,60.11236648
0,0,1,0,0,0,0,1,hexagon,star,2,0,2,0,3,9,45,8,,,,,,,,,,,,,,,,,,,,,,,,,,,,,,,,,,,,,,,,1139.458778,1139.458778,1139.458778,1139.458778,1139.458778,1139.458778,1139.458778,1139.458778,1139.458778,1139.458778,l,0.468277203,1,808,2,1139.959202,1141.461028,,,,,,,,,,,,,,,,,,,,,,,,,,,,,,,,,,,,,,,,,,,,,,,,,,,,,,,,,,,,,,,,,,,,,,,,,,,98412_2,2022-11-30_14h29.30.923,vts_reward_expectancy_bt_OFFLINE,2022.2.4,60.11236648
0,1,0,0,0,0,1,0,circle,hexagon,2,0,2,0,3,10,46,4,,,,,,,,,,,,,,,,,,,,,,,,,,,,,,,,,,,,,,,,1141.961453,1141.961453,1141.961453,1141.961453,1141.961453,1141.961453,1141.961453,1141.961453,1141.961453,1141.961453,a,0.308390421,10,818,2,1142.295334,1143.796903,,,,,,,,,,,,,,,,,,,,,,,,,,,,,,,,,,,,,,,,,,,,,,,,,,,,,,,,,,,,,,,,,,,,,,,,,,,98412_2,2022-11-30_14h29.30.923,vts_reward_expectancy_bt_OFFLINE,2022.2.4,60.11236648
0,0,1,0,1,0,0,0,hexagon,triangle,2,0,2,0,3,11,47,6,,,,,,,,,,,,,,,,,,,,,,,,,,,,,,,,,,,,,,,,1144.297375,1144.297375,1144.297375,1144.297375,1144.297375,1144.297375,1144.297375,1144.297375,1144.297375,1144.297375,a,0.220662328,10,828,2,1144.547696,1146.049375,,,,,,,,,,,,,,,,,,,,,,,,,,,,,,,,,,,,,,,,,,,,,,,,,,,,,,,,,,,,,,,,,,,,,,,,,,,98412_2,2022-11-30_14h29.30.923,vts_reward_expectancy_bt_OFFLINE,2022.2.4,60.11236648
,,,,,,,,,,,,,,,,,,0,0,0,0,0,0,0,0,,,,,,,,,,,,,,,,,,,,,,,,,,,,,,,,,,,,,,,,,,,,,,,,1189.363915,,H,160,star,0.001875879,1183.354156,1184.858953,1184.858953,1184.858953,1187.862126,1187.862126,1187.862126,1187.862126,0,0,None,0,1187.862126,1189.363915,1189.864334,,,,,,,,,,,,,,,,,,,,,,,,,,,,,,,,,,,,,,,,,,,,,,,,,,,,,,,98412_2,2022-11-30_14h29.30.923,vts_reward_expectancy_bt_OFFLINE,2022.2.4,60.11236648
,,,,,,,,,,,,,,,,,,0,0,0,0,1,0,1,0,,,,,,,,,,,,,,,,,,,,,,,,,,,,,,,,,,,,,,,,,,,,,,,,1195.153562,,F,146,triangle,0.008999163,1190.359325,1191.866525,1191.866525,1191.866525,,,,,0,1,f,0,1193.651895,,,1.763831764,,,,,,,,,,,,,,,,,,,,,,,,,,,,,,,,,,,,,,,,,,,,,,,,,,,,,,98412_2,2022-11-30_14h29.30.923,vts_reward_expectancy_bt_OFFLINE,2022.2.4,60.11236648
,,,,,,,,,,,,,,,,,,0,0,0,0,2,0,2,0,,,,,,,,,,,,,,,,,,,,,,,,,,,,,,,,,,,,,,,,,,,,,,,,1202.144549,,Y,132,hexagon,0.001687069,1196.133428,1197.639576,1197.639576,1197.639576,1200.643077,1200.643077,1200.643077,1200.643077,0,1,None,0,1200.643077,1202.144549,1202.64511,,,,,,,,,,,,,,,,,,,,,,,,,,,,,,,,,,,,,,,,,,,,,,,,,,,,,,,98412_2,2022-11-30_14h29.30.923,vts_reward_expectancy_bt_OFFLINE,2022.2.4,60.11236648
,,,,,,,,,,,,,,,,,,0,0,0,0,3,0,3,0,,,,,,,,,,,,,,,,,,,,,,,,,,,,,,,,,,,,,,,,,,,,,,,,1209.152211,,S,125,circle,0.009150501,1203.140478,1204.647217,1204.647217,1204.647217,1207.650469,1207.650469,1207.650469,1207.650469,0,1,None,0,1207.650469,1209.152211,,,,,,,,,,,,,,,,,,,,,,,,,,,,,,,,,,,,,,,,,,,,,,,,,,,,,,,,98412_2,2022-11-30_14h29.30.923,vts_reward_expectancy_bt_OFFLINE,2022.2.4,60.11236648
,,,,,,,,,,,,,,,,,,0,0,0,0,4,0,4,0,,,,,,,,,,,,,,,,,,,,,,,,,,,,,,,,,,,,,,,,,,,,,,,,1216.143173,,U,174,circle,0.000499888,1210.133298,1211.63825,1211.63825,1211.63825,1214.641617,1214.641617,1214.641617,1214.641617,0,1,None,0,1214.641617,1216.143173,1216.643824,,,,,,,,,,,,,,,,,,,,,,,,,,,,,,,,,,,,,,,,,,,,,,,,,,,,,,,98412_2,2022-11-30_14h29.30.923,vts_reward_expectancy_bt_OFFLINE,2022.2.4,60.11236648
,,,,,,,,,,,,,,,,,,0,0,0,0,5,0,5,0,,,,,,,,,,,,,,,,,,,,,,,,,,,,,,,,,,,,,,,,,,,,,,,,1223.151074,,B,181,triangle,0.007863784,1217.139641,1218.64617,1218.64617,1218.64617,1221.649321,1221.649321,1221.649321,1221.649321,0,1,None,0,1221.649321,1223.151074,1223.651569,,,,,,,,,,,,,,,,,,,,,,,,,,,,,,,,,,,,,,,,,,,,,,,,,,,,,,,98412_2,2022-11-30_14h29.30.923,vts_reward_expectancy_bt_OFFLINE,2022.2.4,60.11236648
,,,,,,,,,,,,,,,,,,0,0,0,0,6,0,6,0,,,,,,,,,,,,,,,,,,,,,,,,,,,,,,,,,,,,,,,,,,,,,,,,1230.142148,,W,139,star,-0.000322351,1224.132878,1225.637178,1225.637178,1225.637178,1228.640439,1228.640439,1228.640439,1228.640439,0,1,None,0,1228.640439,1230.142148,1230.642673,,,,,,,,,,,,,,,,,,,,,,,,,,,,,,,,,,,,,,,,,,,,,,,,,,,,,,,98412_2,2022-11-30_14h29.30.923,vts_reward_expectancy_bt_OFFLINE,2022.2.4,60.11236648
,,,,,,,,,,,,,,,,,,0,0,0,0,7,0,7,0,,,,,,,,,,,,,,,,,,,,,,,,,,,,,,,,,,,,,,,,,,,,,,,,1236.098789,,D,167,hexagon,0.007057517,1231.140488,1232.645075,1232.645075,1232.645075,,,,,1,1,d,0,1234.596962,,,1.920332117,,,,,,,,,,,,,,,,,,,,,,,,,,,,,,,,,,,,,,,,,,,,,,,,,,,,,,98412_2,2022-11-30_14h29.30.923,vts_reward_expectancy_bt_OFFLINE,2022.2.4,60.11236648
,,,,,,,,,,,,,,,,,,0,0,0,0,8,0,8,0,,,,,,,,,,,,,,,,,,,,,,,,,,,,,,,,,,,,,,,,,,,,,,,,1243.089747,,H,160,star,0.001555591,1237.077702,1238.584748,1238.584748,1238.584748,1241.588237,1241.588237,1241.588237,1241.588237,0,0,None,0,1241.588237,1243.089747,1243.590368,,,,,,,,,,,,,,,,,,,,,,,,,,,,,,,,,,,,,,,,,,,,,,,,,,,,,,,98412_2,2022-11-30_14h29.30.923,vts_reward_expectancy_bt_OFFLINE,2022.2.4,60.11236648
,,,,,,,,,,,,,,,,,,0,0,0,0,9,0,9,0,,,,,,,,,,,,,,,,,,,,,,,,,,,,,,,,,,,,,,,,,,,,,,,,1248.212128,,F,146,triangle,0.009001092,1244.085162,1245.592443,1245.592443,1245.592443,,,,,0,1,f,0,1246.71069,,,1.085825179,,,,,,,,,,,,,,,,,,,,,,,,,,,,,,,,,,,,,,,,,,,,,,,,,,,,,,98412_2,2022-11-30_14h29.30.923,vts_reward_expectancy_bt_OFFLINE,2022.2.4,60.11236648
,,,,,,,,,,,,,,,,,,1,0,1,0,0,0,0,0,,,,,,,,,,,,,,,,,,,,,,,,,,,,,,,,,,,,,,,,,,,,,,,,1287.305203,,Y,181,hexagon,0.002176678,1283.514975,1285.019386,1285.019386,1285.019386,,,,,1,1,f,1,1285.804441,,,0.755573998,,,,,,,,,,,,,,,,,,,,,,,,,,,,,,,,,,,,,,,,,,,,,,,,,,,,,,98412_2,2022-11-30_14h29.30.923,vts_reward_expectancy_bt_OFFLINE,2022.2.4,60.11236648
,,,,,,,,,,,,,,,,,,1,0,1,0,1,0,1,0,,,,,,,,,,,,,,,,,,,,,,,,,,,,,,,,,,,,,,,,,,,,,,,,1291.75979,,B,160,triangle,0.001579126,1288.285386,1289.790881,1289.790881,1289.790881,,,,,1,0,d,1,1290.258311,,,0.447203672,,,,,,,,,,,,,,,,,,,,,,,,,,,,,,,,,,,,,,,,,,,,,,,,,,,,,,98412_2,2022-11-30_14h29.30.923,vts_reward_expectancy_bt_OFFLINE,2022.2.4,60.11236648
,,,,,,,,,,,,,,,,,,1,0,1,0,2,0,2,0,,,,,,,,,,,,,,,,,,,,,,,,,,,,,,,,,,,,,,,,,,,,,,,,1296.565504,,U,167,circle,0.001484574,1292.73915,1294.246183,1294.246183,1294.246183,,,,,1,0,f,1,1295.063708,,,0.791726839,,,,,,,,,,,,,,,,,,,,,,,,,,,,,,,,,,,,,,,,,,,,,,,,,,,,,,98412_2,2022-11-30_14h29.30.923,vts_reward_expectancy_bt_OFFLINE,2022.2.4,60.11236648
,,,,,,,,,,,,,,,,,,1,0,1,0,3,0,3,0,,,,,,,,,,,,,,,,,,,,,,,,,,,,,,,,,,,,,,,,,,,,,,,,1301.237293,,S,174,star,0.001972337,1297.547115,1299.051469,1299.051469,1299.051469,,,,,1,0,f,1,1299.735814,,,0.667460531,,,,,,,,,,,,,,,,,,,,,,,,,,,,,,,,,,,,,,,,,,,,,,,,,,,,,,98412_2,2022-11-30_14h29.30.923,vts_reward_expectancy_bt_OFFLINE,2022.2.4,60.11236648
,,,,,,,,,,,,,,,,,,1,0,1,0,4,0,4,0,,,,,,,,,,,,,,,,,,,,,,,,,,,,,,,,,,,,,,,,,,,,,,,,1305.808913,,H,139,triangle,0.001457421,1302.218711,1303.723527,1303.723527,1303.723527,,,,,1,0,d,1,1304.307374,,,0.554796534,,,,,,,,,,,,,,,,,,,,,,,,,,,,,,,,,,,,,,,,,,,,,,,,,,,,,,98412_2,2022-11-30_14h29.30.923,vts_reward_expectancy_bt_OFFLINE,2022.2.4,60.11236648
,,,,,,,,,,,,,,,,,,1,0,1,0,5,0,5,0,,,,,,,,,,,,,,,,,,,,,,,,,,,,,,,,,,,,,,,,,,,,,,,,1310.213818,,D,125,star,0.001882711,1306.788386,1308.295044,1308.295044,1308.295044,,,,,1,0,d,1,1308.712147,,,0.391289044,,,,,,,,,,,,,,,,,,,,,,,,,,,,,,,,,,,,,,,,,,,,,,,,,,,,,,98412_2,2022-11-30_14h29.30.923,vts_reward_expectancy_bt_OFFLINE,2022.2.4,60.11236648
,,,,,,,,,,,,,,,,,,1,0,1,0,6,0,6,0,,,,,,,,,,,,,,,,,,,,,,,,,,,,,,,,,,,,,,,,,,,,,,,,1314.885683,,W,132,circle,0.001824631,1311.193125,1312.699954,1312.699954,1312.699954,,,,,1,0,f,1,1313.383887,,,0.66669773,,,,,,,,,,,,,,,,,,,,,,,,,,,,,,,,,,,,,,,,,,,,,,,,,,,,,,98412_2,2022-11-30_14h29.30.923,vts_reward_expectancy_bt_OFFLINE,2022.2.4,60.11236648
,,,,,,,,,,,,,,,,,,1,0,1,0,7,0,7,0,,,,,,,,,,,,,,,,,,,,,,,,,,,,,,,,,,,,,,,,,,,,,,,,1319.457258,,F,146,hexagon,0.001025414,1315.86523,1317.371467,1317.371467,1317.371467,,,,,1,0,d,1,1317.95564,,,0.563301253,,,,,,,,,,,,,,,,,,,,,,,,,,,,,,,,,,,,,,,,,,,,,,,,,,,,,,98412_2,2022-11-30_14h29.30.923,vts_reward_expectancy_bt_OFFLINE,2022.2.4,60.11236648
,,,,,,,,,,,,,,,,,,1,0,1,0,8,0,8,0,,,,,,,,,,,,,,,,,,,,,,,,,,,,,,,,,,,,,,,,,,,,,,,,1324.095839,,Y,181,star,0.001563034,1320.436073,1321.94347,1321.94347,1321.94347,,,,,1,0,f,1,1322.594066,,,0.623270991,,,,,,,,,,,,,,,,,,,,,,,,,,,,,,,,,,,,,,,,,,,,,,,,,,,,,,98412_2,2022-11-30_14h29.30.923,vts_reward_expectancy_bt_OFFLINE,2022.2.4,60.11236648
,,,,,,,,,,,,,,,,,,1,0,1,0,9,0,9,0,,,,,,,,,,,,,,,,,,,,,,,,,,,,,,,,,,,,,,,,,,,,,,,,1328.533982,,B,160,circle,0.001612833,1325.074259,1326.581767,1326.581767,1326.581767,,,,,1,0,d,1,1327.03228,,,0.424736426,,,,,,,,,,,,,,,,,,,,,,,,,,,,,,,,,,,,,,,,,,,,,,,,,,,,,,98412_2,2022-11-30_14h29.30.923,vts_reward_expectancy_bt_OFFLINE,2022.2.4,60.11236648
,,,,,,,,,,,,,,,,,,,,,,,,,,0,0,0,0,0,0,0,0,,,,,,,,,,,,,,,,,,,,,,,,,,,,,,,,,,,,,,,,1357.565879,,H,174,hexagon,0.002263811,,,,,,,,,1,0,,2,1356.064283,,,,1353.022125,1354.529488,1354.529488,1354.529488,k,1.508219376,,,,,,,,,,,,,,,,,,,,,,,,,,,,,,,,,,,,,,,,,,,,,,,,98412_2,2022-11-30_14h29.30.923,vts_reward_expectancy_bt_OFFLINE,2022.2.4,60.11236648
,,,,,,,,,,,,,,,,,,,,,,,,,,0,0,0,0,1,0,1,0,,,,,,,,,,,,,,,,,,,,,,,,,,,,,,,,,,,,,,,,1362.121091,,F,181,star,0.001720667,,,,,,,,,1,0,,2,1360.619398,,,,1358.544882,1360.052141,1360.052141,1360.052141,k,0.546431039,,,,,,,,,,,,,,,,,,,,,,,,,,,,,,,,,,,,,,,,,,,,,,,,98412_2,2022-11-30_14h29.30.923,vts_reward_expectancy_bt_OFFLINE,2022.2.4,60.11236648
,,,,,,,,,,,,,,,,,,,,,,,,,,0,0,0,0,2,0,2,0,,,,,,,,,,,,,,,,,,,,,,,,,,,,,,,,,,,,,,,,1366.926472,,D,132,circle,0.001465358,,,,,,,,,1,0,,2,1365.424884,,,,1363.100436,1364.607191,1364.607191,1364.607191,j,0.799361537,,,,,,,,,,,,,,,,,,,,,,,,,,,,,,,,,,,,,,,,,,,,,,,,98412_2,2022-11-30_14h29.30.923,vts_reward_expectancy_bt_OFFLINE,2022.2.4,60.11236648
,,,,,,,,,,,,,,,,,,,,,,,,,,0,0,0,0,3,0,3,0,,,,,,,,,,,,,,,,,,,,,,,,,,,,,,,,,,,,,,,,1371.664988,,U,139,triangle,0.001388257,,,,,,,,,1,0,,2,1370.163312,,,,1367.904823,1369.412437,1369.412437,1369.412437,j,0.722699611,,,,,,,,,,,,,,,,,,,,,,,,,,,,,,,,,,,,,,,,,,,,,,,,98412_2,2022-11-30_14h29.30.923,vts_reward_expectancy_bt_OFFLINE,2022.2.4,60.11236648
,,,,,,,,,,,,,,,,,,,,,,,,,,0,0,0,0,4,0,4,0,,,,,,,,,,,,,,,,,,,,,,,,,,,,,,,,,,,,,,,,1376.270033,,Y,125,hexagon,0.001470382,,,,,,,,,1,0,,2,1374.768288,,,,1372.644843,1374.151023,1374.151023,1374.151023,j,0.599483158,,,,,,,,,,,,,,,,,,,,,,,,,,,,,,,,,,,,,,,,,,,,,,,,98412_2,2022-11-30_14h29.30.923,vts_reward_expectancy_bt_OFFLINE,2022.2.4,60.11236648
,,,,,,,,,,,,,,,,,,,,,,,,,,0,0,0,0,5,0,5,0,,,,,,,,,,,,,,,,,,,,,,,,,,,,,,,,,,,,,,,,1381.292259,,S,146,star,0.001239909,,,,,,,,,1,0,,2,1379.790648,,,,1377.24807,1378.756262,1378.756262,1378.756262,j,1.002117284,,,,,,,,,,,,,,,,,,,,,,,,,,,,,,,,,,,,,,,,,,,,,,,,98412_2,2022-11-30_14h29.30.923,vts_reward_expectancy_bt_OFFLINE,2022.2.4,60.11236648
,,,,,,,,,,,,,,,,,,,,,,,,,,0,0,0,0,6,0,6,0,,,,,,,,,,,,,,,,,,,,,,,,,,,,,,,,,,,,,,,,1386.047435,,B,167,circle,0.001648307,,,,,,,,,1,0,,2,1384.545821,,,,1382.269748,1383.778323,1383.778323,1383.778323,k,0.740267823,,,,,,,,,,,,,,,,,,,,,,,,,,,,,,,,,,,,,,,,,,,,,,,,98412_2,2022-11-30_14h29.30.923,vts_reward_expectancy_bt_OFFLINE,2022.2.4,60.11236648
,,,,,,,,,,,,,,,,,,,,,,,,,,0,0,0,0,7,0,7,0,,,,,,,,,,,,,,,,,,,,,,,,,,,,,,,,,,,,,,,,1390.686085,,W,160,triangle,0.001758117,,,,,,,,,1,0,,2,1389.1843,,,,1387.026069,1388.533651,1388.533651,1388.533651,k,0.633294525,,,,,,,,,,,,,,,,,,,,,,,,,,,,,,,,,,,,,,,,,,,,,,,,98412_2,2022-11-30_14h29.30.923,vts_reward_expectancy_bt_OFFLINE,2022.2.4,60.11236648
,,,,,,,,,,,,,,,,,,,,,,,,,,0,0,0,0,8,0,8,0,,,,,,,,,,,,,,,,,,,,,,,,,,,,,,,,,,,,,,,,1395.457977,,H,174,hexagon,0.001580962,,,,,,,,,1,0,,2,1393.956118,,,,1391.664943,1393.172134,1393.172134,1393.172134,k,0.761894815,,,,,,,,,,,,,,,,,,,,,,,,,,,,,,,,,,,,,,,,,,,,,,,,98412_2,2022-11-30_14h29.30.923,vts_reward_expectancy_bt_OFFLINE,2022.2.4,60.11236648
,,,,,,,,,,,,,,,,,,,,,,,,,,0,0,0,0,9,0,9,0,,,,,,,,,,,,,,,,,,,,,,,,,,,,,,,,,,,,,,,,1400.263024,,F,181,triangle,0.001344722,,,,,,,,,1,0,,2,1398.761572,,,,1396.436213,1397.94392,1397.94392,1397.94392,k,0.799419835,,,,,,,,,,,,,,,,,,,,,,,,,,,,,,,,,,,,,,,,,,,,,,,,98412_2,2022-11-30_14h29.30.923,vts_reward_expectancy_bt_OFFLINE,2022.2.4,60.11236648
,,,,,,,,,,,,,,,,,,,,,,,,,,,,,,,,,,0,0,0,0,0,0,0,0,,,,,,,,,,,,,,,,,,,,,,,,,,,,0,828,,,1437.43749,,F,181,triangle,0.002071769,,,,,,,,,1,0,,3,,,,,,,,,,,1431.61286,1431.61286,1431.61286,1431.61286,1433.116141,1433.116141,1433.116141,1433.116141,1433.116141,1433.116141,1433.116141,1433.116141,-1,letter,NA,d,2.793583193,vtsPrac,1435.936871,,,,,,,,,,,,,,,,,,,,,,,,,,,,,98412_2,2022-11-30_14h29.30.923,vts_reward_expectancy_bt_OFFLINE,2022.2.4,60.11236648
,,,,,,,,,,,,,,,,,,,,,,,,,,,,,,,,,,0,0,0,0,1,0,1,0,,,,,,,,,,,,,,,,,,,,,,,,,,,,0,828,,,1442.776645,,D,160,circle,0.00136176,,,,,,,,,1,0,,3,,,,,,,,,,,1438.417345,1438.417345,1438.417345,1438.417345,1439.923696,1439.923696,1439.923696,1439.923696,1439.923696,1439.923696,1439.923696,1439.923696,repeat,letter,lettRpt,d,1.330054887,vtsPrac,1441.275025,,,,,,,,,,,,,,,,,,,,,,,,,,,,,98412_2,2022-11-30_14h29.30.923,vts_reward_expectancy_bt_OFFLINE,2022.2.4,60.11236648
,,,,,,,,,,,,,,,,,,,,,,,,,,,,,,,,,,0,0,0,0,2,0,2,0,,,,,,,,,,,,,,,,,,,,,,,,,,,,0,828,,,1449.367199,,Y,132,star,0.001784063,,,,,,,,,1,0,,3,,,,,,,,,,,1443.758066,1443.758066,1443.758066,1443.758066,1445.262749,1445.262749,1445.262749,1445.262749,1445.262749,1445.262749,1445.262749,1445.262749,switch,number,numSwt,j,2.576079099,vtsPrac,1447.865639,,,,,,,,,,,,,,,,,,,,,,,,,,,,,98412_2,2022-11-30_14h29.30.923,vts_reward_expectancy_bt_OFFLINE,2022.2.4,60.11236648
,,,,,,,,,,,,,,,,,,,,,,,,,,,,,,,,,,0,0,0,0,3,0,3,0,,,,,,,,,,,,,,,,,,,,,,,,,,,,0,828,,,1454.356117,,U,139,triangle,0.001539325,,,,,,,,,1,0,,3,,,,,,,,,,,1450.347801,1450.347801,1450.347801,1450.347801,1451.853325,1451.853325,1451.853325,1451.853325,1451.853325,1451.853325,1451.853325,1451.853325,switch,letter,lettSwt,f,0.968743974,vtsPrac,1452.854393,,,,,,,,,,,,,,,,,,,,,,,,,,,,,98412_2,2022-11-30_14h29.30.923,vts_reward_expectancy_bt_OFFLINE,2022.2.4,60.11236648
,,,,,,,,,,,,,,,,,,,,,,,,,,,,,,,,,,0,0,0,0,4,0,4,0,,,,,,,,,,,,,,,,,,,,,,,,,,,,0,828,,,1459.545179,,F,181,hexagon,0.001389161,,,,,,,,,1,0,,3,,,,,,,,,,,1455.336213,1455.336213,1455.336213,1455.336213,1456.84232,1456.84232,1456.84232,1456.84232,1456.84232,1456.84232,1456.84232,1456.84232,switch,number,numSwt,k,1.171720229,vtsPrac,1458.043431,,,,,,,,,,,,,,,,,,,,,,,,,,,,,98412_2,2022-11-30_14h29.30.923,vts_reward_expectancy_bt_OFFLINE,2022.2.4,60.11236648
,,,,,,,,,,,,,,,,,,,,,,,,,,,,,,,,,,0,0,0,0,5,0,5,0,,,,,,,,,,,,,,,,,,,,,,,,,,,,0,828,,,1465.234756,,D,160,triangle,0.001651151,,,,,,,,,1,0,,3,,,,,,,,,,,1460.526267,1460.526267,1460.526267,1460.526267,1462.031162,1462.031162,1462.031162,1462.031162,1462.031162,1462.031162,1462.031162,1462.031162,repeat,number,numRpt,k,1.679528428,vtsPrac,1463.733095,,,,,,,,,,,,,,,,,,,,,,,,,,,,,98412_2,2022-11-30_14h29.30.923,vts_reward_expectancy_bt_OFFLINE,2022.2.4,60.11236648
,,,,,,,,,,,,,,,,,,,,,,,,,,,,,,,,,,0,0,0,0,6,0,6,0,,,,,,,,,,,,,,,,,,,,,,,,,,,,0,828,,,1471.258298,,Y,132,circle,0.001636427,,,,,,,,,1,0,,3,,,,,,,,,,,1466.21329,1466.21329,1466.21329,1466.21329,1467.720709,1467.720709,1467.720709,1467.720709,1467.720709,1467.720709,1467.720709,1467.720709,repeat,number,numRpt,j,2.004623403,vtsPrac,1469.756286,,,,,,,,,,,,,,,,,,,,,,,,,,,,,98412_2,2022-11-30_14h29.30.923,vts_reward_expectancy_bt_OFFLINE,2022.2.4,60.11236648
,,,,,,,,,,,,,,,,,,,,,,,,,,,,,,,,,,0,0,0,0,7,0,7,0,,,,,,,,,,,,,,,,,,,,,,,,,,,,0,828,,,1478.249039,,U,139,triangle,0.001779982,,,,,,,,,-1,0,,3,,,1478.749603,,,,,,,,1472.237016,1472.237016,1472.237016,1472.237016,1473.744124,1473.744124,1473.744124,1473.744124,1473.744124,1473.744124,1473.744124,1473.744124,switch,no_choice,NA,None,,vtsPrac,1476.747847,1476.747847,1476.747847,1476.747847,1476.747847,1478.249039,,,,,,,,,,,,,,,,,,,,,,,,98412_2,2022-11-30_14h29.30.923,vts_reward_expectancy_bt_OFFLINE,2022.2.4,60.11236648
,,,,,,,,,,,,,,,,,,,,,,,,,,,,,,,,,,0,0,0,0,8,0,8,0,,,,,,,,,,,,,,,,,,,,,,,,,,,,0,828,,,1482.971116,,W,125,hexagon,0.009009607,,,,,,,,,1,0,,3,,,,,,,,,,,1479.245141,1479.245141,1479.245141,1479.245141,1480.75156,1480.75156,1480.75156,1480.75156,1480.75156,1480.75156,1480.75156,1480.75156,switch,letter,lettSwt,f,0.686896226,vtsPrac,1481.469487,,,,,,,,,,,,,,,,,,,,,,,,,,,,,98412_2,2022-11-30_14h29.30.923,vts_reward_expectancy_bt_OFFLINE,2022.2.4,60.11236648
,,,,,,,,,,,,,,,,,,,,,,,,,,,,,,,,,,0,0,0,0,9,0,9,0,,,,,,,,,,,,,,,,,,,,,,,,,,,,0,828,,,1487.876428,,H,181,star,0.001753821,,,,,,,,,1,0,,3,,,,,,,,,,,1483.952539,1483.952539,1483.952539,1483.952539,1485.456933,1485.456933,1485.456933,1485.456933,1485.456933,1485.456933,1485.456933,1485.456933,repeat,letter,lettRpt,d,0.885092901,vtsPrac,1486.374721,,,,,,,,,,,,,,,,,,,,,,,,,,,,,98412_2,2022-11-30_14h29.30.923,vts_reward_expectancy_bt_OFFLINE,2022.2.4,60.11236648
,,,,,,,,,,,,,,,,,,,,,,,,,,,,,,,,,,0,0,0,0,10,0,10,0,,,,,,,,,,,,,,,,,,,,,,,,,,,,0,828,,,1492.881853,,F,146,circle,0.00156396,,,,,,,,,1,0,,3,,,,,,,,,,,1488.858419,1488.858419,1488.858419,1488.858419,1490.362451,1490.362451,1490.362451,1490.362451,1490.362451,1490.362451,1490.362451,1490.362451,switch,number,numSwt,j,0.995328689,vtsPrac,1491.380325,,,,,,,,,,,,,,,,,,,,,,,,,,,,,98412_2,2022-11-30_14h29.30.923,vts_reward_expectancy_bt_OFFLINE,2022.2.4,60.11236648
,,,,,,,,,,,,,,,,,,,,,,,,,,,,,,,,,,0,0,0,0,11,0,11,0,,,,,,,,,,,,,,,,,,,,,,,,,,,,0,828,,,1498.404875,,S,167,triangle,0.001689118,,,,,,,,,1,0,,3,,,,,,,,,,,1493.862827,1493.862827,1493.862827,1493.862827,1495.367951,1495.367951,1495.367951,1495.367951,1495.367951,1495.367951,1495.367951,1495.367951,repeat,number,numRpt,k,1.518481269,vtsPrac,1496.903184,,,,,,,,,,,,,,,,,,,,,,,,,,,,,98412_2,2022-11-30_14h29.30.923,vts_reward_expectancy_bt_OFFLINE,2022.2.4,60.11236648
,,,,,,,,,,,,,,,,,,,,,,,,,,,,,,,,,,0,0,0,0,12,0,12,0,,,,,,,,,,,,,,,,,,,,,,,,,,,,0,828,,,1503.059982,,D,174,hexagon,0.00128214,,,,,,,,,1,0,,3,,,,,,,,,,,1499.383777,1499.383777,1499.383777,1499.383777,1500.89091,1500.89091,1500.89091,1500.89091,1500.89091,1500.89091,1500.89091,1500.89091,switch,letter,lettSwt,d,0.643683355,vtsPrac,1501.558059,,,,,,,,,,,,,,,,,,,,,,,,,,,,,98412_2,2022-11-30_14h29.30.923,vts_reward_expectancy_bt_OFFLINE,2022.2.4,60.11236648
,,,,,,,,,,,,,,,,,,,,,,,,,,,,,,,,,,0,0,0,0,13,0,13,0,,,,,,,,,,,,,,,,,,,,,,,,,,,,0,828,,,1507.681617,,F,146,star,0.001817192,,,,,,,,,1,0,,3,,,,,,,,,,,1504.038639,1504.038639,1504.038639,1504.038639,1505.54602,1505.54602,1505.54602,1505.54602,1505.54602,1505.54602,1505.54602,1505.54602,switch,number,numSwt,j,0.612476891,vtsPrac,1506.18005,,,,,,,,,,,,,,,,,,,,,,,,,,,,,98412_2,2022-11-30_14h29.30.923,vts_reward_expectancy_bt_OFFLINE,2022.2.4,60.11236648
,,,,,,,,,,,,,,,,,,,,,,,,,,,,,,,,,,0,0,0,0,14,0,14,0,,,,,,,,,,,,,,,,,,,,,,,,,,,,0,828,,,1512.303532,,B,160,hexagon,0.001519738,,,,,,,,,1,0,,3,,,,,,,,,,,1508.663726,1508.663726,1508.663726,1508.663726,1510.167664,1510.167664,1510.167664,1510.167664,1510.167664,1510.167664,1510.167664,1510.167664,switch,letter,lettSwt,d,0.60681977,vtsPrac,1510.80187,,,,,,,,,,,,,,,,,,,,,,,,,,,,,98412_2,2022-11-30_14h29.30.923,vts_reward_expectancy_bt_OFFLINE,2022.2.4,60.11236648
,,,,,,,,,,,,,,,,,,,,,,,,,,,,,,,,,,0,0,0,0,15,0,15,0,,,,,,,,,,,,,,,,,,,,,,,,,,,,0,828,,,1517.042037,,Y,167,star,0.001576781,,,,,,,,,1,0,,3,,,,,,,,,,,1513.282698,1513.282698,1513.282698,1513.282698,1514.789638,1514.789638,1514.789638,1514.789638,1514.789638,1514.789638,1514.789638,1514.789638,repeat,letter,lettRpt,f,0.71995895,vtsPrac,1515.540414,,,,,,,,,,,,,,,,,,,,,,,,,,,,,98412_2,2022-11-30_14h29.30.923,vts_reward_expectancy_bt_OFFLINE,2022.2.4,60.11236648
,,,,,,,,,,,,,,,,,,,,,,,,,,,,,,,,,,0,0,0,0,16,0,16,0,,,,,,,,,,,,,,,,,,,,,,,,,,,,0,828,,,1522.164214,,F,174,star,0.001601509,,,,,,,,,1,0,,3,,,,,,,,,,,1518.021178,1518.021178,1518.021178,1518.021178,1519.52774,1519.52774,1519.52774,1519.52774,1519.52774,1519.52774,1519.52774,1519.52774,switch,number,numSwt,k,1.110504101,vtsPrac,1520.662526,,,,,,,,,,,,,,,,,,,,,,,,,,,,,98412_2,2022-11-30_14h29.30.923,vts_reward_expectancy_bt_OFFLINE,2022.2.4,60.11236648
,,,,,,,,,,,,,,,,,,,,,,,,,,,,,,,,,,0,0,0,0,17,0,17,0,,,,,,,,,,,,,,,,,,,,,,,,,,,,0,828,,,1526.703062,,D,146,hexagon,0.001548652,,,,,,,,,0,0,,3,,,,,,,,,,,1523.143408,1523.143408,1523.143408,1523.143408,1524.650295,1524.650295,1524.650295,1524.650295,1524.650295,1524.650295,1524.650295,1524.650295,switch,letter,NA,f,0.524318389,vtsPrac,1525.201262,,,,,,,,,,,,,,,,,,,,,,,,,,,,,98412_2,2022-11-30_14h29.30.923,vts_reward_expectancy_bt_OFFLINE,2022.2.4,60.11236648
,,,,,,,,,,,,,,,,,,,,,,,,,,,,,,,,,,0,0,0,0,18,0,18,0,,,,,,,,,,,,,,,,,,,,,,,,,,,,0,828,,,1531.357789,,Y,167,circle,0.001475543,,,,,,,,,1,1,,3,,,,,,,,,,,1527.68232,1527.68232,1527.68232,1527.68232,1529.18875,1529.18875,1529.18875,1529.18875,1529.18875,1529.18875,1529.18875,1529.18875,repeat,letter,lettRpt,f,0.649717422,vtsPrac,1529.85624,,,,,,,,,,,,,,,,,,,,,,,,,,,,,98412_2,2022-11-30_14h29.30.923,vts_reward_expectancy_bt_OFFLINE,2022.2.4,60.11236648
,,,,,,,,,,,,,,,,,,,,,,,,,,,,,,,,,,0,0,0,0,19,0,19,0,,,,,,,,,,,,,,,,,,,,,,,,,,,,0,828,,,1536.229694,,U,125,star,0.001450639,,,,,,,,,1,0,,3,,,,,,,,,,,1532.337093,1532.337093,1532.337093,1532.337093,1533.843938,1533.843938,1533.843938,1533.843938,1533.843938,1533.843938,1533.843938,1533.843938,repeat,letter,lettRpt,f,0.858385993,vtsPrac,1534.72814,,,,,,,,,,,,,,,,,,,,,,,,,,,,,98412_2,2022-11-30_14h29.30.923,vts_reward_expectancy_bt_OFFLINE,2022.2.4,60.11236648
,,,,,,,,,,,,,,,,,,,,,,,,,,,,,,,,,,0,0,0,0,20,0,20,0,,,,,,,,,,,,,,,,,,,,,,,,,,,,0,828,,,1541.201897,,F,125,circle,0.00159878,,,,,,,,,1,0,,3,,,,,,,,,,,1537.209286,1537.209286,1537.209286,1537.209286,1538.715837,1538.715837,1538.715837,1538.715837,1538.715837,1538.715837,1538.715837,1538.715837,switch,number,numSwt,j,0.961929261,vtsPrac,1539.700248,,,,,,,,,,,,,,,,,,,,,,,,,,,,,98412_2,2022-11-30_14h29.30.923,vts_reward_expectancy_bt_OFFLINE,2022.2.4,60.11236648
,,,,,,,,,,,,,,,,,,,,,,,,,,,,,,,,,,0,0,0,0,21,0,21,0,,,,,,,,,,,,,,,,,,,,,,,,,,,,0,828,,,1545.807245,,D,139,star,0.001490317,,,,,,,,,1,0,,3,,,,,,,,,,,1542.181878,1542.181878,1542.181878,1542.181878,1543.687886,1543.687886,1543.687886,1543.687886,1543.687886,1543.687886,1543.687886,1543.687886,switch,letter,lettSwt,d,0.590606434,vtsPrac,1544.305332,,,,,,,,,,,,,,,,,,,,,,,,,,,,,98412_2,2022-11-30_14h29.30.923,vts_reward_expectancy_bt_OFFLINE,2022.2.4,60.11236648
,,,,,,,,,,,,,,,,,,,,,,,,,,,,,,,,,,0,0,0,0,22,0,22,0,,,,,,,,,,,,,,,,,,,,,,,,,,,,0,828,,,1550.779236,,S,160,hexagon,0.001712975,,,,,,,,,1,0,,3,,,,,,,,,,,1546.785747,1546.785747,1546.785747,1546.785747,1548.293319,1548.293319,1548.293319,1548.293319,1548.293319,1548.293319,1548.293319,1548.293319,switch,number,numSwt,k,0.960410676,vtsPrac,1549.277513,,,,,,,,,,,,,,,,,,,,,,,,,,,,,98412_2,2022-11-30_14h29.30.923,vts_reward_expectancy_bt_OFFLINE,2022.2.4,60.11236648
,,,,,,,,,,,,,,,,,,,,,,,,,,,,,,,,,,0,0,0,0,23,0,23,0,,,,,,,,,,,,,,,,,,,,,,,,,,,,0,828,,,1555.601275,,U,174,circle,0.001529583,,,,,,,,,1,0,,3,,,,,,,,,,,1551.758478,1551.758478,1551.758478,1551.758478,1553.265296,1553.265296,1553.265296,1553.265296,1553.265296,1553.265296,1553.265296,1553.265296,repeat,number,numRpt,k,0.812835902,vtsPrac,1554.099599,,,,,,,,,,,,,,,,,,,,,,,,,,,,,98412_2,2022-11-30_14h29.30.923,vts_reward_expectancy_bt_OFFLINE,2022.2.4,60.11236648
,,,,,,,,,,,,,,,,,,,,,,,,,,,,,,,,,,0,0,0,0,24,0,24,0,,,,,,,,,,,,,,,,,,,,,,,,,,,,0,828,,,1560.339714,,H,139,hexagon,0.001976503,,,,,,,,,1,0,,3,,,,,,,,,,,1556.581057,1556.581057,1556.581057,1556.581057,1558.087318,1558.087318,1558.087318,1558.087318,1558.087318,1558.087318,1558.087318,1558.087318,repeat,number,numRpt,j,0.726327943,vtsPrac,1558.838096,,,,,,,,,,,,,,,,,,,,,,,,,,,,,98412_2,2022-11-30_14h29.30.923,vts_reward_expectancy_bt_OFFLINE,2022.2.4,60.11236648
,,,,,,,,,,,,,,,,,,,,,,,,,,,,,,,,,,0,0,0,0,25,0,25,0,,,,,,,,,,,,,,,,,,,,,,,,,,,,0,828,,,1565.278619,,U,132,triangle,0.001629743,,,,,,,,,1,0,,3,,,,,,,,,,,1561.319146,1561.319146,1561.319146,1561.319146,1562.825768,1562.825768,1562.825768,1562.825768,1562.825768,1562.825768,1562.825768,1562.825768,switch,letter,lettSwt,f,0.924118418,vtsPrac,1563.776956,,,,,,,,,,,,,,,,,,,,,,,,,,,,,98412_2,2022-11-30_14h29.30.923,vts_reward_expectancy_bt_OFFLINE,2022.2.4,60.11236648
,,,,,,,,,,,,,,,,,,,,,,,,,,,,,,,,,,0,0,0,0,26,0,26,0,,,,,,,,,,,,,,,,,,,,,,,,,,,,0,828,,,1569.800206,,D,167,circle,0.001674929,,,,,,,,,1,0,,3,,,,,,,,,,,1566.257123,1566.257123,1566.257123,1566.257123,1567.764535,1567.764535,1567.764535,1567.764535,1567.764535,1567.764535,1567.764535,1567.764535,repeat,letter,lettRpt,d,0.514232618,vtsPrac,1568.298689,,,,,,,,,,,,,,,,,,,,,,,,,,,,,98412_2,2022-11-30_14h29.30.923,vts_reward_expectancy_bt_OFFLINE,2022.2.4,60.11236648
,,,,,,,,,,,,,,,,,,,,,,,,,,,,,,,,,,0,0,0,0,27,0,27,0,,,,,,,,,,,,,,,,,,,,,,,,,,,,0,828,,,1575.389525,,W,125,star,0.001606383,,,,,,,,,1,0,,3,,,,,,,,,,,1570.781554,1570.781554,1570.781554,1570.781554,1572.28617,1572.28617,1572.28617,1572.28617,1572.28617,1572.28617,1572.28617,1572.28617,switch,number,numSwt,j,1.57653408,vtsPrac,1573.887799,,,,,,,,,,,,,,,,,,,,,,,,,,,,,98412_2,2022-11-30_14h29.30.923,vts_reward_expectancy_bt_OFFLINE,2022.2.4,60.11236648
,,,,,,,,,,,,,,,,,,,,,,,,,,,,,,,,,,0,0,0,0,28,0,28,0,,,,,,,,,,,,,,,,,,,,,,,,,,,,0,828,,,1580.078143,,D,181,triangle,0.001726875,,,,,,,,,1,0,,3,,,,,,,,,,,1576.36894,1576.36894,1576.36894,1576.36894,1577.875672,1577.875672,1577.875672,1577.875672,1577.875672,1577.875672,1577.875672,1577.875672,switch,letter,lettSwt,d,0.674336193,vtsPrac,1578.576435,,,,,,,,,,,,,,,,,,,,,,,,,,,,,98412_2,2022-11-30_14h29.30.923,vts_reward_expectancy_bt_OFFLINE,2022.2.4,60.11236648
,,,,,,,,,,,,,,,,,,,,,,,,,,,,,,,,,,0,0,0,0,29,0,29,0,,,,,,,,,,,,,,,,,,,,,,,,,,,,0,828,,,1584.850172,,B,160,circle,0.001628844,,,,,,,,,0,0,,3,,,,,,,,,,,1581.056255,1581.056255,1581.056255,1581.056255,1582.564215,1582.564215,1582.564215,1582.564215,1582.564215,1582.564215,1582.564215,1582.564215,repeat,letter,NA,f,0.753268024,vtsPrac,1583.348578,,,,,,,,,,,,,,,,,,,,,,,,,,,,,98412_2,2022-11-30_14h29.30.923,vts_reward_expectancy_bt_OFFLINE,2022.2.4,60.11236648
,,,,,,,,,,,,,,,,,,,,,,,,,,,,,,,,,,0,0,0,0,30,0,30,0,,,,,,,,,,,,,,,,,,,,,,,,,,,,0,828,,,1589.605528,,W,125,triangle,0.001387844,,,,,,,,,1,1,,3,,,,,,,,,,,1585.82939,1585.82939,1585.82939,1585.82939,1587.336122,1587.336122,1587.336122,1587.336122,1587.336122,1587.336122,1587.336122,1587.336122,repeat,letter,lettRpt,f,0.741842519,vtsPrac,1588.103775,,,,,,,,,,,,,,,,,,,,,,,,,,,,,98412_2,2022-11-30_14h29.30.923,vts_reward_expectancy_bt_OFFLINE,2022.2.4,60.11236648
,,,,,,,,,,,,,,,,,,,,,,,,,,,,,,,,,,0,0,0,0,31,0,31,0,,,,,,,,,,,,,,,,,,,,,,,,,,,,0,828,,,1594.627465,,S,167,hexagon,0.001738336,,,,,,,,,1,0,,3,,,,,,,,,,,1590.585242,1590.585242,1590.585242,1590.585242,1592.091406,1592.091406,1592.091406,1592.091406,1592.091406,1592.091406,1592.091406,1592.091406,switch,number,numSwt,k,1.010197473,vtsPrac,1593.1256,,,,,,,,,,,,,,,,,,,,,,,,,,,,,98412_2,2022-11-30_14h29.30.923,vts_reward_expectancy_bt_OFFLINE,2022.2.4,60.11236648
,,,,,,,,,,,,,,,,,,,,,,,,,,,,,,,,,,,,,,,,,,0,0,0,0,,,,,,,,,,,,,,,,,,,,,,,,0,828,,,1651.940708,,W,181,star,0.002311208,,,,,,,,,1,0,,,,,,,,,,,,,1647.899948,1647.899948,1647.899948,1647.899948,1649.404486,1649.404486,1649.404486,1649.404486,1649.404486,1649.404486,1649.404486,1649.404486,switch,letter,lettSwt,f,1.017807683,noRew,,,,,,,0,1650.439302,,,,,,,,,,,,,,,,,,,,,,98412_2,2022-11-30_14h29.30.923,vts_reward_expectancy_bt_OFFLINE,2022.2.4,60.11236648
,,,,,,,,,,,,,,,,,,,,,,,,,,,,,,,,,,,,,,,,,,1,0,1,0,,,,,,,,,,,,,,,,,,,,,,,,0,828,,,1656.712689,,U,125,triangle,0.001434529,,,,,,,,,1,0,,,,,,,,,,,,,1652.920054,1652.920054,1652.920054,1652.920054,1654.426897,1654.426897,1654.426897,1654.426897,1654.426897,1654.426897,1654.426897,1654.426897,switch,number,numSwt,j,0.76387197,noRew,,,,,,,0,1655.21106,,,,,,,,,,,,,,,,,,,,,,98412_2,2022-11-30_14h29.30.923,vts_reward_expectancy_bt_OFFLINE,2022.2.4,60.11236648
,,,,,,,,,,,,,,,,,,,,,,,,,,,,,,,,,,,,,,,,,,2,0,2,0,,,,,,,,,,,,,,,,,,,,,,,,0,828,,,1661.68481,,F,160,hexagon,0.001692046,,,,,,,,,1,0,,,,,,,,,,,,,1657.691888,1657.691888,1657.691888,1657.691888,1659.198849,1659.198849,1659.198849,1659.198849,1659.198849,1659.198849,1659.198849,1659.198849,repeat,number,numRpt,k,0.951708715,noRew,,,,,,,0,1660.183386,,,,,,,,,,,,,,,,,,,,,,98412_2,2022-11-30_14h29.30.923,vts_reward_expectancy_bt_OFFLINE,2022.2.4,60.11236648
,,,,,,,,,,,,,,,,,,,,,,,,,,,,,,,,,,,,,,,,,,3,0,3,0,,,,,,,,,,,,,,,,,,,,,,,,0,828,,,1666.373349,,Y,174,circle,0.001683309,,,,,,,,,1,0,,,,,,,,,,,,,1662.666234,1662.666234,1662.666234,1662.666234,1664.170933,1664.170933,1664.170933,1664.170933,1664.170933,1664.170933,1664.170933,1664.170933,repeat,number,numRpt,k,0.675778438,noRew,,,,,,,0,1664.871596,,,,,,,,,,,,,,,,,,,,,,98412_2,2022-11-30_14h29.30.923,vts_reward_expectancy_bt_OFFLINE,2022.2.4,60.11236648
,,,,,,,,,,,,,,,,,,,,,,,,,,,,,,,,,,,,,,,,,,4,0,4,0,,,,,,,,,,,,,,,,,,,,,,,,0,828,,,1671.729248,,W,181,circle,0.001462941,,,,,,,,,1,0,,,,,,,,,,,,,1667.352473,1667.352473,1667.352473,1667.352473,1668.859574,1668.859574,1668.859574,1668.859574,1668.859574,1668.859574,1668.859574,1668.859574,switch,letter,lettSwt,f,1.346090045,noRew,,,,,,,0,1670.227723,,,,,,,,,,,,,,,,,,,,,,98412_2,2022-11-30_14h29.30.923,vts_reward_expectancy_bt_OFFLINE,2022.2.4,60.11236648
,,,,,,,,,,,,,,,,,,,,,,,,,,,,,,,,,,,,,,,,,,5,0,5,0,,,,,,,,,,,,,,,,,,,,,,,,0,828,,,1676.351158,,U,125,hexagon,0.00162224,,,,,,,,,1,0,,,,,,,,,,,,,1672.708497,1672.708497,1672.708497,1672.708497,1674.215455,1674.215455,1674.215455,1674.215455,1674.215455,1674.215455,1674.215455,1674.215455,repeat,letter,lettRpt,f,0.615465916,noRew,,,,,,,0,1674.849547,,,,,,,,,,,,,,,,,,,,,,98412_2,2022-11-30_14h29.30.923,vts_reward_expectancy_bt_OFFLINE,2022.2.4,60.11236648
,,,,,,,,,,,,,,,,,,,,,,,,,,,,,,,,,,,,,,,,,,6,0,6,0,,,,,,,,,,,,,,,,,,,,,,,,0,828,,,1681.072849,,F,160,star,0.001354459,,,,,,,,,1,0,,,,,,,,,,,,,1677.331031,1677.331031,1677.331031,1677.331031,1678.837163,1678.837163,1678.837163,1678.837163,1678.837163,1678.837163,1678.837163,1678.837163,switch,number,numSwt,k,0.705427264,noRew,,,,,,,0,1679.571399,,,,,,,,,,,,,,,,,,,,,,98412_2,2022-11-30_14h29.30.923,vts_reward_expectancy_bt_OFFLINE,2022.2.4,60.11236648
,,,,,,,,,,,,,,,,,,,,,,,,,,,,,,,,,,,,,,,,,,7,0,7,0,,,,,,,,,,,,,,,,,,,,,,,,0,828,,,1685.561299,,Y,174,hexagon,0.001614672,,,,,,,,,1,0,,,,,,,,,,,,,1682.052222,1682.052222,1682.052222,1682.052222,1683.558913,1683.558913,1683.558913,1683.558913,1683.558913,1683.558913,1683.558913,1683.558913,switch,letter,lettSwt,f,0.479476347,noRew,,,,,,,0,1684.059716,,,,,,,,,,,,,,,,,,,,,,98412_2,2022-11-30_14h29.30.923,vts_reward_expectancy_bt_OFFLINE,2022.2.4,60.11236648
,,,,,,,,,,,,,,,,,,,,,,,,,,,,,,,,,,,,,,,,,,8,0,8,0,,,,,,,,,,,,,,,,,,,,,,,,0,828,,,1690.16632,,Y,160,circle,0.00155973,,,,,,,,,1,0,,,,,,,,,,,,,1686.53936,1686.53936,1686.53936,1686.53936,1688.047276,1688.047276,1688.047276,1688.047276,1688.047276,1688.047276,1688.047276,1688.047276,repeat,letter,lettRpt,f,0.590972518,noRew,,,,,,,0,1688.664698,,,,,,,,,,,,,,,,,,,,,,98412_2,2022-11-30_14h29.30.923,vts_reward_expectancy_bt_OFFLINE,2022.2.4,60.11236648
,,,,,,,,,,,,,,,,,,,,,,,,,,,,,,,,,,,,,,,,,,9,0,9,0,,,,,,,,,,,,,,,,,,,,,,,,0,828,,,1694.904873,,S,167,triangle,0.00160409,,,,,,,,,1,0,,,,,,,,,,,,,1691.144554,1691.144554,1691.144554,1691.144554,1692.652323,1692.652323,1692.652323,1692.652323,1692.652323,1692.652323,1692.652323,1692.652323,repeat,letter,lettRpt,f,0.730171733,noRew,,,,,,,0,1693.403085,,,,,,,,,,,,,,,,,,,,,,98412_2,2022-11-30_14h29.30.923,vts_reward_expectancy_bt_OFFLINE,2022.2.4,60.11236648
,,,,,,,,,,,,,,,,,,,,,,,,,,,,,,,,,,,,,,,,,,10,0,10,0,,,,,,,,,,,,,,,,,,,,,,,,0,828,,,1700.844543,,D,125,hexagon,0.001580519,,,,,,,,,1,0,,,,,,,,,,,,,1695.883992,1695.883992,1695.883992,1695.883992,1697.390923,1697.390923,1697.390923,1697.390923,1697.390923,1697.390923,1697.390923,1697.390923,switch,number,numSwt,j,1.919027672,noRew,,,,,,,0,1699.343069,,,,,,,,,,,,,,,,,,,,,,98412_2,2022-11-30_14h29.30.923,vts_reward_expectancy_bt_OFFLINE,2022.2.4,60.11236648
,,,,,,,,,,,,,,,,,,,,,,,,,,,,,,,,,,,,,,,,,,11,0,11,0,,,,,,,,,,,,,,,,,,,,,,,,0,828,,,1705.833519,,W,174,circle,0.001586823,,,,,,,,,1,0,,,,,,,,,,,,,1701.825913,1701.825913,1701.825913,1701.825913,1703.330669,1703.330669,1703.330669,1703.330669,1703.330669,1703.330669,1703.330669,1703.330669,switch,letter,lettSwt,f,0.979540513,noRew,,,,,,,0,1704.331983,,,,,,,,,,,,,,,,,,,,,,98412_2,2022-11-30_14h29.30.923,vts_reward_expectancy_bt_OFFLINE,2022.2.4,60.11236648
,,,,,,,,,,,,,,,,,,,,,,,,,,,,,,,,,,,,,,,,,,12,0,12,0,,,,,,,,,,,,,,,,,,,,,,,,0,828,,,1710.922532,,H,139,circle,0.001848389,,,,,,,,,1,0,,,,,,,,,,,,,1706.815037,1706.815037,1706.815037,1706.815037,1708.319667,1708.319667,1708.319667,1708.319667,1708.319667,1708.319667,1708.319667,1708.319667,repeat,letter,lettRpt,d,1.069833863,noRew,,,,,,,0,1709.420926,,,,,,,,,,,,,,,,,,,,,,98412_2,2022-11-30_14h29.30.923,vts_reward_expectancy_bt_OFFLINE,2022.2.4,60.11236648
,,,,,,,,,,,,,,,,,,,,,,,,,,,,,,,,,,,,,,,,,,13,0,13,0,,,,,,,,,,,,,,,,,,,,,,,,0,828,,,1715.777806,,B,174,star,0.001421302,,,,,,,,,1,0,,,,,,,,,,,,,1711.901051,1711.901051,1711.901051,1711.901051,1713.408509,1713.408509,1713.408509,1713.408509,1713.408509,1713.408509,1713.408509,1713.408509,repeat,letter,lettRpt,d,0.845700327,noRew,,,,,,,0,1714.276248,,,,,,,,,,,,,,,,,,,,,,98412_2,2022-11-30_14h29.30.923,vts_reward_expectancy_bt_OFFLINE,2022.2.4,60.11236648
,,,,,,,,,,,,,,,,,,,,,,,,,,,,,,,,,,,,,,,,,,14,0,14,0,,,,,,,,,,,,,,,,,,,,,,,,0,828,,,1720.549895,,F,167,circle,0.001572179,,,,,,,,,1,0,,,,,,,,,,,,,1716.75743,1716.75743,1716.75743,1716.75743,1718.263926,1718.263926,1718.263926,1718.263926,1718.263926,1718.263926,1718.263926,1718.263926,repeat,letter,lettRpt,d,0.766376472,noRew,,,,,,,0,1719.048067,,,,,,,,,,,,,,,,,,,,,,98412_2,2022-11-30_14h29.30.923,vts_reward_expectancy_bt_OFFLINE,2022.2.4,60.11236648
,,,,,,,,,,,,,,,,,,,,,,,,,,,,,,,,,,,,,,,,,,15,0,15,0,,,,,,,,,,,,,,,,,,,,,,,,0,828,,,1725.939142,,S,181,hexagon,0.001343721,,,,,,,,,1,0,,,,,,,,,,,,,1721.529011,1721.529011,1721.529011,1721.529011,1723.035858,1723.035858,1723.035858,1723.035858,1723.035858,1723.035858,1723.035858,1723.035858,switch,number,numSwt,k,1.377829016,noRew,,,,,,,0,1724.437494,,,,,,,,,,,,,,,,,,,,,,98412_2,2022-11-30_14h29.30.923,vts_reward_expectancy_bt_OFFLINE,2022.2.4,60.11236648
,,,,,,,,,,,,,,,,,,,,,,,,,,,,,,,,,,,,,,,,,,16,0,16,0,,,,,,,,,,,,,,,,,,,,,,,,0,828,,,1730.710906,,B,181,triangle,0.001848748,,,,,,,,,1,0,,,,,,,,,,,,,1726.918876,1726.918876,1726.918876,1726.918876,1728.425095,1728.425095,1728.425095,1728.425095,1728.425095,1728.425095,1728.425095,1728.425095,repeat,number,numRpt,k,0.756720996,noRew,,,,,,,0,1729.209455,,,,,,,,,,,,,,,,,,,,,,98412_2,2022-11-30_14h29.30.923,vts_reward_expectancy_bt_OFFLINE,2022.2.4,60.11236648
,,,,,,,,,,,,,,,,,,,,,,,,,,,,,,,,,,,,,,,,,,17,0,17,0,,,,,,,,,,,,,,,,,,,,,,,,0,828,,,1735.783241,,D,132,circle,0.001348433,,,,,,,,,1,0,,,,,,,,,,,,,1731.691115,1731.691115,1731.691115,1731.691115,1733.197053,1733.197053,1733.197053,1733.197053,1733.197053,1733.197053,1733.197053,1733.197053,repeat,number,numRpt,j,1.057829173,noRew,,,,,,,0,1734.281458,,,,,,,,,,,,,,,,,,,,,,98412_2,2022-11-30_14h29.30.923,vts_reward_expectancy_bt_OFFLINE,2022.2.4,60.11236648
,,,,,,,,,,,,,,,,,,,,,,,,,,,,,,,,,,,,,,,,,,18,0,18,0,,,,,,,,,,,,,,,,,,,,,,,,0,828,,,1740.521892,,U,167,hexagon,0.00186183,,,,,,,,,1,0,,,,,,,,,,,,,1736.764659,1736.764659,1736.764659,1736.764659,1738.269385,1738.269385,1738.269385,1738.269385,1738.269385,1738.269385,1738.269385,1738.269385,repeat,number,numRpt,k,0.721354153,noRew,,,,,,,0,1739.020187,,,,,,,,,,,,,,,,,,,,,,98412_2,2022-11-30_14h29.30.923,vts_reward_expectancy_bt_OFFLINE,2022.2.4,60.11236648
,,,,,,,,,,,,,,,,,,,,,,,,,,,,,,,,,,,,,,,,,,19,0,19,0,,,,,,,,,,,,,,,,,,,,,,,,0,828,,,1745.24364,,F,174,circle,0.001646178,,,,,,,,,1,0,,,,,,,,,,,,,1741.500315,1741.500315,1741.500315,1741.500315,1743.007992,1743.007992,1743.007992,1743.007992,1743.007992,1743.007992,1743.007992,1743.007992,repeat,number,numRpt,k,0.701493785,noRew,,,,,,,0,1743.742024,,,,,,,,,,,,,,,,,,,,,,98412_2,2022-11-30_14h29.30.923,vts_reward_expectancy_bt_OFFLINE,2022.2.4,60.11236648
,,,,,,,,,,,,,,,,,,,,,,,,,,,,,,,,,,,,,,,,,,20,0,20,0,,,,,,,,,,,,,,,,,,,,,,,,0,828,,,1749.998692,,S,125,hexagon,0.001631564,,,,,,,,,1,0,,,,,,,,,,,,,1746.223424,1746.223424,1746.223424,1746.223424,1747.729803,1747.729803,1747.729803,1747.729803,1747.729803,1747.729803,1747.729803,1747.729803,switch,letter,lettSwt,f,0.749462419,noRew,,,,,,,0,1748.497337,,,,,,,,,,,,,,,,,,,,,,98412_2,2022-11-30_14h29.30.923,vts_reward_expectancy_bt_OFFLINE,2022.2.4,60.11236648
,,,,,,,,,,,,,,,,,,,,,,,,,,,,,,,,,,,,,,,,,,21,0,21,0,,,,,,,,,,,,,,,,,,,,,,,,0,828,,,1754.603957,,D,174,triangle,0.001452031,,,,,,,,,1,0,,,,,,,,,,,,,1750.977566,1750.977566,1750.977566,1750.977566,1752.485156,1752.485156,1752.485156,1752.485156,1752.485156,1752.485156,1752.485156,1752.485156,repeat,letter,lettRpt,d,0.584814573,noRew,,,,,,,0,1753.102384,,,,,,,,,,,,,,,,,,,,,,98412_2,2022-11-30_14h29.30.923,vts_reward_expectancy_bt_OFFLINE,2022.2.4,60.11236648
,,,,,,,,,,,,,,,,,,,,,,,,,,,,,,,,,,,,,,,,,,22,0,22,0,,,,,,,,,,,,,,,,,,,,,,,,0,828,,,1759.209299,,Y,160,star,0.001657345,,,,,,,,,1,0,,,,,,,,,,,,,1755.583431,1755.583431,1755.583431,1755.583431,1757.090187,1757.090187,1757.090187,1757.090187,1757.090187,1757.090187,1757.090187,1757.090187,repeat,letter,lettRpt,f,0.588288206,noRew,,,,,,,0,1757.707368,,,,,,,,,,,,,,,,,,,,,,98412_2,2022-11-30_14h29.30.923,vts_reward_expectancy_bt_OFFLINE,2022.2.4,60.11236648
,,,,,,,,,,,,,,,,,,,,,,,,,,,,,,,,,,,,,,,,,,23,0,23,0,,,,,,,,,,,,,,,,,,,,,,,,0,828,,,1763.814406,,W,132,triangle,0.00160002,,,,,,,,,1,0,,,,,,,,,,,,,1760.190465,1760.190465,1760.190465,1760.190465,1761.695144,1761.695144,1761.695144,1761.695144,1761.695144,1761.695144,1761.695144,1761.695144,repeat,letter,lettRpt,f,0.591681425,noRew,,,,,,,0,1762.312547,,,,,,,,,,,,,,,,,,,,,,98412_2,2022-11-30_14h29.30.923,vts_reward_expectancy_bt_OFFLINE,2022.2.4,60.11236648
,,,,,,,,,,,,,,,,,,,,,,,,,,,,,,,,,,,,,,,,,,24,0,24,0,,,,,,,,,,,,,,,,,,,,,,,,0,828,,,1768.502613,,Y,174,circle,0.001782583,,,,,,,,,1,0,,,,,,,,,,,,,1764.793752,1764.793752,1764.793752,1764.793752,1766.300177,1766.300177,1766.300177,1766.300177,1766.300177,1766.300177,1766.300177,1766.300177,repeat,letter,lettRpt,f,0.682742158,noRew,,,,,,,0,1767.000972,,,,,,,,,,,,,,,,,,,,,,98412_2,2022-11-30_14h29.30.923,vts_reward_expectancy_bt_OFFLINE,2022.2.4,60.11236648
,,,,,,,,,,,,,,,,,,,,,,,,,,,,,,,,,,,,,,,,,,25,0,25,0,,,,,,,,,,,,,,,,,,,,,,,,0,828,,,1773.358024,,B,160,hexagon,0.001311208,,,,,,,,,1,0,,,,,,,,,,,,,1769.484056,1769.484056,1769.484056,1769.484056,1770.988794,1770.988794,1770.988794,1770.988794,1770.988794,1770.988794,1770.988794,1770.988794,repeat,letter,lettRpt,d,0.849932065,noRew,,,,,,,0,1771.856485,,,,,,,,,,,,,,,,,,,,,,98412_2,2022-11-30_14h29.30.923,vts_reward_expectancy_bt_OFFLINE,2022.2.4,60.11236648
